CondFileP,Instructions,FaceE,Express,ColourT,ColourF,CorrectAnsP,MasterCondFile,BlockOrder,CondFile,ColCheck,Triplicate_check,SORT_BY_SMALLEST,EPracticeOuterLoop.thisRepN,EPracticeOuterLoop.thisTrialN,EPracticeOuterLoop.thisN,EPracticeOuterLoop.thisIndex,EPracticeInnerLoop.thisRepN,EPracticeInnerLoop.thisTrialN,EPracticeInnerLoop.thisN,EPracticeInnerLoop.thisIndex,MasterLoop.thisRepN,MasterLoop.thisTrialN,MasterLoop.thisN,MasterLoop.thisIndex,OuterLoop.thisRepN,OuterLoop.thisTrialN,OuterLoop.thisN,OuterLoop.thisIndex,InnerLoop.thisRepN,InnerLoop.thisTrialN,InnerLoop.thisN,InnerLoop.thisIndex,text_13.started,text_13.stopped,key_resp_10.keys,key_resp_10.rt,key_resp_10.started,key_resp_10.stopped,text4.started,text4.stopped,EmotionTaskInstructions1.keys,EmotionTaskInstructions1.rt,EmotionTaskInstructions1.started,EmotionTaskInstructions1.stopped,text_4.started,text_4.stopped,key_resp_5.keys,key_resp_5.rt,key_resp_5.started,key_resp_5.stopped,Text_14.started,Text_14.stopped,key_resp_9.keys,key_resp_9.rt,key_resp_9.started,key_resp_9.stopped,text_5.started,text_5.stopped,text_6.started,text_6.stopped,key_resp_7.keys,key_resp_7.rt,key_resp_7.started,key_resp_7.stopped,text_10.started,text_10.stopped,text_11.started,text_11.stopped,text_12.started,text_12.stopped,ISIjitterPractice,EPracticeISIMarker.started,EPracticeISIMarker.stopped,Pract.keys,Pract.corr,Pract.started,Pract.stopped,PracticeFace.started,PracticeFace.stopped,ColourPractice.started,ColourPractice.stopped,text_7.started,text_7.stopped,Pract.rt,EndOfPractice.started,EndOfPractice.stopped,key_resp_8.keys,key_resp_8.rt,key_resp_8.started,key_resp_8.stopped,text_8.started,text_8.stopped,key_resp_6.keys,key_resp_6.rt,key_resp_6.started,key_resp_6.stopped,text_2.started,text_2.stopped,text_3.started,text_3.stopped,key_resp_3.keys,key_resp_3.rt,key_resp_3.started,key_resp_3.stopped,TaskBlock.started,TaskBlock.stopped,BlockNo1.started,BlockNo1.stopped,OfBlock.started,OfBlock.stopped,ISIjitter,ISImarker.started,ISImarker.stopped,key_resp.keys,key_resp.corr,key_resp.rt,key_resp.started,key_resp.stopped,FaceSet.started,FaceSet.stopped,Colour.started,Colour.stopped,EndBlockText.started,EndBlockText.stopped,key_resp_4.keys,key_resp_4.rt,key_resp_4.started,key_resp_4.stopped,BreakText2.started,BreakText2.stopped,PressToContinue.started,PressToContinue.stopped,participant,Study Name,Task Version (required to run),PRE/POST,date,expName,psychopyVersion,frameRate
,,,,,,,,,,,,,,,,,,,,,,,,,,,,,,,,,24.0036391,None,space,70.5441534,24.9981718,None,,,,,,,,,,,,,,,,,,,,,,,,,,,,,,,,,,,,,,,,,,,,,,,,,,,,,,,,,,,,,,,,,,,,,,,,,,,,,,,,,,,,,,,,,,,,,,,P013,fencog,1,Post,2021_Oct_21_1203,Go No-Go Task,2021.1.4,119.9049392
,,,,,,,,,,,,,,,,,,,,,,,,,,,,,,,,,,,,,,,97.0340953,None,space,14.5964182,97.0340953,None,,,,,,,,,,,,,,,,,,,,,,,,,,,,,,,,,,,,,,,,,,,,,,,,,,,,,,,,,,,,,,,,,,,,,,,,,,,,,,,,,,,,,,,,,P013,fencog,1,Post,2021_Oct_21_1203,Go No-Go Task,2021.1.4,119.9049392
,,,,,,,,,,,,,,,,,,,,,,,,,,,,,,,,,,,,,,,,,,,,,111.6945483,None,space,1.432085,111.6945483,None,,,,,,,,,,,,,,,,,,,,,,,,,,,,,,,,,,,,,,,,,,,,,,,,,,,,,,,,,,,,,,,,,,,,,,,,,,,,,,,,,,,P013,fencog,1,Post,2021_Oct_21_1203,Go No-Go Task,2021.1.4,119.9049392
,,,,,,,,,,,,,,,,,,,,,,,,,,,,,,,,,,,,,,,,,,,,,,,,,,,113.1403693,None,space,2.6021035,113.1403693,None,,,,,,,,,,,,,,,,,,,,,,,,,,,,,,,,,,,,,,,,,,,,,,,,,,,,,,,,,,,,,,,,,,,,,,,,,,,,,P013,fencog,1,Post,2021_Oct_21_1203,Go No-Go Task,2021.1.4,119.9049392
EPracticeConditions/BlueEyes.csv,"Rule: When you see a blue image, do not press 'spacebar'.",Images/Fearful/AF01_FO.jpg,Fear,Blue,Images/Blue.jpg,None,,,,,,,0,0,0,0,0,0,0,1,,,,,,,,,,,,,,,,,,,,,,,,,,,,,,,,,,,,,115.8189063,None,118.8124397,None,space,0.7379325,118.8124397,None,115.8189063,None,115.8189063,None,115.8189063,None,1.9,119.6406561,None,None,1,121.6867684,None,121.6867684,None,121.6867684,None,123.1111968,None,,,,,,,,,,,,,,,,,,,,,,,,,,,,,,,,,,,,,,,,,,,,,,,,,,P013,fencog,1,Post,2021_Oct_21_1203,Go No-Go Task,2021.1.4,119.9049392
EPracticeConditions/BlueEyes.csv,"Rule: When you see a blue image, do not press 'spacebar'.",Images/Happy/HF09_HE.jpg,Happy,Yellow,Images/Yellow.jpg,space,,,,,,,0,0,0,0,0,1,1,6,,,,,,,,,,,,,,,,,,,,,,,,,,,,,,,,,,,,,,,,,,,,,,,,,,,1.5,124.5819049,None,space,1,126.1858763,None,126.1858763,None,126.1858763,None,127.08535,None,0.3006819,,,,,,,,,,,,,,,,,,,,,,,,,,,,,,,,,,,,,,,,,,,,,,,,,P013,fencog,1,Post,2021_Oct_21_1203,Go No-Go Task,2021.1.4,119.9049392
EPracticeConditions/BlueEyes.csv,"Rule: When you see a blue image, do not press 'spacebar'.",Images/Happy/BM02_HO.jpg,Happy,Yellow,Images/Yellow.jpg,space,,,,,,,0,0,0,0,0,2,2,2,,,,,,,,,,,,,,,,,,,,,,,,,,,,,,,,,,,,,,,,,,,,,,,,,,,1.4,129.0922743,None,None,0,130.5928872,None,130.5928872,None,130.5928872,None,131.4991631,None,,,,,,,,,,,,,,,,,,,,,,,,,,,,,,,,,,,,,,,,,,,,,,,,,,P013,fencog,1,Post,2021_Oct_21_1203,Go No-Go Task,2021.1.4,119.9049392
EPracticeConditions/BlueEyes.csv,"Rule: When you see a blue image, do not press 'spacebar'.",Images/Happy/HF04_HE.jpg,Happy,Yellow,Images/Yellow.jpg,space,,,,,,,0,0,0,0,0,3,3,4,,,,,,,,,,,,,,,,,,,,,,,,,,,,,,,,,,,,,,,,,,,,,,,,,,,1.2,133.4993299,None,space,1,134.7999591,None,134.7999591,None,134.7999591,None,135.704083,None,0.2461842,,,,,,,,,,,,,,,,,,,,,,,,,,,,,,,,,,,,,,,,,,,,,,,,,P013,fencog,1,Post,2021_Oct_21_1203,Go No-Go Task,2021.1.4,119.9049392
EPracticeConditions/BlueEyes.csv,"Rule: When you see a blue image, do not press 'spacebar'.",Images/Fearful/HM09_FC.jpg,Fear,Blue,Images/Blue.jpg,None,,,,,,,0,0,0,0,0,4,4,0,,,,,,,,,,,,,,,,,,,,,,,,,,,,,,,,,,,,,,,,,,,,,,,,,,,1.7,137.706204,None,None,1,139.5069013,None,139.5069013,None,139.5069013,None,140.4032883,None,,,,,,,,,,,,,,,,,,,,,,,,,,,,,,,,,,,,,,,,,,,,,,,,,,P013,fencog,1,Post,2021_Oct_21_1203,Go No-Go Task,2021.1.4,119.9049392
EPracticeConditions/BlueEyes.csv,"Rule: When you see a blue image, do not press 'spacebar'.",Images/Happy/HF10_HE.jpg,Happy,Yellow,Images/Yellow.jpg,space,,,,,,,0,0,0,0,0,5,5,7,,,,,,,,,,,,,,,,,,,,,,,,,,,,,,,,,,,,,,,,,,,,,,,,,,,1.3,142.4049566,None,space,1,143.8057166,None,143.8057166,None,143.8057166,None,144.7025703,None,0.272965,,,,,,,,,,,,,,,,,,,,,,,,,,,,,,,,,,,,,,,,,,,,,,,,,P013,fencog,1,Post,2021_Oct_21_1203,Go No-Go Task,2021.1.4,119.9049392
EPracticeConditions/BlueEyes.csv,"Rule: When you see a blue image, do not press 'spacebar'.",Images/Happy/HF05_HO.jpg,Happy,Yellow,Images/Yellow.jpg,space,,,,,,,0,0,0,0,0,6,6,5,,,,,,,,,,,,,,,,,,,,,,,,,,,,,,,,,,,,,,,,,,,,,,,,,,,1.8,146.7055709,None,space,1,148.6207895,None,148.6207895,None,148.6207895,None,149.5155488,None,0.2580217,,,,,,,,,,,,,,,,,,,,,,,,,,,,,,,,,,,,,,,,,,,,,,,,,P013,fencog,1,Post,2021_Oct_21_1203,Go No-Go Task,2021.1.4,119.9049392
EPracticeConditions/BlueEyes.csv,"Rule: When you see a blue image, do not press 'spacebar'.",Images/Happy/BM08_HO.jpg,Happy,Yellow,Images/Yellow.jpg,space,,,,,,,0,0,0,0,0,7,7,3,,,,,,,,,,,,,,,,,,,,,,,,,,,,,,,,,,,,,,,,,,,,,,,,,,,1.6,151.519241,None,space,1,153.2195585,None,153.2195585,None,153.2195585,None,154.1156315,None,0.2990646,,,,,,,,,,,,,,,,,,,,,,,,,,,,,,,,,,,,,,,,,,,,,,,,,P013,fencog,1,Post,2021_Oct_21_1203,Go No-Go Task,2021.1.4,119.9049392
EPracticeConditions/BlueEyes.csv,"Rule: When you see a blue image, do not press 'spacebar'.",,,,,,,,,,,,0,0,0,0,,,,,,,,,,,,,,,,,,,,,,,,,,,,,,,,,,,,,,,,,,,,,,,,,,,,,,,,,,,,,,,,,,,,,,,,,,,,,,,,,,,,,,,,,,,,,,,,,,,,,,,,,,,,,,,,,,,,,P013,fencog,1,Post,2021_Oct_21_1203,Go No-Go Task,2021.1.4,119.9049392
EPracticeConditions/YellowEyes.csv,"Rule: When you see a yellow image, do not press 'spacebar'.",Images/Happy/AM32HAS.jpg,Happy,Yellow,Images/Yellow.jpg,None,,,,,,,0,1,1,1,0,0,0,0,,,,,,,,,,,,,,,,,,,,,,,,,,,,,,,,,,,,,156.1394046,None,159.1338596,None,space,0.4805342,159.1338596,None,156.1394046,None,156.1394046,None,156.1394046,None,1.7,159.6394165,None,None,1,161.4421819,None,161.4421819,None,161.4421819,None,162.3459691,None,,,,,,,,,,,,,,,,,,,,,,,,,,,,,,,,,,,,,,,,,,,,,,,,,,P013,fencog,1,Post,2021_Oct_21_1203,Go No-Go Task,2021.1.4,119.9049392
EPracticeConditions/YellowEyes.csv,"Rule: When you see a yellow image, do not press 'spacebar'.",Images/Happy/BF05_HO.jpg,Happy,Yellow,Images/Yellow.jpg,None,,,,,,,0,1,1,1,0,1,1,1,,,,,,,,,,,,,,,,,,,,,,,,,,,,,,,,,,,,,,,,,,,,,,,,,,,1.3,164.3485749,None,None,1,165.7491032,None,165.7491032,None,165.7491032,None,166.643511,None,,,,,,,,,,,,,,,,,,,,,,,,,,,,,,,,,,,,,,,,,,,,,,,,,,P013,fencog,1,Post,2021_Oct_21_1203,Go No-Go Task,2021.1.4,119.9049392
EPracticeConditions/YellowEyes.csv,"Rule: When you see a yellow image, do not press 'spacebar'.",Images/Fearful/AM19AFS.jpg,Fear,Blue,Images/Blue.jpg,space,,,,,,,0,1,1,1,0,2,2,4,,,,,,,,,,,,,,,,,,,,,,,,,,,,,,,,,,,,,,,,,,,,,,,,,,,1.5,168.6480488,None,space,1,170.2478593,None,170.2478593,None,170.2478593,None,171.1386472,None,0.2867098,,,,,,,,,,,,,,,,,,,,,,,,,,,,,,,,,,,,,,,,,,,,,,,,,P013,fencog,1,Post,2021_Oct_21_1203,Go No-Go Task,2021.1.4,119.9049392
EPracticeConditions/YellowEyes.csv,"Rule: When you see a yellow image, do not press 'spacebar'.",Images/Fearful/AM17AFS.jpg,Fear,Blue,Images/Blue.jpg,space,,,,,,,0,1,1,1,0,3,3,3,,,,,,,,,,,,,,,,,,,,,,,,,,,,,,,,,,,,,,,,,,,,,,,,,,,1.4,173.1394486,None,space,1,174.6466126,None,174.6466126,None,174.6466126,None,175.5384803,None,0.304789,,,,,,,,,,,,,,,,,,,,,,,,,,,,,,,,,,,,,,,,,,,,,,,,,P013,fencog,1,Post,2021_Oct_21_1203,Go No-Go Task,2021.1.4,119.9049392
EPracticeConditions/YellowEyes.csv,"Rule: When you see a yellow image, do not press 'spacebar'.",Images/Fearful/AM16AFS.jpg,Fear,Blue,Images/Blue.jpg,space,,,,,,,0,1,1,1,0,4,4,2,,,,,,,,,,,,,,,,,,,,,,,,,,,,,,,,,,,,,,,,,,,,,,,,,,,1.2,177.5470107,None,space,1,178.853734,None,178.853734,None,178.853734,None,179.7504888,None,0.2569126,,,,,,,,,,,,,,,,,,,,,,,,,,,,,,,,,,,,,,,,,,,,,,,,,P013,fencog,1,Post,2021_Oct_21_1203,Go No-Go Task,2021.1.4,119.9049392
EPracticeConditions/YellowEyes.csv,"Rule: When you see a yellow image, do not press 'spacebar'.",Images/Fearful/AM24AFS.jpg,Fear,Blue,Images/Blue.jpg,space,,,,,,,0,1,1,1,0,5,5,7,,,,,,,,,,,,,,,,,,,,,,,,,,,,,,,,,,,,,,,,,,,,,,,,,,,1.8,181.7530391,None,space,1,183.6607029,None,183.6607029,None,183.6607029,None,184.5576296,None,0.3378167,,,,,,,,,,,,,,,,,,,,,,,,,,,,,,,,,,,,,,,,,,,,,,,,,P013,fencog,1,Post,2021_Oct_21_1203,Go No-Go Task,2021.1.4,119.9049392
EPracticeConditions/YellowEyes.csv,"Rule: When you see a yellow image, do not press 'spacebar'.",Images/Fearful/AM22AFS.jpg,Fear,Blue,Images/Blue.jpg,space,,,,,,,0,1,1,1,0,6,6,5,,,,,,,,,,,,,,,,,,,,,,,,,,,,,,,,,,,,,,,,,,,,,,,,,,,1.9,186.5616607,None,space,1,188.567533,None,188.567533,None,188.567533,None,189.4718598,None,0.3032646,,,,,,,,,,,,,,,,,,,,,,,,,,,,,,,,,,,,,,,,,,,,,,,,,P013,fencog,1,Post,2021_Oct_21_1203,Go No-Go Task,2021.1.4,119.9049392
EPracticeConditions/YellowEyes.csv,"Rule: When you see a yellow image, do not press 'spacebar'.",Images/Fearful/AM23AFS.jpg,Fear,Blue,Images/Blue.jpg,space,,,,,,,0,1,1,1,0,7,7,6,,,,,,,,,,,,,,,,,,,,,,,,,,,,,,,,,,,,,,,,,,,,,,,,,,,1.6,191.4741021,None,None,0,193.1661249,None,193.1661249,None,193.1661249,None,194.068845,None,,,,,,,,,,,,,,,,,,,,,,,,,,,,,,,,,,,,,,,,,,,,,,,,,,P013,fencog,1,Post,2021_Oct_21_1203,Go No-Go Task,2021.1.4,119.9049392
EPracticeConditions/YellowEyes.csv,"Rule: When you see a yellow image, do not press 'spacebar'.",,,,,,,,,,,,0,1,1,1,,,,,,,,,,,,,,,,,,,,,,,,,,,,,,,,,,,,,,,,,,,,,,,,,,,,,,,,,,,,,,,,,,,,,,,,,,,,,,,,,,,,,,,,,,,,,,,,,,,,,,,,,,,,,,,,,,,,,P013,fencog,1,Post,2021_Oct_21_1203,Go No-Go Task,2021.1.4,119.9049392
EPracticeConditions/BlueScram.csv,"Rule: When you see a blue image, do not press 'spacebar'.",Images/Scram1/BF18_NC.jpg,Scramble,Blue,Images/Blue.jpg,None,,,,,,,0,2,2,2,0,0,0,1,,,,,,,,,,,,,,,,,,,,,,,,,,,,,,,,,,,,,196.0887205,None,199.0805022,None,space,0.4218677,199.0805022,None,196.0887205,None,196.0887205,None,196.0887205,None,1.8,199.5260598,None,None,1,201.430472,None,201.430472,None,201.430472,None,202.3338572,None,,,,,,,,,,,,,,,,,,,,,,,,,,,,,,,,,,,,,,,,,,,,,,,,,,P013,fencog,1,Post,2021_Oct_21_1203,Go No-Go Task,2021.1.4,119.9049392
EPracticeConditions/BlueScram.csv,"Rule: When you see a blue image, do not press 'spacebar'.",Images/Scram2/AF10_NC.jpg,Scramble,Yellow,Images/Yellow.jpg,space,,,,,,,0,2,2,2,0,1,1,2,,,,,,,,,,,,,,,,,,,,,,,,,,,,,,,,,,,,,,,,,,,,,,,,,,,1.5,204.3377132,None,space,1,205.9456391,None,205.9456391,None,205.9456391,None,206.8506242,None,0.2292131,,,,,,,,,,,,,,,,,,,,,,,,,,,,,,,,,,,,,,,,,,,,,,,,,P013,fencog,1,Post,2021_Oct_21_1203,Go No-Go Task,2021.1.4,119.9049392
EPracticeConditions/BlueScram.csv,"Rule: When you see a blue image, do not press 'spacebar'.",Images/Scram2/AF25NES.jpg,Scramble,Yellow,Images/Yellow.jpg,space,,,,,,,0,2,2,2,0,2,2,7,,,,,,,,,,,,,,,,,,,,,,,,,,,,,,,,,,,,,,,,,,,,,,,,,,,1.4,208.8523023,None,space,1,210.3528415,None,210.3528415,None,210.3528415,None,211.2581188,None,0.2940852,,,,,,,,,,,,,,,,,,,,,,,,,,,,,,,,,,,,,,,,,,,,,,,,,P013,fencog,1,Post,2021_Oct_21_1203,Go No-Go Task,2021.1.4,119.9049392
EPracticeConditions/BlueScram.csv,"Rule: When you see a blue image, do not press 'spacebar'.",Images/Scram1/AM13NES.jpg,Scramble,Yellow,Images/Yellow.jpg,space,,,,,,,0,2,2,2,0,3,3,5,,,,,,,,,,,,,,,,,,,,,,,,,,,,,,,,,,,,,,,,,,,,,,,,,,,1.3,213.2592631,None,space,1,214.6598344,None,214.6598344,None,214.6598344,None,215.5586572,None,0.2749805,,,,,,,,,,,,,,,,,,,,,,,,,,,,,,,,,,,,,,,,,,,,,,,,,P013,fencog,1,Post,2021_Oct_21_1203,Go No-Go Task,2021.1.4,119.9049392
EPracticeConditions/BlueScram.csv,"Rule: When you see a blue image, do not press 'spacebar'.",Images/Scram1/AM03NES.jpg,Scramble,Yellow,Images/Yellow.jpg,space,,,,,,,0,2,2,2,0,4,4,4,,,,,,,,,,,,,,,,,,,,,,,,,,,,,,,,,,,,,,,,,,,,,,,,,,,1.2,217.5589815,None,space,1,218.8752935,None,218.8752935,None,218.8752935,None,219.7657194,None,0.2672825,,,,,,,,,,,,,,,,,,,,,,,,,,,,,,,,,,,,,,,,,,,,,,,,,P013,fencog,1,Post,2021_Oct_21_1203,Go No-Go Task,2021.1.4,119.9049392
EPracticeConditions/BlueScram.csv,"Rule: When you see a blue image, do not press 'spacebar'.",Images/Scram1/BM08_NC.jpg,Scramble,Blue,Images/Blue.jpg,None,,,,,,,0,2,2,2,0,5,5,0,,,,,,,,,,,,,,,,,,,,,,,,,,,,,,,,,,,,,,,,,,,,,,,,,,,1.7,221.7652103,None,None,1,223.5655013,None,223.5655013,None,223.5655013,None,224.4640228,None,,,,,,,,,,,,,,,,,,,,,,,,,,,,,,,,,,,,,,,,,,,,,,,,,,P013,fencog,1,Post,2021_Oct_21_1203,Go No-Go Task,2021.1.4,119.9049392
EPracticeConditions/BlueScram.csv,"Rule: When you see a blue image, do not press 'spacebar'.",Images/Scram2/AM03_NC.jpg,Scramble,Yellow,Images/Yellow.jpg,space,,,,,,,0,2,2,2,0,6,6,6,,,,,,,,,,,,,,,,,,,,,,,,,,,,,,,,,,,,,,,,,,,,,,,,,,,1.9,226.4655003,None,space,1,228.4723347,None,228.4723347,None,228.4723347,None,229.3684599,None,0.3024274,,,,,,,,,,,,,,,,,,,,,,,,,,,,,,,,,,,,,,,,,,,,,,,,,P013,fencog,1,Post,2021_Oct_21_1203,Go No-Go Task,2021.1.4,119.9049392
EPracticeConditions/BlueScram.csv,"Rule: When you see a blue image, do not press 'spacebar'.",Images/Scram1/AM04_NC.jpg,Scramble,Yellow,Images/Yellow.jpg,space,,,,,,,0,2,2,2,0,7,7,3,,,,,,,,,,,,,,,,,,,,,,,,,,,,,,,,,,,,,,,,,,,,,,,,,,,1.6,231.3711478,None,space,1,233.0626695,None,233.0626695,None,233.0626695,None,233.9595495,None,0.2561961,,,,,,,,,,,,,,,,,,,,,,,,,,,,,,,,,,,,,,,,,,,,,,,,,P013,fencog,1,Post,2021_Oct_21_1203,Go No-Go Task,2021.1.4,119.9049392
EPracticeConditions/BlueScram.csv,"Rule: When you see a blue image, do not press 'spacebar'.",,,,,,,,,,,,0,2,2,2,,,,,,,,,,,,,,,,,,,,,,,,,,,,,,,,,,,,,,,,,,,,,,,,,,,,,,,,,,,,,,,,,,,,,,,,,,,,,,,,,,,,,,,,,,,,,,,,,,,,,,,,,,,,,,,,,,,,,P013,fencog,1,Post,2021_Oct_21_1203,Go No-Go Task,2021.1.4,119.9049392
EPracticeConditions/YellowScram.csv,"Rule: When you see a yellow image, do not press 'spacebar'.",Images/Scram1/BM01_NC.jpg,Scramble,Blue,Images/Blue.jpg,space,,,,,,,0,3,3,3,0,0,0,5,,,,,,,,,,,,,,,,,,,,,,,,,,,,,,,,,,,,,235.9769586,None,238.9683198,None,space,0.4379919,238.9683198,None,235.9769586,None,235.9769586,None,235.9769586,None,1.4,239.4232919,None,space,1,240.9271585,None,240.9271585,None,240.9271585,None,241.8343091,None,0.3760292,,,,,,,,,,,,,,,,,,,,,,,,,,,,,,,,,,,,,,,,,,,,,,,,,P013,fencog,1,Post,2021_Oct_21_1203,Go No-Go Task,2021.1.4,119.9049392
EPracticeConditions/YellowScram.csv,"Rule: When you see a yellow image, do not press 'spacebar'.",Images/Scram2/AM03NES.jpg,Scramble,Yellow,Images/Yellow.jpg,None,,,,,,,0,3,3,3,0,1,1,1,,,,,,,,,,,,,,,,,,,,,,,,,,,,,,,,,,,,,,,,,,,,,,,,,,,1.5,243.8337626,None,None,1,245.4257778,None,245.4257778,None,245.4257778,None,246.3316412,None,,,,,,,,,,,,,,,,,,,,,,,,,,,,,,,,,,,,,,,,,,,,,,,,,,P013,fencog,1,Post,2021_Oct_21_1203,Go No-Go Task,2021.1.4,119.9049392
EPracticeConditions/YellowScram.csv,"Rule: When you see a yellow image, do not press 'spacebar'.",Images/Scram1/AF30NES.JPG,Scramble,Blue,Images/Blue.jpg,space,,,,,,,0,3,3,3,0,2,2,4,,,,,,,,,,,,,,,,,,,,,,,,,,,,,,,,,,,,,,,,,,,,,,,,,,,1.7,248.3339602,None,space,1,250.1411111,None,250.1411111,None,250.1411111,None,251.0373767,None,0.2734819,,,,,,,,,,,,,,,,,,,,,,,,,,,,,,,,,,,,,,,,,,,,,,,,,P013,fencog,1,Post,2021_Oct_21_1203,Go No-Go Task,2021.1.4,119.9049392
EPracticeConditions/YellowScram.csv,"Rule: When you see a yellow image, do not press 'spacebar'.",Images/Scram1/AF07NES.jpg,Scramble,Blue,Images/Blue.jpg,space,,,,,,,0,3,3,3,0,3,3,3,,,,,,,,,,,,,,,,,,,,,,,,,,,,,,,,,,,,,,,,,,,,,,,,,,,1.3,253.0432136,None,space,1,254.4481263,None,254.4481263,None,254.4481263,None,255.3511985,None,0.3029579,,,,,,,,,,,,,,,,,,,,,,,,,,,,,,,,,,,,,,,,,,,,,,,,,P013,fencog,1,Post,2021_Oct_21_1203,Go No-Go Task,2021.1.4,119.9049392
EPracticeConditions/YellowScram.csv,"Rule: When you see a yellow image, do not press 'spacebar'.",Images/Scram1/AF24NES.jpg,Scramble,Blue,Images/Blue.jpg,space,,,,,,,0,3,3,3,0,4,4,7,,,,,,,,,,,,,,,,,,,,,,,,,,,,,,,,,,,,,,,,,,,,,,,,,,,1.6,257.3545076,None,space,1,259.0552128,None,259.0552128,None,259.0552128,None,259.9517771,None,0.2797147,,,,,,,,,,,,,,,,,,,,,,,,,,,,,,,,,,,,,,,,,,,,,,,,,P013,fencog,1,Post,2021_Oct_21_1203,Go No-Go Task,2021.1.4,119.9049392
EPracticeConditions/YellowScram.csv,"Rule: When you see a yellow image, do not press 'spacebar'.",Images/Scram1/HF04_NC.jpg,Scramble,Blue,Images/Blue.jpg,space,,,,,,,0,3,3,3,0,5,5,2,,,,,,,,,,,,,,,,,,,,,,,,,,,,,,,,,,,,,,,,,,,,,,,,,,,1.9,261.953788,None,space,1,263.9536128,None,263.9536128,None,263.9536128,None,264.8499803,None,0.2691699,,,,,,,,,,,,,,,,,,,,,,,,,,,,,,,,,,,,,,,,,,,,,,,,,P013,fencog,1,Post,2021_Oct_21_1203,Go No-Go Task,2021.1.4,119.9049392
EPracticeConditions/YellowScram.csv,"Rule: When you see a yellow image, do not press 'spacebar'.",Images/Scram2/HM06_NC.jpg,Scramble,Yellow,Images/Yellow.jpg,None,,,,,,,0,3,3,3,0,6,6,0,,,,,,,,,,,,,,,,,,,,,,,,,,,,,,,,,,,,,,,,,,,,,,,,,,,1.8,266.8533319,None,None,1,268.7612309,None,268.7612309,None,268.7612309,None,269.666007,None,,,,,,,,,,,,,,,,,,,,,,,,,,,,,,,,,,,,,,,,,,,,,,,,,,P013,fencog,1,Post,2021_Oct_21_1203,Go No-Go Task,2021.1.4,119.9049392
EPracticeConditions/YellowScram.csv,"Rule: When you see a yellow image, do not press 'spacebar'.",Images/Scram1/AF10_NC.jpg,Scramble,Blue,Images/Blue.jpg,space,,,,,,,0,3,3,3,0,7,7,6,,,,,,,,,,,,,,,,,,,,,,,,,,,,,,,,,,,,,,,,,,,,,,,,,,,1.2,271.6682665,None,space,1,272.9760091,None,272.9760091,None,272.9760091,None,273.866881,None,0.2787596,,,,,,,,,,,,,,,,,,,,,,,,,,,,,,,,,,,,,,,,,,,,,,,,,P013,fencog,1,Post,2021_Oct_21_1203,Go No-Go Task,2021.1.4,119.9049392
EPracticeConditions/YellowScram.csv,"Rule: When you see a yellow image, do not press 'spacebar'.",,,,,,,,,,,,0,3,3,3,,,,,,,,,,,,,,,,,,,,,,,,,,,,,,,,,,,,,,,,,,,,,,,,,,,,,,,,,,,,,,,,,,,,,,,,,,,,,,,,,,,,,,,,,,,,,,,,,,,,,,,,,,,,,,,,,,,,,P013,fencog,1,Post,2021_Oct_21_1203,Go No-Go Task,2021.1.4,119.9049392
,,,,,,,,,,,,,,,,,,,,,,,,,,,,,,,,,,,,,,,,,,,,,,,,,,,,,,,,,,,,,,,,,,,,,,,,,,,,,,,,,,,,,277.159027,None,space,2.6620319,277.6406125,None,,,,,,,,,,,,,,,,,,,,,,,,,,,,,,,,,,,,,,,,,,,P013,fencog,1,Post,2021_Oct_21_1203,Go No-Go Task,2021.1.4,119.9049392
,,,,,,,,,,,,,,,,,,,,,,,,,,,,,,,,,,,,,,,,,,,,,,,,,,,,,,,,,,,,,,,,,,,,,,,,,,,,,,,,,,,,,,,,,,,280.3110064,None,space,0.8477434,280.3110064,None,,,,,,,,,,,,,,,,,,,,,,,,,,,,,,,,,,,,,P013,fencog,1,Post,2021_Oct_21_1203,Go No-Go Task,2021.1.4,119.9049392
,"Rule: When you see a yellow image, do not press 'spacebar'.",Images/Happy/BF09_HO.jpg,Happy,Blue,Images/Blue.jpg,space,ParentConditions/YellowYellowBlue_v1.xlsx,YellowYellowBlue,Conditions/Version_1/YellowFearStop.xlsx,no,PASS,0.826418621,,,,,,,,,0,0,0,1,0,0,0,0,0,0,0,0,,,,,,,,,,,,,,,,,,,,,,,,,,,,,,,,,,,,,,,,,,,,,,,,,,,,,,,,,,,,,,,,,281.2391885,None,284.2306421,None,space,0.647712,284.2306421,None,281.2391885,None,281.2391885,None,281.2391885,None,1.58,284.9230783,None,space,1,0.3053512,286.6053631,None,286.6053631,None,286.6053631,None,,,,,,,,,,,P013,fencog,1,Post,2021_Oct_21_1203,Go No-Go Task,2021.1.4,119.9049392
,"Rule: When you see a yellow image, do not press 'spacebar'.",Images/Happy/AF30HAS.jpg,Happy,Blue,Images/Blue.jpg,space,ParentConditions/YellowYellowBlue_v1.xlsx,YellowYellowBlue,Conditions/Version_1/YellowFearStop.xlsx,no,PASS,0.175771647,,,,,,,,,0,0,0,1,0,0,0,0,0,1,1,1,,,,,,,,,,,,,,,,,,,,,,,,,,,,,,,,,,,,,,,,,,,,,,,,,,,,,,,,,,,,,,,,,,,,,,,,,,,,,,,1.96,287.0118404,None,space,1,0.2551908,289.0795917,None,289.0795917,None,289.0795917,None,,,,,,,,,,,P013,fencog,1,Post,2021_Oct_21_1203,Go No-Go Task,2021.1.4,119.9049392
,"Rule: When you see a yellow image, do not press 'spacebar'.",Images/Happy/AF27HAS.jpg,Happy,Blue,Images/Blue.jpg,space,ParentConditions/YellowYellowBlue_v1.xlsx,YellowYellowBlue,Conditions/Version_1/YellowFearStop.xlsx,no,PASS,0.953023419,,,,,,,,,0,0,0,1,0,0,0,0,0,2,2,2,,,,,,,,,,,,,,,,,,,,,,,,,,,,,,,,,,,,,,,,,,,,,,,,,,,,,,,,,,,,,,,,,,,,,,,,,,,,,,,1.52,289.4812497,None,space,1,0.2866661,291.1039229,None,291.1039229,None,291.1039229,None,,,,,,,,,,,P013,fencog,1,Post,2021_Oct_21_1203,Go No-Go Task,2021.1.4,119.9049392
,"Rule: When you see a yellow image, do not press 'spacebar'.",Images/Happy/AF22HAS.jpg,Happy,Blue,Images/Blue.jpg,space,ParentConditions/YellowYellowBlue_v1.xlsx,YellowYellowBlue,Conditions/Version_1/YellowFearStop.xlsx,no,PASS,0.382442311,,,,,,,,,0,0,0,1,0,0,0,0,0,3,3,3,,,,,,,,,,,,,,,,,,,,,,,,,,,,,,,,,,,,,,,,,,,,,,,,,,,,,,,,,,,,,,,,,,,,,,,,,,,,,,,1.46,291.5057072,None,space,1,0.3768854,293.0699734,None,293.0699734,None,293.0699734,None,,,,,,,,,,,P013,fencog,1,Post,2021_Oct_21_1203,Go No-Go Task,2021.1.4,119.9049392
,"Rule: When you see a yellow image, do not press 'spacebar'.",Images/Happy/WM11_HC.jpg,Happy,Blue,Images/Blue.jpg,space,ParentConditions/YellowYellowBlue_v1.xlsx,YellowYellowBlue,Conditions/Version_1/YellowFearStop.xlsx,no,PASS,0.464619418,,,,,,,,,0,0,0,1,0,0,0,0,0,4,4,4,,,,,,,,,,,,,,,,,,,,,,,,,,,,,,,,,,,,,,,,,,,,,,,,,,,,,,,,,,,,,,,,,,,,,,,,,,,,,,,1.45,293.4692136,None,space,1,0.2751786,295.0195869,None,295.0195869,None,295.0195869,None,,,,,,,,,,,P013,fencog,1,Post,2021_Oct_21_1203,Go No-Go Task,2021.1.4,119.9049392
,"Rule: When you see a yellow image, do not press 'spacebar'.",Images/Happy/BF05_HO.jpg,Happy,Blue,Images/Blue.jpg,space,ParentConditions/YellowYellowBlue_v1.xlsx,YellowYellowBlue,Conditions/Version_1/YellowFearStop.xlsx,no,PASS,0.787207226,,,,,,,,,0,0,0,1,0,0,0,0,0,5,5,5,,,,,,,,,,,,,,,,,,,,,,,,,,,,,,,,,,,,,,,,,,,,,,,,,,,,,,,,,,,,,,,,,,,,,,,,,,,,,,,1.67,295.4200944,None,None,0,,297.1938085,None,297.1938085,None,297.1938085,None,,,,,,,,,,,P013,fencog,1,Post,2021_Oct_21_1203,Go No-Go Task,2021.1.4,119.9049392
,"Rule: When you see a yellow image, do not press 'spacebar'.",Images/Fearful/AM01AFS.jpg,Fear,Yellow,Images/Yellow.jpg,None,ParentConditions/YellowYellowBlue_v1.xlsx,YellowYellowBlue,Conditions/Version_1/YellowFearStop.xlsx,yes,PASS,0.046465855,,,,,,,,,0,0,0,1,0,0,0,0,0,6,6,6,,,,,,,,,,,,,,,,,,,,,,,,,,,,,,,,,,,,,,,,,,,,,,,,,,,,,,,,,,,,,,,,,,,,,,,,,,,,,,,1.97,297.5962579,None,None,1,,299.6681066,None,299.6681066,None,299.6681066,None,,,,,,,,,,,P013,fencog,1,Post,2021_Oct_21_1203,Go No-Go Task,2021.1.4,119.9049392
,"Rule: When you see a yellow image, do not press 'spacebar'.",Images/Happy/AF23HAS.jpg,Happy,Blue,Images/Blue.jpg,space,ParentConditions/YellowYellowBlue_v1.xlsx,YellowYellowBlue,Conditions/Version_1/YellowFearStop.xlsx,no,PASS,0.956689778,,,,,,,,,0,0,0,1,0,0,0,0,0,7,7,7,,,,,,,,,,,,,,,,,,,,,,,,,,,,,,,,,,,,,,,,,,,,,,,,,,,,,,,,,,,,,,,,,,,,,,,,,,,,,,,1.5,300.0688093,None,space,1,0.2905258,301.6841954,None,301.6841954,None,301.6841954,None,,,,,,,,,,,P013,fencog,1,Post,2021_Oct_21_1203,Go No-Go Task,2021.1.4,119.9049392
,"Rule: When you see a yellow image, do not press 'spacebar'.",Images/Happy/AM16HAS.jpg,Happy,Blue,Images/Blue.jpg,space,ParentConditions/YellowYellowBlue_v1.xlsx,YellowYellowBlue,Conditions/Version_1/YellowFearStop.xlsx,no,PASS,0.971596274,,,,,,,,,0,0,0,1,0,0,0,0,0,8,8,8,,,,,,,,,,,,,,,,,,,,,,,,,,,,,,,,,,,,,,,,,,,,,,,,,,,,,,,,,,,,,,,,,,,,,,,,,,,,,,,1.93,302.083696,None,space,1,0.274607,304.1168558,None,304.1168558,None,304.1168558,None,,,,,,,,,,,P013,fencog,1,Post,2021_Oct_21_1203,Go No-Go Task,2021.1.4,119.9049392
,"Rule: When you see a yellow image, do not press 'spacebar'.",Images/Happy/AM04HAS.jpg,Happy,Blue,Images/Blue.jpg,space,ParentConditions/YellowYellowBlue_v1.xlsx,YellowYellowBlue,Conditions/Version_1/YellowFearStop.xlsx,no,PASS,0.883453283,,,,,,,,,0,0,0,1,0,0,0,0,0,9,9,9,,,,,,,,,,,,,,,,,,,,,,,,,,,,,,,,,,,,,,,,,,,,,,,,,,,,,,,,,,,,,,,,,,,,,,,,,,,,,,,1.44,304.5175869,None,space,1,0.2446643,306.058005,None,306.058005,None,306.058005,None,,,,,,,,,,,P013,fencog,1,Post,2021_Oct_21_1203,Go No-Go Task,2021.1.4,119.9049392
,"Rule: When you see a yellow image, do not press 'spacebar'.",Images/Happy/AF26HAS.jpg,Happy,Blue,Images/Blue.jpg,space,ParentConditions/YellowYellowBlue_v1.xlsx,YellowYellowBlue,Conditions/Version_1/YellowFearStop.xlsx,no,PASS,0.183751262,,,,,,,,,0,0,0,1,0,0,0,0,0,10,10,10,,,,,,,,,,,,,,,,,,,,,,,,,,,,,,,,,,,,,,,,,,,,,,,,,,,,,,,,,,,,,,,,,,,,,,,,,,,,,,,1.83,306.4662232,None,None,0,,308.398874,None,308.398874,None,308.398874,None,,,,,,,,,,,P013,fencog,1,Post,2021_Oct_21_1203,Go No-Go Task,2021.1.4,119.9049392
,"Rule: When you see a yellow image, do not press 'spacebar'.",Images/Fearful/AF10_FC.jpg,Fear,Yellow,Images/Yellow.jpg,None,ParentConditions/YellowYellowBlue_v1.xlsx,YellowYellowBlue,Conditions/Version_1/YellowFearStop.xlsx,yes,PASS,0.280171839,,,,,,,,,0,0,0,1,0,0,0,0,0,11,11,11,,,,,,,,,,,,,,,,,,,,,,,,,,,,,,,,,,,,,,,,,,,,,,,,,,,,,,,,,,,,,,,,,,,,,,,,,,,,,,,1.92,308.7994406,None,None,1,,310.8231112,None,310.8231112,None,310.8231112,None,,,,,,,,,,,P013,fencog,1,Post,2021_Oct_21_1203,Go No-Go Task,2021.1.4,119.9049392
,"Rule: When you see a yellow image, do not press 'spacebar'.",Images/Fearful/AM09_FO.jpg,Fear,Yellow,Images/Yellow.jpg,None,ParentConditions/YellowYellowBlue_v1.xlsx,YellowYellowBlue,Conditions/Version_1/YellowFearStop.xlsx,yes,PASS,0.663013992,,,,,,,,,0,0,0,1,0,0,0,0,0,12,12,12,,,,,,,,,,,,,,,,,,,,,,,,,,,,,,,,,,,,,,,,,,,,,,,,,,,,,,,,,,,,,,,,,,,,,,,,,,,,,,,1.84,311.2250277,None,None,1,,313.1725254,None,313.1725254,None,313.1725254,None,,,,,,,,,,,P013,fencog,1,Post,2021_Oct_21_1203,Go No-Go Task,2021.1.4,119.9049392
,"Rule: When you see a yellow image, do not press 'spacebar'.",Images/Happy/HM04_HO.jpg,Happy,Blue,Images/Blue.jpg,space,ParentConditions/YellowYellowBlue_v1.xlsx,YellowYellowBlue,Conditions/Version_1/YellowFearStop.xlsx,no,PASS,0.940231429,,,,,,,,,0,0,0,1,0,0,0,0,0,13,13,13,,,,,,,,,,,,,,,,,,,,,,,,,,,,,,,,,,,,,,,,,,,,,,,,,,,,,,,,,,,,,,,,,,,,,,,,,,,,,,,1.9,313.5719954,None,space,1,0.2670597,315.5718054,None,315.5718054,None,315.5718054,None,,,,,,,,,,,P013,fencog,1,Post,2021_Oct_21_1203,Go No-Go Task,2021.1.4,119.9049392
,"Rule: When you see a yellow image, do not press 'spacebar'.",Images/Fearful/AM04_FO.jpg,Fear,Yellow,Images/Yellow.jpg,None,ParentConditions/YellowYellowBlue_v1.xlsx,YellowYellowBlue,Conditions/Version_1/YellowFearStop.xlsx,yes,PASS,0.310049008,,,,,,,,,0,0,0,1,0,0,0,0,0,14,14,14,,,,,,,,,,,,,,,,,,,,,,,,,,,,,,,,,,,,,,,,,,,,,,,,,,,,,,,,,,,,,,,,,,,,,,,,,,,,,,,1.78,315.9724408,None,None,1,,317.8544169,None,317.8544169,None,317.8544169,None,,,,,,,,,,,P013,fencog,1,Post,2021_Oct_21_1203,Go No-Go Task,2021.1.4,119.9049392
,"Rule: When you see a yellow image, do not press 'spacebar'.",Images/Happy/AM13HAS.jpg,Happy,Blue,Images/Blue.jpg,space,ParentConditions/YellowYellowBlue_v1.xlsx,YellowYellowBlue,Conditions/Version_1/YellowFearStop.xlsx,no,PASS,0.443146769,,,,,,,,,0,0,0,1,0,0,0,0,0,15,15,15,,,,,,,,,,,,,,,,,,,,,,,,,,,,,,,,,,,,,,,,,,,,,,,,,,,,,,,,,,,,,,,,,,,,,,,,,,,,,,,1.7,318.2541,None,space,1,0.240719,320.053725,None,320.053725,None,320.053725,None,,,,,,,,,,,P013,fencog,1,Post,2021_Oct_21_1203,Go No-Go Task,2021.1.4,119.9049392
,"Rule: When you see a yellow image, do not press 'spacebar'.",Images/Fearful/AF09AFS.jpg,Fear,Yellow,Images/Yellow.jpg,None,ParentConditions/YellowYellowBlue_v1.xlsx,YellowYellowBlue,Conditions/Version_1/YellowFearStop.xlsx,yes,PASS,0.44980257,,,,,,,,,0,0,0,1,0,0,0,0,0,16,16,16,,,,,,,,,,,,,,,,,,,,,,,,,,,,,,,,,,,,,,,,,,,,,,,,,,,,,,,,,,,,,,,,,,,,,,,,,,,,,,,1.62,320.4576156,None,None,1,,322.1865265,None,322.1865265,None,322.1865265,None,,,,,,,,,,,P013,fencog,1,Post,2021_Oct_21_1203,Go No-Go Task,2021.1.4,119.9049392
,"Rule: When you see a yellow image, do not press 'spacebar'.",Images/Fearful/BF05_FO.jpg,Fear,Yellow,Images/Yellow.jpg,None,ParentConditions/YellowYellowBlue_v1.xlsx,YellowYellowBlue,Conditions/Version_1/YellowFearStop.xlsx,yes,PASS,0.908002058,,,,,,,,,0,0,0,1,0,0,0,0,0,17,17,17,,,,,,,,,,,,,,,,,,,,,,,,,,,,,,,,,,,,,,,,,,,,,,,,,,,,,,,,,,,,,,,,,,,,,,,,,,,,,,,1.85,322.5868763,None,space,0,0.2220952,324.5525274,None,324.5525274,None,324.5525274,None,,,,,,,,,,,P013,fencog,1,Post,2021_Oct_21_1203,Go No-Go Task,2021.1.4,119.9049392
,"Rule: When you see a yellow image, do not press 'spacebar'.",Images/Happy/AM24HAS.jpg,Happy,Blue,Images/Blue.jpg,space,ParentConditions/YellowYellowBlue_v1.xlsx,YellowYellowBlue,Conditions/Version_1/YellowFearStop.xlsx,no,PASS,0.922071682,,,,,,,,,0,0,0,1,0,0,0,0,0,18,18,18,,,,,,,,,,,,,,,,,,,,,,,,,,,,,,,,,,,,,,,,,,,,,,,,,,,,,,,,,,,,,,,,,,,,,,,,,,,,,,,1.73,324.9513779,None,space,1,0.2691588,326.7851423,None,326.7851423,None,326.7851423,None,,,,,,,,,,,P013,fencog,1,Post,2021_Oct_21_1203,Go No-Go Task,2021.1.4,119.9049392
,"Rule: When you see a yellow image, do not press 'spacebar'.",Images/Fearful/AF11AFS.jpg,Fear,Yellow,Images/Yellow.jpg,None,ParentConditions/YellowYellowBlue_v1.xlsx,YellowYellowBlue,Conditions/Version_1/YellowFearStop.xlsx,yes,PASS,0.947335264,,,,,,,,,0,0,0,1,0,0,0,0,0,19,19,19,,,,,,,,,,,,,,,,,,,,,,,,,,,,,,,,,,,,,,,,,,,,,,,,,,,,,,,,,,,,,,,,,,,,,,,,,,,,,,,1.63,327.1929101,None,None,1,,328.9261619,None,328.9261619,None,328.9261619,None,,,,,,,,,,,P013,fencog,1,Post,2021_Oct_21_1203,Go No-Go Task,2021.1.4,119.9049392
,"Rule: When you see a yellow image, do not press 'spacebar'.",Images/Happy/AF01_HE.jpg,Happy,Blue,Images/Blue.jpg,space,ParentConditions/YellowYellowBlue_v1.xlsx,YellowYellowBlue,Conditions/Version_1/YellowFearStop.xlsx,no,PASS,0.97589007,,,,,,,,,0,0,0,1,0,0,0,0,0,20,20,20,,,,,,,,,,,,,,,,,,,,,,,,,,,,,,,,,,,,,,,,,,,,,,,,,,,,,,,,,,,,,,,,,,,,,,,,,,,,,,,1.95,329.3269302,None,space,1,0.2711166,331.3919946,None,331.3919946,None,331.3919946,None,,,,,,,,,,,P013,fencog,1,Post,2021_Oct_21_1203,Go No-Go Task,2021.1.4,119.9049392
,"Rule: When you see a yellow image, do not press 'spacebar'.",Images/Happy/AM10_HO.jpg,Happy,Blue,Images/Blue.jpg,space,ParentConditions/YellowYellowBlue_v1.xlsx,YellowYellowBlue,Conditions/Version_1/YellowFearStop.xlsx,no,PASS,0.063235566,,,,,,,,,0,0,0,1,0,0,0,0,0,21,21,21,,,,,,,,,,,,,,,,,,,,,,,,,,,,,,,,,,,,,,,,,,,,,,,,,,,,,,,,,,,,,,,,,,,,,,,,,,,,,,,1.82,331.7912474,None,space,1,0.274141,333.7165249,None,333.7165249,None,333.7165249,None,,,,,,,,,,,P013,fencog,1,Post,2021_Oct_21_1203,Go No-Go Task,2021.1.4,119.9049392
,"Rule: When you see a yellow image, do not press 'spacebar'.",Images/Happy/AF09HAS.jpg,Happy,Blue,Images/Blue.jpg,space,ParentConditions/YellowYellowBlue_v1.xlsx,YellowYellowBlue,Conditions/Version_1/YellowFearStop.xlsx,no,PASS,0.69621759,,,,,,,,,0,0,0,1,0,0,0,0,0,22,22,22,,,,,,,,,,,,,,,,,,,,,,,,,,,,,,,,,,,,,,,,,,,,,,,,,,,,,,,,,,,,,,,,,,,,,,,,,,,,,,,1.39,334.1200373,None,space,1,0.3348624,335.6075157,None,335.6075157,None,335.6075157,None,,,,,,,,,,,P013,fencog,1,Post,2021_Oct_21_1203,Go No-Go Task,2021.1.4,119.9049392
,"Rule: When you see a yellow image, do not press 'spacebar'.",Images/Happy/BM02_HO.jpg,Happy,Blue,Images/Blue.jpg,space,ParentConditions/YellowYellowBlue_v1.xlsx,YellowYellowBlue,Conditions/Version_1/YellowFearStop.xlsx,no,PASS,0.396113477,,,,,,,,,0,0,0,1,0,0,0,0,0,23,23,23,,,,,,,,,,,,,,,,,,,,,,,,,,,,,,,,,,,,,,,,,,,,,,,,,,,,,,,,,,,,,,,,,,,,,,,,,,,,,,,1.38,336.0085541,None,space,1,0.3401971,337.4903811,None,337.4903811,None,337.4903811,None,,,,,,,,,,,P013,fencog,1,Post,2021_Oct_21_1203,Go No-Go Task,2021.1.4,119.9049392
,"Rule: When you see a yellow image, do not press 'spacebar'.",Images/Happy/AM09_HE.jpg,Happy,Blue,Images/Blue.jpg,space,ParentConditions/YellowYellowBlue_v1.xlsx,YellowYellowBlue,Conditions/Version_1/YellowFearStop.xlsx,no,PASS,0.077579477,,,,,,,,,0,0,0,1,0,0,0,0,0,24,24,24,,,,,,,,,,,,,,,,,,,,,,,,,,,,,,,,,,,,,,,,,,,,,,,,,,,,,,,,,,,,,,,,,,,,,,,,,,,,,,,1.24,337.8952862,None,space,1,0.2867904,339.2398724,None,339.2398724,None,339.2398724,None,,,,,,,,,,,P013,fencog,1,Post,2021_Oct_21_1203,Go No-Go Task,2021.1.4,119.9049392
,"Rule: When you see a yellow image, do not press 'spacebar'.",Images/Happy/AF10_HE.jpg,Happy,Blue,Images/Blue.jpg,space,ParentConditions/YellowYellowBlue_v1.xlsx,YellowYellowBlue,Conditions/Version_1/YellowFearStop.xlsx,no,PASS,0.031738248,,,,,,,,,0,0,0,1,0,0,0,0,0,25,25,25,,,,,,,,,,,,,,,,,,,,,,,,,,,,,,,,,,,,,,,,,,,,,,,,,,,,,,,,,,,,,,,,,,,,,,,,,,,,,,,1.29,339.6403777,None,space,1,0.3116415,341.0309693,None,341.0309693,None,341.0309693,None,,,,,,,,,,,P013,fencog,1,Post,2021_Oct_21_1203,Go No-Go Task,2021.1.4,119.9049392
,"Rule: When you see a yellow image, do not press 'spacebar'.",Images/Happy/BM01_HO.jpg,Happy,Blue,Images/Blue.jpg,space,ParentConditions/YellowYellowBlue_v1.xlsx,YellowYellowBlue,Conditions/Version_1/YellowFearStop.xlsx,no,PASS,0.523683635,,,,,,,,,0,0,0,1,0,0,0,0,0,26,26,26,,,,,,,,,,,,,,,,,,,,,,,,,,,,,,,,,,,,,,,,,,,,,,,,,,,,,,,,,,,,,,,,,,,,,,,,,,,,,,,1.88,341.4336927,None,space,1,0.30524,343.4219566,None,343.4219566,None,343.4219566,None,,,,,,,,,,,P013,fencog,1,Post,2021_Oct_21_1203,Go No-Go Task,2021.1.4,119.9049392
,"Rule: When you see a yellow image, do not press 'spacebar'.",Images/Fearful/AF07_FO.jpg,Fear,Yellow,Images/Yellow.jpg,None,ParentConditions/YellowYellowBlue_v1.xlsx,YellowYellowBlue,Conditions/Version_1/YellowFearStop.xlsx,yes,PASS,0.054604097,,,,,,,,,0,0,0,1,0,0,0,0,0,27,27,27,,,,,,,,,,,,,,,,,,,,,,,,,,,,,,,,,,,,,,,,,,,,,,,,,,,,,,,,,,,,,,,,,,,,,,,,,,,,,,,1.27,343.8212723,None,None,1,,345.1964063,None,345.1964063,None,345.1964063,None,,,,,,,,,,,P013,fencog,1,Post,2021_Oct_21_1203,Go No-Go Task,2021.1.4,119.9049392
,"Rule: When you see a yellow image, do not press 'spacebar'.",Images/Happy/BF18_HO.jpg,Happy,Blue,Images/Blue.jpg,space,ParentConditions/YellowYellowBlue_v1.xlsx,YellowYellowBlue,Conditions/Version_1/YellowFearStop.xlsx,no,PASS,0.725547291,,,,,,,,,0,0,0,1,0,0,0,0,0,28,28,28,,,,,,,,,,,,,,,,,,,,,,,,,,,,,,,,,,,,,,,,,,,,,,,,,,,,,,,,,,,,,,,,,,,,,,,,,,,,,,,1.76,345.5986225,None,space,1,0.2802008,347.4625089,None,347.4625089,None,347.4625089,None,,,,,,,,,,,P013,fencog,1,Post,2021_Oct_21_1203,Go No-Go Task,2021.1.4,119.9049392
,"Rule: When you see a yellow image, do not press 'spacebar'.",Images/Happy/AM03HAS.jpg,Happy,Blue,Images/Blue.jpg,space,ParentConditions/YellowYellowBlue_v1.xlsx,YellowYellowBlue,Conditions/Version_1/YellowFearStop.xlsx,no,PASS,0.253179684,,,,,,,,,0,0,0,1,0,0,0,0,0,29,29,29,,,,,,,,,,,,,,,,,,,,,,,,,,,,,,,,,,,,,,,,,,,,,,,,,,,,,,,,,,,,,,,,,,,,,,,,,,,,,,,1.53,347.8645292,None,space,1,0.2798388,349.4952096,None,349.4952096,None,349.4952096,None,,,,,,,,,,,P013,fencog,1,Post,2021_Oct_21_1203,Go No-Go Task,2021.1.4,119.9049392
,"Rule: When you see a yellow image, do not press 'spacebar'.",Images/Happy/BF10_HO.jpg,Happy,Blue,Images/Blue.jpg,space,ParentConditions/YellowYellowBlue_v1.xlsx,YellowYellowBlue,Conditions/Version_1/YellowFearStop.xlsx,no,PASS,0.497783974,,,,,,,,,0,0,0,1,0,0,0,0,0,30,30,30,,,,,,,,,,,,,,,,,,,,,,,,,,,,,,,,,,,,,,,,,,,,,,,,,,,,,,,,,,,,,,,,,,,,,,,,,,,,,,,1.86,349.8973297,None,space,1,0.2978451,351.8610965,None,351.8610965,None,351.8610965,None,,,,,,,,,,,P013,fencog,1,Post,2021_Oct_21_1203,Go No-Go Task,2021.1.4,119.9049392
,"Rule: When you see a yellow image, do not press 'spacebar'.",Images/Happy/BF07_HO.jpg,Happy,Blue,Images/Blue.jpg,space,ParentConditions/YellowYellowBlue_v1.xlsx,YellowYellowBlue,Conditions/Version_1/YellowFearStop.xlsx,no,PASS,0.823093167,,,,,,,,,0,0,0,1,0,0,0,0,0,31,31,31,,,,,,,,,,,,,,,,,,,,,,,,,,,,,,,,,,,,,,,,,,,,,,,,,,,,,,,,,,,,,,,,,,,,,,,,,,,,,,,1.6,352.2660743,None,space,1,0.2541404,353.9685944,None,353.9685944,None,353.9685944,None,,,,,,,,,,,P013,fencog,1,Post,2021_Oct_21_1203,Go No-Go Task,2021.1.4,119.9049392
,"Rule: When you see a yellow image, do not press 'spacebar'.",Images/Fearful/BF07_FO.jpg,Fear,Yellow,Images/Yellow.jpg,None,ParentConditions/YellowYellowBlue_v1.xlsx,YellowYellowBlue,Conditions/Version_1/YellowFearStop.xlsx,yes,PASS,0.211940988,,,,,,,,,0,0,0,1,0,0,0,0,0,32,32,32,,,,,,,,,,,,,,,,,,,,,,,,,,,,,,,,,,,,,,,,,,,,,,,,,,,,,,,,,,,,,,,,,,,,,,,,,,,,,,,1.43,354.3709519,None,None,1,,355.8932448,None,355.8932448,None,355.8932448,None,,,,,,,,,,,P013,fencog,1,Post,2021_Oct_21_1203,Go No-Go Task,2021.1.4,119.9049392
,"Rule: When you see a yellow image, do not press 'spacebar'.",Images/Happy/WF04_HC.jpg,Happy,Blue,Images/Blue.jpg,space,ParentConditions/YellowYellowBlue_v1.xlsx,YellowYellowBlue,Conditions/Version_1/YellowFearStop.xlsx,no,PASS,0.262296129,,,,,,,,,0,0,0,1,0,0,0,0,0,33,33,33,,,,,,,,,,,,,,,,,,,,,,,,,,,,,,,,,,,,,,,,,,,,,,,,,,,,,,,,,,,,,,,,,,,,,,,,,,,,,,,1.25,356.3021696,None,space,1,0.2588421,357.660331,None,357.660331,None,357.660331,None,,,,,,,,,,,P013,fencog,1,Post,2021_Oct_21_1203,Go No-Go Task,2021.1.4,119.9049392
,"Rule: When you see a yellow image, do not press 'spacebar'.",Images/Happy/AM23HAS.jpg,Happy,Blue,Images/Blue.jpg,space,ParentConditions/YellowYellowBlue_v1.xlsx,YellowYellowBlue,Conditions/Version_1/YellowFearStop.xlsx,no,PASS,0.65530777,,,,,,,,,0,0,0,1,0,0,0,0,0,34,34,34,,,,,,,,,,,,,,,,,,,,,,,,,,,,,,,,,,,,,,,,,,,,,,,,,,,,,,,,,,,,,,,,,,,,,,,,,,,,,,,1.8,358.0666158,None,space,1,0.343283,359.9670686,None,359.9670686,None,359.9670686,None,,,,,,,,,,,P013,fencog,1,Post,2021_Oct_21_1203,Go No-Go Task,2021.1.4,119.9049392
,"Rule: When you see a yellow image, do not press 'spacebar'.",Images/Happy/AM09HAS.jpg,Happy,Blue,Images/Blue.jpg,space,ParentConditions/YellowYellowBlue_v1.xlsx,YellowYellowBlue,Conditions/Version_1/YellowFearStop.xlsx,no,PASS,0.379245172,,,,,,,,,0,0,0,1,0,0,0,0,0,35,35,35,,,,,,,,,,,,,,,,,,,,,,,,,,,,,,,,,,,,,,,,,,,,,,,,,,,,,,,,,,,,,,,,,,,,,,,,,,,,,,,1.75,360.368994,None,space,1,0.285863,362.224734,None,362.224734,None,362.224734,None,,,,,,,,,,,P013,fencog,1,Post,2021_Oct_21_1203,Go No-Go Task,2021.1.4,119.9049392
,"Rule: When you see a yellow image, do not press 'spacebar'.",Images/Happy/AM10HAS.jpg,Happy,Blue,Images/Blue.jpg,space,ParentConditions/YellowYellowBlue_v1.xlsx,YellowYellowBlue,Conditions/Version_1/YellowFearStop.xlsx,no,PASS,0.97815503,,,,,,,,,0,0,0,1,0,0,0,0,0,36,36,36,,,,,,,,,,,,,,,,,,,,,,,,,,,,,,,,,,,,,,,,,,,,,,,,,,,,,,,,,,,,,,,,,,,,,,,,,,,,,,,1.3,362.6252542,None,space,1,0.3182438,364.032557,None,364.032557,None,364.032557,None,,,,,,,,,,,P013,fencog,1,Post,2021_Oct_21_1203,Go No-Go Task,2021.1.4,119.9049392
,"Rule: When you see a yellow image, do not press 'spacebar'.",Images/Happy/AF07HAS.jpg,Happy,Blue,Images/Blue.jpg,space,ParentConditions/YellowYellowBlue_v1.xlsx,YellowYellowBlue,Conditions/Version_1/YellowFearStop.xlsx,no,PASS,0.982771062,,,,,,,,,0,0,0,1,0,0,0,0,0,37,37,37,,,,,,,,,,,,,,,,,,,,,,,,,,,,,,,,,,,,,,,,,,,,,,,,,,,,,,,,,,,,,,,,,,,,,,,,,,,,,,,1.79,364.431408,None,space,1,0.2597337,366.3235687,None,366.3235687,None,366.3235687,None,,,,,,,,,,,P013,fencog,1,Post,2021_Oct_21_1203,Go No-Go Task,2021.1.4,119.9049392
,"Rule: When you see a yellow image, do not press 'spacebar'.",Images/Happy/AM03_HO.jpg,Happy,Blue,Images/Blue.jpg,space,ParentConditions/YellowYellowBlue_v1.xlsx,YellowYellowBlue,Conditions/Version_1/YellowFearStop.xlsx,no,PASS,0.696088357,,,,,,,,,0,0,0,1,0,0,0,0,0,38,38,38,,,,,,,,,,,,,,,,,,,,,,,,,,,,,,,,,,,,,,,,,,,,,,,,,,,,,,,,,,,,,,,,,,,,,,,,,,,,,,,2,366.7255024,None,space,1,0.2555206,368.8311495,None,368.8311495,None,368.8311495,None,,,,,,,,,,,P013,fencog,1,Post,2021_Oct_21_1203,Go No-Go Task,2021.1.4,119.9049392
,"Rule: When you see a yellow image, do not press 'spacebar'.",Images/Happy/AM05HAS.jpg,Happy,Blue,Images/Blue.jpg,space,ParentConditions/YellowYellowBlue_v1.xlsx,YellowYellowBlue,Conditions/Version_1/YellowFearStop.xlsx,no,PASS,0.8897548,,,,,,,,,0,0,0,1,0,0,0,0,0,39,39,39,,,,,,,,,,,,,,,,,,,,,,,,,,,,,,,,,,,,,,,,,,,,,,,,,,,,,,,,,,,,,,,,,,,,,,,,,,,,,,,1.87,369.2318336,None,space,1,0.2586707,371.2055349,None,371.2055349,None,371.2055349,None,,,,,,,,,,,P013,fencog,1,Post,2021_Oct_21_1203,Go No-Go Task,2021.1.4,119.9049392
,"Rule: When you see a yellow image, do not press 'spacebar'.",Images/Happy/AF02HAS.jpg,Happy,Blue,Images/Blue.jpg,space,ParentConditions/YellowYellowBlue_v1.xlsx,YellowYellowBlue,Conditions/Version_1/YellowFearStop.xlsx,no,PASS,0.253765998,,,,,,,,,0,0,0,1,0,0,0,0,0,40,40,40,,,,,,,,,,,,,,,,,,,,,,,,,,,,,,,,,,,,,,,,,,,,,,,,,,,,,,,,,,,,,,,,,,,,,,,,,,,,,,,1.89,371.6065212,None,space,1,0.2024001,373.5964291,None,373.5964291,None,373.5964291,None,,,,,,,,,,,P013,fencog,1,Post,2021_Oct_21_1203,Go No-Go Task,2021.1.4,119.9049392
,"Rule: When you see a yellow image, do not press 'spacebar'.",Images/Happy/BM08_HO.jpg,Happy,Blue,Images/Blue.jpg,space,ParentConditions/YellowYellowBlue_v1.xlsx,YellowYellowBlue,Conditions/Version_1/YellowFearStop.xlsx,no,PASS,0.999289281,,,,,,,,,0,0,0,1,0,0,0,0,0,41,41,41,,,,,,,,,,,,,,,,,,,,,,,,,,,,,,,,,,,,,,,,,,,,,,,,,,,,,,,,,,,,,,,,,,,,,,,,,,,,,,,1.47,373.9994242,None,space,1,0.2442805,375.5708543,None,375.5708543,None,375.5708543,None,,,,,,,,,,,P013,fencog,1,Post,2021_Oct_21_1203,Go No-Go Task,2021.1.4,119.9049392
,"Rule: When you see a yellow image, do not press 'spacebar'.",Images/Happy/AM22HAS.jpg,Happy,Blue,Images/Blue.jpg,space,ParentConditions/YellowYellowBlue_v1.xlsx,YellowYellowBlue,Conditions/Version_1/YellowFearStop.xlsx,no,PASS,0.324368893,,,,,,,,,0,0,0,1,0,0,0,0,0,42,42,42,,,,,,,,,,,,,,,,,,,,,,,,,,,,,,,,,,,,,,,,,,,,,,,,,,,,,,,,,,,,,,,,,,,,,,,,,,,,,,,1.2,375.9781147,None,space,1,0.2478727,377.2785751,None,377.2785751,None,377.2785751,None,,,,,,,,,,,P013,fencog,1,Post,2021_Oct_21_1203,Go No-Go Task,2021.1.4,119.9049392
,"Rule: When you see a yellow image, do not press 'spacebar'.",Images/Happy/AM30HAS.jpg,Happy,Blue,Images/Blue.jpg,space,ParentConditions/YellowYellowBlue_v1.xlsx,YellowYellowBlue,Conditions/Version_1/YellowFearStop.xlsx,no,PASS,0.632974901,,,,,,,,,0,0,0,1,0,0,0,0,0,43,43,43,,,,,,,,,,,,,,,,,,,,,,,,,,,,,,,,,,,,,,,,,,,,,,,,,,,,,,,,,,,,,,,,,,,,,,,,,,,,,,,1.72,377.6823968,None,space,1,0.2400134,379.503201,None,379.503201,None,379.503201,None,,,,,,,,,,,P013,fencog,1,Post,2021_Oct_21_1203,Go No-Go Task,2021.1.4,119.9049392
,"Rule: When you see a yellow image, do not press 'spacebar'.",Images/Fearful/BF09_FC.jpg,Fear,Yellow,Images/Yellow.jpg,None,ParentConditions/YellowYellowBlue_v1.xlsx,YellowYellowBlue,Conditions/Version_1/YellowFearStop.xlsx,yes,PASS,0.849066623,,,,,,,,,0,0,0,1,0,0,0,0,0,44,44,44,,,,,,,,,,,,,,,,,,,,,,,,,,,,,,,,,,,,,,,,,,,,,,,,,,,,,,,,,,,,,,,,,,,,,,,,,,,,,,,1.98,379.9032528,None,None,1,,381.9856291,None,381.9856291,None,381.9856291,None,,,,,,,,,,,P013,fencog,1,Post,2021_Oct_21_1203,Go No-Go Task,2021.1.4,119.9049392
,"Rule: When you see a yellow image, do not press 'spacebar'.",Images/Happy/WM12_HE.jpg,Happy,Blue,Images/Blue.jpg,space,ParentConditions/YellowYellowBlue_v1.xlsx,YellowYellowBlue,Conditions/Version_1/YellowFearStop.xlsx,no,PASS,0.119290995,,,,,,,,,0,0,0,1,0,0,0,0,0,45,45,45,,,,,,,,,,,,,,,,,,,,,,,,,,,,,,,,,,,,,,,,,,,,,,,,,,,,,,,,,,,,,,,,,,,,,,,,,,,,,,,1.33,382.3863943,None,space,1,0.2444474,383.81835,None,383.81835,None,383.81835,None,,,,,,,,,,,P013,fencog,1,Post,2021_Oct_21_1203,Go No-Go Task,2021.1.4,119.9049392
,"Rule: When you see a yellow image, do not press 'spacebar'.",Images/Happy/HF10_HE.jpg,Happy,Blue,Images/Blue.jpg,space,ParentConditions/YellowYellowBlue_v1.xlsx,YellowYellowBlue,Conditions/Version_1/YellowFearStop.xlsx,no,PASS,0.835696517,,,,,,,,,0,0,0,1,0,0,0,0,0,46,46,46,,,,,,,,,,,,,,,,,,,,,,,,,,,,,,,,,,,,,,,,,,,,,,,,,,,,,,,,,,,,,,,,,,,,,,,,,,,,,,,1.21,384.2273207,None,space,1,0.2556174,385.5429789,None,385.5429789,None,385.5429789,None,,,,,,,,,,,P013,fencog,1,Post,2021_Oct_21_1203,Go No-Go Task,2021.1.4,119.9049392
,"Rule: When you see a yellow image, do not press 'spacebar'.",Images/Happy/HM09_HO.jpg,Happy,Blue,Images/Blue.jpg,space,ParentConditions/YellowYellowBlue_v1.xlsx,YellowYellowBlue,Conditions/Version_1/YellowFearStop.xlsx,no,PASS,0.806158044,,,,,,,,,0,0,0,1,0,0,0,0,0,47,47,47,,,,,,,,,,,,,,,,,,,,,,,,,,,,,,,,,,,,,,,,,,,,,,,,,,,,,,,,,,,,,,,,,,,,,,,,,,,,,,,1.66,385.9419878,None,space,1,0.2500734,387.7090587,None,387.7090587,None,387.7090587,None,,,,,,,,,,,P013,fencog,1,Post,2021_Oct_21_1203,Go No-Go Task,2021.1.4,119.9049392
,"Rule: When you see a yellow image, do not press 'spacebar'.",Images/Fearful/AM03_FC.jpg,Fear,Yellow,Images/Yellow.jpg,None,ParentConditions/YellowYellowBlue_v1.xlsx,YellowYellowBlue,Conditions/Version_1/YellowFearStop.xlsx,yes,PASS,0.148465679,,,,,,,,,0,0,0,1,0,0,0,0,0,48,48,48,,,,,,,,,,,,,,,,,,,,,,,,,,,,,,,,,,,,,,,,,,,,,,,,,,,,,,,,,,,,,,,,,,,,,,,,,,,,,,,1.26,388.1097353,None,space,0,0.2757667,389.475115,None,389.475115,None,389.475115,None,,,,,,,,,,,P013,fencog,1,Post,2021_Oct_21_1203,Go No-Go Task,2021.1.4,119.9049392
,"Rule: When you see a yellow image, do not press 'spacebar'.",Images/Happy/HF04_HE.jpg,Happy,Blue,Images/Blue.jpg,space,ParentConditions/YellowYellowBlue_v1.xlsx,YellowYellowBlue,Conditions/Version_1/YellowFearStop.xlsx,no,PASS,0.493401324,,,,,,,,,0,0,0,1,0,0,0,0,0,49,49,49,,,,,,,,,,,,,,,,,,,,,,,,,,,,,,,,,,,,,,,,,,,,,,,,,,,,,,,,,,,,,,,,,,,,,,,,,,,,,,,1.35,389.8762134,None,space,1,0.2499719,391.3328624,None,391.3328624,None,391.3328624,None,,,,,,,,,,,P013,fencog,1,Post,2021_Oct_21_1203,Go No-Go Task,2021.1.4,119.9049392
,"Rule: When you see a yellow image, do not press 'spacebar'.",Images/Happy/AM17HAS.jpg,Happy,Blue,Images/Blue.jpg,space,ParentConditions/YellowYellowBlue_v1.xlsx,YellowYellowBlue,Conditions/Version_1/YellowFearStop.xlsx,no,PASS,0.470539973,,,,,,,,,0,0,0,1,0,0,0,0,0,50,50,50,,,,,,,,,,,,,,,,,,,,,,,,,,,,,,,,,,,,,,,,,,,,,,,,,,,,,,,,,,,,,,,,,,,,,,,,,,,,,,,1.57,391.7415228,None,space,1,0.263454,393.4155857,None,393.4155857,None,393.4155857,None,,,,,,,,,,,P013,fencog,1,Post,2021_Oct_21_1203,Go No-Go Task,2021.1.4,119.9049392
,"Rule: When you see a yellow image, do not press 'spacebar'.",Images/Fearful/BM01_FO.jpg,Fear,Yellow,Images/Yellow.jpg,None,ParentConditions/YellowYellowBlue_v1.xlsx,YellowYellowBlue,Conditions/Version_1/YellowFearStop.xlsx,yes,PASS,0.313471747,,,,,,,,,0,0,0,1,0,0,0,0,0,51,51,51,,,,,,,,,,,,,,,,,,,,,,,,,,,,,,,,,,,,,,,,,,,,,,,,,,,,,,,,,,,,,,,,,,,,,,,,,,,,,,,1.42,393.8167045,None,None,1,,395.3399853,None,395.3399853,None,395.3399853,None,,,,,,,,,,,P013,fencog,1,Post,2021_Oct_21_1203,Go No-Go Task,2021.1.4,119.9049392
,"Rule: When you see a yellow image, do not press 'spacebar'.",Images/Happy/HF09_HE.jpg,Happy,Blue,Images/Blue.jpg,space,ParentConditions/YellowYellowBlue_v1.xlsx,YellowYellowBlue,Conditions/Version_1/YellowFearStop.xlsx,no,PASS,0.012739972,,,,,,,,,0,0,0,1,0,0,0,0,0,52,52,52,,,,,,,,,,,,,,,,,,,,,,,,,,,,,,,,,,,,,,,,,,,,,,,,,,,,,,,,,,,,,,,,,,,,,,,,,,,,,,,1.54,395.7404383,None,space,1,0.2497494,397.381057,None,397.381057,None,397.381057,None,,,,,,,,,,,P013,fencog,1,Post,2021_Oct_21_1203,Go No-Go Task,2021.1.4,119.9049392
,"Rule: When you see a yellow image, do not press 'spacebar'.",Images/Happy/WF11_HE.jpg,Happy,Blue,Images/Blue.jpg,space,ParentConditions/YellowYellowBlue_v1.xlsx,YellowYellowBlue,Conditions/Version_1/YellowFearStop.xlsx,no,PASS,0.512809715,,,,,,,,,0,0,0,1,0,0,0,0,0,53,53,53,,,,,,,,,,,,,,,,,,,,,,,,,,,,,,,,,,,,,,,,,,,,,,,,,,,,,,,,,,,,,,,,,,,,,,,,,,,,,,,1.91,397.7829009,None,None,0,,399.7970427,None,399.7970427,None,399.7970427,None,,,,,,,,,,,P013,fencog,1,Post,2021_Oct_21_1203,Go No-Go Task,2021.1.4,119.9049392
,"Rule: When you see a yellow image, do not press 'spacebar'.",Images/Fearful/AM04AFS.jpg,Fear,Yellow,Images/Yellow.jpg,None,ParentConditions/YellowYellowBlue_v1.xlsx,YellowYellowBlue,Conditions/Version_1/YellowFearStop.xlsx,yes,PASS,0.480810801,,,,,,,,,0,0,0,1,0,0,0,0,0,54,54,54,,,,,,,,,,,,,,,,,,,,,,,,,,,,,,,,,,,,,,,,,,,,,,,,,,,,,,,,,,,,,,,,,,,,,,,,,,,,,,,1.28,400.1973561,None,space,0,0.3153679,401.5798308,None,401.5798308,None,401.5798308,None,,,,,,,,,,,P013,fencog,1,Post,2021_Oct_21_1203,Go No-Go Task,2021.1.4,119.9049392
,"Rule: When you see a yellow image, do not press 'spacebar'.",Images/Happy/AF19HAS.jpg,Happy,Blue,Images/Blue.jpg,space,ParentConditions/YellowYellowBlue_v1.xlsx,YellowYellowBlue,Conditions/Version_1/YellowFearStop.xlsx,no,PASS,0.325214701,,,,,,,,,0,0,0,1,0,0,0,0,0,55,55,55,,,,,,,,,,,,,,,,,,,,,,,,,,,,,,,,,,,,,,,,,,,,,,,,,,,,,,,,,,,,,,,,,,,,,,,,,,,,,,,1.22,401.9790943,None,space,1,0.1984814,403.3044194,None,403.3044194,None,403.3044194,None,,,,,,,,,,,P013,fencog,1,Post,2021_Oct_21_1203,Go No-Go Task,2021.1.4,119.9049392
,"Rule: When you see a yellow image, do not press 'spacebar'.",Images/Happy/HM06_HO.jpg,Happy,Blue,Images/Blue.jpg,space,ParentConditions/YellowYellowBlue_v1.xlsx,YellowYellowBlue,Conditions/Version_1/YellowFearStop.xlsx,no,PASS,0.328233749,,,,,,,,,0,0,0,1,0,0,0,0,0,56,56,56,,,,,,,,,,,,,,,,,,,,,,,,,,,,,,,,,,,,,,,,,,,,,,,,,,,,,,,,,,,,,,,,,,,,,,,,,,,,,,,1.37,403.7064982,None,space,1,0.2678832,405.1787613,None,405.1787613,None,405.1787613,None,,,,,,,,,,,P013,fencog,1,Post,2021_Oct_21_1203,Go No-Go Task,2021.1.4,119.9049392
,"Rule: When you see a yellow image, do not press 'spacebar'.",Images/Happy/HF05_HO.jpg,Happy,Blue,Images/Blue.jpg,space,ParentConditions/YellowYellowBlue_v1.xlsx,YellowYellowBlue,Conditions/Version_1/YellowFearStop.xlsx,no,PASS,0.583339171,,,,,,,,,0,0,0,1,0,0,0,0,0,57,57,57,,,,,,,,,,,,,,,,,,,,,,,,,,,,,,,,,,,,,,,,,,,,,,,,,,,,,,,,,,,,,,,,,,,,,,,,,,,,,,,1.69,405.5801308,None,space,1,0.3011892,407.3698333,None,407.3698333,None,407.3698333,None,,,,,,,,,,,P013,fencog,1,Post,2021_Oct_21_1203,Go No-Go Task,2021.1.4,119.9049392
,"Rule: When you see a yellow image, do not press 'spacebar'.",Images/Fearful/AF01_FO.jpg,Fear,Yellow,Images/Yellow.jpg,None,ParentConditions/YellowYellowBlue_v1.xlsx,YellowYellowBlue,Conditions/Version_1/YellowFearStop.xlsx,yes,PASS,0.303490073,,,,,,,,,0,0,0,1,0,0,0,0,0,58,58,58,,,,,,,,,,,,,,,,,,,,,,,,,,,,,,,,,,,,,,,,,,,,,,,,,,,,,,,,,,,,,,,,,,,,,,,,,,,,,,,1.49,407.7715929,None,None,1,,409.3692742,None,409.3692742,None,409.3692742,None,,,,,,,,,,,P013,fencog,1,Post,2021_Oct_21_1203,Go No-Go Task,2021.1.4,119.9049392
,"Rule: When you see a yellow image, do not press 'spacebar'.",Images/Happy/AF21HAS.jpg,Happy,Blue,Images/Blue.jpg,space,ParentConditions/YellowYellowBlue_v1.xlsx,YellowYellowBlue,Conditions/Version_1/YellowFearStop.xlsx,no,PASS,0.979970213,,,,,,,,,0,0,0,1,0,0,0,0,0,59,59,59,,,,,,,,,,,,,,,,,,,,,,,,,,,,,,,,,,,,,,,,,,,,,,,,,,,,,,,,,,,,,,,,,,,,,,,,,,,,,,,1.81,409.7705753,None,space,1,0.2654647,411.6852303,None,411.6852303,None,411.6852303,None,,,,,,,,,,,P013,fencog,1,Post,2021_Oct_21_1203,Go No-Go Task,2021.1.4,119.9049392
,"Rule: When you see a yellow image, do not press 'spacebar'.",Images/Happy/AM06_HC.jpg,Happy,Blue,Images/Blue.jpg,space,ParentConditions/YellowYellowBlue_v1.xlsx,YellowYellowBlue,Conditions/Version_1/YellowFearStop.xlsx,no,PASS,0.298164274,,,,,,,,,0,0,0,1,0,0,0,0,0,60,60,60,,,,,,,,,,,,,,,,,,,,,,,,,,,,,,,,,,,,,,,,,,,,,,,,,,,,,,,,,,,,,,,,,,,,,,,,,,,,,,,1.94,412.0857785,None,space,1,0.3049432,414.1261282,None,414.1261282,None,414.1261282,None,,,,,,,,,,,P013,fencog,1,Post,2021_Oct_21_1203,Go No-Go Task,2021.1.4,119.9049392
,"Rule: When you see a yellow image, do not press 'spacebar'.",Images/Fearful/AF02AFS.jpg,Fear,Yellow,Images/Yellow.jpg,None,ParentConditions/YellowYellowBlue_v1.xlsx,YellowYellowBlue,Conditions/Version_1/YellowFearStop.xlsx,yes,PASS,0.155825205,,,,,,,,,0,0,0,1,0,0,0,0,0,61,61,61,,,,,,,,,,,,,,,,,,,,,,,,,,,,,,,,,,,,,,,,,,,,,,,,,,,,,,,,,,,,,,,,,,,,,,,,,,,,,,,1.51,414.5325209,None,None,1,,416.1506781,None,416.1506781,None,416.1506781,None,,,,,,,,,,,P013,fencog,1,Post,2021_Oct_21_1203,Go No-Go Task,2021.1.4,119.9049392
,"Rule: When you see a yellow image, do not press 'spacebar'.",Images/Happy/AF25HAS.jpg,Happy,Blue,Images/Blue.jpg,space,ParentConditions/YellowYellowBlue_v1.xlsx,YellowYellowBlue,Conditions/Version_1/YellowFearStop.xlsx,no,PASS,0.796365343,,,,,,,,,0,0,0,1,0,0,0,0,0,62,62,62,,,,,,,,,,,,,,,,,,,,,,,,,,,,,,,,,,,,,,,,,,,,,,,,,,,,,,,,,,,,,,,,,,,,,,,,,,,,,,,1.55,416.5527947,None,space,1,0.2543382,418.2082809,None,418.2082809,None,418.2082809,None,,,,,,,,,,,P013,fencog,1,Post,2021_Oct_21_1203,Go No-Go Task,2021.1.4,119.9049392
,"Rule: When you see a yellow image, do not press 'spacebar'.",Images/Happy/AM32HAS.jpg,Happy,Blue,Images/Blue.jpg,space,ParentConditions/YellowYellowBlue_v1.xlsx,YellowYellowBlue,Conditions/Version_1/YellowFearStop.xlsx,no,PASS,0.282355746,,,,,,,,,0,0,0,1,0,0,0,0,0,63,63,63,,,,,,,,,,,,,,,,,,,,,,,,,,,,,,,,,,,,,,,,,,,,,,,,,,,,,,,,,,,,,,,,,,,,,,,,,,,,,,,1.48,418.6071823,None,space,1,0.2795798,420.1910625,None,420.1910625,None,420.1910625,None,,,,,,,,,,,P013,fencog,1,Post,2021_Oct_21_1203,Go No-Go Task,2021.1.4,119.9049392
,"Rule: When you see a yellow image, do not press 'spacebar'.",Images/Fearful/AM02_FO.jpg,Fear,Yellow,Images/Yellow.jpg,None,ParentConditions/YellowYellowBlue_v1.xlsx,YellowYellowBlue,Conditions/Version_1/YellowFearStop.xlsx,yes,PASS,0.848162451,,,,,,,,,0,0,0,1,0,0,0,0,0,64,64,64,,,,,,,,,,,,,,,,,,,,,,,,,,,,,,,,,,,,,,,,,,,,,,,,,,,,,,,,,,,,,,,,,,,,,,,,,,,,,,,1.41,420.5928103,None,None,1,,422.1071294,None,422.1071294,None,422.1071294,None,,,,,,,,,,,P013,fencog,1,Post,2021_Oct_21_1203,Go No-Go Task,2021.1.4,119.9049392
,"Rule: When you see a yellow image, do not press 'spacebar'.",Images/Fearful/BM02_FC.jpg,Fear,Yellow,Images/Yellow.jpg,None,ParentConditions/YellowYellowBlue_v1.xlsx,YellowYellowBlue,Conditions/Version_1/YellowFearStop.xlsx,yes,PASS,0.703347445,,,,,,,,,0,0,0,1,0,0,0,0,0,65,65,65,,,,,,,,,,,,,,,,,,,,,,,,,,,,,,,,,,,,,,,,,,,,,,,,,,,,,,,,,,,,,,,,,,,,,,,,,,,,,,,1.34,422.5080181,None,None,1,,423.9482713,None,423.9482713,None,423.9482713,None,,,,,,,,,,,P013,fencog,1,Post,2021_Oct_21_1203,Go No-Go Task,2021.1.4,119.9049392
,"Rule: When you see a yellow image, do not press 'spacebar'.",Images/Happy/AM04_HE.jpg,Happy,Blue,Images/Blue.jpg,space,ParentConditions/YellowYellowBlue_v1.xlsx,YellowYellowBlue,Conditions/Version_1/YellowFearStop.xlsx,no,PASS,0.195445465,,,,,,,,,0,0,0,1,0,0,0,0,0,66,66,66,,,,,,,,,,,,,,,,,,,,,,,,,,,,,,,,,,,,,,,,,,,,,,,,,,,,,,,,,,,,,,,,,,,,,,,,,,,,,,,1.4,424.3501686,None,space,1,0.2227855,425.8560707,None,425.8560707,None,425.8560707,None,,,,,,,,,,,P013,fencog,1,Post,2021_Oct_21_1203,Go No-Go Task,2021.1.4,119.9049392
,"Rule: When you see a yellow image, do not press 'spacebar'.",Images/Fearful/AM05AFS.jpg,Fear,Yellow,Images/Yellow.jpg,None,ParentConditions/YellowYellowBlue_v1.xlsx,YellowYellowBlue,Conditions/Version_1/YellowFearStop.xlsx,yes,PASS,0.645933641,,,,,,,,,0,0,0,1,0,0,0,0,0,67,67,67,,,,,,,,,,,,,,,,,,,,,,,,,,,,,,,,,,,,,,,,,,,,,,,,,,,,,,,,,,,,,,,,,,,,,,,,,,,,,,,1.59,426.2565355,None,None,1,,427.9385863,None,427.9385863,None,427.9385863,None,,,,,,,,,,,P013,fencog,1,Post,2021_Oct_21_1203,Go No-Go Task,2021.1.4,119.9049392
,"Rule: When you see a yellow image, do not press 'spacebar'.",Images/Happy/AF28HAS.jpg,Happy,Blue,Images/Blue.jpg,space,ParentConditions/YellowYellowBlue_v1.xlsx,YellowYellowBlue,Conditions/Version_1/YellowFearStop.xlsx,no,PASS,0.168407758,,,,,,,,,0,0,0,1,0,0,0,0,0,68,68,68,,,,,,,,,,,,,,,,,,,,,,,,,,,,,,,,,,,,,,,,,,,,,,,,,,,,,,,,,,,,,,,,,,,,,,,,,,,,,,,1.99,428.3392996,None,space,1,0.280998,430.4297538,None,430.4297538,None,430.4297538,None,,,,,,,,,,,P013,fencog,1,Post,2021_Oct_21_1203,Go No-Go Task,2021.1.4,119.9049392
,"Rule: When you see a yellow image, do not press 'spacebar'.",Images/Happy/AF07_HO.jpg,Happy,Blue,Images/Blue.jpg,space,ParentConditions/YellowYellowBlue_v1.xlsx,YellowYellowBlue,Conditions/Version_1/YellowFearStop.xlsx,no,PASS,0.892185425,,,,,,,,,0,0,0,1,0,0,0,0,0,69,69,69,,,,,,,,,,,,,,,,,,,,,,,,,,,,,,,,,,,,,,,,,,,,,,,,,,,,,,,,,,,,,,,,,,,,,,,,,,,,,,,1.74,430.8287422,None,space,1,0.3121697,432.6706482,None,432.6706482,None,432.6706482,None,,,,,,,,,,,P013,fencog,1,Post,2021_Oct_21_1203,Go No-Go Task,2021.1.4,119.9049392
,"Rule: When you see a yellow image, do not press 'spacebar'.",Images/Happy/BF14_HO.jpg,Happy,Blue,Images/Blue.jpg,space,ParentConditions/YellowYellowBlue_v1.xlsx,YellowYellowBlue,Conditions/Version_1/YellowFearStop.xlsx,no,PASS,0.113400233,,,,,,,,,0,0,0,1,0,0,0,0,0,70,70,70,,,,,,,,,,,,,,,,,,,,,,,,,,,,,,,,,,,,,,,,,,,,,,,,,,,,,,,,,,,,,,,,,,,,,,,,,,,,,,,1.77,433.0729127,None,space,1,0.2941959,434.9449163,None,434.9449163,None,434.9449163,None,,,,,,,,,,,P013,fencog,1,Post,2021_Oct_21_1203,Go No-Go Task,2021.1.4,119.9049392
,"Rule: When you see a yellow image, do not press 'spacebar'.",Images/Fearful/AF07FS.jpg,Fear,Yellow,Images/Yellow.jpg,None,ParentConditions/YellowYellowBlue_v1.xlsx,YellowYellowBlue,Conditions/Version_1/YellowFearStop.xlsx,yes,PASS,0.017721147,,,,,,,,,0,0,0,1,0,0,0,0,0,71,71,71,,,,,,,,,,,,,,,,,,,,,,,,,,,,,,,,,,,,,,,,,,,,,,,,,,,,,,,,,,,,,,,,,,,,,,,,,,,,,,,1.71,435.3469527,None,None,1,,437.1610378,None,437.1610378,None,437.1610378,None,,,,,,,,,,,P013,fencog,1,Post,2021_Oct_21_1203,Go No-Go Task,2021.1.4,119.9049392
,"Rule: When you see a yellow image, do not press 'spacebar'.",Images/Happy/AF32HAS.jpg,Happy,Blue,Images/Blue.jpg,space,ParentConditions/YellowYellowBlue_v1.xlsx,YellowYellowBlue,Conditions/Version_1/YellowFearStop.xlsx,no,PASS,0.351428612,,,,,,,,,0,0,0,1,0,0,0,0,0,72,72,72,,,,,,,,,,,,,,,,,,,,,,,,,,,,,,,,,,,,,,,,,,,,,,,,,,,,,,,,,,,,,,,,,,,,,,,,,,,,,,,1.32,437.5628029,None,space,1,0.2690678,438.985521,None,438.985521,None,438.985521,None,,,,,,,,,,,P013,fencog,1,Post,2021_Oct_21_1203,Go No-Go Task,2021.1.4,119.9049392
,"Rule: When you see a yellow image, do not press 'spacebar'.",Images/Happy/AF11HAS.jpg,Happy,Blue,Images/Blue.jpg,space,ParentConditions/YellowYellowBlue_v1.xlsx,YellowYellowBlue,Conditions/Version_1/YellowFearStop.xlsx,no,PASS,0.543717435,,,,,,,,,0,0,0,1,0,0,0,0,0,73,73,73,,,,,,,,,,,,,,,,,,,,,,,,,,,,,,,,,,,,,,,,,,,,,,,,,,,,,,,,,,,,,,,,,,,,,,,,,,,,,,,1.31,439.3875422,None,space,1,0.285157,440.8016023,None,440.8016023,None,440.8016023,None,,,,,,,,,,,P013,fencog,1,Post,2021_Oct_21_1203,Go No-Go Task,2021.1.4,119.9049392
,"Rule: When you see a yellow image, do not press 'spacebar'.",Images/Happy/AM19HAS.jpg,Happy,Blue,Images/Blue.jpg,space,ParentConditions/YellowYellowBlue_v1.xlsx,YellowYellowBlue,Conditions/Version_1/YellowFearStop.xlsx,no,PASS,0.404854658,,,,,,,,,0,0,0,1,0,0,0,0,0,74,74,74,,,,,,,,,,,,,,,,,,,,,,,,,,,,,,,,,,,,,,,,,,,,,,,,,,,,,,,,,,,,,,,,,,,,,,,,,,,,,,,1.36,441.202493,None,space,1,0.2911086,442.6678192,None,442.6678192,None,442.6678192,None,,,,,,,,,,,P013,fencog,1,Post,2021_Oct_21_1203,Go No-Go Task,2021.1.4,119.9049392
,"Rule: When you see a yellow image, do not press 'spacebar'.",Images/Happy/AM01HAS.jpg,Happy,Blue,Images/Blue.jpg,space,ParentConditions/YellowYellowBlue_v1.xlsx,YellowYellowBlue,Conditions/Version_1/YellowFearStop.xlsx,no,PASS,0.668098745,,,,,,,,,0,0,0,1,0,0,0,0,0,75,75,75,,,,,,,,,,,,,,,,,,,,,,,,,,,,,,,,,,,,,,,,,,,,,,,,,,,,,,,,,,,,,,,,,,,,,,,,,,,,,,,1.64,443.073635,None,space,1,0.2697322,444.8171242,None,444.8171242,None,444.8171242,None,,,,,,,,,,,P013,fencog,1,Post,2021_Oct_21_1203,Go No-Go Task,2021.1.4,119.9049392
,"Rule: When you see a yellow image, do not press 'spacebar'.",Images/Happy/WF05_HC.jpg,Happy,Blue,Images/Blue.jpg,space,ParentConditions/YellowYellowBlue_v1.xlsx,YellowYellowBlue,Conditions/Version_1/YellowFearStop.xlsx,no,PASS,0.334650317,,,,,,,,,0,0,0,1,0,0,0,0,0,76,76,76,,,,,,,,,,,,,,,,,,,,,,,,,,,,,,,,,,,,,,,,,,,,,,,,,,,,,,,,,,,,,,,,,,,,,,,,,,,,,,,1.56,445.2189243,None,space,1,0.2443137,446.8831911,None,446.8831911,None,446.8831911,None,,,,,,,,,,,P013,fencog,1,Post,2021_Oct_21_1203,Go No-Go Task,2021.1.4,119.9049392
,"Rule: When you see a yellow image, do not press 'spacebar'.",Images/Happy/BM03_HO.jpg,Happy,Blue,Images/Blue.jpg,space,ParentConditions/YellowYellowBlue_v1.xlsx,YellowYellowBlue,Conditions/Version_1/YellowFearStop.xlsx,no,PASS,0.830918277,,,,,,,,,0,0,0,1,0,0,0,0,0,77,77,77,,,,,,,,,,,,,,,,,,,,,,,,,,,,,,,,,,,,,,,,,,,,,,,,,,,,,,,,,,,,,,,,,,,,,,,,,,,,,,,1.68,447.2867509,None,space,1,0.2764614,449.0741677,None,449.0741677,None,449.0741677,None,,,,,,,,,,,P013,fencog,1,Post,2021_Oct_21_1203,Go No-Go Task,2021.1.4,119.9049392
,"Rule: When you see a yellow image, do not press 'spacebar'.",Images/Happy/AM02_HE.jpg,Happy,Blue,Images/Blue.jpg,space,ParentConditions/YellowYellowBlue_v1.xlsx,YellowYellowBlue,Conditions/Version_1/YellowFearStop.xlsx,no,PASS,0.732833616,,,,,,,,,0,0,0,1,0,0,0,0,0,78,78,78,,,,,,,,,,,,,,,,,,,,,,,,,,,,,,,,,,,,,,,,,,,,,,,,,,,,,,,,,,,,,,,,,,,,,,,,,,,,,,,1.65,449.4750778,None,space,1,0.2468627,451.2319337,None,451.2319337,None,451.2319337,None,,,,,,,,,,,P013,fencog,1,Post,2021_Oct_21_1203,Go No-Go Task,2021.1.4,119.9049392
,"Rule: When you see a yellow image, do not press 'spacebar'.",Images/Fearful/AM06_FO.jpg,Fear,Yellow,Images/Yellow.jpg,None,ParentConditions/YellowYellowBlue_v1.xlsx,YellowYellowBlue,Conditions/Version_1/YellowFearStop.xlsx,yes,PASS,0.223983488,,,,,,,,,0,0,0,1,0,0,0,0,0,79,79,79,,,,,,,,,,,,,,,,,,,,,,,,,,,,,,,,,,,,,,,,,,,,,,,,,,,,,,,,,,,,,,,,,,,,,,,,,,,,,,,1.61,451.6325797,None,space,0,0.2587365,453.348265,None,453.348265,None,453.348265,None,,,,,,,,,,,P013,fencog,1,Post,2021_Oct_21_1203,Go No-Go Task,2021.1.4,119.9049392
,"Rule: When you see a yellow image, do not press 'spacebar'.",Images/Scram2/HM09_NC.jpg,Scramble,Blue,Images/Blue.jpg,space,ParentConditions/YellowYellowBlue_v1.xlsx,YellowYellowBlue,Conditions/Version_1/YellowScramStop.xlsx,no,PASS,0.165462095,,,,,,,,,0,0,0,1,0,1,1,1,0,0,0,0,,,,,,,,,,,,,,,,,,,,,,,,,,,,,,,,,,,,,,,,,,,,,,,,,,,,,,,,,,,,,,,,,456.3725542,None,459.3622442,None,space,0.708728,459.3622442,None,456.3725542,None,456.3725542,None,456.3725542,None,1.46,460.1137042,None,None,0,,461.6871282,None,461.6871282,None,461.6871282,None,453.758127,None,space,2.1034728,454.2470677,None,453.758127,None,453.758127,None,P013,fencog,1,Post,2021_Oct_21_1203,Go No-Go Task,2021.1.4,119.9049392
,"Rule: When you see a yellow image, do not press 'spacebar'.",Images/Scram2/HM06_NC.jpg,Scramble,Blue,Images/Blue.jpg,space,ParentConditions/YellowYellowBlue_v1.xlsx,YellowYellowBlue,Conditions/Version_1/YellowScramStop.xlsx,no,PASS,0.897967529,,,,,,,,,0,0,0,1,0,1,1,1,0,1,1,1,,,,,,,,,,,,,,,,,,,,,,,,,,,,,,,,,,,,,,,,,,,,,,,,,,,,,,,,,,,,,,,,,,,,,,,,,,,,,,,1.37,462.0895651,None,space,1,0.2534424,463.5616635,None,463.5616635,None,463.5616635,None,,,,,,,,,,,P013,fencog,1,Post,2021_Oct_21_1203,Go No-Go Task,2021.1.4,119.9049392
,"Rule: When you see a yellow image, do not press 'spacebar'.",Images/Scram1/AM31NES.jpg,Scramble,Blue,Images/Blue.jpg,space,ParentConditions/YellowYellowBlue_v1.xlsx,YellowYellowBlue,Conditions/Version_1/YellowScramStop.xlsx,no,PASS,0.923187968,,,,,,,,,0,0,0,1,0,1,1,1,0,2,2,2,,,,,,,,,,,,,,,,,,,,,,,,,,,,,,,,,,,,,,,,,,,,,,,,,,,,,,,,,,,,,,,,,,,,,,,,,,,,,,,1.61,463.9705424,None,space,1,0.2016152,465.6860519,None,465.6860519,None,465.6860519,None,,,,,,,,,,,P013,fencog,1,Post,2021_Oct_21_1203,Go No-Go Task,2021.1.4,119.9049392
,"Rule: When you see a yellow image, do not press 'spacebar'.",Images/Scram2/AM03NES.jpg,Scramble,Yellow,Images/Yellow.jpg,None,ParentConditions/YellowYellowBlue_v1.xlsx,YellowYellowBlue,Conditions/Version_1/YellowScramStop.xlsx,yes,PASS,0.512384462,,,,,,,,,0,0,0,1,0,1,1,1,0,3,3,3,,,,,,,,,,,,,,,,,,,,,,,,,,,,,,,,,,,,,,,,,,,,,,,,,,,,,,,,,,,,,,,,,,,,,,,,,,,,,,,1.98,466.0846816,None,space,0,0.3026572,468.1603035,None,468.1603035,None,468.1603035,None,,,,,,,,,,,P013,fencog,1,Post,2021_Oct_21_1203,Go No-Go Task,2021.1.4,119.9049392
,"Rule: When you see a yellow image, do not press 'spacebar'.",Images/Scram2/BM01_NC.jpg,Scramble,Blue,Images/Blue.jpg,space,ParentConditions/YellowYellowBlue_v1.xlsx,YellowYellowBlue,Conditions/Version_1/YellowScramStop.xlsx,no,PASS,0.964762263,,,,,,,,,0,0,0,1,0,1,1,1,0,4,4,4,,,,,,,,,,,,,,,,,,,,,,,,,,,,,,,,,,,,,,,,,,,,,,,,,,,,,,,,,,,,,,,,,,,,,,,,,,,,,,,1.79,468.5641574,None,space,1,0.3077573,470.4596249,None,470.4596249,None,470.4596249,None,,,,,,,,,,,P013,fencog,1,Post,2021_Oct_21_1203,Go No-Go Task,2021.1.4,119.9049392
,"Rule: When you see a yellow image, do not press 'spacebar'.",Images/Scram1/HM09_NC.jpg,Scramble,Blue,Images/Blue.jpg,space,ParentConditions/YellowYellowBlue_v1.xlsx,YellowYellowBlue,Conditions/Version_1/YellowScramStop.xlsx,no,PASS,0.000687925,,,,,,,,,0,0,0,1,0,1,1,1,0,5,5,5,,,,,,,,,,,,,,,,,,,,,,,,,,,,,,,,,,,,,,,,,,,,,,,,,,,,,,,,,,,,,,,,,,,,,,,,,,,,,,,1.65,470.8627289,None,space,1,0.2454587,472.6173075,None,472.6173075,None,472.6173075,None,,,,,,,,,,,P013,fencog,1,Post,2021_Oct_21_1203,Go No-Go Task,2021.1.4,119.9049392
,"Rule: When you see a yellow image, do not press 'spacebar'.",Images/Scram2/BF07_NC.jpg,Scramble,Blue,Images/Blue.jpg,space,ParentConditions/YellowYellowBlue_v1.xlsx,YellowYellowBlue,Conditions/Version_1/YellowScramStop.xlsx,no,PASS,0.995882368,,,,,,,,,0,0,0,1,0,1,1,1,0,6,6,6,,,,,,,,,,,,,,,,,,,,,,,,,,,,,,,,,,,,,,,,,,,,,,,,,,,,,,,,,,,,,,,,,,,,,,,,,,,,,,,1.57,473.0184907,None,space,1,0.299105,474.6917132,None,474.6917132,None,474.6917132,None,,,,,,,,,,,P013,fencog,1,Post,2021_Oct_21_1203,Go No-Go Task,2021.1.4,119.9049392
,"Rule: When you see a yellow image, do not press 'spacebar'.",Images/Scram1/BF14_NC.jpg,Scramble,Blue,Images/Blue.jpg,space,ParentConditions/YellowYellowBlue_v1.xlsx,YellowYellowBlue,Conditions/Version_1/YellowScramStop.xlsx,no,PASS,0.239759658,,,,,,,,,0,0,0,1,0,1,1,1,0,7,7,7,,,,,,,,,,,,,,,,,,,,,,,,,,,,,,,,,,,,,,,,,,,,,,,,,,,,,,,,,,,,,,,,,,,,,,,,,,,,,,,1.72,475.0923458,None,space,1,0.3069376,476.9160313,None,476.9160313,None,476.9160313,None,,,,,,,,,,,P013,fencog,1,Post,2021_Oct_21_1203,Go No-Go Task,2021.1.4,119.9049392
,"Rule: When you see a yellow image, do not press 'spacebar'.",Images/Scram2/AF10_NC.jpg,Scramble,Blue,Images/Blue.jpg,space,ParentConditions/YellowYellowBlue_v1.xlsx,YellowYellowBlue,Conditions/Version_1/YellowScramStop.xlsx,no,PASS,0.231928382,,,,,,,,,0,0,0,1,0,1,1,1,0,8,8,8,,,,,,,,,,,,,,,,,,,,,,,,,,,,,,,,,,,,,,,,,,,,,,,,,,,,,,,,,,,,,,,,,,,,,,,,,,,,,,,1.28,477.3166234,None,space,1,0.2766655,478.6988043,None,478.6988043,None,478.6988043,None,,,,,,,,,,,P013,fencog,1,Post,2021_Oct_21_1203,Go No-Go Task,2021.1.4,119.9049392
,"Rule: When you see a yellow image, do not press 'spacebar'.",Images/Scram2/AF01_NC.jpg,Scramble,Blue,Images/Blue.jpg,space,ParentConditions/YellowYellowBlue_v1.xlsx,YellowYellowBlue,Conditions/Version_1/YellowScramStop.xlsx,no,PASS,0.030564679,,,,,,,,,0,0,0,1,0,1,1,1,0,9,9,9,,,,,,,,,,,,,,,,,,,,,,,,,,,,,,,,,,,,,,,,,,,,,,,,,,,,,,,,,,,,,,,,,,,,,,,,,,,,,,,1.53,479.1013956,None,space,1,0.3152403,480.7316727,None,480.7316727,None,480.7316727,None,,,,,,,,,,,P013,fencog,1,Post,2021_Oct_21_1203,Go No-Go Task,2021.1.4,119.9049392
,"Rule: When you see a yellow image, do not press 'spacebar'.",Images/Scram2/AF24NES.jpg,Scramble,Blue,Images/Blue.jpg,space,ParentConditions/YellowYellowBlue_v1.xlsx,YellowYellowBlue,Conditions/Version_1/YellowScramStop.xlsx,no,PASS,0.325712461,,,,,,,,,0,0,0,1,0,1,1,1,0,10,10,10,,,,,,,,,,,,,,,,,,,,,,,,,,,,,,,,,,,,,,,,,,,,,,,,,,,,,,,,,,,,,,,,,,,,,,,,,,,,,,,1.92,481.1323683,None,None,0,,483.1558336,None,483.1558336,None,483.1558336,None,,,,,,,,,,,P013,fencog,1,Post,2021_Oct_21_1203,Go No-Go Task,2021.1.4,119.9049392
,"Rule: When you see a yellow image, do not press 'spacebar'.",Images/Scram2/BF14_NC.jpg,Scramble,Blue,Images/Blue.jpg,space,ParentConditions/YellowYellowBlue_v1.xlsx,YellowYellowBlue,Conditions/Version_1/YellowScramStop.xlsx,no,PASS,0.745262532,,,,,,,,,0,0,0,1,0,1,1,1,0,11,11,11,,,,,,,,,,,,,,,,,,,,,,,,,,,,,,,,,,,,,,,,,,,,,,,,,,,,,,,,,,,,,,,,,,,,,,,,,,,,,,,1.8,483.5567574,None,space,1,0.2791203,485.4635858,None,485.4635858,None,485.4635858,None,,,,,,,,,,,P013,fencog,1,Post,2021_Oct_21_1203,Go No-Go Task,2021.1.4,119.9049392
,"Rule: When you see a yellow image, do not press 'spacebar'.",Images/Scram1/AM13NES.jpg,Scramble,Blue,Images/Blue.jpg,space,ParentConditions/YellowYellowBlue_v1.xlsx,YellowYellowBlue,Conditions/Version_1/YellowScramStop.xlsx,no,PASS,0.493993548,,,,,,,,,0,0,0,1,0,1,1,1,0,12,12,12,,,,,,,,,,,,,,,,,,,,,,,,,,,,,,,,,,,,,,,,,,,,,,,,,,,,,,,,,,,,,,,,,,,,,,,,,,,,,,,1.6,485.8641275,None,space,1,0.3558464,487.5712054,None,487.5712054,None,487.5712054,None,,,,,,,,,,,P013,fencog,1,Post,2021_Oct_21_1203,Go No-Go Task,2021.1.4,119.9049392
,"Rule: When you see a yellow image, do not press 'spacebar'.",Images/Scram1/HM04_NC.jpg,Scramble,Blue,Images/Blue.jpg,space,ParentConditions/YellowYellowBlue_v1.xlsx,YellowYellowBlue,Conditions/Version_1/YellowScramStop.xlsx,no,PASS,0.184674666,,,,,,,,,0,0,0,1,0,1,1,1,0,13,13,13,,,,,,,,,,,,,,,,,,,,,,,,,,,,,,,,,,,,,,,,,,,,,,,,,,,,,,,,,,,,,,,,,,,,,,,,,,,,,,,1.39,487.9786099,None,space,1,0.2647972,489.4623508,None,489.4623508,None,489.4623508,None,,,,,,,,,,,P013,fencog,1,Post,2021_Oct_21_1203,Go No-Go Task,2021.1.4,119.9049392
,"Rule: When you see a yellow image, do not press 'spacebar'.",Images/Scram1/AM03NES.jpg,Scramble,Blue,Images/Blue.jpg,space,ParentConditions/YellowYellowBlue_v1.xlsx,YellowYellowBlue,Conditions/Version_1/YellowScramStop.xlsx,no,PASS,0.036392656,,,,,,,,,0,0,0,1,0,1,1,1,0,14,14,14,,,,,,,,,,,,,,,,,,,,,,,,,,,,,,,,,,,,,,,,,,,,,,,,,,,,,,,,,,,,,,,,,,,,,,,,,,,,,,,1.52,489.8651304,None,space,1,0.3365917,491.4784668,None,491.4784668,None,491.4784668,None,,,,,,,,,,,P013,fencog,1,Post,2021_Oct_21_1203,Go No-Go Task,2021.1.4,119.9049392
,"Rule: When you see a yellow image, do not press 'spacebar'.",Images/Scram1/AM22NES.jpg,Scramble,Blue,Images/Blue.jpg,space,ParentConditions/YellowYellowBlue_v1.xlsx,YellowYellowBlue,Conditions/Version_1/YellowScramStop.xlsx,no,PASS,0.464265865,,,,,,,,,0,0,0,1,0,1,1,1,0,15,15,15,,,,,,,,,,,,,,,,,,,,,,,,,,,,,,,,,,,,,,,,,,,,,,,,,,,,,,,,,,,,,,,,,,,,,,,,,,,,,,,1.63,491.8904605,None,space,1,0.2511567,493.6277697,None,493.6277697,None,493.6277697,None,,,,,,,,,,,P013,fencog,1,Post,2021_Oct_21_1203,Go No-Go Task,2021.1.4,119.9049392
,"Rule: When you see a yellow image, do not press 'spacebar'.",Images/Scram2/AM17NES.jpg,Scramble,Yellow,Images/Yellow.jpg,None,ParentConditions/YellowYellowBlue_v1.xlsx,YellowYellowBlue,Conditions/Version_1/YellowScramStop.xlsx,yes,PASS,0.967907979,,,,,,,,,0,0,0,1,0,1,1,1,0,16,16,16,,,,,,,,,,,,,,,,,,,,,,,,,,,,,,,,,,,,,,,,,,,,,,,,,,,,,,,,,,,,,,,,,,,,,,,,,,,,,,,1.83,494.0305592,None,None,1,,495.9605023,None,495.9605023,None,495.9605023,None,,,,,,,,,,,P013,fencog,1,Post,2021_Oct_21_1203,Go No-Go Task,2021.1.4,119.9049392
,"Rule: When you see a yellow image, do not press 'spacebar'.",Images/Scram1/AM10NES.jpg,Scramble,Blue,Images/Blue.jpg,space,ParentConditions/YellowYellowBlue_v1.xlsx,YellowYellowBlue,Conditions/Version_1/YellowScramStop.xlsx,no,PASS,0.606062041,,,,,,,,,0,0,0,1,0,1,1,1,0,17,17,17,,,,,,,,,,,,,,,,,,,,,,,,,,,,,,,,,,,,,,,,,,,,,,,,,,,,,,,,,,,,,,,,,,,,,,,,,,,,,,,2,496.3615883,None,space,1,0.2906375,498.4680028,None,498.4680028,None,498.4680028,None,,,,,,,,,,,P013,fencog,1,Post,2021_Oct_21_1203,Go No-Go Task,2021.1.4,119.9049392
,"Rule: When you see a yellow image, do not press 'spacebar'.",Images/Scram2/AM03_NC.jpg,Scramble,Yellow,Images/Yellow.jpg,None,ParentConditions/YellowYellowBlue_v1.xlsx,YellowYellowBlue,Conditions/Version_1/YellowScramStop.xlsx,yes,PASS,0.37502921,,,,,,,,,0,0,0,1,0,1,1,1,0,18,18,18,,,,,,,,,,,,,,,,,,,,,,,,,,,,,,,,,,,,,,,,,,,,,,,,,,,,,,,,,,,,,,,,,,,,,,,,,,,,,,,1.85,498.8696883,None,space,0,0.3015965,500.8256898,None,500.8256898,None,500.8256898,None,,,,,,,,,,,P013,fencog,1,Post,2021_Oct_21_1203,Go No-Go Task,2021.1.4,119.9049392
,"Rule: When you see a yellow image, do not press 'spacebar'.",Images/Scram1/HF09_NC.jpg,Scramble,Blue,Images/Blue.jpg,space,ParentConditions/YellowYellowBlue_v1.xlsx,YellowYellowBlue,Conditions/Version_1/YellowScramStop.xlsx,no,PASS,0.550594735,,,,,,,,,0,0,0,1,0,1,1,1,0,19,19,19,,,,,,,,,,,,,,,,,,,,,,,,,,,,,,,,,,,,,,,,,,,,,,,,,,,,,,,,,,,,,,,,,,,,,,,,,,,,,,,1.77,501.2269347,None,space,1,0.3311808,503.1000424,None,503.1000424,None,503.1000424,None,,,,,,,,,,,P013,fencog,1,Post,2021_Oct_21_1203,Go No-Go Task,2021.1.4,119.9049392
,"Rule: When you see a yellow image, do not press 'spacebar'.",Images/Scram1/BM08_NC.jpg,Scramble,Blue,Images/Blue.jpg,space,ParentConditions/YellowYellowBlue_v1.xlsx,YellowYellowBlue,Conditions/Version_1/YellowScramStop.xlsx,no,PASS,0.112391938,,,,,,,,,0,0,0,1,0,1,1,1,0,20,20,20,,,,,,,,,,,,,,,,,,,,,,,,,,,,,,,,,,,,,,,,,,,,,,,,,,,,,,,,,,,,,,,,,,,,,,,,,,,,,,,1.56,503.5071717,None,None,0,,505.1827179,None,505.1827179,None,505.1827179,None,,,,,,,,,,,P013,fencog,1,Post,2021_Oct_21_1203,Go No-Go Task,2021.1.4,119.9049392
,"Rule: When you see a yellow image, do not press 'spacebar'.",Images/Scram1/AF32NES.jpg,Scramble,Blue,Images/Blue.jpg,space,ParentConditions/YellowYellowBlue_v1.xlsx,YellowYellowBlue,Conditions/Version_1/YellowScramStop.xlsx,no,PASS,0.664764183,,,,,,,,,0,0,0,1,0,1,1,1,0,21,21,21,,,,,,,,,,,,,,,,,,,,,,,,,,,,,,,,,,,,,,,,,,,,,,,,,,,,,,,,,,,,,,,,,,,,,,,,,,,,,,,1.82,505.5878239,None,space,1,0.2594636,507.5153656,None,507.5153656,None,507.5153656,None,,,,,,,,,,,P013,fencog,1,Post,2021_Oct_21_1203,Go No-Go Task,2021.1.4,119.9049392
,"Rule: When you see a yellow image, do not press 'spacebar'.",Images/Scram2/AM06_NC.jpg,Scramble,Yellow,Images/Yellow.jpg,None,ParentConditions/YellowYellowBlue_v1.xlsx,YellowYellowBlue,Conditions/Version_1/YellowScramStop.xlsx,yes,PASS,0.363487487,,,,,,,,,0,0,0,1,0,1,1,1,0,22,22,22,,,,,,,,,,,,,,,,,,,,,,,,,,,,,,,,,,,,,,,,,,,,,,,,,,,,,,,,,,,,,,,,,,,,,,,,,,,,,,,1.87,507.9147408,None,None,1,,509.8896735,None,509.8896735,None,509.8896735,None,,,,,,,,,,,P013,fencog,1,Post,2021_Oct_21_1203,Go No-Go Task,2021.1.4,119.9049392
,"Rule: When you see a yellow image, do not press 'spacebar'.",Images/Scram1/AM06_NC.jpg,Scramble,Blue,Images/Blue.jpg,space,ParentConditions/YellowYellowBlue_v1.xlsx,YellowYellowBlue,Conditions/Version_1/YellowScramStop.xlsx,no,PASS,0.9155942,,,,,,,,,0,0,0,1,0,1,1,1,0,23,23,23,,,,,,,,,,,,,,,,,,,,,,,,,,,,,,,,,,,,,,,,,,,,,,,,,,,,,,,,,,,,,,,,,,,,,,,,,,,,,,,1.32,510.2903862,None,space,1,0.3011597,511.7140837,None,511.7140837,None,511.7140837,None,,,,,,,,,,,P013,fencog,1,Post,2021_Oct_21_1203,Go No-Go Task,2021.1.4,119.9049392
,"Rule: When you see a yellow image, do not press 'spacebar'.",Images/Scram2/AM02_NC.jpg,Scramble,Yellow,Images/Yellow.jpg,None,ParentConditions/YellowYellowBlue_v1.xlsx,YellowYellowBlue,Conditions/Version_1/YellowScramStop.xlsx,yes,PASS,0.403496622,,,,,,,,,0,0,0,1,0,1,1,1,0,24,24,24,,,,,,,,,,,,,,,,,,,,,,,,,,,,,,,,,,,,,,,,,,,,,,,,,,,,,,,,,,,,,,,,,,,,,,,,,,,,,,,1.99,512.1161915,None,None,1,,514.2130462,None,514.2130462,None,514.2130462,None,,,,,,,,,,,P013,fencog,1,Post,2021_Oct_21_1203,Go No-Go Task,2021.1.4,119.9049392
,"Rule: When you see a yellow image, do not press 'spacebar'.",Images/Scram2/HF05_NC.jpg,Scramble,Blue,Images/Blue.jpg,space,ParentConditions/YellowYellowBlue_v1.xlsx,YellowYellowBlue,Conditions/Version_1/YellowScramStop.xlsx,no,PASS,0.921711636,,,,,,,,,0,0,0,1,0,1,1,1,0,25,25,25,,,,,,,,,,,,,,,,,,,,,,,,,,,,,,,,,,,,,,,,,,,,,,,,,,,,,,,,,,,,,,,,,,,,,,,,,,,,,,,1.94,514.615437,None,space,1,0.2723709,516.6627294,None,516.6627294,None,516.6627294,None,,,,,,,,,,,P013,fencog,1,Post,2021_Oct_21_1203,Go No-Go Task,2021.1.4,119.9049392
,"Rule: When you see a yellow image, do not press 'spacebar'.",Images/Scram2/AF32NES.jpg,Scramble,Yellow,Images/Yellow.jpg,None,ParentConditions/YellowYellowBlue_v1.xlsx,YellowYellowBlue,Conditions/Version_1/YellowScramStop.xlsx,yes,PASS,0.017466824,,,,,,,,,0,0,0,1,0,1,1,1,0,26,26,26,,,,,,,,,,,,,,,,,,,,,,,,,,,,,,,,,,,,,,,,,,,,,,,,,,,,,,,,,,,,,,,,,,,,,,,,,,,,,,,1.43,517.0668669,None,None,1,,518.603782,None,518.603782,None,518.603782,None,,,,,,,,,,,P013,fencog,1,Post,2021_Oct_21_1203,Go No-Go Task,2021.1.4,119.9049392
,"Rule: When you see a yellow image, do not press 'spacebar'.",Images/Scram2/HM04_NC.jpg,Scramble,Blue,Images/Blue.jpg,space,ParentConditions/YellowYellowBlue_v1.xlsx,YellowYellowBlue,Conditions/Version_1/YellowScramStop.xlsx,no,PASS,0.573634123,,,,,,,,,0,0,0,1,0,1,1,1,0,27,27,27,,,,,,,,,,,,,,,,,,,,,,,,,,,,,,,,,,,,,,,,,,,,,,,,,,,,,,,,,,,,,,,,,,,,,,,,,,,,,,,1.64,519.0062959,None,space,1,0.2857572,520.753212,None,520.753212,None,520.753212,None,,,,,,,,,,,P013,fencog,1,Post,2021_Oct_21_1203,Go No-Go Task,2021.1.4,119.9049392
,"Rule: When you see a yellow image, do not press 'spacebar'.",Images/Scram2/AF25NES.jpg,Scramble,Blue,Images/Blue.jpg,space,ParentConditions/YellowYellowBlue_v1.xlsx,YellowYellowBlue,Conditions/Version_1/YellowScramStop.xlsx,no,PASS,0.481500907,,,,,,,,,0,0,0,1,0,1,1,1,0,28,28,28,,,,,,,,,,,,,,,,,,,,,,,,,,,,,,,,,,,,,,,,,,,,,,,,,,,,,,,,,,,,,,,,,,,,,,,,,,,,,,,1.48,521.1584567,None,space,1,0.3589912,522.7442194,None,522.7442194,None,522.7442194,None,,,,,,,,,,,P013,fencog,1,Post,2021_Oct_21_1203,Go No-Go Task,2021.1.4,119.9049392
,"Rule: When you see a yellow image, do not press 'spacebar'.",Images/Scram1/AF34NES.jpg,Scramble,Blue,Images/Blue.jpg,space,ParentConditions/YellowYellowBlue_v1.xlsx,YellowYellowBlue,Conditions/Version_1/YellowScramStop.xlsx,no,PASS,0.163221093,,,,,,,,,0,0,0,1,0,1,1,1,0,29,29,29,,,,,,,,,,,,,,,,,,,,,,,,,,,,,,,,,,,,,,,,,,,,,,,,,,,,,,,,,,,,,,,,,,,,,,,,,,,,,,,1.51,523.1484803,None,space,1,0.3348333,524.7520667,None,524.7520667,None,524.7520667,None,,,,,,,,,,,P013,fencog,1,Post,2021_Oct_21_1203,Go No-Go Task,2021.1.4,119.9049392
,"Rule: When you see a yellow image, do not press 'spacebar'.",Images/Scram2/AF11NES.jpg,Scramble,Blue,Images/Blue.jpg,space,ParentConditions/YellowYellowBlue_v1.xlsx,YellowYellowBlue,Conditions/Version_1/YellowScramStop.xlsx,no,PASS,0.863906943,,,,,,,,,0,0,0,1,0,1,1,1,0,30,30,30,,,,,,,,,,,,,,,,,,,,,,,,,,,,,,,,,,,,,,,,,,,,,,,,,,,,,,,,,,,,,,,,,,,,,,,,,,,,,,,1.38,525.1524389,None,space,1,0.3241203,526.634694,None,526.634694,None,526.634694,None,,,,,,,,,,,P013,fencog,1,Post,2021_Oct_21_1203,Go No-Go Task,2021.1.4,119.9049392
,"Rule: When you see a yellow image, do not press 'spacebar'.",Images/Scram2/AF34NES.jpg,Scramble,Yellow,Images/Yellow.jpg,None,ParentConditions/YellowYellowBlue_v1.xlsx,YellowYellowBlue,Conditions/Version_1/YellowScramStop.xlsx,yes,PASS,0.061590092,,,,,,,,,0,0,0,1,0,1,1,1,0,31,31,31,,,,,,,,,,,,,,,,,,,,,,,,,,,,,,,,,,,,,,,,,,,,,,,,,,,,,,,,,,,,,,,,,,,,,,,,,,,,,,,1.27,527.0356524,None,None,1,,528.4091937,None,528.4091937,None,528.4091937,None,,,,,,,,,,,P013,fencog,1,Post,2021_Oct_21_1203,Go No-Go Task,2021.1.4,119.9049392
,"Rule: When you see a yellow image, do not press 'spacebar'.",Images/Scram1/AM02_NC.jpg,Scramble,Blue,Images/Blue.jpg,space,ParentConditions/YellowYellowBlue_v1.xlsx,YellowYellowBlue,Conditions/Version_1/YellowScramStop.xlsx,no,PASS,0.7758508,,,,,,,,,0,0,0,1,0,1,1,1,0,32,32,32,,,,,,,,,,,,,,,,,,,,,,,,,,,,,,,,,,,,,,,,,,,,,,,,,,,,,,,,,,,,,,,,,,,,,,,,,,,,,,,1.7,528.8097511,None,space,1,0.3023687,530.6165387,None,530.6165387,None,530.6165387,None,,,,,,,,,,,P013,fencog,1,Post,2021_Oct_21_1203,Go No-Go Task,2021.1.4,119.9049392
,"Rule: When you see a yellow image, do not press 'spacebar'.",Images/Scram2/AM13NES.jpg,Scramble,Yellow,Images/Yellow.jpg,None,ParentConditions/YellowYellowBlue_v1.xlsx,YellowYellowBlue,Conditions/Version_1/YellowScramStop.xlsx,yes,PASS,0.67265151,,,,,,,,,0,0,0,1,0,1,1,1,0,33,33,33,,,,,,,,,,,,,,,,,,,,,,,,,,,,,,,,,,,,,,,,,,,,,,,,,,,,,,,,,,,,,,,,,,,,,,,,,,,,,,,1.58,531.0155716,None,None,1,,532.6996269,None,532.6996269,None,532.6996269,None,,,,,,,,,,,P013,fencog,1,Post,2021_Oct_21_1203,Go No-Go Task,2021.1.4,119.9049392
,"Rule: When you see a yellow image, do not press 'spacebar'.",Images/Scram1/AM03_NC.jpg,Scramble,Blue,Images/Blue.jpg,space,ParentConditions/YellowYellowBlue_v1.xlsx,YellowYellowBlue,Conditions/Version_1/YellowScramStop.xlsx,no,PASS,0.060310837,,,,,,,,,0,0,0,1,0,1,1,1,0,34,34,34,,,,,,,,,,,,,,,,,,,,,,,,,,,,,,,,,,,,,,,,,,,,,,,,,,,,,,,,,,,,,,,,,,,,,,,,,,,,,,,1.96,533.1047611,None,space,1,0.2808277,535.173902,None,535.173902,None,535.173902,None,,,,,,,,,,,P013,fencog,1,Post,2021_Oct_21_1203,Go No-Go Task,2021.1.4,119.9049392
,"Rule: When you see a yellow image, do not press 'spacebar'.",Images/Scram1/AF33NES.jpg,Scramble,Blue,Images/Blue.jpg,space,ParentConditions/YellowYellowBlue_v1.xlsx,YellowYellowBlue,Conditions/Version_1/YellowScramStop.xlsx,no,PASS,0.988339533,,,,,,,,,0,0,0,1,0,1,1,1,0,35,35,35,,,,,,,,,,,,,,,,,,,,,,,,,,,,,,,,,,,,,,,,,,,,,,,,,,,,,,,,,,,,,,,,,,,,,,,,,,,,,,,1.42,535.5726917,None,space,1,0.364193,537.0984445,None,537.0984445,None,537.0984445,None,,,,,,,,,,,P013,fencog,1,Post,2021_Oct_21_1203,Go No-Go Task,2021.1.4,119.9049392
,"Rule: When you see a yellow image, do not press 'spacebar'.",Images/Scram1/BF10_NC.jpg,Scramble,Blue,Images/Blue.jpg,space,ParentConditions/YellowYellowBlue_v1.xlsx,YellowYellowBlue,Conditions/Version_1/YellowScramStop.xlsx,no,PASS,0.832283927,,,,,,,,,0,0,0,1,0,1,1,1,0,36,36,36,,,,,,,,,,,,,,,,,,,,,,,,,,,,,,,,,,,,,,,,,,,,,,,,,,,,,,,,,,,,,,,,,,,,,,,,,,,,,,,1.95,537.4983275,None,None,0,,539.5644102,None,539.5644102,None,539.5644102,None,,,,,,,,,,,P013,fencog,1,Post,2021_Oct_21_1203,Go No-Go Task,2021.1.4,119.9049392
,"Rule: When you see a yellow image, do not press 'spacebar'.",Images/Scram1/AF07_NC.jpg,Scramble,Blue,Images/Blue.jpg,space,ParentConditions/YellowYellowBlue_v1.xlsx,YellowYellowBlue,Conditions/Version_1/YellowScramStop.xlsx,no,PASS,0.976389595,,,,,,,,,0,0,0,1,0,1,1,1,0,37,37,37,,,,,,,,,,,,,,,,,,,,,,,,,,,,,,,,,,,,,,,,,,,,,,,,,,,,,,,,,,,,,,,,,,,,,,,,,,,,,,,1.35,539.9631879,None,None,0,,541.4221674,None,541.4221674,None,541.4221674,None,,,,,,,,,,,P013,fencog,1,Post,2021_Oct_21_1203,Go No-Go Task,2021.1.4,119.9049392
,"Rule: When you see a yellow image, do not press 'spacebar'.",Images/Scram2/AM23NES.jpg,Scramble,Yellow,Images/Yellow.jpg,None,ParentConditions/YellowYellowBlue_v1.xlsx,YellowYellowBlue,Conditions/Version_1/YellowScramStop.xlsx,yes,PASS,0.600248114,,,,,,,,,0,0,0,1,0,1,1,1,0,38,38,38,,,,,,,,,,,,,,,,,,,,,,,,,,,,,,,,,,,,,,,,,,,,,,,,,,,,,,,,,,,,,,,,,,,,,,,,,,,,,,,1.88,541.8210164,None,None,1,,543.8046918,None,543.8046918,None,543.8046918,None,,,,,,,,,,,P013,fencog,1,Post,2021_Oct_21_1203,Go No-Go Task,2021.1.4,119.9049392
,"Rule: When you see a yellow image, do not press 'spacebar'.",Images/Scram1/AF24NES.jpg,Scramble,Blue,Images/Blue.jpg,space,ParentConditions/YellowYellowBlue_v1.xlsx,YellowYellowBlue,Conditions/Version_1/YellowScramStop.xlsx,no,PASS,0.112949458,,,,,,,,,0,0,0,1,0,1,1,1,0,39,39,39,,,,,,,,,,,,,,,,,,,,,,,,,,,,,,,,,,,,,,,,,,,,,,,,,,,,,,,,,,,,,,,,,,,,,,,,,,,,,,,1.45,544.2066308,None,None,0,,545.7541142,None,545.7541142,None,545.7541142,None,,,,,,,,,,,P013,fencog,1,Post,2021_Oct_21_1203,Go No-Go Task,2021.1.4,119.9049392
,"Rule: When you see a yellow image, do not press 'spacebar'.",Images/Scram2/AF33NES.jpg,Scramble,Yellow,Images/Yellow.jpg,None,ParentConditions/YellowYellowBlue_v1.xlsx,YellowYellowBlue,Conditions/Version_1/YellowScramStop.xlsx,yes,PASS,0.803753742,,,,,,,,,0,0,0,1,0,1,1,1,0,40,40,40,,,,,,,,,,,,,,,,,,,,,,,,,,,,,,,,,,,,,,,,,,,,,,,,,,,,,,,,,,,,,,,,,,,,,,,,,,,,,,,1.26,546.1633212,None,None,1,,547.5286862,None,547.5286862,None,547.5286862,None,,,,,,,,,,,P013,fencog,1,Post,2021_Oct_21_1203,Go No-Go Task,2021.1.4,119.9049392
,"Rule: When you see a yellow image, do not press 'spacebar'.",Images/Scram1/AF25NES.jpg,Scramble,Blue,Images/Blue.jpg,space,ParentConditions/YellowYellowBlue_v1.xlsx,YellowYellowBlue,Conditions/Version_1/YellowScramStop.xlsx,no,PASS,0.143787363,,,,,,,,,0,0,0,1,0,1,1,1,0,41,41,41,,,,,,,,,,,,,,,,,,,,,,,,,,,,,,,,,,,,,,,,,,,,,,,,,,,,,,,,,,,,,,,,,,,,,,,,,,,,,,,1.75,547.9292988,None,space,1,0.3166834,549.7863007,None,549.7863007,None,549.7863007,None,,,,,,,,,,,P013,fencog,1,Post,2021_Oct_21_1203,Go No-Go Task,2021.1.4,119.9049392
,"Rule: When you see a yellow image, do not press 'spacebar'.",Images/Scram2/AM10NES.jpg,Scramble,Yellow,Images/Yellow.jpg,None,ParentConditions/YellowYellowBlue_v1.xlsx,YellowYellowBlue,Conditions/Version_1/YellowScramStop.xlsx,yes,PASS,0.58203193,,,,,,,,,0,0,0,1,0,1,1,1,0,42,42,42,,,,,,,,,,,,,,,,,,,,,,,,,,,,,,,,,,,,,,,,,,,,,,,,,,,,,,,,,,,,,,,,,,,,,,,,,,,,,,,1.91,550.1871311,None,None,1,,552.2022691,None,552.2022691,None,552.2022691,None,,,,,,,,,,,P013,fencog,1,Post,2021_Oct_21_1203,Go No-Go Task,2021.1.4,119.9049392
,"Rule: When you see a yellow image, do not press 'spacebar'.",Images/Scram2/BF10_NC.jpg,Scramble,Blue,Images/Blue.jpg,space,ParentConditions/YellowYellowBlue_v1.xlsx,YellowYellowBlue,Conditions/Version_1/YellowScramStop.xlsx,no,PASS,0.207816491,,,,,,,,,0,0,0,1,0,1,1,1,0,43,43,43,,,,,,,,,,,,,,,,,,,,,,,,,,,,,,,,,,,,,,,,,,,,,,,,,,,,,,,,,,,,,,,,,,,,,,,,,,,,,,,1.67,552.6028922,None,None,0,,554.3766761,None,554.3766761,None,554.3766761,None,,,,,,,,,,,P013,fencog,1,Post,2021_Oct_21_1203,Go No-Go Task,2021.1.4,119.9049392
,"Rule: When you see a yellow image, do not press 'spacebar'.",Images/Scram1/BF18_NC.jpg,Scramble,Blue,Images/Blue.jpg,space,ParentConditions/YellowYellowBlue_v1.xlsx,YellowYellowBlue,Conditions/Version_1/YellowScramStop.xlsx,no,PASS,0.36892611,,,,,,,,,0,0,0,1,0,1,1,1,0,44,44,44,,,,,,,,,,,,,,,,,,,,,,,,,,,,,,,,,,,,,,,,,,,,,,,,,,,,,,,,,,,,,,,,,,,,,,,,,,,,,,,1.69,554.7819901,None,space,1,0.3749928,556.5759104,None,556.5759104,None,556.5759104,None,,,,,,,,,,,P013,fencog,1,Post,2021_Oct_21_1203,Go No-Go Task,2021.1.4,119.9049392
,"Rule: When you see a yellow image, do not press 'spacebar'.",Images/Scram2/HF09_NC.jpg,Scramble,Blue,Images/Blue.jpg,space,ParentConditions/YellowYellowBlue_v1.xlsx,YellowYellowBlue,Conditions/Version_1/YellowScramStop.xlsx,no,PASS,0.286178806,,,,,,,,,0,0,0,1,0,1,1,1,0,45,45,45,,,,,,,,,,,,,,,,,,,,,,,,,,,,,,,,,,,,,,,,,,,,,,,,,,,,,,,,,,,,,,,,,,,,,,,,,,,,,,,1.31,556.9750122,None,space,1,0.3192604,558.3837512,None,558.3837512,None,558.3837512,None,,,,,,,,,,,P013,fencog,1,Post,2021_Oct_21_1203,Go No-Go Task,2021.1.4,119.9049392
,"Rule: When you see a yellow image, do not press 'spacebar'.",Images/Scram1/BF05_NC.jpg,Scramble,Blue,Images/Blue.jpg,space,ParentConditions/YellowYellowBlue_v1.xlsx,YellowYellowBlue,Conditions/Version_1/YellowScramStop.xlsx,no,PASS,0.769263782,,,,,,,,,0,0,0,1,0,1,1,1,0,46,46,46,,,,,,,,,,,,,,,,,,,,,,,,,,,,,,,,,,,,,,,,,,,,,,,,,,,,,,,,,,,,,,,,,,,,,,,,,,,,,,,1.9,558.7864192,None,space,1,0.2804075,560.7830748,None,560.7830748,None,560.7830748,None,,,,,,,,,,,P013,fencog,1,Post,2021_Oct_21_1203,Go No-Go Task,2021.1.4,119.9049392
,"Rule: When you see a yellow image, do not press 'spacebar'.",Images/Scram1/AM17NES.jpg,Scramble,Blue,Images/Blue.jpg,space,ParentConditions/YellowYellowBlue_v1.xlsx,YellowYellowBlue,Conditions/Version_1/YellowScramStop.xlsx,no,PASS,0.755330064,,,,,,,,,0,0,0,1,0,1,1,1,0,47,47,47,,,,,,,,,,,,,,,,,,,,,,,,,,,,,,,,,,,,,,,,,,,,,,,,,,,,,,,,,,,,,,,,,,,,,,,,,,,,,,,1.71,561.1821371,None,space,1,0.2713662,562.9990778,None,562.9990778,None,562.9990778,None,,,,,,,,,,,P013,fencog,1,Post,2021_Oct_21_1203,Go No-Go Task,2021.1.4,119.9049392
,"Rule: When you see a yellow image, do not press 'spacebar'.",Images/Scram2/AM09_NC.jpg,Scramble,Yellow,Images/Yellow.jpg,None,ParentConditions/YellowYellowBlue_v1.xlsx,YellowYellowBlue,Conditions/Version_1/YellowScramStop.xlsx,yes,PASS,0.984865365,,,,,,,,,0,0,0,1,0,1,1,1,0,48,48,48,,,,,,,,,,,,,,,,,,,,,,,,,,,,,,,,,,,,,,,,,,,,,,,,,,,,,,,,,,,,,,,,,,,,,,,,,,,,,,,1.5,563.399027,None,None,1,,565.0067903,None,565.0067903,None,565.0067903,None,,,,,,,,,,,P013,fencog,1,Post,2021_Oct_21_1203,Go No-Go Task,2021.1.4,119.9049392
,"Rule: When you see a yellow image, do not press 'spacebar'.",Images/Scram2/AF09NES.jpg,Scramble,Blue,Images/Blue.jpg,space,ParentConditions/YellowYellowBlue_v1.xlsx,YellowYellowBlue,Conditions/Version_1/YellowScramStop.xlsx,no,PASS,0.209985362,,,,,,,,,0,0,0,1,0,1,1,1,0,49,49,49,,,,,,,,,,,,,,,,,,,,,,,,,,,,,,,,,,,,,,,,,,,,,,,,,,,,,,,,,,,,,,,,,,,,,,,,,,,,,,,1.86,565.4079838,None,space,1,0.3621585,567.3728017,None,567.3728017,None,567.3728017,None,,,,,,,,,,,P013,fencog,1,Post,2021_Oct_21_1203,Go No-Go Task,2021.1.4,119.9049392
,"Rule: When you see a yellow image, do not press 'spacebar'.",Images/Scram2/AM04_NC.jpg,Scramble,Yellow,Images/Yellow.jpg,None,ParentConditions/YellowYellowBlue_v1.xlsx,YellowYellowBlue,Conditions/Version_1/YellowScramStop.xlsx,yes,PASS,0.859563214,,,,,,,,,0,0,0,1,0,1,1,1,0,50,50,50,,,,,,,,,,,,,,,,,,,,,,,,,,,,,,,,,,,,,,,,,,,,,,,,,,,,,,,,,,,,,,,,,,,,,,,,,,,,,,,1.29,567.7787709,None,None,1,,569.1722494,None,569.1722494,None,569.1722494,None,,,,,,,,,,,P013,fencog,1,Post,2021_Oct_21_1203,Go No-Go Task,2021.1.4,119.9049392
,"Rule: When you see a yellow image, do not press 'spacebar'.",Images/Scram2/BF05_NC.jpg,Scramble,Yellow,Images/Yellow.jpg,None,ParentConditions/YellowYellowBlue_v1.xlsx,YellowYellowBlue,Conditions/Version_1/YellowScramStop.xlsx,yes,PASS,0.903889245,,,,,,,,,0,0,0,1,0,1,1,1,0,51,51,51,,,,,,,,,,,,,,,,,,,,,,,,,,,,,,,,,,,,,,,,,,,,,,,,,,,,,,,,,,,,,,,,,,,,,,,,,,,,,,,1.34,569.5728852,None,space,0,0.2730431,571.0133823,None,571.0133823,None,571.0133823,None,,,,,,,,,,,P013,fencog,1,Post,2021_Oct_21_1203,Go No-Go Task,2021.1.4,119.9049392
,"Rule: When you see a yellow image, do not press 'spacebar'.",Images/Scram1/HM06_NC.jpg,Scramble,Blue,Images/Blue.jpg,space,ParentConditions/YellowYellowBlue_v1.xlsx,YellowYellowBlue,Conditions/Version_1/YellowScramStop.xlsx,no,PASS,0.718307645,,,,,,,,,0,0,0,1,0,1,1,1,0,52,52,52,,,,,,,,,,,,,,,,,,,,,,,,,,,,,,,,,,,,,,,,,,,,,,,,,,,,,,,,,,,,,,,,,,,,,,,,,,,,,,,1.24,571.4191155,None,space,1,0.3000641,572.7629082,None,572.7629082,None,572.7629082,None,,,,,,,,,,,P013,fencog,1,Post,2021_Oct_21_1203,Go No-Go Task,2021.1.4,119.9049392
,"Rule: When you see a yellow image, do not press 'spacebar'.",Images/Scram2/AF07NES.jpg,Scramble,Blue,Images/Blue.jpg,space,ParentConditions/YellowYellowBlue_v1.xlsx,YellowYellowBlue,Conditions/Version_1/YellowScramStop.xlsx,no,PASS,0.868582701,,,,,,,,,0,0,0,1,0,1,1,1,0,53,53,53,,,,,,,,,,,,,,,,,,,,,,,,,,,,,,,,,,,,,,,,,,,,,,,,,,,,,,,,,,,,,,,,,,,,,,,,,,,,,,,1.66,573.1616176,None,space,1,0.2778955,574.9288805,None,574.9288805,None,574.9288805,None,,,,,,,,,,,P013,fencog,1,Post,2021_Oct_21_1203,Go No-Go Task,2021.1.4,119.9049392
,"Rule: When you see a yellow image, do not press 'spacebar'.",Images/Scram1/BM01_NC.jpg,Scramble,Blue,Images/Blue.jpg,space,ParentConditions/YellowYellowBlue_v1.xlsx,YellowYellowBlue,Conditions/Version_1/YellowScramStop.xlsx,no,PASS,0.751616104,,,,,,,,,0,0,0,1,0,1,1,1,0,54,54,54,,,,,,,,,,,,,,,,,,,,,,,,,,,,,,,,,,,,,,,,,,,,,,,,,,,,,,,,,,,,,,,,,,,,,,,,,,,,,,,1.23,575.3310307,None,space,1,0.2732593,576.6616063,None,576.6616063,None,576.6616063,None,,,,,,,,,,,P013,fencog,1,Post,2021_Oct_21_1203,Go No-Go Task,2021.1.4,119.9049392
,"Rule: When you see a yellow image, do not press 'spacebar'.",Images/Scram2/AF07_NC.jpg,Scramble,Blue,Images/Blue.jpg,space,ParentConditions/YellowYellowBlue_v1.xlsx,YellowYellowBlue,Conditions/Version_1/YellowScramStop.xlsx,no,PASS,0.609812891,,,,,,,,,0,0,0,1,0,1,1,1,0,55,55,55,,,,,,,,,,,,,,,,,,,,,,,,,,,,,,,,,,,,,,,,,,,,,,,,,,,,,,,,,,,,,,,,,,,,,,,,,,,,,,,1.47,577.0701203,None,space,1,0.2744049,578.64448,None,578.64448,None,578.64448,None,,,,,,,,,,,P013,fencog,1,Post,2021_Oct_21_1203,Go No-Go Task,2021.1.4,119.9049392
,"Rule: When you see a yellow image, do not press 'spacebar'.",Images/Scram1/AF10_NC.jpg,Scramble,Blue,Images/Blue.jpg,space,ParentConditions/YellowYellowBlue_v1.xlsx,YellowYellowBlue,Conditions/Version_1/YellowScramStop.xlsx,no,PASS,0.980512803,,,,,,,,,0,0,0,1,0,1,1,1,0,56,56,56,,,,,,,,,,,,,,,,,,,,,,,,,,,,,,,,,,,,,,,,,,,,,,,,,,,,,,,,,,,,,,,,,,,,,,,,,,,,,,,1.93,579.0448619,None,space,1,0.2813347,581.07713,None,581.07713,None,581.07713,None,,,,,,,,,,,P013,fencog,1,Post,2021_Oct_21_1203,Go No-Go Task,2021.1.4,119.9049392
,"Rule: When you see a yellow image, do not press 'spacebar'.",Images/Scram1/AM09NES.jpg,Scramble,Blue,Images/Blue.jpg,space,ParentConditions/YellowYellowBlue_v1.xlsx,YellowYellowBlue,Conditions/Version_1/YellowScramStop.xlsx,no,PASS,0.711317095,,,,,,,,,0,0,0,1,0,1,1,1,0,57,57,57,,,,,,,,,,,,,,,,,,,,,,,,,,,,,,,,,,,,,,,,,,,,,,,,,,,,,,,,,,,,,,,,,,,,,,,,,,,,,,,1.41,581.4779409,None,space,1,0.309899,582.9931583,None,582.9931583,None,582.9931583,None,,,,,,,,,,,P013,fencog,1,Post,2021_Oct_21_1203,Go No-Go Task,2021.1.4,119.9049392
,"Rule: When you see a yellow image, do not press 'spacebar'.",Images/Scram1/AF01_NC.jpg,Scramble,Blue,Images/Blue.jpg,space,ParentConditions/YellowYellowBlue_v1.xlsx,YellowYellowBlue,Conditions/Version_1/YellowScramStop.xlsx,no,PASS,0.081952385,,,,,,,,,0,0,0,1,0,1,1,1,0,58,58,58,,,,,,,,,,,,,,,,,,,,,,,,,,,,,,,,,,,,,,,,,,,,,,,,,,,,,,,,,,,,,,,,,,,,,,,,,,,,,,,1.62,583.3942493,None,None,0,,585.1176467,None,585.1176467,None,585.1176467,None,,,,,,,,,,,P013,fencog,1,Post,2021_Oct_21_1203,Go No-Go Task,2021.1.4,119.9049392
,"Rule: When you see a yellow image, do not press 'spacebar'.",Images/Scram1/AM09_NC.jpg,Scramble,Blue,Images/Blue.jpg,space,ParentConditions/YellowYellowBlue_v1.xlsx,YellowYellowBlue,Conditions/Version_1/YellowScramStop.xlsx,no,PASS,0.689970999,,,,,,,,,0,0,0,1,0,1,1,1,0,59,59,59,,,,,,,,,,,,,,,,,,,,,,,,,,,,,,,,,,,,,,,,,,,,,,,,,,,,,,,,,,,,,,,,,,,,,,,,,,,,,,,1.73,585.5182151,None,space,1,0.296567,587.3503236,None,587.3503236,None,587.3503236,None,,,,,,,,,,,P013,fencog,1,Post,2021_Oct_21_1203,Go No-Go Task,2021.1.4,119.9049392
,"Rule: When you see a yellow image, do not press 'spacebar'.",Images/Scram1/AF11NES.jpg,Scramble,Blue,Images/Blue.jpg,space,ParentConditions/YellowYellowBlue_v1.xlsx,YellowYellowBlue,Conditions/Version_1/YellowScramStop.xlsx,no,PASS,0.557754436,,,,,,,,,0,0,0,1,0,1,1,1,0,60,60,60,,,,,,,,,,,,,,,,,,,,,,,,,,,,,,,,,,,,,,,,,,,,,,,,,,,,,,,,,,,,,,,,,,,,,,,,,,,,,,,1.55,587.7511854,None,space,1,0.3028527,589.4079926,None,589.4079926,None,589.4079926,None,,,,,,,,,,,P013,fencog,1,Post,2021_Oct_21_1203,Go No-Go Task,2021.1.4,119.9049392
,"Rule: When you see a yellow image, do not press 'spacebar'.",Images/Scram1/BF07_NC.jpg,Scramble,Blue,Images/Blue.jpg,space,ParentConditions/YellowYellowBlue_v1.xlsx,YellowYellowBlue,Conditions/Version_1/YellowScramStop.xlsx,no,PASS,0.170581625,,,,,,,,,0,0,0,1,0,1,1,1,0,61,61,61,,,,,,,,,,,,,,,,,,,,,,,,,,,,,,,,,,,,,,,,,,,,,,,,,,,,,,,,,,,,,,,,,,,,,,,,,,,,,,,1.22,589.8086926,None,None,0,,591.132544,None,591.132544,None,591.132544,None,,,,,,,,,,,P013,fencog,1,Post,2021_Oct_21_1203,Go No-Go Task,2021.1.4,119.9049392
,"Rule: When you see a yellow image, do not press 'spacebar'.",Images/Scram2/AM34NES.JPG,Scramble,Yellow,Images/Yellow.jpg,None,ParentConditions/YellowYellowBlue_v1.xlsx,YellowYellowBlue,Conditions/Version_1/YellowScramStop.xlsx,yes,PASS,0.200965001,,,,,,,,,0,0,0,1,0,1,1,1,0,62,62,62,,,,,,,,,,,,,,,,,,,,,,,,,,,,,,,,,,,,,,,,,,,,,,,,,,,,,,,,,,,,,,,,,,,,,,,,,,,,,,,1.97,591.531812,None,None,1,,593.5983322,None,593.5983322,None,593.5983322,None,,,,,,,,,,,P013,fencog,1,Post,2021_Oct_21_1203,Go No-Go Task,2021.1.4,119.9049392
,"Rule: When you see a yellow image, do not press 'spacebar'.",Images/Scram1/AM04_NC.jpg,Scramble,Blue,Images/Blue.jpg,space,ParentConditions/YellowYellowBlue_v1.xlsx,YellowYellowBlue,Conditions/Version_1/YellowScramStop.xlsx,no,PASS,0.492065699,,,,,,,,,0,0,0,1,0,1,1,1,0,63,63,63,,,,,,,,,,,,,,,,,,,,,,,,,,,,,,,,,,,,,,,,,,,,,,,,,,,,,,,,,,,,,,,,,,,,,,,,,,,,,,,1.2,593.9995576,None,space,1,0.2924259,595.306231,None,595.306231,None,595.306231,None,,,,,,,,,,,P013,fencog,1,Post,2021_Oct_21_1203,Go No-Go Task,2021.1.4,119.9049392
,"Rule: When you see a yellow image, do not press 'spacebar'.",Images/Scram1/AM23NES.jpg,Scramble,Blue,Images/Blue.jpg,space,ParentConditions/YellowYellowBlue_v1.xlsx,YellowYellowBlue,Conditions/Version_1/YellowScramStop.xlsx,no,PASS,0.209094486,,,,,,,,,0,0,0,1,0,1,1,1,0,64,64,64,,,,,,,,,,,,,,,,,,,,,,,,,,,,,,,,,,,,,,,,,,,,,,,,,,,,,,,,,,,,,,,,,,,,,,,,,,,,,,,1.3,595.7087306,None,None,0,,597.1140341,None,597.1140341,None,597.1140341,None,,,,,,,,,,,P013,fencog,1,Post,2021_Oct_21_1203,Go No-Go Task,2021.1.4,119.9049392
,"Rule: When you see a yellow image, do not press 'spacebar'.",Images/Scram2/HF10_NO.jpg,Scramble,Blue,Images/Blue.jpg,space,ParentConditions/YellowYellowBlue_v1.xlsx,YellowYellowBlue,Conditions/Version_1/YellowScramStop.xlsx,no,PASS,0.913200347,,,,,,,,,0,0,0,1,0,1,1,1,0,65,65,65,,,,,,,,,,,,,,,,,,,,,,,,,,,,,,,,,,,,,,,,,,,,,,,,,,,,,,,,,,,,,,,,,,,,,,,,,,,,,,,1.68,597.5149649,None,space,1,0.2942214,599.2967338,None,599.2967338,None,599.2967338,None,,,,,,,,,,,P013,fencog,1,Post,2021_Oct_21_1203,Go No-Go Task,2021.1.4,119.9049392
,"Rule: When you see a yellow image, do not press 'spacebar'.",Images/Scram1/AF07NES.jpg,Scramble,Blue,Images/Blue.jpg,space,ParentConditions/YellowYellowBlue_v1.xlsx,YellowYellowBlue,Conditions/Version_1/YellowScramStop.xlsx,no,PASS,0.45060309,,,,,,,,,0,0,0,1,0,1,1,1,0,66,66,66,,,,,,,,,,,,,,,,,,,,,,,,,,,,,,,,,,,,,,,,,,,,,,,,,,,,,,,,,,,,,,,,,,,,,,,,,,,,,,,1.54,599.6970843,None,space,1,0.3013356,601.3378032,None,601.3378032,None,601.3378032,None,,,,,,,,,,,P013,fencog,1,Post,2021_Oct_21_1203,Go No-Go Task,2021.1.4,119.9049392
,"Rule: When you see a yellow image, do not press 'spacebar'.",Images/Scram2/AM09NES.jpg,Scramble,Yellow,Images/Yellow.jpg,None,ParentConditions/YellowYellowBlue_v1.xlsx,YellowYellowBlue,Conditions/Version_1/YellowScramStop.xlsx,yes,PASS,0.565509457,,,,,,,,,0,0,0,1,0,1,1,1,0,67,67,67,,,,,,,,,,,,,,,,,,,,,,,,,,,,,,,,,,,,,,,,,,,,,,,,,,,,,,,,,,,,,,,,,,,,,,,,,,,,,,,1.76,601.7382469,None,None,1,,603.6038282,None,603.6038282,None,603.6038282,None,,,,,,,,,,,P013,fencog,1,Post,2021_Oct_21_1203,Go No-Go Task,2021.1.4,119.9049392
,"Rule: When you see a yellow image, do not press 'spacebar'.",Images/Scram2/BM08_NC.jpg,Scramble,Blue,Images/Blue.jpg,space,ParentConditions/YellowYellowBlue_v1.xlsx,YellowYellowBlue,Conditions/Version_1/YellowScramStop.xlsx,no,PASS,0.479096971,,,,,,,,,0,0,0,1,0,1,1,1,0,68,68,68,,,,,,,,,,,,,,,,,,,,,,,,,,,,,,,,,,,,,,,,,,,,,,,,,,,,,,,,,,,,,,,,,,,,,,,,,,,,,,,1.84,604.0061377,None,space,1,0.2620697,605.9531093,None,605.9531093,None,605.9531093,None,,,,,,,,,,,P013,fencog,1,Post,2021_Oct_21_1203,Go No-Go Task,2021.1.4,119.9049392
,"Rule: When you see a yellow image, do not press 'spacebar'.",Images/Scram2/AF30NES.JPG,Scramble,Yellow,Images/Yellow.jpg,None,ParentConditions/YellowYellowBlue_v1.xlsx,YellowYellowBlue,Conditions/Version_1/YellowScramStop.xlsx,yes,PASS,0.810500571,,,,,,,,,0,0,0,1,0,1,1,1,0,69,69,69,,,,,,,,,,,,,,,,,,,,,,,,,,,,,,,,,,,,,,,,,,,,,,,,,,,,,,,,,,,,,,,,,,,,,,,,,,,,,,,1.33,606.3609958,None,None,1,,607.7942536,None,607.7942536,None,607.7942536,None,,,,,,,,,,,P013,fencog,1,Post,2021_Oct_21_1203,Go No-Go Task,2021.1.4,119.9049392
,"Rule: When you see a yellow image, do not press 'spacebar'.",Images/Scram1/AM34NES.JPG,Scramble,Blue,Images/Blue.jpg,space,ParentConditions/YellowYellowBlue_v1.xlsx,YellowYellowBlue,Conditions/Version_1/YellowScramStop.xlsx,no,PASS,0.918912105,,,,,,,,,0,0,0,1,0,1,1,1,0,70,70,70,,,,,,,,,,,,,,,,,,,,,,,,,,,,,,,,,,,,,,,,,,,,,,,,,,,,,,,,,,,,,,,,,,,,,,,,,,,,,,,1.4,608.1987552,None,space,1,0.3286317,609.7104286,None,609.7104286,None,609.7104286,None,,,,,,,,,,,P013,fencog,1,Post,2021_Oct_21_1203,Go No-Go Task,2021.1.4,119.9049392
