CondFileP,Instructions,FaceE,Express,ColourT,ColourF,CorrectAnsP,MasterCondFile,BlockOrder,CondFile,ColCheck,Triplicate_check,SORT_BY_SMALLEST,EPracticeOuterLoop.thisRepN,EPracticeOuterLoop.thisTrialN,EPracticeOuterLoop.thisN,EPracticeOuterLoop.thisIndex,EPracticeInnerLoop.thisRepN,EPracticeInnerLoop.thisTrialN,EPracticeInnerLoop.thisN,EPracticeInnerLoop.thisIndex,MasterLoop.thisRepN,MasterLoop.thisTrialN,MasterLoop.thisN,MasterLoop.thisIndex,OuterLoop.thisRepN,OuterLoop.thisTrialN,OuterLoop.thisN,OuterLoop.thisIndex,InnerLoop.thisRepN,InnerLoop.thisTrialN,InnerLoop.thisN,InnerLoop.thisIndex,text_13.started,text_13.stopped,key_resp_10.keys,key_resp_10.rt,key_resp_10.started,key_resp_10.stopped,text4.started,text4.stopped,EmotionTaskInstructions1.keys,EmotionTaskInstructions1.rt,EmotionTaskInstructions1.started,EmotionTaskInstructions1.stopped,text_4.started,text_4.stopped,key_resp_5.keys,key_resp_5.rt,key_resp_5.started,key_resp_5.stopped,Text_14.started,Text_14.stopped,key_resp_9.keys,key_resp_9.rt,key_resp_9.started,key_resp_9.stopped,text_5.started,text_5.stopped,text_6.started,text_6.stopped,key_resp_7.keys,key_resp_7.rt,key_resp_7.started,key_resp_7.stopped,text_10.started,text_10.stopped,text_11.started,text_11.stopped,text_12.started,text_12.stopped,ISIjitterPractice,EPracticeISIMarker.started,EPracticeISIMarker.stopped,Pract.keys,Pract.corr,Pract.started,Pract.stopped,PracticeFace.started,PracticeFace.stopped,ColourPractice.started,ColourPractice.stopped,text_7.started,text_7.stopped,Pract.rt,EndOfPractice.started,EndOfPractice.stopped,key_resp_8.keys,key_resp_8.rt,key_resp_8.started,key_resp_8.stopped,text_8.started,text_8.stopped,key_resp_6.keys,key_resp_6.rt,key_resp_6.started,key_resp_6.stopped,text_2.started,text_2.stopped,text_3.started,text_3.stopped,key_resp_3.keys,key_resp_3.rt,key_resp_3.started,key_resp_3.stopped,TaskBlock.started,TaskBlock.stopped,BlockNo1.started,BlockNo1.stopped,OfBlock.started,OfBlock.stopped,ISIjitter,ISImarker.started,ISImarker.stopped,key_resp.keys,key_resp.corr,key_resp.rt,key_resp.started,key_resp.stopped,FaceSet.started,FaceSet.stopped,Colour.started,Colour.stopped,EndBlockText.started,EndBlockText.stopped,key_resp_4.keys,key_resp_4.rt,key_resp_4.started,key_resp_4.stopped,BreakText2.started,BreakText2.stopped,PressToContinue.started,PressToContinue.stopped,participant,Study Name,Task Version (required to run),PRE/POST,date,expName,psychopyVersion,frameRate,
,,,,,,,,,,,,,,,,,,,,,,,,,,,,,,,,,40.82315710000694,None,space,7.526789700030349,41.8122598999762,None,,,,,,,,,,,,,,,,,,,,,,,,,,,,,,,,,,,,,,,,,,,,,,,,,,,,,,,,,,,,,,,,,,,,,,,,,,,,,,,,,,,,,,,,,,,,,,,P001,fencog,1,Pre,2021_Jun_22_1110,Go No-Go Task,2021.1.4,120.74684329872431,
,,,,,,,,,,,,,,,,,,,,,,,,,,,,,,,,,,,,,,,50.824798199988436,None,space,10.978357299987692,50.824798199988436,None,,,,,,,,,,,,,,,,,,,,,,,,,,,,,,,,,,,,,,,,,,,,,,,,,,,,,,,,,,,,,,,,,,,,,,,,,,,,,,,,,,,,,,,,,P001,fencog,1,Pre,2021_Jun_22_1110,Go No-Go Task,2021.1.4,120.74684329872431,
,,,,,,,,,,,,,,,,,,,,,,,,,,,,,,,,,,,,,,,,,,,,,61.87098100001458,None,space,11.820115000009537,61.87098100001458,None,,,,,,,,,,,,,,,,,,,,,,,,,,,,,,,,,,,,,,,,,,,,,,,,,,,,,,,,,,,,,,,,,,,,,,,,,,,,,,,,,,,P001,fencog,1,Pre,2021_Jun_22_1110,Go No-Go Task,2021.1.4,120.74684329872431,
,,,,,,,,,,,,,,,,,,,,,,,,,,,,,,,,,,,,,,,,,,,,,,,,,,,73.7041554999887,None,space,10.674864900007378,73.7041554999887,None,,,,,,,,,,,,,,,,,,,,,,,,,,,,,,,,,,,,,,,,,,,,,,,,,,,,,,,,,,,,,,,,,,,,,,,,,,,,,P001,fencog,1,Pre,2021_Jun_22_1110,Go No-Go Task,2021.1.4,120.74684329872431,
EPracticeConditions/BlueEyes.csv,"Rule: When you see a blue image, do not press 'spacebar'.",Images/Fearful/HM09_FC.jpg,Fear,Blue,Images/Blue.jpg,None,,,,,,,0,0,0,0,0,0,0,0,,,,,,,,,,,,,,,,,,,,,,,,,,,,,,,,,,,,,84.45796889998019,None,87.44857070001308,None,space,1.5220556000131182,87.44857070001308,None,84.45796889998019,None,84.45796889998019,None,84.45796889998019,None,1.5,89.07537330000196,None,None,1,90.73425139999017,None,90.73425139999017,None,90.73425139999017,None,92.18009829998482,None,,,,,,,,,,,,,,,,,,,,,,,,,,,,,,,,,,,,,,,,,,,,,,,,,,P001,fencog,1,Pre,2021_Jun_22_1110,Go No-Go Task,2021.1.4,120.74684329872431,
EPracticeConditions/BlueEyes.csv,"Rule: When you see a blue image, do not press 'spacebar'.",Images/Happy/BM08_HO.jpg,Happy,Yellow,Images/Yellow.jpg,space,,,,,,,0,0,0,0,0,1,1,3,,,,,,,,,,,,,,,,,,,,,,,,,,,,,,,,,,,,,,,,,,,,,,,,,,,1.2,93.61718020000262,None,space,1,94.92190089996438,None,94.92190089996438,None,94.92190089996438,None,95.83131709997542,None,0.24881259998073801,,,,,,,,,,,,,,,,,,,,,,,,,,,,,,,,,,,,,,,,,,,,,,,,,P001,fencog,1,Pre,2021_Jun_22_1110,Go No-Go Task,2021.1.4,120.74684329872431,
EPracticeConditions/BlueEyes.csv,"Rule: When you see a blue image, do not press 'spacebar'.",Images/Happy/BM02_HO.jpg,Happy,Yellow,Images/Yellow.jpg,space,,,,,,,0,0,0,0,0,2,2,2,,,,,,,,,,,,,,,,,,,,,,,,,,,,,,,,,,,,,,,,,,,,,,,,,,,1.6,97.8287624999648,None,space,1,99.52931429998716,None,99.52931429998716,None,99.52931429998716,None,100.42266759998165,None,0.33799650002038106,,,,,,,,,,,,,,,,,,,,,,,,,,,,,,,,,,,,,,,,,,,,,,,,,P001,fencog,1,Pre,2021_Jun_22_1110,Go No-Go Task,2021.1.4,120.74684329872431,
EPracticeConditions/BlueEyes.csv,"Rule: When you see a blue image, do not press 'spacebar'.",Images/Happy/HF05_HO.jpg,Happy,Yellow,Images/Yellow.jpg,space,,,,,,,0,0,0,0,0,3,3,5,,,,,,,,,,,,,,,,,,,,,,,,,,,,,,,,,,,,,,,,,,,,,,,,,,,1.9,102.4290619000094,None,space,1,104.43601409997791,None,104.43601409997791,None,104.43601409997791,None,105.33182580000721,None,0.3349684000131674,,,,,,,,,,,,,,,,,,,,,,,,,,,,,,,,,,,,,,,,,,,,,,,,,P001,fencog,1,Pre,2021_Jun_22_1110,Go No-Go Task,2021.1.4,120.74684329872431,
EPracticeConditions/BlueEyes.csv,"Rule: When you see a blue image, do not press 'spacebar'.",Images/Fearful/AF01_FO.jpg,Fear,Blue,Images/Blue.jpg,None,,,,,,,0,0,0,0,0,4,4,1,,,,,,,,,,,,,,,,,,,,,,,,,,,,,,,,,,,,,,,,,,,,,,,,,,,1.8,107.33730710000964,None,space,0,109.24290859996108,None,109.24290859996108,None,109.24290859996108,None,110.1482229999965,None,0.28020029998151585,,,,,,,,,,,,,,,,,,,,,,,,,,,,,,,,,,,,,,,,,,,,,,,,,P001,fencog,1,Pre,2021_Jun_22_1110,Go No-Go Task,2021.1.4,120.74684329872431,
EPracticeConditions/BlueEyes.csv,"Rule: When you see a blue image, do not press 'spacebar'.",Images/Happy/HF09_HE.jpg,Happy,Yellow,Images/Yellow.jpg,space,,,,,,,0,0,0,0,0,5,5,6,,,,,,,,,,,,,,,,,,,,,,,,,,,,,,,,,,,,,,,,,,,,,,,,,,,1.4,112.15072320000036,None,space,1,113.65833539998857,None,113.65833539998857,None,113.65833539998857,None,114.5556285000057,None,0.3685948000056669,,,,,,,,,,,,,,,,,,,,,,,,,,,,,,,,,,,,,,,,,,,,,,,,,P001,fencog,1,Pre,2021_Jun_22_1110,Go No-Go Task,2021.1.4,120.74684329872431,
EPracticeConditions/BlueEyes.csv,"Rule: When you see a blue image, do not press 'spacebar'.",Images/Happy/HF04_HE.jpg,Happy,Yellow,Images/Yellow.jpg,space,,,,,,,0,0,0,0,0,6,6,4,,,,,,,,,,,,,,,,,,,,,,,,,,,,,,,,,,,,,,,,,,,,,,,,,,,1.7,116.55780259997118,None,None,0,118.3652918000007,None,118.3652918000007,None,118.3652918000007,None,119.27286420000019,None,,,,,,,,,,,,,,,,,,,,,,,,,,,,,,,,,,,,,,,,,,,,,,,,,,P001,fencog,1,Pre,2021_Jun_22_1110,Go No-Go Task,2021.1.4,120.74684329872431,
EPracticeConditions/BlueEyes.csv,"Rule: When you see a blue image, do not press 'spacebar'.",Images/Happy/HF10_HE.jpg,Happy,Yellow,Images/Yellow.jpg,space,,,,,,,0,0,0,0,0,7,7,7,,,,,,,,,,,,,,,,,,,,,,,,,,,,,,,,,,,,,,,,,,,,,,,,,,,1.3,121.27176539995708,None,space,1,122.67223689996172,None,122.67223689996172,None,122.67223689996172,None,123.56907259998843,None,0.3387611000216566,,,,,,,,,,,,,,,,,,,,,,,,,,,,,,,,,,,,,,,,,,,,,,,,,P001,fencog,1,Pre,2021_Jun_22_1110,Go No-Go Task,2021.1.4,120.74684329872431,
EPracticeConditions/BlueEyes.csv,"Rule: When you see a blue image, do not press 'spacebar'.",,,,,,,,,,,,0,0,0,0,,,,,,,,,,,,,,,,,,,,,,,,,,,,,,,,,,,,,,,,,,,,,,,,,,,,,,,,,,,,,,,,,,,,,,,,,,,,,,,,,,,,,,,,,,,,,,,,,,,,,,,,,,,,,,,,,,,,,P001,fencog,1,Pre,2021_Jun_22_1110,Go No-Go Task,2021.1.4,120.74684329872431,
EPracticeConditions/YellowEyes.csv,"Rule: When you see a yellow image, do not press 'spacebar'.",Images/Happy/AM32HAS.jpg,Happy,Yellow,Images/Yellow.jpg,None,,,,,,,0,1,1,1,0,0,0,0,,,,,,,,,,,,,,,,,,,,,,,,,,,,,,,,,,,,,125.59190439997474,None,128.58667419996345,None,space,28.544295599975158,128.58667419996345,None,125.59190439997474,None,125.59190439997474,None,125.59190439997474,None,1.2,157.1527752999682,None,None,1,158.45330130000366,None,158.45330130000366,None,158.45330130000366,None,159.35857589996886,None,,,,,,,,,,,,,,,,,,,,,,,,,,,,,,,,,,,,,,,,,,,,,,,,,,P001,fencog,1,Pre,2021_Jun_22_1110,Go No-Go Task,2021.1.4,120.74684329872431,
EPracticeConditions/YellowEyes.csv,"Rule: When you see a yellow image, do not press 'spacebar'.",Images/Happy/BF05_HO.jpg,Happy,Yellow,Images/Yellow.jpg,None,,,,,,,0,1,1,1,0,1,1,1,,,,,,,,,,,,,,,,,,,,,,,,,,,,,,,,,,,,,,,,,,,,,,,,,,,1.6,161.36002059996827,None,None,1,163.0604389999644,None,163.0604389999644,None,163.0604389999644,None,163.950804699969,None,,,,,,,,,,,,,,,,,,,,,,,,,,,,,,,,,,,,,,,,,,,,,,,,,,P001,fencog,1,Pre,2021_Jun_22_1110,Go No-Go Task,2021.1.4,120.74684329872431,
EPracticeConditions/YellowEyes.csv,"Rule: When you see a yellow image, do not press 'spacebar'.",Images/Fearful/AM16AFS.jpg,Fear,Blue,Images/Blue.jpg,space,,,,,,,0,1,1,1,0,2,2,2,,,,,,,,,,,,,,,,,,,,,,,,,,,,,,,,,,,,,,,,,,,,,,,,,,,1.7,165.9541589000146,None,space,1,167.7589764999575,None,167.7589764999575,None,167.7589764999575,None,168.65783360000933,None,0.23640689998865128,,,,,,,,,,,,,,,,,,,,,,,,,,,,,,,,,,,,,,,,,,,,,,,,,P001,fencog,1,Pre,2021_Jun_22_1110,Go No-Go Task,2021.1.4,120.74684329872431,
EPracticeConditions/YellowEyes.csv,"Rule: When you see a yellow image, do not press 'spacebar'.",Images/Fearful/AM22AFS.jpg,Fear,Blue,Images/Blue.jpg,space,,,,,,,0,1,1,1,0,3,3,5,,,,,,,,,,,,,,,,,,,,,,,,,,,,,,,,,,,,,,,,,,,,,,,,,,,1.3,170.6598620999721,None,space,1,172.06646259996342,None,172.06646259996342,None,172.06646259996342,None,172.97112000000197,None,0.2405490999808535,,,,,,,,,,,,,,,,,,,,,,,,,,,,,,,,,,,,,,,,,,,,,,,,,P001,fencog,1,Pre,2021_Jun_22_1110,Go No-Go Task,2021.1.4,120.74684329872431,
EPracticeConditions/YellowEyes.csv,"Rule: When you see a yellow image, do not press 'spacebar'.",Images/Fearful/AM23AFS.jpg,Fear,Blue,Images/Blue.jpg,space,,,,,,,0,1,1,1,0,4,4,6,,,,,,,,,,,,,,,,,,,,,,,,,,,,,,,,,,,,,,,,,,,,,,,,,,,1.4,174.97786689997884,None,space,1,176.48143909999635,None,176.48143909999635,None,176.48143909999635,None,177.37804250000045,None,0.3534557999810204,,,,,,,,,,,,,,,,,,,,,,,,,,,,,,,,,,,,,,,,,,,,,,,,,P001,fencog,1,Pre,2021_Jun_22_1110,Go No-Go Task,2021.1.4,120.74684329872431,
EPracticeConditions/YellowEyes.csv,"Rule: When you see a yellow image, do not press 'spacebar'.",Images/Fearful/AM17AFS.jpg,Fear,Blue,Images/Blue.jpg,space,,,,,,,0,1,1,1,0,5,5,3,,,,,,,,,,,,,,,,,,,,,,,,,,,,,,,,,,,,,,,,,,,,,,,,,,,1.9,179.38279810000677,None,space,1,181.38824080000632,None,181.38824080000632,None,181.38824080000632,None,182.28442059998633,None,0.3031240000273101,,,,,,,,,,,,,,,,,,,,,,,,,,,,,,,,,,,,,,,,,,,,,,,,,P001,fencog,1,Pre,2021_Jun_22_1110,Go No-Go Task,2021.1.4,120.74684329872431,
EPracticeConditions/YellowEyes.csv,"Rule: When you see a yellow image, do not press 'spacebar'.",Images/Fearful/AM24AFS.jpg,Fear,Blue,Images/Blue.jpg,space,,,,,,,0,1,1,1,0,6,6,7,,,,,,,,,,,,,,,,,,,,,,,,,,,,,,,,,,,,,,,,,,,,,,,,,,,1.8,184.28811630001292,None,space,1,186.19524629996158,None,186.19524629996158,None,186.19524629996158,None,187.091404900013,None,0.24785020004492253,,,,,,,,,,,,,,,,,,,,,,,,,,,,,,,,,,,,,,,,,,,,,,,,,P001,fencog,1,Pre,2021_Jun_22_1110,Go No-Go Task,2021.1.4,120.74684329872431,
EPracticeConditions/YellowEyes.csv,"Rule: When you see a yellow image, do not press 'spacebar'.",Images/Fearful/AM19AFS.jpg,Fear,Blue,Images/Blue.jpg,space,,,,,,,0,1,1,1,0,7,7,4,,,,,,,,,,,,,,,,,,,,,,,,,,,,,,,,,,,,,,,,,,,,,,,,,,,1.5,189.09401539998362,None,space,1,190.6938550999621,None,190.6938550999621,None,190.6938550999621,None,191.5910312999622,None,0.3494122000411153,,,,,,,,,,,,,,,,,,,,,,,,,,,,,,,,,,,,,,,,,,,,,,,,,P001,fencog,1,Pre,2021_Jun_22_1110,Go No-Go Task,2021.1.4,120.74684329872431,
EPracticeConditions/YellowEyes.csv,"Rule: When you see a yellow image, do not press 'spacebar'.",,,,,,,,,,,,0,1,1,1,,,,,,,,,,,,,,,,,,,,,,,,,,,,,,,,,,,,,,,,,,,,,,,,,,,,,,,,,,,,,,,,,,,,,,,,,,,,,,,,,,,,,,,,,,,,,,,,,,,,,,,,,,,,,,,,,,,,,P001,fencog,1,Pre,2021_Jun_22_1110,Go No-Go Task,2021.1.4,120.74684329872431,
EPracticeConditions/BlueScram.csv,"Rule: When you see a blue image, do not press 'spacebar'.",Images/Scram1/AM04_NC.jpg,Scramble,Yellow,Images/Yellow.jpg,space,,,,,,,0,2,2,2,0,0,0,3,,,,,,,,,,,,,,,,,,,,,,,,,,,,,,,,,,,,,193.60892369999783,None,196.59972359996755,None,space,4.5150233000167646,196.59972359996755,None,193.60892369999783,None,193.60892369999783,None,193.60892369999783,None,1.5,201.13516269996762,None,None,0,202.7402956999722,None,202.7402956999722,None,202.7402956999722,None,203.65520169999218,None,,,,,,,,,,,,,,,,,,,,,,,,,,,,,,,,,,,,,,,,,,,,,,,,,,P001,fencog,1,Pre,2021_Jun_22_1110,Go No-Go Task,2021.1.4,120.74684329872431,
EPracticeConditions/BlueScram.csv,"Rule: When you see a blue image, do not press 'spacebar'.",Images/Scram1/AM13NES.jpg,Scramble,Yellow,Images/Yellow.jpg,space,,,,,,,0,2,2,2,0,1,1,5,,,,,,,,,,,,,,,,,,,,,,,,,,,,,,,,,,,,,,,,,,,,,,,,,,,1.9,205.6480069999816,None,space,1,207.65554070001235,None,207.65554070001235,None,207.65554070001235,None,208.5542686000117,None,0.2836341999936849,,,,,,,,,,,,,,,,,,,,,,,,,,,,,,,,,,,,,,,,,,,,,,,,,P001,fencog,1,Pre,2021_Jun_22_1110,Go No-Go Task,2021.1.4,120.74684329872431,
EPracticeConditions/BlueScram.csv,"Rule: When you see a blue image, do not press 'spacebar'.",Images/Scram1/BF18_NC.jpg,Scramble,Blue,Images/Blue.jpg,None,,,,,,,0,2,2,2,0,2,2,1,,,,,,,,,,,,,,,,,,,,,,,,,,,,,,,,,,,,,,,,,,,,,,,,,,,1.2,210.5564791999641,None,space,0,211.86264279996976,None,211.86264279996976,None,211.86264279996976,None,212.76803729997482,None,0.3164151000091806,,,,,,,,,,,,,,,,,,,,,,,,,,,,,,,,,,,,,,,,,,,,,,,,,P001,fencog,1,Pre,2021_Jun_22_1110,Go No-Go Task,2021.1.4,120.74684329872431,
EPracticeConditions/BlueScram.csv,"Rule: When you see a blue image, do not press 'spacebar'.",Images/Scram1/AM03NES.jpg,Scramble,Yellow,Images/Yellow.jpg,space,,,,,,,0,2,2,2,0,3,3,4,,,,,,,,,,,,,,,,,,,,,,,,,,,,,,,,,,,,,,,,,,,,,,,,,,,1.3,214.7693363999715,None,None,0,216.1696532999631,None,216.1696532999631,None,216.1696532999631,None,217.07629559998168,None,,,,,,,,,,,,,,,,,,,,,,,,,,,,,,,,,,,,,,,,,,,,,,,,,,P001,fencog,1,Pre,2021_Jun_22_1110,Go No-Go Task,2021.1.4,120.74684329872431,
EPracticeConditions/BlueScram.csv,"Rule: When you see a blue image, do not press 'spacebar'.",Images/Scram1/BM08_NC.jpg,Scramble,Blue,Images/Blue.jpg,None,,,,,,,0,2,2,2,0,4,4,0,,,,,,,,,,,,,,,,,,,,,,,,,,,,,,,,,,,,,,,,,,,,,,,,,,,1.4,219.0760314000072,None,None,1,220.56841899995925,None,220.56841899995925,None,220.56841899995925,None,221.47068779997062,None,,,,,,,,,,,,,,,,,,,,,,,,,,,,,,,,,,,,,,,,,,,,,,,,,,P001,fencog,1,Pre,2021_Jun_22_1110,Go No-Go Task,2021.1.4,120.74684329872431,
EPracticeConditions/BlueScram.csv,"Rule: When you see a blue image, do not press 'spacebar'.",Images/Scram2/AF25NES.jpg,Scramble,Yellow,Images/Yellow.jpg,space,,,,,,,0,2,2,2,0,5,5,7,,,,,,,,,,,,,,,,,,,,,,,,,,,,,,,,,,,,,,,,,,,,,,,,,,,1.8,223.47732929995982,None,space,1,225.38364109996473,None,225.38364109996473,None,225.38364109996473,None,226.27414960000897,None,0.2200728000025265,,,,,,,,,,,,,,,,,,,,,,,,,,,,,,,,,,,,,,,,,,,,,,,,,P001,fencog,1,Pre,2021_Jun_22_1110,Go No-Go Task,2021.1.4,120.74684329872431,
EPracticeConditions/BlueScram.csv,"Rule: When you see a blue image, do not press 'spacebar'.",Images/Scram2/AF10_NC.jpg,Scramble,Yellow,Images/Yellow.jpg,space,,,,,,,0,2,2,2,0,6,6,2,,,,,,,,,,,,,,,,,,,,,,,,,,,,,,,,,,,,,,,,,,,,,,,,,,,1.6,228.27447050000774,None,space,1,229.98225130001083,None,229.98225130001083,None,229.98225130001083,None,230.8784266000148,None,0.32463829999323934,,,,,,,,,,,,,,,,,,,,,,,,,,,,,,,,,,,,,,,,,,,,,,,,,P001,fencog,1,Pre,2021_Jun_22_1110,Go No-Go Task,2021.1.4,120.74684329872431,
EPracticeConditions/BlueScram.csv,"Rule: When you see a blue image, do not press 'spacebar'.",Images/Scram2/AM03_NC.jpg,Scramble,Yellow,Images/Yellow.jpg,space,,,,,,,0,2,2,2,0,7,7,6,,,,,,,,,,,,,,,,,,,,,,,,,,,,,,,,,,,,,,,,,,,,,,,,,,,1.7,232.88121560000582,None,space,1,234.6975253999699,None,234.6975253999699,None,234.6975253999699,None,235.59366389998468,None,0.3214598000049591,,,,,,,,,,,,,,,,,,,,,,,,,,,,,,,,,,,,,,,,,,,,,,,,,P001,fencog,1,Pre,2021_Jun_22_1110,Go No-Go Task,2021.1.4,120.74684329872431,
EPracticeConditions/BlueScram.csv,"Rule: When you see a blue image, do not press 'spacebar'.",,,,,,,,,,,,0,2,2,2,,,,,,,,,,,,,,,,,,,,,,,,,,,,,,,,,,,,,,,,,,,,,,,,,,,,,,,,,,,,,,,,,,,,,,,,,,,,,,,,,,,,,,,,,,,,,,,,,,,,,,,,,,,,,,,,,,,,,P001,fencog,1,Pre,2021_Jun_22_1110,Go No-Go Task,2021.1.4,120.74684329872431,
EPracticeConditions/YellowScram.csv,"Rule: When you see a yellow image, do not press 'spacebar'.",Images/Scram2/AM03NES.jpg,Scramble,Yellow,Images/Yellow.jpg,None,,,,,,,0,3,3,3,0,0,0,1,,,,,,,,,,,,,,,,,,,,,,,,,,,,,,,,,,,,,237.60718920000363,None,240.60249139997177,None,space,1.0322209000005387,240.60249139997177,None,237.60718920000363,None,237.60718920000363,None,237.60718920000363,None,1.9,241.6585311999661,None,None,1,243.66162590001477,None,243.66162590001477,None,243.66162590001477,None,244.5655981999589,None,,,,,,,,,,,,,,,,,,,,,,,,,,,,,,,,,,,,,,,,,,,,,,,,,,P001,fencog,1,Pre,2021_Jun_22_1110,Go No-Go Task,2021.1.4,120.74684329872431,
EPracticeConditions/YellowScram.csv,"Rule: When you see a yellow image, do not press 'spacebar'.",Images/Scram1/BM01_NC.jpg,Scramble,Blue,Images/Blue.jpg,space,,,,,,,0,3,3,3,0,1,1,5,,,,,,,,,,,,,,,,,,,,,,,,,,,,,,,,,,,,,,,,,,,,,,,,,,,1.6,246.5679096999811,None,space,1,248.26844600000186,None,248.26844600000186,None,248.26844600000186,None,249.16454560001148,None,0.24657849996583536,,,,,,,,,,,,,,,,,,,,,,,,,,,,,,,,,,,,,,,,,,,,,,,,,P001,fencog,1,Pre,2021_Jun_22_1110,Go No-Go Task,2021.1.4,120.74684329872431,
EPracticeConditions/YellowScram.csv,"Rule: When you see a yellow image, do not press 'spacebar'.",Images/Scram1/AF10_NC.jpg,Scramble,Blue,Images/Blue.jpg,space,,,,,,,0,3,3,3,0,2,2,6,,,,,,,,,,,,,,,,,,,,,,,,,,,,,,,,,,,,,,,,,,,,,,,,,,,1.3,251.16834380000364,None,None,0,252.5758429999696,None,252.5758429999696,None,252.5758429999696,None,253.4819175999728,None,,,,,,,,,,,,,,,,,,,,,,,,,,,,,,,,,,,,,,,,,,,,,,,,,,P001,fencog,1,Pre,2021_Jun_22_1110,Go No-Go Task,2021.1.4,120.74684329872431,
EPracticeConditions/YellowScram.csv,"Rule: When you see a yellow image, do not press 'spacebar'.",Images/Scram1/HF04_NC.jpg,Scramble,Blue,Images/Blue.jpg,space,,,,,,,0,3,3,3,0,3,3,2,,,,,,,,,,,,,,,,,,,,,,,,,,,,,,,,,,,,,,,,,,,,,,,,,,,1.7,255.4822187999962,None,space,1,257.2825138999615,None,257.2825138999615,None,257.2825138999615,None,258.18762229999993,None,0.26432009995914996,,,,,,,,,,,,,,,,,,,,,,,,,,,,,,,,,,,,,,,,,,,,,,,,,P001,fencog,1,Pre,2021_Jun_22_1110,Go No-Go Task,2021.1.4,120.74684329872431,
EPracticeConditions/YellowScram.csv,"Rule: When you see a yellow image, do not press 'spacebar'.",Images/Scram1/AF24NES.jpg,Scramble,Blue,Images/Blue.jpg,space,,,,,,,0,3,3,3,0,4,4,7,,,,,,,,,,,,,,,,,,,,,,,,,,,,,,,,,,,,,,,,,,,,,,,,,,,1.2,260.1894861999899,None,space,1,261.48960349999834,None,261.48960349999834,None,261.48960349999834,None,262.37999230000423,None,0.3382846000022255,,,,,,,,,,,,,,,,,,,,,,,,,,,,,,,,,,,,,,,,,,,,,,,,,P001,fencog,1,Pre,2021_Jun_22_1110,Go No-Go Task,2021.1.4,120.74684329872431,
EPracticeConditions/YellowScram.csv,"Rule: When you see a yellow image, do not press 'spacebar'.",Images/Scram1/AF07NES.jpg,Scramble,Blue,Images/Blue.jpg,space,,,,,,,0,3,3,3,0,5,5,3,,,,,,,,,,,,,,,,,,,,,,,,,,,,,,,,,,,,,,,,,,,,,,,,,,,1.5,264.3806433000136,None,space,1,265.98831009998685,None,265.98831009998685,None,265.98831009998685,None,266.88398029998643,None,0.2380867000319995,,,,,,,,,,,,,,,,,,,,,,,,,,,,,,,,,,,,,,,,,,,,,,,,,P001,fencog,1,Pre,2021_Jun_22_1110,Go No-Go Task,2021.1.4,120.74684329872431,
EPracticeConditions/YellowScram.csv,"Rule: When you see a yellow image, do not press 'spacebar'.",Images/Scram1/AF30NES.JPG,Scramble,Blue,Images/Blue.jpg,space,,,,,,,0,3,3,3,0,6,6,4,,,,,,,,,,,,,,,,,,,,,,,,,,,,,,,,,,,,,,,,,,,,,,,,,,,1.4,268.88752379996004,None,None,0,270.39569049997954,None,270.39569049997954,None,270.39569049997954,None,271.29933409998193,None,,,,,,,,,,,,,,,,,,,,,,,,,,,,,,,,,,,,,,,,,,,,,,,,,,P001,fencog,1,Pre,2021_Jun_22_1110,Go No-Go Task,2021.1.4,120.74684329872431,
EPracticeConditions/YellowScram.csv,"Rule: When you see a yellow image, do not press 'spacebar'.",Images/Scram2/HM06_NC.jpg,Scramble,Yellow,Images/Yellow.jpg,None,,,,,,,0,3,3,3,0,7,7,0,,,,,,,,,,,,,,,,,,,,,,,,,,,,,,,,,,,,,,,,,,,,,,,,,,,1.8,273.30172699998366,None,None,1,275.20214919996215,None,275.20214919996215,None,275.20214919996215,None,276.10565779998433,None,,,,,,,,,,,,,,,,,,,,,,,,,,,,,,,,,,,,,,,,,,,,,,,,,,P001,fencog,1,Pre,2021_Jun_22_1110,Go No-Go Task,2021.1.4,120.74684329872431,
EPracticeConditions/YellowScram.csv,"Rule: When you see a yellow image, do not press 'spacebar'.",,,,,,,,,,,,0,3,3,3,,,,,,,,,,,,,,,,,,,,,,,,,,,,,,,,,,,,,,,,,,,,,,,,,,,,,,,,,,,,,,,,,,,,,,,,,,,,,,,,,,,,,,,,,,,,,,,,,,,,,,,,,,,,,,,,,,,,,P001,fencog,1,Pre,2021_Jun_22_1110,Go No-Go Task,2021.1.4,120.74684329872431,
,,,,,,,,,,,,,,,,,,,,,,,,,,,,,,,,,,,,,,,,,,,,,,,,,,,,,,,,,,,,,,,,,,,,,,,,,,,,,,,,,,,,,279.4172944999882,None,space,8.550402599968947,279.90018840000266,None,,,,,,,,,,,,,,,,,,,,,,,,,,,,,,,,,,,,,,,,,,,P001,fencog,1,Pre,2021_Jun_22_1110,Go No-Go Task,2021.1.4,120.74684329872431,
,,,,,,,,,,,,,,,,,,,,,,,,,,,,,,,,,,,,,,,,,,,,,,,,,,,,,,,,,,,,,,,,,,,,,,,,,,,,,,,,,,,,,,,,,,,288.4658874999732,None,space,4.073032499989495,288.4658874999732,None,,,,,,,,,,,,,,,,,,,,,,,,,,,,,,,,,,,,,P001,fencog,1,Pre,2021_Jun_22_1110,Go No-Go Task,2021.1.4,120.74684329872431,
,"Rule: When you see a yellow image, do not press 'spacebar'.",Images/Fearful/BM02_FC.jpg,Fear,Blue,Images/Blue.jpg,space,ParentConditions/YellowBlueBlue_v1.xlsx,BlueBlueYellow,Conditions/Version_1/YellowHappyStop.xlsx,no,PASS,0.44148177898618846,,,,,,,,,0,0,0,0,0,0,0,0,0,0,0,0,,,,,,,,,,,,,,,,,,,,,,,,,,,,,,,,,,,,,,,,,,,,,,,,,,,,,,,,,,,,,,,,,292.63010269997176,None,295.62531500001205,None,space,5.593660100013949,295.62531500001205,None,292.63010269997176,None,292.63010269997176,None,292.63010269997176,None,1.35,301.26574050000636,None,space,1,0.2997699999832548,302.7190581999603,None,302.7190581999603,None,302.7190581999603,None,,,,,,,,,,,P001,fencog,1,Pre,2021_Jun_22_1110,Go No-Go Task,2021.1.4,120.74684329872431,
,"Rule: When you see a yellow image, do not press 'spacebar'.",Images/Fearful/HF05_FC.jpg,Fear,Blue,Images/Blue.jpg,space,ParentConditions/YellowBlueBlue_v1.xlsx,BlueBlueYellow,Conditions/Version_1/YellowHappyStop.xlsx,no,PASS,0.49496512693563743,,,,,,,,,0,0,0,0,0,0,0,0,0,1,1,1,,,,,,,,,,,,,,,,,,,,,,,,,,,,,,,,,,,,,,,,,,,,,,,,,,,,,,,,,,,,,,,,,,,,,,,,,,,,,,,1.9,303.11801629996626,None,space,1,0.26127489999635145,305.11821399995824,None,305.11821399995824,None,305.11821399995824,None,,,,,,,,,,,P001,fencog,1,Pre,2021_Jun_22_1110,Go No-Go Task,2021.1.4,120.74684329872431,
,"Rule: When you see a yellow image, do not press 'spacebar'.",Images/Happy/AF32HAS.jpg,Happy,Yellow,Images/Yellow.jpg,None,ParentConditions/YellowBlueBlue_v1.xlsx,BlueBlueYellow,Conditions/Version_1/YellowHappyStop.xlsx,yes,PASS,0.3690153910902233,,,,,,,,,0,0,0,0,0,0,0,0,0,2,2,2,,,,,,,,,,,,,,,,,,,,,,,,,,,,,,,,,,,,,,,,,,,,,,,,,,,,,,,,,,,,,,,,,,,,,,,,,,,,,,,1.75,305.5272144000046,None,None,1,,307.38424210000085,None,307.38424210000085,None,307.38424210000085,None,,,,,,,,,,,P001,fencog,1,Pre,2021_Jun_22_1110,Go No-Go Task,2021.1.4,120.74684329872431,
,"Rule: When you see a yellow image, do not press 'spacebar'.",Images/Happy/AM32HAS.jpg,Happy,Yellow,Images/Yellow.jpg,None,ParentConditions/YellowBlueBlue_v1.xlsx,BlueBlueYellow,Conditions/Version_1/YellowHappyStop.xlsx,yes,PASS,0.09240134349582851,,,,,,,,,0,0,0,0,0,0,0,0,0,3,3,3,,,,,,,,,,,,,,,,,,,,,,,,,,,,,,,,,,,,,,,,,,,,,,,,,,,,,,,,,,,,,,,,,,,,,,,,,,,,,,,1.86,307.7843161000055,None,None,1,,309.75029719999293,None,309.75029719999293,None,309.75029719999293,None,,,,,,,,,,,P001,fencog,1,Pre,2021_Jun_22_1110,Go No-Go Task,2021.1.4,120.74684329872431,
,"Rule: When you see a yellow image, do not press 'spacebar'.",Images/Fearful/AF07FS.jpg,Fear,Blue,Images/Blue.jpg,space,ParentConditions/YellowBlueBlue_v1.xlsx,BlueBlueYellow,Conditions/Version_1/YellowHappyStop.xlsx,no,PASS,0.4013300010309635,,,,,,,,,0,0,0,0,0,0,0,0,0,4,4,4,,,,,,,,,,,,,,,,,,,,,,,,,,,,,,,,,,,,,,,,,,,,,,,,,,,,,,,,,,,,,,,,,,,,,,,,,,,,,,,1.49,310.1550825999584,None,space,1,0.23724659997969866,311.74959989998024,None,311.74959989998024,None,311.74959989998024,None,,,,,,,,,,,P001,fencog,1,Pre,2021_Jun_22_1110,Go No-Go Task,2021.1.4,120.74684329872431,
,"Rule: When you see a yellow image, do not press 'spacebar'.",Images/Fearful/AM30AFS.jpg,Fear,Blue,Images/Blue.jpg,space,ParentConditions/YellowBlueBlue_v1.xlsx,BlueBlueYellow,Conditions/Version_1/YellowHappyStop.xlsx,no,PASS,0.5026512951867452,,,,,,,,,0,0,0,0,0,0,0,0,0,5,5,5,,,,,,,,,,,,,,,,,,,,,,,,,,,,,,,,,,,,,,,,,,,,,,,,,,,,,,,,,,,,,,,,,,,,,,,,,,,,,,,1.6,312.15004479995696,None,space,1,0.2659739999799058,313.8573084999807,None,313.8573084999807,None,313.8573084999807,None,,,,,,,,,,,P001,fencog,1,Pre,2021_Jun_22_1110,Go No-Go Task,2021.1.4,120.74684329872431,
,"Rule: When you see a yellow image, do not press 'spacebar'.",Images/Happy/BM03_HO.jpg,Happy,Yellow,Images/Yellow.jpg,None,ParentConditions/YellowBlueBlue_v1.xlsx,BlueBlueYellow,Conditions/Version_1/YellowHappyStop.xlsx,yes,PASS,0.3904556138764915,,,,,,,,,0,0,0,0,0,0,0,0,0,6,6,6,,,,,,,,,,,,,,,,,,,,,,,,,,,,,,,,,,,,,,,,,,,,,,,,,,,,,,,,,,,,,,,,,,,,,,,,,,,,,,,1.69,314.25651229999494,None,None,1,,316.0483436000068,None,316.0483436000068,None,316.0483436000068,None,,,,,,,,,,,P001,fencog,1,Pre,2021_Jun_22_1110,Go No-Go Task,2021.1.4,120.74684329872431,
,"Rule: When you see a yellow image, do not press 'spacebar'.",Images/Fearful/HM06_FC.jpg,Fear,Blue,Images/Blue.jpg,space,ParentConditions/YellowBlueBlue_v1.xlsx,BlueBlueYellow,Conditions/Version_1/YellowHappyStop.xlsx,no,PASS,0.8295870874618959,,,,,,,,,0,0,0,0,0,0,0,0,0,7,7,7,,,,,,,,,,,,,,,,,,,,,,,,,,,,,,,,,,,,,,,,,,,,,,,,,,,,,,,,,,,,,,,,,,,,,,,,,,,,,,,1.59,316.45434399996884,None,space,1,0.27182470000116155,318.147708399978,None,318.147708399978,None,318.147708399978,None,,,,,,,,,,,P001,fencog,1,Pre,2021_Jun_22_1110,Go No-Go Task,2021.1.4,120.74684329872431,
,"Rule: When you see a yellow image, do not press 'spacebar'.",Images/Fearful/AF19AFS.jpg,Fear,Blue,Images/Blue.jpg,space,ParentConditions/YellowBlueBlue_v1.xlsx,BlueBlueYellow,Conditions/Version_1/YellowHappyStop.xlsx,no,PASS,0.31457189280880904,,,,,,,,,0,0,0,0,0,0,0,0,0,8,8,8,,,,,,,,,,,,,,,,,,,,,,,,,,,,,,,,,,,,,,,,,,,,,,,,,,,,,,,,,,,,,,,,,,,,,,,,,,,,,,,1.97,318.5567191999871,None,space,1,0.2695289000403136,320.63032759999624,None,320.63032759999624,None,320.63032759999624,None,,,,,,,,,,,P001,fencog,1,Pre,2021_Jun_22_1110,Go No-Go Task,2021.1.4,120.74684329872431,
,"Rule: When you see a yellow image, do not press 'spacebar'.",Images/Happy/AF30HAS.jpg,Happy,Yellow,Images/Yellow.jpg,None,ParentConditions/YellowBlueBlue_v1.xlsx,BlueBlueYellow,Conditions/Version_1/YellowHappyStop.xlsx,yes,PASS,0.14544836048525234,,,,,,,,,0,0,0,0,0,0,0,0,0,9,9,9,,,,,,,,,,,,,,,,,,,,,,,,,,,,,,,,,,,,,,,,,,,,,,,,,,,,,,,,,,,,,,,,,,,,,,,,,,,,,,,1.39,321.0310121999937,None,None,1,,322.5214548999793,None,322.5214548999793,None,322.5214548999793,None,,,,,,,,,,,P001,fencog,1,Pre,2021_Jun_22_1110,Go No-Go Task,2021.1.4,120.74684329872431,
,"Rule: When you see a yellow image, do not press 'spacebar'.",Images/Fearful/AF25AFS.jpg,Fear,Blue,Images/Blue.jpg,space,ParentConditions/YellowBlueBlue_v1.xlsx,BlueBlueYellow,Conditions/Version_1/YellowHappyStop.xlsx,no,PASS,0.31319631990865415,,,,,,,,,0,0,0,0,0,0,0,0,0,10,10,10,,,,,,,,,,,,,,,,,,,,,,,,,,,,,,,,,,,,,,,,,,,,,,,,,,,,,,,,,,,,,,,,,,,,,,,,,,,,,,,1.54,322.92508670000825,None,space,1,0.2561375999939628,324.5709083999973,None,324.5709083999973,None,324.5709083999973,None,,,,,,,,,,,P001,fencog,1,Pre,2021_Jun_22_1110,Go No-Go Task,2021.1.4,120.74684329872431,
,"Rule: When you see a yellow image, do not press 'spacebar'.",Images/Fearful/AF30AFS.jpg,Fear,Blue,Images/Blue.jpg,space,ParentConditions/YellowBlueBlue_v1.xlsx,BlueBlueYellow,Conditions/Version_1/YellowHappyStop.xlsx,no,PASS,0.9854799433848976,,,,,,,,,0,0,0,0,0,0,0,0,0,11,11,11,,,,,,,,,,,,,,,,,,,,,,,,,,,,,,,,,,,,,,,,,,,,,,,,,,,,,,,,,,,,,,,,,,,,,,,,,,,,,,,1.3,324.97131769999396,None,space,1,0.34381150000263005,326.3787247999571,None,326.3787247999571,None,326.3787247999571,None,,,,,,,,,,,P001,fencog,1,Pre,2021_Jun_22_1110,Go No-Go Task,2021.1.4,120.74684329872431,
,"Rule: When you see a yellow image, do not press 'spacebar'.",Images/Happy/BF10_HO.jpg,Happy,Yellow,Images/Yellow.jpg,None,ParentConditions/YellowBlueBlue_v1.xlsx,BlueBlueYellow,Conditions/Version_1/YellowHappyStop.xlsx,yes,PASS,0.9368187318754497,,,,,,,,,0,0,0,0,0,0,0,0,0,12,12,12,,,,,,,,,,,,,,,,,,,,,,,,,,,,,,,,,,,,,,,,,,,,,,,,,,,,,,,,,,,,,,,,,,,,,,,,,,,,,,,1.88,326.77952829998685,None,None,1,,328.761238600011,None,328.761238600011,None,328.761238600011,None,,,,,,,,,,,P001,fencog,1,Pre,2021_Jun_22_1110,Go No-Go Task,2021.1.4,120.74684329872431,
,"Rule: When you see a yellow image, do not press 'spacebar'.",Images/Fearful/AM06_FO.jpg,Fear,Blue,Images/Blue.jpg,space,ParentConditions/YellowBlueBlue_v1.xlsx,BlueBlueYellow,Conditions/Version_1/YellowHappyStop.xlsx,no,PASS,0.6030700196123316,,,,,,,,,0,0,0,0,0,0,0,0,0,13,13,13,,,,,,,,,,,,,,,,,,,,,,,,,,,,,,,,,,,,,,,,,,,,,,,,,,,,,,,,,,,,,,,,,,,,,,,,,,,,,,,1.47,329.1637675999664,None,space,1,0.2507405999931507,330.73567419999745,None,330.73567419999745,None,330.73567419999745,None,,,,,,,,,,,P001,fencog,1,Pre,2021_Jun_22_1110,Go No-Go Task,2021.1.4,120.74684329872431,
,"Rule: When you see a yellow image, do not press 'spacebar'.",Images/Happy/AM24HAS.jpg,Happy,Yellow,Images/Yellow.jpg,None,ParentConditions/YellowBlueBlue_v1.xlsx,BlueBlueYellow,Conditions/Version_1/YellowHappyStop.xlsx,yes,PASS,0.8401488188278822,,,,,,,,,0,0,0,0,0,0,0,0,0,14,14,14,,,,,,,,,,,,,,,,,,,,,,,,,,,,,,,,,,,,,,,,,,,,,,,,,,,,,,,,,,,,,,,,,,,,,,,,,,,,,,,1.85,331.1371715000132,None,None,1,,333.0932996000047,None,333.0932996000047,None,333.0932996000047,None,,,,,,,,,,,P001,fencog,1,Pre,2021_Jun_22_1110,Go No-Go Task,2021.1.4,120.74684329872431,
,"Rule: When you see a yellow image, do not press 'spacebar'.",Images/Fearful/AF21AFS.jpg,Fear,Blue,Images/Blue.jpg,space,ParentConditions/YellowBlueBlue_v1.xlsx,BlueBlueYellow,Conditions/Version_1/YellowHappyStop.xlsx,no,PASS,0.9561052396726243,,,,,,,,,0,0,0,0,0,0,0,0,0,15,15,15,,,,,,,,,,,,,,,,,,,,,,,,,,,,,,,,,,,,,,,,,,,,,,,,,,,,,,,,,,,,,,,,,,,,,,,,,,,,,,,1.63,333.4960035000113,None,space,1,0.2650928999646567,335.2259808999952,None,335.2259808999952,None,335.2259808999952,None,,,,,,,,,,,P001,fencog,1,Pre,2021_Jun_22_1110,Go No-Go Task,2021.1.4,120.74684329872431,
,"Rule: When you see a yellow image, do not press 'spacebar'.",Images/Happy/AM06_HC.jpg,Happy,Yellow,Images/Yellow.jpg,None,ParentConditions/YellowBlueBlue_v1.xlsx,BlueBlueYellow,Conditions/Version_1/YellowHappyStop.xlsx,yes,PASS,0.36325944609889094,,,,,,,,,0,0,0,0,0,0,0,0,0,16,16,16,,,,,,,,,,,,,,,,,,,,,,,,,,,,,,,,,,,,,,,,,,,,,,,,,,,,,,,,,,,,,,,,,,,,,,,,,,,,,,,1.77,335.626718399988,None,None,1,,337.5004576999927,None,337.5004576999927,None,337.5004576999927,None,,,,,,,,,,,P001,fencog,1,Pre,2021_Jun_22_1110,Go No-Go Task,2021.1.4,120.74684329872431,
,"Rule: When you see a yellow image, do not press 'spacebar'.",Images/Fearful/AF10_FC.jpg,Fear,Blue,Images/Blue.jpg,space,ParentConditions/YellowBlueBlue_v1.xlsx,BlueBlueYellow,Conditions/Version_1/YellowHappyStop.xlsx,no,PASS,0.09357566512353055,,,,,,,,,0,0,0,0,0,0,0,0,0,17,17,17,,,,,,,,,,,,,,,,,,,,,,,,,,,,,,,,,,,,,,,,,,,,,,,,,,,,,,,,,,,,,,,,,,,,,,,,,,,,,,,1.68,337.9012204000028,None,space,1,0.24869470001431182,339.6746884000022,None,339.6746884000022,None,339.6746884000022,None,,,,,,,,,,,P001,fencog,1,Pre,2021_Jun_22_1110,Go No-Go Task,2021.1.4,120.74684329872431,
,"Rule: When you see a yellow image, do not press 'spacebar'.",Images/Fearful/BM03_FC.jpg,Fear,Blue,Images/Blue.jpg,space,ParentConditions/YellowBlueBlue_v1.xlsx,BlueBlueYellow,Conditions/Version_1/YellowHappyStop.xlsx,no,PASS,0.789884489320339,,,,,,,,,0,0,0,0,0,0,0,0,0,18,18,18,,,,,,,,,,,,,,,,,,,,,,,,,,,,,,,,,,,,,,,,,,,,,,,,,,,,,,,,,,,,,,,,,,,,,,,,,,,,,,,1.56,340.0842084999895,None,space,1,0.3501920999842696,341.7407466999721,None,341.7407466999721,None,341.7407466999721,None,,,,,,,,,,,P001,fencog,1,Pre,2021_Jun_22_1110,Go No-Go Task,2021.1.4,120.74684329872431,
,"Rule: When you see a yellow image, do not press 'spacebar'.",Images/Fearful/HM09_FC.jpg,Fear,Blue,Images/Blue.jpg,space,ParentConditions/YellowBlueBlue_v1.xlsx,BlueBlueYellow,Conditions/Version_1/YellowHappyStop.xlsx,no,PASS,0.8198583361260475,,,,,,,,,0,0,0,0,0,0,0,0,0,19,19,19,,,,,,,,,,,,,,,,,,,,,,,,,,,,,,,,,,,,,,,,,,,,,,,,,,,,,,,,,,,,,,,,,,,,,,,,,,,,,,,1.74,342.14057029999094,None,space,1,0.26089120004326105,343.98174590000417,None,343.98174590000417,None,343.98174590000417,None,,,,,,,,,,,P001,fencog,1,Pre,2021_Jun_22_1110,Go No-Go Task,2021.1.4,120.74684329872431,
,"Rule: When you see a yellow image, do not press 'spacebar'.",Images/Fearful/AM04_FO.jpg,Fear,Blue,Images/Blue.jpg,space,ParentConditions/YellowBlueBlue_v1.xlsx,BlueBlueYellow,Conditions/Version_1/YellowHappyStop.xlsx,no,PASS,0.9595350245966109,,,,,,,,,0,0,0,0,0,0,0,0,0,20,20,20,,,,,,,,,,,,,,,,,,,,,,,,,,,,,,,,,,,,,,,,,,,,,,,,,,,,,,,,,,,,,,,,,,,,,,,,,,,,,,,1.24,344.39041449996876,None,space,1,0.27312590001383796,345.7312533999793,None,345.7312533999793,None,345.7312533999793,None,,,,,,,,,,,P001,fencog,1,Pre,2021_Jun_22_1110,Go No-Go Task,2021.1.4,120.74684329872431,
,"Rule: When you see a yellow image, do not press 'spacebar'.",Images/Fearful/AF11AFS.jpg,Fear,Blue,Images/Blue.jpg,space,ParentConditions/YellowBlueBlue_v1.xlsx,BlueBlueYellow,Conditions/Version_1/YellowHappyStop.xlsx,no,PASS,0.7276184017912607,,,,,,,,,0,0,0,0,0,0,0,0,0,21,21,21,,,,,,,,,,,,,,,,,,,,,,,,,,,,,,,,,,,,,,,,,,,,,,,,,,,,,,,,,,,,,,,,,,,,,,,,,,,,,,,1.34,346.1305512000108,None,space,1,0.2783392000128515,347.5724340999732,None,347.5724340999732,None,347.5724340999732,None,,,,,,,,,,,P001,fencog,1,Pre,2021_Jun_22_1110,Go No-Go Task,2021.1.4,120.74684329872431,
,"Rule: When you see a yellow image, do not press 'spacebar'.",Images/Fearful/AM10_FO.jpg,Fear,Blue,Images/Blue.jpg,space,ParentConditions/YellowBlueBlue_v1.xlsx,BlueBlueYellow,Conditions/Version_1/YellowHappyStop.xlsx,no,PASS,0.7995855816230459,,,,,,,,,0,0,0,0,0,0,0,0,0,22,22,22,,,,,,,,,,,,,,,,,,,,,,,,,,,,,,,,,,,,,,,,,,,,,,,,,,,,,,,,,,,,,,,,,,,,,,,,,,,,,,,1.53,347.97435520001454,None,space,1,0.2783310000086203,349.6051090999972,None,349.6051090999972,None,349.6051090999972,None,,,,,,,,,,,P001,fencog,1,Pre,2021_Jun_22_1110,Go No-Go Task,2021.1.4,120.74684329872431,
,"Rule: When you see a yellow image, do not press 'spacebar'.",Images/Fearful/WF04_FC.jpg,Fear,Blue,Images/Blue.jpg,space,ParentConditions/YellowBlueBlue_v1.xlsx,BlueBlueYellow,Conditions/Version_1/YellowHappyStop.xlsx,no,PASS,0.007163238332436372,,,,,,,,,0,0,0,0,0,0,0,0,0,23,23,23,,,,,,,,,,,,,,,,,,,,,,,,,,,,,,,,,,,,,,,,,,,,,,,,,,,,,,,,,,,,,,,,,,,,,,,,,,,,,,,1.4,350.0104430000065,None,space,1,0.27433949999976903,351.5128982999595,None,351.5128982999595,None,351.5128982999595,None,,,,,,,,,,,P001,fencog,1,Pre,2021_Jun_22_1110,Go No-Go Task,2021.1.4,120.74684329872431,
,"Rule: When you see a yellow image, do not press 'spacebar'.",Images/Fearful/AF28AFS.jpg,Fear,Blue,Images/Blue.jpg,space,ParentConditions/YellowBlueBlue_v1.xlsx,BlueBlueYellow,Conditions/Version_1/YellowHappyStop.xlsx,no,PASS,0.6578574406316495,,,,,,,,,0,0,0,0,0,0,0,0,0,24,24,24,,,,,,,,,,,,,,,,,,,,,,,,,,,,,,,,,,,,,,,,,,,,,,,,,,,,,,,,,,,,,,,,,,,,,,,,,,,,,,,1.91,351.9129273999715,None,space,1,0.32185509998816997,353.9288884999696,None,353.9288884999696,None,353.9288884999696,None,,,,,,,,,,,P001,fencog,1,Pre,2021_Jun_22_1110,Go No-Go Task,2021.1.4,120.74684329872431,
,"Rule: When you see a yellow image, do not press 'spacebar'.",Images/Fearful/WF11_FC.jpg,Fear,Blue,Images/Blue.jpg,space,ParentConditions/YellowBlueBlue_v1.xlsx,BlueBlueYellow,Conditions/Version_1/YellowHappyStop.xlsx,no,PASS,0.16001068916200367,,,,,,,,,0,0,0,0,0,0,0,0,0,25,25,25,,,,,,,,,,,,,,,,,,,,,,,,,,,,,,,,,,,,,,,,,,,,,,,,,,,,,,,,,,,,,,,,,,,,,,,,,,,,,,,1.65,354.3297060999903,None,space,1,0.2764487999957055,356.08656969998265,None,356.08656969998265,None,356.08656969998265,None,,,,,,,,,,,P001,fencog,1,Pre,2021_Jun_22_1110,Go No-Go Task,2021.1.4,120.74684329872431,
,"Rule: When you see a yellow image, do not press 'spacebar'.",Images/Fearful/AM17AFS.jpg,Fear,Blue,Images/Blue.jpg,space,ParentConditions/YellowBlueBlue_v1.xlsx,BlueBlueYellow,Conditions/Version_1/YellowHappyStop.xlsx,no,PASS,0.11773651559349041,,,,,,,,,0,0,0,0,0,0,0,0,0,26,26,26,,,,,,,,,,,,,,,,,,,,,,,,,,,,,,,,,,,,,,,,,,,,,,,,,,,,,,,,,,,,,,,,,,,,,,,,,,,,,,,1.43,356.49101709999377,None,space,1,0.26309270004276186,358.0276285999571,None,358.0276285999571,None,358.0276285999571,None,,,,,,,,,,,P001,fencog,1,Pre,2021_Jun_22_1110,Go No-Go Task,2021.1.4,120.74684329872431,
,"Rule: When you see a yellow image, do not press 'spacebar'.",Images/Happy/AF27HAS.jpg,Happy,Yellow,Images/Yellow.jpg,None,ParentConditions/YellowBlueBlue_v1.xlsx,BlueBlueYellow,Conditions/Version_1/YellowHappyStop.xlsx,yes,PASS,0.3141869564869746,,,,,,,,,0,0,0,0,0,0,0,0,0,27,27,27,,,,,,,,,,,,,,,,,,,,,,,,,,,,,,,,,,,,,,,,,,,,,,,,,,,,,,,,,,,,,,,,,,,,,,,,,,,,,,,1.78,358.4263532999903,None,space,0,0.2204442999791354,360.31028049997985,None,360.31028049997985,None,360.31028049997985,None,,,,,,,,,,,P001,fencog,1,Pre,2021_Jun_22_1110,Go No-Go Task,2021.1.4,120.74684329872431,
,"Rule: When you see a yellow image, do not press 'spacebar'.",Images/Fearful/BF10_FO.jpg,Fear,Blue,Images/Blue.jpg,space,ParentConditions/YellowBlueBlue_v1.xlsx,BlueBlueYellow,Conditions/Version_1/YellowHappyStop.xlsx,no,PASS,0.6473836402289548,,,,,,,,,0,0,0,0,0,0,0,0,0,28,28,28,,,,,,,,,,,,,,,,,,,,,,,,,,,,,,,,,,,,,,,,,,,,,,,,,,,,,,,,,,,,,,,,,,,,,,,,,,,,,,,1.87,360.7219380000024,None,None,0,,362.6928801999893,None,362.6928801999893,None,362.6928801999893,None,,,,,,,,,,,P001,fencog,1,Pre,2021_Jun_22_1110,Go No-Go Task,2021.1.4,120.74684329872431,
,"Rule: When you see a yellow image, do not press 'spacebar'.",Images/Fearful/HF04_FO.jpg,Fear,Blue,Images/Blue.jpg,space,ParentConditions/YellowBlueBlue_v1.xlsx,BlueBlueYellow,Conditions/Version_1/YellowHappyStop.xlsx,no,PASS,0.6573655365841123,,,,,,,,,0,0,0,0,0,0,0,0,0,29,29,29,,,,,,,,,,,,,,,,,,,,,,,,,,,,,,,,,,,,,,,,,,,,,,,,,,,,,,,,,,,,,,,,,,,,,,,,,,,,,,,1.96,363.0986470999778,None,space,1,0.2919003000133671,365.15892640000675,None,365.15892640000675,None,365.15892640000675,None,,,,,,,,,,,P001,fencog,1,Pre,2021_Jun_22_1110,Go No-Go Task,2021.1.4,120.74684329872431,
,"Rule: When you see a yellow image, do not press 'spacebar'.",Images/Happy/AF26HAS.jpg,Happy,Yellow,Images/Yellow.jpg,None,ParentConditions/YellowBlueBlue_v1.xlsx,BlueBlueYellow,Conditions/Version_1/YellowHappyStop.xlsx,yes,PASS,0.9634288273569958,,,,,,,,,0,0,0,0,0,0,0,0,0,30,30,30,,,,,,,,,,,,,,,,,,,,,,,,,,,,,,,,,,,,,,,,,,,,,,,,,,,,,,,,,,,,,,,,,,,,,,,,,,,,,,,1.31,365.55918919999385,None,None,1,,366.9750672999653,None,366.9750672999653,None,366.9750672999653,None,,,,,,,,,,,P001,fencog,1,Pre,2021_Jun_22_1110,Go No-Go Task,2021.1.4,120.74684329872431,
,"Rule: When you see a yellow image, do not press 'spacebar'.",Images/Happy/HF09_HE.jpg,Happy,Yellow,Images/Yellow.jpg,None,ParentConditions/YellowBlueBlue_v1.xlsx,BlueBlueYellow,Conditions/Version_1/YellowHappyStop.xlsx,yes,PASS,0.28002812366142005,,,,,,,,,0,0,0,0,0,0,0,0,0,31,31,31,,,,,,,,,,,,,,,,,,,,,,,,,,,,,,,,,,,,,,,,,,,,,,,,,,,,,,,,,,,,,,,,,,,,,,,,,,,,,,,1.89,367.3771801000112,None,None,1,,369.36596849997295,None,369.36596849997295,None,369.36596849997295,None,,,,,,,,,,,P001,fencog,1,Pre,2021_Jun_22_1110,Go No-Go Task,2021.1.4,120.74684329872431,
,"Rule: When you see a yellow image, do not press 'spacebar'.",Images/Fearful/AM16AFS.jpg,Fear,Blue,Images/Blue.jpg,space,ParentConditions/YellowBlueBlue_v1.xlsx,BlueBlueYellow,Conditions/Version_1/YellowHappyStop.xlsx,no,PASS,0.5681414931312986,,,,,,,,,0,0,0,0,0,0,0,0,0,32,32,32,,,,,,,,,,,,,,,,,,,,,,,,,,,,,,,,,,,,,,,,,,,,,,,,,,,,,,,,,,,,,,,,,,,,,,,,,,,,,,,1.55,369.7711045999895,None,space,1,0.29945869999937713,371.41533869999694,None,371.41533869999694,None,371.41533869999694,None,,,,,,,,,,,P001,fencog,1,Pre,2021_Jun_22_1110,Go No-Go Task,2021.1.4,120.74684329872431,
,"Rule: When you see a yellow image, do not press 'spacebar'.",Images/Fearful/WF05_FO.jpg,Fear,Blue,Images/Blue.jpg,space,ParentConditions/YellowBlueBlue_v1.xlsx,BlueBlueYellow,Conditions/Version_1/YellowHappyStop.xlsx,no,PASS,0.23759173368539344,,,,,,,,,0,0,0,0,0,0,0,0,0,33,33,33,,,,,,,,,,,,,,,,,,,,,,,,,,,,,,,,,,,,,,,,,,,,,,,,,,,,,,,,,,,,,,,,,,,,,,,,,,,,,,,1.42,371.8155792999896,None,space,1,0.3030305000138469,373.33979549998185,None,373.33979549998185,None,373.33979549998185,None,,,,,,,,,,,P001,fencog,1,Pre,2021_Jun_22_1110,Go No-Go Task,2021.1.4,120.74684329872431,
,"Rule: When you see a yellow image, do not press 'spacebar'.",Images/Fearful/AM03_FC.jpg,Fear,Blue,Images/Blue.jpg,space,ParentConditions/YellowBlueBlue_v1.xlsx,BlueBlueYellow,Conditions/Version_1/YellowHappyStop.xlsx,no,PASS,0.45277772012976447,,,,,,,,,0,0,0,0,0,0,0,0,0,34,34,34,,,,,,,,,,,,,,,,,,,,,,,,,,,,,,,,,,,,,,,,,,,,,,,,,,,,,,,,,,,,,,,,,,,,,,,,,,,,,,,1.81,373.74192870000843,None,space,1,0.35562230000505224,375.655741799972,None,375.655741799972,None,375.655741799972,None,,,,,,,,,,,P001,fencog,1,Pre,2021_Jun_22_1110,Go No-Go Task,2021.1.4,120.74684329872431,
,"Rule: When you see a yellow image, do not press 'spacebar'.",Images/Fearful/AM01AFS.jpg,Fear,Blue,Images/Blue.jpg,space,ParentConditions/YellowBlueBlue_v1.xlsx,BlueBlueYellow,Conditions/Version_1/YellowHappyStop.xlsx,no,PASS,0.4826830931616207,,,,,,,,,0,0,0,0,0,0,0,0,0,35,35,35,,,,,,,,,,,,,,,,,,,,,,,,,,,,,,,,,,,,,,,,,,,,,,,,,,,,,,,,,,,,,,,,,,,,,,,,,,,,,,,1.61,376.0613033999689,None,space,1,0.302856000023894,377.77173049998237,None,377.77173049998237,None,377.77173049998237,None,,,,,,,,,,,P001,fencog,1,Pre,2021_Jun_22_1110,Go No-Go Task,2021.1.4,120.74684329872431,
,"Rule: When you see a yellow image, do not press 'spacebar'.",Images/Fearful/HM04_FC.jpg,Fear,Blue,Images/Blue.jpg,space,ParentConditions/YellowBlueBlue_v1.xlsx,BlueBlueYellow,Conditions/Version_1/YellowHappyStop.xlsx,no,PASS,0.46069029171054665,,,,,,,,,0,0,0,0,0,0,0,0,0,36,36,36,,,,,,,,,,,,,,,,,,,,,,,,,,,,,,,,,,,,,,,,,,,,,,,,,,,,,,,,,,,,,,,,,,,,,,,,,,,,,,,1.79,378.17258349998156,None,space,1,0.2605199000099674,380.06274669995764,None,380.06274669995764,None,380.06274669995764,None,,,,,,,,,,,P001,fencog,1,Pre,2021_Jun_22_1110,Go No-Go Task,2021.1.4,120.74684329872431,
,"Rule: When you see a yellow image, do not press 'spacebar'.",Images/Fearful/BF18_FC.jpg,Fear,Blue,Images/Blue.jpg,space,ParentConditions/YellowBlueBlue_v1.xlsx,BlueBlueYellow,Conditions/Version_1/YellowHappyStop.xlsx,no,PASS,0.633030328468129,,,,,,,,,0,0,0,0,0,0,0,0,0,37,37,37,,,,,,,,,,,,,,,,,,,,,,,,,,,,,,,,,,,,,,,,,,,,,,,,,,,,,,,,,,,,,,,,,,,,,,,,,,,,,,,1.48,380.4711140000145,None,space,1,0.3011402999982238,382.0538127999753,None,382.0538127999753,None,382.0538127999753,None,,,,,,,,,,,P001,fencog,1,Pre,2021_Jun_22_1110,Go No-Go Task,2021.1.4,120.74684329872431,
,"Rule: When you see a yellow image, do not press 'spacebar'.",Images/Fearful/AF07_FO.jpg,Fear,Blue,Images/Blue.jpg,space,ParentConditions/YellowBlueBlue_v1.xlsx,BlueBlueYellow,Conditions/Version_1/YellowHappyStop.xlsx,no,PASS,0.34147832357579266,,,,,,,,,0,0,0,0,0,0,0,0,0,38,38,38,,,,,,,,,,,,,,,,,,,,,,,,,,,,,,,,,,,,,,,,,,,,,,,,,,,,,,,,,,,,,,,,,,,,,,,,,,,,,,,1.67,382.4542480999953,None,space,1,0.27022770000621676,384.2365128999809,None,384.2365128999809,None,384.2365128999809,None,,,,,,,,,,,P001,fencog,1,Pre,2021_Jun_22_1110,Go No-Go Task,2021.1.4,120.74684329872431,
,"Rule: When you see a yellow image, do not press 'spacebar'.",Images/Fearful/AM24AFS.jpg,Fear,Blue,Images/Blue.jpg,space,ParentConditions/YellowBlueBlue_v1.xlsx,BlueBlueYellow,Conditions/Version_1/YellowHappyStop.xlsx,no,PASS,0.778148808430259,,,,,,,,,0,0,0,0,0,0,0,0,0,39,39,39,,,,,,,,,,,,,,,,,,,,,,,,,,,,,,,,,,,,,,,,,,,,,,,,,,,,,,,,,,,,,,,,,,,,,,,,,,,,,,,1.93,384.63006549997954,None,space,1,0.31773229996906593,386.6608024999732,None,386.6608024999732,None,386.6608024999732,None,,,,,,,,,,,P001,fencog,1,Pre,2021_Jun_22_1110,Go No-Go Task,2021.1.4,120.74684329872431,
,"Rule: When you see a yellow image, do not press 'spacebar'.",Images/Fearful/AM03AFS.jpg,Fear,Blue,Images/Blue.jpg,space,ParentConditions/YellowBlueBlue_v1.xlsx,BlueBlueYellow,Conditions/Version_1/YellowHappyStop.xlsx,no,PASS,0.23044092834848573,,,,,,,,,0,0,0,0,0,0,0,0,0,40,40,40,,,,,,,,,,,,,,,,,,,,,,,,,,,,,,,,,,,,,,,,,,,,,,,,,,,,,,,,,,,,,,,,,,,,,,,,,,,,,,,1.44,387.0627611000091,None,space,1,0.2723742999951355,388.61029589996906,None,388.61029589996906,None,388.61029589996906,None,,,,,,,,,,,P001,fencog,1,Pre,2021_Jun_22_1110,Go No-Go Task,2021.1.4,120.74684329872431,
,"Rule: When you see a yellow image, do not press 'spacebar'.",Images/Fearful/BM08_FC.jpg,Fear,Blue,Images/Blue.jpg,space,ParentConditions/YellowBlueBlue_v1.xlsx,BlueBlueYellow,Conditions/Version_1/YellowHappyStop.xlsx,no,PASS,0.6548756521259214,,,,,,,,,0,0,0,0,0,0,0,0,0,41,41,41,,,,,,,,,,,,,,,,,,,,,,,,,,,,,,,,,,,,,,,,,,,,,,,,,,,,,,,,,,,,,,,,,,,,,,,,,,,,,,,1.76,389.0211282999953,None,space,1,0.2140959000098519,390.8845491000102,None,390.8845491000102,None,390.8845491000102,None,,,,,,,,,,,P001,fencog,1,Pre,2021_Jun_22_1110,Go No-Go Task,2021.1.4,120.74684329872431,
,"Rule: When you see a yellow image, do not press 'spacebar'.",Images/Fearful/AF32AFS.jpg,Fear,Blue,Images/Blue.jpg,space,ParentConditions/YellowBlueBlue_v1.xlsx,BlueBlueYellow,Conditions/Version_1/YellowHappyStop.xlsx,no,PASS,0.9401650545876452,,,,,,,,,0,0,0,0,0,0,0,0,0,42,42,42,,,,,,,,,,,,,,,,,,,,,,,,,,,,,,,,,,,,,,,,,,,,,,,,,,,,,,,,,,,,,,,,,,,,,,,,,,,,,,,1.32,391.2838464999804,None,space,1,0.2777409999980591,392.7090779999853,None,392.7090779999853,None,392.7090779999853,None,,,,,,,,,,,P001,fencog,1,Pre,2021_Jun_22_1110,Go No-Go Task,2021.1.4,120.74684329872431,
,"Rule: When you see a yellow image, do not press 'spacebar'.",Images/Fearful/AF26AFS.jpg,Fear,Blue,Images/Blue.jpg,space,ParentConditions/YellowBlueBlue_v1.xlsx,BlueBlueYellow,Conditions/Version_1/YellowHappyStop.xlsx,no,PASS,0.5799257276734284,,,,,,,,,0,0,0,0,0,0,0,0,0,43,43,43,,,,,,,,,,,,,,,,,,,,,,,,,,,,,,,,,,,,,,,,,,,,,,,,,,,,,,,,,,,,,,,,,,,,,,,,,,,,,,,1.98,393.1135871000006,None,space,1,0.32247000001370907,395.19998109998414,None,395.19998109998414,None,395.19998109998414,None,,,,,,,,,,,P001,fencog,1,Pre,2021_Jun_22_1110,Go No-Go Task,2021.1.4,120.74684329872431,
,"Rule: When you see a yellow image, do not press 'spacebar'.",Images/Fearful/BF09_FC.jpg,Fear,Blue,Images/Blue.jpg,space,ParentConditions/YellowBlueBlue_v1.xlsx,BlueBlueYellow,Conditions/Version_1/YellowHappyStop.xlsx,no,PASS,0.9512288628250045,,,,,,,,,0,0,0,0,0,0,0,0,0,44,44,44,,,,,,,,,,,,,,,,,,,,,,,,,,,,,,,,,,,,,,,,,,,,,,,,,,,,,,,,,,,,,,,,,,,,,,,,,,,,,,,1.73,395.6010793999885,None,space,1,0.3064989999984391,397.4242875999771,None,397.4242875999771,None,397.4242875999771,None,,,,,,,,,,,P001,fencog,1,Pre,2021_Jun_22_1110,Go No-Go Task,2021.1.4,120.74684329872431,
,"Rule: When you see a yellow image, do not press 'spacebar'.",Images/Fearful/BM01_FO.jpg,Fear,Blue,Images/Blue.jpg,space,ParentConditions/YellowBlueBlue_v1.xlsx,BlueBlueYellow,Conditions/Version_1/YellowHappyStop.xlsx,no,PASS,0.8954287307362916,,,,,,,,,0,0,0,0,0,0,0,0,0,45,45,45,,,,,,,,,,,,,,,,,,,,,,,,,,,,,,,,,,,,,,,,,,,,,,,,,,,,,,,,,,,,,,,,,,,,,,,,,,,,,,,1.2,397.8242178999935,None,space,1,0.29538419999880716,399.132143899973,None,399.132143899973,None,399.132143899973,None,,,,,,,,,,,P001,fencog,1,Pre,2021_Jun_22_1110,Go No-Go Task,2021.1.4,120.74684329872431,
,"Rule: When you see a yellow image, do not press 'spacebar'.",Images/Happy/BF14_HO.jpg,Happy,Yellow,Images/Yellow.jpg,None,ParentConditions/YellowBlueBlue_v1.xlsx,BlueBlueYellow,Conditions/Version_1/YellowHappyStop.xlsx,yes,PASS,0.7234280216409134,,,,,,,,,0,0,0,0,0,0,0,0,0,46,46,46,,,,,,,,,,,,,,,,,,,,,,,,,,,,,,,,,,,,,,,,,,,,,,,,,,,,,,,,,,,,,,,,,,,,,,,,,,,,,,,1.84,399.5344742999878,None,space,0,0.217938200046774,401.48139229998924,None,401.48139229998924,None,401.48139229998924,None,,,,,,,,,,,P001,fencog,1,Pre,2021_Jun_22_1110,Go No-Go Task,2021.1.4,120.74684329872431,
,"Rule: When you see a yellow image, do not press 'spacebar'.",Images/Fearful/WM11_FC.jpg,Fear,Blue,Images/Blue.jpg,space,ParentConditions/YellowBlueBlue_v1.xlsx,BlueBlueYellow,Conditions/Version_1/YellowHappyStop.xlsx,no,PASS,0.023552814974996727,,,,,,,,,0,0,0,0,0,0,0,0,0,47,47,47,,,,,,,,,,,,,,,,,,,,,,,,,,,,,,,,,,,,,,,,,,,,,,,,,,,,,,,,,,,,,,,,,,,,,,,,,,,,,,,1.26,401.8820248999982,None,space,1,0.25187509995885193,403.24755899998127,None,403.24755899998127,None,403.24755899998127,None,,,,,,,,,,,P001,fencog,1,Pre,2021_Jun_22_1110,Go No-Go Task,2021.1.4,120.74684329872431,
,"Rule: When you see a yellow image, do not press 'spacebar'.",Images/Fearful/AM02_FO.jpg,Fear,Blue,Images/Blue.jpg,space,ParentConditions/YellowBlueBlue_v1.xlsx,BlueBlueYellow,Conditions/Version_1/YellowHappyStop.xlsx,no,PASS,0.4906088235260202,,,,,,,,,0,0,0,0,0,0,0,0,0,48,48,48,,,,,,,,,,,,,,,,,,,,,,,,,,,,,,,,,,,,,,,,,,,,,,,,,,,,,,,,,,,,,,,,,,,,,,,,,,,,,,,1.64,403.6494764999952,None,space,1,0.26202189998002723,405.3886663999874,None,405.3886663999874,None,405.3886663999874,None,,,,,,,,,,,P001,fencog,1,Pre,2021_Jun_22_1110,Go No-Go Task,2021.1.4,120.74684329872431,
,"Rule: When you see a yellow image, do not press 'spacebar'.",Images/Happy/HM09_HO.jpg,Happy,Yellow,Images/Yellow.jpg,None,ParentConditions/YellowBlueBlue_v1.xlsx,BlueBlueYellow,Conditions/Version_1/YellowHappyStop.xlsx,yes,PASS,0.5172626673634482,,,,,,,,,0,0,0,0,0,0,0,0,0,49,49,49,,,,,,,,,,,,,,,,,,,,,,,,,,,,,,,,,,,,,,,,,,,,,,,,,,,,,,,,,,,,,,,,,,,,,,,,,,,,,,,1.37,405.7877709000022,None,None,1,,407.2630141999689,None,407.2630141999689,None,407.2630141999689,None,,,,,,,,,,,P001,fencog,1,Pre,2021_Jun_22_1110,Go No-Go Task,2021.1.4,120.74684329872431,
,"Rule: When you see a yellow image, do not press 'spacebar'.",Images/Happy/HF10_HE.jpg,Happy,Yellow,Images/Yellow.jpg,None,ParentConditions/YellowBlueBlue_v1.xlsx,BlueBlueYellow,Conditions/Version_1/YellowHappyStop.xlsx,yes,PASS,0.44150167084278924,,,,,,,,,0,0,0,0,0,0,0,0,0,50,50,50,,,,,,,,,,,,,,,,,,,,,,,,,,,,,,,,,,,,,,,,,,,,,,,,,,,,,,,,,,,,,,,,,,,,,,,,,,,,,,,1.28,407.6706536000129,None,space,0,0.23635219997959211,409.05414640001254,None,409.05414640001254,None,409.05414640001254,None,,,,,,,,,,,P001,fencog,1,Pre,2021_Jun_22_1110,Go No-Go Task,2021.1.4,120.74684329872431,
,"Rule: When you see a yellow image, do not press 'spacebar'.",Images/Fearful/AF09AFS.jpg,Fear,Blue,Images/Blue.jpg,space,ParentConditions/YellowBlueBlue_v1.xlsx,BlueBlueYellow,Conditions/Version_1/YellowHappyStop.xlsx,no,PASS,0.20329731425220043,,,,,,,,,0,0,0,0,0,0,0,0,0,51,51,51,,,,,,,,,,,,,,,,,,,,,,,,,,,,,,,,,,,,,,,,,,,,,,,,,,,,,,,,,,,,,,,,,,,,,,,,,,,,,,,1.57,409.4545750999823,None,space,1,0.265761700051371,411.1285374999861,None,411.1285374999861,None,411.1285374999861,None,,,,,,,,,,,P001,fencog,1,Pre,2021_Jun_22_1110,Go No-Go Task,2021.1.4,120.74684329872431,
,"Rule: When you see a yellow image, do not press 'spacebar'.",Images/Fearful/AM23AFS.jpg,Fear,Blue,Images/Blue.jpg,space,ParentConditions/YellowBlueBlue_v1.xlsx,BlueBlueYellow,Conditions/Version_1/YellowHappyStop.xlsx,no,PASS,0.9134790301426777,,,,,,,,,0,0,0,0,0,0,0,0,0,52,52,52,,,,,,,,,,,,,,,,,,,,,,,,,,,,,,,,,,,,,,,,,,,,,,,,,,,,,,,,,,,,,,,,,,,,,,,,,,,,,,,1.36,411.5310740999994,None,space,1,0.2961450999719091,412.9947072999785,None,412.9947072999785,None,412.9947072999785,None,,,,,,,,,,,P001,fencog,1,Pre,2021_Jun_22_1110,Go No-Go Task,2021.1.4,120.74684329872431,
,"Rule: When you see a yellow image, do not press 'spacebar'.",Images/Fearful/AM05AFS.jpg,Fear,Blue,Images/Blue.jpg,space,ParentConditions/YellowBlueBlue_v1.xlsx,BlueBlueYellow,Conditions/Version_1/YellowHappyStop.xlsx,no,PASS,0.7369542946293995,,,,,,,,,0,0,0,0,0,0,0,0,0,53,53,53,,,,,,,,,,,,,,,,,,,,,,,,,,,,,,,,,,,,,,,,,,,,,,,,,,,,,,,,,,,,,,,,,,,,,,,,,,,,,,,1.38,413.3956623999984,None,space,1,0.24491509998915717,414.87757680000504,None,414.87757680000504,None,414.87757680000504,None,,,,,,,,,,,P001,fencog,1,Pre,2021_Jun_22_1110,Go No-Go Task,2021.1.4,120.74684329872431,
,"Rule: When you see a yellow image, do not press 'spacebar'.",Images/Happy/AF28HAS.jpg,Happy,Yellow,Images/Yellow.jpg,None,ParentConditions/YellowBlueBlue_v1.xlsx,BlueBlueYellow,Conditions/Version_1/YellowHappyStop.xlsx,yes,PASS,0.27168303726444554,,,,,,,,,0,0,0,0,0,0,0,0,0,54,54,54,,,,,,,,,,,,,,,,,,,,,,,,,,,,,,,,,,,,,,,,,,,,,,,,,,,,,,,,,,,,,,,,,,,,,,,,,,,,,,,1.83,415.2764511000132,None,space,0,0.28054920001886785,417.210100199969,None,417.210100199969,None,417.210100199969,None,,,,,,,,,,,P001,fencog,1,Pre,2021_Jun_22_1110,Go No-Go Task,2021.1.4,120.74684329872431,
,"Rule: When you see a yellow image, do not press 'spacebar'.",Images/Fearful/BF14_FO.jpg,Fear,Blue,Images/Blue.jpg,space,ParentConditions/YellowBlueBlue_v1.xlsx,BlueBlueYellow,Conditions/Version_1/YellowHappyStop.xlsx,no,PASS,0.6433421649003036,,,,,,,,,0,0,0,0,0,0,0,0,0,55,55,55,,,,,,,,,,,,,,,,,,,,,,,,,,,,,,,,,,,,,,,,,,,,,,,,,,,,,,,,,,,,,,,,,,,,,,,,,,,,,,,1.58,417.61089849995915,None,space,1,0.3179536000243388,419.29280689998996,None,419.29280689998996,None,419.29280689998996,None,,,,,,,,,,,P001,fencog,1,Pre,2021_Jun_22_1110,Go No-Go Task,2021.1.4,120.74684329872431,
,"Rule: When you see a yellow image, do not press 'spacebar'.",Images/Happy/AM30HAS.jpg,Happy,Yellow,Images/Yellow.jpg,None,ParentConditions/YellowBlueBlue_v1.xlsx,BlueBlueYellow,Conditions/Version_1/YellowHappyStop.xlsx,yes,PASS,0.0794505415747715,,,,,,,,,0,0,0,0,0,0,0,0,0,56,56,56,,,,,,,,,,,,,,,,,,,,,,,,,,,,,,,,,,,,,,,,,,,,,,,,,,,,,,,,,,,,,,,,,,,,,,,,,,,,,,,1.27,419.6992329999921,None,None,1,,421.08403809997253,None,421.08403809997253,None,421.08403809997253,None,,,,,,,,,,,P001,fencog,1,Pre,2021_Jun_22_1110,Go No-Go Task,2021.1.4,120.74684329872431,
,"Rule: When you see a yellow image, do not press 'spacebar'.",Images/Fearful/AF27AFS.jpg,Fear,Blue,Images/Blue.jpg,space,ParentConditions/YellowBlueBlue_v1.xlsx,BlueBlueYellow,Conditions/Version_1/YellowHappyStop.xlsx,no,PASS,0.3935834771022866,,,,,,,,,0,0,0,0,0,0,0,0,0,57,57,57,,,,,,,,,,,,,,,,,,,,,,,,,,,,,,,,,,,,,,,,,,,,,,,,,,,,,,,,,,,,,,,,,,,,,,,,,,,,,,,1.33,421.48305049998453,None,space,1,0.373901599959936,422.91680179996183,None,422.91680179996183,None,422.91680179996183,None,,,,,,,,,,,P001,fencog,1,Pre,2021_Jun_22_1110,Go No-Go Task,2021.1.4,120.74684329872431,
,"Rule: When you see a yellow image, do not press 'spacebar'.",Images/Fearful/AM32AFS.jpg,Fear,Blue,Images/Blue.jpg,space,ParentConditions/YellowBlueBlue_v1.xlsx,BlueBlueYellow,Conditions/Version_1/YellowHappyStop.xlsx,no,PASS,0.5614458224122035,,,,,,,,,0,0,0,0,0,0,0,0,0,58,58,58,,,,,,,,,,,,,,,,,,,,,,,,,,,,,,,,,,,,,,,,,,,,,,,,,,,,,,,,,,,,,,,,,,,,,,,,,,,,,,,1.29,423.31600659998367,None,space,1,0.3199135000468232,424.70787199999904,None,424.70787199999904,None,424.70787199999904,None,,,,,,,,,,,P001,fencog,1,Pre,2021_Jun_22_1110,Go No-Go Task,2021.1.4,120.74684329872431,
,"Rule: When you see a yellow image, do not press 'spacebar'.",Images/Fearful/AM09_FO.jpg,Fear,Blue,Images/Blue.jpg,space,ParentConditions/YellowBlueBlue_v1.xlsx,BlueBlueYellow,Conditions/Version_1/YellowHappyStop.xlsx,no,PASS,0.3933837419145386,,,,,,,,,0,0,0,0,0,0,0,0,0,59,59,59,,,,,,,,,,,,,,,,,,,,,,,,,,,,,,,,,,,,,,,,,,,,,,,,,,,,,,,,,,,,,,,,,,,,,,,,,,,,,,,1.51,425.1068618000136,None,space,1,0.3827189999865368,426.72399009997025,None,426.72399009997025,None,426.72399009997025,None,,,,,,,,,,,P001,fencog,1,Pre,2021_Jun_22_1110,Go No-Go Task,2021.1.4,120.74684329872431,
,"Rule: When you see a yellow image, do not press 'spacebar'.",Images/Fearful/AF01_FO.jpg,Fear,Blue,Images/Blue.jpg,space,ParentConditions/YellowBlueBlue_v1.xlsx,BlueBlueYellow,Conditions/Version_1/YellowHappyStop.xlsx,no,PASS,0.7419870009427991,,,,,,,,,0,0,0,0,0,0,0,0,0,60,60,60,,,,,,,,,,,,,,,,,,,,,,,,,,,,,,,,,,,,,,,,,,,,,,,,,,,,,,,,,,,,,,,,,,,,,,,,,,,,,,,1.95,427.12944190000417,None,space,1,0.3005400000256486,429.1815502999816,None,429.1815502999816,None,429.1815502999816,None,,,,,,,,,,,P001,fencog,1,Pre,2021_Jun_22_1110,Go No-Go Task,2021.1.4,120.74684329872431,
,"Rule: When you see a yellow image, do not press 'spacebar'.",Images/Happy/AM10_HO.jpg,Happy,Yellow,Images/Yellow.jpg,None,ParentConditions/YellowBlueBlue_v1.xlsx,BlueBlueYellow,Conditions/Version_1/YellowHappyStop.xlsx,yes,PASS,0.7352402085502512,,,,,,,,,0,0,0,0,0,0,0,0,0,61,61,61,,,,,,,,,,,,,,,,,,,,,,,,,,,,,,,,,,,,,,,,,,,,,,,,,,,,,,,,,,,,,,,,,,,,,,,,,,,,,,,1.94,429.5830868000048,None,None,1,,431.6309263999574,None,431.6309263999574,None,431.6309263999574,None,,,,,,,,,,,P001,fencog,1,Pre,2021_Jun_22_1110,Go No-Go Task,2021.1.4,120.74684329872431,
,"Rule: When you see a yellow image, do not press 'spacebar'.",Images/Happy/AM22HAS.jpg,Happy,Yellow,Images/Yellow.jpg,None,ParentConditions/YellowBlueBlue_v1.xlsx,BlueBlueYellow,Conditions/Version_1/YellowHappyStop.xlsx,yes,PASS,0.27838589915801637,,,,,,,,,0,0,0,0,0,0,0,0,0,62,62,62,,,,,,,,,,,,,,,,,,,,,,,,,,,,,,,,,,,,,,,,,,,,,,,,,,,,,,,,,,,,,,,,,,,,,,,,,,,,,,,1.62,432.0367925000028,None,None,1,,433.7635579999769,None,433.7635579999769,None,433.7635579999769,None,,,,,,,,,,,P001,fencog,1,Pre,2021_Jun_22_1110,Go No-Go Task,2021.1.4,120.74684329872431,
,"Rule: When you see a yellow image, do not press 'spacebar'.",Images/Fearful/AM22AFS.jpg,Fear,Blue,Images/Blue.jpg,space,ParentConditions/YellowBlueBlue_v1.xlsx,BlueBlueYellow,Conditions/Version_1/YellowHappyStop.xlsx,no,PASS,0.012398818855924532,,,,,,,,,0,0,0,0,0,0,0,0,0,63,63,63,,,,,,,,,,,,,,,,,,,,,,,,,,,,,,,,,,,,,,,,,,,,,,,,,,,,,,,,,,,,,,,,,,,,,,,,,,,,,,,1.8,434.16344869998284,None,space,1,0.25967539998237044,436.07115759997396,None,436.07115759997396,None,436.07115759997396,None,,,,,,,,,,,P001,fencog,1,Pre,2021_Jun_22_1110,Go No-Go Task,2021.1.4,120.74684329872431,
,"Rule: When you see a yellow image, do not press 'spacebar'.",Images/Happy/BM08_HO.jpg,Happy,Yellow,Images/Yellow.jpg,None,ParentConditions/YellowBlueBlue_v1.xlsx,BlueBlueYellow,Conditions/Version_1/YellowHappyStop.xlsx,yes,PASS,0.25791881247444226,,,,,,,,,0,0,0,0,0,0,0,0,0,64,64,64,,,,,,,,,,,,,,,,,,,,,,,,,,,,,,,,,,,,,,,,,,,,,,,,,,,,,,,,,,,,,,,,,,,,,,,,,,,,,,,1.5,436.4717755999882,None,None,1,,438.0790261999937,None,438.0790261999937,None,438.0790261999937,None,,,,,,,,,,,P001,fencog,1,Pre,2021_Jun_22_1110,Go No-Go Task,2021.1.4,120.74684329872431,
,"Rule: When you see a yellow image, do not press 'spacebar'.",Images/Fearful/AM19AFS.jpg,Fear,Blue,Images/Blue.jpg,space,ParentConditions/YellowBlueBlue_v1.xlsx,BlueBlueYellow,Conditions/Version_1/YellowHappyStop.xlsx,no,PASS,0.4570092371665587,,,,,,,,,0,0,0,0,0,0,0,0,0,65,65,65,,,,,,,,,,,,,,,,,,,,,,,,,,,,,,,,,,,,,,,,,,,,,,,,,,,,,,,,,,,,,,,,,,,,,,,,,,,,,,,1.25,438.48126139998203,None,space,1,0.24647579999873415,439.8367552999989,None,439.8367552999989,None,439.8367552999989,None,,,,,,,,,,,P001,fencog,1,Pre,2021_Jun_22_1110,Go No-Go Task,2021.1.4,120.74684329872431,
,"Rule: When you see a yellow image, do not press 'spacebar'.",Images/Fearful/AF23AFS.jpg,Fear,Blue,Images/Blue.jpg,space,ParentConditions/YellowBlueBlue_v1.xlsx,BlueBlueYellow,Conditions/Version_1/YellowHappyStop.xlsx,no,PASS,0.9065930904744121,,,,,,,,,0,0,0,0,0,0,0,0,0,66,66,66,,,,,,,,,,,,,,,,,,,,,,,,,,,,,,,,,,,,,,,,,,,,,,,,,,,,,,,,,,,,,,,,,,,,,,,,,,,,,,,1.99,440.24037010001484,None,None,0,,442.3359710999648,None,442.3359710999648,None,442.3359710999648,None,,,,,,,,,,,P001,fencog,1,Pre,2021_Jun_22_1110,Go No-Go Task,2021.1.4,120.74684329872431,
,"Rule: When you see a yellow image, do not press 'spacebar'.",Images/Fearful/AM13AFS.jpg,Fear,Blue,Images/Blue.jpg,space,ParentConditions/YellowBlueBlue_v1.xlsx,BlueBlueYellow,Conditions/Version_1/YellowHappyStop.xlsx,no,PASS,0.672217887403839,,,,,,,,,0,0,0,0,0,0,0,0,0,67,67,67,,,,,,,,,,,,,,,,,,,,,,,,,,,,,,,,,,,,,,,,,,,,,,,,,,,,,,,,,,,,,,,,,,,,,,,,,,,,,,,1.66,442.7394733999972,None,space,1,0.2538170000188984,444.4936776999966,None,444.4936776999966,None,444.4936776999966,None,,,,,,,,,,,P001,fencog,1,Pre,2021_Jun_22_1110,Go No-Go Task,2021.1.4,120.74684329872431,
,"Rule: When you see a yellow image, do not press 'spacebar'.",Images/Fearful/HF09_FC.jpg,Fear,Blue,Images/Blue.jpg,space,ParentConditions/YellowBlueBlue_v1.xlsx,BlueBlueYellow,Conditions/Version_1/YellowHappyStop.xlsx,no,PASS,0.947763278232759,,,,,,,,,0,0,0,0,0,0,0,0,0,68,68,68,,,,,,,,,,,,,,,,,,,,,,,,,,,,,,,,,,,,,,,,,,,,,,,,,,,,,,,,,,,,,,,,,,,,,,,,,,,,,,,1.92,444.90807489998406,None,space,1,0.3717634999775328,446.9346494000056,None,446.9346494000056,None,446.9346494000056,None,,,,,,,,,,,P001,fencog,1,Pre,2021_Jun_22_1110,Go No-Go Task,2021.1.4,120.74684329872431,
,"Rule: When you see a yellow image, do not press 'spacebar'.",Images/Fearful/AM04AFS.jpg,Fear,Blue,Images/Blue.jpg,space,ParentConditions/YellowBlueBlue_v1.xlsx,BlueBlueYellow,Conditions/Version_1/YellowHappyStop.xlsx,no,PASS,0.7155710730323807,,,,,,,,,0,0,0,0,0,0,0,0,0,69,69,69,,,,,,,,,,,,,,,,,,,,,,,,,,,,,,,,,,,,,,,,,,,,,,,,,,,,,,,,,,,,,,,,,,,,,,,,,,,,,,,1.82,447.3340363999596,None,space,1,0.28765820001717657,449.25892210000893,None,449.25892210000893,None,449.25892210000893,None,,,,,,,,,,,P001,fencog,1,Pre,2021_Jun_22_1110,Go No-Go Task,2021.1.4,120.74684329872431,
,"Rule: When you see a yellow image, do not press 'spacebar'.",Images/Fearful/AF02AFS.jpg,Fear,Blue,Images/Blue.jpg,space,ParentConditions/YellowBlueBlue_v1.xlsx,BlueBlueYellow,Conditions/Version_1/YellowHappyStop.xlsx,no,PASS,0.9864792225255055,,,,,,,,,0,0,0,0,0,0,0,0,0,70,70,70,,,,,,,,,,,,,,,,,,,,,,,,,,,,,,,,,,,,,,,,,,,,,,,,,,,,,,,,,,,,,,,,,,,,,,,,,,,,,,,1.71,449.6645464999601,None,space,1,0.31141520000528544,451.4750152999768,None,451.4750152999768,None,451.4750152999768,None,,,,,,,,,,,P001,fencog,1,Pre,2021_Jun_22_1110,Go No-Go Task,2021.1.4,120.74684329872431,
,"Rule: When you see a yellow image, do not press 'spacebar'.",Images/Fearful/AM09AFS.jpg,Fear,Blue,Images/Blue.jpg,space,ParentConditions/YellowBlueBlue_v1.xlsx,BlueBlueYellow,Conditions/Version_1/YellowHappyStop.xlsx,no,PASS,0.8390326237024166,,,,,,,,,0,0,0,0,0,0,0,0,0,71,71,71,,,,,,,,,,,,,,,,,,,,,,,,,,,,,,,,,,,,,,,,,,,,,,,,,,,,,,,,,,,,,,,,,,,,,,,,,,,,,,,2,451.87541619996773,None,space,1,0.2847509999992326,453.9825395999942,None,453.9825395999942,None,453.9825395999942,None,,,,,,,,,,,P001,fencog,1,Pre,2021_Jun_22_1110,Go No-Go Task,2021.1.4,120.74684329872431,
,"Rule: When you see a yellow image, do not press 'spacebar'.",Images/Fearful/BF05_FO.jpg,Fear,Blue,Images/Blue.jpg,space,ParentConditions/YellowBlueBlue_v1.xlsx,BlueBlueYellow,Conditions/Version_1/YellowHappyStop.xlsx,no,PASS,0.691917879610661,,,,,,,,,0,0,0,0,0,0,0,0,0,72,72,72,,,,,,,,,,,,,,,,,,,,,,,,,,,,,,,,,,,,,,,,,,,,,,,,,,,,,,,,,,,,,,,,,,,,,,,,,,,,,,,1.7,454.38299419998657,None,space,1,0.3084652000106871,456.1902629999677,None,456.1902629999677,None,456.1902629999677,None,,,,,,,,,,,P001,fencog,1,Pre,2021_Jun_22_1110,Go No-Go Task,2021.1.4,120.74684329872431,
,"Rule: When you see a yellow image, do not press 'spacebar'.",Images/Fearful/AF22AFS.jpg,Fear,Blue,Images/Blue.jpg,space,ParentConditions/YellowBlueBlue_v1.xlsx,BlueBlueYellow,Conditions/Version_1/YellowHappyStop.xlsx,no,PASS,0.03529836358299465,,,,,,,,,0,0,0,0,0,0,0,0,0,73,73,73,,,,,,,,,,,,,,,,,,,,,,,,,,,,,,,,,,,,,,,,,,,,,,,,,,,,,,,,,,,,,,,,,,,,,,,,,,,,,,,1.21,456.5920999000082,None,space,1,0.2727502000052482,457.90633550001075,None,457.90633550001075,None,457.90633550001075,None,,,,,,,,,,,P001,fencog,1,Pre,2021_Jun_22_1110,Go No-Go Task,2021.1.4,120.74684329872431,
,"Rule: When you see a yellow image, do not press 'spacebar'.",Images/Happy/BF18_HO.jpg,Happy,Yellow,Images/Yellow.jpg,None,ParentConditions/YellowBlueBlue_v1.xlsx,BlueBlueYellow,Conditions/Version_1/YellowHappyStop.xlsx,yes,PASS,0.4232691792902379,,,,,,,,,0,0,0,0,0,0,0,0,0,74,74,74,,,,,,,,,,,,,,,,,,,,,,,,,,,,,,,,,,,,,,,,,,,,,,,,,,,,,,,,,,,,,,,,,,,,,,,,,,,,,,,1.72,458.3119245999842,None,space,0,0.23949459998402745,460.1390604999615,None,460.1390604999615,None,460.1390604999615,None,,,,,,,,,,,P001,fencog,1,Pre,2021_Jun_22_1110,Go No-Go Task,2021.1.4,120.74684329872431,
,"Rule: When you see a yellow image, do not press 'spacebar'.",Images/Fearful/WM12_FO.jpg,Fear,Blue,Images/Blue.jpg,space,ParentConditions/YellowBlueBlue_v1.xlsx,BlueBlueYellow,Conditions/Version_1/YellowHappyStop.xlsx,no,PASS,0.34671640176200413,,,,,,,,,0,0,0,0,0,0,0,0,0,75,75,75,,,,,,,,,,,,,,,,,,,,,,,,,,,,,,,,,,,,,,,,,,,,,,,,,,,,,,,,,,,,,,,,,,,,,,,,,,,,,,,1.52,460.5401749999728,None,space,1,0.2795703999581747,462.16341059998376,None,462.16341059998376,None,462.16341059998376,None,,,,,,,,,,,P001,fencog,1,Pre,2021_Jun_22_1110,Go No-Go Task,2021.1.4,120.74684329872431,
,"Rule: When you see a yellow image, do not press 'spacebar'.",Images/Fearful/BF07_FO.jpg,Fear,Blue,Images/Blue.jpg,space,ParentConditions/YellowBlueBlue_v1.xlsx,BlueBlueYellow,Conditions/Version_1/YellowHappyStop.xlsx,no,PASS,0.2992945798396267,,,,,,,,,0,0,0,0,0,0,0,0,0,76,76,76,,,,,,,,,,,,,,,,,,,,,,,,,,,,,,,,,,,,,,,,,,,,,,,,,,,,,,,,,,,,,,,,,,,,,,,,,,,,,,,1.23,462.56279379996704,None,space,1,0.24215940001886338,463.8963032999891,None,463.8963032999891,None,463.8963032999891,None,,,,,,,,,,,P001,fencog,1,Pre,2021_Jun_22_1110,Go No-Go Task,2021.1.4,120.74684329872431,
,"Rule: When you see a yellow image, do not press 'spacebar'.",Images/Fearful/HF10_FO.jpg,Fear,Blue,Images/Blue.jpg,space,ParentConditions/YellowBlueBlue_v1.xlsx,BlueBlueYellow,Conditions/Version_1/YellowHappyStop.xlsx,no,PASS,0.06506977473557796,,,,,,,,,0,0,0,0,0,0,0,0,0,77,77,77,,,,,,,,,,,,,,,,,,,,,,,,,,,,,,,,,,,,,,,,,,,,,,,,,,,,,,,,,,,,,,,,,,,,,,,,,,,,,,,1.22,464.3032564999885,None,space,1,0.33344619994750246,465.62073219998274,None,465.62073219998274,None,465.62073219998274,None,,,,,,,,,,,P001,fencog,1,Pre,2021_Jun_22_1110,Go No-Go Task,2021.1.4,120.74684329872431,
,"Rule: When you see a yellow image, do not press 'spacebar'.",Images/Fearful/AM10AFS.jpg,Fear,Blue,Images/Blue.jpg,space,ParentConditions/YellowBlueBlue_v1.xlsx,BlueBlueYellow,Conditions/Version_1/YellowHappyStop.xlsx,no,PASS,0.4391085826227009,,,,,,,,,0,0,0,0,0,0,0,0,0,78,78,78,,,,,,,,,,,,,,,,,,,,,,,,,,,,,,,,,,,,,,,,,,,,,,,,,,,,,,,,,,,,,,,,,,,,,,,,,,,,,,,1.46,466.0211950999801,None,space,1,0.3522747000097297,467.586874599976,None,467.586874599976,None,467.586874599976,None,,,,,,,,,,,P001,fencog,1,Pre,2021_Jun_22_1110,Go No-Go Task,2021.1.4,120.74684329872431,
,"Rule: When you see a yellow image, do not press 'spacebar'.",Images/Happy/AM23HAS.jpg,Happy,Yellow,Images/Yellow.jpg,None,ParentConditions/YellowBlueBlue_v1.xlsx,BlueBlueYellow,Conditions/Version_1/YellowHappyStop.xlsx,yes,PASS,0.8296456455429673,,,,,,,,,0,0,0,0,0,0,0,0,0,79,79,79,,,,,,,,,,,,,,,,,,,,,,,,,,,,,,,,,,,,,,,,,,,,,,,,,,,,,,,,,,,,,,,,,,,,,,,,,,,,,,,1.41,467.9861826999695,None,None,1,,469.5029188999906,None,469.5029188999906,None,469.5029188999906,None,,,,,,,,,,,P001,fencog,1,Pre,2021_Jun_22_1110,Go No-Go Task,2021.1.4,120.74684329872431,
,"Rule: When you see blue image, do not press 'spacebar'.",Images/Fearful/HM06_FC.jpg,Fear,Blue,Images/Blue.jpg,None,ParentConditions/YellowBlueBlue_v1.xlsx,BlueBlueYellow,Conditions/Version_1/BlueFearStop.xlsx,yes,PASS,0.7729813006314565,,,,,,,,,0,0,0,0,0,1,1,1,0,0,0,0,,,,,,,,,,,,,,,,,,,,,,,,,,,,,,,,,,,,,,,,,,,,,,,,,,,,,,,,,,,,,,,,,484.2517821000074,None,487.2387386999908,None,space,13.403102200012654,487.2387386999908,None,484.2517821000074,None,484.2517821000074,None,484.2517821000074,None,1.7,500.70712549996097,None,None,1,,502.50994660001015,None,502.50994660001015,None,502.50994660001015,None,469.920272999967,None,space,13.832461399957538,470.4020479999599,None,469.920272999967,None,469.920272999967,None,P001,fencog,1,Pre,2021_Jun_22_1110,Go No-Go Task,2021.1.4,120.74684329872431,
,"Rule: When you see blue image, do not press 'spacebar'.",Images/Happy/AF07HAS.jpg,Happy,Yellow,Images/Yellow.jpg,space,ParentConditions/YellowBlueBlue_v1.xlsx,BlueBlueYellow,Conditions/Version_1/BlueFearStop.xlsx,no,PASS,0.4924453653062516,,,,,,,,,0,0,0,0,0,1,1,1,0,1,1,1,,,,,,,,,,,,,,,,,,,,,,,,,,,,,,,,,,,,,,,,,,,,,,,,,,,,,,,,,,,,,,,,,,,,,,,,,,,,,,,1.83,502.91238399996655,None,space,1,0.2961531999753788,504.8424290000112,None,504.8424290000112,None,504.8424290000112,None,,,,,,,,,,,P001,fencog,1,Pre,2021_Jun_22_1110,Go No-Go Task,2021.1.4,120.74684329872431,
,"Rule: When you see blue image, do not press 'spacebar'.",Images/Happy/AF28HAS.jpg,Happy,Yellow,Images/Yellow.jpg,space,ParentConditions/YellowBlueBlue_v1.xlsx,BlueBlueYellow,Conditions/Version_1/BlueFearStop.xlsx,no,PASS,0.8943473655540664,,,,,,,,,0,0,0,0,0,1,1,1,0,2,2,2,,,,,,,,,,,,,,,,,,,,,,,,,,,,,,,,,,,,,,,,,,,,,,,,,,,,,,,,,,,,,,,,,,,,,,,,,,,,,,,1.22,505.2447416000068,None,space,1,0.2674197999876924,506.56705159996636,None,506.56705159996636,None,506.56705159996636,None,,,,,,,,,,,P001,fencog,1,Pre,2021_Jun_22_1110,Go No-Go Task,2021.1.4,120.74684329872431,
,"Rule: When you see blue image, do not press 'spacebar'.",Images/Happy/AF22HAS.jpg,Happy,Yellow,Images/Yellow.jpg,space,ParentConditions/YellowBlueBlue_v1.xlsx,BlueBlueYellow,Conditions/Version_1/BlueFearStop.xlsx,no,PASS,0.5892765061873407,,,,,,,,,0,0,0,0,0,1,1,1,0,3,3,3,,,,,,,,,,,,,,,,,,,,,,,,,,,,,,,,,,,,,,,,,,,,,,,,,,,,,,,,,,,,,,,,,,,,,,,,,,,,,,,1.55,506.9674544999725,None,space,1,0.23447799996938556,508.62463759997627,None,508.62463759997627,None,508.62463759997627,None,,,,,,,,,,,P001,fencog,1,Pre,2021_Jun_22_1110,Go No-Go Task,2021.1.4,120.74684329872431,
,"Rule: When you see blue image, do not press 'spacebar'.",Images/Fearful/AF27AFS.jpg,Fear,Blue,Images/Blue.jpg,None,ParentConditions/YellowBlueBlue_v1.xlsx,BlueBlueYellow,Conditions/Version_1/BlueFearStop.xlsx,yes,PASS,0.41428581318896585,,,,,,,,,0,0,0,0,0,1,1,1,0,4,4,4,,,,,,,,,,,,,,,,,,,,,,,,,,,,,,,,,,,,,,,,,,,,,,,,,,,,,,,,,,,,,,,,,,,,,,,,,,,,,,,1.4,509.02455989999,None,None,1,,510.5324335999903,None,510.5324335999903,None,510.5324335999903,None,,,,,,,,,,,P001,fencog,1,Pre,2021_Jun_22_1110,Go No-Go Task,2021.1.4,120.74684329872431,
,"Rule: When you see blue image, do not press 'spacebar'.",Images/Happy/AM24HAS.jpg,Happy,Yellow,Images/Yellow.jpg,space,ParentConditions/YellowBlueBlue_v1.xlsx,BlueBlueYellow,Conditions/Version_1/BlueFearStop.xlsx,no,PASS,0.8126867400025187,,,,,,,,,0,0,0,0,0,1,1,1,0,5,5,5,,,,,,,,,,,,,,,,,,,,,,,,,,,,,,,,,,,,,,,,,,,,,,,,,,,,,,,,,,,,,,,,,,,,,,,,,,,,,,,1.29,510.9331869999878,None,space,1,0.25463440001476556,512.3235938999569,None,512.3235938999569,None,512.3235938999569,None,,,,,,,,,,,P001,fencog,1,Pre,2021_Jun_22_1110,Go No-Go Task,2021.1.4,120.74684329872431,
,"Rule: When you see blue image, do not press 'spacebar'.",Images/Fearful/AF26AFS.jpg,Fear,Blue,Images/Blue.jpg,None,ParentConditions/YellowBlueBlue_v1.xlsx,BlueBlueYellow,Conditions/Version_1/BlueFearStop.xlsx,yes,PASS,0.7771539142714355,,,,,,,,,0,0,0,0,0,1,1,1,0,6,6,6,,,,,,,,,,,,,,,,,,,,,,,,,,,,,,,,,,,,,,,,,,,,,,,,,,,,,,,,,,,,,,,,,,,,,,,,,,,,,,,1.67,512.7284151999629,None,None,1,,514.5062610000023,None,514.5062610000023,None,514.5062610000023,None,,,,,,,,,,,P001,fencog,1,Pre,2021_Jun_22_1110,Go No-Go Task,2021.1.4,120.74684329872431,
,"Rule: When you see blue image, do not press 'spacebar'.",Images/Happy/WM11_HC.jpg,Happy,Yellow,Images/Yellow.jpg,space,ParentConditions/YellowBlueBlue_v1.xlsx,BlueBlueYellow,Conditions/Version_1/BlueFearStop.xlsx,no,PASS,0.612727142386838,,,,,,,,,0,0,0,0,0,1,1,1,0,7,7,7,,,,,,,,,,,,,,,,,,,,,,,,,,,,,,,,,,,,,,,,,,,,,,,,,,,,,,,,,,,,,,,,,,,,,,,,,,,,,,,1.46,514.9069544000085,None,space,1,0.29044740000972524,516.4724808000028,None,516.4724808000028,None,516.4724808000028,None,,,,,,,,,,,P001,fencog,1,Pre,2021_Jun_22_1110,Go No-Go Task,2021.1.4,120.74684329872431,
,"Rule: When you see blue image, do not press 'spacebar'.",Images/Happy/BM03_HO.jpg,Happy,Yellow,Images/Yellow.jpg,space,ParentConditions/YellowBlueBlue_v1.xlsx,BlueBlueYellow,Conditions/Version_1/BlueFearStop.xlsx,no,PASS,0.7313165030586903,,,,,,,,,0,0,0,0,0,1,1,1,0,8,8,8,,,,,,,,,,,,,,,,,,,,,,,,,,,,,,,,,,,,,,,,,,,,,,,,,,,,,,,,,,,,,,,,,,,,,,,,,,,,,,,1.54,516.8730721999891,None,space,1,0.3770803000079468,518.5133783000056,None,518.5133783000056,None,518.5133783000056,None,,,,,,,,,,,P001,fencog,1,Pre,2021_Jun_22_1110,Go No-Go Task,2021.1.4,120.74684329872431,
,"Rule: When you see blue image, do not press 'spacebar'.",Images/Happy/BF18_HO.jpg,Happy,Yellow,Images/Yellow.jpg,space,ParentConditions/YellowBlueBlue_v1.xlsx,BlueBlueYellow,Conditions/Version_1/BlueFearStop.xlsx,no,PASS,0.5715935528670182,,,,,,,,,0,0,0,0,0,1,1,1,0,9,9,9,,,,,,,,,,,,,,,,,,,,,,,,,,,,,,,,,,,,,,,,,,,,,,,,,,,,,,,,,,,,,,,,,,,,,,,,,,,,,,,1.33,518.9179226999986,None,space,1,0.2962343000108376,520.3462527999654,None,520.3462527999654,None,520.3462527999654,None,,,,,,,,,,,P001,fencog,1,Pre,2021_Jun_22_1110,Go No-Go Task,2021.1.4,120.74684329872431,
,"Rule: When you see blue image, do not press 'spacebar'.",Images/Happy/AM10HAS.jpg,Happy,Yellow,Images/Yellow.jpg,space,ParentConditions/YellowBlueBlue_v1.xlsx,BlueBlueYellow,Conditions/Version_1/BlueFearStop.xlsx,no,PASS,0.4742386996589605,,,,,,,,,0,0,0,0,0,1,1,1,0,10,10,10,,,,,,,,,,,,,,,,,,,,,,,,,,,,,,,,,,,,,,,,,,,,,,,,,,,,,,,,,,,,,,,,,,,,,,,,,,,,,,,1.59,520.7489937999635,None,space,1,0.26919369999086484,522.4455689999741,None,522.4455689999741,None,522.4455689999741,None,,,,,,,,,,,P001,fencog,1,Pre,2021_Jun_22_1110,Go No-Go Task,2021.1.4,120.74684329872431,
,"Rule: When you see blue image, do not press 'spacebar'.",Images/Happy/AM09HAS.jpg,Happy,Yellow,Images/Yellow.jpg,space,ParentConditions/YellowBlueBlue_v1.xlsx,BlueBlueYellow,Conditions/Version_1/BlueFearStop.xlsx,no,PASS,0.5791375189576048,,,,,,,,,0,0,0,0,0,1,1,1,0,11,11,11,,,,,,,,,,,,,,,,,,,,,,,,,,,,,,,,,,,,,,,,,,,,,,,,,,,,,,,,,,,,,,,,,,,,,,,,,,,,,,,1.79,522.8457690000068,None,space,1,0.2663272999925539,524.73648089997,None,524.73648089997,None,524.73648089997,None,,,,,,,,,,,P001,fencog,1,Pre,2021_Jun_22_1110,Go No-Go Task,2021.1.4,120.74684329872431,
,"Rule: When you see blue image, do not press 'spacebar'.",Images/Happy/AM16HAS.jpg,Happy,Yellow,Images/Yellow.jpg,space,ParentConditions/YellowBlueBlue_v1.xlsx,BlueBlueYellow,Conditions/Version_1/BlueFearStop.xlsx,no,PASS,0.06851146054747248,,,,,,,,,0,0,0,0,0,1,1,1,0,12,12,12,,,,,,,,,,,,,,,,,,,,,,,,,,,,,,,,,,,,,,,,,,,,,,,,,,,,,,,,,,,,,,,,,,,,,,,,,,,,,,,1.26,525.138760700007,None,space,1,0.2913937999983318,526.5027827000013,None,526.5027827000013,None,526.5027827000013,None,,,,,,,,,,,P001,fencog,1,Pre,2021_Jun_22_1110,Go No-Go Task,2021.1.4,120.74684329872431,
,"Rule: When you see blue image, do not press 'spacebar'.",Images/Happy/AF10_HE.jpg,Happy,Yellow,Images/Yellow.jpg,space,ParentConditions/YellowBlueBlue_v1.xlsx,BlueBlueYellow,Conditions/Version_1/BlueFearStop.xlsx,no,PASS,0.21267371658214962,,,,,,,,,0,0,0,0,0,1,1,1,0,13,13,13,,,,,,,,,,,,,,,,,,,,,,,,,,,,,,,,,,,,,,,,,,,,,,,,,,,,,,,,,,,,,,,,,,,,,,,,,,,,,,,1.49,526.9112566999975,None,space,1,0.2448875000118278,528.5021295999759,None,528.5021295999759,None,528.5021295999759,None,,,,,,,,,,,P001,fencog,1,Pre,2021_Jun_22_1110,Go No-Go Task,2021.1.4,120.74684329872431,
,"Rule: When you see blue image, do not press 'spacebar'.",Images/Happy/AF27HAS.jpg,Happy,Yellow,Images/Yellow.jpg,space,ParentConditions/YellowBlueBlue_v1.xlsx,BlueBlueYellow,Conditions/Version_1/BlueFearStop.xlsx,no,PASS,0.8109673156723475,,,,,,,,,0,0,0,0,0,1,1,1,0,14,14,14,,,,,,,,,,,,,,,,,,,,,,,,,,,,,,,,,,,,,,,,,,,,,,,,,,,,,,,,,,,,,,,,,,,,,,,,,,,,,,,1.43,528.9024897000054,None,space,1,0.29625910002505407,530.43489460001,None,530.43489460001,None,530.43489460001,None,,,,,,,,,,,P001,fencog,1,Pre,2021_Jun_22_1110,Go No-Go Task,2021.1.4,120.74684329872431,
,"Rule: When you see blue image, do not press 'spacebar'.",Images/Happy/BF10_HO.jpg,Happy,Yellow,Images/Yellow.jpg,space,ParentConditions/YellowBlueBlue_v1.xlsx,BlueBlueYellow,Conditions/Version_1/BlueFearStop.xlsx,no,PASS,0.35707259862702334,,,,,,,,,0,0,0,0,0,1,1,1,0,15,15,15,,,,,,,,,,,,,,,,,,,,,,,,,,,,,,,,,,,,,,,,,,,,,,,,,,,,,,,,,,,,,,,,,,,,,,,,,,,,,,,1.32,530.8419165000087,None,space,1,0.2549814999802038,532.267732999986,None,532.267732999986,None,532.267732999986,None,,,,,,,,,,,P001,fencog,1,Pre,2021_Jun_22_1110,Go No-Go Task,2021.1.4,120.74684329872431,
,"Rule: When you see blue image, do not press 'spacebar'.",Images/Happy/BF14_HO.jpg,Happy,Yellow,Images/Yellow.jpg,space,ParentConditions/YellowBlueBlue_v1.xlsx,BlueBlueYellow,Conditions/Version_1/BlueFearStop.xlsx,no,PASS,0.41712793219483124,,,,,,,,,0,0,0,0,0,1,1,1,0,16,16,16,,,,,,,,,,,,,,,,,,,,,,,,,,,,,,,,,,,,,,,,,,,,,,,,,,,,,,,,,,,,,,,,,,,,,,,,,,,,,,,1.21,532.6684271999984,None,space,1,0.25014840002404526,533.9847403999884,None,533.9847403999884,None,533.9847403999884,None,,,,,,,,,,,P001,fencog,1,Pre,2021_Jun_22_1110,Go No-Go Task,2021.1.4,120.74684329872431,
,"Rule: When you see blue image, do not press 'spacebar'.",Images/Fearful/BM08_FC.jpg,Fear,Blue,Images/Blue.jpg,None,ParentConditions/YellowBlueBlue_v1.xlsx,BlueBlueYellow,Conditions/Version_1/BlueFearStop.xlsx,yes,PASS,0.2777606849347436,,,,,,,,,0,0,0,0,0,1,1,1,0,17,17,17,,,,,,,,,,,,,,,,,,,,,,,,,,,,,,,,,,,,,,,,,,,,,,,,,,,,,,,,,,,,,,,,,,,,,,,,,,,,,,,1.84,534.3901386999642,None,None,1,,536.3332579999696,None,536.3332579999696,None,536.3332579999696,None,,,,,,,,,,,P001,fencog,1,Pre,2021_Jun_22_1110,Go No-Go Task,2021.1.4,120.74684329872431,
,"Rule: When you see blue image, do not press 'spacebar'.",Images/Happy/AM01HAS.jpg,Happy,Yellow,Images/Yellow.jpg,space,ParentConditions/YellowBlueBlue_v1.xlsx,BlueBlueYellow,Conditions/Version_1/BlueFearStop.xlsx,no,PASS,0.43160138117116176,,,,,,,,,0,0,0,0,0,1,1,1,0,18,18,18,,,,,,,,,,,,,,,,,,,,,,,,,,,,,,,,,,,,,,,,,,,,,,,,,,,,,,,,,,,,,,,,,,,,,,,,,,,,,,,1.97,536.7356887999922,None,space,1,0.2591673999559134,538.7991927000112,None,538.7991927000112,None,538.7991927000112,None,,,,,,,,,,,P001,fencog,1,Pre,2021_Jun_22_1110,Go No-Go Task,2021.1.4,120.74684329872431,
,"Rule: When you see blue image, do not press 'spacebar'.",Images/Happy/AF11HAS.jpg,Happy,Yellow,Images/Yellow.jpg,space,ParentConditions/YellowBlueBlue_v1.xlsx,BlueBlueYellow,Conditions/Version_1/BlueFearStop.xlsx,no,PASS,0.9696898199968184,,,,,,,,,0,0,0,0,0,1,1,1,0,19,19,19,,,,,,,,,,,,,,,,,,,,,,,,,,,,,,,,,,,,,,,,,,,,,,,,,,,,,,,,,,,,,,,,,,,,,,,,,,,,,,,1.34,539.2050839000149,None,space,1,0.2582569000078365,540.6402466999716,None,540.6402466999716,None,540.6402466999716,None,,,,,,,,,,,P001,fencog,1,Pre,2021_Jun_22_1110,Go No-Go Task,2021.1.4,120.74684329872431,
,"Rule: When you see blue image, do not press 'spacebar'.",Images/Happy/BM01_HO.jpg,Happy,Yellow,Images/Yellow.jpg,space,ParentConditions/YellowBlueBlue_v1.xlsx,BlueBlueYellow,Conditions/Version_1/BlueFearStop.xlsx,no,PASS,0.40182091251260654,,,,,,,,,0,0,0,0,0,1,1,1,0,20,20,20,,,,,,,,,,,,,,,,,,,,,,,,,,,,,,,,,,,,,,,,,,,,,,,,,,,,,,,,,,,,,,,,,,,,,,,,,,,,,,,1.76,541.0414639000082,None,space,1,0.2561720999656245,542.9062626999803,None,542.9062626999803,None,542.9062626999803,None,,,,,,,,,,,P001,fencog,1,Pre,2021_Jun_22_1110,Go No-Go Task,2021.1.4,120.74684329872431,
,"Rule: When you see blue image, do not press 'spacebar'.",Images/Happy/AF07_HO.jpg,Happy,Yellow,Images/Yellow.jpg,space,ParentConditions/YellowBlueBlue_v1.xlsx,BlueBlueYellow,Conditions/Version_1/BlueFearStop.xlsx,no,PASS,0.304860645067783,,,,,,,,,0,0,0,0,0,1,1,1,0,21,21,21,,,,,,,,,,,,,,,,,,,,,,,,,,,,,,,,,,,,,,,,,,,,,,,,,,,,,,,,,,,,,,,,,,,,,,,,,,,,,,,1.58,543.3109307999839,None,space,1,0.2532206000178121,544.997257400013,None,544.997257400013,None,544.997257400013,None,,,,,,,,,,,P001,fencog,1,Pre,2021_Jun_22_1110,Go No-Go Task,2021.1.4,120.74684329872431,
,"Rule: When you see blue image, do not press 'spacebar'.",Images/Happy/HM06_HO.jpg,Happy,Yellow,Images/Yellow.jpg,space,ParentConditions/YellowBlueBlue_v1.xlsx,BlueBlueYellow,Conditions/Version_1/BlueFearStop.xlsx,no,PASS,0.3928744637511502,,,,,,,,,0,0,0,0,0,1,1,1,0,22,22,22,,,,,,,,,,,,,,,,,,,,,,,,,,,,,,,,,,,,,,,,,,,,,,,,,,,,,,,,,,,,,,,,,,,,,,,,,,,,,,,1.52,545.400250000006,None,space,1,0.26094349997583777,547.0133837999892,None,547.0133837999892,None,547.0133837999892,None,,,,,,,,,,,P001,fencog,1,Pre,2021_Jun_22_1110,Go No-Go Task,2021.1.4,120.74684329872431,
,"Rule: When you see blue image, do not press 'spacebar'.",Images/Fearful/AM09_FO.jpg,Fear,Blue,Images/Blue.jpg,None,ParentConditions/YellowBlueBlue_v1.xlsx,BlueBlueYellow,Conditions/Version_1/BlueFearStop.xlsx,yes,PASS,0.17130222782280535,,,,,,,,,0,0,0,0,0,1,1,1,0,23,23,23,,,,,,,,,,,,,,,,,,,,,,,,,,,,,,,,,,,,,,,,,,,,,,,,,,,,,,,,,,,,,,,,,,,,,,,,,,,,,,,1.85,547.4135073999641,None,None,1,,549.3710966999643,None,549.3710966999643,None,549.3710966999643,None,,,,,,,,,,,P001,fencog,1,Pre,2021_Jun_22_1110,Go No-Go Task,2021.1.4,120.74684329872431,
,"Rule: When you see blue image, do not press 'spacebar'.",Images/Happy/AF09HAS.jpg,Happy,Yellow,Images/Yellow.jpg,space,ParentConditions/YellowBlueBlue_v1.xlsx,BlueBlueYellow,Conditions/Version_1/BlueFearStop.xlsx,no,PASS,0.32050850835393896,,,,,,,,,0,0,0,0,0,1,1,1,0,24,24,24,,,,,,,,,,,,,,,,,,,,,,,,,,,,,,,,,,,,,,,,,,,,,,,,,,,,,,,,,,,,,,,,,,,,,,,,,,,,,,,1.53,549.7728737000143,None,space,1,0.2787770999711938,551.3953727000044,None,551.3953727000044,None,551.3953727000044,None,,,,,,,,,,,P001,fencog,1,Pre,2021_Jun_22_1110,Go No-Go Task,2021.1.4,120.74684329872431,
,"Rule: When you see blue image, do not press 'spacebar'.",Images/Happy/AM04HAS.jpg,Happy,Yellow,Images/Yellow.jpg,space,ParentConditions/YellowBlueBlue_v1.xlsx,BlueBlueYellow,Conditions/Version_1/BlueFearStop.xlsx,no,PASS,0.17004201555218557,,,,,,,,,0,0,0,0,0,1,1,1,0,25,25,25,,,,,,,,,,,,,,,,,,,,,,,,,,,,,,,,,,,,,,,,,,,,,,,,,,,,,,,,,,,,,,,,,,,,,,,,,,,,,,,1.99,551.7967963999836,None,space,1,0.2765143999713473,553.8946123999776,None,553.8946123999776,None,553.8946123999776,None,,,,,,,,,,,P001,fencog,1,Pre,2021_Jun_22_1110,Go No-Go Task,2021.1.4,120.74684329872431,
,"Rule: When you see blue image, do not press 'spacebar'.",Images/Happy/BF07_HO.jpg,Happy,Yellow,Images/Yellow.jpg,space,ParentConditions/YellowBlueBlue_v1.xlsx,BlueBlueYellow,Conditions/Version_1/BlueFearStop.xlsx,no,PASS,0.9775255982448644,,,,,,,,,0,0,0,0,0,1,1,1,0,26,26,26,,,,,,,,,,,,,,,,,,,,,,,,,,,,,,,,,,,,,,,,,,,,,,,,,,,,,,,,,,,,,,,,,,,,,,,,,,,,,,,1.28,554.2939273999655,None,space,1,0.25345959997503087,555.6691191999707,None,555.6691191999707,None,555.6691191999707,None,,,,,,,,,,,P001,fencog,1,Pre,2021_Jun_22_1110,Go No-Go Task,2021.1.4,120.74684329872431,
,"Rule: When you see blue image, do not press 'spacebar'.",Images/Happy/AF02HAS.jpg,Happy,Yellow,Images/Yellow.jpg,space,ParentConditions/YellowBlueBlue_v1.xlsx,BlueBlueYellow,Conditions/Version_1/BlueFearStop.xlsx,no,PASS,0.9926707513295598,,,,,,,,,0,0,0,0,0,1,1,1,0,27,27,27,,,,,,,,,,,,,,,,,,,,,,,,,,,,,,,,,,,,,,,,,,,,,,,,,,,,,,,,,,,,,,,,,,,,,,,,,,,,,,,1.61,556.0753450999619,None,space,1,0.19282029999885708,557.7935714999912,None,557.7935714999912,None,557.7935714999912,None,,,,,,,,,,,P001,fencog,1,Pre,2021_Jun_22_1110,Go No-Go Task,2021.1.4,120.74684329872431,
,"Rule: When you see blue image, do not press 'spacebar'.",Images/Happy/AM30HAS.jpg,Happy,Yellow,Images/Yellow.jpg,space,ParentConditions/YellowBlueBlue_v1.xlsx,BlueBlueYellow,Conditions/Version_1/BlueFearStop.xlsx,no,PASS,0.6844901636445411,,,,,,,,,0,0,0,0,0,1,1,1,0,28,28,28,,,,,,,,,,,,,,,,,,,,,,,,,,,,,,,,,,,,,,,,,,,,,,,,,,,,,,,,,,,,,,,,,,,,,,,,,,,,,,,1.72,558.2021269999677,None,None,0,,560.0262425999972,None,560.0262425999972,None,560.0262425999972,None,,,,,,,,,,,P001,fencog,1,Pre,2021_Jun_22_1110,Go No-Go Task,2021.1.4,120.74684329872431,
,"Rule: When you see blue image, do not press 'spacebar'.",Images/Happy/BF05_HO.jpg,Happy,Yellow,Images/Yellow.jpg,space,ParentConditions/YellowBlueBlue_v1.xlsx,BlueBlueYellow,Conditions/Version_1/BlueFearStop.xlsx,no,PASS,0.010815687417666808,,,,,,,,,0,0,0,0,0,1,1,1,0,29,29,29,,,,,,,,,,,,,,,,,,,,,,,,,,,,,,,,,,,,,,,,,,,,,,,,,,,,,,,,,,,,,,,,,,,,,,,,,,,,,,,1.66,560.4271561999922,None,space,1,0.3224787999643013,562.1921518999734,None,562.1921518999734,None,562.1921518999734,None,,,,,,,,,,,P001,fencog,1,Pre,2021_Jun_22_1110,Go No-Go Task,2021.1.4,120.74684329872431,
,"Rule: When you see blue image, do not press 'spacebar'.",Images/Fearful/AF25AFS.jpg,Fear,Blue,Images/Blue.jpg,None,ParentConditions/YellowBlueBlue_v1.xlsx,BlueBlueYellow,Conditions/Version_1/BlueFearStop.xlsx,yes,PASS,0.35816317389786545,,,,,,,,,0,0,0,0,0,1,1,1,0,30,30,30,,,,,,,,,,,,,,,,,,,,,,,,,,,,,,,,,,,,,,,,,,,,,,,,,,,,,,,,,,,,,,,,,,,,,,,,,,,,,,,1.87,562.5925989999669,None,None,1,,564.5664480999694,None,564.5664480999694,None,564.5664480999694,None,,,,,,,,,,,P001,fencog,1,Pre,2021_Jun_22_1110,Go No-Go Task,2021.1.4,120.74684329872431,
,"Rule: When you see blue image, do not press 'spacebar'.",Images/Happy/BF09_HO.jpg,Happy,Yellow,Images/Yellow.jpg,space,ParentConditions/YellowBlueBlue_v1.xlsx,BlueBlueYellow,Conditions/Version_1/BlueFearStop.xlsx,no,PASS,0.3783419276063734,,,,,,,,,0,0,0,0,0,1,1,1,0,31,31,31,,,,,,,,,,,,,,,,,,,,,,,,,,,,,,,,,,,,,,,,,,,,,,,,,,,,,,,,,,,,,,,,,,,,,,,,,,,,,,,1.73,564.9671466000145,None,space,1,0.24418889998923987,566.7908076999593,None,566.7908076999593,None,566.7908076999593,None,,,,,,,,,,,P001,fencog,1,Pre,2021_Jun_22_1110,Go No-Go Task,2021.1.4,120.74684329872431,
,"Rule: When you see blue image, do not press 'spacebar'.",Images/Happy/AM09_HE.jpg,Happy,Yellow,Images/Yellow.jpg,space,ParentConditions/YellowBlueBlue_v1.xlsx,BlueBlueYellow,Conditions/Version_1/BlueFearStop.xlsx,no,PASS,0.21016465424314756,,,,,,,,,0,0,0,0,0,1,1,1,0,32,32,32,,,,,,,,,,,,,,,,,,,,,,,,,,,,,,,,,,,,,,,,,,,,,,,,,,,,,,,,,,,,,,,,,,,,,,,,,,,,,,,1.96,567.1959983999841,None,space,1,0.24998739996226504,569.2567307999707,None,569.2567307999707,None,569.2567307999707,None,,,,,,,,,,,P001,fencog,1,Pre,2021_Jun_22_1110,Go No-Go Task,2021.1.4,120.74684329872431,
,"Rule: When you see blue image, do not press 'spacebar'.",Images/Fearful/BF14_FO.jpg,Fear,Blue,Images/Blue.jpg,None,ParentConditions/YellowBlueBlue_v1.xlsx,BlueBlueYellow,Conditions/Version_1/BlueFearStop.xlsx,yes,PASS,0.9618360969741386,,,,,,,,,0,0,0,0,0,1,1,1,0,33,33,33,,,,,,,,,,,,,,,,,,,,,,,,,,,,,,,,,,,,,,,,,,,,,,,,,,,,,,,,,,,,,,,,,,,,,,,,,,,,,,,1.5,569.6554911999847,None,None,1,,571.2561356999795,None,571.2561356999795,None,571.2561356999795,None,,,,,,,,,,,P001,fencog,1,Pre,2021_Jun_22_1110,Go No-Go Task,2021.1.4,120.74684329872431,
,"Rule: When you see blue image, do not press 'spacebar'.",Images/Fearful/HF05_FC.jpg,Fear,Blue,Images/Blue.jpg,None,ParentConditions/YellowBlueBlue_v1.xlsx,BlueBlueYellow,Conditions/Version_1/BlueFearStop.xlsx,yes,PASS,0.005236598035567086,,,,,,,,,0,0,0,0,0,1,1,1,0,34,34,34,,,,,,,,,,,,,,,,,,,,,,,,,,,,,,,,,,,,,,,,,,,,,,,,,,,,,,,,,,,,,,,,,,,,,,,,,,,,,,,1.38,571.6554208999733,None,space,0,0.2231921999482438,573.1390422999975,None,573.1390422999975,None,573.1390422999975,None,,,,,,,,,,,P001,fencog,1,Pre,2021_Jun_22_1110,Go No-Go Task,2021.1.4,120.74684329872431,
,"Rule: When you see blue image, do not press 'spacebar'.",Images/Happy/AM23HAS.jpg,Happy,Yellow,Images/Yellow.jpg,space,ParentConditions/YellowBlueBlue_v1.xlsx,BlueBlueYellow,Conditions/Version_1/BlueFearStop.xlsx,no,PASS,0.13077339503157293,,,,,,,,,0,0,0,0,0,1,1,1,0,35,35,35,,,,,,,,,,,,,,,,,,,,,,,,,,,,,,,,,,,,,,,,,,,,,,,,,,,,,,,,,,,,,,,,,,,,,,,,,,,,,,,1.37,573.5501835999894,None,space,1,0.32492240000283346,575.0217266000109,None,575.0217266000109,None,575.0217266000109,None,,,,,,,,,,,P001,fencog,1,Pre,2021_Jun_22_1110,Go No-Go Task,2021.1.4,120.74684329872431,
,"Rule: When you see blue image, do not press 'spacebar'.",Images/Happy/AM03_HO.jpg,Happy,Yellow,Images/Yellow.jpg,space,ParentConditions/YellowBlueBlue_v1.xlsx,BlueBlueYellow,Conditions/Version_1/BlueFearStop.xlsx,no,PASS,0.29520703840296547,,,,,,,,,0,0,0,0,0,1,1,1,0,36,36,36,,,,,,,,,,,,,,,,,,,,,,,,,,,,,,,,,,,,,,,,,,,,,,,,,,,,,,,,,,,,,,,,,,,,,,,,,,,,,,,1.45,575.4216368999914,None,space,1,0.2708802999695763,576.9794784999685,None,576.9794784999685,None,576.9794784999685,None,,,,,,,,,,,P001,fencog,1,Pre,2021_Jun_22_1110,Go No-Go Task,2021.1.4,120.74684329872431,
,"Rule: When you see blue image, do not press 'spacebar'.",Images/Happy/AF25HAS.jpg,Happy,Yellow,Images/Yellow.jpg,space,ParentConditions/YellowBlueBlue_v1.xlsx,BlueBlueYellow,Conditions/Version_1/BlueFearStop.xlsx,no,PASS,0.3205802973983102,,,,,,,,,0,0,0,0,0,1,1,1,0,37,37,37,,,,,,,,,,,,,,,,,,,,,,,,,,,,,,,,,,,,,,,,,,,,,,,,,,,,,,,,,,,,,,,,,,,,,,,,,,,,,,,1.39,577.3795279999613,None,space,1,0.28442600002745166,578.8705459999619,None,578.8705459999619,None,578.8705459999619,None,,,,,,,,,,,P001,fencog,1,Pre,2021_Jun_22_1110,Go No-Go Task,2021.1.4,120.74684329872431,
,"Rule: When you see blue image, do not press 'spacebar'.",Images/Happy/BM08_HO.jpg,Happy,Yellow,Images/Yellow.jpg,space,ParentConditions/YellowBlueBlue_v1.xlsx,BlueBlueYellow,Conditions/Version_1/BlueFearStop.xlsx,no,PASS,0.9250231228335681,,,,,,,,,0,0,0,0,0,1,1,1,0,38,38,38,,,,,,,,,,,,,,,,,,,,,,,,,,,,,,,,,,,,,,,,,,,,,,,,,,,,,,,,,,,,,,,,,,,,,,,,,,,,,,,1.44,579.2715467999806,None,space,1,0.30284930003108457,580.8117611999623,None,580.8117611999623,None,580.8117611999623,None,,,,,,,,,,,P001,fencog,1,Pre,2021_Jun_22_1110,Go No-Go Task,2021.1.4,120.74684329872431,
,"Rule: When you see blue image, do not press 'spacebar'.",Images/Happy/AF32HAS.jpg,Happy,Yellow,Images/Yellow.jpg,space,ParentConditions/YellowBlueBlue_v1.xlsx,BlueBlueYellow,Conditions/Version_1/BlueFearStop.xlsx,no,PASS,0.73804934699979,,,,,,,,,0,0,0,0,0,1,1,1,0,39,39,39,,,,,,,,,,,,,,,,,,,,,,,,,,,,,,,,,,,,,,,,,,,,,,,,,,,,,,,,,,,,,,,,,,,,,,,,,,,,,,,1.47,581.2227887999616,None,space,1,0.3039086000062525,582.7944908000063,None,582.7944908000063,None,582.7944908000063,None,,,,,,,,,,,P001,fencog,1,Pre,2021_Jun_22_1110,Go No-Go Task,2021.1.4,120.74684329872431,
,"Rule: When you see blue image, do not press 'spacebar'.",Images/Happy/AF23HAS.jpg,Happy,Yellow,Images/Yellow.jpg,space,ParentConditions/YellowBlueBlue_v1.xlsx,BlueBlueYellow,Conditions/Version_1/BlueFearStop.xlsx,no,PASS,0.9000246195519893,,,,,,,,,0,0,0,0,0,1,1,1,0,40,40,40,,,,,,,,,,,,,,,,,,,,,,,,,,,,,,,,,,,,,,,,,,,,,,,,,,,,,,,,,,,,,,,,,,,,,,,,,,,,,,,1.88,583.1954911999637,None,space,1,0.3048992999829352,585.177048499987,None,585.177048499987,None,585.177048499987,None,,,,,,,,,,,P001,fencog,1,Pre,2021_Jun_22_1110,Go No-Go Task,2021.1.4,120.74684329872431,
,"Rule: When you see blue image, do not press 'spacebar'.",Images/Happy/AM32HAS.jpg,Happy,Yellow,Images/Yellow.jpg,space,ParentConditions/YellowBlueBlue_v1.xlsx,BlueBlueYellow,Conditions/Version_1/BlueFearStop.xlsx,no,PASS,0.738989629625258,,,,,,,,,0,0,0,0,0,1,1,1,0,41,41,41,,,,,,,,,,,,,,,,,,,,,,,,,,,,,,,,,,,,,,,,,,,,,,,,,,,,,,,,,,,,,,,,,,,,,,,,,,,,,,,1.42,585.5780132999644,None,space,1,0.26214800000889227,587.1014563000062,None,587.1014563000062,None,587.1014563000062,None,,,,,,,,,,,P001,fencog,1,Pre,2021_Jun_22_1110,Go No-Go Task,2021.1.4,120.74684329872431,
,"Rule: When you see blue image, do not press 'spacebar'.",Images/Fearful/AM30AFS.jpg,Fear,Blue,Images/Blue.jpg,None,ParentConditions/YellowBlueBlue_v1.xlsx,BlueBlueYellow,Conditions/Version_1/BlueFearStop.xlsx,yes,PASS,0.33529906039128465,,,,,,,,,0,0,0,0,0,1,1,1,0,42,42,42,,,,,,,,,,,,,,,,,,,,,,,,,,,,,,,,,,,,,,,,,,,,,,,,,,,,,,,,,,,,,,,,,,,,,,,,,,,,,,,1.82,587.5003940999741,None,None,1,,589.4258005999727,None,589.4258005999727,None,589.4258005999727,None,,,,,,,,,,,P001,fencog,1,Pre,2021_Jun_22_1110,Go No-Go Task,2021.1.4,120.74684329872431,
,"Rule: When you see blue image, do not press 'spacebar'.",Images/Happy/BM02_HO.jpg,Happy,Yellow,Images/Yellow.jpg,space,ParentConditions/YellowBlueBlue_v1.xlsx,BlueBlueYellow,Conditions/Version_1/BlueFearStop.xlsx,no,PASS,0.711648218321579,,,,,,,,,0,0,0,0,0,1,1,1,0,43,43,43,,,,,,,,,,,,,,,,,,,,,,,,,,,,,,,,,,,,,,,,,,,,,,,,,,,,,,,,,,,,,,,,,,,,,,,,,,,,,,,1.63,589.8265927999746,None,space,1,0.2523111999616958,591.5584617999848,None,591.5584617999848,None,591.5584617999848,None,,,,,,,,,,,P001,fencog,1,Pre,2021_Jun_22_1110,Go No-Go Task,2021.1.4,120.74684329872431,
,"Rule: When you see blue image, do not press 'spacebar'.",Images/Happy/AM10_HO.jpg,Happy,Yellow,Images/Yellow.jpg,space,ParentConditions/YellowBlueBlue_v1.xlsx,BlueBlueYellow,Conditions/Version_1/BlueFearStop.xlsx,no,PASS,0.7811025651589869,,,,,,,,,0,0,0,0,0,1,1,1,0,44,44,44,,,,,,,,,,,,,,,,,,,,,,,,,,,,,,,,,,,,,,,,,,,,,,,,,,,,,,,,,,,,,,,,,,,,,,,,,,,,,,,1.69,591.9574240999646,None,space,1,0.3011782999965362,593.7412195999641,None,593.7412195999641,None,593.7412195999641,None,,,,,,,,,,,P001,fencog,1,Pre,2021_Jun_22_1110,Go No-Go Task,2021.1.4,120.74684329872431,
,"Rule: When you see blue image, do not press 'spacebar'.",Images/Fearful/AM10_FO.jpg,Fear,Blue,Images/Blue.jpg,None,ParentConditions/YellowBlueBlue_v1.xlsx,BlueBlueYellow,Conditions/Version_1/BlueFearStop.xlsx,yes,PASS,0.14747063444404174,,,,,,,,,0,0,0,0,0,1,1,1,0,45,45,45,,,,,,,,,,,,,,,,,,,,,,,,,,,,,,,,,,,,,,,,,,,,,,,,,,,,,,,,,,,,,,,,,,,,,,,,,,,,,,,1.25,594.1418486000039,None,None,1,,595.4990178999724,None,595.4990178999724,None,595.4990178999724,None,,,,,,,,,,,P001,fencog,1,Pre,2021_Jun_22_1110,Go No-Go Task,2021.1.4,120.74684329872431,
,"Rule: When you see blue image, do not press 'spacebar'.",Images/Happy/AF19HAS.jpg,Happy,Yellow,Images/Yellow.jpg,space,ParentConditions/YellowBlueBlue_v1.xlsx,BlueBlueYellow,Conditions/Version_1/BlueFearStop.xlsx,no,PASS,0.5734484599929517,,,,,,,,,0,0,0,0,0,1,1,1,0,46,46,46,,,,,,,,,,,,,,,,,,,,,,,,,,,,,,,,,,,,,,,,,,,,,,,,,,,,,,,,,,,,,,,,,,,,,,,,,,,,,,,1.98,595.899576900003,None,space,1,0.3408908000565134,597.9816267999704,None,597.9816267999704,None,597.9816267999704,None,,,,,,,,,,,P001,fencog,1,Pre,2021_Jun_22_1110,Go No-Go Task,2021.1.4,120.74684329872431,
,"Rule: When you see blue image, do not press 'spacebar'.",Images/Fearful/HF09_FC.jpg,Fear,Blue,Images/Blue.jpg,None,ParentConditions/YellowBlueBlue_v1.xlsx,BlueBlueYellow,Conditions/Version_1/BlueFearStop.xlsx,yes,PASS,0.19935802832005745,,,,,,,,,0,0,0,0,0,1,1,1,0,47,47,47,,,,,,,,,,,,,,,,,,,,,,,,,,,,,,,,,,,,,,,,,,,,,,,,,,,,,,,,,,,,,,,,,,,,,,,,,,,,,,,1.27,598.3888519000029,None,None,1,,599.7560996999964,None,599.7560996999964,None,599.7560996999964,None,,,,,,,,,,,P001,fencog,1,Pre,2021_Jun_22_1110,Go No-Go Task,2021.1.4,120.74684329872431,
,"Rule: When you see blue image, do not press 'spacebar'.",Images/Fearful/AM22AFS.jpg,Fear,Blue,Images/Blue.jpg,None,ParentConditions/YellowBlueBlue_v1.xlsx,BlueBlueYellow,Conditions/Version_1/BlueFearStop.xlsx,yes,PASS,0.17276378175067786,,,,,,,,,0,0,0,0,0,1,1,1,0,48,48,48,,,,,,,,,,,,,,,,,,,,,,,,,,,,,,,,,,,,,,,,,,,,,,,,,,,,,,,,,,,,,,,,,,,,,,,,,,,,,,,1.2,600.1584458000143,None,space,0,0.25126589997671545,601.4639723,None,601.4639723,None,601.4639723,None,,,,,,,,,,,P001,fencog,1,Pre,2021_Jun_22_1110,Go No-Go Task,2021.1.4,120.74684329872431,
,"Rule: When you see blue image, do not press 'spacebar'.",Images/Happy/AM06_HC.jpg,Happy,Yellow,Images/Yellow.jpg,space,ParentConditions/YellowBlueBlue_v1.xlsx,BlueBlueYellow,Conditions/Version_1/BlueFearStop.xlsx,no,PASS,0.06320185727949179,,,,,,,,,0,0,0,0,0,1,1,1,0,49,49,49,,,,,,,,,,,,,,,,,,,,,,,,,,,,,,,,,,,,,,,,,,,,,,,,,,,,,,,,,,,,,,,,,,,,,,,,,,,,,,,1.95,601.8644811999984,None,None,0,,603.9215604999918,None,603.9215604999918,None,603.9215604999918,None,,,,,,,,,,,P001,fencog,1,Pre,2021_Jun_22_1110,Go No-Go Task,2021.1.4,120.74684329872431,
,"Rule: When you see blue image, do not press 'spacebar'.",Images/Fearful/AM32AFS.jpg,Fear,Blue,Images/Blue.jpg,None,ParentConditions/YellowBlueBlue_v1.xlsx,BlueBlueYellow,Conditions/Version_1/BlueFearStop.xlsx,yes,PASS,0.03468314974069586,,,,,,,,,0,0,0,0,0,1,1,1,0,50,50,50,,,,,,,,,,,,,,,,,,,,,,,,,,,,,,,,,,,,,,,,,,,,,,,,,,,,,,,,,,,,,,,,,,,,,,,,,,,,,,,1.74,604.3248891999829,None,None,1,,606.1716490999679,None,606.1716490999679,None,606.1716490999679,None,,,,,,,,,,,P001,fencog,1,Pre,2021_Jun_22_1110,Go No-Go Task,2021.1.4,120.74684329872431,
,"Rule: When you see blue image, do not press 'spacebar'.",Images/Happy/WF11_HE.jpg,Happy,Yellow,Images/Yellow.jpg,space,ParentConditions/YellowBlueBlue_v1.xlsx,BlueBlueYellow,Conditions/Version_1/BlueFearStop.xlsx,no,PASS,0.5138011133022752,,,,,,,,,0,0,0,0,0,1,1,1,0,51,51,51,,,,,,,,,,,,,,,,,,,,,,,,,,,,,,,,,,,,,,,,,,,,,,,,,,,,,,,,,,,,,,,,,,,,,,,,,,,,,,,1.65,606.5781077999854,None,space,1,0.30664729996351525,608.3285616000067,None,608.3285616000067,None,608.3285616000067,None,,,,,,,,,,,P001,fencog,1,Pre,2021_Jun_22_1110,Go No-Go Task,2021.1.4,120.74684329872431,
,"Rule: When you see blue image, do not press 'spacebar'.",Images/Fearful/AF28AFS.jpg,Fear,Blue,Images/Blue.jpg,None,ParentConditions/YellowBlueBlue_v1.xlsx,BlueBlueYellow,Conditions/Version_1/BlueFearStop.xlsx,yes,PASS,0.30204493442130675,,,,,,,,,0,0,0,0,0,1,1,1,0,52,52,52,,,,,,,,,,,,,,,,,,,,,,,,,,,,,,,,,,,,,,,,,,,,,,,,,,,,,,,,,,,,,,,,,,,,,,,,,,,,,,,1.51,608.7344203999965,None,None,1,,610.3445703999605,None,610.3445703999605,None,610.3445703999605,None,,,,,,,,,,,P001,fencog,1,Pre,2021_Jun_22_1110,Go No-Go Task,2021.1.4,120.74684329872431,
,"Rule: When you see blue image, do not press 'spacebar'.",Images/Happy/HF04_HE.jpg,Happy,Yellow,Images/Yellow.jpg,space,ParentConditions/YellowBlueBlue_v1.xlsx,BlueBlueYellow,Conditions/Version_1/BlueFearStop.xlsx,no,PASS,0.05385370360405073,,,,,,,,,0,0,0,0,0,1,1,1,0,53,53,53,,,,,,,,,,,,,,,,,,,,,,,,,,,,,,,,,,,,,,,,,,,,,,,,,,,,,,,,,,,,,,,,,,,,,,,,,,,,,,,1.41,610.7534418000141,None,space,1,0.27737129997694865,612.2690448999638,None,612.2690448999638,None,612.2690448999638,None,,,,,,,,,,,P001,fencog,1,Pre,2021_Jun_22_1110,Go No-Go Task,2021.1.4,120.74684329872431,
,"Rule: When you see blue image, do not press 'spacebar'.",Images/Happy/AM13HAS.jpg,Happy,Yellow,Images/Yellow.jpg,space,ParentConditions/YellowBlueBlue_v1.xlsx,BlueBlueYellow,Conditions/Version_1/BlueFearStop.xlsx,no,PASS,0.9978120552242631,,,,,,,,,0,0,0,0,0,1,1,1,0,54,54,54,,,,,,,,,,,,,,,,,,,,,,,,,,,,,,,,,,,,,,,,,,,,,,,,,,,,,,,,,,,,,,,,,,,,,,,,,,,,,,,1.56,612.6696284000063,None,space,1,0.37960230000317097,614.335103999998,None,614.335103999998,None,614.335103999998,None,,,,,,,,,,,P001,fencog,1,Pre,2021_Jun_22_1110,Go No-Go Task,2021.1.4,120.74684329872431,
,"Rule: When you see blue image, do not press 'spacebar'.",Images/Happy/HF10_HE.jpg,Happy,Yellow,Images/Yellow.jpg,space,ParentConditions/YellowBlueBlue_v1.xlsx,BlueBlueYellow,Conditions/Version_1/BlueFearStop.xlsx,no,PASS,0.7658265452728541,,,,,,,,,0,0,0,0,0,1,1,1,0,55,55,55,,,,,,,,,,,,,,,,,,,,,,,,,,,,,,,,,,,,,,,,,,,,,,,,,,,,,,,,,,,,,,,,,,,,,,,,,,,,,,,1.77,614.7390082000056,None,None,0,,616.6094023999758,None,616.6094023999758,None,616.6094023999758,None,,,,,,,,,,,P001,fencog,1,Pre,2021_Jun_22_1110,Go No-Go Task,2021.1.4,120.74684329872431,
,"Rule: When you see blue image, do not press 'spacebar'.",Images/Happy/AM04_HE.jpg,Happy,Yellow,Images/Yellow.jpg,space,ParentConditions/YellowBlueBlue_v1.xlsx,BlueBlueYellow,Conditions/Version_1/BlueFearStop.xlsx,no,PASS,0.8987539961300183,,,,,,,,,0,0,0,0,0,1,1,1,0,56,56,56,,,,,,,,,,,,,,,,,,,,,,,,,,,,,,,,,,,,,,,,,,,,,,,,,,,,,,,,,,,,,,,,,,,,,,,,,,,,,,,1.24,617.0198539000121,None,space,1,0.25913660001242533,618.3671897999593,None,618.3671897999593,None,618.3671897999593,None,,,,,,,,,,,P001,fencog,1,Pre,2021_Jun_22_1110,Go No-Go Task,2021.1.4,120.74684329872431,
