CondFileP,Instructions,FaceE,Express,ColourT,ColourF,CorrectAnsP,MasterCondFile,BlockOrder,CondFile,ColCheck,Triplicate_check,SORT_BY_SMALLEST,EPracticeOuterLoop.thisRepN,EPracticeOuterLoop.thisTrialN,EPracticeOuterLoop.thisN,EPracticeOuterLoop.thisIndex,EPracticeInnerLoop.thisRepN,EPracticeInnerLoop.thisTrialN,EPracticeInnerLoop.thisN,EPracticeInnerLoop.thisIndex,MasterLoop.thisRepN,MasterLoop.thisTrialN,MasterLoop.thisN,MasterLoop.thisIndex,OuterLoop.thisRepN,OuterLoop.thisTrialN,OuterLoop.thisN,OuterLoop.thisIndex,InnerLoop.thisRepN,InnerLoop.thisTrialN,InnerLoop.thisN,InnerLoop.thisIndex,text_13.started,text_13.stopped,key_resp_10.keys,key_resp_10.rt,key_resp_10.started,key_resp_10.stopped,text4.started,text4.stopped,EmotionTaskInstructions1.keys,EmotionTaskInstructions1.rt,EmotionTaskInstructions1.started,EmotionTaskInstructions1.stopped,text_4.started,text_4.stopped,key_resp_5.keys,key_resp_5.rt,key_resp_5.started,key_resp_5.stopped,Text_14.started,Text_14.stopped,key_resp_9.keys,key_resp_9.rt,key_resp_9.started,key_resp_9.stopped,text_5.started,text_5.stopped,text_6.started,text_6.stopped,key_resp_7.keys,key_resp_7.rt,key_resp_7.started,key_resp_7.stopped,text_10.started,text_10.stopped,text_11.started,text_11.stopped,text_12.started,text_12.stopped,ISIjitterPractice,EPracticeISIMarker.started,EPracticeISIMarker.stopped,Pract.keys,Pract.corr,Pract.rt,Pract.started,Pract.stopped,PracticeFace.started,PracticeFace.stopped,ColourPractice.started,ColourPractice.stopped,text_7.started,text_7.stopped,EndOfPractice.started,EndOfPractice.stopped,key_resp_8.keys,key_resp_8.rt,key_resp_8.started,key_resp_8.stopped,text_8.started,text_8.stopped,key_resp_6.keys,key_resp_6.rt,key_resp_6.started,key_resp_6.stopped,text_2.started,text_2.stopped,text_3.started,text_3.stopped,key_resp_3.keys,key_resp_3.rt,key_resp_3.started,key_resp_3.stopped,TaskBlock.started,TaskBlock.stopped,BlockNo1.started,BlockNo1.stopped,OfBlock.started,OfBlock.stopped,ISIjitter,ISImarker.started,ISImarker.stopped,key_resp.keys,key_resp.corr,key_resp.rt,key_resp.started,key_resp.stopped,FaceSet.started,FaceSet.stopped,Colour.started,Colour.stopped,EndBlockText.started,EndBlockText.stopped,key_resp_4.keys,key_resp_4.rt,key_resp_4.started,key_resp_4.stopped,BreakText2.started,BreakText2.stopped,PressToContinue.started,PressToContinue.stopped,participant,Study Name,Task Version (required to run),PRE/POST,date,expName,psychopyVersion,frameRate,
,,,,,,,,,,,,,,,,,,,,,,,,,,,,,,,,,94.95428609999362,None,space,9.022471499978565,95.94492809998337,None,,,,,,,,,,,,,,,,,,,,,,,,,,,,,,,,,,,,,,,,,,,,,,,,,,,,,,,,,,,,,,,,,,,,,,,,,,,,,,,,,,,,,,,,,,,,,,,P002,fencog,2,Pre,2021_Jun_28_1047,Go No-Go Task,2021.1.4,120.55033626319849,
,,,,,,,,,,,,,,,,,,,,,,,,,,,,,,,,,,,,,,,106.47061910002958,None,space,52.92937579995487,106.47061910002958,None,,,,,,,,,,,,,,,,,,,,,,,,,,,,,,,,,,,,,,,,,,,,,,,,,,,,,,,,,,,,,,,,,,,,,,,,,,,,,,,,,,,,,,,,,P002,fencog,2,Pre,2021_Jun_28_1047,Go No-Go Task,2021.1.4,120.55033626319849,
,,,,,,,,,,,,,,,,,,,,,,,,,,,,,,,,,,,,,,,,,,,,,159.46391719998792,None,space,8.455529600032605,159.46391719998792,None,,,,,,,,,,,,,,,,,,,,,,,,,,,,,,,,,,,,,,,,,,,,,,,,,,,,,,,,,,,,,,,,,,,,,,,,,,,,,,,,,,,P002,fencog,2,Pre,2021_Jun_28_1047,Go No-Go Task,2021.1.4,120.55033626319849,
,,,,,,,,,,,,,,,,,,,,,,,,,,,,,,,,,,,,,,,,,,,,,,,,,,,167.9369594999589,None,space,2.13442869996652,167.9369594999589,None,,,,,,,,,,,,,,,,,,,,,,,,,,,,,,,,,,,,,,,,,,,,,,,,,,,,,,,,,,,,,,,,,,,,,,,,,,,,,P002,fencog,2,Pre,2021_Jun_28_1047,Go No-Go Task,2021.1.4,120.55033626319849,
EPracticeConditions/BlueEyes.csv,"Rule: When you see a blue image, do not press 'spacebar'.",Images/Happy/HF04_HE.jpg,Happy,Yellow,Images/Yellow.jpg,space,,,,,,,0,0,0,0,0,0,0,4,,,,,,,,,,,,,,,,,,,,,,,,,,,,,,,,,,,,,170.16269369993825,None,173.1552751000272,None,space,0.6837307999376208,173.1552751000272,None,170.16269369993825,None,170.16269369993825,None,170.16269369993825,None,1.9,173.96643219992984,None,space,1,0.22532770002726465,176.0299345999956,None,176.0299345999956,None,176.0299345999956,None,177.43667990004178,None,,,,,,,,,,,,,,,,,,,,,,,,,,,,,,,,,,,,,,,,,,,,,,,,,P002,fencog,2,Pre,2021_Jun_28_1047,Go No-Go Task,2021.1.4,120.55033626319849,
EPracticeConditions/BlueEyes.csv,"Rule: When you see a blue image, do not press 'spacebar'.",Images/Fearful/AF01_FO.jpg,Fear,Blue,Images/Blue.jpg,None,,,,,,,0,0,0,0,0,1,1,1,,,,,,,,,,,,,,,,,,,,,,,,,,,,,,,,,,,,,,,,,,,,,,,,,,,1.2,178.90617920004297,None,None,1,,180.21251770004164,None,180.21251770004164,None,180.21251770004164,None,181.1026547999354,None,,,,,,,,,,,,,,,,,,,,,,,,,,,,,,,,,,,,,,,,,,,,,,,,,P002,fencog,2,Pre,2021_Jun_28_1047,Go No-Go Task,2021.1.4,120.55033626319849,
EPracticeConditions/BlueEyes.csv,"Rule: When you see a blue image, do not press 'spacebar'.",Images/Happy/HF10_HE.jpg,Happy,Yellow,Images/Yellow.jpg,space,,,,,,,0,0,0,0,0,2,2,7,,,,,,,,,,,,,,,,,,,,,,,,,,,,,,,,,,,,,,,,,,,,,,,,,,,1.6,183.1024691000348,None,space,1,0.28456140006892383,184.80281040002592,None,184.80281040002592,None,184.80281040002592,None,185.6929272999987,None,,,,,,,,,,,,,,,,,,,,,,,,,,,,,,,,,,,,,,,,,,,,,,,,,P002,fencog,2,Pre,2021_Jun_28_1047,Go No-Go Task,2021.1.4,120.55033626319849,
EPracticeConditions/BlueEyes.csv,"Rule: When you see a blue image, do not press 'spacebar'.",Images/Happy/HF05_HO.jpg,Happy,Yellow,Images/Yellow.jpg,space,,,,,,,0,0,0,0,0,3,3,5,,,,,,,,,,,,,,,,,,,,,,,,,,,,,,,,,,,,,,,,,,,,,,,,,,,1.5,187.6925986999413,None,None,0,,189.29307909996714,None,189.29307909996714,None,189.29307909996714,None,190.20710869994946,None,,,,,,,,,,,,,,,,,,,,,,,,,,,,,,,,,,,,,,,,,,,,,,,,,P002,fencog,2,Pre,2021_Jun_28_1047,Go No-Go Task,2021.1.4,120.55033626319849,
EPracticeConditions/BlueEyes.csv,"Rule: When you see a blue image, do not press 'spacebar'.",Images/Fearful/HM09_FC.jpg,Fear,Blue,Images/Blue.jpg,None,,,,,,,0,0,0,0,0,4,4,0,,,,,,,,,,,,,,,,,,,,,,,,,,,,,,,,,,,,,,,,,,,,,,,,,,,1.4,192.1997120999731,None,space,0,0.17150549998041242,193.70007869997062,None,193.70007869997062,None,193.70007869997062,None,194.6036776000401,None,,,,,,,,,,,,,,,,,,,,,,,,,,,,,,,,,,,,,,,,,,,,,,,,,P002,fencog,2,Pre,2021_Jun_28_1047,Go No-Go Task,2021.1.4,120.55033626319849,
EPracticeConditions/BlueEyes.csv,"Rule: When you see a blue image, do not press 'spacebar'.",Images/Happy/BM08_HO.jpg,Happy,Yellow,Images/Yellow.jpg,space,,,,,,,0,0,0,0,0,5,5,3,,,,,,,,,,,,,,,,,,,,,,,,,,,,,,,,,,,,,,,,,,,,,,,,,,,1.3,196.6067474000156,None,space,1,0.36040080001112074,197.99906189995818,None,197.99906189995818,None,197.99906189995818,None,198.9113170999335,None,,,,,,,,,,,,,,,,,,,,,,,,,,,,,,,,,,,,,,,,,,,,,,,,,P002,fencog,2,Pre,2021_Jun_28_1047,Go No-Go Task,2021.1.4,120.55033626319849,
EPracticeConditions/BlueEyes.csv,"Rule: When you see a blue image, do not press 'spacebar'.",Images/Happy/HF09_HE.jpg,Happy,Yellow,Images/Yellow.jpg,space,,,,,,,0,0,0,0,0,6,6,6,,,,,,,,,,,,,,,,,,,,,,,,,,,,,,,,,,,,,,,,,,,,,,,,,,,1.8,200.91392139997333,None,space,1,0.3374504999956116,202.81414559995756,None,202.81414559995756,None,202.81414559995756,None,203.71836900000926,None,,,,,,,,,,,,,,,,,,,,,,,,,,,,,,,,,,,,,,,,,,,,,,,,,P002,fencog,2,Pre,2021_Jun_28_1047,Go No-Go Task,2021.1.4,120.55033626319849,
EPracticeConditions/BlueEyes.csv,"Rule: When you see a blue image, do not press 'spacebar'.",Images/Happy/BM02_HO.jpg,Happy,Yellow,Images/Yellow.jpg,space,,,,,,,0,0,0,0,0,7,7,2,,,,,,,,,,,,,,,,,,,,,,,,,,,,,,,,,,,,,,,,,,,,,,,,,,,1.7,205.72063090000302,None,space,1,0.3582563999807462,207.52103920001537,None,207.52103920001537,None,207.52103920001537,None,208.4172644999344,None,,,,,,,,,,,,,,,,,,,,,,,,,,,,,,,,,,,,,,,,,,,,,,,,,P002,fencog,2,Pre,2021_Jun_28_1047,Go No-Go Task,2021.1.4,120.55033626319849,
EPracticeConditions/BlueEyes.csv,"Rule: When you see a blue image, do not press 'spacebar'.",,,,,,,,,,,,0,0,0,0,,,,,,,,,,,,,,,,,,,,,,,,,,,,,,,,,,,,,,,,,,,,,,,,,,,,,,,,,,,,,,,,,,,,,,,,,,,,,,,,,,,,,,,,,,,,,,,,,,,,,,,,,,,,,,,,,,,,,P002,fencog,2,Pre,2021_Jun_28_1047,Go No-Go Task,2021.1.4,120.55033626319849,
EPracticeConditions/YellowEyes.csv,"Rule: When you see a yellow image, do not press 'spacebar'.",Images/Fearful/AM24AFS.jpg,Fear,Blue,Images/Blue.jpg,space,,,,,,,0,1,1,1,0,0,0,7,,,,,,,,,,,,,,,,,,,,,,,,,,,,,,,,,,,,,210.43857919995207,None,213.42684730002657,None,space,0.5002187000354752,213.42684730002657,None,210.43857919995207,None,210.43857919995207,None,210.43857919995207,None,1.8,213.96105629997328,None,space,1,0.3547343999380246,215.86858879995998,None,215.86858879995998,None,215.86858879995998,None,216.7643388999859,None,,,,,,,,,,,,,,,,,,,,,,,,,,,,,,,,,,,,,,,,,,,,,,,,,P002,fencog,2,Pre,2021_Jun_28_1047,Go No-Go Task,2021.1.4,120.55033626319849,
EPracticeConditions/YellowEyes.csv,"Rule: When you see a yellow image, do not press 'spacebar'.",Images/Fearful/AM17AFS.jpg,Fear,Blue,Images/Blue.jpg,space,,,,,,,0,1,1,1,0,1,1,3,,,,,,,,,,,,,,,,,,,,,,,,,,,,,,,,,,,,,,,,,,,,,,,,,,,1.9,218.76699539995752,None,space,1,0.3355595999164507,220.76712239999324,None,220.76712239999324,None,220.76712239999324,None,221.66321040003095,None,,,,,,,,,,,,,,,,,,,,,,,,,,,,,,,,,,,,,,,,,,,,,,,,,P002,fencog,2,Pre,2021_Jun_28_1047,Go No-Go Task,2021.1.4,120.55033626319849,
EPracticeConditions/YellowEyes.csv,"Rule: When you see a yellow image, do not press 'spacebar'.",Images/Fearful/AM19AFS.jpg,Fear,Blue,Images/Blue.jpg,space,,,,,,,0,1,1,1,0,2,2,4,,,,,,,,,,,,,,,,,,,,,,,,,,,,,,,,,,,,,,,,,,,,,,,,,,,1.3,223.6653710999526,None,space,1,0.32572419999632984,225.06572259997483,None,225.06572259997483,None,225.06572259997483,None,225.96066540002357,None,,,,,,,,,,,,,,,,,,,,,,,,,,,,,,,,,,,,,,,,,,,,,,,,,P002,fencog,2,Pre,2021_Jun_28_1047,Go No-Go Task,2021.1.4,120.55033626319849,
EPracticeConditions/YellowEyes.csv,"Rule: When you see a yellow image, do not press 'spacebar'.",Images/Happy/AM32HAS.jpg,Happy,Yellow,Images/Yellow.jpg,None,,,,,,,0,1,1,1,0,3,3,0,,,,,,,,,,,,,,,,,,,,,,,,,,,,,,,,,,,,,,,,,,,,,,,,,,,1.6,227.96807509998325,None,None,1,,229.6645096000284,None,229.6645096000284,None,229.6645096000284,None,230.55822010000702,None,,,,,,,,,,,,,,,,,,,,,,,,,,,,,,,,,,,,,,,,,,,,,,,,,P002,fencog,2,Pre,2021_Jun_28_1047,Go No-Go Task,2021.1.4,120.55033626319849,
EPracticeConditions/YellowEyes.csv,"Rule: When you see a yellow image, do not press 'spacebar'.",Images/Happy/BF05_HO.jpg,Happy,Yellow,Images/Yellow.jpg,None,,,,,,,0,1,1,1,0,4,4,1,,,,,,,,,,,,,,,,,,,,,,,,,,,,,,,,,,,,,,,,,,,,,,,,,,,1.4,232.562550200033,None,space,0,0.3688297000480816,234.06319140002597,None,234.06319140002597,None,234.06319140002597,None,234.96854849997908,None,,,,,,,,,,,,,,,,,,,,,,,,,,,,,,,,,,,,,,,,,,,,,,,,,P002,fencog,2,Pre,2021_Jun_28_1047,Go No-Go Task,2021.1.4,120.55033626319849,
EPracticeConditions/YellowEyes.csv,"Rule: When you see a yellow image, do not press 'spacebar'.",Images/Fearful/AM23AFS.jpg,Fear,Blue,Images/Blue.jpg,space,,,,,,,0,1,1,1,0,5,5,6,,,,,,,,,,,,,,,,,,,,,,,,,,,,,,,,,,,,,,,,,,,,,,,,,,,1.5,236.96955239993986,None,space,1,0.26112599996849895,238.57006119994912,None,238.57006119994912,None,238.57006119994912,None,239.46265609993134,None,,,,,,,,,,,,,,,,,,,,,,,,,,,,,,,,,,,,,,,,,,,,,,,,,P002,fencog,2,Pre,2021_Jun_28_1047,Go No-Go Task,2021.1.4,120.55033626319849,
EPracticeConditions/YellowEyes.csv,"Rule: When you see a yellow image, do not press 'spacebar'.",Images/Fearful/AM22AFS.jpg,Fear,Blue,Images/Blue.jpg,space,,,,,,,0,1,1,1,0,6,6,5,,,,,,,,,,,,,,,,,,,,,,,,,,,,,,,,,,,,,,,,,,,,,,,,,,,1.7,241.47125229996163,None,space,1,0.32197739998809993,243.27714849996846,None,243.27714849996846,None,243.27714849996846,None,244.17412929993588,None,,,,,,,,,,,,,,,,,,,,,,,,,,,,,,,,,,,,,,,,,,,,,,,,,P002,fencog,2,Pre,2021_Jun_28_1047,Go No-Go Task,2021.1.4,120.55033626319849,
EPracticeConditions/YellowEyes.csv,"Rule: When you see a yellow image, do not press 'spacebar'.",Images/Fearful/AM16AFS.jpg,Fear,Blue,Images/Blue.jpg,space,,,,,,,0,1,1,1,0,7,7,2,,,,,,,,,,,,,,,,,,,,,,,,,,,,,,,,,,,,,,,,,,,,,,,,,,,1.2,246.17583540000487,None,space,1,0.3315063000191003,247.4758598000044,None,247.4758598000044,None,247.4758598000044,None,248.3734114000108,None,,,,,,,,,,,,,,,,,,,,,,,,,,,,,,,,,,,,,,,,,,,,,,,,,P002,fencog,2,Pre,2021_Jun_28_1047,Go No-Go Task,2021.1.4,120.55033626319849,
EPracticeConditions/YellowEyes.csv,"Rule: When you see a yellow image, do not press 'spacebar'.",,,,,,,,,,,,0,1,1,1,,,,,,,,,,,,,,,,,,,,,,,,,,,,,,,,,,,,,,,,,,,,,,,,,,,,,,,,,,,,,,,,,,,,,,,,,,,,,,,,,,,,,,,,,,,,,,,,,,,,,,,,,,,,,,,,,,,,,P002,fencog,2,Pre,2021_Jun_28_1047,Go No-Go Task,2021.1.4,120.55033626319849,
EPracticeConditions/BlueScram.csv,"Rule: When you see a blue image, do not press 'spacebar'.",Images/Scram1/BF18_NC.jpg,Scramble,Blue,Images/Blue.jpg,None,,,,,,,0,2,2,2,0,0,0,1,,,,,,,,,,,,,,,,,,,,,,,,,,,,,,,,,,,,,250.3869815999642,None,253.3733487999998,None,space,0.28983949997927994,253.3733487999998,None,250.3869815999642,None,250.3869815999642,None,250.3869815999642,None,1.7,253.68504989997018,None,space,0,0.34099080006126314,255.49016599997412,None,255.49016599997412,None,255.49016599997412,None,256.38909890002105,None,,,,,,,,,,,,,,,,,,,,,,,,,,,,,,,,,,,,,,,,,,,,,,,,,P002,fencog,2,Pre,2021_Jun_28_1047,Go No-Go Task,2021.1.4,120.55033626319849,
EPracticeConditions/BlueScram.csv,"Rule: When you see a blue image, do not press 'spacebar'.",Images/Scram2/AF25NES.jpg,Scramble,Yellow,Images/Yellow.jpg,space,,,,,,,0,2,2,2,0,1,1,7,,,,,,,,,,,,,,,,,,,,,,,,,,,,,,,,,,,,,,,,,,,,,,,,,,,1.4,258.38980959996115,None,space,1,0.29392089997418225,259.89725809998345,None,259.89725809998345,None,259.89725809998345,None,260.79663909994997,None,,,,,,,,,,,,,,,,,,,,,,,,,,,,,,,,,,,,,,,,,,,,,,,,,P002,fencog,2,Pre,2021_Jun_28_1047,Go No-Go Task,2021.1.4,120.55033626319849,
EPracticeConditions/BlueScram.csv,"Rule: When you see a blue image, do not press 'spacebar'.",Images/Scram1/AM04_NC.jpg,Scramble,Yellow,Images/Yellow.jpg,space,,,,,,,0,2,2,2,0,2,2,3,,,,,,,,,,,,,,,,,,,,,,,,,,,,,,,,,,,,,,,,,,,,,,,,,,,1.6,262.80365399993025,None,space,1,0.3349822999443859,264.49581600003876,None,264.49581600003876,None,264.49581600003876,None,265.39046519994736,None,,,,,,,,,,,,,,,,,,,,,,,,,,,,,,,,,,,,,,,,,,,,,,,,,P002,fencog,2,Pre,2021_Jun_28_1047,Go No-Go Task,2021.1.4,120.55033626319849,
EPracticeConditions/BlueScram.csv,"Rule: When you see a blue image, do not press 'spacebar'.",Images/Scram2/AM03_NC.jpg,Scramble,Yellow,Images/Yellow.jpg,space,,,,,,,0,2,2,2,0,3,3,6,,,,,,,,,,,,,,,,,,,,,,,,,,,,,,,,,,,,,,,,,,,,,,,,,,,1.3,267.39585969992913,None,None,0,,268.8028598999372,None,268.8028598999372,None,268.8028598999372,None,269.70912649994716,None,,,,,,,,,,,,,,,,,,,,,,,,,,,,,,,,,,,,,,,,,,,,,,,,,P002,fencog,2,Pre,2021_Jun_28_1047,Go No-Go Task,2021.1.4,120.55033626319849,
EPracticeConditions/BlueScram.csv,"Rule: When you see a blue image, do not press 'spacebar'.",Images/Scram1/BM08_NC.jpg,Scramble,Blue,Images/Blue.jpg,None,,,,,,,0,2,2,2,0,4,4,0,,,,,,,,,,,,,,,,,,,,,,,,,,,,,,,,,,,,,,,,,,,,,,,,,,,1.5,271.7094624999445,None,None,1,,273.309860899928,None,273.309860899928,None,273.309860899928,None,274.2140395999886,None,,,,,,,,,,,,,,,,,,,,,,,,,,,,,,,,,,,,,,,,,,,,,,,,,P002,fencog,2,Pre,2021_Jun_28_1047,Go No-Go Task,2021.1.4,120.55033626319849,
EPracticeConditions/BlueScram.csv,"Rule: When you see a blue image, do not press 'spacebar'.",Images/Scram1/AM03NES.jpg,Scramble,Yellow,Images/Yellow.jpg,space,,,,,,,0,2,2,2,0,5,5,4,,,,,,,,,,,,,,,,,,,,,,,,,,,,,,,,,,,,,,,,,,,,,,,,,,,1.2,276.2164109000005,None,space,1,0.29821689997334033,277.5170214000391,None,277.5170214000391,None,277.5170214000391,None,278.41118039994035,None,,,,,,,,,,,,,,,,,,,,,,,,,,,,,,,,,,,,,,,,,,,,,,,,,P002,fencog,2,Pre,2021_Jun_28_1047,Go No-Go Task,2021.1.4,120.55033626319849,
EPracticeConditions/BlueScram.csv,"Rule: When you see a blue image, do not press 'spacebar'.",Images/Scram2/AF10_NC.jpg,Scramble,Yellow,Images/Yellow.jpg,space,,,,,,,0,2,2,2,0,6,6,2,,,,,,,,,,,,,,,,,,,,,,,,,,,,,,,,,,,,,,,,,,,,,,,,,,,1.8,280.41965419996995,None,space,1,0.33146390004549176,282.32387299998663,None,282.32387299998663,None,282.32387299998663,None,283.22165329998825,None,,,,,,,,,,,,,,,,,,,,,,,,,,,,,,,,,,,,,,,,,,,,,,,,,P002,fencog,2,Pre,2021_Jun_28_1047,Go No-Go Task,2021.1.4,120.55033626319849,
EPracticeConditions/BlueScram.csv,"Rule: When you see a blue image, do not press 'spacebar'.",Images/Scram1/AM13NES.jpg,Scramble,Yellow,Images/Yellow.jpg,space,,,,,,,0,2,2,2,0,7,7,5,,,,,,,,,,,,,,,,,,,,,,,,,,,,,,,,,,,,,,,,,,,,,,,,,,,1.9,285.2292501999764,None,None,0,,287.2307249000296,None,287.2307249000296,None,287.2307249000296,None,288.13682469993364,None,,,,,,,,,,,,,,,,,,,,,,,,,,,,,,,,,,,,,,,,,,,,,,,,,P002,fencog,2,Pre,2021_Jun_28_1047,Go No-Go Task,2021.1.4,120.55033626319849,
EPracticeConditions/BlueScram.csv,"Rule: When you see a blue image, do not press 'spacebar'.",,,,,,,,,,,,0,2,2,2,,,,,,,,,,,,,,,,,,,,,,,,,,,,,,,,,,,,,,,,,,,,,,,,,,,,,,,,,,,,,,,,,,,,,,,,,,,,,,,,,,,,,,,,,,,,,,,,,,,,,,,,,,,,,,,,,,,,,P002,fencog,2,Pre,2021_Jun_28_1047,Go No-Go Task,2021.1.4,120.55033626319849,
EPracticeConditions/YellowScram.csv,"Rule: When you see a yellow image, do not press 'spacebar'.",Images/Scram1/BM01_NC.jpg,Scramble,Blue,Images/Blue.jpg,space,,,,,,,0,3,3,3,0,0,0,5,,,,,,,,,,,,,,,,,,,,,,,,,,,,,,,,,,,,,290.14602420001756,None,293.13665520003997,None,space,0.44647009996697307,293.13665520003997,None,290.14602420001756,None,290.14602420001756,None,290.14602420001756,None,1.6,293.605211099959,None,space,1,0.375521200010553,295.3199129999848,None,295.3199129999848,None,295.3199129999848,None,296.21028609992936,None,,,,,,,,,,,,,,,,,,,,,,,,,,,,,,,,,,,,,,,,,,,,,,,,,P002,fencog,2,Pre,2021_Jun_28_1047,Go No-Go Task,2021.1.4,120.55033626319849,
EPracticeConditions/YellowScram.csv,"Rule: When you see a yellow image, do not press 'spacebar'.",Images/Scram2/AM03NES.jpg,Scramble,Yellow,Images/Yellow.jpg,None,,,,,,,0,3,3,3,0,1,1,1,,,,,,,,,,,,,,,,,,,,,,,,,,,,,,,,,,,,,,,,,,,,,,,,,,,1.4,298.2101263999939,None,None,1,,299.70204669993836,None,299.70204669993836,None,299.70204669993836,None,300.5925509999506,None,,,,,,,,,,,,,,,,,,,,,,,,,,,,,,,,,,,,,,,,,,,,,,,,,P002,fencog,2,Pre,2021_Jun_28_1047,Go No-Go Task,2021.1.4,120.55033626319849,
EPracticeConditions/YellowScram.csv,"Rule: When you see a yellow image, do not press 'spacebar'.",Images/Scram1/AF30NES.JPG,Scramble,Blue,Images/Blue.jpg,space,,,,,,,0,3,3,3,0,2,2,4,,,,,,,,,,,,,,,,,,,,,,,,,,,,,,,,,,,,,,,,,,,,,,,,,,,1.3,302.59331909997854,None,space,1,0.2696599999908358,304.00085309997667,None,304.00085309997667,None,304.00085309997667,None,304.8963296000147,None,,,,,,,,,,,,,,,,,,,,,,,,,,,,,,,,,,,,,,,,,,,,,,,,,P002,fencog,2,Pre,2021_Jun_28_1047,Go No-Go Task,2021.1.4,120.55033626319849,
EPracticeConditions/YellowScram.csv,"Rule: When you see a yellow image, do not press 'spacebar'.",Images/Scram1/HF04_NC.jpg,Scramble,Blue,Images/Blue.jpg,space,,,,,,,0,3,3,3,0,3,3,2,,,,,,,,,,,,,,,,,,,,,,,,,,,,,,,,,,,,,,,,,,,,,,,,,,,1.9,306.90338759997394,None,space,1,0.3153981000650674,308.90770390001126,None,308.90770390001126,None,308.90770390001126,None,309.80432230001315,None,,,,,,,,,,,,,,,,,,,,,,,,,,,,,,,,,,,,,,,,,,,,,,,,,P002,fencog,2,Pre,2021_Jun_28_1047,Go No-Go Task,2021.1.4,120.55033626319849,
EPracticeConditions/YellowScram.csv,"Rule: When you see a yellow image, do not press 'spacebar'.",Images/Scram2/HM06_NC.jpg,Scramble,Yellow,Images/Yellow.jpg,None,,,,,,,0,3,3,3,0,4,4,0,,,,,,,,,,,,,,,,,,,,,,,,,,,,,,,,,,,,,,,,,,,,,,,,,,,1.7,311.80832219996955,None,None,1,,313.614636000013,None,313.614636000013,None,313.614636000013,None,314.51056049996987,None,,,,,,,,,,,,,,,,,,,,,,,,,,,,,,,,,,,,,,,,,,,,,,,,,P002,fencog,2,Pre,2021_Jun_28_1047,Go No-Go Task,2021.1.4,120.55033626319849,
EPracticeConditions/YellowScram.csv,"Rule: When you see a yellow image, do not press 'spacebar'.",Images/Scram1/AF10_NC.jpg,Scramble,Blue,Images/Blue.jpg,space,,,,,,,0,3,3,3,0,5,5,6,,,,,,,,,,,,,,,,,,,,,,,,,,,,,,,,,,,,,,,,,,,,,,,,,,,1.8,316.5136342999758,None,space,1,0.22590129997115582,318.4132716000313,None,318.4132716000313,None,318.4132716000313,None,319.3232699999353,None,,,,,,,,,,,,,,,,,,,,,,,,,,,,,,,,,,,,,,,,,,,,,,,,,P002,fencog,2,Pre,2021_Jun_28_1047,Go No-Go Task,2021.1.4,120.55033626319849,
EPracticeConditions/YellowScram.csv,"Rule: When you see a yellow image, do not press 'spacebar'.",Images/Scram1/AF24NES.jpg,Scramble,Blue,Images/Blue.jpg,space,,,,,,,0,3,3,3,0,6,6,7,,,,,,,,,,,,,,,,,,,,,,,,,,,,,,,,,,,,,,,,,,,,,,,,,,,1.2,321.3282202000264,None,None,0,,322.628423999995,None,322.628423999995,None,322.628423999995,None,323.5279060000321,None,,,,,,,,,,,,,,,,,,,,,,,,,,,,,,,,,,,,,,,,,,,,,,,,,P002,fencog,2,Pre,2021_Jun_28_1047,Go No-Go Task,2021.1.4,120.55033626319849,
EPracticeConditions/YellowScram.csv,"Rule: When you see a yellow image, do not press 'spacebar'.",Images/Scram1/AF07NES.jpg,Scramble,Blue,Images/Blue.jpg,space,,,,,,,0,3,3,3,0,7,7,3,,,,,,,,,,,,,,,,,,,,,,,,,,,,,,,,,,,,,,,,,,,,,,,,,,,1.5,325.5352200999623,None,space,1,0.3594654999906197,327.13561899994966,None,327.13561899994966,None,327.13561899994966,None,328.04071979993023,None,,,,,,,,,,,,,,,,,,,,,,,,,,,,,,,,,,,,,,,,,,,,,,,,,P002,fencog,2,Pre,2021_Jun_28_1047,Go No-Go Task,2021.1.4,120.55033626319849,
EPracticeConditions/YellowScram.csv,"Rule: When you see a yellow image, do not press 'spacebar'.",,,,,,,,,,,,0,3,3,3,,,,,,,,,,,,,,,,,,,,,,,,,,,,,,,,,,,,,,,,,,,,,,,,,,,,,,,,,,,,,,,,,,,,,,,,,,,,,,,,,,,,,,,,,,,,,,,,,,,,,,,,,,,,,,,,,,,,,P002,fencog,2,Pre,2021_Jun_28_1047,Go No-Go Task,2021.1.4,120.55033626319849,
,,,,,,,,,,,,,,,,,,,,,,,,,,,,,,,,,,,,,,,,,,,,,,,,,,,,,,,,,,,,,,,,,,,,,,,,,,,,,,,,,,,,,331.4113153000362,None,space,1.850121899973601,331.8926167000318,None,,,,,,,,,,,,,,,,,,,,,,,,,,,,,,,,,,,,,,,,,,,P002,fencog,2,Pre,2021_Jun_28_1047,Go No-Go Task,2021.1.4,120.55033626319849,
,,,,,,,,,,,,,,,,,,,,,,,,,,,,,,,,,,,,,,,,,,,,,,,,,,,,,,,,,,,,,,,,,,,,,,,,,,,,,,,,,,,,,,,,,,,333.75155169994105,None,space,2.031641499954276,333.75155169994105,None,,,,,,,,,,,,,,,,,,,,,,,,,,,,,,,,,,,,,P002,fencog,2,Pre,2021_Jun_28_1047,Go No-Go Task,2021.1.4,120.55033626319849,
,"Rule: When you see a yellow image, do not press 'spacebar'.",Images/Happy/BF09_HO.jpg,Happy,Blue,Images/Blue.jpg,space,ParentConditions/YellowYellowBlue_v2.xlsx,YellowYellowBlue,Conditions/Version_2/YellowFearStop.xlsx,no,PASS,0.2009685743777515,,,,,,,,,0,0,0,1,0,0,0,0,0,0,0,0,,,,,,,,,,,,,,,,,,,,,,,,,,,,,,,,,,,,,,,,,,,,,,,,,,,,,,,,,,,,,,,,,335.8534682999598,None,338.84006980003323,None,space,0.7518720999360085,338.84006980003323,None,335.8534682999598,None,335.8534682999598,None,335.8534682999598,None,1.76,339.64047889993526,None,space,1,0.33311710006091744,341.50625330000184,None,341.50625330000184,None,341.50625330000184,None,,,,,,,,,,,P002,fencog,2,Pre,2021_Jun_28_1047,Go No-Go Task,2021.1.4,120.55033626319849,
,"Rule: When you see a yellow image, do not press 'spacebar'.",Images/Happy/AF30HAS.jpg,Happy,Blue,Images/Blue.jpg,space,ParentConditions/YellowYellowBlue_v2.xlsx,YellowYellowBlue,Conditions/Version_2/YellowFearStop.xlsx,no,PASS,0.9679561444510932,,,,,,,,,0,0,0,1,0,0,0,0,0,1,1,1,,,,,,,,,,,,,,,,,,,,,,,,,,,,,,,,,,,,,,,,,,,,,,,,,,,,,,,,,,,,,,,,,,,,,,,,,,,,,,,1.77,341.90546239994,None,space,1,0.23473770008422434,343.7889287000289,None,343.7889287000289,None,343.7889287000289,None,,,,,,,,,,,P002,fencog,2,Pre,2021_Jun_28_1047,Go No-Go Task,2021.1.4,120.55033626319849,
,"Rule: When you see a yellow image, do not press 'spacebar'.",Images/Happy/AF27HAS.jpg,Happy,Blue,Images/Blue.jpg,space,ParentConditions/YellowYellowBlue_v2.xlsx,YellowYellowBlue,Conditions/Version_2/YellowFearStop.xlsx,no,PASS,0.024466481670397555,,,,,,,,,0,0,0,1,0,0,0,0,0,2,2,2,,,,,,,,,,,,,,,,,,,,,,,,,,,,,,,,,,,,,,,,,,,,,,,,,,,,,,,,,,,,,,,,,,,,,,,,,,,,,,,1.42,344.1882106999401,None,space,1,0.32572319998871535,345.7133924999507,None,345.7133924999507,None,345.7133924999507,None,,,,,,,,,,,P002,fencog,2,Pre,2021_Jun_28_1047,Go No-Go Task,2021.1.4,120.55033626319849,
,"Rule: When you see a yellow image, do not press 'spacebar'.",Images/Happy/AF22HAS.jpg,Happy,Blue,Images/Blue.jpg,space,ParentConditions/YellowYellowBlue_v2.xlsx,YellowYellowBlue,Conditions/Version_2/YellowFearStop.xlsx,no,PASS,0.900419425166189,,,,,,,,,0,0,0,1,0,0,0,0,0,3,3,3,,,,,,,,,,,,,,,,,,,,,,,,,,,,,,,,,,,,,,,,,,,,,,,,,,,,,,,,,,,,,,,,,,,,,,,,,,,,,,,1.94,346.1143960999325,None,space,1,0.3005006000166759,348.1543777999468,None,348.1543777999468,None,348.1543777999468,None,,,,,,,,,,,P002,fencog,2,Pre,2021_Jun_28_1047,Go No-Go Task,2021.1.4,120.55033626319849,
,"Rule: When you see a yellow image, do not press 'spacebar'.",Images/Happy/WM11_HC.jpg,Happy,Blue,Images/Blue.jpg,space,ParentConditions/YellowYellowBlue_v2.xlsx,YellowYellowBlue,Conditions/Version_2/YellowFearStop.xlsx,no,PASS,0.5042081063795358,,,,,,,,,0,0,0,1,0,0,0,0,0,4,4,4,,,,,,,,,,,,,,,,,,,,,,,,,,,,,,,,,,,,,,,,,,,,,,,,,,,,,,,,,,,,,,,,,,,,,,,,,,,,,,,1.79,348.55478440003935,None,space,1,0.31311280000954866,350.44538249995094,None,350.44538249995094,None,350.44538249995094,None,,,,,,,,,,,P002,fencog,2,Pre,2021_Jun_28_1047,Go No-Go Task,2021.1.4,120.55033626319849,
,"Rule: When you see a yellow image, do not press 'spacebar'.",Images/Happy/BF05_HO.jpg,Happy,Blue,Images/Blue.jpg,space,ParentConditions/YellowYellowBlue_v2.xlsx,YellowYellowBlue,Conditions/Version_2/YellowFearStop.xlsx,no,PASS,0.6687720633168746,,,,,,,,,0,0,0,1,0,0,0,0,0,5,5,5,,,,,,,,,,,,,,,,,,,,,,,,,,,,,,,,,,,,,,,,,,,,,,,,,,,,,,,,,,,,,,,,,,,,,,,,,,,,,,,1.35,350.8446419000393,None,space,1,0.2716248999349773,352.294764899998,None,352.294764899998,None,352.294764899998,None,,,,,,,,,,,P002,fencog,2,Pre,2021_Jun_28_1047,Go No-Go Task,2021.1.4,120.55033626319849,
,"Rule: When you see a yellow image, do not press 'spacebar'.",Images/Fearful/AM01AFS.jpg,Fear,Yellow,Images/Yellow.jpg,None,ParentConditions/YellowYellowBlue_v2.xlsx,YellowYellowBlue,Conditions/Version_2/YellowFearStop.xlsx,yes,PASS,0.008120847249678764,,,,,,,,,0,0,0,1,0,0,0,0,0,6,6,6,,,,,,,,,,,,,,,,,,,,,,,,,,,,,,,,,,,,,,,,,,,,,,,,,,,,,,,,,,,,,,,,,,,,,,,,,,,,,,,2,352.6966361999512,None,space,0,0.14923420001287013,354.79408859997056,None,354.79408859997056,None,354.79408859997056,None,,,,,,,,,,,P002,fencog,2,Pre,2021_Jun_28_1047,Go No-Go Task,2021.1.4,120.55033626319849,
,"Rule: When you see a yellow image, do not press 'spacebar'.",Images/Happy/AF23HAS.jpg,Happy,Blue,Images/Blue.jpg,space,ParentConditions/YellowYellowBlue_v2.xlsx,YellowYellowBlue,Conditions/Version_2/YellowFearStop.xlsx,no,PASS,0.07023198870971747,,,,,,,,,0,0,0,1,0,0,0,0,0,7,7,7,,,,,,,,,,,,,,,,,,,,,,,,,,,,,,,,,,,,,,,,,,,,,,,,,,,,,,,,,,,,,,,,,,,,,,,,,,,,,,,1.52,355.19435529992916,None,space,1,0.2125884999986738,356.81846560002305,None,356.81846560002305,None,356.81846560002305,None,,,,,,,,,,,P002,fencog,2,Pre,2021_Jun_28_1047,Go No-Go Task,2021.1.4,120.55033626319849,
,"Rule: When you see a yellow image, do not press 'spacebar'.",Images/Happy/AM16HAS.jpg,Happy,Blue,Images/Blue.jpg,space,ParentConditions/YellowYellowBlue_v2.xlsx,YellowYellowBlue,Conditions/Version_2/YellowFearStop.xlsx,no,PASS,0.031804034281165405,,,,,,,,,0,0,0,1,0,0,0,0,0,8,8,8,,,,,,,,,,,,,,,,,,,,,,,,,,,,,,,,,,,,,,,,,,,,,,,,,,,,,,,,,,,,,,,,,,,,,,,,,,,,,,,1.22,357.21749920002185,None,space,1,0.25552630005404353,358.55133869999554,None,358.55133869999554,None,358.55133869999554,None,,,,,,,,,,,P002,fencog,2,Pre,2021_Jun_28_1047,Go No-Go Task,2021.1.4,120.55033626319849,
,"Rule: When you see a yellow image, do not press 'spacebar'.",Images/Happy/AM04HAS.jpg,Happy,Blue,Images/Blue.jpg,space,ParentConditions/YellowYellowBlue_v2.xlsx,YellowYellowBlue,Conditions/Version_2/YellowFearStop.xlsx,no,PASS,0.0002121348500070397,,,,,,,,,0,0,0,1,0,0,0,0,0,9,9,9,,,,,,,,,,,,,,,,,,,,,,,,,,,,,,,,,,,,,,,,,,,,,,,,,,,,,,,,,,,,,,,,,,,,,,,,,,,,,,,1.26,358.9600174999796,None,space,1,0.3372483999701217,360.32578179996926,None,360.32578179996926,None,360.32578179996926,None,,,,,,,,,,,P002,fencog,2,Pre,2021_Jun_28_1047,Go No-Go Task,2021.1.4,120.55033626319849,
,"Rule: When you see a yellow image, do not press 'spacebar'.",Images/Happy/AF26HAS.jpg,Happy,Blue,Images/Blue.jpg,space,ParentConditions/YellowYellowBlue_v2.xlsx,YellowYellowBlue,Conditions/Version_2/YellowFearStop.xlsx,no,PASS,0.408079602030768,,,,,,,,,0,0,0,1,0,0,0,0,0,10,10,10,,,,,,,,,,,,,,,,,,,,,,,,,,,,,,,,,,,,,,,,,,,,,,,,,,,,,,,,,,,,,,,,,,,,,,,,,,,,,,,1.21,360.72629150003195,None,space,1,0.3411602999549359,362.0418867999688,None,362.0418867999688,None,362.0418867999688,None,,,,,,,,,,,P002,fencog,2,Pre,2021_Jun_28_1047,Go No-Go Task,2021.1.4,120.55033626319849,
,"Rule: When you see a yellow image, do not press 'spacebar'.",Images/Fearful/AF10_FC.jpg,Fear,Yellow,Images/Yellow.jpg,None,ParentConditions/YellowYellowBlue_v2.xlsx,YellowYellowBlue,Conditions/Version_2/YellowFearStop.xlsx,yes,PASS,0.43118367877877073,,,,,,,,,0,0,0,1,0,0,0,0,0,11,11,11,,,,,,,,,,,,,,,,,,,,,,,,,,,,,,,,,,,,,,,,,,,,,,,,,,,,,,,,,,,,,,,,,,,,,,,,,,,,,,,1.32,362.44144650001545,None,None,1,,363.8662197999656,None,363.8662197999656,None,363.8662197999656,None,,,,,,,,,,,P002,fencog,2,Pre,2021_Jun_28_1047,Go No-Go Task,2021.1.4,120.55033626319849,
,"Rule: When you see a yellow image, do not press 'spacebar'.",Images/Fearful/AM09_FO.jpg,Fear,Yellow,Images/Yellow.jpg,None,ParentConditions/YellowYellowBlue_v2.xlsx,YellowYellowBlue,Conditions/Version_2/YellowFearStop.xlsx,yes,PASS,0.25324381257324213,,,,,,,,,0,0,0,1,0,0,0,0,0,12,12,12,,,,,,,,,,,,,,,,,,,,,,,,,,,,,,,,,,,,,,,,,,,,,,,,,,,,,,,,,,,,,,,,,,,,,,,,,,,,,,,1.74,364.2674183000345,None,space,0,0.21293829998467118,366.09898989996873,None,366.09898989996873,None,366.09898989996873,None,,,,,,,,,,,P002,fencog,2,Pre,2021_Jun_28_1047,Go No-Go Task,2021.1.4,120.55033626319849,
,"Rule: When you see a yellow image, do not press 'spacebar'.",Images/Happy/HM04_HO.jpg,Happy,Blue,Images/Blue.jpg,space,ParentConditions/YellowYellowBlue_v2.xlsx,YellowYellowBlue,Conditions/Version_2/YellowFearStop.xlsx,no,PASS,0.4072425132028237,,,,,,,,,0,0,0,1,0,0,0,0,0,13,13,13,,,,,,,,,,,,,,,,,,,,,,,,,,,,,,,,,,,,,,,,,,,,,,,,,,,,,,,,,,,,,,,,,,,,,,,,,,,,,,,1.87,366.50525099993683,None,space,1,0.32530500006396323,368.4817087999545,None,368.4817087999545,None,368.4817087999545,None,,,,,,,,,,,P002,fencog,2,Pre,2021_Jun_28_1047,Go No-Go Task,2021.1.4,120.55033626319849,
,"Rule: When you see a yellow image, do not press 'spacebar'.",Images/Fearful/AM04_FO.jpg,Fear,Yellow,Images/Yellow.jpg,None,ParentConditions/YellowYellowBlue_v2.xlsx,YellowYellowBlue,Conditions/Version_2/YellowFearStop.xlsx,yes,PASS,0.7288256558461894,,,,,,,,,0,0,0,1,0,0,0,0,0,14,14,14,,,,,,,,,,,,,,,,,,,,,,,,,,,,,,,,,,,,,,,,,,,,,,,,,,,,,,,,,,,,,,,,,,,,,,,,,,,,,,,1.2,368.8806205999572,None,None,1,,370.18087699997704,None,370.18087699997704,None,370.18087699997704,None,,,,,,,,,,,P002,fencog,2,Pre,2021_Jun_28_1047,Go No-Go Task,2021.1.4,120.55033626319849,
,"Rule: When you see a yellow image, do not press 'spacebar'.",Images/Happy/AM13HAS.jpg,Happy,Blue,Images/Blue.jpg,space,ParentConditions/YellowYellowBlue_v2.xlsx,YellowYellowBlue,Conditions/Version_2/YellowFearStop.xlsx,no,PASS,0.9405484517370288,,,,,,,,,0,0,0,1,0,0,0,0,0,15,15,15,,,,,,,,,,,,,,,,,,,,,,,,,,,,,,,,,,,,,,,,,,,,,,,,,,,,,,,,,,,,,,,,,,,,,,,,,,,,,,,1.98,370.58612049999647,None,space,1,0.2708678999915719,372.6720664999448,None,372.6720664999448,None,372.6720664999448,None,,,,,,,,,,,P002,fencog,2,Pre,2021_Jun_28_1047,Go No-Go Task,2021.1.4,120.55033626319849,
,"Rule: When you see a yellow image, do not press 'spacebar'.",Images/Fearful/AF09AFS.jpg,Fear,Yellow,Images/Yellow.jpg,None,ParentConditions/YellowYellowBlue_v2.xlsx,YellowYellowBlue,Conditions/Version_2/YellowFearStop.xlsx,yes,PASS,0.6464881792541419,,,,,,,,,0,0,0,1,0,0,0,0,0,16,16,16,,,,,,,,,,,,,,,,,,,,,,,,,,,,,,,,,,,,,,,,,,,,,,,,,,,,,,,,,,,,,,,,,,,,,,,,,,,,,,,1.31,373.072586699971,None,None,1,,374.48830960004125,None,374.48830960004125,None,374.48830960004125,None,,,,,,,,,,,P002,fencog,2,Pre,2021_Jun_28_1047,Go No-Go Task,2021.1.4,120.55033626319849,
,"Rule: When you see a yellow image, do not press 'spacebar'.",Images/Fearful/BF05_FO.jpg,Fear,Yellow,Images/Yellow.jpg,None,ParentConditions/YellowYellowBlue_v2.xlsx,YellowYellowBlue,Conditions/Version_2/YellowFearStop.xlsx,yes,PASS,0.37509261462312704,,,,,,,,,0,0,0,1,0,0,0,0,0,17,17,17,,,,,,,,,,,,,,,,,,,,,,,,,,,,,,,,,,,,,,,,,,,,,,,,,,,,,,,,,,,,,,,,,,,,,,,,,,,,,,,1.73,374.88862129999325,None,None,1,,376.7208813999314,None,376.7208813999314,None,376.7208813999314,None,,,,,,,,,,,P002,fencog,2,Pre,2021_Jun_28_1047,Go No-Go Task,2021.1.4,120.55033626319849,
,"Rule: When you see a yellow image, do not press 'spacebar'.",Images/Happy/AM24HAS.jpg,Happy,Blue,Images/Blue.jpg,space,ParentConditions/YellowYellowBlue_v2.xlsx,YellowYellowBlue,Conditions/Version_2/YellowFearStop.xlsx,no,PASS,0.016158036932588105,,,,,,,,,0,0,0,1,0,0,0,0,0,18,18,18,,,,,,,,,,,,,,,,,,,,,,,,,,,,,,,,,,,,,,,,,,,,,,,,,,,,,,,,,,,,,,,,,,,,,,,,,,,,,,,1.85,377.12141469994094,None,space,1,0.3445645000319928,379.07849720004015,None,379.07849720004015,None,379.07849720004015,None,,,,,,,,,,,P002,fencog,2,Pre,2021_Jun_28_1047,Go No-Go Task,2021.1.4,120.55033626319849,
,"Rule: When you see a yellow image, do not press 'spacebar'.",Images/Fearful/AF11AFS.jpg,Fear,Yellow,Images/Yellow.jpg,None,ParentConditions/YellowYellowBlue_v2.xlsx,YellowYellowBlue,Conditions/Version_2/YellowFearStop.xlsx,yes,PASS,0.3371554357894605,,,,,,,,,0,0,0,1,0,0,0,0,0,19,19,19,,,,,,,,,,,,,,,,,,,,,,,,,,,,,,,,,,,,,,,,,,,,,,,,,,,,,,,,,,,,,,,,,,,,,,,,,,,,,,,1.96,379.4844834000105,None,space,0,0.2062532000709325,381.54449560004286,None,381.54449560004286,None,381.54449560004286,None,,,,,,,,,,,P002,fencog,2,Pre,2021_Jun_28_1047,Go No-Go Task,2021.1.4,120.55033626319849,
,"Rule: When you see a yellow image, do not press 'spacebar'.",Images/Happy/AF01_HE.jpg,Happy,Blue,Images/Blue.jpg,space,ParentConditions/YellowYellowBlue_v2.xlsx,YellowYellowBlue,Conditions/Version_2/YellowFearStop.xlsx,no,PASS,0.09770872574206646,,,,,,,,,0,0,0,1,0,0,0,0,0,20,20,20,,,,,,,,,,,,,,,,,,,,,,,,,,,,,,,,,,,,,,,,,,,,,,,,,,,,,,,,,,,,,,,,,,,,,,,,,,,,,,,1.83,381.9436410999624,None,space,1,0.2175567999947816,383.87705260002986,None,383.87705260002986,None,383.87705260002986,None,,,,,,,,,,,P002,fencog,2,Pre,2021_Jun_28_1047,Go No-Go Task,2021.1.4,120.55033626319849,
,"Rule: When you see a yellow image, do not press 'spacebar'.",Images/Happy/AM10_HO.jpg,Happy,Blue,Images/Blue.jpg,space,ParentConditions/YellowYellowBlue_v2.xlsx,YellowYellowBlue,Conditions/Version_2/YellowFearStop.xlsx,no,PASS,0.35803186882916893,,,,,,,,,0,0,0,1,0,0,0,0,0,21,21,21,,,,,,,,,,,,,,,,,,,,,,,,,,,,,,,,,,,,,,,,,,,,,,,,,,,,,,,,,,,,,,,,,,,,,,,,,,,,,,,1.63,384.2770981999347,None,None,0,,386.00157469999976,None,386.00157469999976,None,386.00157469999976,None,,,,,,,,,,,P002,fencog,2,Pre,2021_Jun_28_1047,Go No-Go Task,2021.1.4,120.55033626319849,
,"Rule: When you see a yellow image, do not press 'spacebar'.",Images/Happy/AF09HAS.jpg,Happy,Blue,Images/Blue.jpg,space,ParentConditions/YellowYellowBlue_v2.xlsx,YellowYellowBlue,Conditions/Version_2/YellowFearStop.xlsx,no,PASS,0.20902890792548556,,,,,,,,,0,0,0,1,0,0,0,0,0,22,22,22,,,,,,,,,,,,,,,,,,,,,,,,,,,,,,,,,,,,,,,,,,,,,,,,,,,,,,,,,,,,,,,,,,,,,,,,,,,,,,,1.33,386.4012088000309,None,space,1,0.34868199995253235,387.83429809997324,None,387.83429809997324,None,387.83429809997324,None,,,,,,,,,,,P002,fencog,2,Pre,2021_Jun_28_1047,Go No-Go Task,2021.1.4,120.55033626319849,
,"Rule: When you see a yellow image, do not press 'spacebar'.",Images/Happy/BM02_HO.jpg,Happy,Blue,Images/Blue.jpg,space,ParentConditions/YellowYellowBlue_v2.xlsx,YellowYellowBlue,Conditions/Version_2/YellowFearStop.xlsx,no,PASS,0.6732741052769042,,,,,,,,,0,0,0,1,0,0,0,0,0,23,23,23,,,,,,,,,,,,,,,,,,,,,,,,,,,,,,,,,,,,,,,,,,,,,,,,,,,,,,,,,,,,,,,,,,,,,,,,,,,,,,,1.81,388.24072839994915,None,space,1,0.27285930002108216,390.1502092999872,None,390.1502092999872,None,390.1502092999872,None,,,,,,,,,,,P002,fencog,2,Pre,2021_Jun_28_1047,Go No-Go Task,2021.1.4,120.55033626319849,
,"Rule: When you see a yellow image, do not press 'spacebar'.",Images/Happy/AM09_HE.jpg,Happy,Blue,Images/Blue.jpg,space,ParentConditions/YellowYellowBlue_v2.xlsx,YellowYellowBlue,Conditions/Version_2/YellowFearStop.xlsx,no,PASS,0.6065078221259242,,,,,,,,,0,0,0,1,0,0,0,0,0,24,24,24,,,,,,,,,,,,,,,,,,,,,,,,,,,,,,,,,,,,,,,,,,,,,,,,,,,,,,,,,,,,,,,,,,,,,,,,,,,,,,,1.41,390.55028880003374,None,space,1,0.3245957000181079,392.06631010002457,None,392.06631010002457,None,392.06631010002457,None,,,,,,,,,,,P002,fencog,2,Pre,2021_Jun_28_1047,Go No-Go Task,2021.1.4,120.55033626319849,
,"Rule: When you see a yellow image, do not press 'spacebar'.",Images/Happy/AF10_HE.jpg,Happy,Blue,Images/Blue.jpg,space,ParentConditions/YellowYellowBlue_v2.xlsx,YellowYellowBlue,Conditions/Version_2/YellowFearStop.xlsx,no,PASS,0.6869968801100608,,,,,,,,,0,0,0,1,0,0,0,0,0,25,25,25,,,,,,,,,,,,,,,,,,,,,,,,,,,,,,,,,,,,,,,,,,,,,,,,,,,,,,,,,,,,,,,,,,,,,,,,,,,,,,,1.8,392.46546870004386,None,space,1,0.3451710999943316,394.3656979999505,None,394.3656979999505,None,394.3656979999505,None,,,,,,,,,,,P002,fencog,2,Pre,2021_Jun_28_1047,Go No-Go Task,2021.1.4,120.55033626319849,
,"Rule: When you see a yellow image, do not press 'spacebar'.",Images/Happy/BM01_HO.jpg,Happy,Blue,Images/Blue.jpg,space,ParentConditions/YellowYellowBlue_v2.xlsx,YellowYellowBlue,Conditions/Version_2/YellowFearStop.xlsx,no,PASS,0.5538207000686074,,,,,,,,,0,0,0,1,0,0,0,0,0,26,26,26,,,,,,,,,,,,,,,,,,,,,,,,,,,,,,,,,,,,,,,,,,,,,,,,,,,,,,,,,,,,,,,,,,,,,,,,,,,,,,,1.45,394.76631440001074,None,space,1,0.3155437000095844,396.3234643000178,None,396.3234643000178,None,396.3234643000178,None,,,,,,,,,,,P002,fencog,2,Pre,2021_Jun_28_1047,Go No-Go Task,2021.1.4,120.55033626319849,
,"Rule: When you see a yellow image, do not press 'spacebar'.",Images/Fearful/AF07_FO.jpg,Fear,Yellow,Images/Yellow.jpg,None,ParentConditions/YellowYellowBlue_v2.xlsx,YellowYellowBlue,Conditions/Version_2/YellowFearStop.xlsx,yes,PASS,0.5689879324899989,,,,,,,,,0,0,0,1,0,0,0,0,0,27,27,27,,,,,,,,,,,,,,,,,,,,,,,,,,,,,,,,,,,,,,,,,,,,,,,,,,,,,,,,,,,,,,,,,,,,,,,,,,,,,,,1.43,396.72238990000915,None,None,1,,398.2560405000113,None,398.2560405000113,None,398.2560405000113,None,,,,,,,,,,,P002,fencog,2,Pre,2021_Jun_28_1047,Go No-Go Task,2021.1.4,120.55033626319849,
,"Rule: When you see a yellow image, do not press 'spacebar'.",Images/Happy/BF18_HO.jpg,Happy,Blue,Images/Blue.jpg,space,ParentConditions/YellowYellowBlue_v2.xlsx,YellowYellowBlue,Conditions/Version_2/YellowFearStop.xlsx,no,PASS,0.2528908254284902,,,,,,,,,0,0,0,1,0,0,0,0,0,28,28,28,,,,,,,,,,,,,,,,,,,,,,,,,,,,,,,,,,,,,,,,,,,,,,,,,,,,,,,,,,,,,,,,,,,,,,,,,,,,,,,1.36,398.65643690002616,None,space,1,0.3254436000715941,400.12223899993114,None,400.12223899993114,None,400.12223899993114,None,,,,,,,,,,,P002,fencog,2,Pre,2021_Jun_28_1047,Go No-Go Task,2021.1.4,120.55033626319849,
,"Rule: When you see a yellow image, do not press 'spacebar'.",Images/Happy/AM03HAS.jpg,Happy,Blue,Images/Blue.jpg,space,ParentConditions/YellowYellowBlue_v2.xlsx,YellowYellowBlue,Conditions/Version_2/YellowFearStop.xlsx,no,PASS,0.6129705520501836,,,,,,,,,0,0,0,1,0,0,0,0,0,29,29,29,,,,,,,,,,,,,,,,,,,,,,,,,,,,,,,,,,,,,,,,,,,,,,,,,,,,,,,,,,,,,,,,,,,,,,,,,,,,,,,1.95,400.5220129999798,None,space,1,0.3710424999007955,402.58813339995686,None,402.58813339995686,None,402.58813339995686,None,,,,,,,,,,,P002,fencog,2,Pre,2021_Jun_28_1047,Go No-Go Task,2021.1.4,120.55033626319849,
,"Rule: When you see a yellow image, do not press 'spacebar'.",Images/Happy/BF10_HO.jpg,Happy,Blue,Images/Blue.jpg,space,ParentConditions/YellowYellowBlue_v2.xlsx,YellowYellowBlue,Conditions/Version_2/YellowFearStop.xlsx,no,PASS,0.6633214650414543,,,,,,,,,0,0,0,1,0,0,0,0,0,30,30,30,,,,,,,,,,,,,,,,,,,,,,,,,,,,,,,,,,,,,,,,,,,,,,,,,,,,,,,,,,,,,,,,,,,,,,,,,,,,,,,1.7,402.9873624999309,None,None,0,,404.7875966000138,None,404.7875966000138,None,404.7875966000138,None,,,,,,,,,,,P002,fencog,2,Pre,2021_Jun_28_1047,Go No-Go Task,2021.1.4,120.55033626319849,
,"Rule: When you see a yellow image, do not press 'spacebar'.",Images/Happy/BF07_HO.jpg,Happy,Blue,Images/Blue.jpg,space,ParentConditions/YellowYellowBlue_v2.xlsx,YellowYellowBlue,Conditions/Version_2/YellowFearStop.xlsx,no,PASS,0.38343441764823294,,,,,,,,,0,0,0,1,0,0,0,0,0,31,31,31,,,,,,,,,,,,,,,,,,,,,,,,,,,,,,,,,,,,,,,,,,,,,,,,,,,,,,,,,,,,,,,,,,,,,,,,,,,,,,,1.62,405.19215999997687,None,space,1,0.3110047000227496,406.9118995999452,None,406.9118995999452,None,406.9118995999452,None,,,,,,,,,,,P002,fencog,2,Pre,2021_Jun_28_1047,Go No-Go Task,2021.1.4,120.55033626319849,
,"Rule: When you see a yellow image, do not press 'spacebar'.",Images/Fearful/BF07_FO.jpg,Fear,Yellow,Images/Yellow.jpg,None,ParentConditions/YellowYellowBlue_v2.xlsx,YellowYellowBlue,Conditions/Version_2/YellowFearStop.xlsx,yes,PASS,0.00831620462665883,,,,,,,,,0,0,0,1,0,0,0,0,0,32,32,32,,,,,,,,,,,,,,,,,,,,,,,,,,,,,,,,,,,,,,,,,,,,,,,,,,,,,,,,,,,,,,,,,,,,,,,,,,,,,,,1.23,407.312453999999,None,None,1,,408.644830300007,None,408.644830300007,None,408.644830300007,None,,,,,,,,,,,P002,fencog,2,Pre,2021_Jun_28_1047,Go No-Go Task,2021.1.4,120.55033626319849,
,"Rule: When you see a yellow image, do not press 'spacebar'.",Images/Happy/WF04_HC.jpg,Happy,Blue,Images/Blue.jpg,space,ParentConditions/YellowYellowBlue_v2.xlsx,YellowYellowBlue,Conditions/Version_2/YellowFearStop.xlsx,no,PASS,0.6777495076385776,,,,,,,,,0,0,0,1,0,0,0,0,0,33,33,33,,,,,,,,,,,,,,,,,,,,,,,,,,,,,,,,,,,,,,,,,,,,,,,,,,,,,,,,,,,,,,,,,,,,,,,,,,,,,,,1.9,409.04395019996446,None,space,1,0.2832741999300197,411.0358444999438,None,411.0358444999438,None,411.0358444999438,None,,,,,,,,,,,P002,fencog,2,Pre,2021_Jun_28_1047,Go No-Go Task,2021.1.4,120.55033626319849,
,"Rule: When you see a yellow image, do not press 'spacebar'.",Images/Happy/AM23HAS.jpg,Happy,Blue,Images/Blue.jpg,space,ParentConditions/YellowYellowBlue_v2.xlsx,YellowYellowBlue,Conditions/Version_2/YellowFearStop.xlsx,no,PASS,0.04303712392230152,,,,,,,,,0,0,0,1,0,0,0,0,0,34,34,34,,,,,,,,,,,,,,,,,,,,,,,,,,,,,,,,,,,,,,,,,,,,,,,,,,,,,,,,,,,,,,,,,,,,,,,,,,,,,,,1.39,411.43641740002204,None,None,0,,412.91843690001406,None,412.91843690001406,None,412.91843690001406,None,,,,,,,,,,,P002,fencog,2,Pre,2021_Jun_28_1047,Go No-Go Task,2021.1.4,120.55033626319849,
,"Rule: When you see a yellow image, do not press 'spacebar'.",Images/Happy/AM09HAS.jpg,Happy,Blue,Images/Blue.jpg,space,ParentConditions/YellowYellowBlue_v2.xlsx,YellowYellowBlue,Conditions/Version_2/YellowFearStop.xlsx,no,PASS,0.09574836161041034,,,,,,,,,0,0,0,1,0,0,0,0,0,35,35,35,,,,,,,,,,,,,,,,,,,,,,,,,,,,,,,,,,,,,,,,,,,,,,,,,,,,,,,,,,,,,,,,,,,,,,,,,,,,,,,1.64,413.31858670001384,None,space,1,0.29955870006233454,415.05951309995726,None,415.05951309995726,None,415.05951309995726,None,,,,,,,,,,,P002,fencog,2,Pre,2021_Jun_28_1047,Go No-Go Task,2021.1.4,120.55033626319849,
,"Rule: When you see a yellow image, do not press 'spacebar'.",Images/Happy/AM10HAS.jpg,Happy,Blue,Images/Blue.jpg,space,ParentConditions/YellowYellowBlue_v2.xlsx,YellowYellowBlue,Conditions/Version_2/YellowFearStop.xlsx,no,PASS,0.1630912911655703,,,,,,,,,0,0,0,1,0,0,0,0,0,36,36,36,,,,,,,,,,,,,,,,,,,,,,,,,,,,,,,,,,,,,,,,,,,,,,,,,,,,,,,,,,,,,,,,,,,,,,,,,,,,,,,1.53,415.46174559998326,None,space,1,0.2980526000028476,417.0922780999681,None,417.0922780999681,None,417.0922780999681,None,,,,,,,,,,,P002,fencog,2,Pre,2021_Jun_28_1047,Go No-Go Task,2021.1.4,120.55033626319849,
,"Rule: When you see a yellow image, do not press 'spacebar'.",Images/Happy/AF07HAS.jpg,Happy,Blue,Images/Blue.jpg,space,ParentConditions/YellowYellowBlue_v2.xlsx,YellowYellowBlue,Conditions/Version_2/YellowFearStop.xlsx,no,PASS,0.34867471869559996,,,,,,,,,0,0,0,1,0,0,0,0,0,37,37,37,,,,,,,,,,,,,,,,,,,,,,,,,,,,,,,,,,,,,,,,,,,,,,,,,,,,,,,,,,,,,,,,,,,,,,,,,,,,,,,1.4,417.49183189996984,None,space,1,0.31949259992688894,418.991726999986,None,418.991726999986,None,418.991726999986,None,,,,,,,,,,,P002,fencog,2,Pre,2021_Jun_28_1047,Go No-Go Task,2021.1.4,120.55033626319849,
,"Rule: When you see a yellow image, do not press 'spacebar'.",Images/Happy/AM03_HO.jpg,Happy,Blue,Images/Blue.jpg,space,ParentConditions/YellowYellowBlue_v2.xlsx,YellowYellowBlue,Conditions/Version_2/YellowFearStop.xlsx,no,PASS,0.8852047943617631,,,,,,,,,0,0,0,1,0,0,0,0,0,38,38,38,,,,,,,,,,,,,,,,,,,,,,,,,,,,,,,,,,,,,,,,,,,,,,,,,,,,,,,,,,,,,,,,,,,,,,,,,,,,,,,1.55,419.3910484999651,None,space,1,0.2781159000005573,421.041070700041,None,421.041070700041,None,421.041070700041,None,,,,,,,,,,,P002,fencog,2,Pre,2021_Jun_28_1047,Go No-Go Task,2021.1.4,120.55033626319849,
,"Rule: When you see a yellow image, do not press 'spacebar'.",Images/Happy/AM05HAS.jpg,Happy,Blue,Images/Blue.jpg,space,ParentConditions/YellowYellowBlue_v2.xlsx,YellowYellowBlue,Conditions/Version_2/YellowFearStop.xlsx,no,PASS,0.25496798119470154,,,,,,,,,0,0,0,1,0,0,0,0,0,39,39,39,,,,,,,,,,,,,,,,,,,,,,,,,,,,,,,,,,,,,,,,,,,,,,,,,,,,,,,,,,,,,,,,,,,,,,,,,,,,,,,1.37,421.4416967999423,None,space,1,0.25894379999954253,422.9155031000264,None,422.9155031000264,None,422.9155031000264,None,,,,,,,,,,,P002,fencog,2,Pre,2021_Jun_28_1047,Go No-Go Task,2021.1.4,120.55033626319849,
,"Rule: When you see a yellow image, do not press 'spacebar'.",Images/Happy/AF02HAS.jpg,Happy,Blue,Images/Blue.jpg,space,ParentConditions/YellowYellowBlue_v2.xlsx,YellowYellowBlue,Conditions/Version_2/YellowFearStop.xlsx,no,PASS,0.4518610007497229,,,,,,,,,0,0,0,1,0,0,0,0,0,40,40,40,,,,,,,,,,,,,,,,,,,,,,,,,,,,,,,,,,,,,,,,,,,,,,,,,,,,,,,,,,,,,,,,,,,,,,,,,,,,,,,1.24,423.31436550000217,None,space,1,0.2859056000597775,424.6651239999337,None,424.6651239999337,None,424.6651239999337,None,,,,,,,,,,,P002,fencog,2,Pre,2021_Jun_28_1047,Go No-Go Task,2021.1.4,120.55033626319849,
,"Rule: When you see a yellow image, do not press 'spacebar'.",Images/Happy/BM08_HO.jpg,Happy,Blue,Images/Blue.jpg,space,ParentConditions/YellowYellowBlue_v2.xlsx,YellowYellowBlue,Conditions/Version_2/YellowFearStop.xlsx,no,PASS,0.6109180265070229,,,,,,,,,0,0,0,1,0,0,0,0,0,41,41,41,,,,,,,,,,,,,,,,,,,,,,,,,,,,,,,,,,,,,,,,,,,,,,,,,,,,,,,,,,,,,,,,,,,,,,,,,,,,,,,1.75,425.0640785000287,None,space,1,0.3088853999506682,426.91434979997575,None,426.91434979997575,None,426.91434979997575,None,,,,,,,,,,,P002,fencog,2,Pre,2021_Jun_28_1047,Go No-Go Task,2021.1.4,120.55033626319849,
,"Rule: When you see a yellow image, do not press 'spacebar'.",Images/Happy/AM22HAS.jpg,Happy,Blue,Images/Blue.jpg,space,ParentConditions/YellowYellowBlue_v2.xlsx,YellowYellowBlue,Conditions/Version_2/YellowFearStop.xlsx,no,PASS,0.358808559720486,,,,,,,,,0,0,0,1,0,0,0,0,0,42,42,42,,,,,,,,,,,,,,,,,,,,,,,,,,,,,,,,,,,,,,,,,,,,,,,,,,,,,,,,,,,,,,,,,,,,,,,,,,,,,,,1.57,427.3154058000073,None,space,1,0.29797600000165403,428.9804012000095,None,428.9804012000095,None,428.9804012000095,None,,,,,,,,,,,P002,fencog,2,Pre,2021_Jun_28_1047,Go No-Go Task,2021.1.4,120.55033626319849,
,"Rule: When you see a yellow image, do not press 'spacebar'.",Images/Happy/AM30HAS.jpg,Happy,Blue,Images/Blue.jpg,space,ParentConditions/YellowYellowBlue_v2.xlsx,YellowYellowBlue,Conditions/Version_2/YellowFearStop.xlsx,no,PASS,0.02897569025915847,,,,,,,,,0,0,0,1,0,0,0,0,0,43,43,43,,,,,,,,,,,,,,,,,,,,,,,,,,,,,,,,,,,,,,,,,,,,,,,,,,,,,,,,,,,,,,,,,,,,,,,,,,,,,,,1.61,429.3805108999368,None,space,1,0.2645119000226259,431.09649909997825,None,431.09649909997825,None,431.09649909997825,None,,,,,,,,,,,P002,fencog,2,Pre,2021_Jun_28_1047,Go No-Go Task,2021.1.4,120.55033626319849,
,"Rule: When you see a yellow image, do not press 'spacebar'.",Images/Fearful/BF09_FC.jpg,Fear,Yellow,Images/Yellow.jpg,None,ParentConditions/YellowYellowBlue_v2.xlsx,YellowYellowBlue,Conditions/Version_2/YellowFearStop.xlsx,yes,PASS,0.33656912313274023,,,,,,,,,0,0,0,1,0,0,0,0,0,44,44,44,,,,,,,,,,,,,,,,,,,,,,,,,,,,,,,,,,,,,,,,,,,,,,,,,,,,,,,,,,,,,,,,,,,,,,,,,,,,,,,1.49,431.4979733999353,None,None,1,,433.095947099966,None,433.095947099966,None,433.095947099966,None,,,,,,,,,,,P002,fencog,2,Pre,2021_Jun_28_1047,Go No-Go Task,2021.1.4,120.55033626319849,
,"Rule: When you see a yellow image, do not press 'spacebar'.",Images/Happy/WM12_HE.jpg,Happy,Blue,Images/Blue.jpg,space,ParentConditions/YellowYellowBlue_v2.xlsx,YellowYellowBlue,Conditions/Version_2/YellowFearStop.xlsx,no,PASS,0.7601850991054155,,,,,,,,,0,0,0,1,0,0,0,0,0,45,45,45,,,,,,,,,,,,,,,,,,,,,,,,,,,,,,,,,,,,,,,,,,,,,,,,,,,,,,,,,,,,,,,,,,,,,,,,,,,,,,,1.89,433.49797609995585,None,space,1,0.32781249994877726,435.49501940002665,None,435.49501940002665,None,435.49501940002665,None,,,,,,,,,,,P002,fencog,2,Pre,2021_Jun_28_1047,Go No-Go Task,2021.1.4,120.55033626319849,
,"Rule: When you see a yellow image, do not press 'spacebar'.",Images/Happy/HF10_HE.jpg,Happy,Blue,Images/Blue.jpg,space,ParentConditions/YellowYellowBlue_v2.xlsx,YellowYellowBlue,Conditions/Version_2/YellowFearStop.xlsx,no,PASS,0.6650727272929988,,,,,,,,,0,0,0,1,0,0,0,0,0,46,46,46,,,,,,,,,,,,,,,,,,,,,,,,,,,,,,,,,,,,,,,,,,,,,,,,,,,,,,,,,,,,,,,,,,,,,,,,,,,,,,,1.99,435.90298779995646,None,space,1,0.27729479991830885,437.9860806999495,None,437.9860806999495,None,437.9860806999495,None,,,,,,,,,,,P002,fencog,2,Pre,2021_Jun_28_1047,Go No-Go Task,2021.1.4,120.55033626319849,
,"Rule: When you see a yellow image, do not press 'spacebar'.",Images/Happy/HM09_HO.jpg,Happy,Blue,Images/Blue.jpg,space,ParentConditions/YellowYellowBlue_v2.xlsx,YellowYellowBlue,Conditions/Version_2/YellowFearStop.xlsx,no,PASS,0.7196619298468737,,,,,,,,,0,0,0,1,0,0,0,0,0,47,47,47,,,,,,,,,,,,,,,,,,,,,,,,,,,,,,,,,,,,,,,,,,,,,,,,,,,,,,,,,,,,,,,,,,,,,,,,,,,,,,,1.29,438.38511399994604,None,space,1,0.3339248000411317,439.7688610999612,None,439.7688610999612,None,439.7688610999612,None,,,,,,,,,,,P002,fencog,2,Pre,2021_Jun_28_1047,Go No-Go Task,2021.1.4,120.55033626319849,
,"Rule: When you see a yellow image, do not press 'spacebar'.",Images/Fearful/AM03_FC.jpg,Fear,Yellow,Images/Yellow.jpg,None,ParentConditions/YellowYellowBlue_v2.xlsx,YellowYellowBlue,Conditions/Version_2/YellowFearStop.xlsx,yes,PASS,0.9021154613913315,,,,,,,,,0,0,0,1,0,0,0,0,0,48,48,48,,,,,,,,,,,,,,,,,,,,,,,,,,,,,,,,,,,,,,,,,,,,,,,,,,,,,,,,,,,,,,,,,,,,,,,,,,,,,,,1.88,440.1780652999878,None,None,1,,442.15980289992876,None,442.15980289992876,None,442.15980289992876,None,,,,,,,,,,,P002,fencog,2,Pre,2021_Jun_28_1047,Go No-Go Task,2021.1.4,120.55033626319849,
,"Rule: When you see a yellow image, do not press 'spacebar'.",Images/Happy/HF04_HE.jpg,Happy,Blue,Images/Blue.jpg,space,ParentConditions/YellowYellowBlue_v2.xlsx,YellowYellowBlue,Conditions/Version_2/YellowFearStop.xlsx,no,PASS,0.6828282636628492,,,,,,,,,0,0,0,1,0,0,0,0,0,49,49,49,,,,,,,,,,,,,,,,,,,,,,,,,,,,,,,,,,,,,,,,,,,,,,,,,,,,,,,,,,,,,,,,,,,,,,,,,,,,,,,1.91,442.5612656000303,None,space,1,0.2151233000913635,444.5758190000197,None,444.5758190000197,None,444.5758190000197,None,,,,,,,,,,,P002,fencog,2,Pre,2021_Jun_28_1047,Go No-Go Task,2021.1.4,120.55033626319849,
,"Rule: When you see a yellow image, do not press 'spacebar'.",Images/Happy/AM17HAS.jpg,Happy,Blue,Images/Blue.jpg,space,ParentConditions/YellowYellowBlue_v2.xlsx,YellowYellowBlue,Conditions/Version_2/YellowFearStop.xlsx,no,PASS,0.7726840133197573,,,,,,,,,0,0,0,1,0,0,0,0,0,50,50,50,,,,,,,,,,,,,,,,,,,,,,,,,,,,,,,,,,,,,,,,,,,,,,,,,,,,,,,,,,,,,,,,,,,,,,,,,,,,,,,1.67,444.9810386999743,None,space,1,0.2884485999820754,446.75858929997776,None,446.75858929997776,None,446.75858929997776,None,,,,,,,,,,,P002,fencog,2,Pre,2021_Jun_28_1047,Go No-Go Task,2021.1.4,120.55033626319849,
,"Rule: When you see a yellow image, do not press 'spacebar'.",Images/Fearful/BM01_FO.jpg,Fear,Yellow,Images/Yellow.jpg,None,ParentConditions/YellowYellowBlue_v2.xlsx,YellowYellowBlue,Conditions/Version_2/YellowFearStop.xlsx,yes,PASS,0.029850228609631824,,,,,,,,,0,0,0,1,0,0,0,0,0,51,51,51,,,,,,,,,,,,,,,,,,,,,,,,,,,,,,,,,,,,,,,,,,,,,,,,,,,,,,,,,,,,,,,,,,,,,,,,,,,,,,,1.54,447.1676810999634,None,None,1,,448.80790539993905,None,448.80790539993905,None,448.80790539993905,None,,,,,,,,,,,P002,fencog,2,Pre,2021_Jun_28_1047,Go No-Go Task,2021.1.4,120.55033626319849,
,"Rule: When you see a yellow image, do not press 'spacebar'.",Images/Happy/HF09_HE.jpg,Happy,Blue,Images/Blue.jpg,space,ParentConditions/YellowYellowBlue_v2.xlsx,YellowYellowBlue,Conditions/Version_2/YellowFearStop.xlsx,no,PASS,0.5416297044271999,,,,,,,,,0,0,0,1,0,0,0,0,0,52,52,52,,,,,,,,,,,,,,,,,,,,,,,,,,,,,,,,,,,,,,,,,,,,,,,,,,,,,,,,,,,,,,,,,,,,,,,,,,,,,,,1.56,449.206900899997,None,space,1,0.31683330005034804,450.87397900002543,None,450.87397900002543,None,450.87397900002543,None,,,,,,,,,,,P002,fencog,2,Pre,2021_Jun_28_1047,Go No-Go Task,2021.1.4,120.55033626319849,
,"Rule: When you see a yellow image, do not press 'spacebar'.",Images/Happy/WF11_HE.jpg,Happy,Blue,Images/Blue.jpg,space,ParentConditions/YellowYellowBlue_v2.xlsx,YellowYellowBlue,Conditions/Version_2/YellowFearStop.xlsx,no,PASS,0.3923399468002319,,,,,,,,,0,0,0,1,0,0,0,0,0,53,53,53,,,,,,,,,,,,,,,,,,,,,,,,,,,,,,,,,,,,,,,,,,,,,,,,,,,,,,,,,,,,,,,,,,,,,,,,,,,,,,,1.69,451.2751584999496,None,space,1,0.3015824001049623,453.07329470000695,None,453.07329470000695,None,453.07329470000695,None,,,,,,,,,,,P002,fencog,2,Pre,2021_Jun_28_1047,Go No-Go Task,2021.1.4,120.55033626319849,
,"Rule: When you see a yellow image, do not press 'spacebar'.",Images/Fearful/AM04AFS.jpg,Fear,Yellow,Images/Yellow.jpg,None,ParentConditions/YellowYellowBlue_v2.xlsx,YellowYellowBlue,Conditions/Version_2/YellowFearStop.xlsx,yes,PASS,0.7106263735051498,,,,,,,,,0,0,0,1,0,0,0,0,0,54,54,54,,,,,,,,,,,,,,,,,,,,,,,,,,,,,,,,,,,,,,,,,,,,,,,,,,,,,,,,,,,,,,,,,,,,,,,,,,,,,,,1.82,453.47807249997277,None,None,1,,455.41403390001506,None,455.41403390001506,None,455.41403390001506,None,,,,,,,,,,,P002,fencog,2,Pre,2021_Jun_28_1047,Go No-Go Task,2021.1.4,120.55033626319849,
,"Rule: When you see a yellow image, do not press 'spacebar'.",Images/Happy/AF19HAS.jpg,Happy,Blue,Images/Blue.jpg,space,ParentConditions/YellowYellowBlue_v2.xlsx,YellowYellowBlue,Conditions/Version_2/YellowFearStop.xlsx,no,PASS,0.3419128984214137,,,,,,,,,0,0,0,1,0,0,0,0,0,55,55,55,,,,,,,,,,,,,,,,,,,,,,,,,,,,,,,,,,,,,,,,,,,,,,,,,,,,,,,,,,,,,,,,,,,,,,,,,,,,,,,1.3,455.81310839997604,None,None,0,,457.2137169999769,None,457.2137169999769,None,457.2137169999769,None,,,,,,,,,,,P002,fencog,2,Pre,2021_Jun_28_1047,Go No-Go Task,2021.1.4,120.55033626319849,
,"Rule: When you see a yellow image, do not press 'spacebar'.",Images/Happy/HM06_HO.jpg,Happy,Blue,Images/Blue.jpg,space,ParentConditions/YellowYellowBlue_v2.xlsx,YellowYellowBlue,Conditions/Version_2/YellowFearStop.xlsx,no,PASS,0.8215154078276994,,,,,,,,,0,0,0,1,0,0,0,0,0,56,56,56,,,,,,,,,,,,,,,,,,,,,,,,,,,,,,,,,,,,,,,,,,,,,,,,,,,,,,,,,,,,,,,,,,,,,,,,,,,,,,,1.38,457.6155997000169,None,space,1,0.2861243999795988,459.09660309995525,None,459.09660309995525,None,459.09660309995525,None,,,,,,,,,,,P002,fencog,2,Pre,2021_Jun_28_1047,Go No-Go Task,2021.1.4,120.55033626319849,
,"Rule: When you see a yellow image, do not press 'spacebar'.",Images/Happy/HF05_HO.jpg,Happy,Blue,Images/Blue.jpg,space,ParentConditions/YellowYellowBlue_v2.xlsx,YellowYellowBlue,Conditions/Version_2/YellowFearStop.xlsx,no,PASS,0.4418945189155604,,,,,,,,,0,0,0,1,0,0,0,0,0,57,57,57,,,,,,,,,,,,,,,,,,,,,,,,,,,,,,,,,,,,,,,,,,,,,,,,,,,,,,,,,,,,,,,,,,,,,,,,,,,,,,,1.71,459.50305800000206,None,space,1,0.33520029997453094,461.32085110002663,None,461.32085110002663,None,461.32085110002663,None,,,,,,,,,,,P002,fencog,2,Pre,2021_Jun_28_1047,Go No-Go Task,2021.1.4,120.55033626319849,
,"Rule: When you see a yellow image, do not press 'spacebar'.",Images/Fearful/AF01_FO.jpg,Fear,Yellow,Images/Yellow.jpg,None,ParentConditions/YellowYellowBlue_v2.xlsx,YellowYellowBlue,Conditions/Version_2/YellowFearStop.xlsx,yes,PASS,0.9630260753042453,,,,,,,,,0,0,0,1,0,0,0,0,0,58,58,58,,,,,,,,,,,,,,,,,,,,,,,,,,,,,,,,,,,,,,,,,,,,,,,,,,,,,,,,,,,,,,,,,,,,,,,,,,,,,,,1.84,461.7209142999491,None,space,0,0.27217449992895126,463.6623561999295,None,463.6623561999295,None,463.6623561999295,None,,,,,,,,,,,P002,fencog,2,Pre,2021_Jun_28_1047,Go No-Go Task,2021.1.4,120.55033626319849,
,"Rule: When you see a yellow image, do not press 'spacebar'.",Images/Happy/AF21HAS.jpg,Happy,Blue,Images/Blue.jpg,space,ParentConditions/YellowYellowBlue_v2.xlsx,YellowYellowBlue,Conditions/Version_2/YellowFearStop.xlsx,no,PASS,0.5410977161582079,,,,,,,,,0,0,0,1,0,0,0,0,0,59,59,59,,,,,,,,,,,,,,,,,,,,,,,,,,,,,,,,,,,,,,,,,,,,,,,,,,,,,,,,,,,,,,,,,,,,,,,,,,,,,,,1.65,464.0609148000367,None,space,1,0.2917806999757886,465.811068699928,None,465.811068699928,None,465.811068699928,None,,,,,,,,,,,P002,fencog,2,Pre,2021_Jun_28_1047,Go No-Go Task,2021.1.4,120.55033626319849,
,"Rule: When you see a yellow image, do not press 'spacebar'.",Images/Happy/AM06_HC.jpg,Happy,Blue,Images/Blue.jpg,space,ParentConditions/YellowYellowBlue_v2.xlsx,YellowYellowBlue,Conditions/Version_2/YellowFearStop.xlsx,no,PASS,0.8195458073624309,,,,,,,,,0,0,0,1,0,0,0,0,0,60,60,60,,,,,,,,,,,,,,,,,,,,,,,,,,,,,,,,,,,,,,,,,,,,,,,,,,,,,,,,,,,,,,,,,,,,,,,,,,,,,,,1.51,466.2129724000115,None,space,1,0.3077750999946147,467.8272427000338,None,467.8272427000338,None,467.8272427000338,None,,,,,,,,,,,P002,fencog,2,Pre,2021_Jun_28_1047,Go No-Go Task,2021.1.4,120.55033626319849,
,"Rule: When you see a yellow image, do not press 'spacebar'.",Images/Fearful/AF02AFS.jpg,Fear,Yellow,Images/Yellow.jpg,None,ParentConditions/YellowYellowBlue_v2.xlsx,YellowYellowBlue,Conditions/Version_2/YellowFearStop.xlsx,yes,PASS,0.43475605439224807,,,,,,,,,0,0,0,1,0,0,0,0,0,61,61,61,,,,,,,,,,,,,,,,,,,,,,,,,,,,,,,,,,,,,,,,,,,,,,,,,,,,,,,,,,,,,,,,,,,,,,,,,,,,,,,1.44,468.22710260003805,None,None,1,,469.76006969995797,None,469.76006969995797,None,469.76006969995797,None,,,,,,,,,,,P002,fencog,2,Pre,2021_Jun_28_1047,Go No-Go Task,2021.1.4,120.55033626319849,
,"Rule: When you see a yellow image, do not press 'spacebar'.",Images/Happy/AF25HAS.jpg,Happy,Blue,Images/Blue.jpg,space,ParentConditions/YellowYellowBlue_v2.xlsx,YellowYellowBlue,Conditions/Version_2/YellowFearStop.xlsx,no,PASS,0.35344562160834636,,,,,,,,,0,0,0,1,0,0,0,0,0,62,62,62,,,,,,,,,,,,,,,,,,,,,,,,,,,,,,,,,,,,,,,,,,,,,,,,,,,,,,,,,,,,,,,,,,,,,,,,,,,,,,,1.58,470.1623600999592,None,space,1,0.2686940000858158,471.84266840002965,None,471.84266840002965,None,471.84266840002965,None,,,,,,,,,,,P002,fencog,2,Pre,2021_Jun_28_1047,Go No-Go Task,2021.1.4,120.55033626319849,
,"Rule: When you see a yellow image, do not press 'spacebar'.",Images/Happy/AM32HAS.jpg,Happy,Blue,Images/Blue.jpg,space,ParentConditions/YellowYellowBlue_v2.xlsx,YellowYellowBlue,Conditions/Version_2/YellowFearStop.xlsx,no,PASS,0.10846156836896592,,,,,,,,,0,0,0,1,0,0,0,0,0,63,63,63,,,,,,,,,,,,,,,,,,,,,,,,,,,,,,,,,,,,,,,,,,,,,,,,,,,,,,,,,,,,,,,,,,,,,,,,,,,,,,,1.27,472.24508329993114,None,space,1,0.2379423000384122,473.60886699997354,None,473.60886699997354,None,473.60886699997354,None,,,,,,,,,,,P002,fencog,2,Pre,2021_Jun_28_1047,Go No-Go Task,2021.1.4,120.55033626319849,
,"Rule: When you see a yellow image, do not press 'spacebar'.",Images/Fearful/AM02_FO.jpg,Fear,Yellow,Images/Yellow.jpg,None,ParentConditions/YellowYellowBlue_v2.xlsx,YellowYellowBlue,Conditions/Version_2/YellowFearStop.xlsx,yes,PASS,0.093492050295921,,,,,,,,,0,0,0,1,0,0,0,0,0,64,64,64,,,,,,,,,,,,,,,,,,,,,,,,,,,,,,,,,,,,,,,,,,,,,,,,,,,,,,,,,,,,,,,,,,,,,,,,,,,,,,,1.6,474.0085089999484,None,None,1,,475.7165916999802,None,475.7165916999802,None,475.7165916999802,None,,,,,,,,,,,P002,fencog,2,Pre,2021_Jun_28_1047,Go No-Go Task,2021.1.4,120.55033626319849,
,"Rule: When you see a yellow image, do not press 'spacebar'.",Images/Fearful/BM02_FC.jpg,Fear,Yellow,Images/Yellow.jpg,None,ParentConditions/YellowYellowBlue_v2.xlsx,YellowYellowBlue,Conditions/Version_2/YellowFearStop.xlsx,yes,PASS,0.8390777988560751,,,,,,,,,0,0,0,1,0,0,0,0,0,65,65,65,,,,,,,,,,,,,,,,,,,,,,,,,,,,,,,,,,,,,,,,,,,,,,,,,,,,,,,,,,,,,,,,,,,,,,,,,,,,,,,1.86,476.11724339996,None,space,0,0.2203270000172779,478.0825701999711,None,478.0825701999711,None,478.0825701999711,None,,,,,,,,,,,P002,fencog,2,Pre,2021_Jun_28_1047,Go No-Go Task,2021.1.4,120.55033626319849,
,"Rule: When you see a yellow image, do not press 'spacebar'.",Images/Happy/AM04_HE.jpg,Happy,Blue,Images/Blue.jpg,space,ParentConditions/YellowYellowBlue_v2.xlsx,YellowYellowBlue,Conditions/Version_2/YellowFearStop.xlsx,no,PASS,0.268677407796428,,,,,,,,,0,0,0,1,0,0,0,0,0,66,66,66,,,,,,,,,,,,,,,,,,,,,,,,,,,,,,,,,,,,,,,,,,,,,,,,,,,,,,,,,,,,,,,,,,,,,,,,,,,,,,,1.93,478.48896470002364,None,space,1,0.378585199941881,480.5151874999283,None,480.5151874999283,None,480.5151874999283,None,,,,,,,,,,,P002,fencog,2,Pre,2021_Jun_28_1047,Go No-Go Task,2021.1.4,120.55033626319849,
,"Rule: When you see a yellow image, do not press 'spacebar'.",Images/Fearful/AM05AFS.jpg,Fear,Yellow,Images/Yellow.jpg,None,ParentConditions/YellowYellowBlue_v2.xlsx,YellowYellowBlue,Conditions/Version_2/YellowFearStop.xlsx,yes,PASS,0.6951263252071049,,,,,,,,,0,0,0,1,0,0,0,0,0,67,67,67,,,,,,,,,,,,,,,,,,,,,,,,,,,,,,,,,,,,,,,,,,,,,,,,,,,,,,,,,,,,,,,,,,,,,,,,,,,,,,,1.66,480.9188207000261,None,space,0,0.2537589999847114,482.6810675000306,None,482.6810675000306,None,482.6810675000306,None,,,,,,,,,,,P002,fencog,2,Pre,2021_Jun_28_1047,Go No-Go Task,2021.1.4,120.55033626319849,
,"Rule: When you see a yellow image, do not press 'spacebar'.",Images/Happy/AF28HAS.jpg,Happy,Blue,Images/Blue.jpg,space,ParentConditions/YellowYellowBlue_v2.xlsx,YellowYellowBlue,Conditions/Version_2/YellowFearStop.xlsx,no,PASS,0.25032705960911217,,,,,,,,,0,0,0,1,0,0,0,0,0,68,68,68,,,,,,,,,,,,,,,,,,,,,,,,,,,,,,,,,,,,,,,,,,,,,,,,,,,,,,,,,,,,,,,,,,,,,,,,,,,,,,,1.72,483.08710170001723,None,space,1,0.38112889998592436,484.9138445999706,None,484.9138445999706,None,484.9138445999706,None,,,,,,,,,,,P002,fencog,2,Pre,2021_Jun_28_1047,Go No-Go Task,2021.1.4,120.55033626319849,
,"Rule: When you see a yellow image, do not press 'spacebar'.",Images/Happy/AF07_HO.jpg,Happy,Blue,Images/Blue.jpg,space,ParentConditions/YellowYellowBlue_v2.xlsx,YellowYellowBlue,Conditions/Version_2/YellowFearStop.xlsx,no,PASS,0.293841477080362,,,,,,,,,0,0,0,1,0,0,0,0,0,69,69,69,,,,,,,,,,,,,,,,,,,,,,,,,,,,,,,,,,,,,,,,,,,,,,,,,,,,,,,,,,,,,,,,,,,,,,,,,,,,,,,1.59,485.3140812999336,None,space,1,0.26622130000032485,487.00472780002747,None,487.00472780002747,None,487.00472780002747,None,,,,,,,,,,,P002,fencog,2,Pre,2021_Jun_28_1047,Go No-Go Task,2021.1.4,120.55033626319849,
,"Rule: When you see a yellow image, do not press 'spacebar'.",Images/Happy/BF14_HO.jpg,Happy,Blue,Images/Blue.jpg,space,ParentConditions/YellowYellowBlue_v2.xlsx,YellowYellowBlue,Conditions/Version_2/YellowFearStop.xlsx,no,PASS,0.40422519447396765,,,,,,,,,0,0,0,1,0,0,0,0,0,70,70,70,,,,,,,,,,,,,,,,,,,,,,,,,,,,,,,,,,,,,,,,,,,,,,,,,,,,,,,,,,,,,,,,,,,,,,,,,,,,,,,1.92,487.4061005000258,None,space,1,0.3218458000337705,489.42947650002316,None,489.42947650002316,None,489.42947650002316,None,,,,,,,,,,,P002,fencog,2,Pre,2021_Jun_28_1047,Go No-Go Task,2021.1.4,120.55033626319849,
,"Rule: When you see a yellow image, do not press 'spacebar'.",Images/Fearful/AF07FS.jpg,Fear,Yellow,Images/Yellow.jpg,None,ParentConditions/YellowYellowBlue_v2.xlsx,YellowYellowBlue,Conditions/Version_2/YellowFearStop.xlsx,yes,PASS,0.7059954464635801,,,,,,,,,0,0,0,1,0,0,0,0,0,71,71,71,,,,,,,,,,,,,,,,,,,,,,,,,,,,,,,,,,,,,,,,,,,,,,,,,,,,,,,,,,,,,,,,,,,,,,,,,,,,,,,1.78,489.82896389998496,None,None,1,,491.70358750002924,None,491.70358750002924,None,491.70358750002924,None,,,,,,,,,,,P002,fencog,2,Pre,2021_Jun_28_1047,Go No-Go Task,2021.1.4,120.55033626319849,
,"Rule: When you see a yellow image, do not press 'spacebar'.",Images/Happy/AF32HAS.jpg,Happy,Blue,Images/Blue.jpg,space,ParentConditions/YellowYellowBlue_v2.xlsx,YellowYellowBlue,Conditions/Version_2/YellowFearStop.xlsx,no,PASS,0.6505932127186488,,,,,,,,,0,0,0,1,0,0,0,0,0,72,72,72,,,,,,,,,,,,,,,,,,,,,,,,,,,,,,,,,,,,,,,,,,,,,,,,,,,,,,,,,,,,,,,,,,,,,,,,,,,,,,,1.48,492.1041264999658,None,space,1,0.21702159999404103,493.68631310004275,None,493.68631310004275,None,493.68631310004275,None,,,,,,,,,,,P002,fencog,2,Pre,2021_Jun_28_1047,Go No-Go Task,2021.1.4,120.55033626319849,
,"Rule: When you see a yellow image, do not press 'spacebar'.",Images/Happy/AF11HAS.jpg,Happy,Blue,Images/Blue.jpg,space,ParentConditions/YellowYellowBlue_v2.xlsx,YellowYellowBlue,Conditions/Version_2/YellowFearStop.xlsx,no,PASS,0.22413936824153813,,,,,,,,,0,0,0,1,0,0,0,0,0,73,73,73,,,,,,,,,,,,,,,,,,,,,,,,,,,,,,,,,,,,,,,,,,,,,,,,,,,,,,,,,,,,,,,,,,,,,,,,,,,,,,,1.68,494.08759549993556,None,space,1,0.23462700005620718,495.86060819996055,None,495.86060819996055,None,495.86060819996055,None,,,,,,,,,,,P002,fencog,2,Pre,2021_Jun_28_1047,Go No-Go Task,2021.1.4,120.55033626319849,
,"Rule: When you see a yellow image, do not press 'spacebar'.",Images/Happy/AM19HAS.jpg,Happy,Blue,Images/Blue.jpg,space,ParentConditions/YellowYellowBlue_v2.xlsx,YellowYellowBlue,Conditions/Version_2/YellowFearStop.xlsx,no,PASS,0.5367328627339492,,,,,,,,,0,0,0,1,0,0,0,0,0,74,74,74,,,,,,,,,,,,,,,,,,,,,,,,,,,,,,,,,,,,,,,,,,,,,,,,,,,,,,,,,,,,,,,,,,,,,,,,,,,,,,,1.5,496.2611244999571,None,space,1,0.22602429997641593,497.8684397999896,None,497.8684397999896,None,497.8684397999896,None,,,,,,,,,,,P002,fencog,2,Pre,2021_Jun_28_1047,Go No-Go Task,2021.1.4,120.55033626319849,
,"Rule: When you see a yellow image, do not press 'spacebar'.",Images/Happy/AM01HAS.jpg,Happy,Blue,Images/Blue.jpg,space,ParentConditions/YellowYellowBlue_v2.xlsx,YellowYellowBlue,Conditions/Version_2/YellowFearStop.xlsx,no,PASS,0.4512238869721793,,,,,,,,,0,0,0,1,0,0,0,0,0,75,75,75,,,,,,,,,,,,,,,,,,,,,,,,,,,,,,,,,,,,,,,,,,,,,,,,,,,,,,,,,,,,,,,,,,,,,,,,,,,,,,,1.47,498.26876370003447,None,space,1,0.23604260000865906,499.8427636999404,None,499.8427636999404,None,499.8427636999404,None,,,,,,,,,,,P002,fencog,2,Pre,2021_Jun_28_1047,Go No-Go Task,2021.1.4,120.55033626319849,
,"Rule: When you see a yellow image, do not press 'spacebar'.",Images/Happy/WF05_HC.jpg,Happy,Blue,Images/Blue.jpg,space,ParentConditions/YellowYellowBlue_v2.xlsx,YellowYellowBlue,Conditions/Version_2/YellowFearStop.xlsx,no,PASS,0.7681499259335962,,,,,,,,,0,0,0,1,0,0,0,0,0,76,76,76,,,,,,,,,,,,,,,,,,,,,,,,,,,,,,,,,,,,,,,,,,,,,,,,,,,,,,,,,,,,,,,,,,,,,,,,,,,,,,,1.28,500.2416803999804,None,space,1,0.30215379991568625,501.625701699988,None,501.625701699988,None,501.625701699988,None,,,,,,,,,,,P002,fencog,2,Pre,2021_Jun_28_1047,Go No-Go Task,2021.1.4,120.55033626319849,
,"Rule: When you see a yellow image, do not press 'spacebar'.",Images/Happy/BM03_HO.jpg,Happy,Blue,Images/Blue.jpg,space,ParentConditions/YellowYellowBlue_v2.xlsx,YellowYellowBlue,Conditions/Version_2/YellowFearStop.xlsx,no,PASS,0.5824047138137685,,,,,,,,,0,0,0,1,0,0,0,0,0,77,77,77,,,,,,,,,,,,,,,,,,,,,,,,,,,,,,,,,,,,,,,,,,,,,,,,,,,,,,,,,,,,,,,,,,,,,,,,,,,,,,,1.97,502.02494389994536,None,space,1,0.30668619996868074,504.09989620000124,None,504.09989620000124,None,504.09989620000124,None,,,,,,,,,,,P002,fencog,2,Pre,2021_Jun_28_1047,Go No-Go Task,2021.1.4,120.55033626319849,
,"Rule: When you see a yellow image, do not press 'spacebar'.",Images/Happy/AM02_HE.jpg,Happy,Blue,Images/Blue.jpg,space,ParentConditions/YellowYellowBlue_v2.xlsx,YellowYellowBlue,Conditions/Version_2/YellowFearStop.xlsx,no,PASS,0.8791068347561973,,,,,,,,,0,0,0,1,0,0,0,0,0,78,78,78,,,,,,,,,,,,,,,,,,,,,,,,,,,,,,,,,,,,,,,,,,,,,,,,,,,,,,,,,,,,,,,,,,,,,,,,,,,,,,,1.46,504.50027930003125,None,space,1,0.3575305000413209,506.06589049997274,None,506.06589049997274,None,506.06589049997274,None,,,,,,,,,,,P002,fencog,2,Pre,2021_Jun_28_1047,Go No-Go Task,2021.1.4,120.55033626319849,
,"Rule: When you see a yellow image, do not press 'spacebar'.",Images/Fearful/AM06_FO.jpg,Fear,Yellow,Images/Yellow.jpg,None,ParentConditions/YellowYellowBlue_v2.xlsx,YellowYellowBlue,Conditions/Version_2/YellowFearStop.xlsx,yes,PASS,0.40627235988994603,,,,,,,,,0,0,0,1,0,0,0,0,0,79,79,79,,,,,,,,,,,,,,,,,,,,,,,,,,,,,,,,,,,,,,,,,,,,,,,,,,,,,,,,,,,,,,,,,,,,,,,,,,,,,,,1.25,506.4683242000174,None,None,1,,507.82379699999,None,507.82379699999,None,507.82379699999,None,,,,,,,,,,,P002,fencog,2,Pre,2021_Jun_28_1047,Go No-Go Task,2021.1.4,120.55033626319849,
,"Rule: When you see a yellow image, do not press 'spacebar'.",Images/Scram2/HM09_NC.jpg,Scramble,Blue,Images/Blue.jpg,space,ParentConditions/YellowYellowBlue_v2.xlsx,YellowYellowBlue,Conditions/Version_2/YellowScramStop.xlsx,no,PASS,0.46719820189093064,,,,,,,,,0,0,0,1,0,1,1,1,0,0,0,0,,,,,,,,,,,,,,,,,,,,,,,,,,,,,,,,,,,,,,,,,,,,,,,,,,,,,,,,,,,,,,,,,509.05582759995013,None,512.0468233999563,None,space,0.13572009990457445,512.0468233999563,None,509.05582759995013,None,509.05582759995013,None,509.05582759995013,None,1.31,512.2320458999602,None,None,0,,513.6469818999758,None,513.6469818999758,None,513.6469818999758,None,508.24317110003904,None,space,0.30745780002325773,508.7312294000294,None,508.24317110003904,None,508.24317110003904,None,P002,fencog,2,Pre,2021_Jun_28_1047,Go No-Go Task,2021.1.4,120.55033626319849,
,"Rule: When you see a yellow image, do not press 'spacebar'.",Images/Scram2/HM06_NC.jpg,Scramble,Blue,Images/Blue.jpg,space,ParentConditions/YellowYellowBlue_v2.xlsx,YellowYellowBlue,Conditions/Version_2/YellowScramStop.xlsx,no,PASS,0.564231421897386,,,,,,,,,0,0,0,1,0,1,1,1,0,1,1,1,,,,,,,,,,,,,,,,,,,,,,,,,,,,,,,,,,,,,,,,,,,,,,,,,,,,,,,,,,,,,,,,,,,,,,,,,,,,,,,1.42,514.0571553999325,None,space,1,0.2516661999979988,515.5797458000015,None,515.5797458000015,None,515.5797458000015,None,,,,,,,,,,,P002,fencog,2,Pre,2021_Jun_28_1047,Go No-Go Task,2021.1.4,120.55033626319849,
,"Rule: When you see a yellow image, do not press 'spacebar'.",Images/Scram1/AM31NES.jpg,Scramble,Blue,Images/Blue.jpg,space,ParentConditions/YellowYellowBlue_v2.xlsx,YellowYellowBlue,Conditions/Version_2/YellowScramStop.xlsx,no,PASS,0.846238330522312,,,,,,,,,0,0,0,1,0,1,1,1,0,2,2,2,,,,,,,,,,,,,,,,,,,,,,,,,,,,,,,,,,,,,,,,,,,,,,,,,,,,,,,,,,,,,,,,,,,,,,,,,,,,,,,1.57,515.9854287999915,None,space,1,0.3527187999570742,517.6625370000256,None,517.6625370000256,None,517.6625370000256,None,,,,,,,,,,,P002,fencog,2,Pre,2021_Jun_28_1047,Go No-Go Task,2021.1.4,120.55033626319849,
,"Rule: When you see a yellow image, do not press 'spacebar'.",Images/Scram2/AM03NES.jpg,Scramble,Yellow,Images/Yellow.jpg,None,ParentConditions/YellowYellowBlue_v2.xlsx,YellowYellowBlue,Conditions/Version_2/YellowScramStop.xlsx,yes,PASS,0.3566483684653988,,,,,,,,,0,0,0,1,0,1,1,1,0,3,3,3,,,,,,,,,,,,,,,,,,,,,,,,,,,,,,,,,,,,,,,,,,,,,,,,,,,,,,,,,,,,,,,,,,,,,,,,,,,,,,,1.61,518.0683614999289,None,None,1,,519.7786331999814,None,519.7786331999814,None,519.7786331999814,None,,,,,,,,,,,P002,fencog,2,Pre,2021_Jun_28_1047,Go No-Go Task,2021.1.4,120.55033626319849,
,"Rule: When you see a yellow image, do not press 'spacebar'.",Images/Scram2/BM01_NC.jpg,Scramble,Blue,Images/Blue.jpg,space,ParentConditions/YellowYellowBlue_v2.xlsx,YellowYellowBlue,Conditions/Version_2/YellowScramStop.xlsx,no,PASS,0.6300515820310504,,,,,,,,,0,0,0,1,0,1,1,1,0,4,4,4,,,,,,,,,,,,,,,,,,,,,,,,,,,,,,,,,,,,,,,,,,,,,,,,,,,,,,,,,,,,,,,,,,,,,,,,,,,,,,,1.29,520.1798959999578,None,space,1,0.21439960005227476,521.5697393999435,None,521.5697393999435,None,521.5697393999435,None,,,,,,,,,,,P002,fencog,2,Pre,2021_Jun_28_1047,Go No-Go Task,2021.1.4,120.55033626319849,
,"Rule: When you see a yellow image, do not press 'spacebar'.",Images/Scram1/HM09_NC.jpg,Scramble,Blue,Images/Blue.jpg,space,ParentConditions/YellowYellowBlue_v2.xlsx,YellowYellowBlue,Conditions/Version_2/YellowScramStop.xlsx,no,PASS,0.9681952009545239,,,,,,,,,0,0,0,1,0,1,1,1,0,5,5,5,,,,,,,,,,,,,,,,,,,,,,,,,,,,,,,,,,,,,,,,,,,,,,,,,,,,,,,,,,,,,,,,,,,,,,,,,,,,,,,1.37,521.9758436999982,None,space,1,0.24254010000731796,523.4524632999673,None,523.4524632999673,None,523.4524632999673,None,,,,,,,,,,,P002,fencog,2,Pre,2021_Jun_28_1047,Go No-Go Task,2021.1.4,120.55033626319849,
,"Rule: When you see a yellow image, do not press 'spacebar'.",Images/Scram2/BF07_NC.jpg,Scramble,Blue,Images/Blue.jpg,space,ParentConditions/YellowYellowBlue_v2.xlsx,YellowYellowBlue,Conditions/Version_2/YellowScramStop.xlsx,no,PASS,0.21646267744166114,,,,,,,,,0,0,0,1,0,1,1,1,0,6,6,6,,,,,,,,,,,,,,,,,,,,,,,,,,,,,,,,,,,,,,,,,,,,,,,,,,,,,,,,,,,,,,,,,,,,,,,,,,,,,,,1.24,523.8517575999722,None,space,1,0.3010395000455901,525.1936299999943,None,525.1936299999943,None,525.1936299999943,None,,,,,,,,,,,P002,fencog,2,Pre,2021_Jun_28_1047,Go No-Go Task,2021.1.4,120.55033626319849,
,"Rule: When you see a yellow image, do not press 'spacebar'.",Images/Scram1/BF14_NC.jpg,Scramble,Blue,Images/Blue.jpg,space,ParentConditions/YellowYellowBlue_v2.xlsx,YellowYellowBlue,Conditions/Version_2/YellowScramStop.xlsx,no,PASS,0.9846643703258401,,,,,,,,,0,0,0,1,0,1,1,1,0,7,7,7,,,,,,,,,,,,,,,,,,,,,,,,,,,,,,,,,,,,,,,,,,,,,,,,,,,,,,,,,,,,,,,,,,,,,,,,,,,,,,,1.6,525.5947411999805,None,space,1,0.3133411000017077,527.3013763999334,None,527.3013763999334,None,527.3013763999334,None,,,,,,,,,,,P002,fencog,2,Pre,2021_Jun_28_1047,Go No-Go Task,2021.1.4,120.55033626319849,
,"Rule: When you see a yellow image, do not press 'spacebar'.",Images/Scram2/AF10_NC.jpg,Scramble,Blue,Images/Blue.jpg,space,ParentConditions/YellowYellowBlue_v2.xlsx,YellowYellowBlue,Conditions/Version_2/YellowScramStop.xlsx,no,PASS,0.2443614348279377,,,,,,,,,0,0,0,1,0,1,1,1,0,8,8,8,,,,,,,,,,,,,,,,,,,,,,,,,,,,,,,,,,,,,,,,,,,,,,,,,,,,,,,,,,,,,,,,,,,,,,,,,,,,,,,1.39,527.7064283000072,None,space,1,0.3176753999432549,529.2007251000032,None,529.2007251000032,None,529.2007251000032,None,,,,,,,,,,,P002,fencog,2,Pre,2021_Jun_28_1047,Go No-Go Task,2021.1.4,120.55033626319849,
,"Rule: When you see a yellow image, do not press 'spacebar'.",Images/Scram2/AF01_NC.jpg,Scramble,Blue,Images/Blue.jpg,space,ParentConditions/YellowYellowBlue_v2.xlsx,YellowYellowBlue,Conditions/Version_2/YellowScramStop.xlsx,no,PASS,0.5418077894665677,,,,,,,,,0,0,0,1,0,1,1,1,0,9,9,9,,,,,,,,,,,,,,,,,,,,,,,,,,,,,,,,,,,,,,,,,,,,,,,,,,,,,,,,,,,,,,,,,,,,,,,,,,,,,,,1.32,529.6021927000256,None,space,1,0.3575985999777913,531.0251297999639,None,531.0251297999639,None,531.0251297999639,None,,,,,,,,,,,P002,fencog,2,Pre,2021_Jun_28_1047,Go No-Go Task,2021.1.4,120.55033626319849,
,"Rule: When you see a yellow image, do not press 'spacebar'.",Images/Scram2/AF24NES.jpg,Scramble,Blue,Images/Blue.jpg,space,ParentConditions/YellowYellowBlue_v2.xlsx,YellowYellowBlue,Conditions/Version_2/YellowScramStop.xlsx,no,PASS,0.5679342954932528,,,,,,,,,0,0,0,1,0,1,1,1,0,10,10,10,,,,,,,,,,,,,,,,,,,,,,,,,,,,,,,,,,,,,,,,,,,,,,,,,,,,,,,,,,,,,,,,,,,,,,,,,,,,,,,1.77,531.4255636000307,None,space,1,0.33936300000641495,533.3078109000344,None,533.3078109000344,None,533.3078109000344,None,,,,,,,,,,,P002,fencog,2,Pre,2021_Jun_28_1047,Go No-Go Task,2021.1.4,120.55033626319849,
,"Rule: When you see a yellow image, do not press 'spacebar'.",Images/Scram2/BF14_NC.jpg,Scramble,Blue,Images/Blue.jpg,space,ParentConditions/YellowYellowBlue_v2.xlsx,YellowYellowBlue,Conditions/Version_2/YellowScramStop.xlsx,no,PASS,0.8825179199303765,,,,,,,,,0,0,0,1,0,1,1,1,0,11,11,11,,,,,,,,,,,,,,,,,,,,,,,,,,,,,,,,,,,,,,,,,,,,,,,,,,,,,,,,,,,,,,,,,,,,,,,,,,,,,,,1.7,533.7067596999696,None,space,1,0.33147859992459416,535.507170900004,None,535.507170900004,None,535.507170900004,None,,,,,,,,,,,P002,fencog,2,Pre,2021_Jun_28_1047,Go No-Go Task,2021.1.4,120.55033626319849,
,"Rule: When you see a yellow image, do not press 'spacebar'.",Images/Scram1/AM13NES.jpg,Scramble,Blue,Images/Blue.jpg,space,ParentConditions/YellowYellowBlue_v2.xlsx,YellowYellowBlue,Conditions/Version_2/YellowScramStop.xlsx,no,PASS,0.21043647733489834,,,,,,,,,0,0,0,1,0,1,1,1,0,12,12,12,,,,,,,,,,,,,,,,,,,,,,,,,,,,,,,,,,,,,,,,,,,,,,,,,,,,,,,,,,,,,,,,,,,,,,,,,,,,,,,1.74,535.9102516999701,None,space,1,0.21844720002263784,537.7568923999788,None,537.7568923999788,None,537.7568923999788,None,,,,,,,,,,,P002,fencog,2,Pre,2021_Jun_28_1047,Go No-Go Task,2021.1.4,120.55033626319849,
,"Rule: When you see a yellow image, do not press 'spacebar'.",Images/Scram1/HM04_NC.jpg,Scramble,Blue,Images/Blue.jpg,space,ParentConditions/YellowYellowBlue_v2.xlsx,YellowYellowBlue,Conditions/Version_2/YellowScramStop.xlsx,no,PASS,0.048118244636673246,,,,,,,,,0,0,0,1,0,1,1,1,0,13,13,13,,,,,,,,,,,,,,,,,,,,,,,,,,,,,,,,,,,,,,,,,,,,,,,,,,,,,,,,,,,,,,,,,,,,,,,,,,,,,,,1.28,538.1617354999762,None,None,0,,539.5477806000272,None,539.5477806000272,None,539.5477806000272,None,,,,,,,,,,,P002,fencog,2,Pre,2021_Jun_28_1047,Go No-Go Task,2021.1.4,120.55033626319849,
,"Rule: When you see a yellow image, do not press 'spacebar'.",Images/Scram1/AM03NES.jpg,Scramble,Blue,Images/Blue.jpg,space,ParentConditions/YellowYellowBlue_v2.xlsx,YellowYellowBlue,Conditions/Version_2/YellowScramStop.xlsx,no,PASS,0.5072407620323995,,,,,,,,,0,0,0,1,0,1,1,1,0,14,14,14,,,,,,,,,,,,,,,,,,,,,,,,,,,,,,,,,,,,,,,,,,,,,,,,,,,,,,,,,,,,,,,,,,,,,,,,,,,,,,,1.84,539.9548756999429,None,space,1,0.25407129991799593,541.888635899988,None,541.888635899988,None,541.888635899988,None,,,,,,,,,,,P002,fencog,2,Pre,2021_Jun_28_1047,Go No-Go Task,2021.1.4,120.55033626319849,
,"Rule: When you see a yellow image, do not press 'spacebar'.",Images/Scram1/AM22NES.jpg,Scramble,Blue,Images/Blue.jpg,space,ParentConditions/YellowYellowBlue_v2.xlsx,YellowYellowBlue,Conditions/Version_2/YellowScramStop.xlsx,no,PASS,0.8332736468200919,,,,,,,,,0,0,0,1,0,1,1,1,0,15,15,15,,,,,,,,,,,,,,,,,,,,,,,,,,,,,,,,,,,,,,,,,,,,,,,,,,,,,,,,,,,,,,,,,,,,,,,,,,,,,,,1.33,542.2933447000105,None,space,1,0.28430409997235984,543.7381923999637,None,543.7381923999637,None,543.7381923999637,None,,,,,,,,,,,P002,fencog,2,Pre,2021_Jun_28_1047,Go No-Go Task,2021.1.4,120.55033626319849,
,"Rule: When you see a yellow image, do not press 'spacebar'.",Images/Scram2/AM17NES.jpg,Scramble,Yellow,Images/Yellow.jpg,None,ParentConditions/YellowYellowBlue_v2.xlsx,YellowYellowBlue,Conditions/Version_2/YellowScramStop.xlsx,yes,PASS,0.5524440306249002,,,,,,,,,0,0,0,1,0,1,1,1,0,16,16,16,,,,,,,,,,,,,,,,,,,,,,,,,,,,,,,,,,,,,,,,,,,,,,,,,,,,,,,,,,,,,,,,,,,,,,,,,,,,,,,1.2,544.1405422999524,None,None,1,,545.45421789994,None,545.45421789994,None,545.45421789994,None,,,,,,,,,,,P002,fencog,2,Pre,2021_Jun_28_1047,Go No-Go Task,2021.1.4,120.55033626319849,
,"Rule: When you see a yellow image, do not press 'spacebar'.",Images/Scram1/AM10NES.jpg,Scramble,Blue,Images/Blue.jpg,space,ParentConditions/YellowYellowBlue_v2.xlsx,YellowYellowBlue,Conditions/Version_2/YellowScramStop.xlsx,no,PASS,0.13699730503466545,,,,,,,,,0,0,0,1,0,1,1,1,0,17,17,17,,,,,,,,,,,,,,,,,,,,,,,,,,,,,,,,,,,,,,,,,,,,,,,,,,,,,,,,,,,,,,,,,,,,,,,,,,,,,,,1.51,545.8534382999642,None,space,1,0.33611929998733103,547.4703828999773,None,547.4703828999773,None,547.4703828999773,None,,,,,,,,,,,P002,fencog,2,Pre,2021_Jun_28_1047,Go No-Go Task,2021.1.4,120.55033626319849,
,"Rule: When you see a yellow image, do not press 'spacebar'.",Images/Scram2/AM03_NC.jpg,Scramble,Yellow,Images/Yellow.jpg,None,ParentConditions/YellowYellowBlue_v2.xlsx,YellowYellowBlue,Conditions/Version_2/YellowScramStop.xlsx,yes,PASS,0.2886954903206703,,,,,,,,,0,0,0,1,0,1,1,1,0,18,18,18,,,,,,,,,,,,,,,,,,,,,,,,,,,,,,,,,,,,,,,,,,,,,,,,,,,,,,,,,,,,,,,,,,,,,,,,,,,,,,,1.25,547.8793799999403,None,None,1,,549.2365734999767,None,549.2365734999767,None,549.2365734999767,None,,,,,,,,,,,P002,fencog,2,Pre,2021_Jun_28_1047,Go No-Go Task,2021.1.4,120.55033626319849,
,"Rule: When you see a yellow image, do not press 'spacebar'.",Images/Scram1/HF09_NC.jpg,Scramble,Blue,Images/Blue.jpg,space,ParentConditions/YellowYellowBlue_v2.xlsx,YellowYellowBlue,Conditions/Version_2/YellowScramStop.xlsx,no,PASS,0.5210471780653185,,,,,,,,,0,0,0,1,0,1,1,1,0,19,19,19,,,,,,,,,,,,,,,,,,,,,,,,,,,,,,,,,,,,,,,,,,,,,,,,,,,,,,,,,,,,,,,,,,,,,,,,,,,,,,,2,549.637437999947,None,space,1,0.2948182999389246,551.7443740000017,None,551.7443740000017,None,551.7443740000017,None,,,,,,,,,,,P002,fencog,2,Pre,2021_Jun_28_1047,Go No-Go Task,2021.1.4,120.55033626319849,
,"Rule: When you see a yellow image, do not press 'spacebar'.",Images/Scram1/BM08_NC.jpg,Scramble,Blue,Images/Blue.jpg,space,ParentConditions/YellowYellowBlue_v2.xlsx,YellowYellowBlue,Conditions/Version_2/YellowScramStop.xlsx,no,PASS,0.7192207106921986,,,,,,,,,0,0,0,1,0,1,1,1,0,20,20,20,,,,,,,,,,,,,,,,,,,,,,,,,,,,,,,,,,,,,,,,,,,,,,,,,,,,,,,,,,,,,,,,,,,,,,,,,,,,,,,1.59,552.1444708999479,None,space,1,0.2843883999157697,553.8351570999948,None,553.8351570999948,None,553.8351570999948,None,,,,,,,,,,,P002,fencog,2,Pre,2021_Jun_28_1047,Go No-Go Task,2021.1.4,120.55033626319849,
,"Rule: When you see a yellow image, do not press 'spacebar'.",Images/Scram1/AF32NES.jpg,Scramble,Blue,Images/Blue.jpg,space,ParentConditions/YellowYellowBlue_v2.xlsx,YellowYellowBlue,Conditions/Version_2/YellowScramStop.xlsx,no,PASS,0.3856706921106089,,,,,,,,,0,0,0,1,0,1,1,1,0,21,21,21,,,,,,,,,,,,,,,,,,,,,,,,,,,,,,,,,,,,,,,,,,,,,,,,,,,,,,,,,,,,,,,,,,,,,,,,,,,,,,,1.54,554.2347814999521,None,space,1,0.242581200087443,555.8845056999708,None,555.8845056999708,None,555.8845056999708,None,,,,,,,,,,,P002,fencog,2,Pre,2021_Jun_28_1047,Go No-Go Task,2021.1.4,120.55033626319849,
,"Rule: When you see a yellow image, do not press 'spacebar'.",Images/Scram2/AM06_NC.jpg,Scramble,Yellow,Images/Yellow.jpg,None,ParentConditions/YellowYellowBlue_v2.xlsx,YellowYellowBlue,Conditions/Version_2/YellowScramStop.xlsx,yes,PASS,0.593844606938259,,,,,,,,,0,0,0,1,0,1,1,1,0,22,22,22,,,,,,,,,,,,,,,,,,,,,,,,,,,,,,,,,,,,,,,,,,,,,,,,,,,,,,,,,,,,,,,,,,,,,,,,,,,,,,,1.55,556.2835964999394,None,None,1,,557.9339855000144,None,557.9339855000144,None,557.9339855000144,None,,,,,,,,,,,P002,fencog,2,Pre,2021_Jun_28_1047,Go No-Go Task,2021.1.4,120.55033626319849,
,"Rule: When you see a yellow image, do not press 'spacebar'.",Images/Scram1/AM06_NC.jpg,Scramble,Blue,Images/Blue.jpg,space,ParentConditions/YellowYellowBlue_v2.xlsx,YellowYellowBlue,Conditions/Version_2/YellowScramStop.xlsx,no,PASS,0.5597751985943138,,,,,,,,,0,0,0,1,0,1,1,1,0,23,23,23,,,,,,,,,,,,,,,,,,,,,,,,,,,,,,,,,,,,,,,,,,,,,,,,,,,,,,,,,,,,,,,,,,,,,,,,,,,,,,,1.22,558.3346776999533,None,space,1,0.2842917999951169,559.6583606000058,None,559.6583606000058,None,559.6583606000058,None,,,,,,,,,,,P002,fencog,2,Pre,2021_Jun_28_1047,Go No-Go Task,2021.1.4,120.55033626319849,
,"Rule: When you see a yellow image, do not press 'spacebar'.",Images/Scram2/AM02_NC.jpg,Scramble,Yellow,Images/Yellow.jpg,None,ParentConditions/YellowYellowBlue_v2.xlsx,YellowYellowBlue,Conditions/Version_2/YellowScramStop.xlsx,yes,PASS,0.21014535444537008,,,,,,,,,0,0,0,1,0,1,1,1,0,24,24,24,,,,,,,,,,,,,,,,,,,,,,,,,,,,,,,,,,,,,,,,,,,,,,,,,,,,,,,,,,,,,,,,,,,,,,,,,,,,,,,1.27,560.0590407999698,None,None,1,,561.4331125000026,None,561.4331125000026,None,561.4331125000026,None,,,,,,,,,,,P002,fencog,2,Pre,2021_Jun_28_1047,Go No-Go Task,2021.1.4,120.55033626319849,
,"Rule: When you see a yellow image, do not press 'spacebar'.",Images/Scram2/HF05_NC.jpg,Scramble,Blue,Images/Blue.jpg,space,ParentConditions/YellowYellowBlue_v2.xlsx,YellowYellowBlue,Conditions/Version_2/YellowScramStop.xlsx,no,PASS,0.0025091428399978133,,,,,,,,,0,0,0,1,0,1,1,1,0,25,25,25,,,,,,,,,,,,,,,,,,,,,,,,,,,,,,,,,,,,,,,,,,,,,,,,,,,,,,,,,,,,,,,,,,,,,,,,,,,,,,,1.43,561.8348011999624,None,space,1,0.37783679994754493,563.3656132000033,None,563.3656132000033,None,563.3656132000033,None,,,,,,,,,,,P002,fencog,2,Pre,2021_Jun_28_1047,Go No-Go Task,2021.1.4,120.55033626319849,
,"Rule: When you see a yellow image, do not press 'spacebar'.",Images/Scram2/AF32NES.jpg,Scramble,Yellow,Images/Yellow.jpg,None,ParentConditions/YellowYellowBlue_v2.xlsx,YellowYellowBlue,Conditions/Version_2/YellowScramStop.xlsx,yes,PASS,0.5621638043526047,,,,,,,,,0,0,0,1,0,1,1,1,0,26,26,26,,,,,,,,,,,,,,,,,,,,,,,,,,,,,,,,,,,,,,,,,,,,,,,,,,,,,,,,,,,,,,,,,,,,,,,,,,,,,,,1.52,563.7745373999933,None,None,1,,565.4067138000391,None,565.4067138000391,None,565.4067138000391,None,,,,,,,,,,,P002,fencog,2,Pre,2021_Jun_28_1047,Go No-Go Task,2021.1.4,120.55033626319849,
,"Rule: When you see a yellow image, do not press 'spacebar'.",Images/Scram2/HM04_NC.jpg,Scramble,Blue,Images/Blue.jpg,space,ParentConditions/YellowYellowBlue_v2.xlsx,YellowYellowBlue,Conditions/Version_2/YellowScramStop.xlsx,no,PASS,0.3656961779732233,,,,,,,,,0,0,0,1,0,1,1,1,0,27,27,27,,,,,,,,,,,,,,,,,,,,,,,,,,,,,,,,,,,,,,,,,,,,,,,,,,,,,,,,,,,,,,,,,,,,,,,,,,,,,,,1.3,565.8057796999346,None,space,1,0.23250969999935478,567.206049600034,None,567.206049600034,None,567.206049600034,None,,,,,,,,,,,P002,fencog,2,Pre,2021_Jun_28_1047,Go No-Go Task,2021.1.4,120.55033626319849,
,"Rule: When you see a yellow image, do not press 'spacebar'.",Images/Scram2/AF25NES.jpg,Scramble,Blue,Images/Blue.jpg,space,ParentConditions/YellowYellowBlue_v2.xlsx,YellowYellowBlue,Conditions/Version_2/YellowScramStop.xlsx,no,PASS,0.24296732370581886,,,,,,,,,0,0,0,1,0,1,1,1,0,28,28,28,,,,,,,,,,,,,,,,,,,,,,,,,,,,,,,,,,,,,,,,,,,,,,,,,,,,,,,,,,,,,,,,,,,,,,,,,,,,,,,1.75,567.6107358000008,None,space,1,0.334698099992238,569.4637981000124,None,569.4637981000124,None,569.4637981000124,None,,,,,,,,,,,P002,fencog,2,Pre,2021_Jun_28_1047,Go No-Go Task,2021.1.4,120.55033626319849,
,"Rule: When you see a yellow image, do not press 'spacebar'.",Images/Scram1/AF34NES.jpg,Scramble,Blue,Images/Blue.jpg,space,ParentConditions/YellowYellowBlue_v2.xlsx,YellowYellowBlue,Conditions/Version_2/YellowScramStop.xlsx,no,PASS,0.2947970947694444,,,,,,,,,0,0,0,1,0,1,1,1,0,29,29,29,,,,,,,,,,,,,,,,,,,,,,,,,,,,,,,,,,,,,,,,,,,,,,,,,,,,,,,,,,,,,,,,,,,,,,,,,,,,,,,1.4,569.8639479000121,None,space,1,0.29896150005515665,571.3715784000233,None,571.3715784000233,None,571.3715784000233,None,,,,,,,,,,,P002,fencog,2,Pre,2021_Jun_28_1047,Go No-Go Task,2021.1.4,120.55033626319849,
,"Rule: When you see a yellow image, do not press 'spacebar'.",Images/Scram2/AF11NES.jpg,Scramble,Blue,Images/Blue.jpg,space,ParentConditions/YellowYellowBlue_v2.xlsx,YellowYellowBlue,Conditions/Version_2/YellowScramStop.xlsx,no,PASS,0.06112693600308039,,,,,,,,,0,0,0,1,0,1,1,1,0,30,30,30,,,,,,,,,,,,,,,,,,,,,,,,,,,,,,,,,,,,,,,,,,,,,,,,,,,,,,,,,,,,,,,,,,,,,,,,,,,,,,,1.35,571.7719961999683,None,space,1,0.2649970999918878,573.2296599999536,None,573.2296599999536,None,573.2296599999536,None,,,,,,,,,,,P002,fencog,2,Pre,2021_Jun_28_1047,Go No-Go Task,2021.1.4,120.55033626319849,
,"Rule: When you see a yellow image, do not press 'spacebar'.",Images/Scram2/AF34NES.jpg,Scramble,Yellow,Images/Yellow.jpg,None,ParentConditions/YellowYellowBlue_v2.xlsx,YellowYellowBlue,Conditions/Version_2/YellowScramStop.xlsx,yes,PASS,0.36837427021744795,,,,,,,,,0,0,0,1,0,1,1,1,0,31,31,31,,,,,,,,,,,,,,,,,,,,,,,,,,,,,,,,,,,,,,,,,,,,,,,,,,,,,,,,,,,,,,,,,,,,,,,,,,,,,,,1.64,573.6654880000278,None,None,1,,575.4203415999655,None,575.4203415999655,None,575.4203415999655,None,,,,,,,,,,,P002,fencog,2,Pre,2021_Jun_28_1047,Go No-Go Task,2021.1.4,120.55033626319849,
,"Rule: When you see a yellow image, do not press 'spacebar'.",Images/Scram1/AM02_NC.jpg,Scramble,Blue,Images/Blue.jpg,space,ParentConditions/YellowYellowBlue_v2.xlsx,YellowYellowBlue,Conditions/Version_2/YellowScramStop.xlsx,no,PASS,0.7004017432139685,,,,,,,,,0,0,0,1,0,1,1,1,0,32,32,32,,,,,,,,,,,,,,,,,,,,,,,,,,,,,,,,,,,,,,,,,,,,,,,,,,,,,,,,,,,,,,,,,,,,,,,,,,,,,,,1.88,575.8167629999807,None,space,1,0.3316951999440789,577.8032287999522,None,577.8032287999522,None,577.8032287999522,None,,,,,,,,,,,P002,fencog,2,Pre,2021_Jun_28_1047,Go No-Go Task,2021.1.4,120.55033626319849,
,"Rule: When you see a yellow image, do not press 'spacebar'.",Images/Scram2/AM13NES.jpg,Scramble,Yellow,Images/Yellow.jpg,None,ParentConditions/YellowYellowBlue_v2.xlsx,YellowYellowBlue,Conditions/Version_2/YellowScramStop.xlsx,yes,PASS,0.7037668434542473,,,,,,,,,0,0,0,1,0,1,1,1,0,33,33,33,,,,,,,,,,,,,,,,,,,,,,,,,,,,,,,,,,,,,,,,,,,,,,,,,,,,,,,,,,,,,,,,,,,,,,,,,,,,,,,1.45,578.2135139999446,None,None,1,,579.7774672999512,None,579.7774672999512,None,579.7774672999512,None,,,,,,,,,,,P002,fencog,2,Pre,2021_Jun_28_1047,Go No-Go Task,2021.1.4,120.55033626319849,
,"Rule: When you see a yellow image, do not press 'spacebar'.",Images/Scram1/AM03_NC.jpg,Scramble,Blue,Images/Blue.jpg,space,ParentConditions/YellowYellowBlue_v2.xlsx,YellowYellowBlue,Conditions/Version_2/YellowScramStop.xlsx,no,PASS,0.13984736132192788,,,,,,,,,0,0,0,1,0,1,1,1,0,34,34,34,,,,,,,,,,,,,,,,,,,,,,,,,,,,,,,,,,,,,,,,,,,,,,,,,,,,,,,,,,,,,,,,,,,,,,,,,,,,,,,1.63,580.1764022000134,None,space,1,0.2964939000084996,581.9018691999372,None,581.9018691999372,None,581.9018691999372,None,,,,,,,,,,,P002,fencog,2,Pre,2021_Jun_28_1047,Go No-Go Task,2021.1.4,120.55033626319849,
,"Rule: When you see a yellow image, do not press 'spacebar'.",Images/Scram1/AF33NES.jpg,Scramble,Blue,Images/Blue.jpg,space,ParentConditions/YellowYellowBlue_v2.xlsx,YellowYellowBlue,Conditions/Version_2/YellowScramStop.xlsx,no,PASS,0.7479968675198729,,,,,,,,,0,0,0,1,0,1,1,1,0,35,35,35,,,,,,,,,,,,,,,,,,,,,,,,,,,,,,,,,,,,,,,,,,,,,,,,,,,,,,,,,,,,,,,,,,,,,,,,,,,,,,,1.36,582.3052695000079,None,None,0,,583.7679957000073,None,583.7679957000073,None,583.7679957000073,None,,,,,,,,,,,P002,fencog,2,Pre,2021_Jun_28_1047,Go No-Go Task,2021.1.4,120.55033626319849,
,"Rule: When you see a yellow image, do not press 'spacebar'.",Images/Scram1/BF10_NC.jpg,Scramble,Blue,Images/Blue.jpg,space,ParentConditions/YellowYellowBlue_v2.xlsx,YellowYellowBlue,Conditions/Version_2/YellowScramStop.xlsx,no,PASS,0.5225639267337787,,,,,,,,,0,0,0,1,0,1,1,1,0,36,36,36,,,,,,,,,,,,,,,,,,,,,,,,,,,,,,,,,,,,,,,,,,,,,,,,,,,,,,,,,,,,,,,,,,,,,,,,,,,,,,,1.47,584.1686188000022,None,space,1,0.3361126999370754,585.7424038000172,None,585.7424038000172,None,585.7424038000172,None,,,,,,,,,,,P002,fencog,2,Pre,2021_Jun_28_1047,Go No-Go Task,2021.1.4,120.55033626319849,
,"Rule: When you see a yellow image, do not press 'spacebar'.",Images/Scram1/AF07_NC.jpg,Scramble,Blue,Images/Blue.jpg,space,ParentConditions/YellowYellowBlue_v2.xlsx,YellowYellowBlue,Conditions/Version_2/YellowScramStop.xlsx,no,PASS,0.5221002530466395,,,,,,,,,0,0,0,1,0,1,1,1,0,37,37,37,,,,,,,,,,,,,,,,,,,,,,,,,,,,,,,,,,,,,,,,,,,,,,,,,,,,,,,,,,,,,,,,,,,,,,,,,,,,,,,1.66,586.1445124000311,None,space,1,0.29777179996017367,587.9088441999629,None,587.9088441999629,None,587.9088441999629,None,,,,,,,,,,,P002,fencog,2,Pre,2021_Jun_28_1047,Go No-Go Task,2021.1.4,120.55033626319849,
,"Rule: When you see a yellow image, do not press 'spacebar'.",Images/Scram2/AM23NES.jpg,Scramble,Yellow,Images/Yellow.jpg,None,ParentConditions/YellowYellowBlue_v2.xlsx,YellowYellowBlue,Conditions/Version_2/YellowScramStop.xlsx,yes,PASS,0.18195499113806335,,,,,,,,,0,0,0,1,0,1,1,1,0,38,38,38,,,,,,,,,,,,,,,,,,,,,,,,,,,,,,,,,,,,,,,,,,,,,,,,,,,,,,,,,,,,,,,,,,,,,,,,,,,,,,,1.69,588.3087924999418,None,None,1,,590.0992526999908,None,590.0992526999908,None,590.0992526999908,None,,,,,,,,,,,P002,fencog,2,Pre,2021_Jun_28_1047,Go No-Go Task,2021.1.4,120.55033626319849,
,"Rule: When you see a yellow image, do not press 'spacebar'.",Images/Scram1/AF24NES.jpg,Scramble,Blue,Images/Blue.jpg,space,ParentConditions/YellowYellowBlue_v2.xlsx,YellowYellowBlue,Conditions/Version_2/YellowScramStop.xlsx,no,PASS,0.6640389388315467,,,,,,,,,0,0,0,1,0,1,1,1,0,39,39,39,,,,,,,,,,,,,,,,,,,,,,,,,,,,,,,,,,,,,,,,,,,,,,,,,,,,,,,,,,,,,,,,,,,,,,,,,,,,,,,1.76,590.504783899989,None,space,1,0.28142430004663765,592.3654384999536,None,592.3654384999536,None,592.3654384999536,None,,,,,,,,,,,P002,fencog,2,Pre,2021_Jun_28_1047,Go No-Go Task,2021.1.4,120.55033626319849,
,"Rule: When you see a yellow image, do not press 'spacebar'.",Images/Scram2/AF33NES.jpg,Scramble,Yellow,Images/Yellow.jpg,None,ParentConditions/YellowYellowBlue_v2.xlsx,YellowYellowBlue,Conditions/Version_2/YellowScramStop.xlsx,yes,PASS,0.6203826022283658,,,,,,,,,0,0,0,1,0,1,1,1,0,40,40,40,,,,,,,,,,,,,,,,,,,,,,,,,,,,,,,,,,,,,,,,,,,,,,,,,,,,,,,,,,,,,,,,,,,,,,,,,,,,,,,1.23,592.766183199943,None,None,1,,594.0981536000036,None,594.0981536000036,None,594.0981536000036,None,,,,,,,,,,,P002,fencog,2,Pre,2021_Jun_28_1047,Go No-Go Task,2021.1.4,120.55033626319849,
,"Rule: When you see a yellow image, do not press 'spacebar'.",Images/Scram1/AF25NES.jpg,Scramble,Blue,Images/Blue.jpg,space,ParentConditions/YellowYellowBlue_v2.xlsx,YellowYellowBlue,Conditions/Version_2/YellowScramStop.xlsx,no,PASS,0.05141546475857928,,,,,,,,,0,0,0,1,0,1,1,1,0,41,41,41,,,,,,,,,,,,,,,,,,,,,,,,,,,,,,,,,,,,,,,,,,,,,,,,,,,,,,,,,,,,,,,,,,,,,,,,,,,,,,,1.53,594.5009639000054,None,space,1,0.28373590006958693,596.1309092999436,None,596.1309092999436,None,596.1309092999436,None,,,,,,,,,,,P002,fencog,2,Pre,2021_Jun_28_1047,Go No-Go Task,2021.1.4,120.55033626319849,
,"Rule: When you see a yellow image, do not press 'spacebar'.",Images/Scram2/AM10NES.jpg,Scramble,Yellow,Images/Yellow.jpg,None,ParentConditions/YellowYellowBlue_v2.xlsx,YellowYellowBlue,Conditions/Version_2/YellowScramStop.xlsx,yes,PASS,0.1267743006232639,,,,,,,,,0,0,0,1,0,1,1,1,0,42,42,42,,,,,,,,,,,,,,,,,,,,,,,,,,,,,,,,,,,,,,,,,,,,,,,,,,,,,,,,,,,,,,,,,,,,,,,,,,,,,,,1.81,596.5314652000088,None,None,1,,598.4468329999363,None,598.4468329999363,None,598.4468329999363,None,,,,,,,,,,,P002,fencog,2,Pre,2021_Jun_28_1047,Go No-Go Task,2021.1.4,120.55033626319849,
,"Rule: When you see a yellow image, do not press 'spacebar'.",Images/Scram2/BF10_NC.jpg,Scramble,Blue,Images/Blue.jpg,space,ParentConditions/YellowYellowBlue_v2.xlsx,YellowYellowBlue,Conditions/Version_2/YellowScramStop.xlsx,no,PASS,0.22016560502147287,,,,,,,,,0,0,0,1,0,1,1,1,0,43,43,43,,,,,,,,,,,,,,,,,,,,,,,,,,,,,,,,,,,,,,,,,,,,,,,,,,,,,,,,,,,,,,,,,,,,,,,,,,,,,,,1.91,598.8461843000259,None,space,1,0.2717675999738276,600.8630131999962,None,600.8630131999962,None,600.8630131999962,None,,,,,,,,,,,P002,fencog,2,Pre,2021_Jun_28_1047,Go No-Go Task,2021.1.4,120.55033626319849,
,"Rule: When you see a yellow image, do not press 'spacebar'.",Images/Scram1/BF18_NC.jpg,Scramble,Blue,Images/Blue.jpg,space,ParentConditions/YellowYellowBlue_v2.xlsx,YellowYellowBlue,Conditions/Version_2/YellowScramStop.xlsx,no,PASS,0.11487631985977975,,,,,,,,,0,0,0,1,0,1,1,1,0,44,44,44,,,,,,,,,,,,,,,,,,,,,,,,,,,,,,,,,,,,,,,,,,,,,,,,,,,,,,,,,,,,,,,,,,,,,,,,,,,,,,,1.92,601.2634510999778,None,space,1,0.31951559998560697,603.2871827000054,None,603.2871827000054,None,603.2871827000054,None,,,,,,,,,,,P002,fencog,2,Pre,2021_Jun_28_1047,Go No-Go Task,2021.1.4,120.55033626319849,
,"Rule: When you see a yellow image, do not press 'spacebar'.",Images/Scram2/HF09_NC.jpg,Scramble,Blue,Images/Blue.jpg,space,ParentConditions/YellowYellowBlue_v2.xlsx,YellowYellowBlue,Conditions/Version_2/YellowScramStop.xlsx,no,PASS,0.20475492045840804,,,,,,,,,0,0,0,1,0,1,1,1,0,45,45,45,,,,,,,,,,,,,,,,,,,,,,,,,,,,,,,,,,,,,,,,,,,,,,,,,,,,,,,,,,,,,,,,,,,,,,,,,,,,,,,1.9,603.687835699995,None,space,1,0.3283979999832809,605.6945701999357,None,605.6945701999357,None,605.6945701999357,None,,,,,,,,,,,P002,fencog,2,Pre,2021_Jun_28_1047,Go No-Go Task,2021.1.4,120.55033626319849,
,"Rule: When you see a yellow image, do not press 'spacebar'.",Images/Scram1/BF05_NC.jpg,Scramble,Blue,Images/Blue.jpg,space,ParentConditions/YellowYellowBlue_v2.xlsx,YellowYellowBlue,Conditions/Version_2/YellowScramStop.xlsx,no,PASS,0.6685497116677461,,,,,,,,,0,0,0,1,0,1,1,1,0,46,46,46,,,,,,,,,,,,,,,,,,,,,,,,,,,,,,,,,,,,,,,,,,,,,,,,,,,,,,,,,,,,,,,,,,,,,,,,,,,,,,,1.26,606.0951884000096,None,space,1,0.3301535000791773,607.4609241000144,None,607.4609241000144,None,607.4609241000144,None,,,,,,,,,,,P002,fencog,2,Pre,2021_Jun_28_1047,Go No-Go Task,2021.1.4,120.55033626319849,
,"Rule: When you see a yellow image, do not press 'spacebar'.",Images/Scram1/AM17NES.jpg,Scramble,Blue,Images/Blue.jpg,space,ParentConditions/YellowYellowBlue_v2.xlsx,YellowYellowBlue,Conditions/Version_2/YellowScramStop.xlsx,no,PASS,0.5575549831069895,,,,,,,,,0,0,0,1,0,1,1,1,0,47,47,47,,,,,,,,,,,,,,,,,,,,,,,,,,,,,,,,,,,,,,,,,,,,,,,,,,,,,,,,,,,,,,,,,,,,,,,,,,,,,,,1.79,607.8596558000427,None,None,0,,609.7518663000083,None,609.7518663000083,None,609.7518663000083,None,,,,,,,,,,,P002,fencog,2,Pre,2021_Jun_28_1047,Go No-Go Task,2021.1.4,120.55033626319849,
,"Rule: When you see a yellow image, do not press 'spacebar'.",Images/Scram2/AM09_NC.jpg,Scramble,Yellow,Images/Yellow.jpg,None,ParentConditions/YellowYellowBlue_v2.xlsx,YellowYellowBlue,Conditions/Version_2/YellowScramStop.xlsx,yes,PASS,0.08490473937246712,,,,,,,,,0,0,0,1,0,1,1,1,0,48,48,48,,,,,,,,,,,,,,,,,,,,,,,,,,,,,,,,,,,,,,,,,,,,,,,,,,,,,,,,,,,,,,,,,,,,,,,,,,,,,,,1.87,610.1528342999518,None,None,1,,612.1260885000229,None,612.1260885000229,None,612.1260885000229,None,,,,,,,,,,,P002,fencog,2,Pre,2021_Jun_28_1047,Go No-Go Task,2021.1.4,120.55033626319849,
,"Rule: When you see a yellow image, do not press 'spacebar'.",Images/Scram2/AF09NES.jpg,Scramble,Blue,Images/Blue.jpg,space,ParentConditions/YellowYellowBlue_v2.xlsx,YellowYellowBlue,Conditions/Version_2/YellowScramStop.xlsx,no,PASS,0.8511922023884788,,,,,,,,,0,0,0,1,0,1,1,1,0,49,49,49,,,,,,,,,,,,,,,,,,,,,,,,,,,,,,,,,,,,,,,,,,,,,,,,,,,,,,,,,,,,,,,,,,,,,,,,,,,,,,,1.68,612.5269699000055,None,None,0,,614.3089113000315,None,614.3089113000315,None,614.3089113000315,None,,,,,,,,,,,P002,fencog,2,Pre,2021_Jun_28_1047,Go No-Go Task,2021.1.4,120.55033626319849,
,"Rule: When you see a yellow image, do not press 'spacebar'.",Images/Scram2/AM04_NC.jpg,Scramble,Yellow,Images/Yellow.jpg,None,ParentConditions/YellowYellowBlue_v2.xlsx,YellowYellowBlue,Conditions/Version_2/YellowScramStop.xlsx,yes,PASS,0.9711738915701108,,,,,,,,,0,0,0,1,0,1,1,1,0,50,50,50,,,,,,,,,,,,,,,,,,,,,,,,,,,,,,,,,,,,,,,,,,,,,,,,,,,,,,,,,,,,,,,,,,,,,,,,,,,,,,,1.34,614.7087436999427,None,None,1,,616.1499644999858,None,616.1499644999858,None,616.1499644999858,None,,,,,,,,,,,P002,fencog,2,Pre,2021_Jun_28_1047,Go No-Go Task,2021.1.4,120.55033626319849,
,"Rule: When you see a yellow image, do not press 'spacebar'.",Images/Scram2/BF05_NC.jpg,Scramble,Yellow,Images/Yellow.jpg,None,ParentConditions/YellowYellowBlue_v2.xlsx,YellowYellowBlue,Conditions/Version_2/YellowScramStop.xlsx,yes,PASS,0.3684660889098009,,,,,,,,,0,0,0,1,0,1,1,1,0,51,51,51,,,,,,,,,,,,,,,,,,,,,,,,,,,,,,,,,,,,,,,,,,,,,,,,,,,,,,,,,,,,,,,,,,,,,,,,,,,,,,,1.96,616.550790600013,None,None,1,,618.6159226000309,None,618.6159226000309,None,618.6159226000309,None,,,,,,,,,,,P002,fencog,2,Pre,2021_Jun_28_1047,Go No-Go Task,2021.1.4,120.55033626319849,
,"Rule: When you see a yellow image, do not press 'spacebar'.",Images/Scram1/HM06_NC.jpg,Scramble,Blue,Images/Blue.jpg,space,ParentConditions/YellowYellowBlue_v2.xlsx,YellowYellowBlue,Conditions/Version_2/YellowScramStop.xlsx,no,PASS,0.5754528995111275,,,,,,,,,0,0,0,1,0,1,1,1,0,52,52,52,,,,,,,,,,,,,,,,,,,,,,,,,,,,,,,,,,,,,,,,,,,,,,,,,,,,,,,,,,,,,,,,,,,,,,,,,,,,,,,1.98,619.0180614000419,None,space,1,0.25241259997710586,621.0985747999512,None,621.0985747999512,None,621.0985747999512,None,,,,,,,,,,,P002,fencog,2,Pre,2021_Jun_28_1047,Go No-Go Task,2021.1.4,120.55033626319849,
,"Rule: When you see a yellow image, do not press 'spacebar'.",Images/Scram2/AF07NES.jpg,Scramble,Blue,Images/Blue.jpg,space,ParentConditions/YellowYellowBlue_v2.xlsx,YellowYellowBlue,Conditions/Version_2/YellowScramStop.xlsx,no,PASS,0.5077779466511061,,,,,,,,,0,0,0,1,0,1,1,1,0,53,53,53,,,,,,,,,,,,,,,,,,,,,,,,,,,,,,,,,,,,,,,,,,,,,,,,,,,,,,,,,,,,,,,,,,,,,,,,,,,,,,,1.78,621.502636399935,None,space,1,0.2653219000203535,623.3895225999877,None,623.3895225999877,None,623.3895225999877,None,,,,,,,,,,,P002,fencog,2,Pre,2021_Jun_28_1047,Go No-Go Task,2021.1.4,120.55033626319849,
,"Rule: When you see a yellow image, do not press 'spacebar'.",Images/Scram1/BM01_NC.jpg,Scramble,Blue,Images/Blue.jpg,space,ParentConditions/YellowYellowBlue_v2.xlsx,YellowYellowBlue,Conditions/Version_2/YellowScramStop.xlsx,no,PASS,0.6162286290631079,,,,,,,,,0,0,0,1,0,1,1,1,0,54,54,54,,,,,,,,,,,,,,,,,,,,,,,,,,,,,,,,,,,,,,,,,,,,,,,,,,,,,,,,,,,,,,,,,,,,,,,,,,,,,,,1.73,623.78906859993,None,space,1,0.3452769999857992,625.6222492000088,None,625.6222492000088,None,625.6222492000088,None,,,,,,,,,,,P002,fencog,2,Pre,2021_Jun_28_1047,Go No-Go Task,2021.1.4,120.55033626319849,
