CondFileP,Instructions,FaceE,Express,ColourT,ColourF,CorrectAnsP,MasterCondFile,BlockOrder,CondFile,ColCheck,Triplicate_check,SORT_BY_SMALLEST,EPracticeOuterLoop.thisRepN,EPracticeOuterLoop.thisTrialN,EPracticeOuterLoop.thisN,EPracticeOuterLoop.thisIndex,EPracticeInnerLoop.thisRepN,EPracticeInnerLoop.thisTrialN,EPracticeInnerLoop.thisN,EPracticeInnerLoop.thisIndex,MasterLoop.thisRepN,MasterLoop.thisTrialN,MasterLoop.thisN,MasterLoop.thisIndex,OuterLoop.thisRepN,OuterLoop.thisTrialN,OuterLoop.thisN,OuterLoop.thisIndex,InnerLoop.thisRepN,InnerLoop.thisTrialN,InnerLoop.thisN,InnerLoop.thisIndex,text_13.started,text_13.stopped,key_resp_10.keys,key_resp_10.rt,key_resp_10.started,key_resp_10.stopped,text4.started,text4.stopped,EmotionTaskInstructions1.keys,EmotionTaskInstructions1.rt,EmotionTaskInstructions1.started,EmotionTaskInstructions1.stopped,text_4.started,text_4.stopped,key_resp_5.keys,key_resp_5.rt,key_resp_5.started,key_resp_5.stopped,Text_14.started,Text_14.stopped,key_resp_9.keys,key_resp_9.rt,key_resp_9.started,key_resp_9.stopped,text_5.started,text_5.stopped,text_6.started,text_6.stopped,key_resp_7.keys,key_resp_7.rt,key_resp_7.started,key_resp_7.stopped,text_10.started,text_10.stopped,text_11.started,text_11.stopped,text_12.started,text_12.stopped,ISIjitterPractice,EPracticeISIMarker.started,EPracticeISIMarker.stopped,Pract.keys,Pract.corr,Pract.started,Pract.stopped,PracticeFace.started,PracticeFace.stopped,ColourPractice.started,ColourPractice.stopped,text_7.started,text_7.stopped,Pract.rt,EndOfPractice.started,EndOfPractice.stopped,key_resp_8.keys,key_resp_8.rt,key_resp_8.started,key_resp_8.stopped,text_8.started,text_8.stopped,key_resp_6.keys,key_resp_6.rt,key_resp_6.started,key_resp_6.stopped,text_2.started,text_2.stopped,text_3.started,text_3.stopped,key_resp_3.keys,key_resp_3.rt,key_resp_3.started,key_resp_3.stopped,TaskBlock.started,TaskBlock.stopped,BlockNo1.started,BlockNo1.stopped,OfBlock.started,OfBlock.stopped,ISIjitter,ISImarker.started,ISImarker.stopped,key_resp.keys,key_resp.corr,key_resp.rt,key_resp.started,key_resp.stopped,FaceSet.started,FaceSet.stopped,Colour.started,Colour.stopped,EndBlockText.started,EndBlockText.stopped,key_resp_4.keys,key_resp_4.rt,key_resp_4.started,key_resp_4.stopped,BreakText2.started,BreakText2.stopped,PressToContinue.started,PressToContinue.stopped,participant,Study Name,Task Version (required to run),PRE/POST,date,expName,psychopyVersion,frameRate,
,,,,,,,,,,,,,,,,,,,,,,,,,,,,,,,,,24.02413130016066,None,space,105.27432670001872,25.011931700166315,None,,,,,,,,,,,,,,,,,,,,,,,,,,,,,,,,,,,,,,,,,,,,,,,,,,,,,,,,,,,,,,,,,,,,,,,,,,,,,,,,,,,,,,,,,,,,,,,P003,fencog,1,Pre,2021_Jul_05_1042,Go No-Go Task,2021.1.4,119.7219102266546,
,,,,,,,,,,,,,,,,,,,,,,,,,,,,,,,,,,,,,,,131.7891347000841,None,space,22.72616899991408,131.7891347000841,None,,,,,,,,,,,,,,,,,,,,,,,,,,,,,,,,,,,,,,,,,,,,,,,,,,,,,,,,,,,,,,,,,,,,,,,,,,,,,,,,,,,,,,,,,P003,fencog,1,Pre,2021_Jul_05_1042,Go No-Go Task,2021.1.4,119.7219102266546,
,,,,,,,,,,,,,,,,,,,,,,,,,,,,,,,,,,,,,,,,,,,,,154.57757720001973,None,space,19.980879599926993,154.57757720001973,None,,,,,,,,,,,,,,,,,,,,,,,,,,,,,,,,,,,,,,,,,,,,,,,,,,,,,,,,,,,,,,,,,,,,,,,,,,,,,,,,,,,P003,fencog,1,Pre,2021_Jul_05_1042,Go No-Go Task,2021.1.4,119.7219102266546,
,,,,,,,,,,,,,,,,,,,,,,,,,,,,,,,,,,,,,,,,,,,,,,,,,,,174.56903690006584,None,space,17.405422299867496,174.56903690006584,None,,,,,,,,,,,,,,,,,,,,,,,,,,,,,,,,,,,,,,,,,,,,,,,,,,,,,,,,,,,,,,,,,,,,,,,,,,,,,P003,fencog,1,Pre,2021_Jul_05_1042,Go No-Go Task,2021.1.4,119.7219102266546,
EPracticeConditions/BlueEyes.csv,"Rule: When you see a blue image, do not press 'spacebar'.",Images/Happy/HF05_HO.jpg,Happy,Yellow,Images/Yellow.jpg,space,,,,,,,0,0,0,0,0,0,0,5,,,,,,,,,,,,,,,,,,,,,,,,,,,,,,,,,,,,,192.05245590000413,None,195.0451069001574,None,space,5.761286100139841,195.0451069001574,None,192.05245590000413,None,192.05245590000413,None,192.05245590000413,None,1.4,200.9126274001319,None,None,0,202.45732820010744,None,202.45732820010744,None,202.45732820010744,None,204.0142496000044,None,,,,,,,,,,,,,,,,,,,,,,,,,,,,,,,,,,,,,,,,,,,,,,,,,,P003,fencog,1,Pre,2021_Jul_05_1042,Go No-Go Task,2021.1.4,119.7219102266546,
EPracticeConditions/BlueEyes.csv,"Rule: When you see a blue image, do not press 'spacebar'.",Images/Happy/HF09_HE.jpg,Happy,Yellow,Images/Yellow.jpg,space,,,,,,,0,0,0,0,0,1,1,6,,,,,,,,,,,,,,,,,,,,,,,,,,,,,,,,,,,,,,,,,,,,,,,,,,,1.5,205.3525144001469,None,None,0,206.967100400012,None,206.967100400012,None,206.967100400012,None,207.87558250012808,None,,,,,,,,,,,,,,,,,,,,,,,,,,,,,,,,,,,,,,,,,,,,,,,,,,P003,fencog,1,Pre,2021_Jul_05_1042,Go No-Go Task,2021.1.4,119.7219102266546,
EPracticeConditions/BlueEyes.csv,"Rule: When you see a blue image, do not press 'spacebar'.",Images/Fearful/AF01_FO.jpg,Fear,Blue,Images/Blue.jpg,None,,,,,,,0,0,0,0,0,2,2,1,,,,,,,,,,,,,,,,,,,,,,,,,,,,,,,,,,,,,,,,,,,,,,,,,,,1.3,209.86539970012382,None,space,0,211.26585870003328,None,211.26585870003328,None,211.26585870003328,None,212.17586060008034,None,0.2766766999848187,,,,,,,,,,,,,,,,,,,,,,,,,,,,,,,,,,,,,,,,,,,,,,,,,P003,fencog,1,Pre,2021_Jul_05_1042,Go No-Go Task,2021.1.4,119.7219102266546,
EPracticeConditions/BlueEyes.csv,"Rule: When you see a blue image, do not press 'spacebar'.",Images/Happy/BM08_HO.jpg,Happy,Yellow,Images/Yellow.jpg,space,,,,,,,0,0,0,0,0,3,3,3,,,,,,,,,,,,,,,,,,,,,,,,,,,,,,,,,,,,,,,,,,,,,,,,,,,1.2,214.17548540001735,None,None,0,215.48110540001653,None,215.48110540001653,None,215.48110540001653,None,216.3864267000463,None,,,,,,,,,,,,,,,,,,,,,,,,,,,,,,,,,,,,,,,,,,,,,,,,,,P003,fencog,1,Pre,2021_Jul_05_1042,Go No-Go Task,2021.1.4,119.7219102266546,
EPracticeConditions/BlueEyes.csv,"Rule: When you see a blue image, do not press 'spacebar'.",Images/Happy/HF10_HE.jpg,Happy,Yellow,Images/Yellow.jpg,space,,,,,,,0,0,0,0,0,4,4,7,,,,,,,,,,,,,,,,,,,,,,,,,,,,,,,,,,,,,,,,,,,,,,,,,,,1.9,218.3931533000432,None,None,0,220.39642010000534,None,220.39642010000534,None,220.39642010000534,None,221.29455220000818,None,,,,,,,,,,,,,,,,,,,,,,,,,,,,,,,,,,,,,,,,,,,,,,,,,,P003,fencog,1,Pre,2021_Jul_05_1042,Go No-Go Task,2021.1.4,119.7219102266546,
EPracticeConditions/BlueEyes.csv,"Rule: When you see a blue image, do not press 'spacebar'.",Images/Happy/HF04_HE.jpg,Happy,Yellow,Images/Yellow.jpg,space,,,,,,,0,0,0,0,0,5,5,4,,,,,,,,,,,,,,,,,,,,,,,,,,,,,,,,,,,,,,,,,,,,,,,,,,,1.7,223.2949343000073,None,None,0,225.09499120013788,None,225.09499120013788,None,225.09499120013788,None,225.99398070015013,None,,,,,,,,,,,,,,,,,,,,,,,,,,,,,,,,,,,,,,,,,,,,,,,,,,P003,fencog,1,Pre,2021_Jul_05_1042,Go No-Go Task,2021.1.4,119.7219102266546,
EPracticeConditions/BlueEyes.csv,"Rule: When you see a blue image, do not press 'spacebar'.",Images/Fearful/HM09_FC.jpg,Fear,Blue,Images/Blue.jpg,None,,,,,,,0,0,0,0,0,6,6,0,,,,,,,,,,,,,,,,,,,,,,,,,,,,,,,,,,,,,,,,,,,,,,,,,,,1.6,227.9996968000196,None,None,1,229.71024550008588,None,229.71024550008588,None,229.71024550008588,None,230.61472230008803,None,,,,,,,,,,,,,,,,,,,,,,,,,,,,,,,,,,,,,,,,,,,,,,,,,,P003,fencog,1,Pre,2021_Jul_05_1042,Go No-Go Task,2021.1.4,119.7219102266546,
EPracticeConditions/BlueEyes.csv,"Rule: When you see a blue image, do not press 'spacebar'.",Images/Happy/BM02_HO.jpg,Happy,Yellow,Images/Yellow.jpg,space,,,,,,,0,0,0,0,0,7,7,2,,,,,,,,,,,,,,,,,,,,,,,,,,,,,,,,,,,,,,,,,,,,,,,,,,,1.8,232.60832490003668,None,space,1,234.50896060001105,None,234.50896060001105,None,234.50896060001105,None,235.39929149998352,None,0.26539909979328513,,,,,,,,,,,,,,,,,,,,,,,,,,,,,,,,,,,,,,,,,,,,,,,,,P003,fencog,1,Pre,2021_Jul_05_1042,Go No-Go Task,2021.1.4,119.7219102266546,
EPracticeConditions/BlueEyes.csv,"Rule: When you see a blue image, do not press 'spacebar'.",,,,,,,,,,,,0,0,0,0,,,,,,,,,,,,,,,,,,,,,,,,,,,,,,,,,,,,,,,,,,,,,,,,,,,,,,,,,,,,,,,,,,,,,,,,,,,,,,,,,,,,,,,,,,,,,,,,,,,,,,,,,,,,,,,,,,,,,P003,fencog,1,Pre,2021_Jul_05_1042,Go No-Go Task,2021.1.4,119.7219102266546,
EPracticeConditions/YellowEyes.csv,"Rule: When you see a yellow image, do not press 'spacebar'.",Images/Fearful/AM19AFS.jpg,Fear,Blue,Images/Blue.jpg,space,,,,,,,0,1,1,1,0,0,0,4,,,,,,,,,,,,,,,,,,,,,,,,,,,,,,,,,,,,,237.42145880009048,None,240.41492230002768,None,space,1.6474705999717116,240.41492230002768,None,237.42145880009048,None,237.42145880009048,None,237.42145880009048,None,1.4,242.08282410004176,None,space,1,243.58961999998428,None,243.58961999998428,None,243.58961999998428,None,244.48558009997942,None,0.27315489994361997,,,,,,,,,,,,,,,,,,,,,,,,,,,,,,,,,,,,,,,,,,,,,,,,,P003,fencog,1,Pre,2021_Jul_05_1042,Go No-Go Task,2021.1.4,119.7219102266546,
EPracticeConditions/YellowEyes.csv,"Rule: When you see a yellow image, do not press 'spacebar'.",Images/Happy/BF05_HO.jpg,Happy,Yellow,Images/Yellow.jpg,None,,,,,,,0,1,1,1,0,1,1,1,,,,,,,,,,,,,,,,,,,,,,,,,,,,,,,,,,,,,,,,,,,,,,,,,,,1.9,246.4887858000584,None,space,0,248.49656100012362,None,248.49656100012362,None,248.49656100012362,None,249.3953354000114,None,0.30939560011029243,,,,,,,,,,,,,,,,,,,,,,,,,,,,,,,,,,,,,,,,,,,,,,,,,P003,fencog,1,Pre,2021_Jul_05_1042,Go No-Go Task,2021.1.4,119.7219102266546,
EPracticeConditions/YellowEyes.csv,"Rule: When you see a yellow image, do not press 'spacebar'.",Images/Fearful/AM23AFS.jpg,Fear,Blue,Images/Blue.jpg,space,,,,,,,0,1,1,1,0,2,2,6,,,,,,,,,,,,,,,,,,,,,,,,,,,,,,,,,,,,,,,,,,,,,,,,,,,1.7,251.39792390004732,None,space,1,253.19508800003678,None,253.19508800003678,None,253.19508800003678,None,254.102387299994,None,0.3878204000648111,,,,,,,,,,,,,,,,,,,,,,,,,,,,,,,,,,,,,,,,,,,,,,,,,P003,fencog,1,Pre,2021_Jul_05_1042,Go No-Go Task,2021.1.4,119.7219102266546,
EPracticeConditions/YellowEyes.csv,"Rule: When you see a yellow image, do not press 'spacebar'.",Images/Fearful/AM17AFS.jpg,Fear,Blue,Images/Blue.jpg,space,,,,,,,0,1,1,1,0,3,3,3,,,,,,,,,,,,,,,,,,,,,,,,,,,,,,,,,,,,,,,,,,,,,,,,,,,1.6,256.10179290012456,None,space,1,257.81032839999534,None,257.81032839999534,None,257.81032839999534,None,258.7033645999618,None,0.365047600120306,,,,,,,,,,,,,,,,,,,,,,,,,,,,,,,,,,,,,,,,,,,,,,,,,P003,fencog,1,Pre,2021_Jul_05_1042,Go No-Go Task,2021.1.4,119.7219102266546,
EPracticeConditions/YellowEyes.csv,"Rule: When you see a yellow image, do not press 'spacebar'.",Images/Fearful/AM24AFS.jpg,Fear,Blue,Images/Blue.jpg,space,,,,,,,0,1,1,1,0,4,4,7,,,,,,,,,,,,,,,,,,,,,,,,,,,,,,,,,,,,,,,,,,,,,,,,,,,1.3,260.71208720002323,None,space,1,262.1174682001583,None,262.1174682001583,None,262.1174682001583,None,263.0141966000665,None,0.34468399989418685,,,,,,,,,,,,,,,,,,,,,,,,,,,,,,,,,,,,,,,,,,,,,,,,,P003,fencog,1,Pre,2021_Jul_05_1042,Go No-Go Task,2021.1.4,119.7219102266546,
EPracticeConditions/YellowEyes.csv,"Rule: When you see a yellow image, do not press 'spacebar'.",Images/Fearful/AM22AFS.jpg,Fear,Blue,Images/Blue.jpg,space,,,,,,,0,1,1,1,0,5,5,5,,,,,,,,,,,,,,,,,,,,,,,,,,,,,,,,,,,,,,,,,,,,,,,,,,,1.2,265.0173184000887,None,space,1,266.3246103001293,None,266.3246103001293,None,266.3246103001293,None,267.2204116000794,None,0.37003750004805624,,,,,,,,,,,,,,,,,,,,,,,,,,,,,,,,,,,,,,,,,,,,,,,,,P003,fencog,1,Pre,2021_Jul_05_1042,Go No-Go Task,2021.1.4,119.7219102266546,
EPracticeConditions/YellowEyes.csv,"Rule: When you see a yellow image, do not press 'spacebar'.",Images/Fearful/AM16AFS.jpg,Fear,Blue,Images/Blue.jpg,space,,,,,,,0,1,1,1,0,6,6,2,,,,,,,,,,,,,,,,,,,,,,,,,,,,,,,,,,,,,,,,,,,,,,,,,,,1.5,269.22471139999107,None,space,1,270.8314928000327,None,270.8314928000327,None,270.8314928000327,None,271.72898640017956,None,0.36719619994983077,,,,,,,,,,,,,,,,,,,,,,,,,,,,,,,,,,,,,,,,,,,,,,,,,P003,fencog,1,Pre,2021_Jul_05_1042,Go No-Go Task,2021.1.4,119.7219102266546,
EPracticeConditions/YellowEyes.csv,"Rule: When you see a yellow image, do not press 'spacebar'.",Images/Happy/AM32HAS.jpg,Happy,Yellow,Images/Yellow.jpg,None,,,,,,,0,1,1,1,0,7,7,0,,,,,,,,,,,,,,,,,,,,,,,,,,,,,,,,,,,,,,,,,,,,,,,,,,,1.8,273.7302245001774,None,None,1,275.63011589995585,None,275.63011589995585,None,275.63011589995585,None,276.5256799000781,None,,,,,,,,,,,,,,,,,,,,,,,,,,,,,,,,,,,,,,,,,,,,,,,,,,P003,fencog,1,Pre,2021_Jul_05_1042,Go No-Go Task,2021.1.4,119.7219102266546,
EPracticeConditions/YellowEyes.csv,"Rule: When you see a yellow image, do not press 'spacebar'.",,,,,,,,,,,,0,1,1,1,,,,,,,,,,,,,,,,,,,,,,,,,,,,,,,,,,,,,,,,,,,,,,,,,,,,,,,,,,,,,,,,,,,,,,,,,,,,,,,,,,,,,,,,,,,,,,,,,,,,,,,,,,,,,,,,,,,,,P003,fencog,1,Pre,2021_Jul_05_1042,Go No-Go Task,2021.1.4,119.7219102266546,
EPracticeConditions/BlueScram.csv,"Rule: When you see a blue image, do not press 'spacebar'.",Images/Scram2/AF10_NC.jpg,Scramble,Yellow,Images/Yellow.jpg,space,,,,,,,0,2,2,2,0,0,0,2,,,,,,,,,,,,,,,,,,,,,,,,,,,,,,,,,,,,,278.54166149999946,None,281.52757230005227,None,space,0.18275850010104477,281.52757230005227,None,278.54166149999946,None,278.54166149999946,None,278.54166149999946,None,1.8,281.7336612001527,None,space,1,283.635961699998,None,283.635961699998,None,283.635961699998,None,284.532622900093,None,0.3303025998175144,,,,,,,,,,,,,,,,,,,,,,,,,,,,,,,,,,,,,,,,,,,,,,,,,P003,fencog,1,Pre,2021_Jul_05_1042,Go No-Go Task,2021.1.4,119.7219102266546,
EPracticeConditions/BlueScram.csv,"Rule: When you see a blue image, do not press 'spacebar'.",Images/Scram2/AM03_NC.jpg,Scramble,Yellow,Images/Yellow.jpg,space,,,,,,,0,2,2,2,0,1,1,6,,,,,,,,,,,,,,,,,,,,,,,,,,,,,,,,,,,,,,,,,,,,,,,,,,,1.7,286.5381687001791,None,space,1,288.3428499000147,None,288.3428499000147,None,288.3428499000147,None,289.2396530001424,None,0.344442900037393,,,,,,,,,,,,,,,,,,,,,,,,,,,,,,,,,,,,,,,,,,,,,,,,,P003,fencog,1,Pre,2021_Jul_05_1042,Go No-Go Task,2021.1.4,119.7219102266546,
EPracticeConditions/BlueScram.csv,"Rule: When you see a blue image, do not press 'spacebar'.",Images/Scram2/AF25NES.jpg,Scramble,Yellow,Images/Yellow.jpg,space,,,,,,,0,2,2,2,0,2,2,7,,,,,,,,,,,,,,,,,,,,,,,,,,,,,,,,,,,,,,,,,,,,,,,,,,,1.9,291.2443469001446,None,None,0,293.2499222001061,None,293.2499222001061,None,293.2499222001061,None,294.15579790016636,None,,,,,,,,,,,,,,,,,,,,,,,,,,,,,,,,,,,,,,,,,,,,,,,,,,P003,fencog,1,Pre,2021_Jul_05_1042,Go No-Go Task,2021.1.4,119.7219102266546,
EPracticeConditions/BlueScram.csv,"Rule: When you see a blue image, do not press 'spacebar'.",Images/Scram1/AM13NES.jpg,Scramble,Yellow,Images/Yellow.jpg,space,,,,,,,0,2,2,2,0,3,3,5,,,,,,,,,,,,,,,,,,,,,,,,,,,,,,,,,,,,,,,,,,,,,,,,,,,1.6,296.1581661000382,None,space,1,297.86500860005617,None,297.86500860005617,None,297.86500860005617,None,298.7689996000845,None,0.3742293999530375,,,,,,,,,,,,,,,,,,,,,,,,,,,,,,,,,,,,,,,,,,,,,,,,,P003,fencog,1,Pre,2021_Jul_05_1042,Go No-Go Task,2021.1.4,119.7219102266546,
EPracticeConditions/BlueScram.csv,"Rule: When you see a blue image, do not press 'spacebar'.",Images/Scram1/AM04_NC.jpg,Scramble,Yellow,Images/Yellow.jpg,space,,,,,,,0,2,2,2,0,4,4,3,,,,,,,,,,,,,,,,,,,,,,,,,,,,,,,,,,,,,,,,,,,,,,,,,,,1.3,300.7717145001516,None,space,1,302.1807331000455,None,302.1807331000455,None,302.1807331000455,None,303.077752500074,None,0.3537198998965323,,,,,,,,,,,,,,,,,,,,,,,,,,,,,,,,,,,,,,,,,,,,,,,,,P003,fencog,1,Pre,2021_Jul_05_1042,Go No-Go Task,2021.1.4,119.7219102266546,
EPracticeConditions/BlueScram.csv,"Rule: When you see a blue image, do not press 'spacebar'.",Images/Scram1/BF18_NC.jpg,Scramble,Blue,Images/Blue.jpg,None,,,,,,,0,2,2,2,0,5,5,1,,,,,,,,,,,,,,,,,,,,,,,,,,,,,,,,,,,,,,,,,,,,,,,,,,,1.5,305.08336150017567,None,space,0,306.6791732001584,None,306.6791732001584,None,306.6791732001584,None,307.58451990014873,None,0.2951740000862628,,,,,,,,,,,,,,,,,,,,,,,,,,,,,,,,,,,,,,,,,,,,,,,,,P003,fencog,1,Pre,2021_Jul_05_1042,Go No-Go Task,2021.1.4,119.7219102266546,
EPracticeConditions/BlueScram.csv,"Rule: When you see a blue image, do not press 'spacebar'.",Images/Scram1/AM03NES.jpg,Scramble,Yellow,Images/Yellow.jpg,space,,,,,,,0,2,2,2,0,6,6,4,,,,,,,,,,,,,,,,,,,,,,,,,,,,,,,,,,,,,,,,,,,,,,,,,,,1.4,309.58594879996963,None,space,1,311.0861598001793,None,311.0861598001793,None,311.0861598001793,None,311.9913356001489,None,0.2963523000944406,,,,,,,,,,,,,,,,,,,,,,,,,,,,,,,,,,,,,,,,,,,,,,,,,P003,fencog,1,Pre,2021_Jul_05_1042,Go No-Go Task,2021.1.4,119.7219102266546,
EPracticeConditions/BlueScram.csv,"Rule: When you see a blue image, do not press 'spacebar'.",Images/Scram1/BM08_NC.jpg,Scramble,Blue,Images/Blue.jpg,None,,,,,,,0,2,2,2,0,7,7,0,,,,,,,,,,,,,,,,,,,,,,,,,,,,,,,,,,,,,,,,,,,,,,,,,,,1.2,313.9938690001145,None,space,0,315.3015348999761,None,315.3015348999761,None,315.3015348999761,None,316.2066618001554,None,0.2812956999987364,,,,,,,,,,,,,,,,,,,,,,,,,,,,,,,,,,,,,,,,,,,,,,,,,P003,fencog,1,Pre,2021_Jul_05_1042,Go No-Go Task,2021.1.4,119.7219102266546,
EPracticeConditions/BlueScram.csv,"Rule: When you see a blue image, do not press 'spacebar'.",,,,,,,,,,,,0,2,2,2,,,,,,,,,,,,,,,,,,,,,,,,,,,,,,,,,,,,,,,,,,,,,,,,,,,,,,,,,,,,,,,,,,,,,,,,,,,,,,,,,,,,,,,,,,,,,,,,,,,,,,,,,,,,,,,,,,,,,P003,fencog,1,Pre,2021_Jul_05_1042,Go No-Go Task,2021.1.4,119.7219102266546,
EPracticeConditions/YellowScram.csv,"Rule: When you see a yellow image, do not press 'spacebar'.",Images/Scram1/AF30NES.JPG,Scramble,Blue,Images/Blue.jpg,space,,,,,,,0,3,3,3,0,0,0,4,,,,,,,,,,,,,,,,,,,,,,,,,,,,,,,,,,,,,318.2221140000038,None,321.20734970015474,None,space,2.126609900034964,321.20734970015474,None,318.2221140000038,None,318.2221140000038,None,318.2221140000038,None,1.2,323.34937539999373,None,None,0,324.6572569999844,None,324.6572569999844,None,324.6572569999844,None,325.56388969998807,None,,,,,,,,,,,,,,,,,,,,,,,,,,,,,,,,,,,,,,,,,,,,,,,,,,P003,fencog,1,Pre,2021_Jul_05_1042,Go No-Go Task,2021.1.4,119.7219102266546,
EPracticeConditions/YellowScram.csv,"Rule: When you see a yellow image, do not press 'spacebar'.",Images/Scram1/BM01_NC.jpg,Scramble,Blue,Images/Blue.jpg,space,,,,,,,0,3,3,3,0,1,1,5,,,,,,,,,,,,,,,,,,,,,,,,,,,,,,,,,,,,,,,,,,,,,,,,,,,1.7,327.5660757001024,None,None,0,329.3725887001492,None,329.3725887001492,None,329.3725887001492,None,330.27042070007883,None,,,,,,,,,,,,,,,,,,,,,,,,,,,,,,,,,,,,,,,,,,,,,,,,,,P003,fencog,1,Pre,2021_Jul_05_1042,Go No-Go Task,2021.1.4,119.7219102266546,
EPracticeConditions/YellowScram.csv,"Rule: When you see a yellow image, do not press 'spacebar'.",Images/Scram2/HM06_NC.jpg,Scramble,Yellow,Images/Yellow.jpg,None,,,,,,,0,3,3,3,0,2,2,0,,,,,,,,,,,,,,,,,,,,,,,,,,,,,,,,,,,,,,,,,,,,,,,,,,,1.9,332.2736357001122,None,space,0,334.27088770014234,None,334.27088770014234,None,334.27088770014234,None,335.16986330016516,None,0.20751900016330183,,,,,,,,,,,,,,,,,,,,,,,,,,,,,,,,,,,,,,,,,,,,,,,,,P003,fencog,1,Pre,2021_Jul_05_1042,Go No-Go Task,2021.1.4,119.7219102266546,
EPracticeConditions/YellowScram.csv,"Rule: When you see a yellow image, do not press 'spacebar'.",Images/Scram1/AF24NES.jpg,Scramble,Blue,Images/Blue.jpg,space,,,,,,,0,3,3,3,0,3,3,7,,,,,,,,,,,,,,,,,,,,,,,,,,,,,,,,,,,,,,,,,,,,,,,,,,,1.6,337.17109590000473,None,None,0,338.86972730001435,None,338.86972730001435,None,338.86972730001435,None,339.7720278999768,None,,,,,,,,,,,,,,,,,,,,,,,,,,,,,,,,,,,,,,,,,,,,,,,,,,P003,fencog,1,Pre,2021_Jul_05_1042,Go No-Go Task,2021.1.4,119.7219102266546,
EPracticeConditions/YellowScram.csv,"Rule: When you see a yellow image, do not press 'spacebar'.",Images/Scram1/HF04_NC.jpg,Scramble,Blue,Images/Blue.jpg,space,,,,,,,0,3,3,3,0,4,4,2,,,,,,,,,,,,,,,,,,,,,,,,,,,,,,,,,,,,,,,,,,,,,,,,,,,1.8,341.7779171001166,None,space,1,343.6849122000858,None,343.6849122000858,None,343.6849122000858,None,344.5892978999764,None,0.16195300011895597,,,,,,,,,,,,,,,,,,,,,,,,,,,,,,,,,,,,,,,,,,,,,,,,,P003,fencog,1,Pre,2021_Jul_05_1042,Go No-Go Task,2021.1.4,119.7219102266546,
EPracticeConditions/YellowScram.csv,"Rule: When you see a yellow image, do not press 'spacebar'.",Images/Scram1/AF07NES.jpg,Scramble,Blue,Images/Blue.jpg,space,,,,,,,0,3,3,3,0,5,5,3,,,,,,,,,,,,,,,,,,,,,,,,,,,,,,,,,,,,,,,,,,,,,,,,,,,1.3,346.59161030012183,None,space,1,347.99187410017475,None,347.99187410017475,None,347.99187410017475,None,348.88900290010497,None,0.35866239992901683,,,,,,,,,,,,,,,,,,,,,,,,,,,,,,,,,,,,,,,,,,,,,,,,,P003,fencog,1,Pre,2021_Jul_05_1042,Go No-Go Task,2021.1.4,119.7219102266546,
EPracticeConditions/YellowScram.csv,"Rule: When you see a yellow image, do not press 'spacebar'.",Images/Scram1/AF10_NC.jpg,Scramble,Blue,Images/Blue.jpg,space,,,,,,,0,3,3,3,0,6,6,6,,,,,,,,,,,,,,,,,,,,,,,,,,,,,,,,,,,,,,,,,,,,,,,,,,,1.4,350.89434150001034,None,space,1,352.3990148999728,None,352.3990148999728,None,352.3990148999728,None,353.30366720003076,None,0.2716556000523269,,,,,,,,,,,,,,,,,,,,,,,,,,,,,,,,,,,,,,,,,,,,,,,,,P003,fencog,1,Pre,2021_Jul_05_1042,Go No-Go Task,2021.1.4,119.7219102266546,
EPracticeConditions/YellowScram.csv,"Rule: When you see a yellow image, do not press 'spacebar'.",Images/Scram2/AM03NES.jpg,Scramble,Yellow,Images/Yellow.jpg,None,,,,,,,0,3,3,3,0,7,7,1,,,,,,,,,,,,,,,,,,,,,,,,,,,,,,,,,,,,,,,,,,,,,,,,,,,1.5,355.30569380009547,None,None,1,356.905925600091,None,356.905925600091,None,356.905925600091,None,357.8048044000752,None,,,,,,,,,,,,,,,,,,,,,,,,,,,,,,,,,,,,,,,,,,,,,,,,,,P003,fencog,1,Pre,2021_Jul_05_1042,Go No-Go Task,2021.1.4,119.7219102266546,
EPracticeConditions/YellowScram.csv,"Rule: When you see a yellow image, do not press 'spacebar'.",,,,,,,,,,,,0,3,3,3,,,,,,,,,,,,,,,,,,,,,,,,,,,,,,,,,,,,,,,,,,,,,,,,,,,,,,,,,,,,,,,,,,,,,,,,,,,,,,,,,,,,,,,,,,,,,,,,,,,,,,,,,,,,,,,,,,,,,P003,fencog,1,Pre,2021_Jul_05_1042,Go No-Go Task,2021.1.4,119.7219102266546,
,,,,,,,,,,,,,,,,,,,,,,,,,,,,,,,,,,,,,,,,,,,,,,,,,,,,,,,,,,,,,,,,,,,,,,,,,,,,,,,,,,,,,361.09212280018255,None,space,6.3874419999774545,361.5708934001159,None,,,,,,,,,,,,,,,,,,,,,,,,,,,,,,,,,,,,,,,,,,,P003,fencog,1,Pre,2021_Jul_05_1042,Go No-Go Task,2021.1.4,119.7219102266546,
,,,,,,,,,,,,,,,,,,,,,,,,,,,,,,,,,,,,,,,,,,,,,,,,,,,,,,,,,,,,,,,,,,,,,,,,,,,,,,,,,,,,,,,,,,,367.96880810009316,None,space,2.3495070999488235,367.96880810009316,None,,,,,,,,,,,,,,,,,,,,,,,,,,,,,,,,,,,,,P003,fencog,1,Pre,2021_Jul_05_1042,Go No-Go Task,2021.1.4,119.7219102266546,
,"Rule: When you see a yellow image, do not press 'spacebar'.",Images/Fearful/BM02_FC.jpg,Fear,Blue,Images/Blue.jpg,space,ParentConditions/YellowBlueBlue_v1.xlsx,BlueBlueYellow,Conditions/Version_1/YellowHappyStop.xlsx,no,PASS,0.44148177898618846,,,,,,,,,0,0,0,0,0,0,0,0,0,0,0,0,,,,,,,,,,,,,,,,,,,,,,,,,,,,,,,,,,,,,,,,,,,,,,,,,,,,,,,,,,,,,,,,,370.38906170008704,None,373.3755763999652,None,space,4.8867045000661165,373.3755763999652,None,370.38906170008704,None,370.38906170008704,None,370.38906170008704,None,1.57,378.3072585000191,None,space,1,0.36755470000207424,379.9825347000733,None,379.9825347000733,None,379.9825347000733,None,,,,,,,,,,,P003,fencog,1,Pre,2021_Jul_05_1042,Go No-Go Task,2021.1.4,119.7219102266546,
,"Rule: When you see a yellow image, do not press 'spacebar'.",Images/Fearful/HF05_FC.jpg,Fear,Blue,Images/Blue.jpg,space,ParentConditions/YellowBlueBlue_v1.xlsx,BlueBlueYellow,Conditions/Version_1/YellowHappyStop.xlsx,no,PASS,0.49496512693563743,,,,,,,,,0,0,0,0,0,0,0,0,0,1,1,1,,,,,,,,,,,,,,,,,,,,,,,,,,,,,,,,,,,,,,,,,,,,,,,,,,,,,,,,,,,,,,,,,,,,,,,,,,,,,,,1.94,380.3830675999634,None,space,1,0.3508357999380678,382.4234525000211,None,382.4234525000211,None,382.4234525000211,None,,,,,,,,,,,P003,fencog,1,Pre,2021_Jul_05_1042,Go No-Go Task,2021.1.4,119.7219102266546,
,"Rule: When you see a yellow image, do not press 'spacebar'.",Images/Happy/AF32HAS.jpg,Happy,Yellow,Images/Yellow.jpg,None,ParentConditions/YellowBlueBlue_v1.xlsx,BlueBlueYellow,Conditions/Version_1/YellowHappyStop.xlsx,yes,PASS,0.3690153910902233,,,,,,,,,0,0,0,0,0,0,0,0,0,2,2,2,,,,,,,,,,,,,,,,,,,,,,,,,,,,,,,,,,,,,,,,,,,,,,,,,,,,,,,,,,,,,,,,,,,,,,,,,,,,,,,1.28,382.8303698999807,None,None,1,,384.2146006000694,None,384.2146006000694,None,384.2146006000694,None,,,,,,,,,,,P003,fencog,1,Pre,2021_Jul_05_1042,Go No-Go Task,2021.1.4,119.7219102266546,
,"Rule: When you see a yellow image, do not press 'spacebar'.",Images/Happy/AM32HAS.jpg,Happy,Yellow,Images/Yellow.jpg,None,ParentConditions/YellowBlueBlue_v1.xlsx,BlueBlueYellow,Conditions/Version_1/YellowHappyStop.xlsx,yes,PASS,0.09240134349582851,,,,,,,,,0,0,0,0,0,0,0,0,0,3,3,3,,,,,,,,,,,,,,,,,,,,,,,,,,,,,,,,,,,,,,,,,,,,,,,,,,,,,,,,,,,,,,,,,,,,,,,,,,,,,,,1.37,384.6156350001693,None,None,1,,386.08911380008794,None,386.08911380008794,None,386.08911380008794,None,,,,,,,,,,,P003,fencog,1,Pre,2021_Jul_05_1042,Go No-Go Task,2021.1.4,119.7219102266546,
,"Rule: When you see a yellow image, do not press 'spacebar'.",Images/Fearful/AF07FS.jpg,Fear,Blue,Images/Blue.jpg,space,ParentConditions/YellowBlueBlue_v1.xlsx,BlueBlueYellow,Conditions/Version_1/YellowHappyStop.xlsx,no,PASS,0.4013300010309635,,,,,,,,,0,0,0,0,0,0,0,0,0,4,4,4,,,,,,,,,,,,,,,,,,,,,,,,,,,,,,,,,,,,,,,,,,,,,,,,,,,,,,,,,,,,,,,,,,,,,,,,,,,,,,,1.56,386.49078440014273,None,space,1,0.2272463000845164,388.1550788001623,None,388.1550788001623,None,388.1550788001623,None,,,,,,,,,,,P003,fencog,1,Pre,2021_Jul_05_1042,Go No-Go Task,2021.1.4,119.7219102266546,
,"Rule: When you see a yellow image, do not press 'spacebar'.",Images/Fearful/AM30AFS.jpg,Fear,Blue,Images/Blue.jpg,space,ParentConditions/YellowBlueBlue_v1.xlsx,BlueBlueYellow,Conditions/Version_1/YellowHappyStop.xlsx,no,PASS,0.5026512951867452,,,,,,,,,0,0,0,0,0,0,0,0,0,5,5,5,,,,,,,,,,,,,,,,,,,,,,,,,,,,,,,,,,,,,,,,,,,,,,,,,,,,,,,,,,,,,,,,,,,,,,,,,,,,,,,1.77,388.5538511001505,None,None,0,,390.4294025001582,None,390.4294025001582,None,390.4294025001582,None,,,,,,,,,,,P003,fencog,1,Pre,2021_Jul_05_1042,Go No-Go Task,2021.1.4,119.7219102266546,
,"Rule: When you see a yellow image, do not press 'spacebar'.",Images/Happy/BM03_HO.jpg,Happy,Yellow,Images/Yellow.jpg,None,ParentConditions/YellowBlueBlue_v1.xlsx,BlueBlueYellow,Conditions/Version_1/YellowHappyStop.xlsx,yes,PASS,0.3904556138764915,,,,,,,,,0,0,0,0,0,0,0,0,0,6,6,6,,,,,,,,,,,,,,,,,,,,,,,,,,,,,,,,,,,,,,,,,,,,,,,,,,,,,,,,,,,,,,,,,,,,,,,,,,,,,,,1.87,390.82938030012883,None,None,1,,392.80371770006604,None,392.80371770006604,None,392.80371770006604,None,,,,,,,,,,,P003,fencog,1,Pre,2021_Jul_05_1042,Go No-Go Task,2021.1.4,119.7219102266546,
,"Rule: When you see a yellow image, do not press 'spacebar'.",Images/Fearful/HM06_FC.jpg,Fear,Blue,Images/Blue.jpg,space,ParentConditions/YellowBlueBlue_v1.xlsx,BlueBlueYellow,Conditions/Version_1/YellowHappyStop.xlsx,no,PASS,0.8295870874618959,,,,,,,,,0,0,0,0,0,0,0,0,0,7,7,7,,,,,,,,,,,,,,,,,,,,,,,,,,,,,,,,,,,,,,,,,,,,,,,,,,,,,,,,,,,,,,,,,,,,,,,,,,,,,,,1.27,393.2035350999795,None,space,1,0.3015348999761045,394.57825430016965,None,394.57825430016965,None,394.57825430016965,None,,,,,,,,,,,P003,fencog,1,Pre,2021_Jul_05_1042,Go No-Go Task,2021.1.4,119.7219102266546,
,"Rule: When you see a yellow image, do not press 'spacebar'.",Images/Fearful/AF19AFS.jpg,Fear,Blue,Images/Blue.jpg,space,ParentConditions/YellowBlueBlue_v1.xlsx,BlueBlueYellow,Conditions/Version_1/YellowHappyStop.xlsx,no,PASS,0.31457189280880904,,,,,,,,,0,0,0,0,0,0,0,0,0,8,8,8,,,,,,,,,,,,,,,,,,,,,,,,,,,,,,,,,,,,,,,,,,,,,,,,,,,,,,,,,,,,,,,,,,,,,,,,,,,,,,,1.29,394.97831030003726,None,None,0,,396.36929500009865,None,396.36929500009865,None,396.36929500009865,None,,,,,,,,,,,P003,fencog,1,Pre,2021_Jul_05_1042,Go No-Go Task,2021.1.4,119.7219102266546,
,"Rule: When you see a yellow image, do not press 'spacebar'.",Images/Happy/AF30HAS.jpg,Happy,Yellow,Images/Yellow.jpg,None,ParentConditions/YellowBlueBlue_v1.xlsx,BlueBlueYellow,Conditions/Version_1/YellowHappyStop.xlsx,yes,PASS,0.14544836048525234,,,,,,,,,0,0,0,0,0,0,0,0,0,9,9,9,,,,,,,,,,,,,,,,,,,,,,,,,,,,,,,,,,,,,,,,,,,,,,,,,,,,,,,,,,,,,,,,,,,,,,,,,,,,,,,1.62,396.7691240001004,None,None,1,,398.48523980006576,None,398.48523980006576,None,398.48523980006576,None,,,,,,,,,,,P003,fencog,1,Pre,2021_Jul_05_1042,Go No-Go Task,2021.1.4,119.7219102266546,
,"Rule: When you see a yellow image, do not press 'spacebar'.",Images/Fearful/AF25AFS.jpg,Fear,Blue,Images/Blue.jpg,space,ParentConditions/YellowBlueBlue_v1.xlsx,BlueBlueYellow,Conditions/Version_1/YellowHappyStop.xlsx,no,PASS,0.31319631990865415,,,,,,,,,0,0,0,0,0,0,0,0,0,10,10,10,,,,,,,,,,,,,,,,,,,,,,,,,,,,,,,,,,,,,,,,,,,,,,,,,,,,,,,,,,,,,,,,,,,,,,,,,,,,,,,1.8,398.8887746001128,None,space,1,0.3652740998659283,400.79294200008735,None,400.79294200008735,None,400.79294200008735,None,,,,,,,,,,,P003,fencog,1,Pre,2021_Jul_05_1042,Go No-Go Task,2021.1.4,119.7219102266546,
,"Rule: When you see a yellow image, do not press 'spacebar'.",Images/Fearful/AF30AFS.jpg,Fear,Blue,Images/Blue.jpg,space,ParentConditions/YellowBlueBlue_v1.xlsx,BlueBlueYellow,Conditions/Version_1/YellowHappyStop.xlsx,no,PASS,0.9854799433848976,,,,,,,,,0,0,0,0,0,0,0,0,0,11,11,11,,,,,,,,,,,,,,,,,,,,,,,,,,,,,,,,,,,,,,,,,,,,,,,,,,,,,,,,,,,,,,,,,,,,,,,,,,,,,,,1.61,401.19876480009407,None,space,1,0.2970839000772685,402.90907180006616,None,402.90907180006616,None,402.90907180006616,None,,,,,,,,,,,P003,fencog,1,Pre,2021_Jul_05_1042,Go No-Go Task,2021.1.4,119.7219102266546,
,"Rule: When you see a yellow image, do not press 'spacebar'.",Images/Happy/BF10_HO.jpg,Happy,Yellow,Images/Yellow.jpg,None,ParentConditions/YellowBlueBlue_v1.xlsx,BlueBlueYellow,Conditions/Version_1/YellowHappyStop.xlsx,yes,PASS,0.9368187318754497,,,,,,,,,0,0,0,0,0,0,0,0,0,12,12,12,,,,,,,,,,,,,,,,,,,,,,,,,,,,,,,,,,,,,,,,,,,,,,,,,,,,,,,,,,,,,,,,,,,,,,,,,,,,,,,1.88,403.30872480012476,None,None,1,,405.29162280005403,None,405.29162280005403,None,405.29162280005403,None,,,,,,,,,,,P003,fencog,1,Pre,2021_Jul_05_1042,Go No-Go Task,2021.1.4,119.7219102266546,
,"Rule: When you see a yellow image, do not press 'spacebar'.",Images/Fearful/AM06_FO.jpg,Fear,Blue,Images/Blue.jpg,space,ParentConditions/YellowBlueBlue_v1.xlsx,BlueBlueYellow,Conditions/Version_1/YellowHappyStop.xlsx,no,PASS,0.6030700196123316,,,,,,,,,0,0,0,0,0,0,0,0,0,13,13,13,,,,,,,,,,,,,,,,,,,,,,,,,,,,,,,,,,,,,,,,,,,,,,,,,,,,,,,,,,,,,,,,,,,,,,,,,,,,,,,1.47,405.69657190004364,None,space,1,0.23593110009096563,407.27439160016365,None,407.27439160016365,None,407.27439160016365,None,,,,,,,,,,,P003,fencog,1,Pre,2021_Jul_05_1042,Go No-Go Task,2021.1.4,119.7219102266546,
,"Rule: When you see a yellow image, do not press 'spacebar'.",Images/Happy/AM24HAS.jpg,Happy,Yellow,Images/Yellow.jpg,None,ParentConditions/YellowBlueBlue_v1.xlsx,BlueBlueYellow,Conditions/Version_1/YellowHappyStop.xlsx,yes,PASS,0.8401488188278822,,,,,,,,,0,0,0,0,0,0,0,0,0,14,14,14,,,,,,,,,,,,,,,,,,,,,,,,,,,,,,,,,,,,,,,,,,,,,,,,,,,,,,,,,,,,,,,,,,,,,,,,,,,,,,,2,407.67475530016236,None,None,1,,409.7819705000147,None,409.7819705000147,None,409.7819705000147,None,,,,,,,,,,,P003,fencog,1,Pre,2021_Jul_05_1042,Go No-Go Task,2021.1.4,119.7219102266546,
,"Rule: When you see a yellow image, do not press 'spacebar'.",Images/Fearful/AF21AFS.jpg,Fear,Blue,Images/Blue.jpg,space,ParentConditions/YellowBlueBlue_v1.xlsx,BlueBlueYellow,Conditions/Version_1/YellowHappyStop.xlsx,no,PASS,0.9561052396726243,,,,,,,,,0,0,0,0,0,0,0,0,0,15,15,15,,,,,,,,,,,,,,,,,,,,,,,,,,,,,,,,,,,,,,,,,,,,,,,,,,,,,,,,,,,,,,,,,,,,,,,,,,,,,,,1.79,410.18220330006443,None,space,1,0.24538890016265213,412.07303550001234,None,412.07303550001234,None,412.07303550001234,None,,,,,,,,,,,P003,fencog,1,Pre,2021_Jul_05_1042,Go No-Go Task,2021.1.4,119.7219102266546,
,"Rule: When you see a yellow image, do not press 'spacebar'.",Images/Happy/AM06_HC.jpg,Happy,Yellow,Images/Yellow.jpg,None,ParentConditions/YellowBlueBlue_v1.xlsx,BlueBlueYellow,Conditions/Version_1/YellowHappyStop.xlsx,yes,PASS,0.36325944609889094,,,,,,,,,0,0,0,0,0,0,0,0,0,16,16,16,,,,,,,,,,,,,,,,,,,,,,,,,,,,,,,,,,,,,,,,,,,,,,,,,,,,,,,,,,,,,,,,,,,,,,,,,,,,,,,1.22,412.4777194999624,None,None,1,,413.8058081001509,None,413.8058081001509,None,413.8058081001509,None,,,,,,,,,,,P003,fencog,1,Pre,2021_Jul_05_1042,Go No-Go Task,2021.1.4,119.7219102266546,
,"Rule: When you see a yellow image, do not press 'spacebar'.",Images/Fearful/AF10_FC.jpg,Fear,Blue,Images/Blue.jpg,space,ParentConditions/YellowBlueBlue_v1.xlsx,BlueBlueYellow,Conditions/Version_1/YellowHappyStop.xlsx,no,PASS,0.09357566512353055,,,,,,,,,0,0,0,0,0,0,0,0,0,17,17,17,,,,,,,,,,,,,,,,,,,,,,,,,,,,,,,,,,,,,,,,,,,,,,,,,,,,,,,,,,,,,,,,,,,,,,,,,,,,,,,1.54,414.21008100011386,None,space,1,0.25475610001012683,415.8554470001254,None,415.8554470001254,None,415.8554470001254,None,,,,,,,,,,,P003,fencog,1,Pre,2021_Jul_05_1042,Go No-Go Task,2021.1.4,119.7219102266546,
,"Rule: When you see a yellow image, do not press 'spacebar'.",Images/Fearful/BM03_FC.jpg,Fear,Blue,Images/Blue.jpg,space,ParentConditions/YellowBlueBlue_v1.xlsx,BlueBlueYellow,Conditions/Version_1/YellowHappyStop.xlsx,no,PASS,0.789884489320339,,,,,,,,,0,0,0,0,0,0,0,0,0,18,18,18,,,,,,,,,,,,,,,,,,,,,,,,,,,,,,,,,,,,,,,,,,,,,,,,,,,,,,,,,,,,,,,,,,,,,,,,,,,,,,,1.2,416.2563918000087,None,space,1,0.33935999986715615,417.56300420011394,None,417.56300420011394,None,417.56300420011394,None,,,,,,,,,,,P003,fencog,1,Pre,2021_Jul_05_1042,Go No-Go Task,2021.1.4,119.7219102266546,
,"Rule: When you see a yellow image, do not press 'spacebar'.",Images/Fearful/HM09_FC.jpg,Fear,Blue,Images/Blue.jpg,space,ParentConditions/YellowBlueBlue_v1.xlsx,BlueBlueYellow,Conditions/Version_1/YellowHappyStop.xlsx,no,PASS,0.8198583361260475,,,,,,,,,0,0,0,0,0,0,0,0,0,19,19,19,,,,,,,,,,,,,,,,,,,,,,,,,,,,,,,,,,,,,,,,,,,,,,,,,,,,,,,,,,,,,,,,,,,,,,,,,,,,,,,1.34,417.9623209000565,None,space,1,0.306295600021258,419.40411130012944,None,419.40411130012944,None,419.40411130012944,None,,,,,,,,,,,P003,fencog,1,Pre,2021_Jul_05_1042,Go No-Go Task,2021.1.4,119.7219102266546,
,"Rule: When you see a yellow image, do not press 'spacebar'.",Images/Fearful/AM04_FO.jpg,Fear,Blue,Images/Blue.jpg,space,ParentConditions/YellowBlueBlue_v1.xlsx,BlueBlueYellow,Conditions/Version_1/YellowHappyStop.xlsx,no,PASS,0.9595350245966109,,,,,,,,,0,0,0,0,0,0,0,0,0,20,20,20,,,,,,,,,,,,,,,,,,,,,,,,,,,,,,,,,,,,,,,,,,,,,,,,,,,,,,,,,,,,,,,,,,,,,,,,,,,,,,,1.65,419.80605530017056,None,space,1,0.3719057000707835,421.561817600159,None,421.561817600159,None,421.561817600159,None,,,,,,,,,,,P003,fencog,1,Pre,2021_Jul_05_1042,Go No-Go Task,2021.1.4,119.7219102266546,
,"Rule: When you see a yellow image, do not press 'spacebar'.",Images/Fearful/AF11AFS.jpg,Fear,Blue,Images/Blue.jpg,space,ParentConditions/YellowBlueBlue_v1.xlsx,BlueBlueYellow,Conditions/Version_1/YellowHappyStop.xlsx,no,PASS,0.7276184017912607,,,,,,,,,0,0,0,0,0,0,0,0,0,21,21,21,,,,,,,,,,,,,,,,,,,,,,,,,,,,,,,,,,,,,,,,,,,,,,,,,,,,,,,,,,,,,,,,,,,,,,,,,,,,,,,1.35,421.9608006000053,None,space,1,0.32265029987320304,423.419656699989,None,423.419656699989,None,423.419656699989,None,,,,,,,,,,,P003,fencog,1,Pre,2021_Jul_05_1042,Go No-Go Task,2021.1.4,119.7219102266546,
,"Rule: When you see a yellow image, do not press 'spacebar'.",Images/Fearful/AM10_FO.jpg,Fear,Blue,Images/Blue.jpg,space,ParentConditions/YellowBlueBlue_v1.xlsx,BlueBlueYellow,Conditions/Version_1/YellowHappyStop.xlsx,no,PASS,0.7995855816230459,,,,,,,,,0,0,0,0,0,0,0,0,0,22,22,22,,,,,,,,,,,,,,,,,,,,,,,,,,,,,,,,,,,,,,,,,,,,,,,,,,,,,,,,,,,,,,,,,,,,,,,,,,,,,,,1.92,423.81776260002516,None,space,1,0.3778526000678539,425.8521031001583,None,425.8521031001583,None,425.8521031001583,None,,,,,,,,,,,P003,fencog,1,Pre,2021_Jul_05_1042,Go No-Go Task,2021.1.4,119.7219102266546,
,"Rule: When you see a yellow image, do not press 'spacebar'.",Images/Fearful/WF04_FC.jpg,Fear,Blue,Images/Blue.jpg,space,ParentConditions/YellowBlueBlue_v1.xlsx,BlueBlueYellow,Conditions/Version_1/YellowHappyStop.xlsx,no,PASS,0.007163238332436372,,,,,,,,,0,0,0,0,0,0,0,0,0,23,23,23,,,,,,,,,,,,,,,,,,,,,,,,,,,,,,,,,,,,,,,,,,,,,,,,,,,,,,,,,,,,,,,,,,,,,,,,,,,,,,,1.71,426.25121440016665,None,space,1,0.3225231000687927,428.06825110013597,None,428.06825110013597,None,428.06825110013597,None,,,,,,,,,,,P003,fencog,1,Pre,2021_Jul_05_1042,Go No-Go Task,2021.1.4,119.7219102266546,
,"Rule: When you see a yellow image, do not press 'spacebar'.",Images/Fearful/AF28AFS.jpg,Fear,Blue,Images/Blue.jpg,space,ParentConditions/YellowBlueBlue_v1.xlsx,BlueBlueYellow,Conditions/Version_1/YellowHappyStop.xlsx,no,PASS,0.6578574406316495,,,,,,,,,0,0,0,0,0,0,0,0,0,24,24,24,,,,,,,,,,,,,,,,,,,,,,,,,,,,,,,,,,,,,,,,,,,,,,,,,,,,,,,,,,,,,,,,,,,,,,,,,,,,,,,1.74,428.47504699998535,None,space,1,0.35274769994430244,430.3176049001049,None,430.3176049001049,None,430.3176049001049,None,,,,,,,,,,,P003,fencog,1,Pre,2021_Jul_05_1042,Go No-Go Task,2021.1.4,119.7219102266546,
,"Rule: When you see a yellow image, do not press 'spacebar'.",Images/Fearful/WF11_FC.jpg,Fear,Blue,Images/Blue.jpg,space,ParentConditions/YellowBlueBlue_v1.xlsx,BlueBlueYellow,Conditions/Version_1/YellowHappyStop.xlsx,no,PASS,0.16001068916200367,,,,,,,,,0,0,0,0,0,0,0,0,0,25,25,25,,,,,,,,,,,,,,,,,,,,,,,,,,,,,,,,,,,,,,,,,,,,,,,,,,,,,,,,,,,,,,,,,,,,,,,,,,,,,,,1.73,430.7249982999638,None,space,1,0.3040002000052482,432.55855350010097,None,432.55855350010097,None,432.55855350010097,None,,,,,,,,,,,P003,fencog,1,Pre,2021_Jul_05_1042,Go No-Go Task,2021.1.4,119.7219102266546,
,"Rule: When you see a yellow image, do not press 'spacebar'.",Images/Fearful/AM17AFS.jpg,Fear,Blue,Images/Blue.jpg,space,ParentConditions/YellowBlueBlue_v1.xlsx,BlueBlueYellow,Conditions/Version_1/YellowHappyStop.xlsx,no,PASS,0.11773651559349041,,,,,,,,,0,0,0,0,0,0,0,0,0,26,26,26,,,,,,,,,,,,,,,,,,,,,,,,,,,,,,,,,,,,,,,,,,,,,,,,,,,,,,,,,,,,,,,,,,,,,,,,,,,,,,,1.53,432.9574440000579,None,space,1,0.33489950001239777,434.59133099997416,None,434.59133099997416,None,434.59133099997416,None,,,,,,,,,,,P003,fencog,1,Pre,2021_Jul_05_1042,Go No-Go Task,2021.1.4,119.7219102266546,
,"Rule: When you see a yellow image, do not press 'spacebar'.",Images/Happy/AF27HAS.jpg,Happy,Yellow,Images/Yellow.jpg,None,ParentConditions/YellowBlueBlue_v1.xlsx,BlueBlueYellow,Conditions/Version_1/YellowHappyStop.xlsx,yes,PASS,0.3141869564869746,,,,,,,,,0,0,0,0,0,0,0,0,0,27,27,27,,,,,,,,,,,,,,,,,,,,,,,,,,,,,,,,,,,,,,,,,,,,,,,,,,,,,,,,,,,,,,,,,,,,,,,,,,,,,,,1.97,434.991766900057,None,None,1,,437.06554850004613,None,437.06554850004613,None,437.06554850004613,None,,,,,,,,,,,P003,fencog,1,Pre,2021_Jul_05_1042,Go No-Go Task,2021.1.4,119.7219102266546,
,"Rule: When you see a yellow image, do not press 'spacebar'.",Images/Fearful/BF10_FO.jpg,Fear,Blue,Images/Blue.jpg,space,ParentConditions/YellowBlueBlue_v1.xlsx,BlueBlueYellow,Conditions/Version_1/YellowHappyStop.xlsx,no,PASS,0.6473836402289548,,,,,,,,,0,0,0,0,0,0,0,0,0,28,28,28,,,,,,,,,,,,,,,,,,,,,,,,,,,,,,,,,,,,,,,,,,,,,,,,,,,,,,,,,,,,,,,,,,,,,,,,,,,,,,,1.23,437.4665397000499,None,space,1,0.3047015001066029,438.7984956,None,438.7984956,None,438.7984956,None,,,,,,,,,,,P003,fencog,1,Pre,2021_Jul_05_1042,Go No-Go Task,2021.1.4,119.7219102266546,
,"Rule: When you see a yellow image, do not press 'spacebar'.",Images/Fearful/HF04_FO.jpg,Fear,Blue,Images/Blue.jpg,space,ParentConditions/YellowBlueBlue_v1.xlsx,BlueBlueYellow,Conditions/Version_1/YellowHappyStop.xlsx,no,PASS,0.6573655365841123,,,,,,,,,0,0,0,0,0,0,0,0,0,29,29,29,,,,,,,,,,,,,,,,,,,,,,,,,,,,,,,,,,,,,,,,,,,,,,,,,,,,,,,,,,,,,,,,,,,,,,,,,,,,,,,1.96,439.20358990016393,None,space,1,0.28600129997357726,441.2643465001602,None,441.2643465001602,None,441.2643465001602,None,,,,,,,,,,,P003,fencog,1,Pre,2021_Jul_05_1042,Go No-Go Task,2021.1.4,119.7219102266546,
,"Rule: When you see a yellow image, do not press 'spacebar'.",Images/Happy/AF26HAS.jpg,Happy,Yellow,Images/Yellow.jpg,None,ParentConditions/YellowBlueBlue_v1.xlsx,BlueBlueYellow,Conditions/Version_1/YellowHappyStop.xlsx,yes,PASS,0.9634288273569958,,,,,,,,,0,0,0,0,0,0,0,0,0,30,30,30,,,,,,,,,,,,,,,,,,,,,,,,,,,,,,,,,,,,,,,,,,,,,,,,,,,,,,,,,,,,,,,,,,,,,,,,,,,,,,,1.26,441.6663774000481,None,space,0,0.3115123000461608,443.0306474000681,None,443.0306474000681,None,443.0306474000681,None,,,,,,,,,,,P003,fencog,1,Pre,2021_Jul_05_1042,Go No-Go Task,2021.1.4,119.7219102266546,
,"Rule: When you see a yellow image, do not press 'spacebar'.",Images/Happy/HF09_HE.jpg,Happy,Yellow,Images/Yellow.jpg,None,ParentConditions/YellowBlueBlue_v1.xlsx,BlueBlueYellow,Conditions/Version_1/YellowHappyStop.xlsx,yes,PASS,0.28002812366142005,,,,,,,,,0,0,0,0,0,0,0,0,0,31,31,31,,,,,,,,,,,,,,,,,,,,,,,,,,,,,,,,,,,,,,,,,,,,,,,,,,,,,,,,,,,,,,,,,,,,,,,,,,,,,,,1.69,443.4297740000766,None,None,1,,445.2215331001207,None,445.2215331001207,None,445.2215331001207,None,,,,,,,,,,,P003,fencog,1,Pre,2021_Jul_05_1042,Go No-Go Task,2021.1.4,119.7219102266546,
,"Rule: When you see a yellow image, do not press 'spacebar'.",Images/Fearful/AM16AFS.jpg,Fear,Blue,Images/Blue.jpg,space,ParentConditions/YellowBlueBlue_v1.xlsx,BlueBlueYellow,Conditions/Version_1/YellowHappyStop.xlsx,no,PASS,0.5681414931312986,,,,,,,,,0,0,0,0,0,0,0,0,0,32,32,32,,,,,,,,,,,,,,,,,,,,,,,,,,,,,,,,,,,,,,,,,,,,,,,,,,,,,,,,,,,,,,,,,,,,,,,,,,,,,,,1.51,445.62992810015567,None,space,1,0.28035850008018315,447.25428810017183,None,447.25428810017183,None,447.25428810017183,None,,,,,,,,,,,P003,fencog,1,Pre,2021_Jul_05_1042,Go No-Go Task,2021.1.4,119.7219102266546,
,"Rule: When you see a yellow image, do not press 'spacebar'.",Images/Fearful/WF05_FO.jpg,Fear,Blue,Images/Blue.jpg,space,ParentConditions/YellowBlueBlue_v1.xlsx,BlueBlueYellow,Conditions/Version_1/YellowHappyStop.xlsx,no,PASS,0.23759173368539344,,,,,,,,,0,0,0,0,0,0,0,0,0,33,33,33,,,,,,,,,,,,,,,,,,,,,,,,,,,,,,,,,,,,,,,,,,,,,,,,,,,,,,,,,,,,,,,,,,,,,,,,,,,,,,,1.82,447.6532177000772,None,space,1,0.2837761000264436,449.5786049000453,None,449.5786049000453,None,449.5786049000453,None,,,,,,,,,,,P003,fencog,1,Pre,2021_Jul_05_1042,Go No-Go Task,2021.1.4,119.7219102266546,
,"Rule: When you see a yellow image, do not press 'spacebar'.",Images/Fearful/AM03_FC.jpg,Fear,Blue,Images/Blue.jpg,space,ParentConditions/YellowBlueBlue_v1.xlsx,BlueBlueYellow,Conditions/Version_1/YellowHappyStop.xlsx,no,PASS,0.45277772012976447,,,,,,,,,0,0,0,0,0,0,0,0,0,34,34,34,,,,,,,,,,,,,,,,,,,,,,,,,,,,,,,,,,,,,,,,,,,,,,,,,,,,,,,,,,,,,,,,,,,,,,,,,,,,,,,1.36,449.97900789999403,None,space,1,0.33730580005794764,451.4451184000354,None,451.4451184000354,None,451.4451184000354,None,,,,,,,,,,,P003,fencog,1,Pre,2021_Jul_05_1042,Go No-Go Task,2021.1.4,119.7219102266546,
,"Rule: When you see a yellow image, do not press 'spacebar'.",Images/Fearful/AM01AFS.jpg,Fear,Blue,Images/Blue.jpg,space,ParentConditions/YellowBlueBlue_v1.xlsx,BlueBlueYellow,Conditions/Version_1/YellowHappyStop.xlsx,no,PASS,0.4826830931616207,,,,,,,,,0,0,0,0,0,0,0,0,0,35,35,35,,,,,,,,,,,,,,,,,,,,,,,,,,,,,,,,,,,,,,,,,,,,,,,,,,,,,,,,,,,,,,,,,,,,,,,,,,,,,,,1.81,451.8534932001494,None,space,1,0.3173293999861926,453.7690485001076,None,453.7690485001076,None,453.7690485001076,None,,,,,,,,,,,P003,fencog,1,Pre,2021_Jul_05_1042,Go No-Go Task,2021.1.4,119.7219102266546,
,"Rule: When you see a yellow image, do not press 'spacebar'.",Images/Fearful/HM04_FC.jpg,Fear,Blue,Images/Blue.jpg,space,ParentConditions/YellowBlueBlue_v1.xlsx,BlueBlueYellow,Conditions/Version_1/YellowHappyStop.xlsx,no,PASS,0.46069029171054665,,,,,,,,,0,0,0,0,0,0,0,0,0,36,36,36,,,,,,,,,,,,,,,,,,,,,,,,,,,,,,,,,,,,,,,,,,,,,,,,,,,,,,,,,,,,,,,,,,,,,,,,,,,,,,,1.38,454.16977689997293,None,space,1,0.29873750009573996,455.643387200078,None,455.643387200078,None,455.643387200078,None,,,,,,,,,,,P003,fencog,1,Pre,2021_Jul_05_1042,Go No-Go Task,2021.1.4,119.7219102266546,
,"Rule: When you see a yellow image, do not press 'spacebar'.",Images/Fearful/BF18_FC.jpg,Fear,Blue,Images/Blue.jpg,space,ParentConditions/YellowBlueBlue_v1.xlsx,BlueBlueYellow,Conditions/Version_1/YellowHappyStop.xlsx,no,PASS,0.633030328468129,,,,,,,,,0,0,0,0,0,0,0,0,0,37,37,37,,,,,,,,,,,,,,,,,,,,,,,,,,,,,,,,,,,,,,,,,,,,,,,,,,,,,,,,,,,,,,,,,,,,,,,,,,,,,,,1.41,456.0474929001648,None,space,1,0.3427301000338048,457.5594502000604,None,457.5594502000604,None,457.5594502000604,None,,,,,,,,,,,P003,fencog,1,Pre,2021_Jul_05_1042,Go No-Go Task,2021.1.4,119.7219102266546,
,"Rule: When you see a yellow image, do not press 'spacebar'.",Images/Fearful/AF07_FO.jpg,Fear,Blue,Images/Blue.jpg,space,ParentConditions/YellowBlueBlue_v1.xlsx,BlueBlueYellow,Conditions/Version_1/YellowHappyStop.xlsx,no,PASS,0.34147832357579266,,,,,,,,,0,0,0,0,0,0,0,0,0,38,38,38,,,,,,,,,,,,,,,,,,,,,,,,,,,,,,,,,,,,,,,,,,,,,,,,,,,,,,,,,,,,,,,,,,,,,,,,,,,,,,,1.4,457.9664807000663,None,space,1,0.2990701999515295,459.46731500001624,None,459.46731500001624,None,459.46731500001624,None,,,,,,,,,,,P003,fencog,1,Pre,2021_Jul_05_1042,Go No-Go Task,2021.1.4,119.7219102266546,
,"Rule: When you see a yellow image, do not press 'spacebar'.",Images/Fearful/AM24AFS.jpg,Fear,Blue,Images/Blue.jpg,space,ParentConditions/YellowBlueBlue_v1.xlsx,BlueBlueYellow,Conditions/Version_1/YellowHappyStop.xlsx,no,PASS,0.778148808430259,,,,,,,,,0,0,0,0,0,0,0,0,0,39,39,39,,,,,,,,,,,,,,,,,,,,,,,,,,,,,,,,,,,,,,,,,,,,,,,,,,,,,,,,,,,,,,,,,,,,,,,,,,,,,,,1.39,459.8733532000333,None,space,1,0.3434774000197649,461.358502499992,None,461.358502499992,None,461.358502499992,None,,,,,,,,,,,P003,fencog,1,Pre,2021_Jul_05_1042,Go No-Go Task,2021.1.4,119.7219102266546,
,"Rule: When you see a yellow image, do not press 'spacebar'.",Images/Fearful/AM03AFS.jpg,Fear,Blue,Images/Blue.jpg,space,ParentConditions/YellowBlueBlue_v1.xlsx,BlueBlueYellow,Conditions/Version_1/YellowHappyStop.xlsx,no,PASS,0.23044092834848573,,,,,,,,,0,0,0,0,0,0,0,0,0,40,40,40,,,,,,,,,,,,,,,,,,,,,,,,,,,,,,,,,,,,,,,,,,,,,,,,,,,,,,,,,,,,,,,,,,,,,,,,,,,,,,,1.5,461.75903870002367,None,space,1,0.36818260001018643,463.3662674999796,None,463.3662674999796,None,463.3662674999796,None,,,,,,,,,,,P003,fencog,1,Pre,2021_Jul_05_1042,Go No-Go Task,2021.1.4,119.7219102266546,
,"Rule: When you see a yellow image, do not press 'spacebar'.",Images/Fearful/BM08_FC.jpg,Fear,Blue,Images/Blue.jpg,space,ParentConditions/YellowBlueBlue_v1.xlsx,BlueBlueYellow,Conditions/Version_1/YellowHappyStop.xlsx,no,PASS,0.6548756521259214,,,,,,,,,0,0,0,0,0,0,0,0,0,41,41,41,,,,,,,,,,,,,,,,,,,,,,,,,,,,,,,,,,,,,,,,,,,,,,,,,,,,,,,,,,,,,,,,,,,,,,,,,,,,,,,1.52,463.7751848001499,None,space,1,0.3436225999612361,465.39894240000285,None,465.39894240000285,None,465.39894240000285,None,,,,,,,,,,,P003,fencog,1,Pre,2021_Jul_05_1042,Go No-Go Task,2021.1.4,119.7219102266546,
,"Rule: When you see a yellow image, do not press 'spacebar'.",Images/Fearful/AF32AFS.jpg,Fear,Blue,Images/Blue.jpg,space,ParentConditions/YellowBlueBlue_v1.xlsx,BlueBlueYellow,Conditions/Version_1/YellowHappyStop.xlsx,no,PASS,0.9401650545876452,,,,,,,,,0,0,0,0,0,0,0,0,0,42,42,42,,,,,,,,,,,,,,,,,,,,,,,,,,,,,,,,,,,,,,,,,,,,,,,,,,,,,,,,,,,,,,,,,,,,,,,,,,,,,,,1.85,465.8041680001188,None,space,1,0.2971189001109451,467.76491990010254,None,467.76491990010254,None,467.76491990010254,None,,,,,,,,,,,P003,fencog,1,Pre,2021_Jul_05_1042,Go No-Go Task,2021.1.4,119.7219102266546,
,"Rule: When you see a yellow image, do not press 'spacebar'.",Images/Fearful/AF26AFS.jpg,Fear,Blue,Images/Blue.jpg,space,ParentConditions/YellowBlueBlue_v1.xlsx,BlueBlueYellow,Conditions/Version_1/YellowHappyStop.xlsx,no,PASS,0.5799257276734284,,,,,,,,,0,0,0,0,0,0,0,0,0,43,43,43,,,,,,,,,,,,,,,,,,,,,,,,,,,,,,,,,,,,,,,,,,,,,,,,,,,,,,,,,,,,,,,,,,,,,,,,,,,,,,,1.55,468.16378380008973,None,space,1,0.32838289998471737,469.805883300025,None,469.805883300025,None,469.805883300025,None,,,,,,,,,,,P003,fencog,1,Pre,2021_Jul_05_1042,Go No-Go Task,2021.1.4,119.7219102266546,
,"Rule: When you see a yellow image, do not press 'spacebar'.",Images/Fearful/BF09_FC.jpg,Fear,Blue,Images/Blue.jpg,space,ParentConditions/YellowBlueBlue_v1.xlsx,BlueBlueYellow,Conditions/Version_1/YellowHappyStop.xlsx,no,PASS,0.9512288628250045,,,,,,,,,0,0,0,0,0,0,0,0,0,44,44,44,,,,,,,,,,,,,,,,,,,,,,,,,,,,,,,,,,,,,,,,,,,,,,,,,,,,,,,,,,,,,,,,,,,,,,,,,,,,,,,1.31,470.2063215000089,None,space,1,0.32805699994787574,471.62179909995757,None,471.62179909995757,None,471.62179909995757,None,,,,,,,,,,,P003,fencog,1,Pre,2021_Jul_05_1042,Go No-Go Task,2021.1.4,119.7219102266546,
,"Rule: When you see a yellow image, do not press 'spacebar'.",Images/Fearful/BM01_FO.jpg,Fear,Blue,Images/Blue.jpg,space,ParentConditions/YellowBlueBlue_v1.xlsx,BlueBlueYellow,Conditions/Version_1/YellowHappyStop.xlsx,no,PASS,0.8954287307362916,,,,,,,,,0,0,0,0,0,0,0,0,0,45,45,45,,,,,,,,,,,,,,,,,,,,,,,,,,,,,,,,,,,,,,,,,,,,,,,,,,,,,,,,,,,,,,,,,,,,,,,,,,,,,,,1.43,472.0323259001598,None,space,1,0.363286399981007,473.56310950010084,None,473.56310950010084,None,473.56310950010084,None,,,,,,,,,,,P003,fencog,1,Pre,2021_Jul_05_1042,Go No-Go Task,2021.1.4,119.7219102266546,
,"Rule: When you see a yellow image, do not press 'spacebar'.",Images/Happy/BF14_HO.jpg,Happy,Yellow,Images/Yellow.jpg,None,ParentConditions/YellowBlueBlue_v1.xlsx,BlueBlueYellow,Conditions/Version_1/YellowHappyStop.xlsx,yes,PASS,0.7234280216409134,,,,,,,,,0,0,0,0,0,0,0,0,0,46,46,46,,,,,,,,,,,,,,,,,,,,,,,,,,,,,,,,,,,,,,,,,,,,,,,,,,,,,,,,,,,,,,,,,,,,,,,,,,,,,,,1.45,473.9622081001289,None,None,1,,475.51251530018635,None,475.51251530018635,None,475.51251530018635,None,,,,,,,,,,,P003,fencog,1,Pre,2021_Jul_05_1042,Go No-Go Task,2021.1.4,119.7219102266546,
,"Rule: When you see a yellow image, do not press 'spacebar'.",Images/Fearful/WM11_FC.jpg,Fear,Blue,Images/Blue.jpg,space,ParentConditions/YellowBlueBlue_v1.xlsx,BlueBlueYellow,Conditions/Version_1/YellowHappyStop.xlsx,no,PASS,0.023552814974996727,,,,,,,,,0,0,0,0,0,0,0,0,0,47,47,47,,,,,,,,,,,,,,,,,,,,,,,,,,,,,,,,,,,,,,,,,,,,,,,,,,,,,,,,,,,,,,,,,,,,,,,,,,,,,,,1.93,475.92080299998634,None,space,1,0.30130940000526607,477.95353080006316,None,477.95353080006316,None,477.95353080006316,None,,,,,,,,,,,P003,fencog,1,Pre,2021_Jul_05_1042,Go No-Go Task,2021.1.4,119.7219102266546,
,"Rule: When you see a yellow image, do not press 'spacebar'.",Images/Fearful/AM02_FO.jpg,Fear,Blue,Images/Blue.jpg,space,ParentConditions/YellowBlueBlue_v1.xlsx,BlueBlueYellow,Conditions/Version_1/YellowHappyStop.xlsx,no,PASS,0.4906088235260202,,,,,,,,,0,0,0,0,0,0,0,0,0,48,48,48,,,,,,,,,,,,,,,,,,,,,,,,,,,,,,,,,,,,,,,,,,,,,,,,,,,,,,,,,,,,,,,,,,,,,,,,,,,,,,,1.46,478.3605390000157,None,space,1,0.31907939980737865,479.92793420003727,None,479.92793420003727,None,479.92793420003727,None,,,,,,,,,,,P003,fencog,1,Pre,2021_Jul_05_1042,Go No-Go Task,2021.1.4,119.7219102266546,
,"Rule: When you see a yellow image, do not press 'spacebar'.",Images/Happy/HM09_HO.jpg,Happy,Yellow,Images/Yellow.jpg,None,ParentConditions/YellowBlueBlue_v1.xlsx,BlueBlueYellow,Conditions/Version_1/YellowHappyStop.xlsx,yes,PASS,0.5172626673634482,,,,,,,,,0,0,0,0,0,0,0,0,0,49,49,49,,,,,,,,,,,,,,,,,,,,,,,,,,,,,,,,,,,,,,,,,,,,,,,,,,,,,,,,,,,,,,,,,,,,,,,,,,,,,,,1.66,480.3316502000671,None,None,1,,482.1022384001408,None,482.1022384001408,None,482.1022384001408,None,,,,,,,,,,,P003,fencog,1,Pre,2021_Jul_05_1042,Go No-Go Task,2021.1.4,119.7219102266546,
,"Rule: When you see a yellow image, do not press 'spacebar'.",Images/Happy/HF10_HE.jpg,Happy,Yellow,Images/Yellow.jpg,None,ParentConditions/YellowBlueBlue_v1.xlsx,BlueBlueYellow,Conditions/Version_1/YellowHappyStop.xlsx,yes,PASS,0.44150167084278924,,,,,,,,,0,0,0,0,0,0,0,0,0,50,50,50,,,,,,,,,,,,,,,,,,,,,,,,,,,,,,,,,,,,,,,,,,,,,,,,,,,,,,,,,,,,,,,,,,,,,,,,,,,,,,,1.98,482.50119290011935,None,None,1,,484.58478530007415,None,484.58478530007415,None,484.58478530007415,None,,,,,,,,,,,P003,fencog,1,Pre,2021_Jul_05_1042,Go No-Go Task,2021.1.4,119.7219102266546,
,"Rule: When you see a yellow image, do not press 'spacebar'.",Images/Fearful/AF09AFS.jpg,Fear,Blue,Images/Blue.jpg,space,ParentConditions/YellowBlueBlue_v1.xlsx,BlueBlueYellow,Conditions/Version_1/YellowHappyStop.xlsx,no,PASS,0.20329731425220043,,,,,,,,,0,0,0,0,0,0,0,0,0,51,51,51,,,,,,,,,,,,,,,,,,,,,,,,,,,,,,,,,,,,,,,,,,,,,,,,,,,,,,,,,,,,,,,,,,,,,,,,,,,,,,,1.63,484.98607650003396,None,space,1,0.37657000008039176,486.71748570003547,None,486.71748570003547,None,486.71748570003547,None,,,,,,,,,,,P003,fencog,1,Pre,2021_Jul_05_1042,Go No-Go Task,2021.1.4,119.7219102266546,
,"Rule: When you see a yellow image, do not press 'spacebar'.",Images/Fearful/AM23AFS.jpg,Fear,Blue,Images/Blue.jpg,space,ParentConditions/YellowBlueBlue_v1.xlsx,BlueBlueYellow,Conditions/Version_1/YellowHappyStop.xlsx,no,PASS,0.9134790301426777,,,,,,,,,0,0,0,0,0,0,0,0,0,52,52,52,,,,,,,,,,,,,,,,,,,,,,,,,,,,,,,,,,,,,,,,,,,,,,,,,,,,,,,,,,,,,,,,,,,,,,,,,,,,,,,1.24,487.1164468000643,None,space,1,0.32351749995723367,488.45863030012697,None,488.45863030012697,None,488.45863030012697,None,,,,,,,,,,,P003,fencog,1,Pre,2021_Jul_05_1042,Go No-Go Task,2021.1.4,119.7219102266546,
,"Rule: When you see a yellow image, do not press 'spacebar'.",Images/Fearful/AM05AFS.jpg,Fear,Blue,Images/Blue.jpg,space,ParentConditions/YellowBlueBlue_v1.xlsx,BlueBlueYellow,Conditions/Version_1/YellowHappyStop.xlsx,no,PASS,0.7369542946293995,,,,,,,,,0,0,0,0,0,0,0,0,0,53,53,53,,,,,,,,,,,,,,,,,,,,,,,,,,,,,,,,,,,,,,,,,,,,,,,,,,,,,,,,,,,,,,,,,,,,,,,,,,,,,,,1.83,488.8592362999916,None,space,1,0.3034597998484969,490.791375100147,None,490.791375100147,None,490.791375100147,None,,,,,,,,,,,P003,fencog,1,Pre,2021_Jul_05_1042,Go No-Go Task,2021.1.4,119.7219102266546,
,"Rule: When you see a yellow image, do not press 'spacebar'.",Images/Happy/AF28HAS.jpg,Happy,Yellow,Images/Yellow.jpg,None,ParentConditions/YellowBlueBlue_v1.xlsx,BlueBlueYellow,Conditions/Version_1/YellowHappyStop.xlsx,yes,PASS,0.27168303726444554,,,,,,,,,0,0,0,0,0,0,0,0,0,54,54,54,,,,,,,,,,,,,,,,,,,,,,,,,,,,,,,,,,,,,,,,,,,,,,,,,,,,,,,,,,,,,,,,,,,,,,,,,,,,,,,1.25,491.1917250000406,None,space,0,0.32897339994087815,492.5491669999901,None,492.5491669999901,None,492.5491669999901,None,,,,,,,,,,,P003,fencog,1,Pre,2021_Jul_05_1042,Go No-Go Task,2021.1.4,119.7219102266546,
,"Rule: When you see a yellow image, do not press 'spacebar'.",Images/Fearful/BF14_FO.jpg,Fear,Blue,Images/Blue.jpg,space,ParentConditions/YellowBlueBlue_v1.xlsx,BlueBlueYellow,Conditions/Version_1/YellowHappyStop.xlsx,no,PASS,0.6433421649003036,,,,,,,,,0,0,0,0,0,0,0,0,0,55,55,55,,,,,,,,,,,,,,,,,,,,,,,,,,,,,,,,,,,,,,,,,,,,,,,,,,,,,,,,,,,,,,,,,,,,,,,,,,,,,,,1.44,492.9493730000686,None,None,0,,494.4903637999669,None,494.4903637999669,None,494.4903637999669,None,,,,,,,,,,,P003,fencog,1,Pre,2021_Jul_05_1042,Go No-Go Task,2021.1.4,119.7219102266546,
,"Rule: When you see a yellow image, do not press 'spacebar'.",Images/Happy/AM30HAS.jpg,Happy,Yellow,Images/Yellow.jpg,None,ParentConditions/YellowBlueBlue_v1.xlsx,BlueBlueYellow,Conditions/Version_1/YellowHappyStop.xlsx,yes,PASS,0.0794505415747715,,,,,,,,,0,0,0,0,0,0,0,0,0,56,56,56,,,,,,,,,,,,,,,,,,,,,,,,,,,,,,,,,,,,,,,,,,,,,,,,,,,,,,,,,,,,,,,,,,,,,,,,,,,,,,,1.59,494.8950412000995,None,None,1,,496.59804650000297,None,496.59804650000297,None,496.59804650000297,None,,,,,,,,,,,P003,fencog,1,Pre,2021_Jul_05_1042,Go No-Go Task,2021.1.4,119.7219102266546,
,"Rule: When you see a yellow image, do not press 'spacebar'.",Images/Fearful/AF27AFS.jpg,Fear,Blue,Images/Blue.jpg,space,ParentConditions/YellowBlueBlue_v1.xlsx,BlueBlueYellow,Conditions/Version_1/YellowHappyStop.xlsx,no,PASS,0.3935834771022866,,,,,,,,,0,0,0,0,0,0,0,0,0,57,57,57,,,,,,,,,,,,,,,,,,,,,,,,,,,,,,,,,,,,,,,,,,,,,,,,,,,,,,,,,,,,,,,,,,,,,,,,,,,,,,,1.84,496.99690859997645,None,space,1,0.3317607000935823,498.93903340003453,None,498.93903340003453,None,498.93903340003453,None,,,,,,,,,,,P003,fencog,1,Pre,2021_Jul_05_1042,Go No-Go Task,2021.1.4,119.7219102266546,
,"Rule: When you see a yellow image, do not press 'spacebar'.",Images/Fearful/AM32AFS.jpg,Fear,Blue,Images/Blue.jpg,space,ParentConditions/YellowBlueBlue_v1.xlsx,BlueBlueYellow,Conditions/Version_1/YellowHappyStop.xlsx,no,PASS,0.5614458224122035,,,,,,,,,0,0,0,0,0,0,0,0,0,58,58,58,,,,,,,,,,,,,,,,,,,,,,,,,,,,,,,,,,,,,,,,,,,,,,,,,,,,,,,,,,,,,,,,,,,,,,,,,,,,,,,1.6,499.34568110015243,None,space,1,0.3595057998318225,501.0466163000092,None,501.0466163000092,None,501.0466163000092,None,,,,,,,,,,,P003,fencog,1,Pre,2021_Jul_05_1042,Go No-Go Task,2021.1.4,119.7219102266546,
,"Rule: When you see a yellow image, do not press 'spacebar'.",Images/Fearful/AM09_FO.jpg,Fear,Blue,Images/Blue.jpg,space,ParentConditions/YellowBlueBlue_v1.xlsx,BlueBlueYellow,Conditions/Version_1/YellowHappyStop.xlsx,no,PASS,0.3933837419145386,,,,,,,,,0,0,0,0,0,0,0,0,0,59,59,59,,,,,,,,,,,,,,,,,,,,,,,,,,,,,,,,,,,,,,,,,,,,,,,,,,,,,,,,,,,,,,,,,,,,,,,,,,,,,,,1.75,501.44648879999295,None,space,1,0.35835570003837347,503.30426919995807,None,503.30426919995807,None,503.30426919995807,None,,,,,,,,,,,P003,fencog,1,Pre,2021_Jul_05_1042,Go No-Go Task,2021.1.4,119.7219102266546,
,"Rule: When you see a yellow image, do not press 'spacebar'.",Images/Fearful/AF01_FO.jpg,Fear,Blue,Images/Blue.jpg,space,ParentConditions/YellowBlueBlue_v1.xlsx,BlueBlueYellow,Conditions/Version_1/YellowHappyStop.xlsx,no,PASS,0.7419870009427991,,,,,,,,,0,0,0,0,0,0,0,0,0,60,60,60,,,,,,,,,,,,,,,,,,,,,,,,,,,,,,,,,,,,,,,,,,,,,,,,,,,,,,,,,,,,,,,,,,,,,,,,,,,,,,,1.72,503.70467850007117,None,space,1,0.3255267001222819,505.528524100082,None,505.528524100082,None,505.528524100082,None,,,,,,,,,,,P003,fencog,1,Pre,2021_Jul_05_1042,Go No-Go Task,2021.1.4,119.7219102266546,
,"Rule: When you see a yellow image, do not press 'spacebar'.",Images/Happy/AM10_HO.jpg,Happy,Yellow,Images/Yellow.jpg,None,ParentConditions/YellowBlueBlue_v1.xlsx,BlueBlueYellow,Conditions/Version_1/YellowHappyStop.xlsx,yes,PASS,0.7352402085502512,,,,,,,,,0,0,0,0,0,0,0,0,0,61,61,61,,,,,,,,,,,,,,,,,,,,,,,,,,,,,,,,,,,,,,,,,,,,,,,,,,,,,,,,,,,,,,,,,,,,,,,,,,,,,,,1.33,505.9300035999622,None,None,1,,507.36143120005727,None,507.36143120005727,None,507.36143120005727,None,,,,,,,,,,,P003,fencog,1,Pre,2021_Jul_05_1042,Go No-Go Task,2021.1.4,119.7219102266546,
,"Rule: When you see a yellow image, do not press 'spacebar'.",Images/Happy/AM22HAS.jpg,Happy,Yellow,Images/Yellow.jpg,None,ParentConditions/YellowBlueBlue_v1.xlsx,BlueBlueYellow,Conditions/Version_1/YellowHappyStop.xlsx,yes,PASS,0.27838589915801637,,,,,,,,,0,0,0,0,0,0,0,0,0,62,62,62,,,,,,,,,,,,,,,,,,,,,,,,,,,,,,,,,,,,,,,,,,,,,,,,,,,,,,,,,,,,,,,,,,,,,,,,,,,,,,,1.7,507.76201750012115,None,None,1,,509.57739860005677,None,509.57739860005677,None,509.57739860005677,None,,,,,,,,,,,P003,fencog,1,Pre,2021_Jul_05_1042,Go No-Go Task,2021.1.4,119.7219102266546,
,"Rule: When you see a yellow image, do not press 'spacebar'.",Images/Fearful/AM22AFS.jpg,Fear,Blue,Images/Blue.jpg,space,ParentConditions/YellowBlueBlue_v1.xlsx,BlueBlueYellow,Conditions/Version_1/YellowHappyStop.xlsx,no,PASS,0.012398818855924532,,,,,,,,,0,0,0,0,0,0,0,0,0,63,63,63,,,,,,,,,,,,,,,,,,,,,,,,,,,,,,,,,,,,,,,,,,,,,,,,,,,,,,,,,,,,,,,,,,,,,,,,,,,,,,,1.86,509.97641390003264,None,space,1,0.2867412001360208,511.94336879998446,None,511.94336879998446,None,511.94336879998446,None,,,,,,,,,,,P003,fencog,1,Pre,2021_Jul_05_1042,Go No-Go Task,2021.1.4,119.7219102266546,
,"Rule: When you see a yellow image, do not press 'spacebar'.",Images/Happy/BM08_HO.jpg,Happy,Yellow,Images/Yellow.jpg,None,ParentConditions/YellowBlueBlue_v1.xlsx,BlueBlueYellow,Conditions/Version_1/YellowHappyStop.xlsx,yes,PASS,0.25791881247444226,,,,,,,,,0,0,0,0,0,0,0,0,0,64,64,64,,,,,,,,,,,,,,,,,,,,,,,,,,,,,,,,,,,,,,,,,,,,,,,,,,,,,,,,,,,,,,,,,,,,,,,,,,,,,,,1.49,512.3454875000753,None,None,1,,513.942895400105,None,513.942895400105,None,513.942895400105,None,,,,,,,,,,,P003,fencog,1,Pre,2021_Jul_05_1042,Go No-Go Task,2021.1.4,119.7219102266546,
,"Rule: When you see a yellow image, do not press 'spacebar'.",Images/Fearful/AM19AFS.jpg,Fear,Blue,Images/Blue.jpg,space,ParentConditions/YellowBlueBlue_v1.xlsx,BlueBlueYellow,Conditions/Version_1/YellowHappyStop.xlsx,no,PASS,0.4570092371665587,,,,,,,,,0,0,0,0,0,0,0,0,0,65,65,65,,,,,,,,,,,,,,,,,,,,,,,,,,,,,,,,,,,,,,,,,,,,,,,,,,,,,,,,,,,,,,,,,,,,,,,,,,,,,,,1.3,514.3487879000604,None,space,1,0.2797904000617564,515.7507124000695,None,515.7507124000695,None,515.7507124000695,None,,,,,,,,,,,P003,fencog,1,Pre,2021_Jul_05_1042,Go No-Go Task,2021.1.4,119.7219102266546,
,"Rule: When you see a yellow image, do not press 'spacebar'.",Images/Fearful/AF23AFS.jpg,Fear,Blue,Images/Blue.jpg,space,ParentConditions/YellowBlueBlue_v1.xlsx,BlueBlueYellow,Conditions/Version_1/YellowHappyStop.xlsx,no,PASS,0.9065930904744121,,,,,,,,,0,0,0,0,0,0,0,0,0,66,66,66,,,,,,,,,,,,,,,,,,,,,,,,,,,,,,,,,,,,,,,,,,,,,,,,,,,,,,,,,,,,,,,,,,,,,,,,,,,,,,,1.67,516.1550635001622,None,space,1,0.3289945002179593,517.9250113000162,None,517.9250113000162,None,517.9250113000162,None,,,,,,,,,,,P003,fencog,1,Pre,2021_Jul_05_1042,Go No-Go Task,2021.1.4,119.7219102266546,
,"Rule: When you see a yellow image, do not press 'spacebar'.",Images/Fearful/AM13AFS.jpg,Fear,Blue,Images/Blue.jpg,space,ParentConditions/YellowBlueBlue_v1.xlsx,BlueBlueYellow,Conditions/Version_1/YellowHappyStop.xlsx,no,PASS,0.672217887403839,,,,,,,,,0,0,0,0,0,0,0,0,0,67,67,67,,,,,,,,,,,,,,,,,,,,,,,,,,,,,,,,,,,,,,,,,,,,,,,,,,,,,,,,,,,,,,,,,,,,,,,,,,,,,,,1.68,518.3260421000887,None,space,1,0.27424019994214177,520.10768799996,None,520.10768799996,None,520.10768799996,None,,,,,,,,,,,P003,fencog,1,Pre,2021_Jul_05_1042,Go No-Go Task,2021.1.4,119.7219102266546,
,"Rule: When you see a yellow image, do not press 'spacebar'.",Images/Fearful/HF09_FC.jpg,Fear,Blue,Images/Blue.jpg,space,ParentConditions/YellowBlueBlue_v1.xlsx,BlueBlueYellow,Conditions/Version_1/YellowHappyStop.xlsx,no,PASS,0.947763278232759,,,,,,,,,0,0,0,0,0,0,0,0,0,68,68,68,,,,,,,,,,,,,,,,,,,,,,,,,,,,,,,,,,,,,,,,,,,,,,,,,,,,,,,,,,,,,,,,,,,,,,,,,,,,,,,1.78,520.5093529999722,None,space,1,0.31967439991422,522.3903987000231,None,522.3903987000231,None,522.3903987000231,None,,,,,,,,,,,P003,fencog,1,Pre,2021_Jul_05_1042,Go No-Go Task,2021.1.4,119.7219102266546,
,"Rule: When you see a yellow image, do not press 'spacebar'.",Images/Fearful/AM04AFS.jpg,Fear,Blue,Images/Blue.jpg,space,ParentConditions/YellowBlueBlue_v1.xlsx,BlueBlueYellow,Conditions/Version_1/YellowHappyStop.xlsx,no,PASS,0.7155710730323807,,,,,,,,,0,0,0,0,0,0,0,0,0,69,69,69,,,,,,,,,,,,,,,,,,,,,,,,,,,,,,,,,,,,,,,,,,,,,,,,,,,,,,,,,,,,,,,,,,,,,,,,,,,,,,,1.58,522.7911116001196,None,space,1,0.3410171999130398,524.4730414999649,None,524.4730414999649,None,524.4730414999649,None,,,,,,,,,,,P003,fencog,1,Pre,2021_Jul_05_1042,Go No-Go Task,2021.1.4,119.7219102266546,
,"Rule: When you see a yellow image, do not press 'spacebar'.",Images/Fearful/AF02AFS.jpg,Fear,Blue,Images/Blue.jpg,space,ParentConditions/YellowBlueBlue_v1.xlsx,BlueBlueYellow,Conditions/Version_1/YellowHappyStop.xlsx,no,PASS,0.9864792225255055,,,,,,,,,0,0,0,0,0,0,0,0,0,70,70,70,,,,,,,,,,,,,,,,,,,,,,,,,,,,,,,,,,,,,,,,,,,,,,,,,,,,,,,,,,,,,,,,,,,,,,,,,,,,,,,1.21,524.8723292001523,None,space,1,0.3286457001231611,526.1891824000049,None,526.1891824000049,None,526.1891824000049,None,,,,,,,,,,,P003,fencog,1,Pre,2021_Jul_05_1042,Go No-Go Task,2021.1.4,119.7219102266546,
,"Rule: When you see a yellow image, do not press 'spacebar'.",Images/Fearful/AM09AFS.jpg,Fear,Blue,Images/Blue.jpg,space,ParentConditions/YellowBlueBlue_v1.xlsx,BlueBlueYellow,Conditions/Version_1/YellowHappyStop.xlsx,no,PASS,0.8390326237024166,,,,,,,,,0,0,0,0,0,0,0,0,0,71,71,71,,,,,,,,,,,,,,,,,,,,,,,,,,,,,,,,,,,,,,,,,,,,,,,,,,,,,,,,,,,,,,,,,,,,,,,,,,,,,,,1.95,526.5886799001601,None,space,1,0.31980529986321926,528.6384336000774,None,528.6384336000774,None,528.6384336000774,None,,,,,,,,,,,P003,fencog,1,Pre,2021_Jul_05_1042,Go No-Go Task,2021.1.4,119.7219102266546,
,"Rule: When you see a yellow image, do not press 'spacebar'.",Images/Fearful/BF05_FO.jpg,Fear,Blue,Images/Blue.jpg,space,ParentConditions/YellowBlueBlue_v1.xlsx,BlueBlueYellow,Conditions/Version_1/YellowHappyStop.xlsx,no,PASS,0.691917879610661,,,,,,,,,0,0,0,0,0,0,0,0,0,72,72,72,,,,,,,,,,,,,,,,,,,,,,,,,,,,,,,,,,,,,,,,,,,,,,,,,,,,,,,,,,,,,,,,,,,,,,,,,,,,,,,1.42,529.0389706999995,None,space,1,0.3230465999804437,530.5630127000622,None,530.5630127000622,None,530.5630127000622,None,,,,,,,,,,,P003,fencog,1,Pre,2021_Jul_05_1042,Go No-Go Task,2021.1.4,119.7219102266546,
,"Rule: When you see a yellow image, do not press 'spacebar'.",Images/Fearful/AF22AFS.jpg,Fear,Blue,Images/Blue.jpg,space,ParentConditions/YellowBlueBlue_v1.xlsx,BlueBlueYellow,Conditions/Version_1/YellowHappyStop.xlsx,no,PASS,0.03529836358299465,,,,,,,,,0,0,0,0,0,0,0,0,0,73,73,73,,,,,,,,,,,,,,,,,,,,,,,,,,,,,,,,,,,,,,,,,,,,,,,,,,,,,,,,,,,,,,,,,,,,,,,,,,,,,,,1.76,530.9622651000973,None,space,1,0.3855589001905173,532.8288972000591,None,532.8288972000591,None,532.8288972000591,None,,,,,,,,,,,P003,fencog,1,Pre,2021_Jul_05_1042,Go No-Go Task,2021.1.4,119.7219102266546,
,"Rule: When you see a yellow image, do not press 'spacebar'.",Images/Happy/BF18_HO.jpg,Happy,Yellow,Images/Yellow.jpg,None,ParentConditions/YellowBlueBlue_v1.xlsx,BlueBlueYellow,Conditions/Version_1/YellowHappyStop.xlsx,yes,PASS,0.4232691792902379,,,,,,,,,0,0,0,0,0,0,0,0,0,74,74,74,,,,,,,,,,,,,,,,,,,,,,,,,,,,,,,,,,,,,,,,,,,,,,,,,,,,,,,,,,,,,,,,,,,,,,,,,,,,,,,1.64,533.2344492999837,None,None,1,,534.978316700086,None,534.978316700086,None,534.978316700086,None,,,,,,,,,,,P003,fencog,1,Pre,2021_Jul_05_1042,Go No-Go Task,2021.1.4,119.7219102266546,
,"Rule: When you see a yellow image, do not press 'spacebar'.",Images/Fearful/WM12_FO.jpg,Fear,Blue,Images/Blue.jpg,space,ParentConditions/YellowBlueBlue_v1.xlsx,BlueBlueYellow,Conditions/Version_1/YellowHappyStop.xlsx,no,PASS,0.34671640176200413,,,,,,,,,0,0,0,0,0,0,0,0,0,75,75,75,,,,,,,,,,,,,,,,,,,,,,,,,,,,,,,,,,,,,,,,,,,,,,,,,,,,,,,,,,,,,,,,,,,,,,,,,,,,,,,1.32,535.3788224000018,None,space,1,0.25923530012369156,536.8111708001234,None,536.8111708001234,None,536.8111708001234,None,,,,,,,,,,,P003,fencog,1,Pre,2021_Jul_05_1042,Go No-Go Task,2021.1.4,119.7219102266546,
,"Rule: When you see a yellow image, do not press 'spacebar'.",Images/Fearful/BF07_FO.jpg,Fear,Blue,Images/Blue.jpg,space,ParentConditions/YellowBlueBlue_v1.xlsx,BlueBlueYellow,Conditions/Version_1/YellowHappyStop.xlsx,no,PASS,0.2992945798396267,,,,,,,,,0,0,0,0,0,0,0,0,0,76,76,76,,,,,,,,,,,,,,,,,,,,,,,,,,,,,,,,,,,,,,,,,,,,,,,,,,,,,,,,,,,,,,,,,,,,,,,,,,,,,,,1.89,537.2098447000608,None,space,1,0.2842280000913888,539.20204870007,None,539.20204870007,None,539.20204870007,None,,,,,,,,,,,P003,fencog,1,Pre,2021_Jul_05_1042,Go No-Go Task,2021.1.4,119.7219102266546,
,"Rule: When you see a yellow image, do not press 'spacebar'.",Images/Fearful/HF10_FO.jpg,Fear,Blue,Images/Blue.jpg,space,ParentConditions/YellowBlueBlue_v1.xlsx,BlueBlueYellow,Conditions/Version_1/YellowHappyStop.xlsx,no,PASS,0.06506977473557796,,,,,,,,,0,0,0,0,0,0,0,0,0,77,77,77,,,,,,,,,,,,,,,,,,,,,,,,,,,,,,,,,,,,,,,,,,,,,,,,,,,,,,,,,,,,,,,,,,,,,,,,,,,,,,,1.99,539.6121606000233,None,space,1,0.2642216000240296,541.7095763001125,None,541.7095763001125,None,541.7095763001125,None,,,,,,,,,,,P003,fencog,1,Pre,2021_Jul_05_1042,Go No-Go Task,2021.1.4,119.7219102266546,
,"Rule: When you see a yellow image, do not press 'spacebar'.",Images/Fearful/AM10AFS.jpg,Fear,Blue,Images/Blue.jpg,space,ParentConditions/YellowBlueBlue_v1.xlsx,BlueBlueYellow,Conditions/Version_1/YellowHappyStop.xlsx,no,PASS,0.4391085826227009,,,,,,,,,0,0,0,0,0,0,0,0,0,78,78,78,,,,,,,,,,,,,,,,,,,,,,,,,,,,,,,,,,,,,,,,,,,,,,,,,,,,,,,,,,,,,,,,,,,,,,,,,,,,,,,1.48,542.1154072000645,None,space,1,0.27334329998120666,543.7007081999909,None,543.7007081999909,None,543.7007081999909,None,,,,,,,,,,,P003,fencog,1,Pre,2021_Jul_05_1042,Go No-Go Task,2021.1.4,119.7219102266546,
,"Rule: When you see a yellow image, do not press 'spacebar'.",Images/Happy/AM23HAS.jpg,Happy,Yellow,Images/Yellow.jpg,None,ParentConditions/YellowBlueBlue_v1.xlsx,BlueBlueYellow,Conditions/Version_1/YellowHappyStop.xlsx,yes,PASS,0.8296456455429673,,,,,,,,,0,0,0,0,0,0,0,0,0,79,79,79,,,,,,,,,,,,,,,,,,,,,,,,,,,,,,,,,,,,,,,,,,,,,,,,,,,,,,,,,,,,,,,,,,,,,,,,,,,,,,,1.9,544.1005035000853,None,None,1,,546.1083613999654,None,546.1083613999654,None,546.1083613999654,None,,,,,,,,,,,P003,fencog,1,Pre,2021_Jul_05_1042,Go No-Go Task,2021.1.4,119.7219102266546,
,"Rule: When you see blue image, do not press 'spacebar'.",Images/Fearful/HM06_FC.jpg,Fear,Blue,Images/Blue.jpg,None,ParentConditions/YellowBlueBlue_v1.xlsx,BlueBlueYellow,Conditions/Version_1/BlueFearStop.xlsx,yes,PASS,0.7729813006314565,,,,,,,,,0,0,0,0,0,1,1,1,0,0,0,0,,,,,,,,,,,,,,,,,,,,,,,,,,,,,,,,,,,,,,,,,,,,,,,,,,,,,,,,,,,,,,,,,559.9416933001485,None,562.9274705999997,None,space,1.7351542001124471,562.9274705999997,None,559.9416933001485,None,559.9416933001485,None,559.9416933001485,None,1.76,564.7145999001805,None,None,1,,566.5689191999845,None,566.5689191999845,None,566.5689191999845,None,546.5216596000828,None,space,12.902450100053102,547.0156119000167,None,546.5216596000828,None,546.5216596000828,None,P003,fencog,1,Pre,2021_Jul_05_1042,Go No-Go Task,2021.1.4,119.7219102266546,
,"Rule: When you see blue image, do not press 'spacebar'.",Images/Happy/AF07HAS.jpg,Happy,Yellow,Images/Yellow.jpg,space,ParentConditions/YellowBlueBlue_v1.xlsx,BlueBlueYellow,Conditions/Version_1/BlueFearStop.xlsx,no,PASS,0.4924453653062516,,,,,,,,,0,0,0,0,0,1,1,1,0,1,1,1,,,,,,,,,,,,,,,,,,,,,,,,,,,,,,,,,,,,,,,,,,,,,,,,,,,,,,,,,,,,,,,,,,,,,,,,,,,,,,,1.31,566.9724312999751,None,space,1,0.29299780004657805,568.3851181000937,None,568.3851181000937,None,568.3851181000937,None,,,,,,,,,,,P003,fencog,1,Pre,2021_Jul_05_1042,Go No-Go Task,2021.1.4,119.7219102266546,
,"Rule: When you see blue image, do not press 'spacebar'.",Images/Happy/AF28HAS.jpg,Happy,Yellow,Images/Yellow.jpg,space,ParentConditions/YellowBlueBlue_v1.xlsx,BlueBlueYellow,Conditions/Version_1/BlueFearStop.xlsx,no,PASS,0.8943473655540664,,,,,,,,,0,0,0,0,0,1,1,1,0,2,2,2,,,,,,,,,,,,,,,,,,,,,,,,,,,,,,,,,,,,,,,,,,,,,,,,,,,,,,,,,,,,,,,,,,,,,,,,,,,,,,,1.89,568.7867481000721,None,space,1,0.30149660003371537,570.7844420999754,None,570.7844420999754,None,570.7844420999754,None,,,,,,,,,,,P003,fencog,1,Pre,2021_Jul_05_1042,Go No-Go Task,2021.1.4,119.7219102266546,
,"Rule: When you see blue image, do not press 'spacebar'.",Images/Happy/AF22HAS.jpg,Happy,Yellow,Images/Yellow.jpg,space,ParentConditions/YellowBlueBlue_v1.xlsx,BlueBlueYellow,Conditions/Version_1/BlueFearStop.xlsx,no,PASS,0.5892765061873407,,,,,,,,,0,0,0,0,0,1,1,1,0,3,3,3,,,,,,,,,,,,,,,,,,,,,,,,,,,,,,,,,,,,,,,,,,,,,,,,,,,,,,,,,,,,,,,,,,,,,,,,,,,,,,,1.73,571.1854850000236,None,space,1,0.2856165999546647,573.0170571999624,None,573.0170571999624,None,573.0170571999624,None,,,,,,,,,,,P003,fencog,1,Pre,2021_Jul_05_1042,Go No-Go Task,2021.1.4,119.7219102266546,
,"Rule: When you see blue image, do not press 'spacebar'.",Images/Fearful/AF27AFS.jpg,Fear,Blue,Images/Blue.jpg,None,ParentConditions/YellowBlueBlue_v1.xlsx,BlueBlueYellow,Conditions/Version_1/BlueFearStop.xlsx,yes,PASS,0.41428581318896585,,,,,,,,,0,0,0,0,0,1,1,1,0,4,4,4,,,,,,,,,,,,,,,,,,,,,,,,,,,,,,,,,,,,,,,,,,,,,,,,,,,,,,,,,,,,,,,,,,,,,,,,,,,,,,,1.81,573.4220500001684,None,None,1,,575.3329633001704,None,575.3329633001704,None,575.3329633001704,None,,,,,,,,,,,P003,fencog,1,Pre,2021_Jul_05_1042,Go No-Go Task,2021.1.4,119.7219102266546,
,"Rule: When you see blue image, do not press 'spacebar'.",Images/Happy/AM24HAS.jpg,Happy,Yellow,Images/Yellow.jpg,space,ParentConditions/YellowBlueBlue_v1.xlsx,BlueBlueYellow,Conditions/Version_1/BlueFearStop.xlsx,no,PASS,0.8126867400025187,,,,,,,,,0,0,0,0,0,1,1,1,0,5,5,5,,,,,,,,,,,,,,,,,,,,,,,,,,,,,,,,,,,,,,,,,,,,,,,,,,,,,,,,,,,,,,,,,,,,,,,,,,,,,,,1.67,575.7320165000856,None,space,1,0.28270189999602735,577.5073802999686,None,577.5073802999686,None,577.5073802999686,None,,,,,,,,,,,P003,fencog,1,Pre,2021_Jul_05_1042,Go No-Go Task,2021.1.4,119.7219102266546,
,"Rule: When you see blue image, do not press 'spacebar'.",Images/Fearful/AF26AFS.jpg,Fear,Blue,Images/Blue.jpg,None,ParentConditions/YellowBlueBlue_v1.xlsx,BlueBlueYellow,Conditions/Version_1/BlueFearStop.xlsx,yes,PASS,0.7771539142714355,,,,,,,,,0,0,0,0,0,1,1,1,0,6,6,6,,,,,,,,,,,,,,,,,,,,,,,,,,,,,,,,,,,,,,,,,,,,,,,,,,,,,,,,,,,,,,,,,,,,,,,,,,,,,,,1.24,577.9076412001159,None,None,1,,579.2485347001348,None,579.2485347001348,None,579.2485347001348,None,,,,,,,,,,,P003,fencog,1,Pre,2021_Jul_05_1042,Go No-Go Task,2021.1.4,119.7219102266546,
,"Rule: When you see blue image, do not press 'spacebar'.",Images/Happy/WM11_HC.jpg,Happy,Yellow,Images/Yellow.jpg,space,ParentConditions/YellowBlueBlue_v1.xlsx,BlueBlueYellow,Conditions/Version_1/BlueFearStop.xlsx,no,PASS,0.612727142386838,,,,,,,,,0,0,0,0,0,1,1,1,0,7,7,7,,,,,,,,,,,,,,,,,,,,,,,,,,,,,,,,,,,,,,,,,,,,,,,,,,,,,,,,,,,,,,,,,,,,,,,,,,,,,,,1.57,579.6546682000626,None,space,1,0.330836100038141,581.3229068999644,None,581.3229068999644,None,581.3229068999644,None,,,,,,,,,,,P003,fencog,1,Pre,2021_Jul_05_1042,Go No-Go Task,2021.1.4,119.7219102266546,
,"Rule: When you see blue image, do not press 'spacebar'.",Images/Happy/BM03_HO.jpg,Happy,Yellow,Images/Yellow.jpg,space,ParentConditions/YellowBlueBlue_v1.xlsx,BlueBlueYellow,Conditions/Version_1/BlueFearStop.xlsx,no,PASS,0.7313165030586903,,,,,,,,,0,0,0,0,0,1,1,1,0,8,8,8,,,,,,,,,,,,,,,,,,,,,,,,,,,,,,,,,,,,,,,,,,,,,,,,,,,,,,,,,,,,,,,,,,,,,,,,,,,,,,,1.7,581.7329896001611,None,space,1,0.27507580001838505,583.5472730000038,None,583.5472730000038,None,583.5472730000038,None,,,,,,,,,,,P003,fencog,1,Pre,2021_Jul_05_1042,Go No-Go Task,2021.1.4,119.7219102266546,
,"Rule: When you see blue image, do not press 'spacebar'.",Images/Happy/BF18_HO.jpg,Happy,Yellow,Images/Yellow.jpg,space,ParentConditions/YellowBlueBlue_v1.xlsx,BlueBlueYellow,Conditions/Version_1/BlueFearStop.xlsx,no,PASS,0.5715935528670182,,,,,,,,,0,0,0,0,0,1,1,1,0,9,9,9,,,,,,,,,,,,,,,,,,,,,,,,,,,,,,,,,,,,,,,,,,,,,,,,,,,,,,,,,,,,,,,,,,,,,,,,,,,,,,,1.63,583.9521453001071,None,space,1,0.2857798000331968,585.6882206001319,None,585.6882206001319,None,585.6882206001319,None,,,,,,,,,,,P003,fencog,1,Pre,2021_Jul_05_1042,Go No-Go Task,2021.1.4,119.7219102266546,
,"Rule: When you see blue image, do not press 'spacebar'.",Images/Happy/AM10HAS.jpg,Happy,Yellow,Images/Yellow.jpg,space,ParentConditions/YellowBlueBlue_v1.xlsx,BlueBlueYellow,Conditions/Version_1/BlueFearStop.xlsx,no,PASS,0.4742386996589605,,,,,,,,,0,0,0,0,0,1,1,1,0,10,10,10,,,,,,,,,,,,,,,,,,,,,,,,,,,,,,,,,,,,,,,,,,,,,,,,,,,,,,,,,,,,,,,,,,,,,,,,,,,,,,,1.78,586.094690100057,None,space,1,0.35491440002806485,587.979378500022,None,587.979378500022,None,587.979378500022,None,,,,,,,,,,,P003,fencog,1,Pre,2021_Jul_05_1042,Go No-Go Task,2021.1.4,119.7219102266546,
,"Rule: When you see blue image, do not press 'spacebar'.",Images/Happy/AM09HAS.jpg,Happy,Yellow,Images/Yellow.jpg,space,ParentConditions/YellowBlueBlue_v1.xlsx,BlueBlueYellow,Conditions/Version_1/BlueFearStop.xlsx,no,PASS,0.5791375189576048,,,,,,,,,0,0,0,0,0,1,1,1,0,11,11,11,,,,,,,,,,,,,,,,,,,,,,,,,,,,,,,,,,,,,,,,,,,,,,,,,,,,,,,,,,,,,,,,,,,,,,,,,,,,,,,1.21,588.3785320001189,None,space,1,0.3109104000031948,589.6953649001662,None,589.6953649001662,None,589.6953649001662,None,,,,,,,,,,,P003,fencog,1,Pre,2021_Jul_05_1042,Go No-Go Task,2021.1.4,119.7219102266546,
,"Rule: When you see blue image, do not press 'spacebar'.",Images/Happy/AM16HAS.jpg,Happy,Yellow,Images/Yellow.jpg,space,ParentConditions/YellowBlueBlue_v1.xlsx,BlueBlueYellow,Conditions/Version_1/BlueFearStop.xlsx,no,PASS,0.06851146054747248,,,,,,,,,0,0,0,0,0,1,1,1,0,12,12,12,,,,,,,,,,,,,,,,,,,,,,,,,,,,,,,,,,,,,,,,,,,,,,,,,,,,,,,,,,,,,,,,,,,,,,,,,,,,,,,1.55,590.0961827000137,None,space,1,0.29242840013466775,591.7532307000365,None,591.7532307000365,None,591.7532307000365,None,,,,,,,,,,,P003,fencog,1,Pre,2021_Jul_05_1042,Go No-Go Task,2021.1.4,119.7219102266546,
,"Rule: When you see blue image, do not press 'spacebar'.",Images/Happy/AF10_HE.jpg,Happy,Yellow,Images/Yellow.jpg,space,ParentConditions/YellowBlueBlue_v1.xlsx,BlueBlueYellow,Conditions/Version_1/BlueFearStop.xlsx,no,PASS,0.21267371658214962,,,,,,,,,0,0,0,0,0,1,1,1,0,13,13,13,,,,,,,,,,,,,,,,,,,,,,,,,,,,,,,,,,,,,,,,,,,,,,,,,,,,,,,,,,,,,,,,,,,,,,,,,,,,,,,1.95,592.1535611001309,None,space,1,0.3150891999248415,594.2107788999565,None,594.2107788999565,None,594.2107788999565,None,,,,,,,,,,,P003,fencog,1,Pre,2021_Jul_05_1042,Go No-Go Task,2021.1.4,119.7219102266546,
,"Rule: When you see blue image, do not press 'spacebar'.",Images/Happy/AF27HAS.jpg,Happy,Yellow,Images/Yellow.jpg,space,ParentConditions/YellowBlueBlue_v1.xlsx,BlueBlueYellow,Conditions/Version_1/BlueFearStop.xlsx,no,PASS,0.8109673156723475,,,,,,,,,0,0,0,0,0,1,1,1,0,14,14,14,,,,,,,,,,,,,,,,,,,,,,,,,,,,,,,,,,,,,,,,,,,,,,,,,,,,,,,,,,,,,,,,,,,,,,,,,,,,,,,1.92,594.6130350001622,None,space,1,0.3469883999787271,596.6351135000587,None,596.6351135000587,None,596.6351135000587,None,,,,,,,,,,,P003,fencog,1,Pre,2021_Jul_05_1042,Go No-Go Task,2021.1.4,119.7219102266546,
,"Rule: When you see blue image, do not press 'spacebar'.",Images/Happy/BF10_HO.jpg,Happy,Yellow,Images/Yellow.jpg,space,ParentConditions/YellowBlueBlue_v1.xlsx,BlueBlueYellow,Conditions/Version_1/BlueFearStop.xlsx,no,PASS,0.35707259862702334,,,,,,,,,0,0,0,0,0,1,1,1,0,15,15,15,,,,,,,,,,,,,,,,,,,,,,,,,,,,,,,,,,,,,,,,,,,,,,,,,,,,,,,,,,,,,,,,,,,,,,,,,,,,,,,1.48,597.0344718000852,None,space,1,0.30885929986834526,598.6177342999727,None,598.6177342999727,None,598.6177342999727,None,,,,,,,,,,,P003,fencog,1,Pre,2021_Jul_05_1042,Go No-Go Task,2021.1.4,119.7219102266546,
,"Rule: When you see blue image, do not press 'spacebar'.",Images/Happy/BF14_HO.jpg,Happy,Yellow,Images/Yellow.jpg,space,ParentConditions/YellowBlueBlue_v1.xlsx,BlueBlueYellow,Conditions/Version_1/BlueFearStop.xlsx,no,PASS,0.41712793219483124,,,,,,,,,0,0,0,0,0,1,1,1,0,16,16,16,,,,,,,,,,,,,,,,,,,,,,,,,,,,,,,,,,,,,,,,,,,,,,,,,,,,,,,,,,,,,,,,,,,,,,,,,,,,,,,1.69,599.0183288999833,None,space,1,0.26923689991235733,600.8088629001286,None,600.8088629001286,None,600.8088629001286,None,,,,,,,,,,,P003,fencog,1,Pre,2021_Jul_05_1042,Go No-Go Task,2021.1.4,119.7219102266546,
,"Rule: When you see blue image, do not press 'spacebar'.",Images/Fearful/BM08_FC.jpg,Fear,Blue,Images/Blue.jpg,None,ParentConditions/YellowBlueBlue_v1.xlsx,BlueBlueYellow,Conditions/Version_1/BlueFearStop.xlsx,yes,PASS,0.2777606849347436,,,,,,,,,0,0,0,0,0,1,1,1,0,17,17,17,,,,,,,,,,,,,,,,,,,,,,,,,,,,,,,,,,,,,,,,,,,,,,,,,,,,,,,,,,,,,,,,,,,,,,,,,,,,,,,1.34,601.2101875001099,None,None,1,,602.6582506000996,None,602.6582506000996,None,602.6582506000996,None,,,,,,,,,,,P003,fencog,1,Pre,2021_Jul_05_1042,Go No-Go Task,2021.1.4,119.7219102266546,
,"Rule: When you see blue image, do not press 'spacebar'.",Images/Happy/AM01HAS.jpg,Happy,Yellow,Images/Yellow.jpg,space,ParentConditions/YellowBlueBlue_v1.xlsx,BlueBlueYellow,Conditions/Version_1/BlueFearStop.xlsx,no,PASS,0.43160138117116176,,,,,,,,,0,0,0,0,0,1,1,1,0,18,18,18,,,,,,,,,,,,,,,,,,,,,,,,,,,,,,,,,,,,,,,,,,,,,,,,,,,,,,,,,,,,,,,,,,,,,,,,,,,,,,,1.93,603.0594022001605,None,space,1,0.2430209000594914,605.090840500081,None,605.090840500081,None,605.090840500081,None,,,,,,,,,,,P003,fencog,1,Pre,2021_Jul_05_1042,Go No-Go Task,2021.1.4,119.7219102266546,
,"Rule: When you see blue image, do not press 'spacebar'.",Images/Happy/AF11HAS.jpg,Happy,Yellow,Images/Yellow.jpg,space,ParentConditions/YellowBlueBlue_v1.xlsx,BlueBlueYellow,Conditions/Version_1/BlueFearStop.xlsx,no,PASS,0.9696898199968184,,,,,,,,,0,0,0,0,0,1,1,1,0,19,19,19,,,,,,,,,,,,,,,,,,,,,,,,,,,,,,,,,,,,,,,,,,,,,,,,,,,,,,,,,,,,,,,,,,,,,,,,,,,,,,,1.2,605.4989390000701,None,space,1,0.29565749992616475,606.8070406001061,None,606.8070406001061,None,606.8070406001061,None,,,,,,,,,,,P003,fencog,1,Pre,2021_Jul_05_1042,Go No-Go Task,2021.1.4,119.7219102266546,
,"Rule: When you see blue image, do not press 'spacebar'.",Images/Happy/BM01_HO.jpg,Happy,Yellow,Images/Yellow.jpg,space,ParentConditions/YellowBlueBlue_v1.xlsx,BlueBlueYellow,Conditions/Version_1/BlueFearStop.xlsx,no,PASS,0.40182091251260654,,,,,,,,,0,0,0,0,0,1,1,1,0,20,20,20,,,,,,,,,,,,,,,,,,,,,,,,,,,,,,,,,,,,,,,,,,,,,,,,,,,,,,,,,,,,,,,,,,,,,,,,,,,,,,,1.99,607.2079986000899,None,space,1,0.26916859997436404,609.297914700117,None,609.297914700117,None,609.297914700117,None,,,,,,,,,,,P003,fencog,1,Pre,2021_Jul_05_1042,Go No-Go Task,2021.1.4,119.7219102266546,
,"Rule: When you see blue image, do not press 'spacebar'.",Images/Happy/AF07_HO.jpg,Happy,Yellow,Images/Yellow.jpg,space,ParentConditions/YellowBlueBlue_v1.xlsx,BlueBlueYellow,Conditions/Version_1/BlueFearStop.xlsx,no,PASS,0.304860645067783,,,,,,,,,0,0,0,0,0,1,1,1,0,21,21,21,,,,,,,,,,,,,,,,,,,,,,,,,,,,,,,,,,,,,,,,,,,,,,,,,,,,,,,,,,,,,,,,,,,,,,,,,,,,,,,1.64,609.702395300148,None,space,1,0.3027572000864893,611.438969100127,None,611.438969100127,None,611.438969100127,None,,,,,,,,,,,P003,fencog,1,Pre,2021_Jul_05_1042,Go No-Go Task,2021.1.4,119.7219102266546,
,"Rule: When you see blue image, do not press 'spacebar'.",Images/Happy/HM06_HO.jpg,Happy,Yellow,Images/Yellow.jpg,space,ParentConditions/YellowBlueBlue_v1.xlsx,BlueBlueYellow,Conditions/Version_1/BlueFearStop.xlsx,no,PASS,0.3928744637511502,,,,,,,,,0,0,0,0,0,1,1,1,0,22,22,22,,,,,,,,,,,,,,,,,,,,,,,,,,,,,,,,,,,,,,,,,,,,,,,,,,,,,,,,,,,,,,,,,,,,,,,,,,,,,,,1.74,611.8407483000774,None,space,1,0.25348400021903217,613.6885137001518,None,613.6885137001518,None,613.6885137001518,None,,,,,,,,,,,P003,fencog,1,Pre,2021_Jul_05_1042,Go No-Go Task,2021.1.4,119.7219102266546,
,"Rule: When you see blue image, do not press 'spacebar'.",Images/Fearful/AM09_FO.jpg,Fear,Blue,Images/Blue.jpg,None,ParentConditions/YellowBlueBlue_v1.xlsx,BlueBlueYellow,Conditions/Version_1/BlueFearStop.xlsx,yes,PASS,0.17130222782280535,,,,,,,,,0,0,0,0,0,1,1,1,0,23,23,23,,,,,,,,,,,,,,,,,,,,,,,,,,,,,,,,,,,,,,,,,,,,,,,,,,,,,,,,,,,,,,,,,,,,,,,,,,,,,,,1.6,614.0938373000827,None,None,1,,615.7960624999832,None,615.7960624999832,None,615.7960624999832,None,,,,,,,,,,,P003,fencog,1,Pre,2021_Jul_05_1042,Go No-Go Task,2021.1.4,119.7219102266546,
,"Rule: When you see blue image, do not press 'spacebar'.",Images/Happy/AF09HAS.jpg,Happy,Yellow,Images/Yellow.jpg,space,ParentConditions/YellowBlueBlue_v1.xlsx,BlueBlueYellow,Conditions/Version_1/BlueFearStop.xlsx,no,PASS,0.32050850835393896,,,,,,,,,0,0,0,0,0,1,1,1,0,24,24,24,,,,,,,,,,,,,,,,,,,,,,,,,,,,,,,,,,,,,,,,,,,,,,,,,,,,,,,,,,,,,,,,,,,,,,,,,,,,,,,1.66,616.1980749999639,None,space,1,0.2848156001418829,617.9620072999969,None,617.9620072999969,None,617.9620072999969,None,,,,,,,,,,,P003,fencog,1,Pre,2021_Jul_05_1042,Go No-Go Task,2021.1.4,119.7219102266546,
,"Rule: When you see blue image, do not press 'spacebar'.",Images/Happy/AM04HAS.jpg,Happy,Yellow,Images/Yellow.jpg,space,ParentConditions/YellowBlueBlue_v1.xlsx,BlueBlueYellow,Conditions/Version_1/BlueFearStop.xlsx,no,PASS,0.17004201555218557,,,,,,,,,0,0,0,0,0,1,1,1,0,25,25,25,,,,,,,,,,,,,,,,,,,,,,,,,,,,,,,,,,,,,,,,,,,,,,,,,,,,,,,,,,,,,,,,,,,,,,,,,,,,,,,1.41,618.3693605000153,None,space,1,0.26424870011396706,619.8864394000266,None,619.8864394000266,None,619.8864394000266,None,,,,,,,,,,,P003,fencog,1,Pre,2021_Jul_05_1042,Go No-Go Task,2021.1.4,119.7219102266546,
,"Rule: When you see blue image, do not press 'spacebar'.",Images/Happy/BF07_HO.jpg,Happy,Yellow,Images/Yellow.jpg,space,ParentConditions/YellowBlueBlue_v1.xlsx,BlueBlueYellow,Conditions/Version_1/BlueFearStop.xlsx,no,PASS,0.9775255982448644,,,,,,,,,0,0,0,0,0,1,1,1,0,26,26,26,,,,,,,,,,,,,,,,,,,,,,,,,,,,,,,,,,,,,,,,,,,,,,,,,,,,,,,,,,,,,,,,,,,,,,,,,,,,,,,1.82,620.2880466000643,None,space,1,0.2512415999080986,622.218947699992,None,622.218947699992,None,622.218947699992,None,,,,,,,,,,,P003,fencog,1,Pre,2021_Jul_05_1042,Go No-Go Task,2021.1.4,119.7219102266546,
,"Rule: When you see blue image, do not press 'spacebar'.",Images/Happy/AF02HAS.jpg,Happy,Yellow,Images/Yellow.jpg,space,ParentConditions/YellowBlueBlue_v1.xlsx,BlueBlueYellow,Conditions/Version_1/BlueFearStop.xlsx,no,PASS,0.9926707513295598,,,,,,,,,0,0,0,0,0,1,1,1,0,27,27,27,,,,,,,,,,,,,,,,,,,,,,,,,,,,,,,,,,,,,,,,,,,,,,,,,,,,,,,,,,,,,,,,,,,,,,,,,,,,,,,1.27,622.6183240001556,None,space,1,0.26108349999412894,623.9935016001109,None,623.9935016001109,None,623.9935016001109,None,,,,,,,,,,,P003,fencog,1,Pre,2021_Jul_05_1042,Go No-Go Task,2021.1.4,119.7219102266546,
,"Rule: When you see blue image, do not press 'spacebar'.",Images/Happy/AM30HAS.jpg,Happy,Yellow,Images/Yellow.jpg,space,ParentConditions/YellowBlueBlue_v1.xlsx,BlueBlueYellow,Conditions/Version_1/BlueFearStop.xlsx,no,PASS,0.6844901636445411,,,,,,,,,0,0,0,0,0,1,1,1,0,28,28,28,,,,,,,,,,,,,,,,,,,,,,,,,,,,,,,,,,,,,,,,,,,,,,,,,,,,,,,,,,,,,,,,,,,,,,,,,,,,,,,1.49,624.4006362999789,None,space,1,0.26089440006762743,625.9930843000766,None,625.9930843000766,None,625.9930843000766,None,,,,,,,,,,,P003,fencog,1,Pre,2021_Jul_05_1042,Go No-Go Task,2021.1.4,119.7219102266546,
,"Rule: When you see blue image, do not press 'spacebar'.",Images/Happy/BF05_HO.jpg,Happy,Yellow,Images/Yellow.jpg,space,ParentConditions/YellowBlueBlue_v1.xlsx,BlueBlueYellow,Conditions/Version_1/BlueFearStop.xlsx,no,PASS,0.010815687417666808,,,,,,,,,0,0,0,0,0,1,1,1,0,29,29,29,,,,,,,,,,,,,,,,,,,,,,,,,,,,,,,,,,,,,,,,,,,,,,,,,,,,,,,,,,,,,,,,,,,,,,,,,,,,,,,1.77,626.397365000099,None,space,1,0.2751881000585854,628.2675370001234,None,628.2675370001234,None,628.2675370001234,None,,,,,,,,,,,P003,fencog,1,Pre,2021_Jul_05_1042,Go No-Go Task,2021.1.4,119.7219102266546,
,"Rule: When you see blue image, do not press 'spacebar'.",Images/Fearful/AF25AFS.jpg,Fear,Blue,Images/Blue.jpg,None,ParentConditions/YellowBlueBlue_v1.xlsx,BlueBlueYellow,Conditions/Version_1/BlueFearStop.xlsx,yes,PASS,0.35816317389786545,,,,,,,,,0,0,0,0,0,1,1,1,0,30,30,30,,,,,,,,,,,,,,,,,,,,,,,,,,,,,,,,,,,,,,,,,,,,,,,,,,,,,,,,,,,,,,,,,,,,,,,,,,,,,,,1.5,628.676376500167,None,None,1,,630.2834467000794,None,630.2834467000794,None,630.2834467000794,None,,,,,,,,,,,P003,fencog,1,Pre,2021_Jul_05_1042,Go No-Go Task,2021.1.4,119.7219102266546,
,"Rule: When you see blue image, do not press 'spacebar'.",Images/Happy/BF09_HO.jpg,Happy,Yellow,Images/Yellow.jpg,space,ParentConditions/YellowBlueBlue_v1.xlsx,BlueBlueYellow,Conditions/Version_1/BlueFearStop.xlsx,no,PASS,0.3783419276063734,,,,,,,,,0,0,0,0,0,1,1,1,0,31,31,31,,,,,,,,,,,,,,,,,,,,,,,,,,,,,,,,,,,,,,,,,,,,,,,,,,,,,,,,,,,,,,,,,,,,,,,,,,,,,,,1.22,630.6900685001165,None,None,0,,632.016206700122,None,632.016206700122,None,632.016206700122,None,,,,,,,,,,,P003,fencog,1,Pre,2021_Jul_05_1042,Go No-Go Task,2021.1.4,119.7219102266546,
,"Rule: When you see blue image, do not press 'spacebar'.",Images/Happy/AM09_HE.jpg,Happy,Yellow,Images/Yellow.jpg,space,ParentConditions/YellowBlueBlue_v1.xlsx,BlueBlueYellow,Conditions/Version_1/BlueFearStop.xlsx,no,PASS,0.21016465424314756,,,,,,,,,0,0,0,0,0,1,1,1,0,32,32,32,,,,,,,,,,,,,,,,,,,,,,,,,,,,,,,,,,,,,,,,,,,,,,,,,,,,,,,,,,,,,,,,,,,,,,,,,,,,,,,1.71,632.4198444001377,None,space,1,0.2461877998430282,634.2239360001404,None,634.2239360001404,None,634.2239360001404,None,,,,,,,,,,,P003,fencog,1,Pre,2021_Jul_05_1042,Go No-Go Task,2021.1.4,119.7219102266546,
,"Rule: When you see blue image, do not press 'spacebar'.",Images/Fearful/BF14_FO.jpg,Fear,Blue,Images/Blue.jpg,None,ParentConditions/YellowBlueBlue_v1.xlsx,BlueBlueYellow,Conditions/Version_1/BlueFearStop.xlsx,yes,PASS,0.9618360969741386,,,,,,,,,0,0,0,0,0,1,1,1,0,33,33,33,,,,,,,,,,,,,,,,,,,,,,,,,,,,,,,,,,,,,,,,,,,,,,,,,,,,,,,,,,,,,,,,,,,,,,,,,,,,,,,1.37,634.6346549000591,None,space,0,0.2674453998915851,636.1066245001275,None,636.1066245001275,None,636.1066245001275,None,,,,,,,,,,,P003,fencog,1,Pre,2021_Jul_05_1042,Go No-Go Task,2021.1.4,119.7219102266546,
,"Rule: When you see blue image, do not press 'spacebar'.",Images/Fearful/HF05_FC.jpg,Fear,Blue,Images/Blue.jpg,None,ParentConditions/YellowBlueBlue_v1.xlsx,BlueBlueYellow,Conditions/Version_1/BlueFearStop.xlsx,yes,PASS,0.005236598035567086,,,,,,,,,0,0,0,0,0,1,1,1,0,34,34,34,,,,,,,,,,,,,,,,,,,,,,,,,,,,,,,,,,,,,,,,,,,,,,,,,,,,,,,,,,,,,,,,,,,,,,,,,,,,,,,1.46,636.5075008000713,None,None,1,,638.0727293000091,None,638.0727293000091,None,638.0727293000091,None,,,,,,,,,,,P003,fencog,1,Pre,2021_Jul_05_1042,Go No-Go Task,2021.1.4,119.7219102266546,
,"Rule: When you see blue image, do not press 'spacebar'.",Images/Happy/AM23HAS.jpg,Happy,Yellow,Images/Yellow.jpg,space,ParentConditions/YellowBlueBlue_v1.xlsx,BlueBlueYellow,Conditions/Version_1/BlueFearStop.xlsx,no,PASS,0.13077339503157293,,,,,,,,,0,0,0,0,0,1,1,1,0,35,35,35,,,,,,,,,,,,,,,,,,,,,,,,,,,,,,,,,,,,,,,,,,,,,,,,,,,,,,,,,,,,,,,,,,,,,,,,,,,,,,,1.83,638.4774214001372,None,space,1,0.38486670004203916,640.4135422001127,None,640.4135422001127,None,640.4135422001127,None,,,,,,,,,,,P003,fencog,1,Pre,2021_Jul_05_1042,Go No-Go Task,2021.1.4,119.7219102266546,
,"Rule: When you see blue image, do not press 'spacebar'.",Images/Happy/AM03_HO.jpg,Happy,Yellow,Images/Yellow.jpg,space,ParentConditions/YellowBlueBlue_v1.xlsx,BlueBlueYellow,Conditions/Version_1/BlueFearStop.xlsx,no,PASS,0.29520703840296547,,,,,,,,,0,0,0,0,0,1,1,1,0,36,36,36,,,,,,,,,,,,,,,,,,,,,,,,,,,,,,,,,,,,,,,,,,,,,,,,,,,,,,,,,,,,,,,,,,,,,,,,,,,,,,,1.3,640.8168822999578,None,space,1,0.24859279999509454,642.2215523000341,None,642.2215523000341,None,642.2215523000341,None,,,,,,,,,,,P003,fencog,1,Pre,2021_Jul_05_1042,Go No-Go Task,2021.1.4,119.7219102266546,
,"Rule: When you see blue image, do not press 'spacebar'.",Images/Happy/AF25HAS.jpg,Happy,Yellow,Images/Yellow.jpg,space,ParentConditions/YellowBlueBlue_v1.xlsx,BlueBlueYellow,Conditions/Version_1/BlueFearStop.xlsx,no,PASS,0.3205802973983102,,,,,,,,,0,0,0,0,0,1,1,1,0,37,37,37,,,,,,,,,,,,,,,,,,,,,,,,,,,,,,,,,,,,,,,,,,,,,,,,,,,,,,,,,,,,,,,,,,,,,,,,,,,,,,,1.85,642.6317013001535,None,space,1,0.24322470021434128,644.5874902000651,None,644.5874902000651,None,644.5874902000651,None,,,,,,,,,,,P003,fencog,1,Pre,2021_Jul_05_1042,Go No-Go Task,2021.1.4,119.7219102266546,
,"Rule: When you see blue image, do not press 'spacebar'.",Images/Happy/BM08_HO.jpg,Happy,Yellow,Images/Yellow.jpg,space,ParentConditions/YellowBlueBlue_v1.xlsx,BlueBlueYellow,Conditions/Version_1/BlueFearStop.xlsx,no,PASS,0.9250231228335681,,,,,,,,,0,0,0,0,0,1,1,1,0,38,38,38,,,,,,,,,,,,,,,,,,,,,,,,,,,,,,,,,,,,,,,,,,,,,,,,,,,,,,,,,,,,,,,,,,,,,,,,,,,,,,,1.72,644.9862025000621,None,space,1,0.2905149001162499,646.8117971001193,None,646.8117971001193,None,646.8117971001193,None,,,,,,,,,,,P003,fencog,1,Pre,2021_Jul_05_1042,Go No-Go Task,2021.1.4,119.7219102266546,
,"Rule: When you see blue image, do not press 'spacebar'.",Images/Happy/AF32HAS.jpg,Happy,Yellow,Images/Yellow.jpg,space,ParentConditions/YellowBlueBlue_v1.xlsx,BlueBlueYellow,Conditions/Version_1/BlueFearStop.xlsx,no,PASS,0.73804934699979,,,,,,,,,0,0,0,0,0,1,1,1,0,39,39,39,,,,,,,,,,,,,,,,,,,,,,,,,,,,,,,,,,,,,,,,,,,,,,,,,,,,,,,,,,,,,,,,,,,,,,,,,,,,,,,1.39,647.2119325001258,None,space,1,0.3118350999429822,648.7029110000003,None,648.7029110000003,None,648.7029110000003,None,,,,,,,,,,,P003,fencog,1,Pre,2021_Jul_05_1042,Go No-Go Task,2021.1.4,119.7219102266546,
,"Rule: When you see blue image, do not press 'spacebar'.",Images/Happy/AF23HAS.jpg,Happy,Yellow,Images/Yellow.jpg,space,ParentConditions/YellowBlueBlue_v1.xlsx,BlueBlueYellow,Conditions/Version_1/BlueFearStop.xlsx,no,PASS,0.9000246195519893,,,,,,,,,0,0,0,0,0,1,1,1,0,40,40,40,,,,,,,,,,,,,,,,,,,,,,,,,,,,,,,,,,,,,,,,,,,,,,,,,,,,,,,,,,,,,,,,,,,,,,,,,,,,,,,1.26,649.1083627000917,None,space,1,0.27289369981735945,650.4690735000186,None,650.4690735000186,None,650.4690735000186,None,,,,,,,,,,,P003,fencog,1,Pre,2021_Jul_05_1042,Go No-Go Task,2021.1.4,119.7219102266546,
,"Rule: When you see blue image, do not press 'spacebar'.",Images/Happy/AM32HAS.jpg,Happy,Yellow,Images/Yellow.jpg,space,ParentConditions/YellowBlueBlue_v1.xlsx,BlueBlueYellow,Conditions/Version_1/BlueFearStop.xlsx,no,PASS,0.738989629625258,,,,,,,,,0,0,0,0,0,1,1,1,0,41,41,41,,,,,,,,,,,,,,,,,,,,,,,,,,,,,,,,,,,,,,,,,,,,,,,,,,,,,,,,,,,,,,,,,,,,,,,,,,,,,,,1.45,650.8699185999576,None,space,1,0.28339249989949167,652.4268110000994,None,652.4268110000994,None,652.4268110000994,None,,,,,,,,,,,P003,fencog,1,Pre,2021_Jul_05_1042,Go No-Go Task,2021.1.4,119.7219102266546,
,"Rule: When you see blue image, do not press 'spacebar'.",Images/Fearful/AM30AFS.jpg,Fear,Blue,Images/Blue.jpg,None,ParentConditions/YellowBlueBlue_v1.xlsx,BlueBlueYellow,Conditions/Version_1/BlueFearStop.xlsx,yes,PASS,0.33529906039128465,,,,,,,,,0,0,0,0,0,1,1,1,0,42,42,42,,,,,,,,,,,,,,,,,,,,,,,,,,,,,,,,,,,,,,,,,,,,,,,,,,,,,,,,,,,,,,,,,,,,,,,,,,,,,,,1.28,652.8308461001143,None,space,0,0.3644747999496758,654.2178823000286,None,654.2178823000286,None,654.2178823000286,None,,,,,,,,,,,P003,fencog,1,Pre,2021_Jul_05_1042,Go No-Go Task,2021.1.4,119.7219102266546,
,"Rule: When you see blue image, do not press 'spacebar'.",Images/Happy/BM02_HO.jpg,Happy,Yellow,Images/Yellow.jpg,space,ParentConditions/YellowBlueBlue_v1.xlsx,BlueBlueYellow,Conditions/Version_1/BlueFearStop.xlsx,no,PASS,0.711648218321579,,,,,,,,,0,0,0,0,0,1,1,1,0,43,43,43,,,,,,,,,,,,,,,,,,,,,,,,,,,,,,,,,,,,,,,,,,,,,,,,,,,,,,,,,,,,,,,,,,,,,,,,,,,,,,,1.68,654.6211888000835,None,space,1,0.2607358999084681,656.4089886001311,None,656.4089886001311,None,656.4089886001311,None,,,,,,,,,,,P003,fencog,1,Pre,2021_Jul_05_1042,Go No-Go Task,2021.1.4,119.7219102266546,
,"Rule: When you see blue image, do not press 'spacebar'.",Images/Happy/AM10_HO.jpg,Happy,Yellow,Images/Yellow.jpg,space,ParentConditions/YellowBlueBlue_v1.xlsx,BlueBlueYellow,Conditions/Version_1/BlueFearStop.xlsx,no,PASS,0.7811025651589869,,,,,,,,,0,0,0,0,0,1,1,1,0,44,44,44,,,,,,,,,,,,,,,,,,,,,,,,,,,,,,,,,,,,,,,,,,,,,,,,,,,,,,,,,,,,,,,,,,,,,,,,,,,,,,,1.29,656.8084869000595,None,space,1,0.32576790009625256,658.1918801001739,None,658.1918801001739,None,658.1918801001739,None,,,,,,,,,,,P003,fencog,1,Pre,2021_Jul_05_1042,Go No-Go Task,2021.1.4,119.7219102266546,
,"Rule: When you see blue image, do not press 'spacebar'.",Images/Fearful/AM10_FO.jpg,Fear,Blue,Images/Blue.jpg,None,ParentConditions/YellowBlueBlue_v1.xlsx,BlueBlueYellow,Conditions/Version_1/BlueFearStop.xlsx,yes,PASS,0.14747063444404174,,,,,,,,,0,0,0,0,0,1,1,1,0,45,45,45,,,,,,,,,,,,,,,,,,,,,,,,,,,,,,,,,,,,,,,,,,,,,,,,,,,,,,,,,,,,,,,,,,,,,,,,,,,,,,,1.61,658.5932062000502,None,None,1,,660.3078952000942,None,660.3078952000942,None,660.3078952000942,None,,,,,,,,,,,P003,fencog,1,Pre,2021_Jul_05_1042,Go No-Go Task,2021.1.4,119.7219102266546,
,"Rule: When you see blue image, do not press 'spacebar'.",Images/Happy/AF19HAS.jpg,Happy,Yellow,Images/Yellow.jpg,space,ParentConditions/YellowBlueBlue_v1.xlsx,BlueBlueYellow,Conditions/Version_1/BlueFearStop.xlsx,no,PASS,0.5734484599929517,,,,,,,,,0,0,0,0,0,1,1,1,0,46,46,46,,,,,,,,,,,,,,,,,,,,,,,,,,,,,,,,,,,,,,,,,,,,,,,,,,,,,,,,,,,,,,,,,,,,,,,,,,,,,,,1.58,660.711424899986,None,space,1,0.24685529991984367,662.407262600027,None,662.407262600027,None,662.407262600027,None,,,,,,,,,,,P003,fencog,1,Pre,2021_Jul_05_1042,Go No-Go Task,2021.1.4,119.7219102266546,
,"Rule: When you see blue image, do not press 'spacebar'.",Images/Fearful/HF09_FC.jpg,Fear,Blue,Images/Blue.jpg,None,ParentConditions/YellowBlueBlue_v1.xlsx,BlueBlueYellow,Conditions/Version_1/BlueFearStop.xlsx,yes,PASS,0.19935802832005745,,,,,,,,,0,0,0,0,0,1,1,1,0,47,47,47,,,,,,,,,,,,,,,,,,,,,,,,,,,,,,,,,,,,,,,,,,,,,,,,,,,,,,,,,,,,,,,,,,,,,,,,,,,,,,,1.32,662.800308899954,None,space,0,0.3190009999088943,664.2233647000976,None,664.2233647000976,None,664.2233647000976,None,,,,,,,,,,,P003,fencog,1,Pre,2021_Jul_05_1042,Go No-Go Task,2021.1.4,119.7219102266546,
,"Rule: When you see blue image, do not press 'spacebar'.",Images/Fearful/AM22AFS.jpg,Fear,Blue,Images/Blue.jpg,None,ParentConditions/YellowBlueBlue_v1.xlsx,BlueBlueYellow,Conditions/Version_1/BlueFearStop.xlsx,yes,PASS,0.17276378175067786,,,,,,,,,0,0,0,0,0,1,1,1,0,48,48,48,,,,,,,,,,,,,,,,,,,,,,,,,,,,,,,,,,,,,,,,,,,,,,,,,,,,,,,,,,,,,,,,,,,,,,,,,,,,,,,1.51,664.6294784999918,None,None,1,,666.2394052001182,None,666.2394052001182,None,666.2394052001182,None,,,,,,,,,,,P003,fencog,1,Pre,2021_Jul_05_1042,Go No-Go Task,2021.1.4,119.7219102266546,
,"Rule: When you see blue image, do not press 'spacebar'.",Images/Happy/AM06_HC.jpg,Happy,Yellow,Images/Yellow.jpg,space,ParentConditions/YellowBlueBlue_v1.xlsx,BlueBlueYellow,Conditions/Version_1/BlueFearStop.xlsx,no,PASS,0.06320185727949179,,,,,,,,,0,0,0,0,0,1,1,1,0,49,49,49,,,,,,,,,,,,,,,,,,,,,,,,,,,,,,,,,,,,,,,,,,,,,,,,,,,,,,,,,,,,,,,,,,,,,,,,,,,,,,,1.47,666.6401007000823,None,space,1,0.28007840015925467,668.2138640000485,None,668.2138640000485,None,668.2138640000485,None,,,,,,,,,,,P003,fencog,1,Pre,2021_Jul_05_1042,Go No-Go Task,2021.1.4,119.7219102266546,
,"Rule: When you see blue image, do not press 'spacebar'.",Images/Fearful/AM32AFS.jpg,Fear,Blue,Images/Blue.jpg,None,ParentConditions/YellowBlueBlue_v1.xlsx,BlueBlueYellow,Conditions/Version_1/BlueFearStop.xlsx,yes,PASS,0.03468314974069586,,,,,,,,,0,0,0,0,0,1,1,1,0,50,50,50,,,,,,,,,,,,,,,,,,,,,,,,,,,,,,,,,,,,,,,,,,,,,,,,,,,,,,,,,,,,,,,,,,,,,,,,,,,,,,,1.98,668.6187599000987,None,None,1,,670.7046906000469,None,670.7046906000469,None,670.7046906000469,None,,,,,,,,,,,P003,fencog,1,Pre,2021_Jul_05_1042,Go No-Go Task,2021.1.4,119.7219102266546,
,"Rule: When you see blue image, do not press 'spacebar'.",Images/Happy/WF11_HE.jpg,Happy,Yellow,Images/Yellow.jpg,space,ParentConditions/YellowBlueBlue_v1.xlsx,BlueBlueYellow,Conditions/Version_1/BlueFearStop.xlsx,no,PASS,0.5138011133022752,,,,,,,,,0,0,0,0,0,1,1,1,0,51,51,51,,,,,,,,,,,,,,,,,,,,,,,,,,,,,,,,,,,,,,,,,,,,,,,,,,,,,,,,,,,,,,,,,,,,,,,,,,,,,,,1.52,671.1050144999754,None,space,1,0.3006140999495983,672.7292571000289,None,672.7292571000289,None,672.7292571000289,None,,,,,,,,,,,P003,fencog,1,Pre,2021_Jul_05_1042,Go No-Go Task,2021.1.4,119.7219102266546,
,"Rule: When you see blue image, do not press 'spacebar'.",Images/Fearful/AF28AFS.jpg,Fear,Blue,Images/Blue.jpg,None,ParentConditions/YellowBlueBlue_v1.xlsx,BlueBlueYellow,Conditions/Version_1/BlueFearStop.xlsx,yes,PASS,0.30204493442130675,,,,,,,,,0,0,0,0,0,1,1,1,0,52,52,52,,,,,,,,,,,,,,,,,,,,,,,,,,,,,,,,,,,,,,,,,,,,,,,,,,,,,,,,,,,,,,,,,,,,,,,,,,,,,,,1.75,673.1297175001819,None,None,1,,674.9867940000258,None,674.9867940000258,None,674.9867940000258,None,,,,,,,,,,,P003,fencog,1,Pre,2021_Jul_05_1042,Go No-Go Task,2021.1.4,119.7219102266546,
,"Rule: When you see blue image, do not press 'spacebar'.",Images/Happy/HF04_HE.jpg,Happy,Yellow,Images/Yellow.jpg,space,ParentConditions/YellowBlueBlue_v1.xlsx,BlueBlueYellow,Conditions/Version_1/BlueFearStop.xlsx,no,PASS,0.05385370360405073,,,,,,,,,0,0,0,0,0,1,1,1,0,53,53,53,,,,,,,,,,,,,,,,,,,,,,,,,,,,,,,,,,,,,,,,,,,,,,,,,,,,,,,,,,,,,,,,,,,,,,,,,,,,,,,1.96,675.3938037001062,None,space,1,0.2966290998738259,677.4611115001608,None,677.4611115001608,None,677.4611115001608,None,,,,,,,,,,,P003,fencog,1,Pre,2021_Jul_05_1042,Go No-Go Task,2021.1.4,119.7219102266546,
,"Rule: When you see blue image, do not press 'spacebar'.",Images/Happy/AM13HAS.jpg,Happy,Yellow,Images/Yellow.jpg,space,ParentConditions/YellowBlueBlue_v1.xlsx,BlueBlueYellow,Conditions/Version_1/BlueFearStop.xlsx,no,PASS,0.9978120552242631,,,,,,,,,0,0,0,0,0,1,1,1,0,54,54,54,,,,,,,,,,,,,,,,,,,,,,,,,,,,,,,,,,,,,,,,,,,,,,,,,,,,,,,,,,,,,,,,,,,,,,,,,,,,,,,1.23,677.8619297000114,None,None,0,,679.1856319999788,None,679.1856319999788,None,679.1856319999788,None,,,,,,,,,,,P003,fencog,1,Pre,2021_Jul_05_1042,Go No-Go Task,2021.1.4,119.7219102266546,
,"Rule: When you see blue image, do not press 'spacebar'.",Images/Happy/HF10_HE.jpg,Happy,Yellow,Images/Yellow.jpg,space,ParentConditions/YellowBlueBlue_v1.xlsx,BlueBlueYellow,Conditions/Version_1/BlueFearStop.xlsx,no,PASS,0.7658265452728541,,,,,,,,,0,0,0,0,0,1,1,1,0,55,55,55,,,,,,,,,,,,,,,,,,,,,,,,,,,,,,,,,,,,,,,,,,,,,,,,,,,,,,,,,,,,,,,,,,,,,,,,,,,,,,,1.8,679.5912960001733,None,space,1,0.3369414999615401,681.4931981000118,None,681.4931981000118,None,681.4931981000118,None,,,,,,,,,,,P003,fencog,1,Pre,2021_Jul_05_1042,Go No-Go Task,2021.1.4,119.7219102266546,
,"Rule: When you see blue image, do not press 'spacebar'.",Images/Happy/AM04_HE.jpg,Happy,Yellow,Images/Yellow.jpg,space,ParentConditions/YellowBlueBlue_v1.xlsx,BlueBlueYellow,Conditions/Version_1/BlueFearStop.xlsx,no,PASS,0.8987539961300183,,,,,,,,,0,0,0,0,0,1,1,1,0,56,56,56,,,,,,,,,,,,,,,,,,,,,,,,,,,,,,,,,,,,,,,,,,,,,,,,,,,,,,,,,,,,,,,,,,,,,,,,,,,,,,,1.94,681.8937197001651,None,space,1,0.32769030006602407,683.942485800013,None,683.942485800013,None,683.942485800013,None,,,,,,,,,,,P003,fencog,1,Pre,2021_Jul_05_1042,Go No-Go Task,2021.1.4,119.7219102266546,
