CondFileP,Instructions,FaceE,Express,ColourT,ColourF,CorrectAnsP,MasterCondFile,BlockOrder,CondFile,ColCheck,Triplicate_check,SORT_BY_SMALLEST,EPracticeOuterLoop.thisRepN,EPracticeOuterLoop.thisTrialN,EPracticeOuterLoop.thisN,EPracticeOuterLoop.thisIndex,EPracticeInnerLoop.thisRepN,EPracticeInnerLoop.thisTrialN,EPracticeInnerLoop.thisN,EPracticeInnerLoop.thisIndex,MasterLoop.thisRepN,MasterLoop.thisTrialN,MasterLoop.thisN,MasterLoop.thisIndex,OuterLoop.thisRepN,OuterLoop.thisTrialN,OuterLoop.thisN,OuterLoop.thisIndex,InnerLoop.thisRepN,InnerLoop.thisTrialN,InnerLoop.thisN,InnerLoop.thisIndex,text_13.started,text_13.stopped,key_resp_10.keys,key_resp_10.rt,key_resp_10.started,key_resp_10.stopped,text4.started,text4.stopped,EmotionTaskInstructions1.keys,EmotionTaskInstructions1.rt,EmotionTaskInstructions1.started,EmotionTaskInstructions1.stopped,text_4.started,text_4.stopped,key_resp_5.keys,key_resp_5.rt,key_resp_5.started,key_resp_5.stopped,Text_14.started,Text_14.stopped,key_resp_9.keys,key_resp_9.rt,key_resp_9.started,key_resp_9.stopped,text_5.started,text_5.stopped,text_6.started,text_6.stopped,key_resp_7.keys,key_resp_7.rt,key_resp_7.started,key_resp_7.stopped,text_10.started,text_10.stopped,text_11.started,text_11.stopped,text_12.started,text_12.stopped,ISIjitterPractice,EPracticeISIMarker.started,EPracticeISIMarker.stopped,Pract.keys,Pract.corr,Pract.started,Pract.stopped,PracticeFace.started,PracticeFace.stopped,ColourPractice.started,ColourPractice.stopped,text_7.started,text_7.stopped,Pract.rt,EndOfPractice.started,EndOfPractice.stopped,key_resp_8.keys,key_resp_8.rt,key_resp_8.started,key_resp_8.stopped,text_8.started,text_8.stopped,key_resp_6.keys,key_resp_6.rt,key_resp_6.started,key_resp_6.stopped,text_2.started,text_2.stopped,text_3.started,text_3.stopped,key_resp_3.keys,key_resp_3.rt,key_resp_3.started,key_resp_3.stopped,TaskBlock.started,TaskBlock.stopped,BlockNo1.started,BlockNo1.stopped,OfBlock.started,OfBlock.stopped,ISIjitter,ISImarker.started,ISImarker.stopped,key_resp.keys,key_resp.corr,key_resp.rt,key_resp.started,key_resp.stopped,FaceSet.started,FaceSet.stopped,Colour.started,Colour.stopped,EndBlockText.started,EndBlockText.stopped,key_resp_4.keys,key_resp_4.rt,key_resp_4.started,key_resp_4.stopped,BreakText2.started,BreakText2.stopped,PressToContinue.started,PressToContinue.stopped,participant,Study Name,Task Version (required to run),PRE/POST,date,expName,psychopyVersion,frameRate
,,,,,,,,,,,,,,,,,,,,,,,,,,,,,,,,,45.2551934,None,space,26.1665817,46.2451563,None,,,,,,,,,,,,,,,,,,,,,,,,,,,,,,,,,,,,,,,,,,,,,,,,,,,,,,,,,,,,,,,,,,,,,,,,,,,,,,,,,,,,,,,,,,,,,,,P004,fencog,1,Post,2021_Jul_16_1128,Go No-Go Task,2021.1.4,119.943051
,,,,,,,,,,,,,,,,,,,,,,,,,,,,,,,,,,,,,,,73.8957336,None,space,6.6523006,73.8957336,None,,,,,,,,,,,,,,,,,,,,,,,,,,,,,,,,,,,,,,,,,,,,,,,,,,,,,,,,,,,,,,,,,,,,,,,,,,,,,,,,,,,,,,,,,P004,fencog,1,Post,2021_Jul_16_1128,Go No-Go Task,2021.1.4,119.943051
,,,,,,,,,,,,,,,,,,,,,,,,,,,,,,,,,,,,,,,,,,,,,80.6138658,None,space,13.8776867,80.6138658,None,,,,,,,,,,,,,,,,,,,,,,,,,,,,,,,,,,,,,,,,,,,,,,,,,,,,,,,,,,,,,,,,,,,,,,,,,,,,,,,,,,,P004,fencog,1,Post,2021_Jul_16_1128,Go No-Go Task,2021.1.4,119.943051
,,,,,,,,,,,,,,,,,,,,,,,,,,,,,,,,,,,,,,,,,,,,,,,,,,,94.507236,None,space,28.7926635,94.507236,None,,,,,,,,,,,,,,,,,,,,,,,,,,,,,,,,,,,,,,,,,,,,,,,,,,,,,,,,,,,,,,,,,,,,,,,,,,,,,P004,fencog,1,Post,2021_Jul_16_1128,Go No-Go Task,2021.1.4,119.943051
EPracticeConditions/BlueEyes.csv,"Rule: When you see a blue image, do not press 'spacebar'.",Images/Happy/HF10_HE.jpg,Happy,Yellow,Images/Yellow.jpg,space,,,,,,,0,0,0,0,0,0,0,7,,,,,,,,,,,,,,,,,,,,,,,,,,,,,,,,,,,,,123.3748595,None,126.3633524,None,space,0.608604,126.3633524,None,123.3748595,None,123.3748595,None,123.3748595,None,1.9,127.0602417,None,None,0,129.1167906,None,129.1167906,None,129.1167906,None,130.6552443,None,,,,,,,,,,,,,,,,,,,,,,,,,,,,,,,,,,,,,,,,,,,,,,,,,,P004,fencog,1,Post,2021_Jul_16_1128,Go No-Go Task,2021.1.4,119.943051
EPracticeConditions/BlueEyes.csv,"Rule: When you see a blue image, do not press 'spacebar'.",Images/Fearful/AF01_FO.jpg,Fear,Blue,Images/Blue.jpg,None,,,,,,,0,0,0,0,0,1,1,1,,,,,,,,,,,,,,,,,,,,,,,,,,,,,,,,,,,,,,,,,,,,,,,,,,,1.8,132.0004781,None,None,1,133.9033113,None,133.9033113,None,133.9033113,None,134.8174183,None,,,,,,,,,,,,,,,,,,,,,,,,,,,,,,,,,,,,,,,,,,,,,,,,,,P004,fencog,1,Post,2021_Jul_16_1128,Go No-Go Task,2021.1.4,119.943051
EPracticeConditions/BlueEyes.csv,"Rule: When you see a blue image, do not press 'spacebar'.",Images/Happy/BM02_HO.jpg,Happy,Yellow,Images/Yellow.jpg,space,,,,,,,0,0,0,0,0,2,2,2,,,,,,,,,,,,,,,,,,,,,,,,,,,,,,,,,,,,,,,,,,,,,,,,,,,1.5,136.8126798,None,None,0,138.4185045,None,138.4185045,None,138.4185045,None,139.327515,None,,,,,,,,,,,,,,,,,,,,,,,,,,,,,,,,,,,,,,,,,,,,,,,,,,P004,fencog,1,Post,2021_Jul_16_1128,Go No-Go Task,2021.1.4,119.943051
EPracticeConditions/BlueEyes.csv,"Rule: When you see a blue image, do not press 'spacebar'.",Images/Happy/HF09_HE.jpg,Happy,Yellow,Images/Yellow.jpg,space,,,,,,,0,0,0,0,0,3,3,6,,,,,,,,,,,,,,,,,,,,,,,,,,,,,,,,,,,,,,,,,,,,,,,,,,,1.3,141.3251934,None,space,1,142.7257198,None,142.7257198,None,142.7257198,None,143.616178,None,0.3106229,,,,,,,,,,,,,,,,,,,,,,,,,,,,,,,,,,,,,,,,,,,,,,,,,P004,fencog,1,Post,2021_Jul_16_1128,Go No-Go Task,2021.1.4,119.943051
EPracticeConditions/BlueEyes.csv,"Rule: When you see a blue image, do not press 'spacebar'.",Images/Happy/HF05_HO.jpg,Happy,Yellow,Images/Yellow.jpg,space,,,,,,,0,0,0,0,0,4,4,5,,,,,,,,,,,,,,,,,,,,,,,,,,,,,,,,,,,,,,,,,,,,,,,,,,,1.6,145.6156858,None,space,1,147.3159904,None,147.3159904,None,147.3159904,None,148.220557,None,0.2561343,,,,,,,,,,,,,,,,,,,,,,,,,,,,,,,,,,,,,,,,,,,,,,,,,P004,fencog,1,Post,2021_Jul_16_1128,Go No-Go Task,2021.1.4,119.943051
EPracticeConditions/BlueEyes.csv,"Rule: When you see a blue image, do not press 'spacebar'.",Images/Fearful/HM09_FC.jpg,Fear,Blue,Images/Blue.jpg,None,,,,,,,0,0,0,0,0,5,5,0,,,,,,,,,,,,,,,,,,,,,,,,,,,,,,,,,,,,,,,,,,,,,,,,,,,1.4,150.2226972,None,None,1,151.7230205,None,151.7230205,None,151.7230205,None,152.6194607,None,,,,,,,,,,,,,,,,,,,,,,,,,,,,,,,,,,,,,,,,,,,,,,,,,,P004,fencog,1,Post,2021_Jul_16_1128,Go No-Go Task,2021.1.4,119.943051
EPracticeConditions/BlueEyes.csv,"Rule: When you see a blue image, do not press 'spacebar'.",Images/Happy/BM08_HO.jpg,Happy,Yellow,Images/Yellow.jpg,space,,,,,,,0,0,0,0,0,6,6,3,,,,,,,,,,,,,,,,,,,,,,,,,,,,,,,,,,,,,,,,,,,,,,,,,,,1.2,154.6302818,None,space,1,155.9301402,None,155.9301402,None,155.9301402,None,156.8354582,None,0.2337711,,,,,,,,,,,,,,,,,,,,,,,,,,,,,,,,,,,,,,,,,,,,,,,,,P004,fencog,1,Post,2021_Jul_16_1128,Go No-Go Task,2021.1.4,119.943051
EPracticeConditions/BlueEyes.csv,"Rule: When you see a blue image, do not press 'spacebar'.",Images/Happy/HF04_HE.jpg,Happy,Yellow,Images/Yellow.jpg,space,,,,,,,0,0,0,0,0,7,7,4,,,,,,,,,,,,,,,,,,,,,,,,,,,,,,,,,,,,,,,,,,,,,,,,,,,1.7,158.8398903,None,space,1,160.6453477,None,160.6453477,None,160.6453477,None,161.5420602,None,0.3032399,,,,,,,,,,,,,,,,,,,,,,,,,,,,,,,,,,,,,,,,,,,,,,,,,P004,fencog,1,Post,2021_Jul_16_1128,Go No-Go Task,2021.1.4,119.943051
EPracticeConditions/BlueEyes.csv,"Rule: When you see a blue image, do not press 'spacebar'.",,,,,,,,,,,,0,0,0,0,,,,,,,,,,,,,,,,,,,,,,,,,,,,,,,,,,,,,,,,,,,,,,,,,,,,,,,,,,,,,,,,,,,,,,,,,,,,,,,,,,,,,,,,,,,,,,,,,,,,,,,,,,,,,,,,,,,,,P004,fencog,1,Post,2021_Jul_16_1128,Go No-Go Task,2021.1.4,119.943051
EPracticeConditions/YellowEyes.csv,"Rule: When you see a yellow image, do not press 'spacebar'.",Images/Fearful/AM16AFS.jpg,Fear,Blue,Images/Blue.jpg,space,,,,,,,0,1,1,1,0,0,0,2,,,,,,,,,,,,,,,,,,,,,,,,,,,,,,,,,,,,,163.5657624,None,166.5595843,None,space,1.1638743,166.5595843,None,163.5657624,None,163.5657624,None,163.5657624,None,1.4,167.7381867,None,space,1,169.2512588,None,169.2512588,None,169.2512588,None,170.1416127,None,0.3125228,,,,,,,,,,,,,,,,,,,,,,,,,,,,,,,,,,,,,,,,,,,,,,,,,P004,fencog,1,Post,2021_Jul_16_1128,Go No-Go Task,2021.1.4,119.943051
EPracticeConditions/YellowEyes.csv,"Rule: When you see a yellow image, do not press 'spacebar'.",Images/Fearful/AM17AFS.jpg,Fear,Blue,Images/Blue.jpg,space,,,,,,,0,1,1,1,0,1,1,3,,,,,,,,,,,,,,,,,,,,,,,,,,,,,,,,,,,,,,,,,,,,,,,,,,,1.7,172.1438127,None,space,1,173.949818,None,173.949818,None,173.949818,None,174.8457255,None,0.3107181,,,,,,,,,,,,,,,,,,,,,,,,,,,,,,,,,,,,,,,,,,,,,,,,,P004,fencog,1,Post,2021_Jul_16_1128,Go No-Go Task,2021.1.4,119.943051
EPracticeConditions/YellowEyes.csv,"Rule: When you see a yellow image, do not press 'spacebar'.",Images/Happy/BF05_HO.jpg,Happy,Yellow,Images/Yellow.jpg,None,,,,,,,0,1,1,1,0,2,2,1,,,,,,,,,,,,,,,,,,,,,,,,,,,,,,,,,,,,,,,,,,,,,,,,,,,1.5,176.8479388,None,space,0,178.4484048,None,178.4484048,None,178.4484048,None,179.3498824,None,0.2992332,,,,,,,,,,,,,,,,,,,,,,,,,,,,,,,,,,,,,,,,,,,,,,,,,P004,fencog,1,Post,2021_Jul_16_1128,Go No-Go Task,2021.1.4,119.943051
EPracticeConditions/YellowEyes.csv,"Rule: When you see a yellow image, do not press 'spacebar'.",Images/Fearful/AM23AFS.jpg,Fear,Blue,Images/Blue.jpg,space,,,,,,,0,1,1,1,0,3,3,6,,,,,,,,,,,,,,,,,,,,,,,,,,,,,,,,,,,,,,,,,,,,,,,,,,,1.3,181.3549791,None,None,0,182.7470674,None,182.7470674,None,182.7470674,None,183.661396,None,,,,,,,,,,,,,,,,,,,,,,,,,,,,,,,,,,,,,,,,,,,,,,,,,,P004,fencog,1,Post,2021_Jul_16_1128,Go No-Go Task,2021.1.4,119.943051
EPracticeConditions/YellowEyes.csv,"Rule: When you see a yellow image, do not press 'spacebar'.",Images/Happy/AM32HAS.jpg,Happy,Yellow,Images/Yellow.jpg,None,,,,,,,0,1,1,1,0,4,4,0,,,,,,,,,,,,,,,,,,,,,,,,,,,,,,,,,,,,,,,,,,,,,,,,,,,1.8,185.6620806,None,None,1,187.5624776,None,187.5624776,None,187.5624776,None,188.4718979,None,,,,,,,,,,,,,,,,,,,,,,,,,,,,,,,,,,,,,,,,,,,,,,,,,,P004,fencog,1,Post,2021_Jul_16_1128,Go No-Go Task,2021.1.4,119.943051
EPracticeConditions/YellowEyes.csv,"Rule: When you see a yellow image, do not press 'spacebar'.",Images/Fearful/AM19AFS.jpg,Fear,Blue,Images/Blue.jpg,space,,,,,,,0,1,1,1,0,5,5,4,,,,,,,,,,,,,,,,,,,,,,,,,,,,,,,,,,,,,,,,,,,,,,,,,,,1.6,190.4688388,None,space,1,192.1694279,None,192.1694279,None,192.1694279,None,193.0663103,None,0.1865882,,,,,,,,,,,,,,,,,,,,,,,,,,,,,,,,,,,,,,,,,,,,,,,,,P004,fencog,1,Post,2021_Jul_16_1128,Go No-Go Task,2021.1.4,119.943051
EPracticeConditions/YellowEyes.csv,"Rule: When you see a yellow image, do not press 'spacebar'.",Images/Fearful/AM22AFS.jpg,Fear,Blue,Images/Blue.jpg,space,,,,,,,0,1,1,1,0,6,6,5,,,,,,,,,,,,,,,,,,,,,,,,,,,,,,,,,,,,,,,,,,,,,,,,,,,1.2,195.0724142,None,space,1,196.3765078,None,196.3765078,None,196.3765078,None,197.2725183,None,0.2915484,,,,,,,,,,,,,,,,,,,,,,,,,,,,,,,,,,,,,,,,,,,,,,,,,P004,fencog,1,Post,2021_Jul_16_1128,Go No-Go Task,2021.1.4,119.943051
EPracticeConditions/YellowEyes.csv,"Rule: When you see a yellow image, do not press 'spacebar'.",Images/Fearful/AM24AFS.jpg,Fear,Blue,Images/Blue.jpg,space,,,,,,,0,1,1,1,0,7,7,7,,,,,,,,,,,,,,,,,,,,,,,,,,,,,,,,,,,,,,,,,,,,,,,,,,,1.9,199.2749546,None,space,1,201.2750629,None,201.2750629,None,201.2750629,None,202.1701765,None,0.2645626,,,,,,,,,,,,,,,,,,,,,,,,,,,,,,,,,,,,,,,,,,,,,,,,,P004,fencog,1,Post,2021_Jul_16_1128,Go No-Go Task,2021.1.4,119.943051
EPracticeConditions/YellowEyes.csv,"Rule: When you see a yellow image, do not press 'spacebar'.",,,,,,,,,,,,0,1,1,1,,,,,,,,,,,,,,,,,,,,,,,,,,,,,,,,,,,,,,,,,,,,,,,,,,,,,,,,,,,,,,,,,,,,,,,,,,,,,,,,,,,,,,,,,,,,,,,,,,,,,,,,,,,,,,,,,,,,,P004,fencog,1,Post,2021_Jul_16_1128,Go No-Go Task,2021.1.4,119.943051
EPracticeConditions/BlueScram.csv,"Rule: When you see a blue image, do not press 'spacebar'.",Images/Scram2/AM03_NC.jpg,Scramble,Yellow,Images/Yellow.jpg,space,,,,,,,0,2,2,2,0,0,0,6,,,,,,,,,,,,,,,,,,,,,,,,,,,,,,,,,,,,,204.1866249,None,207.184496,None,space,27.498397,207.184496,None,204.1866249,None,204.1866249,None,204.1866249,None,1.5,234.7003155,None,space,1,236.3063995,None,236.3063995,None,236.3063995,None,237.2112232,None,0.3378326,,,,,,,,,,,,,,,,,,,,,,,,,,,,,,,,,,,,,,,,,,,,,,,,,P004,fencog,1,Post,2021_Jul_16_1128,Go No-Go Task,2021.1.4,119.943051
EPracticeConditions/BlueScram.csv,"Rule: When you see a blue image, do not press 'spacebar'.",Images/Scram1/AM04_NC.jpg,Scramble,Yellow,Images/Yellow.jpg,space,,,,,,,0,2,2,2,0,1,1,3,,,,,,,,,,,,,,,,,,,,,,,,,,,,,,,,,,,,,,,,,,,,,,,,,,,1.7,239.2127875,None,space,1,241.0131074,None,241.0131074,None,241.0131074,None,241.9089226,None,0.3428136,,,,,,,,,,,,,,,,,,,,,,,,,,,,,,,,,,,,,,,,,,,,,,,,,P004,fencog,1,Post,2021_Jul_16_1128,Go No-Go Task,2021.1.4,119.943051
EPracticeConditions/BlueScram.csv,"Rule: When you see a blue image, do not press 'spacebar'.",Images/Scram1/BM08_NC.jpg,Scramble,Blue,Images/Blue.jpg,None,,,,,,,0,2,2,2,0,2,2,0,,,,,,,,,,,,,,,,,,,,,,,,,,,,,,,,,,,,,,,,,,,,,,,,,,,1.9,243.9138727,None,None,1,245.928432,None,245.928432,None,245.928432,None,246.8245927,None,,,,,,,,,,,,,,,,,,,,,,,,,,,,,,,,,,,,,,,,,,,,,,,,,,P004,fencog,1,Post,2021_Jul_16_1128,Go No-Go Task,2021.1.4,119.943051
EPracticeConditions/BlueScram.csv,"Rule: When you see a blue image, do not press 'spacebar'.",Images/Scram2/AF10_NC.jpg,Scramble,Yellow,Images/Yellow.jpg,space,,,,,,,0,2,2,2,0,3,3,2,,,,,,,,,,,,,,,,,,,,,,,,,,,,,,,,,,,,,,,,,,,,,,,,,,,1.6,248.8295913,None,space,1,250.5353677,None,250.5353677,None,250.5353677,None,251.431938,None,0.2764957,,,,,,,,,,,,,,,,,,,,,,,,,,,,,,,,,,,,,,,,,,,,,,,,,P004,fencog,1,Post,2021_Jul_16_1128,Go No-Go Task,2021.1.4,119.943051
EPracticeConditions/BlueScram.csv,"Rule: When you see a blue image, do not press 'spacebar'.",Images/Scram1/AM13NES.jpg,Scramble,Yellow,Images/Yellow.jpg,space,,,,,,,0,2,2,2,0,4,4,5,,,,,,,,,,,,,,,,,,,,,,,,,,,,,,,,,,,,,,,,,,,,,,,,,,,1.2,253.4353712,None,space,1,254.7508652,None,254.7508652,None,254.7508652,None,255.6412178,None,0.3408017,,,,,,,,,,,,,,,,,,,,,,,,,,,,,,,,,,,,,,,,,,,,,,,,,P004,fencog,1,Post,2021_Jul_16_1128,Go No-Go Task,2021.1.4,119.943051
EPracticeConditions/BlueScram.csv,"Rule: When you see a blue image, do not press 'spacebar'.",Images/Scram1/AM03NES.jpg,Scramble,Yellow,Images/Yellow.jpg,space,,,,,,,0,2,2,2,0,5,5,4,,,,,,,,,,,,,,,,,,,,,,,,,,,,,,,,,,,,,,,,,,,,,,,,,,,1.8,257.6432697,None,space,1,259.5578344,None,259.5578344,None,259.5578344,None,260.4519925,None,0.2937603,,,,,,,,,,,,,,,,,,,,,,,,,,,,,,,,,,,,,,,,,,,,,,,,,P004,fencog,1,Post,2021_Jul_16_1128,Go No-Go Task,2021.1.4,119.943051
EPracticeConditions/BlueScram.csv,"Rule: When you see a blue image, do not press 'spacebar'.",Images/Scram2/AF25NES.jpg,Scramble,Yellow,Images/Yellow.jpg,space,,,,,,,0,2,2,2,0,6,6,7,,,,,,,,,,,,,,,,,,,,,,,,,,,,,,,,,,,,,,,,,,,,,,,,,,,1.4,262.4560138,None,space,1,263.9565012,None,263.9565012,None,263.9565012,None,264.8494588,None,0.2873371,,,,,,,,,,,,,,,,,,,,,,,,,,,,,,,,,,,,,,,,,,,,,,,,,P004,fencog,1,Post,2021_Jul_16_1128,Go No-Go Task,2021.1.4,119.943051
EPracticeConditions/BlueScram.csv,"Rule: When you see a blue image, do not press 'spacebar'.",Images/Scram1/BF18_NC.jpg,Scramble,Blue,Images/Blue.jpg,None,,,,,,,0,2,2,2,0,7,7,1,,,,,,,,,,,,,,,,,,,,,,,,,,,,,,,,,,,,,,,,,,,,,,,,,,,1.3,266.8569328,None,space,0,268.2636107,None,268.2636107,None,268.2636107,None,269.168823,None,0.2523449,,,,,,,,,,,,,,,,,,,,,,,,,,,,,,,,,,,,,,,,,,,,,,,,,P004,fencog,1,Post,2021_Jul_16_1128,Go No-Go Task,2021.1.4,119.943051
EPracticeConditions/BlueScram.csv,"Rule: When you see a blue image, do not press 'spacebar'.",,,,,,,,,,,,0,2,2,2,,,,,,,,,,,,,,,,,,,,,,,,,,,,,,,,,,,,,,,,,,,,,,,,,,,,,,,,,,,,,,,,,,,,,,,,,,,,,,,,,,,,,,,,,,,,,,,,,,,,,,,,,,,,,,,,,,,,,P004,fencog,1,Post,2021_Jul_16_1128,Go No-Go Task,2021.1.4,119.943051
EPracticeConditions/YellowScram.csv,"Rule: When you see a yellow image, do not press 'spacebar'.",Images/Scram1/AF07NES.jpg,Scramble,Blue,Images/Blue.jpg,space,,,,,,,0,3,3,3,0,0,0,3,,,,,,,,,,,,,,,,,,,,,,,,,,,,,,,,,,,,,271.1838583,None,274.1694126,None,space,0.4181361,274.1694126,None,271.1838583,None,271.1838583,None,271.1838583,None,1.3,274.6163564,None,space,1,276.0195222,None,276.0195222,None,276.0195222,None,276.9241528,None,0.360406,,,,,,,,,,,,,,,,,,,,,,,,,,,,,,,,,,,,,,,,,,,,,,,,,P004,fencog,1,Post,2021_Jul_16_1128,Go No-Go Task,2021.1.4,119.943051
EPracticeConditions/YellowScram.csv,"Rule: When you see a yellow image, do not press 'spacebar'.",Images/Scram1/AF24NES.jpg,Scramble,Blue,Images/Blue.jpg,space,,,,,,,0,3,3,3,0,1,1,7,,,,,,,,,,,,,,,,,,,,,,,,,,,,,,,,,,,,,,,,,,,,,,,,,,,1.2,278.9268933,None,space,1,280.2350521,None,280.2350521,None,280.2350521,None,281.1343974,None,0.248904,,,,,,,,,,,,,,,,,,,,,,,,,,,,,,,,,,,,,,,,,,,,,,,,,P004,fencog,1,Post,2021_Jul_16_1128,Go No-Go Task,2021.1.4,119.943051
EPracticeConditions/YellowScram.csv,"Rule: When you see a yellow image, do not press 'spacebar'.",Images/Scram2/HM06_NC.jpg,Scramble,Yellow,Images/Yellow.jpg,None,,,,,,,0,3,3,3,0,2,2,0,,,,,,,,,,,,,,,,,,,,,,,,,,,,,,,,,,,,,,,,,,,,,,,,,,,1.7,283.1414453,None,None,1,284.9420003,None,284.9420003,None,284.9420003,None,285.8385546,None,,,,,,,,,,,,,,,,,,,,,,,,,,,,,,,,,,,,,,,,,,,,,,,,,,P004,fencog,1,Post,2021_Jul_16_1128,Go No-Go Task,2021.1.4,119.943051
EPracticeConditions/YellowScram.csv,"Rule: When you see a yellow image, do not press 'spacebar'.",Images/Scram2/AM03NES.jpg,Scramble,Yellow,Images/Yellow.jpg,None,,,,,,,0,3,3,3,0,3,3,1,,,,,,,,,,,,,,,,,,,,,,,,,,,,,,,,,,,,,,,,,,,,,,,,,,,1.5,287.8400692,None,None,1,289.4401843,None,289.4401843,None,289.4401843,None,290.3375692,None,,,,,,,,,,,,,,,,,,,,,,,,,,,,,,,,,,,,,,,,,,,,,,,,,,P004,fencog,1,Post,2021_Jul_16_1128,Go No-Go Task,2021.1.4,119.943051
EPracticeConditions/YellowScram.csv,"Rule: When you see a yellow image, do not press 'spacebar'.",Images/Scram1/AF30NES.JPG,Scramble,Blue,Images/Blue.jpg,space,,,,,,,0,3,3,3,0,4,4,4,,,,,,,,,,,,,,,,,,,,,,,,,,,,,,,,,,,,,,,,,,,,,,,,,,,1.8,292.3411822,None,space,1,294.2391594,None,294.2391594,None,294.2391594,None,295.1444117,None,0.3010449,,,,,,,,,,,,,,,,,,,,,,,,,,,,,,,,,,,,,,,,,,,,,,,,,P004,fencog,1,Post,2021_Jul_16_1128,Go No-Go Task,2021.1.4,119.943051
EPracticeConditions/YellowScram.csv,"Rule: When you see a yellow image, do not press 'spacebar'.",Images/Scram1/AF10_NC.jpg,Scramble,Blue,Images/Blue.jpg,space,,,,,,,0,3,3,3,0,5,5,6,,,,,,,,,,,,,,,,,,,,,,,,,,,,,,,,,,,,,,,,,,,,,,,,,,,1.6,297.1488201,None,space,1,298.8544749,None,298.8544749,None,298.8544749,None,299.7501132,None,0.2850644,,,,,,,,,,,,,,,,,,,,,,,,,,,,,,,,,,,,,,,,,,,,,,,,,P004,fencog,1,Post,2021_Jul_16_1128,Go No-Go Task,2021.1.4,119.943051
EPracticeConditions/YellowScram.csv,"Rule: When you see a yellow image, do not press 'spacebar'.",Images/Scram1/BM01_NC.jpg,Scramble,Blue,Images/Blue.jpg,space,,,,,,,0,3,3,3,0,6,6,5,,,,,,,,,,,,,,,,,,,,,,,,,,,,,,,,,,,,,,,,,,,,,,,,,,,1.4,301.7572222,None,space,1,303.2614969,None,303.2614969,None,303.2614969,None,304.1582873,None,0.3579791,,,,,,,,,,,,,,,,,,,,,,,,,,,,,,,,,,,,,,,,,,,,,,,,,P004,fencog,1,Post,2021_Jul_16_1128,Go No-Go Task,2021.1.4,119.943051
EPracticeConditions/YellowScram.csv,"Rule: When you see a yellow image, do not press 'spacebar'.",Images/Scram1/HF04_NC.jpg,Scramble,Blue,Images/Blue.jpg,space,,,,,,,0,3,3,3,0,7,7,2,,,,,,,,,,,,,,,,,,,,,,,,,,,,,,,,,,,,,,,,,,,,,,,,,,,1.9,306.1602679,None,space,1,308.1600091,None,308.1600091,None,308.1600091,None,309.0570623,None,0.2116613,,,,,,,,,,,,,,,,,,,,,,,,,,,,,,,,,,,,,,,,,,,,,,,,,P004,fencog,1,Post,2021_Jul_16_1128,Go No-Go Task,2021.1.4,119.943051
EPracticeConditions/YellowScram.csv,"Rule: When you see a yellow image, do not press 'spacebar'.",,,,,,,,,,,,0,3,3,3,,,,,,,,,,,,,,,,,,,,,,,,,,,,,,,,,,,,,,,,,,,,,,,,,,,,,,,,,,,,,,,,,,,,,,,,,,,,,,,,,,,,,,,,,,,,,,,,,,,,,,,,,,,,,,,,,,,,,P004,fencog,1,Post,2021_Jul_16_1128,Go No-Go Task,2021.1.4,119.943051
,,,,,,,,,,,,,,,,,,,,,,,,,,,,,,,,,,,,,,,,,,,,,,,,,,,,,,,,,,,,,,,,,,,,,,,,,,,,,,,,,,,,,312.3469497,None,space,4.4985085,312.8331528,None,,,,,,,,,,,,,,,,,,,,,,,,,,,,,,,,,,,,,,,,,,,P004,fencog,1,Post,2021_Jul_16_1128,Go No-Go Task,2021.1.4,119.943051
,,,,,,,,,,,,,,,,,,,,,,,,,,,,,,,,,,,,,,,,,,,,,,,,,,,,,,,,,,,,,,,,,,,,,,,,,,,,,,,,,,,,,,,,,,,317.3413526,None,space,1.990395,317.3413526,None,,,,,,,,,,,,,,,,,,,,,,,,,,,,,,,,,,,,,P004,fencog,1,Post,2021_Jul_16_1128,Go No-Go Task,2021.1.4,119.943051
,"Rule: When you see a yellow image, do not press 'spacebar'.",Images/Happy/BF09_HO.jpg,Happy,Blue,Images/Blue.jpg,space,ParentConditions/YellowYellowBlue_v1.xlsx,YellowYellowBlue,Conditions/Version_1/YellowFearStop.xlsx,no,PASS,0.826418621,,,,,,,,,0,0,0,1,0,0,0,0,0,0,0,0,,,,,,,,,,,,,,,,,,,,,,,,,,,,,,,,,,,,,,,,,,,,,,,,,,,,,,,,,,,,,,,,,319.39963,None,322.3882551,None,space,4.0470287,322.3882551,None,319.39963,None,319.39963,None,319.39963,None,1.37,326.4765999,None,space,1,0.3292329,327.954298,None,327.954298,None,327.954298,None,,,,,,,,,,,P004,fencog,1,Post,2021_Jul_16_1128,Go No-Go Task,2021.1.4,119.943051
,"Rule: When you see a yellow image, do not press 'spacebar'.",Images/Happy/AF30HAS.jpg,Happy,Blue,Images/Blue.jpg,space,ParentConditions/YellowYellowBlue_v1.xlsx,YellowYellowBlue,Conditions/Version_1/YellowFearStop.xlsx,no,PASS,0.175771647,,,,,,,,,0,0,0,1,0,0,0,0,0,1,1,1,,,,,,,,,,,,,,,,,,,,,,,,,,,,,,,,,,,,,,,,,,,,,,,,,,,,,,,,,,,,,,,,,,,,,,,,,,,,,,,1.65,328.3556973,None,space,1,0.2433091,330.1201502,None,330.1201502,None,330.1201502,None,,,,,,,,,,,P004,fencog,1,Post,2021_Jul_16_1128,Go No-Go Task,2021.1.4,119.943051
,"Rule: When you see a yellow image, do not press 'spacebar'.",Images/Happy/AF27HAS.jpg,Happy,Blue,Images/Blue.jpg,space,ParentConditions/YellowYellowBlue_v1.xlsx,YellowYellowBlue,Conditions/Version_1/YellowFearStop.xlsx,no,PASS,0.953023419,,,,,,,,,0,0,0,1,0,0,0,0,0,2,2,2,,,,,,,,,,,,,,,,,,,,,,,,,,,,,,,,,,,,,,,,,,,,,,,,,,,,,,,,,,,,,,,,,,,,,,,,,,,,,,,1.5,330.5177606,None,space,1,0.2684432,332.1196507,None,332.1196507,None,332.1196507,None,,,,,,,,,,,P004,fencog,1,Post,2021_Jul_16_1128,Go No-Go Task,2021.1.4,119.943051
,"Rule: When you see a yellow image, do not press 'spacebar'.",Images/Happy/AF22HAS.jpg,Happy,Blue,Images/Blue.jpg,space,ParentConditions/YellowYellowBlue_v1.xlsx,YellowYellowBlue,Conditions/Version_1/YellowFearStop.xlsx,no,PASS,0.382442311,,,,,,,,,0,0,0,1,0,0,0,0,0,3,3,3,,,,,,,,,,,,,,,,,,,,,,,,,,,,,,,,,,,,,,,,,,,,,,,,,,,,,,,,,,,,,,,,,,,,,,,,,,,,,,,1.95,332.5250137,None,space,1,0.3308864,334.577358,None,334.577358,None,334.577358,None,,,,,,,,,,,P004,fencog,1,Post,2021_Jul_16_1128,Go No-Go Task,2021.1.4,119.943051
,"Rule: When you see a yellow image, do not press 'spacebar'.",Images/Happy/WM11_HC.jpg,Happy,Blue,Images/Blue.jpg,space,ParentConditions/YellowYellowBlue_v1.xlsx,YellowYellowBlue,Conditions/Version_1/YellowFearStop.xlsx,no,PASS,0.464619418,,,,,,,,,0,0,0,1,0,0,0,0,0,4,4,4,,,,,,,,,,,,,,,,,,,,,,,,,,,,,,,,,,,,,,,,,,,,,,,,,,,,,,,,,,,,,,,,,,,,,,,,,,,,,,,1.85,334.9874432,None,space,1,0.244839,336.9348368,None,336.9348368,None,336.9348368,None,,,,,,,,,,,P004,fencog,1,Post,2021_Jul_16_1128,Go No-Go Task,2021.1.4,119.943051
,"Rule: When you see a yellow image, do not press 'spacebar'.",Images/Happy/BF05_HO.jpg,Happy,Blue,Images/Blue.jpg,space,ParentConditions/YellowYellowBlue_v1.xlsx,YellowYellowBlue,Conditions/Version_1/YellowFearStop.xlsx,no,PASS,0.787207226,,,,,,,,,0,0,0,1,0,0,0,0,0,5,5,5,,,,,,,,,,,,,,,,,,,,,,,,,,,,,,,,,,,,,,,,,,,,,,,,,,,,,,,,,,,,,,,,,,,,,,,,,,,,,,,1.48,337.3338978,None,space,1,0.2539618,338.917541,None,338.917541,None,338.917541,None,,,,,,,,,,,P004,fencog,1,Post,2021_Jul_16_1128,Go No-Go Task,2021.1.4,119.943051
,"Rule: When you see a yellow image, do not press 'spacebar'.",Images/Fearful/AM01AFS.jpg,Fear,Yellow,Images/Yellow.jpg,None,ParentConditions/YellowYellowBlue_v1.xlsx,YellowYellowBlue,Conditions/Version_1/YellowFearStop.xlsx,yes,PASS,0.046465855,,,,,,,,,0,0,0,1,0,0,0,0,0,6,6,6,,,,,,,,,,,,,,,,,,,,,,,,,,,,,,,,,,,,,,,,,,,,,,,,,,,,,,,,,,,,,,,,,,,,,,,,,,,,,,,1.24,339.3182016,None,None,1,,340.6588039,None,340.6588039,None,340.6588039,None,,,,,,,,,,,P004,fencog,1,Post,2021_Jul_16_1128,Go No-Go Task,2021.1.4,119.943051
,"Rule: When you see a yellow image, do not press 'spacebar'.",Images/Happy/AF23HAS.jpg,Happy,Blue,Images/Blue.jpg,space,ParentConditions/YellowYellowBlue_v1.xlsx,YellowYellowBlue,Conditions/Version_1/YellowFearStop.xlsx,no,PASS,0.956689778,,,,,,,,,0,0,0,1,0,0,0,0,0,7,7,7,,,,,,,,,,,,,,,,,,,,,,,,,,,,,,,,,,,,,,,,,,,,,,,,,,,,,,,,,,,,,,,,,,,,,,,,,,,,,,,1.84,341.0625259,None,space,1,0.2441,343.0081075,None,343.0081075,None,343.0081075,None,,,,,,,,,,,P004,fencog,1,Post,2021_Jul_16_1128,Go No-Go Task,2021.1.4,119.943051
,"Rule: When you see a yellow image, do not press 'spacebar'.",Images/Happy/AM16HAS.jpg,Happy,Blue,Images/Blue.jpg,space,ParentConditions/YellowYellowBlue_v1.xlsx,YellowYellowBlue,Conditions/Version_1/YellowFearStop.xlsx,no,PASS,0.971596274,,,,,,,,,0,0,0,1,0,0,0,0,0,8,8,8,,,,,,,,,,,,,,,,,,,,,,,,,,,,,,,,,,,,,,,,,,,,,,,,,,,,,,,,,,,,,,,,,,,,,,,,,,,,,,,1.87,343.4087987,None,space,1,0.3334306,345.3823341,None,345.3823341,None,345.3823341,None,,,,,,,,,,,P004,fencog,1,Post,2021_Jul_16_1128,Go No-Go Task,2021.1.4,119.943051
,"Rule: When you see a yellow image, do not press 'spacebar'.",Images/Happy/AM04HAS.jpg,Happy,Blue,Images/Blue.jpg,space,ParentConditions/YellowYellowBlue_v1.xlsx,YellowYellowBlue,Conditions/Version_1/YellowFearStop.xlsx,no,PASS,0.883453283,,,,,,,,,0,0,0,1,0,0,0,0,0,9,9,9,,,,,,,,,,,,,,,,,,,,,,,,,,,,,,,,,,,,,,,,,,,,,,,,,,,,,,,,,,,,,,,,,,,,,,,,,,,,,,,1.93,345.7817537,None,space,1,0.2773876,347.8149532,None,347.8149532,None,347.8149532,None,,,,,,,,,,,P004,fencog,1,Post,2021_Jul_16_1128,Go No-Go Task,2021.1.4,119.943051
,"Rule: When you see a yellow image, do not press 'spacebar'.",Images/Happy/AF26HAS.jpg,Happy,Blue,Images/Blue.jpg,space,ParentConditions/YellowYellowBlue_v1.xlsx,YellowYellowBlue,Conditions/Version_1/YellowFearStop.xlsx,no,PASS,0.183751262,,,,,,,,,0,0,0,1,0,0,0,0,0,10,10,10,,,,,,,,,,,,,,,,,,,,,,,,,,,,,,,,,,,,,,,,,,,,,,,,,,,,,,,,,,,,,,,,,,,,,,,,,,,,,,,1.81,348.2210915,None,space,1,0.3371355,350.1392458,None,350.1392458,None,350.1392458,None,,,,,,,,,,,P004,fencog,1,Post,2021_Jul_16_1128,Go No-Go Task,2021.1.4,119.943051
,"Rule: When you see a yellow image, do not press 'spacebar'.",Images/Fearful/AF10_FC.jpg,Fear,Yellow,Images/Yellow.jpg,None,ParentConditions/YellowYellowBlue_v1.xlsx,YellowYellowBlue,Conditions/Version_1/YellowFearStop.xlsx,yes,PASS,0.280171839,,,,,,,,,0,0,0,1,0,0,0,0,0,11,11,11,,,,,,,,,,,,,,,,,,,,,,,,,,,,,,,,,,,,,,,,,,,,,,,,,,,,,,,,,,,,,,,,,,,,,,,,,,,,,,,1.69,350.5384391,None,space,0,0.2092748,352.3302001,None,352.3302001,None,352.3302001,None,,,,,,,,,,,P004,fencog,1,Post,2021_Jul_16_1128,Go No-Go Task,2021.1.4,119.943051
,"Rule: When you see a yellow image, do not press 'spacebar'.",Images/Fearful/AM09_FO.jpg,Fear,Yellow,Images/Yellow.jpg,None,ParentConditions/YellowYellowBlue_v1.xlsx,YellowYellowBlue,Conditions/Version_1/YellowFearStop.xlsx,yes,PASS,0.663013992,,,,,,,,,0,0,0,1,0,0,0,0,0,12,12,12,,,,,,,,,,,,,,,,,,,,,,,,,,,,,,,,,,,,,,,,,,,,,,,,,,,,,,,,,,,,,,,,,,,,,,,,,,,,,,,1.64,352.7353381,None,None,1,,354.4796403,None,354.4796403,None,354.4796403,None,,,,,,,,,,,P004,fencog,1,Post,2021_Jul_16_1128,Go No-Go Task,2021.1.4,119.943051
,"Rule: When you see a yellow image, do not press 'spacebar'.",Images/Happy/HM04_HO.jpg,Happy,Blue,Images/Blue.jpg,space,ParentConditions/YellowYellowBlue_v1.xlsx,YellowYellowBlue,Conditions/Version_1/YellowFearStop.xlsx,no,PASS,0.940231429,,,,,,,,,0,0,0,1,0,0,0,0,0,13,13,13,,,,,,,,,,,,,,,,,,,,,,,,,,,,,,,,,,,,,,,,,,,,,,,,,,,,,,,,,,,,,,,,,,,,,,,,,,,,,,,1.46,354.8823568,None,space,1,0.1979372,356.4374118,None,356.4374118,None,356.4374118,None,,,,,,,,,,,P004,fencog,1,Post,2021_Jul_16_1128,Go No-Go Task,2021.1.4,119.943051
,"Rule: When you see a yellow image, do not press 'spacebar'.",Images/Fearful/AM04_FO.jpg,Fear,Yellow,Images/Yellow.jpg,None,ParentConditions/YellowYellowBlue_v1.xlsx,YellowYellowBlue,Conditions/Version_1/YellowFearStop.xlsx,yes,PASS,0.310049008,,,,,,,,,0,0,0,1,0,0,0,0,0,14,14,14,,,,,,,,,,,,,,,,,,,,,,,,,,,,,,,,,,,,,,,,,,,,,,,,,,,,,,,,,,,,,,,,,,,,,,,,,,,,,,,1.77,356.8369059,None,None,1,,358.7117301,None,358.7117301,None,358.7117301,None,,,,,,,,,,,P004,fencog,1,Post,2021_Jul_16_1128,Go No-Go Task,2021.1.4,119.943051
,"Rule: When you see a yellow image, do not press 'spacebar'.",Images/Happy/AM13HAS.jpg,Happy,Blue,Images/Blue.jpg,space,ParentConditions/YellowYellowBlue_v1.xlsx,YellowYellowBlue,Conditions/Version_1/YellowFearStop.xlsx,no,PASS,0.443146769,,,,,,,,,0,0,0,1,0,0,0,0,0,15,15,15,,,,,,,,,,,,,,,,,,,,,,,,,,,,,,,,,,,,,,,,,,,,,,,,,,,,,,,,,,,,,,,,,,,,,,,,,,,,,,,1.68,359.1123393,None,space,1,0.1727567,360.8944242,None,360.8944242,None,360.8944242,None,,,,,,,,,,,P004,fencog,1,Post,2021_Jul_16_1128,Go No-Go Task,2021.1.4,119.943051
,"Rule: When you see a yellow image, do not press 'spacebar'.",Images/Fearful/AF09AFS.jpg,Fear,Yellow,Images/Yellow.jpg,None,ParentConditions/YellowYellowBlue_v1.xlsx,YellowYellowBlue,Conditions/Version_1/YellowFearStop.xlsx,yes,PASS,0.44980257,,,,,,,,,0,0,0,1,0,0,0,0,0,16,16,16,,,,,,,,,,,,,,,,,,,,,,,,,,,,,,,,,,,,,,,,,,,,,,,,,,,,,,,,,,,,,,,,,,,,,,,,,,,,,,,1.74,361.2971452,None,None,1,,363.1438189,None,363.1438189,None,363.1438189,None,,,,,,,,,,,P004,fencog,1,Post,2021_Jul_16_1128,Go No-Go Task,2021.1.4,119.943051
,"Rule: When you see a yellow image, do not press 'spacebar'.",Images/Fearful/BF05_FO.jpg,Fear,Yellow,Images/Yellow.jpg,None,ParentConditions/YellowYellowBlue_v1.xlsx,YellowYellowBlue,Conditions/Version_1/YellowFearStop.xlsx,yes,PASS,0.908002058,,,,,,,,,0,0,0,1,0,0,0,0,0,17,17,17,,,,,,,,,,,,,,,,,,,,,,,,,,,,,,,,,,,,,,,,,,,,,,,,,,,,,,,,,,,,,,,,,,,,,,,,,,,,,,,1.27,363.5443182,None,space,0,0.2294953,364.9182337,None,364.9182337,None,364.9182337,None,,,,,,,,,,,P004,fencog,1,Post,2021_Jul_16_1128,Go No-Go Task,2021.1.4,119.943051
,"Rule: When you see a yellow image, do not press 'spacebar'.",Images/Happy/AM24HAS.jpg,Happy,Blue,Images/Blue.jpg,space,ParentConditions/YellowYellowBlue_v1.xlsx,YellowYellowBlue,Conditions/Version_1/YellowFearStop.xlsx,no,PASS,0.922071682,,,,,,,,,0,0,0,1,0,0,0,0,0,18,18,18,,,,,,,,,,,,,,,,,,,,,,,,,,,,,,,,,,,,,,,,,,,,,,,,,,,,,,,,,,,,,,,,,,,,,,,,,,,,,,,1.71,365.3290044,None,space,1,0.2534264,367.1425818,None,367.1425818,None,367.1425818,None,,,,,,,,,,,P004,fencog,1,Post,2021_Jul_16_1128,Go No-Go Task,2021.1.4,119.943051
,"Rule: When you see a yellow image, do not press 'spacebar'.",Images/Fearful/AF11AFS.jpg,Fear,Yellow,Images/Yellow.jpg,None,ParentConditions/YellowYellowBlue_v1.xlsx,YellowYellowBlue,Conditions/Version_1/YellowFearStop.xlsx,yes,PASS,0.947335264,,,,,,,,,0,0,0,1,0,0,0,0,0,19,19,19,,,,,,,,,,,,,,,,,,,,,,,,,,,,,,,,,,,,,,,,,,,,,,,,,,,,,,,,,,,,,,,,,,,,,,,,,,,,,,,1.47,367.5433315,None,None,1,,369.1086557,None,369.1086557,None,369.1086557,None,,,,,,,,,,,P004,fencog,1,Post,2021_Jul_16_1128,Go No-Go Task,2021.1.4,119.943051
,"Rule: When you see a yellow image, do not press 'spacebar'.",Images/Happy/AF01_HE.jpg,Happy,Blue,Images/Blue.jpg,space,ParentConditions/YellowYellowBlue_v1.xlsx,YellowYellowBlue,Conditions/Version_1/YellowFearStop.xlsx,no,PASS,0.97589007,,,,,,,,,0,0,0,1,0,0,0,0,0,20,20,20,,,,,,,,,,,,,,,,,,,,,,,,,,,,,,,,,,,,,,,,,,,,,,,,,,,,,,,,,,,,,,,,,,,,,,,,,,,,,,,1.98,369.509914,None,space,1,0.251744,371.5912777,None,371.5912777,None,371.5912777,None,,,,,,,,,,,P004,fencog,1,Post,2021_Jul_16_1128,Go No-Go Task,2021.1.4,119.943051
,"Rule: When you see a yellow image, do not press 'spacebar'.",Images/Happy/AM10_HO.jpg,Happy,Blue,Images/Blue.jpg,space,ParentConditions/YellowYellowBlue_v1.xlsx,YellowYellowBlue,Conditions/Version_1/YellowFearStop.xlsx,no,PASS,0.063235566,,,,,,,,,0,0,0,1,0,0,0,0,0,21,21,21,,,,,,,,,,,,,,,,,,,,,,,,,,,,,,,,,,,,,,,,,,,,,,,,,,,,,,,,,,,,,,,,,,,,,,,,,,,,,,,1.51,371.9976812,None,space,1,0.3238668,373.6156653,None,373.6156653,None,373.6156653,None,,,,,,,,,,,P004,fencog,1,Post,2021_Jul_16_1128,Go No-Go Task,2021.1.4,119.943051
,"Rule: When you see a yellow image, do not press 'spacebar'.",Images/Happy/AF09HAS.jpg,Happy,Blue,Images/Blue.jpg,space,ParentConditions/YellowYellowBlue_v1.xlsx,YellowYellowBlue,Conditions/Version_1/YellowFearStop.xlsx,no,PASS,0.69621759,,,,,,,,,0,0,0,1,0,0,0,0,0,22,22,22,,,,,,,,,,,,,,,,,,,,,,,,,,,,,,,,,,,,,,,,,,,,,,,,,,,,,,,,,,,,,,,,,,,,,,,,,,,,,,,1.35,374.0243433,None,space,1,0.2736093,375.4818189,None,375.4818189,None,375.4818189,None,,,,,,,,,,,P004,fencog,1,Post,2021_Jul_16_1128,Go No-Go Task,2021.1.4,119.943051
,"Rule: When you see a yellow image, do not press 'spacebar'.",Images/Happy/BM02_HO.jpg,Happy,Blue,Images/Blue.jpg,space,ParentConditions/YellowYellowBlue_v1.xlsx,YellowYellowBlue,Conditions/Version_1/YellowFearStop.xlsx,no,PASS,0.396113477,,,,,,,,,0,0,0,1,0,0,0,0,0,23,23,23,,,,,,,,,,,,,,,,,,,,,,,,,,,,,,,,,,,,,,,,,,,,,,,,,,,,,,,,,,,,,,,,,,,,,,,,,,,,,,,1.97,375.8874808,None,space,1,0.2881522,377.9560403,None,377.9560403,None,377.9560403,None,,,,,,,,,,,P004,fencog,1,Post,2021_Jul_16_1128,Go No-Go Task,2021.1.4,119.943051
,"Rule: When you see a yellow image, do not press 'spacebar'.",Images/Happy/AM09_HE.jpg,Happy,Blue,Images/Blue.jpg,space,ParentConditions/YellowYellowBlue_v1.xlsx,YellowYellowBlue,Conditions/Version_1/YellowFearStop.xlsx,no,PASS,0.077579477,,,,,,,,,0,0,0,1,0,0,0,0,0,24,24,24,,,,,,,,,,,,,,,,,,,,,,,,,,,,,,,,,,,,,,,,,,,,,,,,,,,,,,,,,,,,,,,,,,,,,,,,,,,,,,,1.39,378.3623926,None,space,1,0.2923201,379.8554766,None,379.8554766,None,379.8554766,None,,,,,,,,,,,P004,fencog,1,Post,2021_Jul_16_1128,Go No-Go Task,2021.1.4,119.943051
,"Rule: When you see a yellow image, do not press 'spacebar'.",Images/Happy/AF10_HE.jpg,Happy,Blue,Images/Blue.jpg,space,ParentConditions/YellowYellowBlue_v1.xlsx,YellowYellowBlue,Conditions/Version_1/YellowFearStop.xlsx,no,PASS,0.031738248,,,,,,,,,0,0,0,1,0,0,0,0,0,25,25,25,,,,,,,,,,,,,,,,,,,,,,,,,,,,,,,,,,,,,,,,,,,,,,,,,,,,,,,,,,,,,,,,,,,,,,,,,,,,,,,1.73,380.2553396,None,space,1,0.3633134,382.0882551,None,382.0882551,None,382.0882551,None,,,,,,,,,,,P004,fencog,1,Post,2021_Jul_16_1128,Go No-Go Task,2021.1.4,119.943051
,"Rule: When you see a yellow image, do not press 'spacebar'.",Images/Happy/BM01_HO.jpg,Happy,Blue,Images/Blue.jpg,space,ParentConditions/YellowYellowBlue_v1.xlsx,YellowYellowBlue,Conditions/Version_1/YellowFearStop.xlsx,no,PASS,0.523683635,,,,,,,,,0,0,0,1,0,0,0,0,0,26,26,26,,,,,,,,,,,,,,,,,,,,,,,,,,,,,,,,,,,,,,,,,,,,,,,,,,,,,,,,,,,,,,,,,,,,,,,,,,,,,,,1.53,382.4921758,None,space,1,0.3141851,384.1292706,None,384.1292706,None,384.1292706,None,,,,,,,,,,,P004,fencog,1,Post,2021_Jul_16_1128,Go No-Go Task,2021.1.4,119.943051
,"Rule: When you see a yellow image, do not press 'spacebar'.",Images/Fearful/AF07_FO.jpg,Fear,Yellow,Images/Yellow.jpg,None,ParentConditions/YellowYellowBlue_v1.xlsx,YellowYellowBlue,Conditions/Version_1/YellowFearStop.xlsx,yes,PASS,0.054604097,,,,,,,,,0,0,0,1,0,0,0,0,0,27,27,27,,,,,,,,,,,,,,,,,,,,,,,,,,,,,,,,,,,,,,,,,,,,,,,,,,,,,,,,,,,,,,,,,,,,,,,,,,,,,,,1.4,384.5292099,None,None,1,,386.0286266,None,386.0286266,None,386.0286266,None,,,,,,,,,,,P004,fencog,1,Post,2021_Jul_16_1128,Go No-Go Task,2021.1.4,119.943051
,"Rule: When you see a yellow image, do not press 'spacebar'.",Images/Happy/BF18_HO.jpg,Happy,Blue,Images/Blue.jpg,space,ParentConditions/YellowYellowBlue_v1.xlsx,YellowYellowBlue,Conditions/Version_1/YellowFearStop.xlsx,no,PASS,0.725547291,,,,,,,,,0,0,0,1,0,0,0,0,0,28,28,28,,,,,,,,,,,,,,,,,,,,,,,,,,,,,,,,,,,,,,,,,,,,,,,,,,,,,,,,,,,,,,,,,,,,,,,,,,,,,,,1.52,386.4288269,None,space,1,0.2226168,388.0531664,None,388.0531664,None,388.0531664,None,,,,,,,,,,,P004,fencog,1,Post,2021_Jul_16_1128,Go No-Go Task,2021.1.4,119.943051
,"Rule: When you see a yellow image, do not press 'spacebar'.",Images/Happy/AM03HAS.jpg,Happy,Blue,Images/Blue.jpg,space,ParentConditions/YellowYellowBlue_v1.xlsx,YellowYellowBlue,Conditions/Version_1/YellowFearStop.xlsx,no,PASS,0.253179684,,,,,,,,,0,0,0,1,0,0,0,0,0,29,29,29,,,,,,,,,,,,,,,,,,,,,,,,,,,,,,,,,,,,,,,,,,,,,,,,,,,,,,,,,,,,,,,,,,,,,,,,,,,,,,,1.55,388.4529266,None,space,1,0.3009972,390.1194623,None,390.1194623,None,390.1194623,None,,,,,,,,,,,P004,fencog,1,Post,2021_Jul_16_1128,Go No-Go Task,2021.1.4,119.943051
,"Rule: When you see a yellow image, do not press 'spacebar'.",Images/Happy/BF10_HO.jpg,Happy,Blue,Images/Blue.jpg,space,ParentConditions/YellowYellowBlue_v1.xlsx,YellowYellowBlue,Conditions/Version_1/YellowFearStop.xlsx,no,PASS,0.497783974,,,,,,,,,0,0,0,1,0,0,0,0,0,30,30,30,,,,,,,,,,,,,,,,,,,,,,,,,,,,,,,,,,,,,,,,,,,,,,,,,,,,,,,,,,,,,,,,,,,,,,,,,,,,,,,1.66,390.5207055,None,space,1,0.2143629,392.2851561,None,392.2851561,None,392.2851561,None,,,,,,,,,,,P004,fencog,1,Post,2021_Jul_16_1128,Go No-Go Task,2021.1.4,119.943051
,"Rule: When you see a yellow image, do not press 'spacebar'.",Images/Happy/BF07_HO.jpg,Happy,Blue,Images/Blue.jpg,space,ParentConditions/YellowYellowBlue_v1.xlsx,YellowYellowBlue,Conditions/Version_1/YellowFearStop.xlsx,no,PASS,0.823093167,,,,,,,,,0,0,0,1,0,0,0,0,0,31,31,31,,,,,,,,,,,,,,,,,,,,,,,,,,,,,,,,,,,,,,,,,,,,,,,,,,,,,,,,,,,,,,,,,,,,,,,,,,,,,,,1.78,392.6858528,None,space,1,0.3006286,394.5595433,None,394.5595433,None,394.5595433,None,,,,,,,,,,,P004,fencog,1,Post,2021_Jul_16_1128,Go No-Go Task,2021.1.4,119.943051
,"Rule: When you see a yellow image, do not press 'spacebar'.",Images/Fearful/BF07_FO.jpg,Fear,Yellow,Images/Yellow.jpg,None,ParentConditions/YellowYellowBlue_v1.xlsx,YellowYellowBlue,Conditions/Version_1/YellowFearStop.xlsx,yes,PASS,0.211940988,,,,,,,,,0,0,0,1,0,0,0,0,0,32,32,32,,,,,,,,,,,,,,,,,,,,,,,,,,,,,,,,,,,,,,,,,,,,,,,,,,,,,,,,,,,,,,,,,,,,,,,,,,,,,,,1.63,394.9657079,None,None,1,,396.7004978,None,396.7004978,None,396.7004978,None,,,,,,,,,,,P004,fencog,1,Post,2021_Jul_16_1128,Go No-Go Task,2021.1.4,119.943051
,"Rule: When you see a yellow image, do not press 'spacebar'.",Images/Happy/WF04_HC.jpg,Happy,Blue,Images/Blue.jpg,space,ParentConditions/YellowYellowBlue_v1.xlsx,YellowYellowBlue,Conditions/Version_1/YellowFearStop.xlsx,no,PASS,0.262296129,,,,,,,,,0,0,0,1,0,0,0,0,0,33,33,33,,,,,,,,,,,,,,,,,,,,,,,,,,,,,,,,,,,,,,,,,,,,,,,,,,,,,,,,,,,,,,,,,,,,,,,,,,,,,,,1.38,397.1044776,None,space,1,0.2517588,398.5999592,None,398.5999592,None,398.5999592,None,,,,,,,,,,,P004,fencog,1,Post,2021_Jul_16_1128,Go No-Go Task,2021.1.4,119.943051
,"Rule: When you see a yellow image, do not press 'spacebar'.",Images/Happy/AM23HAS.jpg,Happy,Blue,Images/Blue.jpg,space,ParentConditions/YellowYellowBlue_v1.xlsx,YellowYellowBlue,Conditions/Version_1/YellowFearStop.xlsx,no,PASS,0.65530777,,,,,,,,,0,0,0,1,0,0,0,0,0,34,34,34,,,,,,,,,,,,,,,,,,,,,,,,,,,,,,,,,,,,,,,,,,,,,,,,,,,,,,,,,,,,,,,,,,,,,,,,,,,,,,,1.91,398.9987985,None,space,1,0.1877977,401.0159003,None,401.0159003,None,401.0159003,None,,,,,,,,,,,P004,fencog,1,Post,2021_Jul_16_1128,Go No-Go Task,2021.1.4,119.943051
,"Rule: When you see a yellow image, do not press 'spacebar'.",Images/Happy/AM09HAS.jpg,Happy,Blue,Images/Blue.jpg,space,ParentConditions/YellowYellowBlue_v1.xlsx,YellowYellowBlue,Conditions/Version_1/YellowFearStop.xlsx,no,PASS,0.379245172,,,,,,,,,0,0,0,1,0,0,0,0,0,35,35,35,,,,,,,,,,,,,,,,,,,,,,,,,,,,,,,,,,,,,,,,,,,,,,,,,,,,,,,,,,,,,,,,,,,,,,,,,,,,,,,1.31,401.4149496,None,space,1,0.2276941,402.8320298,None,402.8320298,None,402.8320298,None,,,,,,,,,,,P004,fencog,1,Post,2021_Jul_16_1128,Go No-Go Task,2021.1.4,119.943051
,"Rule: When you see a yellow image, do not press 'spacebar'.",Images/Happy/AM10HAS.jpg,Happy,Blue,Images/Blue.jpg,space,ParentConditions/YellowYellowBlue_v1.xlsx,YellowYellowBlue,Conditions/Version_1/YellowFearStop.xlsx,no,PASS,0.97815503,,,,,,,,,0,0,0,1,0,0,0,0,0,36,36,36,,,,,,,,,,,,,,,,,,,,,,,,,,,,,,,,,,,,,,,,,,,,,,,,,,,,,,,,,,,,,,,,,,,,,,,,,,,,,,,1.94,403.2327886,None,space,1,0.202665,405.2729324,None,405.2729324,None,405.2729324,None,,,,,,,,,,,P004,fencog,1,Post,2021_Jul_16_1128,Go No-Go Task,2021.1.4,119.943051
,"Rule: When you see a yellow image, do not press 'spacebar'.",Images/Happy/AF07HAS.jpg,Happy,Blue,Images/Blue.jpg,space,ParentConditions/YellowYellowBlue_v1.xlsx,YellowYellowBlue,Conditions/Version_1/YellowFearStop.xlsx,no,PASS,0.982771062,,,,,,,,,0,0,0,1,0,0,0,0,0,37,37,37,,,,,,,,,,,,,,,,,,,,,,,,,,,,,,,,,,,,,,,,,,,,,,,,,,,,,,,,,,,,,,,,,,,,,,,,,,,,,,,1.89,405.6810207,None,space,1,0.2833094,407.680497,None,407.680497,None,407.680497,None,,,,,,,,,,,P004,fencog,1,Post,2021_Jul_16_1128,Go No-Go Task,2021.1.4,119.943051
,"Rule: When you see a yellow image, do not press 'spacebar'.",Images/Happy/AM03_HO.jpg,Happy,Blue,Images/Blue.jpg,space,ParentConditions/YellowYellowBlue_v1.xlsx,YellowYellowBlue,Conditions/Version_1/YellowFearStop.xlsx,no,PASS,0.696088357,,,,,,,,,0,0,0,1,0,0,0,0,0,38,38,38,,,,,,,,,,,,,,,,,,,,,,,,,,,,,,,,,,,,,,,,,,,,,,,,,,,,,,,,,,,,,,,,,,,,,,,,,,,,,,,1.59,408.0798043,None,space,1,0.1849355,409.7717522,None,409.7717522,None,409.7717522,None,,,,,,,,,,,P004,fencog,1,Post,2021_Jul_16_1128,Go No-Go Task,2021.1.4,119.943051
,"Rule: When you see a yellow image, do not press 'spacebar'.",Images/Happy/AM05HAS.jpg,Happy,Blue,Images/Blue.jpg,space,ParentConditions/YellowYellowBlue_v1.xlsx,YellowYellowBlue,Conditions/Version_1/YellowFearStop.xlsx,no,PASS,0.8897548,,,,,,,,,0,0,0,1,0,0,0,0,0,39,39,39,,,,,,,,,,,,,,,,,,,,,,,,,,,,,,,,,,,,,,,,,,,,,,,,,,,,,,,,,,,,,,,,,,,,,,,,,,,,,,,1.76,410.1722151,None,space,1,0.2138804,412.0376439,None,412.0376439,None,412.0376439,None,,,,,,,,,,,P004,fencog,1,Post,2021_Jul_16_1128,Go No-Go Task,2021.1.4,119.943051
,"Rule: When you see a yellow image, do not press 'spacebar'.",Images/Happy/AF02HAS.jpg,Happy,Blue,Images/Blue.jpg,space,ParentConditions/YellowYellowBlue_v1.xlsx,YellowYellowBlue,Conditions/Version_1/YellowFearStop.xlsx,no,PASS,0.253765998,,,,,,,,,0,0,0,1,0,0,0,0,0,40,40,40,,,,,,,,,,,,,,,,,,,,,,,,,,,,,,,,,,,,,,,,,,,,,,,,,,,,,,,,,,,,,,,,,,,,,,,,,,,,,,,1.79,412.4446625,None,space,1,0.1631244,414.3369963,None,414.3369963,None,414.3369963,None,,,,,,,,,,,P004,fencog,1,Post,2021_Jul_16_1128,Go No-Go Task,2021.1.4,119.943051
,"Rule: When you see a yellow image, do not press 'spacebar'.",Images/Happy/BM08_HO.jpg,Happy,Blue,Images/Blue.jpg,space,ParentConditions/YellowYellowBlue_v1.xlsx,YellowYellowBlue,Conditions/Version_1/YellowFearStop.xlsx,no,PASS,0.999289281,,,,,,,,,0,0,0,1,0,0,0,0,0,41,41,41,,,,,,,,,,,,,,,,,,,,,,,,,,,,,,,,,,,,,,,,,,,,,,,,,,,,,,,,,,,,,,,,,,,,,,,,,,,,,,,1.56,414.7470408,None,space,1,0.1758994,416.4113373,None,416.4113373,None,416.4113373,None,,,,,,,,,,,P004,fencog,1,Post,2021_Jul_16_1128,Go No-Go Task,2021.1.4,119.943051
,"Rule: When you see a yellow image, do not press 'spacebar'.",Images/Happy/AM22HAS.jpg,Happy,Blue,Images/Blue.jpg,space,ParentConditions/YellowYellowBlue_v1.xlsx,YellowYellowBlue,Conditions/Version_1/YellowFearStop.xlsx,no,PASS,0.324368893,,,,,,,,,0,0,0,1,0,0,0,0,0,42,42,42,,,,,,,,,,,,,,,,,,,,,,,,,,,,,,,,,,,,,,,,,,,,,,,,,,,,,,,,,,,,,,,,,,,,,,,,,,,,,,,1.36,416.8152701,None,space,1,0.269836,418.2775754,None,418.2775754,None,418.2775754,None,,,,,,,,,,,P004,fencog,1,Post,2021_Jul_16_1128,Go No-Go Task,2021.1.4,119.943051
,"Rule: When you see a yellow image, do not press 'spacebar'.",Images/Happy/AM30HAS.jpg,Happy,Blue,Images/Blue.jpg,space,ParentConditions/YellowYellowBlue_v1.xlsx,YellowYellowBlue,Conditions/Version_1/YellowFearStop.xlsx,no,PASS,0.632974901,,,,,,,,,0,0,0,1,0,0,0,0,0,43,43,43,,,,,,,,,,,,,,,,,,,,,,,,,,,,,,,,,,,,,,,,,,,,,,,,,,,,,,,,,,,,,,,,,,,,,,,,,,,,,,,1.8,418.6764304,None,space,1,0.3635983,420.5767751,None,420.5767751,None,420.5767751,None,,,,,,,,,,,P004,fencog,1,Post,2021_Jul_16_1128,Go No-Go Task,2021.1.4,119.943051
,"Rule: When you see a yellow image, do not press 'spacebar'.",Images/Fearful/BF09_FC.jpg,Fear,Yellow,Images/Yellow.jpg,None,ParentConditions/YellowYellowBlue_v1.xlsx,YellowYellowBlue,Conditions/Version_1/YellowFearStop.xlsx,yes,PASS,0.849066623,,,,,,,,,0,0,0,1,0,0,0,0,0,44,44,44,,,,,,,,,,,,,,,,,,,,,,,,,,,,,,,,,,,,,,,,,,,,,,,,,,,,,,,,,,,,,,,,,,,,,,,,,,,,,,,1.67,420.9856783,None,None,1,,422.7511569,None,422.7511569,None,422.7511569,None,,,,,,,,,,,P004,fencog,1,Post,2021_Jul_16_1128,Go No-Go Task,2021.1.4,119.943051
,"Rule: When you see a yellow image, do not press 'spacebar'.",Images/Happy/WM12_HE.jpg,Happy,Blue,Images/Blue.jpg,space,ParentConditions/YellowYellowBlue_v1.xlsx,YellowYellowBlue,Conditions/Version_1/YellowFearStop.xlsx,no,PASS,0.119290995,,,,,,,,,0,0,0,1,0,0,0,0,0,45,45,45,,,,,,,,,,,,,,,,,,,,,,,,,,,,,,,,,,,,,,,,,,,,,,,,,,,,,,,,,,,,,,,,,,,,,,,,,,,,,,,2,423.1631938,None,space,1,0.2327273,425.2671177,None,425.2671177,None,425.2671177,None,,,,,,,,,,,P004,fencog,1,Post,2021_Jul_16_1128,Go No-Go Task,2021.1.4,119.943051
,"Rule: When you see a yellow image, do not press 'spacebar'.",Images/Happy/HF10_HE.jpg,Happy,Blue,Images/Blue.jpg,space,ParentConditions/YellowYellowBlue_v1.xlsx,YellowYellowBlue,Conditions/Version_1/YellowFearStop.xlsx,no,PASS,0.835696517,,,,,,,,,0,0,0,1,0,0,0,0,0,46,46,46,,,,,,,,,,,,,,,,,,,,,,,,,,,,,,,,,,,,,,,,,,,,,,,,,,,,,,,,,,,,,,,,,,,,,,,,,,,,,,,1.61,425.6680196,None,space,1,0.2842882,427.3830949,None,427.3830949,None,427.3830949,None,,,,,,,,,,,P004,fencog,1,Post,2021_Jul_16_1128,Go No-Go Task,2021.1.4,119.943051
,"Rule: When you see a yellow image, do not press 'spacebar'.",Images/Happy/HM09_HO.jpg,Happy,Blue,Images/Blue.jpg,space,ParentConditions/YellowYellowBlue_v1.xlsx,YellowYellowBlue,Conditions/Version_1/YellowFearStop.xlsx,no,PASS,0.806158044,,,,,,,,,0,0,0,1,0,0,0,0,0,47,47,47,,,,,,,,,,,,,,,,,,,,,,,,,,,,,,,,,,,,,,,,,,,,,,,,,,,,,,,,,,,,,,,,,,,,,,,,,,,,,,,1.72,427.7833202,None,space,1,0.236351,429.5991599,None,429.5991599,None,429.5991599,None,,,,,,,,,,,P004,fencog,1,Post,2021_Jul_16_1128,Go No-Go Task,2021.1.4,119.943051
,"Rule: When you see a yellow image, do not press 'spacebar'.",Images/Fearful/AM03_FC.jpg,Fear,Yellow,Images/Yellow.jpg,None,ParentConditions/YellowYellowBlue_v1.xlsx,YellowYellowBlue,Conditions/Version_1/YellowFearStop.xlsx,yes,PASS,0.148465679,,,,,,,,,0,0,0,1,0,0,0,0,0,48,48,48,,,,,,,,,,,,,,,,,,,,,,,,,,,,,,,,,,,,,,,,,,,,,,,,,,,,,,,,,,,,,,,,,,,,,,,,,,,,,,,1.49,429.9984934,None,space,0,0.2049186,431.5902599,None,431.5902599,None,431.5902599,None,,,,,,,,,,,P004,fencog,1,Post,2021_Jul_16_1128,Go No-Go Task,2021.1.4,119.943051
,"Rule: When you see a yellow image, do not press 'spacebar'.",Images/Happy/HF04_HE.jpg,Happy,Blue,Images/Blue.jpg,space,ParentConditions/YellowYellowBlue_v1.xlsx,YellowYellowBlue,Conditions/Version_1/YellowFearStop.xlsx,no,PASS,0.493401324,,,,,,,,,0,0,0,1,0,0,0,0,0,49,49,49,,,,,,,,,,,,,,,,,,,,,,,,,,,,,,,,,,,,,,,,,,,,,,,,,,,,,,,,,,,,,,,,,,,,,,,,,,,,,,,1.86,431.9912485,None,space,1,0.2563839,433.9562499,None,433.9562499,None,433.9562499,None,,,,,,,,,,,P004,fencog,1,Post,2021_Jul_16_1128,Go No-Go Task,2021.1.4,119.943051
,"Rule: When you see a yellow image, do not press 'spacebar'.",Images/Happy/AM17HAS.jpg,Happy,Blue,Images/Blue.jpg,space,ParentConditions/YellowYellowBlue_v1.xlsx,YellowYellowBlue,Conditions/Version_1/YellowFearStop.xlsx,no,PASS,0.470539973,,,,,,,,,0,0,0,1,0,0,0,0,0,50,50,50,,,,,,,,,,,,,,,,,,,,,,,,,,,,,,,,,,,,,,,,,,,,,,,,,,,,,,,,,,,,,,,,,,,,,,,,,,,,,,,1.44,434.3561324,None,space,1,0.274182,435.8973187,None,435.8973187,None,435.8973187,None,,,,,,,,,,,P004,fencog,1,Post,2021_Jul_16_1128,Go No-Go Task,2021.1.4,119.943051
,"Rule: When you see a yellow image, do not press 'spacebar'.",Images/Fearful/BM01_FO.jpg,Fear,Yellow,Images/Yellow.jpg,None,ParentConditions/YellowYellowBlue_v1.xlsx,YellowYellowBlue,Conditions/Version_1/YellowFearStop.xlsx,yes,PASS,0.313471747,,,,,,,,,0,0,0,1,0,0,0,0,0,51,51,51,,,,,,,,,,,,,,,,,,,,,,,,,,,,,,,,,,,,,,,,,,,,,,,,,,,,,,,,,,,,,,,,,,,,,,,,,,,,,,,1.54,436.2968242,None,space,0,0.2729293,437.9383053,None,437.9383053,None,437.9383053,None,,,,,,,,,,,P004,fencog,1,Post,2021_Jul_16_1128,Go No-Go Task,2021.1.4,119.943051
,"Rule: When you see a yellow image, do not press 'spacebar'.",Images/Happy/HF09_HE.jpg,Happy,Blue,Images/Blue.jpg,space,ParentConditions/YellowYellowBlue_v1.xlsx,YellowYellowBlue,Conditions/Version_1/YellowFearStop.xlsx,no,PASS,0.012739972,,,,,,,,,0,0,0,1,0,0,0,0,0,52,52,52,,,,,,,,,,,,,,,,,,,,,,,,,,,,,,,,,,,,,,,,,,,,,,,,,,,,,,,,,,,,,,,,,,,,,,,,,,,,,,,1.92,438.3438755,None,space,1,0.2405613,440.3709142,None,440.3709142,None,440.3709142,None,,,,,,,,,,,P004,fencog,1,Post,2021_Jul_16_1128,Go No-Go Task,2021.1.4,119.943051
,"Rule: When you see a yellow image, do not press 'spacebar'.",Images/Happy/WF11_HE.jpg,Happy,Blue,Images/Blue.jpg,space,ParentConditions/YellowYellowBlue_v1.xlsx,YellowYellowBlue,Conditions/Version_1/YellowFearStop.xlsx,no,PASS,0.512809715,,,,,,,,,0,0,0,1,0,0,0,0,0,53,53,53,,,,,,,,,,,,,,,,,,,,,,,,,,,,,,,,,,,,,,,,,,,,,,,,,,,,,,,,,,,,,,,,,,,,,,,,,,,,,,,1.2,440.7779615,None,space,1,0.2691579,442.0787977,None,442.0787977,None,442.0787977,None,,,,,,,,,,,P004,fencog,1,Post,2021_Jul_16_1128,Go No-Go Task,2021.1.4,119.943051
,"Rule: When you see a yellow image, do not press 'spacebar'.",Images/Fearful/AM04AFS.jpg,Fear,Yellow,Images/Yellow.jpg,None,ParentConditions/YellowYellowBlue_v1.xlsx,YellowYellowBlue,Conditions/Version_1/YellowFearStop.xlsx,yes,PASS,0.480810801,,,,,,,,,0,0,0,1,0,0,0,0,0,54,54,54,,,,,,,,,,,,,,,,,,,,,,,,,,,,,,,,,,,,,,,,,,,,,,,,,,,,,,,,,,,,,,,,,,,,,,,,,,,,,,,1.58,442.4839786,None,space,0,0.233209,444.1783132,None,444.1783132,None,444.1783132,None,,,,,,,,,,,P004,fencog,1,Post,2021_Jul_16_1128,Go No-Go Task,2021.1.4,119.943051
,"Rule: When you see a yellow image, do not press 'spacebar'.",Images/Happy/AF19HAS.jpg,Happy,Blue,Images/Blue.jpg,space,ParentConditions/YellowYellowBlue_v1.xlsx,YellowYellowBlue,Conditions/Version_1/YellowFearStop.xlsx,no,PASS,0.325214701,,,,,,,,,0,0,0,1,0,0,0,0,0,55,55,55,,,,,,,,,,,,,,,,,,,,,,,,,,,,,,,,,,,,,,,,,,,,,,,,,,,,,,,,,,,,,,,,,,,,,,,,,,,,,,,1.34,444.5770648,None,space,1,0.216785,446.0192718,None,446.0192718,None,446.0192718,None,,,,,,,,,,,P004,fencog,1,Post,2021_Jul_16_1128,Go No-Go Task,2021.1.4,119.943051
,"Rule: When you see a yellow image, do not press 'spacebar'.",Images/Happy/HM06_HO.jpg,Happy,Blue,Images/Blue.jpg,space,ParentConditions/YellowYellowBlue_v1.xlsx,YellowYellowBlue,Conditions/Version_1/YellowFearStop.xlsx,no,PASS,0.328233749,,,,,,,,,0,0,0,1,0,0,0,0,0,56,56,56,,,,,,,,,,,,,,,,,,,,,,,,,,,,,,,,,,,,,,,,,,,,,,,,,,,,,,,,,,,,,,,,,,,,,,,,,,,,,,,1.83,446.4184636,None,space,1,0.3311592,448.3603297,None,448.3603297,None,448.3603297,None,,,,,,,,,,,P004,fencog,1,Post,2021_Jul_16_1128,Go No-Go Task,2021.1.4,119.943051
,"Rule: When you see a yellow image, do not press 'spacebar'.",Images/Happy/HF05_HO.jpg,Happy,Blue,Images/Blue.jpg,space,ParentConditions/YellowYellowBlue_v1.xlsx,YellowYellowBlue,Conditions/Version_1/YellowFearStop.xlsx,no,PASS,0.583339171,,,,,,,,,0,0,0,1,0,0,0,0,0,57,57,57,,,,,,,,,,,,,,,,,,,,,,,,,,,,,,,,,,,,,,,,,,,,,,,,,,,,,,,,,,,,,,,,,,,,,,,,,,,,,,,1.25,448.7593776,None,space,1,0.3101377,450.10971,None,450.10971,None,450.10971,None,,,,,,,,,,,P004,fencog,1,Post,2021_Jul_16_1128,Go No-Go Task,2021.1.4,119.943051
,"Rule: When you see a yellow image, do not press 'spacebar'.",Images/Fearful/AF01_FO.jpg,Fear,Yellow,Images/Yellow.jpg,None,ParentConditions/YellowYellowBlue_v1.xlsx,YellowYellowBlue,Conditions/Version_1/YellowFearStop.xlsx,yes,PASS,0.303490073,,,,,,,,,0,0,0,1,0,0,0,0,0,58,58,58,,,,,,,,,,,,,,,,,,,,,,,,,,,,,,,,,,,,,,,,,,,,,,,,,,,,,,,,,,,,,,,,,,,,,,,,,,,,,,,1.82,450.5117778,None,space,0,0.2653979,452.4340718,None,452.4340718,None,452.4340718,None,,,,,,,,,,,P004,fencog,1,Post,2021_Jul_16_1128,Go No-Go Task,2021.1.4,119.943051
,"Rule: When you see a yellow image, do not press 'spacebar'.",Images/Happy/AF21HAS.jpg,Happy,Blue,Images/Blue.jpg,space,ParentConditions/YellowYellowBlue_v1.xlsx,YellowYellowBlue,Conditions/Version_1/YellowFearStop.xlsx,no,PASS,0.979970213,,,,,,,,,0,0,0,1,0,0,0,0,0,59,59,59,,,,,,,,,,,,,,,,,,,,,,,,,,,,,,,,,,,,,,,,,,,,,,,,,,,,,,,,,,,,,,,,,,,,,,,,,,,,,,,1.45,452.8344717,None,space,1,0.2038771,454.3918337,None,454.3918337,None,454.3918337,None,,,,,,,,,,,P004,fencog,1,Post,2021_Jul_16_1128,Go No-Go Task,2021.1.4,119.943051
,"Rule: When you see a yellow image, do not press 'spacebar'.",Images/Happy/AM06_HC.jpg,Happy,Blue,Images/Blue.jpg,space,ParentConditions/YellowYellowBlue_v1.xlsx,YellowYellowBlue,Conditions/Version_1/YellowFearStop.xlsx,no,PASS,0.298164274,,,,,,,,,0,0,0,1,0,0,0,0,0,60,60,60,,,,,,,,,,,,,,,,,,,,,,,,,,,,,,,,,,,,,,,,,,,,,,,,,,,,,,,,,,,,,,,,,,,,,,,,,,,,,,,1.21,454.7921354,None,space,1,0.3518179,456.09962,None,456.09962,None,456.09962,None,,,,,,,,,,,P004,fencog,1,Post,2021_Jul_16_1128,Go No-Go Task,2021.1.4,119.943051
,"Rule: When you see a yellow image, do not press 'spacebar'.",Images/Fearful/AF02AFS.jpg,Fear,Yellow,Images/Yellow.jpg,None,ParentConditions/YellowYellowBlue_v1.xlsx,YellowYellowBlue,Conditions/Version_1/YellowFearStop.xlsx,yes,PASS,0.155825205,,,,,,,,,0,0,0,1,0,0,0,0,0,61,61,61,,,,,,,,,,,,,,,,,,,,,,,,,,,,,,,,,,,,,,,,,,,,,,,,,,,,,,,,,,,,,,,,,,,,,,,,,,,,,,,1.43,456.4990547,None,None,1,,458.0323498,None,458.0323498,None,458.0323498,None,,,,,,,,,,,P004,fencog,1,Post,2021_Jul_16_1128,Go No-Go Task,2021.1.4,119.943051
,"Rule: When you see a yellow image, do not press 'spacebar'.",Images/Happy/AF25HAS.jpg,Happy,Blue,Images/Blue.jpg,space,ParentConditions/YellowYellowBlue_v1.xlsx,YellowYellowBlue,Conditions/Version_1/YellowFearStop.xlsx,no,PASS,0.796365343,,,,,,,,,0,0,0,1,0,0,0,0,0,62,62,62,,,,,,,,,,,,,,,,,,,,,,,,,,,,,,,,,,,,,,,,,,,,,,,,,,,,,,,,,,,,,,,,,,,,,,,,,,,,,,,1.42,458.4374439,None,space,1,0.2468234,459.9567766,None,459.9567766,None,459.9567766,None,,,,,,,,,,,P004,fencog,1,Post,2021_Jul_16_1128,Go No-Go Task,2021.1.4,119.943051
,"Rule: When you see a yellow image, do not press 'spacebar'.",Images/Happy/AM32HAS.jpg,Happy,Blue,Images/Blue.jpg,space,ParentConditions/YellowYellowBlue_v1.xlsx,YellowYellowBlue,Conditions/Version_1/YellowFearStop.xlsx,no,PASS,0.282355746,,,,,,,,,0,0,0,1,0,0,0,0,0,63,63,63,,,,,,,,,,,,,,,,,,,,,,,,,,,,,,,,,,,,,,,,,,,,,,,,,,,,,,,,,,,,,,,,,,,,,,,,,,,,,,,1.33,460.3637616,None,space,1,0.2538347,461.7979415,None,461.7979415,None,461.7979415,None,,,,,,,,,,,P004,fencog,1,Post,2021_Jul_16_1128,Go No-Go Task,2021.1.4,119.943051
,"Rule: When you see a yellow image, do not press 'spacebar'.",Images/Fearful/AM02_FO.jpg,Fear,Yellow,Images/Yellow.jpg,None,ParentConditions/YellowYellowBlue_v1.xlsx,YellowYellowBlue,Conditions/Version_1/YellowFearStop.xlsx,yes,PASS,0.848162451,,,,,,,,,0,0,0,1,0,0,0,0,0,64,64,64,,,,,,,,,,,,,,,,,,,,,,,,,,,,,,,,,,,,,,,,,,,,,,,,,,,,,,,,,,,,,,,,,,,,,,,,,,,,,,,1.96,462.1986427,None,space,0,0.2035163,464.2639483,None,464.2639483,None,464.2639483,None,,,,,,,,,,,P004,fencog,1,Post,2021_Jul_16_1128,Go No-Go Task,2021.1.4,119.943051
,"Rule: When you see a yellow image, do not press 'spacebar'.",Images/Fearful/BM02_FC.jpg,Fear,Yellow,Images/Yellow.jpg,None,ParentConditions/YellowYellowBlue_v1.xlsx,YellowYellowBlue,Conditions/Version_1/YellowFearStop.xlsx,yes,PASS,0.703347445,,,,,,,,,0,0,0,1,0,0,0,0,0,65,65,65,,,,,,,,,,,,,,,,,,,,,,,,,,,,,,,,,,,,,,,,,,,,,,,,,,,,,,,,,,,,,,,,,,,,,,,,,,,,,,,1.26,464.6657489,None,space,0,0.2379381,466.0216708,None,466.0216708,None,466.0216708,None,,,,,,,,,,,P004,fencog,1,Post,2021_Jul_16_1128,Go No-Go Task,2021.1.4,119.943051
,"Rule: When you see a yellow image, do not press 'spacebar'.",Images/Happy/AM04_HE.jpg,Happy,Blue,Images/Blue.jpg,space,ParentConditions/YellowYellowBlue_v1.xlsx,YellowYellowBlue,Conditions/Version_1/YellowFearStop.xlsx,no,PASS,0.195445465,,,,,,,,,0,0,0,1,0,0,0,0,0,66,66,66,,,,,,,,,,,,,,,,,,,,,,,,,,,,,,,,,,,,,,,,,,,,,,,,,,,,,,,,,,,,,,,,,,,,,,,,,,,,,,,1.7,466.4238386,None,space,1,0.2299664,468.2293352,None,468.2293352,None,468.2293352,None,,,,,,,,,,,P004,fencog,1,Post,2021_Jul_16_1128,Go No-Go Task,2021.1.4,119.943051
,"Rule: When you see a yellow image, do not press 'spacebar'.",Images/Fearful/AM05AFS.jpg,Fear,Yellow,Images/Yellow.jpg,None,ParentConditions/YellowYellowBlue_v1.xlsx,YellowYellowBlue,Conditions/Version_1/YellowFearStop.xlsx,yes,PASS,0.645933641,,,,,,,,,0,0,0,1,0,0,0,0,0,67,67,67,,,,,,,,,,,,,,,,,,,,,,,,,,,,,,,,,,,,,,,,,,,,,,,,,,,,,,,,,,,,,,,,,,,,,,,,,,,,,,,1.23,468.6345517,None,space,0,0.2812831,469.9704109,None,469.9704109,None,469.9704109,None,,,,,,,,,,,P004,fencog,1,Post,2021_Jul_16_1128,Go No-Go Task,2021.1.4,119.943051
,"Rule: When you see a yellow image, do not press 'spacebar'.",Images/Happy/AF28HAS.jpg,Happy,Blue,Images/Blue.jpg,space,ParentConditions/YellowYellowBlue_v1.xlsx,YellowYellowBlue,Conditions/Version_1/YellowFearStop.xlsx,no,PASS,0.168407758,,,,,,,,,0,0,0,1,0,0,0,0,0,68,68,68,,,,,,,,,,,,,,,,,,,,,,,,,,,,,,,,,,,,,,,,,,,,,,,,,,,,,,,,,,,,,,,,,,,,,,,,,,,,,,,1.3,470.3696656,None,space,1,0.2339964,471.7700103,None,471.7700103,None,471.7700103,None,,,,,,,,,,,P004,fencog,1,Post,2021_Jul_16_1128,Go No-Go Task,2021.1.4,119.943051
,"Rule: When you see a yellow image, do not press 'spacebar'.",Images/Happy/AF07_HO.jpg,Happy,Blue,Images/Blue.jpg,space,ParentConditions/YellowYellowBlue_v1.xlsx,YellowYellowBlue,Conditions/Version_1/YellowFearStop.xlsx,no,PASS,0.892185425,,,,,,,,,0,0,0,1,0,0,0,0,0,69,69,69,,,,,,,,,,,,,,,,,,,,,,,,,,,,,,,,,,,,,,,,,,,,,,,,,,,,,,,,,,,,,,,,,,,,,,,,,,,,,,,1.32,472.1714231,None,None,0,,473.5944723,None,473.5944723,None,473.5944723,None,,,,,,,,,,,P004,fencog,1,Post,2021_Jul_16_1128,Go No-Go Task,2021.1.4,119.943051
,"Rule: When you see a yellow image, do not press 'spacebar'.",Images/Happy/BF14_HO.jpg,Happy,Blue,Images/Blue.jpg,space,ParentConditions/YellowYellowBlue_v1.xlsx,YellowYellowBlue,Conditions/Version_1/YellowFearStop.xlsx,no,PASS,0.113400233,,,,,,,,,0,0,0,1,0,0,0,0,0,70,70,70,,,,,,,,,,,,,,,,,,,,,,,,,,,,,,,,,,,,,,,,,,,,,,,,,,,,,,,,,,,,,,,,,,,,,,,,,,,,,,,1.88,473.9935972,None,space,1,0.2424782,475.9769412,None,475.9769412,None,475.9769412,None,,,,,,,,,,,P004,fencog,1,Post,2021_Jul_16_1128,Go No-Go Task,2021.1.4,119.943051
,"Rule: When you see a yellow image, do not press 'spacebar'.",Images/Fearful/AF07FS.jpg,Fear,Yellow,Images/Yellow.jpg,None,ParentConditions/YellowYellowBlue_v1.xlsx,YellowYellowBlue,Conditions/Version_1/YellowFearStop.xlsx,yes,PASS,0.017721147,,,,,,,,,0,0,0,1,0,0,0,0,0,71,71,71,,,,,,,,,,,,,,,,,,,,,,,,,,,,,,,,,,,,,,,,,,,,,,,,,,,,,,,,,,,,,,,,,,,,,,,,,,,,,,,1.9,476.3779113,None,None,1,,478.3847023,None,478.3847023,None,478.3847023,None,,,,,,,,,,,P004,fencog,1,Post,2021_Jul_16_1128,Go No-Go Task,2021.1.4,119.943051
,"Rule: When you see a yellow image, do not press 'spacebar'.",Images/Happy/AF32HAS.jpg,Happy,Blue,Images/Blue.jpg,space,ParentConditions/YellowYellowBlue_v1.xlsx,YellowYellowBlue,Conditions/Version_1/YellowFearStop.xlsx,no,PASS,0.351428612,,,,,,,,,0,0,0,1,0,0,0,0,0,72,72,72,,,,,,,,,,,,,,,,,,,,,,,,,,,,,,,,,,,,,,,,,,,,,,,,,,,,,,,,,,,,,,,,,,,,,,,,,,,,,,,1.28,478.7900671,None,space,1,0.2361251,480.1758496,None,480.1758496,None,480.1758496,None,,,,,,,,,,,P004,fencog,1,Post,2021_Jul_16_1128,Go No-Go Task,2021.1.4,119.943051
,"Rule: When you see a yellow image, do not press 'spacebar'.",Images/Happy/AF11HAS.jpg,Happy,Blue,Images/Blue.jpg,space,ParentConditions/YellowYellowBlue_v1.xlsx,YellowYellowBlue,Conditions/Version_1/YellowFearStop.xlsx,no,PASS,0.543717435,,,,,,,,,0,0,0,1,0,0,0,0,0,73,73,73,,,,,,,,,,,,,,,,,,,,,,,,,,,,,,,,,,,,,,,,,,,,,,,,,,,,,,,,,,,,,,,,,,,,,,,,,,,,,,,1.62,480.5765802,None,space,1,0.311472,482.3002203,None,482.3002203,None,482.3002203,None,,,,,,,,,,,P004,fencog,1,Post,2021_Jul_16_1128,Go No-Go Task,2021.1.4,119.943051
,"Rule: When you see a yellow image, do not press 'spacebar'.",Images/Happy/AM19HAS.jpg,Happy,Blue,Images/Blue.jpg,space,ParentConditions/YellowYellowBlue_v1.xlsx,YellowYellowBlue,Conditions/Version_1/YellowFearStop.xlsx,no,PASS,0.404854658,,,,,,,,,0,0,0,1,0,0,0,0,0,74,74,74,,,,,,,,,,,,,,,,,,,,,,,,,,,,,,,,,,,,,,,,,,,,,,,,,,,,,,,,,,,,,,,,,,,,,,,,,,,,,,,1.99,482.7064901,None,space,1,0.220033,484.7994596,None,484.7994596,None,484.7994596,None,,,,,,,,,,,P004,fencog,1,Post,2021_Jul_16_1128,Go No-Go Task,2021.1.4,119.943051
,"Rule: When you see a yellow image, do not press 'spacebar'.",Images/Happy/AM01HAS.jpg,Happy,Blue,Images/Blue.jpg,space,ParentConditions/YellowYellowBlue_v1.xlsx,YellowYellowBlue,Conditions/Version_1/YellowFearStop.xlsx,no,PASS,0.668098745,,,,,,,,,0,0,0,1,0,0,0,0,0,75,75,75,,,,,,,,,,,,,,,,,,,,,,,,,,,,,,,,,,,,,,,,,,,,,,,,,,,,,,,,,,,,,,,,,,,,,,,,,,,,,,,1.22,485.2001291,None,space,1,0.2872468,486.5239574,None,486.5239574,None,486.5239574,None,,,,,,,,,,,P004,fencog,1,Post,2021_Jul_16_1128,Go No-Go Task,2021.1.4,119.943051
,"Rule: When you see a yellow image, do not press 'spacebar'.",Images/Happy/WF05_HC.jpg,Happy,Blue,Images/Blue.jpg,space,ParentConditions/YellowYellowBlue_v1.xlsx,YellowYellowBlue,Conditions/Version_1/YellowFearStop.xlsx,no,PASS,0.334650317,,,,,,,,,0,0,0,1,0,0,0,0,0,76,76,76,,,,,,,,,,,,,,,,,,,,,,,,,,,,,,,,,,,,,,,,,,,,,,,,,,,,,,,,,,,,,,,,,,,,,,,,,,,,,,,1.41,486.9259837,None,space,1,0.2841877,488.440067,None,488.440067,None,488.440067,None,,,,,,,,,,,P004,fencog,1,Post,2021_Jul_16_1128,Go No-Go Task,2021.1.4,119.943051
,"Rule: When you see a yellow image, do not press 'spacebar'.",Images/Happy/BM03_HO.jpg,Happy,Blue,Images/Blue.jpg,space,ParentConditions/YellowYellowBlue_v1.xlsx,YellowYellowBlue,Conditions/Version_1/YellowFearStop.xlsx,no,PASS,0.830918277,,,,,,,,,0,0,0,1,0,0,0,0,0,77,77,77,,,,,,,,,,,,,,,,,,,,,,,,,,,,,,,,,,,,,,,,,,,,,,,,,,,,,,,,,,,,,,,,,,,,,,,,,,,,,,,1.75,488.8407043,None,space,1,0.2741801,490.6893612,None,490.6893612,None,490.6893612,None,,,,,,,,,,,P004,fencog,1,Post,2021_Jul_16_1128,Go No-Go Task,2021.1.4,119.943051
,"Rule: When you see a yellow image, do not press 'spacebar'.",Images/Happy/AM02_HE.jpg,Happy,Blue,Images/Blue.jpg,space,ParentConditions/YellowYellowBlue_v1.xlsx,YellowYellowBlue,Conditions/Version_1/YellowFearStop.xlsx,no,PASS,0.732833616,,,,,,,,,0,0,0,1,0,0,0,0,0,78,78,78,,,,,,,,,,,,,,,,,,,,,,,,,,,,,,,,,,,,,,,,,,,,,,,,,,,,,,,,,,,,,,,,,,,,,,,,,,,,,,,1.6,491.0969545,None,space,1,0.2381687,492.7970779,None,492.7970779,None,492.7970779,None,,,,,,,,,,,P004,fencog,1,Post,2021_Jul_16_1128,Go No-Go Task,2021.1.4,119.943051
,"Rule: When you see a yellow image, do not press 'spacebar'.",Images/Fearful/AM06_FO.jpg,Fear,Yellow,Images/Yellow.jpg,None,ParentConditions/YellowYellowBlue_v1.xlsx,YellowYellowBlue,Conditions/Version_1/YellowFearStop.xlsx,yes,PASS,0.223983488,,,,,,,,,0,0,0,1,0,0,0,0,0,79,79,79,,,,,,,,,,,,,,,,,,,,,,,,,,,,,,,,,,,,,,,,,,,,,,,,,,,,,,,,,,,,,,,,,,,,,,,,,,,,,,,1.57,493.2040204,None,None,1,,494.8797884,None,494.8797884,None,494.8797884,None,,,,,,,,,,,P004,fencog,1,Post,2021_Jul_16_1128,Go No-Go Task,2021.1.4,119.943051
,"Rule: When you see a yellow image, do not press 'spacebar'.",Images/Scram2/HM09_NC.jpg,Scramble,Blue,Images/Blue.jpg,space,ParentConditions/YellowYellowBlue_v1.xlsx,YellowYellowBlue,Conditions/Version_1/YellowScramStop.xlsx,no,PASS,0.165462095,,,,,,,,,0,0,0,1,0,1,1,1,0,0,0,0,,,,,,,,,,,,,,,,,,,,,,,,,,,,,,,,,,,,,,,,,,,,,,,,,,,,,,,,,,,,,,,,,502.5777646,None,505.5679725,None,space,23.3475322,505.5679725,None,502.5777646,None,502.5777646,None,502.5777646,None,1.44,528.9834573,None,None,0,,530.5275771,None,530.5275771,None,530.5275771,None,495.3026801,None,space,6.7677053,495.7872839,None,495.3026801,None,495.3026801,None,P004,fencog,1,Post,2021_Jul_16_1128,Go No-Go Task,2021.1.4,119.943051
,"Rule: When you see a yellow image, do not press 'spacebar'.",Images/Scram2/HM06_NC.jpg,Scramble,Blue,Images/Blue.jpg,space,ParentConditions/YellowYellowBlue_v1.xlsx,YellowYellowBlue,Conditions/Version_1/YellowScramStop.xlsx,no,PASS,0.897967529,,,,,,,,,0,0,0,1,0,1,1,1,0,1,1,1,,,,,,,,,,,,,,,,,,,,,,,,,,,,,,,,,,,,,,,,,,,,,,,,,,,,,,,,,,,,,,,,,,,,,,,,,,,,,,,1.85,530.9277859,None,space,1,0.2463236,532.8852269,None,532.8852269,None,532.8852269,None,,,,,,,,,,,P004,fencog,1,Post,2021_Jul_16_1128,Go No-Go Task,2021.1.4,119.943051
,"Rule: When you see a yellow image, do not press 'spacebar'.",Images/Scram1/AM31NES.jpg,Scramble,Blue,Images/Blue.jpg,space,ParentConditions/YellowYellowBlue_v1.xlsx,YellowYellowBlue,Conditions/Version_1/YellowScramStop.xlsx,no,PASS,0.923187968,,,,,,,,,0,0,0,1,0,1,1,1,0,2,2,2,,,,,,,,,,,,,,,,,,,,,,,,,,,,,,,,,,,,,,,,,,,,,,,,,,,,,,,,,,,,,,,,,,,,,,,,,,,,,,,1.79,533.2955228,None,space,1,0.2985979,535.1845253,None,535.1845253,None,535.1845253,None,,,,,,,,,,,P004,fencog,1,Post,2021_Jul_16_1128,Go No-Go Task,2021.1.4,119.943051
,"Rule: When you see a yellow image, do not press 'spacebar'.",Images/Scram2/AM03NES.jpg,Scramble,Yellow,Images/Yellow.jpg,None,ParentConditions/YellowYellowBlue_v1.xlsx,YellowYellowBlue,Conditions/Version_1/YellowScramStop.xlsx,yes,PASS,0.512384462,,,,,,,,,0,0,0,1,0,1,1,1,0,3,3,3,,,,,,,,,,,,,,,,,,,,,,,,,,,,,,,,,,,,,,,,,,,,,,,,,,,,,,,,,,,,,,,,,,,,,,,,,,,,,,,1.22,535.5868642,None,None,1,,536.9090667,None,536.9090667,None,536.9090667,None,,,,,,,,,,,P004,fencog,1,Post,2021_Jul_16_1128,Go No-Go Task,2021.1.4,119.943051
,"Rule: When you see a yellow image, do not press 'spacebar'.",Images/Scram2/BM01_NC.jpg,Scramble,Blue,Images/Blue.jpg,space,ParentConditions/YellowYellowBlue_v1.xlsx,YellowYellowBlue,Conditions/Version_1/YellowScramStop.xlsx,no,PASS,0.964762263,,,,,,,,,0,0,0,1,0,1,1,1,0,4,4,4,,,,,,,,,,,,,,,,,,,,,,,,,,,,,,,,,,,,,,,,,,,,,,,,,,,,,,,,,,,,,,,,,,,,,,,,,,,,,,,1.92,537.3149251,None,space,1,0.2379576,539.341644,None,539.341644,None,539.341644,None,,,,,,,,,,,P004,fencog,1,Post,2021_Jul_16_1128,Go No-Go Task,2021.1.4,119.943051
,"Rule: When you see a yellow image, do not press 'spacebar'.",Images/Scram1/HM09_NC.jpg,Scramble,Blue,Images/Blue.jpg,space,ParentConditions/YellowYellowBlue_v1.xlsx,YellowYellowBlue,Conditions/Version_1/YellowScramStop.xlsx,no,PASS,0.000687925,,,,,,,,,0,0,0,1,0,1,1,1,0,5,5,5,,,,,,,,,,,,,,,,,,,,,,,,,,,,,,,,,,,,,,,,,,,,,,,,,,,,,,,,,,,,,,,,,,,,,,,,,,,,,,,1.52,539.7407984,None,space,1,0.2378472,541.3660796,None,541.3660796,None,541.3660796,None,,,,,,,,,,,P004,fencog,1,Post,2021_Jul_16_1128,Go No-Go Task,2021.1.4,119.943051
,"Rule: When you see a yellow image, do not press 'spacebar'.",Images/Scram2/BF07_NC.jpg,Scramble,Blue,Images/Blue.jpg,space,ParentConditions/YellowYellowBlue_v1.xlsx,YellowYellowBlue,Conditions/Version_1/YellowScramStop.xlsx,no,PASS,0.995882368,,,,,,,,,0,0,0,1,0,1,1,1,0,6,6,6,,,,,,,,,,,,,,,,,,,,,,,,,,,,,,,,,,,,,,,,,,,,,,,,,,,,,,,,,,,,,,,,,,,,,,,,,,,,,,,1.62,541.767695,None,space,1,0.1294054,543.4904579,None,543.4904579,None,543.4904579,None,,,,,,,,,,,P004,fencog,1,Post,2021_Jul_16_1128,Go No-Go Task,2021.1.4,119.943051
,"Rule: When you see a yellow image, do not press 'spacebar'.",Images/Scram1/BF14_NC.jpg,Scramble,Blue,Images/Blue.jpg,space,ParentConditions/YellowYellowBlue_v1.xlsx,YellowYellowBlue,Conditions/Version_1/YellowScramStop.xlsx,no,PASS,0.239759658,,,,,,,,,0,0,0,1,0,1,1,1,0,7,7,7,,,,,,,,,,,,,,,,,,,,,,,,,,,,,,,,,,,,,,,,,,,,,,,,,,,,,,,,,,,,,,,,,,,,,,,,,,,,,,,1.41,543.8927072,None,space,1,0.2451825,545.4065194,None,545.4065194,None,545.4065194,None,,,,,,,,,,,P004,fencog,1,Post,2021_Jul_16_1128,Go No-Go Task,2021.1.4,119.943051
,"Rule: When you see a yellow image, do not press 'spacebar'.",Images/Scram2/AF10_NC.jpg,Scramble,Blue,Images/Blue.jpg,space,ParentConditions/YellowYellowBlue_v1.xlsx,YellowYellowBlue,Conditions/Version_1/YellowScramStop.xlsx,no,PASS,0.231928382,,,,,,,,,0,0,0,1,0,1,1,1,0,8,8,8,,,,,,,,,,,,,,,,,,,,,,,,,,,,,,,,,,,,,,,,,,,,,,,,,,,,,,,,,,,,,,,,,,,,,,,,,,,,,,,1.55,545.807569,None,space,1,0.2992465,547.4642571,None,547.4642571,None,547.4642571,None,,,,,,,,,,,P004,fencog,1,Post,2021_Jul_16_1128,Go No-Go Task,2021.1.4,119.943051
,"Rule: When you see a yellow image, do not press 'spacebar'.",Images/Scram2/AF01_NC.jpg,Scramble,Blue,Images/Blue.jpg,space,ParentConditions/YellowYellowBlue_v1.xlsx,YellowYellowBlue,Conditions/Version_1/YellowScramStop.xlsx,no,PASS,0.030564679,,,,,,,,,0,0,0,1,0,1,1,1,0,9,9,9,,,,,,,,,,,,,,,,,,,,,,,,,,,,,,,,,,,,,,,,,,,,,,,,,,,,,,,,,,,,,,,,,,,,,,,,,,,,,,,1.94,547.8649639,None,space,1,0.1785037,549.9051908,None,549.9051908,None,549.9051908,None,,,,,,,,,,,P004,fencog,1,Post,2021_Jul_16_1128,Go No-Go Task,2021.1.4,119.943051
,"Rule: When you see a yellow image, do not press 'spacebar'.",Images/Scram2/AF24NES.jpg,Scramble,Blue,Images/Blue.jpg,space,ParentConditions/YellowYellowBlue_v1.xlsx,YellowYellowBlue,Conditions/Version_1/YellowScramStop.xlsx,no,PASS,0.325712461,,,,,,,,,0,0,0,1,0,1,1,1,0,10,10,10,,,,,,,,,,,,,,,,,,,,,,,,,,,,,,,,,,,,,,,,,,,,,,,,,,,,,,,,,,,,,,,,,,,,,,,,,,,,,,,1.66,550.3112445,None,space,1,0.2682587,552.0710573,None,552.0710573,None,552.0710573,None,,,,,,,,,,,P004,fencog,1,Post,2021_Jul_16_1128,Go No-Go Task,2021.1.4,119.943051
,"Rule: When you see a yellow image, do not press 'spacebar'.",Images/Scram2/BF14_NC.jpg,Scramble,Blue,Images/Blue.jpg,space,ParentConditions/YellowYellowBlue_v1.xlsx,YellowYellowBlue,Conditions/Version_1/YellowScramStop.xlsx,no,PASS,0.745262532,,,,,,,,,0,0,0,1,0,1,1,1,0,11,11,11,,,,,,,,,,,,,,,,,,,,,,,,,,,,,,,,,,,,,,,,,,,,,,,,,,,,,,,,,,,,,,,,,,,,,,,,,,,,,,,1.8,552.477548,None,space,1,0.160813,554.3788635,None,554.3788635,None,554.3788635,None,,,,,,,,,,,P004,fencog,1,Post,2021_Jul_16_1128,Go No-Go Task,2021.1.4,119.943051
,"Rule: When you see a yellow image, do not press 'spacebar'.",Images/Scram1/AM13NES.jpg,Scramble,Blue,Images/Blue.jpg,space,ParentConditions/YellowYellowBlue_v1.xlsx,YellowYellowBlue,Conditions/Version_1/YellowScramStop.xlsx,no,PASS,0.493993548,,,,,,,,,0,0,0,1,0,1,1,1,0,12,12,12,,,,,,,,,,,,,,,,,,,,,,,,,,,,,,,,,,,,,,,,,,,,,,,,,,,,,,,,,,,,,,,,,,,,,,,,,,,,,,,1.63,554.7798982,None,space,1,0.1800604,556.5115863,None,556.5115863,None,556.5115863,None,,,,,,,,,,,P004,fencog,1,Post,2021_Jul_16_1128,Go No-Go Task,2021.1.4,119.943051
,"Rule: When you see a yellow image, do not press 'spacebar'.",Images/Scram1/HM04_NC.jpg,Scramble,Blue,Images/Blue.jpg,space,ParentConditions/YellowYellowBlue_v1.xlsx,YellowYellowBlue,Conditions/Version_1/YellowScramStop.xlsx,no,PASS,0.184674666,,,,,,,,,0,0,0,1,0,1,1,1,0,13,13,13,,,,,,,,,,,,,,,,,,,,,,,,,,,,,,,,,,,,,,,,,,,,,,,,,,,,,,,,,,,,,,,,,,,,,,,,,,,,,,,1.65,556.9203975,None,space,1,0.2219836,558.6776165,None,558.6776165,None,558.6776165,None,,,,,,,,,,,P004,fencog,1,Post,2021_Jul_16_1128,Go No-Go Task,2021.1.4,119.943051
,"Rule: When you see a yellow image, do not press 'spacebar'.",Images/Scram1/AM03NES.jpg,Scramble,Blue,Images/Blue.jpg,space,ParentConditions/YellowYellowBlue_v1.xlsx,YellowYellowBlue,Conditions/Version_1/YellowScramStop.xlsx,no,PASS,0.036392656,,,,,,,,,0,0,0,1,0,1,1,1,0,14,14,14,,,,,,,,,,,,,,,,,,,,,,,,,,,,,,,,,,,,,,,,,,,,,,,,,,,,,,,,,,,,,,,,,,,,,,,,,,,,,,,1.87,559.0797172,None,space,1,0.2958214,561.0519278,None,561.0519278,None,561.0519278,None,,,,,,,,,,,P004,fencog,1,Post,2021_Jul_16_1128,Go No-Go Task,2021.1.4,119.943051
,"Rule: When you see a yellow image, do not press 'spacebar'.",Images/Scram1/AM22NES.jpg,Scramble,Blue,Images/Blue.jpg,space,ParentConditions/YellowYellowBlue_v1.xlsx,YellowYellowBlue,Conditions/Version_1/YellowScramStop.xlsx,no,PASS,0.464265865,,,,,,,,,0,0,0,1,0,1,1,1,0,15,15,15,,,,,,,,,,,,,,,,,,,,,,,,,,,,,,,,,,,,,,,,,,,,,,,,,,,,,,,,,,,,,,,,,,,,,,,,,,,,,,,1.5,561.4511992,None,space,1,0.2964818,563.0513009,None,563.0513009,None,563.0513009,None,,,,,,,,,,,P004,fencog,1,Post,2021_Jul_16_1128,Go No-Go Task,2021.1.4,119.943051
,"Rule: When you see a yellow image, do not press 'spacebar'.",Images/Scram2/AM17NES.jpg,Scramble,Yellow,Images/Yellow.jpg,None,ParentConditions/YellowYellowBlue_v1.xlsx,YellowYellowBlue,Conditions/Version_1/YellowScramStop.xlsx,yes,PASS,0.967907979,,,,,,,,,0,0,0,1,0,1,1,1,0,16,16,16,,,,,,,,,,,,,,,,,,,,,,,,,,,,,,,,,,,,,,,,,,,,,,,,,,,,,,,,,,,,,,,,,,,,,,,,,,,,,,,1.7,563.4512612,None,None,1,,565.2589832,None,565.2589832,None,565.2589832,None,,,,,,,,,,,P004,fencog,1,Post,2021_Jul_16_1128,Go No-Go Task,2021.1.4,119.943051
,"Rule: When you see a yellow image, do not press 'spacebar'.",Images/Scram1/AM10NES.jpg,Scramble,Blue,Images/Blue.jpg,space,ParentConditions/YellowYellowBlue_v1.xlsx,YellowYellowBlue,Conditions/Version_1/YellowScramStop.xlsx,no,PASS,0.606062041,,,,,,,,,0,0,0,1,0,1,1,1,0,17,17,17,,,,,,,,,,,,,,,,,,,,,,,,,,,,,,,,,,,,,,,,,,,,,,,,,,,,,,,,,,,,,,,,,,,,,,,,,,,,,,,1.84,565.6613153,None,space,1,0.2353463,567.6083924,None,567.6083924,None,567.6083924,None,,,,,,,,,,,P004,fencog,1,Post,2021_Jul_16_1128,Go No-Go Task,2021.1.4,119.943051
,"Rule: When you see a yellow image, do not press 'spacebar'.",Images/Scram2/AM03_NC.jpg,Scramble,Yellow,Images/Yellow.jpg,None,ParentConditions/YellowYellowBlue_v1.xlsx,YellowYellowBlue,Conditions/Version_1/YellowScramStop.xlsx,yes,PASS,0.37502921,,,,,,,,,0,0,0,1,0,1,1,1,0,18,18,18,,,,,,,,,,,,,,,,,,,,,,,,,,,,,,,,,,,,,,,,,,,,,,,,,,,,,,,,,,,,,,,,,,,,,,,,,,,,,,,1.97,568.0088045,None,space,0,0.1371216,570.0825734,None,570.0825734,None,570.0825734,None,,,,,,,,,,,P004,fencog,1,Post,2021_Jul_16_1128,Go No-Go Task,2021.1.4,119.943051
,"Rule: When you see a yellow image, do not press 'spacebar'.",Images/Scram1/HF09_NC.jpg,Scramble,Blue,Images/Blue.jpg,space,ParentConditions/YellowYellowBlue_v1.xlsx,YellowYellowBlue,Conditions/Version_1/YellowScramStop.xlsx,no,PASS,0.550594735,,,,,,,,,0,0,0,1,0,1,1,1,0,19,19,19,,,,,,,,,,,,,,,,,,,,,,,,,,,,,,,,,,,,,,,,,,,,,,,,,,,,,,,,,,,,,,,,,,,,,,,,,,,,,,,1.83,570.4914742,None,space,1,0.2828787,572.4235161,None,572.4235161,None,572.4235161,None,,,,,,,,,,,P004,fencog,1,Post,2021_Jul_16_1128,Go No-Go Task,2021.1.4,119.943051
,"Rule: When you see a yellow image, do not press 'spacebar'.",Images/Scram1/BM08_NC.jpg,Scramble,Blue,Images/Blue.jpg,space,ParentConditions/YellowYellowBlue_v1.xlsx,YellowYellowBlue,Conditions/Version_1/YellowScramStop.xlsx,no,PASS,0.112391938,,,,,,,,,0,0,0,1,0,1,1,1,0,20,20,20,,,,,,,,,,,,,,,,,,,,,,,,,,,,,,,,,,,,,,,,,,,,,,,,,,,,,,,,,,,,,,,,,,,,,,,,,,,,,,,1.59,572.8228214,None,space,1,0.2728332,574.5145839,None,574.5145839,None,574.5145839,None,,,,,,,,,,,P004,fencog,1,Post,2021_Jul_16_1128,Go No-Go Task,2021.1.4,119.943051
,"Rule: When you see a yellow image, do not press 'spacebar'.",Images/Scram1/AF32NES.jpg,Scramble,Blue,Images/Blue.jpg,space,ParentConditions/YellowYellowBlue_v1.xlsx,YellowYellowBlue,Conditions/Version_1/YellowScramStop.xlsx,no,PASS,0.664764183,,,,,,,,,0,0,0,1,0,1,1,1,0,21,21,21,,,,,,,,,,,,,,,,,,,,,,,,,,,,,,,,,,,,,,,,,,,,,,,,,,,,,,,,,,,,,,,,,,,,,,,,,,,,,,,1.31,574.9148888,None,space,1,0.3289248,576.3306945,None,576.3306945,None,576.3306945,None,,,,,,,,,,,P004,fencog,1,Post,2021_Jul_16_1128,Go No-Go Task,2021.1.4,119.943051
,"Rule: When you see a yellow image, do not press 'spacebar'.",Images/Scram2/AM06_NC.jpg,Scramble,Yellow,Images/Yellow.jpg,None,ParentConditions/YellowYellowBlue_v1.xlsx,YellowYellowBlue,Conditions/Version_1/YellowScramStop.xlsx,yes,PASS,0.363487487,,,,,,,,,0,0,0,1,0,1,1,1,0,22,22,22,,,,,,,,,,,,,,,,,,,,,,,,,,,,,,,,,,,,,,,,,,,,,,,,,,,,,,,,,,,,,,,,,,,,,,,,,,,,,,,1.46,576.7302121,None,None,1,,578.2968507,None,578.2968507,None,578.2968507,None,,,,,,,,,,,P004,fencog,1,Post,2021_Jul_16_1128,Go No-Go Task,2021.1.4,119.943051
,"Rule: When you see a yellow image, do not press 'spacebar'.",Images/Scram1/AM06_NC.jpg,Scramble,Blue,Images/Blue.jpg,space,ParentConditions/YellowYellowBlue_v1.xlsx,YellowYellowBlue,Conditions/Version_1/YellowScramStop.xlsx,no,PASS,0.9155942,,,,,,,,,0,0,0,1,0,1,1,1,0,23,23,23,,,,,,,,,,,,,,,,,,,,,,,,,,,,,,,,,,,,,,,,,,,,,,,,,,,,,,,,,,,,,,,,,,,,,,,,,,,,,,,1.28,578.7020061,None,space,1,0.1800039,580.0800145,None,580.0800145,None,580.0800145,None,,,,,,,,,,,P004,fencog,1,Post,2021_Jul_16_1128,Go No-Go Task,2021.1.4,119.943051
,"Rule: When you see a yellow image, do not press 'spacebar'.",Images/Scram2/AM02_NC.jpg,Scramble,Yellow,Images/Yellow.jpg,None,ParentConditions/YellowYellowBlue_v1.xlsx,YellowYellowBlue,Conditions/Version_1/YellowScramStop.xlsx,yes,PASS,0.403496622,,,,,,,,,0,0,0,1,0,1,1,1,0,24,24,24,,,,,,,,,,,,,,,,,,,,,,,,,,,,,,,,,,,,,,,,,,,,,,,,,,,,,,,,,,,,,,,,,,,,,,,,,,,,,,,1.32,580.4847779,None,None,1,,581.9124148,None,581.9124148,None,581.9124148,None,,,,,,,,,,,P004,fencog,1,Post,2021_Jul_16_1128,Go No-Go Task,2021.1.4,119.943051
,"Rule: When you see a yellow image, do not press 'spacebar'.",Images/Scram2/HF05_NC.jpg,Scramble,Blue,Images/Blue.jpg,space,ParentConditions/YellowYellowBlue_v1.xlsx,YellowYellowBlue,Conditions/Version_1/YellowScramStop.xlsx,no,PASS,0.921711636,,,,,,,,,0,0,0,1,0,1,1,1,0,25,25,25,,,,,,,,,,,,,,,,,,,,,,,,,,,,,,,,,,,,,,,,,,,,,,,,,,,,,,,,,,,,,,,,,,,,,,,,,,,,,,,1.57,582.3144529,None,space,1,0.2408357,583.9785648,None,583.9785648,None,583.9785648,None,,,,,,,,,,,P004,fencog,1,Post,2021_Jul_16_1128,Go No-Go Task,2021.1.4,119.943051
,"Rule: When you see a yellow image, do not press 'spacebar'.",Images/Scram2/AF32NES.jpg,Scramble,Yellow,Images/Yellow.jpg,None,ParentConditions/YellowYellowBlue_v1.xlsx,YellowYellowBlue,Conditions/Version_1/YellowScramStop.xlsx,yes,PASS,0.017466824,,,,,,,,,0,0,0,1,0,1,1,1,0,26,26,26,,,,,,,,,,,,,,,,,,,,,,,,,,,,,,,,,,,,,,,,,,,,,,,,,,,,,,,,,,,,,,,,,,,,,,,,,,,,,,,1.88,584.391488,None,None,1,,586.3778688,None,586.3778688,None,586.3778688,None,,,,,,,,,,,P004,fencog,1,Post,2021_Jul_16_1128,Go No-Go Task,2021.1.4,119.943051
,"Rule: When you see a yellow image, do not press 'spacebar'.",Images/Scram2/HM04_NC.jpg,Scramble,Blue,Images/Blue.jpg,space,ParentConditions/YellowYellowBlue_v1.xlsx,YellowYellowBlue,Conditions/Version_1/YellowScramStop.xlsx,no,PASS,0.573634123,,,,,,,,,0,0,0,1,0,1,1,1,0,27,27,27,,,,,,,,,,,,,,,,,,,,,,,,,,,,,,,,,,,,,,,,,,,,,,,,,,,,,,,,,,,,,,,,,,,,,,,,,,,,,,,1.89,586.780656,None,space,1,0.2185223,588.7770886,None,588.7770886,None,588.7770886,None,,,,,,,,,,,P004,fencog,1,Post,2021_Jul_16_1128,Go No-Go Task,2021.1.4,119.943051
,"Rule: When you see a yellow image, do not press 'spacebar'.",Images/Scram2/AF25NES.jpg,Scramble,Blue,Images/Blue.jpg,space,ParentConditions/YellowYellowBlue_v1.xlsx,YellowYellowBlue,Conditions/Version_1/YellowScramStop.xlsx,no,PASS,0.481500907,,,,,,,,,0,0,0,1,0,1,1,1,0,28,28,28,,,,,,,,,,,,,,,,,,,,,,,,,,,,,,,,,,,,,,,,,,,,,,,,,,,,,,,,,,,,,,,,,,,,,,,,,,,,,,,1.49,589.1797073,None,space,1,0.2108076,590.7764692,None,590.7764692,None,590.7764692,None,,,,,,,,,,,P004,fencog,1,Post,2021_Jul_16_1128,Go No-Go Task,2021.1.4,119.943051
,"Rule: When you see a yellow image, do not press 'spacebar'.",Images/Scram1/AF34NES.jpg,Scramble,Blue,Images/Blue.jpg,space,ParentConditions/YellowYellowBlue_v1.xlsx,YellowYellowBlue,Conditions/Version_1/YellowScramStop.xlsx,no,PASS,0.163221093,,,,,,,,,0,0,0,1,0,1,1,1,0,29,29,29,,,,,,,,,,,,,,,,,,,,,,,,,,,,,,,,,,,,,,,,,,,,,,,,,,,,,,,,,,,,,,,,,,,,,,,,,,,,,,,1.35,591.1820632,None,space,1,0.3527654,592.6342526,None,592.6342526,None,592.6342526,None,,,,,,,,,,,P004,fencog,1,Post,2021_Jul_16_1128,Go No-Go Task,2021.1.4,119.943051
,"Rule: When you see a yellow image, do not press 'spacebar'.",Images/Scram2/AF11NES.jpg,Scramble,Blue,Images/Blue.jpg,space,ParentConditions/YellowYellowBlue_v1.xlsx,YellowYellowBlue,Conditions/Version_1/YellowScramStop.xlsx,no,PASS,0.863906943,,,,,,,,,0,0,0,1,0,1,1,1,0,30,30,30,,,,,,,,,,,,,,,,,,,,,,,,,,,,,,,,,,,,,,,,,,,,,,,,,,,,,,,,,,,,,,,,,,,,,,,,,,,,,,,1.37,593.0348134,None,space,1,0.214743,594.5087728,None,594.5087728,None,594.5087728,None,,,,,,,,,,,P004,fencog,1,Post,2021_Jul_16_1128,Go No-Go Task,2021.1.4,119.943051
,"Rule: When you see a yellow image, do not press 'spacebar'.",Images/Scram2/AF34NES.jpg,Scramble,Yellow,Images/Yellow.jpg,None,ParentConditions/YellowYellowBlue_v1.xlsx,YellowYellowBlue,Conditions/Version_1/YellowScramStop.xlsx,yes,PASS,0.061590092,,,,,,,,,0,0,0,1,0,1,1,1,0,31,31,31,,,,,,,,,,,,,,,,,,,,,,,,,,,,,,,,,,,,,,,,,,,,,,,,,,,,,,,,,,,,,,,,,,,,,,,,,,,,,,,1.43,594.9154504,None,space,0,0.2339638,596.4498066,None,596.4498066,None,596.4498066,None,,,,,,,,,,,P004,fencog,1,Post,2021_Jul_16_1128,Go No-Go Task,2021.1.4,119.943051
,"Rule: When you see a yellow image, do not press 'spacebar'.",Images/Scram1/AM02_NC.jpg,Scramble,Blue,Images/Blue.jpg,space,ParentConditions/YellowYellowBlue_v1.xlsx,YellowYellowBlue,Conditions/Version_1/YellowScramStop.xlsx,no,PASS,0.7758508,,,,,,,,,0,0,0,1,0,1,1,1,0,32,32,32,,,,,,,,,,,,,,,,,,,,,,,,,,,,,,,,,,,,,,,,,,,,,,,,,,,,,,,,,,,,,,,,,,,,,,,,,,,,,,,1.68,596.8503087,None,space,1,0.1951241,598.632402,None,598.632402,None,598.632402,None,,,,,,,,,,,P004,fencog,1,Post,2021_Jul_16_1128,Go No-Go Task,2021.1.4,119.943051
,"Rule: When you see a yellow image, do not press 'spacebar'.",Images/Scram2/AM13NES.jpg,Scramble,Yellow,Images/Yellow.jpg,None,ParentConditions/YellowYellowBlue_v1.xlsx,YellowYellowBlue,Conditions/Version_1/YellowScramStop.xlsx,yes,PASS,0.67265151,,,,,,,,,0,0,0,1,0,1,1,1,0,33,33,33,,,,,,,,,,,,,,,,,,,,,,,,,,,,,,,,,,,,,,,,,,,,,,,,,,,,,,,,,,,,,,,,,,,,,,,,,,,,,,,1.6,599.0335685,None,space,0,0.2547705,600.7402334,None,600.7402334,None,600.7402334,None,,,,,,,,,,,P004,fencog,1,Post,2021_Jul_16_1128,Go No-Go Task,2021.1.4,119.943051
,"Rule: When you see a yellow image, do not press 'spacebar'.",Images/Scram1/AM03_NC.jpg,Scramble,Blue,Images/Blue.jpg,space,ParentConditions/YellowYellowBlue_v1.xlsx,YellowYellowBlue,Conditions/Version_1/YellowScramStop.xlsx,no,PASS,0.060310837,,,,,,,,,0,0,0,1,0,1,1,1,0,34,34,34,,,,,,,,,,,,,,,,,,,,,,,,,,,,,,,,,,,,,,,,,,,,,,,,,,,,,,,,,,,,,,,,,,,,,,,,,,,,,,,1.39,601.1409798,None,space,1,0.203803,602.6392469,None,602.6392469,None,602.6392469,None,,,,,,,,,,,P004,fencog,1,Post,2021_Jul_16_1128,Go No-Go Task,2021.1.4,119.943051
,"Rule: When you see a yellow image, do not press 'spacebar'.",Images/Scram1/AF33NES.jpg,Scramble,Blue,Images/Blue.jpg,space,ParentConditions/YellowYellowBlue_v1.xlsx,YellowYellowBlue,Conditions/Version_1/YellowScramStop.xlsx,no,PASS,0.988339533,,,,,,,,,0,0,0,1,0,1,1,1,0,35,35,35,,,,,,,,,,,,,,,,,,,,,,,,,,,,,,,,,,,,,,,,,,,,,,,,,,,,,,,,,,,,,,,,,,,,,,,,,,,,,,,1.54,603.0383834,None,space,1,0.3463348,604.6806654,None,604.6806654,None,604.6806654,None,,,,,,,,,,,P004,fencog,1,Post,2021_Jul_16_1128,Go No-Go Task,2021.1.4,119.943051
,"Rule: When you see a yellow image, do not press 'spacebar'.",Images/Scram1/BF10_NC.jpg,Scramble,Blue,Images/Blue.jpg,space,ParentConditions/YellowYellowBlue_v1.xlsx,YellowYellowBlue,Conditions/Version_1/YellowScramStop.xlsx,no,PASS,0.832283927,,,,,,,,,0,0,0,1,0,1,1,1,0,36,36,36,,,,,,,,,,,,,,,,,,,,,,,,,,,,,,,,,,,,,,,,,,,,,,,,,,,,,,,,,,,,,,,,,,,,,,,,,,,,,,,1.69,605.0895487,None,space,1,0.2672267,606.8800427,None,606.8800427,None,606.8800427,None,,,,,,,,,,,P004,fencog,1,Post,2021_Jul_16_1128,Go No-Go Task,2021.1.4,119.943051
,"Rule: When you see a yellow image, do not press 'spacebar'.",Images/Scram1/AF07_NC.jpg,Scramble,Blue,Images/Blue.jpg,space,ParentConditions/YellowYellowBlue_v1.xlsx,YellowYellowBlue,Conditions/Version_1/YellowScramStop.xlsx,no,PASS,0.976389595,,,,,,,,,0,0,0,1,0,1,1,1,0,37,37,37,,,,,,,,,,,,,,,,,,,,,,,,,,,,,,,,,,,,,,,,,,,,,,,,,,,,,,,,,,,,,,,,,,,,,,,,,,,,,,,1.24,607.2801019,None,space,1,0.2460483,608.621248,None,608.621248,None,608.621248,None,,,,,,,,,,,P004,fencog,1,Post,2021_Jul_16_1128,Go No-Go Task,2021.1.4,119.943051
,"Rule: When you see a yellow image, do not press 'spacebar'.",Images/Scram2/AM23NES.jpg,Scramble,Yellow,Images/Yellow.jpg,None,ParentConditions/YellowYellowBlue_v1.xlsx,YellowYellowBlue,Conditions/Version_1/YellowScramStop.xlsx,yes,PASS,0.600248114,,,,,,,,,0,0,0,1,0,1,1,1,0,38,38,38,,,,,,,,,,,,,,,,,,,,,,,,,,,,,,,,,,,,,,,,,,,,,,,,,,,,,,,,,,,,,,,,,,,,,,,,,,,,,,,1.27,609.0204224,None,None,1,,610.3956747,None,610.3956747,None,610.3956747,None,,,,,,,,,,,P004,fencog,1,Post,2021_Jul_16_1128,Go No-Go Task,2021.1.4,119.943051
,"Rule: When you see a yellow image, do not press 'spacebar'.",Images/Scram1/AF24NES.jpg,Scramble,Blue,Images/Blue.jpg,space,ParentConditions/YellowYellowBlue_v1.xlsx,YellowYellowBlue,Conditions/Version_1/YellowScramStop.xlsx,no,PASS,0.112949458,,,,,,,,,0,0,0,1,0,1,1,1,0,39,39,39,,,,,,,,,,,,,,,,,,,,,,,,,,,,,,,,,,,,,,,,,,,,,,,,,,,,,,,,,,,,,,,,,,,,,,,,,,,,,,,1.95,610.7999617,None,space,1,0.2778876,612.8533023,None,612.8533023,None,612.8533023,None,,,,,,,,,,,P004,fencog,1,Post,2021_Jul_16_1128,Go No-Go Task,2021.1.4,119.943051
,"Rule: When you see a yellow image, do not press 'spacebar'.",Images/Scram2/AF33NES.jpg,Scramble,Yellow,Images/Yellow.jpg,None,ParentConditions/YellowYellowBlue_v1.xlsx,YellowYellowBlue,Conditions/Version_1/YellowScramStop.xlsx,yes,PASS,0.803753742,,,,,,,,,0,0,0,1,0,1,1,1,0,40,40,40,,,,,,,,,,,,,,,,,,,,,,,,,,,,,,,,,,,,,,,,,,,,,,,,,,,,,,,,,,,,,,,,,,,,,,,,,,,,,,,1.4,613.2542397,None,space,0,0.2583666,614.7611221,None,614.7611221,None,614.7611221,None,,,,,,,,,,,P004,fencog,1,Post,2021_Jul_16_1128,Go No-Go Task,2021.1.4,119.943051
,"Rule: When you see a yellow image, do not press 'spacebar'.",Images/Scram1/AF25NES.jpg,Scramble,Blue,Images/Blue.jpg,space,ParentConditions/YellowYellowBlue_v1.xlsx,YellowYellowBlue,Conditions/Version_1/YellowScramStop.xlsx,no,PASS,0.143787363,,,,,,,,,0,0,0,1,0,1,1,1,0,41,41,41,,,,,,,,,,,,,,,,,,,,,,,,,,,,,,,,,,,,,,,,,,,,,,,,,,,,,,,,,,,,,,,,,,,,,,,,,,,,,,,1.33,615.1615767,None,space,1,0.2579966,616.5938223,None,616.5938223,None,616.5938223,None,,,,,,,,,,,P004,fencog,1,Post,2021_Jul_16_1128,Go No-Go Task,2021.1.4,119.943051
,"Rule: When you see a yellow image, do not press 'spacebar'.",Images/Scram2/AM10NES.jpg,Scramble,Yellow,Images/Yellow.jpg,None,ParentConditions/YellowYellowBlue_v1.xlsx,YellowYellowBlue,Conditions/Version_1/YellowScramStop.xlsx,yes,PASS,0.58203193,,,,,,,,,0,0,0,1,0,1,1,1,0,42,42,42,,,,,,,,,,,,,,,,,,,,,,,,,,,,,,,,,,,,,,,,,,,,,,,,,,,,,,,,,,,,,,,,,,,,,,,,,,,,,,,1.91,617.0012309,None,None,1,,619.0181185,None,619.0181185,None,619.0181185,None,,,,,,,,,,,P004,fencog,1,Post,2021_Jul_16_1128,Go No-Go Task,2021.1.4,119.943051
,"Rule: When you see a yellow image, do not press 'spacebar'.",Images/Scram2/BF10_NC.jpg,Scramble,Blue,Images/Blue.jpg,space,ParentConditions/YellowYellowBlue_v1.xlsx,YellowYellowBlue,Conditions/Version_1/YellowScramStop.xlsx,no,PASS,0.207816491,,,,,,,,,0,0,0,1,0,1,1,1,0,43,43,43,,,,,,,,,,,,,,,,,,,,,,,,,,,,,,,,,,,,,,,,,,,,,,,,,,,,,,,,,,,,,,,,,,,,,,,,,,,,,,,1.21,619.4183963,None,None,0,,620.7343949,None,620.7343949,None,620.7343949,None,,,,,,,,,,,P004,fencog,1,Post,2021_Jul_16_1128,Go No-Go Task,2021.1.4,119.943051
,"Rule: When you see a yellow image, do not press 'spacebar'.",Images/Scram1/BF18_NC.jpg,Scramble,Blue,Images/Blue.jpg,space,ParentConditions/YellowYellowBlue_v1.xlsx,YellowYellowBlue,Conditions/Version_1/YellowScramStop.xlsx,no,PASS,0.36892611,,,,,,,,,0,0,0,1,0,1,1,1,0,44,44,44,,,,,,,,,,,,,,,,,,,,,,,,,,,,,,,,,,,,,,,,,,,,,,,,,,,,,,,,,,,,,,,,,,,,,,,,,,,,,,,1.45,621.1352462,None,space,1,0.3752691,622.692041,None,622.692041,None,622.692041,None,,,,,,,,,,,P004,fencog,1,Post,2021_Jul_16_1128,Go No-Go Task,2021.1.4,119.943051
,"Rule: When you see a yellow image, do not press 'spacebar'.",Images/Scram2/HF09_NC.jpg,Scramble,Blue,Images/Blue.jpg,space,ParentConditions/YellowYellowBlue_v1.xlsx,YellowYellowBlue,Conditions/Version_1/YellowScramStop.xlsx,no,PASS,0.286178806,,,,,,,,,0,0,0,1,0,1,1,1,0,45,45,45,,,,,,,,,,,,,,,,,,,,,,,,,,,,,,,,,,,,,,,,,,,,,,,,,,,,,,,,,,,,,,,,,,,,,,,,,,,,,,,1.53,623.0909462,None,space,1,0.2224436,624.7247752,None,624.7247752,None,624.7247752,None,,,,,,,,,,,P004,fencog,1,Post,2021_Jul_16_1128,Go No-Go Task,2021.1.4,119.943051
,"Rule: When you see a yellow image, do not press 'spacebar'.",Images/Scram1/BF05_NC.jpg,Scramble,Blue,Images/Blue.jpg,space,ParentConditions/YellowYellowBlue_v1.xlsx,YellowYellowBlue,Conditions/Version_1/YellowScramStop.xlsx,no,PASS,0.769263782,,,,,,,,,0,0,0,1,0,1,1,1,0,46,46,46,,,,,,,,,,,,,,,,,,,,,,,,,,,,,,,,,,,,,,,,,,,,,,,,,,,,,,,,,,,,,,,,,,,,,,,,,,,,,,,1.74,625.1249409,None,space,1,0.2623603,626.9573954,None,626.9573954,None,626.9573954,None,,,,,,,,,,,P004,fencog,1,Post,2021_Jul_16_1128,Go No-Go Task,2021.1.4,119.943051
,"Rule: When you see a yellow image, do not press 'spacebar'.",Images/Scram1/AM17NES.jpg,Scramble,Blue,Images/Blue.jpg,space,ParentConditions/YellowYellowBlue_v1.xlsx,YellowYellowBlue,Conditions/Version_1/YellowScramStop.xlsx,no,PASS,0.755330064,,,,,,,,,0,0,0,1,0,1,1,1,0,47,47,47,,,,,,,,,,,,,,,,,,,,,,,,,,,,,,,,,,,,,,,,,,,,,,,,,,,,,,,,,,,,,,,,,,,,,,,,,,,,,,,2,627.3649831,None,space,1,0.3622681,629.4734837,None,629.4734837,None,629.4734837,None,,,,,,,,,,,P004,fencog,1,Post,2021_Jul_16_1128,Go No-Go Task,2021.1.4,119.943051
,"Rule: When you see a yellow image, do not press 'spacebar'.",Images/Scram2/AM09_NC.jpg,Scramble,Yellow,Images/Yellow.jpg,None,ParentConditions/YellowYellowBlue_v1.xlsx,YellowYellowBlue,Conditions/Version_1/YellowScramStop.xlsx,yes,PASS,0.984865365,,,,,,,,,0,0,0,1,0,1,1,1,0,48,48,48,,,,,,,,,,,,,,,,,,,,,,,,,,,,,,,,,,,,,,,,,,,,,,,,,,,,,,,,,,,,,,,,,,,,,,,,,,,,,,,1.23,629.8716829,None,None,1,,631.2062398,None,631.2062398,None,631.2062398,None,,,,,,,,,,,P004,fencog,1,Post,2021_Jul_16_1128,Go No-Go Task,2021.1.4,119.943051
,"Rule: When you see a yellow image, do not press 'spacebar'.",Images/Scram2/AF09NES.jpg,Scramble,Blue,Images/Blue.jpg,space,ParentConditions/YellowYellowBlue_v1.xlsx,YellowYellowBlue,Conditions/Version_1/YellowScramStop.xlsx,no,PASS,0.209985362,,,,,,,,,0,0,0,1,0,1,1,1,0,49,49,49,,,,,,,,,,,,,,,,,,,,,,,,,,,,,,,,,,,,,,,,,,,,,,,,,,,,,,,,,,,,,,,,,,,,,,,,,,,,,,,1.51,631.6098001,None,space,1,0.1487739,633.2222454,None,633.2222454,None,633.2222454,None,,,,,,,,,,,P004,fencog,1,Post,2021_Jul_16_1128,Go No-Go Task,2021.1.4,119.943051
,"Rule: When you see a yellow image, do not press 'spacebar'.",Images/Scram2/AM04_NC.jpg,Scramble,Yellow,Images/Yellow.jpg,None,ParentConditions/YellowYellowBlue_v1.xlsx,YellowYellowBlue,Conditions/Version_1/YellowScramStop.xlsx,yes,PASS,0.859563214,,,,,,,,,0,0,0,1,0,1,1,1,0,50,50,50,,,,,,,,,,,,,,,,,,,,,,,,,,,,,,,,,,,,,,,,,,,,,,,,,,,,,,,,,,,,,,,,,,,,,,,,,,,,,,,1.36,633.6226005,None,space,0,0.1715555,635.0883688,None,635.0883688,None,635.0883688,None,,,,,,,,,,,P004,fencog,1,Post,2021_Jul_16_1128,Go No-Go Task,2021.1.4,119.943051
,"Rule: When you see a yellow image, do not press 'spacebar'.",Images/Scram2/BF05_NC.jpg,Scramble,Yellow,Images/Yellow.jpg,None,ParentConditions/YellowYellowBlue_v1.xlsx,YellowYellowBlue,Conditions/Version_1/YellowScramStop.xlsx,yes,PASS,0.903889245,,,,,,,,,0,0,0,1,0,1,1,1,0,51,51,51,,,,,,,,,,,,,,,,,,,,,,,,,,,,,,,,,,,,,,,,,,,,,,,,,,,,,,,,,,,,,,,,,,,,,,,,,,,,,,,1.38,635.4890034,None,space,0,0.1841724,636.9710566,None,636.9710566,None,636.9710566,None,,,,,,,,,,,P004,fencog,1,Post,2021_Jul_16_1128,Go No-Go Task,2021.1.4,119.943051
,"Rule: When you see a yellow image, do not press 'spacebar'.",Images/Scram1/HM06_NC.jpg,Scramble,Blue,Images/Blue.jpg,space,ParentConditions/YellowYellowBlue_v1.xlsx,YellowYellowBlue,Conditions/Version_1/YellowScramStop.xlsx,no,PASS,0.718307645,,,,,,,,,0,0,0,1,0,1,1,1,0,52,52,52,,,,,,,,,,,,,,,,,,,,,,,,,,,,,,,,,,,,,,,,,,,,,,,,,,,,,,,,,,,,,,,,,,,,,,,,,,,,,,,1.99,637.3710922,None,space,1,0.2610577,639.462053,None,639.462053,None,639.462053,None,,,,,,,,,,,P004,fencog,1,Post,2021_Jul_16_1128,Go No-Go Task,2021.1.4,119.943051
,"Rule: When you see a yellow image, do not press 'spacebar'.",Images/Scram2/AF07NES.jpg,Scramble,Blue,Images/Blue.jpg,space,ParentConditions/YellowYellowBlue_v1.xlsx,YellowYellowBlue,Conditions/Version_1/YellowScramStop.xlsx,no,PASS,0.868582701,,,,,,,,,0,0,0,1,0,1,1,1,0,53,53,53,,,,,,,,,,,,,,,,,,,,,,,,,,,,,,,,,,,,,,,,,,,,,,,,,,,,,,,,,,,,,,,,,,,,,,,,,,,,,,,1.72,639.8669128,None,space,1,0.1645643,641.6864267,None,641.6864267,None,641.6864267,None,,,,,,,,,,,P004,fencog,1,Post,2021_Jul_16_1128,Go No-Go Task,2021.1.4,119.943051
,"Rule: When you see a yellow image, do not press 'spacebar'.",Images/Scram1/BM01_NC.jpg,Scramble,Blue,Images/Blue.jpg,space,ParentConditions/YellowYellowBlue_v1.xlsx,YellowYellowBlue,Conditions/Version_1/YellowScramStop.xlsx,no,PASS,0.751616104,,,,,,,,,0,0,0,1,0,1,1,1,0,54,54,54,,,,,,,,,,,,,,,,,,,,,,,,,,,,,,,,,,,,,,,,,,,,,,,,,,,,,,,,,,,,,,,,,,,,,,,,,,,,,,,1.34,642.0869503,None,space,1,0.3153908,643.5276854,None,643.5276854,None,643.5276854,None,,,,,,,,,,,P004,fencog,1,Post,2021_Jul_16_1128,Go No-Go Task,2021.1.4,119.943051
,"Rule: When you see a yellow image, do not press 'spacebar'.",Images/Scram2/AF07_NC.jpg,Scramble,Blue,Images/Blue.jpg,space,ParentConditions/YellowYellowBlue_v1.xlsx,YellowYellowBlue,Conditions/Version_1/YellowScramStop.xlsx,no,PASS,0.609812891,,,,,,,,,0,0,0,1,0,1,1,1,0,55,55,55,,,,,,,,,,,,,,,,,,,,,,,,,,,,,,,,,,,,,,,,,,,,,,,,,,,,,,,,,,,,,,,,,,,,,,,,,,,,,,,1.9,643.9385439,None,space,1,0.2277185,645.9434506,None,645.9434506,None,645.9434506,None,,,,,,,,,,,P004,fencog,1,Post,2021_Jul_16_1128,Go No-Go Task,2021.1.4,119.943051
,"Rule: When you see a yellow image, do not press 'spacebar'.",Images/Scram1/AF10_NC.jpg,Scramble,Blue,Images/Blue.jpg,space,ParentConditions/YellowYellowBlue_v1.xlsx,YellowYellowBlue,Conditions/Version_1/YellowScramStop.xlsx,no,PASS,0.980512803,,,,,,,,,0,0,0,1,0,1,1,1,0,56,56,56,,,,,,,,,,,,,,,,,,,,,,,,,,,,,,,,,,,,,,,,,,,,,,,,,,,,,,,,,,,,,,,,,,,,,,,,,,,,,,,1.26,646.3442968,None,space,1,0.2532607,647.7096363,None,647.7096363,None,647.7096363,None,,,,,,,,,,,P004,fencog,1,Post,2021_Jul_16_1128,Go No-Go Task,2021.1.4,119.943051
,"Rule: When you see a yellow image, do not press 'spacebar'.",Images/Scram1/AM09NES.jpg,Scramble,Blue,Images/Blue.jpg,space,ParentConditions/YellowYellowBlue_v1.xlsx,YellowYellowBlue,Conditions/Version_1/YellowScramStop.xlsx,no,PASS,0.711317095,,,,,,,,,0,0,0,1,0,1,1,1,0,57,57,57,,,,,,,,,,,,,,,,,,,,,,,,,,,,,,,,,,,,,,,,,,,,,,,,,,,,,,,,,,,,,,,,,,,,,,,,,,,,,,,1.71,648.1092991,None,space,1,0.1501583,649.9255155,None,649.9255155,None,649.9255155,None,,,,,,,,,,,P004,fencog,1,Post,2021_Jul_16_1128,Go No-Go Task,2021.1.4,119.943051
,"Rule: When you see a yellow image, do not press 'spacebar'.",Images/Scram1/AF01_NC.jpg,Scramble,Blue,Images/Blue.jpg,space,ParentConditions/YellowYellowBlue_v1.xlsx,YellowYellowBlue,Conditions/Version_1/YellowScramStop.xlsx,no,PASS,0.081952385,,,,,,,,,0,0,0,1,0,1,1,1,0,58,58,58,,,,,,,,,,,,,,,,,,,,,,,,,,,,,,,,,,,,,,,,,,,,,,,,,,,,,,,,,,,,,,,,,,,,,,,,,,,,,,,1.78,650.3371093,None,space,1,0.1618771,652.2333077,None,652.2333077,None,652.2333077,None,,,,,,,,,,,P004,fencog,1,Post,2021_Jul_16_1128,Go No-Go Task,2021.1.4,119.943051
,"Rule: When you see a yellow image, do not press 'spacebar'.",Images/Scram1/AM09_NC.jpg,Scramble,Blue,Images/Blue.jpg,space,ParentConditions/YellowYellowBlue_v1.xlsx,YellowYellowBlue,Conditions/Version_1/YellowScramStop.xlsx,no,PASS,0.689970999,,,,,,,,,0,0,0,1,0,1,1,1,0,59,59,59,,,,,,,,,,,,,,,,,,,,,,,,,,,,,,,,,,,,,,,,,,,,,,,,,,,,,,,,,,,,,,,,,,,,,,,,,,,,,,,1.61,652.6316737,None,space,1,0.13439,654.3493202,None,654.3493202,None,654.3493202,None,,,,,,,,,,,P004,fencog,1,Post,2021_Jul_16_1128,Go No-Go Task,2021.1.4,119.943051
,"Rule: When you see a yellow image, do not press 'spacebar'.",Images/Scram1/AF11NES.jpg,Scramble,Blue,Images/Blue.jpg,space,ParentConditions/YellowYellowBlue_v1.xlsx,YellowYellowBlue,Conditions/Version_1/YellowScramStop.xlsx,no,PASS,0.557754436,,,,,,,,,0,0,0,1,0,1,1,1,0,60,60,60,,,,,,,,,,,,,,,,,,,,,,,,,,,,,,,,,,,,,,,,,,,,,,,,,,,,,,,,,,,,,,,,,,,,,,,,,,,,,,,1.47,654.7494592,None,space,1,0.1521987,656.3238526,None,656.3238526,None,656.3238526,None,,,,,,,,,,,P004,fencog,1,Post,2021_Jul_16_1128,Go No-Go Task,2021.1.4,119.943051
,"Rule: When you see a yellow image, do not press 'spacebar'.",Images/Scram1/BF07_NC.jpg,Scramble,Blue,Images/Blue.jpg,space,ParentConditions/YellowYellowBlue_v1.xlsx,YellowYellowBlue,Conditions/Version_1/YellowScramStop.xlsx,no,PASS,0.170581625,,,,,,,,,0,0,0,1,0,1,1,1,0,61,61,61,,,,,,,,,,,,,,,,,,,,,,,,,,,,,,,,,,,,,,,,,,,,,,,,,,,,,,,,,,,,,,,,,,,,,,,,,,,,,,,1.67,656.7243536,None,space,1,0.0573393,658.4981052,None,658.4981052,None,658.4981052,None,,,,,,,,,,,P004,fencog,1,Post,2021_Jul_16_1128,Go No-Go Task,2021.1.4,119.943051
,"Rule: When you see a yellow image, do not press 'spacebar'.",Images/Scram2/AM34NES.JPG,Scramble,Yellow,Images/Yellow.jpg,None,ParentConditions/YellowYellowBlue_v1.xlsx,YellowYellowBlue,Conditions/Version_1/YellowScramStop.xlsx,yes,PASS,0.200965001,,,,,,,,,0,0,0,1,0,1,1,1,0,62,62,62,,,,,,,,,,,,,,,,,,,,,,,,,,,,,,,,,,,,,,,,,,,,,,,,,,,,,,,,,,,,,,,,,,,,,,,,,,,,,,,1.25,658.8993922,None,space,0,0.1880681,660.2558851,None,660.2558851,None,660.2558851,None,,,,,,,,,,,P004,fencog,1,Post,2021_Jul_16_1128,Go No-Go Task,2021.1.4,119.943051
,"Rule: When you see a yellow image, do not press 'spacebar'.",Images/Scram1/AM04_NC.jpg,Scramble,Blue,Images/Blue.jpg,space,ParentConditions/YellowYellowBlue_v1.xlsx,YellowYellowBlue,Conditions/Version_1/YellowScramStop.xlsx,no,PASS,0.492065699,,,,,,,,,0,0,0,1,0,1,1,1,0,63,63,63,,,,,,,,,,,,,,,,,,,,,,,,,,,,,,,,,,,,,,,,,,,,,,,,,,,,,,,,,,,,,,,,,,,,,,,,,,,,,,,1.29,660.6647186,None,space,1,0.195553,662.055477,None,662.055477,None,662.055477,None,,,,,,,,,,,P004,fencog,1,Post,2021_Jul_16_1128,Go No-Go Task,2021.1.4,119.943051
,"Rule: When you see a yellow image, do not press 'spacebar'.",Images/Scram1/AM23NES.jpg,Scramble,Blue,Images/Blue.jpg,space,ParentConditions/YellowYellowBlue_v1.xlsx,YellowYellowBlue,Conditions/Version_1/YellowScramStop.xlsx,no,PASS,0.209094486,,,,,,,,,0,0,0,1,0,1,1,1,0,64,64,64,,,,,,,,,,,,,,,,,,,,,,,,,,,,,,,,,,,,,,,,,,,,,,,,,,,,,,,,,,,,,,,,,,,,,,,,,,,,,,,1.75,662.4560538,None,None,0,,664.3130524,None,664.3130524,None,664.3130524,None,,,,,,,,,,,P004,fencog,1,Post,2021_Jul_16_1128,Go No-Go Task,2021.1.4,119.943051
,"Rule: When you see a yellow image, do not press 'spacebar'.",Images/Scram2/HF10_NO.jpg,Scramble,Blue,Images/Blue.jpg,space,ParentConditions/YellowYellowBlue_v1.xlsx,YellowYellowBlue,Conditions/Version_1/YellowScramStop.xlsx,no,PASS,0.913200347,,,,,,,,,0,0,0,1,0,1,1,1,0,65,65,65,,,,,,,,,,,,,,,,,,,,,,,,,,,,,,,,,,,,,,,,,,,,,,,,,,,,,,,,,,,,,,,,,,,,,,,,,,,,,,,1.76,664.7165508,None,space,1,0.16048,666.5789778,None,666.5789778,None,666.5789778,None,,,,,,,,,,,P004,fencog,1,Post,2021_Jul_16_1128,Go No-Go Task,2021.1.4,119.943051
,"Rule: When you see a yellow image, do not press 'spacebar'.",Images/Scram1/AF07NES.jpg,Scramble,Blue,Images/Blue.jpg,space,ParentConditions/YellowYellowBlue_v1.xlsx,YellowYellowBlue,Conditions/Version_1/YellowScramStop.xlsx,no,PASS,0.45060309,,,,,,,,,0,0,0,1,0,1,1,1,0,66,66,66,,,,,,,,,,,,,,,,,,,,,,,,,,,,,,,,,,,,,,,,,,,,,,,,,,,,,,,,,,,,,,,,,,,,,,,,,,,,,,,1.73,666.9829794,None,space,1,0.1279136,668.8200291,None,668.8200291,None,668.8200291,None,,,,,,,,,,,P004,fencog,1,Post,2021_Jul_16_1128,Go No-Go Task,2021.1.4,119.943051
,"Rule: When you see a yellow image, do not press 'spacebar'.",Images/Scram2/AM09NES.jpg,Scramble,Yellow,Images/Yellow.jpg,None,ParentConditions/YellowYellowBlue_v1.xlsx,YellowYellowBlue,Conditions/Version_1/YellowScramStop.xlsx,yes,PASS,0.565509457,,,,,,,,,0,0,0,1,0,1,1,1,0,67,67,67,,,,,,,,,,,,,,,,,,,,,,,,,,,,,,,,,,,,,,,,,,,,,,,,,,,,,,,,,,,,,,,,,,,,,,,,,,,,,,,1.3,669.2255381,None,None,1,,670.6278539,None,670.6278539,None,670.6278539,None,,,,,,,,,,,P004,fencog,1,Post,2021_Jul_16_1128,Go No-Go Task,2021.1.4,119.943051
,"Rule: When you see a yellow image, do not press 'spacebar'.",Images/Scram2/BM08_NC.jpg,Scramble,Blue,Images/Blue.jpg,space,ParentConditions/YellowYellowBlue_v1.xlsx,YellowYellowBlue,Conditions/Version_1/YellowScramStop.xlsx,no,PASS,0.479096971,,,,,,,,,0,0,0,1,0,1,1,1,0,68,68,68,,,,,,,,,,,,,,,,,,,,,,,,,,,,,,,,,,,,,,,,,,,,,,,,,,,,,,,,,,,,,,,,,,,,,,,,,,,,,,,1.93,671.0286681,None,space,1,0.3354385,673.0604478,None,673.0604478,None,673.0604478,None,,,,,,,,,,,P004,fencog,1,Post,2021_Jul_16_1128,Go No-Go Task,2021.1.4,119.943051
,"Rule: When you see a yellow image, do not press 'spacebar'.",Images/Scram2/AF30NES.JPG,Scramble,Yellow,Images/Yellow.jpg,None,ParentConditions/YellowYellowBlue_v1.xlsx,YellowYellowBlue,Conditions/Version_1/YellowScramStop.xlsx,yes,PASS,0.810500571,,,,,,,,,0,0,0,1,0,1,1,1,0,69,69,69,,,,,,,,,,,,,,,,,,,,,,,,,,,,,,,,,,,,,,,,,,,,,,,,,,,,,,,,,,,,,,,,,,,,,,,,,,,,,,,1.42,673.4602082,None,None,1,,674.9853559,None,674.9853559,None,674.9853559,None,,,,,,,,,,,P004,fencog,1,Post,2021_Jul_16_1128,Go No-Go Task,2021.1.4,119.943051
,"Rule: When you see a yellow image, do not press 'spacebar'.",Images/Scram1/AM34NES.JPG,Scramble,Blue,Images/Blue.jpg,space,ParentConditions/YellowYellowBlue_v1.xlsx,YellowYellowBlue,Conditions/Version_1/YellowScramStop.xlsx,no,PASS,0.918912105,,,,,,,,,0,0,0,1,0,1,1,1,0,70,70,70,,,,,,,,,,,,,,,,,,,,,,,,,,,,,,,,,,,,,,,,,,,,,,,,,,,,,,,,,,,,,,,,,,,,,,,,,,,,,,,1.2,675.3864588,None,space,1,0.2308947,676.6843906,None,676.6843906,None,676.6843906,None,,,,,,,,,,,P004,fencog,1,Post,2021_Jul_16_1128,Go No-Go Task,2021.1.4,119.943051
