CondFileP,Instructions,FaceE,Express,ColourT,ColourF,CorrectAnsP,MasterCondFile,BlockOrder,CondFile,ColCheck,Triplicate_check,SORT_BY_SMALLEST,EPracticeOuterLoop.thisRepN,EPracticeOuterLoop.thisTrialN,EPracticeOuterLoop.thisN,EPracticeOuterLoop.thisIndex,EPracticeInnerLoop.thisRepN,EPracticeInnerLoop.thisTrialN,EPracticeInnerLoop.thisN,EPracticeInnerLoop.thisIndex,MasterLoop.thisRepN,MasterLoop.thisTrialN,MasterLoop.thisN,MasterLoop.thisIndex,OuterLoop.thisRepN,OuterLoop.thisTrialN,OuterLoop.thisN,OuterLoop.thisIndex,InnerLoop.thisRepN,InnerLoop.thisTrialN,InnerLoop.thisN,InnerLoop.thisIndex,text_13.started,text_13.stopped,key_resp_10.keys,key_resp_10.rt,key_resp_10.started,key_resp_10.stopped,text4.started,text4.stopped,EmotionTaskInstructions1.keys,EmotionTaskInstructions1.rt,EmotionTaskInstructions1.started,EmotionTaskInstructions1.stopped,text_4.started,text_4.stopped,key_resp_5.keys,key_resp_5.rt,key_resp_5.started,key_resp_5.stopped,Text_14.started,Text_14.stopped,key_resp_9.keys,key_resp_9.rt,key_resp_9.started,key_resp_9.stopped,text_5.started,text_5.stopped,text_6.started,text_6.stopped,key_resp_7.keys,key_resp_7.rt,key_resp_7.started,key_resp_7.stopped,text_10.started,text_10.stopped,text_11.started,text_11.stopped,text_12.started,text_12.stopped,ISIjitterPractice,EPracticeISIMarker.started,EPracticeISIMarker.stopped,Pract.keys,Pract.corr,Pract.started,Pract.stopped,PracticeFace.started,PracticeFace.stopped,ColourPractice.started,ColourPractice.stopped,text_7.started,text_7.stopped,Pract.rt,EndOfPractice.started,EndOfPractice.stopped,key_resp_8.keys,key_resp_8.rt,key_resp_8.started,key_resp_8.stopped,text_8.started,text_8.stopped,key_resp_6.keys,key_resp_6.rt,key_resp_6.started,key_resp_6.stopped,text_2.started,text_2.stopped,text_3.started,text_3.stopped,key_resp_3.keys,key_resp_3.rt,key_resp_3.started,key_resp_3.stopped,TaskBlock.started,TaskBlock.stopped,BlockNo1.started,BlockNo1.stopped,OfBlock.started,OfBlock.stopped,ISIjitter,ISImarker.started,ISImarker.stopped,key_resp.keys,key_resp.corr,key_resp.rt,key_resp.started,key_resp.stopped,FaceSet.started,FaceSet.stopped,Colour.started,Colour.stopped,EndBlockText.started,EndBlockText.stopped,key_resp_4.keys,key_resp_4.rt,key_resp_4.started,key_resp_4.stopped,BreakText2.started,BreakText2.stopped,PressToContinue.started,PressToContinue.stopped,participant,Study Name,Task Version (required to run),PRE/POST,date,expName,psychopyVersion,frameRate,
,,,,,,,,,,,,,,,,,,,,,,,,,,,,,,,,,30.26499710000644,None,space,56.088914699997986,31.254396500007715,None,,,,,,,,,,,,,,,,,,,,,,,,,,,,,,,,,,,,,,,,,,,,,,,,,,,,,,,,,,,,,,,,,,,,,,,,,,,,,,,,,,,,,,,,,,,,,,,P004,fencog,2,Pre,2021_Jul_09_1049,Go No-Go Task,2021.1.4,120.00249604298362,
,,,,,,,,,,,,,,,,,,,,,,,,,,,,,,,,,,,,,,,88.85854400000244,None,space,69.87049190000107,88.85854400000244,None,,,,,,,,,,,,,,,,,,,,,,,,,,,,,,,,,,,,,,,,,,,,,,,,,,,,,,,,,,,,,,,,,,,,,,,,,,,,,,,,,,,,,,,,,P004,fencog,2,Pre,2021_Jul_09_1049,Go No-Go Task,2021.1.4,120.00249604298362,
,,,,,,,,,,,,,,,,,,,,,,,,,,,,,,,,,,,,,,,,,,,,,158.79813080000167,None,space,12.921721399994567,158.79813080000167,None,,,,,,,,,,,,,,,,,,,,,,,,,,,,,,,,,,,,,,,,,,,,,,,,,,,,,,,,,,,,,,,,,,,,,,,,,,,,,,,,,,,P004,fencog,2,Pre,2021_Jul_09_1049,Go No-Go Task,2021.1.4,120.00249604298362,
,,,,,,,,,,,,,,,,,,,,,,,,,,,,,,,,,,,,,,,,,,,,,,,,,,,171.73350509999727,None,space,8.441907999993418,171.73350509999727,None,,,,,,,,,,,,,,,,,,,,,,,,,,,,,,,,,,,,,,,,,,,,,,,,,,,,,,,,,,,,,,,,,,,,,,,,,,,,,P004,fencog,2,Pre,2021_Jul_09_1049,Go No-Go Task,2021.1.4,120.00249604298362,
EPracticeConditions/BlueEyes.csv,"Rule: When you see a blue image, do not press 'spacebar'.",Images/Happy/HF10_HE.jpg,Happy,Yellow,Images/Yellow.jpg,space,,,,,,,0,0,0,0,0,0,0,7,,,,,,,,,,,,,,,,,,,,,,,,,,,,,,,,,,,,,180.25149370000872,None,183.24279200000456,None,space,2.493370700001833,183.24279200000456,None,180.25149370000872,None,180.25149370000872,None,180.25149370000872,None,1.7,185.83853180000733,None,None,0,187.68420970000443,None,187.68420970000443,None,187.68420970000443,None,189.05273200001102,None,,,,,,,,,,,,,,,,,,,,,,,,,,,,,,,,,,,,,,,,,,,,,,,,,,P004,fencog,2,Pre,2021_Jul_09_1049,Go No-Go Task,2021.1.4,120.00249604298362,
EPracticeConditions/BlueEyes.csv,"Rule: When you see a blue image, do not press 'spacebar'.",Images/Happy/HF04_HE.jpg,Happy,Yellow,Images/Yellow.jpg,space,,,,,,,0,0,0,0,0,1,1,4,,,,,,,,,,,,,,,,,,,,,,,,,,,,,,,,,,,,,,,,,,,,,,,,,,,1.6,190.58668020000914,None,None,0,192.29067220000434,None,192.29067220000434,None,192.29067220000434,None,193.19995059999928,None,,,,,,,,,,,,,,,,,,,,,,,,,,,,,,,,,,,,,,,,,,,,,,,,,,P004,fencog,2,Pre,2021_Jul_09_1049,Go No-Go Task,2021.1.4,120.00249604298362,
EPracticeConditions/BlueEyes.csv,"Rule: When you see a blue image, do not press 'spacebar'.",Images/Happy/HF09_HE.jpg,Happy,Yellow,Images/Yellow.jpg,space,,,,,,,0,0,0,0,0,2,2,6,,,,,,,,,,,,,,,,,,,,,,,,,,,,,,,,,,,,,,,,,,,,,,,,,,,1.4,195.19956930000626,None,space,1,196.69762370000535,None,196.69762370000535,None,196.69762370000535,None,197.60121990001062,None,0.17348450000281446,,,,,,,,,,,,,,,,,,,,,,,,,,,,,,,,,,,,,,,,,,,,,,,,,P004,fencog,2,Pre,2021_Jul_09_1049,Go No-Go Task,2021.1.4,120.00249604298362,
EPracticeConditions/BlueEyes.csv,"Rule: When you see a blue image, do not press 'spacebar'.",Images/Happy/HF05_HO.jpg,Happy,Yellow,Images/Yellow.jpg,space,,,,,,,0,0,0,0,0,3,3,5,,,,,,,,,,,,,,,,,,,,,,,,,,,,,,,,,,,,,,,,,,,,,,,,,,,1.3,199.60544490000757,None,None,0,201.00452719999885,None,201.00452719999885,None,201.00452719999885,None,201.90679900000396,None,,,,,,,,,,,,,,,,,,,,,,,,,,,,,,,,,,,,,,,,,,,,,,,,,,P004,fencog,2,Pre,2021_Jul_09_1049,Go No-Go Task,2021.1.4,120.00249604298362,
EPracticeConditions/BlueEyes.csv,"Rule: When you see a blue image, do not press 'spacebar'.",Images/Happy/BM08_HO.jpg,Happy,Yellow,Images/Yellow.jpg,space,,,,,,,0,0,0,0,0,4,4,3,,,,,,,,,,,,,,,,,,,,,,,,,,,,,,,,,,,,,,,,,,,,,,,,,,,1.2,203.91997290001018,None,space,1,205.22024950000923,None,205.22024950000923,None,205.22024950000923,None,206.12787650000246,None,0.3720961999933934,,,,,,,,,,,,,,,,,,,,,,,,,,,,,,,,,,,,,,,,,,,,,,,,,P004,fencog,2,Pre,2021_Jul_09_1049,Go No-Go Task,2021.1.4,120.00249604298362,
EPracticeConditions/BlueEyes.csv,"Rule: When you see a blue image, do not press 'spacebar'.",Images/Fearful/HM09_FC.jpg,Fear,Blue,Images/Blue.jpg,None,,,,,,,0,0,0,0,0,5,5,0,,,,,,,,,,,,,,,,,,,,,,,,,,,,,,,,,,,,,,,,,,,,,,,,,,,1.8,208.1284236000065,None,space,0,210.0354284000059,None,210.0354284000059,None,210.0354284000059,None,210.9386067000014,None,0.26733669999521226,,,,,,,,,,,,,,,,,,,,,,,,,,,,,,,,,,,,,,,,,,,,,,,,,P004,fencog,2,Pre,2021_Jul_09_1049,Go No-Go Task,2021.1.4,120.00249604298362,
EPracticeConditions/BlueEyes.csv,"Rule: When you see a blue image, do not press 'spacebar'.",Images/Happy/BM02_HO.jpg,Happy,Yellow,Images/Yellow.jpg,space,,,,,,,0,0,0,0,0,6,6,2,,,,,,,,,,,,,,,,,,,,,,,,,,,,,,,,,,,,,,,,,,,,,,,,,,,1.5,212.94209140000748,None,space,1,214.54211890000443,None,214.54211890000443,None,214.54211890000443,None,215.43254069999966,None,0.33678369999688584,,,,,,,,,,,,,,,,,,,,,,,,,,,,,,,,,,,,,,,,,,,,,,,,,P004,fencog,2,Pre,2021_Jul_09_1049,Go No-Go Task,2021.1.4,120.00249604298362,
EPracticeConditions/BlueEyes.csv,"Rule: When you see a blue image, do not press 'spacebar'.",Images/Fearful/AF01_FO.jpg,Fear,Blue,Images/Blue.jpg,None,,,,,,,0,0,0,0,0,7,7,1,,,,,,,,,,,,,,,,,,,,,,,,,,,,,,,,,,,,,,,,,,,,,,,,,,,1.9,217.43200650000654,None,None,1,219.43219770000724,None,219.43219770000724,None,219.43219770000724,None,220.32294700000784,None,,,,,,,,,,,,,,,,,,,,,,,,,,,,,,,,,,,,,,,,,,,,,,,,,,P004,fencog,2,Pre,2021_Jul_09_1049,Go No-Go Task,2021.1.4,120.00249604298362,
EPracticeConditions/BlueEyes.csv,"Rule: When you see a blue image, do not press 'spacebar'.",,,,,,,,,,,,0,0,0,0,,,,,,,,,,,,,,,,,,,,,,,,,,,,,,,,,,,,,,,,,,,,,,,,,,,,,,,,,,,,,,,,,,,,,,,,,,,,,,,,,,,,,,,,,,,,,,,,,,,,,,,,,,,,,,,,,,,,,P004,fencog,2,Pre,2021_Jul_09_1049,Go No-Go Task,2021.1.4,120.00249604298362,
EPracticeConditions/YellowEyes.csv,"Rule: When you see a yellow image, do not press 'spacebar'.",Images/Fearful/AM23AFS.jpg,Fear,Blue,Images/Blue.jpg,space,,,,,,,0,1,1,1,0,0,0,6,,,,,,,,,,,,,,,,,,,,,,,,,,,,,,,,,,,,,222.33984290000808,None,225.329968799997,None,space,5.181211900009657,225.329968799997,None,222.33984290000808,None,222.33984290000808,None,222.33984290000808,None,1.3,230.53270670000347,None,None,0,231.937302300008,None,231.937302300008,None,231.937302300008,None,232.83602309999696,None,,,,,,,,,,,,,,,,,,,,,,,,,,,,,,,,,,,,,,,,,,,,,,,,,,P004,fencog,2,Pre,2021_Jul_09_1049,Go No-Go Task,2021.1.4,120.00249604298362,
EPracticeConditions/YellowEyes.csv,"Rule: When you see a yellow image, do not press 'spacebar'.",Images/Fearful/AM22AFS.jpg,Fear,Blue,Images/Blue.jpg,space,,,,,,,0,1,1,1,0,1,1,5,,,,,,,,,,,,,,,,,,,,,,,,,,,,,,,,,,,,,,,,,,,,,,,,,,,1.9,234.83591780001007,None,space,1,236.8440730000002,None,236.8440730000002,None,236.8440730000002,None,237.73683010000968,None,0.34803029999602586,,,,,,,,,,,,,,,,,,,,,,,,,,,,,,,,,,,,,,,,,,,,,,,,,P004,fencog,2,Pre,2021_Jul_09_1049,Go No-Go Task,2021.1.4,120.00249604298362,
EPracticeConditions/YellowEyes.csv,"Rule: When you see a yellow image, do not press 'spacebar'.",Images/Fearful/AM16AFS.jpg,Fear,Blue,Images/Blue.jpg,space,,,,,,,0,1,1,1,0,2,2,2,,,,,,,,,,,,,,,,,,,,,,,,,,,,,,,,,,,,,,,,,,,,,,,,,,,1.7,239.74289920000592,None,space,1,241.54272330000822,None,241.54272330000822,None,241.54272330000822,None,242.44025600000168,None,0.35262320000038017,,,,,,,,,,,,,,,,,,,,,,,,,,,,,,,,,,,,,,,,,,,,,,,,,P004,fencog,2,Pre,2021_Jul_09_1049,Go No-Go Task,2021.1.4,120.00249604298362,
EPracticeConditions/YellowEyes.csv,"Rule: When you see a yellow image, do not press 'spacebar'.",Images/Happy/BF05_HO.jpg,Happy,Yellow,Images/Yellow.jpg,None,,,,,,,0,1,1,1,0,3,3,1,,,,,,,,,,,,,,,,,,,,,,,,,,,,,,,,,,,,,,,,,,,,,,,,,,,1.6,244.44262850000814,None,space,0,246.15795690000232,None,246.15795690000232,None,246.15795690000232,None,247.06264869999723,None,0.2651646000012988,,,,,,,,,,,,,,,,,,,,,,,,,,,,,,,,,,,,,,,,,,,,,,,,,P004,fencog,2,Pre,2021_Jul_09_1049,Go No-Go Task,2021.1.4,120.00249604298362,
EPracticeConditions/YellowEyes.csv,"Rule: When you see a yellow image, do not press 'spacebar'.",Images/Happy/AM32HAS.jpg,Happy,Yellow,Images/Yellow.jpg,None,,,,,,,0,1,1,1,0,4,4,0,,,,,,,,,,,,,,,,,,,,,,,,,,,,,,,,,,,,,,,,,,,,,,,,,,,1.4,249.05637230000866,None,None,1,250.55673039999965,None,250.55673039999965,None,250.55673039999965,None,251.46198430001095,None,,,,,,,,,,,,,,,,,,,,,,,,,,,,,,,,,,,,,,,,,,,,,,,,,,P004,fencog,2,Pre,2021_Jul_09_1049,Go No-Go Task,2021.1.4,120.00249604298362,
EPracticeConditions/YellowEyes.csv,"Rule: When you see a yellow image, do not press 'spacebar'.",Images/Fearful/AM24AFS.jpg,Fear,Blue,Images/Blue.jpg,space,,,,,,,0,1,1,1,0,5,5,7,,,,,,,,,,,,,,,,,,,,,,,,,,,,,,,,,,,,,,,,,,,,,,,,,,,1.2,253.4635530000087,None,space,1,254.76387750000868,None,254.76387750000868,None,254.76387750000868,None,255.65862270000798,None,0.2993525000056252,,,,,,,,,,,,,,,,,,,,,,,,,,,,,,,,,,,,,,,,,,,,,,,,,P004,fencog,2,Pre,2021_Jul_09_1049,Go No-Go Task,2021.1.4,120.00249604298362,
EPracticeConditions/YellowEyes.csv,"Rule: When you see a yellow image, do not press 'spacebar'.",Images/Fearful/AM17AFS.jpg,Fear,Blue,Images/Blue.jpg,space,,,,,,,0,1,1,1,0,6,6,3,,,,,,,,,,,,,,,,,,,,,,,,,,,,,,,,,,,,,,,,,,,,,,,,,,,1.8,257.66638370000874,None,space,1,259.57076290000987,None,259.57076290000987,None,259.57076290000987,None,260.4751102000009,None,0.3565647000068566,,,,,,,,,,,,,,,,,,,,,,,,,,,,,,,,,,,,,,,,,,,,,,,,,P004,fencog,2,Pre,2021_Jul_09_1049,Go No-Go Task,2021.1.4,120.00249604298362,
EPracticeConditions/YellowEyes.csv,"Rule: When you see a yellow image, do not press 'spacebar'.",Images/Fearful/AM19AFS.jpg,Fear,Blue,Images/Blue.jpg,space,,,,,,,0,1,1,1,0,7,7,4,,,,,,,,,,,,,,,,,,,,,,,,,,,,,,,,,,,,,,,,,,,,,,,,,,,1.5,262.4773447000043,None,space,1,264.07771800000046,None,264.07771800000046,None,264.07771800000046,None,264.9737979000056,None,0.3133131999929901,,,,,,,,,,,,,,,,,,,,,,,,,,,,,,,,,,,,,,,,,,,,,,,,,P004,fencog,2,Pre,2021_Jul_09_1049,Go No-Go Task,2021.1.4,120.00249604298362,
EPracticeConditions/YellowEyes.csv,"Rule: When you see a yellow image, do not press 'spacebar'.",,,,,,,,,,,,0,1,1,1,,,,,,,,,,,,,,,,,,,,,,,,,,,,,,,,,,,,,,,,,,,,,,,,,,,,,,,,,,,,,,,,,,,,,,,,,,,,,,,,,,,,,,,,,,,,,,,,,,,,,,,,,,,,,,,,,,,,,P004,fencog,2,Pre,2021_Jul_09_1049,Go No-Go Task,2021.1.4,120.00249604298362,
EPracticeConditions/BlueScram.csv,"Rule: When you see a blue image, do not press 'spacebar'.",Images/Scram1/BM08_NC.jpg,Scramble,Blue,Images/Blue.jpg,None,,,,,,,0,2,2,2,0,0,0,0,,,,,,,,,,,,,,,,,,,,,,,,,,,,,,,,,,,,,266.98834900000656,None,269.9766204000043,None,space,4.110660599995754,269.9766204000043,None,266.98834900000656,None,266.98834900000656,None,266.98834900000656,None,1.4,274.10487229999853,None,None,1,275.61572260000685,None,275.61572260000685,None,275.61572260000685,None,276.50802570000815,None,,,,,,,,,,,,,,,,,,,,,,,,,,,,,,,,,,,,,,,,,,,,,,,,,,P004,fencog,2,Pre,2021_Jul_09_1049,Go No-Go Task,2021.1.4,120.00249604298362,
EPracticeConditions/BlueScram.csv,"Rule: When you see a blue image, do not press 'spacebar'.",Images/Scram2/AF10_NC.jpg,Scramble,Yellow,Images/Yellow.jpg,space,,,,,,,0,2,2,2,0,1,1,2,,,,,,,,,,,,,,,,,,,,,,,,,,,,,,,,,,,,,,,,,,,,,,,,,,,1.8,278.5150130000111,None,space,1,280.4229656000098,None,280.4229656000098,None,280.4229656000098,None,281.3167598,None,0.248801400011871,,,,,,,,,,,,,,,,,,,,,,,,,,,,,,,,,,,,,,,,,,,,,,,,,P004,fencog,2,Pre,2021_Jul_09_1049,Go No-Go Task,2021.1.4,120.00249604298362,
EPracticeConditions/BlueScram.csv,"Rule: When you see a blue image, do not press 'spacebar'.",Images/Scram1/AM04_NC.jpg,Scramble,Yellow,Images/Yellow.jpg,space,,,,,,,0,2,2,2,0,2,2,3,,,,,,,,,,,,,,,,,,,,,,,,,,,,,,,,,,,,,,,,,,,,,,,,,,,1.3,283.32282210000267,None,space,1,284.730003100005,None,284.730003100005,None,284.730003100005,None,285.62055240001064,None,0.3016377000021748,,,,,,,,,,,,,,,,,,,,,,,,,,,,,,,,,,,,,,,,,,,,,,,,,P004,fencog,2,Pre,2021_Jul_09_1049,Go No-Go Task,2021.1.4,120.00249604298362,
EPracticeConditions/BlueScram.csv,"Rule: When you see a blue image, do not press 'spacebar'.",Images/Scram1/AM13NES.jpg,Scramble,Yellow,Images/Yellow.jpg,space,,,,,,,0,2,2,2,0,3,3,5,,,,,,,,,,,,,,,,,,,,,,,,,,,,,,,,,,,,,,,,,,,,,,,,,,,1.9,287.62039560000994,None,None,0,289.6284728000028,None,289.6284728000028,None,289.6284728000028,None,290.5303091000096,None,,,,,,,,,,,,,,,,,,,,,,,,,,,,,,,,,,,,,,,,,,,,,,,,,,P004,fencog,2,Pre,2021_Jul_09_1049,Go No-Go Task,2021.1.4,120.00249604298362,
EPracticeConditions/BlueScram.csv,"Rule: When you see a blue image, do not press 'spacebar'.",Images/Scram2/AM03_NC.jpg,Scramble,Yellow,Images/Yellow.jpg,space,,,,,,,0,2,2,2,0,4,4,6,,,,,,,,,,,,,,,,,,,,,,,,,,,,,,,,,,,,,,,,,,,,,,,,,,,1.2,292.5352685000107,None,space,1,293.8357293000008,None,293.8357293000008,None,293.8357293000008,None,294.73263890000817,None,0.2673227999912342,,,,,,,,,,,,,,,,,,,,,,,,,,,,,,,,,,,,,,,,,,,,,,,,,P004,fencog,2,Pre,2021_Jul_09_1049,Go No-Go Task,2021.1.4,120.00249604298362,
EPracticeConditions/BlueScram.csv,"Rule: When you see a blue image, do not press 'spacebar'.",Images/Scram1/AM03NES.jpg,Scramble,Yellow,Images/Yellow.jpg,space,,,,,,,0,2,2,2,0,5,5,4,,,,,,,,,,,,,,,,,,,,,,,,,,,,,,,,,,,,,,,,,,,,,,,,,,,1.6,296.73516070000187,None,None,0,298.4425773000112,None,298.4425773000112,None,298.4425773000112,None,299.34144230000675,None,,,,,,,,,,,,,,,,,,,,,,,,,,,,,,,,,,,,,,,,,,,,,,,,,,P004,fencog,2,Pre,2021_Jul_09_1049,Go No-Go Task,2021.1.4,120.00249604298362,
EPracticeConditions/BlueScram.csv,"Rule: When you see a blue image, do not press 'spacebar'.",Images/Scram2/AF25NES.jpg,Scramble,Yellow,Images/Yellow.jpg,space,,,,,,,0,2,2,2,0,6,6,7,,,,,,,,,,,,,,,,,,,,,,,,,,,,,,,,,,,,,,,,,,,,,,,,,,,1.5,301.34056370001053,None,space,1,302.93292449999717,None,302.93292449999717,None,302.93292449999717,None,303.83180359999824,None,0.21803439999348484,,,,,,,,,,,,,,,,,,,,,,,,,,,,,,,,,,,,,,,,,,,,,,,,,P004,fencog,2,Pre,2021_Jul_09_1049,Go No-Go Task,2021.1.4,120.00249604298362,
EPracticeConditions/BlueScram.csv,"Rule: When you see a blue image, do not press 'spacebar'.",Images/Scram1/BF18_NC.jpg,Scramble,Blue,Images/Blue.jpg,None,,,,,,,0,2,2,2,0,7,7,1,,,,,,,,,,,,,,,,,,,,,,,,,,,,,,,,,,,,,,,,,,,,,,,,,,,1.7,305.83453560000635,None,None,1,307.6397943000047,None,307.6397943000047,None,307.6397943000047,None,308.53871520000394,None,,,,,,,,,,,,,,,,,,,,,,,,,,,,,,,,,,,,,,,,,,,,,,,,,,P004,fencog,2,Pre,2021_Jul_09_1049,Go No-Go Task,2021.1.4,120.00249604298362,
EPracticeConditions/BlueScram.csv,"Rule: When you see a blue image, do not press 'spacebar'.",,,,,,,,,,,,0,2,2,2,,,,,,,,,,,,,,,,,,,,,,,,,,,,,,,,,,,,,,,,,,,,,,,,,,,,,,,,,,,,,,,,,,,,,,,,,,,,,,,,,,,,,,,,,,,,,,,,,,,,,,,,,,,,,,,,,,,,,P004,fencog,2,Pre,2021_Jul_09_1049,Go No-Go Task,2021.1.4,120.00249604298362,
EPracticeConditions/YellowScram.csv,"Rule: When you see a yellow image, do not press 'spacebar'.",Images/Scram1/AF07NES.jpg,Scramble,Blue,Images/Blue.jpg,space,,,,,,,0,3,3,3,0,0,0,3,,,,,,,,,,,,,,,,,,,,,,,,,,,,,,,,,,,,,310.5496189999976,None,313.5373149000079,None,space,1.8057695000024978,313.5373149000079,None,310.5496189999976,None,310.5496189999976,None,310.5496189999976,None,1.9,315.36665599999833,None,space,1,317.37033879999944,None,317.37033879999944,None,317.37033879999944,None,318.27530890000344,None,0.1966032000054838,,,,,,,,,,,,,,,,,,,,,,,,,,,,,,,,,,,,,,,,,,,,,,,,,P004,fencog,2,Pre,2021_Jul_09_1049,Go No-Go Task,2021.1.4,120.00249604298362,
EPracticeConditions/YellowScram.csv,"Rule: When you see a yellow image, do not press 'spacebar'.",Images/Scram1/HF04_NC.jpg,Scramble,Blue,Images/Blue.jpg,space,,,,,,,0,3,3,3,0,1,1,2,,,,,,,,,,,,,,,,,,,,,,,,,,,,,,,,,,,,,,,,,,,,,,,,,,,1.5,320.2808406999975,None,space,1,321.8940678000072,None,321.8940678000072,None,321.8940678000072,None,322.7844138000073,None,0.2091671999951359,,,,,,,,,,,,,,,,,,,,,,,,,,,,,,,,,,,,,,,,,,,,,,,,,P004,fencog,2,Pre,2021_Jul_09_1049,Go No-Go Task,2021.1.4,120.00249604298362,
EPracticeConditions/YellowScram.csv,"Rule: When you see a yellow image, do not press 'spacebar'.",Images/Scram2/AM03NES.jpg,Scramble,Yellow,Images/Yellow.jpg,None,,,,,,,0,3,3,3,0,2,2,1,,,,,,,,,,,,,,,,,,,,,,,,,,,,,,,,,,,,,,,,,,,,,,,,,,,1.4,324.7854568000039,None,None,1,326.2927720000007,None,326.2927720000007,None,326.2927720000007,None,327.1884648999985,None,,,,,,,,,,,,,,,,,,,,,,,,,,,,,,,,,,,,,,,,,,,,,,,,,,P004,fencog,2,Pre,2021_Jul_09_1049,Go No-Go Task,2021.1.4,120.00249604298362,
EPracticeConditions/YellowScram.csv,"Rule: When you see a yellow image, do not press 'spacebar'.",Images/Scram1/BM01_NC.jpg,Scramble,Blue,Images/Blue.jpg,space,,,,,,,0,3,3,3,0,3,3,5,,,,,,,,,,,,,,,,,,,,,,,,,,,,,,,,,,,,,,,,,,,,,,,,,,,1.8,329.1924762999988,None,space,1,331.099732600007,None,331.099732600007,None,331.099732600007,None,332.0054639000009,None,0.2913376999931643,,,,,,,,,,,,,,,,,,,,,,,,,,,,,,,,,,,,,,,,,,,,,,,,,P004,fencog,2,Pre,2021_Jul_09_1049,Go No-Go Task,2021.1.4,120.00249604298362,
EPracticeConditions/YellowScram.csv,"Rule: When you see a yellow image, do not press 'spacebar'.",Images/Scram1/AF24NES.jpg,Scramble,Blue,Images/Blue.jpg,space,,,,,,,0,3,3,3,0,4,4,7,,,,,,,,,,,,,,,,,,,,,,,,,,,,,,,,,,,,,,,,,,,,,,,,,,,1.3,334.0061505000049,None,space,1,335.406787800006,None,335.406787800006,None,335.406787800006,None,336.3093405000109,None,0.3199380000005476,,,,,,,,,,,,,,,,,,,,,,,,,,,,,,,,,,,,,,,,,,,,,,,,,P004,fencog,2,Pre,2021_Jul_09_1049,Go No-Go Task,2021.1.4,120.00249604298362,
EPracticeConditions/YellowScram.csv,"Rule: When you see a yellow image, do not press 'spacebar'.",Images/Scram1/AF10_NC.jpg,Scramble,Blue,Images/Blue.jpg,space,,,,,,,0,3,3,3,0,5,5,6,,,,,,,,,,,,,,,,,,,,,,,,,,,,,,,,,,,,,,,,,,,,,,,,,,,1.2,338.31488780000655,None,space,1,339.61362790000567,None,339.61362790000567,None,339.61362790000567,None,340.5104919000005,None,0.28193550001014955,,,,,,,,,,,,,,,,,,,,,,,,,,,,,,,,,,,,,,,,,,,,,,,,,P004,fencog,2,Pre,2021_Jul_09_1049,Go No-Go Task,2021.1.4,120.00249604298362,
EPracticeConditions/YellowScram.csv,"Rule: When you see a yellow image, do not press 'spacebar'.",Images/Scram2/HM06_NC.jpg,Scramble,Yellow,Images/Yellow.jpg,None,,,,,,,0,3,3,3,0,6,6,0,,,,,,,,,,,,,,,,,,,,,,,,,,,,,,,,,,,,,,,,,,,,,,,,,,,1.7,342.5120861000032,None,None,1,344.31239110000024,None,344.31239110000024,None,344.31239110000024,None,345.2163741999975,None,,,,,,,,,,,,,,,,,,,,,,,,,,,,,,,,,,,,,,,,,,,,,,,,,,P004,fencog,2,Pre,2021_Jul_09_1049,Go No-Go Task,2021.1.4,120.00249604298362,
EPracticeConditions/YellowScram.csv,"Rule: When you see a yellow image, do not press 'spacebar'.",Images/Scram1/AF30NES.JPG,Scramble,Blue,Images/Blue.jpg,space,,,,,,,0,3,3,3,0,7,7,4,,,,,,,,,,,,,,,,,,,,,,,,,,,,,,,,,,,,,,,,,,,,,,,,,,,1.6,347.2188335000101,None,None,0,348.9192960000073,None,348.9192960000073,None,348.9192960000073,None,349.82393410000077,None,,,,,,,,,,,,,,,,,,,,,,,,,,,,,,,,,,,,,,,,,,,,,,,,,,P004,fencog,2,Pre,2021_Jul_09_1049,Go No-Go Task,2021.1.4,120.00249604298362,
EPracticeConditions/YellowScram.csv,"Rule: When you see a yellow image, do not press 'spacebar'.",,,,,,,,,,,,0,3,3,3,,,,,,,,,,,,,,,,,,,,,,,,,,,,,,,,,,,,,,,,,,,,,,,,,,,,,,,,,,,,,,,,,,,,,,,,,,,,,,,,,,,,,,,,,,,,,,,,,,,,,,,,,,,,,,,,,,,,,P004,fencog,2,Pre,2021_Jul_09_1049,Go No-Go Task,2021.1.4,120.00249604298362,
,,,,,,,,,,,,,,,,,,,,,,,,,,,,,,,,,,,,,,,,,,,,,,,,,,,,,,,,,,,,,,,,,,,,,,,,,,,,,,,,,,,,,353.2109111000027,None,space,7.498607799992897,353.6921624000097,None,,,,,,,,,,,,,,,,,,,,,,,,,,,,,,,,,,,,,,,,,,,P004,fencog,2,Pre,2021_Jul_09_1049,Go No-Go Task,2021.1.4,120.00249604298362,
,,,,,,,,,,,,,,,,,,,,,,,,,,,,,,,,,,,,,,,,,,,,,,,,,,,,,,,,,,,,,,,,,,,,,,,,,,,,,,,,,,,,,,,,,,,361.19978350000747,None,space,2.2555105999927036,361.19978350000747,None,,,,,,,,,,,,,,,,,,,,,,,,,,,,,,,,,,,,,P004,fencog,2,Pre,2021_Jul_09_1049,Go No-Go Task,2021.1.4,120.00249604298362,
,"Rule: When you see a yellow image, do not press 'spacebar'.",Images/Fearful/BM02_FC.jpg,Fear,Blue,Images/Blue.jpg,space,ParentConditions/YellowBlueBlue_v2.xlsx,BlueBlueYellow,Conditions/Version_2/YellowHappyStop.xlsx,no,PASS,0.16858645908030467,,,,,,,,,0,0,0,0,0,0,0,0,0,0,0,0,,,,,,,,,,,,,,,,,,,,,,,,,,,,,,,,,,,,,,,,,,,,,,,,,,,,,,,,,,,,,,,,,363.5341625000001,None,366.5219911000022,None,space,4.380715399995097,366.5219911000022,None,363.5341625000001,None,363.5341625000001,None,363.5341625000001,None,1.3,370.9519583000074,None,space,1,0.3725771000026725,372.35421700000006,None,372.35421700000006,None,372.35421700000006,None,,,,,,,,,,,P004,fencog,2,Pre,2021_Jul_09_1049,Go No-Go Task,2021.1.4,120.00249604298362,
,"Rule: When you see a yellow image, do not press 'spacebar'.",Images/Fearful/HF05_FC.jpg,Fear,Blue,Images/Blue.jpg,space,ParentConditions/YellowBlueBlue_v2.xlsx,BlueBlueYellow,Conditions/Version_2/YellowHappyStop.xlsx,no,PASS,0.9484055972569129,,,,,,,,,0,0,0,0,0,0,0,0,0,1,1,1,,,,,,,,,,,,,,,,,,,,,,,,,,,,,,,,,,,,,,,,,,,,,,,,,,,,,,,,,,,,,,,,,,,,,,,,,,,,,,,1.72,372.7541772000113,None,space,1,0.25285629999416415,374.57004230000894,None,374.57004230000894,None,374.57004230000894,None,,,,,,,,,,,P004,fencog,2,Pre,2021_Jul_09_1049,Go No-Go Task,2021.1.4,120.00249604298362,
,"Rule: When you see a yellow image, do not press 'spacebar'.",Images/Happy/AF32HAS.jpg,Happy,Yellow,Images/Yellow.jpg,None,ParentConditions/YellowBlueBlue_v2.xlsx,BlueBlueYellow,Conditions/Version_2/YellowHappyStop.xlsx,yes,PASS,0.508887905761459,,,,,,,,,0,0,0,0,0,0,0,0,0,2,2,2,,,,,,,,,,,,,,,,,,,,,,,,,,,,,,,,,,,,,,,,,,,,,,,,,,,,,,,,,,,,,,,,,,,,,,,,,,,,,,,1.64,374.9696464000008,None,space,0,0.2239356000063708,376.71113680000417,None,376.71113680000417,None,376.71113680000417,None,,,,,,,,,,,P004,fencog,2,Pre,2021_Jul_09_1049,Go No-Go Task,2021.1.4,120.00249604298362,
,"Rule: When you see a yellow image, do not press 'spacebar'.",Images/Happy/AM32HAS.jpg,Happy,Yellow,Images/Yellow.jpg,None,ParentConditions/YellowBlueBlue_v2.xlsx,BlueBlueYellow,Conditions/Version_2/YellowHappyStop.xlsx,yes,PASS,0.12877007601010582,,,,,,,,,0,0,0,0,0,0,0,0,0,3,3,3,,,,,,,,,,,,,,,,,,,,,,,,,,,,,,,,,,,,,,,,,,,,,,,,,,,,,,,,,,,,,,,,,,,,,,,,,,,,,,,1.83,377.11054700000386,None,None,1,,379.04393790000177,None,379.04393790000177,None,379.04393790000177,None,,,,,,,,,,,P004,fencog,2,Pre,2021_Jul_09_1049,Go No-Go Task,2021.1.4,120.00249604298362,
,"Rule: When you see a yellow image, do not press 'spacebar'.",Images/Fearful/AF07FS.jpg,Fear,Blue,Images/Blue.jpg,space,ParentConditions/YellowBlueBlue_v2.xlsx,BlueBlueYellow,Conditions/Version_2/YellowHappyStop.xlsx,no,PASS,0.4320382618493961,,,,,,,,,0,0,0,0,0,0,0,0,0,4,4,4,,,,,,,,,,,,,,,,,,,,,,,,,,,,,,,,,,,,,,,,,,,,,,,,,,,,,,,,,,,,,,,,,,,,,,,,,,,,,,,1.81,379.4431381000031,None,space,1,0.24743050000688527,381.3597027000069,None,381.3597027000069,None,381.3597027000069,None,,,,,,,,,,,P004,fencog,2,Pre,2021_Jul_09_1049,Go No-Go Task,2021.1.4,120.00249604298362,
,"Rule: When you see a yellow image, do not press 'spacebar'.",Images/Fearful/AM30AFS.jpg,Fear,Blue,Images/Blue.jpg,space,ParentConditions/YellowBlueBlue_v2.xlsx,BlueBlueYellow,Conditions/Version_2/YellowHappyStop.xlsx,no,PASS,0.14164593092902533,,,,,,,,,0,0,0,0,0,0,0,0,0,5,5,5,,,,,,,,,,,,,,,,,,,,,,,,,,,,,,,,,,,,,,,,,,,,,,,,,,,,,,,,,,,,,,,,,,,,,,,,,,,,,,,1.34,381.7586716000078,None,None,0,,383.20084119999956,None,383.20084119999956,None,383.20084119999956,None,,,,,,,,,,,P004,fencog,2,Pre,2021_Jul_09_1049,Go No-Go Task,2021.1.4,120.00249604298362,
,"Rule: When you see a yellow image, do not press 'spacebar'.",Images/Happy/BM03_HO.jpg,Happy,Yellow,Images/Yellow.jpg,None,ParentConditions/YellowBlueBlue_v2.xlsx,BlueBlueYellow,Conditions/Version_2/YellowHappyStop.xlsx,yes,PASS,0.824528473694533,,,,,,,,,0,0,0,0,0,0,0,0,0,6,6,6,,,,,,,,,,,,,,,,,,,,,,,,,,,,,,,,,,,,,,,,,,,,,,,,,,,,,,,,,,,,,,,,,,,,,,,,,,,,,,,1.57,383.60150160000194,None,None,1,,385.2751047000056,None,385.2751047000056,None,385.2751047000056,None,,,,,,,,,,,P004,fencog,2,Pre,2021_Jul_09_1049,Go No-Go Task,2021.1.4,120.00249604298362,
,"Rule: When you see a yellow image, do not press 'spacebar'.",Images/Fearful/HM06_FC.jpg,Fear,Blue,Images/Blue.jpg,space,ParentConditions/YellowBlueBlue_v2.xlsx,BlueBlueYellow,Conditions/Version_2/YellowHappyStop.xlsx,no,PASS,0.06881493513979675,,,,,,,,,0,0,0,0,0,0,0,0,0,7,7,7,,,,,,,,,,,,,,,,,,,,,,,,,,,,,,,,,,,,,,,,,,,,,,,,,,,,,,,,,,,,,,,,,,,,,,,,,,,,,,,1.98,385.67566459999944,None,space,1,0.20902229999774136,387.7578060000087,None,387.7578060000087,None,387.7578060000087,None,,,,,,,,,,,P004,fencog,2,Pre,2021_Jul_09_1049,Go No-Go Task,2021.1.4,120.00249604298362,
,"Rule: When you see a yellow image, do not press 'spacebar'.",Images/Fearful/AF19AFS.jpg,Fear,Blue,Images/Blue.jpg,space,ParentConditions/YellowBlueBlue_v2.xlsx,BlueBlueYellow,Conditions/Version_2/YellowHappyStop.xlsx,no,PASS,0.6194516353064884,,,,,,,,,0,0,0,0,0,0,0,0,0,8,8,8,,,,,,,,,,,,,,,,,,,,,,,,,,,,,,,,,,,,,,,,,,,,,,,,,,,,,,,,,,,,,,,,,,,,,,,,,,,,,,,1.93,388.16068970000197,None,space,1,0.34514689999923576,390.1988565000065,None,390.1988565000065,None,390.1988565000065,None,,,,,,,,,,,P004,fencog,2,Pre,2021_Jul_09_1049,Go No-Go Task,2021.1.4,120.00249604298362,
,"Rule: When you see a yellow image, do not press 'spacebar'.",Images/Happy/AF30HAS.jpg,Happy,Yellow,Images/Yellow.jpg,None,ParentConditions/YellowBlueBlue_v2.xlsx,BlueBlueYellow,Conditions/Version_2/YellowHappyStop.xlsx,yes,PASS,0.7783721125891628,,,,,,,,,0,0,0,0,0,0,0,0,0,9,9,9,,,,,,,,,,,,,,,,,,,,,,,,,,,,,,,,,,,,,,,,,,,,,,,,,,,,,,,,,,,,,,,,,,,,,,,,,,,,,,,1.73,390.6076622999972,None,None,1,,392.4399029000051,None,392.4399029000051,None,392.4399029000051,None,,,,,,,,,,,P004,fencog,2,Pre,2021_Jul_09_1049,Go No-Go Task,2021.1.4,120.00249604298362,
,"Rule: When you see a yellow image, do not press 'spacebar'.",Images/Fearful/AF25AFS.jpg,Fear,Blue,Images/Blue.jpg,space,ParentConditions/YellowBlueBlue_v2.xlsx,BlueBlueYellow,Conditions/Version_2/YellowHappyStop.xlsx,no,PASS,0.9528113424204139,,,,,,,,,0,0,0,0,0,0,0,0,0,10,10,10,,,,,,,,,,,,,,,,,,,,,,,,,,,,,,,,,,,,,,,,,,,,,,,,,,,,,,,,,,,,,,,,,,,,,,,,,,,,,,,1.54,392.84240750000754,None,space,1,0.32597079999686684,394.4892131000088,None,394.4892131000088,None,394.4892131000088,None,,,,,,,,,,,P004,fencog,2,Pre,2021_Jul_09_1049,Go No-Go Task,2021.1.4,120.00249604298362,
,"Rule: When you see a yellow image, do not press 'spacebar'.",Images/Fearful/AF30AFS.jpg,Fear,Blue,Images/Blue.jpg,space,ParentConditions/YellowBlueBlue_v2.xlsx,BlueBlueYellow,Conditions/Version_2/YellowHappyStop.xlsx,no,PASS,0.022094815080431318,,,,,,,,,0,0,0,0,0,0,0,0,0,11,11,11,,,,,,,,,,,,,,,,,,,,,,,,,,,,,,,,,,,,,,,,,,,,,,,,,,,,,,,,,,,,,,,,,,,,,,,,,,,,,,,1.92,394.8910967999982,None,space,1,0.28583809999690857,396.9134403000062,None,396.9134403000062,None,396.9134403000062,None,,,,,,,,,,,P004,fencog,2,Pre,2021_Jul_09_1049,Go No-Go Task,2021.1.4,120.00249604298362,
,"Rule: When you see a yellow image, do not press 'spacebar'.",Images/Happy/BF10_HO.jpg,Happy,Yellow,Images/Yellow.jpg,None,ParentConditions/YellowBlueBlue_v2.xlsx,BlueBlueYellow,Conditions/Version_2/YellowHappyStop.xlsx,yes,PASS,0.5001600173303757,,,,,,,,,0,0,0,0,0,0,0,0,0,12,12,12,,,,,,,,,,,,,,,,,,,,,,,,,,,,,,,,,,,,,,,,,,,,,,,,,,,,,,,,,,,,,,,,,,,,,,,,,,,,,,,1.6,397.3150445000065,None,None,1,,399.02102630000445,None,399.02102630000445,None,399.02102630000445,None,,,,,,,,,,,P004,fencog,2,Pre,2021_Jul_09_1049,Go No-Go Task,2021.1.4,120.00249604298362,
,"Rule: When you see a yellow image, do not press 'spacebar'.",Images/Fearful/AM06_FO.jpg,Fear,Blue,Images/Blue.jpg,space,ParentConditions/YellowBlueBlue_v2.xlsx,BlueBlueYellow,Conditions/Version_2/YellowHappyStop.xlsx,no,PASS,0.578262378462087,,,,,,,,,0,0,0,0,0,0,0,0,0,13,13,13,,,,,,,,,,,,,,,,,,,,,,,,,,,,,,,,,,,,,,,,,,,,,,,,,,,,,,,,,,,,,,,,,,,,,,,,,,,,,,,1.8,399.4244069999986,None,space,1,0.2544327999930829,401.3288753000088,None,401.3288753000088,None,401.3288753000088,None,,,,,,,,,,,P004,fencog,2,Pre,2021_Jul_09_1049,Go No-Go Task,2021.1.4,120.00249604298362,
,"Rule: When you see a yellow image, do not press 'spacebar'.",Images/Happy/AM24HAS.jpg,Happy,Yellow,Images/Yellow.jpg,None,ParentConditions/YellowBlueBlue_v2.xlsx,BlueBlueYellow,Conditions/Version_2/YellowHappyStop.xlsx,yes,PASS,0.39484184444569004,,,,,,,,,0,0,0,0,0,0,0,0,0,14,14,14,,,,,,,,,,,,,,,,,,,,,,,,,,,,,,,,,,,,,,,,,,,,,,,,,,,,,,,,,,,,,,,,,,,,,,,,,,,,,,,1.82,401.73249960000976,None,None,1,,403.65320580000116,None,403.65320580000116,None,403.65320580000116,None,,,,,,,,,,,P004,fencog,2,Pre,2021_Jul_09_1049,Go No-Go Task,2021.1.4,120.00249604298362,
,"Rule: When you see a yellow image, do not press 'spacebar'.",Images/Fearful/AF21AFS.jpg,Fear,Blue,Images/Blue.jpg,space,ParentConditions/YellowBlueBlue_v2.xlsx,BlueBlueYellow,Conditions/Version_2/YellowHappyStop.xlsx,no,PASS,0.6432231069793333,,,,,,,,,0,0,0,0,0,0,0,0,0,15,15,15,,,,,,,,,,,,,,,,,,,,,,,,,,,,,,,,,,,,,,,,,,,,,,,,,,,,,,,,,,,,,,,,,,,,,,,,,,,,,,,1.79,404.0527143000072,None,space,1,0.23118849999445956,405.94408359999943,None,405.94408359999943,None,405.94408359999943,None,,,,,,,,,,,P004,fencog,2,Pre,2021_Jul_09_1049,Go No-Go Task,2021.1.4,120.00249604298362,
,"Rule: When you see a yellow image, do not press 'spacebar'.",Images/Happy/AM06_HC.jpg,Happy,Yellow,Images/Yellow.jpg,None,ParentConditions/YellowBlueBlue_v2.xlsx,BlueBlueYellow,Conditions/Version_2/YellowHappyStop.xlsx,yes,PASS,0.7943976294198472,,,,,,,,,0,0,0,0,0,0,0,0,0,16,16,16,,,,,,,,,,,,,,,,,,,,,,,,,,,,,,,,,,,,,,,,,,,,,,,,,,,,,,,,,,,,,,,,,,,,,,,,,,,,,,,1.52,406.34701720000885,None,None,1,,407.96885669999756,None,407.96885669999756,None,407.96885669999756,None,,,,,,,,,,,P004,fencog,2,Pre,2021_Jul_09_1049,Go No-Go Task,2021.1.4,120.00249604298362,
,"Rule: When you see a yellow image, do not press 'spacebar'.",Images/Fearful/AF10_FC.jpg,Fear,Blue,Images/Blue.jpg,space,ParentConditions/YellowBlueBlue_v2.xlsx,BlueBlueYellow,Conditions/Version_2/YellowHappyStop.xlsx,no,PASS,0.4387172057805456,,,,,,,,,0,0,0,0,0,0,0,0,0,17,17,17,,,,,,,,,,,,,,,,,,,,,,,,,,,,,,,,,,,,,,,,,,,,,,,,,,,,,,,,,,,,,,,,,,,,,,,,,,,,,,,1.62,408.3700009000022,None,space,1,0.25017929999739863,410.09289040000294,None,410.09289040000294,None,410.09289040000294,None,,,,,,,,,,,P004,fencog,2,Pre,2021_Jul_09_1049,Go No-Go Task,2021.1.4,120.00249604298362,
,"Rule: When you see a yellow image, do not press 'spacebar'.",Images/Fearful/BM03_FC.jpg,Fear,Blue,Images/Blue.jpg,space,ParentConditions/YellowBlueBlue_v2.xlsx,BlueBlueYellow,Conditions/Version_2/YellowHappyStop.xlsx,no,PASS,0.20170262712346598,,,,,,,,,0,0,0,0,0,0,0,0,0,18,18,18,,,,,,,,,,,,,,,,,,,,,,,,,,,,,,,,,,,,,,,,,,,,,,,,,,,,,,,,,,,,,,,,,,,,,,,,,,,,,,,1.96,410.4935134999978,None,space,1,0.280490600009216,412.55883550000726,None,412.55883550000726,None,412.55883550000726,None,,,,,,,,,,,P004,fencog,2,Pre,2021_Jul_09_1049,Go No-Go Task,2021.1.4,120.00249604298362,
,"Rule: When you see a yellow image, do not press 'spacebar'.",Images/Fearful/HM09_FC.jpg,Fear,Blue,Images/Blue.jpg,space,ParentConditions/YellowBlueBlue_v2.xlsx,BlueBlueYellow,Conditions/Version_2/YellowHappyStop.xlsx,no,PASS,0.15976906823467862,,,,,,,,,0,0,0,0,0,0,0,0,0,19,19,19,,,,,,,,,,,,,,,,,,,,,,,,,,,,,,,,,,,,,,,,,,,,,,,,,,,,,,,,,,,,,,,,,,,,,,,,,,,,,,,1.21,412.9592970000085,None,space,1,0.34797879999678116,414.2750881000102,None,414.2750881000102,None,414.2750881000102,None,,,,,,,,,,,P004,fencog,2,Pre,2021_Jul_09_1049,Go No-Go Task,2021.1.4,120.00249604298362,
,"Rule: When you see a yellow image, do not press 'spacebar'.",Images/Fearful/AM04_FO.jpg,Fear,Blue,Images/Blue.jpg,space,ParentConditions/YellowBlueBlue_v2.xlsx,BlueBlueYellow,Conditions/Version_2/YellowHappyStop.xlsx,no,PASS,0.7842232797128176,,,,,,,,,0,0,0,0,0,0,0,0,0,20,20,20,,,,,,,,,,,,,,,,,,,,,,,,,,,,,,,,,,,,,,,,,,,,,,,,,,,,,,,,,,,,,,,,,,,,,,,,,,,,,,,1.76,414.67485940000915,None,space,1,0.28267679999407846,416.5410118,None,416.5410118,None,416.5410118,None,,,,,,,,,,,P004,fencog,2,Pre,2021_Jul_09_1049,Go No-Go Task,2021.1.4,120.00249604298362,
,"Rule: When you see a yellow image, do not press 'spacebar'.",Images/Fearful/AF11AFS.jpg,Fear,Blue,Images/Blue.jpg,space,ParentConditions/YellowBlueBlue_v2.xlsx,BlueBlueYellow,Conditions/Version_2/YellowHappyStop.xlsx,no,PASS,0.5758948553509043,,,,,,,,,0,0,0,0,0,0,0,0,0,21,21,21,,,,,,,,,,,,,,,,,,,,,,,,,,,,,,,,,,,,,,,,,,,,,,,,,,,,,,,,,,,,,,,,,,,,,,,,,,,,,,,1.84,416.9411822999973,None,space,1,0.2849815000081435,418.88206660001015,None,418.88206660001015,None,418.88206660001015,None,,,,,,,,,,,P004,fencog,2,Pre,2021_Jul_09_1049,Go No-Go Task,2021.1.4,120.00249604298362,
,"Rule: When you see a yellow image, do not press 'spacebar'.",Images/Fearful/AM10_FO.jpg,Fear,Blue,Images/Blue.jpg,space,ParentConditions/YellowBlueBlue_v2.xlsx,BlueBlueYellow,Conditions/Version_2/YellowHappyStop.xlsx,no,PASS,0.7516560744284169,,,,,,,,,0,0,0,0,0,0,0,0,0,22,22,22,,,,,,,,,,,,,,,,,,,,,,,,,,,,,,,,,,,,,,,,,,,,,,,,,,,,,,,,,,,,,,,,,,,,,,,,,,,,,,,1.63,419.2876116999978,None,space,1,0.3598908999993,421.0230281000113,None,421.0230281000113,None,421.0230281000113,None,,,,,,,,,,,P004,fencog,2,Pre,2021_Jul_09_1049,Go No-Go Task,2021.1.4,120.00249604298362,
,"Rule: When you see a yellow image, do not press 'spacebar'.",Images/Fearful/WF04_FC.jpg,Fear,Blue,Images/Blue.jpg,space,ParentConditions/YellowBlueBlue_v2.xlsx,BlueBlueYellow,Conditions/Version_2/YellowHappyStop.xlsx,no,PASS,0.8626299251261901,,,,,,,,,0,0,0,0,0,0,0,0,0,23,23,23,,,,,,,,,,,,,,,,,,,,,,,,,,,,,,,,,,,,,,,,,,,,,,,,,,,,,,,,,,,,,,,,,,,,,,,,,,,,,,,1.58,421.4287525999971,None,space,1,0.2851288999954704,423.11411550000776,None,423.11411550000776,None,423.11411550000776,None,,,,,,,,,,,P004,fencog,2,Pre,2021_Jul_09_1049,Go No-Go Task,2021.1.4,120.00249604298362,
,"Rule: When you see a yellow image, do not press 'spacebar'.",Images/Fearful/AF28AFS.jpg,Fear,Blue,Images/Blue.jpg,space,ParentConditions/YellowBlueBlue_v2.xlsx,BlueBlueYellow,Conditions/Version_2/YellowHappyStop.xlsx,no,PASS,0.7326117629083128,,,,,,,,,0,0,0,0,0,0,0,0,0,24,24,24,,,,,,,,,,,,,,,,,,,,,,,,,,,,,,,,,,,,,,,,,,,,,,,,,,,,,,,,,,,,,,,,,,,,,,,,,,,,,,,1.78,423.5142096000054,None,space,1,0.25856970000313595,425.3967205000081,None,425.3967205000081,None,425.3967205000081,None,,,,,,,,,,,P004,fencog,2,Pre,2021_Jul_09_1049,Go No-Go Task,2021.1.4,120.00249604298362,
,"Rule: When you see a yellow image, do not press 'spacebar'.",Images/Fearful/WF11_FC.jpg,Fear,Blue,Images/Blue.jpg,space,ParentConditions/YellowBlueBlue_v2.xlsx,BlueBlueYellow,Conditions/Version_2/YellowHappyStop.xlsx,no,PASS,0.32883698788558013,,,,,,,,,0,0,0,0,0,0,0,0,0,25,25,25,,,,,,,,,,,,,,,,,,,,,,,,,,,,,,,,,,,,,,,,,,,,,,,,,,,,,,,,,,,,,,,,,,,,,,,,,,,,,,,1.32,425.79563010000857,None,space,1,0.2980643000046257,427.22113730000274,None,427.22113730000274,None,427.22113730000274,None,,,,,,,,,,,P004,fencog,2,Pre,2021_Jul_09_1049,Go No-Go Task,2021.1.4,120.00249604298362,
,"Rule: When you see a yellow image, do not press 'spacebar'.",Images/Fearful/AM17AFS.jpg,Fear,Blue,Images/Blue.jpg,space,ParentConditions/YellowBlueBlue_v2.xlsx,BlueBlueYellow,Conditions/Version_2/YellowHappyStop.xlsx,no,PASS,0.2011457593950874,,,,,,,,,0,0,0,0,0,0,0,0,0,26,26,26,,,,,,,,,,,,,,,,,,,,,,,,,,,,,,,,,,,,,,,,,,,,,,,,,,,,,,,,,,,,,,,,,,,,,,,,,,,,,,,1.77,427.6212108000036,None,space,1,0.3108983999991324,429.50386399999843,None,429.50386399999843,None,429.50386399999843,None,,,,,,,,,,,P004,fencog,2,Pre,2021_Jul_09_1049,Go No-Go Task,2021.1.4,120.00249604298362,
,"Rule: When you see a yellow image, do not press 'spacebar'.",Images/Happy/AF27HAS.jpg,Happy,Yellow,Images/Yellow.jpg,None,ParentConditions/YellowBlueBlue_v2.xlsx,BlueBlueYellow,Conditions/Version_2/YellowHappyStop.xlsx,yes,PASS,0.03113428438097654,,,,,,,,,0,0,0,0,0,0,0,0,0,27,27,27,,,,,,,,,,,,,,,,,,,,,,,,,,,,,,,,,,,,,,,,,,,,,,,,,,,,,,,,,,,,,,,,,,,,,,,,,,,,,,,1.28,429.9026337000105,None,None,1,,431.2866745000065,None,431.2866745000065,None,431.2866745000065,None,,,,,,,,,,,P004,fencog,2,Pre,2021_Jul_09_1049,Go No-Go Task,2021.1.4,120.00249604298362,
,"Rule: When you see a yellow image, do not press 'spacebar'.",Images/Fearful/BF10_FO.jpg,Fear,Blue,Images/Blue.jpg,space,ParentConditions/YellowBlueBlue_v2.xlsx,BlueBlueYellow,Conditions/Version_2/YellowHappyStop.xlsx,no,PASS,0.8821344053441019,,,,,,,,,0,0,0,0,0,0,0,0,0,28,28,28,,,,,,,,,,,,,,,,,,,,,,,,,,,,,,,,,,,,,,,,,,,,,,,,,,,,,,,,,,,,,,,,,,,,,,,,,,,,,,,1.23,431.69584430000396,None,space,1,0.23527810000814497,433.0278674000001,None,433.0278674000001,None,433.0278674000001,None,,,,,,,,,,,P004,fencog,2,Pre,2021_Jul_09_1049,Go No-Go Task,2021.1.4,120.00249604298362,
,"Rule: When you see a yellow image, do not press 'spacebar'.",Images/Fearful/HF04_FO.jpg,Fear,Blue,Images/Blue.jpg,space,ParentConditions/YellowBlueBlue_v2.xlsx,BlueBlueYellow,Conditions/Version_2/YellowHappyStop.xlsx,no,PASS,0.10236928865186712,,,,,,,,,0,0,0,0,0,0,0,0,0,29,29,29,,,,,,,,,,,,,,,,,,,,,,,,,,,,,,,,,,,,,,,,,,,,,,,,,,,,,,,,,,,,,,,,,,,,,,,,,,,,,,,1.88,433.4268451000098,None,space,1,0.2372064999944996,435.41035340000235,None,435.41035340000235,None,435.41035340000235,None,,,,,,,,,,,P004,fencog,2,Pre,2021_Jul_09_1049,Go No-Go Task,2021.1.4,120.00249604298362,
,"Rule: When you see a yellow image, do not press 'spacebar'.",Images/Happy/AF26HAS.jpg,Happy,Yellow,Images/Yellow.jpg,None,ParentConditions/YellowBlueBlue_v2.xlsx,BlueBlueYellow,Conditions/Version_2/YellowHappyStop.xlsx,yes,PASS,0.3122778532266225,,,,,,,,,0,0,0,0,0,0,0,0,0,30,30,30,,,,,,,,,,,,,,,,,,,,,,,,,,,,,,,,,,,,,,,,,,,,,,,,,,,,,,,,,,,,,,,,,,,,,,,,,,,,,,,1.86,435.8100631999987,None,None,1,,437.7764961000066,None,437.7764961000066,None,437.7764961000066,None,,,,,,,,,,,P004,fencog,2,Pre,2021_Jul_09_1049,Go No-Go Task,2021.1.4,120.00249604298362,
,"Rule: When you see a yellow image, do not press 'spacebar'.",Images/Happy/HF09_HE.jpg,Happy,Yellow,Images/Yellow.jpg,None,ParentConditions/YellowBlueBlue_v2.xlsx,BlueBlueYellow,Conditions/Version_2/YellowHappyStop.xlsx,yes,PASS,0.8889954581367391,,,,,,,,,0,0,0,0,0,0,0,0,0,31,31,31,,,,,,,,,,,,,,,,,,,,,,,,,,,,,,,,,,,,,,,,,,,,,,,,,,,,,,,,,,,,,,,,,,,,,,,,,,,,,,,1.7,438.175645299998,None,space,0,0.23907219999819063,439.97581190000346,None,439.97581190000346,None,439.97581190000346,None,,,,,,,,,,,P004,fencog,2,Pre,2021_Jul_09_1049,Go No-Go Task,2021.1.4,120.00249604298362,
,"Rule: When you see a yellow image, do not press 'spacebar'.",Images/Fearful/AM16AFS.jpg,Fear,Blue,Images/Blue.jpg,space,ParentConditions/YellowBlueBlue_v2.xlsx,BlueBlueYellow,Conditions/Version_2/YellowHappyStop.xlsx,no,PASS,0.3485636078399603,,,,,,,,,0,0,0,0,0,0,0,0,0,32,32,32,,,,,,,,,,,,,,,,,,,,,,,,,,,,,,,,,,,,,,,,,,,,,,,,,,,,,,,,,,,,,,,,,,,,,,,,,,,,,,,1.85,440.3764303000062,None,space,1,0.25777650000236463,442.3333324999985,None,442.3333324999985,None,442.3333324999985,None,,,,,,,,,,,P004,fencog,2,Pre,2021_Jul_09_1049,Go No-Go Task,2021.1.4,120.00249604298362,
,"Rule: When you see a yellow image, do not press 'spacebar'.",Images/Fearful/WF05_FO.jpg,Fear,Blue,Images/Blue.jpg,space,ParentConditions/YellowBlueBlue_v2.xlsx,BlueBlueYellow,Conditions/Version_2/YellowHappyStop.xlsx,no,PASS,0.571161037699378,,,,,,,,,0,0,0,0,0,0,0,0,0,33,33,33,,,,,,,,,,,,,,,,,,,,,,,,,,,,,,,,,,,,,,,,,,,,,,,,,,,,,,,,,,,,,,,,,,,,,,,,,,,,,,,1.9,442.7331253000011,None,space,1,0.28988250000111293,444.7410782000079,None,444.7410782000079,None,444.7410782000079,None,,,,,,,,,,,P004,fencog,2,Pre,2021_Jul_09_1049,Go No-Go Task,2021.1.4,120.00249604298362,
,"Rule: When you see a yellow image, do not press 'spacebar'.",Images/Fearful/AM03_FC.jpg,Fear,Blue,Images/Blue.jpg,space,ParentConditions/YellowBlueBlue_v2.xlsx,BlueBlueYellow,Conditions/Version_2/YellowHappyStop.xlsx,no,PASS,0.795310308756252,,,,,,,,,0,0,0,0,0,0,0,0,0,34,34,34,,,,,,,,,,,,,,,,,,,,,,,,,,,,,,,,,,,,,,,,,,,,,,,,,,,,,,,,,,,,,,,,,,,,,,,,,,,,,,,1.41,445.1413130000001,None,space,1,0.30989610000688117,446.65709410001,None,446.65709410001,None,446.65709410001,None,,,,,,,,,,,P004,fencog,2,Pre,2021_Jul_09_1049,Go No-Go Task,2021.1.4,120.00249604298362,
,"Rule: When you see a yellow image, do not press 'spacebar'.",Images/Fearful/AM01AFS.jpg,Fear,Blue,Images/Blue.jpg,space,ParentConditions/YellowBlueBlue_v2.xlsx,BlueBlueYellow,Conditions/Version_2/YellowHappyStop.xlsx,no,PASS,0.0960655228006344,,,,,,,,,0,0,0,0,0,0,0,0,0,35,35,35,,,,,,,,,,,,,,,,,,,,,,,,,,,,,,,,,,,,,,,,,,,,,,,,,,,,,,,,,,,,,,,,,,,,,,,,,,,,,,,1.26,447.0576940000028,None,space,1,0.3361101000045892,448.4232295000111,None,448.4232295000111,None,448.4232295000111,None,,,,,,,,,,,P004,fencog,2,Pre,2021_Jul_09_1049,Go No-Go Task,2021.1.4,120.00249604298362,
,"Rule: When you see a yellow image, do not press 'spacebar'.",Images/Fearful/HM04_FC.jpg,Fear,Blue,Images/Blue.jpg,space,ParentConditions/YellowBlueBlue_v2.xlsx,BlueBlueYellow,Conditions/Version_2/YellowHappyStop.xlsx,no,PASS,0.2671765254267089,,,,,,,,,0,0,0,0,0,0,0,0,0,36,36,36,,,,,,,,,,,,,,,,,,,,,,,,,,,,,,,,,,,,,,,,,,,,,,,,,,,,,,,,,,,,,,,,,,,,,,,,,,,,,,,1.2,448.8315978000028,None,space,1,0.2837331000046106,450.1311333000049,None,450.1311333000049,None,450.1311333000049,None,,,,,,,,,,,P004,fencog,2,Pre,2021_Jul_09_1049,Go No-Go Task,2021.1.4,120.00249604298362,
,"Rule: When you see a yellow image, do not press 'spacebar'.",Images/Fearful/BF18_FC.jpg,Fear,Blue,Images/Blue.jpg,space,ParentConditions/YellowBlueBlue_v2.xlsx,BlueBlueYellow,Conditions/Version_2/YellowHappyStop.xlsx,no,PASS,0.30493199358976686,,,,,,,,,0,0,0,0,0,0,0,0,0,37,37,37,,,,,,,,,,,,,,,,,,,,,,,,,,,,,,,,,,,,,,,,,,,,,,,,,,,,,,,,,,,,,,,,,,,,,,,,,,,,,,,1.44,450.5321804999985,None,space,1,0.2945414999994682,452.07223890000023,None,452.07223890000023,None,452.07223890000023,None,,,,,,,,,,,P004,fencog,2,Pre,2021_Jul_09_1049,Go No-Go Task,2021.1.4,120.00249604298362,
,"Rule: When you see a yellow image, do not press 'spacebar'.",Images/Fearful/AF07_FO.jpg,Fear,Blue,Images/Blue.jpg,space,ParentConditions/YellowBlueBlue_v2.xlsx,BlueBlueYellow,Conditions/Version_2/YellowHappyStop.xlsx,no,PASS,0.06571981152440787,,,,,,,,,0,0,0,0,0,0,0,0,0,38,38,38,,,,,,,,,,,,,,,,,,,,,,,,,,,,,,,,,,,,,,,,,,,,,,,,,,,,,,,,,,,,,,,,,,,,,,,,,,,,,,,1.42,452.47292490000837,None,space,1,0.31435220000275876,453.99649710000085,None,453.99649710000085,None,453.99649710000085,None,,,,,,,,,,,P004,fencog,2,Pre,2021_Jul_09_1049,Go No-Go Task,2021.1.4,120.00249604298362,
,"Rule: When you see a yellow image, do not press 'spacebar'.",Images/Fearful/AM24AFS.jpg,Fear,Blue,Images/Blue.jpg,space,ParentConditions/YellowBlueBlue_v2.xlsx,BlueBlueYellow,Conditions/Version_2/YellowHappyStop.xlsx,no,PASS,0.23738601052691555,,,,,,,,,0,0,0,0,0,0,0,0,0,39,39,39,,,,,,,,,,,,,,,,,,,,,,,,,,,,,,,,,,,,,,,,,,,,,,,,,,,,,,,,,,,,,,,,,,,,,,,,,,,,,,,1.95,454.39738190000935,None,space,1,0.3136910000030184,456.4541786000045,None,456.4541786000045,None,456.4541786000045,None,,,,,,,,,,,P004,fencog,2,Pre,2021_Jul_09_1049,Go No-Go Task,2021.1.4,120.00249604298362,
,"Rule: When you see a yellow image, do not press 'spacebar'.",Images/Fearful/AM03AFS.jpg,Fear,Blue,Images/Blue.jpg,space,ParentConditions/YellowBlueBlue_v2.xlsx,BlueBlueYellow,Conditions/Version_2/YellowHappyStop.xlsx,no,PASS,0.9496981002344779,,,,,,,,,0,0,0,0,0,0,0,0,0,40,40,40,,,,,,,,,,,,,,,,,,,,,,,,,,,,,,,,,,,,,,,,,,,,,,,,,,,,,,,,,,,,,,,,,,,,,,,,,,,,,,,1.69,456.85312080000585,None,space,1,0.33858860000327695,458.6452181000059,None,458.6452181000059,None,458.6452181000059,None,,,,,,,,,,,P004,fencog,2,Pre,2021_Jul_09_1049,Go No-Go Task,2021.1.4,120.00249604298362,
,"Rule: When you see a yellow image, do not press 'spacebar'.",Images/Fearful/BM08_FC.jpg,Fear,Blue,Images/Blue.jpg,space,ParentConditions/YellowBlueBlue_v2.xlsx,BlueBlueYellow,Conditions/Version_2/YellowHappyStop.xlsx,no,PASS,0.9731806168242675,,,,,,,,,0,0,0,0,0,0,0,0,0,41,41,41,,,,,,,,,,,,,,,,,,,,,,,,,,,,,,,,,,,,,,,,,,,,,,,,,,,,,,,,,,,,,,,,,,,,,,,,,,,,,,,1.4,459.0561854999978,None,space,1,0.3023802999960026,460.56127260001085,None,460.56127260001085,None,460.56127260001085,None,,,,,,,,,,,P004,fencog,2,Pre,2021_Jul_09_1049,Go No-Go Task,2021.1.4,120.00249604298362,
,"Rule: When you see a yellow image, do not press 'spacebar'.",Images/Fearful/AF32AFS.jpg,Fear,Blue,Images/Blue.jpg,space,ParentConditions/YellowBlueBlue_v2.xlsx,BlueBlueYellow,Conditions/Version_2/YellowHappyStop.xlsx,no,PASS,0.6516797726115628,,,,,,,,,0,0,0,0,0,0,0,0,0,42,42,42,,,,,,,,,,,,,,,,,,,,,,,,,,,,,,,,,,,,,,,,,,,,,,,,,,,,,,,,,,,,,,,,,,,,,,,,,,,,,,,2,460.9700264999992,None,space,1,0.3137360999971861,463.0771892000048,None,463.0771892000048,None,463.0771892000048,None,,,,,,,,,,,P004,fencog,2,Pre,2021_Jul_09_1049,Go No-Go Task,2021.1.4,120.00249604298362,
,"Rule: When you see a yellow image, do not press 'spacebar'.",Images/Fearful/AF26AFS.jpg,Fear,Blue,Images/Blue.jpg,space,ParentConditions/YellowBlueBlue_v2.xlsx,BlueBlueYellow,Conditions/Version_2/YellowHappyStop.xlsx,no,PASS,0.7646464028460872,,,,,,,,,0,0,0,0,0,0,0,0,0,43,43,43,,,,,,,,,,,,,,,,,,,,,,,,,,,,,,,,,,,,,,,,,,,,,,,,,,,,,,,,,,,,,,,,,,,,,,,,,,,,,,,1.65,463.47754839999834,None,space,1,0.3160885999968741,465.2349275000015,None,465.2349275000015,None,465.2349275000015,None,,,,,,,,,,,P004,fencog,2,Pre,2021_Jul_09_1049,Go No-Go Task,2021.1.4,120.00249604298362,
,"Rule: When you see a yellow image, do not press 'spacebar'.",Images/Fearful/BF09_FC.jpg,Fear,Blue,Images/Blue.jpg,space,ParentConditions/YellowBlueBlue_v2.xlsx,BlueBlueYellow,Conditions/Version_2/YellowHappyStop.xlsx,no,PASS,0.026085524820318784,,,,,,,,,0,0,0,0,0,0,0,0,0,44,44,44,,,,,,,,,,,,,,,,,,,,,,,,,,,,,,,,,,,,,,,,,,,,,,,,,,,,,,,,,,,,,,,,,,,,,,,,,,,,,,,1.61,465.63560930000676,None,space,1,0.2881245000025956,467.35100200001034,None,467.35100200001034,None,467.35100200001034,None,,,,,,,,,,,P004,fencog,2,Pre,2021_Jul_09_1049,Go No-Go Task,2021.1.4,120.00249604298362,
,"Rule: When you see a yellow image, do not press 'spacebar'.",Images/Fearful/BM01_FO.jpg,Fear,Blue,Images/Blue.jpg,space,ParentConditions/YellowBlueBlue_v2.xlsx,BlueBlueYellow,Conditions/Version_2/YellowHappyStop.xlsx,no,PASS,0.5546632244892579,,,,,,,,,0,0,0,0,0,0,0,0,0,45,45,45,,,,,,,,,,,,,,,,,,,,,,,,,,,,,,,,,,,,,,,,,,,,,,,,,,,,,,,,,,,,,,,,,,,,,,,,,,,,,,,1.59,467.75507030000153,None,space,1,0.2768720000021858,469.45028099999763,None,469.45028099999763,None,469.45028099999763,None,,,,,,,,,,,P004,fencog,2,Pre,2021_Jul_09_1049,Go No-Go Task,2021.1.4,120.00249604298362,
,"Rule: When you see a yellow image, do not press 'spacebar'.",Images/Happy/BF14_HO.jpg,Happy,Yellow,Images/Yellow.jpg,None,ParentConditions/YellowBlueBlue_v2.xlsx,BlueBlueYellow,Conditions/Version_2/YellowHappyStop.xlsx,yes,PASS,0.8128181362801364,,,,,,,,,0,0,0,0,0,0,0,0,0,46,46,46,,,,,,,,,,,,,,,,,,,,,,,,,,,,,,,,,,,,,,,,,,,,,,,,,,,,,,,,,,,,,,,,,,,,,,,,,,,,,,,1.49,469.8509352999972,None,space,0,0.2538367999950424,471.4498370000074,None,471.4498370000074,None,471.4498370000074,None,,,,,,,,,,,P004,fencog,2,Pre,2021_Jul_09_1049,Go No-Go Task,2021.1.4,120.00249604298362,
,"Rule: When you see a yellow image, do not press 'spacebar'.",Images/Fearful/WM11_FC.jpg,Fear,Blue,Images/Blue.jpg,space,ParentConditions/YellowBlueBlue_v2.xlsx,BlueBlueYellow,Conditions/Version_2/YellowHappyStop.xlsx,no,PASS,0.9251187011996334,,,,,,,,,0,0,0,0,0,0,0,0,0,47,47,47,,,,,,,,,,,,,,,,,,,,,,,,,,,,,,,,,,,,,,,,,,,,,,,,,,,,,,,,,,,,,,,,,,,,,,,,,,,,,,,1.43,471.8487007000076,None,space,1,0.32025000000430737,473.3824011000106,None,473.3824011000106,None,473.3824011000106,None,,,,,,,,,,,P004,fencog,2,Pre,2021_Jul_09_1049,Go No-Go Task,2021.1.4,120.00249604298362,
,"Rule: When you see a yellow image, do not press 'spacebar'.",Images/Fearful/AM02_FO.jpg,Fear,Blue,Images/Blue.jpg,space,ParentConditions/YellowBlueBlue_v2.xlsx,BlueBlueYellow,Conditions/Version_2/YellowHappyStop.xlsx,no,PASS,0.0455811702140666,,,,,,,,,0,0,0,0,0,0,0,0,0,48,48,48,,,,,,,,,,,,,,,,,,,,,,,,,,,,,,,,,,,,,,,,,,,,,,,,,,,,,,,,,,,,,,,,,,,,,,,,,,,,,,,1.55,473.7903944999998,None,space,1,0.2876957999978913,475.4402742000093,None,475.4402742000093,None,475.4402742000093,None,,,,,,,,,,,P004,fencog,2,Pre,2021_Jul_09_1049,Go No-Go Task,2021.1.4,120.00249604298362,
,"Rule: When you see a yellow image, do not press 'spacebar'.",Images/Happy/HM09_HO.jpg,Happy,Yellow,Images/Yellow.jpg,None,ParentConditions/YellowBlueBlue_v2.xlsx,BlueBlueYellow,Conditions/Version_2/YellowHappyStop.xlsx,yes,PASS,0.3219974030212036,,,,,,,,,0,0,0,0,0,0,0,0,0,49,49,49,,,,,,,,,,,,,,,,,,,,,,,,,,,,,,,,,,,,,,,,,,,,,,,,,,,,,,,,,,,,,,,,,,,,,,,,,,,,,,,1.5,475.8404853000102,None,None,1,,477.4479441000003,None,477.4479441000003,None,477.4479441000003,None,,,,,,,,,,,P004,fencog,2,Pre,2021_Jul_09_1049,Go No-Go Task,2021.1.4,120.00249604298362,
,"Rule: When you see a yellow image, do not press 'spacebar'.",Images/Happy/HF10_HE.jpg,Happy,Yellow,Images/Yellow.jpg,None,ParentConditions/YellowBlueBlue_v2.xlsx,BlueBlueYellow,Conditions/Version_2/YellowHappyStop.xlsx,yes,PASS,0.5613535526914523,,,,,,,,,0,0,0,0,0,0,0,0,0,50,50,50,,,,,,,,,,,,,,,,,,,,,,,,,,,,,,,,,,,,,,,,,,,,,,,,,,,,,,,,,,,,,,,,,,,,,,,,,,,,,,,1.97,477.8501755000034,None,space,0,0.3247198000026401,479.92213040000934,None,479.92213040000934,None,479.92213040000934,None,,,,,,,,,,,P004,fencog,2,Pre,2021_Jul_09_1049,Go No-Go Task,2021.1.4,120.00249604298362,
,"Rule: When you see a yellow image, do not press 'spacebar'.",Images/Fearful/AF09AFS.jpg,Fear,Blue,Images/Blue.jpg,space,ParentConditions/YellowBlueBlue_v2.xlsx,BlueBlueYellow,Conditions/Version_2/YellowHappyStop.xlsx,no,PASS,0.5511492847876154,,,,,,,,,0,0,0,0,0,0,0,0,0,51,51,51,,,,,,,,,,,,,,,,,,,,,,,,,,,,,,,,,,,,,,,,,,,,,,,,,,,,,,,,,,,,,,,,,,,,,,,,,,,,,,,1.22,480.322920000006,None,space,1,0.32898050000949297,481.6384298000048,None,481.6384298000048,None,481.6384298000048,None,,,,,,,,,,,P004,fencog,2,Pre,2021_Jul_09_1049,Go No-Go Task,2021.1.4,120.00249604298362,
,"Rule: When you see a yellow image, do not press 'spacebar'.",Images/Fearful/AM23AFS.jpg,Fear,Blue,Images/Blue.jpg,space,ParentConditions/YellowBlueBlue_v2.xlsx,BlueBlueYellow,Conditions/Version_2/YellowHappyStop.xlsx,no,PASS,0.2159972500516506,,,,,,,,,0,0,0,0,0,0,0,0,0,52,52,52,,,,,,,,,,,,,,,,,,,,,,,,,,,,,,,,,,,,,,,,,,,,,,,,,,,,,,,,,,,,,,,,,,,,,,,,,,,,,,,1.25,482.0446706000075,None,space,1,0.3228934999933699,483.3962457000016,None,483.3962457000016,None,483.3962457000016,None,,,,,,,,,,,P004,fencog,2,Pre,2021_Jul_09_1049,Go No-Go Task,2021.1.4,120.00249604298362,
,"Rule: When you see a yellow image, do not press 'spacebar'.",Images/Fearful/AM05AFS.jpg,Fear,Blue,Images/Blue.jpg,space,ParentConditions/YellowBlueBlue_v2.xlsx,BlueBlueYellow,Conditions/Version_2/YellowHappyStop.xlsx,no,PASS,0.18827335330329198,,,,,,,,,0,0,0,0,0,0,0,0,0,53,53,53,,,,,,,,,,,,,,,,,,,,,,,,,,,,,,,,,,,,,,,,,,,,,,,,,,,,,,,,,,,,,,,,,,,,,,,,,,,,,,,1.35,483.7963848000072,None,space,1,0.32163769999169745,485.2540552999999,None,485.2540552999999,None,485.2540552999999,None,,,,,,,,,,,P004,fencog,2,Pre,2021_Jul_09_1049,Go No-Go Task,2021.1.4,120.00249604298362,
,"Rule: When you see a yellow image, do not press 'spacebar'.",Images/Happy/AF28HAS.jpg,Happy,Yellow,Images/Yellow.jpg,None,ParentConditions/YellowBlueBlue_v2.xlsx,BlueBlueYellow,Conditions/Version_2/YellowHappyStop.xlsx,yes,PASS,0.7444008667159328,,,,,,,,,0,0,0,0,0,0,0,0,0,54,54,54,,,,,,,,,,,,,,,,,,,,,,,,,,,,,,,,,,,,,,,,,,,,,,,,,,,,,,,,,,,,,,,,,,,,,,,,,,,,,,,1.29,485.65294660000654,None,None,1,,487.0451469999971,None,487.0451469999971,None,487.0451469999971,None,,,,,,,,,,,P004,fencog,2,Pre,2021_Jul_09_1049,Go No-Go Task,2021.1.4,120.00249604298362,
,"Rule: When you see a yellow image, do not press 'spacebar'.",Images/Fearful/BF14_FO.jpg,Fear,Blue,Images/Blue.jpg,space,ParentConditions/YellowBlueBlue_v2.xlsx,BlueBlueYellow,Conditions/Version_2/YellowHappyStop.xlsx,no,PASS,0.036114312510467594,,,,,,,,,0,0,0,0,0,0,0,0,0,55,55,55,,,,,,,,,,,,,,,,,,,,,,,,,,,,,,,,,,,,,,,,,,,,,,,,,,,,,,,,,,,,,,,,,,,,,,,,,,,,,,,1.74,487.4448620000039,None,space,1,0.2568847999937134,489.286073100011,None,489.286073100011,None,489.286073100011,None,,,,,,,,,,,P004,fencog,2,Pre,2021_Jul_09_1049,Go No-Go Task,2021.1.4,120.00249604298362,
,"Rule: When you see a yellow image, do not press 'spacebar'.",Images/Happy/AM30HAS.jpg,Happy,Yellow,Images/Yellow.jpg,None,ParentConditions/YellowBlueBlue_v2.xlsx,BlueBlueYellow,Conditions/Version_2/YellowHappyStop.xlsx,yes,PASS,0.9276323490247724,,,,,,,,,0,0,0,0,0,0,0,0,0,56,56,56,,,,,,,,,,,,,,,,,,,,,,,,,,,,,,,,,,,,,,,,,,,,,,,,,,,,,,,,,,,,,,,,,,,,,,,,,,,,,,,1.38,489.6858089000016,None,None,1,,491.1690008000005,None,491.1690008000005,None,491.1690008000005,None,,,,,,,,,,,P004,fencog,2,Pre,2021_Jul_09_1049,Go No-Go Task,2021.1.4,120.00249604298362,
,"Rule: When you see a yellow image, do not press 'spacebar'.",Images/Fearful/AF27AFS.jpg,Fear,Blue,Images/Blue.jpg,space,ParentConditions/YellowBlueBlue_v2.xlsx,BlueBlueYellow,Conditions/Version_2/YellowHappyStop.xlsx,no,PASS,0.9674336643747157,,,,,,,,,0,0,0,0,0,0,0,0,0,57,57,57,,,,,,,,,,,,,,,,,,,,,,,,,,,,,,,,,,,,,,,,,,,,,,,,,,,,,,,,,,,,,,,,,,,,,,,,,,,,,,,1.68,491.5696303000004,None,space,1,0.3350783999921987,493.351745699998,None,493.351745699998,None,493.351745699998,None,,,,,,,,,,,P004,fencog,2,Pre,2021_Jul_09_1049,Go No-Go Task,2021.1.4,120.00249604298362,
,"Rule: When you see a yellow image, do not press 'spacebar'.",Images/Fearful/AM32AFS.jpg,Fear,Blue,Images/Blue.jpg,space,ParentConditions/YellowBlueBlue_v2.xlsx,BlueBlueYellow,Conditions/Version_2/YellowHappyStop.xlsx,no,PASS,0.5429320828851499,,,,,,,,,0,0,0,0,0,0,0,0,0,58,58,58,,,,,,,,,,,,,,,,,,,,,,,,,,,,,,,,,,,,,,,,,,,,,,,,,,,,,,,,,,,,,,,,,,,,,,,,,,,,,,,1.36,493.75705800000287,None,space,1,0.3417990000016289,495.2093909000105,None,495.2093909000105,None,495.2093909000105,None,,,,,,,,,,,P004,fencog,2,Pre,2021_Jul_09_1049,Go No-Go Task,2021.1.4,120.00249604298362,
,"Rule: When you see a yellow image, do not press 'spacebar'.",Images/Fearful/AM09_FO.jpg,Fear,Blue,Images/Blue.jpg,space,ParentConditions/YellowBlueBlue_v2.xlsx,BlueBlueYellow,Conditions/Version_2/YellowHappyStop.xlsx,no,PASS,0.5248989229975377,,,,,,,,,0,0,0,0,0,0,0,0,0,59,59,59,,,,,,,,,,,,,,,,,,,,,,,,,,,,,,,,,,,,,,,,,,,,,,,,,,,,,,,,,,,,,,,,,,,,,,,,,,,,,,,1.91,495.6089299000014,None,None,0,,497.6253668999998,None,497.6253668999998,None,497.6253668999998,None,,,,,,,,,,,P004,fencog,2,Pre,2021_Jul_09_1049,Go No-Go Task,2021.1.4,120.00249604298362,
,"Rule: When you see a yellow image, do not press 'spacebar'.",Images/Fearful/AF01_FO.jpg,Fear,Blue,Images/Blue.jpg,space,ParentConditions/YellowBlueBlue_v2.xlsx,BlueBlueYellow,Conditions/Version_2/YellowHappyStop.xlsx,no,PASS,0.007145119379767917,,,,,,,,,0,0,0,0,0,0,0,0,0,60,60,60,,,,,,,,,,,,,,,,,,,,,,,,,,,,,,,,,,,,,,,,,,,,,,,,,,,,,,,,,,,,,,,,,,,,,,,,,,,,,,,1.51,498.0249691000063,None,space,1,0.3173972000076901,499.6414613000088,None,499.6414613000088,None,499.6414613000088,None,,,,,,,,,,,P004,fencog,2,Pre,2021_Jul_09_1049,Go No-Go Task,2021.1.4,120.00249604298362,
,"Rule: When you see a yellow image, do not press 'spacebar'.",Images/Happy/AM10_HO.jpg,Happy,Yellow,Images/Yellow.jpg,None,ParentConditions/YellowBlueBlue_v2.xlsx,BlueBlueYellow,Conditions/Version_2/YellowHappyStop.xlsx,yes,PASS,0.8341186478720962,,,,,,,,,0,0,0,0,0,0,0,0,0,61,61,61,,,,,,,,,,,,,,,,,,,,,,,,,,,,,,,,,,,,,,,,,,,,,,,,,,,,,,,,,,,,,,,,,,,,,,,,,,,,,,,1.45,500.0434663000051,None,None,1,,501.5991289000085,None,501.5991289000085,None,501.5991289000085,None,,,,,,,,,,,P004,fencog,2,Pre,2021_Jul_09_1049,Go No-Go Task,2021.1.4,120.00249604298362,
,"Rule: When you see a yellow image, do not press 'spacebar'.",Images/Happy/AM22HAS.jpg,Happy,Yellow,Images/Yellow.jpg,None,ParentConditions/YellowBlueBlue_v2.xlsx,BlueBlueYellow,Conditions/Version_2/YellowHappyStop.xlsx,yes,PASS,0.6172419840647391,,,,,,,,,0,0,0,0,0,0,0,0,0,62,62,62,,,,,,,,,,,,,,,,,,,,,,,,,,,,,,,,,,,,,,,,,,,,,,,,,,,,,,,,,,,,,,,,,,,,,,,,,,,,,,,1.24,501.9984078999987,None,None,1,,503.3402713000105,None,503.3402713000105,None,503.3402713000105,None,,,,,,,,,,,P004,fencog,2,Pre,2021_Jul_09_1049,Go No-Go Task,2021.1.4,120.00249604298362,
,"Rule: When you see a yellow image, do not press 'spacebar'.",Images/Fearful/AM22AFS.jpg,Fear,Blue,Images/Blue.jpg,space,ParentConditions/YellowBlueBlue_v2.xlsx,BlueBlueYellow,Conditions/Version_2/YellowHappyStop.xlsx,no,PASS,0.13735844586330215,,,,,,,,,0,0,0,0,0,0,0,0,0,63,63,63,,,,,,,,,,,,,,,,,,,,,,,,,,,,,,,,,,,,,,,,,,,,,,,,,,,,,,,,,,,,,,,,,,,,,,,,,,,,,,,1.53,503.7410100999987,None,space,1,0.25793849999899976,505.3730721000029,None,505.3730721000029,None,505.3730721000029,None,,,,,,,,,,,P004,fencog,2,Pre,2021_Jul_09_1049,Go No-Go Task,2021.1.4,120.00249604298362,
,"Rule: When you see a yellow image, do not press 'spacebar'.",Images/Happy/BM08_HO.jpg,Happy,Yellow,Images/Yellow.jpg,None,ParentConditions/YellowBlueBlue_v2.xlsx,BlueBlueYellow,Conditions/Version_2/YellowHappyStop.xlsx,yes,PASS,0.19822628709829182,,,,,,,,,0,0,0,0,0,0,0,0,0,64,64,64,,,,,,,,,,,,,,,,,,,,,,,,,,,,,,,,,,,,,,,,,,,,,,,,,,,,,,,,,,,,,,,,,,,,,,,,,,,,,,,1.33,505.7718709000037,None,None,1,,507.2058479999978,None,507.2058479999978,None,507.2058479999978,None,,,,,,,,,,,P004,fencog,2,Pre,2021_Jul_09_1049,Go No-Go Task,2021.1.4,120.00249604298362,
,"Rule: When you see a yellow image, do not press 'spacebar'.",Images/Fearful/AM19AFS.jpg,Fear,Blue,Images/Blue.jpg,space,ParentConditions/YellowBlueBlue_v2.xlsx,BlueBlueYellow,Conditions/Version_2/YellowHappyStop.xlsx,no,PASS,0.9846537447676192,,,,,,,,,0,0,0,0,0,0,0,0,0,65,65,65,,,,,,,,,,,,,,,,,,,,,,,,,,,,,,,,,,,,,,,,,,,,,,,,,,,,,,,,,,,,,,,,,,,,,,,,,,,,,,,1.66,507.6084782000107,None,space,1,0.330919999993057,509.37190450000344,None,509.37190450000344,None,509.37190450000344,None,,,,,,,,,,,P004,fencog,2,Pre,2021_Jul_09_1049,Go No-Go Task,2021.1.4,120.00249604298362,
,"Rule: When you see a yellow image, do not press 'spacebar'.",Images/Fearful/AF23AFS.jpg,Fear,Blue,Images/Blue.jpg,space,ParentConditions/YellowBlueBlue_v2.xlsx,BlueBlueYellow,Conditions/Version_2/YellowHappyStop.xlsx,no,PASS,0.06538281980323435,,,,,,,,,0,0,0,0,0,0,0,0,0,66,66,66,,,,,,,,,,,,,,,,,,,,,,,,,,,,,,,,,,,,,,,,,,,,,,,,,,,,,,,,,,,,,,,,,,,,,,,,,,,,,,,1.47,509.7712959000055,None,space,1,0.38136060000397265,511.3378991000063,None,511.3378991000063,None,511.3378991000063,None,,,,,,,,,,,P004,fencog,2,Pre,2021_Jul_09_1049,Go No-Go Task,2021.1.4,120.00249604298362,
,"Rule: When you see a yellow image, do not press 'spacebar'.",Images/Fearful/AM13AFS.jpg,Fear,Blue,Images/Blue.jpg,space,ParentConditions/YellowBlueBlue_v2.xlsx,BlueBlueYellow,Conditions/Version_2/YellowHappyStop.xlsx,no,PASS,0.501942139065686,,,,,,,,,0,0,0,0,0,0,0,0,0,67,67,67,,,,,,,,,,,,,,,,,,,,,,,,,,,,,,,,,,,,,,,,,,,,,,,,,,,,,,,,,,,,,,,,,,,,,,,,,,,,,,,1.94,511.74290779999865,None,space,1,0.3000954000017373,513.7871918000019,None,513.7871918000019,None,513.7871918000019,None,,,,,,,,,,,P004,fencog,2,Pre,2021_Jul_09_1049,Go No-Go Task,2021.1.4,120.00249604298362,
,"Rule: When you see a yellow image, do not press 'spacebar'.",Images/Fearful/HF09_FC.jpg,Fear,Blue,Images/Blue.jpg,space,ParentConditions/YellowBlueBlue_v2.xlsx,BlueBlueYellow,Conditions/Version_2/YellowHappyStop.xlsx,no,PASS,0.5863101312226996,,,,,,,,,0,0,0,0,0,0,0,0,0,68,68,68,,,,,,,,,,,,,,,,,,,,,,,,,,,,,,,,,,,,,,,,,,,,,,,,,,,,,,,,,,,,,,,,,,,,,,,,,,,,,,,1.75,514.1879235000088,None,space,1,0.2898849000048358,516.0366025000112,None,516.0366025000112,None,516.0366025000112,None,,,,,,,,,,,P004,fencog,2,Pre,2021_Jul_09_1049,Go No-Go Task,2021.1.4,120.00249604298362,
,"Rule: When you see a yellow image, do not press 'spacebar'.",Images/Fearful/AM04AFS.jpg,Fear,Blue,Images/Blue.jpg,space,ParentConditions/YellowBlueBlue_v2.xlsx,BlueBlueYellow,Conditions/Version_2/YellowHappyStop.xlsx,no,PASS,0.9464588162199873,,,,,,,,,0,0,0,0,0,0,0,0,0,69,69,69,,,,,,,,,,,,,,,,,,,,,,,,,,,,,,,,,,,,,,,,,,,,,,,,,,,,,,,,,,,,,,,,,,,,,,,,,,,,,,,1.46,516.4381280000089,None,space,1,0.30824939999729395,518.0026858000056,None,518.0026858000056,None,518.0026858000056,None,,,,,,,,,,,P004,fencog,2,Pre,2021_Jul_09_1049,Go No-Go Task,2021.1.4,120.00249604298362,
,"Rule: When you see a yellow image, do not press 'spacebar'.",Images/Fearful/AF02AFS.jpg,Fear,Blue,Images/Blue.jpg,space,ParentConditions/YellowBlueBlue_v2.xlsx,BlueBlueYellow,Conditions/Version_2/YellowHappyStop.xlsx,no,PASS,0.745835010449707,,,,,,,,,0,0,0,0,0,0,0,0,0,70,70,70,,,,,,,,,,,,,,,,,,,,,,,,,,,,,,,,,,,,,,,,,,,,,,,,,,,,,,,,,,,,,,,,,,,,,,,,,,,,,,,1.27,518.403761300011,None,space,1,0.3414575000060722,519.7771083999978,None,519.7771083999978,None,519.7771083999978,None,,,,,,,,,,,P004,fencog,2,Pre,2021_Jul_09_1049,Go No-Go Task,2021.1.4,120.00249604298362,
,"Rule: When you see a yellow image, do not press 'spacebar'.",Images/Fearful/AM09AFS.jpg,Fear,Blue,Images/Blue.jpg,space,ParentConditions/YellowBlueBlue_v2.xlsx,BlueBlueYellow,Conditions/Version_2/YellowHappyStop.xlsx,no,PASS,0.8501894993195995,,,,,,,,,0,0,0,0,0,0,0,0,0,71,71,71,,,,,,,,,,,,,,,,,,,,,,,,,,,,,,,,,,,,,,,,,,,,,,,,,,,,,,,,,,,,,,,,,,,,,,,,,,,,,,,1.31,520.1767641000042,None,space,1,0.3102412000007462,521.5932930999988,None,521.5932930999988,None,521.5932930999988,None,,,,,,,,,,,P004,fencog,2,Pre,2021_Jul_09_1049,Go No-Go Task,2021.1.4,120.00249604298362,
,"Rule: When you see a yellow image, do not press 'spacebar'.",Images/Fearful/BF05_FO.jpg,Fear,Blue,Images/Blue.jpg,space,ParentConditions/YellowBlueBlue_v2.xlsx,BlueBlueYellow,Conditions/Version_2/YellowHappyStop.xlsx,no,PASS,0.41552487186891285,,,,,,,,,0,0,0,0,0,0,0,0,0,72,72,72,,,,,,,,,,,,,,,,,,,,,,,,,,,,,,,,,,,,,,,,,,,,,,,,,,,,,,,,,,,,,,,,,,,,,,,,,,,,,,,1.48,521.9995456000033,None,space,1,0.35057249999954365,523.5843270000041,None,523.5843270000041,None,523.5843270000041,None,,,,,,,,,,,P004,fencog,2,Pre,2021_Jul_09_1049,Go No-Go Task,2021.1.4,120.00249604298362,
,"Rule: When you see a yellow image, do not press 'spacebar'.",Images/Fearful/AF22AFS.jpg,Fear,Blue,Images/Blue.jpg,space,ParentConditions/YellowBlueBlue_v2.xlsx,BlueBlueYellow,Conditions/Version_2/YellowHappyStop.xlsx,no,PASS,0.6701019786706065,,,,,,,,,0,0,0,0,0,0,0,0,0,73,73,73,,,,,,,,,,,,,,,,,,,,,,,,,,,,,,,,,,,,,,,,,,,,,,,,,,,,,,,,,,,,,,,,,,,,,,,,,,,,,,,1.37,523.9907097000105,None,space,1,0.3561138000077335,525.4671080999979,None,525.4671080999979,None,525.4671080999979,None,,,,,,,,,,,P004,fencog,2,Pre,2021_Jul_09_1049,Go No-Go Task,2021.1.4,120.00249604298362,
,"Rule: When you see a yellow image, do not press 'spacebar'.",Images/Happy/BF18_HO.jpg,Happy,Yellow,Images/Yellow.jpg,None,ParentConditions/YellowBlueBlue_v2.xlsx,BlueBlueYellow,Conditions/Version_2/YellowHappyStop.xlsx,yes,PASS,0.41437941694275227,,,,,,,,,0,0,0,0,0,0,0,0,0,74,74,74,,,,,,,,,,,,,,,,,,,,,,,,,,,,,,,,,,,,,,,,,,,,,,,,,,,,,,,,,,,,,,,,,,,,,,,,,,,,,,,1.99,525.8660435000056,None,None,1,,527.9579400000075,None,527.9579400000075,None,527.9579400000075,None,,,,,,,,,,,P004,fencog,2,Pre,2021_Jul_09_1049,Go No-Go Task,2021.1.4,120.00249604298362,
,"Rule: When you see a yellow image, do not press 'spacebar'.",Images/Fearful/WM12_FO.jpg,Fear,Blue,Images/Blue.jpg,space,ParentConditions/YellowBlueBlue_v2.xlsx,BlueBlueYellow,Conditions/Version_2/YellowHappyStop.xlsx,no,PASS,0.577397464904033,,,,,,,,,0,0,0,0,0,0,0,0,0,75,75,75,,,,,,,,,,,,,,,,,,,,,,,,,,,,,,,,,,,,,,,,,,,,,,,,,,,,,,,,,,,,,,,,,,,,,,,,,,,,,,,1.89,528.35999550001,None,space,1,0.3141862000047695,530.3490841000021,None,530.3490841000021,None,530.3490841000021,None,,,,,,,,,,,P004,fencog,2,Pre,2021_Jul_09_1049,Go No-Go Task,2021.1.4,120.00249604298362,
,"Rule: When you see a yellow image, do not press 'spacebar'.",Images/Fearful/BF07_FO.jpg,Fear,Blue,Images/Blue.jpg,space,ParentConditions/YellowBlueBlue_v2.xlsx,BlueBlueYellow,Conditions/Version_2/YellowHappyStop.xlsx,no,PASS,0.3175910009200418,,,,,,,,,0,0,0,0,0,0,0,0,0,76,76,76,,,,,,,,,,,,,,,,,,,,,,,,,,,,,,,,,,,,,,,,,,,,,,,,,,,,,,,,,,,,,,,,,,,,,,,,,,,,,,,1.39,530.756195599999,None,space,1,0.32632269999885466,532.2483397000033,None,532.2483397000033,None,532.2483397000033,None,,,,,,,,,,,P004,fencog,2,Pre,2021_Jul_09_1049,Go No-Go Task,2021.1.4,120.00249604298362,
,"Rule: When you see a yellow image, do not press 'spacebar'.",Images/Fearful/HF10_FO.jpg,Fear,Blue,Images/Blue.jpg,space,ParentConditions/YellowBlueBlue_v2.xlsx,BlueBlueYellow,Conditions/Version_2/YellowHappyStop.xlsx,no,PASS,0.5511356040110476,,,,,,,,,0,0,0,0,0,0,0,0,0,77,77,77,,,,,,,,,,,,,,,,,,,,,,,,,,,,,,,,,,,,,,,,,,,,,,,,,,,,,,,,,,,,,,,,,,,,,,,,,,,,,,,1.56,532.6476946000039,None,space,1,0.3338979999971343,534.3142303000059,None,534.3142303000059,None,534.3142303000059,None,,,,,,,,,,,P004,fencog,2,Pre,2021_Jul_09_1049,Go No-Go Task,2021.1.4,120.00249604298362,
,"Rule: When you see a yellow image, do not press 'spacebar'.",Images/Fearful/AM10AFS.jpg,Fear,Blue,Images/Blue.jpg,space,ParentConditions/YellowBlueBlue_v2.xlsx,BlueBlueYellow,Conditions/Version_2/YellowHappyStop.xlsx,no,PASS,0.516543326357497,,,,,,,,,0,0,0,0,0,0,0,0,0,78,78,78,,,,,,,,,,,,,,,,,,,,,,,,,,,,,,,,,,,,,,,,,,,,,,,,,,,,,,,,,,,,,,,,,,,,,,,,,,,,,,,1.71,534.7159004999994,None,space,1,0.35690810000232887,536.5304583999969,None,536.5304583999969,None,536.5304583999969,None,,,,,,,,,,,P004,fencog,2,Pre,2021_Jul_09_1049,Go No-Go Task,2021.1.4,120.00249604298362,
,"Rule: When you see a yellow image, do not press 'spacebar'.",Images/Happy/AM23HAS.jpg,Happy,Yellow,Images/Yellow.jpg,None,ParentConditions/YellowBlueBlue_v2.xlsx,BlueBlueYellow,Conditions/Version_2/YellowHappyStop.xlsx,yes,PASS,0.4223687412850129,,,,,,,,,0,0,0,0,0,0,0,0,0,79,79,79,,,,,,,,,,,,,,,,,,,,,,,,,,,,,,,,,,,,,,,,,,,,,,,,,,,,,,,,,,,,,,,,,,,,,,,,,,,,,,,1.87,536.9335583000066,None,None,1,,538.9048488999979,None,538.9048488999979,None,538.9048488999979,None,,,,,,,,,,,P004,fencog,2,Pre,2021_Jul_09_1049,Go No-Go Task,2021.1.4,120.00249604298362,
,"Rule: When you see blue image, do not press 'spacebar'.",Images/Fearful/HM06_FC.jpg,Fear,Blue,Images/Blue.jpg,None,ParentConditions/YellowBlueBlue_v2.xlsx,BlueBlueYellow,Conditions/Version_2/BlueFearStop.xlsx,yes,PASS,0.29049104493206235,,,,,,,,,0,0,0,0,0,1,1,1,0,0,0,0,,,,,,,,,,,,,,,,,,,,,,,,,,,,,,,,,,,,,,,,,,,,,,,,,,,,,,,,,,,,,,,,,598.685264300002,None,601.6771988999972,None,space,7.953443199992762,601.6771988999972,None,598.685264300002,None,598.685264300002,None,598.685264300002,None,1.59,609.6756428000081,None,None,1,,611.3666080000112,None,611.3666080000112,None,611.3666080000112,None,539.3164811000024,None,space,58.85886259999825,539.8039594000002,None,539.3164811000024,None,539.3164811000024,None,P004,fencog,2,Pre,2021_Jul_09_1049,Go No-Go Task,2021.1.4,120.00249604298362,
,"Rule: When you see blue image, do not press 'spacebar'.",Images/Happy/AF07HAS.jpg,Happy,Yellow,Images/Yellow.jpg,space,ParentConditions/YellowBlueBlue_v2.xlsx,BlueBlueYellow,Conditions/Version_2/BlueFearStop.xlsx,no,PASS,0.3060165792014795,,,,,,,,,0,0,0,0,0,1,1,1,0,1,1,1,,,,,,,,,,,,,,,,,,,,,,,,,,,,,,,,,,,,,,,,,,,,,,,,,,,,,,,,,,,,,,,,,,,,,,,,,,,,,,,1.49,611.7657584999979,None,space,1,0.2730316999950446,613.3574488000013,None,613.3574488000013,None,613.3574488000013,None,,,,,,,,,,,P004,fencog,2,Pre,2021_Jul_09_1049,Go No-Go Task,2021.1.4,120.00249604298362,
,"Rule: When you see blue image, do not press 'spacebar'.",Images/Happy/AF28HAS.jpg,Happy,Yellow,Images/Yellow.jpg,space,ParentConditions/YellowBlueBlue_v2.xlsx,BlueBlueYellow,Conditions/Version_2/BlueFearStop.xlsx,no,PASS,0.23458600871698787,,,,,,,,,0,0,0,0,0,1,1,1,0,2,2,2,,,,,,,,,,,,,,,,,,,,,,,,,,,,,,,,,,,,,,,,,,,,,,,,,,,,,,,,,,,,,,,,,,,,,,,,,,,,,,,1.69,613.7564889000059,None,space,1,0.28951809999125544,615.5486882000114,None,615.5486882000114,None,615.5486882000114,None,,,,,,,,,,,P004,fencog,2,Pre,2021_Jul_09_1049,Go No-Go Task,2021.1.4,120.00249604298362,
,"Rule: When you see blue image, do not press 'spacebar'.",Images/Happy/AF22HAS.jpg,Happy,Yellow,Images/Yellow.jpg,space,ParentConditions/YellowBlueBlue_v2.xlsx,BlueBlueYellow,Conditions/Version_2/BlueFearStop.xlsx,no,PASS,0.11899132917260535,,,,,,,,,0,0,0,0,0,1,1,1,0,3,3,3,,,,,,,,,,,,,,,,,,,,,,,,,,,,,,,,,,,,,,,,,,,,,,,,,,,,,,,,,,,,,,,,,,,,,,,,,,,,,,,1.33,615.9478415000049,None,space,1,0.2651503000088269,617.3812734000094,None,617.3812734000094,None,617.3812734000094,None,,,,,,,,,,,P004,fencog,2,Pre,2021_Jul_09_1049,Go No-Go Task,2021.1.4,120.00249604298362,
,"Rule: When you see blue image, do not press 'spacebar'.",Images/Fearful/AF27AFS.jpg,Fear,Blue,Images/Blue.jpg,None,ParentConditions/YellowBlueBlue_v2.xlsx,BlueBlueYellow,Conditions/Version_2/BlueFearStop.xlsx,yes,PASS,0.3988252776358663,,,,,,,,,0,0,0,0,0,1,1,1,0,4,4,4,,,,,,,,,,,,,,,,,,,,,,,,,,,,,,,,,,,,,,,,,,,,,,,,,,,,,,,,,,,,,,,,,,,,,,,,,,,,,,,1.79,617.7803905000037,None,None,1,,619.6726342000038,None,619.6726342000038,None,619.6726342000038,None,,,,,,,,,,,P004,fencog,2,Pre,2021_Jul_09_1049,Go No-Go Task,2021.1.4,120.00249604298362,
,"Rule: When you see blue image, do not press 'spacebar'.",Images/Happy/AM24HAS.jpg,Happy,Yellow,Images/Yellow.jpg,space,ParentConditions/YellowBlueBlue_v2.xlsx,BlueBlueYellow,Conditions/Version_2/BlueFearStop.xlsx,no,PASS,0.6540701766357542,,,,,,,,,0,0,0,0,0,1,1,1,0,5,5,5,,,,,,,,,,,,,,,,,,,,,,,,,,,,,,,,,,,,,,,,,,,,,,,,,,,,,,,,,,,,,,,,,,,,,,,,,,,,,,,1.26,620.0712387000094,None,space,1,0.2883428999921307,621.438906299998,None,621.438906299998,None,621.438906299998,None,,,,,,,,,,,P004,fencog,2,Pre,2021_Jul_09_1049,Go No-Go Task,2021.1.4,120.00249604298362,
,"Rule: When you see blue image, do not press 'spacebar'.",Images/Fearful/AF26AFS.jpg,Fear,Blue,Images/Blue.jpg,None,ParentConditions/YellowBlueBlue_v2.xlsx,BlueBlueYellow,Conditions/Version_2/BlueFearStop.xlsx,yes,PASS,0.672416725983861,,,,,,,,,0,0,0,0,0,1,1,1,0,6,6,6,,,,,,,,,,,,,,,,,,,,,,,,,,,,,,,,,,,,,,,,,,,,,,,,,,,,,,,,,,,,,,,,,,,,,,,,,,,,,,,1.34,621.8468728000007,None,None,1,,623.2878408000106,None,623.2878408000106,None,623.2878408000106,None,,,,,,,,,,,P004,fencog,2,Pre,2021_Jul_09_1049,Go No-Go Task,2021.1.4,120.00249604298362,
,"Rule: When you see blue image, do not press 'spacebar'.",Images/Happy/WM11_HC.jpg,Happy,Yellow,Images/Yellow.jpg,space,ParentConditions/YellowBlueBlue_v2.xlsx,BlueBlueYellow,Conditions/Version_2/BlueFearStop.xlsx,no,PASS,0.8722598945732238,,,,,,,,,0,0,0,0,0,1,1,1,0,7,7,7,,,,,,,,,,,,,,,,,,,,,,,,,,,,,,,,,,,,,,,,,,,,,,,,,,,,,,,,,,,,,,,,,,,,,,,,,,,,,,,1.57,623.6925926000113,None,space,1,0.3081978000118397,625.362567300006,None,625.362567300006,None,625.362567300006,None,,,,,,,,,,,P004,fencog,2,Pre,2021_Jul_09_1049,Go No-Go Task,2021.1.4,120.00249604298362,
,"Rule: When you see blue image, do not press 'spacebar'.",Images/Happy/BM03_HO.jpg,Happy,Yellow,Images/Yellow.jpg,space,ParentConditions/YellowBlueBlue_v2.xlsx,BlueBlueYellow,Conditions/Version_2/BlueFearStop.xlsx,no,PASS,0.281866807892032,,,,,,,,,0,0,0,0,0,1,1,1,0,8,8,8,,,,,,,,,,,,,,,,,,,,,,,,,,,,,,,,,,,,,,,,,,,,,,,,,,,,,,,,,,,,,,,,,,,,,,,,,,,,,,,1.61,625.761734700005,None,space,1,0.3369679999887012,627.4784583,None,627.4784583,None,627.4784583,None,,,,,,,,,,,P004,fencog,2,Pre,2021_Jul_09_1049,Go No-Go Task,2021.1.4,120.00249604298362,
,"Rule: When you see blue image, do not press 'spacebar'.",Images/Happy/BF18_HO.jpg,Happy,Yellow,Images/Yellow.jpg,space,ParentConditions/YellowBlueBlue_v2.xlsx,BlueBlueYellow,Conditions/Version_2/BlueFearStop.xlsx,no,PASS,0.056262560303186104,,,,,,,,,0,0,0,0,0,1,1,1,0,9,9,9,,,,,,,,,,,,,,,,,,,,,,,,,,,,,,,,,,,,,,,,,,,,,,,,,,,,,,,,,,,,,,,,,,,,,,,,,,,,,,,1.51,627.8808832000068,None,space,1,0.32874330000777263,629.4946390999976,None,629.4946390999976,None,629.4946390999976,None,,,,,,,,,,,P004,fencog,2,Pre,2021_Jul_09_1049,Go No-Go Task,2021.1.4,120.00249604298362,
,"Rule: When you see blue image, do not press 'spacebar'.",Images/Happy/AM10HAS.jpg,Happy,Yellow,Images/Yellow.jpg,space,ParentConditions/YellowBlueBlue_v2.xlsx,BlueBlueYellow,Conditions/Version_2/BlueFearStop.xlsx,no,PASS,0.26234858566298536,,,,,,,,,0,0,0,0,0,1,1,1,0,10,10,10,,,,,,,,,,,,,,,,,,,,,,,,,,,,,,,,,,,,,,,,,,,,,,,,,,,,,,,,,,,,,,,,,,,,,,,,,,,,,,,1.45,629.8989208999992,None,space,1,0.2984324999997625,631.452492700002,None,631.452492700002,None,631.452492700002,None,,,,,,,,,,,P004,fencog,2,Pre,2021_Jul_09_1049,Go No-Go Task,2021.1.4,120.00249604298362,
,"Rule: When you see blue image, do not press 'spacebar'.",Images/Happy/AM09HAS.jpg,Happy,Yellow,Images/Yellow.jpg,space,ParentConditions/YellowBlueBlue_v2.xlsx,BlueBlueYellow,Conditions/Version_2/BlueFearStop.xlsx,no,PASS,0.5322853606558464,,,,,,,,,0,0,0,0,0,1,1,1,0,11,11,11,,,,,,,,,,,,,,,,,,,,,,,,,,,,,,,,,,,,,,,,,,,,,,,,,,,,,,,,,,,,,,,,,,,,,,,,,,,,,,,1.24,631.8565161000006,None,space,1,0.35684030000993516,633.2019373000076,None,633.2019373000076,None,633.2019373000076,None,,,,,,,,,,,P004,fencog,2,Pre,2021_Jul_09_1049,Go No-Go Task,2021.1.4,120.00249604298362,
,"Rule: When you see blue image, do not press 'spacebar'.",Images/Happy/AM16HAS.jpg,Happy,Yellow,Images/Yellow.jpg,space,ParentConditions/YellowBlueBlue_v2.xlsx,BlueBlueYellow,Conditions/Version_2/BlueFearStop.xlsx,no,PASS,0.8730560121673133,,,,,,,,,0,0,0,0,0,1,1,1,0,12,12,12,,,,,,,,,,,,,,,,,,,,,,,,,,,,,,,,,,,,,,,,,,,,,,,,,,,,,,,,,,,,,,,,,,,,,,,,,,,,,,,1.72,633.6072348000016,None,space,1,0.26025980000849813,635.4428627000016,None,635.4428627000016,None,635.4428627000016,None,,,,,,,,,,,P004,fencog,2,Pre,2021_Jul_09_1049,Go No-Go Task,2021.1.4,120.00249604298362,
,"Rule: When you see blue image, do not press 'spacebar'.",Images/Happy/AF10_HE.jpg,Happy,Yellow,Images/Yellow.jpg,space,ParentConditions/YellowBlueBlue_v2.xlsx,BlueBlueYellow,Conditions/Version_2/BlueFearStop.xlsx,no,PASS,0.7103342893987146,,,,,,,,,0,0,0,0,0,1,1,1,0,13,13,13,,,,,,,,,,,,,,,,,,,,,,,,,,,,,,,,,,,,,,,,,,,,,,,,,,,,,,,,,,,,,,,,,,,,,,,,,,,,,,,1.77,635.8416160000052,None,space,1,0.25806290000036824,637.7172541000036,None,637.7172541000036,None,637.7172541000036,None,,,,,,,,,,,P004,fencog,2,Pre,2021_Jul_09_1049,Go No-Go Task,2021.1.4,120.00249604298362,
,"Rule: When you see blue image, do not press 'spacebar'.",Images/Happy/AF27HAS.jpg,Happy,Yellow,Images/Yellow.jpg,space,ParentConditions/YellowBlueBlue_v2.xlsx,BlueBlueYellow,Conditions/Version_2/BlueFearStop.xlsx,no,PASS,0.8937289807404983,,,,,,,,,0,0,0,0,0,1,1,1,0,14,14,14,,,,,,,,,,,,,,,,,,,,,,,,,,,,,,,,,,,,,,,,,,,,,,,,,,,,,,,,,,,,,,,,,,,,,,,,,,,,,,,1.78,638.1172148000041,None,space,1,0.28695899999001995,639.9998355999996,None,639.9998355999996,None,639.9998355999996,None,,,,,,,,,,,P004,fencog,2,Pre,2021_Jul_09_1049,Go No-Go Task,2021.1.4,120.00249604298362,
,"Rule: When you see blue image, do not press 'spacebar'.",Images/Happy/BF10_HO.jpg,Happy,Yellow,Images/Yellow.jpg,space,ParentConditions/YellowBlueBlue_v2.xlsx,BlueBlueYellow,Conditions/Version_2/BlueFearStop.xlsx,no,PASS,0.41505973664432705,,,,,,,,,0,0,0,0,0,1,1,1,0,15,15,15,,,,,,,,,,,,,,,,,,,,,,,,,,,,,,,,,,,,,,,,,,,,,,,,,,,,,,,,,,,,,,,,,,,,,,,,,,,,,,,1.9,640.4000337000034,None,space,1,0.3109334000037052,642.4158577000053,None,642.4158577000053,None,642.4158577000053,None,,,,,,,,,,,P004,fencog,2,Pre,2021_Jul_09_1049,Go No-Go Task,2021.1.4,120.00249604298362,
,"Rule: When you see blue image, do not press 'spacebar'.",Images/Happy/BF14_HO.jpg,Happy,Yellow,Images/Yellow.jpg,space,ParentConditions/YellowBlueBlue_v2.xlsx,BlueBlueYellow,Conditions/Version_2/BlueFearStop.xlsx,no,PASS,0.38735807018105894,,,,,,,,,0,0,0,0,0,1,1,1,0,16,16,16,,,,,,,,,,,,,,,,,,,,,,,,,,,,,,,,,,,,,,,,,,,,,,,,,,,,,,,,,,,,,,,,,,,,,,,,,,,,,,,1.7,642.8164590000088,None,space,1,0.3117869999987306,644.6231612999982,None,644.6231612999982,None,644.6231612999982,None,,,,,,,,,,,P004,fencog,2,Pre,2021_Jul_09_1049,Go No-Go Task,2021.1.4,120.00249604298362,
,"Rule: When you see blue image, do not press 'spacebar'.",Images/Fearful/BM08_FC.jpg,Fear,Blue,Images/Blue.jpg,None,ParentConditions/YellowBlueBlue_v2.xlsx,BlueBlueYellow,Conditions/Version_2/BlueFearStop.xlsx,yes,PASS,0.7905879335514261,,,,,,,,,0,0,0,0,0,1,1,1,0,17,17,17,,,,,,,,,,,,,,,,,,,,,,,,,,,,,,,,,,,,,,,,,,,,,,,,,,,,,,,,,,,,,,,,,,,,,,,,,,,,,,,1.46,645.0237004000082,None,None,1,,646.5896472000022,None,646.5896472000022,None,646.5896472000022,None,,,,,,,,,,,P004,fencog,2,Pre,2021_Jul_09_1049,Go No-Go Task,2021.1.4,120.00249604298362,
,"Rule: When you see blue image, do not press 'spacebar'.",Images/Happy/AM01HAS.jpg,Happy,Yellow,Images/Yellow.jpg,space,ParentConditions/YellowBlueBlue_v2.xlsx,BlueBlueYellow,Conditions/Version_2/BlueFearStop.xlsx,no,PASS,0.9589705349559869,,,,,,,,,0,0,0,0,0,1,1,1,0,18,18,18,,,,,,,,,,,,,,,,,,,,,,,,,,,,,,,,,,,,,,,,,,,,,,,,,,,,,,,,,,,,,,,,,,,,,,,,,,,,,,,1.23,646.9943422000069,None,space,1,0.29993980001017917,648.3307858000044,None,648.3307858000044,None,648.3307858000044,None,,,,,,,,,,,P004,fencog,2,Pre,2021_Jul_09_1049,Go No-Go Task,2021.1.4,120.00249604298362,
,"Rule: When you see blue image, do not press 'spacebar'.",Images/Happy/AF11HAS.jpg,Happy,Yellow,Images/Yellow.jpg,space,ParentConditions/YellowBlueBlue_v2.xlsx,BlueBlueYellow,Conditions/Version_2/BlueFearStop.xlsx,no,PASS,0.6358882343202421,,,,,,,,,0,0,0,0,0,1,1,1,0,19,19,19,,,,,,,,,,,,,,,,,,,,,,,,,,,,,,,,,,,,,,,,,,,,,,,,,,,,,,,,,,,,,,,,,,,,,,,,,,,,,,,1.92,648.7334682000073,None,space,1,0.2529779999895254,650.7467477000027,None,650.7467477000027,None,650.7467477000027,None,,,,,,,,,,,P004,fencog,2,Pre,2021_Jul_09_1049,Go No-Go Task,2021.1.4,120.00249604298362,
,"Rule: When you see blue image, do not press 'spacebar'.",Images/Happy/BM01_HO.jpg,Happy,Yellow,Images/Yellow.jpg,space,ParentConditions/YellowBlueBlue_v2.xlsx,BlueBlueYellow,Conditions/Version_2/BlueFearStop.xlsx,no,PASS,0.301040907790301,,,,,,,,,0,0,0,0,0,1,1,1,0,20,20,20,,,,,,,,,,,,,,,,,,,,,,,,,,,,,,,,,,,,,,,,,,,,,,,,,,,,,,,,,,,,,,,,,,,,,,,,,,,,,,,2,651.1464712000015,None,space,1,0.2563741000049049,653.2543585000094,None,653.2543585000094,None,653.2543585000094,None,,,,,,,,,,,P004,fencog,2,Pre,2021_Jul_09_1049,Go No-Go Task,2021.1.4,120.00249604298362,
,"Rule: When you see blue image, do not press 'spacebar'.",Images/Happy/AF07_HO.jpg,Happy,Yellow,Images/Yellow.jpg,space,ParentConditions/YellowBlueBlue_v2.xlsx,BlueBlueYellow,Conditions/Version_2/BlueFearStop.xlsx,no,PASS,0.16146803476355298,,,,,,,,,0,0,0,0,0,1,1,1,0,21,21,21,,,,,,,,,,,,,,,,,,,,,,,,,,,,,,,,,,,,,,,,,,,,,,,,,,,,,,,,,,,,,,,,,,,,,,,,,,,,,,,1.95,653.6533741000021,None,space,1,0.19088629999896511,655.703657799997,None,655.703657799997,None,655.703657799997,None,,,,,,,,,,,P004,fencog,2,Pre,2021_Jul_09_1049,Go No-Go Task,2021.1.4,120.00249604298362,
,"Rule: When you see blue image, do not press 'spacebar'.",Images/Happy/HM06_HO.jpg,Happy,Yellow,Images/Yellow.jpg,space,ParentConditions/YellowBlueBlue_v2.xlsx,BlueBlueYellow,Conditions/Version_2/BlueFearStop.xlsx,no,PASS,0.017367743981932304,,,,,,,,,0,0,0,0,0,1,1,1,0,22,22,22,,,,,,,,,,,,,,,,,,,,,,,,,,,,,,,,,,,,,,,,,,,,,,,,,,,,,,,,,,,,,,,,,,,,,,,,,,,,,,,1.28,656.1026577000011,None,space,1,0.34415330000047106,657.4946971000027,None,657.4946971000027,None,657.4946971000027,None,,,,,,,,,,,P004,fencog,2,Pre,2021_Jul_09_1049,Go No-Go Task,2021.1.4,120.00249604298362,
,"Rule: When you see blue image, do not press 'spacebar'.",Images/Fearful/AM09_FO.jpg,Fear,Blue,Images/Blue.jpg,None,ParentConditions/YellowBlueBlue_v2.xlsx,BlueBlueYellow,Conditions/Version_2/BlueFearStop.xlsx,yes,PASS,0.2997278789301355,,,,,,,,,0,0,0,0,0,1,1,1,0,23,23,23,,,,,,,,,,,,,,,,,,,,,,,,,,,,,,,,,,,,,,,,,,,,,,,,,,,,,,,,,,,,,,,,,,,,,,,,,,,,,,,1.58,657.8931848000066,None,None,1,,659.5770037000038,None,659.5770037000038,None,659.5770037000038,None,,,,,,,,,,,P004,fencog,2,Pre,2021_Jul_09_1049,Go No-Go Task,2021.1.4,120.00249604298362,
,"Rule: When you see blue image, do not press 'spacebar'.",Images/Happy/AF09HAS.jpg,Happy,Yellow,Images/Yellow.jpg,space,ParentConditions/YellowBlueBlue_v2.xlsx,BlueBlueYellow,Conditions/Version_2/BlueFearStop.xlsx,no,PASS,0.8273900201130844,,,,,,,,,0,0,0,0,0,1,1,1,0,24,24,24,,,,,,,,,,,,,,,,,,,,,,,,,,,,,,,,,,,,,,,,,,,,,,,,,,,,,,,,,,,,,,,,,,,,,,,,,,,,,,,1.54,659.9760972000076,None,space,1,0.29235059999336954,661.6186196000053,None,661.6186196000053,None,661.6186196000053,None,,,,,,,,,,,P004,fencog,2,Pre,2021_Jul_09_1049,Go No-Go Task,2021.1.4,120.00249604298362,
,"Rule: When you see blue image, do not press 'spacebar'.",Images/Happy/AM04HAS.jpg,Happy,Yellow,Images/Yellow.jpg,space,ParentConditions/YellowBlueBlue_v2.xlsx,BlueBlueYellow,Conditions/Version_2/BlueFearStop.xlsx,no,PASS,0.7497236344439144,,,,,,,,,0,0,0,0,0,1,1,1,0,25,25,25,,,,,,,,,,,,,,,,,,,,,,,,,,,,,,,,,,,,,,,,,,,,,,,,,,,,,,,,,,,,,,,,,,,,,,,,,,,,,,,1.88,662.0195355000033,None,space,1,0.3423758999997517,664.0011177999986,None,664.0011177999986,None,664.0011177999986,None,,,,,,,,,,,P004,fencog,2,Pre,2021_Jul_09_1049,Go No-Go Task,2021.1.4,120.00249604298362,
,"Rule: When you see blue image, do not press 'spacebar'.",Images/Happy/BF07_HO.jpg,Happy,Yellow,Images/Yellow.jpg,space,ParentConditions/YellowBlueBlue_v2.xlsx,BlueBlueYellow,Conditions/Version_2/BlueFearStop.xlsx,no,PASS,0.9631973209169931,,,,,,,,,0,0,0,0,0,1,1,1,0,26,26,26,,,,,,,,,,,,,,,,,,,,,,,,,,,,,,,,,,,,,,,,,,,,,,,,,,,,,,,,,,,,,,,,,,,,,,,,,,,,,,,1.81,664.4009342000063,None,space,1,0.24970589998702053,666.31718920001,None,666.31718920001,None,666.31718920001,None,,,,,,,,,,,P004,fencog,2,Pre,2021_Jul_09_1049,Go No-Go Task,2021.1.4,120.00249604298362,
,"Rule: When you see blue image, do not press 'spacebar'.",Images/Happy/AF02HAS.jpg,Happy,Yellow,Images/Yellow.jpg,space,ParentConditions/YellowBlueBlue_v2.xlsx,BlueBlueYellow,Conditions/Version_2/BlueFearStop.xlsx,no,PASS,0.44316288931410874,,,,,,,,,0,0,0,0,0,1,1,1,0,27,27,27,,,,,,,,,,,,,,,,,,,,,,,,,,,,,,,,,,,,,,,,,,,,,,,,,,,,,,,,,,,,,,,,,,,,,,,,,,,,,,,1.99,666.7167837000015,None,space,1,0.2629439000011189,668.8081367999985,None,668.8081367999985,None,668.8081367999985,None,,,,,,,,,,,P004,fencog,2,Pre,2021_Jul_09_1049,Go No-Go Task,2021.1.4,120.00249604298362,
,"Rule: When you see blue image, do not press 'spacebar'.",Images/Happy/AM30HAS.jpg,Happy,Yellow,Images/Yellow.jpg,space,ParentConditions/YellowBlueBlue_v2.xlsx,BlueBlueYellow,Conditions/Version_2/BlueFearStop.xlsx,no,PASS,0.8101164063536405,,,,,,,,,0,0,0,0,0,1,1,1,0,28,28,28,,,,,,,,,,,,,,,,,,,,,,,,,,,,,,,,,,,,,,,,,,,,,,,,,,,,,,,,,,,,,,,,,,,,,,,,,,,,,,,1.44,669.2075060000061,None,space,1,0.33750169999257196,670.7490824999986,None,670.7490824999986,None,670.7490824999986,None,,,,,,,,,,,P004,fencog,2,Pre,2021_Jul_09_1049,Go No-Go Task,2021.1.4,120.00249604298362,
,"Rule: When you see blue image, do not press 'spacebar'.",Images/Happy/BF05_HO.jpg,Happy,Yellow,Images/Yellow.jpg,space,ParentConditions/YellowBlueBlue_v2.xlsx,BlueBlueYellow,Conditions/Version_2/BlueFearStop.xlsx,no,PASS,0.6770609167729968,,,,,,,,,0,0,0,0,0,1,1,1,0,29,29,29,,,,,,,,,,,,,,,,,,,,,,,,,,,,,,,,,,,,,,,,,,,,,,,,,,,,,,,,,,,,,,,,,,,,,,,,,,,,,,,1.85,671.1496161000105,None,space,1,0.22739369999908376,673.1068491000042,None,673.1068491000042,None,673.1068491000042,None,,,,,,,,,,,P004,fencog,2,Pre,2021_Jul_09_1049,Go No-Go Task,2021.1.4,120.00249604298362,
,"Rule: When you see blue image, do not press 'spacebar'.",Images/Fearful/AF25AFS.jpg,Fear,Blue,Images/Blue.jpg,None,ParentConditions/YellowBlueBlue_v2.xlsx,BlueBlueYellow,Conditions/Version_2/BlueFearStop.xlsx,yes,PASS,0.9137328829424104,,,,,,,,,0,0,0,0,0,1,1,1,0,30,30,30,,,,,,,,,,,,,,,,,,,,,,,,,,,,,,,,,,,,,,,,,,,,,,,,,,,,,,,,,,,,,,,,,,,,,,,,,,,,,,,1.89,673.505677100009,None,None,1,,675.5392725999991,None,675.5392725999991,None,675.5392725999991,None,,,,,,,,,,,P004,fencog,2,Pre,2021_Jul_09_1049,Go No-Go Task,2021.1.4,120.00249604298362,
,"Rule: When you see blue image, do not press 'spacebar'.",Images/Happy/BF09_HO.jpg,Happy,Yellow,Images/Yellow.jpg,space,ParentConditions/YellowBlueBlue_v2.xlsx,BlueBlueYellow,Conditions/Version_2/BlueFearStop.xlsx,no,PASS,0.7233148419047607,,,,,,,,,0,0,0,0,0,1,1,1,0,31,31,31,,,,,,,,,,,,,,,,,,,,,,,,,,,,,,,,,,,,,,,,,,,,,,,,,,,,,,,,,,,,,,,,,,,,,,,,,,,,,,,1.5,675.9051056000026,None,space,1,0.27744389999134,677.5054335000023,None,677.5054335000023,None,677.5054335000023,None,,,,,,,,,,,P004,fencog,2,Pre,2021_Jul_09_1049,Go No-Go Task,2021.1.4,120.00249604298362,
,"Rule: When you see blue image, do not press 'spacebar'.",Images/Happy/AM09_HE.jpg,Happy,Yellow,Images/Yellow.jpg,space,ParentConditions/YellowBlueBlue_v2.xlsx,BlueBlueYellow,Conditions/Version_2/BlueFearStop.xlsx,no,PASS,0.703399731728546,,,,,,,,,0,0,0,0,0,1,1,1,0,32,32,32,,,,,,,,,,,,,,,,,,,,,,,,,,,,,,,,,,,,,,,,,,,,,,,,,,,,,,,,,,,,,,,,,,,,,,,,,,,,,,,1.4,677.9052838000061,None,space,1,0.14541060000192374,679.4133366000024,None,679.4133366000024,None,679.4133366000024,None,,,,,,,,,,,P004,fencog,2,Pre,2021_Jul_09_1049,Go No-Go Task,2021.1.4,120.00249604298362,
,"Rule: When you see blue image, do not press 'spacebar'.",Images/Fearful/BF14_FO.jpg,Fear,Blue,Images/Blue.jpg,None,ParentConditions/YellowBlueBlue_v2.xlsx,BlueBlueYellow,Conditions/Version_2/BlueFearStop.xlsx,yes,PASS,0.641858343679783,,,,,,,,,0,0,0,0,0,1,1,1,0,33,33,33,,,,,,,,,,,,,,,,,,,,,,,,,,,,,,,,,,,,,,,,,,,,,,,,,,,,,,,,,,,,,,,,,,,,,,,,,,,,,,,1.97,679.8194896000059,None,space,0,0.20692799999960698,681.8957956000086,None,681.8957956000086,None,681.8957956000086,None,,,,,,,,,,,P004,fencog,2,Pre,2021_Jul_09_1049,Go No-Go Task,2021.1.4,120.00249604298362,
,"Rule: When you see blue image, do not press 'spacebar'.",Images/Fearful/HF05_FC.jpg,Fear,Blue,Images/Blue.jpg,None,ParentConditions/YellowBlueBlue_v2.xlsx,BlueBlueYellow,Conditions/Version_2/BlueFearStop.xlsx,yes,PASS,0.11935527908981858,,,,,,,,,0,0,0,0,0,1,1,1,0,34,34,34,,,,,,,,,,,,,,,,,,,,,,,,,,,,,,,,,,,,,,,,,,,,,,,,,,,,,,,,,,,,,,,,,,,,,,,,,,,,,,,1.31,682.301701400007,None,space,0,0.2787484000000404,683.7120818000112,None,683.7120818000112,None,683.7120818000112,None,,,,,,,,,,,P004,fencog,2,Pre,2021_Jul_09_1049,Go No-Go Task,2021.1.4,120.00249604298362,
,"Rule: When you see blue image, do not press 'spacebar'.",Images/Happy/AM23HAS.jpg,Happy,Yellow,Images/Yellow.jpg,space,ParentConditions/YellowBlueBlue_v2.xlsx,BlueBlueYellow,Conditions/Version_2/BlueFearStop.xlsx,no,PASS,0.4310663721908784,,,,,,,,,0,0,0,0,0,1,1,1,0,35,35,35,,,,,,,,,,,,,,,,,,,,,,,,,,,,,,,,,,,,,,,,,,,,,,,,,,,,,,,,,,,,,,,,,,,,,,,,,,,,,,,1.93,684.1119512000005,None,space,1,0.3831696999986889,686.1446246999985,None,686.1446246999985,None,686.1446246999985,None,,,,,,,,,,,P004,fencog,2,Pre,2021_Jul_09_1049,Go No-Go Task,2021.1.4,120.00249604298362,
,"Rule: When you see blue image, do not press 'spacebar'.",Images/Happy/AM03_HO.jpg,Happy,Yellow,Images/Yellow.jpg,space,ParentConditions/YellowBlueBlue_v2.xlsx,BlueBlueYellow,Conditions/Version_2/BlueFearStop.xlsx,no,PASS,0.027367773514368476,,,,,,,,,0,0,0,0,0,1,1,1,0,36,36,36,,,,,,,,,,,,,,,,,,,,,,,,,,,,,,,,,,,,,,,,,,,,,,,,,,,,,,,,,,,,,,,,,,,,,,,,,,,,,,,1.83,686.5442618000088,None,space,1,0.24964989999716636,688.4771905000089,None,688.4771905000089,None,688.4771905000089,None,,,,,,,,,,,P004,fencog,2,Pre,2021_Jul_09_1049,Go No-Go Task,2021.1.4,120.00249604298362,
,"Rule: When you see blue image, do not press 'spacebar'.",Images/Happy/AF25HAS.jpg,Happy,Yellow,Images/Yellow.jpg,space,ParentConditions/YellowBlueBlue_v2.xlsx,BlueBlueYellow,Conditions/Version_2/BlueFearStop.xlsx,no,PASS,0.04870321560414337,,,,,,,,,0,0,0,0,0,1,1,1,0,37,37,37,,,,,,,,,,,,,,,,,,,,,,,,,,,,,,,,,,,,,,,,,,,,,,,,,,,,,,,,,,,,,,,,,,,,,,,,,,,,,,,1.42,688.8824069000111,None,None,0,,690.409950900008,None,690.409950900008,None,690.409950900008,None,,,,,,,,,,,P004,fencog,2,Pre,2021_Jul_09_1049,Go No-Go Task,2021.1.4,120.00249604298362,
,"Rule: When you see blue image, do not press 'spacebar'.",Images/Happy/BM08_HO.jpg,Happy,Yellow,Images/Yellow.jpg,space,ParentConditions/YellowBlueBlue_v2.xlsx,BlueBlueYellow,Conditions/Version_2/BlueFearStop.xlsx,no,PASS,0.026169495354104844,,,,,,,,,0,0,0,0,0,1,1,1,0,38,38,38,,,,,,,,,,,,,,,,,,,,,,,,,,,,,,,,,,,,,,,,,,,,,,,,,,,,,,,,,,,,,,,,,,,,,,,,,,,,,,,1.56,690.810705099997,None,space,1,0.2910307999991346,692.4759908999986,None,692.4759908999986,None,692.4759908999986,None,,,,,,,,,,,P004,fencog,2,Pre,2021_Jul_09_1049,Go No-Go Task,2021.1.4,120.00249604298362,
,"Rule: When you see blue image, do not press 'spacebar'.",Images/Happy/AF32HAS.jpg,Happy,Yellow,Images/Yellow.jpg,space,ParentConditions/YellowBlueBlue_v2.xlsx,BlueBlueYellow,Conditions/Version_2/BlueFearStop.xlsx,no,PASS,0.007662007482450273,,,,,,,,,0,0,0,0,0,1,1,1,0,39,39,39,,,,,,,,,,,,,,,,,,,,,,,,,,,,,,,,,,,,,,,,,,,,,,,,,,,,,,,,,,,,,,,,,,,,,,,,,,,,,,,1.75,692.875700500008,None,space,1,0.16907580000406597,694.7253511000017,None,694.7253511000017,None,694.7253511000017,None,,,,,,,,,,,P004,fencog,2,Pre,2021_Jul_09_1049,Go No-Go Task,2021.1.4,120.00249604298362,
,"Rule: When you see blue image, do not press 'spacebar'.",Images/Happy/AF23HAS.jpg,Happy,Yellow,Images/Yellow.jpg,space,ParentConditions/YellowBlueBlue_v2.xlsx,BlueBlueYellow,Conditions/Version_2/BlueFearStop.xlsx,no,PASS,0.13322659163638806,,,,,,,,,0,0,0,0,0,1,1,1,0,40,40,40,,,,,,,,,,,,,,,,,,,,,,,,,,,,,,,,,,,,,,,,,,,,,,,,,,,,,,,,,,,,,,,,,,,,,,,,,,,,,,,1.43,695.1258556000103,None,space,1,0.26015069999266416,696.666447399999,None,696.666447399999,None,696.666447399999,None,,,,,,,,,,,P004,fencog,2,Pre,2021_Jul_09_1049,Go No-Go Task,2021.1.4,120.00249604298362,
,"Rule: When you see blue image, do not press 'spacebar'.",Images/Happy/AM32HAS.jpg,Happy,Yellow,Images/Yellow.jpg,space,ParentConditions/YellowBlueBlue_v2.xlsx,BlueBlueYellow,Conditions/Version_2/BlueFearStop.xlsx,no,PASS,0.18790539518346805,,,,,,,,,0,0,0,0,0,1,1,1,0,41,41,41,,,,,,,,,,,,,,,,,,,,,,,,,,,,,,,,,,,,,,,,,,,,,,,,,,,,,,,,,,,,,,,,,,,,,,,,,,,,,,,1.74,697.0655945000035,None,space,1,0.26700749999145046,698.9074939999991,None,698.9074939999991,None,698.9074939999991,None,,,,,,,,,,,P004,fencog,2,Pre,2021_Jul_09_1049,Go No-Go Task,2021.1.4,120.00249604298362,
,"Rule: When you see blue image, do not press 'spacebar'.",Images/Fearful/AM30AFS.jpg,Fear,Blue,Images/Blue.jpg,None,ParentConditions/YellowBlueBlue_v2.xlsx,BlueBlueYellow,Conditions/Version_2/BlueFearStop.xlsx,yes,PASS,0.3894428318578558,,,,,,,,,0,0,0,0,0,1,1,1,0,42,42,42,,,,,,,,,,,,,,,,,,,,,,,,,,,,,,,,,,,,,,,,,,,,,,,,,,,,,,,,,,,,,,,,,,,,,,,,,,,,,,,1.96,699.3130976000102,None,None,1,,701.3734362000105,None,701.3734362000105,None,701.3734362000105,None,,,,,,,,,,,P004,fencog,2,Pre,2021_Jul_09_1049,Go No-Go Task,2021.1.4,120.00249604298362,
,"Rule: When you see blue image, do not press 'spacebar'.",Images/Happy/BM02_HO.jpg,Happy,Yellow,Images/Yellow.jpg,space,ParentConditions/YellowBlueBlue_v2.xlsx,BlueBlueYellow,Conditions/Version_2/BlueFearStop.xlsx,no,PASS,0.8000984906086622,,,,,,,,,0,0,0,0,0,1,1,1,0,43,43,43,,,,,,,,,,,,,,,,,,,,,,,,,,,,,,,,,,,,,,,,,,,,,,,,,,,,,,,,,,,,,,,,,,,,,,,,,,,,,,,1.94,701.7724037000007,None,space,1,0.2566133000073023,703.81448310001,None,703.81448310001,None,703.81448310001,None,,,,,,,,,,,P004,fencog,2,Pre,2021_Jul_09_1049,Go No-Go Task,2021.1.4,120.00249604298362,
,"Rule: When you see blue image, do not press 'spacebar'.",Images/Happy/AM10_HO.jpg,Happy,Yellow,Images/Yellow.jpg,space,ParentConditions/YellowBlueBlue_v2.xlsx,BlueBlueYellow,Conditions/Version_2/BlueFearStop.xlsx,no,PASS,0.5717939201397183,,,,,,,,,0,0,0,0,0,1,1,1,0,44,44,44,,,,,,,,,,,,,,,,,,,,,,,,,,,,,,,,,,,,,,,,,,,,,,,,,,,,,,,,,,,,,,,,,,,,,,,,,,,,,,,1.71,704.2161353999982,None,space,1,0.21700579999014735,706.0303809000034,None,706.0303809000034,None,706.0303809000034,None,,,,,,,,,,,P004,fencog,2,Pre,2021_Jul_09_1049,Go No-Go Task,2021.1.4,120.00249604298362,
,"Rule: When you see blue image, do not press 'spacebar'.",Images/Fearful/AM10_FO.jpg,Fear,Blue,Images/Blue.jpg,None,ParentConditions/YellowBlueBlue_v2.xlsx,BlueBlueYellow,Conditions/Version_2/BlueFearStop.xlsx,yes,PASS,0.5269701617606191,,,,,,,,,0,0,0,0,0,1,1,1,0,45,45,45,,,,,,,,,,,,,,,,,,,,,,,,,,,,,,,,,,,,,,,,,,,,,,,,,,,,,,,,,,,,,,,,,,,,,,,,,,,,,,,1.25,706.434926700007,None,space,0,0.27455250000639353,707.7882362000091,None,707.7882362000091,None,707.7882362000091,None,,,,,,,,,,,P004,fencog,2,Pre,2021_Jul_09_1049,Go No-Go Task,2021.1.4,120.00249604298362,
,"Rule: When you see blue image, do not press 'spacebar'.",Images/Happy/AF19HAS.jpg,Happy,Yellow,Images/Yellow.jpg,space,ParentConditions/YellowBlueBlue_v2.xlsx,BlueBlueYellow,Conditions/Version_2/BlueFearStop.xlsx,no,PASS,0.6170839926730745,,,,,,,,,0,0,0,0,0,1,1,1,0,46,46,46,,,,,,,,,,,,,,,,,,,,,,,,,,,,,,,,,,,,,,,,,,,,,,,,,,,,,,,,,,,,,,,,,,,,,,,,,,,,,,,1.52,708.1871398000076,None,space,1,0.25899699999717996,709.8125813000079,None,709.8125813000079,None,709.8125813000079,None,,,,,,,,,,,P004,fencog,2,Pre,2021_Jul_09_1049,Go No-Go Task,2021.1.4,120.00249604298362,
,"Rule: When you see blue image, do not press 'spacebar'.",Images/Fearful/HF09_FC.jpg,Fear,Blue,Images/Blue.jpg,None,ParentConditions/YellowBlueBlue_v2.xlsx,BlueBlueYellow,Conditions/Version_2/BlueFearStop.xlsx,yes,PASS,0.03424286048079783,,,,,,,,,0,0,0,0,0,1,1,1,0,47,47,47,,,,,,,,,,,,,,,,,,,,,,,,,,,,,,,,,,,,,,,,,,,,,,,,,,,,,,,,,,,,,,,,,,,,,,,,,,,,,,,1.8,710.2135804999998,None,None,1,,712.1202231000061,None,712.1202231000061,None,712.1202231000061,None,,,,,,,,,,,P004,fencog,2,Pre,2021_Jul_09_1049,Go No-Go Task,2021.1.4,120.00249604298362,
,"Rule: When you see blue image, do not press 'spacebar'.",Images/Fearful/AM22AFS.jpg,Fear,Blue,Images/Blue.jpg,None,ParentConditions/YellowBlueBlue_v2.xlsx,BlueBlueYellow,Conditions/Version_2/BlueFearStop.xlsx,yes,PASS,0.9945919074829972,,,,,,,,,0,0,0,0,0,1,1,1,0,48,48,48,,,,,,,,,,,,,,,,,,,,,,,,,,,,,,,,,,,,,,,,,,,,,,,,,,,,,,,,,,,,,,,,,,,,,,,,,,,,,,,1.64,712.5294219000061,None,None,1,,714.2695846999995,None,714.2695846999995,None,714.2695846999995,None,,,,,,,,,,,P004,fencog,2,Pre,2021_Jul_09_1049,Go No-Go Task,2021.1.4,120.00249604298362,
,"Rule: When you see blue image, do not press 'spacebar'.",Images/Happy/AM06_HC.jpg,Happy,Yellow,Images/Yellow.jpg,space,ParentConditions/YellowBlueBlue_v2.xlsx,BlueBlueYellow,Conditions/Version_2/BlueFearStop.xlsx,no,PASS,0.15639026645094434,,,,,,,,,0,0,0,0,0,1,1,1,0,49,49,49,,,,,,,,,,,,,,,,,,,,,,,,,,,,,,,,,,,,,,,,,,,,,,,,,,,,,,,,,,,,,,,,,,,,,,,,,,,,,,,1.48,714.6699997000105,None,space,1,0.3708907999971416,716.252378899997,None,716.252378899997,None,716.252378899997,None,,,,,,,,,,,P004,fencog,2,Pre,2021_Jul_09_1049,Go No-Go Task,2021.1.4,120.00249604298362,
,"Rule: When you see blue image, do not press 'spacebar'.",Images/Fearful/AM32AFS.jpg,Fear,Blue,Images/Blue.jpg,None,ParentConditions/YellowBlueBlue_v2.xlsx,BlueBlueYellow,Conditions/Version_2/BlueFearStop.xlsx,yes,PASS,0.6879520753296126,,,,,,,,,0,0,0,0,0,1,1,1,0,50,50,50,,,,,,,,,,,,,,,,,,,,,,,,,,,,,,,,,,,,,,,,,,,,,,,,,,,,,,,,,,,,,,,,,,,,,,,,,,,,,,,1.2,716.6620129000075,None,space,0,0.3503612999920733,717.9685020000034,None,717.9685020000034,None,717.9685020000034,None,,,,,,,,,,,P004,fencog,2,Pre,2021_Jul_09_1049,Go No-Go Task,2021.1.4,120.00249604298362,
,"Rule: When you see blue image, do not press 'spacebar'.",Images/Happy/WF11_HE.jpg,Happy,Yellow,Images/Yellow.jpg,space,ParentConditions/YellowBlueBlue_v2.xlsx,BlueBlueYellow,Conditions/Version_2/BlueFearStop.xlsx,no,PASS,0.0583479260669304,,,,,,,,,0,0,0,0,0,1,1,1,0,51,51,51,,,,,,,,,,,,,,,,,,,,,,,,,,,,,,,,,,,,,,,,,,,,,,,,,,,,,,,,,,,,,,,,,,,,,,,,,,,,,,,1.22,718.3689464000054,None,space,1,0.33752430000458844,719.6931033000001,None,719.6931033000001,None,719.6931033000001,None,,,,,,,,,,,P004,fencog,2,Pre,2021_Jul_09_1049,Go No-Go Task,2021.1.4,120.00249604298362,
,"Rule: When you see blue image, do not press 'spacebar'.",Images/Fearful/AF28AFS.jpg,Fear,Blue,Images/Blue.jpg,None,ParentConditions/YellowBlueBlue_v2.xlsx,BlueBlueYellow,Conditions/Version_2/BlueFearStop.xlsx,yes,PASS,0.84152709172785,,,,,,,,,0,0,0,0,0,1,1,1,0,52,52,52,,,,,,,,,,,,,,,,,,,,,,,,,,,,,,,,,,,,,,,,,,,,,,,,,,,,,,,,,,,,,,,,,,,,,,,,,,,,,,,1.63,720.0970098000107,None,None,1,,721.8340030000109,None,721.8340030000109,None,721.8340030000109,None,,,,,,,,,,,P004,fencog,2,Pre,2021_Jul_09_1049,Go No-Go Task,2021.1.4,120.00249604298362,
,"Rule: When you see blue image, do not press 'spacebar'.",Images/Happy/HF04_HE.jpg,Happy,Yellow,Images/Yellow.jpg,space,ParentConditions/YellowBlueBlue_v2.xlsx,BlueBlueYellow,Conditions/Version_2/BlueFearStop.xlsx,no,PASS,0.4119172299729392,,,,,,,,,0,0,0,0,0,1,1,1,0,53,53,53,,,,,,,,,,,,,,,,,,,,,,,,,,,,,,,,,,,,,,,,,,,,,,,,,,,,,,,,,,,,,,,,,,,,,,,,,,,,,,,1.36,722.2349145000044,None,space,1,0.3226194999879226,723.7001300999982,None,723.7001300999982,None,723.7001300999982,None,,,,,,,,,,,P004,fencog,2,Pre,2021_Jul_09_1049,Go No-Go Task,2021.1.4,120.00249604298362,
,"Rule: When you see blue image, do not press 'spacebar'.",Images/Happy/AM13HAS.jpg,Happy,Yellow,Images/Yellow.jpg,space,ParentConditions/YellowBlueBlue_v2.xlsx,BlueBlueYellow,Conditions/Version_2/BlueFearStop.xlsx,no,PASS,0.1481016084905541,,,,,,,,,0,0,0,0,0,1,1,1,0,54,54,54,,,,,,,,,,,,,,,,,,,,,,,,,,,,,,,,,,,,,,,,,,,,,,,,,,,,,,,,,,,,,,,,,,,,,,,,,,,,,,,1.62,724.1114555000095,None,space,1,0.3100218999898061,725.8328114000033,None,725.8328114000033,None,725.8328114000033,None,,,,,,,,,,,P004,fencog,2,Pre,2021_Jul_09_1049,Go No-Go Task,2021.1.4,120.00249604298362,
,"Rule: When you see blue image, do not press 'spacebar'.",Images/Happy/HF10_HE.jpg,Happy,Yellow,Images/Yellow.jpg,space,ParentConditions/YellowBlueBlue_v2.xlsx,BlueBlueYellow,Conditions/Version_2/BlueFearStop.xlsx,no,PASS,0.04388835754455167,,,,,,,,,0,0,0,0,0,1,1,1,0,55,55,55,,,,,,,,,,,,,,,,,,,,,,,,,,,,,,,,,,,,,,,,,,,,,,,,,,,,,,,,,,,,,,,,,,,,,,,,,,,,,,,1.87,726.2321751999989,None,space,1,0.29598039999837056,728.2071256000054,None,728.2071256000054,None,728.2071256000054,None,,,,,,,,,,,P004,fencog,2,Pre,2021_Jul_09_1049,Go No-Go Task,2021.1.4,120.00249604298362,
,"Rule: When you see blue image, do not press 'spacebar'.",Images/Happy/AM04_HE.jpg,Happy,Yellow,Images/Yellow.jpg,space,ParentConditions/YellowBlueBlue_v2.xlsx,BlueBlueYellow,Conditions/Version_2/BlueFearStop.xlsx,no,PASS,0.8425689490019698,,,,,,,,,0,0,0,0,0,1,1,1,0,56,56,56,,,,,,,,,,,,,,,,,,,,,,,,,,,,,,,,,,,,,,,,,,,,,,,,,,,,,,,,,,,,,,,,,,,,,,,,,,,,,,,1.27,728.6068079000106,None,space,1,0.3210811000026297,729.9814868000103,None,729.9814868000103,None,729.9814868000103,None,,,,,,,,,,,P004,fencog,2,Pre,2021_Jul_09_1049,Go No-Go Task,2021.1.4,120.00249604298362,
