CondFileP,Instructions,FaceE,Express,ColourT,ColourF,CorrectAnsP,MasterCondFile,BlockOrder,CondFile,ColCheck,Triplicate_check,SORT_BY_SMALLEST,EPracticeOuterLoop.thisRepN,EPracticeOuterLoop.thisTrialN,EPracticeOuterLoop.thisN,EPracticeOuterLoop.thisIndex,EPracticeInnerLoop.thisRepN,EPracticeInnerLoop.thisTrialN,EPracticeInnerLoop.thisN,EPracticeInnerLoop.thisIndex,MasterLoop.thisRepN,MasterLoop.thisTrialN,MasterLoop.thisN,MasterLoop.thisIndex,OuterLoop.thisRepN,OuterLoop.thisTrialN,OuterLoop.thisN,OuterLoop.thisIndex,InnerLoop.thisRepN,InnerLoop.thisTrialN,InnerLoop.thisN,InnerLoop.thisIndex,text_13.started,text_13.stopped,key_resp_10.keys,key_resp_10.rt,key_resp_10.started,key_resp_10.stopped,text4.started,text4.stopped,EmotionTaskInstructions1.keys,EmotionTaskInstructions1.rt,EmotionTaskInstructions1.started,EmotionTaskInstructions1.stopped,text_4.started,text_4.stopped,key_resp_5.keys,key_resp_5.rt,key_resp_5.started,key_resp_5.stopped,Text_14.started,Text_14.stopped,key_resp_9.keys,key_resp_9.rt,key_resp_9.started,key_resp_9.stopped,text_5.started,text_5.stopped,text_6.started,text_6.stopped,key_resp_7.keys,key_resp_7.rt,key_resp_7.started,key_resp_7.stopped,text_10.started,text_10.stopped,text_11.started,text_11.stopped,text_12.started,text_12.stopped,ISIjitterPractice,EPracticeISIMarker.started,EPracticeISIMarker.stopped,Pract.keys,Pract.corr,Pract.started,Pract.stopped,PracticeFace.started,PracticeFace.stopped,ColourPractice.started,ColourPractice.stopped,text_7.started,text_7.stopped,Pract.rt,EndOfPractice.started,EndOfPractice.stopped,key_resp_8.keys,key_resp_8.rt,key_resp_8.started,key_resp_8.stopped,text_8.started,text_8.stopped,key_resp_6.keys,key_resp_6.rt,key_resp_6.started,key_resp_6.stopped,text_2.started,text_2.stopped,text_3.started,text_3.stopped,key_resp_3.keys,key_resp_3.rt,key_resp_3.started,key_resp_3.stopped,TaskBlock.started,TaskBlock.stopped,BlockNo1.started,BlockNo1.stopped,OfBlock.started,OfBlock.stopped,ISIjitter,ISImarker.started,ISImarker.stopped,key_resp.keys,key_resp.corr,key_resp.rt,key_resp.started,key_resp.stopped,FaceSet.started,FaceSet.stopped,Colour.started,Colour.stopped,EndBlockText.started,EndBlockText.stopped,key_resp_4.keys,key_resp_4.rt,key_resp_4.started,key_resp_4.stopped,BreakText2.started,BreakText2.stopped,PressToContinue.started,PressToContinue.stopped,participant,Study Name,Task Version (required to run),PRE/POST,date,expName,psychopyVersion,frameRate,
,,,,,,,,,,,,,,,,,,,,,,,,,,,,,,,,,36.28491859999485,None,space,133.35419639997417,37.27745870000217,None,,,,,,,,,,,,,,,,,,,,,,,,,,,,,,,,,,,,,,,,,,,,,,,,,,,,,,,,,,,,,,,,,,,,,,,,,,,,,,,,,,,,,,,,,,,,,,,P005,fencog,1,Pre,2021_Jul_13_1058,Go No-Go Task,2021.1.4,119.91788025247551,
,,,,,,,,,,,,,,,,,,,,,,,,,,,,,,,,,,,,,,,172.1442701999913,None,space,1.255527000001166,172.1442701999913,None,,,,,,,,,,,,,,,,,,,,,,,,,,,,,,,,,,,,,,,,,,,,,,,,,,,,,,,,,,,,,,,,,,,,,,,,,,,,,,,,,,,,,,,,,P005,fencog,1,Pre,2021_Jul_13_1058,Go No-Go Task,2021.1.4,119.91788025247551,
,,,,,,,,,,,,,,,,,,,,,,,,,,,,,,,,,,,,,,,,,,,,,173.4684412999777,None,space,9.387075699982233,173.4684412999777,None,,,,,,,,,,,,,,,,,,,,,,,,,,,,,,,,,,,,,,,,,,,,,,,,,,,,,,,,,,,,,,,,,,,,,,,,,,,,,,,,,,,P005,fencog,1,Pre,2021_Jul_13_1058,Go No-Go Task,2021.1.4,119.91788025247551,
,,,,,,,,,,,,,,,,,,,,,,,,,,,,,,,,,,,,,,,,,,,,,,,,,,,182.86968119995436,None,space,8.114063799963333,182.86968119995436,None,,,,,,,,,,,,,,,,,,,,,,,,,,,,,,,,,,,,,,,,,,,,,,,,,,,,,,,,,,,,,,,,,,,,,,,,,,,,,P005,fencog,1,Pre,2021_Jul_13_1058,Go No-Go Task,2021.1.4,119.91788025247551,
EPracticeConditions/BlueEyes.csv,"Rule: When you see a blue image, do not press 'spacebar'.",Images/Happy/HF10_HE.jpg,Happy,Yellow,Images/Yellow.jpg,space,,,,,,,0,0,0,0,0,0,0,7,,,,,,,,,,,,,,,,,,,,,,,,,,,,,,,,,,,,,191.05109279998578,None,194.03978989995085,None,space,1.9357526999665424,194.03978989995085,None,191.05109279998578,None,191.05109279998578,None,191.05109279998578,None,1.3,196.1104411999695,None,None,0,197.57068849995267,None,197.57068849995267,None,197.57068849995267,None,199.10685399995418,None,,,,,,,,,,,,,,,,,,,,,,,,,,,,,,,,,,,,,,,,,,,,,,,,,,P005,fencog,1,Pre,2021_Jul_13_1058,Go No-Go Task,2021.1.4,119.91788025247551,
EPracticeConditions/BlueEyes.csv,"Rule: When you see a blue image, do not press 'spacebar'.",Images/Fearful/AF01_FO.jpg,Fear,Blue,Images/Blue.jpg,None,,,,,,,0,0,0,0,0,1,1,1,,,,,,,,,,,,,,,,,,,,,,,,,,,,,,,,,,,,,,,,,,,,,,,,,,,1.8,200.45296979998238,None,space,0,202.354565799993,None,202.354565799993,None,202.354565799993,None,203.26884969999082,None,0.31725570000708103,,,,,,,,,,,,,,,,,,,,,,,,,,,,,,,,,,,,,,,,,,,,,,,,,P005,fencog,1,Pre,2021_Jul_13_1058,Go No-Go Task,2021.1.4,119.91788025247551,
EPracticeConditions/BlueEyes.csv,"Rule: When you see a blue image, do not press 'spacebar'.",Images/Happy/BM02_HO.jpg,Happy,Yellow,Images/Yellow.jpg,space,,,,,,,0,0,0,0,0,2,2,2,,,,,,,,,,,,,,,,,,,,,,,,,,,,,,,,,,,,,,,,,,,,,,,,,,,1.2,205.26344309997512,None,None,0,206.56989899999462,None,206.56989899999462,None,206.56989899999462,None,207.46880939998664,None,,,,,,,,,,,,,,,,,,,,,,,,,,,,,,,,,,,,,,,,,,,,,,,,,,P005,fencog,1,Pre,2021_Jul_13_1058,Go No-Go Task,2021.1.4,119.91788025247551,
EPracticeConditions/BlueEyes.csv,"Rule: When you see a blue image, do not press 'spacebar'.",Images/Happy/HF09_HE.jpg,Happy,Yellow,Images/Yellow.jpg,space,,,,,,,0,0,0,0,0,3,3,6,,,,,,,,,,,,,,,,,,,,,,,,,,,,,,,,,,,,,,,,,,,,,,,,,,,1.5,209.4680358999758,None,space,1,211.068581599975,None,211.068581599975,None,211.068581599975,None,211.97279639996123,None,0.3070086999796331,,,,,,,,,,,,,,,,,,,,,,,,,,,,,,,,,,,,,,,,,,,,,,,,,P005,fencog,1,Pre,2021_Jul_13_1058,Go No-Go Task,2021.1.4,119.91788025247551,
EPracticeConditions/BlueEyes.csv,"Rule: When you see a blue image, do not press 'spacebar'.",Images/Happy/HF04_HE.jpg,Happy,Yellow,Images/Yellow.jpg,space,,,,,,,0,0,0,0,0,4,4,4,,,,,,,,,,,,,,,,,,,,,,,,,,,,,,,,,,,,,,,,,,,,,,,,,,,1.9,213.9749598999624,None,None,0,215.96715459995903,None,215.96715459995903,None,215.96715459995903,None,216.86524229997303,None,,,,,,,,,,,,,,,,,,,,,,,,,,,,,,,,,,,,,,,,,,,,,,,,,,P005,fencog,1,Pre,2021_Jul_13_1058,Go No-Go Task,2021.1.4,119.91788025247551,
EPracticeConditions/BlueEyes.csv,"Rule: When you see a blue image, do not press 'spacebar'.",Images/Fearful/HM09_FC.jpg,Fear,Blue,Images/Blue.jpg,None,,,,,,,0,0,0,0,0,5,5,0,,,,,,,,,,,,,,,,,,,,,,,,,,,,,,,,,,,,,,,,,,,,,,,,,,,1.4,218.86657439998817,None,None,1,220.37429949996294,None,220.37429949996294,None,220.37429949996294,None,221.27806229999987,None,,,,,,,,,,,,,,,,,,,,,,,,,,,,,,,,,,,,,,,,,,,,,,,,,,P005,fencog,1,Pre,2021_Jul_13_1058,Go No-Go Task,2021.1.4,119.91788025247551,
EPracticeConditions/BlueEyes.csv,"Rule: When you see a blue image, do not press 'spacebar'.",Images/Happy/BM08_HO.jpg,Happy,Yellow,Images/Yellow.jpg,space,,,,,,,0,0,0,0,0,6,6,3,,,,,,,,,,,,,,,,,,,,,,,,,,,,,,,,,,,,,,,,,,,,,,,,,,,1.6,223.28142989997286,None,None,0,224.98958409996703,None,224.98958409996703,None,224.98958409996703,None,225.89544309995836,None,,,,,,,,,,,,,,,,,,,,,,,,,,,,,,,,,,,,,,,,,,,,,,,,,,P005,fencog,1,Pre,2021_Jul_13_1058,Go No-Go Task,2021.1.4,119.91788025247551,
EPracticeConditions/BlueEyes.csv,"Rule: When you see a blue image, do not press 'spacebar'.",Images/Happy/HF05_HO.jpg,Happy,Yellow,Images/Yellow.jpg,space,,,,,,,0,0,0,0,0,7,7,5,,,,,,,,,,,,,,,,,,,,,,,,,,,,,,,,,,,,,,,,,,,,,,,,,,,1.7,227.8966876999475,None,space,1,229.69644069997594,None,229.69644069997594,None,229.69644069997594,None,230.59058919997187,None,0.288207900011912,,,,,,,,,,,,,,,,,,,,,,,,,,,,,,,,,,,,,,,,,,,,,,,,,P005,fencog,1,Pre,2021_Jul_13_1058,Go No-Go Task,2021.1.4,119.91788025247551,
EPracticeConditions/BlueEyes.csv,"Rule: When you see a blue image, do not press 'spacebar'.",,,,,,,,,,,,0,0,0,0,,,,,,,,,,,,,,,,,,,,,,,,,,,,,,,,,,,,,,,,,,,,,,,,,,,,,,,,,,,,,,,,,,,,,,,,,,,,,,,,,,,,,,,,,,,,,,,,,,,,,,,,,,,,,,,,,,,,,P005,fencog,1,Pre,2021_Jul_13_1058,Go No-Go Task,2021.1.4,119.91788025247551,
EPracticeConditions/YellowEyes.csv,"Rule: When you see a yellow image, do not press 'spacebar'.",Images/Fearful/AM16AFS.jpg,Fear,Blue,Images/Blue.jpg,space,,,,,,,0,1,1,1,0,0,0,2,,,,,,,,,,,,,,,,,,,,,,,,,,,,,,,,,,,,,232.61694769997848,None,235.6108706999803,None,space,0.9165798000176437,235.6108706999803,None,232.61694769997848,None,232.61694769997848,None,232.61694769997848,None,1.4,236.54346949997125,None,space,1,238.04404389997944,None,238.04404389997944,None,238.04404389997944,None,238.94020709994948,None,0.33140710002044216,,,,,,,,,,,,,,,,,,,,,,,,,,,,,,,,,,,,,,,,,,,,,,,,,P005,fencog,1,Pre,2021_Jul_13_1058,Go No-Go Task,2021.1.4,119.91788025247551,
EPracticeConditions/YellowEyes.csv,"Rule: When you see a yellow image, do not press 'spacebar'.",Images/Fearful/AM24AFS.jpg,Fear,Blue,Images/Blue.jpg,space,,,,,,,0,1,1,1,0,1,1,7,,,,,,,,,,,,,,,,,,,,,,,,,,,,,,,,,,,,,,,,,,,,,,,,,,,1.3,240.9435642999597,None,None,0,242.351064699993,None,242.351064699993,None,242.351064699993,None,243.2568393999827,None,,,,,,,,,,,,,,,,,,,,,,,,,,,,,,,,,,,,,,,,,,,,,,,,,,P005,fencog,1,Pre,2021_Jul_13_1058,Go No-Go Task,2021.1.4,119.91788025247551,
EPracticeConditions/YellowEyes.csv,"Rule: When you see a yellow image, do not press 'spacebar'.",Images/Happy/AM32HAS.jpg,Happy,Yellow,Images/Yellow.jpg,None,,,,,,,0,1,1,1,0,2,2,0,,,,,,,,,,,,,,,,,,,,,,,,,,,,,,,,,,,,,,,,,,,,,,,,,,,1.7,245.25762609997764,None,None,1,247.05803889996605,None,247.05803889996605,None,247.05803889996605,None,247.96264439995866,None,,,,,,,,,,,,,,,,,,,,,,,,,,,,,,,,,,,,,,,,,,,,,,,,,,P005,fencog,1,Pre,2021_Jul_13_1058,Go No-Go Task,2021.1.4,119.91788025247551,
EPracticeConditions/YellowEyes.csv,"Rule: When you see a yellow image, do not press 'spacebar'.",Images/Happy/BF05_HO.jpg,Happy,Yellow,Images/Yellow.jpg,None,,,,,,,0,1,1,1,0,3,3,1,,,,,,,,,,,,,,,,,,,,,,,,,,,,,,,,,,,,,,,,,,,,,,,,,,,1.5,249.9655065999832,None,None,1,251.5816715999972,None,251.5816715999972,None,251.5816715999972,None,252.47800939995795,None,,,,,,,,,,,,,,,,,,,,,,,,,,,,,,,,,,,,,,,,,,,,,,,,,,P005,fencog,1,Pre,2021_Jul_13_1058,Go No-Go Task,2021.1.4,119.91788025247551,
EPracticeConditions/YellowEyes.csv,"Rule: When you see a yellow image, do not press 'spacebar'.",Images/Fearful/AM19AFS.jpg,Fear,Blue,Images/Blue.jpg,space,,,,,,,0,1,1,1,0,4,4,4,,,,,,,,,,,,,,,,,,,,,,,,,,,,,,,,,,,,,,,,,,,,,,,,,,,1.6,254.4817755999975,None,space,1,256.1886647999636,None,256.1886647999636,None,256.1886647999636,None,257.08524419995956,None,0.2914845000486821,,,,,,,,,,,,,,,,,,,,,,,,,,,,,,,,,,,,,,,,,,,,,,,,,P005,fencog,1,Pre,2021_Jul_13_1058,Go No-Go Task,2021.1.4,119.91788025247551,
EPracticeConditions/YellowEyes.csv,"Rule: When you see a yellow image, do not press 'spacebar'.",Images/Fearful/AM17AFS.jpg,Fear,Blue,Images/Blue.jpg,space,,,,,,,0,1,1,1,0,5,5,3,,,,,,,,,,,,,,,,,,,,,,,,,,,,,,,,,,,,,,,,,,,,,,,,,,,1.2,259.08679249999113,None,space,1,260.3872930999496,None,260.3872930999496,None,260.3872930999496,None,261.2919340999797,None,0.32509990001562983,,,,,,,,,,,,,,,,,,,,,,,,,,,,,,,,,,,,,,,,,,,,,,,,,P005,fencog,1,Pre,2021_Jul_13_1058,Go No-Go Task,2021.1.4,119.91788025247551,
EPracticeConditions/YellowEyes.csv,"Rule: When you see a yellow image, do not press 'spacebar'.",Images/Fearful/AM23AFS.jpg,Fear,Blue,Images/Blue.jpg,space,,,,,,,0,1,1,1,0,6,6,6,,,,,,,,,,,,,,,,,,,,,,,,,,,,,,,,,,,,,,,,,,,,,,,,,,,1.8,263.29586249997374,None,space,1,265.2026352999965,None,265.2026352999965,None,265.2026352999965,None,266.1046298999572,None,0.3086241999990307,,,,,,,,,,,,,,,,,,,,,,,,,,,,,,,,,,,,,,,,,,,,,,,,,P005,fencog,1,Pre,2021_Jul_13_1058,Go No-Go Task,2021.1.4,119.91788025247551,
EPracticeConditions/YellowEyes.csv,"Rule: When you see a yellow image, do not press 'spacebar'.",Images/Fearful/AM22AFS.jpg,Fear,Blue,Images/Blue.jpg,space,,,,,,,0,1,1,1,0,7,7,5,,,,,,,,,,,,,,,,,,,,,,,,,,,,,,,,,,,,,,,,,,,,,,,,,,,1.9,268.10919839999406,None,space,1,270.1012364999624,None,270.1012364999624,None,270.1012364999624,None,271.00404039997375,None,0.29886029998306185,,,,,,,,,,,,,,,,,,,,,,,,,,,,,,,,,,,,,,,,,,,,,,,,,P005,fencog,1,Pre,2021_Jul_13_1058,Go No-Go Task,2021.1.4,119.91788025247551,
EPracticeConditions/YellowEyes.csv,"Rule: When you see a yellow image, do not press 'spacebar'.",,,,,,,,,,,,0,1,1,1,,,,,,,,,,,,,,,,,,,,,,,,,,,,,,,,,,,,,,,,,,,,,,,,,,,,,,,,,,,,,,,,,,,,,,,,,,,,,,,,,,,,,,,,,,,,,,,,,,,,,,,,,,,,,,,,,,,,,P005,fencog,1,Pre,2021_Jul_13_1058,Go No-Go Task,2021.1.4,119.91788025247551,
EPracticeConditions/BlueScram.csv,"Rule: When you see a blue image, do not press 'spacebar'.",Images/Scram2/AM03_NC.jpg,Scramble,Yellow,Images/Yellow.jpg,space,,,,,,,0,2,2,2,0,0,0,6,,,,,,,,,,,,,,,,,,,,,,,,,,,,,,,,,,,,,273.0208586999797,None,276.0161861999659,None,space,0.7832352999830619,276.0161861999659,None,273.0208586999797,None,273.0208586999797,None,273.0208586999797,None,1.5,276.8152220999473,None,space,1,278.41541989997495,None,278.41541989997495,None,278.41541989997495,None,279.3201497999835,None,0.3122362000285648,,,,,,,,,,,,,,,,,,,,,,,,,,,,,,,,,,,,,,,,,,,,,,,,,P005,fencog,1,Pre,2021_Jul_13_1058,Go No-Go Task,2021.1.4,119.91788025247551,
EPracticeConditions/BlueScram.csv,"Rule: When you see a blue image, do not press 'spacebar'.",Images/Scram1/AM03NES.jpg,Scramble,Yellow,Images/Yellow.jpg,space,,,,,,,0,2,2,2,0,1,1,4,,,,,,,,,,,,,,,,,,,,,,,,,,,,,,,,,,,,,,,,,,,,,,,,,,,1.7,281.3229089999804,None,space,1,283.1306721000001,None,283.1306721000001,None,283.1306721000001,None,284.0356979999924,None,0.27682389999972656,,,,,,,,,,,,,,,,,,,,,,,,,,,,,,,,,,,,,,,,,,,,,,,,,P005,fencog,1,Pre,2021_Jul_13_1058,Go No-Go Task,2021.1.4,119.91788025247551,
EPracticeConditions/BlueScram.csv,"Rule: When you see a blue image, do not press 'spacebar'.",Images/Scram1/BF18_NC.jpg,Scramble,Blue,Images/Blue.jpg,None,,,,,,,0,2,2,2,0,2,2,1,,,,,,,,,,,,,,,,,,,,,,,,,,,,,,,,,,,,,,,,,,,,,,,,,,,1.9,286.0372511000023,None,space,0,288.0375724999467,None,288.0375724999467,None,288.0375724999467,None,288.9403399999719,None,0.34667719999561086,,,,,,,,,,,,,,,,,,,,,,,,,,,,,,,,,,,,,,,,,,,,,,,,,P005,fencog,1,Pre,2021_Jul_13_1058,Go No-Go Task,2021.1.4,119.91788025247551,
EPracticeConditions/BlueScram.csv,"Rule: When you see a blue image, do not press 'spacebar'.",Images/Scram1/AM13NES.jpg,Scramble,Yellow,Images/Yellow.jpg,space,,,,,,,0,2,2,2,0,3,3,5,,,,,,,,,,,,,,,,,,,,,,,,,,,,,,,,,,,,,,,,,,,,,,,,,,,1.6,290.9442255999893,None,space,1,292.6444587999722,None,292.6444587999722,None,292.6444587999722,None,293.54908209998393,None,0.35510340001201257,,,,,,,,,,,,,,,,,,,,,,,,,,,,,,,,,,,,,,,,,,,,,,,,,P005,fencog,1,Pre,2021_Jul_13_1058,Go No-Go Task,2021.1.4,119.91788025247551,
EPracticeConditions/BlueScram.csv,"Rule: When you see a blue image, do not press 'spacebar'.",Images/Scram2/AF25NES.jpg,Scramble,Yellow,Images/Yellow.jpg,space,,,,,,,0,2,2,2,0,4,4,7,,,,,,,,,,,,,,,,,,,,,,,,,,,,,,,,,,,,,,,,,,,,,,,,,,,1.3,295.5510565000004,None,space,1,296.9516884999466,None,296.9516884999466,None,296.9516884999466,None,297.84842759999447,None,0.32890090002911165,,,,,,,,,,,,,,,,,,,,,,,,,,,,,,,,,,,,,,,,,,,,,,,,,P005,fencog,1,Pre,2021_Jul_13_1058,Go No-Go Task,2021.1.4,119.91788025247551,
EPracticeConditions/BlueScram.csv,"Rule: When you see a blue image, do not press 'spacebar'.",Images/Scram2/AF10_NC.jpg,Scramble,Yellow,Images/Yellow.jpg,space,,,,,,,0,2,2,2,0,5,5,2,,,,,,,,,,,,,,,,,,,,,,,,,,,,,,,,,,,,,,,,,,,,,,,,,,,1.4,299.85129379999125,None,space,1,301.3586129999603,None,301.3586129999603,None,301.3586129999603,None,302.25570449995575,None,0.32881420000921935,,,,,,,,,,,,,,,,,,,,,,,,,,,,,,,,,,,,,,,,,,,,,,,,,P005,fencog,1,Pre,2021_Jul_13_1058,Go No-Go Task,2021.1.4,119.91788025247551,
EPracticeConditions/BlueScram.csv,"Rule: When you see a blue image, do not press 'spacebar'.",Images/Scram1/AM04_NC.jpg,Scramble,Yellow,Images/Yellow.jpg,space,,,,,,,0,2,2,2,0,6,6,3,,,,,,,,,,,,,,,,,,,,,,,,,,,,,,,,,,,,,,,,,,,,,,,,,,,1.8,304.25712979998207,None,space,1,306.15709459997015,None,306.15709459997015,None,306.15709459997015,None,307.0560851999908,None,0.2822184999822639,,,,,,,,,,,,,,,,,,,,,,,,,,,,,,,,,,,,,,,,,,,,,,,,,P005,fencog,1,Pre,2021_Jul_13_1058,Go No-Go Task,2021.1.4,119.91788025247551,
EPracticeConditions/BlueScram.csv,"Rule: When you see a blue image, do not press 'spacebar'.",Images/Scram1/BM08_NC.jpg,Scramble,Blue,Images/Blue.jpg,None,,,,,,,0,2,2,2,0,7,7,0,,,,,,,,,,,,,,,,,,,,,,,,,,,,,,,,,,,,,,,,,,,,,,,,,,,1.2,309.05702729994664,None,None,1,310.364202799974,None,310.364202799974,None,310.364202799974,None,311.26073909999104,None,,,,,,,,,,,,,,,,,,,,,,,,,,,,,,,,,,,,,,,,,,,,,,,,,,P005,fencog,1,Pre,2021_Jul_13_1058,Go No-Go Task,2021.1.4,119.91788025247551,
EPracticeConditions/BlueScram.csv,"Rule: When you see a blue image, do not press 'spacebar'.",,,,,,,,,,,,0,2,2,2,,,,,,,,,,,,,,,,,,,,,,,,,,,,,,,,,,,,,,,,,,,,,,,,,,,,,,,,,,,,,,,,,,,,,,,,,,,,,,,,,,,,,,,,,,,,,,,,,,,,,,,,,,,,,,,,,,,,,P005,fencog,1,Pre,2021_Jul_13_1058,Go No-Go Task,2021.1.4,119.91788025247551,
EPracticeConditions/YellowScram.csv,"Rule: When you see a yellow image, do not press 'spacebar'.",Images/Scram1/AF24NES.jpg,Scramble,Blue,Images/Blue.jpg,space,,,,,,,0,3,3,3,0,0,0,7,,,,,,,,,,,,,,,,,,,,,,,,,,,,,,,,,,,,,313.27517549996264,None,316.26201929996023,None,space,0.8493118000333197,316.26201929996023,None,313.27517549996264,None,313.27517549996264,None,313.27517549996264,None,1.8,317.13246439996874,None,None,0,319.03665929997806,None,319.03665929997806,None,319.03665929997806,None,319.9423393999459,None,,,,,,,,,,,,,,,,,,,,,,,,,,,,,,,,,,,,,,,,,,,,,,,,,,P005,fencog,1,Pre,2021_Jul_13_1058,Go No-Go Task,2021.1.4,119.91788025247551,
EPracticeConditions/YellowScram.csv,"Rule: When you see a yellow image, do not press 'spacebar'.",Images/Scram1/HF04_NC.jpg,Scramble,Blue,Images/Blue.jpg,space,,,,,,,0,3,3,3,0,1,1,2,,,,,,,,,,,,,,,,,,,,,,,,,,,,,,,,,,,,,,,,,,,,,,,,,,,1.2,321.9442161999759,None,space,1,323.2438058999833,None,323.2438058999833,None,323.2438058999833,None,324.1343132999609,None,0.3637752999784425,,,,,,,,,,,,,,,,,,,,,,,,,,,,,,,,,,,,,,,,,,,,,,,,,P005,fencog,1,Pre,2021_Jul_13_1058,Go No-Go Task,2021.1.4,119.91788025247551,
EPracticeConditions/YellowScram.csv,"Rule: When you see a yellow image, do not press 'spacebar'.",Images/Scram2/AM03NES.jpg,Scramble,Yellow,Images/Yellow.jpg,None,,,,,,,0,3,3,3,0,2,2,1,,,,,,,,,,,,,,,,,,,,,,,,,,,,,,,,,,,,,,,,,,,,,,,,,,,1.6,326.13407159998314,None,None,1,327.8257417999557,None,327.8257417999557,None,327.8257417999557,None,328.7253078999929,None,,,,,,,,,,,,,,,,,,,,,,,,,,,,,,,,,,,,,,,,,,,,,,,,,,P005,fencog,1,Pre,2021_Jul_13_1058,Go No-Go Task,2021.1.4,119.91788025247551,
EPracticeConditions/YellowScram.csv,"Rule: When you see a yellow image, do not press 'spacebar'.",Images/Scram2/HM06_NC.jpg,Scramble,Yellow,Images/Yellow.jpg,None,,,,,,,0,3,3,3,0,3,3,0,,,,,,,,,,,,,,,,,,,,,,,,,,,,,,,,,,,,,,,,,,,,,,,,,,,1.7,330.7346380999661,None,None,1,332.54110189998755,None,332.54110189998755,None,332.54110189998755,None,333.43158119998407,None,,,,,,,,,,,,,,,,,,,,,,,,,,,,,,,,,,,,,,,,,,,,,,,,,,P005,fencog,1,Pre,2021_Jul_13_1058,Go No-Go Task,2021.1.4,119.91788025247551,
EPracticeConditions/YellowScram.csv,"Rule: When you see a yellow image, do not press 'spacebar'.",Images/Scram1/AF10_NC.jpg,Scramble,Blue,Images/Blue.jpg,space,,,,,,,0,3,3,3,0,4,4,6,,,,,,,,,,,,,,,,,,,,,,,,,,,,,,,,,,,,,,,,,,,,,,,,,,,1.4,335.43413069995586,None,space,1,336.9394403999904,None,336.9394403999904,None,336.9394403999904,None,337.8445592999924,None,0.27659680001670495,,,,,,,,,,,,,,,,,,,,,,,,,,,,,,,,,,,,,,,,,,,,,,,,,P005,fencog,1,Pre,2021_Jul_13_1058,Go No-Go Task,2021.1.4,119.91788025247551,
EPracticeConditions/YellowScram.csv,"Rule: When you see a yellow image, do not press 'spacebar'.",Images/Scram1/BM01_NC.jpg,Scramble,Blue,Images/Blue.jpg,space,,,,,,,0,3,3,3,0,5,5,5,,,,,,,,,,,,,,,,,,,,,,,,,,,,,,,,,,,,,,,,,,,,,,,,,,,1.9,339.8481619999511,None,space,1,341.85502179997275,None,341.85502179997275,None,341.85502179997275,None,342.7595911999815,None,0.3127297000028193,,,,,,,,,,,,,,,,,,,,,,,,,,,,,,,,,,,,,,,,,,,,,,,,,P005,fencog,1,Pre,2021_Jul_13_1058,Go No-Go Task,2021.1.4,119.91788025247551,
EPracticeConditions/YellowScram.csv,"Rule: When you see a yellow image, do not press 'spacebar'.",Images/Scram1/AF07NES.jpg,Scramble,Blue,Images/Blue.jpg,space,,,,,,,0,3,3,3,0,6,6,3,,,,,,,,,,,,,,,,,,,,,,,,,,,,,,,,,,,,,,,,,,,,,,,,,,,1.5,344.7621815999737,None,space,1,346.3703162999591,None,346.3703162999591,None,346.3703162999591,None,347.27507199998945,None,0.34126280003692955,,,,,,,,,,,,,,,,,,,,,,,,,,,,,,,,,,,,,,,,,,,,,,,,,P005,fencog,1,Pre,2021_Jul_13_1058,Go No-Go Task,2021.1.4,119.91788025247551,
EPracticeConditions/YellowScram.csv,"Rule: When you see a yellow image, do not press 'spacebar'.",Images/Scram1/AF30NES.JPG,Scramble,Blue,Images/Blue.jpg,space,,,,,,,0,3,3,3,0,7,7,4,,,,,,,,,,,,,,,,,,,,,,,,,,,,,,,,,,,,,,,,,,,,,,,,,,,1.3,349.27667870000005,None,space,1,350.6773317999905,None,350.6773317999905,None,350.6773317999905,None,351.57414569996763,None,0.3220537999877706,,,,,,,,,,,,,,,,,,,,,,,,,,,,,,,,,,,,,,,,,,,,,,,,,P005,fencog,1,Pre,2021_Jul_13_1058,Go No-Go Task,2021.1.4,119.91788025247551,
EPracticeConditions/YellowScram.csv,"Rule: When you see a yellow image, do not press 'spacebar'.",,,,,,,,,,,,0,3,3,3,,,,,,,,,,,,,,,,,,,,,,,,,,,,,,,,,,,,,,,,,,,,,,,,,,,,,,,,,,,,,,,,,,,,,,,,,,,,,,,,,,,,,,,,,,,,,,,,,,,,,,,,,,,,,,,,,,,,,P005,fencog,1,Pre,2021_Jul_13_1058,Go No-Go Task,2021.1.4,119.91788025247551,
,,,,,,,,,,,,,,,,,,,,,,,,,,,,,,,,,,,,,,,,,,,,,,,,,,,,,,,,,,,,,,,,,,,,,,,,,,,,,,,,,,,,,354.9078581999638,None,space,9.247732000018004,355.3919353999663,None,,,,,,,,,,,,,,,,,,,,,,,,,,,,,,,,,,,,,,,,,,,P005,fencog,1,Pre,2021_Jul_13_1058,Go No-Go Task,2021.1.4,119.91788025247551,
,,,,,,,,,,,,,,,,,,,,,,,,,,,,,,,,,,,,,,,,,,,,,,,,,,,,,,,,,,,,,,,,,,,,,,,,,,,,,,,,,,,,,,,,,,,364.64868109999225,None,space,1.6226732000359334,364.64868109999225,None,,,,,,,,,,,,,,,,,,,,,,,,,,,,,,,,,,,,,P005,fencog,1,Pre,2021_Jul_13_1058,Go No-Go Task,2021.1.4,119.91788025247551,
,"Rule: When you see a yellow image, do not press 'spacebar'.",Images/Fearful/BM02_FC.jpg,Fear,Blue,Images/Blue.jpg,space,ParentConditions/YellowBlueBlue_v1.xlsx,BlueBlueYellow,Conditions/Version_1/YellowHappyStop.xlsx,no,PASS,0.44148177898618846,,,,,,,,,0,0,0,0,0,0,0,0,0,0,0,0,,,,,,,,,,,,,,,,,,,,,,,,,,,,,,,,,,,,,,,,,,,,,,,,,,,,,,,,,,,,,,,,,366.3430472999462,None,369.32964119996177,None,space,2.253699900000356,369.32964119996177,None,366.3430472999462,None,366.3430472999462,None,366.3430472999462,None,1.92,371.6574292999576,None,space,1,0.3532505999901332,373.67877050000243,None,373.67877050000243,None,373.67877050000243,None,,,,,,,,,,,P005,fencog,1,Pre,2021_Jul_13_1058,Go No-Go Task,2021.1.4,119.91788025247551,
,"Rule: When you see a yellow image, do not press 'spacebar'.",Images/Fearful/HF05_FC.jpg,Fear,Blue,Images/Blue.jpg,space,ParentConditions/YellowBlueBlue_v1.xlsx,BlueBlueYellow,Conditions/Version_1/YellowHappyStop.xlsx,no,PASS,0.49496512693563743,,,,,,,,,0,0,0,0,0,0,0,0,0,1,1,1,,,,,,,,,,,,,,,,,,,,,,,,,,,,,,,,,,,,,,,,,,,,,,,,,,,,,,,,,,,,,,,,,,,,,,,,,,,,,,,1.89,374.0826268999954,None,space,1,0.28937069996027276,376.0781040999573,None,376.0781040999573,None,376.0781040999573,None,,,,,,,,,,,P005,fencog,1,Pre,2021_Jul_13_1058,Go No-Go Task,2021.1.4,119.91788025247551,
,"Rule: When you see a yellow image, do not press 'spacebar'.",Images/Happy/AF32HAS.jpg,Happy,Yellow,Images/Yellow.jpg,None,ParentConditions/YellowBlueBlue_v1.xlsx,BlueBlueYellow,Conditions/Version_1/YellowHappyStop.xlsx,yes,PASS,0.3690153910902233,,,,,,,,,0,0,0,0,0,0,0,0,0,2,2,2,,,,,,,,,,,,,,,,,,,,,,,,,,,,,,,,,,,,,,,,,,,,,,,,,,,,,,,,,,,,,,,,,,,,,,,,,,,,,,,1.91,376.4797825999558,None,None,1,,378.502332199947,None,378.502332199947,None,378.502332199947,None,,,,,,,,,,,P005,fencog,1,Pre,2021_Jul_13_1058,Go No-Go Task,2021.1.4,119.91788025247551,
,"Rule: When you see a yellow image, do not press 'spacebar'.",Images/Happy/AM32HAS.jpg,Happy,Yellow,Images/Yellow.jpg,None,ParentConditions/YellowBlueBlue_v1.xlsx,BlueBlueYellow,Conditions/Version_1/YellowHappyStop.xlsx,yes,PASS,0.09240134349582851,,,,,,,,,0,0,0,0,0,0,0,0,0,3,3,3,,,,,,,,,,,,,,,,,,,,,,,,,,,,,,,,,,,,,,,,,,,,,,,,,,,,,,,,,,,,,,,,,,,,,,,,,,,,,,,1.88,378.8975787999807,None,None,1,,380.88502909999806,None,380.88502909999806,None,380.88502909999806,None,,,,,,,,,,,P005,fencog,1,Pre,2021_Jul_13_1058,Go No-Go Task,2021.1.4,119.91788025247551,
,"Rule: When you see a yellow image, do not press 'spacebar'.",Images/Fearful/AF07FS.jpg,Fear,Blue,Images/Blue.jpg,space,ParentConditions/YellowBlueBlue_v1.xlsx,BlueBlueYellow,Conditions/Version_1/YellowHappyStop.xlsx,no,PASS,0.4013300010309635,,,,,,,,,0,0,0,0,0,0,0,0,0,4,4,4,,,,,,,,,,,,,,,,,,,,,,,,,,,,,,,,,,,,,,,,,,,,,,,,,,,,,,,,,,,,,,,,,,,,,,,,,,,,,,,1.57,381.28786569996737,None,space,1,0.23188209999352694,382.96774189994903,None,382.96774189994903,None,382.96774189994903,None,,,,,,,,,,,P005,fencog,1,Pre,2021_Jul_13_1058,Go No-Go Task,2021.1.4,119.91788025247551,
,"Rule: When you see a yellow image, do not press 'spacebar'.",Images/Fearful/AM30AFS.jpg,Fear,Blue,Images/Blue.jpg,space,ParentConditions/YellowBlueBlue_v1.xlsx,BlueBlueYellow,Conditions/Version_1/YellowHappyStop.xlsx,no,PASS,0.5026512951867452,,,,,,,,,0,0,0,0,0,0,0,0,0,5,5,5,,,,,,,,,,,,,,,,,,,,,,,,,,,,,,,,,,,,,,,,,,,,,,,,,,,,,,,,,,,,,,,,,,,,,,,,,,,,,,,1.69,383.3692636999767,None,space,1,0.32791490003000945,385.1754722999758,None,385.1754722999758,None,385.1754722999758,None,,,,,,,,,,,P005,fencog,1,Pre,2021_Jul_13_1058,Go No-Go Task,2021.1.4,119.91788025247551,
,"Rule: When you see a yellow image, do not press 'spacebar'.",Images/Happy/BM03_HO.jpg,Happy,Yellow,Images/Yellow.jpg,None,ParentConditions/YellowBlueBlue_v1.xlsx,BlueBlueYellow,Conditions/Version_1/YellowHappyStop.xlsx,yes,PASS,0.3904556138764915,,,,,,,,,0,0,0,0,0,0,0,0,0,6,6,6,,,,,,,,,,,,,,,,,,,,,,,,,,,,,,,,,,,,,,,,,,,,,,,,,,,,,,,,,,,,,,,,,,,,,,,,,,,,,,,1.98,385.5758121999679,None,None,1,,387.65793489996577,None,387.65793489996577,None,387.65793489996577,None,,,,,,,,,,,P005,fencog,1,Pre,2021_Jul_13_1058,Go No-Go Task,2021.1.4,119.91788025247551,
,"Rule: When you see a yellow image, do not press 'spacebar'.",Images/Fearful/HM06_FC.jpg,Fear,Blue,Images/Blue.jpg,space,ParentConditions/YellowBlueBlue_v1.xlsx,BlueBlueYellow,Conditions/Version_1/YellowHappyStop.xlsx,no,PASS,0.8295870874618959,,,,,,,,,0,0,0,0,0,0,0,0,0,7,7,7,,,,,,,,,,,,,,,,,,,,,,,,,,,,,,,,,,,,,,,,,,,,,,,,,,,,,,,,,,,,,,,,,,,,,,,,,,,,,,,1.85,388.05916389997583,None,None,0,,390.0156405000016,None,390.0156405000016,None,390.0156405000016,None,,,,,,,,,,,P005,fencog,1,Pre,2021_Jul_13_1058,Go No-Go Task,2021.1.4,119.91788025247551,
,"Rule: When you see a yellow image, do not press 'spacebar'.",Images/Fearful/AF19AFS.jpg,Fear,Blue,Images/Blue.jpg,space,ParentConditions/YellowBlueBlue_v1.xlsx,BlueBlueYellow,Conditions/Version_1/YellowHappyStop.xlsx,no,PASS,0.31457189280880904,,,,,,,,,0,0,0,0,0,0,0,0,0,8,8,8,,,,,,,,,,,,,,,,,,,,,,,,,,,,,,,,,,,,,,,,,,,,,,,,,,,,,,,,,,,,,,,,,,,,,,,,,,,,,,,1.79,390.4196203999454,None,space,1,0.27704149996861815,392.31496269995114,None,392.31496269995114,None,392.31496269995114,None,,,,,,,,,,,P005,fencog,1,Pre,2021_Jul_13_1058,Go No-Go Task,2021.1.4,119.91788025247551,
,"Rule: When you see a yellow image, do not press 'spacebar'.",Images/Happy/AF30HAS.jpg,Happy,Yellow,Images/Yellow.jpg,None,ParentConditions/YellowBlueBlue_v1.xlsx,BlueBlueYellow,Conditions/Version_1/YellowHappyStop.xlsx,yes,PASS,0.14544836048525234,,,,,,,,,0,0,0,0,0,0,0,0,0,9,9,9,,,,,,,,,,,,,,,,,,,,,,,,,,,,,,,,,,,,,,,,,,,,,,,,,,,,,,,,,,,,,,,,,,,,,,,,,,,,,,,1.72,392.71823859994765,None,None,1,,394.5392578999745,None,394.5392578999745,None,394.5392578999745,None,,,,,,,,,,,P005,fencog,1,Pre,2021_Jul_13_1058,Go No-Go Task,2021.1.4,119.91788025247551,
,"Rule: When you see a yellow image, do not press 'spacebar'.",Images/Fearful/AF25AFS.jpg,Fear,Blue,Images/Blue.jpg,space,ParentConditions/YellowBlueBlue_v1.xlsx,BlueBlueYellow,Conditions/Version_1/YellowHappyStop.xlsx,no,PASS,0.31319631990865415,,,,,,,,,0,0,0,0,0,0,0,0,0,10,10,10,,,,,,,,,,,,,,,,,,,,,,,,,,,,,,,,,,,,,,,,,,,,,,,,,,,,,,,,,,,,,,,,,,,,,,,,,,,,,,,1.62,394.9427512999973,None,space,1,0.3120311999809928,396.66371100000106,None,396.66371100000106,None,396.66371100000106,None,,,,,,,,,,,P005,fencog,1,Pre,2021_Jul_13_1058,Go No-Go Task,2021.1.4,119.91788025247551,
,"Rule: When you see a yellow image, do not press 'spacebar'.",Images/Fearful/AF30AFS.jpg,Fear,Blue,Images/Blue.jpg,space,ParentConditions/YellowBlueBlue_v1.xlsx,BlueBlueYellow,Conditions/Version_1/YellowHappyStop.xlsx,no,PASS,0.9854799433848976,,,,,,,,,0,0,0,0,0,0,0,0,0,11,11,11,,,,,,,,,,,,,,,,,,,,,,,,,,,,,,,,,,,,,,,,,,,,,,,,,,,,,,,,,,,,,,,,,,,,,,,,,,,,,,,1.61,397.06374589999905,None,space,1,0.2918694000109099,398.7797143999487,None,398.7797143999487,None,398.7797143999487,None,,,,,,,,,,,P005,fencog,1,Pre,2021_Jul_13_1058,Go No-Go Task,2021.1.4,119.91788025247551,
,"Rule: When you see a yellow image, do not press 'spacebar'.",Images/Happy/BF10_HO.jpg,Happy,Yellow,Images/Yellow.jpg,None,ParentConditions/YellowBlueBlue_v1.xlsx,BlueBlueYellow,Conditions/Version_1/YellowHappyStop.xlsx,yes,PASS,0.9368187318754497,,,,,,,,,0,0,0,0,0,0,0,0,0,12,12,12,,,,,,,,,,,,,,,,,,,,,,,,,,,,,,,,,,,,,,,,,,,,,,,,,,,,,,,,,,,,,,,,,,,,,,,,,,,,,,,1.37,399.18266299995594,None,None,1,,400.6542947999551,None,400.6542947999551,None,400.6542947999551,None,,,,,,,,,,,P005,fencog,1,Pre,2021_Jul_13_1058,Go No-Go Task,2021.1.4,119.91788025247551,
,"Rule: When you see a yellow image, do not press 'spacebar'.",Images/Fearful/AM06_FO.jpg,Fear,Blue,Images/Blue.jpg,space,ParentConditions/YellowBlueBlue_v1.xlsx,BlueBlueYellow,Conditions/Version_1/YellowHappyStop.xlsx,no,PASS,0.6030700196123316,,,,,,,,,0,0,0,0,0,0,0,0,0,13,13,13,,,,,,,,,,,,,,,,,,,,,,,,,,,,,,,,,,,,,,,,,,,,,,,,,,,,,,,,,,,,,,,,,,,,,,,,,,,,,,,1.75,401.06300569995074,None,space,1,0.3199188999715261,402.92016129998956,None,402.92016129998956,None,402.92016129998956,None,,,,,,,,,,,P005,fencog,1,Pre,2021_Jul_13_1058,Go No-Go Task,2021.1.4,119.91788025247551,
,"Rule: When you see a yellow image, do not press 'spacebar'.",Images/Happy/AM24HAS.jpg,Happy,Yellow,Images/Yellow.jpg,None,ParentConditions/YellowBlueBlue_v1.xlsx,BlueBlueYellow,Conditions/Version_1/YellowHappyStop.xlsx,yes,PASS,0.8401488188278822,,,,,,,,,0,0,0,0,0,0,0,0,0,14,14,14,,,,,,,,,,,,,,,,,,,,,,,,,,,,,,,,,,,,,,,,,,,,,,,,,,,,,,,,,,,,,,,,,,,,,,,,,,,,,,,1.83,403.3237667999929,None,None,1,,405.2612369999988,None,405.2612369999988,None,405.2612369999988,None,,,,,,,,,,,P005,fencog,1,Pre,2021_Jul_13_1058,Go No-Go Task,2021.1.4,119.91788025247551,
,"Rule: When you see a yellow image, do not press 'spacebar'.",Images/Fearful/AF21AFS.jpg,Fear,Blue,Images/Blue.jpg,space,ParentConditions/YellowBlueBlue_v1.xlsx,BlueBlueYellow,Conditions/Version_1/YellowHappyStop.xlsx,no,PASS,0.9561052396726243,,,,,,,,,0,0,0,0,0,0,0,0,0,15,15,15,,,,,,,,,,,,,,,,,,,,,,,,,,,,,,,,,,,,,,,,,,,,,,,,,,,,,,,,,,,,,,,,,,,,,,,,,,,,,,,1.66,405.66366439999547,None,space,1,0.2845544000156224,407.4272895999602,None,407.4272895999602,None,407.4272895999602,None,,,,,,,,,,,P005,fencog,1,Pre,2021_Jul_13_1058,Go No-Go Task,2021.1.4,119.91788025247551,
,"Rule: When you see a yellow image, do not press 'spacebar'.",Images/Happy/AM06_HC.jpg,Happy,Yellow,Images/Yellow.jpg,None,ParentConditions/YellowBlueBlue_v1.xlsx,BlueBlueYellow,Conditions/Version_1/YellowHappyStop.xlsx,yes,PASS,0.36325944609889094,,,,,,,,,0,0,0,0,0,0,0,0,0,16,16,16,,,,,,,,,,,,,,,,,,,,,,,,,,,,,,,,,,,,,,,,,,,,,,,,,,,,,,,,,,,,,,,,,,,,,,,,,,,,,,,1.26,407.8345033999649,None,None,1,,409.20162659999914,None,409.20162659999914,None,409.20162659999914,None,,,,,,,,,,,P005,fencog,1,Pre,2021_Jul_13_1058,Go No-Go Task,2021.1.4,119.91788025247551,
,"Rule: When you see a yellow image, do not press 'spacebar'.",Images/Fearful/AF10_FC.jpg,Fear,Blue,Images/Blue.jpg,space,ParentConditions/YellowBlueBlue_v1.xlsx,BlueBlueYellow,Conditions/Version_1/YellowHappyStop.xlsx,no,PASS,0.09357566512353055,,,,,,,,,0,0,0,0,0,0,0,0,0,17,17,17,,,,,,,,,,,,,,,,,,,,,,,,,,,,,,,,,,,,,,,,,,,,,,,,,,,,,,,,,,,,,,,,,,,,,,,,,,,,,,,1.48,409.60241169994697,None,space,1,0.25569229997927323,411.18443239998305,None,411.18443239998305,None,411.18443239998305,None,,,,,,,,,,,P005,fencog,1,Pre,2021_Jul_13_1058,Go No-Go Task,2021.1.4,119.91788025247551,
,"Rule: When you see a yellow image, do not press 'spacebar'.",Images/Fearful/BM03_FC.jpg,Fear,Blue,Images/Blue.jpg,space,ParentConditions/YellowBlueBlue_v1.xlsx,BlueBlueYellow,Conditions/Version_1/YellowHappyStop.xlsx,no,PASS,0.789884489320339,,,,,,,,,0,0,0,0,0,0,0,0,0,18,18,18,,,,,,,,,,,,,,,,,,,,,,,,,,,,,,,,,,,,,,,,,,,,,,,,,,,,,,,,,,,,,,,,,,,,,,,,,,,,,,,1.36,411.5922051999951,None,space,1,0.2683312999433838,413.0588130999822,None,413.0588130999822,None,413.0588130999822,None,,,,,,,,,,,P005,fencog,1,Pre,2021_Jul_13_1058,Go No-Go Task,2021.1.4,119.91788025247551,
,"Rule: When you see a yellow image, do not press 'spacebar'.",Images/Fearful/HM09_FC.jpg,Fear,Blue,Images/Blue.jpg,space,ParentConditions/YellowBlueBlue_v1.xlsx,BlueBlueYellow,Conditions/Version_1/YellowHappyStop.xlsx,no,PASS,0.8198583361260475,,,,,,,,,0,0,0,0,0,0,0,0,0,19,19,19,,,,,,,,,,,,,,,,,,,,,,,,,,,,,,,,,,,,,,,,,,,,,,,,,,,,,,,,,,,,,,,,,,,,,,,,,,,,,,,1.81,413.4583017999539,None,space,1,0.2885135000105947,415.3748305999907,None,415.3748305999907,None,415.3748305999907,None,,,,,,,,,,,P005,fencog,1,Pre,2021_Jul_13_1058,Go No-Go Task,2021.1.4,119.91788025247551,
,"Rule: When you see a yellow image, do not press 'spacebar'.",Images/Fearful/AM04_FO.jpg,Fear,Blue,Images/Blue.jpg,space,ParentConditions/YellowBlueBlue_v1.xlsx,BlueBlueYellow,Conditions/Version_1/YellowHappyStop.xlsx,no,PASS,0.9595350245966109,,,,,,,,,0,0,0,0,0,0,0,0,0,20,20,20,,,,,,,,,,,,,,,,,,,,,,,,,,,,,,,,,,,,,,,,,,,,,,,,,,,,,,,,,,,,,,,,,,,,,,,,,,,,,,,1.64,415.774899299955,None,space,1,0.3474659000057727,417.51592389994767,None,417.51592389994767,None,417.51592389994767,None,,,,,,,,,,,P005,fencog,1,Pre,2021_Jul_13_1058,Go No-Go Task,2021.1.4,119.91788025247551,
,"Rule: When you see a yellow image, do not press 'spacebar'.",Images/Fearful/AF11AFS.jpg,Fear,Blue,Images/Blue.jpg,space,ParentConditions/YellowBlueBlue_v1.xlsx,BlueBlueYellow,Conditions/Version_1/YellowHappyStop.xlsx,no,PASS,0.7276184017912607,,,,,,,,,0,0,0,0,0,0,0,0,0,21,21,21,,,,,,,,,,,,,,,,,,,,,,,,,,,,,,,,,,,,,,,,,,,,,,,,,,,,,,,,,,,,,,,,,,,,,,,,,,,,,,,1.2,417.9219875999843,None,space,1,0.3198621000046842,419.2236639999901,None,419.2236639999901,None,419.2236639999901,None,,,,,,,,,,,P005,fencog,1,Pre,2021_Jul_13_1058,Go No-Go Task,2021.1.4,119.91788025247551,
,"Rule: When you see a yellow image, do not press 'spacebar'.",Images/Fearful/AM10_FO.jpg,Fear,Blue,Images/Blue.jpg,space,ParentConditions/YellowBlueBlue_v1.xlsx,BlueBlueYellow,Conditions/Version_1/YellowHappyStop.xlsx,no,PASS,0.7995855816230459,,,,,,,,,0,0,0,0,0,0,0,0,0,22,22,22,,,,,,,,,,,,,,,,,,,,,,,,,,,,,,,,,,,,,,,,,,,,,,,,,,,,,,,,,,,,,,,,,,,,,,,,,,,,,,,1.3,419.6250395999523,None,space,1,0.2800733999465592,421.0314983999706,None,421.0314983999706,None,421.0314983999706,None,,,,,,,,,,,P005,fencog,1,Pre,2021_Jul_13_1058,Go No-Go Task,2021.1.4,119.91788025247551,
,"Rule: When you see a yellow image, do not press 'spacebar'.",Images/Fearful/WF04_FC.jpg,Fear,Blue,Images/Blue.jpg,space,ParentConditions/YellowBlueBlue_v1.xlsx,BlueBlueYellow,Conditions/Version_1/YellowHappyStop.xlsx,no,PASS,0.007163238332436372,,,,,,,,,0,0,0,0,0,0,0,0,0,23,23,23,,,,,,,,,,,,,,,,,,,,,,,,,,,,,,,,,,,,,,,,,,,,,,,,,,,,,,,,,,,,,,,,,,,,,,,,,,,,,,,1.95,421.43091840000125,None,space,1,0.29451129998778924,423.48907099995995,None,423.48907099995995,None,423.48907099995995,None,,,,,,,,,,,P005,fencog,1,Pre,2021_Jul_13_1058,Go No-Go Task,2021.1.4,119.91788025247551,
,"Rule: When you see a yellow image, do not press 'spacebar'.",Images/Fearful/AF28AFS.jpg,Fear,Blue,Images/Blue.jpg,space,ParentConditions/YellowBlueBlue_v1.xlsx,BlueBlueYellow,Conditions/Version_1/YellowHappyStop.xlsx,no,PASS,0.6578574406316495,,,,,,,,,0,0,0,0,0,0,0,0,0,24,24,24,,,,,,,,,,,,,,,,,,,,,,,,,,,,,,,,,,,,,,,,,,,,,,,,,,,,,,,,,,,,,,,,,,,,,,,,,,,,,,,1.71,423.8890182999894,None,space,1,0.2784813999896869,425.7051365999505,None,425.7051365999505,None,425.7051365999505,None,,,,,,,,,,,P005,fencog,1,Pre,2021_Jul_13_1058,Go No-Go Task,2021.1.4,119.91788025247551,
,"Rule: When you see a yellow image, do not press 'spacebar'.",Images/Fearful/WF11_FC.jpg,Fear,Blue,Images/Blue.jpg,space,ParentConditions/YellowBlueBlue_v1.xlsx,BlueBlueYellow,Conditions/Version_1/YellowHappyStop.xlsx,no,PASS,0.16001068916200367,,,,,,,,,0,0,0,0,0,0,0,0,0,25,25,25,,,,,,,,,,,,,,,,,,,,,,,,,,,,,,,,,,,,,,,,,,,,,,,,,,,,,,,,,,,,,,,,,,,,,,,,,,,,,,,1.43,426.104355199961,None,space,1,0.27475199999753386,427.62946829997236,None,427.62946829997236,None,427.62946829997236,None,,,,,,,,,,,P005,fencog,1,Pre,2021_Jul_13_1058,Go No-Go Task,2021.1.4,119.91788025247551,
,"Rule: When you see a yellow image, do not press 'spacebar'.",Images/Fearful/AM17AFS.jpg,Fear,Blue,Images/Blue.jpg,space,ParentConditions/YellowBlueBlue_v1.xlsx,BlueBlueYellow,Conditions/Version_1/YellowHappyStop.xlsx,no,PASS,0.11773651559349041,,,,,,,,,0,0,0,0,0,0,0,0,0,26,26,26,,,,,,,,,,,,,,,,,,,,,,,,,,,,,,,,,,,,,,,,,,,,,,,,,,,,,,,,,,,,,,,,,,,,,,,,,,,,,,,1.8,428.02910599997267,None,space,1,0.3029222000041045,429.9288305999944,None,429.9288305999944,None,429.9288305999944,None,,,,,,,,,,,P005,fencog,1,Pre,2021_Jul_13_1058,Go No-Go Task,2021.1.4,119.91788025247551,
,"Rule: When you see a yellow image, do not press 'spacebar'.",Images/Happy/AF27HAS.jpg,Happy,Yellow,Images/Yellow.jpg,None,ParentConditions/YellowBlueBlue_v1.xlsx,BlueBlueYellow,Conditions/Version_1/YellowHappyStop.xlsx,yes,PASS,0.3141869564869746,,,,,,,,,0,0,0,0,0,0,0,0,0,27,27,27,,,,,,,,,,,,,,,,,,,,,,,,,,,,,,,,,,,,,,,,,,,,,,,,,,,,,,,,,,,,,,,,,,,,,,,,,,,,,,,1.33,430.33553949999623,None,None,1,,431.7616103999899,None,431.7616103999899,None,431.7616103999899,None,,,,,,,,,,,P005,fencog,1,Pre,2021_Jul_13_1058,Go No-Go Task,2021.1.4,119.91788025247551,
,"Rule: When you see a yellow image, do not press 'spacebar'.",Images/Fearful/BF10_FO.jpg,Fear,Blue,Images/Blue.jpg,space,ParentConditions/YellowBlueBlue_v1.xlsx,BlueBlueYellow,Conditions/Version_1/YellowHappyStop.xlsx,no,PASS,0.6473836402289548,,,,,,,,,0,0,0,0,0,0,0,0,0,28,28,28,,,,,,,,,,,,,,,,,,,,,,,,,,,,,,,,,,,,,,,,,,,,,,,,,,,,,,,,,,,,,,,,,,,,,,,,,,,,,,,1.22,432.1690638999571,None,space,1,0.28884480003034696,433.494513899961,None,433.494513899961,None,433.494513899961,None,,,,,,,,,,,P005,fencog,1,Pre,2021_Jul_13_1058,Go No-Go Task,2021.1.4,119.91788025247551,
,"Rule: When you see a yellow image, do not press 'spacebar'.",Images/Fearful/HF04_FO.jpg,Fear,Blue,Images/Blue.jpg,space,ParentConditions/YellowBlueBlue_v1.xlsx,BlueBlueYellow,Conditions/Version_1/YellowHappyStop.xlsx,no,PASS,0.6573655365841123,,,,,,,,,0,0,0,0,0,0,0,0,0,29,29,29,,,,,,,,,,,,,,,,,,,,,,,,,,,,,,,,,,,,,,,,,,,,,,,,,,,,,,,,,,,,,,,,,,,,,,,,,,,,,,,1.41,433.89652689994546,None,space,1,0.26841560000320897,435.41066989995306,None,435.41066989995306,None,435.41066989995306,None,,,,,,,,,,,P005,fencog,1,Pre,2021_Jul_13_1058,Go No-Go Task,2021.1.4,119.91788025247551,
,"Rule: When you see a yellow image, do not press 'spacebar'.",Images/Happy/AF26HAS.jpg,Happy,Yellow,Images/Yellow.jpg,None,ParentConditions/YellowBlueBlue_v1.xlsx,BlueBlueYellow,Conditions/Version_1/YellowHappyStop.xlsx,yes,PASS,0.9634288273569958,,,,,,,,,0,0,0,0,0,0,0,0,0,30,30,30,,,,,,,,,,,,,,,,,,,,,,,,,,,,,,,,,,,,,,,,,,,,,,,,,,,,,,,,,,,,,,,,,,,,,,,,,,,,,,,1.68,435.8095884999493,None,None,1,,437.59329039999284,None,437.59329039999284,None,437.59329039999284,None,,,,,,,,,,,P005,fencog,1,Pre,2021_Jul_13_1058,Go No-Go Task,2021.1.4,119.91788025247551,
,"Rule: When you see a yellow image, do not press 'spacebar'.",Images/Happy/HF09_HE.jpg,Happy,Yellow,Images/Yellow.jpg,None,ParentConditions/YellowBlueBlue_v1.xlsx,BlueBlueYellow,Conditions/Version_1/YellowHappyStop.xlsx,yes,PASS,0.28002812366142005,,,,,,,,,0,0,0,0,0,0,0,0,0,31,31,31,,,,,,,,,,,,,,,,,,,,,,,,,,,,,,,,,,,,,,,,,,,,,,,,,,,,,,,,,,,,,,,,,,,,,,,,,,,,,,,1.87,437.99423849995947,None,None,1,,439.9675362999551,None,439.9675362999551,None,439.9675362999551,None,,,,,,,,,,,P005,fencog,1,Pre,2021_Jul_13_1058,Go No-Go Task,2021.1.4,119.91788025247551,
,"Rule: When you see a yellow image, do not press 'spacebar'.",Images/Fearful/AM16AFS.jpg,Fear,Blue,Images/Blue.jpg,space,ParentConditions/YellowBlueBlue_v1.xlsx,BlueBlueYellow,Conditions/Version_1/YellowHappyStop.xlsx,no,PASS,0.5681414931312986,,,,,,,,,0,0,0,0,0,0,0,0,0,32,32,32,,,,,,,,,,,,,,,,,,,,,,,,,,,,,,,,,,,,,,,,,,,,,,,,,,,,,,,,,,,,,,,,,,,,,,,,,,,,,,,1.58,440.36830479995115,None,space,1,0.3734108000062406,442.05029569996987,None,442.05029569996987,None,442.05029569996987,None,,,,,,,,,,,P005,fencog,1,Pre,2021_Jul_13_1058,Go No-Go Task,2021.1.4,119.91788025247551,
,"Rule: When you see a yellow image, do not press 'spacebar'.",Images/Fearful/WF05_FO.jpg,Fear,Blue,Images/Blue.jpg,space,ParentConditions/YellowBlueBlue_v1.xlsx,BlueBlueYellow,Conditions/Version_1/YellowHappyStop.xlsx,no,PASS,0.23759173368539344,,,,,,,,,0,0,0,0,0,0,0,0,0,33,33,33,,,,,,,,,,,,,,,,,,,,,,,,,,,,,,,,,,,,,,,,,,,,,,,,,,,,,,,,,,,,,,,,,,,,,,,,,,,,,,,1.84,442.4490836999612,None,space,1,0.26474399998551235,444.3912479999708,None,444.3912479999708,None,444.3912479999708,None,,,,,,,,,,,P005,fencog,1,Pre,2021_Jul_13_1058,Go No-Go Task,2021.1.4,119.91788025247551,
,"Rule: When you see a yellow image, do not press 'spacebar'.",Images/Fearful/AM03_FC.jpg,Fear,Blue,Images/Blue.jpg,space,ParentConditions/YellowBlueBlue_v1.xlsx,BlueBlueYellow,Conditions/Version_1/YellowHappyStop.xlsx,no,PASS,0.45277772012976447,,,,,,,,,0,0,0,0,0,0,0,0,0,34,34,34,,,,,,,,,,,,,,,,,,,,,,,,,,,,,,,,,,,,,,,,,,,,,,,,,,,,,,,,,,,,,,,,,,,,,,,,,,,,,,,1.93,444.7914567999542,None,space,1,0.2955019000219181,446.82389519998105,None,446.82389519998105,None,446.82389519998105,None,,,,,,,,,,,P005,fencog,1,Pre,2021_Jul_13_1058,Go No-Go Task,2021.1.4,119.91788025247551,
,"Rule: When you see a yellow image, do not press 'spacebar'.",Images/Fearful/AM01AFS.jpg,Fear,Blue,Images/Blue.jpg,space,ParentConditions/YellowBlueBlue_v1.xlsx,BlueBlueYellow,Conditions/Version_1/YellowHappyStop.xlsx,no,PASS,0.4826830931616207,,,,,,,,,0,0,0,0,0,0,0,0,0,35,35,35,,,,,,,,,,,,,,,,,,,,,,,,,,,,,,,,,,,,,,,,,,,,,,,,,,,,,,,,,,,,,,,,,,,,,,,,,,,,,,,1.65,447.2258566999808,None,space,1,0.3622493000002578,448.98159689997556,None,448.98159689997556,None,448.98159689997556,None,,,,,,,,,,,P005,fencog,1,Pre,2021_Jul_13_1058,Go No-Go Task,2021.1.4,119.91788025247551,
,"Rule: When you see a yellow image, do not press 'spacebar'.",Images/Fearful/HM04_FC.jpg,Fear,Blue,Images/Blue.jpg,space,ParentConditions/YellowBlueBlue_v1.xlsx,BlueBlueYellow,Conditions/Version_1/YellowHappyStop.xlsx,no,PASS,0.46069029171054665,,,,,,,,,0,0,0,0,0,0,0,0,0,36,36,36,,,,,,,,,,,,,,,,,,,,,,,,,,,,,,,,,,,,,,,,,,,,,,,,,,,,,,,,,,,,,,,,,,,,,,,,,,,,,,,1.51,449.38690049998695,None,space,1,0.25049000000581145,450.98931859998265,None,450.98931859998265,None,450.98931859998265,None,,,,,,,,,,,P005,fencog,1,Pre,2021_Jul_13_1058,Go No-Go Task,2021.1.4,119.91788025247551,
,"Rule: When you see a yellow image, do not press 'spacebar'.",Images/Fearful/BF18_FC.jpg,Fear,Blue,Images/Blue.jpg,space,ParentConditions/YellowBlueBlue_v1.xlsx,BlueBlueYellow,Conditions/Version_1/YellowHappyStop.xlsx,no,PASS,0.633030328468129,,,,,,,,,0,0,0,0,0,0,0,0,0,37,37,37,,,,,,,,,,,,,,,,,,,,,,,,,,,,,,,,,,,,,,,,,,,,,,,,,,,,,,,,,,,,,,,,,,,,,,,,,,,,,,,1.47,451.3907465999946,None,space,1,0.3079565000371076,452.96367959998315,None,452.96367959998315,None,452.96367959998315,None,,,,,,,,,,,P005,fencog,1,Pre,2021_Jul_13_1058,Go No-Go Task,2021.1.4,119.91788025247551,
,"Rule: When you see a yellow image, do not press 'spacebar'.",Images/Fearful/AF07_FO.jpg,Fear,Blue,Images/Blue.jpg,space,ParentConditions/YellowBlueBlue_v1.xlsx,BlueBlueYellow,Conditions/Version_1/YellowHappyStop.xlsx,no,PASS,0.34147832357579266,,,,,,,,,0,0,0,0,0,0,0,0,0,38,38,38,,,,,,,,,,,,,,,,,,,,,,,,,,,,,,,,,,,,,,,,,,,,,,,,,,,,,,,,,,,,,,,,,,,,,,,,,,,,,,,1.76,453.36335359996883,None,space,1,0.27435049996711314,455.22966679994715,None,455.22966679994715,None,455.22966679994715,None,,,,,,,,,,,P005,fencog,1,Pre,2021_Jul_13_1058,Go No-Go Task,2021.1.4,119.91788025247551,
,"Rule: When you see a yellow image, do not press 'spacebar'.",Images/Fearful/AM24AFS.jpg,Fear,Blue,Images/Blue.jpg,space,ParentConditions/YellowBlueBlue_v1.xlsx,BlueBlueYellow,Conditions/Version_1/YellowHappyStop.xlsx,no,PASS,0.778148808430259,,,,,,,,,0,0,0,0,0,0,0,0,0,39,39,39,,,,,,,,,,,,,,,,,,,,,,,,,,,,,,,,,,,,,,,,,,,,,,,,,,,,,,,,,,,,,,,,,,,,,,,,,,,,,,,1.24,455.62878249998903,None,space,1,0.3324179000337608,456.97095679998165,None,456.97095679998165,None,456.97095679998165,None,,,,,,,,,,,P005,fencog,1,Pre,2021_Jul_13_1058,Go No-Go Task,2021.1.4,119.91788025247551,
,"Rule: When you see a yellow image, do not press 'spacebar'.",Images/Fearful/AM03AFS.jpg,Fear,Blue,Images/Blue.jpg,space,ParentConditions/YellowBlueBlue_v1.xlsx,BlueBlueYellow,Conditions/Version_1/YellowHappyStop.xlsx,no,PASS,0.23044092834848573,,,,,,,,,0,0,0,0,0,0,0,0,0,40,40,40,,,,,,,,,,,,,,,,,,,,,,,,,,,,,,,,,,,,,,,,,,,,,,,,,,,,,,,,,,,,,,,,,,,,,,,,,,,,,,,1.52,457.37124439998297,None,space,1,0.27687350002815947,458.9952137999935,None,458.9952137999935,None,458.9952137999935,None,,,,,,,,,,,P005,fencog,1,Pre,2021_Jul_13_1058,Go No-Go Task,2021.1.4,119.91788025247551,
,"Rule: When you see a yellow image, do not press 'spacebar'.",Images/Fearful/BM08_FC.jpg,Fear,Blue,Images/Blue.jpg,space,ParentConditions/YellowBlueBlue_v1.xlsx,BlueBlueYellow,Conditions/Version_1/YellowHappyStop.xlsx,no,PASS,0.6548756521259214,,,,,,,,,0,0,0,0,0,0,0,0,0,41,41,41,,,,,,,,,,,,,,,,,,,,,,,,,,,,,,,,,,,,,,,,,,,,,,,,,,,,,,,,,,,,,,,,,,,,,,,,,,,,,,,1.44,459.3968261999544,None,space,1,0.24671330000273883,460.9446801999584,None,460.9446801999584,None,460.9446801999584,None,,,,,,,,,,,P005,fencog,1,Pre,2021_Jul_13_1058,Go No-Go Task,2021.1.4,119.91788025247551,
,"Rule: When you see a yellow image, do not press 'spacebar'.",Images/Fearful/AF32AFS.jpg,Fear,Blue,Images/Blue.jpg,space,ParentConditions/YellowBlueBlue_v1.xlsx,BlueBlueYellow,Conditions/Version_1/YellowHappyStop.xlsx,no,PASS,0.9401650545876452,,,,,,,,,0,0,0,0,0,0,0,0,0,42,42,42,,,,,,,,,,,,,,,,,,,,,,,,,,,,,,,,,,,,,,,,,,,,,,,,,,,,,,,,,,,,,,,,,,,,,,,,,,,,,,,1.73,461.34442699997453,None,space,1,0.213921099959407,463.17738109995844,None,463.17738109995844,None,463.17738109995844,None,,,,,,,,,,,P005,fencog,1,Pre,2021_Jul_13_1058,Go No-Go Task,2021.1.4,119.91788025247551,
,"Rule: When you see a yellow image, do not press 'spacebar'.",Images/Fearful/AF26AFS.jpg,Fear,Blue,Images/Blue.jpg,space,ParentConditions/YellowBlueBlue_v1.xlsx,BlueBlueYellow,Conditions/Version_1/YellowHappyStop.xlsx,no,PASS,0.5799257276734284,,,,,,,,,0,0,0,0,0,0,0,0,0,43,43,43,,,,,,,,,,,,,,,,,,,,,,,,,,,,,,,,,,,,,,,,,,,,,,,,,,,,,,,,,,,,,,,,,,,,,,,,,,,,,,,1.77,463.5778002999723,None,space,1,0.26794769999105483,465.45995449996553,None,465.45995449996553,None,465.45995449996553,None,,,,,,,,,,,P005,fencog,1,Pre,2021_Jul_13_1058,Go No-Go Task,2021.1.4,119.91788025247551,
,"Rule: When you see a yellow image, do not press 'spacebar'.",Images/Fearful/BF09_FC.jpg,Fear,Blue,Images/Blue.jpg,space,ParentConditions/YellowBlueBlue_v1.xlsx,BlueBlueYellow,Conditions/Version_1/YellowHappyStop.xlsx,no,PASS,0.9512288628250045,,,,,,,,,0,0,0,0,0,0,0,0,0,44,44,44,,,,,,,,,,,,,,,,,,,,,,,,,,,,,,,,,,,,,,,,,,,,,,,,,,,,,,,,,,,,,,,,,,,,,,,,,,,,,,,1.96,465.8646604999667,None,None,0,,467.92591249995166,None,467.92591249995166,None,467.92591249995166,None,,,,,,,,,,,P005,fencog,1,Pre,2021_Jul_13_1058,Go No-Go Task,2021.1.4,119.91788025247551,
,"Rule: When you see a yellow image, do not press 'spacebar'.",Images/Fearful/BM01_FO.jpg,Fear,Blue,Images/Blue.jpg,space,ParentConditions/YellowBlueBlue_v1.xlsx,BlueBlueYellow,Conditions/Version_1/YellowHappyStop.xlsx,no,PASS,0.8954287307362916,,,,,,,,,0,0,0,0,0,0,0,0,0,45,45,45,,,,,,,,,,,,,,,,,,,,,,,,,,,,,,,,,,,,,,,,,,,,,,,,,,,,,,,,,,,,,,,,,,,,,,,,,,,,,,,1.86,468.32813679997344,None,space,1,0.27588520001154393,470.2919190999819,None,470.2919190999819,None,470.2919190999819,None,,,,,,,,,,,P005,fencog,1,Pre,2021_Jul_13_1058,Go No-Go Task,2021.1.4,119.91788025247551,
,"Rule: When you see a yellow image, do not press 'spacebar'.",Images/Happy/BF14_HO.jpg,Happy,Yellow,Images/Yellow.jpg,None,ParentConditions/YellowBlueBlue_v1.xlsx,BlueBlueYellow,Conditions/Version_1/YellowHappyStop.xlsx,yes,PASS,0.7234280216409134,,,,,,,,,0,0,0,0,0,0,0,0,0,46,46,46,,,,,,,,,,,,,,,,,,,,,,,,,,,,,,,,,,,,,,,,,,,,,,,,,,,,,,,,,,,,,,,,,,,,,,,,,,,,,,,1.42,470.6914889999898,None,None,1,,472.21641880000243,None,472.21641880000243,None,472.21641880000243,None,,,,,,,,,,,P005,fencog,1,Pre,2021_Jul_13_1058,Go No-Go Task,2021.1.4,119.91788025247551,
,"Rule: When you see a yellow image, do not press 'spacebar'.",Images/Fearful/WM11_FC.jpg,Fear,Blue,Images/Blue.jpg,space,ParentConditions/YellowBlueBlue_v1.xlsx,BlueBlueYellow,Conditions/Version_1/YellowHappyStop.xlsx,no,PASS,0.023552814974996727,,,,,,,,,0,0,0,0,0,0,0,0,0,47,47,47,,,,,,,,,,,,,,,,,,,,,,,,,,,,,,,,,,,,,,,,,,,,,,,,,,,,,,,,,,,,,,,,,,,,,,,,,,,,,,,1.25,472.6221699999878,None,space,1,0.3304800000041723,473.9740685999859,None,473.9740685999859,None,473.9740685999859,None,,,,,,,,,,,P005,fencog,1,Pre,2021_Jul_13_1058,Go No-Go Task,2021.1.4,119.91788025247551,
,"Rule: When you see a yellow image, do not press 'spacebar'.",Images/Fearful/AM02_FO.jpg,Fear,Blue,Images/Blue.jpg,space,ParentConditions/YellowBlueBlue_v1.xlsx,BlueBlueYellow,Conditions/Version_1/YellowHappyStop.xlsx,no,PASS,0.4906088235260202,,,,,,,,,0,0,0,0,0,0,0,0,0,48,48,48,,,,,,,,,,,,,,,,,,,,,,,,,,,,,,,,,,,,,,,,,,,,,,,,,,,,,,,,,,,,,,,,,,,,,,,,,,,,,,,1.67,474.37467979994835,None,space,1,0.22791469999356195,476.14850719994865,None,476.14850719994865,None,476.14850719994865,None,,,,,,,,,,,P005,fencog,1,Pre,2021_Jul_13_1058,Go No-Go Task,2021.1.4,119.91788025247551,
,"Rule: When you see a yellow image, do not press 'spacebar'.",Images/Happy/HM09_HO.jpg,Happy,Yellow,Images/Yellow.jpg,None,ParentConditions/YellowBlueBlue_v1.xlsx,BlueBlueYellow,Conditions/Version_1/YellowHappyStop.xlsx,yes,PASS,0.5172626673634482,,,,,,,,,0,0,0,0,0,0,0,0,0,49,49,49,,,,,,,,,,,,,,,,,,,,,,,,,,,,,,,,,,,,,,,,,,,,,,,,,,,,,,,,,,,,,,,,,,,,,,,,,,,,,,,1.31,476.5569209999521,None,None,1,,477.9730297999922,None,477.9730297999922,None,477.9730297999922,None,,,,,,,,,,,P005,fencog,1,Pre,2021_Jul_13_1058,Go No-Go Task,2021.1.4,119.91788025247551,
,"Rule: When you see a yellow image, do not press 'spacebar'.",Images/Happy/HF10_HE.jpg,Happy,Yellow,Images/Yellow.jpg,None,ParentConditions/YellowBlueBlue_v1.xlsx,BlueBlueYellow,Conditions/Version_1/YellowHappyStop.xlsx,yes,PASS,0.44150167084278924,,,,,,,,,0,0,0,0,0,0,0,0,0,50,50,50,,,,,,,,,,,,,,,,,,,,,,,,,,,,,,,,,,,,,,,,,,,,,,,,,,,,,,,,,,,,,,,,,,,,,,,,,,,,,,,1.28,478.37561849999474,None,space,0,0.2596153999911621,479.75570549996337,None,479.75570549996337,None,479.75570549996337,None,,,,,,,,,,,P005,fencog,1,Pre,2021_Jul_13_1058,Go No-Go Task,2021.1.4,119.91788025247551,
,"Rule: When you see a yellow image, do not press 'spacebar'.",Images/Fearful/AF09AFS.jpg,Fear,Blue,Images/Blue.jpg,space,ParentConditions/YellowBlueBlue_v1.xlsx,BlueBlueYellow,Conditions/Version_1/YellowHappyStop.xlsx,no,PASS,0.20329731425220043,,,,,,,,,0,0,0,0,0,0,0,0,0,51,51,51,,,,,,,,,,,,,,,,,,,,,,,,,,,,,,,,,,,,,,,,,,,,,,,,,,,,,,,,,,,,,,,,,,,,,,,,,,,,,,,1.27,480.15831189998426,None,space,1,0.28562819998478517,481.53035229997477,None,481.53035229997477,None,481.53035229997477,None,,,,,,,,,,,P005,fencog,1,Pre,2021_Jul_13_1058,Go No-Go Task,2021.1.4,119.91788025247551,
,"Rule: When you see a yellow image, do not press 'spacebar'.",Images/Fearful/AM23AFS.jpg,Fear,Blue,Images/Blue.jpg,space,ParentConditions/YellowBlueBlue_v1.xlsx,BlueBlueYellow,Conditions/Version_1/YellowHappyStop.xlsx,no,PASS,0.9134790301426777,,,,,,,,,0,0,0,0,0,0,0,0,0,52,52,52,,,,,,,,,,,,,,,,,,,,,,,,,,,,,,,,,,,,,,,,,,,,,,,,,,,,,,,,,,,,,,,,,,,,,,,,,,,,,,,1.6,481.92960380000295,None,space,1,0.290456400020048,483.6295829999726,None,483.6295829999726,None,483.6295829999726,None,,,,,,,,,,,P005,fencog,1,Pre,2021_Jul_13_1058,Go No-Go Task,2021.1.4,119.91788025247551,
,"Rule: When you see a yellow image, do not press 'spacebar'.",Images/Fearful/AM05AFS.jpg,Fear,Blue,Images/Blue.jpg,space,ParentConditions/YellowBlueBlue_v1.xlsx,BlueBlueYellow,Conditions/Version_1/YellowHappyStop.xlsx,no,PASS,0.7369542946293995,,,,,,,,,0,0,0,0,0,0,0,0,0,53,53,53,,,,,,,,,,,,,,,,,,,,,,,,,,,,,,,,,,,,,,,,,,,,,,,,,,,,,,,,,,,,,,,,,,,,,,,,,,,,,,,1.99,484.0296859999653,None,space,1,0.33461439999518916,486.12057099997764,None,486.12057099997764,None,486.12057099997764,None,,,,,,,,,,,P005,fencog,1,Pre,2021_Jul_13_1058,Go No-Go Task,2021.1.4,119.91788025247551,
,"Rule: When you see a yellow image, do not press 'spacebar'.",Images/Happy/AF28HAS.jpg,Happy,Yellow,Images/Yellow.jpg,None,ParentConditions/YellowBlueBlue_v1.xlsx,BlueBlueYellow,Conditions/Version_1/YellowHappyStop.xlsx,yes,PASS,0.27168303726444554,,,,,,,,,0,0,0,0,0,0,0,0,0,54,54,54,,,,,,,,,,,,,,,,,,,,,,,,,,,,,,,,,,,,,,,,,,,,,,,,,,,,,,,,,,,,,,,,,,,,,,,,,,,,,,,1.38,486.52092749997973,None,None,1,,488.00316149997525,None,488.00316149997525,None,488.00316149997525,None,,,,,,,,,,,P005,fencog,1,Pre,2021_Jul_13_1058,Go No-Go Task,2021.1.4,119.91788025247551,
,"Rule: When you see a yellow image, do not press 'spacebar'.",Images/Fearful/BF14_FO.jpg,Fear,Blue,Images/Blue.jpg,space,ParentConditions/YellowBlueBlue_v1.xlsx,BlueBlueYellow,Conditions/Version_1/YellowHappyStop.xlsx,no,PASS,0.6433421649003036,,,,,,,,,0,0,0,0,0,0,0,0,0,55,55,55,,,,,,,,,,,,,,,,,,,,,,,,,,,,,,,,,,,,,,,,,,,,,,,,,,,,,,,,,,,,,,,,,,,,,,,,,,,,,,,2,488.40403209999204,None,space,1,0.28845069999806583,490.5109140999848,None,490.5109140999848,None,490.5109140999848,None,,,,,,,,,,,P005,fencog,1,Pre,2021_Jul_13_1058,Go No-Go Task,2021.1.4,119.91788025247551,
,"Rule: When you see a yellow image, do not press 'spacebar'.",Images/Happy/AM30HAS.jpg,Happy,Yellow,Images/Yellow.jpg,None,ParentConditions/YellowBlueBlue_v1.xlsx,BlueBlueYellow,Conditions/Version_1/YellowHappyStop.xlsx,yes,PASS,0.0794505415747715,,,,,,,,,0,0,0,0,0,0,0,0,0,56,56,56,,,,,,,,,,,,,,,,,,,,,,,,,,,,,,,,,,,,,,,,,,,,,,,,,,,,,,,,,,,,,,,,,,,,,,,,,,,,,,,1.59,490.9103981999797,None,None,1,,492.61036989995046,None,492.61036989995046,None,492.61036989995046,None,,,,,,,,,,,P005,fencog,1,Pre,2021_Jul_13_1058,Go No-Go Task,2021.1.4,119.91788025247551,
,"Rule: When you see a yellow image, do not press 'spacebar'.",Images/Fearful/AF27AFS.jpg,Fear,Blue,Images/Blue.jpg,space,ParentConditions/YellowBlueBlue_v1.xlsx,BlueBlueYellow,Conditions/Version_1/YellowHappyStop.xlsx,no,PASS,0.3935834771022866,,,,,,,,,0,0,0,0,0,0,0,0,0,57,57,57,,,,,,,,,,,,,,,,,,,,,,,,,,,,,,,,,,,,,,,,,,,,,,,,,,,,,,,,,,,,,,,,,,,,,,,,,,,,,,,1.34,493.0092548999819,None,space,1,0.3642746999976225,494.451321200002,None,494.451321200002,None,494.451321200002,None,,,,,,,,,,,P005,fencog,1,Pre,2021_Jul_13_1058,Go No-Go Task,2021.1.4,119.91788025247551,
,"Rule: When you see a yellow image, do not press 'spacebar'.",Images/Fearful/AM32AFS.jpg,Fear,Blue,Images/Blue.jpg,space,ParentConditions/YellowBlueBlue_v1.xlsx,BlueBlueYellow,Conditions/Version_1/YellowHappyStop.xlsx,no,PASS,0.5614458224122035,,,,,,,,,0,0,0,0,0,0,0,0,0,58,58,58,,,,,,,,,,,,,,,,,,,,,,,,,,,,,,,,,,,,,,,,,,,,,,,,,,,,,,,,,,,,,,,,,,,,,,,,,,,,,,,1.78,494.8573864999926,None,space,1,0.25660060002701357,496.7424019999453,None,496.7424019999453,None,496.7424019999453,None,,,,,,,,,,,P005,fencog,1,Pre,2021_Jul_13_1058,Go No-Go Task,2021.1.4,119.91788025247551,
,"Rule: When you see a yellow image, do not press 'spacebar'.",Images/Fearful/AM09_FO.jpg,Fear,Blue,Images/Blue.jpg,space,ParentConditions/YellowBlueBlue_v1.xlsx,BlueBlueYellow,Conditions/Version_1/YellowHappyStop.xlsx,no,PASS,0.3933837419145386,,,,,,,,,0,0,0,0,0,0,0,0,0,59,59,59,,,,,,,,,,,,,,,,,,,,,,,,,,,,,,,,,,,,,,,,,,,,,,,,,,,,,,,,,,,,,,,,,,,,,,,,,,,,,,,1.74,497.14154079998843,None,space,1,0.28855270001804456,498.98345459997654,None,498.98345459997654,None,498.98345459997654,None,,,,,,,,,,,P005,fencog,1,Pre,2021_Jul_13_1058,Go No-Go Task,2021.1.4,119.91788025247551,
,"Rule: When you see a yellow image, do not press 'spacebar'.",Images/Fearful/AF01_FO.jpg,Fear,Blue,Images/Blue.jpg,space,ParentConditions/YellowBlueBlue_v1.xlsx,BlueBlueYellow,Conditions/Version_1/YellowHappyStop.xlsx,no,PASS,0.7419870009427991,,,,,,,,,0,0,0,0,0,0,0,0,0,60,60,60,,,,,,,,,,,,,,,,,,,,,,,,,,,,,,,,,,,,,,,,,,,,,,,,,,,,,,,,,,,,,,,,,,,,,,,,,,,,,,,1.46,499.3843899999629,None,space,1,0.2657640000106767,500.94972439995036,None,500.94972439995036,None,500.94972439995036,None,,,,,,,,,,,P005,fencog,1,Pre,2021_Jul_13_1058,Go No-Go Task,2021.1.4,119.91788025247551,
,"Rule: When you see a yellow image, do not press 'spacebar'.",Images/Happy/AM10_HO.jpg,Happy,Yellow,Images/Yellow.jpg,None,ParentConditions/YellowBlueBlue_v1.xlsx,BlueBlueYellow,Conditions/Version_1/YellowHappyStop.xlsx,yes,PASS,0.7352402085502512,,,,,,,,,0,0,0,0,0,0,0,0,0,61,61,61,,,,,,,,,,,,,,,,,,,,,,,,,,,,,,,,,,,,,,,,,,,,,,,,,,,,,,,,,,,,,,,,,,,,,,,,,,,,,,,1.9,501.3532627999666,None,None,1,,503.35712829994736,None,503.35712829994736,None,503.35712829994736,None,,,,,,,,,,,P005,fencog,1,Pre,2021_Jul_13_1058,Go No-Go Task,2021.1.4,119.91788025247551,
,"Rule: When you see a yellow image, do not press 'spacebar'.",Images/Happy/AM22HAS.jpg,Happy,Yellow,Images/Yellow.jpg,None,ParentConditions/YellowBlueBlue_v1.xlsx,BlueBlueYellow,Conditions/Version_1/YellowHappyStop.xlsx,yes,PASS,0.27838589915801637,,,,,,,,,0,0,0,0,0,0,0,0,0,62,62,62,,,,,,,,,,,,,,,,,,,,,,,,,,,,,,,,,,,,,,,,,,,,,,,,,,,,,,,,,,,,,,,,,,,,,,,,,,,,,,,1.35,503.76154109998606,None,None,1,,505.2149208999472,None,505.2149208999472,None,505.2149208999472,None,,,,,,,,,,,P005,fencog,1,Pre,2021_Jul_13_1058,Go No-Go Task,2021.1.4,119.91788025247551,
,"Rule: When you see a yellow image, do not press 'spacebar'.",Images/Fearful/AM22AFS.jpg,Fear,Blue,Images/Blue.jpg,space,ParentConditions/YellowBlueBlue_v1.xlsx,BlueBlueYellow,Conditions/Version_1/YellowHappyStop.xlsx,no,PASS,0.012398818855924532,,,,,,,,,0,0,0,0,0,0,0,0,0,63,63,63,,,,,,,,,,,,,,,,,,,,,,,,,,,,,,,,,,,,,,,,,,,,,,,,,,,,,,,,,,,,,,,,,,,,,,,,,,,,,,,1.97,505.61748099996476,None,space,1,0.262524499965366,507.6891879999894,None,507.6891879999894,None,507.6891879999894,None,,,,,,,,,,,P005,fencog,1,Pre,2021_Jul_13_1058,Go No-Go Task,2021.1.4,119.91788025247551,
,"Rule: When you see a yellow image, do not press 'spacebar'.",Images/Happy/BM08_HO.jpg,Happy,Yellow,Images/Yellow.jpg,None,ParentConditions/YellowBlueBlue_v1.xlsx,BlueBlueYellow,Conditions/Version_1/YellowHappyStop.xlsx,yes,PASS,0.25791881247444226,,,,,,,,,0,0,0,0,0,0,0,0,0,64,64,64,,,,,,,,,,,,,,,,,,,,,,,,,,,,,,,,,,,,,,,,,,,,,,,,,,,,,,,,,,,,,,,,,,,,,,,,,,,,,,,1.82,508.08846869994886,None,None,1,,510.0135739999823,None,510.0135739999823,None,510.0135739999823,None,,,,,,,,,,,P005,fencog,1,Pre,2021_Jul_13_1058,Go No-Go Task,2021.1.4,119.91788025247551,
,"Rule: When you see a yellow image, do not press 'spacebar'.",Images/Fearful/AM19AFS.jpg,Fear,Blue,Images/Blue.jpg,space,ParentConditions/YellowBlueBlue_v1.xlsx,BlueBlueYellow,Conditions/Version_1/YellowHappyStop.xlsx,no,PASS,0.4570092371665587,,,,,,,,,0,0,0,0,0,0,0,0,0,65,65,65,,,,,,,,,,,,,,,,,,,,,,,,,,,,,,,,,,,,,,,,,,,,,,,,,,,,,,,,,,,,,,,,,,,,,,,,,,,,,,,1.49,510.42100919998484,None,space,1,0.2421330999932252,512.0130035999464,None,512.0130035999464,None,512.0130035999464,None,,,,,,,,,,,P005,fencog,1,Pre,2021_Jul_13_1058,Go No-Go Task,2021.1.4,119.91788025247551,
,"Rule: When you see a yellow image, do not press 'spacebar'.",Images/Fearful/AF23AFS.jpg,Fear,Blue,Images/Blue.jpg,space,ParentConditions/YellowBlueBlue_v1.xlsx,BlueBlueYellow,Conditions/Version_1/YellowHappyStop.xlsx,no,PASS,0.9065930904744121,,,,,,,,,0,0,0,0,0,0,0,0,0,66,66,66,,,,,,,,,,,,,,,,,,,,,,,,,,,,,,,,,,,,,,,,,,,,,,,,,,,,,,,,,,,,,,,,,,,,,,,,,,,,,,,1.23,512.4217759000021,None,space,1,0.33406630001263693,513.7540647999849,None,513.7540647999849,None,513.7540647999849,None,,,,,,,,,,,P005,fencog,1,Pre,2021_Jul_13_1058,Go No-Go Task,2021.1.4,119.91788025247551,
,"Rule: When you see a yellow image, do not press 'spacebar'.",Images/Fearful/AM13AFS.jpg,Fear,Blue,Images/Blue.jpg,space,ParentConditions/YellowBlueBlue_v1.xlsx,BlueBlueYellow,Conditions/Version_1/YellowHappyStop.xlsx,no,PASS,0.672217887403839,,,,,,,,,0,0,0,0,0,0,0,0,0,67,67,67,,,,,,,,,,,,,,,,,,,,,,,,,,,,,,,,,,,,,,,,,,,,,,,,,,,,,,,,,,,,,,,,,,,,,,,,,,,,,,,1.63,514.1530085999984,None,space,1,0.28036279999651015,515.8868100999971,None,515.8868100999971,None,515.8868100999971,None,,,,,,,,,,,P005,fencog,1,Pre,2021_Jul_13_1058,Go No-Go Task,2021.1.4,119.91788025247551,
,"Rule: When you see a yellow image, do not press 'spacebar'.",Images/Fearful/HF09_FC.jpg,Fear,Blue,Images/Blue.jpg,space,ParentConditions/YellowBlueBlue_v1.xlsx,BlueBlueYellow,Conditions/Version_1/YellowHappyStop.xlsx,no,PASS,0.947763278232759,,,,,,,,,0,0,0,0,0,0,0,0,0,68,68,68,,,,,,,,,,,,,,,,,,,,,,,,,,,,,,,,,,,,,,,,,,,,,,,,,,,,,,,,,,,,,,,,,,,,,,,,,,,,,,,1.5,516.2883249999722,None,None,0,,517.8943177999463,None,517.8943177999463,None,517.8943177999463,None,,,,,,,,,,,P005,fencog,1,Pre,2021_Jul_13_1058,Go No-Go Task,2021.1.4,119.91788025247551,
,"Rule: When you see a yellow image, do not press 'spacebar'.",Images/Fearful/AM04AFS.jpg,Fear,Blue,Images/Blue.jpg,space,ParentConditions/YellowBlueBlue_v1.xlsx,BlueBlueYellow,Conditions/Version_1/YellowHappyStop.xlsx,no,PASS,0.7155710730323807,,,,,,,,,0,0,0,0,0,0,0,0,0,69,69,69,,,,,,,,,,,,,,,,,,,,,,,,,,,,,,,,,,,,,,,,,,,,,,,,,,,,,,,,,,,,,,,,,,,,,,,,,,,,,,,1.7,518.295046299987,None,space,1,0.32100130000617355,520.1022016999777,None,520.1022016999777,None,520.1022016999777,None,,,,,,,,,,,P005,fencog,1,Pre,2021_Jul_13_1058,Go No-Go Task,2021.1.4,119.91788025247551,
,"Rule: When you see a yellow image, do not press 'spacebar'.",Images/Fearful/AF02AFS.jpg,Fear,Blue,Images/Blue.jpg,space,ParentConditions/YellowBlueBlue_v1.xlsx,BlueBlueYellow,Conditions/Version_1/YellowHappyStop.xlsx,no,PASS,0.9864792225255055,,,,,,,,,0,0,0,0,0,0,0,0,0,70,70,70,,,,,,,,,,,,,,,,,,,,,,,,,,,,,,,,,,,,,,,,,,,,,,,,,,,,,,,,,,,,,,,,,,,,,,,,,,,,,,,1.54,520.5014188999776,None,space,1,0.2799972000066191,522.1433044999721,None,522.1433044999721,None,522.1433044999721,None,,,,,,,,,,,P005,fencog,1,Pre,2021_Jul_13_1058,Go No-Go Task,2021.1.4,119.91788025247551,
,"Rule: When you see a yellow image, do not press 'spacebar'.",Images/Fearful/AM09AFS.jpg,Fear,Blue,Images/Blue.jpg,space,ParentConditions/YellowBlueBlue_v1.xlsx,BlueBlueYellow,Conditions/Version_1/YellowHappyStop.xlsx,no,PASS,0.8390326237024166,,,,,,,,,0,0,0,0,0,0,0,0,0,71,71,71,,,,,,,,,,,,,,,,,,,,,,,,,,,,,,,,,,,,,,,,,,,,,,,,,,,,,,,,,,,,,,,,,,,,,,,,,,,,,,,1.32,522.5430229999474,None,space,1,0.2800438999547623,523.9676199999521,None,523.9676199999521,None,523.9676199999521,None,,,,,,,,,,,P005,fencog,1,Pre,2021_Jul_13_1058,Go No-Go Task,2021.1.4,119.91788025247551,
,"Rule: When you see a yellow image, do not press 'spacebar'.",Images/Fearful/BF05_FO.jpg,Fear,Blue,Images/Blue.jpg,space,ParentConditions/YellowBlueBlue_v1.xlsx,BlueBlueYellow,Conditions/Version_1/YellowHappyStop.xlsx,no,PASS,0.691917879610661,,,,,,,,,0,0,0,0,0,0,0,0,0,72,72,72,,,,,,,,,,,,,,,,,,,,,,,,,,,,,,,,,,,,,,,,,,,,,,,,,,,,,,,,,,,,,,,,,,,,,,,,,,,,,,,1.4,524.368010199978,None,space,1,0.28386429999955,525.867304299958,None,525.867304299958,None,525.867304299958,None,,,,,,,,,,,P005,fencog,1,Pre,2021_Jul_13_1058,Go No-Go Task,2021.1.4,119.91788025247551,
,"Rule: When you see a yellow image, do not press 'spacebar'.",Images/Fearful/AF22AFS.jpg,Fear,Blue,Images/Blue.jpg,space,ParentConditions/YellowBlueBlue_v1.xlsx,BlueBlueYellow,Conditions/Version_1/YellowHappyStop.xlsx,no,PASS,0.03529836358299465,,,,,,,,,0,0,0,0,0,0,0,0,0,73,73,73,,,,,,,,,,,,,,,,,,,,,,,,,,,,,,,,,,,,,,,,,,,,,,,,,,,,,,,,,,,,,,,,,,,,,,,,,,,,,,,1.45,526.2755876999581,None,space,1,0.31850609998218715,527.8332031999598,None,527.8332031999598,None,527.8332031999598,None,,,,,,,,,,,P005,fencog,1,Pre,2021_Jul_13_1058,Go No-Go Task,2021.1.4,119.91788025247551,
,"Rule: When you see a yellow image, do not press 'spacebar'.",Images/Happy/BF18_HO.jpg,Happy,Yellow,Images/Yellow.jpg,None,ParentConditions/YellowBlueBlue_v1.xlsx,BlueBlueYellow,Conditions/Version_1/YellowHappyStop.xlsx,yes,PASS,0.4232691792902379,,,,,,,,,0,0,0,0,0,0,0,0,0,74,74,74,,,,,,,,,,,,,,,,,,,,,,,,,,,,,,,,,,,,,,,,,,,,,,,,,,,,,,,,,,,,,,,,,,,,,,,,,,,,,,,1.94,528.2332921999623,None,None,1,,530.2741201999597,None,530.2741201999597,None,530.2741201999597,None,,,,,,,,,,,P005,fencog,1,Pre,2021_Jul_13_1058,Go No-Go Task,2021.1.4,119.91788025247551,
,"Rule: When you see a yellow image, do not press 'spacebar'.",Images/Fearful/WM12_FO.jpg,Fear,Blue,Images/Blue.jpg,space,ParentConditions/YellowBlueBlue_v1.xlsx,BlueBlueYellow,Conditions/Version_1/YellowHappyStop.xlsx,no,PASS,0.34671640176200413,,,,,,,,,0,0,0,0,0,0,0,0,0,75,75,75,,,,,,,,,,,,,,,,,,,,,,,,,,,,,,,,,,,,,,,,,,,,,,,,,,,,,,,,,,,,,,,,,,,,,,,,,,,,,,,1.56,530.6763585999724,None,space,1,0.2836042999988422,532.3402951999451,None,532.3402951999451,None,532.3402951999451,None,,,,,,,,,,,P005,fencog,1,Pre,2021_Jul_13_1058,Go No-Go Task,2021.1.4,119.91788025247551,
,"Rule: When you see a yellow image, do not press 'spacebar'.",Images/Fearful/BF07_FO.jpg,Fear,Blue,Images/Blue.jpg,space,ParentConditions/YellowBlueBlue_v1.xlsx,BlueBlueYellow,Conditions/Version_1/YellowHappyStop.xlsx,no,PASS,0.2992945798396267,,,,,,,,,0,0,0,0,0,0,0,0,0,76,76,76,,,,,,,,,,,,,,,,,,,,,,,,,,,,,,,,,,,,,,,,,,,,,,,,,,,,,,,,,,,,,,,,,,,,,,,,,,,,,,,1.53,532.7395270999987,None,space,1,0.2592663000104949,534.3729282999993,None,534.3729282999993,None,534.3729282999993,None,,,,,,,,,,,P005,fencog,1,Pre,2021_Jul_13_1058,Go No-Go Task,2021.1.4,119.91788025247551,
,"Rule: When you see a yellow image, do not press 'spacebar'.",Images/Fearful/HF10_FO.jpg,Fear,Blue,Images/Blue.jpg,space,ParentConditions/YellowBlueBlue_v1.xlsx,BlueBlueYellow,Conditions/Version_1/YellowHappyStop.xlsx,no,PASS,0.06506977473557796,,,,,,,,,0,0,0,0,0,0,0,0,0,77,77,77,,,,,,,,,,,,,,,,,,,,,,,,,,,,,,,,,,,,,,,,,,,,,,,,,,,,,,,,,,,,,,,,,,,,,,,,,,,,,,,1.21,534.7744062999845,None,space,1,0.263245000038296,536.0890853999881,None,536.0890853999881,None,536.0890853999881,None,,,,,,,,,,,P005,fencog,1,Pre,2021_Jul_13_1058,Go No-Go Task,2021.1.4,119.91788025247551,
,"Rule: When you see a yellow image, do not press 'spacebar'.",Images/Fearful/AM10AFS.jpg,Fear,Blue,Images/Blue.jpg,space,ParentConditions/YellowBlueBlue_v1.xlsx,BlueBlueYellow,Conditions/Version_1/YellowHappyStop.xlsx,no,PASS,0.4391085826227009,,,,,,,,,0,0,0,0,0,0,0,0,0,78,78,78,,,,,,,,,,,,,,,,,,,,,,,,,,,,,,,,,,,,,,,,,,,,,,,,,,,,,,,,,,,,,,,,,,,,,,,,,,,,,,,1.55,536.4919914999628,None,space,1,0.3009815000114031,538.1469194999663,None,538.1469194999663,None,538.1469194999663,None,,,,,,,,,,,P005,fencog,1,Pre,2021_Jul_13_1058,Go No-Go Task,2021.1.4,119.91788025247551,
,"Rule: When you see a yellow image, do not press 'spacebar'.",Images/Happy/AM23HAS.jpg,Happy,Yellow,Images/Yellow.jpg,None,ParentConditions/YellowBlueBlue_v1.xlsx,BlueBlueYellow,Conditions/Version_1/YellowHappyStop.xlsx,yes,PASS,0.8296456455429673,,,,,,,,,0,0,0,0,0,0,0,0,0,79,79,79,,,,,,,,,,,,,,,,,,,,,,,,,,,,,,,,,,,,,,,,,,,,,,,,,,,,,,,,,,,,,,,,,,,,,,,,,,,,,,,1.39,538.5492323999642,None,None,1,,540.0463255999493,None,540.0463255999493,None,540.0463255999493,None,,,,,,,,,,,P005,fencog,1,Pre,2021_Jul_13_1058,Go No-Go Task,2021.1.4,119.91788025247551,
,"Rule: When you see blue image, do not press 'spacebar'.",Images/Fearful/HM06_FC.jpg,Fear,Blue,Images/Blue.jpg,None,ParentConditions/YellowBlueBlue_v1.xlsx,BlueBlueYellow,Conditions/Version_1/BlueFearStop.xlsx,yes,PASS,0.7729813006314565,,,,,,,,,0,0,0,0,0,1,1,1,0,0,0,0,,,,,,,,,,,,,,,,,,,,,,,,,,,,,,,,,,,,,,,,,,,,,,,,,,,,,,,,,,,,,,,,,553.6766179999686,None,556.6658424999914,None,space,0.9650759999640286,556.6658424999914,None,553.6766179999686,None,553.6766179999686,None,553.6766179999686,None,1.25,557.6758292999584,None,None,1,,559.0323268999928,None,559.0323268999928,None,559.0323268999928,None,540.4597055999911,None,space,12.701531899976544,540.9537280999939,None,540.4597055999911,None,540.4597055999911,None,P005,fencog,1,Pre,2021_Jul_13_1058,Go No-Go Task,2021.1.4,119.91788025247551,
,"Rule: When you see blue image, do not press 'spacebar'.",Images/Happy/AF07HAS.jpg,Happy,Yellow,Images/Yellow.jpg,space,ParentConditions/YellowBlueBlue_v1.xlsx,BlueBlueYellow,Conditions/Version_1/BlueFearStop.xlsx,no,PASS,0.4924453653062516,,,,,,,,,0,0,0,0,0,1,1,1,0,1,1,1,,,,,,,,,,,,,,,,,,,,,,,,,,,,,,,,,,,,,,,,,,,,,,,,,,,,,,,,,,,,,,,,,,,,,,,,,,,,,,,1.49,559.4370193999493,None,space,1,0.3036691000452265,561.0316879999591,None,561.0316879999591,None,561.0316879999591,None,,,,,,,,,,,P005,fencog,1,Pre,2021_Jul_13_1058,Go No-Go Task,2021.1.4,119.91788025247551,
,"Rule: When you see blue image, do not press 'spacebar'.",Images/Happy/AF28HAS.jpg,Happy,Yellow,Images/Yellow.jpg,space,ParentConditions/YellowBlueBlue_v1.xlsx,BlueBlueYellow,Conditions/Version_1/BlueFearStop.xlsx,no,PASS,0.8943473655540664,,,,,,,,,0,0,0,0,0,1,1,1,0,2,2,2,,,,,,,,,,,,,,,,,,,,,,,,,,,,,,,,,,,,,,,,,,,,,,,,,,,,,,,,,,,,,,,,,,,,,,,,,,,,,,,1.48,561.4327830999973,None,space,1,0.24924509995616972,563.014490099973,None,563.014490099973,None,563.014490099973,None,,,,,,,,,,,P005,fencog,1,Pre,2021_Jul_13_1058,Go No-Go Task,2021.1.4,119.91788025247551,
,"Rule: When you see blue image, do not press 'spacebar'.",Images/Happy/AF22HAS.jpg,Happy,Yellow,Images/Yellow.jpg,space,ParentConditions/YellowBlueBlue_v1.xlsx,BlueBlueYellow,Conditions/Version_1/BlueFearStop.xlsx,no,PASS,0.5892765061873407,,,,,,,,,0,0,0,0,0,1,1,1,0,3,3,3,,,,,,,,,,,,,,,,,,,,,,,,,,,,,,,,,,,,,,,,,,,,,,,,,,,,,,,,,,,,,,,,,,,,,,,,,,,,,,,1.2,563.4196915999637,None,space,1,0.26927680004155263,564.7223362999503,None,564.7223362999503,None,564.7223362999503,None,,,,,,,,,,,P005,fencog,1,Pre,2021_Jul_13_1058,Go No-Go Task,2021.1.4,119.91788025247551,
,"Rule: When you see blue image, do not press 'spacebar'.",Images/Fearful/AF27AFS.jpg,Fear,Blue,Images/Blue.jpg,None,ParentConditions/YellowBlueBlue_v1.xlsx,BlueBlueYellow,Conditions/Version_1/BlueFearStop.xlsx,yes,PASS,0.41428581318896585,,,,,,,,,0,0,0,0,0,1,1,1,0,4,4,4,,,,,,,,,,,,,,,,,,,,,,,,,,,,,,,,,,,,,,,,,,,,,,,,,,,,,,,,,,,,,,,,,,,,,,,,,,,,,,,1.41,565.1221978999674,None,None,1,,566.6384195999708,None,566.6384195999708,None,566.6384195999708,None,,,,,,,,,,,P005,fencog,1,Pre,2021_Jul_13_1058,Go No-Go Task,2021.1.4,119.91788025247551,
,"Rule: When you see blue image, do not press 'spacebar'.",Images/Happy/AM24HAS.jpg,Happy,Yellow,Images/Yellow.jpg,space,ParentConditions/YellowBlueBlue_v1.xlsx,BlueBlueYellow,Conditions/Version_1/BlueFearStop.xlsx,no,PASS,0.8126867400025187,,,,,,,,,0,0,0,0,0,1,1,1,0,5,5,5,,,,,,,,,,,,,,,,,,,,,,,,,,,,,,,,,,,,,,,,,,,,,,,,,,,,,,,,,,,,,,,,,,,,,,,,,,,,,,,1.45,567.0387837999733,None,space,1,0.26785689999815077,568.5960909999558,None,568.5960909999558,None,568.5960909999558,None,,,,,,,,,,,P005,fencog,1,Pre,2021_Jul_13_1058,Go No-Go Task,2021.1.4,119.91788025247551,
,"Rule: When you see blue image, do not press 'spacebar'.",Images/Fearful/AF26AFS.jpg,Fear,Blue,Images/Blue.jpg,None,ParentConditions/YellowBlueBlue_v1.xlsx,BlueBlueYellow,Conditions/Version_1/BlueFearStop.xlsx,yes,PASS,0.7771539142714355,,,,,,,,,0,0,0,0,0,1,1,1,0,6,6,6,,,,,,,,,,,,,,,,,,,,,,,,,,,,,,,,,,,,,,,,,,,,,,,,,,,,,,,,,,,,,,,,,,,,,,,,,,,,,,,1.33,568.9965704999631,None,None,1,,570.4289518999867,None,570.4289518999867,None,570.4289518999867,None,,,,,,,,,,,P005,fencog,1,Pre,2021_Jul_13_1058,Go No-Go Task,2021.1.4,119.91788025247551,
,"Rule: When you see blue image, do not press 'spacebar'.",Images/Happy/WM11_HC.jpg,Happy,Yellow,Images/Yellow.jpg,space,ParentConditions/YellowBlueBlue_v1.xlsx,BlueBlueYellow,Conditions/Version_1/BlueFearStop.xlsx,no,PASS,0.612727142386838,,,,,,,,,0,0,0,0,0,1,1,1,0,7,7,7,,,,,,,,,,,,,,,,,,,,,,,,,,,,,,,,,,,,,,,,,,,,,,,,,,,,,,,,,,,,,,,,,,,,,,,,,,,,,,,1.51,570.8290584999486,None,space,1,0.2509710000013001,572.4450248999638,None,572.4450248999638,None,572.4450248999638,None,,,,,,,,,,,P005,fencog,1,Pre,2021_Jul_13_1058,Go No-Go Task,2021.1.4,119.91788025247551,
,"Rule: When you see blue image, do not press 'spacebar'.",Images/Happy/BM03_HO.jpg,Happy,Yellow,Images/Yellow.jpg,space,ParentConditions/YellowBlueBlue_v1.xlsx,BlueBlueYellow,Conditions/Version_1/BlueFearStop.xlsx,no,PASS,0.7313165030586903,,,,,,,,,0,0,0,0,0,1,1,1,0,8,8,8,,,,,,,,,,,,,,,,,,,,,,,,,,,,,,,,,,,,,,,,,,,,,,,,,,,,,,,,,,,,,,,,,,,,,,,,,,,,,,,1.5,572.8443429999752,None,space,1,0.2584443000378087,574.4444612999796,None,574.4444612999796,None,574.4444612999796,None,,,,,,,,,,,P005,fencog,1,Pre,2021_Jul_13_1058,Go No-Go Task,2021.1.4,119.91788025247551,
,"Rule: When you see blue image, do not press 'spacebar'.",Images/Happy/BF18_HO.jpg,Happy,Yellow,Images/Yellow.jpg,space,ParentConditions/YellowBlueBlue_v1.xlsx,BlueBlueYellow,Conditions/Version_1/BlueFearStop.xlsx,no,PASS,0.5715935528670182,,,,,,,,,0,0,0,0,0,1,1,1,0,9,9,9,,,,,,,,,,,,,,,,,,,,,,,,,,,,,,,,,,,,,,,,,,,,,,,,,,,,,,,,,,,,,,,,,,,,,,,,,,,,,,,1.85,574.843674499949,None,space,1,0.245667900016997,576.7937188999495,None,576.7937188999495,None,576.7937188999495,None,,,,,,,,,,,P005,fencog,1,Pre,2021_Jul_13_1058,Go No-Go Task,2021.1.4,119.91788025247551,
,"Rule: When you see blue image, do not press 'spacebar'.",Images/Happy/AM10HAS.jpg,Happy,Yellow,Images/Yellow.jpg,space,ParentConditions/YellowBlueBlue_v1.xlsx,BlueBlueYellow,Conditions/Version_1/BlueFearStop.xlsx,no,PASS,0.4742386996589605,,,,,,,,,0,0,0,0,0,1,1,1,0,10,10,10,,,,,,,,,,,,,,,,,,,,,,,,,,,,,,,,,,,,,,,,,,,,,,,,,,,,,,,,,,,,,,,,,,,,,,,,,,,,,,,1.97,577.1927868999774,None,space,1,0.2591635000426322,579.2679937999928,None,579.2679937999928,None,579.2679937999928,None,,,,,,,,,,,P005,fencog,1,Pre,2021_Jul_13_1058,Go No-Go Task,2021.1.4,119.91788025247551,
,"Rule: When you see blue image, do not press 'spacebar'.",Images/Happy/AM09HAS.jpg,Happy,Yellow,Images/Yellow.jpg,space,ParentConditions/YellowBlueBlue_v1.xlsx,BlueBlueYellow,Conditions/Version_1/BlueFearStop.xlsx,no,PASS,0.5791375189576048,,,,,,,,,0,0,0,0,0,1,1,1,0,11,11,11,,,,,,,,,,,,,,,,,,,,,,,,,,,,,,,,,,,,,,,,,,,,,,,,,,,,,,,,,,,,,,,,,,,,,,,,,,,,,,,1.32,579.6704339999706,None,space,1,0.24264599999878556,581.0924692999688,None,581.0924692999688,None,581.0924692999688,None,,,,,,,,,,,P005,fencog,1,Pre,2021_Jul_13_1058,Go No-Go Task,2021.1.4,119.91788025247551,
,"Rule: When you see blue image, do not press 'spacebar'.",Images/Happy/AM16HAS.jpg,Happy,Yellow,Images/Yellow.jpg,space,ParentConditions/YellowBlueBlue_v1.xlsx,BlueBlueYellow,Conditions/Version_1/BlueFearStop.xlsx,no,PASS,0.06851146054747248,,,,,,,,,0,0,0,0,0,1,1,1,0,12,12,12,,,,,,,,,,,,,,,,,,,,,,,,,,,,,,,,,,,,,,,,,,,,,,,,,,,,,,,,,,,,,,,,,,,,,,,,,,,,,,,1.21,581.4928171999636,None,space,1,0.254786100005731,582.8085712000029,None,582.8085712000029,None,582.8085712000029,None,,,,,,,,,,,P005,fencog,1,Pre,2021_Jul_13_1058,Go No-Go Task,2021.1.4,119.91788025247551,
,"Rule: When you see blue image, do not press 'spacebar'.",Images/Happy/AF10_HE.jpg,Happy,Yellow,Images/Yellow.jpg,space,ParentConditions/YellowBlueBlue_v1.xlsx,BlueBlueYellow,Conditions/Version_1/BlueFearStop.xlsx,no,PASS,0.21267371658214962,,,,,,,,,0,0,0,0,0,1,1,1,0,13,13,13,,,,,,,,,,,,,,,,,,,,,,,,,,,,,,,,,,,,,,,,,,,,,,,,,,,,,,,,,,,,,,,,,,,,,,,,,,,,,,,1.53,583.2078802999458,None,space,1,0.24539210001239553,584.84135839995,None,584.84135839995,None,584.84135839995,None,,,,,,,,,,,P005,fencog,1,Pre,2021_Jul_13_1058,Go No-Go Task,2021.1.4,119.91788025247551,
,"Rule: When you see blue image, do not press 'spacebar'.",Images/Happy/AF27HAS.jpg,Happy,Yellow,Images/Yellow.jpg,space,ParentConditions/YellowBlueBlue_v1.xlsx,BlueBlueYellow,Conditions/Version_1/BlueFearStop.xlsx,no,PASS,0.8109673156723475,,,,,,,,,0,0,0,0,0,1,1,1,0,14,14,14,,,,,,,,,,,,,,,,,,,,,,,,,,,,,,,,,,,,,,,,,,,,,,,,,,,,,,,,,,,,,,,,,,,,,,,,,,,,,,,1.91,585.2505933999782,None,space,1,0.2539882999844849,587.2572941999533,None,587.2572941999533,None,587.2572941999533,None,,,,,,,,,,,P005,fencog,1,Pre,2021_Jul_13_1058,Go No-Go Task,2021.1.4,119.91788025247551,
,"Rule: When you see blue image, do not press 'spacebar'.",Images/Happy/BF10_HO.jpg,Happy,Yellow,Images/Yellow.jpg,space,ParentConditions/YellowBlueBlue_v1.xlsx,BlueBlueYellow,Conditions/Version_1/BlueFearStop.xlsx,no,PASS,0.35707259862702334,,,,,,,,,0,0,0,0,0,1,1,1,0,15,15,15,,,,,,,,,,,,,,,,,,,,,,,,,,,,,,,,,,,,,,,,,,,,,,,,,,,,,,,,,,,,,,,,,,,,,,,,,,,,,,,1.59,587.6629806999699,None,space,1,0.2506436999537982,589.3567386999493,None,589.3567386999493,None,589.3567386999493,None,,,,,,,,,,,P005,fencog,1,Pre,2021_Jul_13_1058,Go No-Go Task,2021.1.4,119.91788025247551,
,"Rule: When you see blue image, do not press 'spacebar'.",Images/Happy/BF14_HO.jpg,Happy,Yellow,Images/Yellow.jpg,space,ParentConditions/YellowBlueBlue_v1.xlsx,BlueBlueYellow,Conditions/Version_1/BlueFearStop.xlsx,no,PASS,0.41712793219483124,,,,,,,,,0,0,0,0,0,1,1,1,0,16,16,16,,,,,,,,,,,,,,,,,,,,,,,,,,,,,,,,,,,,,,,,,,,,,,,,,,,,,,,,,,,,,,,,,,,,,,,,,,,,,,,1.35,589.7575581999845,None,space,1,0.24864040000829846,591.2144559999579,None,591.2144559999579,None,591.2144559999579,None,,,,,,,,,,,P005,fencog,1,Pre,2021_Jul_13_1058,Go No-Go Task,2021.1.4,119.91788025247551,
,"Rule: When you see blue image, do not press 'spacebar'.",Images/Fearful/BM08_FC.jpg,Fear,Blue,Images/Blue.jpg,None,ParentConditions/YellowBlueBlue_v1.xlsx,BlueBlueYellow,Conditions/Version_1/BlueFearStop.xlsx,yes,PASS,0.2777606849347436,,,,,,,,,0,0,0,0,0,1,1,1,0,17,17,17,,,,,,,,,,,,,,,,,,,,,,,,,,,,,,,,,,,,,,,,,,,,,,,,,,,,,,,,,,,,,,,,,,,,,,,,,,,,,,,1.99,591.614273299987,None,None,1,,593.7054610999767,None,593.7054610999767,None,593.7054610999767,None,,,,,,,,,,,P005,fencog,1,Pre,2021_Jul_13_1058,Go No-Go Task,2021.1.4,119.91788025247551,
,"Rule: When you see blue image, do not press 'spacebar'.",Images/Happy/AM01HAS.jpg,Happy,Yellow,Images/Yellow.jpg,space,ParentConditions/YellowBlueBlue_v1.xlsx,BlueBlueYellow,Conditions/Version_1/BlueFearStop.xlsx,no,PASS,0.43160138117116176,,,,,,,,,0,0,0,0,0,1,1,1,0,18,18,18,,,,,,,,,,,,,,,,,,,,,,,,,,,,,,,,,,,,,,,,,,,,,,,,,,,,,,,,,,,,,,,,,,,,,,,,,,,,,,,1.93,594.1102149999933,None,space,1,0.27782710001338273,596.1380120999529,None,596.1380120999529,None,596.1380120999529,None,,,,,,,,,,,P005,fencog,1,Pre,2021_Jul_13_1058,Go No-Go Task,2021.1.4,119.91788025247551,
,"Rule: When you see blue image, do not press 'spacebar'.",Images/Happy/AF11HAS.jpg,Happy,Yellow,Images/Yellow.jpg,space,ParentConditions/YellowBlueBlue_v1.xlsx,BlueBlueYellow,Conditions/Version_1/BlueFearStop.xlsx,no,PASS,0.9696898199968184,,,,,,,,,0,0,0,0,0,1,1,1,0,19,19,19,,,,,,,,,,,,,,,,,,,,,,,,,,,,,,,,,,,,,,,,,,,,,,,,,,,,,,,,,,,,,,,,,,,,,,,,,,,,,,,1.68,596.5476353999693,None,space,1,0.2624610000057146,598.3207316999906,None,598.3207316999906,None,598.3207316999906,None,,,,,,,,,,,P005,fencog,1,Pre,2021_Jul_13_1058,Go No-Go Task,2021.1.4,119.91788025247551,
,"Rule: When you see blue image, do not press 'spacebar'.",Images/Happy/BM01_HO.jpg,Happy,Yellow,Images/Yellow.jpg,space,ParentConditions/YellowBlueBlue_v1.xlsx,BlueBlueYellow,Conditions/Version_1/BlueFearStop.xlsx,no,PASS,0.40182091251260654,,,,,,,,,0,0,0,0,0,1,1,1,0,20,20,20,,,,,,,,,,,,,,,,,,,,,,,,,,,,,,,,,,,,,,,,,,,,,,,,,,,,,,,,,,,,,,,,,,,,,,,,,,,,,,,1.43,598.7211137999548,None,space,1,0.24981820001266897,600.2534537999891,None,600.2534537999891,None,600.2534537999891,None,,,,,,,,,,,P005,fencog,1,Pre,2021_Jul_13_1058,Go No-Go Task,2021.1.4,119.91788025247551,
,"Rule: When you see blue image, do not press 'spacebar'.",Images/Happy/AF07_HO.jpg,Happy,Yellow,Images/Yellow.jpg,space,ParentConditions/YellowBlueBlue_v1.xlsx,BlueBlueYellow,Conditions/Version_1/BlueFearStop.xlsx,no,PASS,0.304860645067783,,,,,,,,,0,0,0,0,0,1,1,1,0,21,21,21,,,,,,,,,,,,,,,,,,,,,,,,,,,,,,,,,,,,,,,,,,,,,,,,,,,,,,,,,,,,,,,,,,,,,,,,,,,,,,,1.92,600.6538610999705,None,space,1,0.28176079998956993,602.6694710999727,None,602.6694710999727,None,602.6694710999727,None,,,,,,,,,,,P005,fencog,1,Pre,2021_Jul_13_1058,Go No-Go Task,2021.1.4,119.91788025247551,
,"Rule: When you see blue image, do not press 'spacebar'.",Images/Happy/HM06_HO.jpg,Happy,Yellow,Images/Yellow.jpg,space,ParentConditions/YellowBlueBlue_v1.xlsx,BlueBlueYellow,Conditions/Version_1/BlueFearStop.xlsx,no,PASS,0.3928744637511502,,,,,,,,,0,0,0,0,0,1,1,1,0,22,22,22,,,,,,,,,,,,,,,,,,,,,,,,,,,,,,,,,,,,,,,,,,,,,,,,,,,,,,,,,,,,,,,,,,,,,,,,,,,,,,,1.47,603.075730099983,None,space,1,0.2673519999952987,604.6521966999862,None,604.6521966999862,None,604.6521966999862,None,,,,,,,,,,,P005,fencog,1,Pre,2021_Jul_13_1058,Go No-Go Task,2021.1.4,119.91788025247551,
,"Rule: When you see blue image, do not press 'spacebar'.",Images/Fearful/AM09_FO.jpg,Fear,Blue,Images/Blue.jpg,None,ParentConditions/YellowBlueBlue_v1.xlsx,BlueBlueYellow,Conditions/Version_1/BlueFearStop.xlsx,yes,PASS,0.17130222782280535,,,,,,,,,0,0,0,0,0,1,1,1,0,23,23,23,,,,,,,,,,,,,,,,,,,,,,,,,,,,,,,,,,,,,,,,,,,,,,,,,,,,,,,,,,,,,,,,,,,,,,,,,,,,,,,1.57,605.0526563999592,None,None,1,,606.7266373999882,None,606.7266373999882,None,606.7266373999882,None,,,,,,,,,,,P005,fencog,1,Pre,2021_Jul_13_1058,Go No-Go Task,2021.1.4,119.91788025247551,
,"Rule: When you see blue image, do not press 'spacebar'.",Images/Happy/AF09HAS.jpg,Happy,Yellow,Images/Yellow.jpg,space,ParentConditions/YellowBlueBlue_v1.xlsx,BlueBlueYellow,Conditions/Version_1/BlueFearStop.xlsx,no,PASS,0.32050850835393896,,,,,,,,,0,0,0,0,0,1,1,1,0,24,24,24,,,,,,,,,,,,,,,,,,,,,,,,,,,,,,,,,,,,,,,,,,,,,,,,,,,,,,,,,,,,,,,,,,,,,,,,,,,,,,,1.82,607.1332125999616,None,space,1,0.2915864000096917,609.0592224999564,None,609.0592224999564,None,609.0592224999564,None,,,,,,,,,,,P005,fencog,1,Pre,2021_Jul_13_1058,Go No-Go Task,2021.1.4,119.91788025247551,
,"Rule: When you see blue image, do not press 'spacebar'.",Images/Happy/AM04HAS.jpg,Happy,Yellow,Images/Yellow.jpg,space,ParentConditions/YellowBlueBlue_v1.xlsx,BlueBlueYellow,Conditions/Version_1/BlueFearStop.xlsx,no,PASS,0.17004201555218557,,,,,,,,,0,0,0,0,0,1,1,1,0,25,25,25,,,,,,,,,,,,,,,,,,,,,,,,,,,,,,,,,,,,,,,,,,,,,,,,,,,,,,,,,,,,,,,,,,,,,,,,,,,,,,,1.84,609.4593708999455,None,space,1,0.2711667999974452,611.4001664999523,None,611.4001664999523,None,611.4001664999523,None,,,,,,,,,,,P005,fencog,1,Pre,2021_Jul_13_1058,Go No-Go Task,2021.1.4,119.91788025247551,
,"Rule: When you see blue image, do not press 'spacebar'.",Images/Happy/BF07_HO.jpg,Happy,Yellow,Images/Yellow.jpg,space,ParentConditions/YellowBlueBlue_v1.xlsx,BlueBlueYellow,Conditions/Version_1/BlueFearStop.xlsx,no,PASS,0.9775255982448644,,,,,,,,,0,0,0,0,0,1,1,1,0,26,26,26,,,,,,,,,,,,,,,,,,,,,,,,,,,,,,,,,,,,,,,,,,,,,,,,,,,,,,,,,,,,,,,,,,,,,,,,,,,,,,,1.67,611.8066558999708,None,space,1,0.32835359999444336,613.5829467999865,None,613.5829467999865,None,613.5829467999865,None,,,,,,,,,,,P005,fencog,1,Pre,2021_Jul_13_1058,Go No-Go Task,2021.1.4,119.91788025247551,
,"Rule: When you see blue image, do not press 'spacebar'.",Images/Happy/AF02HAS.jpg,Happy,Yellow,Images/Yellow.jpg,space,ParentConditions/YellowBlueBlue_v1.xlsx,BlueBlueYellow,Conditions/Version_1/BlueFearStop.xlsx,no,PASS,0.9926707513295598,,,,,,,,,0,0,0,0,0,1,1,1,0,27,27,27,,,,,,,,,,,,,,,,,,,,,,,,,,,,,,,,,,,,,,,,,,,,,,,,,,,,,,,,,,,,,,,,,,,,,,,,,,,,,,,1.94,613.9839046999696,None,space,1,0.2875295999692753,616.0238345999969,None,616.0238345999969,None,616.0238345999969,None,,,,,,,,,,,P005,fencog,1,Pre,2021_Jul_13_1058,Go No-Go Task,2021.1.4,119.91788025247551,
,"Rule: When you see blue image, do not press 'spacebar'.",Images/Happy/AM30HAS.jpg,Happy,Yellow,Images/Yellow.jpg,space,ParentConditions/YellowBlueBlue_v1.xlsx,BlueBlueYellow,Conditions/Version_1/BlueFearStop.xlsx,no,PASS,0.6844901636445411,,,,,,,,,0,0,0,0,0,1,1,1,0,28,28,28,,,,,,,,,,,,,,,,,,,,,,,,,,,,,,,,,,,,,,,,,,,,,,,,,,,,,,,,,,,,,,,,,,,,,,,,,,,,,,,1.83,616.4230703999638,None,space,1,0.29059530002996325,618.3565436999779,None,618.3565436999779,None,618.3565436999779,None,,,,,,,,,,,P005,fencog,1,Pre,2021_Jul_13_1058,Go No-Go Task,2021.1.4,119.91788025247551,
,"Rule: When you see blue image, do not press 'spacebar'.",Images/Happy/BF05_HO.jpg,Happy,Yellow,Images/Yellow.jpg,space,ParentConditions/YellowBlueBlue_v1.xlsx,BlueBlueYellow,Conditions/Version_1/BlueFearStop.xlsx,no,PASS,0.010815687417666808,,,,,,,,,0,0,0,0,0,1,1,1,0,29,29,29,,,,,,,,,,,,,,,,,,,,,,,,,,,,,,,,,,,,,,,,,,,,,,,,,,,,,,,,,,,,,,,,,,,,,,,,,,,,,,,1.54,618.7562345999759,None,space,1,0.2814677000278607,620.397495799989,None,620.397495799989,None,620.397495799989,None,,,,,,,,,,,P005,fencog,1,Pre,2021_Jul_13_1058,Go No-Go Task,2021.1.4,119.91788025247551,
,"Rule: When you see blue image, do not press 'spacebar'.",Images/Fearful/AF25AFS.jpg,Fear,Blue,Images/Blue.jpg,None,ParentConditions/YellowBlueBlue_v1.xlsx,BlueBlueYellow,Conditions/Version_1/BlueFearStop.xlsx,yes,PASS,0.35816317389786545,,,,,,,,,0,0,0,0,0,1,1,1,0,30,30,30,,,,,,,,,,,,,,,,,,,,,,,,,,,,,,,,,,,,,,,,,,,,,,,,,,,,,,,,,,,,,,,,,,,,,,,,,,,,,,,1.76,620.8047841999796,None,None,1,,622.6718337999773,None,622.6718337999773,None,622.6718337999773,None,,,,,,,,,,,P005,fencog,1,Pre,2021_Jul_13_1058,Go No-Go Task,2021.1.4,119.91788025247551,
,"Rule: When you see blue image, do not press 'spacebar'.",Images/Happy/BF09_HO.jpg,Happy,Yellow,Images/Yellow.jpg,space,ParentConditions/YellowBlueBlue_v1.xlsx,BlueBlueYellow,Conditions/Version_1/BlueFearStop.xlsx,no,PASS,0.3783419276063734,,,,,,,,,0,0,0,0,0,1,1,1,0,31,31,31,,,,,,,,,,,,,,,,,,,,,,,,,,,,,,,,,,,,,,,,,,,,,,,,,,,,,,,,,,,,,,,,,,,,,,,,,,,,,,,1.34,623.072311899974,None,space,1,0.2702887000050396,624.5129464999773,None,624.5129464999773,None,624.5129464999773,None,,,,,,,,,,,P005,fencog,1,Pre,2021_Jul_13_1058,Go No-Go Task,2021.1.4,119.91788025247551,
,"Rule: When you see blue image, do not press 'spacebar'.",Images/Happy/AM09_HE.jpg,Happy,Yellow,Images/Yellow.jpg,space,ParentConditions/YellowBlueBlue_v1.xlsx,BlueBlueYellow,Conditions/Version_1/BlueFearStop.xlsx,no,PASS,0.21016465424314756,,,,,,,,,0,0,0,0,0,1,1,1,0,32,32,32,,,,,,,,,,,,,,,,,,,,,,,,,,,,,,,,,,,,,,,,,,,,,,,,,,,,,,,,,,,,,,,,,,,,,,,,,,,,,,,1.7,624.9176142999786,None,space,1,0.26258929999312386,626.7207017999608,None,626.7207017999608,None,626.7207017999608,None,,,,,,,,,,,P005,fencog,1,Pre,2021_Jul_13_1058,Go No-Go Task,2021.1.4,119.91788025247551,
,"Rule: When you see blue image, do not press 'spacebar'.",Images/Fearful/BF14_FO.jpg,Fear,Blue,Images/Blue.jpg,None,ParentConditions/YellowBlueBlue_v1.xlsx,BlueBlueYellow,Conditions/Version_1/BlueFearStop.xlsx,yes,PASS,0.9618360969741386,,,,,,,,,0,0,0,0,0,1,1,1,0,33,33,33,,,,,,,,,,,,,,,,,,,,,,,,,,,,,,,,,,,,,,,,,,,,,,,,,,,,,,,,,,,,,,,,,,,,,,,,,,,,,,,1.28,627.1215280999895,None,space,0,0.2398174999980256,628.5034746999736,None,628.5034746999736,None,628.5034746999736,None,,,,,,,,,,,P005,fencog,1,Pre,2021_Jul_13_1058,Go No-Go Task,2021.1.4,119.91788025247551,
,"Rule: When you see blue image, do not press 'spacebar'.",Images/Fearful/HF05_FC.jpg,Fear,Blue,Images/Blue.jpg,None,ParentConditions/YellowBlueBlue_v1.xlsx,BlueBlueYellow,Conditions/Version_1/BlueFearStop.xlsx,yes,PASS,0.005236598035567086,,,,,,,,,0,0,0,0,0,1,1,1,0,34,34,34,,,,,,,,,,,,,,,,,,,,,,,,,,,,,,,,,,,,,,,,,,,,,,,,,,,,,,,,,,,,,,,,,,,,,,,,,,,,,,,1.63,628.9040462999837,None,None,1,,630.6361152000027,None,630.6361152000027,None,630.6361152000027,None,,,,,,,,,,,P005,fencog,1,Pre,2021_Jul_13_1058,Go No-Go Task,2021.1.4,119.91788025247551,
,"Rule: When you see blue image, do not press 'spacebar'.",Images/Happy/AM23HAS.jpg,Happy,Yellow,Images/Yellow.jpg,space,ParentConditions/YellowBlueBlue_v1.xlsx,BlueBlueYellow,Conditions/Version_1/BlueFearStop.xlsx,no,PASS,0.13077339503157293,,,,,,,,,0,0,0,0,0,1,1,1,0,35,35,35,,,,,,,,,,,,,,,,,,,,,,,,,,,,,,,,,,,,,,,,,,,,,,,,,,,,,,,,,,,,,,,,,,,,,,,,,,,,,,,1.75,631.0366408999544,None,space,1,0.321656999993138,632.8939079999691,None,632.8939079999691,None,632.8939079999691,None,,,,,,,,,,,P005,fencog,1,Pre,2021_Jul_13_1058,Go No-Go Task,2021.1.4,119.91788025247551,
,"Rule: When you see blue image, do not press 'spacebar'.",Images/Happy/AM03_HO.jpg,Happy,Yellow,Images/Yellow.jpg,space,ParentConditions/YellowBlueBlue_v1.xlsx,BlueBlueYellow,Conditions/Version_1/BlueFearStop.xlsx,no,PASS,0.29520703840296547,,,,,,,,,0,0,0,0,0,1,1,1,0,36,36,36,,,,,,,,,,,,,,,,,,,,,,,,,,,,,,,,,,,,,,,,,,,,,,,,,,,,,,,,,,,,,,,,,,,,,,,,,,,,,,,1.24,633.2932235999615,None,space,1,0.3481450999970548,634.6349632999627,None,634.6349632999627,None,634.6349632999627,None,,,,,,,,,,,P005,fencog,1,Pre,2021_Jul_13_1058,Go No-Go Task,2021.1.4,119.91788025247551,
,"Rule: When you see blue image, do not press 'spacebar'.",Images/Happy/AF25HAS.jpg,Happy,Yellow,Images/Yellow.jpg,space,ParentConditions/YellowBlueBlue_v1.xlsx,BlueBlueYellow,Conditions/Version_1/BlueFearStop.xlsx,no,PASS,0.3205802973983102,,,,,,,,,0,0,0,0,0,1,1,1,0,37,37,37,,,,,,,,,,,,,,,,,,,,,,,,,,,,,,,,,,,,,,,,,,,,,,,,,,,,,,,,,,,,,,,,,,,,,,,,,,,,,,,1.62,635.0337248999858,None,space,1,0.2800308999721892,636.7593711999943,None,636.7593711999943,None,636.7593711999943,None,,,,,,,,,,,P005,fencog,1,Pre,2021_Jul_13_1058,Go No-Go Task,2021.1.4,119.91788025247551,
,"Rule: When you see blue image, do not press 'spacebar'.",Images/Happy/BM08_HO.jpg,Happy,Yellow,Images/Yellow.jpg,space,ParentConditions/YellowBlueBlue_v1.xlsx,BlueBlueYellow,Conditions/Version_1/BlueFearStop.xlsx,no,PASS,0.9250231228335681,,,,,,,,,0,0,0,0,0,1,1,1,0,38,38,38,,,,,,,,,,,,,,,,,,,,,,,,,,,,,,,,,,,,,,,,,,,,,,,,,,,,,,,,,,,,,,,,,,,,,,,,,,,,,,,1.44,637.1586818999494,None,space,1,0.25948670000070706,638.7004497000016,None,638.7004497000016,None,638.7004497000016,None,,,,,,,,,,,P005,fencog,1,Pre,2021_Jul_13_1058,Go No-Go Task,2021.1.4,119.91788025247551,
,"Rule: When you see blue image, do not press 'spacebar'.",Images/Happy/AF32HAS.jpg,Happy,Yellow,Images/Yellow.jpg,space,ParentConditions/YellowBlueBlue_v1.xlsx,BlueBlueYellow,Conditions/Version_1/BlueFearStop.xlsx,no,PASS,0.73804934699979,,,,,,,,,0,0,0,0,0,1,1,1,0,39,39,39,,,,,,,,,,,,,,,,,,,,,,,,,,,,,,,,,,,,,,,,,,,,,,,,,,,,,,,,,,,,,,,,,,,,,,,,,,,,,,,1.86,639.1018025999656,None,space,1,0.284766299999319,641.0663994999486,None,641.0663994999486,None,641.0663994999486,None,,,,,,,,,,,P005,fencog,1,Pre,2021_Jul_13_1058,Go No-Go Task,2021.1.4,119.91788025247551,
,"Rule: When you see blue image, do not press 'spacebar'.",Images/Happy/AF23HAS.jpg,Happy,Yellow,Images/Yellow.jpg,space,ParentConditions/YellowBlueBlue_v1.xlsx,BlueBlueYellow,Conditions/Version_1/BlueFearStop.xlsx,no,PASS,0.9000246195519893,,,,,,,,,0,0,0,0,0,1,1,1,0,40,40,40,,,,,,,,,,,,,,,,,,,,,,,,,,,,,,,,,,,,,,,,,,,,,,,,,,,,,,,,,,,,,,,,,,,,,,,,,,,,,,,1.46,641.4666329999454,None,space,1,0.27935329999309033,643.0325421000016,None,643.0325421000016,None,643.0325421000016,None,,,,,,,,,,,P005,fencog,1,Pre,2021_Jul_13_1058,Go No-Go Task,2021.1.4,119.91788025247551,
,"Rule: When you see blue image, do not press 'spacebar'.",Images/Happy/AM32HAS.jpg,Happy,Yellow,Images/Yellow.jpg,space,ParentConditions/YellowBlueBlue_v1.xlsx,BlueBlueYellow,Conditions/Version_1/BlueFearStop.xlsx,no,PASS,0.738989629625258,,,,,,,,,0,0,0,0,0,1,1,1,0,41,41,41,,,,,,,,,,,,,,,,,,,,,,,,,,,,,,,,,,,,,,,,,,,,,,,,,,,,,,,,,,,,,,,,,,,,,,,,,,,,,,,1.96,643.4384294999763,None,space,1,0.27655479998793453,645.4984306999831,None,645.4984306999831,None,645.4984306999831,None,,,,,,,,,,,P005,fencog,1,Pre,2021_Jul_13_1058,Go No-Go Task,2021.1.4,119.91788025247551,
,"Rule: When you see blue image, do not press 'spacebar'.",Images/Fearful/AM30AFS.jpg,Fear,Blue,Images/Blue.jpg,None,ParentConditions/YellowBlueBlue_v1.xlsx,BlueBlueYellow,Conditions/Version_1/BlueFearStop.xlsx,yes,PASS,0.33529906039128465,,,,,,,,,0,0,0,0,0,1,1,1,0,42,42,42,,,,,,,,,,,,,,,,,,,,,,,,,,,,,,,,,,,,,,,,,,,,,,,,,,,,,,,,,,,,,,,,,,,,,,,,,,,,,,,1.29,645.9023328999756,None,None,1,,647.297935199982,None,647.297935199982,None,647.297935199982,None,,,,,,,,,,,P005,fencog,1,Pre,2021_Jul_13_1058,Go No-Go Task,2021.1.4,119.91788025247551,
,"Rule: When you see blue image, do not press 'spacebar'.",Images/Happy/BM02_HO.jpg,Happy,Yellow,Images/Yellow.jpg,space,ParentConditions/YellowBlueBlue_v1.xlsx,BlueBlueYellow,Conditions/Version_1/BlueFearStop.xlsx,no,PASS,0.711648218321579,,,,,,,,,0,0,0,0,0,1,1,1,0,43,43,43,,,,,,,,,,,,,,,,,,,,,,,,,,,,,,,,,,,,,,,,,,,,,,,,,,,,,,,,,,,,,,,,,,,,,,,,,,,,,,,2,647.7033570999629,None,space,1,0.3056065000128001,649.8055928999675,None,649.8055928999675,None,649.8055928999675,None,,,,,,,,,,,P005,fencog,1,Pre,2021_Jul_13_1058,Go No-Go Task,2021.1.4,119.91788025247551,
,"Rule: When you see blue image, do not press 'spacebar'.",Images/Happy/AM10_HO.jpg,Happy,Yellow,Images/Yellow.jpg,space,ParentConditions/YellowBlueBlue_v1.xlsx,BlueBlueYellow,Conditions/Version_1/BlueFearStop.xlsx,no,PASS,0.7811025651589869,,,,,,,,,0,0,0,0,0,1,1,1,0,44,44,44,,,,,,,,,,,,,,,,,,,,,,,,,,,,,,,,,,,,,,,,,,,,,,,,,,,,,,,,,,,,,,,,,,,,,,,,,,,,,,,1.65,650.2050417999853,None,space,1,0.29279529995983467,651.9548846999533,None,651.9548846999533,None,651.9548846999533,None,,,,,,,,,,,P005,fencog,1,Pre,2021_Jul_13_1058,Go No-Go Task,2021.1.4,119.91788025247551,
,"Rule: When you see blue image, do not press 'spacebar'.",Images/Fearful/AM10_FO.jpg,Fear,Blue,Images/Blue.jpg,None,ParentConditions/YellowBlueBlue_v1.xlsx,BlueBlueYellow,Conditions/Version_1/BlueFearStop.xlsx,yes,PASS,0.14747063444404174,,,,,,,,,0,0,0,0,0,1,1,1,0,45,45,45,,,,,,,,,,,,,,,,,,,,,,,,,,,,,,,,,,,,,,,,,,,,,,,,,,,,,,,,,,,,,,,,,,,,,,,,,,,,,,,1.74,652.3552704000031,None,None,1,,654.1958996999892,None,654.1958996999892,None,654.1958996999892,None,,,,,,,,,,,P005,fencog,1,Pre,2021_Jul_13_1058,Go No-Go Task,2021.1.4,119.91788025247551,
,"Rule: When you see blue image, do not press 'spacebar'.",Images/Happy/AF19HAS.jpg,Happy,Yellow,Images/Yellow.jpg,space,ParentConditions/YellowBlueBlue_v1.xlsx,BlueBlueYellow,Conditions/Version_1/BlueFearStop.xlsx,no,PASS,0.5734484599929517,,,,,,,,,0,0,0,0,0,1,1,1,0,46,46,46,,,,,,,,,,,,,,,,,,,,,,,,,,,,,,,,,,,,,,,,,,,,,,,,,,,,,,,,,,,,,,,,,,,,,,,,,,,,,,,1.98,654.5982418999774,None,space,1,0.2808458000072278,656.6787094999454,None,656.6787094999454,None,656.6787094999454,None,,,,,,,,,,,P005,fencog,1,Pre,2021_Jul_13_1058,Go No-Go Task,2021.1.4,119.91788025247551,
,"Rule: When you see blue image, do not press 'spacebar'.",Images/Fearful/HF09_FC.jpg,Fear,Blue,Images/Blue.jpg,None,ParentConditions/YellowBlueBlue_v1.xlsx,BlueBlueYellow,Conditions/Version_1/BlueFearStop.xlsx,yes,PASS,0.19935802832005745,,,,,,,,,0,0,0,0,0,1,1,1,0,47,47,47,,,,,,,,,,,,,,,,,,,,,,,,,,,,,,,,,,,,,,,,,,,,,,,,,,,,,,,,,,,,,,,,,,,,,,,,,,,,,,,1.58,657.0773870999692,None,None,1,,658.7611139999935,None,658.7611139999935,None,658.7611139999935,None,,,,,,,,,,,P005,fencog,1,Pre,2021_Jul_13_1058,Go No-Go Task,2021.1.4,119.91788025247551,
,"Rule: When you see blue image, do not press 'spacebar'.",Images/Fearful/AM22AFS.jpg,Fear,Blue,Images/Blue.jpg,None,ParentConditions/YellowBlueBlue_v1.xlsx,BlueBlueYellow,Conditions/Version_1/BlueFearStop.xlsx,yes,PASS,0.17276378175067786,,,,,,,,,0,0,0,0,0,1,1,1,0,48,48,48,,,,,,,,,,,,,,,,,,,,,,,,,,,,,,,,,,,,,,,,,,,,,,,,,,,,,,,,,,,,,,,,,,,,,,,,,,,,,,,1.72,659.1635946999886,None,None,1,,660.9856007999624,None,660.9856007999624,None,660.9856007999624,None,,,,,,,,,,,P005,fencog,1,Pre,2021_Jul_13_1058,Go No-Go Task,2021.1.4,119.91788025247551,
,"Rule: When you see blue image, do not press 'spacebar'.",Images/Happy/AM06_HC.jpg,Happy,Yellow,Images/Yellow.jpg,space,ParentConditions/YellowBlueBlue_v1.xlsx,BlueBlueYellow,Conditions/Version_1/BlueFearStop.xlsx,no,PASS,0.06320185727949179,,,,,,,,,0,0,0,0,0,1,1,1,0,49,49,49,,,,,,,,,,,,,,,,,,,,,,,,,,,,,,,,,,,,,,,,,,,,,,,,,,,,,,,,,,,,,,,,,,,,,,,,,,,,,,,1.39,661.3889683999587,None,space,1,0.26619039999786764,662.8849700999563,None,662.8849700999563,None,662.8849700999563,None,,,,,,,,,,,P005,fencog,1,Pre,2021_Jul_13_1058,Go No-Go Task,2021.1.4,119.91788025247551,
,"Rule: When you see blue image, do not press 'spacebar'.",Images/Fearful/AM32AFS.jpg,Fear,Blue,Images/Blue.jpg,None,ParentConditions/YellowBlueBlue_v1.xlsx,BlueBlueYellow,Conditions/Version_1/BlueFearStop.xlsx,yes,PASS,0.03468314974069586,,,,,,,,,0,0,0,0,0,1,1,1,0,50,50,50,,,,,,,,,,,,,,,,,,,,,,,,,,,,,,,,,,,,,,,,,,,,,,,,,,,,,,,,,,,,,,,,,,,,,,,,,,,,,,,1.56,663.2841414999566,None,None,1,,664.9511040999787,None,664.9511040999787,None,664.9511040999787,None,,,,,,,,,,,P005,fencog,1,Pre,2021_Jul_13_1058,Go No-Go Task,2021.1.4,119.91788025247551,
,"Rule: When you see blue image, do not press 'spacebar'.",Images/Happy/WF11_HE.jpg,Happy,Yellow,Images/Yellow.jpg,space,ParentConditions/YellowBlueBlue_v1.xlsx,BlueBlueYellow,Conditions/Version_1/BlueFearStop.xlsx,no,PASS,0.5138011133022752,,,,,,,,,0,0,0,0,0,1,1,1,0,51,51,51,,,,,,,,,,,,,,,,,,,,,,,,,,,,,,,,,,,,,,,,,,,,,,,,,,,,,,,,,,,,,,,,,,,,,,,,,,,,,,,1.8,665.3518067999976,None,space,1,0.261072899971623,667.2587074999465,None,667.2587074999465,None,667.2587074999465,None,,,,,,,,,,,P005,fencog,1,Pre,2021_Jul_13_1058,Go No-Go Task,2021.1.4,119.91788025247551,
,"Rule: When you see blue image, do not press 'spacebar'.",Images/Fearful/AF28AFS.jpg,Fear,Blue,Images/Blue.jpg,None,ParentConditions/YellowBlueBlue_v1.xlsx,BlueBlueYellow,Conditions/Version_1/BlueFearStop.xlsx,yes,PASS,0.30204493442130675,,,,,,,,,0,0,0,0,0,1,1,1,0,52,52,52,,,,,,,,,,,,,,,,,,,,,,,,,,,,,,,,,,,,,,,,,,,,,,,,,,,,,,,,,,,,,,,,,,,,,,,,,,,,,,,1.31,667.6576536999783,None,None,1,,669.0748044999782,None,669.0748044999782,None,669.0748044999782,None,,,,,,,,,,,P005,fencog,1,Pre,2021_Jul_13_1058,Go No-Go Task,2021.1.4,119.91788025247551,
,"Rule: When you see blue image, do not press 'spacebar'.",Images/Happy/HF04_HE.jpg,Happy,Yellow,Images/Yellow.jpg,space,ParentConditions/YellowBlueBlue_v1.xlsx,BlueBlueYellow,Conditions/Version_1/BlueFearStop.xlsx,no,PASS,0.05385370360405073,,,,,,,,,0,0,0,0,0,1,1,1,0,53,53,53,,,,,,,,,,,,,,,,,,,,,,,,,,,,,,,,,,,,,,,,,,,,,,,,,,,,,,,,,,,,,,,,,,,,,,,,,,,,,,,1.52,669.4772905999562,None,space,1,0.28399799996986985,671.099162999948,None,671.099162999948,None,671.099162999948,None,,,,,,,,,,,P005,fencog,1,Pre,2021_Jul_13_1058,Go No-Go Task,2021.1.4,119.91788025247551,
,"Rule: When you see blue image, do not press 'spacebar'.",Images/Happy/AM13HAS.jpg,Happy,Yellow,Images/Yellow.jpg,space,ParentConditions/YellowBlueBlue_v1.xlsx,BlueBlueYellow,Conditions/Version_1/BlueFearStop.xlsx,no,PASS,0.9978120552242631,,,,,,,,,0,0,0,0,0,1,1,1,0,54,54,54,,,,,,,,,,,,,,,,,,,,,,,,,,,,,,,,,,,,,,,,,,,,,,,,,,,,,,,,,,,,,,,,,,,,,,,,,,,,,,,1.37,671.4980878999922,None,space,1,0.29813690000446513,672.973729899968,None,672.973729899968,None,672.973729899968,None,,,,,,,,,,,P005,fencog,1,Pre,2021_Jul_13_1058,Go No-Go Task,2021.1.4,119.91788025247551,
,"Rule: When you see blue image, do not press 'spacebar'.",Images/Happy/HF10_HE.jpg,Happy,Yellow,Images/Yellow.jpg,space,ParentConditions/YellowBlueBlue_v1.xlsx,BlueBlueYellow,Conditions/Version_1/BlueFearStop.xlsx,no,PASS,0.7658265452728541,,,,,,,,,0,0,0,0,0,1,1,1,0,55,55,55,,,,,,,,,,,,,,,,,,,,,,,,,,,,,,,,,,,,,,,,,,,,,,,,,,,,,,,,,,,,,,,,,,,,,,,,,,,,,,,1.69,673.3743319999776,None,space,1,0.290547099953983,675.1646480999771,None,675.1646480999771,None,675.1646480999771,None,,,,,,,,,,,P005,fencog,1,Pre,2021_Jul_13_1058,Go No-Go Task,2021.1.4,119.91788025247551,
,"Rule: When you see blue image, do not press 'spacebar'.",Images/Happy/AM04_HE.jpg,Happy,Yellow,Images/Yellow.jpg,space,ParentConditions/YellowBlueBlue_v1.xlsx,BlueBlueYellow,Conditions/Version_1/BlueFearStop.xlsx,no,PASS,0.8987539961300183,,,,,,,,,0,0,0,0,0,1,1,1,0,56,56,56,,,,,,,,,,,,,,,,,,,,,,,,,,,,,,,,,,,,,,,,,,,,,,,,,,,,,,,,,,,,,,,,,,,,,,,,,,,,,,,1.9,675.5664659999893,None,space,1,0.2907661000499502,677.572378599958,None,677.572378599958,None,677.572378599958,None,,,,,,,,,,,P005,fencog,1,Pre,2021_Jul_13_1058,Go No-Go Task,2021.1.4,119.91788025247551,
