CondFileP,Instructions,FaceE,Express,ColourT,ColourF,CorrectAnsP,MasterCondFile,BlockOrder,CondFile,ColCheck,Triplicate_check,SORT_BY_SMALLEST,EPracticeOuterLoop.thisRepN,EPracticeOuterLoop.thisTrialN,EPracticeOuterLoop.thisN,EPracticeOuterLoop.thisIndex,EPracticeInnerLoop.thisRepN,EPracticeInnerLoop.thisTrialN,EPracticeInnerLoop.thisN,EPracticeInnerLoop.thisIndex,MasterLoop.thisRepN,MasterLoop.thisTrialN,MasterLoop.thisN,MasterLoop.thisIndex,OuterLoop.thisRepN,OuterLoop.thisTrialN,OuterLoop.thisN,OuterLoop.thisIndex,InnerLoop.thisRepN,InnerLoop.thisTrialN,InnerLoop.thisN,InnerLoop.thisIndex,text_13.started,text_13.stopped,key_resp_10.keys,key_resp_10.rt,key_resp_10.started,key_resp_10.stopped,text4.started,text4.stopped,EmotionTaskInstructions1.keys,EmotionTaskInstructions1.rt,EmotionTaskInstructions1.started,EmotionTaskInstructions1.stopped,text_4.started,text_4.stopped,key_resp_5.keys,key_resp_5.rt,key_resp_5.started,key_resp_5.stopped,Text_14.started,Text_14.stopped,key_resp_9.keys,key_resp_9.rt,key_resp_9.started,key_resp_9.stopped,text_5.started,text_5.stopped,text_6.started,text_6.stopped,key_resp_7.keys,key_resp_7.rt,key_resp_7.started,key_resp_7.stopped,text_10.started,text_10.stopped,text_11.started,text_11.stopped,text_12.started,text_12.stopped,ISIjitterPractice,EPracticeISIMarker.started,EPracticeISIMarker.stopped,Pract.keys,Pract.corr,Pract.rt,Pract.started,Pract.stopped,PracticeFace.started,PracticeFace.stopped,ColourPractice.started,ColourPractice.stopped,text_7.started,text_7.stopped,EndOfPractice.started,EndOfPractice.stopped,key_resp_8.keys,key_resp_8.rt,key_resp_8.started,key_resp_8.stopped,text_8.started,text_8.stopped,key_resp_6.keys,key_resp_6.rt,key_resp_6.started,key_resp_6.stopped,text_2.started,text_2.stopped,text_3.started,text_3.stopped,key_resp_3.keys,key_resp_3.rt,key_resp_3.started,key_resp_3.stopped,TaskBlock.started,TaskBlock.stopped,BlockNo1.started,BlockNo1.stopped,OfBlock.started,OfBlock.stopped,ISIjitter,ISImarker.started,ISImarker.stopped,key_resp.keys,key_resp.corr,key_resp.rt,key_resp.started,key_resp.stopped,FaceSet.started,FaceSet.stopped,Colour.started,Colour.stopped,EndBlockText.started,EndBlockText.stopped,key_resp_4.keys,key_resp_4.rt,key_resp_4.started,key_resp_4.stopped,BreakText2.started,BreakText2.stopped,PressToContinue.started,PressToContinue.stopped,participant,Study Name,Task Version (required to run),PRE/POST,date,expName,psychopyVersion,frameRate,
,,,,,,,,,,,,,,,,,,,,,,,,,,,,,,,,,25.328273099963553,None,space,2.1616985000437126,26.321645999967586,None,,,,,,,,,,,,,,,,,,,,,,,,,,,,,,,,,,,,,,,,,,,,,,,,,,,,,,,,,,,,,,,,,,,,,,,,,,,,,,,,,,,,,,,,,,,,,,,P006,fencog,1,Pre,2021_Jul_14_1031,Go No-Go Task,2021.1.4,119.95197125599329,
,,,,,,,,,,,,,,,,,,,,,,,,,,,,,,,,,,,,,,,29.980902199982665,None,space,171.6540596000268,29.980902199982665,None,,,,,,,,,,,,,,,,,,,,,,,,,,,,,,,,,,,,,,,,,,,,,,,,,,,,,,,,,,,,,,,,,,,,,,,,,,,,,,,,,,,,,,,,,P006,fencog,1,Pre,2021_Jul_14_1031,Go No-Go Task,2021.1.4,119.95197125599329,
,,,,,,,,,,,,,,,,,,,,,,,,,,,,,,,,,,,,,,,,,,,,,201.70001390000107,None,space,12.126920800015796,201.70001390000107,None,,,,,,,,,,,,,,,,,,,,,,,,,,,,,,,,,,,,,,,,,,,,,,,,,,,,,,,,,,,,,,,,,,,,,,,,,,,,,,,,,,,P006,fencog,1,Pre,2021_Jul_14_1031,Go No-Go Task,2021.1.4,119.95197125599329,
,,,,,,,,,,,,,,,,,,,,,,,,,,,,,,,,,,,,,,,,,,,,,,,,,,,213.84181719995104,None,space,9.71319089998724,213.84181719995104,None,,,,,,,,,,,,,,,,,,,,,,,,,,,,,,,,,,,,,,,,,,,,,,,,,,,,,,,,,,,,,,,,,,,,,,,,,,,,,P006,fencog,1,Pre,2021_Jul_14_1031,Go No-Go Task,2021.1.4,119.95197125599329,
EPracticeConditions/BlueEyes.csv,"Rule: When you see a blue image, do not press 'spacebar'.",Images/Happy/HF05_HO.jpg,Happy,Yellow,Images/Yellow.jpg,space,,,,,,,0,0,0,0,0,0,0,5,,,,,,,,,,,,,,,,,,,,,,,,,,,,,,,,,,,,,223.6260609999881,None,226.61249149998184,None,space,5.16623630002141,226.61249149998184,None,223.6260609999881,None,223.6260609999881,None,223.6260609999881,None,1.9,231.85440349997953,None,space,1,0.33977479999884963,233.90348979999544,None,233.90348979999544,None,233.90348979999544,None,235.3221589999739,None,,,,,,,,,,,,,,,,,,,,,,,,,,,,,,,,,,,,,,,,,,,,,,,,,P006,fencog,1,Pre,2021_Jul_14_1031,Go No-Go Task,2021.1.4,119.95197125599329,
EPracticeConditions/BlueEyes.csv,"Rule: When you see a blue image, do not press 'spacebar'.",Images/Happy/HF04_HE.jpg,Happy,Yellow,Images/Yellow.jpg,space,,,,,,,0,0,0,0,0,1,1,4,,,,,,,,,,,,,,,,,,,,,,,,,,,,,,,,,,,,,,,,,,,,,,,,,,,1.2,236.80124879995128,None,None,0,,238.10128919995623,None,238.10128919995623,None,238.10128919995623,None,239.00209739996353,None,,,,,,,,,,,,,,,,,,,,,,,,,,,,,,,,,,,,,,,,,,,,,,,,,P006,fencog,1,Pre,2021_Jul_14_1031,Go No-Go Task,2021.1.4,119.95197125599329,
EPracticeConditions/BlueEyes.csv,"Rule: When you see a blue image, do not press 'spacebar'.",Images/Fearful/AF01_FO.jpg,Fear,Blue,Images/Blue.jpg,None,,,,,,,0,0,0,0,0,2,2,1,,,,,,,,,,,,,,,,,,,,,,,,,,,,,,,,,,,,,,,,,,,,,,,,,,,1.8,241.00776739994762,None,None,1,,242.90822629997274,None,242.90822629997274,None,242.90822629997274,None,243.81308769999305,None,,,,,,,,,,,,,,,,,,,,,,,,,,,,,,,,,,,,,,,,,,,,,,,,,P006,fencog,1,Pre,2021_Jul_14_1031,Go No-Go Task,2021.1.4,119.95197125599329,
EPracticeConditions/BlueEyes.csv,"Rule: When you see a blue image, do not press 'spacebar'.",Images/Happy/HF09_HE.jpg,Happy,Yellow,Images/Yellow.jpg,space,,,,,,,0,0,0,0,0,3,3,6,,,,,,,,,,,,,,,,,,,,,,,,,,,,,,,,,,,,,,,,,,,,,,,,,,,1.5,245.81463689997327,None,None,0,,247.41467039997224,None,247.41467039997224,None,247.41467039997224,None,248.32244659995195,None,,,,,,,,,,,,,,,,,,,,,,,,,,,,,,,,,,,,,,,,,,,,,,,,,P006,fencog,1,Pre,2021_Jul_14_1031,Go No-Go Task,2021.1.4,119.95197125599329,
EPracticeConditions/BlueEyes.csv,"Rule: When you see a blue image, do not press 'spacebar'.",Images/Fearful/HM09_FC.jpg,Fear,Blue,Images/Blue.jpg,None,,,,,,,0,0,0,0,0,4,4,0,,,,,,,,,,,,,,,,,,,,,,,,,,,,,,,,,,,,,,,,,,,,,,,,,,,1.3,250.3233002999914,None,space,0,0.3527929999982007,251.72226159996353,None,251.72226159996353,None,251.72226159996353,None,252.62769319996005,None,,,,,,,,,,,,,,,,,,,,,,,,,,,,,,,,,,,,,,,,,,,,,,,,,P006,fencog,1,Pre,2021_Jul_14_1031,Go No-Go Task,2021.1.4,119.95197125599329,
EPracticeConditions/BlueEyes.csv,"Rule: When you see a blue image, do not press 'spacebar'.",Images/Happy/BM08_HO.jpg,Happy,Yellow,Images/Yellow.jpg,space,,,,,,,0,0,0,0,0,5,5,3,,,,,,,,,,,,,,,,,,,,,,,,,,,,,,,,,,,,,,,,,,,,,,,,,,,1.7,254.6312489999691,None,None,0,,256.4287438999745,None,256.4287438999745,None,256.4287438999745,None,257.3276884999941,None,,,,,,,,,,,,,,,,,,,,,,,,,,,,,,,,,,,,,,,,,,,,,,,,,P006,fencog,1,Pre,2021_Jul_14_1031,Go No-Go Task,2021.1.4,119.95197125599329,
EPracticeConditions/BlueEyes.csv,"Rule: When you see a blue image, do not press 'spacebar'.",Images/Happy/BM02_HO.jpg,Happy,Yellow,Images/Yellow.jpg,space,,,,,,,0,0,0,0,0,6,6,2,,,,,,,,,,,,,,,,,,,,,,,,,,,,,,,,,,,,,,,,,,,,,,,,,,,1.4,259.3270698999986,None,space,1,0.27094479999504983,260.8273685000022,None,260.8273685000022,None,260.8273685000022,None,261.7179768999922,None,,,,,,,,,,,,,,,,,,,,,,,,,,,,,,,,,,,,,,,,,,,,,,,,,P006,fencog,1,Pre,2021_Jul_14_1031,Go No-Go Task,2021.1.4,119.95197125599329,
EPracticeConditions/BlueEyes.csv,"Rule: When you see a blue image, do not press 'spacebar'.",Images/Happy/HF10_HE.jpg,Happy,Yellow,Images/Yellow.jpg,space,,,,,,,0,0,0,0,0,7,7,7,,,,,,,,,,,,,,,,,,,,,,,,,,,,,,,,,,,,,,,,,,,,,,,,,,,1.6,263.7174387999694,None,space,1,0.36869480001041666,265.417776199989,None,265.417776199989,None,265.417776199989,None,266.308956999972,None,,,,,,,,,,,,,,,,,,,,,,,,,,,,,,,,,,,,,,,,,,,,,,,,,P006,fencog,1,Pre,2021_Jul_14_1031,Go No-Go Task,2021.1.4,119.95197125599329,
EPracticeConditions/BlueEyes.csv,"Rule: When you see a blue image, do not press 'spacebar'.",,,,,,,,,,,,0,0,0,0,,,,,,,,,,,,,,,,,,,,,,,,,,,,,,,,,,,,,,,,,,,,,,,,,,,,,,,,,,,,,,,,,,,,,,,,,,,,,,,,,,,,,,,,,,,,,,,,,,,,,,,,,,,,,,,,,,,,,P006,fencog,1,Pre,2021_Jul_14_1031,Go No-Go Task,2021.1.4,119.95197125599329,
EPracticeConditions/YellowEyes.csv,"Rule: When you see a yellow image, do not press 'spacebar'.",Images/Fearful/AM17AFS.jpg,Fear,Blue,Images/Blue.jpg,space,,,,,,,0,1,1,1,0,0,0,3,,,,,,,,,,,,,,,,,,,,,,,,,,,,,,,,,,,,,268.33523649995914,None,271.3240451999591,None,space,2.53445490001468,271.3240451999591,None,268.33523649995914,None,268.33523649995914,None,268.33523649995914,None,1.6,273.8733407999971,None,space,1,0.35677160002524033,275.5814255999867,None,275.5814255999867,None,275.5814255999867,None,276.4720069000032,None,,,,,,,,,,,,,,,,,,,,,,,,,,,,,,,,,,,,,,,,,,,,,,,,,P006,fencog,1,Pre,2021_Jul_14_1031,Go No-Go Task,2021.1.4,119.95197125599329,
EPracticeConditions/YellowEyes.csv,"Rule: When you see a yellow image, do not press 'spacebar'.",Images/Fearful/AM24AFS.jpg,Fear,Blue,Images/Blue.jpg,space,,,,,,,0,1,1,1,0,1,1,7,,,,,,,,,,,,,,,,,,,,,,,,,,,,,,,,,,,,,,,,,,,,,,,,,,,1.9,278.47137699997984,None,space,1,0.37067800003569573,280.471740399953,None,280.471740399953,None,280.471740399953,None,281.3621430999483,None,,,,,,,,,,,,,,,,,,,,,,,,,,,,,,,,,,,,,,,,,,,,,,,,,P006,fencog,1,Pre,2021_Jul_14_1031,Go No-Go Task,2021.1.4,119.95197125599329,
EPracticeConditions/YellowEyes.csv,"Rule: When you see a yellow image, do not press 'spacebar'.",Images/Fearful/AM22AFS.jpg,Fear,Blue,Images/Blue.jpg,space,,,,,,,0,1,1,1,0,2,2,5,,,,,,,,,,,,,,,,,,,,,,,,,,,,,,,,,,,,,,,,,,,,,,,,,,,1.8,283.36161619995255,None,space,1,0.30102159996749833,285.26188700000057,None,285.26188700000057,None,285.26188700000057,None,286.15241059998516,None,,,,,,,,,,,,,,,,,,,,,,,,,,,,,,,,,,,,,,,,,,,,,,,,,P006,fencog,1,Pre,2021_Jul_14_1031,Go No-Go Task,2021.1.4,119.95197125599329,
EPracticeConditions/YellowEyes.csv,"Rule: When you see a yellow image, do not press 'spacebar'.",Images/Happy/BF05_HO.jpg,Happy,Yellow,Images/Yellow.jpg,None,,,,,,,0,1,1,1,0,3,3,1,,,,,,,,,,,,,,,,,,,,,,,,,,,,,,,,,,,,,,,,,,,,,,,,,,,1.2,288.1562783999834,None,None,1,,289.4610929999617,None,289.4610929999617,None,289.4610929999617,None,290.3570678999531,None,,,,,,,,,,,,,,,,,,,,,,,,,,,,,,,,,,,,,,,,,,,,,,,,,P006,fencog,1,Pre,2021_Jul_14_1031,Go No-Go Task,2021.1.4,119.95197125599329,
EPracticeConditions/YellowEyes.csv,"Rule: When you see a yellow image, do not press 'spacebar'.",Images/Fearful/AM16AFS.jpg,Fear,Blue,Images/Blue.jpg,space,,,,,,,0,1,1,1,0,4,4,2,,,,,,,,,,,,,,,,,,,,,,,,,,,,,,,,,,,,,,,,,,,,,,,,,,,1.7,292.35984829999506,None,space,1,0.2753588000196032,294.15971139998874,None,294.15971139998874,None,294.15971139998874,None,295.05602189997444,None,,,,,,,,,,,,,,,,,,,,,,,,,,,,,,,,,,,,,,,,,,,,,,,,,P006,fencog,1,Pre,2021_Jul_14_1031,Go No-Go Task,2021.1.4,119.95197125599329,
EPracticeConditions/YellowEyes.csv,"Rule: When you see a yellow image, do not press 'spacebar'.",Images/Fearful/AM19AFS.jpg,Fear,Blue,Images/Blue.jpg,space,,,,,,,0,1,1,1,0,5,5,4,,,,,,,,,,,,,,,,,,,,,,,,,,,,,,,,,,,,,,,,,,,,,,,,,,,1.5,297.06213769997703,None,space,1,0.31192980002379045,298.6667376999976,None,298.6667376999976,None,298.6667376999976,None,299.56255939998664,None,,,,,,,,,,,,,,,,,,,,,,,,,,,,,,,,,,,,,,,,,,,,,,,,,P006,fencog,1,Pre,2021_Jul_14_1031,Go No-Go Task,2021.1.4,119.95197125599329,
EPracticeConditions/YellowEyes.csv,"Rule: When you see a yellow image, do not press 'spacebar'.",Images/Happy/AM32HAS.jpg,Happy,Yellow,Images/Yellow.jpg,None,,,,,,,0,1,1,1,0,6,6,0,,,,,,,,,,,,,,,,,,,,,,,,,,,,,,,,,,,,,,,,,,,,,,,,,,,1.3,301.5658827999723,None,None,1,,302.97371379996184,None,302.97371379996184,None,302.97371379996184,None,303.8705954999896,None,,,,,,,,,,,,,,,,,,,,,,,,,,,,,,,,,,,,,,,,,,,,,,,,,P006,fencog,1,Pre,2021_Jul_14_1031,Go No-Go Task,2021.1.4,119.95197125599329,
EPracticeConditions/YellowEyes.csv,"Rule: When you see a yellow image, do not press 'spacebar'.",Images/Fearful/AM23AFS.jpg,Fear,Blue,Images/Blue.jpg,space,,,,,,,0,1,1,1,0,7,7,6,,,,,,,,,,,,,,,,,,,,,,,,,,,,,,,,,,,,,,,,,,,,,,,,,,,1.4,305.87193859997205,None,space,1,0.2793968000332825,307.37249589996645,None,307.37249589996645,None,307.37249589996645,None,308.2681015999988,None,,,,,,,,,,,,,,,,,,,,,,,,,,,,,,,,,,,,,,,,,,,,,,,,,P006,fencog,1,Pre,2021_Jul_14_1031,Go No-Go Task,2021.1.4,119.95197125599329,
EPracticeConditions/YellowEyes.csv,"Rule: When you see a yellow image, do not press 'spacebar'.",,,,,,,,,,,,0,1,1,1,,,,,,,,,,,,,,,,,,,,,,,,,,,,,,,,,,,,,,,,,,,,,,,,,,,,,,,,,,,,,,,,,,,,,,,,,,,,,,,,,,,,,,,,,,,,,,,,,,,,,,,,,,,,,,,,,,,,,P006,fencog,1,Pre,2021_Jul_14_1031,Go No-Go Task,2021.1.4,119.95197125599329,
EPracticeConditions/BlueScram.csv,"Rule: When you see a blue image, do not press 'spacebar'.",Images/Scram1/AM04_NC.jpg,Scramble,Yellow,Images/Yellow.jpg,space,,,,,,,0,2,2,2,0,0,0,3,,,,,,,,,,,,,,,,,,,,,,,,,,,,,,,,,,,,,310.28653179999674,None,313.2786436000024,None,space,2.692138199985493,313.2786436000024,None,310.28653179999674,None,310.28653179999674,None,310.28653179999674,None,1.7,315.9982442999608,None,None,0,,317.79439419996925,None,317.79439419996925,None,317.79439419996925,None,318.7006161999889,None,,,,,,,,,,,,,,,,,,,,,,,,,,,,,,,,,,,,,,,,,,,,,,,,,P006,fencog,1,Pre,2021_Jul_14_1031,Go No-Go Task,2021.1.4,119.95197125599329,
EPracticeConditions/BlueScram.csv,"Rule: When you see a blue image, do not press 'spacebar'.",Images/Scram1/BM08_NC.jpg,Scramble,Blue,Images/Blue.jpg,None,,,,,,,0,2,2,2,0,1,1,0,,,,,,,,,,,,,,,,,,,,,,,,,,,,,,,,,,,,,,,,,,,,,,,,,,,1.4,320.7044063999783,None,None,1,,322.20972129999427,None,322.20972129999427,None,322.20972129999427,None,323.1148819999653,None,,,,,,,,,,,,,,,,,,,,,,,,,,,,,,,,,,,,,,,,,,,,,,,,,P006,fencog,1,Pre,2021_Jul_14_1031,Go No-Go Task,2021.1.4,119.95197125599329,
EPracticeConditions/BlueScram.csv,"Rule: When you see a blue image, do not press 'spacebar'.",Images/Scram1/BF18_NC.jpg,Scramble,Blue,Images/Blue.jpg,None,,,,,,,0,2,2,2,0,2,2,1,,,,,,,,,,,,,,,,,,,,,,,,,,,,,,,,,,,,,,,,,,,,,,,,,,,1.5,325.1162398000015,None,None,1,,326.70845949999057,None,326.70845949999057,None,326.70845949999057,None,327.60433049994754,None,,,,,,,,,,,,,,,,,,,,,,,,,,,,,,,,,,,,,,,,,,,,,,,,,P006,fencog,1,Pre,2021_Jul_14_1031,Go No-Go Task,2021.1.4,119.95197125599329,
EPracticeConditions/BlueScram.csv,"Rule: When you see a blue image, do not press 'spacebar'.",Images/Scram1/AM13NES.jpg,Scramble,Yellow,Images/Yellow.jpg,space,,,,,,,0,2,2,2,0,3,3,5,,,,,,,,,,,,,,,,,,,,,,,,,,,,,,,,,,,,,,,,,,,,,,,,,,,1.8,329.61002889997326,None,space,1,0.23243219999130815,331.51524659997085,None,331.51524659997085,None,331.51524659997085,None,332.40983759996016,None,,,,,,,,,,,,,,,,,,,,,,,,,,,,,,,,,,,,,,,,,,,,,,,,,P006,fencog,1,Pre,2021_Jul_14_1031,Go No-Go Task,2021.1.4,119.95197125599329,
EPracticeConditions/BlueScram.csv,"Rule: When you see a blue image, do not press 'spacebar'.",Images/Scram2/AM03_NC.jpg,Scramble,Yellow,Images/Yellow.jpg,space,,,,,,,0,2,2,2,0,4,4,6,,,,,,,,,,,,,,,,,,,,,,,,,,,,,,,,,,,,,,,,,,,,,,,,,,,1.6,334.4139669999713,None,space,1,0.3040490000275895,336.11463839997305,None,336.11463839997305,None,336.11463839997305,None,337.00937039998826,None,,,,,,,,,,,,,,,,,,,,,,,,,,,,,,,,,,,,,,,,,,,,,,,,,P006,fencog,1,Pre,2021_Jul_14_1031,Go No-Go Task,2021.1.4,119.95197125599329,
EPracticeConditions/BlueScram.csv,"Rule: When you see a blue image, do not press 'spacebar'.",Images/Scram2/AF25NES.jpg,Scramble,Yellow,Images/Yellow.jpg,space,,,,,,,0,2,2,2,0,5,5,7,,,,,,,,,,,,,,,,,,,,,,,,,,,,,,,,,,,,,,,,,,,,,,,,,,,1.3,339.0174256999744,None,space,1,0.3499191000009887,340.42106089997105,None,340.42106089997105,None,340.42106089997105,None,341.3272882999736,None,,,,,,,,,,,,,,,,,,,,,,,,,,,,,,,,,,,,,,,,,,,,,,,,,P006,fencog,1,Pre,2021_Jul_14_1031,Go No-Go Task,2021.1.4,119.95197125599329,
EPracticeConditions/BlueScram.csv,"Rule: When you see a blue image, do not press 'spacebar'.",Images/Scram1/AM03NES.jpg,Scramble,Yellow,Images/Yellow.jpg,space,,,,,,,0,2,2,2,0,6,6,4,,,,,,,,,,,,,,,,,,,,,,,,,,,,,,,,,,,,,,,,,,,,,,,,,,,1.9,343.3275353999925,None,space,1,0.29906769999070093,345.32789459999185,None,345.32789459999185,None,345.32789459999185,None,346.2242090999498,None,,,,,,,,,,,,,,,,,,,,,,,,,,,,,,,,,,,,,,,,,,,,,,,,,P006,fencog,1,Pre,2021_Jul_14_1031,Go No-Go Task,2021.1.4,119.95197125599329,
EPracticeConditions/BlueScram.csv,"Rule: When you see a blue image, do not press 'spacebar'.",Images/Scram2/AF10_NC.jpg,Scramble,Yellow,Images/Yellow.jpg,space,,,,,,,0,2,2,2,0,7,7,2,,,,,,,,,,,,,,,,,,,,,,,,,,,,,,,,,,,,,,,,,,,,,,,,,,,1.2,348.22773829998914,None,space,1,0.2927080999943428,349.5349140999606,None,349.5349140999606,None,349.5349140999606,None,350.4394921999774,None,,,,,,,,,,,,,,,,,,,,,,,,,,,,,,,,,,,,,,,,,,,,,,,,,P006,fencog,1,Pre,2021_Jul_14_1031,Go No-Go Task,2021.1.4,119.95197125599329,
EPracticeConditions/BlueScram.csv,"Rule: When you see a blue image, do not press 'spacebar'.",,,,,,,,,,,,0,2,2,2,,,,,,,,,,,,,,,,,,,,,,,,,,,,,,,,,,,,,,,,,,,,,,,,,,,,,,,,,,,,,,,,,,,,,,,,,,,,,,,,,,,,,,,,,,,,,,,,,,,,,,,,,,,,,,,,,,,,,P006,fencog,1,Pre,2021_Jul_14_1031,Go No-Go Task,2021.1.4,119.95197125599329,
EPracticeConditions/YellowScram.csv,"Rule: When you see a yellow image, do not press 'spacebar'.",Images/Scram1/AF24NES.jpg,Scramble,Blue,Images/Blue.jpg,space,,,,,,,0,3,3,3,0,0,0,7,,,,,,,,,,,,,,,,,,,,,,,,,,,,,,,,,,,,,352.4506507999613,None,355.4408861999982,None,space,1.2258766000159085,355.4408861999982,None,352.4506507999613,None,352.4506507999613,None,352.4506507999613,None,1.5,356.6872137999744,None,space,1,0.30382000003010035,358.2907855999656,None,358.2907855999656,None,358.2907855999656,None,359.1952201999957,None,,,,,,,,,,,,,,,,,,,,,,,,,,,,,,,,,,,,,,,,,,,,,,,,,P006,fencog,1,Pre,2021_Jul_14_1031,Go No-Go Task,2021.1.4,119.95197125599329,
EPracticeConditions/YellowScram.csv,"Rule: When you see a yellow image, do not press 'spacebar'.",Images/Scram1/AF10_NC.jpg,Scramble,Blue,Images/Blue.jpg,space,,,,,,,0,3,3,3,0,1,1,6,,,,,,,,,,,,,,,,,,,,,,,,,,,,,,,,,,,,,,,,,,,,,,,,,,,1.6,361.1973233000026,None,space,1,0.32982550002634525,362.89773979998427,None,362.89773979998427,None,362.89773979998427,None,363.79394139995566,None,,,,,,,,,,,,,,,,,,,,,,,,,,,,,,,,,,,,,,,,,,,,,,,,,P006,fencog,1,Pre,2021_Jul_14_1031,Go No-Go Task,2021.1.4,119.95197125599329,
EPracticeConditions/YellowScram.csv,"Rule: When you see a yellow image, do not press 'spacebar'.",Images/Scram2/HM06_NC.jpg,Scramble,Yellow,Images/Yellow.jpg,None,,,,,,,0,3,3,3,0,2,2,0,,,,,,,,,,,,,,,,,,,,,,,,,,,,,,,,,,,,,,,,,,,,,,,,,,,1.9,365.79719569999725,None,None,1,,367.80432639998617,None,367.80432639998617,None,367.80432639998617,None,368.695132999972,None,,,,,,,,,,,,,,,,,,,,,,,,,,,,,,,,,,,,,,,,,,,,,,,,,P006,fencog,1,Pre,2021_Jul_14_1031,Go No-Go Task,2021.1.4,119.95197125599329,
EPracticeConditions/YellowScram.csv,"Rule: When you see a yellow image, do not press 'spacebar'.",Images/Scram1/HF04_NC.jpg,Scramble,Blue,Images/Blue.jpg,space,,,,,,,0,3,3,3,0,3,3,2,,,,,,,,,,,,,,,,,,,,,,,,,,,,,,,,,,,,,,,,,,,,,,,,,,,1.4,370.6974474999588,None,space,1,0.3759940000018105,372.2033358999761,None,372.2033358999761,None,372.2033358999761,None,373.0997151999618,None,,,,,,,,,,,,,,,,,,,,,,,,,,,,,,,,,,,,,,,,,,,,,,,,,P006,fencog,1,Pre,2021_Jul_14_1031,Go No-Go Task,2021.1.4,119.95197125599329,
EPracticeConditions/YellowScram.csv,"Rule: When you see a yellow image, do not press 'spacebar'.",Images/Scram1/AF07NES.jpg,Scramble,Blue,Images/Blue.jpg,space,,,,,,,0,3,3,3,0,4,4,3,,,,,,,,,,,,,,,,,,,,,,,,,,,,,,,,,,,,,,,,,,,,,,,,,,,1.2,375.10455119999824,None,None,0,,376.4103996999911,None,376.4103996999911,None,376.4103996999911,None,377.3159381999867,None,,,,,,,,,,,,,,,,,,,,,,,,,,,,,,,,,,,,,,,,,,,,,,,,,P006,fencog,1,Pre,2021_Jul_14_1031,Go No-Go Task,2021.1.4,119.95197125599329,
EPracticeConditions/YellowScram.csv,"Rule: When you see a yellow image, do not press 'spacebar'.",Images/Scram1/BM01_NC.jpg,Scramble,Blue,Images/Blue.jpg,space,,,,,,,0,3,3,3,0,5,5,5,,,,,,,,,,,,,,,,,,,,,,,,,,,,,,,,,,,,,,,,,,,,,,,,,,,1.3,379.3167821999523,None,space,1,0.3338516000076197,380.7173988999566,None,380.7173988999566,None,380.7173988999566,None,381.61406870000064,None,,,,,,,,,,,,,,,,,,,,,,,,,,,,,,,,,,,,,,,,,,,,,,,,,P006,fencog,1,Pre,2021_Jul_14_1031,Go No-Go Task,2021.1.4,119.95197125599329,
EPracticeConditions/YellowScram.csv,"Rule: When you see a yellow image, do not press 'spacebar'.",Images/Scram1/AF30NES.JPG,Scramble,Blue,Images/Blue.jpg,space,,,,,,,0,3,3,3,0,6,6,4,,,,,,,,,,,,,,,,,,,,,,,,,,,,,,,,,,,,,,,,,,,,,,,,,,,1.7,383.61708549998,None,space,1,0.29070180002599955,385.42443859996274,None,385.42443859996274,None,385.42443859996274,None,386.3277865999844,None,,,,,,,,,,,,,,,,,,,,,,,,,,,,,,,,,,,,,,,,,,,,,,,,,P006,fencog,1,Pre,2021_Jul_14_1031,Go No-Go Task,2021.1.4,119.95197125599329,
EPracticeConditions/YellowScram.csv,"Rule: When you see a yellow image, do not press 'spacebar'.",Images/Scram2/AM03NES.jpg,Scramble,Yellow,Images/Yellow.jpg,None,,,,,,,0,3,3,3,0,7,7,1,,,,,,,,,,,,,,,,,,,,,,,,,,,,,,,,,,,,,,,,,,,,,,,,,,,1.8,388.3351350000012,None,None,1,,390.2395668999525,None,390.2395668999525,None,390.2395668999525,None,391.1301499999827,None,,,,,,,,,,,,,,,,,,,,,,,,,,,,,,,,,,,,,,,,,,,,,,,,,P006,fencog,1,Pre,2021_Jul_14_1031,Go No-Go Task,2021.1.4,119.95197125599329,
EPracticeConditions/YellowScram.csv,"Rule: When you see a yellow image, do not press 'spacebar'.",,,,,,,,,,,,0,3,3,3,,,,,,,,,,,,,,,,,,,,,,,,,,,,,,,,,,,,,,,,,,,,,,,,,,,,,,,,,,,,,,,,,,,,,,,,,,,,,,,,,,,,,,,,,,,,,,,,,,,,,,,,,,,,,,,,,,,,,P006,fencog,1,Pre,2021_Jul_14_1031,Go No-Go Task,2021.1.4,119.95197125599329,
,,,,,,,,,,,,,,,,,,,,,,,,,,,,,,,,,,,,,,,,,,,,,,,,,,,,,,,,,,,,,,,,,,,,,,,,,,,,,,,,,,,,,394.49034629995003,None,space,13.799747999990359,394.97108899999876,None,,,,,,,,,,,,,,,,,,,,,,,,,,,,,,,,,,,,,,,,,,,P006,fencog,1,Pre,2021_Jul_14_1031,Go No-Go Task,2021.1.4,119.95197125599329,
,,,,,,,,,,,,,,,,,,,,,,,,,,,,,,,,,,,,,,,,,,,,,,,,,,,,,,,,,,,,,,,,,,,,,,,,,,,,,,,,,,,,,,,,,,,408.78493899997557,None,space,2.2018239999888465,408.78493899997557,None,,,,,,,,,,,,,,,,,,,,,,,,,,,,,,,,,,,,,P006,fencog,1,Pre,2021_Jul_14_1031,Go No-Go Task,2021.1.4,119.95197125599329,
,"Rule: When you see a yellow image, do not press 'spacebar'.",Images/Happy/BF09_HO.jpg,Happy,Blue,Images/Blue.jpg,space,ParentConditions/YellowYellowBlue_v1.xlsx,YellowYellowBlue,Conditions/Version_1/YellowFearStop.xlsx,no,PASS,0.8264186213388923,,,,,,,,,0,0,0,1,0,0,0,0,0,0,0,0,,,,,,,,,,,,,,,,,,,,,,,,,,,,,,,,,,,,,,,,,,,,,,,,,,,,,,,,,,,,,,,,,411.07727599999635,None,414.0654556999798,None,space,0.7774169000331312,414.0654556999798,None,411.07727599999635,None,411.07727599999635,None,411.07727599999635,None,1.51,414.8833585999673,None,space,1,0.28023720002966,416.4986394000007,None,416.4986394000007,None,416.4986394000007,None,,,,,,,,,,,P006,fencog,1,Pre,2021_Jul_14_1031,Go No-Go Task,2021.1.4,119.95197125599329,
,"Rule: When you see a yellow image, do not press 'spacebar'.",Images/Happy/AF30HAS.jpg,Happy,Blue,Images/Blue.jpg,space,ParentConditions/YellowYellowBlue_v1.xlsx,YellowYellowBlue,Conditions/Version_1/YellowFearStop.xlsx,no,PASS,0.17577164693776992,,,,,,,,,0,0,0,1,0,0,0,0,0,1,1,1,,,,,,,,,,,,,,,,,,,,,,,,,,,,,,,,,,,,,,,,,,,,,,,,,,,,,,,,,,,,,,,,,,,,,,,,,,,,,,,1.29,416.89861169998767,None,space,1,0.28890909999608994,418.28960129996995,None,418.28960129996995,None,418.28960129996995,None,,,,,,,,,,,P006,fencog,1,Pre,2021_Jul_14_1031,Go No-Go Task,2021.1.4,119.95197125599329,
,"Rule: When you see a yellow image, do not press 'spacebar'.",Images/Happy/AF27HAS.jpg,Happy,Blue,Images/Blue.jpg,space,ParentConditions/YellowYellowBlue_v1.xlsx,YellowYellowBlue,Conditions/Version_1/YellowFearStop.xlsx,no,PASS,0.9530234186227198,,,,,,,,,0,0,0,1,0,0,0,0,0,2,2,2,,,,,,,,,,,,,,,,,,,,,,,,,,,,,,,,,,,,,,,,,,,,,,,,,,,,,,,,,,,,,,,,,,,,,,,,,,,,,,,1.64,418.69525109999813,None,space,1,0.3327461000299081,420.4390714999754,None,420.4390714999754,None,420.4390714999754,None,,,,,,,,,,,P006,fencog,1,Pre,2021_Jul_14_1031,Go No-Go Task,2021.1.4,119.95197125599329,
,"Rule: When you see a yellow image, do not press 'spacebar'.",Images/Happy/AF22HAS.jpg,Happy,Blue,Images/Blue.jpg,space,ParentConditions/YellowYellowBlue_v1.xlsx,YellowYellowBlue,Conditions/Version_1/YellowFearStop.xlsx,no,PASS,0.38244231072686263,,,,,,,,,0,0,0,1,0,0,0,0,0,3,3,3,,,,,,,,,,,,,,,,,,,,,,,,,,,,,,,,,,,,,,,,,,,,,,,,,,,,,,,,,,,,,,,,,,,,,,,,,,,,,,,1.41,420.84798749996116,None,space,1,0.3196456999867223,422.36344719998306,None,422.36344719998306,None,422.36344719998306,None,,,,,,,,,,,P006,fencog,1,Pre,2021_Jul_14_1031,Go No-Go Task,2021.1.4,119.95197125599329,
,"Rule: When you see a yellow image, do not press 'spacebar'.",Images/Happy/WM11_HC.jpg,Happy,Blue,Images/Blue.jpg,space,ParentConditions/YellowYellowBlue_v1.xlsx,YellowYellowBlue,Conditions/Version_1/YellowFearStop.xlsx,no,PASS,0.4646194175443181,,,,,,,,,0,0,0,1,0,0,0,0,0,4,4,4,,,,,,,,,,,,,,,,,,,,,,,,,,,,,,,,,,,,,,,,,,,,,,,,,,,,,,,,,,,,,,,,,,,,,,,,,,,,,,,1.61,422.76531799999066,None,space,1,0.3004050999879837,424.4793837000034,None,424.4793837000034,None,424.4793837000034,None,,,,,,,,,,,P006,fencog,1,Pre,2021_Jul_14_1031,Go No-Go Task,2021.1.4,119.95197125599329,
,"Rule: When you see a yellow image, do not press 'spacebar'.",Images/Happy/BF05_HO.jpg,Happy,Blue,Images/Blue.jpg,space,ParentConditions/YellowYellowBlue_v1.xlsx,YellowYellowBlue,Conditions/Version_1/YellowFearStop.xlsx,no,PASS,0.7872072262972759,,,,,,,,,0,0,0,1,0,0,0,0,0,5,5,5,,,,,,,,,,,,,,,,,,,,,,,,,,,,,,,,,,,,,,,,,,,,,,,,,,,,,,,,,,,,,,,,,,,,,,,,,,,,,,,1.4,424.879962899955,None,space,1,0.26405629998771474,426.3870478000026,None,426.3870478000026,None,426.3870478000026,None,,,,,,,,,,,P006,fencog,1,Pre,2021_Jul_14_1031,Go No-Go Task,2021.1.4,119.95197125599329,
,"Rule: When you see a yellow image, do not press 'spacebar'.",Images/Fearful/AM01AFS.jpg,Fear,Yellow,Images/Yellow.jpg,None,ParentConditions/YellowYellowBlue_v1.xlsx,YellowYellowBlue,Conditions/Version_1/YellowFearStop.xlsx,yes,PASS,0.04646585469142872,,,,,,,,,0,0,0,1,0,0,0,0,0,6,6,6,,,,,,,,,,,,,,,,,,,,,,,,,,,,,,,,,,,,,,,,,,,,,,,,,,,,,,,,,,,,,,,,,,,,,,,,,,,,,,,1.42,426.7962646999513,None,None,1,,428.3115931999637,None,428.3115931999637,None,428.3115931999637,None,,,,,,,,,,,P006,fencog,1,Pre,2021_Jul_14_1031,Go No-Go Task,2021.1.4,119.95197125599329,
,"Rule: When you see a yellow image, do not press 'spacebar'.",Images/Happy/AF23HAS.jpg,Happy,Blue,Images/Blue.jpg,space,ParentConditions/YellowYellowBlue_v1.xlsx,YellowYellowBlue,Conditions/Version_1/YellowFearStop.xlsx,no,PASS,0.9566897784343521,,,,,,,,,0,0,0,1,0,0,0,0,0,7,7,7,,,,,,,,,,,,,,,,,,,,,,,,,,,,,,,,,,,,,,,,,,,,,,,,,,,,,,,,,,,,,,,,,,,,,,,,,,,,,,,1.76,428.7122153999517,None,space,1,0.3146938999998383,430.57763149996754,None,430.57763149996754,None,430.57763149996754,None,,,,,,,,,,,P006,fencog,1,Pre,2021_Jul_14_1031,Go No-Go Task,2021.1.4,119.95197125599329,
,"Rule: When you see a yellow image, do not press 'spacebar'.",Images/Happy/AM16HAS.jpg,Happy,Blue,Images/Blue.jpg,space,ParentConditions/YellowYellowBlue_v1.xlsx,YellowYellowBlue,Conditions/Version_1/YellowFearStop.xlsx,no,PASS,0.9715962743635901,,,,,,,,,0,0,0,1,0,0,0,0,0,8,8,8,,,,,,,,,,,,,,,,,,,,,,,,,,,,,,,,,,,,,,,,,,,,,,,,,,,,,,,,,,,,,,,,,,,,,,,,,,,,,,,1.84,430.9787238999852,None,space,1,0.3083197999512777,432.91854009998497,None,432.91854009998497,None,432.91854009998497,None,,,,,,,,,,,P006,fencog,1,Pre,2021_Jul_14_1031,Go No-Go Task,2021.1.4,119.95197125599329,
,"Rule: When you see a yellow image, do not press 'spacebar'.",Images/Happy/AM04HAS.jpg,Happy,Blue,Images/Blue.jpg,space,ParentConditions/YellowYellowBlue_v1.xlsx,YellowYellowBlue,Conditions/Version_1/YellowFearStop.xlsx,no,PASS,0.8834532829789966,,,,,,,,,0,0,0,1,0,0,0,0,0,9,9,9,,,,,,,,,,,,,,,,,,,,,,,,,,,,,,,,,,,,,,,,,,,,,,,,,,,,,,,,,,,,,,,,,,,,,,,,,,,,,,,1.59,433.32414799998514,None,space,1,0.3368896000320092,435.0179143999703,None,435.0179143999703,None,435.0179143999703,None,,,,,,,,,,,P006,fencog,1,Pre,2021_Jul_14_1031,Go No-Go Task,2021.1.4,119.95197125599329,
,"Rule: When you see a yellow image, do not press 'spacebar'.",Images/Happy/AF26HAS.jpg,Happy,Blue,Images/Blue.jpg,space,ParentConditions/YellowYellowBlue_v1.xlsx,YellowYellowBlue,Conditions/Version_1/YellowFearStop.xlsx,no,PASS,0.1837512616409066,,,,,,,,,0,0,0,1,0,0,0,0,0,10,10,10,,,,,,,,,,,,,,,,,,,,,,,,,,,,,,,,,,,,,,,,,,,,,,,,,,,,,,,,,,,,,,,,,,,,,,,,,,,,,,,1.74,435.4175541999866,None,space,1,0.30372389999683946,437.2589974000002,None,437.2589974000002,None,437.2589974000002,None,,,,,,,,,,,P006,fencog,1,Pre,2021_Jul_14_1031,Go No-Go Task,2021.1.4,119.95197125599329,
,"Rule: When you see a yellow image, do not press 'spacebar'.",Images/Fearful/AF10_FC.jpg,Fear,Yellow,Images/Yellow.jpg,None,ParentConditions/YellowYellowBlue_v1.xlsx,YellowYellowBlue,Conditions/Version_1/YellowFearStop.xlsx,yes,PASS,0.28017183869067563,,,,,,,,,0,0,0,1,0,0,0,0,0,11,11,11,,,,,,,,,,,,,,,,,,,,,,,,,,,,,,,,,,,,,,,,,,,,,,,,,,,,,,,,,,,,,,,,,,,,,,,,,,,,,,,1.85,437.67025579995243,None,None,1,,439.61646170000313,None,439.61646170000313,None,439.61646170000313,None,,,,,,,,,,,P006,fencog,1,Pre,2021_Jul_14_1031,Go No-Go Task,2021.1.4,119.95197125599329,
,"Rule: When you see a yellow image, do not press 'spacebar'.",Images/Fearful/AM09_FO.jpg,Fear,Yellow,Images/Yellow.jpg,None,ParentConditions/YellowYellowBlue_v1.xlsx,YellowYellowBlue,Conditions/Version_1/YellowFearStop.xlsx,yes,PASS,0.6630139915996167,,,,,,,,,0,0,0,1,0,0,0,0,0,12,12,12,,,,,,,,,,,,,,,,,,,,,,,,,,,,,,,,,,,,,,,,,,,,,,,,,,,,,,,,,,,,,,,,,,,,,,,,,,,,,,,1.7,440.0173840999487,None,None,1,,441.82424729998456,None,441.82424729998456,None,441.82424729998456,None,,,,,,,,,,,P006,fencog,1,Pre,2021_Jul_14_1031,Go No-Go Task,2021.1.4,119.95197125599329,
,"Rule: When you see a yellow image, do not press 'spacebar'.",Images/Happy/HM04_HO.jpg,Happy,Blue,Images/Blue.jpg,space,ParentConditions/YellowYellowBlue_v1.xlsx,YellowYellowBlue,Conditions/Version_1/YellowFearStop.xlsx,no,PASS,0.9402314290963173,,,,,,,,,0,0,0,1,0,0,0,0,0,13,13,13,,,,,,,,,,,,,,,,,,,,,,,,,,,,,,,,,,,,,,,,,,,,,,,,,,,,,,,,,,,,,,,,,,,,,,,,,,,,,,,1.92,442.2296185999876,None,space,1,0.24212680000346154,444.25690449995454,None,444.25690449995454,None,444.25690449995454,None,,,,,,,,,,,P006,fencog,1,Pre,2021_Jul_14_1031,Go No-Go Task,2021.1.4,119.95197125599329,
,"Rule: When you see a yellow image, do not press 'spacebar'.",Images/Fearful/AM04_FO.jpg,Fear,Yellow,Images/Yellow.jpg,None,ParentConditions/YellowYellowBlue_v1.xlsx,YellowYellowBlue,Conditions/Version_1/YellowFearStop.xlsx,yes,PASS,0.3100490082037951,,,,,,,,,0,0,0,1,0,0,0,0,0,14,14,14,,,,,,,,,,,,,,,,,,,,,,,,,,,,,,,,,,,,,,,,,,,,,,,,,,,,,,,,,,,,,,,,,,,,,,,,,,,,,,,1.54,444.6597189999884,None,None,1,,446.3063163999468,None,446.3063163999468,None,446.3063163999468,None,,,,,,,,,,,P006,fencog,1,Pre,2021_Jul_14_1031,Go No-Go Task,2021.1.4,119.95197125599329,
,"Rule: When you see a yellow image, do not press 'spacebar'.",Images/Happy/AM13HAS.jpg,Happy,Blue,Images/Blue.jpg,space,ParentConditions/YellowYellowBlue_v1.xlsx,YellowYellowBlue,Conditions/Version_1/YellowFearStop.xlsx,no,PASS,0.44314676907690376,,,,,,,,,0,0,0,1,0,0,0,0,0,15,15,15,,,,,,,,,,,,,,,,,,,,,,,,,,,,,,,,,,,,,,,,,,,,,,,,,,,,,,,,,,,,,,,,,,,,,,,,,,,,,,,1.2,446.7084159999504,None,space,1,0.3166971000027843,448.0142304999754,None,448.0142304999754,None,448.0142304999754,None,,,,,,,,,,,P006,fencog,1,Pre,2021_Jul_14_1031,Go No-Go Task,2021.1.4,119.95197125599329,
,"Rule: When you see a yellow image, do not press 'spacebar'.",Images/Fearful/AF09AFS.jpg,Fear,Yellow,Images/Yellow.jpg,None,ParentConditions/YellowYellowBlue_v1.xlsx,YellowYellowBlue,Conditions/Version_1/YellowFearStop.xlsx,yes,PASS,0.4498025699510172,,,,,,,,,0,0,0,1,0,0,0,0,0,16,16,16,,,,,,,,,,,,,,,,,,,,,,,,,,,,,,,,,,,,,,,,,,,,,,,,,,,,,,,,,,,,,,,,,,,,,,,,,,,,,,,1.37,448.42304480000166,None,None,1,,449.8969475000049,None,449.8969475000049,None,449.8969475000049,None,,,,,,,,,,,P006,fencog,1,Pre,2021_Jul_14_1031,Go No-Go Task,2021.1.4,119.95197125599329,
,"Rule: When you see a yellow image, do not press 'spacebar'.",Images/Fearful/BF05_FO.jpg,Fear,Yellow,Images/Yellow.jpg,None,ParentConditions/YellowYellowBlue_v1.xlsx,YellowYellowBlue,Conditions/Version_1/YellowFearStop.xlsx,yes,PASS,0.9080020582242041,,,,,,,,,0,0,0,1,0,0,0,0,0,17,17,17,,,,,,,,,,,,,,,,,,,,,,,,,,,,,,,,,,,,,,,,,,,,,,,,,,,,,,,,,,,,,,,,,,,,,,,,,,,,,,,1.44,450.2978412999655,None,None,1,,451.8379705999978,None,451.8379705999978,None,451.8379705999978,None,,,,,,,,,,,P006,fencog,1,Pre,2021_Jul_14_1031,Go No-Go Task,2021.1.4,119.95197125599329,
,"Rule: When you see a yellow image, do not press 'spacebar'.",Images/Happy/AM24HAS.jpg,Happy,Blue,Images/Blue.jpg,space,ParentConditions/YellowYellowBlue_v1.xlsx,YellowYellowBlue,Conditions/Version_1/YellowFearStop.xlsx,no,PASS,0.922071682303877,,,,,,,,,0,0,0,1,0,0,0,0,0,18,18,18,,,,,,,,,,,,,,,,,,,,,,,,,,,,,,,,,,,,,,,,,,,,,,,,,,,,,,,,,,,,,,,,,,,,,,,,,,,,,,,1.82,452.2413602999877,None,space,1,0.25613310001790524,454.16229059995385,None,454.16229059995385,None,454.16229059995385,None,,,,,,,,,,,P006,fencog,1,Pre,2021_Jul_14_1031,Go No-Go Task,2021.1.4,119.95197125599329,
,"Rule: When you see a yellow image, do not press 'spacebar'.",Images/Fearful/AF11AFS.jpg,Fear,Yellow,Images/Yellow.jpg,None,ParentConditions/YellowYellowBlue_v1.xlsx,YellowYellowBlue,Conditions/Version_1/YellowFearStop.xlsx,yes,PASS,0.9473352640697336,,,,,,,,,0,0,0,1,0,0,0,0,0,19,19,19,,,,,,,,,,,,,,,,,,,,,,,,,,,,,,,,,,,,,,,,,,,,,,,,,,,,,,,,,,,,,,,,,,,,,,,,,,,,,,,1.5,454.56466799997725,None,None,1,,456.17001179995714,None,456.17001179995714,None,456.17001179995714,None,,,,,,,,,,,P006,fencog,1,Pre,2021_Jul_14_1031,Go No-Go Task,2021.1.4,119.95197125599329,
,"Rule: When you see a yellow image, do not press 'spacebar'.",Images/Happy/AF01_HE.jpg,Happy,Blue,Images/Blue.jpg,space,ParentConditions/YellowYellowBlue_v1.xlsx,YellowYellowBlue,Conditions/Version_1/YellowFearStop.xlsx,no,PASS,0.975890070475601,,,,,,,,,0,0,0,1,0,0,0,0,0,20,20,20,,,,,,,,,,,,,,,,,,,,,,,,,,,,,,,,,,,,,,,,,,,,,,,,,,,,,,,,,,,,,,,,,,,,,,,,,,,,,,,1.72,456.5705554999877,None,space,1,0.3051949000218883,458.3943746999721,None,458.3943746999721,None,458.3943746999721,None,,,,,,,,,,,P006,fencog,1,Pre,2021_Jul_14_1031,Go No-Go Task,2021.1.4,119.95197125599329,
,"Rule: When you see a yellow image, do not press 'spacebar'.",Images/Happy/AM10_HO.jpg,Happy,Blue,Images/Blue.jpg,space,ParentConditions/YellowYellowBlue_v1.xlsx,YellowYellowBlue,Conditions/Version_1/YellowFearStop.xlsx,no,PASS,0.06323556568324906,,,,,,,,,0,0,0,1,0,0,0,0,0,21,21,21,,,,,,,,,,,,,,,,,,,,,,,,,,,,,,,,,,,,,,,,,,,,,,,,,,,,,,,,,,,,,,,,,,,,,,,,,,,,,,,1.66,458.8008327999851,None,space,1,0.30608499998925254,460.56873539998196,None,460.56873539998196,None,460.56873539998196,None,,,,,,,,,,,P006,fencog,1,Pre,2021_Jul_14_1031,Go No-Go Task,2021.1.4,119.95197125599329,
,"Rule: When you see a yellow image, do not press 'spacebar'.",Images/Happy/AF09HAS.jpg,Happy,Blue,Images/Blue.jpg,space,ParentConditions/YellowYellowBlue_v1.xlsx,YellowYellowBlue,Conditions/Version_1/YellowFearStop.xlsx,no,PASS,0.6962175902541581,,,,,,,,,0,0,0,1,0,0,0,0,0,22,22,22,,,,,,,,,,,,,,,,,,,,,,,,,,,,,,,,,,,,,,,,,,,,,,,,,,,,,,,,,,,,,,,,,,,,,,,,,,,,,,,1.99,460.9738532999763,None,space,1,0.29466640000464395,463.06807409995236,None,463.06807409995236,None,463.06807409995236,None,,,,,,,,,,,P006,fencog,1,Pre,2021_Jul_14_1031,Go No-Go Task,2021.1.4,119.95197125599329,
,"Rule: When you see a yellow image, do not press 'spacebar'.",Images/Happy/BM02_HO.jpg,Happy,Blue,Images/Blue.jpg,space,ParentConditions/YellowYellowBlue_v1.xlsx,YellowYellowBlue,Conditions/Version_1/YellowFearStop.xlsx,no,PASS,0.39611347700197175,,,,,,,,,0,0,0,1,0,0,0,0,0,23,23,23,,,,,,,,,,,,,,,,,,,,,,,,,,,,,,,,,,,,,,,,,,,,,,,,,,,,,,,,,,,,,,,,,,,,,,,,,,,,,,,1.65,463.4731325999601,None,space,1,0.28918160003377125,465.22581799997715,None,465.22581799997715,None,465.22581799997715,None,,,,,,,,,,,P006,fencog,1,Pre,2021_Jul_14_1031,Go No-Go Task,2021.1.4,119.95197125599329,
,"Rule: When you see a yellow image, do not press 'spacebar'.",Images/Happy/AM09_HE.jpg,Happy,Blue,Images/Blue.jpg,space,ParentConditions/YellowYellowBlue_v1.xlsx,YellowYellowBlue,Conditions/Version_1/YellowFearStop.xlsx,no,PASS,0.07757947711401492,,,,,,,,,0,0,0,1,0,0,0,0,0,24,24,24,,,,,,,,,,,,,,,,,,,,,,,,,,,,,,,,,,,,,,,,,,,,,,,,,,,,,,,,,,,,,,,,,,,,,,,,,,,,,,,1.39,465.62474239995936,None,space,1,0.3339803999988362,467.1168234999641,None,467.1168234999641,None,467.1168234999641,None,,,,,,,,,,,P006,fencog,1,Pre,2021_Jul_14_1031,Go No-Go Task,2021.1.4,119.95197125599329,
,"Rule: When you see a yellow image, do not press 'spacebar'.",Images/Happy/AF10_HE.jpg,Happy,Blue,Images/Blue.jpg,space,ParentConditions/YellowYellowBlue_v1.xlsx,YellowYellowBlue,Conditions/Version_1/YellowFearStop.xlsx,no,PASS,0.0317382475703174,,,,,,,,,0,0,0,1,0,0,0,0,0,25,25,25,,,,,,,,,,,,,,,,,,,,,,,,,,,,,,,,,,,,,,,,,,,,,,,,,,,,,,,,,,,,,,,,,,,,,,,,,,,,,,,1.93,467.5193594999728,None,space,1,0.3011669000261463,469.54956329998095,None,469.54956329998095,None,469.54956329998095,None,,,,,,,,,,,P006,fencog,1,Pre,2021_Jul_14_1031,Go No-Go Task,2021.1.4,119.95197125599329,
,"Rule: When you see a yellow image, do not press 'spacebar'.",Images/Happy/BM01_HO.jpg,Happy,Blue,Images/Blue.jpg,space,ParentConditions/YellowYellowBlue_v1.xlsx,YellowYellowBlue,Conditions/Version_1/YellowFearStop.xlsx,no,PASS,0.5236836345272965,,,,,,,,,0,0,0,1,0,0,0,0,0,26,26,26,,,,,,,,,,,,,,,,,,,,,,,,,,,,,,,,,,,,,,,,,,,,,,,,,,,,,,,,,,,,,,,,,,,,,,,,,,,,,,,1.91,469.95066959998803,None,space,1,0.2933704999741167,471.9655036999611,None,471.9655036999611,None,471.9655036999611,None,,,,,,,,,,,P006,fencog,1,Pre,2021_Jul_14_1031,Go No-Go Task,2021.1.4,119.95197125599329,
,"Rule: When you see a yellow image, do not press 'spacebar'.",Images/Fearful/AF07_FO.jpg,Fear,Yellow,Images/Yellow.jpg,None,ParentConditions/YellowYellowBlue_v1.xlsx,YellowYellowBlue,Conditions/Version_1/YellowFearStop.xlsx,yes,PASS,0.05460409726356086,,,,,,,,,0,0,0,1,0,0,0,0,0,27,27,27,,,,,,,,,,,,,,,,,,,,,,,,,,,,,,,,,,,,,,,,,,,,,,,,,,,,,,,,,,,,,,,,,,,,,,,,,,,,,,,1.49,472.37013969995314,None,None,1,,473.95643269998254,None,473.95643269998254,None,473.95643269998254,None,,,,,,,,,,,P006,fencog,1,Pre,2021_Jul_14_1031,Go No-Go Task,2021.1.4,119.95197125599329,
,"Rule: When you see a yellow image, do not press 'spacebar'.",Images/Happy/BF18_HO.jpg,Happy,Blue,Images/Blue.jpg,space,ParentConditions/YellowYellowBlue_v1.xlsx,YellowYellowBlue,Conditions/Version_1/YellowFearStop.xlsx,no,PASS,0.725547290944351,,,,,,,,,0,0,0,1,0,0,0,0,0,28,28,28,,,,,,,,,,,,,,,,,,,,,,,,,,,,,,,,,,,,,,,,,,,,,,,,,,,,,,,,,,,,,,,,,,,,,,,,,,,,,,,1.6,474.36354469996877,None,space,1,0.29156839998904616,476.0642724999925,None,476.0642724999925,None,476.0642724999925,None,,,,,,,,,,,P006,fencog,1,Pre,2021_Jul_14_1031,Go No-Go Task,2021.1.4,119.95197125599329,
,"Rule: When you see a yellow image, do not press 'spacebar'.",Images/Happy/AM03HAS.jpg,Happy,Blue,Images/Blue.jpg,space,ParentConditions/YellowYellowBlue_v1.xlsx,YellowYellowBlue,Conditions/Version_1/YellowFearStop.xlsx,no,PASS,0.25317968373868693,,,,,,,,,0,0,0,1,0,0,0,0,0,29,29,29,,,,,,,,,,,,,,,,,,,,,,,,,,,,,,,,,,,,,,,,,,,,,,,,,,,,,,,,,,,,,,,,,,,,,,,,,,,,,,,1.25,476.46333389997017,None,space,1,0.29379069997230545,477.81358469999395,None,477.81358469999395,None,477.81358469999395,None,,,,,,,,,,,P006,fencog,1,Pre,2021_Jul_14_1031,Go No-Go Task,2021.1.4,119.95197125599329,
,"Rule: When you see a yellow image, do not press 'spacebar'.",Images/Happy/BF10_HO.jpg,Happy,Blue,Images/Blue.jpg,space,ParentConditions/YellowYellowBlue_v1.xlsx,YellowYellowBlue,Conditions/Version_1/YellowFearStop.xlsx,no,PASS,0.49778397383761497,,,,,,,,,0,0,0,1,0,0,0,0,0,30,30,30,,,,,,,,,,,,,,,,,,,,,,,,,,,,,,,,,,,,,,,,,,,,,,,,,,,,,,,,,,,,,,,,,,,,,,,,,,,,,,,1.46,478.218630999967,None,space,1,0.2870454000076279,479.77971979998983,None,479.77971979998983,None,479.77971979998983,None,,,,,,,,,,,P006,fencog,1,Pre,2021_Jul_14_1031,Go No-Go Task,2021.1.4,119.95197125599329,
,"Rule: When you see a yellow image, do not press 'spacebar'.",Images/Happy/BF07_HO.jpg,Happy,Blue,Images/Blue.jpg,space,ParentConditions/YellowYellowBlue_v1.xlsx,YellowYellowBlue,Conditions/Version_1/YellowFearStop.xlsx,no,PASS,0.8230931671283865,,,,,,,,,0,0,0,1,0,0,0,0,0,31,31,31,,,,,,,,,,,,,,,,,,,,,,,,,,,,,,,,,,,,,,,,,,,,,,,,,,,,,,,,,,,,,,,,,,,,,,,,,,,,,,,1.96,480.1795968999504,None,space,1,0.35930330003611743,482.24574929999653,None,482.24574929999653,None,482.24574929999653,None,,,,,,,,,,,P006,fencog,1,Pre,2021_Jul_14_1031,Go No-Go Task,2021.1.4,119.95197125599329,
,"Rule: When you see a yellow image, do not press 'spacebar'.",Images/Fearful/BF07_FO.jpg,Fear,Yellow,Images/Yellow.jpg,None,ParentConditions/YellowYellowBlue_v1.xlsx,YellowYellowBlue,Conditions/Version_1/YellowFearStop.xlsx,yes,PASS,0.2119409881246468,,,,,,,,,0,0,0,1,0,0,0,0,0,32,32,32,,,,,,,,,,,,,,,,,,,,,,,,,,,,,,,,,,,,,,,,,,,,,,,,,,,,,,,,,,,,,,,,,,,,,,,,,,,,,,,1.73,482.6455536999856,None,None,1,,484.4783233999624,None,484.4783233999624,None,484.4783233999624,None,,,,,,,,,,,P006,fencog,1,Pre,2021_Jul_14_1031,Go No-Go Task,2021.1.4,119.95197125599329,
,"Rule: When you see a yellow image, do not press 'spacebar'.",Images/Happy/WF04_HC.jpg,Happy,Blue,Images/Blue.jpg,space,ParentConditions/YellowYellowBlue_v1.xlsx,YellowYellowBlue,Conditions/Version_1/YellowFearStop.xlsx,no,PASS,0.26229612863468255,,,,,,,,,0,0,0,1,0,0,0,0,0,33,33,33,,,,,,,,,,,,,,,,,,,,,,,,,,,,,,,,,,,,,,,,,,,,,,,,,,,,,,,,,,,,,,,,,,,,,,,,,,,,,,,1.83,484.8788978999946,None,space,1,0.35154089995194227,486.8110642999527,None,486.8110642999527,None,486.8110642999527,None,,,,,,,,,,,P006,fencog,1,Pre,2021_Jul_14_1031,Go No-Go Task,2021.1.4,119.95197125599329,
,"Rule: When you see a yellow image, do not press 'spacebar'.",Images/Happy/AM23HAS.jpg,Happy,Blue,Images/Blue.jpg,space,ParentConditions/YellowYellowBlue_v1.xlsx,YellowYellowBlue,Conditions/Version_1/YellowFearStop.xlsx,no,PASS,0.6553077695853636,,,,,,,,,0,0,0,1,0,0,0,0,0,34,34,34,,,,,,,,,,,,,,,,,,,,,,,,,,,,,,,,,,,,,,,,,,,,,,,,,,,,,,,,,,,,,,,,,,,,,,,,,,,,,,,1.9,487.2112618999672,None,space,1,0.30414089997066185,489.21867899998324,None,489.21867899998324,None,489.21867899998324,None,,,,,,,,,,,P006,fencog,1,Pre,2021_Jul_14_1031,Go No-Go Task,2021.1.4,119.95197125599329,
,"Rule: When you see a yellow image, do not press 'spacebar'.",Images/Happy/AM09HAS.jpg,Happy,Blue,Images/Blue.jpg,space,ParentConditions/YellowYellowBlue_v1.xlsx,YellowYellowBlue,Conditions/Version_1/YellowFearStop.xlsx,no,PASS,0.3792451721627529,,,,,,,,,0,0,0,1,0,0,0,0,0,35,35,35,,,,,,,,,,,,,,,,,,,,,,,,,,,,,,,,,,,,,,,,,,,,,,,,,,,,,,,,,,,,,,,,,,,,,,,,,,,,,,,1.24,489.6187292999821,None,space,1,0.37194770004134625,490.95974849996855,None,490.95974849996855,None,490.95974849996855,None,,,,,,,,,,,P006,fencog,1,Pre,2021_Jul_14_1031,Go No-Go Task,2021.1.4,119.95197125599329,
,"Rule: When you see a yellow image, do not press 'spacebar'.",Images/Happy/AM10HAS.jpg,Happy,Blue,Images/Blue.jpg,space,ParentConditions/YellowYellowBlue_v1.xlsx,YellowYellowBlue,Conditions/Version_1/YellowFearStop.xlsx,no,PASS,0.9781550300020249,,,,,,,,,0,0,0,1,0,0,0,0,0,36,36,36,,,,,,,,,,,,,,,,,,,,,,,,,,,,,,,,,,,,,,,,,,,,,,,,,,,,,,,,,,,,,,,,,,,,,,,,,,,,,,,1.28,491.3605761999497,None,space,1,0.36430630000540987,492.7425920999958,None,492.7425920999958,None,492.7425920999958,None,,,,,,,,,,,P006,fencog,1,Pre,2021_Jul_14_1031,Go No-Go Task,2021.1.4,119.95197125599329,
,"Rule: When you see a yellow image, do not press 'spacebar'.",Images/Happy/AF07HAS.jpg,Happy,Blue,Images/Blue.jpg,space,ParentConditions/YellowYellowBlue_v1.xlsx,YellowYellowBlue,Conditions/Version_1/YellowFearStop.xlsx,no,PASS,0.9827710623676732,,,,,,,,,0,0,0,1,0,0,0,0,0,37,37,37,,,,,,,,,,,,,,,,,,,,,,,,,,,,,,,,,,,,,,,,,,,,,,,,,,,,,,,,,,,,,,,,,,,,,,,,,,,,,,,1.97,493.1415108999936,None,space,1,0.3152219000039622,495.20848410000326,None,495.20848410000326,None,495.20848410000326,None,,,,,,,,,,,P006,fencog,1,Pre,2021_Jul_14_1031,Go No-Go Task,2021.1.4,119.95197125599329,
,"Rule: When you see a yellow image, do not press 'spacebar'.",Images/Happy/AM03_HO.jpg,Happy,Blue,Images/Blue.jpg,space,ParentConditions/YellowYellowBlue_v1.xlsx,YellowYellowBlue,Conditions/Version_1/YellowFearStop.xlsx,no,PASS,0.6960883574837642,,,,,,,,,0,0,0,1,0,0,0,0,0,38,38,38,,,,,,,,,,,,,,,,,,,,,,,,,,,,,,,,,,,,,,,,,,,,,,,,,,,,,,,,,,,,,,,,,,,,,,,,,,,,,,,1.67,495.6123886999558,None,space,1,0.3242240000399761,497.39124729996547,None,497.39124729996547,None,497.39124729996547,None,,,,,,,,,,,P006,fencog,1,Pre,2021_Jul_14_1031,Go No-Go Task,2021.1.4,119.95197125599329,
,"Rule: When you see a yellow image, do not press 'spacebar'.",Images/Happy/AM05HAS.jpg,Happy,Blue,Images/Blue.jpg,space,ParentConditions/YellowYellowBlue_v1.xlsx,YellowYellowBlue,Conditions/Version_1/YellowFearStop.xlsx,no,PASS,0.8897547995150092,,,,,,,,,0,0,0,1,0,0,0,0,0,39,39,39,,,,,,,,,,,,,,,,,,,,,,,,,,,,,,,,,,,,,,,,,,,,,,,,,,,,,,,,,,,,,,,,,,,,,,,,,,,,,,,1.43,497.79585009999573,None,space,1,0.3021526000229642,499.34055929997703,None,499.34055929997703,None,499.34055929997703,None,,,,,,,,,,,P006,fencog,1,Pre,2021_Jul_14_1031,Go No-Go Task,2021.1.4,119.95197125599329,
,"Rule: When you see a yellow image, do not press 'spacebar'.",Images/Happy/AF02HAS.jpg,Happy,Blue,Images/Blue.jpg,space,ParentConditions/YellowYellowBlue_v1.xlsx,YellowYellowBlue,Conditions/Version_1/YellowFearStop.xlsx,no,PASS,0.25376599793626176,,,,,,,,,0,0,0,1,0,0,0,0,0,40,40,40,,,,,,,,,,,,,,,,,,,,,,,,,,,,,,,,,,,,,,,,,,,,,,,,,,,,,,,,,,,,,,,,,,,,,,,,,,,,,,,1.34,499.74615619995166,None,space,1,0.3097639000043273,501.19004519999726,None,501.19004519999726,None,501.19004519999726,None,,,,,,,,,,,P006,fencog,1,Pre,2021_Jul_14_1031,Go No-Go Task,2021.1.4,119.95197125599329,
,"Rule: When you see a yellow image, do not press 'spacebar'.",Images/Happy/BM08_HO.jpg,Happy,Blue,Images/Blue.jpg,space,ParentConditions/YellowYellowBlue_v1.xlsx,YellowYellowBlue,Conditions/Version_1/YellowFearStop.xlsx,no,PASS,0.999289280912827,,,,,,,,,0,0,0,1,0,0,0,0,0,41,41,41,,,,,,,,,,,,,,,,,,,,,,,,,,,,,,,,,,,,,,,,,,,,,,,,,,,,,,,,,,,,,,,,,,,,,,,,,,,,,,,1.33,501.58963659999426,None,space,1,0.28518559999065474,503.0228658999549,None,503.0228658999549,None,503.0228658999549,None,,,,,,,,,,,P006,fencog,1,Pre,2021_Jul_14_1031,Go No-Go Task,2021.1.4,119.95197125599329,
,"Rule: When you see a yellow image, do not press 'spacebar'.",Images/Happy/AM22HAS.jpg,Happy,Blue,Images/Blue.jpg,space,ParentConditions/YellowYellowBlue_v1.xlsx,YellowYellowBlue,Conditions/Version_1/YellowFearStop.xlsx,no,PASS,0.3243688929703894,,,,,,,,,0,0,0,1,0,0,0,0,0,42,42,42,,,,,,,,,,,,,,,,,,,,,,,,,,,,,,,,,,,,,,,,,,,,,,,,,,,,,,,,,,,,,,,,,,,,,,,,,,,,,,,1.88,503.42940119997365,None,space,1,0.2937064999714494,505.41394949995447,None,505.41394949995447,None,505.41394949995447,None,,,,,,,,,,,P006,fencog,1,Pre,2021_Jul_14_1031,Go No-Go Task,2021.1.4,119.95197125599329,
,"Rule: When you see a yellow image, do not press 'spacebar'.",Images/Happy/AM30HAS.jpg,Happy,Blue,Images/Blue.jpg,space,ParentConditions/YellowYellowBlue_v1.xlsx,YellowYellowBlue,Conditions/Version_1/YellowFearStop.xlsx,no,PASS,0.6329749014690744,,,,,,,,,0,0,0,1,0,0,0,0,0,43,43,43,,,,,,,,,,,,,,,,,,,,,,,,,,,,,,,,,,,,,,,,,,,,,,,,,,,,,,,,,,,,,,,,,,,,,,,,,,,,,,,1.35,505.8148660999723,None,space,1,0.27530330000445247,507.2716229999787,None,507.2716229999787,None,507.2716229999787,None,,,,,,,,,,,P006,fencog,1,Pre,2021_Jul_14_1031,Go No-Go Task,2021.1.4,119.95197125599329,
,"Rule: When you see a yellow image, do not press 'spacebar'.",Images/Fearful/BF09_FC.jpg,Fear,Yellow,Images/Yellow.jpg,None,ParentConditions/YellowYellowBlue_v1.xlsx,YellowYellowBlue,Conditions/Version_1/YellowFearStop.xlsx,yes,PASS,0.8490666234880494,,,,,,,,,0,0,0,1,0,0,0,0,0,44,44,44,,,,,,,,,,,,,,,,,,,,,,,,,,,,,,,,,,,,,,,,,,,,,,,,,,,,,,,,,,,,,,,,,,,,,,,,,,,,,,,1.53,507.67909509997116,None,None,1,,509.31265479995636,None,509.31265479995636,None,509.31265479995636,None,,,,,,,,,,,P006,fencog,1,Pre,2021_Jul_14_1031,Go No-Go Task,2021.1.4,119.95197125599329,
,"Rule: When you see a yellow image, do not press 'spacebar'.",Images/Happy/WM12_HE.jpg,Happy,Blue,Images/Blue.jpg,space,ParentConditions/YellowYellowBlue_v1.xlsx,YellowYellowBlue,Conditions/Version_1/YellowFearStop.xlsx,no,PASS,0.11929099481185879,,,,,,,,,0,0,0,1,0,0,0,0,0,45,45,45,,,,,,,,,,,,,,,,,,,,,,,,,,,,,,,,,,,,,,,,,,,,,,,,,,,,,,,,,,,,,,,,,,,,,,,,,,,,,,,1.3,509.720234599954,None,space,1,0.2980958999833092,511.1205050999997,None,511.1205050999997,None,511.1205050999997,None,,,,,,,,,,,P006,fencog,1,Pre,2021_Jul_14_1031,Go No-Go Task,2021.1.4,119.95197125599329,
,"Rule: When you see a yellow image, do not press 'spacebar'.",Images/Happy/HF10_HE.jpg,Happy,Blue,Images/Blue.jpg,space,ParentConditions/YellowYellowBlue_v1.xlsx,YellowYellowBlue,Conditions/Version_1/YellowFearStop.xlsx,no,PASS,0.835696516720082,,,,,,,,,0,0,0,1,0,0,0,0,0,46,46,46,,,,,,,,,,,,,,,,,,,,,,,,,,,,,,,,,,,,,,,,,,,,,,,,,,,,,,,,,,,,,,,,,,,,,,,,,,,,,,,1.77,511.5211163999629,None,space,1,0.2483498000074178,513.3948378999485,None,513.3948378999485,None,513.3948378999485,None,,,,,,,,,,,P006,fencog,1,Pre,2021_Jul_14_1031,Go No-Go Task,2021.1.4,119.95197125599329,
,"Rule: When you see a yellow image, do not press 'spacebar'.",Images/Happy/HM09_HO.jpg,Happy,Blue,Images/Blue.jpg,space,ParentConditions/YellowYellowBlue_v1.xlsx,YellowYellowBlue,Conditions/Version_1/YellowFearStop.xlsx,no,PASS,0.80615804446551,,,,,,,,,0,0,0,1,0,0,0,0,0,47,47,47,,,,,,,,,,,,,,,,,,,,,,,,,,,,,,,,,,,,,,,,,,,,,,,,,,,,,,,,,,,,,,,,,,,,,,,,,,,,,,,1.86,513.7957866999786,None,space,1,0.27395429997704923,515.7608997999923,None,515.7608997999923,None,515.7608997999923,None,,,,,,,,,,,P006,fencog,1,Pre,2021_Jul_14_1031,Go No-Go Task,2021.1.4,119.95197125599329,
,"Rule: When you see a yellow image, do not press 'spacebar'.",Images/Fearful/AM03_FC.jpg,Fear,Yellow,Images/Yellow.jpg,None,ParentConditions/YellowYellowBlue_v1.xlsx,YellowYellowBlue,Conditions/Version_1/YellowFearStop.xlsx,yes,PASS,0.14846567878901318,,,,,,,,,0,0,0,1,0,0,0,0,0,48,48,48,,,,,,,,,,,,,,,,,,,,,,,,,,,,,,,,,,,,,,,,,,,,,,,,,,,,,,,,,,,,,,,,,,,,,,,,,,,,,,,1.23,516.1671810999978,None,None,1,,517.501938899979,None,517.501938899979,None,517.501938899979,None,,,,,,,,,,,P006,fencog,1,Pre,2021_Jul_14_1031,Go No-Go Task,2021.1.4,119.95197125599329,
,"Rule: When you see a yellow image, do not press 'spacebar'.",Images/Happy/HF04_HE.jpg,Happy,Blue,Images/Blue.jpg,space,ParentConditions/YellowYellowBlue_v1.xlsx,YellowYellowBlue,Conditions/Version_1/YellowFearStop.xlsx,no,PASS,0.49340132442678397,,,,,,,,,0,0,0,1,0,0,0,0,0,49,49,49,,,,,,,,,,,,,,,,,,,,,,,,,,,,,,,,,,,,,,,,,,,,,,,,,,,,,,,,,,,,,,,,,,,,,,,,,,,,,,,1.31,517.9011561999796,None,space,1,0.29274760000407696,519.3097354999627,None,519.3097354999627,None,519.3097354999627,None,,,,,,,,,,,P006,fencog,1,Pre,2021_Jul_14_1031,Go No-Go Task,2021.1.4,119.95197125599329,
,"Rule: When you see a yellow image, do not press 'spacebar'.",Images/Happy/AM17HAS.jpg,Happy,Blue,Images/Blue.jpg,space,ParentConditions/YellowYellowBlue_v1.xlsx,YellowYellowBlue,Conditions/Version_1/YellowFearStop.xlsx,no,PASS,0.47053997269579284,,,,,,,,,0,0,0,1,0,0,0,0,0,50,50,50,,,,,,,,,,,,,,,,,,,,,,,,,,,,,,,,,,,,,,,,,,,,,,,,,,,,,,,,,,,,,,,,,,,,,,,,,,,,,,,1.52,519.7089891999494,None,space,1,0.3246297999867238,521.3341338000027,None,521.3341338000027,None,521.3341338000027,None,,,,,,,,,,,P006,fencog,1,Pre,2021_Jul_14_1031,Go No-Go Task,2021.1.4,119.95197125599329,
,"Rule: When you see a yellow image, do not press 'spacebar'.",Images/Fearful/BM01_FO.jpg,Fear,Yellow,Images/Yellow.jpg,None,ParentConditions/YellowYellowBlue_v1.xlsx,YellowYellowBlue,Conditions/Version_1/YellowFearStop.xlsx,yes,PASS,0.31347174673362443,,,,,,,,,0,0,0,1,0,0,0,0,0,51,51,51,,,,,,,,,,,,,,,,,,,,,,,,,,,,,,,,,,,,,,,,,,,,,,,,,,,,,,,,,,,,,,,,,,,,,,,,,,,,,,,1.69,521.7351501999656,None,None,1,,523.5251796999946,None,523.5251796999946,None,523.5251796999946,None,,,,,,,,,,,P006,fencog,1,Pre,2021_Jul_14_1031,Go No-Go Task,2021.1.4,119.95197125599329,
,"Rule: When you see a yellow image, do not press 'spacebar'.",Images/Happy/HF09_HE.jpg,Happy,Blue,Images/Blue.jpg,space,ParentConditions/YellowYellowBlue_v1.xlsx,YellowYellowBlue,Conditions/Version_1/YellowFearStop.xlsx,no,PASS,0.012739972194723559,,,,,,,,,0,0,0,1,0,0,0,0,0,52,52,52,,,,,,,,,,,,,,,,,,,,,,,,,,,,,,,,,,,,,,,,,,,,,,,,,,,,,,,,,,,,,,,,,,,,,,,,,,,,,,,1.38,523.9254852999584,None,space,1,0.29894049995345995,525.4078907999792,None,525.4078907999792,None,525.4078907999792,None,,,,,,,,,,,P006,fencog,1,Pre,2021_Jul_14_1031,Go No-Go Task,2021.1.4,119.95197125599329,
,"Rule: When you see a yellow image, do not press 'spacebar'.",Images/Happy/WF11_HE.jpg,Happy,Blue,Images/Blue.jpg,space,ParentConditions/YellowYellowBlue_v1.xlsx,YellowYellowBlue,Conditions/Version_1/YellowFearStop.xlsx,no,PASS,0.5128097154267254,,,,,,,,,0,0,0,1,0,0,0,0,0,53,53,53,,,,,,,,,,,,,,,,,,,,,,,,,,,,,,,,,,,,,,,,,,,,,,,,,,,,,,,,,,,,,,,,,,,,,,,,,,,,,,,1.26,525.8125656999764,None,space,1,0.33427280001342297,527.1657283999957,None,527.1657283999957,None,527.1657283999957,None,,,,,,,,,,,P006,fencog,1,Pre,2021_Jul_14_1031,Go No-Go Task,2021.1.4,119.95197125599329,
,"Rule: When you see a yellow image, do not press 'spacebar'.",Images/Fearful/AM04AFS.jpg,Fear,Yellow,Images/Yellow.jpg,None,ParentConditions/YellowYellowBlue_v1.xlsx,YellowYellowBlue,Conditions/Version_1/YellowFearStop.xlsx,yes,PASS,0.4808108011742167,,,,,,,,,0,0,0,1,0,0,0,0,0,54,54,54,,,,,,,,,,,,,,,,,,,,,,,,,,,,,,,,,,,,,,,,,,,,,,,,,,,,,,,,,,,,,,,,,,,,,,,,,,,,,,,2,527.5719851999893,None,None,1,,529.6733304999652,None,529.6733304999652,None,529.6733304999652,None,,,,,,,,,,,P006,fencog,1,Pre,2021_Jul_14_1031,Go No-Go Task,2021.1.4,119.95197125599329,
,"Rule: When you see a yellow image, do not press 'spacebar'.",Images/Happy/AF19HAS.jpg,Happy,Blue,Images/Blue.jpg,space,ParentConditions/YellowYellowBlue_v1.xlsx,YellowYellowBlue,Conditions/Version_1/YellowFearStop.xlsx,no,PASS,0.3252147007245795,,,,,,,,,0,0,0,1,0,0,0,0,0,55,55,55,,,,,,,,,,,,,,,,,,,,,,,,,,,,,,,,,,,,,,,,,,,,,,,,,,,,,,,,,,,,,,,,,,,,,,,,,,,,,,,1.22,530.0820393000031,None,space,1,0.3415093999938108,531.4061647999915,None,531.4061647999915,None,531.4061647999915,None,,,,,,,,,,,P006,fencog,1,Pre,2021_Jul_14_1031,Go No-Go Task,2021.1.4,119.95197125599329,
,"Rule: When you see a yellow image, do not press 'spacebar'.",Images/Happy/HM06_HO.jpg,Happy,Blue,Images/Blue.jpg,space,ParentConditions/YellowYellowBlue_v1.xlsx,YellowYellowBlue,Conditions/Version_1/YellowFearStop.xlsx,no,PASS,0.3282337486862341,,,,,,,,,0,0,0,1,0,0,0,0,0,56,56,56,,,,,,,,,,,,,,,,,,,,,,,,,,,,,,,,,,,,,,,,,,,,,,,,,,,,,,,,,,,,,,,,,,,,,,,,,,,,,,,1.75,531.8116977000027,None,space,1,0.3078578999848105,533.6555322999484,None,533.6555322999484,None,533.6555322999484,None,,,,,,,,,,,P006,fencog,1,Pre,2021_Jul_14_1031,Go No-Go Task,2021.1.4,119.95197125599329,
,"Rule: When you see a yellow image, do not press 'spacebar'.",Images/Happy/HF05_HO.jpg,Happy,Blue,Images/Blue.jpg,space,ParentConditions/YellowYellowBlue_v1.xlsx,YellowYellowBlue,Conditions/Version_1/YellowFearStop.xlsx,no,PASS,0.5833391709234322,,,,,,,,,0,0,0,1,0,0,0,0,0,57,57,57,,,,,,,,,,,,,,,,,,,,,,,,,,,,,,,,,,,,,,,,,,,,,,,,,,,,,,,,,,,,,,,,,,,,,,,,,,,,,,,1.81,534.054779500002,None,space,1,0.30374920001486316,535.9714878999512,None,535.9714878999512,None,535.9714878999512,None,,,,,,,,,,,P006,fencog,1,Pre,2021_Jul_14_1031,Go No-Go Task,2021.1.4,119.95197125599329,
,"Rule: When you see a yellow image, do not press 'spacebar'.",Images/Fearful/AF01_FO.jpg,Fear,Yellow,Images/Yellow.jpg,None,ParentConditions/YellowYellowBlue_v1.xlsx,YellowYellowBlue,Conditions/Version_1/YellowFearStop.xlsx,yes,PASS,0.3034900725746609,,,,,,,,,0,0,0,1,0,0,0,0,0,58,58,58,,,,,,,,,,,,,,,,,,,,,,,,,,,,,,,,,,,,,,,,,,,,,,,,,,,,,,,,,,,,,,,,,,,,,,,,,,,,,,,1.95,536.3699638999533,None,None,1,,538.4207372999517,None,538.4207372999517,None,538.4207372999517,None,,,,,,,,,,,P006,fencog,1,Pre,2021_Jul_14_1031,Go No-Go Task,2021.1.4,119.95197125599329,
,"Rule: When you see a yellow image, do not press 'spacebar'.",Images/Happy/AF21HAS.jpg,Happy,Blue,Images/Blue.jpg,space,ParentConditions/YellowYellowBlue_v1.xlsx,YellowYellowBlue,Conditions/Version_1/YellowFearStop.xlsx,no,PASS,0.9799702127391234,,,,,,,,,0,0,0,1,0,0,0,0,0,59,59,59,,,,,,,,,,,,,,,,,,,,,,,,,,,,,,,,,,,,,,,,,,,,,,,,,,,,,,,,,,,,,,,,,,,,,,,,,,,,,,,1.36,538.8215208000038,None,space,1,0.34797770000295714,540.2869256999693,None,540.2869256999693,None,540.2869256999693,None,,,,,,,,,,,P006,fencog,1,Pre,2021_Jul_14_1031,Go No-Go Task,2021.1.4,119.95197125599329,
,"Rule: When you see a yellow image, do not press 'spacebar'.",Images/Happy/AM06_HC.jpg,Happy,Blue,Images/Blue.jpg,space,ParentConditions/YellowYellowBlue_v1.xlsx,YellowYellowBlue,Conditions/Version_1/YellowFearStop.xlsx,no,PASS,0.29816427390759137,,,,,,,,,0,0,0,1,0,0,0,0,0,60,60,60,,,,,,,,,,,,,,,,,,,,,,,,,,,,,,,,,,,,,,,,,,,,,,,,,,,,,,,,,,,,,,,,,,,,,,,,,,,,,,,1.55,540.6856988999643,None,space,1,0.3302405999857001,542.3362772999681,None,542.3362772999681,None,542.3362772999681,None,,,,,,,,,,,P006,fencog,1,Pre,2021_Jul_14_1031,Go No-Go Task,2021.1.4,119.95197125599329,
,"Rule: When you see a yellow image, do not press 'spacebar'.",Images/Fearful/AF02AFS.jpg,Fear,Yellow,Images/Yellow.jpg,None,ParentConditions/YellowYellowBlue_v1.xlsx,YellowYellowBlue,Conditions/Version_1/YellowFearStop.xlsx,yes,PASS,0.15582520477375605,,,,,,,,,0,0,0,1,0,0,0,0,0,61,61,61,,,,,,,,,,,,,,,,,,,,,,,,,,,,,,,,,,,,,,,,,,,,,,,,,,,,,,,,,,,,,,,,,,,,,,,,,,,,,,,1.48,542.7362498999573,None,None,1,,544.3189772999613,None,544.3189772999613,None,544.3189772999613,None,,,,,,,,,,,P006,fencog,1,Pre,2021_Jul_14_1031,Go No-Go Task,2021.1.4,119.95197125599329,
,"Rule: When you see a yellow image, do not press 'spacebar'.",Images/Happy/AF25HAS.jpg,Happy,Blue,Images/Blue.jpg,space,ParentConditions/YellowYellowBlue_v1.xlsx,YellowYellowBlue,Conditions/Version_1/YellowFearStop.xlsx,no,PASS,0.7963653427272854,,,,,,,,,0,0,0,1,0,0,0,0,0,62,62,62,,,,,,,,,,,,,,,,,,,,,,,,,,,,,,,,,,,,,,,,,,,,,,,,,,,,,,,,,,,,,,,,,,,,,,,,,,,,,,,1.94,544.7258929999662,None,space,1,0.26619260001461953,546.7682374999858,None,546.7682374999858,None,546.7682374999858,None,,,,,,,,,,,P006,fencog,1,Pre,2021_Jul_14_1031,Go No-Go Task,2021.1.4,119.95197125599329,
,"Rule: When you see a yellow image, do not press 'spacebar'.",Images/Happy/AM32HAS.jpg,Happy,Blue,Images/Blue.jpg,space,ParentConditions/YellowYellowBlue_v1.xlsx,YellowYellowBlue,Conditions/Version_1/YellowFearStop.xlsx,no,PASS,0.2823557460482189,,,,,,,,,0,0,0,1,0,0,0,0,0,63,63,63,,,,,,,,,,,,,,,,,,,,,,,,,,,,,,,,,,,,,,,,,,,,,,,,,,,,,,,,,,,,,,,,,,,,,,,,,,,,,,,1.58,547.1663260999485,None,space,1,0.35131279996130615,548.851062199974,None,548.851062199974,None,548.851062199974,None,,,,,,,,,,,P006,fencog,1,Pre,2021_Jul_14_1031,Go No-Go Task,2021.1.4,119.95197125599329,
,"Rule: When you see a yellow image, do not press 'spacebar'.",Images/Fearful/AM02_FO.jpg,Fear,Yellow,Images/Yellow.jpg,None,ParentConditions/YellowYellowBlue_v1.xlsx,YellowYellowBlue,Conditions/Version_1/YellowFearStop.xlsx,yes,PASS,0.8481624514007016,,,,,,,,,0,0,0,1,0,0,0,0,0,64,64,64,,,,,,,,,,,,,,,,,,,,,,,,,,,,,,,,,,,,,,,,,,,,,,,,,,,,,,,,,,,,,,,,,,,,,,,,,,,,,,,1.47,549.2505931999767,None,None,1,,550.8253603999619,None,550.8253603999619,None,550.8253603999619,None,,,,,,,,,,,P006,fencog,1,Pre,2021_Jul_14_1031,Go No-Go Task,2021.1.4,119.95197125599329,
,"Rule: When you see a yellow image, do not press 'spacebar'.",Images/Fearful/BM02_FC.jpg,Fear,Yellow,Images/Yellow.jpg,None,ParentConditions/YellowYellowBlue_v1.xlsx,YellowYellowBlue,Conditions/Version_1/YellowFearStop.xlsx,yes,PASS,0.7033474445186839,,,,,,,,,0,0,0,1,0,0,0,0,0,65,65,65,,,,,,,,,,,,,,,,,,,,,,,,,,,,,,,,,,,,,,,,,,,,,,,,,,,,,,,,,,,,,,,,,,,,,,,,,,,,,,,1.32,551.2243304000003,None,None,1,,552.649820599996,None,552.649820599996,None,552.649820599996,None,,,,,,,,,,,P006,fencog,1,Pre,2021_Jul_14_1031,Go No-Go Task,2021.1.4,119.95197125599329,
,"Rule: When you see a yellow image, do not press 'spacebar'.",Images/Happy/AM04_HE.jpg,Happy,Blue,Images/Blue.jpg,space,ParentConditions/YellowYellowBlue_v1.xlsx,YellowYellowBlue,Conditions/Version_1/YellowFearStop.xlsx,no,PASS,0.1954454647057855,,,,,,,,,0,0,0,1,0,0,0,0,0,66,66,66,,,,,,,,,,,,,,,,,,,,,,,,,,,,,,,,,,,,,,,,,,,,,,,,,,,,,,,,,,,,,,,,,,,,,,,,,,,,,,,1.89,553.0533905999619,None,space,1,0.3455581000307575,555.0408035999862,None,555.0408035999862,None,555.0408035999862,None,,,,,,,,,,,P006,fencog,1,Pre,2021_Jul_14_1031,Go No-Go Task,2021.1.4,119.95197125599329,
,"Rule: When you see a yellow image, do not press 'spacebar'.",Images/Fearful/AM05AFS.jpg,Fear,Yellow,Images/Yellow.jpg,None,ParentConditions/YellowYellowBlue_v1.xlsx,YellowYellowBlue,Conditions/Version_1/YellowFearStop.xlsx,yes,PASS,0.6459336406761428,,,,,,,,,0,0,0,1,0,0,0,0,0,67,67,67,,,,,,,,,,,,,,,,,,,,,,,,,,,,,,,,,,,,,,,,,,,,,,,,,,,,,,,,,,,,,,,,,,,,,,,,,,,,,,,1.98,555.439965699974,None,None,1,,557.5234831999987,None,557.5234831999987,None,557.5234831999987,None,,,,,,,,,,,P006,fencog,1,Pre,2021_Jul_14_1031,Go No-Go Task,2021.1.4,119.95197125599329,
,"Rule: When you see a yellow image, do not press 'spacebar'.",Images/Happy/AF28HAS.jpg,Happy,Blue,Images/Blue.jpg,space,ParentConditions/YellowYellowBlue_v1.xlsx,YellowYellowBlue,Conditions/Version_1/YellowFearStop.xlsx,no,PASS,0.16840775809852682,,,,,,,,,0,0,0,1,0,0,0,0,0,68,68,68,,,,,,,,,,,,,,,,,,,,,,,,,,,,,,,,,,,,,,,,,,,,,,,,,,,,,,,,,,,,,,,,,,,,,,,,,,,,,,,1.87,557.9292682999512,None,space,1,0.296450299967546,559.9061005999683,None,559.9061005999683,None,559.9061005999683,None,,,,,,,,,,,P006,fencog,1,Pre,2021_Jul_14_1031,Go No-Go Task,2021.1.4,119.95197125599329,
,"Rule: When you see a yellow image, do not press 'spacebar'.",Images/Happy/AF07_HO.jpg,Happy,Blue,Images/Blue.jpg,space,ParentConditions/YellowYellowBlue_v1.xlsx,YellowYellowBlue,Conditions/Version_1/YellowFearStop.xlsx,no,PASS,0.8921854253161821,,,,,,,,,0,0,0,1,0,0,0,0,0,69,69,69,,,,,,,,,,,,,,,,,,,,,,,,,,,,,,,,,,,,,,,,,,,,,,,,,,,,,,,,,,,,,,,,,,,,,,,,,,,,,,,1.78,560.3071811999544,None,space,1,0.3100472000078298,562.1887083000038,None,562.1887083000038,None,562.1887083000038,None,,,,,,,,,,,P006,fencog,1,Pre,2021_Jul_14_1031,Go No-Go Task,2021.1.4,119.95197125599329,
,"Rule: When you see a yellow image, do not press 'spacebar'.",Images/Happy/BF14_HO.jpg,Happy,Blue,Images/Blue.jpg,space,ParentConditions/YellowYellowBlue_v1.xlsx,YellowYellowBlue,Conditions/Version_1/YellowFearStop.xlsx,no,PASS,0.11340023271387378,,,,,,,,,0,0,0,1,0,0,0,0,0,70,70,70,,,,,,,,,,,,,,,,,,,,,,,,,,,,,,,,,,,,,,,,,,,,,,,,,,,,,,,,,,,,,,,,,,,,,,,,,,,,,,,1.79,562.5903564000037,None,space,1,0.31429920002119616,564.4879957999801,None,564.4879957999801,None,564.4879957999801,None,,,,,,,,,,,P006,fencog,1,Pre,2021_Jul_14_1031,Go No-Go Task,2021.1.4,119.95197125599329,
,"Rule: When you see a yellow image, do not press 'spacebar'.",Images/Fearful/AF07FS.jpg,Fear,Yellow,Images/Yellow.jpg,None,ParentConditions/YellowYellowBlue_v1.xlsx,YellowYellowBlue,Conditions/Version_1/YellowFearStop.xlsx,yes,PASS,0.01772114652951917,,,,,,,,,0,0,0,1,0,0,0,0,0,71,71,71,,,,,,,,,,,,,,,,,,,,,,,,,,,,,,,,,,,,,,,,,,,,,,,,,,,,,,,,,,,,,,,,,,,,,,,,,,,,,,,1.21,564.8924786999705,None,None,1,,566.2041475999868,None,566.2041475999868,None,566.2041475999868,None,,,,,,,,,,,P006,fencog,1,Pre,2021_Jul_14_1031,Go No-Go Task,2021.1.4,119.95197125599329,
,"Rule: When you see a yellow image, do not press 'spacebar'.",Images/Happy/AF32HAS.jpg,Happy,Blue,Images/Blue.jpg,space,ParentConditions/YellowYellowBlue_v1.xlsx,YellowYellowBlue,Conditions/Version_1/YellowFearStop.xlsx,no,PASS,0.351428612146247,,,,,,,,,0,0,0,1,0,0,0,0,0,72,72,72,,,,,,,,,,,,,,,,,,,,,,,,,,,,,,,,,,,,,,,,,,,,,,,,,,,,,,,,,,,,,,,,,,,,,,,,,,,,,,,1.56,566.6050271999557,None,space,1,0.33291390002705157,568.2701930999756,None,568.2701930999756,None,568.2701930999756,None,,,,,,,,,,,P006,fencog,1,Pre,2021_Jul_14_1031,Go No-Go Task,2021.1.4,119.95197125599329,
,"Rule: When you see a yellow image, do not press 'spacebar'.",Images/Happy/AF11HAS.jpg,Happy,Blue,Images/Blue.jpg,space,ParentConditions/YellowYellowBlue_v1.xlsx,YellowYellowBlue,Conditions/Version_1/YellowFearStop.xlsx,no,PASS,0.5437174345826498,,,,,,,,,0,0,0,1,0,0,0,0,0,73,73,73,,,,,,,,,,,,,,,,,,,,,,,,,,,,,,,,,,,,,,,,,,,,,,,,,,,,,,,,,,,,,,,,,,,,,,,,,,,,,,,1.71,568.6693115999806,None,space,1,0.31704510003328323,570.4862389999907,None,570.4862389999907,None,570.4862389999907,None,,,,,,,,,,,P006,fencog,1,Pre,2021_Jul_14_1031,Go No-Go Task,2021.1.4,119.95197125599329,
,"Rule: When you see a yellow image, do not press 'spacebar'.",Images/Happy/AM19HAS.jpg,Happy,Blue,Images/Blue.jpg,space,ParentConditions/YellowYellowBlue_v1.xlsx,YellowYellowBlue,Conditions/Version_1/YellowFearStop.xlsx,no,PASS,0.4048546584074827,,,,,,,,,0,0,0,1,0,0,0,0,0,74,74,74,,,,,,,,,,,,,,,,,,,,,,,,,,,,,,,,,,,,,,,,,,,,,,,,,,,,,,,,,,,,,,,,,,,,,,,,,,,,,,,1.62,570.887723199965,None,space,1,0.2889452000381425,572.6106041999883,None,572.6106041999883,None,572.6106041999883,None,,,,,,,,,,,P006,fencog,1,Pre,2021_Jul_14_1031,Go No-Go Task,2021.1.4,119.95197125599329,
,"Rule: When you see a yellow image, do not press 'spacebar'.",Images/Happy/AM01HAS.jpg,Happy,Blue,Images/Blue.jpg,space,ParentConditions/YellowYellowBlue_v1.xlsx,YellowYellowBlue,Conditions/Version_1/YellowFearStop.xlsx,no,PASS,0.668098744931977,,,,,,,,,0,0,0,1,0,0,0,0,0,75,75,75,,,,,,,,,,,,,,,,,,,,,,,,,,,,,,,,,,,,,,,,,,,,,,,,,,,,,,,,,,,,,,,,,,,,,,,,,,,,,,,1.27,573.0210217999993,None,space,1,0.306886599981226,574.393457899976,None,574.393457899976,None,574.393457899976,None,,,,,,,,,,,P006,fencog,1,Pre,2021_Jul_14_1031,Go No-Go Task,2021.1.4,119.95197125599329,
,"Rule: When you see a yellow image, do not press 'spacebar'.",Images/Happy/WF05_HC.jpg,Happy,Blue,Images/Blue.jpg,space,ParentConditions/YellowYellowBlue_v1.xlsx,YellowYellowBlue,Conditions/Version_1/YellowFearStop.xlsx,no,PASS,0.3346503168901146,,,,,,,,,0,0,0,1,0,0,0,0,0,76,76,76,,,,,,,,,,,,,,,,,,,,,,,,,,,,,,,,,,,,,,,,,,,,,,,,,,,,,,,,,,,,,,,,,,,,,,,,,,,,,,,1.57,574.7932978000026,None,space,1,0.2866276000277139,576.4678514999687,None,576.4678514999687,None,576.4678514999687,None,,,,,,,,,,,P006,fencog,1,Pre,2021_Jul_14_1031,Go No-Go Task,2021.1.4,119.95197125599329,
,"Rule: When you see a yellow image, do not press 'spacebar'.",Images/Happy/BM03_HO.jpg,Happy,Blue,Images/Blue.jpg,space,ParentConditions/YellowYellowBlue_v1.xlsx,YellowYellowBlue,Conditions/Version_1/YellowFearStop.xlsx,no,PASS,0.8309182769230548,,,,,,,,,0,0,0,1,0,0,0,0,0,77,77,77,,,,,,,,,,,,,,,,,,,,,,,,,,,,,,,,,,,,,,,,,,,,,,,,,,,,,,,,,,,,,,,,,,,,,,,,,,,,,,,1.45,576.8680278999964,None,space,1,0.28165500005707145,578.4255469999625,None,578.4255469999625,None,578.4255469999625,None,,,,,,,,,,,P006,fencog,1,Pre,2021_Jul_14_1031,Go No-Go Task,2021.1.4,119.95197125599329,
,"Rule: When you see a yellow image, do not press 'spacebar'.",Images/Happy/AM02_HE.jpg,Happy,Blue,Images/Blue.jpg,space,ParentConditions/YellowYellowBlue_v1.xlsx,YellowYellowBlue,Conditions/Version_1/YellowFearStop.xlsx,no,PASS,0.732833616031058,,,,,,,,,0,0,0,1,0,0,0,0,0,78,78,78,,,,,,,,,,,,,,,,,,,,,,,,,,,,,,,,,,,,,,,,,,,,,,,,,,,,,,,,,,,,,,,,,,,,,,,,,,,,,,,1.68,578.8262069000048,None,space,1,0.266642700007651,580.6083004999673,None,580.6083004999673,None,580.6083004999673,None,,,,,,,,,,,P006,fencog,1,Pre,2021_Jul_14_1031,Go No-Go Task,2021.1.4,119.95197125599329,
,"Rule: When you see a yellow image, do not press 'spacebar'.",Images/Fearful/AM06_FO.jpg,Fear,Yellow,Images/Yellow.jpg,None,ParentConditions/YellowYellowBlue_v1.xlsx,YellowYellowBlue,Conditions/Version_1/YellowFearStop.xlsx,yes,PASS,0.2239834878173258,,,,,,,,,0,0,0,1,0,0,0,0,0,79,79,79,,,,,,,,,,,,,,,,,,,,,,,,,,,,,,,,,,,,,,,,,,,,,,,,,,,,,,,,,,,,,,,,,,,,,,,,,,,,,,,1.63,581.0106230999809,None,None,1,,582.7410196999554,None,582.7410196999554,None,582.7410196999554,None,,,,,,,,,,,P006,fencog,1,Pre,2021_Jul_14_1031,Go No-Go Task,2021.1.4,119.95197125599329,
,"Rule: When you see a yellow image, do not press 'spacebar'.",Images/Scram2/HM09_NC.jpg,Scramble,Blue,Images/Blue.jpg,space,ParentConditions/YellowYellowBlue_v1.xlsx,YellowYellowBlue,Conditions/Version_1/YellowScramStop.xlsx,no,PASS,0.16546209529303746,,,,,,,,,0,0,0,1,0,1,1,1,0,0,0,0,,,,,,,,,,,,,,,,,,,,,,,,,,,,,,,,,,,,,,,,,,,,,,,,,,,,,,,,,,,,,,,,,602.1439736000029,None,605.1338855999638,None,space,7.260813600034453,605.1338855999638,None,602.1439736000029,None,602.1439736000029,None,602.1439736000029,None,1.24,612.441042899969,None,None,0,,613.7817428999697,None,613.7817428999697,None,613.7817428999697,None,583.1612934999866,None,space,18.465821999998298,583.6567223999882,None,583.1612934999866,None,583.1612934999866,None,P006,fencog,1,Pre,2021_Jul_14_1031,Go No-Go Task,2021.1.4,119.95197125599329,
,"Rule: When you see a yellow image, do not press 'spacebar'.",Images/Scram2/HM06_NC.jpg,Scramble,Blue,Images/Blue.jpg,space,ParentConditions/YellowYellowBlue_v1.xlsx,YellowYellowBlue,Conditions/Version_1/YellowScramStop.xlsx,no,PASS,0.8979675286244925,,,,,,,,,0,0,0,1,0,1,1,1,0,1,1,1,,,,,,,,,,,,,,,,,,,,,,,,,,,,,,,,,,,,,,,,,,,,,,,,,,,,,,,,,,,,,,,,,,,,,,,,,,,,,,,1.93,614.1853182999766,None,space,1,0.24384000001009554,616.2227387999883,None,616.2227387999883,None,616.2227387999883,None,,,,,,,,,,,P006,fencog,1,Pre,2021_Jul_14_1031,Go No-Go Task,2021.1.4,119.95197125599329,
,"Rule: When you see a yellow image, do not press 'spacebar'.",Images/Scram1/AM31NES.jpg,Scramble,Blue,Images/Blue.jpg,space,ParentConditions/YellowYellowBlue_v1.xlsx,YellowYellowBlue,Conditions/Version_1/YellowScramStop.xlsx,no,PASS,0.9231879679928262,,,,,,,,,0,0,0,1,0,1,1,1,0,2,2,2,,,,,,,,,,,,,,,,,,,,,,,,,,,,,,,,,,,,,,,,,,,,,,,,,,,,,,,,,,,,,,,,,,,,,,,,,,,,,,,1.46,616.6233452999732,None,space,1,0.27792059996863827,618.1888132999884,None,618.1888132999884,None,618.1888132999884,None,,,,,,,,,,,P006,fencog,1,Pre,2021_Jul_14_1031,Go No-Go Task,2021.1.4,119.95197125599329,
,"Rule: When you see a yellow image, do not press 'spacebar'.",Images/Scram2/AM03NES.jpg,Scramble,Yellow,Images/Yellow.jpg,None,ParentConditions/YellowYellowBlue_v1.xlsx,YellowYellowBlue,Conditions/Version_1/YellowScramStop.xlsx,yes,PASS,0.5123844621609239,,,,,,,,,0,0,0,1,0,1,1,1,0,3,3,3,,,,,,,,,,,,,,,,,,,,,,,,,,,,,,,,,,,,,,,,,,,,,,,,,,,,,,,,,,,,,,,,,,,,,,,,,,,,,,,1.57,618.598215099948,None,None,1,,620.2715172999888,None,620.2715172999888,None,620.2715172999888,None,,,,,,,,,,,P006,fencog,1,Pre,2021_Jul_14_1031,Go No-Go Task,2021.1.4,119.95197125599329,
,"Rule: When you see a yellow image, do not press 'spacebar'.",Images/Scram2/BM01_NC.jpg,Scramble,Blue,Images/Blue.jpg,space,ParentConditions/YellowYellowBlue_v1.xlsx,YellowYellowBlue,Conditions/Version_1/YellowScramStop.xlsx,no,PASS,0.9647622626448304,,,,,,,,,0,0,0,1,0,1,1,1,0,4,4,4,,,,,,,,,,,,,,,,,,,,,,,,,,,,,,,,,,,,,,,,,,,,,,,,,,,,,,,,,,,,,,,,,,,,,,,,,,,,,,,1.33,620.6774221999804,None,space,1,0.29081769997719675,622.1126622000011,None,622.1126622000011,None,622.1126622000011,None,,,,,,,,,,,P006,fencog,1,Pre,2021_Jul_14_1031,Go No-Go Task,2021.1.4,119.95197125599329,
,"Rule: When you see a yellow image, do not press 'spacebar'.",Images/Scram1/HM09_NC.jpg,Scramble,Blue,Images/Blue.jpg,space,ParentConditions/YellowYellowBlue_v1.xlsx,YellowYellowBlue,Conditions/Version_1/YellowScramStop.xlsx,no,PASS,0.0006879251870249847,,,,,,,,,0,0,0,1,0,1,1,1,0,5,5,5,,,,,,,,,,,,,,,,,,,,,,,,,,,,,,,,,,,,,,,,,,,,,,,,,,,,,,,,,,,,,,,,,,,,,,,,,,,,,,,1.35,622.5208997000009,None,space,1,0.25582620000932366,623.9792995000025,None,623.9792995000025,None,623.9792995000025,None,,,,,,,,,,,P006,fencog,1,Pre,2021_Jul_14_1031,Go No-Go Task,2021.1.4,119.95197125599329,
,"Rule: When you see a yellow image, do not press 'spacebar'.",Images/Scram2/BF07_NC.jpg,Scramble,Blue,Images/Blue.jpg,space,ParentConditions/YellowYellowBlue_v1.xlsx,YellowYellowBlue,Conditions/Version_1/YellowScramStop.xlsx,no,PASS,0.9958823679259557,,,,,,,,,0,0,0,1,0,1,1,1,0,6,6,6,,,,,,,,,,,,,,,,,,,,,,,,,,,,,,,,,,,,,,,,,,,,,,,,,,,,,,,,,,,,,,,,,,,,,,,,,,,,,,,1.89,624.3778483999777,None,space,1,0.26545720000285655,626.3696969999583,None,626.3696969999583,None,626.3696969999583,None,,,,,,,,,,,P006,fencog,1,Pre,2021_Jul_14_1031,Go No-Go Task,2021.1.4,119.95197125599329,
,"Rule: When you see a yellow image, do not press 'spacebar'.",Images/Scram1/BF14_NC.jpg,Scramble,Blue,Images/Blue.jpg,space,ParentConditions/YellowYellowBlue_v1.xlsx,YellowYellowBlue,Conditions/Version_1/YellowScramStop.xlsx,no,PASS,0.23975965807979494,,,,,,,,,0,0,0,1,0,1,1,1,0,7,7,7,,,,,,,,,,,,,,,,,,,,,,,,,,,,,,,,,,,,,,,,,,,,,,,,,,,,,,,,,,,,,,,,,,,,,,,,,,,,,,,1.61,626.7699339999817,None,space,1,0.3006850999663584,628.4857636999805,None,628.4857636999805,None,628.4857636999805,None,,,,,,,,,,,P006,fencog,1,Pre,2021_Jul_14_1031,Go No-Go Task,2021.1.4,119.95197125599329,
,"Rule: When you see a yellow image, do not press 'spacebar'.",Images/Scram2/AF10_NC.jpg,Scramble,Blue,Images/Blue.jpg,space,ParentConditions/YellowYellowBlue_v1.xlsx,YellowYellowBlue,Conditions/Version_1/YellowScramStop.xlsx,no,PASS,0.23192838167496266,,,,,,,,,0,0,0,1,0,1,1,1,0,8,8,8,,,,,,,,,,,,,,,,,,,,,,,,,,,,,,,,,,,,,,,,,,,,,,,,,,,,,,,,,,,,,,,,,,,,,,,,,,,,,,,1.64,628.8866026999895,None,space,1,0.2722308000084013,630.626833199989,None,630.626833199989,None,630.626833199989,None,,,,,,,,,,,P006,fencog,1,Pre,2021_Jul_14_1031,Go No-Go Task,2021.1.4,119.95197125599329,
,"Rule: When you see a yellow image, do not press 'spacebar'.",Images/Scram2/AF01_NC.jpg,Scramble,Blue,Images/Blue.jpg,space,ParentConditions/YellowYellowBlue_v1.xlsx,YellowYellowBlue,Conditions/Version_1/YellowScramStop.xlsx,no,PASS,0.030564678936407685,,,,,,,,,0,0,0,1,0,1,1,1,0,9,9,9,,,,,,,,,,,,,,,,,,,,,,,,,,,,,,,,,,,,,,,,,,,,,,,,,,,,,,,,,,,,,,,,,,,,,,,,,,,,,,,1.87,631.0266815999639,None,space,1,0.3536276000086218,633.0010504999664,None,633.0010504999664,None,633.0010504999664,None,,,,,,,,,,,P006,fencog,1,Pre,2021_Jul_14_1031,Go No-Go Task,2021.1.4,119.95197125599329,
,"Rule: When you see a yellow image, do not press 'spacebar'.",Images/Scram2/AF24NES.jpg,Scramble,Blue,Images/Blue.jpg,space,ParentConditions/YellowYellowBlue_v1.xlsx,YellowYellowBlue,Conditions/Version_1/YellowScramStop.xlsx,no,PASS,0.3257124610951796,,,,,,,,,0,0,0,1,0,1,1,1,0,10,10,10,,,,,,,,,,,,,,,,,,,,,,,,,,,,,,,,,,,,,,,,,,,,,,,,,,,,,,,,,,,,,,,,,,,,,,,,,,,,,,,1.22,633.406937599997,None,space,1,0.2693437999696471,634.7338831999805,None,634.7338831999805,None,634.7338831999805,None,,,,,,,,,,,P006,fencog,1,Pre,2021_Jul_14_1031,Go No-Go Task,2021.1.4,119.95197125599329,
,"Rule: When you see a yellow image, do not press 'spacebar'.",Images/Scram2/BF14_NC.jpg,Scramble,Blue,Images/Blue.jpg,space,ParentConditions/YellowYellowBlue_v1.xlsx,YellowYellowBlue,Conditions/Version_1/YellowScramStop.xlsx,no,PASS,0.7452625323265352,,,,,,,,,0,0,0,1,0,1,1,1,0,11,11,11,,,,,,,,,,,,,,,,,,,,,,,,,,,,,,,,,,,,,,,,,,,,,,,,,,,,,,,,,,,,,,,,,,,,,,,,,,,,,,,1.42,635.1346219999832,None,space,1,0.3527198000228964,636.6583789999713,None,636.6583789999713,None,636.6583789999713,None,,,,,,,,,,,P006,fencog,1,Pre,2021_Jul_14_1031,Go No-Go Task,2021.1.4,119.95197125599329,
,"Rule: When you see a yellow image, do not press 'spacebar'.",Images/Scram1/AM13NES.jpg,Scramble,Blue,Images/Blue.jpg,space,ParentConditions/YellowYellowBlue_v1.xlsx,YellowYellowBlue,Conditions/Version_1/YellowScramStop.xlsx,no,PASS,0.49399354825257,,,,,,,,,0,0,0,1,0,1,1,1,0,12,12,12,,,,,,,,,,,,,,,,,,,,,,,,,,,,,,,,,,,,,,,,,,,,,,,,,,,,,,,,,,,,,,,,,,,,,,,,,,,,,,,1.71,637.0585181999486,None,space,1,0.28115860000252724,638.8744709999883,None,638.8744709999883,None,638.8744709999883,None,,,,,,,,,,,P006,fencog,1,Pre,2021_Jul_14_1031,Go No-Go Task,2021.1.4,119.95197125599329,
,"Rule: When you see a yellow image, do not press 'spacebar'.",Images/Scram1/HM04_NC.jpg,Scramble,Blue,Images/Blue.jpg,space,ParentConditions/YellowYellowBlue_v1.xlsx,YellowYellowBlue,Conditions/Version_1/YellowScramStop.xlsx,no,PASS,0.18467466618813977,,,,,,,,,0,0,0,1,0,1,1,1,0,13,13,13,,,,,,,,,,,,,,,,,,,,,,,,,,,,,,,,,,,,,,,,,,,,,,,,,,,,,,,,,,,,,,,,,,,,,,,,,,,,,,,2,639.2834170999704,None,space,1,0.3490622999961488,641.3902384999674,None,641.3902384999674,None,641.3902384999674,None,,,,,,,,,,,P006,fencog,1,Pre,2021_Jul_14_1031,Go No-Go Task,2021.1.4,119.95197125599329,
,"Rule: When you see a yellow image, do not press 'spacebar'.",Images/Scram1/AM03NES.jpg,Scramble,Blue,Images/Blue.jpg,space,ParentConditions/YellowYellowBlue_v1.xlsx,YellowYellowBlue,Conditions/Version_1/YellowScramStop.xlsx,no,PASS,0.036392655954534225,,,,,,,,,0,0,0,1,0,1,1,1,0,14,14,14,,,,,,,,,,,,,,,,,,,,,,,,,,,,,,,,,,,,,,,,,,,,,,,,,,,,,,,,,,,,,,,,,,,,,,,,,,,,,,,1.29,641.7948723000009,None,space,1,0.3331684999866411,643.1898037999636,None,643.1898037999636,None,643.1898037999636,None,,,,,,,,,,,P006,fencog,1,Pre,2021_Jul_14_1031,Go No-Go Task,2021.1.4,119.95197125599329,
,"Rule: When you see a yellow image, do not press 'spacebar'.",Images/Scram1/AM22NES.jpg,Scramble,Blue,Images/Blue.jpg,space,ParentConditions/YellowYellowBlue_v1.xlsx,YellowYellowBlue,Conditions/Version_1/YellowScramStop.xlsx,no,PASS,0.46426586463932284,,,,,,,,,0,0,0,1,0,1,1,1,0,15,15,15,,,,,,,,,,,,,,,,,,,,,,,,,,,,,,,,,,,,,,,,,,,,,,,,,,,,,,,,,,,,,,,,,,,,,,,,,,,,,,,1.72,643.5935654999921,None,space,1,0.2690460999729112,645.4140989999869,None,645.4140989999869,None,645.4140989999869,None,,,,,,,,,,,P006,fencog,1,Pre,2021_Jul_14_1031,Go No-Go Task,2021.1.4,119.95197125599329,
,"Rule: When you see a yellow image, do not press 'spacebar'.",Images/Scram2/AM17NES.jpg,Scramble,Yellow,Images/Yellow.jpg,None,ParentConditions/YellowYellowBlue_v1.xlsx,YellowYellowBlue,Conditions/Version_1/YellowScramStop.xlsx,yes,PASS,0.9679079792094736,,,,,,,,,0,0,0,1,0,1,1,1,0,16,16,16,,,,,,,,,,,,,,,,,,,,,,,,,,,,,,,,,,,,,,,,,,,,,,,,,,,,,,,,,,,,,,,,,,,,,,,,,,,,,,,1.28,645.8215342999902,None,None,1,,647.2052697999752,None,647.2052697999752,None,647.2052697999752,None,,,,,,,,,,,P006,fencog,1,Pre,2021_Jul_14_1031,Go No-Go Task,2021.1.4,119.95197125599329,
,"Rule: When you see a yellow image, do not press 'spacebar'.",Images/Scram1/AM10NES.jpg,Scramble,Blue,Images/Blue.jpg,space,ParentConditions/YellowYellowBlue_v1.xlsx,YellowYellowBlue,Conditions/Version_1/YellowScramStop.xlsx,no,PASS,0.60606204058038,,,,,,,,,0,0,0,1,0,1,1,1,0,17,17,17,,,,,,,,,,,,,,,,,,,,,,,,,,,,,,,,,,,,,,,,,,,,,,,,,,,,,,,,,,,,,,,,,,,,,,,,,,,,,,,1.75,647.6060685999691,None,space,1,0.25186600000597537,649.4628780999919,None,649.4628780999919,None,649.4628780999919,None,,,,,,,,,,,P006,fencog,1,Pre,2021_Jul_14_1031,Go No-Go Task,2021.1.4,119.95197125599329,
,"Rule: When you see a yellow image, do not press 'spacebar'.",Images/Scram2/AM03_NC.jpg,Scramble,Yellow,Images/Yellow.jpg,None,ParentConditions/YellowYellowBlue_v1.xlsx,YellowYellowBlue,Conditions/Version_1/YellowScramStop.xlsx,yes,PASS,0.375029210281841,,,,,,,,,0,0,0,1,0,1,1,1,0,18,18,18,,,,,,,,,,,,,,,,,,,,,,,,,,,,,,,,,,,,,,,,,,,,,,,,,,,,,,,,,,,,,,,,,,,,,,,,,,,,,,,1.92,649.8643184999819,None,None,1,,651.8872455999954,None,651.8872455999954,None,651.8872455999954,None,,,,,,,,,,,P006,fencog,1,Pre,2021_Jul_14_1031,Go No-Go Task,2021.1.4,119.95197125599329,
,"Rule: When you see a yellow image, do not press 'spacebar'.",Images/Scram1/HF09_NC.jpg,Scramble,Blue,Images/Blue.jpg,space,ParentConditions/YellowYellowBlue_v1.xlsx,YellowYellowBlue,Conditions/Version_1/YellowScramStop.xlsx,no,PASS,0.5505947352432977,,,,,,,,,0,0,0,1,0,1,1,1,0,19,19,19,,,,,,,,,,,,,,,,,,,,,,,,,,,,,,,,,,,,,,,,,,,,,,,,,,,,,,,,,,,,,,,,,,,,,,,,,,,,,,,1.78,652.2931189999799,None,space,1,0.2326628000009805,654.1781281000003,None,654.1781281000003,None,654.1781281000003,None,,,,,,,,,,,P006,fencog,1,Pre,2021_Jul_14_1031,Go No-Go Task,2021.1.4,119.95197125599329,
,"Rule: When you see a yellow image, do not press 'spacebar'.",Images/Scram1/BM08_NC.jpg,Scramble,Blue,Images/Blue.jpg,space,ParentConditions/YellowYellowBlue_v1.xlsx,YellowYellowBlue,Conditions/Version_1/YellowScramStop.xlsx,no,PASS,0.1123919377407171,,,,,,,,,0,0,0,1,0,1,1,1,0,20,20,20,,,,,,,,,,,,,,,,,,,,,,,,,,,,,,,,,,,,,,,,,,,,,,,,,,,,,,,,,,,,,,,,,,,,,,,,,,,,,,,1.79,654.581594599993,None,space,1,0.3172315999981947,656.4774459999753,None,656.4774459999753,None,656.4774459999753,None,,,,,,,,,,,P006,fencog,1,Pre,2021_Jul_14_1031,Go No-Go Task,2021.1.4,119.95197125599329,
,"Rule: When you see a yellow image, do not press 'spacebar'.",Images/Scram1/AF32NES.jpg,Scramble,Blue,Images/Blue.jpg,space,ParentConditions/YellowYellowBlue_v1.xlsx,YellowYellowBlue,Conditions/Version_1/YellowScramStop.xlsx,no,PASS,0.6647641829322217,,,,,,,,,0,0,0,1,0,1,1,1,0,21,21,21,,,,,,,,,,,,,,,,,,,,,,,,,,,,,,,,,,,,,,,,,,,,,,,,,,,,,,,,,,,,,,,,,,,,,,,,,,,,,,,1.54,656.87653889996,None,space,1,0.29221220000181347,658.5186172999674,None,658.5186172999674,None,658.5186172999674,None,,,,,,,,,,,P006,fencog,1,Pre,2021_Jul_14_1031,Go No-Go Task,2021.1.4,119.95197125599329,
,"Rule: When you see a yellow image, do not press 'spacebar'.",Images/Scram2/AM06_NC.jpg,Scramble,Yellow,Images/Yellow.jpg,None,ParentConditions/YellowYellowBlue_v1.xlsx,YellowYellowBlue,Conditions/Version_1/YellowScramStop.xlsx,yes,PASS,0.3634874867374246,,,,,,,,,0,0,0,1,0,1,1,1,0,22,22,22,,,,,,,,,,,,,,,,,,,,,,,,,,,,,,,,,,,,,,,,,,,,,,,,,,,,,,,,,,,,,,,,,,,,,,,,,,,,,,,1.39,658.9200911999797,None,None,1,,660.4179944999632,None,660.4179944999632,None,660.4179944999632,None,,,,,,,,,,,P006,fencog,1,Pre,2021_Jul_14_1031,Go No-Go Task,2021.1.4,119.95197125599329,
,"Rule: When you see a yellow image, do not press 'spacebar'.",Images/Scram1/AM06_NC.jpg,Scramble,Blue,Images/Blue.jpg,space,ParentConditions/YellowYellowBlue_v1.xlsx,YellowYellowBlue,Conditions/Version_1/YellowScramStop.xlsx,no,PASS,0.9155941996303448,,,,,,,,,0,0,0,1,0,1,1,1,0,23,23,23,,,,,,,,,,,,,,,,,,,,,,,,,,,,,,,,,,,,,,,,,,,,,,,,,,,,,,,,,,,,,,,,,,,,,,,,,,,,,,,1.45,660.8181656999514,None,space,1,0.250807500036899,662.3757718999987,None,662.3757718999987,None,662.3757718999987,None,,,,,,,,,,,P006,fencog,1,Pre,2021_Jul_14_1031,Go No-Go Task,2021.1.4,119.95197125599329,
,"Rule: When you see a yellow image, do not press 'spacebar'.",Images/Scram2/AM02_NC.jpg,Scramble,Yellow,Images/Yellow.jpg,None,ParentConditions/YellowYellowBlue_v1.xlsx,YellowYellowBlue,Conditions/Version_1/YellowScramStop.xlsx,yes,PASS,0.40349662212467063,,,,,,,,,0,0,0,1,0,1,1,1,0,24,24,24,,,,,,,,,,,,,,,,,,,,,,,,,,,,,,,,,,,,,,,,,,,,,,,,,,,,,,,,,,,,,,,,,,,,,,,,,,,,,,,1.59,662.7759600999998,None,None,1,,664.4668036999647,None,664.4668036999647,None,664.4668036999647,None,,,,,,,,,,,P006,fencog,1,Pre,2021_Jul_14_1031,Go No-Go Task,2021.1.4,119.95197125599329,
,"Rule: When you see a yellow image, do not press 'spacebar'.",Images/Scram2/HF05_NC.jpg,Scramble,Blue,Images/Blue.jpg,space,ParentConditions/YellowYellowBlue_v1.xlsx,YellowYellowBlue,Conditions/Version_1/YellowScramStop.xlsx,no,PASS,0.921711635827277,,,,,,,,,0,0,0,1,0,1,1,1,0,25,25,25,,,,,,,,,,,,,,,,,,,,,,,,,,,,,,,,,,,,,,,,,,,,,,,,,,,,,,,,,,,,,,,,,,,,,,,,,,,,,,,1.49,664.8676229999983,None,space,1,0.30496159999165684,666.4577920999727,None,666.4577920999727,None,666.4577920999727,None,,,,,,,,,,,P006,fencog,1,Pre,2021_Jul_14_1031,Go No-Go Task,2021.1.4,119.95197125599329,
,"Rule: When you see a yellow image, do not press 'spacebar'.",Images/Scram2/AF32NES.jpg,Scramble,Yellow,Images/Yellow.jpg,None,ParentConditions/YellowYellowBlue_v1.xlsx,YellowYellowBlue,Conditions/Version_1/YellowScramStop.xlsx,yes,PASS,0.017466824187156504,,,,,,,,,0,0,0,1,0,1,1,1,0,26,26,26,,,,,,,,,,,,,,,,,,,,,,,,,,,,,,,,,,,,,,,,,,,,,,,,,,,,,,,,,,,,,,,,,,,,,,,,,,,,,,,1.8,666.8587219999754,None,None,1,,668.7655320999911,None,668.7655320999911,None,668.7655320999911,None,,,,,,,,,,,P006,fencog,1,Pre,2021_Jul_14_1031,Go No-Go Task,2021.1.4,119.95197125599329,
,"Rule: When you see a yellow image, do not press 'spacebar'.",Images/Scram2/HM04_NC.jpg,Scramble,Blue,Images/Blue.jpg,space,ParentConditions/YellowYellowBlue_v1.xlsx,YellowYellowBlue,Conditions/Version_1/YellowScramStop.xlsx,no,PASS,0.5736341227927889,,,,,,,,,0,0,0,1,0,1,1,1,0,27,27,27,,,,,,,,,,,,,,,,,,,,,,,,,,,,,,,,,,,,,,,,,,,,,,,,,,,,,,,,,,,,,,,,,,,,,,,,,,,,,,,1.84,669.1647999999695,None,space,1,0.3039876000257209,671.1064546999987,None,671.1064546999987,None,671.1064546999987,None,,,,,,,,,,,P006,fencog,1,Pre,2021_Jul_14_1031,Go No-Go Task,2021.1.4,119.95197125599329,
,"Rule: When you see a yellow image, do not press 'spacebar'.",Images/Scram2/AF25NES.jpg,Scramble,Blue,Images/Blue.jpg,space,ParentConditions/YellowYellowBlue_v1.xlsx,YellowYellowBlue,Conditions/Version_1/YellowScramStop.xlsx,no,PASS,0.4815009065668029,,,,,,,,,0,0,0,1,0,1,1,1,0,28,28,28,,,,,,,,,,,,,,,,,,,,,,,,,,,,,,,,,,,,,,,,,,,,,,,,,,,,,,,,,,,,,,,,,,,,,,,,,,,,,,,1.81,671.5122771000024,None,space,1,0.3643733999924734,673.4224963999586,None,673.4224963999586,None,673.4224963999586,None,,,,,,,,,,,P006,fencog,1,Pre,2021_Jul_14_1031,Go No-Go Task,2021.1.4,119.95197125599329,
,"Rule: When you see a yellow image, do not press 'spacebar'.",Images/Scram1/AF34NES.jpg,Scramble,Blue,Images/Blue.jpg,space,ParentConditions/YellowYellowBlue_v1.xlsx,YellowYellowBlue,Conditions/Version_1/YellowScramStop.xlsx,no,PASS,0.16322109337010782,,,,,,,,,0,0,0,1,0,1,1,1,0,29,29,29,,,,,,,,,,,,,,,,,,,,,,,,,,,,,,,,,,,,,,,,,,,,,,,,,,,,,,,,,,,,,,,,,,,,,,,,,,,,,,,1.95,673.821841500001,None,space,1,0.29136179998749867,675.8717228999594,None,675.8717228999594,None,675.8717228999594,None,,,,,,,,,,,P006,fencog,1,Pre,2021_Jul_14_1031,Go No-Go Task,2021.1.4,119.95197125599329,
,"Rule: When you see a yellow image, do not press 'spacebar'.",Images/Scram2/AF11NES.jpg,Scramble,Blue,Images/Blue.jpg,space,ParentConditions/YellowYellowBlue_v1.xlsx,YellowYellowBlue,Conditions/Version_1/YellowScramStop.xlsx,no,PASS,0.863906943339551,,,,,,,,,0,0,0,1,0,1,1,1,0,30,30,30,,,,,,,,,,,,,,,,,,,,,,,,,,,,,,,,,,,,,,,,,,,,,,,,,,,,,,,,,,,,,,,,,,,,,,,,,,,,,,,1.6,676.2809956999845,None,space,1,0.2633012000005692,677.9877438999829,None,677.9877438999829,None,677.9877438999829,None,,,,,,,,,,,P006,fencog,1,Pre,2021_Jul_14_1031,Go No-Go Task,2021.1.4,119.95197125599329,
,"Rule: When you see a yellow image, do not press 'spacebar'.",Images/Scram2/AF34NES.jpg,Scramble,Yellow,Images/Yellow.jpg,None,ParentConditions/YellowYellowBlue_v1.xlsx,YellowYellowBlue,Conditions/Version_1/YellowScramStop.xlsx,yes,PASS,0.06159009202316168,,,,,,,,,0,0,0,1,0,1,1,1,0,31,31,31,,,,,,,,,,,,,,,,,,,,,,,,,,,,,,,,,,,,,,,,,,,,,,,,,,,,,,,,,,,,,,,,,,,,,,,,,,,,,,,1.9,678.3965247999877,None,None,1,,680.4037231999682,None,680.4037231999682,None,680.4037231999682,None,,,,,,,,,,,P006,fencog,1,Pre,2021_Jul_14_1031,Go No-Go Task,2021.1.4,119.95197125599329,
,"Rule: When you see a yellow image, do not press 'spacebar'.",Images/Scram1/AM02_NC.jpg,Scramble,Blue,Images/Blue.jpg,space,ParentConditions/YellowYellowBlue_v1.xlsx,YellowYellowBlue,Conditions/Version_1/YellowScramStop.xlsx,no,PASS,0.7758508003758968,,,,,,,,,0,0,0,1,0,1,1,1,0,32,32,32,,,,,,,,,,,,,,,,,,,,,,,,,,,,,,,,,,,,,,,,,,,,,,,,,,,,,,,,,,,,,,,,,,,,,,,,,,,,,,,1.67,680.8085119999596,None,space,1,0.2561310000019148,682.5872957999818,None,682.5872957999818,None,682.5872957999818,None,,,,,,,,,,,P006,fencog,1,Pre,2021_Jul_14_1031,Go No-Go Task,2021.1.4,119.95197125599329,
,"Rule: When you see a yellow image, do not press 'spacebar'.",Images/Scram2/AM13NES.jpg,Scramble,Yellow,Images/Yellow.jpg,None,ParentConditions/YellowYellowBlue_v1.xlsx,YellowYellowBlue,Conditions/Version_1/YellowScramStop.xlsx,yes,PASS,0.6726515097084437,,,,,,,,,0,0,0,1,0,1,1,1,0,33,33,33,,,,,,,,,,,,,,,,,,,,,,,,,,,,,,,,,,,,,,,,,,,,,,,,,,,,,,,,,,,,,,,,,,,,,,,,,,,,,,,1.74,682.9885560999974,None,None,1,,684.8357967999764,None,684.8357967999764,None,684.8357967999764,None,,,,,,,,,,,P006,fencog,1,Pre,2021_Jul_14_1031,Go No-Go Task,2021.1.4,119.95197125599329,
,"Rule: When you see a yellow image, do not press 'spacebar'.",Images/Scram1/AM03_NC.jpg,Scramble,Blue,Images/Blue.jpg,space,ParentConditions/YellowYellowBlue_v1.xlsx,YellowYellowBlue,Conditions/Version_1/YellowScramStop.xlsx,no,PASS,0.060310837369876635,,,,,,,,,0,0,0,1,0,1,1,1,0,34,34,34,,,,,,,,,,,,,,,,,,,,,,,,,,,,,,,,,,,,,,,,,,,,,,,,,,,,,,,,,,,,,,,,,,,,,,,,,,,,,,,1.82,685.2364977999823,None,space,1,0.27554340002825484,687.1517340999562,None,687.1517340999562,None,687.1517340999562,None,,,,,,,,,,,P006,fencog,1,Pre,2021_Jul_14_1031,Go No-Go Task,2021.1.4,119.95197125599329,
,"Rule: When you see a yellow image, do not press 'spacebar'.",Images/Scram1/AF33NES.jpg,Scramble,Blue,Images/Blue.jpg,space,ParentConditions/YellowYellowBlue_v1.xlsx,YellowYellowBlue,Conditions/Version_1/YellowScramStop.xlsx,no,PASS,0.9883395332949252,,,,,,,,,0,0,0,1,0,1,1,1,0,35,35,35,,,,,,,,,,,,,,,,,,,,,,,,,,,,,,,,,,,,,,,,,,,,,,,,,,,,,,,,,,,,,,,,,,,,,,,,,,,,,,,1.96,687.5525502999662,None,space,1,0.31269159994553775,689.617755699961,None,689.617755699961,None,689.617755699961,None,,,,,,,,,,,P006,fencog,1,Pre,2021_Jul_14_1031,Go No-Go Task,2021.1.4,119.95197125599329,
,"Rule: When you see a yellow image, do not press 'spacebar'.",Images/Scram1/BF10_NC.jpg,Scramble,Blue,Images/Blue.jpg,space,ParentConditions/YellowYellowBlue_v1.xlsx,YellowYellowBlue,Conditions/Version_1/YellowScramStop.xlsx,no,PASS,0.832283926857634,,,,,,,,,0,0,0,1,0,1,1,1,0,36,36,36,,,,,,,,,,,,,,,,,,,,,,,,,,,,,,,,,,,,,,,,,,,,,,,,,,,,,,,,,,,,,,,,,,,,,,,,,,,,,,,1.5,690.0173980999971,None,space,1,0.2893745000474155,691.6171256999951,None,691.6171256999951,None,691.6171256999951,None,,,,,,,,,,,P006,fencog,1,Pre,2021_Jul_14_1031,Go No-Go Task,2021.1.4,119.95197125599329,
,"Rule: When you see a yellow image, do not press 'spacebar'.",Images/Scram1/AF07_NC.jpg,Scramble,Blue,Images/Blue.jpg,space,ParentConditions/YellowYellowBlue_v1.xlsx,YellowYellowBlue,Conditions/Version_1/YellowScramStop.xlsx,no,PASS,0.9763895949527831,,,,,,,,,0,0,0,1,0,1,1,1,0,37,37,37,,,,,,,,,,,,,,,,,,,,,,,,,,,,,,,,,,,,,,,,,,,,,,,,,,,,,,,,,,,,,,,,,,,,,,,,,,,,,,,1.21,692.0161643999745,None,space,1,0.2722728999797255,693.333265299967,None,693.333265299967,None,693.333265299967,None,,,,,,,,,,,P006,fencog,1,Pre,2021_Jul_14_1031,Go No-Go Task,2021.1.4,119.95197125599329,
,"Rule: When you see a yellow image, do not press 'spacebar'.",Images/Scram2/AM23NES.jpg,Scramble,Yellow,Images/Yellow.jpg,None,ParentConditions/YellowYellowBlue_v1.xlsx,YellowYellowBlue,Conditions/Version_1/YellowScramStop.xlsx,yes,PASS,0.6002481140469051,,,,,,,,,0,0,0,1,0,1,1,1,0,38,38,38,,,,,,,,,,,,,,,,,,,,,,,,,,,,,,,,,,,,,,,,,,,,,,,,,,,,,,,,,,,,,,,,,,,,,,,,,,,,,,,1.3,693.7387380999862,None,None,1,,695.1411575999809,None,695.1411575999809,None,695.1411575999809,None,,,,,,,,,,,P006,fencog,1,Pre,2021_Jul_14_1031,Go No-Go Task,2021.1.4,119.95197125599329,
,"Rule: When you see a yellow image, do not press 'spacebar'.",Images/Scram1/AF24NES.jpg,Scramble,Blue,Images/Blue.jpg,space,ParentConditions/YellowYellowBlue_v1.xlsx,YellowYellowBlue,Conditions/Version_1/YellowScramStop.xlsx,no,PASS,0.1129494583795736,,,,,,,,,0,0,0,1,0,1,1,1,0,39,39,39,,,,,,,,,,,,,,,,,,,,,,,,,,,,,,,,,,,,,,,,,,,,,,,,,,,,,,,,,,,,,,,,,,,,,,,,,,,,,,,1.43,695.5418205999886,None,space,1,0.26510280004004017,697.0739786999766,None,697.0739786999766,None,697.0739786999766,None,,,,,,,,,,,P006,fencog,1,Pre,2021_Jul_14_1031,Go No-Go Task,2021.1.4,119.95197125599329,
,"Rule: When you see a yellow image, do not press 'spacebar'.",Images/Scram2/AF33NES.jpg,Scramble,Yellow,Images/Yellow.jpg,None,ParentConditions/YellowYellowBlue_v1.xlsx,YellowYellowBlue,Conditions/Version_1/YellowScramStop.xlsx,yes,PASS,0.8037537420652296,,,,,,,,,0,0,0,1,0,1,1,1,0,40,40,40,,,,,,,,,,,,,,,,,,,,,,,,,,,,,,,,,,,,,,,,,,,,,,,,,,,,,,,,,,,,,,,,,,,,,,,,,,,,,,,1.77,697.4745956999832,None,None,1,,699.3481497999746,None,699.3481497999746,None,699.3481497999746,None,,,,,,,,,,,P006,fencog,1,Pre,2021_Jul_14_1031,Go No-Go Task,2021.1.4,119.95197125599329,
,"Rule: When you see a yellow image, do not press 'spacebar'.",Images/Scram1/AF25NES.jpg,Scramble,Blue,Images/Blue.jpg,space,ParentConditions/YellowYellowBlue_v1.xlsx,YellowYellowBlue,Conditions/Version_1/YellowScramStop.xlsx,no,PASS,0.14378736257712743,,,,,,,,,0,0,0,1,0,1,1,1,0,41,41,41,,,,,,,,,,,,,,,,,,,,,,,,,,,,,,,,,,,,,,,,,,,,,,,,,,,,,,,,,,,,,,,,,,,,,,,,,,,,,,,1.56,699.7493157999706,None,space,1,0.2606953000067733,701.4142030999647,None,701.4142030999647,None,701.4142030999647,None,,,,,,,,,,,P006,fencog,1,Pre,2021_Jul_14_1031,Go No-Go Task,2021.1.4,119.95197125599329,
,"Rule: When you see a yellow image, do not press 'spacebar'.",Images/Scram2/AM10NES.jpg,Scramble,Yellow,Images/Yellow.jpg,None,ParentConditions/YellowYellowBlue_v1.xlsx,YellowYellowBlue,Conditions/Version_1/YellowScramStop.xlsx,yes,PASS,0.5820319295028303,,,,,,,,,0,0,0,1,0,1,1,1,0,42,42,42,,,,,,,,,,,,,,,,,,,,,,,,,,,,,,,,,,,,,,,,,,,,,,,,,,,,,,,,,,,,,,,,,,,,,,,,,,,,,,,1.97,701.8148220999865,None,None,1,,703.8884102999582,None,703.8884102999582,None,703.8884102999582,None,,,,,,,,,,,P006,fencog,1,Pre,2021_Jul_14_1031,Go No-Go Task,2021.1.4,119.95197125599329,
,"Rule: When you see a yellow image, do not press 'spacebar'.",Images/Scram2/BF10_NC.jpg,Scramble,Blue,Images/Blue.jpg,space,ParentConditions/YellowYellowBlue_v1.xlsx,YellowYellowBlue,Conditions/Version_1/YellowScramStop.xlsx,no,PASS,0.2078164907866934,,,,,,,,,0,0,0,1,0,1,1,1,0,43,43,43,,,,,,,,,,,,,,,,,,,,,,,,,,,,,,,,,,,,,,,,,,,,,,,,,,,,,,,,,,,,,,,,,,,,,,,,,,,,,,,1.94,704.2906445999979,None,space,1,0.2652323000365868,706.3378356999601,None,706.3378356999601,None,706.3378356999601,None,,,,,,,,,,,P006,fencog,1,Pre,2021_Jul_14_1031,Go No-Go Task,2021.1.4,119.95197125599329,
,"Rule: When you see a yellow image, do not press 'spacebar'.",Images/Scram1/BF18_NC.jpg,Scramble,Blue,Images/Blue.jpg,space,ParentConditions/YellowYellowBlue_v1.xlsx,YellowYellowBlue,Conditions/Version_1/YellowScramStop.xlsx,no,PASS,0.3689261099445472,,,,,,,,,0,0,0,1,0,1,1,1,0,44,44,44,,,,,,,,,,,,,,,,,,,,,,,,,,,,,,,,,,,,,,,,,,,,,,,,,,,,,,,,,,,,,,,,,,,,,,,,,,,,,,,1.4,706.7486402999493,None,space,1,0.3488243999890983,708.2538062999956,None,708.2538062999956,None,708.2538062999956,None,,,,,,,,,,,P006,fencog,1,Pre,2021_Jul_14_1031,Go No-Go Task,2021.1.4,119.95197125599329,
,"Rule: When you see a yellow image, do not press 'spacebar'.",Images/Scram2/HF09_NC.jpg,Scramble,Blue,Images/Blue.jpg,space,ParentConditions/YellowYellowBlue_v1.xlsx,YellowYellowBlue,Conditions/Version_1/YellowScramStop.xlsx,no,PASS,0.286178806367275,,,,,,,,,0,0,0,1,0,1,1,1,0,45,45,45,,,,,,,,,,,,,,,,,,,,,,,,,,,,,,,,,,,,,,,,,,,,,,,,,,,,,,,,,,,,,,,,,,,,,,,,,,,,,,,1.55,708.6535191999865,None,space,1,0.3476505000144243,710.3115160999587,None,710.3115160999587,None,710.3115160999587,None,,,,,,,,,,,P006,fencog,1,Pre,2021_Jul_14_1031,Go No-Go Task,2021.1.4,119.95197125599329,
,"Rule: When you see a yellow image, do not press 'spacebar'.",Images/Scram1/BF05_NC.jpg,Scramble,Blue,Images/Blue.jpg,space,ParentConditions/YellowYellowBlue_v1.xlsx,YellowYellowBlue,Conditions/Version_1/YellowScramStop.xlsx,no,PASS,0.7692637816145413,,,,,,,,,0,0,0,1,0,1,1,1,0,46,46,46,,,,,,,,,,,,,,,,,,,,,,,,,,,,,,,,,,,,,,,,,,,,,,,,,,,,,,,,,,,,,,,,,,,,,,,,,,,,,,,1.41,710.7114236999769,None,space,1,0.3350862999795936,712.2277946999529,None,712.2277946999529,None,712.2277946999529,None,,,,,,,,,,,P006,fencog,1,Pre,2021_Jul_14_1031,Go No-Go Task,2021.1.4,119.95197125599329,
,"Rule: When you see a yellow image, do not press 'spacebar'.",Images/Scram1/AM17NES.jpg,Scramble,Blue,Images/Blue.jpg,space,ParentConditions/YellowYellowBlue_v1.xlsx,YellowYellowBlue,Conditions/Version_1/YellowScramStop.xlsx,no,PASS,0.7553300637440975,,,,,,,,,0,0,0,1,0,1,1,1,0,47,47,47,,,,,,,,,,,,,,,,,,,,,,,,,,,,,,,,,,,,,,,,,,,,,,,,,,,,,,,,,,,,,,,,,,,,,,,,,,,,,,,1.63,712.6331088999868,None,space,1,0.3376040000002831,714.3686979999766,None,714.3686979999766,None,714.3686979999766,None,,,,,,,,,,,P006,fencog,1,Pre,2021_Jul_14_1031,Go No-Go Task,2021.1.4,119.95197125599329,
,"Rule: When you see a yellow image, do not press 'spacebar'.",Images/Scram2/AM09_NC.jpg,Scramble,Yellow,Images/Yellow.jpg,None,ParentConditions/YellowYellowBlue_v1.xlsx,YellowYellowBlue,Conditions/Version_1/YellowScramStop.xlsx,yes,PASS,0.984865364539922,,,,,,,,,0,0,0,1,0,1,1,1,0,48,48,48,,,,,,,,,,,,,,,,,,,,,,,,,,,,,,,,,,,,,,,,,,,,,,,,,,,,,,,,,,,,,,,,,,,,,,,,,,,,,,,1.23,714.7691102999961,None,None,1,,716.1015285999747,None,716.1015285999747,None,716.1015285999747,None,,,,,,,,,,,P006,fencog,1,Pre,2021_Jul_14_1031,Go No-Go Task,2021.1.4,119.95197125599329,
,"Rule: When you see a yellow image, do not press 'spacebar'.",Images/Scram2/AF09NES.jpg,Scramble,Blue,Images/Blue.jpg,space,ParentConditions/YellowYellowBlue_v1.xlsx,YellowYellowBlue,Conditions/Version_1/YellowScramStop.xlsx,no,PASS,0.2099853615180053,,,,,,,,,0,0,0,1,0,1,1,1,0,49,49,49,,,,,,,,,,,,,,,,,,,,,,,,,,,,,,,,,,,,,,,,,,,,,,,,,,,,,,,,,,,,,,,,,,,,,,,,,,,,,,,1.48,716.502218199952,None,space,1,0.24618860002374277,718.0842164999922,None,718.0842164999922,None,718.0842164999922,None,,,,,,,,,,,P006,fencog,1,Pre,2021_Jul_14_1031,Go No-Go Task,2021.1.4,119.95197125599329,
,"Rule: When you see a yellow image, do not press 'spacebar'.",Images/Scram2/AM04_NC.jpg,Scramble,Yellow,Images/Yellow.jpg,None,ParentConditions/YellowYellowBlue_v1.xlsx,YellowYellowBlue,Conditions/Version_1/YellowScramStop.xlsx,yes,PASS,0.8595632143536898,,,,,,,,,0,0,0,1,0,1,1,1,0,50,50,50,,,,,,,,,,,,,,,,,,,,,,,,,,,,,,,,,,,,,,,,,,,,,,,,,,,,,,,,,,,,,,,,,,,,,,,,,,,,,,,1.52,718.4857496999903,None,None,1,,720.1086677999701,None,720.1086677999701,None,720.1086677999701,None,,,,,,,,,,,P006,fencog,1,Pre,2021_Jul_14_1031,Go No-Go Task,2021.1.4,119.95197125599329,
,"Rule: When you see a yellow image, do not press 'spacebar'.",Images/Scram2/BF05_NC.jpg,Scramble,Yellow,Images/Yellow.jpg,None,ParentConditions/YellowYellowBlue_v1.xlsx,YellowYellowBlue,Conditions/Version_1/YellowScramStop.xlsx,yes,PASS,0.9038892448018151,,,,,,,,,0,0,0,1,0,1,1,1,0,51,51,51,,,,,,,,,,,,,,,,,,,,,,,,,,,,,,,,,,,,,,,,,,,,,,,,,,,,,,,,,,,,,,,,,,,,,,,,,,,,,,,1.31,720.5130212999647,None,None,1,,721.9248117999523,None,721.9248117999523,None,721.9248117999523,None,,,,,,,,,,,P006,fencog,1,Pre,2021_Jul_14_1031,Go No-Go Task,2021.1.4,119.95197125599329,
,"Rule: When you see a yellow image, do not press 'spacebar'.",Images/Scram1/HM06_NC.jpg,Scramble,Blue,Images/Blue.jpg,space,ParentConditions/YellowYellowBlue_v1.xlsx,YellowYellowBlue,Conditions/Version_1/YellowScramStop.xlsx,no,PASS,0.7183076447823791,,,,,,,,,0,0,0,1,0,1,1,1,0,52,52,52,,,,,,,,,,,,,,,,,,,,,,,,,,,,,,,,,,,,,,,,,,,,,,,,,,,,,,,,,,,,,,,,,,,,,,,,,,,,,,,1.65,722.3309002000024,None,space,1,0.3041487000300549,724.0825577999931,None,724.0825577999931,None,724.0825577999931,None,,,,,,,,,,,P006,fencog,1,Pre,2021_Jul_14_1031,Go No-Go Task,2021.1.4,119.95197125599329,
,"Rule: When you see a yellow image, do not press 'spacebar'.",Images/Scram2/AF07NES.jpg,Scramble,Blue,Images/Blue.jpg,space,ParentConditions/YellowYellowBlue_v1.xlsx,YellowYellowBlue,Conditions/Version_1/YellowScramStop.xlsx,no,PASS,0.8685827011476244,,,,,,,,,0,0,0,1,0,1,1,1,0,53,53,53,,,,,,,,,,,,,,,,,,,,,,,,,,,,,,,,,,,,,,,,,,,,,,,,,,,,,,,,,,,,,,,,,,,,,,,,,,,,,,,1.36,724.4917758999509,None,space,1,0.31711030000587925,725.9570690999972,None,725.9570690999972,None,725.9570690999972,None,,,,,,,,,,,P006,fencog,1,Pre,2021_Jul_14_1031,Go No-Go Task,2021.1.4,119.95197125599329,
,"Rule: When you see a yellow image, do not press 'spacebar'.",Images/Scram1/BM01_NC.jpg,Scramble,Blue,Images/Blue.jpg,space,ParentConditions/YellowYellowBlue_v1.xlsx,YellowYellowBlue,Conditions/Version_1/YellowScramStop.xlsx,no,PASS,0.7516161036696042,,,,,,,,,0,0,0,1,0,1,1,1,0,54,54,54,,,,,,,,,,,,,,,,,,,,,,,,,,,,,,,,,,,,,,,,,,,,,,,,,,,,,,,,,,,,,,,,,,,,,,,,,,,,,,,1.88,726.357265300001,None,space,1,0.29545759997563437,728.339533899969,None,728.339533899969,None,728.339533899969,None,,,,,,,,,,,P006,fencog,1,Pre,2021_Jul_14_1031,Go No-Go Task,2021.1.4,119.95197125599329,
,"Rule: When you see a yellow image, do not press 'spacebar'.",Images/Scram2/AF07_NC.jpg,Scramble,Blue,Images/Blue.jpg,space,ParentConditions/YellowYellowBlue_v1.xlsx,YellowYellowBlue,Conditions/Version_1/YellowScramStop.xlsx,no,PASS,0.609812891298236,,,,,,,,,0,0,0,1,0,1,1,1,0,55,55,55,,,,,,,,,,,,,,,,,,,,,,,,,,,,,,,,,,,,,,,,,,,,,,,,,,,,,,,,,,,,,,,,,,,,,,,,,,,,,,,1.69,728.7455789999804,None,space,1,0.2719131999765523,730.5389506999636,None,730.5389506999636,None,730.5389506999636,None,,,,,,,,,,,P006,fencog,1,Pre,2021_Jul_14_1031,Go No-Go Task,2021.1.4,119.95197125599329,
