CondFileP,Instructions,FaceE,Express,ColourT,ColourF,CorrectAnsP,MasterCondFile,BlockOrder,CondFile,ColCheck,Triplicate_check,SORT_BY_SMALLEST,EPracticeOuterLoop.thisRepN,EPracticeOuterLoop.thisTrialN,EPracticeOuterLoop.thisN,EPracticeOuterLoop.thisIndex,EPracticeInnerLoop.thisRepN,EPracticeInnerLoop.thisTrialN,EPracticeInnerLoop.thisN,EPracticeInnerLoop.thisIndex,MasterLoop.thisRepN,MasterLoop.thisTrialN,MasterLoop.thisN,MasterLoop.thisIndex,OuterLoop.thisRepN,OuterLoop.thisTrialN,OuterLoop.thisN,OuterLoop.thisIndex,InnerLoop.thisRepN,InnerLoop.thisTrialN,InnerLoop.thisN,InnerLoop.thisIndex,text_13.started,text_13.stopped,key_resp_10.keys,key_resp_10.rt,key_resp_10.started,key_resp_10.stopped,text4.started,text4.stopped,EmotionTaskInstructions1.keys,EmotionTaskInstructions1.rt,EmotionTaskInstructions1.started,EmotionTaskInstructions1.stopped,text_4.started,text_4.stopped,key_resp_5.keys,key_resp_5.rt,key_resp_5.started,key_resp_5.stopped,Text_14.started,Text_14.stopped,key_resp_9.keys,key_resp_9.rt,key_resp_9.started,key_resp_9.stopped,text_5.started,text_5.stopped,text_6.started,text_6.stopped,key_resp_7.keys,key_resp_7.rt,key_resp_7.started,key_resp_7.stopped,text_10.started,text_10.stopped,text_11.started,text_11.stopped,text_12.started,text_12.stopped,ISIjitterPractice,EPracticeISIMarker.started,EPracticeISIMarker.stopped,Pract.keys,Pract.corr,Pract.started,Pract.stopped,PracticeFace.started,PracticeFace.stopped,ColourPractice.started,ColourPractice.stopped,text_7.started,text_7.stopped,Pract.rt,EndOfPractice.started,EndOfPractice.stopped,key_resp_8.keys,key_resp_8.rt,key_resp_8.started,key_resp_8.stopped,text_8.started,text_8.stopped,key_resp_6.keys,key_resp_6.rt,key_resp_6.started,key_resp_6.stopped,text_2.started,text_2.stopped,text_3.started,text_3.stopped,key_resp_3.keys,key_resp_3.rt,key_resp_3.started,key_resp_3.stopped,TaskBlock.started,TaskBlock.stopped,BlockNo1.started,BlockNo1.stopped,OfBlock.started,OfBlock.stopped,ISIjitter,ISImarker.started,ISImarker.stopped,key_resp.keys,key_resp.corr,key_resp.rt,key_resp.started,key_resp.stopped,FaceSet.started,FaceSet.stopped,Colour.started,Colour.stopped,EndBlockText.started,EndBlockText.stopped,key_resp_4.keys,key_resp_4.rt,key_resp_4.started,key_resp_4.stopped,BreakText2.started,BreakText2.stopped,PressToContinue.started,PressToContinue.stopped,participant,Study Name,Task Version (required to run),PRE/POST,date,expName,psychopyVersion,frameRate,
,,,,,,,,,,,,,,,,,,,,,,,,,,,,,,,,,25.741453900001943,None,space,2.311088800430298,26.734149999916553,None,,,,,,,,,,,,,,,,,,,,,,,,,,,,,,,,,,,,,,,,,,,,,,,,,,,,,,,,,,,,,,,,,,,,,,,,,,,,,,,,,,,,,,,,,,,,,,,P007,fencog,2,Pre,2021_Aug_04_1042,Go No-Go Task,2021.1.4,120.28700501891619,
,,,,,,,,,,,,,,,,,,,,,,,,,,,,,,,,,,,,,,,30.543711500242352,None,space,24.241301300004125,30.543711500242352,None,,,,,,,,,,,,,,,,,,,,,,,,,,,,,,,,,,,,,,,,,,,,,,,,,,,,,,,,,,,,,,,,,,,,,,,,,,,,,,,,,,,,,,,,,P007,fencog,2,Pre,2021_Aug_04_1042,Go No-Go Task,2021.1.4,120.28700501891619,
,,,,,,,,,,,,,,,,,,,,,,,,,,,,,,,,,,,,,,,,,,,,,54.84691850002855,None,space,126.85811799997464,54.84691850002855,None,,,,,,,,,,,,,,,,,,,,,,,,,,,,,,,,,,,,,,,,,,,,,,,,,,,,,,,,,,,,,,,,,,,,,,,,,,,,,,,,,,,P007,fencog,2,Pre,2021_Aug_04_1042,Go No-Go Task,2021.1.4,120.28700501891619,
,,,,,,,,,,,,,,,,,,,,,,,,,,,,,,,,,,,,,,,,,,,,,,,,,,,181.7153354003094,None,space,7.918241099920124,181.7153354003094,None,,,,,,,,,,,,,,,,,,,,,,,,,,,,,,,,,,,,,,,,,,,,,,,,,,,,,,,,,,,,,,,,,,,,,,,,,,,,,P007,fencog,2,Pre,2021_Aug_04_1042,Go No-Go Task,2021.1.4,120.28700501891619,
EPracticeConditions/BlueEyes.csv,"Rule: When you see a blue image, do not press 'spacebar'.",Images/Fearful/HM09_FC.jpg,Fear,Blue,Images/Blue.jpg,None,,,,,,,0,0,0,0,0,0,0,0,,,,,,,,,,,,,,,,,,,,,,,,,,,,,,,,,,,,,189.72608239995316,None,192.72405280033126,None,space,3.8211946999654174,192.72405280033126,None,189.72608239995316,None,189.72608239995316,None,189.72608239995316,None,1.3,196.64863070007414,None,None,1,198.08890650002286,None,198.08890650002286,None,198.08890650002286,None,199.53039760002866,None,,,,,,,,,,,,,,,,,,,,,,,,,,,,,,,,,,,,,,,,,,,,,,,,,,P007,fencog,2,Pre,2021_Aug_04_1042,Go No-Go Task,2021.1.4,120.28700501891619,
EPracticeConditions/BlueEyes.csv,"Rule: When you see a blue image, do not press 'spacebar'.",Images/Happy/HF05_HO.jpg,Happy,Yellow,Images/Yellow.jpg,space,,,,,,,0,0,0,0,0,1,1,5,,,,,,,,,,,,,,,,,,,,,,,,,,,,,,,,,,,,,,,,,,,,,,,,,,,1.2,200.98844620026648,None,space,1,202.2913416000083,None,202.2913416000083,None,202.2913416000083,None,203.19020850025117,None,0.31811239989474416,,,,,,,,,,,,,,,,,,,,,,,,,,,,,,,,,,,,,,,,,,,,,,,,,P007,fencog,2,Pre,2021_Aug_04_1042,Go No-Go Task,2021.1.4,120.28700501891619,
EPracticeConditions/BlueEyes.csv,"Rule: When you see a blue image, do not press 'spacebar'.",Images/Happy/HF10_HE.jpg,Happy,Yellow,Images/Yellow.jpg,space,,,,,,,0,0,0,0,0,2,2,7,,,,,,,,,,,,,,,,,,,,,,,,,,,,,,,,,,,,,,,,,,,,,,,,,,,1.9,205.19074940029532,None,None,0,207.19822819996625,None,207.19822819996625,None,207.19822819996625,None,208.11491229990497,None,,,,,,,,,,,,,,,,,,,,,,,,,,,,,,,,,,,,,,,,,,,,,,,,,,P007,fencog,2,Pre,2021_Aug_04_1042,Go No-Go Task,2021.1.4,120.28700501891619,
EPracticeConditions/BlueEyes.csv,"Rule: When you see a blue image, do not press 'spacebar'.",Images/Happy/BM02_HO.jpg,Happy,Yellow,Images/Yellow.jpg,space,,,,,,,0,0,0,0,0,3,3,2,,,,,,,,,,,,,,,,,,,,,,,,,,,,,,,,,,,,,,,,,,,,,,,,,,,1.7,210.10465320013463,None,space,1,211.90512480027974,None,211.90512480027974,None,211.90512480027974,None,212.80591190000996,None,0.28802500013262033,,,,,,,,,,,,,,,,,,,,,,,,,,,,,,,,,,,,,,,,,,,,,,,,,P007,fencog,2,Pre,2021_Aug_04_1042,Go No-Go Task,2021.1.4,120.28700501891619,
EPracticeConditions/BlueEyes.csv,"Rule: When you see a blue image, do not press 'spacebar'.",Images/Happy/HF09_HE.jpg,Happy,Yellow,Images/Yellow.jpg,space,,,,,,,0,0,0,0,0,4,4,6,,,,,,,,,,,,,,,,,,,,,,,,,,,,,,,,,,,,,,,,,,,,,,,,,,,1.6,214.81514520011842,None,space,1,216.52044880017638,None,216.52044880017638,None,216.52044880017638,None,217.41644200030714,None,0.3131808997131884,,,,,,,,,,,,,,,,,,,,,,,,,,,,,,,,,,,,,,,,,,,,,,,,,P007,fencog,2,Pre,2021_Aug_04_1042,Go No-Go Task,2021.1.4,120.28700501891619,
EPracticeConditions/BlueEyes.csv,"Rule: When you see a blue image, do not press 'spacebar'.",Images/Happy/HF04_HE.jpg,Happy,Yellow,Images/Yellow.jpg,space,,,,,,,0,0,0,0,0,5,5,4,,,,,,,,,,,,,,,,,,,,,,,,,,,,,,,,,,,,,,,,,,,,,,,,,,,1.4,219.42416550032794,None,space,1,220.91917790006846,None,220.91917790006846,None,220.91917790006846,None,221.82420110004023,None,0.3545400998555124,,,,,,,,,,,,,,,,,,,,,,,,,,,,,,,,,,,,,,,,,,,,,,,,,P007,fencog,2,Pre,2021_Aug_04_1042,Go No-Go Task,2021.1.4,120.28700501891619,
EPracticeConditions/BlueEyes.csv,"Rule: When you see a blue image, do not press 'spacebar'.",Images/Fearful/AF01_FO.jpg,Fear,Blue,Images/Blue.jpg,None,,,,,,,0,0,0,0,0,6,6,1,,,,,,,,,,,,,,,,,,,,,,,,,,,,,,,,,,,,,,,,,,,,,,,,,,,1.5,223.8273833002895,None,None,1,225.43438780028373,None,225.43438780028373,None,225.43438780028373,None,226.3306265003048,None,,,,,,,,,,,,,,,,,,,,,,,,,,,,,,,,,,,,,,,,,,,,,,,,,,P007,fencog,2,Pre,2021_Aug_04_1042,Go No-Go Task,2021.1.4,120.28700501891619,
EPracticeConditions/BlueEyes.csv,"Rule: When you see a blue image, do not press 'spacebar'.",Images/Happy/BM08_HO.jpg,Happy,Yellow,Images/Yellow.jpg,space,,,,,,,0,0,0,0,0,7,7,3,,,,,,,,,,,,,,,,,,,,,,,,,,,,,,,,,,,,,,,,,,,,,,,,,,,1.8,228.33526450023055,None,space,1,230.24139360012487,None,230.24139360012487,None,230.24139360012487,None,231.1373923001811,None,0.27166129974648356,,,,,,,,,,,,,,,,,,,,,,,,,,,,,,,,,,,,,,,,,,,,,,,,,P007,fencog,2,Pre,2021_Aug_04_1042,Go No-Go Task,2021.1.4,120.28700501891619,
EPracticeConditions/BlueEyes.csv,"Rule: When you see a blue image, do not press 'spacebar'.",,,,,,,,,,,,0,0,0,0,,,,,,,,,,,,,,,,,,,,,,,,,,,,,,,,,,,,,,,,,,,,,,,,,,,,,,,,,,,,,,,,,,,,,,,,,,,,,,,,,,,,,,,,,,,,,,,,,,,,,,,,,,,,,,,,,,,,,P007,fencog,2,Pre,2021_Aug_04_1042,Go No-Go Task,2021.1.4,120.28700501891619,
EPracticeConditions/YellowEyes.csv,"Rule: When you see a yellow image, do not press 'spacebar'.",Images/Fearful/AM17AFS.jpg,Fear,Blue,Images/Blue.jpg,space,,,,,,,0,1,1,1,0,0,0,3,,,,,,,,,,,,,,,,,,,,,,,,,,,,,,,,,,,,,233.16218230035156,None,236.15579800028354,None,space,0.7652392997406423,236.15579800028354,None,233.16218230035156,None,233.16218230035156,None,233.16218230035156,None,1.3,236.94145900011063,None,space,1,238.3473273003474,None,238.3473273003474,None,238.3473273003474,None,239.2513828999363,None,0.30155729968100786,,,,,,,,,,,,,,,,,,,,,,,,,,,,,,,,,,,,,,,,,,,,,,,,,P007,fencog,2,Pre,2021_Aug_04_1042,Go No-Go Task,2021.1.4,120.28700501891619,
EPracticeConditions/YellowEyes.csv,"Rule: When you see a yellow image, do not press 'spacebar'.",Images/Fearful/AM19AFS.jpg,Fear,Blue,Images/Blue.jpg,space,,,,,,,0,1,1,1,0,1,1,4,,,,,,,,,,,,,,,,,,,,,,,,,,,,,,,,,,,,,,,,,,,,,,,,,,,1.5,241.25497979996726,None,space,1,242.8625558000058,None,242.8625558000058,None,242.8625558000058,None,243.768032300286,None,0.35504409996792674,,,,,,,,,,,,,,,,,,,,,,,,,,,,,,,,,,,,,,,,,,,,,,,,,P007,fencog,2,Pre,2021_Aug_04_1042,Go No-Go Task,2021.1.4,120.28700501891619,
EPracticeConditions/YellowEyes.csv,"Rule: When you see a yellow image, do not press 'spacebar'.",Images/Fearful/AM22AFS.jpg,Fear,Blue,Images/Blue.jpg,space,,,,,,,0,1,1,1,0,2,2,5,,,,,,,,,,,,,,,,,,,,,,,,,,,,,,,,,,,,,,,,,,,,,,,,,,,1.6,245.76925410004333,None,space,1,247.46931389998645,None,247.46931389998645,None,247.46931389998645,None,248.3747359002009,None,0.3000993002206087,,,,,,,,,,,,,,,,,,,,,,,,,,,,,,,,,,,,,,,,,,,,,,,,,P007,fencog,2,Pre,2021_Aug_04_1042,Go No-Go Task,2021.1.4,120.28700501891619,
EPracticeConditions/YellowEyes.csv,"Rule: When you see a yellow image, do not press 'spacebar'.",Images/Happy/AM32HAS.jpg,Happy,Yellow,Images/Yellow.jpg,None,,,,,,,0,1,1,1,0,3,3,0,,,,,,,,,,,,,,,,,,,,,,,,,,,,,,,,,,,,,,,,,,,,,,,,,,,1.8,250.37608200032264,None,None,1,252.2765550003387,None,252.2765550003387,None,252.2765550003387,None,253.1669784002006,None,,,,,,,,,,,,,,,,,,,,,,,,,,,,,,,,,,,,,,,,,,,,,,,,,,P007,fencog,2,Pre,2021_Aug_04_1042,Go No-Go Task,2021.1.4,120.28700501891619,
EPracticeConditions/YellowEyes.csv,"Rule: When you see a yellow image, do not press 'spacebar'.",Images/Fearful/AM24AFS.jpg,Fear,Blue,Images/Blue.jpg,space,,,,,,,0,1,1,1,0,4,4,7,,,,,,,,,,,,,,,,,,,,,,,,,,,,,,,,,,,,,,,,,,,,,,,,,,,1.2,255.1666812999174,None,space,1,256.46688030008227,None,256.46688030008227,None,256.46688030008227,None,257.36371410032734,None,0.28617569990456104,,,,,,,,,,,,,,,,,,,,,,,,,,,,,,,,,,,,,,,,,,,,,,,,,P007,fencog,2,Pre,2021_Aug_04_1042,Go No-Go Task,2021.1.4,120.28700501891619,
EPracticeConditions/YellowEyes.csv,"Rule: When you see a yellow image, do not press 'spacebar'.",Images/Happy/BF05_HO.jpg,Happy,Yellow,Images/Yellow.jpg,None,,,,,,,0,1,1,1,0,5,5,1,,,,,,,,,,,,,,,,,,,,,,,,,,,,,,,,,,,,,,,,,,,,,,,,,,,1.9,259.36688090022653,None,None,1,261.37378360005096,None,261.37378360005096,None,261.37378360005096,None,262.26672030007467,None,,,,,,,,,,,,,,,,,,,,,,,,,,,,,,,,,,,,,,,,,,,,,,,,,,P007,fencog,2,Pre,2021_Aug_04_1042,Go No-Go Task,2021.1.4,120.28700501891619,
EPracticeConditions/YellowEyes.csv,"Rule: When you see a yellow image, do not press 'spacebar'.",Images/Fearful/AM16AFS.jpg,Fear,Blue,Images/Blue.jpg,space,,,,,,,0,1,1,1,0,6,6,2,,,,,,,,,,,,,,,,,,,,,,,,,,,,,,,,,,,,,,,,,,,,,,,,,,,1.4,264.27730969991535,None,space,1,265.7725535002537,None,265.7725535002537,None,265.7725535002537,None,266.67968400008976,None,0.3487729001790285,,,,,,,,,,,,,,,,,,,,,,,,,,,,,,,,,,,,,,,,,,,,,,,,,P007,fencog,2,Pre,2021_Aug_04_1042,Go No-Go Task,2021.1.4,120.28700501891619,
EPracticeConditions/YellowEyes.csv,"Rule: When you see a yellow image, do not press 'spacebar'.",Images/Fearful/AM23AFS.jpg,Fear,Blue,Images/Blue.jpg,space,,,,,,,0,1,1,1,0,7,7,6,,,,,,,,,,,,,,,,,,,,,,,,,,,,,,,,,,,,,,,,,,,,,,,,,,,1.7,268.68752630008385,None,None,0,270.48783700028434,None,270.48783700028434,None,270.48783700028434,None,271.3863691003062,None,,,,,,,,,,,,,,,,,,,,,,,,,,,,,,,,,,,,,,,,,,,,,,,,,,P007,fencog,2,Pre,2021_Aug_04_1042,Go No-Go Task,2021.1.4,120.28700501891619,
EPracticeConditions/YellowEyes.csv,"Rule: When you see a yellow image, do not press 'spacebar'.",,,,,,,,,,,,0,1,1,1,,,,,,,,,,,,,,,,,,,,,,,,,,,,,,,,,,,,,,,,,,,,,,,,,,,,,,,,,,,,,,,,,,,,,,,,,,,,,,,,,,,,,,,,,,,,,,,,,,,,,,,,,,,,,,,,,,,,,P007,fencog,2,Pre,2021_Aug_04_1042,Go No-Go Task,2021.1.4,120.28700501891619,
EPracticeConditions/BlueScram.csv,"Rule: When you see a blue image, do not press 'spacebar'.",Images/Scram2/AF10_NC.jpg,Scramble,Yellow,Images/Yellow.jpg,space,,,,,,,0,2,2,2,0,0,0,2,,,,,,,,,,,,,,,,,,,,,,,,,,,,,,,,,,,,,273.40280190017074,None,276.393924199976,None,space,0.8312964998185635,276.393924199976,None,273.40280190017074,None,273.40280190017074,None,273.40280190017074,None,1.4,277.2430290002376,None,None,0,278.7437362000346,None,278.7437362000346,None,278.7437362000346,None,279.6498652002774,None,,,,,,,,,,,,,,,,,,,,,,,,,,,,,,,,,,,,,,,,,,,,,,,,,,P007,fencog,2,Pre,2021_Aug_04_1042,Go No-Go Task,2021.1.4,120.28700501891619,
EPracticeConditions/BlueScram.csv,"Rule: When you see a blue image, do not press 'spacebar'.",Images/Scram2/AM03_NC.jpg,Scramble,Yellow,Images/Yellow.jpg,space,,,,,,,0,2,2,2,0,1,1,6,,,,,,,,,,,,,,,,,,,,,,,,,,,,,,,,,,,,,,,,,,,,,,,,,,,1.3,281.65057749999687,None,None,0,283.0508087002672,None,283.0508087002672,None,283.0508087002672,None,283.94087960012257,None,,,,,,,,,,,,,,,,,,,,,,,,,,,,,,,,,,,,,,,,,,,,,,,,,,P007,fencog,2,Pre,2021_Aug_04_1042,Go No-Go Task,2021.1.4,120.28700501891619,
EPracticeConditions/BlueScram.csv,"Rule: When you see a blue image, do not press 'spacebar'.",Images/Scram1/AM04_NC.jpg,Scramble,Yellow,Images/Yellow.jpg,space,,,,,,,0,2,2,2,0,2,2,3,,,,,,,,,,,,,,,,,,,,,,,,,,,,,,,,,,,,,,,,,,,,,,,,,,,1.6,285.9456807002425,None,space,1,287.6493640001863,None,287.6493640001863,None,287.6493640001863,None,288.55045620026067,None,0.36794119980186224,,,,,,,,,,,,,,,,,,,,,,,,,,,,,,,,,,,,,,,,,,,,,,,,,P007,fencog,2,Pre,2021_Aug_04_1042,Go No-Go Task,2021.1.4,120.28700501891619,
EPracticeConditions/BlueScram.csv,"Rule: When you see a blue image, do not press 'spacebar'.",Images/Scram1/AM03NES.jpg,Scramble,Yellow,Images/Yellow.jpg,space,,,,,,,0,2,2,2,0,3,3,4,,,,,,,,,,,,,,,,,,,,,,,,,,,,,,,,,,,,,,,,,,,,,,,,,,,1.5,290.5560785001144,None,None,0,292.17309480020776,None,292.17309480020776,None,292.17309480020776,None,293.0624820003286,None,,,,,,,,,,,,,,,,,,,,,,,,,,,,,,,,,,,,,,,,,,,,,,,,,,P007,fencog,2,Pre,2021_Aug_04_1042,Go No-Go Task,2021.1.4,120.28700501891619,
EPracticeConditions/BlueScram.csv,"Rule: When you see a blue image, do not press 'spacebar'.",Images/Scram1/BF18_NC.jpg,Scramble,Blue,Images/Blue.jpg,None,,,,,,,0,2,2,2,0,4,4,1,,,,,,,,,,,,,,,,,,,,,,,,,,,,,,,,,,,,,,,,,,,,,,,,,,,1.2,295.06304430030286,None,space,0,296.3635209999047,None,296.3635209999047,None,296.3635209999047,None,297.26838710019365,None,0.32596160005778074,,,,,,,,,,,,,,,,,,,,,,,,,,,,,,,,,,,,,,,,,,,,,,,,,P007,fencog,2,Pre,2021_Aug_04_1042,Go No-Go Task,2021.1.4,120.28700501891619,
EPracticeConditions/BlueScram.csv,"Rule: When you see a blue image, do not press 'spacebar'.",Images/Scram1/BM08_NC.jpg,Scramble,Blue,Images/Blue.jpg,None,,,,,,,0,2,2,2,0,5,5,0,,,,,,,,,,,,,,,,,,,,,,,,,,,,,,,,,,,,,,,,,,,,,,,,,,,1.8,299.2714836001396,None,None,1,301.1787741002627,None,301.1787741002627,None,301.1787741002627,None,302.08031630003825,None,,,,,,,,,,,,,,,,,,,,,,,,,,,,,,,,,,,,,,,,,,,,,,,,,,P007,fencog,2,Pre,2021_Aug_04_1042,Go No-Go Task,2021.1.4,120.28700501891619,
EPracticeConditions/BlueScram.csv,"Rule: When you see a blue image, do not press 'spacebar'.",Images/Scram1/AM13NES.jpg,Scramble,Yellow,Images/Yellow.jpg,space,,,,,,,0,2,2,2,0,6,6,5,,,,,,,,,,,,,,,,,,,,,,,,,,,,,,,,,,,,,,,,,,,,,,,,,,,1.9,304.08526530023664,None,None,0,306.08522529993206,None,306.08522529993206,None,306.08522529993206,None,306.9790930002928,None,,,,,,,,,,,,,,,,,,,,,,,,,,,,,,,,,,,,,,,,,,,,,,,,,,P007,fencog,2,Pre,2021_Aug_04_1042,Go No-Go Task,2021.1.4,120.28700501891619,
EPracticeConditions/BlueScram.csv,"Rule: When you see a blue image, do not press 'spacebar'.",Images/Scram2/AF25NES.jpg,Scramble,Yellow,Images/Yellow.jpg,space,,,,,,,0,2,2,2,0,7,7,7,,,,,,,,,,,,,,,,,,,,,,,,,,,,,,,,,,,,,,,,,,,,,,,,,,,1.7,308.98528050025925,None,None,0,310.78424260020256,None,310.78424260020256,None,310.78424260020256,None,311.68894910020754,None,,,,,,,,,,,,,,,,,,,,,,,,,,,,,,,,,,,,,,,,,,,,,,,,,,P007,fencog,2,Pre,2021_Aug_04_1042,Go No-Go Task,2021.1.4,120.28700501891619,
EPracticeConditions/BlueScram.csv,"Rule: When you see a blue image, do not press 'spacebar'.",,,,,,,,,,,,0,2,2,2,,,,,,,,,,,,,,,,,,,,,,,,,,,,,,,,,,,,,,,,,,,,,,,,,,,,,,,,,,,,,,,,,,,,,,,,,,,,,,,,,,,,,,,,,,,,,,,,,,,,,,,,,,,,,,,,,,,,,P007,fencog,2,Pre,2021_Aug_04_1042,Go No-Go Task,2021.1.4,120.28700501891619,
EPracticeConditions/YellowScram.csv,"Rule: When you see a yellow image, do not press 'spacebar'.",Images/Scram1/BM01_NC.jpg,Scramble,Blue,Images/Blue.jpg,space,,,,,,,0,3,3,3,0,0,0,5,,,,,,,,,,,,,,,,,,,,,,,,,,,,,,,,,,,,,313.711446700152,None,316.6987223001197,None,space,0.6311126002110541,316.6987223001197,None,313.711446700152,None,313.711446700152,None,313.711446700152,None,1.8,317.34340470004827,None,space,1,319.24851449998096,None,319.24851449998096,None,319.24851449998096,None,320.15329120028764,None,0.2406450998969376,,,,,,,,,,,,,,,,,,,,,,,,,,,,,,,,,,,,,,,,,,,,,,,,,P007,fencog,2,Pre,2021_Aug_04_1042,Go No-Go Task,2021.1.4,120.28700501891619,
EPracticeConditions/YellowScram.csv,"Rule: When you see a yellow image, do not press 'spacebar'.",Images/Scram1/HF04_NC.jpg,Scramble,Blue,Images/Blue.jpg,space,,,,,,,0,3,3,3,0,1,1,2,,,,,,,,,,,,,,,,,,,,,,,,,,,,,,,,,,,,,,,,,,,,,,,,,,,1.6,322.1565562002361,None,space,1,323.8635698999278,None,323.8635698999278,None,323.8635698999278,None,324.7603156999685,None,0.28908409969881177,,,,,,,,,,,,,,,,,,,,,,,,,,,,,,,,,,,,,,,,,,,,,,,,,P007,fencog,2,Pre,2021_Aug_04_1042,Go No-Go Task,2021.1.4,120.28700501891619,
EPracticeConditions/YellowScram.csv,"Rule: When you see a yellow image, do not press 'spacebar'.",Images/Scram1/AF30NES.JPG,Scramble,Blue,Images/Blue.jpg,space,,,,,,,0,3,3,3,0,2,2,4,,,,,,,,,,,,,,,,,,,,,,,,,,,,,,,,,,,,,,,,,,,,,,,,,,,1.3,326.7647418002598,None,space,1,328.170794500038,None,328.170794500038,None,328.170794500038,None,329.06129760015756,None,0.2541182995773852,,,,,,,,,,,,,,,,,,,,,,,,,,,,,,,,,,,,,,,,,,,,,,,,,P007,fencog,2,Pre,2021_Aug_04_1042,Go No-Go Task,2021.1.4,120.28700501891619,
EPracticeConditions/YellowScram.csv,"Rule: When you see a yellow image, do not press 'spacebar'.",Images/Scram1/AF10_NC.jpg,Scramble,Blue,Images/Blue.jpg,space,,,,,,,0,3,3,3,0,3,3,6,,,,,,,,,,,,,,,,,,,,,,,,,,,,,,,,,,,,,,,,,,,,,,,,,,,1.7,331.0605210000649,None,None,0,332.8610526002012,None,332.8610526002012,None,332.8610526002012,None,333.7573816003278,None,,,,,,,,,,,,,,,,,,,,,,,,,,,,,,,,,,,,,,,,,,,,,,,,,,P007,fencog,2,Pre,2021_Aug_04_1042,Go No-Go Task,2021.1.4,120.28700501891619,
EPracticeConditions/YellowScram.csv,"Rule: When you see a yellow image, do not press 'spacebar'.",Images/Scram1/AF07NES.jpg,Scramble,Blue,Images/Blue.jpg,space,,,,,,,0,3,3,3,0,4,4,3,,,,,,,,,,,,,,,,,,,,,,,,,,,,,,,,,,,,,,,,,,,,,,,,,,,1.4,335.7594785001129,None,space,1,337.25962710008025,None,337.25962710008025,None,337.25962710008025,None,338.16431199992076,None,0.3412864003330469,,,,,,,,,,,,,,,,,,,,,,,,,,,,,,,,,,,,,,,,,,,,,,,,,P007,fencog,2,Pre,2021_Aug_04_1042,Go No-Go Task,2021.1.4,120.28700501891619,
EPracticeConditions/YellowScram.csv,"Rule: When you see a yellow image, do not press 'spacebar'.",Images/Scram1/AF24NES.jpg,Scramble,Blue,Images/Blue.jpg,space,,,,,,,0,3,3,3,0,5,5,7,,,,,,,,,,,,,,,,,,,,,,,,,,,,,,,,,,,,,,,,,,,,,,,,,,,1.2,340.16637329990044,None,space,1,341.4671648000367,None,341.4671648000367,None,341.4671648000367,None,342.3597611002624,None,0.3741088998503983,,,,,,,,,,,,,,,,,,,,,,,,,,,,,,,,,,,,,,,,,,,,,,,,,P007,fencog,2,Pre,2021_Aug_04_1042,Go No-Go Task,2021.1.4,120.28700501891619,
EPracticeConditions/YellowScram.csv,"Rule: When you see a yellow image, do not press 'spacebar'.",Images/Scram2/AM03NES.jpg,Scramble,Yellow,Images/Yellow.jpg,None,,,,,,,0,3,3,3,0,6,6,1,,,,,,,,,,,,,,,,,,,,,,,,,,,,,,,,,,,,,,,,,,,,,,,,,,,1.9,344.3686208999716,None,None,1,346.3736112001352,None,346.3736112001352,None,346.3736112001352,None,347.27025320008397,None,,,,,,,,,,,,,,,,,,,,,,,,,,,,,,,,,,,,,,,,,,,,,,,,,,P007,fencog,2,Pre,2021_Aug_04_1042,Go No-Go Task,2021.1.4,120.28700501891619,
EPracticeConditions/YellowScram.csv,"Rule: When you see a yellow image, do not press 'spacebar'.",Images/Scram2/HM06_NC.jpg,Scramble,Yellow,Images/Yellow.jpg,None,,,,,,,0,3,3,3,0,7,7,0,,,,,,,,,,,,,,,,,,,,,,,,,,,,,,,,,,,,,,,,,,,,,,,,,,,1.5,349.27353420015424,None,None,1,350.8805531999096,None,350.8805531999096,None,350.8805531999096,None,351.77760779997334,None,,,,,,,,,,,,,,,,,,,,,,,,,,,,,,,,,,,,,,,,,,,,,,,,,,P007,fencog,2,Pre,2021_Aug_04_1042,Go No-Go Task,2021.1.4,120.28700501891619,
EPracticeConditions/YellowScram.csv,"Rule: When you see a yellow image, do not press 'spacebar'.",,,,,,,,,,,,0,3,3,3,,,,,,,,,,,,,,,,,,,,,,,,,,,,,,,,,,,,,,,,,,,,,,,,,,,,,,,,,,,,,,,,,,,,,,,,,,,,,,,,,,,,,,,,,,,,,,,,,,,,,,,,,,,,,,,,,,,,,P007,fencog,2,Pre,2021_Aug_04_1042,Go No-Go Task,2021.1.4,120.28700501891619,
,,,,,,,,,,,,,,,,,,,,,,,,,,,,,,,,,,,,,,,,,,,,,,,,,,,,,,,,,,,,,,,,,,,,,,,,,,,,,,,,,,,,,355.1038951999508,None,space,4.741682500112802,355.58723019994795,None,,,,,,,,,,,,,,,,,,,,,,,,,,,,,,,,,,,,,,,,,,,P007,fencog,2,Pre,2021_Aug_04_1042,Go No-Go Task,2021.1.4,120.28700501891619,
,,,,,,,,,,,,,,,,,,,,,,,,,,,,,,,,,,,,,,,,,,,,,,,,,,,,,,,,,,,,,,,,,,,,,,,,,,,,,,,,,,,,,,,,,,,360.3371254000813,None,space,1.9765046001411974,360.3371254000813,None,,,,,,,,,,,,,,,,,,,,,,,,,,,,,,,,,,,,,P007,fencog,2,Pre,2021_Aug_04_1042,Go No-Go Task,2021.1.4,120.28700501891619,
,"Rule: When you see a yellow image, do not press 'spacebar'.",Images/Happy/BF09_HO.jpg,Happy,Blue,Images/Blue.jpg,space,ParentConditions/YellowYellowBlue_v2.xlsx,YellowYellowBlue,Conditions/Version_2/YellowFearStop.xlsx,no,PASS,0.2009685743777515,,,,,,,,,0,0,0,1,0,0,0,0,0,0,0,0,,,,,,,,,,,,,,,,,,,,,,,,,,,,,,,,,,,,,,,,,,,,,,,,,,,,,,,,,,,,,,,,,362.38354249997064,None,365.3675220999867,None,space,1.7373883998952806,365.3675220999867,None,362.38354249997064,None,362.38354249997064,None,362.38354249997064,None,1.53,367.14839929994196,None,space,1,0.35463530011475086,368.77513789990917,None,368.77513789990917,None,368.77513789990917,None,,,,,,,,,,,P007,fencog,2,Pre,2021_Aug_04_1042,Go No-Go Task,2021.1.4,120.28700501891619,
,"Rule: When you see a yellow image, do not press 'spacebar'.",Images/Happy/AF30HAS.jpg,Happy,Blue,Images/Blue.jpg,space,ParentConditions/YellowYellowBlue_v2.xlsx,YellowYellowBlue,Conditions/Version_2/YellowFearStop.xlsx,no,PASS,0.9679561444510932,,,,,,,,,0,0,0,1,0,0,0,0,0,1,1,1,,,,,,,,,,,,,,,,,,,,,,,,,,,,,,,,,,,,,,,,,,,,,,,,,,,,,,,,,,,,,,,,,,,,,,,,,,,,,,,1.71,369.1847337000072,None,space,1,0.29717419994995,370.9996930002235,None,370.9996930002235,None,370.9996930002235,None,,,,,,,,,,,P007,fencog,2,Pre,2021_Aug_04_1042,Go No-Go Task,2021.1.4,120.28700501891619,
,"Rule: When you see a yellow image, do not press 'spacebar'.",Images/Happy/AF27HAS.jpg,Happy,Blue,Images/Blue.jpg,space,ParentConditions/YellowYellowBlue_v2.xlsx,YellowYellowBlue,Conditions/Version_2/YellowFearStop.xlsx,no,PASS,0.024466481670397555,,,,,,,,,0,0,0,1,0,0,0,0,0,2,2,2,,,,,,,,,,,,,,,,,,,,,,,,,,,,,,,,,,,,,,,,,,,,,,,,,,,,,,,,,,,,,,,,,,,,,,,,,,,,,,,1.73,371.4007669999264,None,space,1,0.2642040001228452,373.24076550034806,None,373.24076550034806,None,373.24076550034806,None,,,,,,,,,,,P007,fencog,2,Pre,2021_Aug_04_1042,Go No-Go Task,2021.1.4,120.28700501891619,
,"Rule: When you see a yellow image, do not press 'spacebar'.",Images/Happy/AF22HAS.jpg,Happy,Blue,Images/Blue.jpg,space,ParentConditions/YellowYellowBlue_v2.xlsx,YellowYellowBlue,Conditions/Version_2/YellowFearStop.xlsx,no,PASS,0.900419425166189,,,,,,,,,0,0,0,1,0,0,0,0,0,3,3,3,,,,,,,,,,,,,,,,,,,,,,,,,,,,,,,,,,,,,,,,,,,,,,,,,,,,,,,,,,,,,,,,,,,,,,,,,,,,,,,1.47,373.6398478001356,None,space,1,0.3300272999331355,375.2068268000148,None,375.2068268000148,None,375.2068268000148,None,,,,,,,,,,,P007,fencog,2,Pre,2021_Aug_04_1042,Go No-Go Task,2021.1.4,120.28700501891619,
,"Rule: When you see a yellow image, do not press 'spacebar'.",Images/Happy/WM11_HC.jpg,Happy,Blue,Images/Blue.jpg,space,ParentConditions/YellowYellowBlue_v2.xlsx,YellowYellowBlue,Conditions/Version_2/YellowFearStop.xlsx,no,PASS,0.5042081063795358,,,,,,,,,0,0,0,1,0,0,0,0,0,4,4,4,,,,,,,,,,,,,,,,,,,,,,,,,,,,,,,,,,,,,,,,,,,,,,,,,,,,,,,,,,,,,,,,,,,,,,,,,,,,,,,1.81,375.6070949002169,None,space,1,0.2700049998238683,377.5232098000124,None,377.5232098000124,None,377.5232098000124,None,,,,,,,,,,,P007,fencog,2,Pre,2021_Aug_04_1042,Go No-Go Task,2021.1.4,120.28700501891619,
,"Rule: When you see a yellow image, do not press 'spacebar'.",Images/Happy/BF05_HO.jpg,Happy,Blue,Images/Blue.jpg,space,ParentConditions/YellowYellowBlue_v2.xlsx,YellowYellowBlue,Conditions/Version_2/YellowFearStop.xlsx,no,PASS,0.6687720633168746,,,,,,,,,0,0,0,1,0,0,0,0,0,5,5,5,,,,,,,,,,,,,,,,,,,,,,,,,,,,,,,,,,,,,,,,,,,,,,,,,,,,,,,,,,,,,,,,,,,,,,,,,,,,,,,1.62,377.9243697999045,None,space,1,0.36185460025444627,379.6471041003242,None,379.6471041003242,None,379.6471041003242,None,,,,,,,,,,,P007,fencog,2,Pre,2021_Aug_04_1042,Go No-Go Task,2021.1.4,120.28700501891619,
,"Rule: When you see a yellow image, do not press 'spacebar'.",Images/Fearful/AM01AFS.jpg,Fear,Yellow,Images/Yellow.jpg,None,ParentConditions/YellowYellowBlue_v2.xlsx,YellowYellowBlue,Conditions/Version_2/YellowFearStop.xlsx,yes,PASS,0.008120847249678764,,,,,,,,,0,0,0,1,0,0,0,0,0,6,6,6,,,,,,,,,,,,,,,,,,,,,,,,,,,,,,,,,,,,,,,,,,,,,,,,,,,,,,,,,,,,,,,,,,,,,,,,,,,,,,,1.85,380.0476617999375,None,None,1,,382.0047865002416,None,382.0047865002416,None,382.0047865002416,None,,,,,,,,,,,P007,fencog,2,Pre,2021_Aug_04_1042,Go No-Go Task,2021.1.4,120.28700501891619,
,"Rule: When you see a yellow image, do not press 'spacebar'.",Images/Happy/AF23HAS.jpg,Happy,Blue,Images/Blue.jpg,space,ParentConditions/YellowYellowBlue_v2.xlsx,YellowYellowBlue,Conditions/Version_2/YellowFearStop.xlsx,no,PASS,0.07023198870971747,,,,,,,,,0,0,0,1,0,0,0,0,0,7,7,7,,,,,,,,,,,,,,,,,,,,,,,,,,,,,,,,,,,,,,,,,,,,,,,,,,,,,,,,,,,,,,,,,,,,,,,,,,,,,,,1.46,382.40342900017276,None,space,1,0.36626969976350665,383.9708636002615,None,383.9708636002615,None,383.9708636002615,None,,,,,,,,,,,P007,fencog,2,Pre,2021_Aug_04_1042,Go No-Go Task,2021.1.4,120.28700501891619,
,"Rule: When you see a yellow image, do not press 'spacebar'.",Images/Happy/AM16HAS.jpg,Happy,Blue,Images/Blue.jpg,space,ParentConditions/YellowYellowBlue_v2.xlsx,YellowYellowBlue,Conditions/Version_2/YellowFearStop.xlsx,no,PASS,0.031804034281165405,,,,,,,,,0,0,0,1,0,0,0,0,0,8,8,8,,,,,,,,,,,,,,,,,,,,,,,,,,,,,,,,,,,,,,,,,,,,,,,,,,,,,,,,,,,,,,,,,,,,,,,,,,,,,,,1.59,384.37769320001826,None,space,1,0.31500669987872243,386.06191899999976,None,386.06191899999976,None,386.06191899999976,None,,,,,,,,,,,P007,fencog,2,Pre,2021_Aug_04_1042,Go No-Go Task,2021.1.4,120.28700501891619,
,"Rule: When you see a yellow image, do not press 'spacebar'.",Images/Happy/AM04HAS.jpg,Happy,Blue,Images/Blue.jpg,space,ParentConditions/YellowYellowBlue_v2.xlsx,YellowYellowBlue,Conditions/Version_2/YellowFearStop.xlsx,no,PASS,0.0002121348500070397,,,,,,,,,0,0,0,1,0,0,0,0,0,9,9,9,,,,,,,,,,,,,,,,,,,,,,,,,,,,,,,,,,,,,,,,,,,,,,,,,,,,,,,,,,,,,,,,,,,,,,,,,,,,,,,1.51,386.4699694002047,None,space,1,0.3000806998461485,388.0780164003372,None,388.0780164003372,None,388.0780164003372,None,,,,,,,,,,,P007,fencog,2,Pre,2021_Aug_04_1042,Go No-Go Task,2021.1.4,120.28700501891619,
,"Rule: When you see a yellow image, do not press 'spacebar'.",Images/Happy/AF26HAS.jpg,Happy,Blue,Images/Blue.jpg,space,ParentConditions/YellowYellowBlue_v2.xlsx,YellowYellowBlue,Conditions/Version_2/YellowFearStop.xlsx,no,PASS,0.408079602030768,,,,,,,,,0,0,0,1,0,0,0,0,0,10,10,10,,,,,,,,,,,,,,,,,,,,,,,,,,,,,,,,,,,,,,,,,,,,,,,,,,,,,,,,,,,,,,,,,,,,,,,,,,,,,,,1.96,388.48640440031886,None,space,1,0.2967471000738442,390.55222330009565,None,390.55222330009565,None,390.55222330009565,None,,,,,,,,,,,P007,fencog,2,Pre,2021_Aug_04_1042,Go No-Go Task,2021.1.4,120.28700501891619,
,"Rule: When you see a yellow image, do not press 'spacebar'.",Images/Fearful/AF10_FC.jpg,Fear,Yellow,Images/Yellow.jpg,None,ParentConditions/YellowYellowBlue_v2.xlsx,YellowYellowBlue,Conditions/Version_2/YellowFearStop.xlsx,yes,PASS,0.43118367877877073,,,,,,,,,0,0,0,1,0,0,0,0,0,11,11,11,,,,,,,,,,,,,,,,,,,,,,,,,,,,,,,,,,,,,,,,,,,,,,,,,,,,,,,,,,,,,,,,,,,,,,,,,,,,,,,1.84,390.9515597000718,None,None,1,,392.89328100020066,None,392.89328100020066,None,392.89328100020066,None,,,,,,,,,,,P007,fencog,2,Pre,2021_Aug_04_1042,Go No-Go Task,2021.1.4,120.28700501891619,
,"Rule: When you see a yellow image, do not press 'spacebar'.",Images/Fearful/AM09_FO.jpg,Fear,Yellow,Images/Yellow.jpg,None,ParentConditions/YellowYellowBlue_v2.xlsx,YellowYellowBlue,Conditions/Version_2/YellowFearStop.xlsx,yes,PASS,0.25324381257324213,,,,,,,,,0,0,0,1,0,0,0,0,0,12,12,12,,,,,,,,,,,,,,,,,,,,,,,,,,,,,,,,,,,,,,,,,,,,,,,,,,,,,,,,,,,,,,,,,,,,,,,,,,,,,,,1.66,393.2935546003282,None,None,1,,395.05927899992093,None,395.05927899992093,None,395.05927899992093,None,,,,,,,,,,,P007,fencog,2,Pre,2021_Aug_04_1042,Go No-Go Task,2021.1.4,120.28700501891619,
,"Rule: When you see a yellow image, do not press 'spacebar'.",Images/Happy/HM04_HO.jpg,Happy,Blue,Images/Blue.jpg,space,ParentConditions/YellowYellowBlue_v2.xlsx,YellowYellowBlue,Conditions/Version_2/YellowFearStop.xlsx,no,PASS,0.4072425132028237,,,,,,,,,0,0,0,1,0,0,0,0,0,13,13,13,,,,,,,,,,,,,,,,,,,,,,,,,,,,,,,,,,,,,,,,,,,,,,,,,,,,,,,,,,,,,,,,,,,,,,,,,,,,,,,1.4,395.46790589997545,None,space,1,0.3302976000122726,396.96694780001417,None,396.96694780001417,None,396.96694780001417,None,,,,,,,,,,,P007,fencog,2,Pre,2021_Aug_04_1042,Go No-Go Task,2021.1.4,120.28700501891619,
,"Rule: When you see a yellow image, do not press 'spacebar'.",Images/Fearful/AM04_FO.jpg,Fear,Yellow,Images/Yellow.jpg,None,ParentConditions/YellowYellowBlue_v2.xlsx,YellowYellowBlue,Conditions/Version_2/YellowFearStop.xlsx,yes,PASS,0.7288256558461894,,,,,,,,,0,0,0,1,0,0,0,0,0,14,14,14,,,,,,,,,,,,,,,,,,,,,,,,,,,,,,,,,,,,,,,,,,,,,,,,,,,,,,,,,,,,,,,,,,,,,,,,,,,,,,,1.99,397.36667910031974,None,None,1,,399.44957980001345,None,399.44957980001345,None,399.44957980001345,None,,,,,,,,,,,P007,fencog,2,Pre,2021_Aug_04_1042,Go No-Go Task,2021.1.4,120.28700501891619,
,"Rule: When you see a yellow image, do not press 'spacebar'.",Images/Happy/AM13HAS.jpg,Happy,Blue,Images/Blue.jpg,space,ParentConditions/YellowYellowBlue_v2.xlsx,YellowYellowBlue,Conditions/Version_2/YellowFearStop.xlsx,no,PASS,0.9405484517370288,,,,,,,,,0,0,0,1,0,0,0,0,0,15,15,15,,,,,,,,,,,,,,,,,,,,,,,,,,,,,,,,,,,,,,,,,,,,,,,,,,,,,,,,,,,,,,,,,,,,,,,,,,,,,,,1.75,399.8573620999232,None,None,0,,401.7073547001928,None,401.7073547001928,None,401.7073547001928,None,,,,,,,,,,,P007,fencog,2,Pre,2021_Aug_04_1042,Go No-Go Task,2021.1.4,120.28700501891619,
,"Rule: When you see a yellow image, do not press 'spacebar'.",Images/Fearful/AF09AFS.jpg,Fear,Yellow,Images/Yellow.jpg,None,ParentConditions/YellowYellowBlue_v2.xlsx,YellowYellowBlue,Conditions/Version_2/YellowFearStop.xlsx,yes,PASS,0.6464881792541419,,,,,,,,,0,0,0,1,0,0,0,0,0,16,16,16,,,,,,,,,,,,,,,,,,,,,,,,,,,,,,,,,,,,,,,,,,,,,,,,,,,,,,,,,,,,,,,,,,,,,,,,,,,,,,,1.98,402.1108695003204,None,None,1,,404.1981699001044,None,404.1981699001044,None,404.1981699001044,None,,,,,,,,,,,P007,fencog,2,Pre,2021_Aug_04_1042,Go No-Go Task,2021.1.4,120.28700501891619,
,"Rule: When you see a yellow image, do not press 'spacebar'.",Images/Fearful/BF05_FO.jpg,Fear,Yellow,Images/Yellow.jpg,None,ParentConditions/YellowYellowBlue_v2.xlsx,YellowYellowBlue,Conditions/Version_2/YellowFearStop.xlsx,yes,PASS,0.37509261462312704,,,,,,,,,0,0,0,1,0,0,0,0,0,17,17,17,,,,,,,,,,,,,,,,,,,,,,,,,,,,,,,,,,,,,,,,,,,,,,,,,,,,,,,,,,,,,,,,,,,,,,,,,,,,,,,1.78,404.59931170009077,None,None,1,,406.48077060002834,None,406.48077060002834,None,406.48077060002834,None,,,,,,,,,,,P007,fencog,2,Pre,2021_Aug_04_1042,Go No-Go Task,2021.1.4,120.28700501891619,
,"Rule: When you see a yellow image, do not press 'spacebar'.",Images/Happy/AM24HAS.jpg,Happy,Blue,Images/Blue.jpg,space,ParentConditions/YellowYellowBlue_v2.xlsx,YellowYellowBlue,Conditions/Version_2/YellowFearStop.xlsx,no,PASS,0.016158036932588105,,,,,,,,,0,0,0,1,0,0,0,0,0,18,18,18,,,,,,,,,,,,,,,,,,,,,,,,,,,,,,,,,,,,,,,,,,,,,,,,,,,,,,,,,,,,,,,,,,,,,,,,,,,,,,,1.55,406.88097240030766,None,space,1,0.32625839998945594,408.53855790011585,None,408.53855790011585,None,408.53855790011585,None,,,,,,,,,,,P007,fencog,2,Pre,2021_Aug_04_1042,Go No-Go Task,2021.1.4,120.28700501891619,
,"Rule: When you see a yellow image, do not press 'spacebar'.",Images/Fearful/AF11AFS.jpg,Fear,Yellow,Images/Yellow.jpg,None,ParentConditions/YellowYellowBlue_v2.xlsx,YellowYellowBlue,Conditions/Version_2/YellowFearStop.xlsx,yes,PASS,0.3371554357894605,,,,,,,,,0,0,0,1,0,0,0,0,0,19,19,19,,,,,,,,,,,,,,,,,,,,,,,,,,,,,,,,,,,,,,,,,,,,,,,,,,,,,,,,,,,,,,,,,,,,,,,,,,,,,,,1.68,408.9392421003431,None,None,1,,410.7296356000006,None,410.7296356000006,None,410.7296356000006,None,,,,,,,,,,,P007,fencog,2,Pre,2021_Aug_04_1042,Go No-Go Task,2021.1.4,120.28700501891619,
,"Rule: When you see a yellow image, do not press 'spacebar'.",Images/Happy/AF01_HE.jpg,Happy,Blue,Images/Blue.jpg,space,ParentConditions/YellowYellowBlue_v2.xlsx,YellowYellowBlue,Conditions/Version_2/YellowFearStop.xlsx,no,PASS,0.09770872574206646,,,,,,,,,0,0,0,1,0,0,0,0,0,20,20,20,,,,,,,,,,,,,,,,,,,,,,,,,,,,,,,,,,,,,,,,,,,,,,,,,,,,,,,,,,,,,,,,,,,,,,,,,,,,,,,1.83,411.12846920033917,None,space,1,0.33918939996510744,413.0622916002758,None,413.0622916002758,None,413.0622916002758,None,,,,,,,,,,,P007,fencog,2,Pre,2021_Aug_04_1042,Go No-Go Task,2021.1.4,120.28700501891619,
,"Rule: When you see a yellow image, do not press 'spacebar'.",Images/Happy/AM10_HO.jpg,Happy,Blue,Images/Blue.jpg,space,ParentConditions/YellowYellowBlue_v2.xlsx,YellowYellowBlue,Conditions/Version_2/YellowFearStop.xlsx,no,PASS,0.35803186882916893,,,,,,,,,0,0,0,1,0,0,0,0,0,21,21,21,,,,,,,,,,,,,,,,,,,,,,,,,,,,,,,,,,,,,,,,,,,,,,,,,,,,,,,,,,,,,,,,,,,,,,,,,,,,,,,1.7,413.46789390034974,None,space,1,0.30790069978684187,415.26999690011144,None,415.26999690011144,None,415.26999690011144,None,,,,,,,,,,,P007,fencog,2,Pre,2021_Aug_04_1042,Go No-Go Task,2021.1.4,120.28700501891619,
,"Rule: When you see a yellow image, do not press 'spacebar'.",Images/Happy/AF09HAS.jpg,Happy,Blue,Images/Blue.jpg,space,ParentConditions/YellowYellowBlue_v2.xlsx,YellowYellowBlue,Conditions/Version_2/YellowFearStop.xlsx,no,PASS,0.20902890792548556,,,,,,,,,0,0,0,1,0,0,0,0,0,22,22,22,,,,,,,,,,,,,,,,,,,,,,,,,,,,,,,,,,,,,,,,,,,,,,,,,,,,,,,,,,,,,,,,,,,,,,,,,,,,,,,1.57,415.67487280024216,None,space,1,0.3132186997681856,417.35260980017483,None,417.35260980017483,None,417.35260980017483,None,,,,,,,,,,,P007,fencog,2,Pre,2021_Aug_04_1042,Go No-Go Task,2021.1.4,120.28700501891619,
,"Rule: When you see a yellow image, do not press 'spacebar'.",Images/Happy/BM02_HO.jpg,Happy,Blue,Images/Blue.jpg,space,ParentConditions/YellowYellowBlue_v2.xlsx,YellowYellowBlue,Conditions/Version_2/YellowFearStop.xlsx,no,PASS,0.6732741052769042,,,,,,,,,0,0,0,1,0,0,0,0,0,23,23,23,,,,,,,,,,,,,,,,,,,,,,,,,,,,,,,,,,,,,,,,,,,,,,,,,,,,,,,,,,,,,,,,,,,,,,,,,,,,,,,1.25,417.75639380002394,None,space,1,0.3305776002816856,419.1104762000032,None,419.1104762000032,None,419.1104762000032,None,,,,,,,,,,,P007,fencog,2,Pre,2021_Aug_04_1042,Go No-Go Task,2021.1.4,120.28700501891619,
,"Rule: When you see a yellow image, do not press 'spacebar'.",Images/Happy/AM09_HE.jpg,Happy,Blue,Images/Blue.jpg,space,ParentConditions/YellowYellowBlue_v2.xlsx,YellowYellowBlue,Conditions/Version_2/YellowFearStop.xlsx,no,PASS,0.6065078221259242,,,,,,,,,0,0,0,1,0,0,0,0,0,24,24,24,,,,,,,,,,,,,,,,,,,,,,,,,,,,,,,,,,,,,,,,,,,,,,,,,,,,,,,,,,,,,,,,,,,,,,,,,,,,,,,1.92,419.51089869998395,None,space,1,0.2736800997518003,421.54308200022206,None,421.54308200022206,None,421.54308200022206,None,,,,,,,,,,,P007,fencog,2,Pre,2021_Aug_04_1042,Go No-Go Task,2021.1.4,120.28700501891619,
,"Rule: When you see a yellow image, do not press 'spacebar'.",Images/Happy/AF10_HE.jpg,Happy,Blue,Images/Blue.jpg,space,ParentConditions/YellowYellowBlue_v2.xlsx,YellowYellowBlue,Conditions/Version_2/YellowFearStop.xlsx,no,PASS,0.6869968801100608,,,,,,,,,0,0,0,1,0,0,0,0,0,25,25,25,,,,,,,,,,,,,,,,,,,,,,,,,,,,,,,,,,,,,,,,,,,,,,,,,,,,,,,,,,,,,,,,,,,,,,,,,,,,,,,1.82,421.9421882000752,None,space,1,0.3020398002117872,423.8674590000883,None,423.8674590000883,None,423.8674590000883,None,,,,,,,,,,,P007,fencog,2,Pre,2021_Aug_04_1042,Go No-Go Task,2021.1.4,120.28700501891619,
,"Rule: When you see a yellow image, do not press 'spacebar'.",Images/Happy/BM01_HO.jpg,Happy,Blue,Images/Blue.jpg,space,ParentConditions/YellowYellowBlue_v2.xlsx,YellowYellowBlue,Conditions/Version_2/YellowFearStop.xlsx,no,PASS,0.5538207000686074,,,,,,,,,0,0,0,1,0,0,0,0,0,26,26,26,,,,,,,,,,,,,,,,,,,,,,,,,,,,,,,,,,,,,,,,,,,,,,,,,,,,,,,,,,,,,,,,,,,,,,,,,,,,,,,1.38,424.2720711999573,None,space,1,0.2983892001211643,425.75859190011397,None,425.75859190011397,None,425.75859190011397,None,,,,,,,,,,,P007,fencog,2,Pre,2021_Aug_04_1042,Go No-Go Task,2021.1.4,120.28700501891619,
,"Rule: When you see a yellow image, do not press 'spacebar'.",Images/Fearful/AF07_FO.jpg,Fear,Yellow,Images/Yellow.jpg,None,ParentConditions/YellowYellowBlue_v2.xlsx,YellowYellowBlue,Conditions/Version_2/YellowFearStop.xlsx,yes,PASS,0.5689879324899989,,,,,,,,,0,0,0,1,0,0,0,0,0,27,27,27,,,,,,,,,,,,,,,,,,,,,,,,,,,,,,,,,,,,,,,,,,,,,,,,,,,,,,,,,,,,,,,,,,,,,,,,,,,,,,,1.35,426.1681448002346,None,None,1,,427.61633069999516,None,427.61633069999516,None,427.61633069999516,None,,,,,,,,,,,P007,fencog,2,Pre,2021_Aug_04_1042,Go No-Go Task,2021.1.4,120.28700501891619,
,"Rule: When you see a yellow image, do not press 'spacebar'.",Images/Happy/BF18_HO.jpg,Happy,Blue,Images/Blue.jpg,space,ParentConditions/YellowYellowBlue_v2.xlsx,YellowYellowBlue,Conditions/Version_2/YellowFearStop.xlsx,no,PASS,0.2528908254284902,,,,,,,,,0,0,0,1,0,0,0,0,0,28,28,28,,,,,,,,,,,,,,,,,,,,,,,,,,,,,,,,,,,,,,,,,,,,,,,,,,,,,,,,,,,,,,,,,,,,,,,,,,,,,,,1.33,428.01683080010116,None,space,1,0.3442542003467679,429.4488348001614,None,429.4488348001614,None,429.4488348001614,None,,,,,,,,,,,P007,fencog,2,Pre,2021_Aug_04_1042,Go No-Go Task,2021.1.4,120.28700501891619,
,"Rule: When you see a yellow image, do not press 'spacebar'.",Images/Happy/AM03HAS.jpg,Happy,Blue,Images/Blue.jpg,space,ParentConditions/YellowYellowBlue_v2.xlsx,YellowYellowBlue,Conditions/Version_2/YellowFearStop.xlsx,no,PASS,0.6129705520501836,,,,,,,,,0,0,0,1,0,0,0,0,0,29,29,29,,,,,,,,,,,,,,,,,,,,,,,,,,,,,,,,,,,,,,,,,,,,,,,,,,,,,,,,,,,,,,,,,,,,,,,,,,,,,,,1.24,429.84968629991636,None,space,1,0.3308045999146998,431.1902697002515,None,431.1902697002515,None,431.1902697002515,None,,,,,,,,,,,P007,fencog,2,Pre,2021_Aug_04_1042,Go No-Go Task,2021.1.4,120.28700501891619,
,"Rule: When you see a yellow image, do not press 'spacebar'.",Images/Happy/BF10_HO.jpg,Happy,Blue,Images/Blue.jpg,space,ParentConditions/YellowYellowBlue_v2.xlsx,YellowYellowBlue,Conditions/Version_2/YellowFearStop.xlsx,no,PASS,0.6633214650414543,,,,,,,,,0,0,0,1,0,0,0,0,0,30,30,30,,,,,,,,,,,,,,,,,,,,,,,,,,,,,,,,,,,,,,,,,,,,,,,,,,,,,,,,,,,,,,,,,,,,,,,,,,,,,,,1.88,431.5898567000404,None,space,1,0.24392230017110705,433.5727623999119,None,433.5727623999119,None,433.5727623999119,None,,,,,,,,,,,P007,fencog,2,Pre,2021_Aug_04_1042,Go No-Go Task,2021.1.4,120.28700501891619,
,"Rule: When you see a yellow image, do not press 'spacebar'.",Images/Happy/BF07_HO.jpg,Happy,Blue,Images/Blue.jpg,space,ParentConditions/YellowYellowBlue_v2.xlsx,YellowYellowBlue,Conditions/Version_2/YellowFearStop.xlsx,no,PASS,0.38343441764823294,,,,,,,,,0,0,0,1,0,0,0,0,0,31,31,31,,,,,,,,,,,,,,,,,,,,,,,,,,,,,,,,,,,,,,,,,,,,,,,,,,,,,,,,,,,,,,,,,,,,,,,,,,,,,,,1.43,433.97912360029295,None,space,1,0.2957486999221146,435.5139049999416,None,435.5139049999416,None,435.5139049999416,None,,,,,,,,,,,P007,fencog,2,Pre,2021_Aug_04_1042,Go No-Go Task,2021.1.4,120.28700501891619,
,"Rule: When you see a yellow image, do not press 'spacebar'.",Images/Fearful/BF07_FO.jpg,Fear,Yellow,Images/Yellow.jpg,None,ParentConditions/YellowYellowBlue_v2.xlsx,YellowYellowBlue,Conditions/Version_2/YellowFearStop.xlsx,yes,PASS,0.00831620462665883,,,,,,,,,0,0,0,1,0,0,0,0,0,32,32,32,,,,,,,,,,,,,,,,,,,,,,,,,,,,,,,,,,,,,,,,,,,,,,,,,,,,,,,,,,,,,,,,,,,,,,,,,,,,,,,1.28,435.9228590000421,None,None,1,,437.2967214002274,None,437.2967214002274,None,437.2967214002274,None,,,,,,,,,,,P007,fencog,2,Pre,2021_Aug_04_1042,Go No-Go Task,2021.1.4,120.28700501891619,
,"Rule: When you see a yellow image, do not press 'spacebar'.",Images/Happy/WF04_HC.jpg,Happy,Blue,Images/Blue.jpg,space,ParentConditions/YellowYellowBlue_v2.xlsx,YellowYellowBlue,Conditions/Version_2/YellowFearStop.xlsx,no,PASS,0.6777495076385776,,,,,,,,,0,0,0,1,0,0,0,0,0,33,33,33,,,,,,,,,,,,,,,,,,,,,,,,,,,,,,,,,,,,,,,,,,,,,,,,,,,,,,,,,,,,,,,,,,,,,,,,,,,,,,,1.65,437.7030893000774,None,space,1,0.3632970000617206,439.454530000221,None,439.454530000221,None,439.454530000221,None,,,,,,,,,,,P007,fencog,2,Pre,2021_Aug_04_1042,Go No-Go Task,2021.1.4,120.28700501891619,
,"Rule: When you see a yellow image, do not press 'spacebar'.",Images/Happy/AM23HAS.jpg,Happy,Blue,Images/Blue.jpg,space,ParentConditions/YellowYellowBlue_v2.xlsx,YellowYellowBlue,Conditions/Version_2/YellowFearStop.xlsx,no,PASS,0.04303712392230152,,,,,,,,,0,0,0,1,0,0,0,0,0,34,34,34,,,,,,,,,,,,,,,,,,,,,,,,,,,,,,,,,,,,,,,,,,,,,,,,,,,,,,,,,,,,,,,,,,,,,,,,,,,,,,,2,439.86204810021445,None,space,1,0.295157500077039,441.96204560017213,None,441.96204560017213,None,441.96204560017213,None,,,,,,,,,,,P007,fencog,2,Pre,2021_Aug_04_1042,Go No-Go Task,2021.1.4,120.28700501891619,
,"Rule: When you see a yellow image, do not press 'spacebar'.",Images/Happy/AM09HAS.jpg,Happy,Blue,Images/Blue.jpg,space,ParentConditions/YellowYellowBlue_v2.xlsx,YellowYellowBlue,Conditions/Version_2/YellowFearStop.xlsx,no,PASS,0.09574836161041034,,,,,,,,,0,0,0,1,0,0,0,0,0,35,35,35,,,,,,,,,,,,,,,,,,,,,,,,,,,,,,,,,,,,,,,,,,,,,,,,,,,,,,,,,,,,,,,,,,,,,,,,,,,,,,,1.87,442.36194580001757,None,space,1,0.3129150001332164,444.336349400226,None,444.336349400226,None,444.336349400226,None,,,,,,,,,,,P007,fencog,2,Pre,2021_Aug_04_1042,Go No-Go Task,2021.1.4,120.28700501891619,
,"Rule: When you see a yellow image, do not press 'spacebar'.",Images/Happy/AM10HAS.jpg,Happy,Blue,Images/Blue.jpg,space,ParentConditions/YellowYellowBlue_v2.xlsx,YellowYellowBlue,Conditions/Version_2/YellowFearStop.xlsx,no,PASS,0.1630912911655703,,,,,,,,,0,0,0,1,0,0,0,0,0,36,36,36,,,,,,,,,,,,,,,,,,,,,,,,,,,,,,,,,,,,,,,,,,,,,,,,,,,,,,,,,,,,,,,,,,,,,,,,,,,,,,,1.29,444.7367483000271,None,space,1,0.37773079983890057,446.12742840033025,None,446.12742840033025,None,446.12742840033025,None,,,,,,,,,,,P007,fencog,2,Pre,2021_Aug_04_1042,Go No-Go Task,2021.1.4,120.28700501891619,
,"Rule: When you see a yellow image, do not press 'spacebar'.",Images/Happy/AF07HAS.jpg,Happy,Blue,Images/Blue.jpg,space,ParentConditions/YellowYellowBlue_v2.xlsx,YellowYellowBlue,Conditions/Version_2/YellowFearStop.xlsx,no,PASS,0.34867471869559996,,,,,,,,,0,0,0,1,0,0,0,0,0,37,37,37,,,,,,,,,,,,,,,,,,,,,,,,,,,,,,,,,,,,,,,,,,,,,,,,,,,,,,,,,,,,,,,,,,,,,,,,,,,,,,,1.6,446.52973480010405,None,space,1,0.30994080007076263,448.23514780029655,None,448.23514780029655,None,448.23514780029655,None,,,,,,,,,,,P007,fencog,2,Pre,2021_Aug_04_1042,Go No-Go Task,2021.1.4,120.28700501891619,
,"Rule: When you see a yellow image, do not press 'spacebar'.",Images/Happy/AM03_HO.jpg,Happy,Blue,Images/Blue.jpg,space,ParentConditions/YellowYellowBlue_v2.xlsx,YellowYellowBlue,Conditions/Version_2/YellowFearStop.xlsx,no,PASS,0.8852047943617631,,,,,,,,,0,0,0,1,0,0,0,0,0,38,38,38,,,,,,,,,,,,,,,,,,,,,,,,,,,,,,,,,,,,,,,,,,,,,,,,,,,,,,,,,,,,,,,,,,,,,,,,,,,,,,,1.94,448.6366642001085,None,space,1,0.24494690028950572,450.684516500216,None,450.684516500216,None,450.684516500216,None,,,,,,,,,,,P007,fencog,2,Pre,2021_Aug_04_1042,Go No-Go Task,2021.1.4,120.28700501891619,
,"Rule: When you see a yellow image, do not press 'spacebar'.",Images/Happy/AM05HAS.jpg,Happy,Blue,Images/Blue.jpg,space,ParentConditions/YellowYellowBlue_v2.xlsx,YellowYellowBlue,Conditions/Version_2/YellowFearStop.xlsx,no,PASS,0.25496798119470154,,,,,,,,,0,0,0,1,0,0,0,0,0,39,39,39,,,,,,,,,,,,,,,,,,,,,,,,,,,,,,,,,,,,,,,,,,,,,,,,,,,,,,,,,,,,,,,,,,,,,,,,,,,,,,,1.41,451.08818420022726,None,space,1,0.3529933001846075,452.60052330000326,None,452.60052330000326,None,452.60052330000326,None,,,,,,,,,,,P007,fencog,2,Pre,2021_Aug_04_1042,Go No-Go Task,2021.1.4,120.28700501891619,
,"Rule: When you see a yellow image, do not press 'spacebar'.",Images/Happy/AF02HAS.jpg,Happy,Blue,Images/Blue.jpg,space,ParentConditions/YellowYellowBlue_v2.xlsx,YellowYellowBlue,Conditions/Version_2/YellowFearStop.xlsx,no,PASS,0.4518610007497229,,,,,,,,,0,0,0,1,0,0,0,0,0,40,40,40,,,,,,,,,,,,,,,,,,,,,,,,,,,,,,,,,,,,,,,,,,,,,,,,,,,,,,,,,,,,,,,,,,,,,,,,,,,,,,,1.48,453.00643910001963,None,space,1,0.2652505999431014,454.5917430999689,None,454.5917430999689,None,454.5917430999689,None,,,,,,,,,,,P007,fencog,2,Pre,2021_Aug_04_1042,Go No-Go Task,2021.1.4,120.28700501891619,
,"Rule: When you see a yellow image, do not press 'spacebar'.",Images/Happy/BM08_HO.jpg,Happy,Blue,Images/Blue.jpg,space,ParentConditions/YellowYellowBlue_v2.xlsx,YellowYellowBlue,Conditions/Version_2/YellowFearStop.xlsx,no,PASS,0.6109180265070229,,,,,,,,,0,0,0,1,0,0,0,0,0,41,41,41,,,,,,,,,,,,,,,,,,,,,,,,,,,,,,,,,,,,,,,,,,,,,,,,,,,,,,,,,,,,,,,,,,,,,,,,,,,,,,,1.86,454.9934970000759,None,space,1,0.2999472999945283,456.95764050027356,None,456.95764050027356,None,456.95764050027356,None,,,,,,,,,,,P007,fencog,2,Pre,2021_Aug_04_1042,Go No-Go Task,2021.1.4,120.28700501891619,
,"Rule: When you see a yellow image, do not press 'spacebar'.",Images/Happy/AM22HAS.jpg,Happy,Blue,Images/Blue.jpg,space,ParentConditions/YellowYellowBlue_v2.xlsx,YellowYellowBlue,Conditions/Version_2/YellowFearStop.xlsx,no,PASS,0.358808559720486,,,,,,,,,0,0,0,1,0,0,0,0,0,42,42,42,,,,,,,,,,,,,,,,,,,,,,,,,,,,,,,,,,,,,,,,,,,,,,,,,,,,,,,,,,,,,,,,,,,,,,,,,,,,,,,1.56,457.35766760027036,None,space,1,0.2981922999024391,459.0236233002506,None,459.0236233002506,None,459.0236233002506,None,,,,,,,,,,,P007,fencog,2,Pre,2021_Aug_04_1042,Go No-Go Task,2021.1.4,120.28700501891619,
,"Rule: When you see a yellow image, do not press 'spacebar'.",Images/Happy/AM30HAS.jpg,Happy,Blue,Images/Blue.jpg,space,ParentConditions/YellowYellowBlue_v2.xlsx,YellowYellowBlue,Conditions/Version_2/YellowFearStop.xlsx,no,PASS,0.02897569025915847,,,,,,,,,0,0,0,1,0,0,0,0,0,43,43,43,,,,,,,,,,,,,,,,,,,,,,,,,,,,,,,,,,,,,,,,,,,,,,,,,,,,,,,,,,,,,,,,,,,,,,,,,,,,,,,1.93,459.42355319997296,None,space,1,0.2561153001151979,461.46465400001034,None,461.46465400001034,None,461.46465400001034,None,,,,,,,,,,,P007,fencog,2,Pre,2021_Aug_04_1042,Go No-Go Task,2021.1.4,120.28700501891619,
,"Rule: When you see a yellow image, do not press 'spacebar'.",Images/Fearful/BF09_FC.jpg,Fear,Yellow,Images/Yellow.jpg,None,ParentConditions/YellowYellowBlue_v2.xlsx,YellowYellowBlue,Conditions/Version_2/YellowFearStop.xlsx,yes,PASS,0.33656912313274023,,,,,,,,,0,0,0,1,0,0,0,0,0,44,44,44,,,,,,,,,,,,,,,,,,,,,,,,,,,,,,,,,,,,,,,,,,,,,,,,,,,,,,,,,,,,,,,,,,,,,,,,,,,,,,,1.67,461.8614256000146,None,None,1,,463.63893860019743,None,463.63893860019743,None,463.63893860019743,None,,,,,,,,,,,P007,fencog,2,Pre,2021_Aug_04_1042,Go No-Go Task,2021.1.4,120.28700501891619,
,"Rule: When you see a yellow image, do not press 'spacebar'.",Images/Happy/WM12_HE.jpg,Happy,Blue,Images/Blue.jpg,space,ParentConditions/YellowYellowBlue_v2.xlsx,YellowYellowBlue,Conditions/Version_2/YellowFearStop.xlsx,no,PASS,0.7601850991054155,,,,,,,,,0,0,0,1,0,0,0,0,0,45,45,45,,,,,,,,,,,,,,,,,,,,,,,,,,,,,,,,,,,,,,,,,,,,,,,,,,,,,,,,,,,,,,,,,,,,,,,,,,,,,,,1.45,464.0398095003329,None,space,1,0.29276679968461394,465.59672350017354,None,465.59672350017354,None,465.59672350017354,None,,,,,,,,,,,P007,fencog,2,Pre,2021_Aug_04_1042,Go No-Go Task,2021.1.4,120.28700501891619,
,"Rule: When you see a yellow image, do not press 'spacebar'.",Images/Happy/HF10_HE.jpg,Happy,Blue,Images/Blue.jpg,space,ParentConditions/YellowYellowBlue_v2.xlsx,YellowYellowBlue,Conditions/Version_2/YellowFearStop.xlsx,no,PASS,0.6650727272929988,,,,,,,,,0,0,0,1,0,0,0,0,0,46,46,46,,,,,,,,,,,,,,,,,,,,,,,,,,,,,,,,,,,,,,,,,,,,,,,,,,,,,,,,,,,,,,,,,,,,,,,,,,,,,,,1.76,465.9986666003242,None,space,1,0.3385952999815345,467.8627766999416,None,467.8627766999416,None,467.8627766999416,None,,,,,,,,,,,P007,fencog,2,Pre,2021_Aug_04_1042,Go No-Go Task,2021.1.4,120.28700501891619,
,"Rule: When you see a yellow image, do not press 'spacebar'.",Images/Happy/HM09_HO.jpg,Happy,Blue,Images/Blue.jpg,space,ParentConditions/YellowYellowBlue_v2.xlsx,YellowYellowBlue,Conditions/Version_2/YellowFearStop.xlsx,no,PASS,0.7196619298468737,,,,,,,,,0,0,0,1,0,0,0,0,0,47,47,47,,,,,,,,,,,,,,,,,,,,,,,,,,,,,,,,,,,,,,,,,,,,,,,,,,,,,,,,,,,,,,,,,,,,,,,,,,,,,,,1.72,468.26196329994127,None,space,1,0.3381880996748805,470.0871109003201,None,470.0871109003201,None,470.0871109003201,None,,,,,,,,,,,P007,fencog,2,Pre,2021_Aug_04_1042,Go No-Go Task,2021.1.4,120.28700501891619,
,"Rule: When you see a yellow image, do not press 'spacebar'.",Images/Fearful/AM03_FC.jpg,Fear,Yellow,Images/Yellow.jpg,None,ParentConditions/YellowYellowBlue_v2.xlsx,YellowYellowBlue,Conditions/Version_2/YellowFearStop.xlsx,yes,PASS,0.9021154613913315,,,,,,,,,0,0,0,1,0,0,0,0,0,48,48,48,,,,,,,,,,,,,,,,,,,,,,,,,,,,,,,,,,,,,,,,,,,,,,,,,,,,,,,,,,,,,,,,,,,,,,,,,,,,,,,1.5,470.4940097001381,None,None,1,,472.09482540003955,None,472.09482540003955,None,472.09482540003955,None,,,,,,,,,,,P007,fencog,2,Pre,2021_Aug_04_1042,Go No-Go Task,2021.1.4,120.28700501891619,
,"Rule: When you see a yellow image, do not press 'spacebar'.",Images/Happy/HF04_HE.jpg,Happy,Blue,Images/Blue.jpg,space,ParentConditions/YellowYellowBlue_v2.xlsx,YellowYellowBlue,Conditions/Version_2/YellowFearStop.xlsx,no,PASS,0.6828282636628492,,,,,,,,,0,0,0,1,0,0,0,0,0,49,49,49,,,,,,,,,,,,,,,,,,,,,,,,,,,,,,,,,,,,,,,,,,,,,,,,,,,,,,,,,,,,,,,,,,,,,,,,,,,,,,,1.44,472.49748900020495,None,space,1,0.29284599982202053,474.0442459001206,None,474.0442459001206,None,474.0442459001206,None,,,,,,,,,,,P007,fencog,2,Pre,2021_Aug_04_1042,Go No-Go Task,2021.1.4,120.28700501891619,
,"Rule: When you see a yellow image, do not press 'spacebar'.",Images/Happy/AM17HAS.jpg,Happy,Blue,Images/Blue.jpg,space,ParentConditions/YellowYellowBlue_v2.xlsx,YellowYellowBlue,Conditions/Version_2/YellowFearStop.xlsx,no,PASS,0.7726840133197573,,,,,,,,,0,0,0,1,0,0,0,0,0,50,50,50,,,,,,,,,,,,,,,,,,,,,,,,,,,,,,,,,,,,,,,,,,,,,,,,,,,,,,,,,,,,,,,,,,,,,,,,,,,,,,,1.21,474.45439830003306,None,space,1,0.3216357002966106,475.76867690030485,None,475.76867690030485,None,475.76867690030485,None,,,,,,,,,,,P007,fencog,2,Pre,2021_Aug_04_1042,Go No-Go Task,2021.1.4,120.28700501891619,
,"Rule: When you see a yellow image, do not press 'spacebar'.",Images/Fearful/BM01_FO.jpg,Fear,Yellow,Images/Yellow.jpg,None,ParentConditions/YellowYellowBlue_v2.xlsx,YellowYellowBlue,Conditions/Version_2/YellowFearStop.xlsx,yes,PASS,0.029850228609631824,,,,,,,,,0,0,0,1,0,0,0,0,0,51,51,51,,,,,,,,,,,,,,,,,,,,,,,,,,,,,,,,,,,,,,,,,,,,,,,,,,,,,,,,,,,,,,,,,,,,,,,,,,,,,,,1.91,476.16926250001416,None,None,1,,478.1846394003369,None,478.1846394003369,None,478.1846394003369,None,,,,,,,,,,,P007,fencog,2,Pre,2021_Aug_04_1042,Go No-Go Task,2021.1.4,120.28700501891619,
,"Rule: When you see a yellow image, do not press 'spacebar'.",Images/Happy/HF09_HE.jpg,Happy,Blue,Images/Blue.jpg,space,ParentConditions/YellowYellowBlue_v2.xlsx,YellowYellowBlue,Conditions/Version_2/YellowFearStop.xlsx,no,PASS,0.5416297044271999,,,,,,,,,0,0,0,1,0,0,0,0,0,52,52,52,,,,,,,,,,,,,,,,,,,,,,,,,,,,,,,,,,,,,,,,,,,,,,,,,,,,,,,,,,,,,,,,,,,,,,,,,,,,,,,1.39,478.58876190008596,None,space,1,0.3010263997130096,480.0842224000953,None,480.0842224000953,None,480.0842224000953,None,,,,,,,,,,,P007,fencog,2,Pre,2021_Aug_04_1042,Go No-Go Task,2021.1.4,120.28700501891619,
,"Rule: When you see a yellow image, do not press 'spacebar'.",Images/Happy/WF11_HE.jpg,Happy,Blue,Images/Blue.jpg,space,ParentConditions/YellowYellowBlue_v2.xlsx,YellowYellowBlue,Conditions/Version_2/YellowFearStop.xlsx,no,PASS,0.3923399468002319,,,,,,,,,0,0,0,1,0,0,0,0,0,53,53,53,,,,,,,,,,,,,,,,,,,,,,,,,,,,,,,,,,,,,,,,,,,,,,,,,,,,,,,,,,,,,,,,,,,,,,,,,,,,,,,1.61,480.4862019000575,None,space,1,0.28082630038261414,482.2001539999619,None,482.2001539999619,None,482.2001539999619,None,,,,,,,,,,,P007,fencog,2,Pre,2021_Aug_04_1042,Go No-Go Task,2021.1.4,120.28700501891619,
,"Rule: When you see a yellow image, do not press 'spacebar'.",Images/Fearful/AM04AFS.jpg,Fear,Yellow,Images/Yellow.jpg,None,ParentConditions/YellowYellowBlue_v2.xlsx,YellowYellowBlue,Conditions/Version_2/YellowFearStop.xlsx,yes,PASS,0.7106263735051498,,,,,,,,,0,0,0,1,0,0,0,0,0,54,54,54,,,,,,,,,,,,,,,,,,,,,,,,,,,,,,,,,,,,,,,,,,,,,,,,,,,,,,,,,,,,,,,,,,,,,,,,,,,,,,,1.9,482.6006644000299,None,None,1,,484.5994120002724,None,484.5994120002724,None,484.5994120002724,None,,,,,,,,,,,P007,fencog,2,Pre,2021_Aug_04_1042,Go No-Go Task,2021.1.4,120.28700501891619,
,"Rule: When you see a yellow image, do not press 'spacebar'.",Images/Happy/AF19HAS.jpg,Happy,Blue,Images/Blue.jpg,space,ParentConditions/YellowYellowBlue_v2.xlsx,YellowYellowBlue,Conditions/Version_2/YellowFearStop.xlsx,no,PASS,0.3419128984214137,,,,,,,,,0,0,0,1,0,0,0,0,0,55,55,55,,,,,,,,,,,,,,,,,,,,,,,,,,,,,,,,,,,,,,,,,,,,,,,,,,,,,,,,,,,,,,,,,,,,,,,,,,,,,,,1.22,485.00532370014116,None,space,1,0.340565400198102,486.3321998999454,None,486.3321998999454,None,486.3321998999454,None,,,,,,,,,,,P007,fencog,2,Pre,2021_Aug_04_1042,Go No-Go Task,2021.1.4,120.28700501891619,
,"Rule: When you see a yellow image, do not press 'spacebar'.",Images/Happy/HM06_HO.jpg,Happy,Blue,Images/Blue.jpg,space,ParentConditions/YellowYellowBlue_v2.xlsx,YellowYellowBlue,Conditions/Version_2/YellowFearStop.xlsx,no,PASS,0.8215154078276994,,,,,,,,,0,0,0,1,0,0,0,0,0,56,56,56,,,,,,,,,,,,,,,,,,,,,,,,,,,,,,,,,,,,,,,,,,,,,,,,,,,,,,,,,,,,,,,,,,,,,,,,,,,,,,,1.54,486.73460340034217,None,space,1,0.36367439990863204,488.37333879992366,None,488.37333879992366,None,488.37333879992366,None,,,,,,,,,,,P007,fencog,2,Pre,2021_Aug_04_1042,Go No-Go Task,2021.1.4,120.28700501891619,
,"Rule: When you see a yellow image, do not press 'spacebar'.",Images/Happy/HF05_HO.jpg,Happy,Blue,Images/Blue.jpg,space,ParentConditions/YellowYellowBlue_v2.xlsx,YellowYellowBlue,Conditions/Version_2/YellowFearStop.xlsx,no,PASS,0.4418945189155604,,,,,,,,,0,0,0,1,0,0,0,0,0,57,57,57,,,,,,,,,,,,,,,,,,,,,,,,,,,,,,,,,,,,,,,,,,,,,,,,,,,,,,,,,,,,,,,,,,,,,,,,,,,,,,,1.63,488.77408070024103,None,None,0,,490.5060028000735,None,490.5060028000735,None,490.5060028000735,None,,,,,,,,,,,P007,fencog,2,Pre,2021_Aug_04_1042,Go No-Go Task,2021.1.4,120.28700501891619,
,"Rule: When you see a yellow image, do not press 'spacebar'.",Images/Fearful/AF01_FO.jpg,Fear,Yellow,Images/Yellow.jpg,None,ParentConditions/YellowYellowBlue_v2.xlsx,YellowYellowBlue,Conditions/Version_2/YellowFearStop.xlsx,yes,PASS,0.9630260753042453,,,,,,,,,0,0,0,1,0,0,0,0,0,58,58,58,,,,,,,,,,,,,,,,,,,,,,,,,,,,,,,,,,,,,,,,,,,,,,,,,,,,,,,,,,,,,,,,,,,,,,,,,,,,,,,1.74,490.91754300007597,None,None,1,,492.7636973001063,None,492.7636973001063,None,492.7636973001063,None,,,,,,,,,,,P007,fencog,2,Pre,2021_Aug_04_1042,Go No-Go Task,2021.1.4,120.28700501891619,
,"Rule: When you see a yellow image, do not press 'spacebar'.",Images/Happy/AF21HAS.jpg,Happy,Blue,Images/Blue.jpg,space,ParentConditions/YellowYellowBlue_v2.xlsx,YellowYellowBlue,Conditions/Version_2/YellowFearStop.xlsx,no,PASS,0.5410977161582079,,,,,,,,,0,0,0,1,0,0,0,0,0,59,59,59,,,,,,,,,,,,,,,,,,,,,,,,,,,,,,,,,,,,,,,,,,,,,,,,,,,,,,,,,,,,,,,,,,,,,,,,,,,,,,,1.52,493.16623000008985,None,space,1,0.340565700083971,494.78890620032325,None,494.78890620032325,None,494.78890620032325,None,,,,,,,,,,,P007,fencog,2,Pre,2021_Aug_04_1042,Go No-Go Task,2021.1.4,120.28700501891619,
,"Rule: When you see a yellow image, do not press 'spacebar'.",Images/Happy/AM06_HC.jpg,Happy,Blue,Images/Blue.jpg,space,ParentConditions/YellowYellowBlue_v2.xlsx,YellowYellowBlue,Conditions/Version_2/YellowFearStop.xlsx,no,PASS,0.8195458073624309,,,,,,,,,0,0,0,1,0,0,0,0,0,60,60,60,,,,,,,,,,,,,,,,,,,,,,,,,,,,,,,,,,,,,,,,,,,,,,,,,,,,,,,,,,,,,,,,,,,,,,,,,,,,,,,1.2,495.1973995002918,None,None,0,,496.5041995001957,None,496.5041995001957,None,496.5041995001957,None,,,,,,,,,,,P007,fencog,2,Pre,2021_Aug_04_1042,Go No-Go Task,2021.1.4,120.28700501891619,
,"Rule: When you see a yellow image, do not press 'spacebar'.",Images/Fearful/AF02AFS.jpg,Fear,Yellow,Images/Yellow.jpg,None,ParentConditions/YellowYellowBlue_v2.xlsx,YellowYellowBlue,Conditions/Version_2/YellowFearStop.xlsx,yes,PASS,0.43475605439224807,,,,,,,,,0,0,0,1,0,0,0,0,0,61,61,61,,,,,,,,,,,,,,,,,,,,,,,,,,,,,,,,,,,,,,,,,,,,,,,,,,,,,,,,,,,,,,,,,,,,,,,,,,,,,,,1.97,496.90400310000405,None,None,1,,498.97845569998026,None,498.97845569998026,None,498.97845569998026,None,,,,,,,,,,,P007,fencog,2,Pre,2021_Aug_04_1042,Go No-Go Task,2021.1.4,120.28700501891619,
,"Rule: When you see a yellow image, do not press 'spacebar'.",Images/Happy/AF25HAS.jpg,Happy,Blue,Images/Blue.jpg,space,ParentConditions/YellowYellowBlue_v2.xlsx,YellowYellowBlue,Conditions/Version_2/YellowFearStop.xlsx,no,PASS,0.35344562160834636,,,,,,,,,0,0,0,1,0,0,0,0,0,62,62,62,,,,,,,,,,,,,,,,,,,,,,,,,,,,,,,,,,,,,,,,,,,,,,,,,,,,,,,,,,,,,,,,,,,,,,,,,,,,,,,1.31,499.3861750001088,None,space,1,0.3017735001631081,500.8029459998943,None,500.8029459998943,None,500.8029459998943,None,,,,,,,,,,,P007,fencog,2,Pre,2021_Aug_04_1042,Go No-Go Task,2021.1.4,120.28700501891619,
,"Rule: When you see a yellow image, do not press 'spacebar'.",Images/Happy/AM32HAS.jpg,Happy,Blue,Images/Blue.jpg,space,ParentConditions/YellowYellowBlue_v2.xlsx,YellowYellowBlue,Conditions/Version_2/YellowFearStop.xlsx,no,PASS,0.10846156836896592,,,,,,,,,0,0,0,1,0,0,0,0,0,63,63,63,,,,,,,,,,,,,,,,,,,,,,,,,,,,,,,,,,,,,,,,,,,,,,,,,,,,,,,,,,,,,,,,,,,,,,,,,,,,,,,1.8,501.2037106999196,None,space,1,0.2746557001955807,503.102312900126,None,503.102312900126,None,503.102312900126,None,,,,,,,,,,,P007,fencog,2,Pre,2021_Aug_04_1042,Go No-Go Task,2021.1.4,120.28700501891619,
,"Rule: When you see a yellow image, do not press 'spacebar'.",Images/Fearful/AM02_FO.jpg,Fear,Yellow,Images/Yellow.jpg,None,ParentConditions/YellowYellowBlue_v2.xlsx,YellowYellowBlue,Conditions/Version_2/YellowFearStop.xlsx,yes,PASS,0.093492050295921,,,,,,,,,0,0,0,1,0,0,0,0,0,64,64,64,,,,,,,,,,,,,,,,,,,,,,,,,,,,,,,,,,,,,,,,,,,,,,,,,,,,,,,,,,,,,,,,,,,,,,,,,,,,,,,1.49,503.5109418001957,None,None,1,,505.1017094999552,None,505.1017094999552,None,505.1017094999552,None,,,,,,,,,,,P007,fencog,2,Pre,2021_Aug_04_1042,Go No-Go Task,2021.1.4,120.28700501891619,
,"Rule: When you see a yellow image, do not press 'spacebar'.",Images/Fearful/BM02_FC.jpg,Fear,Yellow,Images/Yellow.jpg,None,ParentConditions/YellowYellowBlue_v2.xlsx,YellowYellowBlue,Conditions/Version_2/YellowFearStop.xlsx,yes,PASS,0.8390777988560751,,,,,,,,,0,0,0,1,0,0,0,0,0,65,65,65,,,,,,,,,,,,,,,,,,,,,,,,,,,,,,,,,,,,,,,,,,,,,,,,,,,,,,,,,,,,,,,,,,,,,,,,,,,,,,,1.27,505.5008891001344,None,None,1,,506.8761722999625,None,506.8761722999625,None,506.8761722999625,None,,,,,,,,,,,P007,fencog,2,Pre,2021_Aug_04_1042,Go No-Go Task,2021.1.4,120.28700501891619,
,"Rule: When you see a yellow image, do not press 'spacebar'.",Images/Happy/AM04_HE.jpg,Happy,Blue,Images/Blue.jpg,space,ParentConditions/YellowYellowBlue_v2.xlsx,YellowYellowBlue,Conditions/Version_2/YellowFearStop.xlsx,no,PASS,0.268677407796428,,,,,,,,,0,0,0,1,0,0,0,0,0,66,66,66,,,,,,,,,,,,,,,,,,,,,,,,,,,,,,,,,,,,,,,,,,,,,,,,,,,,,,,,,,,,,,,,,,,,,,,,,,,,,,,1.58,507.2770413001999,None,space,1,0.2820860999636352,508.958928800188,None,508.958928800188,None,508.958928800188,None,,,,,,,,,,,P007,fencog,2,Pre,2021_Aug_04_1042,Go No-Go Task,2021.1.4,120.28700501891619,
,"Rule: When you see a yellow image, do not press 'spacebar'.",Images/Fearful/AM05AFS.jpg,Fear,Yellow,Images/Yellow.jpg,None,ParentConditions/YellowYellowBlue_v2.xlsx,YellowYellowBlue,Conditions/Version_2/YellowFearStop.xlsx,yes,PASS,0.6951263252071049,,,,,,,,,0,0,0,1,0,0,0,0,0,67,67,67,,,,,,,,,,,,,,,,,,,,,,,,,,,,,,,,,,,,,,,,,,,,,,,,,,,,,,,,,,,,,,,,,,,,,,,,,,,,,,,1.69,509.35875339992344,None,None,1,,511.14155070018023,None,511.14155070018023,None,511.14155070018023,None,,,,,,,,,,,P007,fencog,2,Pre,2021_Aug_04_1042,Go No-Go Task,2021.1.4,120.28700501891619,
,"Rule: When you see a yellow image, do not press 'spacebar'.",Images/Happy/AF28HAS.jpg,Happy,Blue,Images/Blue.jpg,space,ParentConditions/YellowYellowBlue_v2.xlsx,YellowYellowBlue,Conditions/Version_2/YellowFearStop.xlsx,no,PASS,0.25032705960911217,,,,,,,,,0,0,0,1,0,0,0,0,0,68,68,68,,,,,,,,,,,,,,,,,,,,,,,,,,,,,,,,,,,,,,,,,,,,,,,,,,,,,,,,,,,,,,,,,,,,,,,,,,,,,,,1.42,511.5466030999087,None,space,1,0.31049059983342886,513.0742879002355,None,513.0742879002355,None,513.0742879002355,None,,,,,,,,,,,P007,fencog,2,Pre,2021_Aug_04_1042,Go No-Go Task,2021.1.4,120.28700501891619,
,"Rule: When you see a yellow image, do not press 'spacebar'.",Images/Happy/AF07_HO.jpg,Happy,Blue,Images/Blue.jpg,space,ParentConditions/YellowYellowBlue_v2.xlsx,YellowYellowBlue,Conditions/Version_2/YellowFearStop.xlsx,no,PASS,0.293841477080362,,,,,,,,,0,0,0,1,0,0,0,0,0,69,69,69,,,,,,,,,,,,,,,,,,,,,,,,,,,,,,,,,,,,,,,,,,,,,,,,,,,,,,,,,,,,,,,,,,,,,,,,,,,,,,,1.3,513.4750202000141,None,space,1,0.36756250029429793,514.8821279001422,None,514.8821279001422,None,514.8821279001422,None,,,,,,,,,,,P007,fencog,2,Pre,2021_Aug_04_1042,Go No-Go Task,2021.1.4,120.28700501891619,
,"Rule: When you see a yellow image, do not press 'spacebar'.",Images/Happy/BF14_HO.jpg,Happy,Blue,Images/Blue.jpg,space,ParentConditions/YellowYellowBlue_v2.xlsx,YellowYellowBlue,Conditions/Version_2/YellowFearStop.xlsx,no,PASS,0.40422519447396765,,,,,,,,,0,0,0,1,0,0,0,0,0,70,70,70,,,,,,,,,,,,,,,,,,,,,,,,,,,,,,,,,,,,,,,,,,,,,,,,,,,,,,,,,,,,,,,,,,,,,,,,,,,,,,,1.32,515.2820451003499,None,space,1,0.35800320003181696,516.7065745000727,None,516.7065745000727,None,516.7065745000727,None,,,,,,,,,,,P007,fencog,2,Pre,2021_Aug_04_1042,Go No-Go Task,2021.1.4,120.28700501891619,
,"Rule: When you see a yellow image, do not press 'spacebar'.",Images/Fearful/AF07FS.jpg,Fear,Yellow,Images/Yellow.jpg,None,ParentConditions/YellowYellowBlue_v2.xlsx,YellowYellowBlue,Conditions/Version_2/YellowFearStop.xlsx,yes,PASS,0.7059954464635801,,,,,,,,,0,0,0,1,0,0,0,0,0,71,71,71,,,,,,,,,,,,,,,,,,,,,,,,,,,,,,,,,,,,,,,,,,,,,,,,,,,,,,,,,,,,,,,,,,,,,,,,,,,,,,,1.64,517.1068555000238,None,None,1,,518.8559644999914,None,518.8559644999914,None,518.8559644999914,None,,,,,,,,,,,P007,fencog,2,Pre,2021_Aug_04_1042,Go No-Go Task,2021.1.4,120.28700501891619,
,"Rule: When you see a yellow image, do not press 'spacebar'.",Images/Happy/AF32HAS.jpg,Happy,Blue,Images/Blue.jpg,space,ParentConditions/YellowYellowBlue_v2.xlsx,YellowYellowBlue,Conditions/Version_2/YellowFearStop.xlsx,no,PASS,0.6505932127186488,,,,,,,,,0,0,0,1,0,0,0,0,0,72,72,72,,,,,,,,,,,,,,,,,,,,,,,,,,,,,,,,,,,,,,,,,,,,,,,,,,,,,,,,,,,,,,,,,,,,,,,,,,,,,,,1.37,519.2550492999144,None,space,1,0.2947243000380695,520.738624300342,None,520.738624300342,None,520.738624300342,None,,,,,,,,,,,P007,fencog,2,Pre,2021_Aug_04_1042,Go No-Go Task,2021.1.4,120.28700501891619,
,"Rule: When you see a yellow image, do not press 'spacebar'.",Images/Happy/AF11HAS.jpg,Happy,Blue,Images/Blue.jpg,space,ParentConditions/YellowYellowBlue_v2.xlsx,YellowYellowBlue,Conditions/Version_2/YellowFearStop.xlsx,no,PASS,0.22413936824153813,,,,,,,,,0,0,0,1,0,0,0,0,0,73,73,73,,,,,,,,,,,,,,,,,,,,,,,,,,,,,,,,,,,,,,,,,,,,,,,,,,,,,,,,,,,,,,,,,,,,,,,,,,,,,,,1.34,521.1367235002108,None,None,0,,522.588173400145,None,522.588173400145,None,522.588173400145,None,,,,,,,,,,,P007,fencog,2,Pre,2021_Aug_04_1042,Go No-Go Task,2021.1.4,120.28700501891619,
,"Rule: When you see a yellow image, do not press 'spacebar'.",Images/Happy/AM19HAS.jpg,Happy,Blue,Images/Blue.jpg,space,ParentConditions/YellowYellowBlue_v2.xlsx,YellowYellowBlue,Conditions/Version_2/YellowFearStop.xlsx,no,PASS,0.5367328627339492,,,,,,,,,0,0,0,1,0,0,0,0,0,74,74,74,,,,,,,,,,,,,,,,,,,,,,,,,,,,,,,,,,,,,,,,,,,,,,,,,,,,,,,,,,,,,,,,,,,,,,,,,,,,,,,1.77,522.9871466001496,None,space,1,0.3710221000947058,524.8542229002342,None,524.8542229002342,None,524.8542229002342,None,,,,,,,,,,,P007,fencog,2,Pre,2021_Aug_04_1042,Go No-Go Task,2021.1.4,120.28700501891619,
,"Rule: When you see a yellow image, do not press 'spacebar'.",Images/Happy/AM01HAS.jpg,Happy,Blue,Images/Blue.jpg,space,ParentConditions/YellowYellowBlue_v2.xlsx,YellowYellowBlue,Conditions/Version_2/YellowFearStop.xlsx,no,PASS,0.4512238869721793,,,,,,,,,0,0,0,1,0,0,0,0,0,75,75,75,,,,,,,,,,,,,,,,,,,,,,,,,,,,,,,,,,,,,,,,,,,,,,,,,,,,,,,,,,,,,,,,,,,,,,,,,,,,,,,1.89,525.2556884000078,None,space,1,0.3396330000832677,527.2534381002188,None,527.2534381002188,None,527.2534381002188,None,,,,,,,,,,,P007,fencog,2,Pre,2021_Aug_04_1042,Go No-Go Task,2021.1.4,120.28700501891619,
,"Rule: When you see a yellow image, do not press 'spacebar'.",Images/Happy/WF05_HC.jpg,Happy,Blue,Images/Blue.jpg,space,ParentConditions/YellowYellowBlue_v2.xlsx,YellowYellowBlue,Conditions/Version_2/YellowFearStop.xlsx,no,PASS,0.7681499259335962,,,,,,,,,0,0,0,1,0,0,0,0,0,76,76,76,,,,,,,,,,,,,,,,,,,,,,,,,,,,,,,,,,,,,,,,,,,,,,,,,,,,,,,,,,,,,,,,,,,,,,,,,,,,,,,1.23,527.6526641999371,None,None,0,,528.986256999895,None,528.986256999895,None,528.986256999895,None,,,,,,,,,,,P007,fencog,2,Pre,2021_Aug_04_1042,Go No-Go Task,2021.1.4,120.28700501891619,
,"Rule: When you see a yellow image, do not press 'spacebar'.",Images/Happy/BM03_HO.jpg,Happy,Blue,Images/Blue.jpg,space,ParentConditions/YellowYellowBlue_v2.xlsx,YellowYellowBlue,Conditions/Version_2/YellowFearStop.xlsx,no,PASS,0.5824047138137685,,,,,,,,,0,0,0,1,0,0,0,0,0,77,77,77,,,,,,,,,,,,,,,,,,,,,,,,,,,,,,,,,,,,,,,,,,,,,,,,,,,,,,,,,,,,,,,,,,,,,,,,,,,,,,,1.95,529.388586200308,None,space,1,0.3090123999863863,531.4440307002515,None,531.4440307002515,None,531.4440307002515,None,,,,,,,,,,,P007,fencog,2,Pre,2021_Aug_04_1042,Go No-Go Task,2021.1.4,120.28700501891619,
,"Rule: When you see a yellow image, do not press 'spacebar'.",Images/Happy/AM02_HE.jpg,Happy,Blue,Images/Blue.jpg,space,ParentConditions/YellowYellowBlue_v2.xlsx,YellowYellowBlue,Conditions/Version_2/YellowFearStop.xlsx,no,PASS,0.8791068347561973,,,,,,,,,0,0,0,1,0,0,0,0,0,78,78,78,,,,,,,,,,,,,,,,,,,,,,,,,,,,,,,,,,,,,,,,,,,,,,,,,,,,,,,,,,,,,,,,,,,,,,,,,,,,,,,1.36,531.8459813999943,None,space,1,0.36277619982138276,533.3099051001482,None,533.3099051001482,None,533.3099051001482,None,,,,,,,,,,,P007,fencog,2,Pre,2021_Aug_04_1042,Go No-Go Task,2021.1.4,120.28700501891619,
,"Rule: When you see a yellow image, do not press 'spacebar'.",Images/Fearful/AM06_FO.jpg,Fear,Yellow,Images/Yellow.jpg,None,ParentConditions/YellowYellowBlue_v2.xlsx,YellowYellowBlue,Conditions/Version_2/YellowFearStop.xlsx,yes,PASS,0.40627235988994603,,,,,,,,,0,0,0,1,0,0,0,0,0,79,79,79,,,,,,,,,,,,,,,,,,,,,,,,,,,,,,,,,,,,,,,,,,,,,,,,,,,,,,,,,,,,,,,,,,,,,,,,,,,,,,,1.26,533.7165965000167,None,None,1,,535.0761429001577,None,535.0761429001577,None,535.0761429001577,None,,,,,,,,,,,P007,fencog,2,Pre,2021_Aug_04_1042,Go No-Go Task,2021.1.4,120.28700501891619,
,"Rule: When you see a yellow image, do not press 'spacebar'.",Images/Scram2/HM09_NC.jpg,Scramble,Blue,Images/Blue.jpg,space,ParentConditions/YellowYellowBlue_v2.xlsx,YellowYellowBlue,Conditions/Version_2/YellowScramStop.xlsx,no,PASS,0.46719820189093064,,,,,,,,,0,0,0,1,0,1,1,1,0,0,0,0,,,,,,,,,,,,,,,,,,,,,,,,,,,,,,,,,,,,,,,,,,,,,,,,,,,,,,,,,,,,,,,,,590.3223460000008,None,593.3165458999574,None,space,0.8678191998042166,593.3165458999574,None,590.3223460000008,None,590.3223460000008,None,590.3223460000008,None,1.53,594.2274605003186,None,space,1,0.35064620012417436,595.8582179001532,None,595.8582179001532,None,595.8582179001532,None,535.4921818003058,None,space,54.32103880029172,535.9834250002168,None,535.4921818003058,None,535.4921818003058,None,P007,fencog,2,Pre,2021_Aug_04_1042,Go No-Go Task,2021.1.4,120.28700501891619,
,"Rule: When you see a yellow image, do not press 'spacebar'.",Images/Scram2/HM06_NC.jpg,Scramble,Blue,Images/Blue.jpg,space,ParentConditions/YellowYellowBlue_v2.xlsx,YellowYellowBlue,Conditions/Version_2/YellowScramStop.xlsx,no,PASS,0.564231421897386,,,,,,,,,0,0,0,1,0,1,1,1,0,1,1,1,,,,,,,,,,,,,,,,,,,,,,,,,,,,,,,,,,,,,,,,,,,,,,,,,,,,,,,,,,,,,,,,,,,,,,,,,,,,,,,1.99,596.2572491001338,None,None,0,,598.3492171000689,None,598.3492171000689,None,598.3492171000689,None,,,,,,,,,,,P007,fencog,2,Pre,2021_Aug_04_1042,Go No-Go Task,2021.1.4,120.28700501891619,
,"Rule: When you see a yellow image, do not press 'spacebar'.",Images/Scram1/AM31NES.jpg,Scramble,Blue,Images/Blue.jpg,space,ParentConditions/YellowYellowBlue_v2.xlsx,YellowYellowBlue,Conditions/Version_2/YellowScramStop.xlsx,no,PASS,0.846238330522312,,,,,,,,,0,0,0,1,0,1,1,1,0,2,2,2,,,,,,,,,,,,,,,,,,,,,,,,,,,,,,,,,,,,,,,,,,,,,,,,,,,,,,,,,,,,,,,,,,,,,,,,,,,,,,,1.29,598.7507088002749,None,space,1,0.31650409987196326,600.1485983999446,None,600.1485983999446,None,600.1485983999446,None,,,,,,,,,,,P007,fencog,2,Pre,2021_Aug_04_1042,Go No-Go Task,2021.1.4,120.28700501891619,
,"Rule: When you see a yellow image, do not press 'spacebar'.",Images/Scram2/AM03NES.jpg,Scramble,Yellow,Images/Yellow.jpg,None,ParentConditions/YellowYellowBlue_v2.xlsx,YellowYellowBlue,Conditions/Version_2/YellowScramStop.xlsx,yes,PASS,0.3566483684653988,,,,,,,,,0,0,0,1,0,1,1,1,0,3,3,3,,,,,,,,,,,,,,,,,,,,,,,,,,,,,,,,,,,,,,,,,,,,,,,,,,,,,,,,,,,,,,,,,,,,,,,,,,,,,,,1.37,600.5488682999276,None,None,1,,602.0233607003465,None,602.0233607003465,None,602.0233607003465,None,,,,,,,,,,,P007,fencog,2,Pre,2021_Aug_04_1042,Go No-Go Task,2021.1.4,120.28700501891619,
,"Rule: When you see a yellow image, do not press 'spacebar'.",Images/Scram2/BM01_NC.jpg,Scramble,Blue,Images/Blue.jpg,space,ParentConditions/YellowYellowBlue_v2.xlsx,YellowYellowBlue,Conditions/Version_2/YellowScramStop.xlsx,no,PASS,0.6300515820310504,,,,,,,,,0,0,0,1,0,1,1,1,0,4,4,4,,,,,,,,,,,,,,,,,,,,,,,,,,,,,,,,,,,,,,,,,,,,,,,,,,,,,,,,,,,,,,,,,,,,,,,,,,,,,,,1.85,602.4267361001112,None,space,1,0.348382200114429,604.3806894002482,None,604.3806894002482,None,604.3806894002482,None,,,,,,,,,,,P007,fencog,2,Pre,2021_Aug_04_1042,Go No-Go Task,2021.1.4,120.28700501891619,
,"Rule: When you see a yellow image, do not press 'spacebar'.",Images/Scram1/HM09_NC.jpg,Scramble,Blue,Images/Blue.jpg,space,ParentConditions/YellowYellowBlue_v2.xlsx,YellowYellowBlue,Conditions/Version_2/YellowScramStop.xlsx,no,PASS,0.9681952009545239,,,,,,,,,0,0,0,1,0,1,1,1,0,5,5,5,,,,,,,,,,,,,,,,,,,,,,,,,,,,,,,,,,,,,,,,,,,,,,,,,,,,,,,,,,,,,,,,,,,,,,,,,,,,,,,1.43,604.7801483003423,None,space,1,0.3192112999968231,606.3134253001772,None,606.3134253001772,None,606.3134253001772,None,,,,,,,,,,,P007,fencog,2,Pre,2021_Aug_04_1042,Go No-Go Task,2021.1.4,120.28700501891619,
,"Rule: When you see a yellow image, do not press 'spacebar'.",Images/Scram2/BF07_NC.jpg,Scramble,Blue,Images/Blue.jpg,space,ParentConditions/YellowYellowBlue_v2.xlsx,YellowYellowBlue,Conditions/Version_2/YellowScramStop.xlsx,no,PASS,0.21646267744166114,,,,,,,,,0,0,0,1,0,1,1,1,0,6,6,6,,,,,,,,,,,,,,,,,,,,,,,,,,,,,,,,,,,,,,,,,,,,,,,,,,,,,,,,,,,,,,,,,,,,,,,,,,,,,,,1.3,606.7152569000609,None,space,1,0.2885002000257373,608.1129288002849,None,608.1129288002849,None,608.1129288002849,None,,,,,,,,,,,P007,fencog,2,Pre,2021_Aug_04_1042,Go No-Go Task,2021.1.4,120.28700501891619,
,"Rule: When you see a yellow image, do not press 'spacebar'.",Images/Scram1/BF14_NC.jpg,Scramble,Blue,Images/Blue.jpg,space,ParentConditions/YellowYellowBlue_v2.xlsx,YellowYellowBlue,Conditions/Version_2/YellowScramStop.xlsx,no,PASS,0.9846643703258401,,,,,,,,,0,0,0,1,0,1,1,1,0,7,7,7,,,,,,,,,,,,,,,,,,,,,,,,,,,,,,,,,,,,,,,,,,,,,,,,,,,,,,,,,,,,,,,,,,,,,,,,,,,,,,,1.47,608.513325500302,None,space,1,0.30641290033236146,610.0873074000701,None,610.0873074000701,None,610.0873074000701,None,,,,,,,,,,,P007,fencog,2,Pre,2021_Aug_04_1042,Go No-Go Task,2021.1.4,120.28700501891619,
,"Rule: When you see a yellow image, do not press 'spacebar'.",Images/Scram2/AF10_NC.jpg,Scramble,Blue,Images/Blue.jpg,space,ParentConditions/YellowYellowBlue_v2.xlsx,YellowYellowBlue,Conditions/Version_2/YellowScramStop.xlsx,no,PASS,0.2443614348279377,,,,,,,,,0,0,0,1,0,1,1,1,0,8,8,8,,,,,,,,,,,,,,,,,,,,,,,,,,,,,,,,,,,,,,,,,,,,,,,,,,,,,,,,,,,,,,,,,,,,,,,,,,,,,,,1.35,610.4929514001124,None,space,1,0.26361479982733727,611.9535020003095,None,611.9535020003095,None,611.9535020003095,None,,,,,,,,,,,P007,fencog,2,Pre,2021_Aug_04_1042,Go No-Go Task,2021.1.4,120.28700501891619,
,"Rule: When you see a yellow image, do not press 'spacebar'.",Images/Scram2/AF01_NC.jpg,Scramble,Blue,Images/Blue.jpg,space,ParentConditions/YellowYellowBlue_v2.xlsx,YellowYellowBlue,Conditions/Version_2/YellowScramStop.xlsx,no,PASS,0.5418077894665677,,,,,,,,,0,0,0,1,0,1,1,1,0,9,9,9,,,,,,,,,,,,,,,,,,,,,,,,,,,,,,,,,,,,,,,,,,,,,,,,,,,,,,,,,,,,,,,,,,,,,,,,,,,,,,,1.48,612.3524203998968,None,space,1,0.28089530020952225,613.9361684001051,None,613.9361684001051,None,613.9361684001051,None,,,,,,,,,,,P007,fencog,2,Pre,2021_Aug_04_1042,Go No-Go Task,2021.1.4,120.28700501891619,
,"Rule: When you see a yellow image, do not press 'spacebar'.",Images/Scram2/AF24NES.jpg,Scramble,Blue,Images/Blue.jpg,space,ParentConditions/YellowYellowBlue_v2.xlsx,YellowYellowBlue,Conditions/Version_2/YellowScramStop.xlsx,no,PASS,0.5679342954932528,,,,,,,,,0,0,0,1,0,1,1,1,0,10,10,10,,,,,,,,,,,,,,,,,,,,,,,,,,,,,,,,,,,,,,,,,,,,,,,,,,,,,,,,,,,,,,,,,,,,,,,,,,,,,,,1.69,614.3404767001048,None,space,1,0.32203170005232096,616.1353814001195,None,616.1353814001195,None,616.1353814001195,None,,,,,,,,,,,P007,fencog,2,Pre,2021_Aug_04_1042,Go No-Go Task,2021.1.4,120.28700501891619,
,"Rule: When you see a yellow image, do not press 'spacebar'.",Images/Scram2/BF14_NC.jpg,Scramble,Blue,Images/Blue.jpg,space,ParentConditions/YellowYellowBlue_v2.xlsx,YellowYellowBlue,Conditions/Version_2/YellowScramStop.xlsx,no,PASS,0.8825179199303765,,,,,,,,,0,0,0,1,0,1,1,1,0,11,11,11,,,,,,,,,,,,,,,,,,,,,,,,,,,,,,,,,,,,,,,,,,,,,,,,,,,,,,,,,,,,,,,,,,,,,,,,,,,,,,,1.92,616.5412008003332,None,space,1,0.3609878998249769,618.5680684000254,None,618.5680684000254,None,618.5680684000254,None,,,,,,,,,,,P007,fencog,2,Pre,2021_Aug_04_1042,Go No-Go Task,2021.1.4,120.28700501891619,
,"Rule: When you see a yellow image, do not press 'spacebar'.",Images/Scram1/AM13NES.jpg,Scramble,Blue,Images/Blue.jpg,space,ParentConditions/YellowYellowBlue_v2.xlsx,YellowYellowBlue,Conditions/Version_2/YellowScramStop.xlsx,no,PASS,0.21043647733489834,,,,,,,,,0,0,0,1,0,1,1,1,0,12,12,12,,,,,,,,,,,,,,,,,,,,,,,,,,,,,,,,,,,,,,,,,,,,,,,,,,,,,,,,,,,,,,,,,,,,,,,,,,,,,,,1.51,618.9715872001834,None,space,1,0.2890737000852823,620.5841488000005,None,620.5841488000005,None,620.5841488000005,None,,,,,,,,,,,P007,fencog,2,Pre,2021_Aug_04_1042,Go No-Go Task,2021.1.4,120.28700501891619,
,"Rule: When you see a yellow image, do not press 'spacebar'.",Images/Scram1/HM04_NC.jpg,Scramble,Blue,Images/Blue.jpg,space,ParentConditions/YellowYellowBlue_v2.xlsx,YellowYellowBlue,Conditions/Version_2/YellowScramStop.xlsx,no,PASS,0.048118244636673246,,,,,,,,,0,0,0,1,0,1,1,1,0,13,13,13,,,,,,,,,,,,,,,,,,,,,,,,,,,,,,,,,,,,,,,,,,,,,,,,,,,,,,,,,,,,,,,,,,,,,,,,,,,,,,,1.41,620.9840918001719,None,space,1,0.26074340008199215,622.5002823001705,None,622.5002823001705,None,622.5002823001705,None,,,,,,,,,,,P007,fencog,2,Pre,2021_Aug_04_1042,Go No-Go Task,2021.1.4,120.28700501891619,
,"Rule: When you see a yellow image, do not press 'spacebar'.",Images/Scram1/AM03NES.jpg,Scramble,Blue,Images/Blue.jpg,space,ParentConditions/YellowYellowBlue_v2.xlsx,YellowYellowBlue,Conditions/Version_2/YellowScramStop.xlsx,no,PASS,0.5072407620323995,,,,,,,,,0,0,0,1,0,1,1,1,0,14,14,14,,,,,,,,,,,,,,,,,,,,,,,,,,,,,,,,,,,,,,,,,,,,,,,,,,,,,,,,,,,,,,,,,,,,,,,,,,,,,,,1.88,622.8998843003064,None,space,1,0.29432909982278943,624.8829061998986,None,624.8829061998986,None,624.8829061998986,None,,,,,,,,,,,P007,fencog,2,Pre,2021_Aug_04_1042,Go No-Go Task,2021.1.4,120.28700501891619,
,"Rule: When you see a yellow image, do not press 'spacebar'.",Images/Scram1/AM22NES.jpg,Scramble,Blue,Images/Blue.jpg,space,ParentConditions/YellowYellowBlue_v2.xlsx,YellowYellowBlue,Conditions/Version_2/YellowScramStop.xlsx,no,PASS,0.8332736468200919,,,,,,,,,0,0,0,1,0,1,1,1,0,15,15,15,,,,,,,,,,,,,,,,,,,,,,,,,,,,,,,,,,,,,,,,,,,,,,,,,,,,,,,,,,,,,,,,,,,,,,,,,,,,,,,1.97,625.2903660000302,None,space,1,0.28328360011801124,627.3655277001671,None,627.3655277001671,None,627.3655277001671,None,,,,,,,,,,,P007,fencog,2,Pre,2021_Aug_04_1042,Go No-Go Task,2021.1.4,120.28700501891619,
,"Rule: When you see a yellow image, do not press 'spacebar'.",Images/Scram2/AM17NES.jpg,Scramble,Yellow,Images/Yellow.jpg,None,ParentConditions/YellowYellowBlue_v2.xlsx,YellowYellowBlue,Conditions/Version_2/YellowScramStop.xlsx,yes,PASS,0.5524440306249002,,,,,,,,,0,0,0,1,0,1,1,1,0,16,16,16,,,,,,,,,,,,,,,,,,,,,,,,,,,,,,,,,,,,,,,,,,,,,,,,,,,,,,,,,,,,,,,,,,,,,,,,,,,,,,,1.55,627.7660137000494,None,None,1,,629.4233189001679,None,629.4233189001679,None,629.4233189001679,None,,,,,,,,,,,P007,fencog,2,Pre,2021_Aug_04_1042,Go No-Go Task,2021.1.4,120.28700501891619,
,"Rule: When you see a yellow image, do not press 'spacebar'.",Images/Scram1/AM10NES.jpg,Scramble,Blue,Images/Blue.jpg,space,ParentConditions/YellowYellowBlue_v2.xlsx,YellowYellowBlue,Conditions/Version_2/YellowScramStop.xlsx,no,PASS,0.13699730503466545,,,,,,,,,0,0,0,1,0,1,1,1,0,17,17,17,,,,,,,,,,,,,,,,,,,,,,,,,,,,,,,,,,,,,,,,,,,,,,,,,,,,,,,,,,,,,,,,,,,,,,,,,,,,,,,1.96,629.8239918001927,None,space,1,0.31915450002998114,631.8976002000272,None,631.8976002000272,None,631.8976002000272,None,,,,,,,,,,,P007,fencog,2,Pre,2021_Aug_04_1042,Go No-Go Task,2021.1.4,120.28700501891619,
,"Rule: When you see a yellow image, do not press 'spacebar'.",Images/Scram2/AM03_NC.jpg,Scramble,Yellow,Images/Yellow.jpg,None,ParentConditions/YellowYellowBlue_v2.xlsx,YellowYellowBlue,Conditions/Version_2/YellowScramStop.xlsx,yes,PASS,0.2886954903206703,,,,,,,,,0,0,0,1,0,1,1,1,0,18,18,18,,,,,,,,,,,,,,,,,,,,,,,,,,,,,,,,,,,,,,,,,,,,,,,,,,,,,,,,,,,,,,,,,,,,,,,,,,,,,,,1.32,632.2966696000658,None,None,1,,633.7217970001511,None,633.7217970001511,None,633.7217970001511,None,,,,,,,,,,,P007,fencog,2,Pre,2021_Aug_04_1042,Go No-Go Task,2021.1.4,120.28700501891619,
,"Rule: When you see a yellow image, do not press 'spacebar'.",Images/Scram1/HF09_NC.jpg,Scramble,Blue,Images/Blue.jpg,space,ParentConditions/YellowYellowBlue_v2.xlsx,YellowYellowBlue,Conditions/Version_2/YellowScramStop.xlsx,no,PASS,0.5210471780653185,,,,,,,,,0,0,0,1,0,1,1,1,0,19,19,19,,,,,,,,,,,,,,,,,,,,,,,,,,,,,,,,,,,,,,,,,,,,,,,,,,,,,,,,,,,,,,,,,,,,,,,,,,,,,,,1.77,634.1220949999988,None,space,1,0.29291109973564744,635.9963205000386,None,635.9963205000386,None,635.9963205000386,None,,,,,,,,,,,P007,fencog,2,Pre,2021_Aug_04_1042,Go No-Go Task,2021.1.4,120.28700501891619,
,"Rule: When you see a yellow image, do not press 'spacebar'.",Images/Scram1/BM08_NC.jpg,Scramble,Blue,Images/Blue.jpg,space,ParentConditions/YellowYellowBlue_v2.xlsx,YellowYellowBlue,Conditions/Version_2/YellowScramStop.xlsx,no,PASS,0.7192207106921986,,,,,,,,,0,0,0,1,0,1,1,1,0,20,20,20,,,,,,,,,,,,,,,,,,,,,,,,,,,,,,,,,,,,,,,,,,,,,,,,,,,,,,,,,,,,,,,,,,,,,,,,,,,,,,,1.81,636.3957913001068,None,None,0,,638.3119653002359,None,638.3119653002359,None,638.3119653002359,None,,,,,,,,,,,P007,fencog,2,Pre,2021_Aug_04_1042,Go No-Go Task,2021.1.4,120.28700501891619,
,"Rule: When you see a yellow image, do not press 'spacebar'.",Images/Scram1/AF32NES.jpg,Scramble,Blue,Images/Blue.jpg,space,ParentConditions/YellowYellowBlue_v2.xlsx,YellowYellowBlue,Conditions/Version_2/YellowScramStop.xlsx,no,PASS,0.3856706921106089,,,,,,,,,0,0,0,1,0,1,1,1,0,21,21,21,,,,,,,,,,,,,,,,,,,,,,,,,,,,,,,,,,,,,,,,,,,,,,,,,,,,,,,,,,,,,,,,,,,,,,,,,,,,,,,1.58,638.711023800075,None,None,0,,640.3946024002507,None,640.3946024002507,None,640.3946024002507,None,,,,,,,,,,,P007,fencog,2,Pre,2021_Aug_04_1042,Go No-Go Task,2021.1.4,120.28700501891619,
,"Rule: When you see a yellow image, do not press 'spacebar'.",Images/Scram2/AM06_NC.jpg,Scramble,Yellow,Images/Yellow.jpg,None,ParentConditions/YellowYellowBlue_v2.xlsx,YellowYellowBlue,Conditions/Version_2/YellowScramStop.xlsx,yes,PASS,0.593844606938259,,,,,,,,,0,0,0,1,0,1,1,1,0,22,22,22,,,,,,,,,,,,,,,,,,,,,,,,,,,,,,,,,,,,,,,,,,,,,,,,,,,,,,,,,,,,,,,,,,,,,,,,,,,,,,,1.7,640.7936996999197,None,None,1,,642.5939531000331,None,642.5939531000331,None,642.5939531000331,None,,,,,,,,,,,P007,fencog,2,Pre,2021_Aug_04_1042,Go No-Go Task,2021.1.4,120.28700501891619,
,"Rule: When you see a yellow image, do not press 'spacebar'.",Images/Scram1/AM06_NC.jpg,Scramble,Blue,Images/Blue.jpg,space,ParentConditions/YellowYellowBlue_v2.xlsx,YellowYellowBlue,Conditions/Version_2/YellowScramStop.xlsx,no,PASS,0.5597751985943138,,,,,,,,,0,0,0,1,0,1,1,1,0,23,23,23,,,,,,,,,,,,,,,,,,,,,,,,,,,,,,,,,,,,,,,,,,,,,,,,,,,,,,,,,,,,,,,,,,,,,,,,,,,,,,,1.5,642.9930766001344,None,space,1,0.3271390004083514,644.5938202999532,None,644.5938202999532,None,644.5938202999532,None,,,,,,,,,,,P007,fencog,2,Pre,2021_Aug_04_1042,Go No-Go Task,2021.1.4,120.28700501891619,
,"Rule: When you see a yellow image, do not press 'spacebar'.",Images/Scram2/AM02_NC.jpg,Scramble,Yellow,Images/Yellow.jpg,None,ParentConditions/YellowYellowBlue_v2.xlsx,YellowYellowBlue,Conditions/Version_2/YellowScramStop.xlsx,yes,PASS,0.21014535444537008,,,,,,,,,0,0,0,1,0,1,1,1,0,24,24,24,,,,,,,,,,,,,,,,,,,,,,,,,,,,,,,,,,,,,,,,,,,,,,,,,,,,,,,,,,,,,,,,,,,,,,,,,,,,,,,1.24,644.9944500001147,None,None,1,,646.3350629000925,None,646.3350629000925,None,646.3350629000925,None,,,,,,,,,,,P007,fencog,2,Pre,2021_Aug_04_1042,Go No-Go Task,2021.1.4,120.28700501891619,
,"Rule: When you see a yellow image, do not press 'spacebar'.",Images/Scram2/HF05_NC.jpg,Scramble,Blue,Images/Blue.jpg,space,ParentConditions/YellowYellowBlue_v2.xlsx,YellowYellowBlue,Conditions/Version_2/YellowScramStop.xlsx,no,PASS,0.0025091428399978133,,,,,,,,,0,0,0,1,0,1,1,1,0,25,25,25,,,,,,,,,,,,,,,,,,,,,,,,,,,,,,,,,,,,,,,,,,,,,,,,,,,,,,,,,,,,,,,,,,,,,,,,,,,,,,,1.83,646.7356324000284,None,None,0,,648.6760454000905,None,648.6760454000905,None,648.6760454000905,None,,,,,,,,,,,P007,fencog,2,Pre,2021_Aug_04_1042,Go No-Go Task,2021.1.4,120.28700501891619,
,"Rule: When you see a yellow image, do not press 'spacebar'.",Images/Scram2/AF32NES.jpg,Scramble,Yellow,Images/Yellow.jpg,None,ParentConditions/YellowYellowBlue_v2.xlsx,YellowYellowBlue,Conditions/Version_2/YellowScramStop.xlsx,yes,PASS,0.5621638043526047,,,,,,,,,0,0,0,1,0,1,1,1,0,26,26,26,,,,,,,,,,,,,,,,,,,,,,,,,,,,,,,,,,,,,,,,,,,,,,,,,,,,,,,,,,,,,,,,,,,,,,,,,,,,,,,1.87,649.0701798000373,None,None,1,,651.033523300197,None,651.033523300197,None,651.033523300197,None,,,,,,,,,,,P007,fencog,2,Pre,2021_Aug_04_1042,Go No-Go Task,2021.1.4,120.28700501891619,
,"Rule: When you see a yellow image, do not press 'spacebar'.",Images/Scram2/HM04_NC.jpg,Scramble,Blue,Images/Blue.jpg,space,ParentConditions/YellowYellowBlue_v2.xlsx,YellowYellowBlue,Conditions/Version_2/YellowScramStop.xlsx,no,PASS,0.3656961779732233,,,,,,,,,0,0,0,1,0,1,1,1,0,27,27,27,,,,,,,,,,,,,,,,,,,,,,,,,,,,,,,,,,,,,,,,,,,,,,,,,,,,,,,,,,,,,,,,,,,,,,,,,,,,,,,1.82,651.4351519001648,None,space,1,0.36630749981850386,653.3662825999781,None,653.3662825999781,None,653.3662825999781,None,,,,,,,,,,,P007,fencog,2,Pre,2021_Aug_04_1042,Go No-Go Task,2021.1.4,120.28700501891619,
,"Rule: When you see a yellow image, do not press 'spacebar'.",Images/Scram2/AF25NES.jpg,Scramble,Blue,Images/Blue.jpg,space,ParentConditions/YellowYellowBlue_v2.xlsx,YellowYellowBlue,Conditions/Version_2/YellowScramStop.xlsx,no,PASS,0.24296732370581886,,,,,,,,,0,0,0,1,0,1,1,1,0,28,28,28,,,,,,,,,,,,,,,,,,,,,,,,,,,,,,,,,,,,,,,,,,,,,,,,,,,,,,,,,,,,,,,,,,,,,,,,,,,,,,,1.6,653.7739320001565,None,None,0,,655.7235608999617,None,655.7235608999617,None,655.7235608999617,None,,,,,,,,,,,P007,fencog,2,Pre,2021_Aug_04_1042,Go No-Go Task,2021.1.4,120.28700501891619,
,"Rule: When you see a yellow image, do not press 'spacebar'.",Images/Scram1/AF34NES.jpg,Scramble,Blue,Images/Blue.jpg,space,ParentConditions/YellowYellowBlue_v2.xlsx,YellowYellowBlue,Conditions/Version_2/YellowScramStop.xlsx,no,PASS,0.2947970947694444,,,,,,,,,0,0,0,1,0,1,1,1,0,29,29,29,,,,,,,,,,,,,,,,,,,,,,,,,,,,,,,,,,,,,,,,,,,,,,,,,,,,,,,,,,,,,,,,,,,,,,,,,,,,,,,1.57,655.8892002003267,None,space,1,0.33993260003626347,657.5645969002508,None,657.5645969002508,None,657.5645969002508,None,,,,,,,,,,,P007,fencog,2,Pre,2021_Aug_04_1042,Go No-Go Task,2021.1.4,120.28700501891619,
,"Rule: When you see a yellow image, do not press 'spacebar'.",Images/Scram2/AF11NES.jpg,Scramble,Blue,Images/Blue.jpg,space,ParentConditions/YellowYellowBlue_v2.xlsx,YellowYellowBlue,Conditions/Version_2/YellowScramStop.xlsx,no,PASS,0.06112693600308039,,,,,,,,,0,0,0,1,0,1,1,1,0,30,30,30,,,,,,,,,,,,,,,,,,,,,,,,,,,,,,,,,,,,,,,,,,,,,,,,,,,,,,,,,,,,,,,,,,,,,,,,,,,,,,,1.72,657.9636717000976,None,space,1,0.29158970015123487,659.789136600215,None,659.789136600215,None,659.789136600215,None,,,,,,,,,,,P007,fencog,2,Pre,2021_Aug_04_1042,Go No-Go Task,2021.1.4,120.28700501891619,
,"Rule: When you see a yellow image, do not press 'spacebar'.",Images/Scram2/AF34NES.jpg,Scramble,Yellow,Images/Yellow.jpg,None,ParentConditions/YellowYellowBlue_v2.xlsx,YellowYellowBlue,Conditions/Version_2/YellowScramStop.xlsx,yes,PASS,0.36837427021744795,,,,,,,,,0,0,0,1,0,1,1,1,0,31,31,31,,,,,,,,,,,,,,,,,,,,,,,,,,,,,,,,,,,,,,,,,,,,,,,,,,,,,,,,,,,,,,,,,,,,,,,,,,,,,,,1.34,660.2244490003213,None,None,1,,661.6717719999142,None,661.6717719999142,None,661.6717719999142,None,,,,,,,,,,,P007,fencog,2,Pre,2021_Aug_04_1042,Go No-Go Task,2021.1.4,120.28700501891619,
,"Rule: When you see a yellow image, do not press 'spacebar'.",Images/Scram1/AM02_NC.jpg,Scramble,Blue,Images/Blue.jpg,space,ParentConditions/YellowYellowBlue_v2.xlsx,YellowYellowBlue,Conditions/Version_2/YellowScramStop.xlsx,no,PASS,0.7004017432139685,,,,,,,,,0,0,0,1,0,1,1,1,0,32,32,32,,,,,,,,,,,,,,,,,,,,,,,,,,,,,,,,,,,,,,,,,,,,,,,,,,,,,,,,,,,,,,,,,,,,,,,,,,,,,,,1.71,662.0709913000464,None,None,0,,664.0713936001994,None,664.0713936001994,None,664.0713936001994,None,,,,,,,,,,,P007,fencog,2,Pre,2021_Aug_04_1042,Go No-Go Task,2021.1.4,120.28700501891619,
,"Rule: When you see a yellow image, do not press 'spacebar'.",Images/Scram2/AM13NES.jpg,Scramble,Yellow,Images/Yellow.jpg,None,ParentConditions/YellowYellowBlue_v2.xlsx,YellowYellowBlue,Conditions/Version_2/YellowScramStop.xlsx,yes,PASS,0.7037668434542473,,,,,,,,,0,0,0,1,0,1,1,1,0,33,33,33,,,,,,,,,,,,,,,,,,,,,,,,,,,,,,,,,,,,,,,,,,,,,,,,,,,,,,,,,,,,,,,,,,,,,,,,,,,,,,,1.36,664.2965649003163,None,None,1,,665.7622807999142,None,665.7622807999142,None,665.7622807999142,None,,,,,,,,,,,P007,fencog,2,Pre,2021_Aug_04_1042,Go No-Go Task,2021.1.4,120.28700501891619,
,"Rule: When you see a yellow image, do not press 'spacebar'.",Images/Scram1/AM03_NC.jpg,Scramble,Blue,Images/Blue.jpg,space,ParentConditions/YellowYellowBlue_v2.xlsx,YellowYellowBlue,Conditions/Version_2/YellowScramStop.xlsx,no,PASS,0.13984736132192788,,,,,,,,,0,0,0,1,0,1,1,1,0,34,34,34,,,,,,,,,,,,,,,,,,,,,,,,,,,,,,,,,,,,,,,,,,,,,,,,,,,,,,,,,,,,,,,,,,,,,,,,,,,,,,,1.46,666.1611810000613,None,space,1,0.33582920022308826,667.7281158003025,None,667.7281158003025,None,667.7281158003025,None,,,,,,,,,,,P007,fencog,2,Pre,2021_Aug_04_1042,Go No-Go Task,2021.1.4,120.28700501891619,
,"Rule: When you see a yellow image, do not press 'spacebar'.",Images/Scram1/AF33NES.jpg,Scramble,Blue,Images/Blue.jpg,space,ParentConditions/YellowYellowBlue_v2.xlsx,YellowYellowBlue,Conditions/Version_2/YellowScramStop.xlsx,no,PASS,0.7479968675198729,,,,,,,,,0,0,0,1,0,1,1,1,0,35,35,35,,,,,,,,,,,,,,,,,,,,,,,,,,,,,,,,,,,,,,,,,,,,,,,,,,,,,,,,,,,,,,,,,,,,,,,,,,,,,,,1.75,668.1272472003475,None,space,1,0.3351531997323036,669.9777899999171,None,669.9777899999171,None,669.9777899999171,None,,,,,,,,,,,P007,fencog,2,Pre,2021_Aug_04_1042,Go No-Go Task,2021.1.4,120.28700501891619,
,"Rule: When you see a yellow image, do not press 'spacebar'.",Images/Scram1/BF10_NC.jpg,Scramble,Blue,Images/Blue.jpg,space,ParentConditions/YellowYellowBlue_v2.xlsx,YellowYellowBlue,Conditions/Version_2/YellowScramStop.xlsx,no,PASS,0.5225639267337787,,,,,,,,,0,0,0,1,0,1,1,1,0,36,36,36,,,,,,,,,,,,,,,,,,,,,,,,,,,,,,,,,,,,,,,,,,,,,,,,,,,,,,,,,,,,,,,,,,,,,,,,,,,,,,,1.33,670.3766173999757,None,None,0,,671.8103473000228,None,671.8103473000228,None,671.8103473000228,None,,,,,,,,,,,P007,fencog,2,Pre,2021_Aug_04_1042,Go No-Go Task,2021.1.4,120.28700501891619,
,"Rule: When you see a yellow image, do not press 'spacebar'.",Images/Scram1/AF07_NC.jpg,Scramble,Blue,Images/Blue.jpg,space,ParentConditions/YellowYellowBlue_v2.xlsx,YellowYellowBlue,Conditions/Version_2/YellowScramStop.xlsx,no,PASS,0.5221002530466395,,,,,,,,,0,0,0,1,0,1,1,1,0,37,37,37,,,,,,,,,,,,,,,,,,,,,,,,,,,,,,,,,,,,,,,,,,,,,,,,,,,,,,,,,,,,,,,,,,,,,,,,,,,,,,,1.54,672.2096686000004,None,space,1,0.3808016995899379,673.8514988003299,None,673.8514988003299,None,673.8514988003299,None,,,,,,,,,,,P007,fencog,2,Pre,2021_Aug_04_1042,Go No-Go Task,2021.1.4,120.28700501891619,
,"Rule: When you see a yellow image, do not press 'spacebar'.",Images/Scram2/AM23NES.jpg,Scramble,Yellow,Images/Yellow.jpg,None,ParentConditions/YellowYellowBlue_v2.xlsx,YellowYellowBlue,Conditions/Version_2/YellowScramStop.xlsx,yes,PASS,0.18195499113806335,,,,,,,,,0,0,0,1,0,1,1,1,0,38,38,38,,,,,,,,,,,,,,,,,,,,,,,,,,,,,,,,,,,,,,,,,,,,,,,,,,,,,,,,,,,,,,,,,,,,,,,,,,,,,,,1.67,674.2505291001871,None,None,1,,676.0256814002059,None,676.0256814002059,None,676.0256814002059,None,,,,,,,,,,,P007,fencog,2,Pre,2021_Aug_04_1042,Go No-Go Task,2021.1.4,120.28700501891619,
,"Rule: When you see a yellow image, do not press 'spacebar'.",Images/Scram1/AF24NES.jpg,Scramble,Blue,Images/Blue.jpg,space,ParentConditions/YellowYellowBlue_v2.xlsx,YellowYellowBlue,Conditions/Version_2/YellowScramStop.xlsx,no,PASS,0.6640389388315467,,,,,,,,,0,0,0,1,0,1,1,1,0,39,39,39,,,,,,,,,,,,,,,,,,,,,,,,,,,,,,,,,,,,,,,,,,,,,,,,,,,,,,,,,,,,,,,,,,,,,,,,,,,,,,,1.86,676.4247828000225,None,space,1,0.2961117001250386,678.3918445999734,None,678.3918445999734,None,678.3918445999734,None,,,,,,,,,,,P007,fencog,2,Pre,2021_Aug_04_1042,Go No-Go Task,2021.1.4,120.28700501891619,
,"Rule: When you see a yellow image, do not press 'spacebar'.",Images/Scram2/AF33NES.jpg,Scramble,Yellow,Images/Yellow.jpg,None,ParentConditions/YellowYellowBlue_v2.xlsx,YellowYellowBlue,Conditions/Version_2/YellowScramStop.xlsx,yes,PASS,0.6203826022283658,,,,,,,,,0,0,0,1,0,1,1,1,0,40,40,40,,,,,,,,,,,,,,,,,,,,,,,,,,,,,,,,,,,,,,,,,,,,,,,,,,,,,,,,,,,,,,,,,,,,,,,,,,,,,,,1.23,678.7907547000796,None,None,1,,680.1248624003492,None,680.1248624003492,None,680.1248624003492,None,,,,,,,,,,,P007,fencog,2,Pre,2021_Aug_04_1042,Go No-Go Task,2021.1.4,120.28700501891619,
,"Rule: When you see a yellow image, do not press 'spacebar'.",Images/Scram1/AF25NES.jpg,Scramble,Blue,Images/Blue.jpg,space,ParentConditions/YellowYellowBlue_v2.xlsx,YellowYellowBlue,Conditions/Version_2/YellowScramStop.xlsx,no,PASS,0.05141546475857928,,,,,,,,,0,0,0,1,0,1,1,1,0,41,41,41,,,,,,,,,,,,,,,,,,,,,,,,,,,,,,,,,,,,,,,,,,,,,,,,,,,,,,,,,,,,,,,,,,,,,,,,,,,,,,,1.49,680.5235806000419,None,space,1,0.3085587997920811,682.1156647000462,None,682.1156647000462,None,682.1156647000462,None,,,,,,,,,,,P007,fencog,2,Pre,2021_Aug_04_1042,Go No-Go Task,2021.1.4,120.28700501891619,
,"Rule: When you see a yellow image, do not press 'spacebar'.",Images/Scram2/AM10NES.jpg,Scramble,Yellow,Images/Yellow.jpg,None,ParentConditions/YellowYellowBlue_v2.xlsx,YellowYellowBlue,Conditions/Version_2/YellowScramStop.xlsx,yes,PASS,0.1267743006232639,,,,,,,,,0,0,0,1,0,1,1,1,0,42,42,42,,,,,,,,,,,,,,,,,,,,,,,,,,,,,,,,,,,,,,,,,,,,,,,,,,,,,,,,,,,,,,,,,,,,,,,,,,,,,,,1.74,682.5147112999111,None,None,1,,684.3567480999045,None,684.3567480999045,None,684.3567480999045,None,,,,,,,,,,,P007,fencog,2,Pre,2021_Aug_04_1042,Go No-Go Task,2021.1.4,120.28700501891619,
,"Rule: When you see a yellow image, do not press 'spacebar'.",Images/Scram2/BF10_NC.jpg,Scramble,Blue,Images/Blue.jpg,space,ParentConditions/YellowYellowBlue_v2.xlsx,YellowYellowBlue,Conditions/Version_2/YellowScramStop.xlsx,no,PASS,0.22016560502147287,,,,,,,,,0,0,0,1,0,1,1,1,0,43,43,43,,,,,,,,,,,,,,,,,,,,,,,,,,,,,,,,,,,,,,,,,,,,,,,,,,,,,,,,,,,,,,,,,,,,,,,,,,,,,,,1.28,684.7558850999922,None,None,0,,686.139347600285,None,686.139347600285,None,686.139347600285,None,,,,,,,,,,,P007,fencog,2,Pre,2021_Aug_04_1042,Go No-Go Task,2021.1.4,120.28700501891619,
,"Rule: When you see a yellow image, do not press 'spacebar'.",Images/Scram1/BF18_NC.jpg,Scramble,Blue,Images/Blue.jpg,space,ParentConditions/YellowYellowBlue_v2.xlsx,YellowYellowBlue,Conditions/Version_2/YellowScramStop.xlsx,no,PASS,0.11487631985977975,,,,,,,,,0,0,0,1,0,1,1,1,0,44,44,44,,,,,,,,,,,,,,,,,,,,,,,,,,,,,,,,,,,,,,,,,,,,,,,,,,,,,,,,,,,,,,,,,,,,,,,,,,,,,,,1.26,686.5387117001228,None,None,0,,687.9054825999774,None,687.9054825999774,None,687.9054825999774,None,,,,,,,,,,,P007,fencog,2,Pre,2021_Aug_04_1042,Go No-Go Task,2021.1.4,120.28700501891619,
,"Rule: When you see a yellow image, do not press 'spacebar'.",Images/Scram2/HF09_NC.jpg,Scramble,Blue,Images/Blue.jpg,space,ParentConditions/YellowYellowBlue_v2.xlsx,YellowYellowBlue,Conditions/Version_2/YellowScramStop.xlsx,no,PASS,0.20475492045840804,,,,,,,,,0,0,0,1,0,1,1,1,0,45,45,45,,,,,,,,,,,,,,,,,,,,,,,,,,,,,,,,,,,,,,,,,,,,,,,,,,,,,,,,,,,,,,,,,,,,,,,,,,,,,,,1.59,688.3061922001652,None,None,0,,689.9966524001211,None,689.9966524001211,None,689.9966524001211,None,,,,,,,,,,,P007,fencog,2,Pre,2021_Aug_04_1042,Go No-Go Task,2021.1.4,120.28700501891619,
,"Rule: When you see a yellow image, do not press 'spacebar'.",Images/Scram1/BF05_NC.jpg,Scramble,Blue,Images/Blue.jpg,space,ParentConditions/YellowYellowBlue_v2.xlsx,YellowYellowBlue,Conditions/Version_2/YellowScramStop.xlsx,no,PASS,0.6685497116677461,,,,,,,,,0,0,0,1,0,1,1,1,0,46,46,46,,,,,,,,,,,,,,,,,,,,,,,,,,,,,,,,,,,,,,,,,,,,,,,,,,,,,,,,,,,,,,,,,,,,,,,,,,,,,,,1.98,690.3956782999448,None,space,1,0.3287689001299441,692.479196399916,None,692.479196399916,None,692.479196399916,None,,,,,,,,,,,P007,fencog,2,Pre,2021_Aug_04_1042,Go No-Go Task,2021.1.4,120.28700501891619,
,"Rule: When you see a yellow image, do not press 'spacebar'.",Images/Scram1/AM17NES.jpg,Scramble,Blue,Images/Blue.jpg,space,ParentConditions/YellowYellowBlue_v2.xlsx,YellowYellowBlue,Conditions/Version_2/YellowScramStop.xlsx,no,PASS,0.5575549831069895,,,,,,,,,0,0,0,1,0,1,1,1,0,47,47,47,,,,,,,,,,,,,,,,,,,,,,,,,,,,,,,,,,,,,,,,,,,,,,,,,,,,,,,,,,,,,,,,,,,,,,,,,,,,,,,1.93,692.8782735001296,None,space,1,0.31226309994235635,694.9118913002312,None,694.9118913002312,None,694.9118913002312,None,,,,,,,,,,,P007,fencog,2,Pre,2021_Aug_04_1042,Go No-Go Task,2021.1.4,120.28700501891619,
,"Rule: When you see a yellow image, do not press 'spacebar'.",Images/Scram2/AM09_NC.jpg,Scramble,Yellow,Images/Yellow.jpg,None,ParentConditions/YellowYellowBlue_v2.xlsx,YellowYellowBlue,Conditions/Version_2/YellowScramStop.xlsx,yes,PASS,0.08490473937246712,,,,,,,,,0,0,0,1,0,1,1,1,0,48,48,48,,,,,,,,,,,,,,,,,,,,,,,,,,,,,,,,,,,,,,,,,,,,,,,,,,,,,,,,,,,,,,,,,,,,,,,,,,,,,,,1.62,695.3109452999197,None,None,1,,697.0361791001633,None,697.0361791001633,None,697.0361791001633,None,,,,,,,,,,,P007,fencog,2,Pre,2021_Aug_04_1042,Go No-Go Task,2021.1.4,120.28700501891619,
,"Rule: When you see a yellow image, do not press 'spacebar'.",Images/Scram2/AF09NES.jpg,Scramble,Blue,Images/Blue.jpg,space,ParentConditions/YellowYellowBlue_v2.xlsx,YellowYellowBlue,Conditions/Version_2/YellowScramStop.xlsx,no,PASS,0.8511922023884788,,,,,,,,,0,0,0,1,0,1,1,1,0,49,49,49,,,,,,,,,,,,,,,,,,,,,,,,,,,,,,,,,,,,,,,,,,,,,,,,,,,,,,,,,,,,,,,,,,,,,,,,,,,,,,,1.63,697.4354373002425,None,space,1,0.3276363001205027,699.168986200355,None,699.168986200355,None,699.168986200355,None,,,,,,,,,,,P007,fencog,2,Pre,2021_Aug_04_1042,Go No-Go Task,2021.1.4,120.28700501891619,
,"Rule: When you see a yellow image, do not press 'spacebar'.",Images/Scram2/AM04_NC.jpg,Scramble,Yellow,Images/Yellow.jpg,None,ParentConditions/YellowYellowBlue_v2.xlsx,YellowYellowBlue,Conditions/Version_2/YellowScramStop.xlsx,yes,PASS,0.9711738915701108,,,,,,,,,0,0,0,1,0,1,1,1,0,50,50,50,,,,,,,,,,,,,,,,,,,,,,,,,,,,,,,,,,,,,,,,,,,,,,,,,,,,,,,,,,,,,,,,,,,,,,,,,,,,,,,1.27,699.5680379001424,None,None,1,,700.9434283003211,None,700.9434283003211,None,700.9434283003211,None,,,,,,,,,,,P007,fencog,2,Pre,2021_Aug_04_1042,Go No-Go Task,2021.1.4,120.28700501891619,
,"Rule: When you see a yellow image, do not press 'spacebar'.",Images/Scram2/BF05_NC.jpg,Scramble,Yellow,Images/Yellow.jpg,None,ParentConditions/YellowYellowBlue_v2.xlsx,YellowYellowBlue,Conditions/Version_2/YellowScramStop.xlsx,yes,PASS,0.3684660889098009,,,,,,,,,0,0,0,1,0,1,1,1,0,51,51,51,,,,,,,,,,,,,,,,,,,,,,,,,,,,,,,,,,,,,,,,,,,,,,,,,,,,,,,,,,,,,,,,,,,,,,,,,,,,,,,1.31,701.342506499961,None,None,1,,702.7595422999002,None,702.7595422999002,None,702.7595422999002,None,,,,,,,,,,,P007,fencog,2,Pre,2021_Aug_04_1042,Go No-Go Task,2021.1.4,120.28700501891619,
,"Rule: When you see a yellow image, do not press 'spacebar'.",Images/Scram1/HM06_NC.jpg,Scramble,Blue,Images/Blue.jpg,space,ParentConditions/YellowYellowBlue_v2.xlsx,YellowYellowBlue,Conditions/Version_2/YellowScramStop.xlsx,no,PASS,0.5754528995111275,,,,,,,,,0,0,0,1,0,1,1,1,0,52,52,52,,,,,,,,,,,,,,,,,,,,,,,,,,,,,,,,,,,,,,,,,,,,,,,,,,,,,,,,,,,,,,,,,,,,,,,,,,,,,,,1.64,703.158579800278,None,space,1,0.363469900097698,704.9005773002282,None,704.9005773002282,None,704.9005773002282,None,,,,,,,,,,,P007,fencog,2,Pre,2021_Aug_04_1042,Go No-Go Task,2021.1.4,120.28700501891619,
,"Rule: When you see a yellow image, do not press 'spacebar'.",Images/Scram2/AF07NES.jpg,Scramble,Blue,Images/Blue.jpg,space,ParentConditions/YellowYellowBlue_v2.xlsx,YellowYellowBlue,Conditions/Version_2/YellowScramStop.xlsx,no,PASS,0.5077779466511061,,,,,,,,,0,0,0,1,0,1,1,1,0,53,53,53,,,,,,,,,,,,,,,,,,,,,,,,,,,,,,,,,,,,,,,,,,,,,,,,,,,,,,,,,,,,,,,,,,,,,,,,,,,,,,,1.45,705.2995990999043,None,space,1,0.32625090004876256,706.849921700079,None,706.849921700079,None,706.849921700079,None,,,,,,,,,,,P007,fencog,2,Pre,2021_Aug_04_1042,Go No-Go Task,2021.1.4,120.28700501891619,
,"Rule: When you see a yellow image, do not press 'spacebar'.",Images/Scram1/BM01_NC.jpg,Scramble,Blue,Images/Blue.jpg,space,ParentConditions/YellowYellowBlue_v2.xlsx,YellowYellowBlue,Conditions/Version_2/YellowScramStop.xlsx,no,PASS,0.6162286290631079,,,,,,,,,0,0,0,1,0,1,1,1,0,54,54,54,,,,,,,,,,,,,,,,,,,,,,,,,,,,,,,,,,,,,,,,,,,,,,,,,,,,,,,,,,,,,,,,,,,,,,,,,,,,,,,1.61,707.2489976002835,None,space,1,0.2900870000012219,708.966038600076,None,708.966038600076,None,708.966038600076,None,,,,,,,,,,,P007,fencog,2,Pre,2021_Aug_04_1042,Go No-Go Task,2021.1.4,120.28700501891619,
,"Rule: When you see a yellow image, do not press 'spacebar'.",Images/Scram2/AF07_NC.jpg,Scramble,Blue,Images/Blue.jpg,space,ParentConditions/YellowYellowBlue_v2.xlsx,YellowYellowBlue,Conditions/Version_2/YellowScramStop.xlsx,no,PASS,0.1394775454550986,,,,,,,,,0,0,0,1,0,1,1,1,0,55,55,55,,,,,,,,,,,,,,,,,,,,,,,,,,,,,,,,,,,,,,,,,,,,,,,,,,,,,,,,,,,,,,,,,,,,,,,,,,,,,,,1.56,709.3651093998924,None,space,1,0.3038091999478638,711.0321383001283,None,711.0321383001283,None,711.0321383001283,None,,,,,,,,,,,P007,fencog,2,Pre,2021_Aug_04_1042,Go No-Go Task,2021.1.4,120.28700501891619,
