CondFileP,Instructions,FaceE,Express,ColourT,ColourF,CorrectAnsP,MasterCondFile,BlockOrder,CondFile,ColCheck,Triplicate_check,SORT_BY_SMALLEST,EPracticeOuterLoop.thisRepN,EPracticeOuterLoop.thisTrialN,EPracticeOuterLoop.thisN,EPracticeOuterLoop.thisIndex,EPracticeInnerLoop.thisRepN,EPracticeInnerLoop.thisTrialN,EPracticeInnerLoop.thisN,EPracticeInnerLoop.thisIndex,MasterLoop.thisRepN,MasterLoop.thisTrialN,MasterLoop.thisN,MasterLoop.thisIndex,OuterLoop.thisRepN,OuterLoop.thisTrialN,OuterLoop.thisN,OuterLoop.thisIndex,InnerLoop.thisRepN,InnerLoop.thisTrialN,InnerLoop.thisN,InnerLoop.thisIndex,text_13.started,text_13.stopped,key_resp_10.keys,key_resp_10.rt,key_resp_10.started,key_resp_10.stopped,text4.started,text4.stopped,EmotionTaskInstructions1.keys,EmotionTaskInstructions1.rt,EmotionTaskInstructions1.started,EmotionTaskInstructions1.stopped,text_4.started,text_4.stopped,key_resp_5.keys,key_resp_5.rt,key_resp_5.started,key_resp_5.stopped,Text_14.started,Text_14.stopped,key_resp_9.keys,key_resp_9.rt,key_resp_9.started,key_resp_9.stopped,text_5.started,text_5.stopped,text_6.started,text_6.stopped,key_resp_7.keys,key_resp_7.rt,key_resp_7.started,key_resp_7.stopped,text_10.started,text_10.stopped,text_11.started,text_11.stopped,text_12.started,text_12.stopped,ISIjitterPractice,EPracticeISIMarker.started,EPracticeISIMarker.stopped,Pract.keys,Pract.corr,Pract.started,Pract.stopped,PracticeFace.started,PracticeFace.stopped,ColourPractice.started,ColourPractice.stopped,text_7.started,text_7.stopped,Pract.rt,EndOfPractice.started,EndOfPractice.stopped,key_resp_8.keys,key_resp_8.rt,key_resp_8.started,key_resp_8.stopped,text_8.started,text_8.stopped,key_resp_6.keys,key_resp_6.rt,key_resp_6.started,key_resp_6.stopped,text_2.started,text_2.stopped,text_3.started,text_3.stopped,key_resp_3.keys,key_resp_3.rt,key_resp_3.started,key_resp_3.stopped,TaskBlock.started,TaskBlock.stopped,BlockNo1.started,BlockNo1.stopped,OfBlock.started,OfBlock.stopped,ISIjitter,ISImarker.started,ISImarker.stopped,key_resp.keys,key_resp.corr,key_resp.started,key_resp.stopped,FaceSet.started,FaceSet.stopped,Colour.started,Colour.stopped,key_resp.rt,EndBlockText.started,EndBlockText.stopped,key_resp_4.keys,key_resp_4.rt,key_resp_4.started,key_resp_4.stopped,BreakText2.started,BreakText2.stopped,PressToContinue.started,PressToContinue.stopped,participant,Study Name,Task Version (required to run),PRE/POST,date,expName,psychopyVersion,frameRate,
,,,,,,,,,,,,,,,,,,,,,,,,,,,,,,,,,26.46827229997143,None,space,3.3937001996673644,27.46208560001105,None,,,,,,,,,,,,,,,,,,,,,,,,,,,,,,,,,,,,,,,,,,,,,,,,,,,,,,,,,,,,,,,,,,,,,,,,,,,,,,,,,,,,,,,,,,,,,,,P008,fencog,2,Pre,2021_Aug_06_1140,Go No-Go Task,2021.1.4,120.02093136270075,
,,,,,,,,,,,,,,,,,,,,,,,,,,,,,,,,,,,,,,,32.36156769981608,None,space,158.7809683997184,32.36156769981608,None,,,,,,,,,,,,,,,,,,,,,,,,,,,,,,,,,,,,,,,,,,,,,,,,,,,,,,,,,,,,,,,,,,,,,,,,,,,,,,,,,,,,,,,,,P008,fencog,2,Pre,2021_Aug_06_1140,Go No-Go Task,2021.1.4,120.02093136270075,
,,,,,,,,,,,,,,,,,,,,,,,,,,,,,,,,,,,,,,,,,,,,,191.2065260000527,None,space,7.377010900061578,191.2065260000527,None,,,,,,,,,,,,,,,,,,,,,,,,,,,,,,,,,,,,,,,,,,,,,,,,,,,,,,,,,,,,,,,,,,,,,,,,,,,,,,,,,,,P008,fencog,2,Pre,2021_Aug_06_1140,Go No-Go Task,2021.1.4,120.02093136270075,
,,,,,,,,,,,,,,,,,,,,,,,,,,,,,,,,,,,,,,,,,,,,,,,,,,,198.59611189970747,None,space,3.947529099881649,198.59611189970747,None,,,,,,,,,,,,,,,,,,,,,,,,,,,,,,,,,,,,,,,,,,,,,,,,,,,,,,,,,,,,,,,,,,,,,,,,,,,,,P008,fencog,2,Pre,2021_Aug_06_1140,Go No-Go Task,2021.1.4,120.02093136270075,
EPracticeConditions/BlueEyes.csv,"Rule: When you see a blue image, do not press 'spacebar'.",Images/Fearful/HM09_FC.jpg,Fear,Blue,Images/Blue.jpg,None,,,,,,,0,0,0,0,0,0,0,0,,,,,,,,,,,,,,,,,,,,,,,,,,,,,,,,,,,,,202.61630850005895,None,205.6093645999208,None,space,2.3579597999341786,205.6093645999208,None,202.61630850005895,None,202.61630850005895,None,202.61630850005895,None,1.8,208.06872029975057,None,None,1,210.02982449997216,None,210.02982449997216,None,210.02982449997216,None,211.22672599973157,None,,,,,,,,,,,,,,,,,,,,,,,,,,,,,,,,,,,,,,,,,,,,,,,,,,P008,fencog,2,Pre,2021_Aug_06_1140,Go No-Go Task,2021.1.4,120.02093136270075,
EPracticeConditions/BlueEyes.csv,"Rule: When you see a blue image, do not press 'spacebar'.",Images/Fearful/AF01_FO.jpg,Fear,Blue,Images/Blue.jpg,None,,,,,,,0,0,0,0,0,1,1,1,,,,,,,,,,,,,,,,,,,,,,,,,,,,,,,,,,,,,,,,,,,,,,,,,,,1.2,212.91302559990436,None,None,1,214.21604039985687,None,214.21604039985687,None,214.21604039985687,None,215.14111989969388,None,,,,,,,,,,,,,,,,,,,,,,,,,,,,,,,,,,,,,,,,,,,,,,,,,,P008,fencog,2,Pre,2021_Aug_06_1140,Go No-Go Task,2021.1.4,120.02093136270075,
EPracticeConditions/BlueEyes.csv,"Rule: When you see a blue image, do not press 'spacebar'.",Images/Happy/HF04_HE.jpg,Happy,Yellow,Images/Yellow.jpg,space,,,,,,,0,0,0,0,0,2,2,4,,,,,,,,,,,,,,,,,,,,,,,,,,,,,,,,,,,,,,,,,,,,,,,,,,,1.5,217.12250240007415,None,space,1,218.7230199999176,None,218.7230199999176,None,218.7230199999176,None,219.61922529991716,None,0.3409148002974689,,,,,,,,,,,,,,,,,,,,,,,,,,,,,,,,,,,,,,,,,,,,,,,,,P008,fencog,2,Pre,2021_Aug_06_1140,Go No-Go Task,2021.1.4,120.02093136270075,
EPracticeConditions/BlueEyes.csv,"Rule: When you see a blue image, do not press 'spacebar'.",Images/Happy/HF10_HE.jpg,Happy,Yellow,Images/Yellow.jpg,space,,,,,,,0,0,0,0,0,3,3,7,,,,,,,,,,,,,,,,,,,,,,,,,,,,,,,,,,,,,,,,,,,,,,,,,,,1.3,221.62427749997005,None,None,0,223.0298568997532,None,223.0298568997532,None,223.0298568997532,None,223.9395360997878,None,,,,,,,,,,,,,,,,,,,,,,,,,,,,,,,,,,,,,,,,,,,,,,,,,,P008,fencog,2,Pre,2021_Aug_06_1140,Go No-Go Task,2021.1.4,120.02093136270075,
EPracticeConditions/BlueEyes.csv,"Rule: When you see a blue image, do not press 'spacebar'.",Images/Happy/HF05_HO.jpg,Happy,Yellow,Images/Yellow.jpg,space,,,,,,,0,0,0,0,0,4,4,5,,,,,,,,,,,,,,,,,,,,,,,,,,,,,,,,,,,,,,,,,,,,,,,,,,,1.9,225.93642430007458,None,None,0,227.93704449990764,None,227.93704449990764,None,227.93704449990764,None,228.82721049990505,None,,,,,,,,,,,,,,,,,,,,,,,,,,,,,,,,,,,,,,,,,,,,,,,,,,P008,fencog,2,Pre,2021_Aug_06_1140,Go No-Go Task,2021.1.4,120.02093136270075,
EPracticeConditions/BlueEyes.csv,"Rule: When you see a blue image, do not press 'spacebar'.",Images/Happy/HF09_HE.jpg,Happy,Yellow,Images/Yellow.jpg,space,,,,,,,0,0,0,0,0,5,5,6,,,,,,,,,,,,,,,,,,,,,,,,,,,,,,,,,,,,,,,,,,,,,,,,,,,1.4,230.8270708997734,None,space,1,232.3273235997185,None,232.3273235997185,None,232.3273235997185,None,233.23956879973412,None,0.2244978998787701,,,,,,,,,,,,,,,,,,,,,,,,,,,,,,,,,,,,,,,,,,,,,,,,,P008,fencog,2,Pre,2021_Aug_06_1140,Go No-Go Task,2021.1.4,120.02093136270075,
EPracticeConditions/BlueEyes.csv,"Rule: When you see a blue image, do not press 'spacebar'.",Images/Happy/BM02_HO.jpg,Happy,Yellow,Images/Yellow.jpg,space,,,,,,,0,0,0,0,0,6,6,2,,,,,,,,,,,,,,,,,,,,,,,,,,,,,,,,,,,,,,,,,,,,,,,,,,,1.6,235.23388559976593,None,space,1,236.9342926000245,None,236.9342926000245,None,236.9342926000245,None,237.82703249994665,None,0.34614739986136556,,,,,,,,,,,,,,,,,,,,,,,,,,,,,,,,,,,,,,,,,,,,,,,,,P008,fencog,2,Pre,2021_Aug_06_1140,Go No-Go Task,2021.1.4,120.02093136270075,
EPracticeConditions/BlueEyes.csv,"Rule: When you see a blue image, do not press 'spacebar'.",Images/Happy/BM08_HO.jpg,Happy,Yellow,Images/Yellow.jpg,space,,,,,,,0,0,0,0,0,7,7,3,,,,,,,,,,,,,,,,,,,,,,,,,,,,,,,,,,,,,,,,,,,,,,,,,,,1.7,239.83479399979115,None,None,0,241.64120650012046,None,241.64120650012046,None,241.64120650012046,None,242.5400768998079,None,,,,,,,,,,,,,,,,,,,,,,,,,,,,,,,,,,,,,,,,,,,,,,,,,,P008,fencog,2,Pre,2021_Aug_06_1140,Go No-Go Task,2021.1.4,120.02093136270075,
EPracticeConditions/BlueEyes.csv,"Rule: When you see a blue image, do not press 'spacebar'.",,,,,,,,,,,,0,0,0,0,,,,,,,,,,,,,,,,,,,,,,,,,,,,,,,,,,,,,,,,,,,,,,,,,,,,,,,,,,,,,,,,,,,,,,,,,,,,,,,,,,,,,,,,,,,,,,,,,,,,,,,,,,,,,,,,,,,,,P008,fencog,2,Pre,2021_Aug_06_1140,Go No-Go Task,2021.1.4,120.02093136270075,
EPracticeConditions/YellowEyes.csv,"Rule: When you see a yellow image, do not press 'spacebar'.",Images/Fearful/AM17AFS.jpg,Fear,Blue,Images/Blue.jpg,space,,,,,,,0,1,1,1,0,0,0,3,,,,,,,,,,,,,,,,,,,,,,,,,,,,,,,,,,,,,244.55802410002798,None,247.5471612997353,None,space,2.89261980028823,247.5471612997353,None,244.55802410002798,None,244.55802410002798,None,244.55802410002798,None,1.4,250.46107670012861,None,space,1,251.96320089977235,None,251.96320089977235,None,251.96320089977235,None,252.86764249997213,None,0.38139860006049275,,,,,,,,,,,,,,,,,,,,,,,,,,,,,,,,,,,,,,,,,,,,,,,,,P008,fencog,2,Pre,2021_Aug_06_1140,Go No-Go Task,2021.1.4,120.02093136270075,
EPracticeConditions/YellowEyes.csv,"Rule: When you see a yellow image, do not press 'spacebar'.",Images/Fearful/AM23AFS.jpg,Fear,Blue,Images/Blue.jpg,space,,,,,,,0,1,1,1,0,1,1,6,,,,,,,,,,,,,,,,,,,,,,,,,,,,,,,,,,,,,,,,,,,,,,,,,,,1.8,254.86957929981872,None,space,1,256.77012720005587,None,256.77012720005587,None,256.77012720005587,None,257.674743199721,None,0.3186671999283135,,,,,,,,,,,,,,,,,,,,,,,,,,,,,,,,,,,,,,,,,,,,,,,,,P008,fencog,2,Pre,2021_Aug_06_1140,Go No-Go Task,2021.1.4,120.02093136270075,
EPracticeConditions/YellowEyes.csv,"Rule: When you see a yellow image, do not press 'spacebar'.",Images/Fearful/AM22AFS.jpg,Fear,Blue,Images/Blue.jpg,space,,,,,,,0,1,1,1,0,2,2,5,,,,,,,,,,,,,,,,,,,,,,,,,,,,,,,,,,,,,,,,,,,,,,,,,,,1.5,259.67669779993594,None,None,0,261.2686499999836,None,261.2686499999836,None,261.2686499999836,None,262.1747628999874,None,,,,,,,,,,,,,,,,,,,,,,,,,,,,,,,,,,,,,,,,,,,,,,,,,,P008,fencog,2,Pre,2021_Aug_06_1140,Go No-Go Task,2021.1.4,120.02093136270075,
EPracticeConditions/YellowEyes.csv,"Rule: When you see a yellow image, do not press 'spacebar'.",Images/Fearful/AM24AFS.jpg,Fear,Blue,Images/Blue.jpg,space,,,,,,,0,1,1,1,0,3,3,7,,,,,,,,,,,,,,,,,,,,,,,,,,,,,,,,,,,,,,,,,,,,,,,,,,,1.3,264.1770895998925,None,None,0,265.5841247998178,None,265.5841247998178,None,265.5841247998178,None,266.4775128001347,None,,,,,,,,,,,,,,,,,,,,,,,,,,,,,,,,,,,,,,,,,,,,,,,,,,P008,fencog,2,Pre,2021_Aug_06_1140,Go No-Go Task,2021.1.4,120.02093136270075,
EPracticeConditions/YellowEyes.csv,"Rule: When you see a yellow image, do not press 'spacebar'.",Images/Fearful/AM16AFS.jpg,Fear,Blue,Images/Blue.jpg,space,,,,,,,0,1,1,1,0,4,4,2,,,,,,,,,,,,,,,,,,,,,,,,,,,,,,,,,,,,,,,,,,,,,,,,,,,1.2,268.48372799996287,None,space,1,269.7996213999577,None,269.7996213999577,None,269.7996213999577,None,270.6954598999582,None,0.30456320010125637,,,,,,,,,,,,,,,,,,,,,,,,,,,,,,,,,,,,,,,,,,,,,,,,,P008,fencog,2,Pre,2021_Aug_06_1140,Go No-Go Task,2021.1.4,120.02093136270075,
EPracticeConditions/YellowEyes.csv,"Rule: When you see a yellow image, do not press 'spacebar'.",Images/Fearful/AM19AFS.jpg,Fear,Blue,Images/Blue.jpg,space,,,,,,,0,1,1,1,0,5,5,4,,,,,,,,,,,,,,,,,,,,,,,,,,,,,,,,,,,,,,,,,,,,,,,,,,,1.9,272.6977749001235,None,None,0,274.697804399766,None,274.697804399766,None,274.697804399766,None,275.60367670003325,None,,,,,,,,,,,,,,,,,,,,,,,,,,,,,,,,,,,,,,,,,,,,,,,,,,P008,fencog,2,Pre,2021_Aug_06_1140,Go No-Go Task,2021.1.4,120.02093136270075,
EPracticeConditions/YellowEyes.csv,"Rule: When you see a yellow image, do not press 'spacebar'.",Images/Happy/BF05_HO.jpg,Happy,Yellow,Images/Yellow.jpg,None,,,,,,,0,1,1,1,0,6,6,1,,,,,,,,,,,,,,,,,,,,,,,,,,,,,,,,,,,,,,,,,,,,,,,,,,,1.7,277.6047760997899,None,None,1,279.4051068997942,None,279.4051068997942,None,279.4051068997942,None,280.3117991001345,None,,,,,,,,,,,,,,,,,,,,,,,,,,,,,,,,,,,,,,,,,,,,,,,,,,P008,fencog,2,Pre,2021_Aug_06_1140,Go No-Go Task,2021.1.4,120.02093136270075,
EPracticeConditions/YellowEyes.csv,"Rule: When you see a yellow image, do not press 'spacebar'.",Images/Happy/AM32HAS.jpg,Happy,Yellow,Images/Yellow.jpg,None,,,,,,,0,1,1,1,0,7,7,0,,,,,,,,,,,,,,,,,,,,,,,,,,,,,,,,,,,,,,,,,,,,,,,,,,,1.6,282.31179019995034,None,None,1,284.01200190000236,None,284.01200190000236,None,284.01200190000236,None,284.917349900119,None,,,,,,,,,,,,,,,,,,,,,,,,,,,,,,,,,,,,,,,,,,,,,,,,,,P008,fencog,2,Pre,2021_Aug_06_1140,Go No-Go Task,2021.1.4,120.02093136270075,
EPracticeConditions/YellowEyes.csv,"Rule: When you see a yellow image, do not press 'spacebar'.",,,,,,,,,,,,0,1,1,1,,,,,,,,,,,,,,,,,,,,,,,,,,,,,,,,,,,,,,,,,,,,,,,,,,,,,,,,,,,,,,,,,,,,,,,,,,,,,,,,,,,,,,,,,,,,,,,,,,,,,,,,,,,,,,,,,,,,,P008,fencog,2,Pre,2021_Aug_06_1140,Go No-Go Task,2021.1.4,120.02093136270075,
EPracticeConditions/BlueScram.csv,"Rule: When you see a blue image, do not press 'spacebar'.",Images/Scram1/BM08_NC.jpg,Scramble,Blue,Images/Blue.jpg,None,,,,,,,0,2,2,2,0,0,0,0,,,,,,,,,,,,,,,,,,,,,,,,,,,,,,,,,,,,,286.9292204999365,None,289.9181515998207,None,space,1.8332141996361315,289.9181515998207,None,286.9292204999365,None,286.9292204999365,None,286.9292204999365,None,1.5,291.77214939985424,None,None,1,293.38430619984865,None,293.38430619984865,None,293.38430619984865,None,294.2804418001324,None,,,,,,,,,,,,,,,,,,,,,,,,,,,,,,,,,,,,,,,,,,,,,,,,,,P008,fencog,2,Pre,2021_Aug_06_1140,Go No-Go Task,2021.1.4,120.02093136270075,
EPracticeConditions/BlueScram.csv,"Rule: When you see a blue image, do not press 'spacebar'.",Images/Scram1/BF18_NC.jpg,Scramble,Blue,Images/Blue.jpg,None,,,,,,,0,2,2,2,0,1,1,1,,,,,,,,,,,,,,,,,,,,,,,,,,,,,,,,,,,,,,,,,,,,,,,,,,,1.3,296.2824904001318,None,None,1,297.6828498998657,None,297.6828498998657,None,297.6828498998657,None,298.57987299980596,None,,,,,,,,,,,,,,,,,,,,,,,,,,,,,,,,,,,,,,,,,,,,,,,,,,P008,fencog,2,Pre,2021_Aug_06_1140,Go No-Go Task,2021.1.4,120.02093136270075,
EPracticeConditions/BlueScram.csv,"Rule: When you see a blue image, do not press 'spacebar'.",Images/Scram2/AF25NES.jpg,Scramble,Yellow,Images/Yellow.jpg,space,,,,,,,0,2,2,2,0,2,2,7,,,,,,,,,,,,,,,,,,,,,,,,,,,,,,,,,,,,,,,,,,,,,,,,,,,1.6,300.58455740008503,None,space,1,302.289996100124,None,302.289996100124,None,302.289996100124,None,303.1861439999193,None,0.30198789993301034,,,,,,,,,,,,,,,,,,,,,,,,,,,,,,,,,,,,,,,,,,,,,,,,,P008,fencog,2,Pre,2021_Aug_06_1140,Go No-Go Task,2021.1.4,120.02093136270075,
EPracticeConditions/BlueScram.csv,"Rule: When you see a blue image, do not press 'spacebar'.",Images/Scram1/AM03NES.jpg,Scramble,Yellow,Images/Yellow.jpg,space,,,,,,,0,2,2,2,0,3,3,4,,,,,,,,,,,,,,,,,,,,,,,,,,,,,,,,,,,,,,,,,,,,,,,,,,,1.8,305.1907399999909,None,space,1,307.0969135998748,None,307.0969135998748,None,307.0969135998748,None,307.9938527997583,None,0.3665291001088917,,,,,,,,,,,,,,,,,,,,,,,,,,,,,,,,,,,,,,,,,,,,,,,,,P008,fencog,2,Pre,2021_Aug_06_1140,Go No-Go Task,2021.1.4,120.02093136270075,
EPracticeConditions/BlueScram.csv,"Rule: When you see a blue image, do not press 'spacebar'.",Images/Scram1/AM13NES.jpg,Scramble,Yellow,Images/Yellow.jpg,space,,,,,,,0,2,2,2,0,4,4,5,,,,,,,,,,,,,,,,,,,,,,,,,,,,,,,,,,,,,,,,,,,,,,,,,,,1.2,309.99746390013024,None,space,1,311.3038662998006,None,311.3038662998006,None,311.3038662998006,None,312.208220299799,None,0.3444842998869717,,,,,,,,,,,,,,,,,,,,,,,,,,,,,,,,,,,,,,,,,,,,,,,,,P008,fencog,2,Pre,2021_Aug_06_1140,Go No-Go Task,2021.1.4,120.02093136270075,
EPracticeConditions/BlueScram.csv,"Rule: When you see a blue image, do not press 'spacebar'.",Images/Scram2/AM03_NC.jpg,Scramble,Yellow,Images/Yellow.jpg,space,,,,,,,0,2,2,2,0,5,5,6,,,,,,,,,,,,,,,,,,,,,,,,,,,,,,,,,,,,,,,,,,,,,,,,,,,1.9,314.2103296997957,None,space,1,316.2108915997669,None,316.2108915997669,None,316.2108915997669,None,317.11702709970996,None,0.30870599998161197,,,,,,,,,,,,,,,,,,,,,,,,,,,,,,,,,,,,,,,,,,,,,,,,,P008,fencog,2,Pre,2021_Aug_06_1140,Go No-Go Task,2021.1.4,120.02093136270075,
EPracticeConditions/BlueScram.csv,"Rule: When you see a blue image, do not press 'spacebar'.",Images/Scram2/AF10_NC.jpg,Scramble,Yellow,Images/Yellow.jpg,space,,,,,,,0,2,2,2,0,6,6,2,,,,,,,,,,,,,,,,,,,,,,,,,,,,,,,,,,,,,,,,,,,,,,,,,,,1.7,319.121008399874,None,space,1,320.92614750005305,None,320.92614750005305,None,320.92614750005305,None,321.819385800045,None,0.33741489984095097,,,,,,,,,,,,,,,,,,,,,,,,,,,,,,,,,,,,,,,,,,,,,,,,,P008,fencog,2,Pre,2021_Aug_06_1140,Go No-Go Task,2021.1.4,120.02093136270075,
EPracticeConditions/BlueScram.csv,"Rule: When you see a blue image, do not press 'spacebar'.",Images/Scram1/AM04_NC.jpg,Scramble,Yellow,Images/Yellow.jpg,space,,,,,,,0,2,2,2,0,7,7,3,,,,,,,,,,,,,,,,,,,,,,,,,,,,,,,,,,,,,,,,,,,,,,,,,,,1.4,323.8284676996991,None,None,0,325.3330731000751,None,325.3330731000751,None,325.3330731000751,None,326.23486179998145,None,,,,,,,,,,,,,,,,,,,,,,,,,,,,,,,,,,,,,,,,,,,,,,,,,,P008,fencog,2,Pre,2021_Aug_06_1140,Go No-Go Task,2021.1.4,120.02093136270075,
EPracticeConditions/BlueScram.csv,"Rule: When you see a blue image, do not press 'spacebar'.",,,,,,,,,,,,0,2,2,2,,,,,,,,,,,,,,,,,,,,,,,,,,,,,,,,,,,,,,,,,,,,,,,,,,,,,,,,,,,,,,,,,,,,,,,,,,,,,,,,,,,,,,,,,,,,,,,,,,,,,,,,,,,,,,,,,,,,,P008,fencog,2,Pre,2021_Aug_06_1140,Go No-Go Task,2021.1.4,120.02093136270075,
EPracticeConditions/YellowScram.csv,"Rule: When you see a yellow image, do not press 'spacebar'.",Images/Scram1/BM01_NC.jpg,Scramble,Blue,Images/Blue.jpg,space,,,,,,,0,3,3,3,0,0,0,5,,,,,,,,,,,,,,,,,,,,,,,,,,,,,,,,,,,,,328.25562059972435,None,331.2473116000183,None,space,14.352368399966508,331.2473116000183,None,328.25562059972435,None,328.25562059972435,None,328.25562059972435,None,1.2,345.62372889975086,None,None,0,346.9268295997754,None,346.9268295997754,None,346.9268295997754,None,347.8246500999667,None,,,,,,,,,,,,,,,,,,,,,,,,,,,,,,,,,,,,,,,,,,,,,,,,,,P008,fencog,2,Pre,2021_Aug_06_1140,Go No-Go Task,2021.1.4,120.02093136270075,
EPracticeConditions/YellowScram.csv,"Rule: When you see a yellow image, do not press 'spacebar'.",Images/Scram1/AF10_NC.jpg,Scramble,Blue,Images/Blue.jpg,space,,,,,,,0,3,3,3,0,1,1,6,,,,,,,,,,,,,,,,,,,,,,,,,,,,,,,,,,,,,,,,,,,,,,,,,,,1.3,349.8263598997146,None,None,0,351.2337388996966,None,351.2337388996966,None,351.2337388996966,None,352.1401581997052,None,,,,,,,,,,,,,,,,,,,,,,,,,,,,,,,,,,,,,,,,,,,,,,,,,,P008,fencog,2,Pre,2021_Aug_06_1140,Go No-Go Task,2021.1.4,120.02093136270075,
EPracticeConditions/YellowScram.csv,"Rule: When you see a yellow image, do not press 'spacebar'.",Images/Scram1/AF24NES.jpg,Scramble,Blue,Images/Blue.jpg,space,,,,,,,0,3,3,3,0,2,2,7,,,,,,,,,,,,,,,,,,,,,,,,,,,,,,,,,,,,,,,,,,,,,,,,,,,1.8,354.141637600027,None,None,0,356.0490719000809,None,356.0490719000809,None,356.0490719000809,None,356.95013220002875,None,,,,,,,,,,,,,,,,,,,,,,,,,,,,,,,,,,,,,,,,,,,,,,,,,,P008,fencog,2,Pre,2021_Aug_06_1140,Go No-Go Task,2021.1.4,120.02093136270075,
EPracticeConditions/YellowScram.csv,"Rule: When you see a yellow image, do not press 'spacebar'.",Images/Scram2/AM03NES.jpg,Scramble,Yellow,Images/Yellow.jpg,None,,,,,,,0,3,3,3,0,3,3,1,,,,,,,,,,,,,,,,,,,,,,,,,,,,,,,,,,,,,,,,,,,,,,,,,,,1.6,358.9555509998463,None,None,1,360.6560772997327,None,360.6560772997327,None,360.6560772997327,None,361.5597398998216,None,,,,,,,,,,,,,,,,,,,,,,,,,,,,,,,,,,,,,,,,,,,,,,,,,,P008,fencog,2,Pre,2021_Aug_06_1140,Go No-Go Task,2021.1.4,120.02093136270075,
EPracticeConditions/YellowScram.csv,"Rule: When you see a yellow image, do not press 'spacebar'.",Images/Scram1/AF07NES.jpg,Scramble,Blue,Images/Blue.jpg,space,,,,,,,0,3,3,3,0,4,4,3,,,,,,,,,,,,,,,,,,,,,,,,,,,,,,,,,,,,,,,,,,,,,,,,,,,1.9,363.56382549973205,None,space,1,365.5712438998744,None,365.5712438998744,None,365.5712438998744,None,366.47296109981835,None,0.3486017999239266,,,,,,,,,,,,,,,,,,,,,,,,,,,,,,,,,,,,,,,,,,,,,,,,,P008,fencog,2,Pre,2021_Aug_06_1140,Go No-Go Task,2021.1.4,120.02093136270075,
EPracticeConditions/YellowScram.csv,"Rule: When you see a yellow image, do not press 'spacebar'.",Images/Scram1/HF04_NC.jpg,Scramble,Blue,Images/Blue.jpg,space,,,,,,,0,3,3,3,0,5,5,2,,,,,,,,,,,,,,,,,,,,,,,,,,,,,,,,,,,,,,,,,,,,,,,,,,,1.5,368.47780179977417,None,space,1,370.07828029990196,None,370.07828029990196,None,370.07828029990196,None,370.9794076997787,None,0.2893862999044359,,,,,,,,,,,,,,,,,,,,,,,,,,,,,,,,,,,,,,,,,,,,,,,,,P008,fencog,2,Pre,2021_Aug_06_1140,Go No-Go Task,2021.1.4,120.02093136270075,
EPracticeConditions/YellowScram.csv,"Rule: When you see a yellow image, do not press 'spacebar'.",Images/Scram1/AF30NES.JPG,Scramble,Blue,Images/Blue.jpg,space,,,,,,,0,3,3,3,0,6,6,4,,,,,,,,,,,,,,,,,,,,,,,,,,,,,,,,,,,,,,,,,,,,,,,,,,,1.7,372.984664299991,None,space,1,374.78521579969674,None,374.78521579969674,None,374.78521579969674,None,375.6843423997052,None,0.1826864001341164,,,,,,,,,,,,,,,,,,,,,,,,,,,,,,,,,,,,,,,,,,,,,,,,,P008,fencog,2,Pre,2021_Aug_06_1140,Go No-Go Task,2021.1.4,120.02093136270075,
EPracticeConditions/YellowScram.csv,"Rule: When you see a yellow image, do not press 'spacebar'.",Images/Scram2/HM06_NC.jpg,Scramble,Yellow,Images/Yellow.jpg,None,,,,,,,0,3,3,3,0,7,7,0,,,,,,,,,,,,,,,,,,,,,,,,,,,,,,,,,,,,,,,,,,,,,,,,,,,1.4,377.6865508998744,None,None,1,379.19209720008075,None,379.19209720008075,None,379.19209720008075,None,380.0881342999637,None,,,,,,,,,,,,,,,,,,,,,,,,,,,,,,,,,,,,,,,,,,,,,,,,,,P008,fencog,2,Pre,2021_Aug_06_1140,Go No-Go Task,2021.1.4,120.02093136270075,
EPracticeConditions/YellowScram.csv,"Rule: When you see a yellow image, do not press 'spacebar'.",,,,,,,,,,,,0,3,3,3,,,,,,,,,,,,,,,,,,,,,,,,,,,,,,,,,,,,,,,,,,,,,,,,,,,,,,,,,,,,,,,,,,,,,,,,,,,,,,,,,,,,,,,,,,,,,,,,,,,,,,,,,,,,,,,,,,,,,P008,fencog,2,Pre,2021_Aug_06_1140,Go No-Go Task,2021.1.4,120.02093136270075,
,,,,,,,,,,,,,,,,,,,,,,,,,,,,,,,,,,,,,,,,,,,,,,,,,,,,,,,,,,,,,,,,,,,,,,,,,,,,,,,,,,,,,383.4166220999323,None,space,14.620918600354344,383.89863740000874,None,,,,,,,,,,,,,,,,,,,,,,,,,,,,,,,,,,,,,,,,,,,P008,fencog,2,Pre,2021_Aug_06_1140,Go No-Go Task,2021.1.4,120.02093136270075,
,,,,,,,,,,,,,,,,,,,,,,,,,,,,,,,,,,,,,,,,,,,,,,,,,,,,,,,,,,,,,,,,,,,,,,,,,,,,,,,,,,,,,,,,,,,398.5337566998787,None,space,5.025559300091118,398.5337566998787,None,,,,,,,,,,,,,,,,,,,,,,,,,,,,,,,,,,,,,P008,fencog,2,Pre,2021_Aug_06_1140,Go No-Go Task,2021.1.4,120.02093136270075,
,"Rule: When you see a yellow image, do not press 'spacebar'.",Images/Happy/BF09_HO.jpg,Happy,Blue,Images/Blue.jpg,space,ParentConditions/YellowYellowBlue_v2.xlsx,YellowYellowBlue,Conditions/Version_2/YellowFearStop.xlsx,no,PASS,0.2009685743777515,,,,,,,,,0,0,0,1,0,0,0,0,0,0,0,0,,,,,,,,,,,,,,,,,,,,,,,,,,,,,,,,,,,,,,,,,,,,,,,,,,,,,,,,,,,,,,,,,403.63147610006854,None,406.6249742000364,None,space,0.622414699755609,406.6249742000364,None,403.63147610006854,None,403.63147610006854,None,403.63147610006854,None,1.91,407.31661849981174,None,None,0,409.3332615001127,None,409.3332615001127,None,409.3332615001127,None,,,,,,,,,,,,P008,fencog,2,Pre,2021_Aug_06_1140,Go No-Go Task,2021.1.4,120.02093136270075,
,"Rule: When you see a yellow image, do not press 'spacebar'.",Images/Happy/AF30HAS.jpg,Happy,Blue,Images/Blue.jpg,space,ParentConditions/YellowYellowBlue_v2.xlsx,YellowYellowBlue,Conditions/Version_2/YellowFearStop.xlsx,no,PASS,0.9679561444510932,,,,,,,,,0,0,0,1,0,0,0,0,0,1,1,1,,,,,,,,,,,,,,,,,,,,,,,,,,,,,,,,,,,,,,,,,,,,,,,,,,,,,,,,,,,,,,,,,,,,,,,,,,,,,,,1.76,409.7366822999902,None,space,1,411.5992284999229,None,411.5992284999229,None,411.5992284999229,None,0.24825179995968938,,,,,,,,,,,P008,fencog,2,Pre,2021_Aug_06_1140,Go No-Go Task,2021.1.4,120.02093136270075,
,"Rule: When you see a yellow image, do not press 'spacebar'.",Images/Happy/AF27HAS.jpg,Happy,Blue,Images/Blue.jpg,space,ParentConditions/YellowYellowBlue_v2.xlsx,YellowYellowBlue,Conditions/Version_2/YellowFearStop.xlsx,no,PASS,0.024466481670397555,,,,,,,,,0,0,0,1,0,0,0,0,0,2,2,2,,,,,,,,,,,,,,,,,,,,,,,,,,,,,,,,,,,,,,,,,,,,,,,,,,,,,,,,,,,,,,,,,,,,,,,,,,,,,,,1.72,411.9982273997739,None,space,1,413.823556299787,None,413.823556299787,None,413.823556299787,None,0.21579300006851554,,,,,,,,,,,P008,fencog,2,Pre,2021_Aug_06_1140,Go No-Go Task,2021.1.4,120.02093136270075,
,"Rule: When you see a yellow image, do not press 'spacebar'.",Images/Happy/AF22HAS.jpg,Happy,Blue,Images/Blue.jpg,space,ParentConditions/YellowYellowBlue_v2.xlsx,YellowYellowBlue,Conditions/Version_2/YellowFearStop.xlsx,no,PASS,0.900419425166189,,,,,,,,,0,0,0,1,0,0,0,0,0,3,3,3,,,,,,,,,,,,,,,,,,,,,,,,,,,,,,,,,,,,,,,,,,,,,,,,,,,,,,,,,,,,,,,,,,,,,,,,,,,,,,,1.83,414.22611350007355,None,space,1,416.15663449978456,None,416.15663449978456,None,416.15663449978456,None,0.22737229987978935,,,,,,,,,,,P008,fencog,2,Pre,2021_Aug_06_1140,Go No-Go Task,2021.1.4,120.02093136270075,
,"Rule: When you see a yellow image, do not press 'spacebar'.",Images/Happy/WM11_HC.jpg,Happy,Blue,Images/Blue.jpg,space,ParentConditions/YellowYellowBlue_v2.xlsx,YellowYellowBlue,Conditions/Version_2/YellowFearStop.xlsx,no,PASS,0.5042081063795358,,,,,,,,,0,0,0,1,0,0,0,0,0,4,4,4,,,,,,,,,,,,,,,,,,,,,,,,,,,,,,,,,,,,,,,,,,,,,,,,,,,,,,,,,,,,,,,,,,,,,,,,,,,,,,,1.52,416.5566754997708,None,space,1,418.1807234999724,None,418.1807234999724,None,418.1807234999724,None,0.2671175003051758,,,,,,,,,,,P008,fencog,2,Pre,2021_Aug_06_1140,Go No-Go Task,2021.1.4,120.02093136270075,
,"Rule: When you see a yellow image, do not press 'spacebar'.",Images/Happy/BF05_HO.jpg,Happy,Blue,Images/Blue.jpg,space,ParentConditions/YellowYellowBlue_v2.xlsx,YellowYellowBlue,Conditions/Version_2/YellowFearStop.xlsx,no,PASS,0.6687720633168746,,,,,,,,,0,0,0,1,0,0,0,0,0,5,5,5,,,,,,,,,,,,,,,,,,,,,,,,,,,,,,,,,,,,,,,,,,,,,,,,,,,,,,,,,,,,,,,,,,,,,,,,,,,,,,,1.63,418.58794640004635,None,space,1,420.32170039974153,None,420.32170039974153,None,420.32170039974153,None,0.33395660016685724,,,,,,,,,,,P008,fencog,2,Pre,2021_Aug_06_1140,Go No-Go Task,2021.1.4,120.02093136270075,
,"Rule: When you see a yellow image, do not press 'spacebar'.",Images/Fearful/AM01AFS.jpg,Fear,Yellow,Images/Yellow.jpg,None,ParentConditions/YellowYellowBlue_v2.xlsx,YellowYellowBlue,Conditions/Version_2/YellowFearStop.xlsx,yes,PASS,0.008120847249678764,,,,,,,,,0,0,0,1,0,0,0,0,0,6,6,6,,,,,,,,,,,,,,,,,,,,,,,,,,,,,,,,,,,,,,,,,,,,,,,,,,,,,,,,,,,,,,,,,,,,,,,,,,,,,,,1.7,420.7222895999439,None,space,0,422.52934219967574,None,422.52934219967574,None,422.52934219967574,None,0.21376700000837445,,,,,,,,,,,P008,fencog,2,Pre,2021_Aug_06_1140,Go No-Go Task,2021.1.4,120.02093136270075,
,"Rule: When you see a yellow image, do not press 'spacebar'.",Images/Happy/AF23HAS.jpg,Happy,Blue,Images/Blue.jpg,space,ParentConditions/YellowYellowBlue_v2.xlsx,YellowYellowBlue,Conditions/Version_2/YellowFearStop.xlsx,no,PASS,0.07023198870971747,,,,,,,,,0,0,0,1,0,0,0,0,0,7,7,7,,,,,,,,,,,,,,,,,,,,,,,,,,,,,,,,,,,,,,,,,,,,,,,,,,,,,,,,,,,,,,,,,,,,,,,,,,,,,,,1.57,422.93475939985365,None,space,1,424.62031739996746,None,424.62031739996746,None,424.62031739996746,None,0.2991809998638928,,,,,,,,,,,P008,fencog,2,Pre,2021_Aug_06_1140,Go No-Go Task,2021.1.4,120.02093136270075,
,"Rule: When you see a yellow image, do not press 'spacebar'.",Images/Happy/AM16HAS.jpg,Happy,Blue,Images/Blue.jpg,space,ParentConditions/YellowYellowBlue_v2.xlsx,YellowYellowBlue,Conditions/Version_2/YellowFearStop.xlsx,no,PASS,0.031804034281165405,,,,,,,,,0,0,0,1,0,0,0,0,0,8,8,8,,,,,,,,,,,,,,,,,,,,,,,,,,,,,,,,,,,,,,,,,,,,,,,,,,,,,,,,,,,,,,,,,,,,,,,,,,,,,,,1.27,425.0195507998578,None,space,1,426.39495670003816,None,426.39495670003816,None,426.39495670003816,None,0.27621199982240796,,,,,,,,,,,P008,fencog,2,Pre,2021_Aug_06_1140,Go No-Go Task,2021.1.4,120.02093136270075,
,"Rule: When you see a yellow image, do not press 'spacebar'.",Images/Happy/AM04HAS.jpg,Happy,Blue,Images/Blue.jpg,space,ParentConditions/YellowYellowBlue_v2.xlsx,YellowYellowBlue,Conditions/Version_2/YellowFearStop.xlsx,no,PASS,0.0002121348500070397,,,,,,,,,0,0,0,1,0,0,0,0,0,9,9,9,,,,,,,,,,,,,,,,,,,,,,,,,,,,,,,,,,,,,,,,,,,,,,,,,,,,,,,,,,,,,,,,,,,,,,,,,,,,,,,1.62,426.8003197000362,None,space,1,428.52761829970405,None,428.52761829970405,None,428.52761829970405,None,0.2239508000202477,,,,,,,,,,,P008,fencog,2,Pre,2021_Aug_06_1140,Go No-Go Task,2021.1.4,120.02093136270075,
,"Rule: When you see a yellow image, do not press 'spacebar'.",Images/Happy/AF26HAS.jpg,Happy,Blue,Images/Blue.jpg,space,ParentConditions/YellowYellowBlue_v2.xlsx,YellowYellowBlue,Conditions/Version_2/YellowFearStop.xlsx,no,PASS,0.408079602030768,,,,,,,,,0,0,0,1,0,0,0,0,0,10,10,10,,,,,,,,,,,,,,,,,,,,,,,,,,,,,,,,,,,,,,,,,,,,,,,,,,,,,,,,,,,,,,,,,,,,,,,,,,,,,,,1.99,428.93114840006456,None,space,1,431.0352402999997,None,431.0352402999997,None,431.0352402999997,None,0.3649696004576981,,,,,,,,,,,P008,fencog,2,Pre,2021_Aug_06_1140,Go No-Go Task,2021.1.4,120.02093136270075,
,"Rule: When you see a yellow image, do not press 'spacebar'.",Images/Fearful/AF10_FC.jpg,Fear,Yellow,Images/Yellow.jpg,None,ParentConditions/YellowYellowBlue_v2.xlsx,YellowYellowBlue,Conditions/Version_2/YellowFearStop.xlsx,yes,PASS,0.43118367877877073,,,,,,,,,0,0,0,1,0,0,0,0,0,11,11,11,,,,,,,,,,,,,,,,,,,,,,,,,,,,,,,,,,,,,,,,,,,,,,,,,,,,,,,,,,,,,,,,,,,,,,,,,,,,,,,1.94,431.4270667997189,None,space,0,433.4677586001344,None,433.4677586001344,None,433.4677586001344,None,0.3169368002563715,,,,,,,,,,,P008,fencog,2,Pre,2021_Aug_06_1140,Go No-Go Task,2021.1.4,120.02093136270075,
,"Rule: When you see a yellow image, do not press 'spacebar'.",Images/Fearful/AM09_FO.jpg,Fear,Yellow,Images/Yellow.jpg,None,ParentConditions/YellowYellowBlue_v2.xlsx,YellowYellowBlue,Conditions/Version_2/YellowFearStop.xlsx,yes,PASS,0.25324381257324213,,,,,,,,,0,0,0,1,0,0,0,0,0,12,12,12,,,,,,,,,,,,,,,,,,,,,,,,,,,,,,,,,,,,,,,,,,,,,,,,,,,,,,,,,,,,,,,,,,,,,,,,,,,,,,,1.43,433.86791149992496,None,space,0,435.3921833001077,None,435.3921833001077,None,435.3921833001077,None,0.24776360020041466,,,,,,,,,,,P008,fencog,2,Pre,2021_Aug_06_1140,Go No-Go Task,2021.1.4,120.02093136270075,
,"Rule: When you see a yellow image, do not press 'spacebar'.",Images/Happy/HM04_HO.jpg,Happy,Blue,Images/Blue.jpg,space,ParentConditions/YellowYellowBlue_v2.xlsx,YellowYellowBlue,Conditions/Version_2/YellowFearStop.xlsx,no,PASS,0.4072425132028237,,,,,,,,,0,0,0,1,0,0,0,0,0,13,13,13,,,,,,,,,,,,,,,,,,,,,,,,,,,,,,,,,,,,,,,,,,,,,,,,,,,,,,,,,,,,,,,,,,,,,,,,,,,,,,,2,435.7982042999938,None,None,0,437.89977389993146,None,437.89977389993146,None,437.89977389993146,None,,,,,,,,,,,,P008,fencog,2,Pre,2021_Aug_06_1140,Go No-Go Task,2021.1.4,120.02093136270075,
,"Rule: When you see a yellow image, do not press 'spacebar'.",Images/Fearful/AM04_FO.jpg,Fear,Yellow,Images/Yellow.jpg,None,ParentConditions/YellowYellowBlue_v2.xlsx,YellowYellowBlue,Conditions/Version_2/YellowFearStop.xlsx,yes,PASS,0.7288256558461894,,,,,,,,,0,0,0,1,0,0,0,0,0,14,14,14,,,,,,,,,,,,,,,,,,,,,,,,,,,,,,,,,,,,,,,,,,,,,,,,,,,,,,,,,,,,,,,,,,,,,,,,,,,,,,,1.32,438.3016491997987,None,None,1,439.7242506998591,None,439.7242506998591,None,439.7242506998591,None,,,,,,,,,,,,P008,fencog,2,Pre,2021_Aug_06_1140,Go No-Go Task,2021.1.4,120.02093136270075,
,"Rule: When you see a yellow image, do not press 'spacebar'.",Images/Happy/AM13HAS.jpg,Happy,Blue,Images/Blue.jpg,space,ParentConditions/YellowYellowBlue_v2.xlsx,YellowYellowBlue,Conditions/Version_2/YellowFearStop.xlsx,no,PASS,0.9405484517370288,,,,,,,,,0,0,0,1,0,0,0,0,0,15,15,15,,,,,,,,,,,,,,,,,,,,,,,,,,,,,,,,,,,,,,,,,,,,,,,,,,,,,,,,,,,,,,,,,,,,,,,,,,,,,,,1.77,440.12489839969203,None,space,1,441.99854129971936,None,441.99854129971936,None,441.99854129971936,None,0.2809298001229763,,,,,,,,,,,P008,fencog,2,Pre,2021_Aug_06_1140,Go No-Go Task,2021.1.4,120.02093136270075,
,"Rule: When you see a yellow image, do not press 'spacebar'.",Images/Fearful/AF09AFS.jpg,Fear,Yellow,Images/Yellow.jpg,None,ParentConditions/YellowYellowBlue_v2.xlsx,YellowYellowBlue,Conditions/Version_2/YellowFearStop.xlsx,yes,PASS,0.6464881792541419,,,,,,,,,0,0,0,1,0,0,0,0,0,16,16,16,,,,,,,,,,,,,,,,,,,,,,,,,,,,,,,,,,,,,,,,,,,,,,,,,,,,,,,,,,,,,,,,,,,,,,,,,,,,,,,1.6,442.3997402996756,None,space,0,444.1062638000585,None,444.1062638000585,None,444.1062638000585,None,0.3331943000666797,,,,,,,,,,,P008,fencog,2,Pre,2021_Aug_06_1140,Go No-Go Task,2021.1.4,120.02093136270075,
,"Rule: When you see a yellow image, do not press 'spacebar'.",Images/Fearful/BF05_FO.jpg,Fear,Yellow,Images/Yellow.jpg,None,ParentConditions/YellowYellowBlue_v2.xlsx,YellowYellowBlue,Conditions/Version_2/YellowFearStop.xlsx,yes,PASS,0.37509261462312704,,,,,,,,,0,0,0,1,0,0,0,0,0,17,17,17,,,,,,,,,,,,,,,,,,,,,,,,,,,,,,,,,,,,,,,,,,,,,,,,,,,,,,,,,,,,,,,,,,,,,,,,,,,,,,,1.59,444.5097674001008,None,None,1,446.2056740997359,None,446.2056740997359,None,446.2056740997359,None,,,,,,,,,,,,P008,fencog,2,Pre,2021_Aug_06_1140,Go No-Go Task,2021.1.4,120.02093136270075,
,"Rule: When you see a yellow image, do not press 'spacebar'.",Images/Happy/AM24HAS.jpg,Happy,Blue,Images/Blue.jpg,space,ParentConditions/YellowYellowBlue_v2.xlsx,YellowYellowBlue,Conditions/Version_2/YellowFearStop.xlsx,no,PASS,0.016158036932588105,,,,,,,,,0,0,0,1,0,0,0,0,0,18,18,18,,,,,,,,,,,,,,,,,,,,,,,,,,,,,,,,,,,,,,,,,,,,,,,,,,,,,,,,,,,,,,,,,,,,,,,,,,,,,,,1.47,446.60645869979635,None,space,1,448.18004249967635,None,448.18004249967635,None,448.18004249967635,None,0.3554810001514852,,,,,,,,,,,P008,fencog,2,Pre,2021_Aug_06_1140,Go No-Go Task,2021.1.4,120.02093136270075,
,"Rule: When you see a yellow image, do not press 'spacebar'.",Images/Fearful/AF11AFS.jpg,Fear,Yellow,Images/Yellow.jpg,None,ParentConditions/YellowYellowBlue_v2.xlsx,YellowYellowBlue,Conditions/Version_2/YellowFearStop.xlsx,yes,PASS,0.3371554357894605,,,,,,,,,0,0,0,1,0,0,0,0,0,19,19,19,,,,,,,,,,,,,,,,,,,,,,,,,,,,,,,,,,,,,,,,,,,,,,,,,,,,,,,,,,,,,,,,,,,,,,,,,,,,,,,1.87,448.58902009995654,None,None,1,450.56271409988403,None,450.56271409988403,None,450.56271409988403,None,,,,,,,,,,,,P008,fencog,2,Pre,2021_Aug_06_1140,Go No-Go Task,2021.1.4,120.02093136270075,
,"Rule: When you see a yellow image, do not press 'spacebar'.",Images/Happy/AF01_HE.jpg,Happy,Blue,Images/Blue.jpg,space,ParentConditions/YellowYellowBlue_v2.xlsx,YellowYellowBlue,Conditions/Version_2/YellowFearStop.xlsx,no,PASS,0.09770872574206646,,,,,,,,,0,0,0,1,0,0,0,0,0,20,20,20,,,,,,,,,,,,,,,,,,,,,,,,,,,,,,,,,,,,,,,,,,,,,,,,,,,,,,,,,,,,,,,,,,,,,,,,,,,,,,,1.89,450.9651675000787,None,space,1,452.96205150010064,None,452.96205150010064,None,452.96205150010064,None,0.22970720008015633,,,,,,,,,,,P008,fencog,2,Pre,2021_Aug_06_1140,Go No-Go Task,2021.1.4,120.02093136270075,
,"Rule: When you see a yellow image, do not press 'spacebar'.",Images/Happy/AM10_HO.jpg,Happy,Blue,Images/Blue.jpg,space,ParentConditions/YellowYellowBlue_v2.xlsx,YellowYellowBlue,Conditions/Version_2/YellowFearStop.xlsx,no,PASS,0.35803186882916893,,,,,,,,,0,0,0,1,0,0,0,0,0,21,21,21,,,,,,,,,,,,,,,,,,,,,,,,,,,,,,,,,,,,,,,,,,,,,,,,,,,,,,,,,,,,,,,,,,,,,,,,,,,,,,,1.37,453.3638904998079,None,None,0,454.82803739979863,None,454.82803739979863,None,454.82803739979863,None,,,,,,,,,,,,P008,fencog,2,Pre,2021_Aug_06_1140,Go No-Go Task,2021.1.4,120.02093136270075,
,"Rule: When you see a yellow image, do not press 'spacebar'.",Images/Happy/AF09HAS.jpg,Happy,Blue,Images/Blue.jpg,space,ParentConditions/YellowYellowBlue_v2.xlsx,YellowYellowBlue,Conditions/Version_2/YellowFearStop.xlsx,no,PASS,0.20902890792548556,,,,,,,,,0,0,0,1,0,0,0,0,0,22,22,22,,,,,,,,,,,,,,,,,,,,,,,,,,,,,,,,,,,,,,,,,,,,,,,,,,,,,,,,,,,,,,,,,,,,,,,,,,,,,,,1.73,455.2352700000629,None,space,1,457.0691211000085,None,457.0691211000085,None,457.0691211000085,None,0.218276500236243,,,,,,,,,,,P008,fencog,2,Pre,2021_Aug_06_1140,Go No-Go Task,2021.1.4,120.02093136270075,
,"Rule: When you see a yellow image, do not press 'spacebar'.",Images/Happy/BM02_HO.jpg,Happy,Blue,Images/Blue.jpg,space,ParentConditions/YellowYellowBlue_v2.xlsx,YellowYellowBlue,Conditions/Version_2/YellowFearStop.xlsx,no,PASS,0.6732741052769042,,,,,,,,,0,0,0,1,0,0,0,0,0,23,23,23,,,,,,,,,,,,,,,,,,,,,,,,,,,,,,,,,,,,,,,,,,,,,,,,,,,,,,,,,,,,,,,,,,,,,,,,,,,,,,,1.54,457.46925459988415,None,space,1,459.1102129998617,None,459.1102129998617,None,459.1102129998617,None,0.2813790999352932,,,,,,,,,,,P008,fencog,2,Pre,2021_Aug_06_1140,Go No-Go Task,2021.1.4,120.02093136270075,
,"Rule: When you see a yellow image, do not press 'spacebar'.",Images/Happy/AM09_HE.jpg,Happy,Blue,Images/Blue.jpg,space,ParentConditions/YellowYellowBlue_v2.xlsx,YellowYellowBlue,Conditions/Version_2/YellowFearStop.xlsx,no,PASS,0.6065078221259242,,,,,,,,,0,0,0,1,0,0,0,0,0,24,24,24,,,,,,,,,,,,,,,,,,,,,,,,,,,,,,,,,,,,,,,,,,,,,,,,,,,,,,,,,,,,,,,,,,,,,,,,,,,,,,,1.67,459.50983919994906,None,space,1,461.2845397000201,None,461.2845397000201,None,461.2845397000201,None,0.3392608999274671,,,,,,,,,,,P008,fencog,2,Pre,2021_Aug_06_1140,Go No-Go Task,2021.1.4,120.02093136270075,
,"Rule: When you see a yellow image, do not press 'spacebar'.",Images/Happy/AF10_HE.jpg,Happy,Blue,Images/Blue.jpg,space,ParentConditions/YellowYellowBlue_v2.xlsx,YellowYellowBlue,Conditions/Version_2/YellowFearStop.xlsx,no,PASS,0.6869968801100608,,,,,,,,,0,0,0,1,0,0,0,0,0,25,25,25,,,,,,,,,,,,,,,,,,,,,,,,,,,,,,,,,,,,,,,,,,,,,,,,,,,,,,,,,,,,,,,,,,,,,,,,,,,,,,,1.3,461.68846869980916,None,space,1,463.0923414998688,None,463.0923414998688,None,463.0923414998688,None,0.2908560000360012,,,,,,,,,,,P008,fencog,2,Pre,2021_Aug_06_1140,Go No-Go Task,2021.1.4,120.02093136270075,
,"Rule: When you see a yellow image, do not press 'spacebar'.",Images/Happy/BM01_HO.jpg,Happy,Blue,Images/Blue.jpg,space,ParentConditions/YellowYellowBlue_v2.xlsx,YellowYellowBlue,Conditions/Version_2/YellowFearStop.xlsx,no,PASS,0.5538207000686074,,,,,,,,,0,0,0,1,0,0,0,0,0,26,26,26,,,,,,,,,,,,,,,,,,,,,,,,,,,,,,,,,,,,,,,,,,,,,,,,,,,,,,,,,,,,,,,,,,,,,,,,,,,,,,,1.93,463.4922329997644,None,space,1,465.524587799795,None,465.524587799795,None,465.524587799795,None,0.38745660008862615,,,,,,,,,,,P008,fencog,2,Pre,2021_Aug_06_1140,Go No-Go Task,2021.1.4,120.02093136270075,
,"Rule: When you see a yellow image, do not press 'spacebar'.",Images/Fearful/AF07_FO.jpg,Fear,Yellow,Images/Yellow.jpg,None,ParentConditions/YellowYellowBlue_v2.xlsx,YellowYellowBlue,Conditions/Version_2/YellowFearStop.xlsx,yes,PASS,0.5689879324899989,,,,,,,,,0,0,0,1,0,0,0,0,0,27,27,27,,,,,,,,,,,,,,,,,,,,,,,,,,,,,,,,,,,,,,,,,,,,,,,,,,,,,,,,,,,,,,,,,,,,,,,,,,,,,,,1.56,465.9265306000598,None,space,0,467.5911475997418,None,467.5911475997418,None,467.5911475997418,None,0.2719240002334118,,,,,,,,,,,P008,fencog,2,Pre,2021_Aug_06_1140,Go No-Go Task,2021.1.4,120.02093136270075,
,"Rule: When you see a yellow image, do not press 'spacebar'.",Images/Happy/BF18_HO.jpg,Happy,Blue,Images/Blue.jpg,space,ParentConditions/YellowYellowBlue_v2.xlsx,YellowYellowBlue,Conditions/Version_2/YellowFearStop.xlsx,no,PASS,0.2528908254284902,,,,,,,,,0,0,0,1,0,0,0,0,0,28,28,28,,,,,,,,,,,,,,,,,,,,,,,,,,,,,,,,,,,,,,,,,,,,,,,,,,,,,,,,,,,,,,,,,,,,,,,,,,,,,,,1.34,468.00096410000697,None,space,1,469.4404516997747,None,469.4404516997747,None,469.4404516997747,None,0.2709708004258573,,,,,,,,,,,P008,fencog,2,Pre,2021_Aug_06_1140,Go No-Go Task,2021.1.4,120.02093136270075,
,"Rule: When you see a yellow image, do not press 'spacebar'.",Images/Happy/AM03HAS.jpg,Happy,Blue,Images/Blue.jpg,space,ParentConditions/YellowYellowBlue_v2.xlsx,YellowYellowBlue,Conditions/Version_2/YellowFearStop.xlsx,no,PASS,0.6129705520501836,,,,,,,,,0,0,0,1,0,0,0,0,0,29,29,29,,,,,,,,,,,,,,,,,,,,,,,,,,,,,,,,,,,,,,,,,,,,,,,,,,,,,,,,,,,,,,,,,,,,,,,,,,,,,,,1.22,469.84087429987267,None,space,1,471.16494089970365,None,471.16494089970365,None,471.16494089970365,None,0.28261630004271865,,,,,,,,,,,P008,fencog,2,Pre,2021_Aug_06_1140,Go No-Go Task,2021.1.4,120.02093136270075,
,"Rule: When you see a yellow image, do not press 'spacebar'.",Images/Happy/BF10_HO.jpg,Happy,Blue,Images/Blue.jpg,space,ParentConditions/YellowYellowBlue_v2.xlsx,YellowYellowBlue,Conditions/Version_2/YellowFearStop.xlsx,no,PASS,0.6633214650414543,,,,,,,,,0,0,0,1,0,0,0,0,0,30,30,30,,,,,,,,,,,,,,,,,,,,,,,,,,,,,,,,,,,,,,,,,,,,,,,,,,,,,,,,,,,,,,,,,,,,,,,,,,,,,,,1.25,471.5705443001352,None,space,1,472.922801699955,None,472.922801699955,None,472.922801699955,None,0.29296280024573207,,,,,,,,,,,P008,fencog,2,Pre,2021_Aug_06_1140,Go No-Go Task,2021.1.4,120.02093136270075,
,"Rule: When you see a yellow image, do not press 'spacebar'.",Images/Happy/BF07_HO.jpg,Happy,Blue,Images/Blue.jpg,space,ParentConditions/YellowYellowBlue_v2.xlsx,YellowYellowBlue,Conditions/Version_2/YellowFearStop.xlsx,no,PASS,0.38343441764823294,,,,,,,,,0,0,0,1,0,0,0,0,0,31,31,31,,,,,,,,,,,,,,,,,,,,,,,,,,,,,,,,,,,,,,,,,,,,,,,,,,,,,,,,,,,,,,,,,,,,,,,,,,,,,,,1.26,473.3232331997715,None,space,1,474.6888496996835,None,474.6888496996835,None,474.6888496996835,None,0.27825829992070794,,,,,,,,,,,P008,fencog,2,Pre,2021_Aug_06_1140,Go No-Go Task,2021.1.4,120.02093136270075,
,"Rule: When you see a yellow image, do not press 'spacebar'.",Images/Fearful/BF07_FO.jpg,Fear,Yellow,Images/Yellow.jpg,None,ParentConditions/YellowYellowBlue_v2.xlsx,YellowYellowBlue,Conditions/Version_2/YellowFearStop.xlsx,yes,PASS,0.00831620462665883,,,,,,,,,0,0,0,1,0,0,0,0,0,32,32,32,,,,,,,,,,,,,,,,,,,,,,,,,,,,,,,,,,,,,,,,,,,,,,,,,,,,,,,,,,,,,,,,,,,,,,,,,,,,,,,1.44,475.09438159968704,None,None,1,476.63847590005025,None,476.63847590005025,None,476.63847590005025,None,,,,,,,,,,,,P008,fencog,2,Pre,2021_Aug_06_1140,Go No-Go Task,2021.1.4,120.02093136270075,
,"Rule: When you see a yellow image, do not press 'spacebar'.",Images/Happy/WF04_HC.jpg,Happy,Blue,Images/Blue.jpg,space,ParentConditions/YellowYellowBlue_v2.xlsx,YellowYellowBlue,Conditions/Version_2/YellowFearStop.xlsx,no,PASS,0.6777495076385776,,,,,,,,,0,0,0,1,0,0,0,0,0,33,33,33,,,,,,,,,,,,,,,,,,,,,,,,,,,,,,,,,,,,,,,,,,,,,,,,,,,,,,,,,,,,,,,,,,,,,,,,,,,,,,,1.9,477.0396898998879,None,space,1,479.0376116000116,None,479.0376116000116,None,479.0376116000116,None,0.2496314002200961,,,,,,,,,,,P008,fencog,2,Pre,2021_Aug_06_1140,Go No-Go Task,2021.1.4,120.02093136270075,
,"Rule: When you see a yellow image, do not press 'spacebar'.",Images/Happy/AM23HAS.jpg,Happy,Blue,Images/Blue.jpg,space,ParentConditions/YellowYellowBlue_v2.xlsx,YellowYellowBlue,Conditions/Version_2/YellowFearStop.xlsx,no,PASS,0.04303712392230152,,,,,,,,,0,0,0,1,0,0,0,0,0,34,34,34,,,,,,,,,,,,,,,,,,,,,,,,,,,,,,,,,,,,,,,,,,,,,,,,,,,,,,,,,,,,,,,,,,,,,,,,,,,,,,,1.24,479.43826190009713,None,space,1,480.7787893000059,None,480.7787893000059,None,480.7787893000059,None,0.3325498001649976,,,,,,,,,,,P008,fencog,2,Pre,2021_Aug_06_1140,Go No-Go Task,2021.1.4,120.02093136270075,
,"Rule: When you see a yellow image, do not press 'spacebar'.",Images/Happy/AM09HAS.jpg,Happy,Blue,Images/Blue.jpg,space,ParentConditions/YellowYellowBlue_v2.xlsx,YellowYellowBlue,Conditions/Version_2/YellowFearStop.xlsx,no,PASS,0.09574836161041034,,,,,,,,,0,0,0,1,0,0,0,0,0,35,35,35,,,,,,,,,,,,,,,,,,,,,,,,,,,,,,,,,,,,,,,,,,,,,,,,,,,,,,,,,,,,,,,,,,,,,,,,,,,,,,,1.33,481.17925049969926,None,space,1,482.6114583997987,None,482.6114583997987,None,482.6114583997987,None,0.26777430018410087,,,,,,,,,,,P008,fencog,2,Pre,2021_Aug_06_1140,Go No-Go Task,2021.1.4,120.02093136270075,
,"Rule: When you see a yellow image, do not press 'spacebar'.",Images/Happy/AM10HAS.jpg,Happy,Blue,Images/Blue.jpg,space,ParentConditions/YellowYellowBlue_v2.xlsx,YellowYellowBlue,Conditions/Version_2/YellowFearStop.xlsx,no,PASS,0.1630912911655703,,,,,,,,,0,0,0,1,0,0,0,0,0,36,36,36,,,,,,,,,,,,,,,,,,,,,,,,,,,,,,,,,,,,,,,,,,,,,,,,,,,,,,,,,,,,,,,,,,,,,,,,,,,,,,,1.51,483.01218510000035,None,space,1,484.6277179000899,None,484.6277179000899,None,484.6277179000899,None,0.25949149997904897,,,,,,,,,,,P008,fencog,2,Pre,2021_Aug_06_1140,Go No-Go Task,2021.1.4,120.02093136270075,
,"Rule: When you see a yellow image, do not press 'spacebar'.",Images/Happy/AF07HAS.jpg,Happy,Blue,Images/Blue.jpg,space,ParentConditions/YellowYellowBlue_v2.xlsx,YellowYellowBlue,Conditions/Version_2/YellowFearStop.xlsx,no,PASS,0.34867471869559996,,,,,,,,,0,0,0,1,0,0,0,0,0,37,37,37,,,,,,,,,,,,,,,,,,,,,,,,,,,,,,,,,,,,,,,,,,,,,,,,,,,,,,,,,,,,,,,,,,,,,,,,,,,,,,,1.46,485.02702490007505,None,space,1,486.5937256999314,None,486.5937256999314,None,486.5937256999314,None,0.269246400333941,,,,,,,,,,,P008,fencog,2,Pre,2021_Aug_06_1140,Go No-Go Task,2021.1.4,120.02093136270075,
,"Rule: When you see a yellow image, do not press 'spacebar'.",Images/Happy/AM03_HO.jpg,Happy,Blue,Images/Blue.jpg,space,ParentConditions/YellowYellowBlue_v2.xlsx,YellowYellowBlue,Conditions/Version_2/YellowFearStop.xlsx,no,PASS,0.8852047943617631,,,,,,,,,0,0,0,1,0,0,0,0,0,38,38,38,,,,,,,,,,,,,,,,,,,,,,,,,,,,,,,,,,,,,,,,,,,,,,,,,,,,,,,,,,,,,,,,,,,,,,,,,,,,,,,1.23,487.002430499997,None,space,1,488.33494229987264,None,488.33494229987264,None,488.33494229987264,None,0.27294669998809695,,,,,,,,,,,P008,fencog,2,Pre,2021_Aug_06_1140,Go No-Go Task,2021.1.4,120.02093136270075,
,"Rule: When you see a yellow image, do not press 'spacebar'.",Images/Happy/AM05HAS.jpg,Happy,Blue,Images/Blue.jpg,space,ParentConditions/YellowYellowBlue_v2.xlsx,YellowYellowBlue,Conditions/Version_2/YellowFearStop.xlsx,no,PASS,0.25496798119470154,,,,,,,,,0,0,0,1,0,0,0,0,0,39,39,39,,,,,,,,,,,,,,,,,,,,,,,,,,,,,,,,,,,,,,,,,,,,,,,,,,,,,,,,,,,,,,,,,,,,,,,,,,,,,,,1.84,488.7353293998167,None,space,1,490.67589680012316,None,490.67589680012316,None,490.67589680012316,None,0.1958265001885593,,,,,,,,,,,P008,fencog,2,Pre,2021_Aug_06_1140,Go No-Go Task,2021.1.4,120.02093136270075,
,"Rule: When you see a yellow image, do not press 'spacebar'.",Images/Happy/AF02HAS.jpg,Happy,Blue,Images/Blue.jpg,space,ParentConditions/YellowYellowBlue_v2.xlsx,YellowYellowBlue,Conditions/Version_2/YellowFearStop.xlsx,no,PASS,0.4518610007497229,,,,,,,,,0,0,0,1,0,0,0,0,0,40,40,40,,,,,,,,,,,,,,,,,,,,,,,,,,,,,,,,,,,,,,,,,,,,,,,,,,,,,,,,,,,,,,,,,,,,,,,,,,,,,,,1.71,491.0810752999969,None,space,1,492.89183459989727,None,492.89183459989727,None,492.89183459989727,None,0.30332199996337295,,,,,,,,,,,P008,fencog,2,Pre,2021_Aug_06_1140,Go No-Go Task,2021.1.4,120.02093136270075,
,"Rule: When you see a yellow image, do not press 'spacebar'.",Images/Happy/BM08_HO.jpg,Happy,Blue,Images/Blue.jpg,space,ParentConditions/YellowYellowBlue_v2.xlsx,YellowYellowBlue,Conditions/Version_2/YellowFearStop.xlsx,no,PASS,0.6109180265070229,,,,,,,,,0,0,0,1,0,0,0,0,0,41,41,41,,,,,,,,,,,,,,,,,,,,,,,,,,,,,,,,,,,,,,,,,,,,,,,,,,,,,,,,,,,,,,,,,,,,,,,,,,,,,,,1.38,493.29399729985744,None,space,1,494.7662295997143,None,494.7662295997143,None,494.7662295997143,None,0.2730408003553748,,,,,,,,,,,P008,fencog,2,Pre,2021_Aug_06_1140,Go No-Go Task,2021.1.4,120.02093136270075,
,"Rule: When you see a yellow image, do not press 'spacebar'.",Images/Happy/AM22HAS.jpg,Happy,Blue,Images/Blue.jpg,space,ParentConditions/YellowYellowBlue_v2.xlsx,YellowYellowBlue,Conditions/Version_2/YellowFearStop.xlsx,no,PASS,0.358808559720486,,,,,,,,,0,0,0,1,0,0,0,0,0,42,42,42,,,,,,,,,,,,,,,,,,,,,,,,,,,,,,,,,,,,,,,,,,,,,,,,,,,,,,,,,,,,,,,,,,,,,,,,,,,,,,,1.65,495.1689464999363,None,space,1,496.92397570004687,None,496.92397570004687,None,496.92397570004687,None,0.21211509965360165,,,,,,,,,,,P008,fencog,2,Pre,2021_Aug_06_1140,Go No-Go Task,2021.1.4,120.02093136270075,
,"Rule: When you see a yellow image, do not press 'spacebar'.",Images/Happy/AM30HAS.jpg,Happy,Blue,Images/Blue.jpg,space,ParentConditions/YellowYellowBlue_v2.xlsx,YellowYellowBlue,Conditions/Version_2/YellowFearStop.xlsx,no,PASS,0.02897569025915847,,,,,,,,,0,0,0,1,0,0,0,0,0,43,43,43,,,,,,,,,,,,,,,,,,,,,,,,,,,,,,,,,,,,,,,,,,,,,,,,,,,,,,,,,,,,,,,,,,,,,,,,,,,,,,,1.48,497.3255350999534,None,space,1,498.89843059983104,None,498.89843059983104,None,498.89843059983104,None,0.22848639963194728,,,,,,,,,,,P008,fencog,2,Pre,2021_Aug_06_1140,Go No-Go Task,2021.1.4,120.02093136270075,
,"Rule: When you see a yellow image, do not press 'spacebar'.",Images/Fearful/BF09_FC.jpg,Fear,Yellow,Images/Yellow.jpg,None,ParentConditions/YellowYellowBlue_v2.xlsx,YellowYellowBlue,Conditions/Version_2/YellowFearStop.xlsx,yes,PASS,0.33656912313274023,,,,,,,,,0,0,0,1,0,0,0,0,0,44,44,44,,,,,,,,,,,,,,,,,,,,,,,,,,,,,,,,,,,,,,,,,,,,,,,,,,,,,,,,,,,,,,,,,,,,,,,,,,,,,,,1.86,499.30060479976237,None,None,1,501.2643403997645,None,501.2643403997645,None,501.2643403997645,None,,,,,,,,,,,,P008,fencog,2,Pre,2021_Aug_06_1140,Go No-Go Task,2021.1.4,120.02093136270075,
,"Rule: When you see a yellow image, do not press 'spacebar'.",Images/Happy/WM12_HE.jpg,Happy,Blue,Images/Blue.jpg,space,ParentConditions/YellowYellowBlue_v2.xlsx,YellowYellowBlue,Conditions/Version_2/YellowFearStop.xlsx,no,PASS,0.7601850991054155,,,,,,,,,0,0,0,1,0,0,0,0,0,45,45,45,,,,,,,,,,,,,,,,,,,,,,,,,,,,,,,,,,,,,,,,,,,,,,,,,,,,,,,,,,,,,,,,,,,,,,,,,,,,,,,1.98,501.66498079989105,None,space,1,503.7469454999082,None,503.7469454999082,None,503.7469454999082,None,0.3646100000478327,,,,,,,,,,,P008,fencog,2,Pre,2021_Aug_06_1140,Go No-Go Task,2021.1.4,120.02093136270075,
,"Rule: When you see a yellow image, do not press 'spacebar'.",Images/Happy/HF10_HE.jpg,Happy,Blue,Images/Blue.jpg,space,ParentConditions/YellowYellowBlue_v2.xlsx,YellowYellowBlue,Conditions/Version_2/YellowFearStop.xlsx,no,PASS,0.6650727272929988,,,,,,,,,0,0,0,1,0,0,0,0,0,46,46,46,,,,,,,,,,,,,,,,,,,,,,,,,,,,,,,,,,,,,,,,,,,,,,,,,,,,,,,,,,,,,,,,,,,,,,,,,,,,,,,1.69,504.1545119998045,None,space,1,505.9547665999271,None,505.9547665999271,None,505.9547665999271,None,0.37262010015547276,,,,,,,,,,,P008,fencog,2,Pre,2021_Aug_06_1140,Go No-Go Task,2021.1.4,120.02093136270075,
,"Rule: When you see a yellow image, do not press 'spacebar'.",Images/Happy/HM09_HO.jpg,Happy,Blue,Images/Blue.jpg,space,ParentConditions/YellowYellowBlue_v2.xlsx,YellowYellowBlue,Conditions/Version_2/YellowFearStop.xlsx,no,PASS,0.7196619298468737,,,,,,,,,0,0,0,1,0,0,0,0,0,47,47,47,,,,,,,,,,,,,,,,,,,,,,,,,,,,,,,,,,,,,,,,,,,,,,,,,,,,,,,,,,,,,,,,,,,,,,,,,,,,,,,1.49,506.3598138997331,None,space,1,507.954109699931,None,507.954109699931,None,507.954109699931,None,0.3328627999871969,,,,,,,,,,,P008,fencog,2,Pre,2021_Aug_06_1140,Go No-Go Task,2021.1.4,120.02093136270075,
,"Rule: When you see a yellow image, do not press 'spacebar'.",Images/Fearful/AM03_FC.jpg,Fear,Yellow,Images/Yellow.jpg,None,ParentConditions/YellowYellowBlue_v2.xlsx,YellowYellowBlue,Conditions/Version_2/YellowFearStop.xlsx,yes,PASS,0.9021154613913315,,,,,,,,,0,0,0,1,0,0,0,0,0,48,48,48,,,,,,,,,,,,,,,,,,,,,,,,,,,,,,,,,,,,,,,,,,,,,,,,,,,,,,,,,,,,,,,,,,,,,,,,,,,,,,,1.2,508.35515969991684,None,space,0,509.661572500132,None,509.661572500132,None,509.661572500132,None,0.36150679970160127,,,,,,,,,,,P008,fencog,2,Pre,2021_Aug_06_1140,Go No-Go Task,2021.1.4,120.02093136270075,
,"Rule: When you see a yellow image, do not press 'spacebar'.",Images/Happy/HF04_HE.jpg,Happy,Blue,Images/Blue.jpg,space,ParentConditions/YellowYellowBlue_v2.xlsx,YellowYellowBlue,Conditions/Version_2/YellowFearStop.xlsx,no,PASS,0.6828282636628492,,,,,,,,,0,0,0,1,0,0,0,0,0,49,49,49,,,,,,,,,,,,,,,,,,,,,,,,,,,,,,,,,,,,,,,,,,,,,,,,,,,,,,,,,,,,,,,,,,,,,,,,,,,,,,,1.58,510.0640250998549,None,space,1,511.74461179971695,None,511.74461179971695,None,511.74461179971695,None,0.28696920024231076,,,,,,,,,,,P008,fencog,2,Pre,2021_Aug_06_1140,Go No-Go Task,2021.1.4,120.02093136270075,
,"Rule: When you see a yellow image, do not press 'spacebar'.",Images/Happy/AM17HAS.jpg,Happy,Blue,Images/Blue.jpg,space,ParentConditions/YellowYellowBlue_v2.xlsx,YellowYellowBlue,Conditions/Version_2/YellowFearStop.xlsx,no,PASS,0.7726840133197573,,,,,,,,,0,0,0,1,0,0,0,0,0,50,50,50,,,,,,,,,,,,,,,,,,,,,,,,,,,,,,,,,,,,,,,,,,,,,,,,,,,,,,,,,,,,,,,,,,,,,,,,,,,,,,,1.95,512.1438784999773,None,None,0,514.1938339998014,None,514.1938339998014,None,514.1938339998014,None,,,,,,,,,,,,P008,fencog,2,Pre,2021_Aug_06_1140,Go No-Go Task,2021.1.4,120.02093136270075,
,"Rule: When you see a yellow image, do not press 'spacebar'.",Images/Fearful/BM01_FO.jpg,Fear,Yellow,Images/Yellow.jpg,None,ParentConditions/YellowYellowBlue_v2.xlsx,YellowYellowBlue,Conditions/Version_2/YellowFearStop.xlsx,yes,PASS,0.029850228609631824,,,,,,,,,0,0,0,1,0,0,0,0,0,51,51,51,,,,,,,,,,,,,,,,,,,,,,,,,,,,,,,,,,,,,,,,,,,,,,,,,,,,,,,,,,,,,,,,,,,,,,,,,,,,,,,1.96,514.6001996998675,None,space,0,516.6682710000314,None,516.6682710000314,None,516.6682710000314,None,0.307007999625057,,,,,,,,,,,P008,fencog,2,Pre,2021_Aug_06_1140,Go No-Go Task,2021.1.4,120.02093136270075,
,"Rule: When you see a yellow image, do not press 'spacebar'.",Images/Happy/HF09_HE.jpg,Happy,Blue,Images/Blue.jpg,space,ParentConditions/YellowYellowBlue_v2.xlsx,YellowYellowBlue,Conditions/Version_2/YellowFearStop.xlsx,no,PASS,0.5416297044271999,,,,,,,,,0,0,0,1,0,0,0,0,0,52,52,52,,,,,,,,,,,,,,,,,,,,,,,,,,,,,,,,,,,,,,,,,,,,,,,,,,,,,,,,,,,,,,,,,,,,,,,,,,,,,,,1.35,517.0677470997907,None,None,0,518.5175828998908,None,518.5175828998908,None,518.5175828998908,None,,,,,,,,,,,,P008,fencog,2,Pre,2021_Aug_06_1140,Go No-Go Task,2021.1.4,120.02093136270075,
,"Rule: When you see a yellow image, do not press 'spacebar'.",Images/Happy/WF11_HE.jpg,Happy,Blue,Images/Blue.jpg,space,ParentConditions/YellowYellowBlue_v2.xlsx,YellowYellowBlue,Conditions/Version_2/YellowFearStop.xlsx,no,PASS,0.3923399468002319,,,,,,,,,0,0,0,1,0,0,0,0,0,53,53,53,,,,,,,,,,,,,,,,,,,,,,,,,,,,,,,,,,,,,,,,,,,,,,,,,,,,,,,,,,,,,,,,,,,,,,,,,,,,,,,1.21,518.9202430997975,None,space,1,520.2337648998946,None,520.2337648998946,None,520.2337648998946,None,0.3892002999782562,,,,,,,,,,,P008,fencog,2,Pre,2021_Aug_06_1140,Go No-Go Task,2021.1.4,120.02093136270075,
,"Rule: When you see a yellow image, do not press 'spacebar'.",Images/Fearful/AM04AFS.jpg,Fear,Yellow,Images/Yellow.jpg,None,ParentConditions/YellowYellowBlue_v2.xlsx,YellowYellowBlue,Conditions/Version_2/YellowFearStop.xlsx,yes,PASS,0.7106263735051498,,,,,,,,,0,0,0,1,0,0,0,0,0,54,54,54,,,,,,,,,,,,,,,,,,,,,,,,,,,,,,,,,,,,,,,,,,,,,,,,,,,,,,,,,,,,,,,,,,,,,,,,,,,,,,,1.53,520.635350999888,None,space,0,522.2665077000856,None,522.2665077000856,None,522.2665077000856,None,0.18806830001994967,,,,,,,,,,,P008,fencog,2,Pre,2021_Aug_06_1140,Go No-Go Task,2021.1.4,120.02093136270075,
,"Rule: When you see a yellow image, do not press 'spacebar'.",Images/Happy/AF19HAS.jpg,Happy,Blue,Images/Blue.jpg,space,ParentConditions/YellowYellowBlue_v2.xlsx,YellowYellowBlue,Conditions/Version_2/YellowFearStop.xlsx,no,PASS,0.3419128984214137,,,,,,,,,0,0,0,1,0,0,0,0,0,55,55,55,,,,,,,,,,,,,,,,,,,,,,,,,,,,,,,,,,,,,,,,,,,,,,,,,,,,,,,,,,,,,,,,,,,,,,,,,,,,,,,1.74,522.6754195997491,None,space,1,524.5159644000232,None,524.5159644000232,None,524.5159644000232,None,0.37168730003759265,,,,,,,,,,,P008,fencog,2,Pre,2021_Aug_06_1140,Go No-Go Task,2021.1.4,120.02093136270075,
,"Rule: When you see a yellow image, do not press 'spacebar'.",Images/Happy/HM06_HO.jpg,Happy,Blue,Images/Blue.jpg,space,ParentConditions/YellowYellowBlue_v2.xlsx,YellowYellowBlue,Conditions/Version_2/YellowFearStop.xlsx,no,PASS,0.8215154078276994,,,,,,,,,0,0,0,1,0,0,0,0,0,56,56,56,,,,,,,,,,,,,,,,,,,,,,,,,,,,,,,,,,,,,,,,,,,,,,,,,,,,,,,,,,,,,,,,,,,,,,,,,,,,,,,1.82,524.9228090997785,None,space,1,526.8484622999094,None,526.8484622999094,None,526.8484622999094,None,0.3187881000339985,,,,,,,,,,,P008,fencog,2,Pre,2021_Aug_06_1140,Go No-Go Task,2021.1.4,120.02093136270075,
,"Rule: When you see a yellow image, do not press 'spacebar'.",Images/Happy/HF05_HO.jpg,Happy,Blue,Images/Blue.jpg,space,ParentConditions/YellowYellowBlue_v2.xlsx,YellowYellowBlue,Conditions/Version_2/YellowFearStop.xlsx,no,PASS,0.4418945189155604,,,,,,,,,0,0,0,1,0,0,0,0,0,57,57,57,,,,,,,,,,,,,,,,,,,,,,,,,,,,,,,,,,,,,,,,,,,,,,,,,,,,,,,,,,,,,,,,,,,,,,,,,,,,,,,1.66,527.2531340001151,None,None,0,529.0145151996985,None,529.0145151996985,None,529.0145151996985,None,,,,,,,,,,,,P008,fencog,2,Pre,2021_Aug_06_1140,Go No-Go Task,2021.1.4,120.02093136270075,
,"Rule: When you see a yellow image, do not press 'spacebar'.",Images/Fearful/AF01_FO.jpg,Fear,Yellow,Images/Yellow.jpg,None,ParentConditions/YellowYellowBlue_v2.xlsx,YellowYellowBlue,Conditions/Version_2/YellowFearStop.xlsx,yes,PASS,0.9630260753042453,,,,,,,,,0,0,0,1,0,0,0,0,0,58,58,58,,,,,,,,,,,,,,,,,,,,,,,,,,,,,,,,,,,,,,,,,,,,,,,,,,,,,,,,,,,,,,,,,,,,,,,,,,,,,,,1.55,529.4241093997844,None,space,0,531.0805390998721,None,531.0805390998721,None,531.0805390998721,None,0.29457189980894327,,,,,,,,,,,P008,fencog,2,Pre,2021_Aug_06_1140,Go No-Go Task,2021.1.4,120.02093136270075,
,"Rule: When you see a yellow image, do not press 'spacebar'.",Images/Happy/AF21HAS.jpg,Happy,Blue,Images/Blue.jpg,space,ParentConditions/YellowYellowBlue_v2.xlsx,YellowYellowBlue,Conditions/Version_2/YellowFearStop.xlsx,no,PASS,0.5410977161582079,,,,,,,,,0,0,0,1,0,0,0,0,0,59,59,59,,,,,,,,,,,,,,,,,,,,,,,,,,,,,,,,,,,,,,,,,,,,,,,,,,,,,,,,,,,,,,,,,,,,,,,,,,,,,,,1.41,531.4812360000797,None,None,0,532.9966913997196,None,532.9966913997196,None,532.9966913997196,None,,,,,,,,,,,,P008,fencog,2,Pre,2021_Aug_06_1140,Go No-Go Task,2021.1.4,120.02093136270075,
,"Rule: When you see a yellow image, do not press 'spacebar'.",Images/Happy/AM06_HC.jpg,Happy,Blue,Images/Blue.jpg,space,ParentConditions/YellowYellowBlue_v2.xlsx,YellowYellowBlue,Conditions/Version_2/YellowFearStop.xlsx,no,PASS,0.8195458073624309,,,,,,,,,0,0,0,1,0,0,0,0,0,60,60,60,,,,,,,,,,,,,,,,,,,,,,,,,,,,,,,,,,,,,,,,,,,,,,,,,,,,,,,,,,,,,,,,,,,,,,,,,,,,,,,1.88,533.3971655997448,None,space,1,535.3792634997517,None,535.3792634997517,None,535.3792634997517,None,0.3800376998260617,,,,,,,,,,,P008,fencog,2,Pre,2021_Aug_06_1140,Go No-Go Task,2021.1.4,120.02093136270075,
,"Rule: When you see a yellow image, do not press 'spacebar'.",Images/Fearful/AF02AFS.jpg,Fear,Yellow,Images/Yellow.jpg,None,ParentConditions/YellowYellowBlue_v2.xlsx,YellowYellowBlue,Conditions/Version_2/YellowFearStop.xlsx,yes,PASS,0.43475605439224807,,,,,,,,,0,0,0,1,0,0,0,0,0,61,61,61,,,,,,,,,,,,,,,,,,,,,,,,,,,,,,,,,,,,,,,,,,,,,,,,,,,,,,,,,,,,,,,,,,,,,,,,,,,,,,,1.81,535.778336700052,None,None,1,537.6953758001328,None,537.6953758001328,None,537.6953758001328,None,,,,,,,,,,,,P008,fencog,2,Pre,2021_Aug_06_1140,Go No-Go Task,2021.1.4,120.02093136270075,
,"Rule: When you see a yellow image, do not press 'spacebar'.",Images/Happy/AF25HAS.jpg,Happy,Blue,Images/Blue.jpg,space,ParentConditions/YellowYellowBlue_v2.xlsx,YellowYellowBlue,Conditions/Version_2/YellowFearStop.xlsx,no,PASS,0.35344562160834636,,,,,,,,,0,0,0,1,0,0,0,0,0,62,62,62,,,,,,,,,,,,,,,,,,,,,,,,,,,,,,,,,,,,,,,,,,,,,,,,,,,,,,,,,,,,,,,,,,,,,,,,,,,,,,,1.5,538.095332799945,None,None,0,539.7030295999721,None,539.7030295999721,None,539.7030295999721,None,,,,,,,,,,,,P008,fencog,2,Pre,2021_Aug_06_1140,Go No-Go Task,2021.1.4,120.02093136270075,
,"Rule: When you see a yellow image, do not press 'spacebar'.",Images/Happy/AM32HAS.jpg,Happy,Blue,Images/Blue.jpg,space,ParentConditions/YellowYellowBlue_v2.xlsx,YellowYellowBlue,Conditions/Version_2/YellowFearStop.xlsx,no,PASS,0.10846156836896592,,,,,,,,,0,0,0,1,0,0,0,0,0,63,63,63,,,,,,,,,,,,,,,,,,,,,,,,,,,,,,,,,,,,,,,,,,,,,,,,,,,,,,,,,,,,,,,,,,,,,,,,,,,,,,,1.42,540.1029027998447,None,None,0,541.6274302997626,None,541.6274302997626,None,541.6274302997626,None,,,,,,,,,,,,P008,fencog,2,Pre,2021_Aug_06_1140,Go No-Go Task,2021.1.4,120.02093136270075,
,"Rule: When you see a yellow image, do not press 'spacebar'.",Images/Fearful/AM02_FO.jpg,Fear,Yellow,Images/Yellow.jpg,None,ParentConditions/YellowYellowBlue_v2.xlsx,YellowYellowBlue,Conditions/Version_2/YellowFearStop.xlsx,yes,PASS,0.093492050295921,,,,,,,,,0,0,0,1,0,0,0,0,0,64,64,64,,,,,,,,,,,,,,,,,,,,,,,,,,,,,,,,,,,,,,,,,,,,,,,,,,,,,,,,,,,,,,,,,,,,,,,,,,,,,,,1.39,542.0313967000693,None,None,1,543.5269034998491,None,543.5269034998491,None,543.5269034998491,None,,,,,,,,,,,,P008,fencog,2,Pre,2021_Aug_06_1140,Go No-Go Task,2021.1.4,120.02093136270075,
,"Rule: When you see a yellow image, do not press 'spacebar'.",Images/Fearful/BM02_FC.jpg,Fear,Yellow,Images/Yellow.jpg,None,ParentConditions/YellowYellowBlue_v2.xlsx,YellowYellowBlue,Conditions/Version_2/YellowFearStop.xlsx,yes,PASS,0.8390777988560751,,,,,,,,,0,0,0,1,0,0,0,0,0,65,65,65,,,,,,,,,,,,,,,,,,,,,,,,,,,,,,,,,,,,,,,,,,,,,,,,,,,,,,,,,,,,,,,,,,,,,,,,,,,,,,,1.79,543.932764200028,None,None,1,545.8261966998689,None,545.8261966998689,None,545.8261966998689,None,,,,,,,,,,,,P008,fencog,2,Pre,2021_Aug_06_1140,Go No-Go Task,2021.1.4,120.02093136270075,
,"Rule: When you see a yellow image, do not press 'spacebar'.",Images/Happy/AM04_HE.jpg,Happy,Blue,Images/Blue.jpg,space,ParentConditions/YellowYellowBlue_v2.xlsx,YellowYellowBlue,Conditions/Version_2/YellowFearStop.xlsx,no,PASS,0.268677407796428,,,,,,,,,0,0,0,1,0,0,0,0,0,66,66,66,,,,,,,,,,,,,,,,,,,,,,,,,,,,,,,,,,,,,,,,,,,,,,,,,,,,,,,,,,,,,,,,,,,,,,,,,,,,,,,1.85,546.2272699996829,None,space,1,548.1755327000283,None,548.1755327000283,None,548.1755327000283,None,0.30373020004481077,,,,,,,,,,,P008,fencog,2,Pre,2021_Aug_06_1140,Go No-Go Task,2021.1.4,120.02093136270075,
,"Rule: When you see a yellow image, do not press 'spacebar'.",Images/Fearful/AM05AFS.jpg,Fear,Yellow,Images/Yellow.jpg,None,ParentConditions/YellowYellowBlue_v2.xlsx,YellowYellowBlue,Conditions/Version_2/YellowFearStop.xlsx,yes,PASS,0.6951263252071049,,,,,,,,,0,0,0,1,0,0,0,0,0,67,67,67,,,,,,,,,,,,,,,,,,,,,,,,,,,,,,,,,,,,,,,,,,,,,,,,,,,,,,,,,,,,,,,,,,,,,,,,,,,,,,,1.4,548.5760975000449,None,None,1,550.0833584000356,None,550.0833584000356,None,550.0833584000356,None,,,,,,,,,,,,P008,fencog,2,Pre,2021_Aug_06_1140,Go No-Go Task,2021.1.4,120.02093136270075,
,"Rule: When you see a yellow image, do not press 'spacebar'.",Images/Happy/AF28HAS.jpg,Happy,Blue,Images/Blue.jpg,space,ParentConditions/YellowYellowBlue_v2.xlsx,YellowYellowBlue,Conditions/Version_2/YellowFearStop.xlsx,no,PASS,0.25032705960911217,,,,,,,,,0,0,0,1,0,0,0,0,0,68,68,68,,,,,,,,,,,,,,,,,,,,,,,,,,,,,,,,,,,,,,,,,,,,,,,,,,,,,,,,,,,,,,,,,,,,,,,,,,,,,,,1.31,550.4931608997285,None,space,1,551.9077118998393,None,551.9077118998393,None,551.9077118998393,None,0.28359399968758225,,,,,,,,,,,P008,fencog,2,Pre,2021_Aug_06_1140,Go No-Go Task,2021.1.4,120.02093136270075,
,"Rule: When you see a yellow image, do not press 'spacebar'.",Images/Happy/AF07_HO.jpg,Happy,Blue,Images/Blue.jpg,space,ParentConditions/YellowYellowBlue_v2.xlsx,YellowYellowBlue,Conditions/Version_2/YellowFearStop.xlsx,no,PASS,0.293841477080362,,,,,,,,,0,0,0,1,0,0,0,0,0,69,69,69,,,,,,,,,,,,,,,,,,,,,,,,,,,,,,,,,,,,,,,,,,,,,,,,,,,,,,,,,,,,,,,,,,,,,,,,,,,,,,,1.64,552.3130936999805,None,None,0,554.0571766998619,None,554.0571766998619,None,554.0571766998619,None,,,,,,,,,,,,P008,fencog,2,Pre,2021_Aug_06_1140,Go No-Go Task,2021.1.4,120.02093136270075,
,"Rule: When you see a yellow image, do not press 'spacebar'.",Images/Happy/BF14_HO.jpg,Happy,Blue,Images/Blue.jpg,space,ParentConditions/YellowYellowBlue_v2.xlsx,YellowYellowBlue,Conditions/Version_2/YellowFearStop.xlsx,no,PASS,0.40422519447396765,,,,,,,,,0,0,0,1,0,0,0,0,0,70,70,70,,,,,,,,,,,,,,,,,,,,,,,,,,,,,,,,,,,,,,,,,,,,,,,,,,,,,,,,,,,,,,,,,,,,,,,,,,,,,,,1.75,554.4565018001013,None,None,0,556.3148340000771,None,556.3148340000771,None,556.3148340000771,None,,,,,,,,,,,,P008,fencog,2,Pre,2021_Aug_06_1140,Go No-Go Task,2021.1.4,120.02093136270075,
,"Rule: When you see a yellow image, do not press 'spacebar'.",Images/Fearful/AF07FS.jpg,Fear,Yellow,Images/Yellow.jpg,None,ParentConditions/YellowYellowBlue_v2.xlsx,YellowYellowBlue,Conditions/Version_2/YellowFearStop.xlsx,yes,PASS,0.7059954464635801,,,,,,,,,0,0,0,1,0,0,0,0,0,71,71,71,,,,,,,,,,,,,,,,,,,,,,,,,,,,,,,,,,,,,,,,,,,,,,,,,,,,,,,,,,,,,,,,,,,,,,,,,,,,,,,1.28,556.7160510998219,None,None,1,558.1059153997339,None,558.1059153997339,None,558.1059153997339,None,,,,,,,,,,,,P008,fencog,2,Pre,2021_Aug_06_1140,Go No-Go Task,2021.1.4,120.02093136270075,
,"Rule: When you see a yellow image, do not press 'spacebar'.",Images/Happy/AF32HAS.jpg,Happy,Blue,Images/Blue.jpg,space,ParentConditions/YellowYellowBlue_v2.xlsx,YellowYellowBlue,Conditions/Version_2/YellowFearStop.xlsx,no,PASS,0.6505932127186488,,,,,,,,,0,0,0,1,0,0,0,0,0,72,72,72,,,,,,,,,,,,,,,,,,,,,,,,,,,,,,,,,,,,,,,,,,,,,,,,,,,,,,,,,,,,,,,,,,,,,,,,,,,,,,,1.61,558.5048213000409,None,space,1,560.221963299904,None,560.221963299904,None,560.221963299904,None,0.3053918997757137,,,,,,,,,,,P008,fencog,2,Pre,2021_Aug_06_1140,Go No-Go Task,2021.1.4,120.02093136270075,
,"Rule: When you see a yellow image, do not press 'spacebar'.",Images/Happy/AF11HAS.jpg,Happy,Blue,Images/Blue.jpg,space,ParentConditions/YellowYellowBlue_v2.xlsx,YellowYellowBlue,Conditions/Version_2/YellowFearStop.xlsx,no,PASS,0.22413936824153813,,,,,,,,,0,0,0,1,0,0,0,0,0,73,73,73,,,,,,,,,,,,,,,,,,,,,,,,,,,,,,,,,,,,,,,,,,,,,,,,,,,,,,,,,,,,,,,,,,,,,,,,,,,,,,,1.29,560.6204960998148,None,space,1,562.0213895998895,None,562.0213895998895,None,562.0213895998895,None,0.2659396999515593,,,,,,,,,,,P008,fencog,2,Pre,2021_Aug_06_1140,Go No-Go Task,2021.1.4,120.02093136270075,
,"Rule: When you see a yellow image, do not press 'spacebar'.",Images/Happy/AM19HAS.jpg,Happy,Blue,Images/Blue.jpg,space,ParentConditions/YellowYellowBlue_v2.xlsx,YellowYellowBlue,Conditions/Version_2/YellowFearStop.xlsx,no,PASS,0.5367328627339492,,,,,,,,,0,0,0,1,0,0,0,0,0,74,74,74,,,,,,,,,,,,,,,,,,,,,,,,,,,,,,,,,,,,,,,,,,,,,,,,,,,,,,,,,,,,,,,,,,,,,,,,,,,,,,,1.45,562.4273198000155,None,space,1,563.9791550999507,None,563.9791550999507,None,563.9791550999507,None,0.22860840009525418,,,,,,,,,,,P008,fencog,2,Pre,2021_Aug_06_1140,Go No-Go Task,2021.1.4,120.02093136270075,
,"Rule: When you see a yellow image, do not press 'spacebar'.",Images/Happy/AM01HAS.jpg,Happy,Blue,Images/Blue.jpg,space,ParentConditions/YellowYellowBlue_v2.xlsx,YellowYellowBlue,Conditions/Version_2/YellowFearStop.xlsx,no,PASS,0.4512238869721793,,,,,,,,,0,0,0,1,0,0,0,0,0,75,75,75,,,,,,,,,,,,,,,,,,,,,,,,,,,,,,,,,,,,,,,,,,,,,,,,,,,,,,,,,,,,,,,,,,,,,,,,,,,,,,,1.36,564.3834680998698,None,space,1,565.8452034997754,None,565.8452034997754,None,565.8452034997754,None,0.2819241997785866,,,,,,,,,,,P008,fencog,2,Pre,2021_Aug_06_1140,Go No-Go Task,2021.1.4,120.02093136270075,
,"Rule: When you see a yellow image, do not press 'spacebar'.",Images/Happy/WF05_HC.jpg,Happy,Blue,Images/Blue.jpg,space,ParentConditions/YellowYellowBlue_v2.xlsx,YellowYellowBlue,Conditions/Version_2/YellowFearStop.xlsx,no,PASS,0.7681499259335962,,,,,,,,,0,0,0,1,0,0,0,0,0,76,76,76,,,,,,,,,,,,,,,,,,,,,,,,,,,,,,,,,,,,,,,,,,,,,,,,,,,,,,,,,,,,,,,,,,,,,,,,,,,,,,,1.8,566.2513652998023,None,space,1,568.1529156998731,None,568.1529156998731,None,568.1529156998731,None,0.2552347998134792,,,,,,,,,,,P008,fencog,2,Pre,2021_Aug_06_1140,Go No-Go Task,2021.1.4,120.02093136270075,
,"Rule: When you see a yellow image, do not press 'spacebar'.",Images/Happy/BM03_HO.jpg,Happy,Blue,Images/Blue.jpg,space,ParentConditions/YellowYellowBlue_v2.xlsx,YellowYellowBlue,Conditions/Version_2/YellowFearStop.xlsx,no,PASS,0.5824047138137685,,,,,,,,,0,0,0,1,0,0,0,0,0,77,77,77,,,,,,,,,,,,,,,,,,,,,,,,,,,,,,,,,,,,,,,,,,,,,,,,,,,,,,,,,,,,,,,,,,,,,,,,,,,,,,,1.78,568.5520906997845,None,space,1,570.4355600997806,None,570.4355600997806,None,570.4355600997806,None,0.2515852996148169,,,,,,,,,,,P008,fencog,2,Pre,2021_Aug_06_1140,Go No-Go Task,2021.1.4,120.02093136270075,
,"Rule: When you see a yellow image, do not press 'spacebar'.",Images/Happy/AM02_HE.jpg,Happy,Blue,Images/Blue.jpg,space,ParentConditions/YellowYellowBlue_v2.xlsx,YellowYellowBlue,Conditions/Version_2/YellowFearStop.xlsx,no,PASS,0.8791068347561973,,,,,,,,,0,0,0,1,0,0,0,0,0,78,78,78,,,,,,,,,,,,,,,,,,,,,,,,,,,,,,,,,,,,,,,,,,,,,,,,,,,,,,,,,,,,,,,,,,,,,,,,,,,,,,,1.92,570.8406019001268,None,space,1,572.8598413998261,None,572.8598413998261,None,572.8598413998261,None,0.26026290003210306,,,,,,,,,,,P008,fencog,2,Pre,2021_Aug_06_1140,Go No-Go Task,2021.1.4,120.02093136270075,
,"Rule: When you see a yellow image, do not press 'spacebar'.",Images/Fearful/AM06_FO.jpg,Fear,Yellow,Images/Yellow.jpg,None,ParentConditions/YellowYellowBlue_v2.xlsx,YellowYellowBlue,Conditions/Version_2/YellowFearStop.xlsx,yes,PASS,0.40627235988994603,,,,,,,,,0,0,0,1,0,0,0,0,0,79,79,79,,,,,,,,,,,,,,,,,,,,,,,,,,,,,,,,,,,,,,,,,,,,,,,,,,,,,,,,,,,,,,,,,,,,,,,,,,,,,,,1.97,573.2594385999255,None,space,0,575.3341167997569,None,575.3341167997569,None,575.3341167997569,None,0.2738969000056386,,,,,,,,,,,P008,fencog,2,Pre,2021_Aug_06_1140,Go No-Go Task,2021.1.4,120.02093136270075,
,"Rule: When you see a yellow image, do not press 'spacebar'.",Images/Scram2/HM09_NC.jpg,Scramble,Blue,Images/Blue.jpg,space,ParentConditions/YellowYellowBlue_v2.xlsx,YellowYellowBlue,Conditions/Version_2/YellowScramStop.xlsx,no,PASS,0.46719820189093064,,,,,,,,,0,0,0,1,0,1,1,1,0,0,0,0,,,,,,,,,,,,,,,,,,,,,,,,,,,,,,,,,,,,,,,,,,,,,,,,,,,,,,,,,,,,,,,,,598.0799392000772,None,601.0760341999121,None,space,9.531272999942303,601.0760341999121,None,598.0799392000772,None,598.0799392000772,None,598.0799392000772,None,1.43,610.6545700998977,None,space,1,612.1898674997501,None,612.1898674997501,None,612.1898674997501,None,0.36155290016904473,575.7498932001181,None,space,21.82164549967274,576.2414218997583,None,575.7498932001181,None,575.7498932001181,None,P008,fencog,2,Pre,2021_Aug_06_1140,Go No-Go Task,2021.1.4,120.02093136270075,
,"Rule: When you see a yellow image, do not press 'spacebar'.",Images/Scram2/HM06_NC.jpg,Scramble,Blue,Images/Blue.jpg,space,ParentConditions/YellowYellowBlue_v2.xlsx,YellowYellowBlue,Conditions/Version_2/YellowScramStop.xlsx,no,PASS,0.564231421897386,,,,,,,,,0,0,0,1,0,1,1,1,0,1,1,1,,,,,,,,,,,,,,,,,,,,,,,,,,,,,,,,,,,,,,,,,,,,,,,,,,,,,,,,,,,,,,,,,,,,,,,,,,,,,,,2,612.5958130997606,None,space,1,614.6974692000076,None,614.6974692000076,None,614.6974692000076,None,0.23789039999246597,,,,,,,,,,,P008,fencog,2,Pre,2021_Aug_06_1140,Go No-Go Task,2021.1.4,120.02093136270075,
,"Rule: When you see a yellow image, do not press 'spacebar'.",Images/Scram1/AM31NES.jpg,Scramble,Blue,Images/Blue.jpg,space,ParentConditions/YellowYellowBlue_v2.xlsx,YellowYellowBlue,Conditions/Version_2/YellowScramStop.xlsx,no,PASS,0.846238330522312,,,,,,,,,0,0,0,1,0,1,1,1,0,2,2,2,,,,,,,,,,,,,,,,,,,,,,,,,,,,,,,,,,,,,,,,,,,,,,,,,,,,,,,,,,,,,,,,,,,,,,,,,,,,,,,1.37,615.0982733997516,None,space,1,616.5719192000106,None,616.5719192000106,None,616.5719192000106,None,0.2839279999025166,,,,,,,,,,,P008,fencog,2,Pre,2021_Aug_06_1140,Go No-Go Task,2021.1.4,120.02093136270075,
,"Rule: When you see a yellow image, do not press 'spacebar'.",Images/Scram2/AM03NES.jpg,Scramble,Yellow,Images/Yellow.jpg,None,ParentConditions/YellowYellowBlue_v2.xlsx,YellowYellowBlue,Conditions/Version_2/YellowScramStop.xlsx,yes,PASS,0.3566483684653988,,,,,,,,,0,0,0,1,0,1,1,1,0,3,3,3,,,,,,,,,,,,,,,,,,,,,,,,,,,,,,,,,,,,,,,,,,,,,,,,,,,,,,,,,,,,,,,,,,,,,,,,,,,,,,,1.52,616.9725494999439,None,space,0,618.5964383999817,None,618.5964383999817,None,618.5964383999817,None,0.27535100001841784,,,,,,,,,,,P008,fencog,2,Pre,2021_Aug_06_1140,Go No-Go Task,2021.1.4,120.02093136270075,
,"Rule: When you see a yellow image, do not press 'spacebar'.",Images/Scram2/BM01_NC.jpg,Scramble,Blue,Images/Blue.jpg,space,ParentConditions/YellowYellowBlue_v2.xlsx,YellowYellowBlue,Conditions/Version_2/YellowScramStop.xlsx,no,PASS,0.6300515820310504,,,,,,,,,0,0,0,1,0,1,1,1,0,4,4,4,,,,,,,,,,,,,,,,,,,,,,,,,,,,,,,,,,,,,,,,,,,,,,,,,,,,,,,,,,,,,,,,,,,,,,,,,,,,,,,1.45,619.0039792000316,None,None,0,620.5540905999951,None,620.5540905999951,None,620.5540905999951,None,,,,,,,,,,,,P008,fencog,2,Pre,2021_Aug_06_1140,Go No-Go Task,2021.1.4,120.02093136270075,
,"Rule: When you see a yellow image, do not press 'spacebar'.",Images/Scram1/HM09_NC.jpg,Scramble,Blue,Images/Blue.jpg,space,ParentConditions/YellowYellowBlue_v2.xlsx,YellowYellowBlue,Conditions/Version_2/YellowScramStop.xlsx,no,PASS,0.9681952009545239,,,,,,,,,0,0,0,1,0,1,1,1,0,5,5,5,,,,,,,,,,,,,,,,,,,,,,,,,,,,,,,,,,,,,,,,,,,,,,,,,,,,,,,,,,,,,,,,,,,,,,,,,,,,,,,1.2,620.9550040997565,None,None,0,622.2619457999244,None,622.2619457999244,None,622.2619457999244,None,,,,,,,,,,,,P008,fencog,2,Pre,2021_Aug_06_1140,Go No-Go Task,2021.1.4,120.02093136270075,
,"Rule: When you see a yellow image, do not press 'spacebar'.",Images/Scram2/BF07_NC.jpg,Scramble,Blue,Images/Blue.jpg,space,ParentConditions/YellowYellowBlue_v2.xlsx,YellowYellowBlue,Conditions/Version_2/YellowScramStop.xlsx,no,PASS,0.21646267744166114,,,,,,,,,0,0,0,1,0,1,1,1,0,6,6,6,,,,,,,,,,,,,,,,,,,,,,,,,,,,,,,,,,,,,,,,,,,,,,,,,,,,,,,,,,,,,,,,,,,,,,,,,,,,,,,1.67,622.6624157000333,None,space,1,624.4280097000301,None,624.4280097000301,None,624.4280097000301,None,0.24303240003064275,,,,,,,,,,,P008,fencog,2,Pre,2021_Aug_06_1140,Go No-Go Task,2021.1.4,120.02093136270075,
,"Rule: When you see a yellow image, do not press 'spacebar'.",Images/Scram1/BF14_NC.jpg,Scramble,Blue,Images/Blue.jpg,space,ParentConditions/YellowYellowBlue_v2.xlsx,YellowYellowBlue,Conditions/Version_2/YellowScramStop.xlsx,no,PASS,0.9846643703258401,,,,,,,,,0,0,0,1,0,1,1,1,0,7,7,7,,,,,,,,,,,,,,,,,,,,,,,,,,,,,,,,,,,,,,,,,,,,,,,,,,,,,,,,,,,,,,,,,,,,,,,,,,,,,,,1.34,624.828281099908,None,space,1,626.2690980997868,None,626.2690980997868,None,626.2690980997868,None,0.20178940007463098,,,,,,,,,,,P008,fencog,2,Pre,2021_Aug_06_1140,Go No-Go Task,2021.1.4,120.02093136270075,
,"Rule: When you see a yellow image, do not press 'spacebar'.",Images/Scram2/AF10_NC.jpg,Scramble,Blue,Images/Blue.jpg,space,ParentConditions/YellowYellowBlue_v2.xlsx,YellowYellowBlue,Conditions/Version_2/YellowScramStop.xlsx,no,PASS,0.2443614348279377,,,,,,,,,0,0,0,1,0,1,1,1,0,8,8,8,,,,,,,,,,,,,,,,,,,,,,,,,,,,,,,,,,,,,,,,,,,,,,,,,,,,,,,,,,,,,,,,,,,,,,,,,,,,,,,1.64,626.6694923997857,None,space,1,628.4100917000324,None,628.4100917000324,None,628.4100917000324,None,0.25396359991282225,,,,,,,,,,,P008,fencog,2,Pre,2021_Aug_06_1140,Go No-Go Task,2021.1.4,120.02093136270075,
,"Rule: When you see a yellow image, do not press 'spacebar'.",Images/Scram2/AF01_NC.jpg,Scramble,Blue,Images/Blue.jpg,space,ParentConditions/YellowYellowBlue_v2.xlsx,YellowYellowBlue,Conditions/Version_2/YellowScramStop.xlsx,no,PASS,0.5418077894665677,,,,,,,,,0,0,0,1,0,1,1,1,0,9,9,9,,,,,,,,,,,,,,,,,,,,,,,,,,,,,,,,,,,,,,,,,,,,,,,,,,,,,,,,,,,,,,,,,,,,,,,,,,,,,,,1.63,628.810628999956,None,space,1,630.5428323997185,None,630.5428323997185,None,630.5428323997185,None,0.3602255000732839,,,,,,,,,,,P008,fencog,2,Pre,2021_Aug_06_1140,Go No-Go Task,2021.1.4,120.02093136270075,
,"Rule: When you see a yellow image, do not press 'spacebar'.",Images/Scram2/AF24NES.jpg,Scramble,Blue,Images/Blue.jpg,space,ParentConditions/YellowYellowBlue_v2.xlsx,YellowYellowBlue,Conditions/Version_2/YellowScramStop.xlsx,no,PASS,0.5679342954932528,,,,,,,,,0,0,0,1,0,1,1,1,0,10,10,10,,,,,,,,,,,,,,,,,,,,,,,,,,,,,,,,,,,,,,,,,,,,,,,,,,,,,,,,,,,,,,,,,,,,,,,,,,,,,,,1.79,630.9428873998113,None,None,0,632.833828299772,None,632.833828299772,None,632.833828299772,None,,,,,,,,,,,,P008,fencog,2,Pre,2021_Aug_06_1140,Go No-Go Task,2021.1.4,120.02093136270075,
,"Rule: When you see a yellow image, do not press 'spacebar'.",Images/Scram2/BF14_NC.jpg,Scramble,Blue,Images/Blue.jpg,space,ParentConditions/YellowYellowBlue_v2.xlsx,YellowYellowBlue,Conditions/Version_2/YellowScramStop.xlsx,no,PASS,0.8825179199303765,,,,,,,,,0,0,0,1,0,1,1,1,0,11,11,11,,,,,,,,,,,,,,,,,,,,,,,,,,,,,,,,,,,,,,,,,,,,,,,,,,,,,,,,,,,,,,,,,,,,,,,,,,,,,,,1.93,633.2343137999997,None,None,0,635.2664037998766,None,635.2664037998766,None,635.2664037998766,None,,,,,,,,,,,,P008,fencog,2,Pre,2021_Aug_06_1140,Go No-Go Task,2021.1.4,120.02093136270075,
,"Rule: When you see a yellow image, do not press 'spacebar'.",Images/Scram1/AM13NES.jpg,Scramble,Blue,Images/Blue.jpg,space,ParentConditions/YellowYellowBlue_v2.xlsx,YellowYellowBlue,Conditions/Version_2/YellowScramStop.xlsx,no,PASS,0.21043647733489834,,,,,,,,,0,0,0,1,0,1,1,1,0,12,12,12,,,,,,,,,,,,,,,,,,,,,,,,,,,,,,,,,,,,,,,,,,,,,,,,,,,,,,,,,,,,,,,,,,,,,,,,,,,,,,,1.83,635.667044099886,None,space,1,637.5990682998672,None,637.5990682998672,None,637.5990682998672,None,0.1519492999650538,,,,,,,,,,,P008,fencog,2,Pre,2021_Aug_06_1140,Go No-Go Task,2021.1.4,120.02093136270075,
,"Rule: When you see a yellow image, do not press 'spacebar'.",Images/Scram1/HM04_NC.jpg,Scramble,Blue,Images/Blue.jpg,space,ParentConditions/YellowYellowBlue_v2.xlsx,YellowYellowBlue,Conditions/Version_2/YellowScramStop.xlsx,no,PASS,0.048118244636673246,,,,,,,,,0,0,0,1,0,1,1,1,0,13,13,13,,,,,,,,,,,,,,,,,,,,,,,,,,,,,,,,,,,,,,,,,,,,,,,,,,,,,,,,,,,,,,,,,,,,,,,,,,,,,,,1.3,637.9995204000734,None,space,1,639.4068267997354,None,639.4068267997354,None,639.4068267997354,None,0.23237270023673773,,,,,,,,,,,P008,fencog,2,Pre,2021_Aug_06_1140,Go No-Go Task,2021.1.4,120.02093136270075,
,"Rule: When you see a yellow image, do not press 'spacebar'.",Images/Scram1/AM03NES.jpg,Scramble,Blue,Images/Blue.jpg,space,ParentConditions/YellowYellowBlue_v2.xlsx,YellowYellowBlue,Conditions/Version_2/YellowScramStop.xlsx,no,PASS,0.5072407620323995,,,,,,,,,0,0,0,1,0,1,1,1,0,14,14,14,,,,,,,,,,,,,,,,,,,,,,,,,,,,,,,,,,,,,,,,,,,,,,,,,,,,,,,,,,,,,,,,,,,,,,,,,,,,,,,1.44,639.8088929997757,None,space,1,641.3563331998885,None,641.3563331998885,None,641.3563331998885,None,0.27482829988002777,,,,,,,,,,,P008,fencog,2,Pre,2021_Aug_06_1140,Go No-Go Task,2021.1.4,120.02093136270075,
,"Rule: When you see a yellow image, do not press 'spacebar'.",Images/Scram1/AM22NES.jpg,Scramble,Blue,Images/Blue.jpg,space,ParentConditions/YellowYellowBlue_v2.xlsx,YellowYellowBlue,Conditions/Version_2/YellowScramStop.xlsx,no,PASS,0.8332736468200919,,,,,,,,,0,0,0,1,0,1,1,1,0,15,15,15,,,,,,,,,,,,,,,,,,,,,,,,,,,,,,,,,,,,,,,,,,,,,,,,,,,,,,,,,,,,,,,,,,,,,,,,,,,,,,,1.27,641.756442700047,None,space,1,643.1307371999137,None,643.1307371999137,None,643.1307371999137,None,0.3085942002944648,,,,,,,,,,,P008,fencog,2,Pre,2021_Aug_06_1140,Go No-Go Task,2021.1.4,120.02093136270075,
,"Rule: When you see a yellow image, do not press 'spacebar'.",Images/Scram2/AM17NES.jpg,Scramble,Yellow,Images/Yellow.jpg,None,ParentConditions/YellowYellowBlue_v2.xlsx,YellowYellowBlue,Conditions/Version_2/YellowScramStop.xlsx,yes,PASS,0.5524440306249002,,,,,,,,,0,0,0,1,0,1,1,1,0,16,16,16,,,,,,,,,,,,,,,,,,,,,,,,,,,,,,,,,,,,,,,,,,,,,,,,,,,,,,,,,,,,,,,,,,,,,,,,,,,,,,,1.39,643.5370823000558,None,None,1,645.0301787997596,None,645.0301787997596,None,645.0301787997596,None,,,,,,,,,,,,P008,fencog,2,Pre,2021_Aug_06_1140,Go No-Go Task,2021.1.4,120.02093136270075,
,"Rule: When you see a yellow image, do not press 'spacebar'.",Images/Scram1/AM10NES.jpg,Scramble,Blue,Images/Blue.jpg,space,ParentConditions/YellowYellowBlue_v2.xlsx,YellowYellowBlue,Conditions/Version_2/YellowScramStop.xlsx,no,PASS,0.13699730503466545,,,,,,,,,0,0,0,1,0,1,1,1,0,17,17,17,,,,,,,,,,,,,,,,,,,,,,,,,,,,,,,,,,,,,,,,,,,,,,,,,,,,,,,,,,,,,,,,,,,,,,,,,,,,,,,1.38,645.4326618998311,None,space,1,646.9129105997272,None,646.9129105997272,None,646.9129105997272,None,0.278124799951911,,,,,,,,,,,P008,fencog,2,Pre,2021_Aug_06_1140,Go No-Go Task,2021.1.4,120.02093136270075,
,"Rule: When you see a yellow image, do not press 'spacebar'.",Images/Scram2/AM03_NC.jpg,Scramble,Yellow,Images/Yellow.jpg,None,ParentConditions/YellowYellowBlue_v2.xlsx,YellowYellowBlue,Conditions/Version_2/YellowScramStop.xlsx,yes,PASS,0.2886954903206703,,,,,,,,,0,0,0,1,0,1,1,1,0,18,18,18,,,,,,,,,,,,,,,,,,,,,,,,,,,,,,,,,,,,,,,,,,,,,,,,,,,,,,,,,,,,,,,,,,,,,,,,,,,,,,,1.89,647.3177748997696,None,space,0,649.3039417997934,None,649.3039417997934,None,649.3039417997934,None,0.23907999973744154,,,,,,,,,,,P008,fencog,2,Pre,2021_Aug_06_1140,Go No-Go Task,2021.1.4,120.02093136270075,
,"Rule: When you see a yellow image, do not press 'spacebar'.",Images/Scram1/HF09_NC.jpg,Scramble,Blue,Images/Blue.jpg,space,ParentConditions/YellowYellowBlue_v2.xlsx,YellowYellowBlue,Conditions/Version_2/YellowScramStop.xlsx,no,PASS,0.5210471780653185,,,,,,,,,0,0,0,1,0,1,1,1,0,19,19,19,,,,,,,,,,,,,,,,,,,,,,,,,,,,,,,,,,,,,,,,,,,,,,,,,,,,,,,,,,,,,,,,,,,,,,,,,,,,,,,1.98,649.7118790997192,None,space,1,651.794870799873,None,651.794870799873,None,651.794870799873,None,0.3562999004498124,,,,,,,,,,,P008,fencog,2,Pre,2021_Aug_06_1140,Go No-Go Task,2021.1.4,120.02093136270075,
,"Rule: When you see a yellow image, do not press 'spacebar'.",Images/Scram1/BM08_NC.jpg,Scramble,Blue,Images/Blue.jpg,space,ParentConditions/YellowYellowBlue_v2.xlsx,YellowYellowBlue,Conditions/Version_2/YellowScramStop.xlsx,no,PASS,0.7192207106921986,,,,,,,,,0,0,0,1,0,1,1,1,0,20,20,20,,,,,,,,,,,,,,,,,,,,,,,,,,,,,,,,,,,,,,,,,,,,,,,,,,,,,,,,,,,,,,,,,,,,,,,,,,,,,,,1.57,652.1940518999472,None,space,1,653.8692306000739,None,653.8692306000739,None,653.8692306000739,None,0.3301053997129202,,,,,,,,,,,P008,fencog,2,Pre,2021_Aug_06_1140,Go No-Go Task,2021.1.4,120.02093136270075,
,"Rule: When you see a yellow image, do not press 'spacebar'.",Images/Scram1/AF32NES.jpg,Scramble,Blue,Images/Blue.jpg,space,ParentConditions/YellowYellowBlue_v2.xlsx,YellowYellowBlue,Conditions/Version_2/YellowScramStop.xlsx,no,PASS,0.3856706921106089,,,,,,,,,0,0,0,1,0,1,1,1,0,21,21,21,,,,,,,,,,,,,,,,,,,,,,,,,,,,,,,,,,,,,,,,,,,,,,,,,,,,,,,,,,,,,,,,,,,,,,,,,,,,,,,1.82,654.2701032999903,None,space,1,656.19339270005,None,656.19339270005,None,656.19339270005,None,0.2697362997569144,,,,,,,,,,,P008,fencog,2,Pre,2021_Aug_06_1140,Go No-Go Task,2021.1.4,120.02093136270075,
,"Rule: When you see a yellow image, do not press 'spacebar'.",Images/Scram2/AM06_NC.jpg,Scramble,Yellow,Images/Yellow.jpg,None,ParentConditions/YellowYellowBlue_v2.xlsx,YellowYellowBlue,Conditions/Version_2/YellowScramStop.xlsx,yes,PASS,0.593844606938259,,,,,,,,,0,0,0,1,0,1,1,1,0,22,22,22,,,,,,,,,,,,,,,,,,,,,,,,,,,,,,,,,,,,,,,,,,,,,,,,,,,,,,,,,,,,,,,,,,,,,,,,,,,,,,,1.4,656.5933097996749,None,space,0,658.1014523999766,None,658.1014523999766,None,658.1014523999766,None,0.2819149000570178,,,,,,,,,,,P008,fencog,2,Pre,2021_Aug_06_1140,Go No-Go Task,2021.1.4,120.02093136270075,
,"Rule: When you see a yellow image, do not press 'spacebar'.",Images/Scram1/AM06_NC.jpg,Scramble,Blue,Images/Blue.jpg,space,ParentConditions/YellowYellowBlue_v2.xlsx,YellowYellowBlue,Conditions/Version_2/YellowScramStop.xlsx,no,PASS,0.5597751985943138,,,,,,,,,0,0,0,1,0,1,1,1,0,23,23,23,,,,,,,,,,,,,,,,,,,,,,,,,,,,,,,,,,,,,,,,,,,,,,,,,,,,,,,,,,,,,,,,,,,,,,,,,,,,,,,1.87,658.5009477999993,None,None,0,660.4753923998214,None,660.4753923998214,None,660.4753923998214,None,,,,,,,,,,,,P008,fencog,2,Pre,2021_Aug_06_1140,Go No-Go Task,2021.1.4,120.02093136270075,
,"Rule: When you see a yellow image, do not press 'spacebar'.",Images/Scram2/AM02_NC.jpg,Scramble,Yellow,Images/Yellow.jpg,None,ParentConditions/YellowYellowBlue_v2.xlsx,YellowYellowBlue,Conditions/Version_2/YellowScramStop.xlsx,yes,PASS,0.21014535444537008,,,,,,,,,0,0,0,1,0,1,1,1,0,24,24,24,,,,,,,,,,,,,,,,,,,,,,,,,,,,,,,,,,,,,,,,,,,,,,,,,,,,,,,,,,,,,,,,,,,,,,,,,,,,,,,1.75,660.8765732999891,None,space,0,662.733360900078,None,662.733360900078,None,662.733360900078,None,0.35448790015652776,,,,,,,,,,,P008,fencog,2,Pre,2021_Aug_06_1140,Go No-Go Task,2021.1.4,120.02093136270075,
,"Rule: When you see a yellow image, do not press 'spacebar'.",Images/Scram2/HF05_NC.jpg,Scramble,Blue,Images/Blue.jpg,space,ParentConditions/YellowYellowBlue_v2.xlsx,YellowYellowBlue,Conditions/Version_2/YellowScramStop.xlsx,no,PASS,0.0025091428399978133,,,,,,,,,0,0,0,1,0,1,1,1,0,25,25,25,,,,,,,,,,,,,,,,,,,,,,,,,,,,,,,,,,,,,,,,,,,,,,,,,,,,,,,,,,,,,,,,,,,,,,,,,,,,,,,1.29,663.1323405001312,None,None,0,664.5244550998323,None,664.5244550998323,None,664.5244550998323,None,,,,,,,,,,,,P008,fencog,2,Pre,2021_Aug_06_1140,Go No-Go Task,2021.1.4,120.02093136270075,
,"Rule: When you see a yellow image, do not press 'spacebar'.",Images/Scram2/AF32NES.jpg,Scramble,Yellow,Images/Yellow.jpg,None,ParentConditions/YellowYellowBlue_v2.xlsx,YellowYellowBlue,Conditions/Version_2/YellowScramStop.xlsx,yes,PASS,0.5621638043526047,,,,,,,,,0,0,0,1,0,1,1,1,0,26,26,26,,,,,,,,,,,,,,,,,,,,,,,,,,,,,,,,,,,,,,,,,,,,,,,,,,,,,,,,,,,,,,,,,,,,,,,,,,,,,,,1.76,664.9284195997752,None,None,1,666.7904636999592,None,666.7904636999592,None,666.7904636999592,None,,,,,,,,,,,,P008,fencog,2,Pre,2021_Aug_06_1140,Go No-Go Task,2021.1.4,120.02093136270075,
,"Rule: When you see a yellow image, do not press 'spacebar'.",Images/Scram2/HM04_NC.jpg,Scramble,Blue,Images/Blue.jpg,space,ParentConditions/YellowYellowBlue_v2.xlsx,YellowYellowBlue,Conditions/Version_2/YellowScramStop.xlsx,no,PASS,0.3656961779732233,,,,,,,,,0,0,0,1,0,1,1,1,0,27,27,27,,,,,,,,,,,,,,,,,,,,,,,,,,,,,,,,,,,,,,,,,,,,,,,,,,,,,,,,,,,,,,,,,,,,,,,,,,,,,,,1.77,667.189969399944,None,None,0,669.0647481000051,None,669.0647481000051,None,669.0647481000051,None,,,,,,,,,,,,P008,fencog,2,Pre,2021_Aug_06_1140,Go No-Go Task,2021.1.4,120.02093136270075,
,"Rule: When you see a yellow image, do not press 'spacebar'.",Images/Scram2/AF25NES.jpg,Scramble,Blue,Images/Blue.jpg,space,ParentConditions/YellowYellowBlue_v2.xlsx,YellowYellowBlue,Conditions/Version_2/YellowScramStop.xlsx,no,PASS,0.24296732370581886,,,,,,,,,0,0,0,1,0,1,1,1,0,28,28,28,,,,,,,,,,,,,,,,,,,,,,,,,,,,,,,,,,,,,,,,,,,,,,,,,,,,,,,,,,,,,,,,,,,,,,,,,,,,,,,1.21,669.4665707000531,None,space,1,670.780875899829,None,670.780875899829,None,670.780875899829,None,0.35431279987096786,,,,,,,,,,,P008,fencog,2,Pre,2021_Aug_06_1140,Go No-Go Task,2021.1.4,120.02093136270075,
,"Rule: When you see a yellow image, do not press 'spacebar'.",Images/Scram1/AF34NES.jpg,Scramble,Blue,Images/Blue.jpg,space,ParentConditions/YellowYellowBlue_v2.xlsx,YellowYellowBlue,Conditions/Version_2/YellowScramStop.xlsx,no,PASS,0.2947970947694444,,,,,,,,,0,0,0,1,0,1,1,1,0,29,29,29,,,,,,,,,,,,,,,,,,,,,,,,,,,,,,,,,,,,,,,,,,,,,,,,,,,,,,,,,,,,,,,,,,,,,,,,,,,,,,,1.7,671.187347299885,None,space,1,672.9802580000833,None,672.9802580000833,None,672.9802580000833,None,0.30668050004169345,,,,,,,,,,,P008,fencog,2,Pre,2021_Aug_06_1140,Go No-Go Task,2021.1.4,120.02093136270075,
,"Rule: When you see a yellow image, do not press 'spacebar'.",Images/Scram2/AF11NES.jpg,Scramble,Blue,Images/Blue.jpg,space,ParentConditions/YellowYellowBlue_v2.xlsx,YellowYellowBlue,Conditions/Version_2/YellowScramStop.xlsx,no,PASS,0.06112693600308039,,,,,,,,,0,0,0,1,0,1,1,1,0,30,30,30,,,,,,,,,,,,,,,,,,,,,,,,,,,,,,,,,,,,,,,,,,,,,,,,,,,,,,,,,,,,,,,,,,,,,,,,,,,,,,,1.88,673.3888077000156,None,space,1,675.3715524999425,None,675.3715524999425,None,675.3715524999425,None,0.3639255999587476,,,,,,,,,,,P008,fencog,2,Pre,2021_Aug_06_1140,Go No-Go Task,2021.1.4,120.02093136270075,
,"Rule: When you see a yellow image, do not press 'spacebar'.",Images/Scram2/AF34NES.jpg,Scramble,Yellow,Images/Yellow.jpg,None,ParentConditions/YellowYellowBlue_v2.xlsx,YellowYellowBlue,Conditions/Version_2/YellowScramStop.xlsx,yes,PASS,0.36837427021744795,,,,,,,,,0,0,0,1,0,1,1,1,0,31,31,31,,,,,,,,,,,,,,,,,,,,,,,,,,,,,,,,,,,,,,,,,,,,,,,,,,,,,,,,,,,,,,,,,,,,,,,,,,,,,,,1.91,675.8060210999101,None,None,1,677.8205101997592,None,677.8205101997592,None,677.8205101997592,None,,,,,,,,,,,,P008,fencog,2,Pre,2021_Aug_06_1140,Go No-Go Task,2021.1.4,120.02093136270075,
,"Rule: When you see a yellow image, do not press 'spacebar'.",Images/Scram1/AM02_NC.jpg,Scramble,Blue,Images/Blue.jpg,space,ParentConditions/YellowYellowBlue_v2.xlsx,YellowYellowBlue,Conditions/Version_2/YellowScramStop.xlsx,no,PASS,0.7004017432139685,,,,,,,,,0,0,0,1,0,1,1,1,0,32,32,32,,,,,,,,,,,,,,,,,,,,,,,,,,,,,,,,,,,,,,,,,,,,,,,,,,,,,,,,,,,,,,,,,,,,,,,,,,,,,,,1.8,678.2210217998363,None,space,1,680.1281773997471,None,680.1281773997471,None,680.1281773997471,None,0.37479500006884336,,,,,,,,,,,P008,fencog,2,Pre,2021_Aug_06_1140,Go No-Go Task,2021.1.4,120.02093136270075,
,"Rule: When you see a yellow image, do not press 'spacebar'.",Images/Scram2/AM13NES.jpg,Scramble,Yellow,Images/Yellow.jpg,None,ParentConditions/YellowYellowBlue_v2.xlsx,YellowYellowBlue,Conditions/Version_2/YellowScramStop.xlsx,yes,PASS,0.7037668434542473,,,,,,,,,0,0,0,1,0,1,1,1,0,33,33,33,,,,,,,,,,,,,,,,,,,,,,,,,,,,,,,,,,,,,,,,,,,,,,,,,,,,,,,,,,,,,,,,,,,,,,,,,,,,,,,1.6,680.5273845000193,None,space,0,682.2275767000392,None,682.2275767000392,None,682.2275767000392,None,0.2677569002844393,,,,,,,,,,,P008,fencog,2,Pre,2021_Aug_06_1140,Go No-Go Task,2021.1.4,120.02093136270075,
,"Rule: When you see a yellow image, do not press 'spacebar'.",Images/Scram1/AM03_NC.jpg,Scramble,Blue,Images/Blue.jpg,space,ParentConditions/YellowYellowBlue_v2.xlsx,YellowYellowBlue,Conditions/Version_2/YellowScramStop.xlsx,no,PASS,0.13984736132192788,,,,,,,,,0,0,0,1,0,1,1,1,0,34,34,34,,,,,,,,,,,,,,,,,,,,,,,,,,,,,,,,,,,,,,,,,,,,,,,,,,,,,,,,,,,,,,,,,,,,,,,,,,,,,,,1.99,682.6353317997418,None,None,0,684.726902499795,None,684.726902499795,None,684.726902499795,None,,,,,,,,,,,,P008,fencog,2,Pre,2021_Aug_06_1140,Go No-Go Task,2021.1.4,120.02093136270075,
,"Rule: When you see a yellow image, do not press 'spacebar'.",Images/Scram1/AF33NES.jpg,Scramble,Blue,Images/Blue.jpg,space,ParentConditions/YellowYellowBlue_v2.xlsx,YellowYellowBlue,Conditions/Version_2/YellowScramStop.xlsx,no,PASS,0.7479968675198729,,,,,,,,,0,0,0,1,0,1,1,1,0,35,35,35,,,,,,,,,,,,,,,,,,,,,,,,,,,,,,,,,,,,,,,,,,,,,,,,,,,,,,,,,,,,,,,,,,,,,,,,,,,,,,,1.72,685.1271538999863,None,space,1,686.9511122996919,None,686.9511122996919,None,686.9511122996919,None,0.2559843002818525,,,,,,,,,,,P008,fencog,2,Pre,2021_Aug_06_1140,Go No-Go Task,2021.1.4,120.02093136270075,
,"Rule: When you see a yellow image, do not press 'spacebar'.",Images/Scram1/BF10_NC.jpg,Scramble,Blue,Images/Blue.jpg,space,ParentConditions/YellowYellowBlue_v2.xlsx,YellowYellowBlue,Conditions/Version_2/YellowScramStop.xlsx,no,PASS,0.5225639267337787,,,,,,,,,0,0,0,1,0,1,1,1,0,36,36,36,,,,,,,,,,,,,,,,,,,,,,,,,,,,,,,,,,,,,,,,,,,,,,,,,,,,,,,,,,,,,,,,,,,,,,,,,,,,,,,1.46,687.356483399868,None,space,1,688.9172601997852,None,688.9172601997852,None,688.9172601997852,None,0.25054889963939786,,,,,,,,,,,P008,fencog,2,Pre,2021_Aug_06_1140,Go No-Go Task,2021.1.4,120.02093136270075,
,"Rule: When you see a yellow image, do not press 'spacebar'.",Images/Scram1/AF07_NC.jpg,Scramble,Blue,Images/Blue.jpg,space,ParentConditions/YellowYellowBlue_v2.xlsx,YellowYellowBlue,Conditions/Version_2/YellowScramStop.xlsx,no,PASS,0.5221002530466395,,,,,,,,,0,0,0,1,0,1,1,1,0,37,37,37,,,,,,,,,,,,,,,,,,,,,,,,,,,,,,,,,,,,,,,,,,,,,,,,,,,,,,,,,,,,,,,,,,,,,,,,,,,,,,,1.96,689.316108699888,None,space,1,691.3748574997298,None,691.3748574997298,None,691.3748574997298,None,0.2326528998091817,,,,,,,,,,,P008,fencog,2,Pre,2021_Aug_06_1140,Go No-Go Task,2021.1.4,120.02093136270075,
,"Rule: When you see a yellow image, do not press 'spacebar'.",Images/Scram2/AM23NES.jpg,Scramble,Yellow,Images/Yellow.jpg,None,ParentConditions/YellowYellowBlue_v2.xlsx,YellowYellowBlue,Conditions/Version_2/YellowScramStop.xlsx,yes,PASS,0.18195499113806335,,,,,,,,,0,0,0,1,0,1,1,1,0,38,38,38,,,,,,,,,,,,,,,,,,,,,,,,,,,,,,,,,,,,,,,,,,,,,,,,,,,,,,,,,,,,,,,,,,,,,,,,,,,,,,,1.49,691.7766936998814,None,None,1,693.3742753998376,None,693.3742753998376,None,693.3742753998376,None,,,,,,,,,,,,P008,fencog,2,Pre,2021_Aug_06_1140,Go No-Go Task,2021.1.4,120.02093136270075,
,"Rule: When you see a yellow image, do not press 'spacebar'.",Images/Scram1/AF24NES.jpg,Scramble,Blue,Images/Blue.jpg,space,ParentConditions/YellowYellowBlue_v2.xlsx,YellowYellowBlue,Conditions/Version_2/YellowScramStop.xlsx,no,PASS,0.6640389388315467,,,,,,,,,0,0,0,1,0,1,1,1,0,39,39,39,,,,,,,,,,,,,,,,,,,,,,,,,,,,,,,,,,,,,,,,,,,,,,,,,,,,,,,,,,,,,,,,,,,,,,,,,,,,,,,1.95,693.7818060000427,None,space,1,695.8315804000013,None,695.8315804000013,None,695.8315804000013,None,0.26420570025220513,,,,,,,,,,,P008,fencog,2,Pre,2021_Aug_06_1140,Go No-Go Task,2021.1.4,120.02093136270075,
,"Rule: When you see a yellow image, do not press 'spacebar'.",Images/Scram2/AF33NES.jpg,Scramble,Yellow,Images/Yellow.jpg,None,ParentConditions/YellowYellowBlue_v2.xlsx,YellowYellowBlue,Conditions/Version_2/YellowScramStop.xlsx,yes,PASS,0.6203826022283658,,,,,,,,,0,0,0,1,0,1,1,1,0,40,40,40,,,,,,,,,,,,,,,,,,,,,,,,,,,,,,,,,,,,,,,,,,,,,,,,,,,,,,,,,,,,,,,,,,,,,,,,,,,,,,,1.61,696.2340286998078,None,None,1,697.9478353001177,None,697.9478353001177,None,697.9478353001177,None,,,,,,,,,,,,P008,fencog,2,Pre,2021_Aug_06_1140,Go No-Go Task,2021.1.4,120.02093136270075,
,"Rule: When you see a yellow image, do not press 'spacebar'.",Images/Scram1/AF25NES.jpg,Scramble,Blue,Images/Blue.jpg,space,ParentConditions/YellowYellowBlue_v2.xlsx,YellowYellowBlue,Conditions/Version_2/YellowScramStop.xlsx,no,PASS,0.05141546475857928,,,,,,,,,0,0,0,1,0,1,1,1,0,41,41,41,,,,,,,,,,,,,,,,,,,,,,,,,,,,,,,,,,,,,,,,,,,,,,,,,,,,,,,,,,,,,,,,,,,,,,,,,,,,,,,1.24,698.3487168001011,None,None,0,699.6806815997697,None,699.6806815997697,None,699.6806815997697,None,,,,,,,,,,,,P008,fencog,2,Pre,2021_Aug_06_1140,Go No-Go Task,2021.1.4,120.02093136270075,
,"Rule: When you see a yellow image, do not press 'spacebar'.",Images/Scram2/AM10NES.jpg,Scramble,Yellow,Images/Yellow.jpg,None,ParentConditions/YellowYellowBlue_v2.xlsx,YellowYellowBlue,Conditions/Version_2/YellowScramStop.xlsx,yes,PASS,0.1267743006232639,,,,,,,,,0,0,0,1,0,1,1,1,0,42,42,42,,,,,,,,,,,,,,,,,,,,,,,,,,,,,,,,,,,,,,,,,,,,,,,,,,,,,,,,,,,,,,,,,,,,,,,,,,,,,,,1.78,700.0936298999004,None,None,1,701.9716698997654,None,701.9716698997654,None,701.9716698997654,None,,,,,,,,,,,,P008,fencog,2,Pre,2021_Aug_06_1140,Go No-Go Task,2021.1.4,120.02093136270075,
,"Rule: When you see a yellow image, do not press 'spacebar'.",Images/Scram2/BF10_NC.jpg,Scramble,Blue,Images/Blue.jpg,space,ParentConditions/YellowYellowBlue_v2.xlsx,YellowYellowBlue,Conditions/Version_2/YellowScramStop.xlsx,no,PASS,0.22016560502147287,,,,,,,,,0,0,0,1,0,1,1,1,0,43,43,43,,,,,,,,,,,,,,,,,,,,,,,,,,,,,,,,,,,,,,,,,,,,,,,,,,,,,,,,,,,,,,,,,,,,,,,,,,,,,,,1.69,702.377885799855,None,space,1,704.1627703998238,None,704.1627703998238,None,704.1627703998238,None,0.2360878000035882,,,,,,,,,,,P008,fencog,2,Pre,2021_Aug_06_1140,Go No-Go Task,2021.1.4,120.02093136270075,
,"Rule: When you see a yellow image, do not press 'spacebar'.",Images/Scram1/BF18_NC.jpg,Scramble,Blue,Images/Blue.jpg,space,ParentConditions/YellowYellowBlue_v2.xlsx,YellowYellowBlue,Conditions/Version_2/YellowScramStop.xlsx,no,PASS,0.11487631985977975,,,,,,,,,0,0,0,1,0,1,1,1,0,44,44,44,,,,,,,,,,,,,,,,,,,,,,,,,,,,,,,,,,,,,,,,,,,,,,,,,,,,,,,,,,,,,,,,,,,,,,,,,,,,,,,1.26,704.5645368997939,None,space,1,705.9287797999568,None,705.9287797999568,None,705.9287797999568,None,0.3262089998461306,,,,,,,,,,,P008,fencog,2,Pre,2021_Aug_06_1140,Go No-Go Task,2021.1.4,120.02093136270075,
,"Rule: When you see a yellow image, do not press 'spacebar'.",Images/Scram2/HF09_NC.jpg,Scramble,Blue,Images/Blue.jpg,space,ParentConditions/YellowYellowBlue_v2.xlsx,YellowYellowBlue,Conditions/Version_2/YellowScramStop.xlsx,no,PASS,0.20475492045840804,,,,,,,,,0,0,0,1,0,1,1,1,0,45,45,45,,,,,,,,,,,,,,,,,,,,,,,,,,,,,,,,,,,,,,,,,,,,,,,,,,,,,,,,,,,,,,,,,,,,,,,,,,,,,,,1.92,706.3288022000343,None,space,1,708.3531788997352,None,708.3531788997352,None,708.3531788997352,None,0.3263483000919223,,,,,,,,,,,P008,fencog,2,Pre,2021_Aug_06_1140,Go No-Go Task,2021.1.4,120.02093136270075,
,"Rule: When you see a yellow image, do not press 'spacebar'.",Images/Scram1/BF05_NC.jpg,Scramble,Blue,Images/Blue.jpg,space,ParentConditions/YellowYellowBlue_v2.xlsx,YellowYellowBlue,Conditions/Version_2/YellowScramStop.xlsx,no,PASS,0.6685497116677461,,,,,,,,,0,0,0,1,0,1,1,1,0,46,46,46,,,,,,,,,,,,,,,,,,,,,,,,,,,,,,,,,,,,,,,,,,,,,,,,,,,,,,,,,,,,,,,,,,,,,,,,,,,,,,,1.71,708.7534411000088,None,space,1,710.5691502997652,None,710.5691502997652,None,710.5691502997652,None,0.2939844997599721,,,,,,,,,,,P008,fencog,2,Pre,2021_Aug_06_1140,Go No-Go Task,2021.1.4,120.02093136270075,
,"Rule: When you see a yellow image, do not press 'spacebar'.",Images/Scram1/AM17NES.jpg,Scramble,Blue,Images/Blue.jpg,space,ParentConditions/YellowYellowBlue_v2.xlsx,YellowYellowBlue,Conditions/Version_2/YellowScramStop.xlsx,no,PASS,0.5575549831069895,,,,,,,,,0,0,0,1,0,1,1,1,0,47,47,47,,,,,,,,,,,,,,,,,,,,,,,,,,,,,,,,,,,,,,,,,,,,,,,,,,,,,,,,,,,,,,,,,,,,,,,,,,,,,,,1.22,710.968180200085,None,space,1,712.2936187000014,None,712.2936187000014,None,712.2936187000014,None,0.2022315002977848,,,,,,,,,,,P008,fencog,2,Pre,2021_Aug_06_1140,Go No-Go Task,2021.1.4,120.02093136270075,
,"Rule: When you see a yellow image, do not press 'spacebar'.",Images/Scram2/AM09_NC.jpg,Scramble,Yellow,Images/Yellow.jpg,None,ParentConditions/YellowYellowBlue_v2.xlsx,YellowYellowBlue,Conditions/Version_2/YellowScramStop.xlsx,yes,PASS,0.08490473937246712,,,,,,,,,0,0,0,1,0,1,1,1,0,48,48,48,,,,,,,,,,,,,,,,,,,,,,,,,,,,,,,,,,,,,,,,,,,,,,,,,,,,,,,,,,,,,,,,,,,,,,,,,,,,,,,1.54,712.6938863997348,None,None,1,714.3347415998578,None,714.3347415998578,None,714.3347415998578,None,,,,,,,,,,,,P008,fencog,2,Pre,2021_Aug_06_1140,Go No-Go Task,2021.1.4,120.02093136270075,
,"Rule: When you see a yellow image, do not press 'spacebar'.",Images/Scram2/AF09NES.jpg,Scramble,Blue,Images/Blue.jpg,space,ParentConditions/YellowYellowBlue_v2.xlsx,YellowYellowBlue,Conditions/Version_2/YellowScramStop.xlsx,no,PASS,0.8511922023884788,,,,,,,,,0,0,0,1,0,1,1,1,0,49,49,49,,,,,,,,,,,,,,,,,,,,,,,,,,,,,,,,,,,,,,,,,,,,,,,,,,,,,,,,,,,,,,,,,,,,,,,,,,,,,,,1.59,714.7354689999484,None,space,1,716.4257664997131,None,716.4257664997131,None,716.4257664997131,None,0.3493625996634364,,,,,,,,,,,P008,fencog,2,Pre,2021_Aug_06_1140,Go No-Go Task,2021.1.4,120.02093136270075,
,"Rule: When you see a yellow image, do not press 'spacebar'.",Images/Scram2/AM04_NC.jpg,Scramble,Yellow,Images/Yellow.jpg,None,ParentConditions/YellowYellowBlue_v2.xlsx,YellowYellowBlue,Conditions/Version_2/YellowScramStop.xlsx,yes,PASS,0.9711738915701108,,,,,,,,,0,0,0,1,0,1,1,1,0,50,50,50,,,,,,,,,,,,,,,,,,,,,,,,,,,,,,,,,,,,,,,,,,,,,,,,,,,,,,,,,,,,,,,,,,,,,,,,,,,,,,,1.47,716.8249698998407,None,None,1,718.4001667001285,None,718.4001667001285,None,718.4001667001285,None,,,,,,,,,,,,P008,fencog,2,Pre,2021_Aug_06_1140,Go No-Go Task,2021.1.4,120.02093136270075,
,"Rule: When you see a yellow image, do not press 'spacebar'.",Images/Scram2/BF05_NC.jpg,Scramble,Yellow,Images/Yellow.jpg,None,ParentConditions/YellowYellowBlue_v2.xlsx,YellowYellowBlue,Conditions/Version_2/YellowScramStop.xlsx,yes,PASS,0.3684660889098009,,,,,,,,,0,0,0,1,0,1,1,1,0,51,51,51,,,,,,,,,,,,,,,,,,,,,,,,,,,,,,,,,,,,,,,,,,,,,,,,,,,,,,,,,,,,,,,,,,,,,,,,,,,,,,,1.66,718.802641400136,None,None,1,720.5662738997489,None,720.5662738997489,None,720.5662738997489,None,,,,,,,,,,,,P008,fencog,2,Pre,2021_Aug_06_1140,Go No-Go Task,2021.1.4,120.02093136270075,
,"Rule: When you see a yellow image, do not press 'spacebar'.",Images/Scram1/HM06_NC.jpg,Scramble,Blue,Images/Blue.jpg,space,ParentConditions/YellowYellowBlue_v2.xlsx,YellowYellowBlue,Conditions/Version_2/YellowScramStop.xlsx,no,PASS,0.5754528995111275,,,,,,,,,0,0,0,1,0,1,1,1,0,52,52,52,,,,,,,,,,,,,,,,,,,,,,,,,,,,,,,,,,,,,,,,,,,,,,,,,,,,,,,,,,,,,,,,,,,,,,,,,,,,,,,1.81,720.9690215000883,None,space,1,722.8822689000517,None,722.8822689000517,None,722.8822689000517,None,0.37274800008162856,,,,,,,,,,,P008,fencog,2,Pre,2021_Aug_06_1140,Go No-Go Task,2021.1.4,120.02093136270075,
,"Rule: When you see a yellow image, do not press 'spacebar'.",Images/Scram2/AF07NES.jpg,Scramble,Blue,Images/Blue.jpg,space,ParentConditions/YellowYellowBlue_v2.xlsx,YellowYellowBlue,Conditions/Version_2/YellowScramStop.xlsx,no,PASS,0.5077779466511061,,,,,,,,,0,0,0,1,0,1,1,1,0,53,53,53,,,,,,,,,,,,,,,,,,,,,,,,,,,,,,,,,,,,,,,,,,,,,,,,,,,,,,,,,,,,,,,,,,,,,,,,,,,,,,,1.42,723.2813833998516,None,None,0,724.7982783997431,None,724.7982783997431,None,724.7982783997431,None,,,,,,,,,,,,P008,fencog,2,Pre,2021_Aug_06_1140,Go No-Go Task,2021.1.4,120.02093136270075,
,"Rule: When you see a yellow image, do not press 'spacebar'.",Images/Scram1/BM01_NC.jpg,Scramble,Blue,Images/Blue.jpg,space,ParentConditions/YellowYellowBlue_v2.xlsx,YellowYellowBlue,Conditions/Version_2/YellowScramStop.xlsx,no,PASS,0.6162286290631079,,,,,,,,,0,0,0,1,0,1,1,1,0,54,54,54,,,,,,,,,,,,,,,,,,,,,,,,,,,,,,,,,,,,,,,,,,,,,,,,,,,,,,,,,,,,,,,,,,,,,,,,,,,,,,,1.53,725.1981370998546,None,space,1,726.8309599999338,None,726.8309599999338,None,726.8309599999338,None,0.3127125999890268,,,,,,,,,,,P008,fencog,2,Pre,2021_Aug_06_1140,Go No-Go Task,2021.1.4,120.02093136270075,
,"Rule: When you see a yellow image, do not press 'spacebar'.",Images/Scram2/AF07_NC.jpg,Scramble,Blue,Images/Blue.jpg,space,ParentConditions/YellowYellowBlue_v2.xlsx,YellowYellowBlue,Conditions/Version_2/YellowScramStop.xlsx,no,PASS,0.1394775454550986,,,,,,,,,0,0,0,1,0,1,1,1,0,55,55,55,,,,,,,,,,,,,,,,,,,,,,,,,,,,,,,,,,,,,,,,,,,,,,,,,,,,,,,,,,,,,,,,,,,,,,,,,,,,,,,1.5,727.2314380998723,None,None,0,728.8387902998365,None,728.8387902998365,None,728.8387902998365,None,,,,,,,,,,,,P008,fencog,2,Pre,2021_Aug_06_1140,Go No-Go Task,2021.1.4,120.02093136270075,
