CondFileP,Instructions,FaceE,Express,ColourT,ColourF,CorrectAnsP,MasterCondFile,BlockOrder,CondFile,ColCheck,Triplicate_check,SORT_BY_SMALLEST,EPracticeOuterLoop.thisRepN,EPracticeOuterLoop.thisTrialN,EPracticeOuterLoop.thisN,EPracticeOuterLoop.thisIndex,EPracticeInnerLoop.thisRepN,EPracticeInnerLoop.thisTrialN,EPracticeInnerLoop.thisN,EPracticeInnerLoop.thisIndex,MasterLoop.thisRepN,MasterLoop.thisTrialN,MasterLoop.thisN,MasterLoop.thisIndex,OuterLoop.thisRepN,OuterLoop.thisTrialN,OuterLoop.thisN,OuterLoop.thisIndex,InnerLoop.thisRepN,InnerLoop.thisTrialN,InnerLoop.thisN,InnerLoop.thisIndex,text_13.started,text_13.stopped,key_resp_10.keys,key_resp_10.rt,key_resp_10.started,key_resp_10.stopped,text4.started,text4.stopped,EmotionTaskInstructions1.keys,EmotionTaskInstructions1.rt,EmotionTaskInstructions1.started,EmotionTaskInstructions1.stopped,text_4.started,text_4.stopped,key_resp_5.keys,key_resp_5.rt,key_resp_5.started,key_resp_5.stopped,Text_14.started,Text_14.stopped,key_resp_9.keys,key_resp_9.rt,key_resp_9.started,key_resp_9.stopped,text_5.started,text_5.stopped,text_6.started,text_6.stopped,key_resp_7.keys,key_resp_7.rt,key_resp_7.started,key_resp_7.stopped,text_10.started,text_10.stopped,text_11.started,text_11.stopped,text_12.started,text_12.stopped,ISIjitterPractice,EPracticeISIMarker.started,EPracticeISIMarker.stopped,Pract.keys,Pract.corr,Pract.started,Pract.stopped,PracticeFace.started,PracticeFace.stopped,ColourPractice.started,ColourPractice.stopped,text_7.started,text_7.stopped,Pract.rt,EndOfPractice.started,EndOfPractice.stopped,key_resp_8.keys,key_resp_8.rt,key_resp_8.started,key_resp_8.stopped,text_8.started,text_8.stopped,key_resp_6.keys,key_resp_6.rt,key_resp_6.started,key_resp_6.stopped,text_2.started,text_2.stopped,text_3.started,text_3.stopped,key_resp_3.keys,key_resp_3.rt,key_resp_3.started,key_resp_3.stopped,TaskBlock.started,TaskBlock.stopped,BlockNo1.started,BlockNo1.stopped,OfBlock.started,OfBlock.stopped,ISIjitter,ISImarker.started,ISImarker.stopped,key_resp.keys,key_resp.corr,key_resp.rt,key_resp.started,key_resp.stopped,FaceSet.started,FaceSet.stopped,Colour.started,Colour.stopped,EndBlockText.started,EndBlockText.stopped,key_resp_4.keys,key_resp_4.rt,key_resp_4.started,key_resp_4.stopped,BreakText2.started,BreakText2.stopped,PressToContinue.started,PressToContinue.stopped,participant,Study Name,Task Version (required to run),PRE/POST,date,expName,psychopyVersion,frameRate,
,,,,,,,,,,,,,,,,,,,,,,,,,,,,,,,,,48.49126520007849,None,space,208.98514069989324,49.48018450010568,None,,,,,,,,,,,,,,,,,,,,,,,,,,,,,,,,,,,,,,,,,,,,,,,,,,,,,,,,,,,,,,,,,,,,,,,,,,,,,,,,,,,,,,,,,,,,,,,P009,fencog,1,Pre,2021_Aug_10_1058,Go No-Go Task,2021.1.4,120.3451984982374,
,,,,,,,,,,,,,,,,,,,,,,,,,,,,,,,,,,,,,,,259.97535650013015,None,space,28.473802800290287,259.97535650013015,None,,,,,,,,,,,,,,,,,,,,,,,,,,,,,,,,,,,,,,,,,,,,,,,,,,,,,,,,,,,,,,,,,,,,,,,,,,,,,,,,,,,,,,,,,P009,fencog,1,Pre,2021_Aug_10_1058,Go No-Go Task,2021.1.4,120.3451984982374,
,,,,,,,,,,,,,,,,,,,,,,,,,,,,,,,,,,,,,,,,,,,,,288.51424250006676,None,space,18.647144000045955,288.51424250006676,None,,,,,,,,,,,,,,,,,,,,,,,,,,,,,,,,,,,,,,,,,,,,,,,,,,,,,,,,,,,,,,,,,,,,,,,,,,,,,,,,,,,P009,fencog,1,Pre,2021_Aug_10_1058,Go No-Go Task,2021.1.4,120.3451984982374,
,,,,,,,,,,,,,,,,,,,,,,,,,,,,,,,,,,,,,,,,,,,,,,,,,,,307.1715538999997,None,space,18.733594000339508,307.1715538999997,None,,,,,,,,,,,,,,,,,,,,,,,,,,,,,,,,,,,,,,,,,,,,,,,,,,,,,,,,,,,,,,,,,,,,,,,,,,,,,P009,fencog,1,Pre,2021_Aug_10_1058,Go No-Go Task,2021.1.4,120.3451984982374,
EPracticeConditions/BlueEyes.csv,"Rule: When you see a blue image, do not press 'spacebar'.",Images/Happy/BM08_HO.jpg,Happy,Yellow,Images/Yellow.jpg,space,,,,,,,0,0,0,0,0,0,0,3,,,,,,,,,,,,,,,,,,,,,,,,,,,,,,,,,,,,,325.9785107001662,None,328.9644579999149,None,space,9.260715399868786,328.9644579999149,None,325.9785107001662,None,325.9785107001662,None,325.9785107001662,None,1.7,338.3303033001721,None,None,0,340.17611770005897,None,340.17611770005897,None,340.17611770005897,None,341.719045100268,None,,,,,,,,,,,,,,,,,,,,,,,,,,,,,,,,,,,,,,,,,,,,,,,,,,P009,fencog,1,Pre,2021_Aug_10_1058,Go No-Go Task,2021.1.4,120.3451984982374,
EPracticeConditions/BlueEyes.csv,"Rule: When you see a blue image, do not press 'spacebar'.",Images/Fearful/AF01_FO.jpg,Fear,Blue,Images/Blue.jpg,None,,,,,,,0,0,0,0,0,1,1,1,,,,,,,,,,,,,,,,,,,,,,,,,,,,,,,,,,,,,,,,,,,,,,,,,,,1.2,343.0696724001318,None,space,0,344.37701479997486,None,344.37701479997486,None,344.37701479997486,None,345.2928141001612,None,0.2798925000242889,,,,,,,,,,,,,,,,,,,,,,,,,,,,,,,,,,,,,,,,,,,,,,,,,P009,fencog,1,Pre,2021_Aug_10_1058,Go No-Go Task,2021.1.4,120.3451984982374,
EPracticeConditions/BlueEyes.csv,"Rule: When you see a blue image, do not press 'spacebar'.",Images/Happy/HF05_HO.jpg,Happy,Yellow,Images/Yellow.jpg,space,,,,,,,0,0,0,0,0,2,2,5,,,,,,,,,,,,,,,,,,,,,,,,,,,,,,,,,,,,,,,,,,,,,,,,,,,1.4,347.2837963998318,None,None,0,348.7848926000297,None,348.7848926000297,None,348.7848926000297,None,349.6838631001301,None,,,,,,,,,,,,,,,,,,,,,,,,,,,,,,,,,,,,,,,,,,,,,,,,,,P009,fencog,1,Pre,2021_Aug_10_1058,Go No-Go Task,2021.1.4,120.3451984982374,
EPracticeConditions/BlueEyes.csv,"Rule: When you see a blue image, do not press 'spacebar'.",Images/Happy/HF04_HE.jpg,Happy,Yellow,Images/Yellow.jpg,space,,,,,,,0,0,0,0,0,3,3,4,,,,,,,,,,,,,,,,,,,,,,,,,,,,,,,,,,,,,,,,,,,,,,,,,,,1.8,351.69162870012224,None,space,1,353.59941420005634,None,353.59941420005634,None,353.59941420005634,None,354.5076855998486,None,0.17002600012347102,,,,,,,,,,,,,,,,,,,,,,,,,,,,,,,,,,,,,,,,,,,,,,,,,P009,fencog,1,Pre,2021_Aug_10_1058,Go No-Go Task,2021.1.4,120.3451984982374,
EPracticeConditions/BlueEyes.csv,"Rule: When you see a blue image, do not press 'spacebar'.",Images/Happy/HF09_HE.jpg,Happy,Yellow,Images/Yellow.jpg,space,,,,,,,0,0,0,0,0,4,4,6,,,,,,,,,,,,,,,,,,,,,,,,,,,,,,,,,,,,,,,,,,,,,,,,,,,1.9,356.5089918002486,None,space,1,358.51467900024727,None,358.51467900024727,None,358.51467900024727,None,359.40697390027344,None,0.3593335999175906,,,,,,,,,,,,,,,,,,,,,,,,,,,,,,,,,,,,,,,,,,,,,,,,,P009,fencog,1,Pre,2021_Aug_10_1058,Go No-Go Task,2021.1.4,120.3451984982374,
EPracticeConditions/BlueEyes.csv,"Rule: When you see a blue image, do not press 'spacebar'.",Images/Happy/HF10_HE.jpg,Happy,Yellow,Images/Yellow.jpg,space,,,,,,,0,0,0,0,0,5,5,7,,,,,,,,,,,,,,,,,,,,,,,,,,,,,,,,,,,,,,,,,,,,,,,,,,,1.5,361.4174361000769,None,None,0,363.01319780014455,None,363.01319780014455,None,363.01319780014455,None,363.9146457002498,None,,,,,,,,,,,,,,,,,,,,,,,,,,,,,,,,,,,,,,,,,,,,,,,,,,P009,fencog,1,Pre,2021_Aug_10_1058,Go No-Go Task,2021.1.4,120.3451984982374,
EPracticeConditions/BlueEyes.csv,"Rule: When you see a blue image, do not press 'spacebar'.",Images/Happy/BM02_HO.jpg,Happy,Yellow,Images/Yellow.jpg,space,,,,,,,0,0,0,0,0,6,6,2,,,,,,,,,,,,,,,,,,,,,,,,,,,,,,,,,,,,,,,,,,,,,,,,,,,1.6,365.9209282002412,None,space,1,367.62868590001017,None,367.62868590001017,None,367.62868590001017,None,368.5330110001378,None,0.26825999980792403,,,,,,,,,,,,,,,,,,,,,,,,,,,,,,,,,,,,,,,,,,,,,,,,,P009,fencog,1,Pre,2021_Aug_10_1058,Go No-Go Task,2021.1.4,120.3451984982374,
EPracticeConditions/BlueEyes.csv,"Rule: When you see a blue image, do not press 'spacebar'.",Images/Fearful/HM09_FC.jpg,Fear,Blue,Images/Blue.jpg,None,,,,,,,0,0,0,0,0,7,7,0,,,,,,,,,,,,,,,,,,,,,,,,,,,,,,,,,,,,,,,,,,,,,,,,,,,1.3,370.53528880001977,None,None,1,371.92745249997824,None,371.92745249997824,None,371.92745249997824,None,372.8220235002227,None,,,,,,,,,,,,,,,,,,,,,,,,,,,,,,,,,,,,,,,,,,,,,,,,,,P009,fencog,1,Pre,2021_Aug_10_1058,Go No-Go Task,2021.1.4,120.3451984982374,
EPracticeConditions/BlueEyes.csv,"Rule: When you see a blue image, do not press 'spacebar'.",,,,,,,,,,,,0,0,0,0,,,,,,,,,,,,,,,,,,,,,,,,,,,,,,,,,,,,,,,,,,,,,,,,,,,,,,,,,,,,,,,,,,,,,,,,,,,,,,,,,,,,,,,,,,,,,,,,,,,,,,,,,,,,,,,,,,,,,P009,fencog,1,Pre,2021_Aug_10_1058,Go No-Go Task,2021.1.4,120.3451984982374,
EPracticeConditions/YellowEyes.csv,"Rule: When you see a yellow image, do not press 'spacebar'.",Images/Happy/AM32HAS.jpg,Happy,Yellow,Images/Yellow.jpg,None,,,,,,,0,1,1,1,0,0,0,0,,,,,,,,,,,,,,,,,,,,,,,,,,,,,,,,,,,,,374.84705570014194,None,377.84185079997405,None,space,2.9671911001205444,377.84185079997405,None,374.84705570014194,None,374.84705570014194,None,374.84705570014194,None,1.8,380.830737600103,None,None,1,382.7325984002091,None,382.7325984002091,None,382.7325984002091,None,383.63359720027074,None,,,,,,,,,,,,,,,,,,,,,,,,,,,,,,,,,,,,,,,,,,,,,,,,,,P009,fencog,1,Pre,2021_Aug_10_1058,Go No-Go Task,2021.1.4,120.3451984982374,
EPracticeConditions/YellowEyes.csv,"Rule: When you see a yellow image, do not press 'spacebar'.",Images/Fearful/AM16AFS.jpg,Fear,Blue,Images/Blue.jpg,space,,,,,,,0,1,1,1,0,1,1,2,,,,,,,,,,,,,,,,,,,,,,,,,,,,,,,,,,,,,,,,,,,,,,,,,,,1.9,385.6391170001589,None,None,0,387.63940790016204,None,387.63940790016204,None,387.63940790016204,None,388.5458384002559,None,,,,,,,,,,,,,,,,,,,,,,,,,,,,,,,,,,,,,,,,,,,,,,,,,,P009,fencog,1,Pre,2021_Aug_10_1058,Go No-Go Task,2021.1.4,120.3451984982374,
EPracticeConditions/YellowEyes.csv,"Rule: When you see a yellow image, do not press 'spacebar'.",Images/Fearful/AM22AFS.jpg,Fear,Blue,Images/Blue.jpg,space,,,,,,,0,1,1,1,0,2,2,5,,,,,,,,,,,,,,,,,,,,,,,,,,,,,,,,,,,,,,,,,,,,,,,,,,,1.6,390.5483734998852,None,space,1,392.25456740008667,None,392.25456740008667,None,392.25456740008667,None,393.15930199995637,None,0.31460969988256693,,,,,,,,,,,,,,,,,,,,,,,,,,,,,,,,,,,,,,,,,,,,,,,,,P009,fencog,1,Pre,2021_Aug_10_1058,Go No-Go Task,2021.1.4,120.3451984982374,
EPracticeConditions/YellowEyes.csv,"Rule: When you see a yellow image, do not press 'spacebar'.",Images/Fearful/AM17AFS.jpg,Fear,Blue,Images/Blue.jpg,space,,,,,,,0,1,1,1,0,3,3,3,,,,,,,,,,,,,,,,,,,,,,,,,,,,,,,,,,,,,,,,,,,,,,,,,,,1.5,395.1621519001201,None,space,1,396.7615299001336,None,396.7615299001336,None,396.7615299001336,None,397.6538642998785,None,0.35948009975254536,,,,,,,,,,,,,,,,,,,,,,,,,,,,,,,,,,,,,,,,,,,,,,,,,P009,fencog,1,Pre,2021_Aug_10_1058,Go No-Go Task,2021.1.4,120.3451984982374,
EPracticeConditions/YellowEyes.csv,"Rule: When you see a yellow image, do not press 'spacebar'.",Images/Happy/BF05_HO.jpg,Happy,Yellow,Images/Yellow.jpg,None,,,,,,,0,1,1,1,0,4,4,1,,,,,,,,,,,,,,,,,,,,,,,,,,,,,,,,,,,,,,,,,,,,,,,,,,,1.4,399.66299130022526,None,None,1,401.16039490001276,None,401.16039490001276,None,401.16039490001276,None,402.0556000000797,None,,,,,,,,,,,,,,,,,,,,,,,,,,,,,,,,,,,,,,,,,,,,,,,,,,P009,fencog,1,Pre,2021_Aug_10_1058,Go No-Go Task,2021.1.4,120.3451984982374,
EPracticeConditions/YellowEyes.csv,"Rule: When you see a yellow image, do not press 'spacebar'.",Images/Fearful/AM19AFS.jpg,Fear,Blue,Images/Blue.jpg,space,,,,,,,0,1,1,1,0,5,5,4,,,,,,,,,,,,,,,,,,,,,,,,,,,,,,,,,,,,,,,,,,,,,,,,,,,1.2,404.0586995999329,None,None,0,405.3591753002256,None,405.3591753002256,None,405.3591753002256,None,406.26363610010594,None,,,,,,,,,,,,,,,,,,,,,,,,,,,,,,,,,,,,,,,,,,,,,,,,,,P009,fencog,1,Pre,2021_Aug_10_1058,Go No-Go Task,2021.1.4,120.3451984982374,
EPracticeConditions/YellowEyes.csv,"Rule: When you see a yellow image, do not press 'spacebar'.",Images/Fearful/AM24AFS.jpg,Fear,Blue,Images/Blue.jpg,space,,,,,,,0,1,1,1,0,6,6,7,,,,,,,,,,,,,,,,,,,,,,,,,,,,,,,,,,,,,,,,,,,,,,,,,,,1.7,408.26556820003316,None,None,0,410.0660721999593,None,410.0660721999593,None,410.0660721999593,None,410.9623099002056,None,,,,,,,,,,,,,,,,,,,,,,,,,,,,,,,,,,,,,,,,,,,,,,,,,,P009,fencog,1,Pre,2021_Aug_10_1058,Go No-Go Task,2021.1.4,120.3451984982374,
EPracticeConditions/YellowEyes.csv,"Rule: When you see a yellow image, do not press 'spacebar'.",Images/Fearful/AM23AFS.jpg,Fear,Blue,Images/Blue.jpg,space,,,,,,,0,1,1,1,0,7,7,6,,,,,,,,,,,,,,,,,,,,,,,,,,,,,,,,,,,,,,,,,,,,,,,,,,,1.3,412.9680721000768,None,space,1,414.3731693001464,None,414.3731693001464,None,414.3731693001464,None,415.26330240024254,None,0.36403869977220893,,,,,,,,,,,,,,,,,,,,,,,,,,,,,,,,,,,,,,,,,,,,,,,,,P009,fencog,1,Pre,2021_Aug_10_1058,Go No-Go Task,2021.1.4,120.3451984982374,
EPracticeConditions/YellowEyes.csv,"Rule: When you see a yellow image, do not press 'spacebar'.",,,,,,,,,,,,0,1,1,1,,,,,,,,,,,,,,,,,,,,,,,,,,,,,,,,,,,,,,,,,,,,,,,,,,,,,,,,,,,,,,,,,,,,,,,,,,,,,,,,,,,,,,,,,,,,,,,,,,,,,,,,,,,,,,,,,,,,,P009,fencog,1,Pre,2021_Aug_10_1058,Go No-Go Task,2021.1.4,120.3451984982374,
EPracticeConditions/BlueScram.csv,"Rule: When you see a blue image, do not press 'spacebar'.",Images/Scram1/AM03NES.jpg,Scramble,Yellow,Images/Yellow.jpg,space,,,,,,,0,2,2,2,0,0,0,4,,,,,,,,,,,,,,,,,,,,,,,,,,,,,,,,,,,,,417.28075229981914,None,420.2708172001876,None,space,3.985991900321096,420.2708172001876,None,417.28075229981914,None,417.28075229981914,None,417.28075229981914,None,1.9,424.2841906999238,None,space,1,426.28622440015897,None,426.28622440015897,None,426.28622440015897,None,427.182032499928,None,0.37914450000971556,,,,,,,,,,,,,,,,,,,,,,,,,,,,,,,,,,,,,,,,,,,,,,,,,P009,fencog,1,Pre,2021_Aug_10_1058,Go No-Go Task,2021.1.4,120.3451984982374,
EPracticeConditions/BlueScram.csv,"Rule: When you see a blue image, do not press 'spacebar'.",Images/Scram1/AM04_NC.jpg,Scramble,Yellow,Images/Yellow.jpg,space,,,,,,,0,2,2,2,0,1,1,3,,,,,,,,,,,,,,,,,,,,,,,,,,,,,,,,,,,,,,,,,,,,,,,,,,,1.4,429.18699380010366,None,None,0,430.69338210020214,None,430.69338210020214,None,430.69338210020214,None,431.5999059001915,None,,,,,,,,,,,,,,,,,,,,,,,,,,,,,,,,,,,,,,,,,,,,,,,,,,P009,fencog,1,Pre,2021_Aug_10_1058,Go No-Go Task,2021.1.4,120.3451984982374,
EPracticeConditions/BlueScram.csv,"Rule: When you see a blue image, do not press 'spacebar'.",Images/Scram1/BM08_NC.jpg,Scramble,Blue,Images/Blue.jpg,None,,,,,,,0,2,2,2,0,2,2,0,,,,,,,,,,,,,,,,,,,,,,,,,,,,,,,,,,,,,,,,,,,,,,,,,,,1.6,433.59971609991044,None,None,1,435.30036980006844,None,435.30036980006844,None,435.30036980006844,None,436.2045513000339,None,,,,,,,,,,,,,,,,,,,,,,,,,,,,,,,,,,,,,,,,,,,,,,,,,,P009,fencog,1,Pre,2021_Aug_10_1058,Go No-Go Task,2021.1.4,120.3451984982374,
EPracticeConditions/BlueScram.csv,"Rule: When you see a blue image, do not press 'spacebar'.",Images/Scram1/BF18_NC.jpg,Scramble,Blue,Images/Blue.jpg,None,,,,,,,0,2,2,2,0,3,3,1,,,,,,,,,,,,,,,,,,,,,,,,,,,,,,,,,,,,,,,,,,,,,,,,,,,1.8,438.20675919996575,None,space,0,440.1072010002099,None,440.1072010002099,None,440.1072010002099,None,441.01259719999507,None,0.2858853000216186,,,,,,,,,,,,,,,,,,,,,,,,,,,,,,,,,,,,,,,,,,,,,,,,,P009,fencog,1,Pre,2021_Aug_10_1058,Go No-Go Task,2021.1.4,120.3451984982374,
EPracticeConditions/BlueScram.csv,"Rule: When you see a blue image, do not press 'spacebar'.",Images/Scram2/AF25NES.jpg,Scramble,Yellow,Images/Yellow.jpg,space,,,,,,,0,2,2,2,0,4,4,7,,,,,,,,,,,,,,,,,,,,,,,,,,,,,,,,,,,,,,,,,,,,,,,,,,,1.7,443.0136950998567,None,None,0,444.81422690022737,None,444.81422690022737,None,444.81422690022737,None,445.7215102999471,None,,,,,,,,,,,,,,,,,,,,,,,,,,,,,,,,,,,,,,,,,,,,,,,,,,P009,fencog,1,Pre,2021_Aug_10_1058,Go No-Go Task,2021.1.4,120.3451984982374,
EPracticeConditions/BlueScram.csv,"Rule: When you see a blue image, do not press 'spacebar'.",Images/Scram2/AM03_NC.jpg,Scramble,Yellow,Images/Yellow.jpg,space,,,,,,,0,2,2,2,0,5,5,6,,,,,,,,,,,,,,,,,,,,,,,,,,,,,,,,,,,,,,,,,,,,,,,,,,,1.3,447.72070380020887,None,space,1,449.12116170022637,None,449.12116170022637,None,449.12116170022637,None,450.0228591999039,None,0.2799341999925673,,,,,,,,,,,,,,,,,,,,,,,,,,,,,,,,,,,,,,,,,,,,,,,,,P009,fencog,1,Pre,2021_Aug_10_1058,Go No-Go Task,2021.1.4,120.3451984982374,
EPracticeConditions/BlueScram.csv,"Rule: When you see a blue image, do not press 'spacebar'.",Images/Scram2/AF10_NC.jpg,Scramble,Yellow,Images/Yellow.jpg,space,,,,,,,0,2,2,2,0,6,6,2,,,,,,,,,,,,,,,,,,,,,,,,,,,,,,,,,,,,,,,,,,,,,,,,,,,1.5,452.027726800181,None,space,1,453.6282421001233,None,453.6282421001233,None,453.6282421001233,None,454.52497010026127,None,0.2526184003800154,,,,,,,,,,,,,,,,,,,,,,,,,,,,,,,,,,,,,,,,,,,,,,,,,P009,fencog,1,Pre,2021_Aug_10_1058,Go No-Go Task,2021.1.4,120.3451984982374,
EPracticeConditions/BlueScram.csv,"Rule: When you see a blue image, do not press 'spacebar'.",Images/Scram1/AM13NES.jpg,Scramble,Yellow,Images/Yellow.jpg,space,,,,,,,0,2,2,2,0,7,7,5,,,,,,,,,,,,,,,,,,,,,,,,,,,,,,,,,,,,,,,,,,,,,,,,,,,1.2,456.5311520998366,None,None,0,457.83534110011533,None,457.83534110011533,None,457.83534110011533,None,458.73822419997305,None,,,,,,,,,,,,,,,,,,,,,,,,,,,,,,,,,,,,,,,,,,,,,,,,,,P009,fencog,1,Pre,2021_Aug_10_1058,Go No-Go Task,2021.1.4,120.3451984982374,
EPracticeConditions/BlueScram.csv,"Rule: When you see a blue image, do not press 'spacebar'.",,,,,,,,,,,,0,2,2,2,,,,,,,,,,,,,,,,,,,,,,,,,,,,,,,,,,,,,,,,,,,,,,,,,,,,,,,,,,,,,,,,,,,,,,,,,,,,,,,,,,,,,,,,,,,,,,,,,,,,,,,,,,,,,,,,,,,,,P009,fencog,1,Pre,2021_Aug_10_1058,Go No-Go Task,2021.1.4,120.3451984982374,
EPracticeConditions/YellowScram.csv,"Rule: When you see a yellow image, do not press 'spacebar'.",Images/Scram1/AF10_NC.jpg,Scramble,Blue,Images/Blue.jpg,space,,,,,,,0,3,3,3,0,0,0,6,,,,,,,,,,,,,,,,,,,,,,,,,,,,,,,,,,,,,460.75551280006766,None,463.7413178998977,None,space,0.5315709998831153,463.7413178998977,None,460.75551280006766,None,460.75551280006766,None,460.75551280006766,None,1.4,464.2914225002751,None,None,0,465.7913386998698,None,465.7913386998698,None,465.7913386998698,None,466.68894929997623,None,,,,,,,,,,,,,,,,,,,,,,,,,,,,,,,,,,,,,,,,,,,,,,,,,,P009,fencog,1,Pre,2021_Aug_10_1058,Go No-Go Task,2021.1.4,120.3451984982374,
EPracticeConditions/YellowScram.csv,"Rule: When you see a yellow image, do not press 'spacebar'.",Images/Scram2/AM03NES.jpg,Scramble,Yellow,Images/Yellow.jpg,None,,,,,,,0,3,3,3,0,1,1,1,,,,,,,,,,,,,,,,,,,,,,,,,,,,,,,,,,,,,,,,,,,,,,,,,,,1.7,468.692460199818,None,None,1,470.498274799902,None,470.498274799902,None,470.498274799902,None,471.4025405002758,None,,,,,,,,,,,,,,,,,,,,,,,,,,,,,,,,,,,,,,,,,,,,,,,,,,P009,fencog,1,Pre,2021_Aug_10_1058,Go No-Go Task,2021.1.4,120.3451984982374,
EPracticeConditions/YellowScram.csv,"Rule: When you see a yellow image, do not press 'spacebar'.",Images/Scram1/BM01_NC.jpg,Scramble,Blue,Images/Blue.jpg,space,,,,,,,0,3,3,3,0,2,2,5,,,,,,,,,,,,,,,,,,,,,,,,,,,,,,,,,,,,,,,,,,,,,,,,,,,1.2,473.40465030027553,None,None,0,474.7053747000173,None,474.7053747000173,None,474.7053747000173,None,475.6126270000823,None,,,,,,,,,,,,,,,,,,,,,,,,,,,,,,,,,,,,,,,,,,,,,,,,,,P009,fencog,1,Pre,2021_Aug_10_1058,Go No-Go Task,2021.1.4,120.3451984982374,
EPracticeConditions/YellowScram.csv,"Rule: When you see a yellow image, do not press 'spacebar'.",Images/Scram1/AF24NES.jpg,Scramble,Blue,Images/Blue.jpg,space,,,,,,,0,3,3,3,0,3,3,7,,,,,,,,,,,,,,,,,,,,,,,,,,,,,,,,,,,,,,,,,,,,,,,,,,,1.8,477.6118685998954,None,space,1,479.5040792999789,None,479.5040792999789,None,479.5040792999789,None,480.40938440011814,None,0.28165849996730685,,,,,,,,,,,,,,,,,,,,,,,,,,,,,,,,,,,,,,,,,,,,,,,,,P009,fencog,1,Pre,2021_Aug_10_1058,Go No-Go Task,2021.1.4,120.3451984982374,
EPracticeConditions/YellowScram.csv,"Rule: When you see a yellow image, do not press 'spacebar'.",Images/Scram1/HF04_NC.jpg,Scramble,Blue,Images/Blue.jpg,space,,,,,,,0,3,3,3,0,4,4,2,,,,,,,,,,,,,,,,,,,,,,,,,,,,,,,,,,,,,,,,,,,,,,,,,,,1.6,482.4140678001568,None,space,1,484.1192264999263,None,484.1192264999263,None,484.1192264999263,None,485.0176543002017,None,0.2583193997852504,,,,,,,,,,,,,,,,,,,,,,,,,,,,,,,,,,,,,,,,,,,,,,,,,P009,fencog,1,Pre,2021_Aug_10_1058,Go No-Go Task,2021.1.4,120.3451984982374,
EPracticeConditions/YellowScram.csv,"Rule: When you see a yellow image, do not press 'spacebar'.",Images/Scram2/HM06_NC.jpg,Scramble,Yellow,Images/Yellow.jpg,None,,,,,,,0,3,3,3,0,5,5,0,,,,,,,,,,,,,,,,,,,,,,,,,,,,,,,,,,,,,,,,,,,,,,,,,,,1.3,487.01756040006876,None,None,1,488.4180069002323,None,488.4180069002323,None,488.4180069002323,None,489.31200060015544,None,,,,,,,,,,,,,,,,,,,,,,,,,,,,,,,,,,,,,,,,,,,,,,,,,,P009,fencog,1,Pre,2021_Aug_10_1058,Go No-Go Task,2021.1.4,120.3451984982374,
EPracticeConditions/YellowScram.csv,"Rule: When you see a yellow image, do not press 'spacebar'.",Images/Scram1/AF07NES.jpg,Scramble,Blue,Images/Blue.jpg,space,,,,,,,0,3,3,3,0,6,6,3,,,,,,,,,,,,,,,,,,,,,,,,,,,,,,,,,,,,,,,,,,,,,,,,,,,1.5,491.3178634000942,None,space,1,492.9333128002472,None,492.9333128002472,None,492.9333128002472,None,493.8263157000765,None,0.2836755998432636,,,,,,,,,,,,,,,,,,,,,,,,,,,,,,,,,,,,,,,,,,,,,,,,,P009,fencog,1,Pre,2021_Aug_10_1058,Go No-Go Task,2021.1.4,120.3451984982374,
EPracticeConditions/YellowScram.csv,"Rule: When you see a yellow image, do not press 'spacebar'.",Images/Scram1/AF30NES.JPG,Scramble,Blue,Images/Blue.jpg,space,,,,,,,0,3,3,3,0,7,7,4,,,,,,,,,,,,,,,,,,,,,,,,,,,,,,,,,,,,,,,,,,,,,,,,,,,1.9,495.8313457001932,None,None,0,497.83191550010815,None,497.83191550010815,None,497.83191550010815,None,498.73055770015344,None,,,,,,,,,,,,,,,,,,,,,,,,,,,,,,,,,,,,,,,,,,,,,,,,,,P009,fencog,1,Pre,2021_Aug_10_1058,Go No-Go Task,2021.1.4,120.3451984982374,
EPracticeConditions/YellowScram.csv,"Rule: When you see a yellow image, do not press 'spacebar'.",,,,,,,,,,,,0,3,3,3,,,,,,,,,,,,,,,,,,,,,,,,,,,,,,,,,,,,,,,,,,,,,,,,,,,,,,,,,,,,,,,,,,,,,,,,,,,,,,,,,,,,,,,,,,,,,,,,,,,,,,,,,,,,,,,,,,,,,P009,fencog,1,Pre,2021_Aug_10_1058,Go No-Go Task,2021.1.4,120.3451984982374,
,,,,,,,,,,,,,,,,,,,,,,,,,,,,,,,,,,,,,,,,,,,,,,,,,,,,,,,,,,,,,,,,,,,,,,,,,,,,,,,,,,,,,501.9647404002026,None,space,33.1623341999948,502.44633689988405,None,,,,,,,,,,,,,,,,,,,,,,,,,,,,,,,,,,,,,,,,,,,P009,fencog,1,Pre,2021_Aug_10_1058,Go No-Go Task,2021.1.4,120.3451984982374,
,,,,,,,,,,,,,,,,,,,,,,,,,,,,,,,,,,,,,,,,,,,,,,,,,,,,,,,,,,,,,,,,,,,,,,,,,,,,,,,,,,,,,,,,,,,535.6215292001143,None,space,7.643469300121069,535.6215292001143,None,,,,,,,,,,,,,,,,,,,,,,,,,,,,,,,,,,,,,P009,fencog,1,Pre,2021_Aug_10_1058,Go No-Go Task,2021.1.4,120.3451984982374,
,"Rule: When you see a yellow image, do not press 'spacebar'.",Images/Happy/BF09_HO.jpg,Happy,Blue,Images/Blue.jpg,space,ParentConditions/YellowYellowBlue_v1.xlsx,YellowYellowBlue,Conditions/Version_1/YellowFearStop.xlsx,no,PASS,0.8264186213388923,,,,,,,,,0,0,0,1,0,0,0,0,0,0,0,0,,,,,,,,,,,,,,,,,,,,,,,,,,,,,,,,,,,,,,,,,,,,,,,,,,,,,,,,,,,,,,,,,543.3432832001708,None,546.3336471999064,None,space,0.9871395998634398,546.3336471999064,None,543.3432832001708,None,543.3432832001708,None,543.3432832001708,None,1.82,547.369664600119,None,space,1,0.34891519974917173,549.2915969002061,None,549.2915969002061,None,549.2915969002061,None,,,,,,,,,,,P009,fencog,1,Pre,2021_Aug_10_1058,Go No-Go Task,2021.1.4,120.3451984982374,
,"Rule: When you see a yellow image, do not press 'spacebar'.",Images/Happy/AF30HAS.jpg,Happy,Blue,Images/Blue.jpg,space,ParentConditions/YellowYellowBlue_v1.xlsx,YellowYellowBlue,Conditions/Version_1/YellowFearStop.xlsx,no,PASS,0.17577164693776992,,,,,,,,,0,0,0,1,0,0,0,0,0,1,1,1,,,,,,,,,,,,,,,,,,,,,,,,,,,,,,,,,,,,,,,,,,,,,,,,,,,,,,,,,,,,,,,,,,,,,,,,,,,,,,,1.37,549.6999178999104,None,space,1,0.2981576998718083,551.1827587001026,None,551.1827587001026,None,551.1827587001026,None,,,,,,,,,,,P009,fencog,1,Pre,2021_Aug_10_1058,Go No-Go Task,2021.1.4,120.3451984982374,
,"Rule: When you see a yellow image, do not press 'spacebar'.",Images/Happy/AF27HAS.jpg,Happy,Blue,Images/Blue.jpg,space,ParentConditions/YellowYellowBlue_v1.xlsx,YellowYellowBlue,Conditions/Version_1/YellowFearStop.xlsx,no,PASS,0.9530234186227198,,,,,,,,,0,0,0,1,0,0,0,0,0,2,2,2,,,,,,,,,,,,,,,,,,,,,,,,,,,,,,,,,,,,,,,,,,,,,,,,,,,,,,,,,,,,,,,,,,,,,,,,,,,,,,,1.7,551.5829751002602,None,space,1,0.2190685998648405,553.3904483001679,None,553.3904483001679,None,553.3904483001679,None,,,,,,,,,,,P009,fencog,1,Pre,2021_Aug_10_1058,Go No-Go Task,2021.1.4,120.3451984982374,
,"Rule: When you see a yellow image, do not press 'spacebar'.",Images/Happy/AF22HAS.jpg,Happy,Blue,Images/Blue.jpg,space,ParentConditions/YellowYellowBlue_v1.xlsx,YellowYellowBlue,Conditions/Version_1/YellowFearStop.xlsx,no,PASS,0.38244231072686263,,,,,,,,,0,0,0,1,0,0,0,0,0,3,3,3,,,,,,,,,,,,,,,,,,,,,,,,,,,,,,,,,,,,,,,,,,,,,,,,,,,,,,,,,,,,,,,,,,,,,,,,,,,,,,,1.36,553.7920685000718,None,space,1,0.20844459999352694,555.256462499965,None,555.256462499965,None,555.256462499965,None,,,,,,,,,,,P009,fencog,1,Pre,2021_Aug_10_1058,Go No-Go Task,2021.1.4,120.3451984982374,
,"Rule: When you see a yellow image, do not press 'spacebar'.",Images/Happy/WM11_HC.jpg,Happy,Blue,Images/Blue.jpg,space,ParentConditions/YellowYellowBlue_v1.xlsx,YellowYellowBlue,Conditions/Version_1/YellowFearStop.xlsx,no,PASS,0.4646194175443181,,,,,,,,,0,0,0,1,0,0,0,0,0,4,4,4,,,,,,,,,,,,,,,,,,,,,,,,,,,,,,,,,,,,,,,,,,,,,,,,,,,,,,,,,,,,,,,,,,,,,,,,,,,,,,,1.46,555.6571133001707,None,space,1,0.32261009979993105,557.2225413001142,None,557.2225413001142,None,557.2225413001142,None,,,,,,,,,,,P009,fencog,1,Pre,2021_Aug_10_1058,Go No-Go Task,2021.1.4,120.3451984982374,
,"Rule: When you see a yellow image, do not press 'spacebar'.",Images/Happy/BF05_HO.jpg,Happy,Blue,Images/Blue.jpg,space,ParentConditions/YellowYellowBlue_v1.xlsx,YellowYellowBlue,Conditions/Version_1/YellowFearStop.xlsx,no,PASS,0.7872072262972759,,,,,,,,,0,0,0,1,0,0,0,0,0,5,5,5,,,,,,,,,,,,,,,,,,,,,,,,,,,,,,,,,,,,,,,,,,,,,,,,,,,,,,,,,,,,,,,,,,,,,,,,,,,,,,,1.29,557.6318566999398,None,space,1,0.31469730008393526,559.0221306998283,None,559.0221306998283,None,559.0221306998283,None,,,,,,,,,,,P009,fencog,1,Pre,2021_Aug_10_1058,Go No-Go Task,2021.1.4,120.3451984982374,
,"Rule: When you see a yellow image, do not press 'spacebar'.",Images/Fearful/AM01AFS.jpg,Fear,Yellow,Images/Yellow.jpg,None,ParentConditions/YellowYellowBlue_v1.xlsx,YellowYellowBlue,Conditions/Version_1/YellowFearStop.xlsx,yes,PASS,0.04646585469142872,,,,,,,,,0,0,0,1,0,0,0,0,0,6,6,6,,,,,,,,,,,,,,,,,,,,,,,,,,,,,,,,,,,,,,,,,,,,,,,,,,,,,,,,,,,,,,,,,,,,,,,,,,,,,,,1.98,559.4212152999826,None,space,0,0.20067099994048476,561.5046017002314,None,561.5046017002314,None,561.5046017002314,None,,,,,,,,,,,P009,fencog,1,Pre,2021_Aug_10_1058,Go No-Go Task,2021.1.4,120.3451984982374,
,"Rule: When you see a yellow image, do not press 'spacebar'.",Images/Happy/AF23HAS.jpg,Happy,Blue,Images/Blue.jpg,space,ParentConditions/YellowYellowBlue_v1.xlsx,YellowYellowBlue,Conditions/Version_1/YellowFearStop.xlsx,no,PASS,0.9566897784343521,,,,,,,,,0,0,0,1,0,0,0,0,0,7,7,7,,,,,,,,,,,,,,,,,,,,,,,,,,,,,,,,,,,,,,,,,,,,,,,,,,,,,,,,,,,,,,,,,,,,,,,,,,,,,,,1.77,561.9050277001224,None,space,1,0.3179117999970913,563.7789075998589,None,563.7789075998589,None,563.7789075998589,None,,,,,,,,,,,P009,fencog,1,Pre,2021_Aug_10_1058,Go No-Go Task,2021.1.4,120.3451984982374,
,"Rule: When you see a yellow image, do not press 'spacebar'.",Images/Happy/AM16HAS.jpg,Happy,Blue,Images/Blue.jpg,space,ParentConditions/YellowYellowBlue_v1.xlsx,YellowYellowBlue,Conditions/Version_1/YellowFearStop.xlsx,no,PASS,0.9715962743635901,,,,,,,,,0,0,0,1,0,0,0,0,0,8,8,8,,,,,,,,,,,,,,,,,,,,,,,,,,,,,,,,,,,,,,,,,,,,,,,,,,,,,,,,,,,,,,,,,,,,,,,,,,,,,,,1.73,564.1805651001632,None,space,1,0.24535579979419708,566.0116186998785,None,566.0116186998785,None,566.0116186998785,None,,,,,,,,,,,P009,fencog,1,Pre,2021_Aug_10_1058,Go No-Go Task,2021.1.4,120.3451984982374,
,"Rule: When you see a yellow image, do not press 'spacebar'.",Images/Happy/AM04HAS.jpg,Happy,Blue,Images/Blue.jpg,space,ParentConditions/YellowYellowBlue_v1.xlsx,YellowYellowBlue,Conditions/Version_1/YellowFearStop.xlsx,no,PASS,0.8834532829789966,,,,,,,,,0,0,0,1,0,0,0,0,0,9,9,9,,,,,,,,,,,,,,,,,,,,,,,,,,,,,,,,,,,,,,,,,,,,,,,,,,,,,,,,,,,,,,,,,,,,,,,,,,,,,,,1.68,566.421389600262,None,space,1,0.35836469987407327,568.2026124000549,None,568.2026124000549,None,568.2026124000549,None,,,,,,,,,,,P009,fencog,1,Pre,2021_Aug_10_1058,Go No-Go Task,2021.1.4,120.3451984982374,
,"Rule: When you see a yellow image, do not press 'spacebar'.",Images/Happy/AF26HAS.jpg,Happy,Blue,Images/Blue.jpg,space,ParentConditions/YellowYellowBlue_v1.xlsx,YellowYellowBlue,Conditions/Version_1/YellowFearStop.xlsx,no,PASS,0.1837512616409066,,,,,,,,,0,0,0,1,0,0,0,0,0,10,10,10,,,,,,,,,,,,,,,,,,,,,,,,,,,,,,,,,,,,,,,,,,,,,,,,,,,,,,,,,,,,,,,,,,,,,,,,,,,,,,,1.56,568.6080765998922,None,space,1,0.27648819983005524,570.2686838000081,None,570.2686838000081,None,570.2686838000081,None,,,,,,,,,,,P009,fencog,1,Pre,2021_Aug_10_1058,Go No-Go Task,2021.1.4,120.3451984982374,
,"Rule: When you see a yellow image, do not press 'spacebar'.",Images/Fearful/AF10_FC.jpg,Fear,Yellow,Images/Yellow.jpg,None,ParentConditions/YellowYellowBlue_v1.xlsx,YellowYellowBlue,Conditions/Version_1/YellowFearStop.xlsx,yes,PASS,0.28017183869067563,,,,,,,,,0,0,0,1,0,0,0,0,0,11,11,11,,,,,,,,,,,,,,,,,,,,,,,,,,,,,,,,,,,,,,,,,,,,,,,,,,,,,,,,,,,,,,,,,,,,,,,,,,,,,,,1.42,570.6687778998166,None,None,1,,572.1848174999468,None,572.1848174999468,None,572.1848174999468,None,,,,,,,,,,,P009,fencog,1,Pre,2021_Aug_10_1058,Go No-Go Task,2021.1.4,120.3451984982374,
,"Rule: When you see a yellow image, do not press 'spacebar'.",Images/Fearful/AM09_FO.jpg,Fear,Yellow,Images/Yellow.jpg,None,ParentConditions/YellowYellowBlue_v1.xlsx,YellowYellowBlue,Conditions/Version_1/YellowFearStop.xlsx,yes,PASS,0.6630139915996167,,,,,,,,,0,0,0,1,0,0,0,0,0,12,12,12,,,,,,,,,,,,,,,,,,,,,,,,,,,,,,,,,,,,,,,,,,,,,,,,,,,,,,,,,,,,,,,,,,,,,,,,,,,,,,,2,572.5855907001533,None,space,0,0.21966780023649335,574.6923394999467,None,574.6923394999467,None,574.6923394999467,None,,,,,,,,,,,P009,fencog,1,Pre,2021_Aug_10_1058,Go No-Go Task,2021.1.4,120.3451984982374,
,"Rule: When you see a yellow image, do not press 'spacebar'.",Images/Happy/HM04_HO.jpg,Happy,Blue,Images/Blue.jpg,space,ParentConditions/YellowYellowBlue_v1.xlsx,YellowYellowBlue,Conditions/Version_1/YellowFearStop.xlsx,no,PASS,0.9402314290963173,,,,,,,,,0,0,0,1,0,0,0,0,0,13,13,13,,,,,,,,,,,,,,,,,,,,,,,,,,,,,,,,,,,,,,,,,,,,,,,,,,,,,,,,,,,,,,,,,,,,,,,,,,,,,,,1.55,575.0911377002485,None,space,1,0.3312035002745688,576.7418022998609,None,576.7418022998609,None,576.7418022998609,None,,,,,,,,,,,P009,fencog,1,Pre,2021_Aug_10_1058,Go No-Go Task,2021.1.4,120.3451984982374,
,"Rule: When you see a yellow image, do not press 'spacebar'.",Images/Fearful/AM04_FO.jpg,Fear,Yellow,Images/Yellow.jpg,None,ParentConditions/YellowYellowBlue_v1.xlsx,YellowYellowBlue,Conditions/Version_1/YellowFearStop.xlsx,yes,PASS,0.3100490082037951,,,,,,,,,0,0,0,1,0,0,0,0,0,14,14,14,,,,,,,,,,,,,,,,,,,,,,,,,,,,,,,,,,,,,,,,,,,,,,,,,,,,,,,,,,,,,,,,,,,,,,,,,,,,,,,1.76,577.1422915002331,None,None,1,,579.007446100004,None,579.007446100004,None,579.007446100004,None,,,,,,,,,,,P009,fencog,1,Pre,2021_Aug_10_1058,Go No-Go Task,2021.1.4,120.3451984982374,
,"Rule: When you see a yellow image, do not press 'spacebar'.",Images/Happy/AM13HAS.jpg,Happy,Blue,Images/Blue.jpg,space,ParentConditions/YellowYellowBlue_v1.xlsx,YellowYellowBlue,Conditions/Version_1/YellowFearStop.xlsx,no,PASS,0.44314676907690376,,,,,,,,,0,0,0,1,0,0,0,0,0,15,15,15,,,,,,,,,,,,,,,,,,,,,,,,,,,,,,,,,,,,,,,,,,,,,,,,,,,,,,,,,,,,,,,,,,,,,,,,,,,,,,,1.51,579.4067663000897,None,space,1,0.36803540028631687,581.0321873002686,None,581.0321873002686,None,581.0321873002686,None,,,,,,,,,,,P009,fencog,1,Pre,2021_Aug_10_1058,Go No-Go Task,2021.1.4,120.3451984982374,
,"Rule: When you see a yellow image, do not press 'spacebar'.",Images/Fearful/AF09AFS.jpg,Fear,Yellow,Images/Yellow.jpg,None,ParentConditions/YellowYellowBlue_v1.xlsx,YellowYellowBlue,Conditions/Version_1/YellowFearStop.xlsx,yes,PASS,0.4498025699510172,,,,,,,,,0,0,0,1,0,0,0,0,0,16,16,16,,,,,,,,,,,,,,,,,,,,,,,,,,,,,,,,,,,,,,,,,,,,,,,,,,,,,,,,,,,,,,,,,,,,,,,,,,,,,,,1.3,581.4308243002743,None,None,1,,582.8315163999796,None,582.8315163999796,None,582.8315163999796,None,,,,,,,,,,,P009,fencog,1,Pre,2021_Aug_10_1058,Go No-Go Task,2021.1.4,120.3451984982374,
,"Rule: When you see a yellow image, do not press 'spacebar'.",Images/Fearful/BF05_FO.jpg,Fear,Yellow,Images/Yellow.jpg,None,ParentConditions/YellowYellowBlue_v1.xlsx,YellowYellowBlue,Conditions/Version_1/YellowFearStop.xlsx,yes,PASS,0.9080020582242041,,,,,,,,,0,0,0,1,0,0,0,0,0,17,17,17,,,,,,,,,,,,,,,,,,,,,,,,,,,,,,,,,,,,,,,,,,,,,,,,,,,,,,,,,,,,,,,,,,,,,,,,,,,,,,,1.93,583.2303130002692,None,space,0,0.2895511998794973,585.2559337001294,None,585.2559337001294,None,585.2559337001294,None,,,,,,,,,,,P009,fencog,1,Pre,2021_Aug_10_1058,Go No-Go Task,2021.1.4,120.3451984982374,
,"Rule: When you see a yellow image, do not press 'spacebar'.",Images/Happy/AM24HAS.jpg,Happy,Blue,Images/Blue.jpg,space,ParentConditions/YellowYellowBlue_v1.xlsx,YellowYellowBlue,Conditions/Version_1/YellowFearStop.xlsx,no,PASS,0.922071682303877,,,,,,,,,0,0,0,1,0,0,0,0,0,18,18,18,,,,,,,,,,,,,,,,,,,,,,,,,,,,,,,,,,,,,,,,,,,,,,,,,,,,,,,,,,,,,,,,,,,,,,,,,,,,,,,1.57,585.660379299894,None,space,1,0.2791288001462817,587.3302943999879,None,587.3302943999879,None,587.3302943999879,None,,,,,,,,,,,P009,fencog,1,Pre,2021_Aug_10_1058,Go No-Go Task,2021.1.4,120.3451984982374,
,"Rule: When you see a yellow image, do not press 'spacebar'.",Images/Fearful/AF11AFS.jpg,Fear,Yellow,Images/Yellow.jpg,None,ParentConditions/YellowYellowBlue_v1.xlsx,YellowYellowBlue,Conditions/Version_1/YellowFearStop.xlsx,yes,PASS,0.9473352640697336,,,,,,,,,0,0,0,1,0,0,0,0,0,19,19,19,,,,,,,,,,,,,,,,,,,,,,,,,,,,,,,,,,,,,,,,,,,,,,,,,,,,,,,,,,,,,,,,,,,,,,,,,,,,,,,1.28,587.7300476999953,None,None,1,,589.1131905000657,None,589.1131905000657,None,589.1131905000657,None,,,,,,,,,,,P009,fencog,1,Pre,2021_Aug_10_1058,Go No-Go Task,2021.1.4,120.3451984982374,
,"Rule: When you see a yellow image, do not press 'spacebar'.",Images/Happy/AF01_HE.jpg,Happy,Blue,Images/Blue.jpg,space,ParentConditions/YellowYellowBlue_v1.xlsx,YellowYellowBlue,Conditions/Version_1/YellowFearStop.xlsx,no,PASS,0.975890070475601,,,,,,,,,0,0,0,1,0,0,0,0,0,20,20,20,,,,,,,,,,,,,,,,,,,,,,,,,,,,,,,,,,,,,,,,,,,,,,,,,,,,,,,,,,,,,,,,,,,,,,,,,,,,,,,1.91,589.5177334998734,None,space,1,0.1675883997231722,591.529031299986,None,591.529031299986,None,591.529031299986,None,,,,,,,,,,,P009,fencog,1,Pre,2021_Aug_10_1058,Go No-Go Task,2021.1.4,120.3451984982374,
,"Rule: When you see a yellow image, do not press 'spacebar'.",Images/Happy/AM10_HO.jpg,Happy,Blue,Images/Blue.jpg,space,ParentConditions/YellowYellowBlue_v1.xlsx,YellowYellowBlue,Conditions/Version_1/YellowFearStop.xlsx,no,PASS,0.06323556568324906,,,,,,,,,0,0,0,1,0,0,0,0,0,21,21,21,,,,,,,,,,,,,,,,,,,,,,,,,,,,,,,,,,,,,,,,,,,,,,,,,,,,,,,,,,,,,,,,,,,,,,,,,,,,,,,1.8,591.9330879999325,None,space,1,0.30045370012521744,593.8368088998832,None,593.8368088998832,None,593.8368088998832,None,,,,,,,,,,,P009,fencog,1,Pre,2021_Aug_10_1058,Go No-Go Task,2021.1.4,120.3451984982374,
,"Rule: When you see a yellow image, do not press 'spacebar'.",Images/Happy/AF09HAS.jpg,Happy,Blue,Images/Blue.jpg,space,ParentConditions/YellowYellowBlue_v1.xlsx,YellowYellowBlue,Conditions/Version_1/YellowFearStop.xlsx,no,PASS,0.6962175902541581,,,,,,,,,0,0,0,1,0,0,0,0,0,22,22,22,,,,,,,,,,,,,,,,,,,,,,,,,,,,,,,,,,,,,,,,,,,,,,,,,,,,,,,,,,,,,,,,,,,,,,,,,,,,,,,1.85,594.2429888001643,None,space,1,0.3023658995516598,596.1944419001229,None,596.1944419001229,None,596.1944419001229,None,,,,,,,,,,,P009,fencog,1,Pre,2021_Aug_10_1058,Go No-Go Task,2021.1.4,120.3451984982374,
,"Rule: When you see a yellow image, do not press 'spacebar'.",Images/Happy/BM02_HO.jpg,Happy,Blue,Images/Blue.jpg,space,ParentConditions/YellowYellowBlue_v1.xlsx,YellowYellowBlue,Conditions/Version_1/YellowFearStop.xlsx,no,PASS,0.39611347700197175,,,,,,,,,0,0,0,1,0,0,0,0,0,23,23,23,,,,,,,,,,,,,,,,,,,,,,,,,,,,,,,,,,,,,,,,,,,,,,,,,,,,,,,,,,,,,,,,,,,,,,,,,,,,,,,1.26,596.5938054998405,None,space,1,0.2883963999338448,597.9604735001922,None,597.9604735001922,None,597.9604735001922,None,,,,,,,,,,,P009,fencog,1,Pre,2021_Aug_10_1058,Go No-Go Task,2021.1.4,120.3451984982374,
,"Rule: When you see a yellow image, do not press 'spacebar'.",Images/Happy/AM09_HE.jpg,Happy,Blue,Images/Blue.jpg,space,ParentConditions/YellowYellowBlue_v1.xlsx,YellowYellowBlue,Conditions/Version_1/YellowFearStop.xlsx,no,PASS,0.07757947711401492,,,,,,,,,0,0,0,1,0,0,0,0,0,24,24,24,,,,,,,,,,,,,,,,,,,,,,,,,,,,,,,,,,,,,,,,,,,,,,,,,,,,,,,,,,,,,,,,,,,,,,,,,,,,,,,1.94,598.3595177000389,None,None,0,,600.3931297999807,None,600.3931297999807,None,600.3931297999807,None,,,,,,,,,,,P009,fencog,1,Pre,2021_Aug_10_1058,Go No-Go Task,2021.1.4,120.3451984982374,
,"Rule: When you see a yellow image, do not press 'spacebar'.",Images/Happy/AF10_HE.jpg,Happy,Blue,Images/Blue.jpg,space,ParentConditions/YellowYellowBlue_v1.xlsx,YellowYellowBlue,Conditions/Version_1/YellowFearStop.xlsx,no,PASS,0.0317382475703174,,,,,,,,,0,0,0,1,0,0,0,0,0,25,25,25,,,,,,,,,,,,,,,,,,,,,,,,,,,,,,,,,,,,,,,,,,,,,,,,,,,,,,,,,,,,,,,,,,,,,,,,,,,,,,,1.52,600.7974959001876,None,space,1,0.24731330014765263,602.4175137998536,None,602.4175137998536,None,602.4175137998536,None,,,,,,,,,,,P009,fencog,1,Pre,2021_Aug_10_1058,Go No-Go Task,2021.1.4,120.3451984982374,
,"Rule: When you see a yellow image, do not press 'spacebar'.",Images/Happy/BM01_HO.jpg,Happy,Blue,Images/Blue.jpg,space,ParentConditions/YellowYellowBlue_v1.xlsx,YellowYellowBlue,Conditions/Version_1/YellowFearStop.xlsx,no,PASS,0.5236836345272965,,,,,,,,,0,0,0,1,0,0,0,0,0,26,26,26,,,,,,,,,,,,,,,,,,,,,,,,,,,,,,,,,,,,,,,,,,,,,,,,,,,,,,,,,,,,,,,,,,,,,,,,,,,,,,,1.4,602.8174167000689,None,space,1,0.2923301998525858,604.3253347999416,None,604.3253347999416,None,604.3253347999416,None,,,,,,,,,,,P009,fencog,1,Pre,2021_Aug_10_1058,Go No-Go Task,2021.1.4,120.3451984982374,
,"Rule: When you see a yellow image, do not press 'spacebar'.",Images/Fearful/AF07_FO.jpg,Fear,Yellow,Images/Yellow.jpg,None,ParentConditions/YellowYellowBlue_v1.xlsx,YellowYellowBlue,Conditions/Version_1/YellowFearStop.xlsx,yes,PASS,0.05460409726356086,,,,,,,,,0,0,0,1,0,0,0,0,0,27,27,27,,,,,,,,,,,,,,,,,,,,,,,,,,,,,,,,,,,,,,,,,,,,,,,,,,,,,,,,,,,,,,,,,,,,,,,,,,,,,,,1.78,604.725432000123,None,None,1,,606.607898700051,None,606.607898700051,None,606.607898700051,None,,,,,,,,,,,P009,fencog,1,Pre,2021_Aug_10_1058,Go No-Go Task,2021.1.4,120.3451984982374,
,"Rule: When you see a yellow image, do not press 'spacebar'.",Images/Happy/BF18_HO.jpg,Happy,Blue,Images/Blue.jpg,space,ParentConditions/YellowYellowBlue_v1.xlsx,YellowYellowBlue,Conditions/Version_1/YellowFearStop.xlsx,no,PASS,0.725547290944351,,,,,,,,,0,0,0,1,0,0,0,0,0,28,28,28,,,,,,,,,,,,,,,,,,,,,,,,,,,,,,,,,,,,,,,,,,,,,,,,,,,,,,,,,,,,,,,,,,,,,,,,,,,,,,,1.6,607.0102591998875,None,space,1,0.301044600084424,608.7156409001909,None,608.7156409001909,None,608.7156409001909,None,,,,,,,,,,,P009,fencog,1,Pre,2021_Aug_10_1058,Go No-Go Task,2021.1.4,120.3451984982374,
,"Rule: When you see a yellow image, do not press 'spacebar'.",Images/Happy/AM03HAS.jpg,Happy,Blue,Images/Blue.jpg,space,ParentConditions/YellowYellowBlue_v1.xlsx,YellowYellowBlue,Conditions/Version_1/YellowFearStop.xlsx,no,PASS,0.25317968373868693,,,,,,,,,0,0,0,1,0,0,0,0,0,29,29,29,,,,,,,,,,,,,,,,,,,,,,,,,,,,,,,,,,,,,,,,,,,,,,,,,,,,,,,,,,,,,,,,,,,,,,,,,,,,,,,1.86,609.1257183002308,None,space,1,0.32694589998573065,611.0897496999241,None,611.0897496999241,None,611.0897496999241,None,,,,,,,,,,,P009,fencog,1,Pre,2021_Aug_10_1058,Go No-Go Task,2021.1.4,120.3451984982374,
,"Rule: When you see a yellow image, do not press 'spacebar'.",Images/Happy/BF10_HO.jpg,Happy,Blue,Images/Blue.jpg,space,ParentConditions/YellowYellowBlue_v1.xlsx,YellowYellowBlue,Conditions/Version_1/YellowFearStop.xlsx,no,PASS,0.49778397383761497,,,,,,,,,0,0,0,1,0,0,0,0,0,30,30,30,,,,,,,,,,,,,,,,,,,,,,,,,,,,,,,,,,,,,,,,,,,,,,,,,,,,,,,,,,,,,,,,,,,,,,,,,,,,,,,1.84,611.4891448998824,None,space,1,0.35398139990866184,613.4308968000114,None,613.4308968000114,None,613.4308968000114,None,,,,,,,,,,,P009,fencog,1,Pre,2021_Aug_10_1058,Go No-Go Task,2021.1.4,120.3451984982374,
,"Rule: When you see a yellow image, do not press 'spacebar'.",Images/Happy/BF07_HO.jpg,Happy,Blue,Images/Blue.jpg,space,ParentConditions/YellowYellowBlue_v1.xlsx,YellowYellowBlue,Conditions/Version_1/YellowFearStop.xlsx,no,PASS,0.8230931671283865,,,,,,,,,0,0,0,1,0,0,0,0,0,31,31,31,,,,,,,,,,,,,,,,,,,,,,,,,,,,,,,,,,,,,,,,,,,,,,,,,,,,,,,,,,,,,,,,,,,,,,,,,,,,,,,1.75,613.8299659998156,None,space,1,0.2965649999678135,615.6802687998861,None,615.6802687998861,None,615.6802687998861,None,,,,,,,,,,,P009,fencog,1,Pre,2021_Aug_10_1058,Go No-Go Task,2021.1.4,120.3451984982374,
,"Rule: When you see a yellow image, do not press 'spacebar'.",Images/Fearful/BF07_FO.jpg,Fear,Yellow,Images/Yellow.jpg,None,ParentConditions/YellowYellowBlue_v1.xlsx,YellowYellowBlue,Conditions/Version_1/YellowFearStop.xlsx,yes,PASS,0.2119409881246468,,,,,,,,,0,0,0,1,0,0,0,0,0,32,32,32,,,,,,,,,,,,,,,,,,,,,,,,,,,,,,,,,,,,,,,,,,,,,,,,,,,,,,,,,,,,,,,,,,,,,,,,,,,,,,,1.69,616.0902015999891,None,None,1,,617.8878954001702,None,617.8878954001702,None,617.8878954001702,None,,,,,,,,,,,P009,fencog,1,Pre,2021_Aug_10_1058,Go No-Go Task,2021.1.4,120.3451984982374,
,"Rule: When you see a yellow image, do not press 'spacebar'.",Images/Happy/WF04_HC.jpg,Happy,Blue,Images/Blue.jpg,space,ParentConditions/YellowYellowBlue_v1.xlsx,YellowYellowBlue,Conditions/Version_1/YellowFearStop.xlsx,no,PASS,0.26229612863468255,,,,,,,,,0,0,0,1,0,0,0,0,0,33,33,33,,,,,,,,,,,,,,,,,,,,,,,,,,,,,,,,,,,,,,,,,,,,,,,,,,,,,,,,,,,,,,,,,,,,,,,,,,,,,,,1.61,618.2889920999296,None,space,1,0.33276529982686043,620.0039837001823,None,620.0039837001823,None,620.0039837001823,None,,,,,,,,,,,P009,fencog,1,Pre,2021_Aug_10_1058,Go No-Go Task,2021.1.4,120.3451984982374,
,"Rule: When you see a yellow image, do not press 'spacebar'.",Images/Happy/AM23HAS.jpg,Happy,Blue,Images/Blue.jpg,space,ParentConditions/YellowYellowBlue_v1.xlsx,YellowYellowBlue,Conditions/Version_1/YellowFearStop.xlsx,no,PASS,0.6553077695853636,,,,,,,,,0,0,0,1,0,0,0,0,0,34,34,34,,,,,,,,,,,,,,,,,,,,,,,,,,,,,,,,,,,,,,,,,,,,,,,,,,,,,,,,,,,,,,,,,,,,,,,,,,,,,,,1.67,620.4135075998493,None,space,1,0.2708542002364993,622.1866425001062,None,622.1866425001062,None,622.1866425001062,None,,,,,,,,,,,P009,fencog,1,Pre,2021_Aug_10_1058,Go No-Go Task,2021.1.4,120.3451984982374,
,"Rule: When you see a yellow image, do not press 'spacebar'.",Images/Happy/AM09HAS.jpg,Happy,Blue,Images/Blue.jpg,space,ParentConditions/YellowYellowBlue_v1.xlsx,YellowYellowBlue,Conditions/Version_1/YellowFearStop.xlsx,no,PASS,0.3792451721627529,,,,,,,,,0,0,0,1,0,0,0,0,0,35,35,35,,,,,,,,,,,,,,,,,,,,,,,,,,,,,,,,,,,,,,,,,,,,,,,,,,,,,,,,,,,,,,,,,,,,,,,,,,,,,,,1.87,622.5864466000348,None,space,1,0.3037878000177443,624.5610278001986,None,624.5610278001986,None,624.5610278001986,None,,,,,,,,,,,P009,fencog,1,Pre,2021_Aug_10_1058,Go No-Go Task,2021.1.4,120.3451984982374,
,"Rule: When you see a yellow image, do not press 'spacebar'.",Images/Happy/AM10HAS.jpg,Happy,Blue,Images/Blue.jpg,space,ParentConditions/YellowYellowBlue_v1.xlsx,YellowYellowBlue,Conditions/Version_1/YellowFearStop.xlsx,no,PASS,0.9781550300020249,,,,,,,,,0,0,0,1,0,0,0,0,0,36,36,36,,,,,,,,,,,,,,,,,,,,,,,,,,,,,,,,,,,,,,,,,,,,,,,,,,,,,,,,,,,,,,,,,,,,,,,,,,,,,,,1.9,624.9672730001621,None,space,1,0.3125585997477174,626.9602938001044,None,626.9602938001044,None,626.9602938001044,None,,,,,,,,,,,P009,fencog,1,Pre,2021_Aug_10_1058,Go No-Go Task,2021.1.4,120.3451984982374,
,"Rule: When you see a yellow image, do not press 'spacebar'.",Images/Happy/AF07HAS.jpg,Happy,Blue,Images/Blue.jpg,space,ParentConditions/YellowYellowBlue_v1.xlsx,YellowYellowBlue,Conditions/Version_1/YellowFearStop.xlsx,no,PASS,0.9827710623676732,,,,,,,,,0,0,0,1,0,0,0,0,0,37,37,37,,,,,,,,,,,,,,,,,,,,,,,,,,,,,,,,,,,,,,,,,,,,,,,,,,,,,,,,,,,,,,,,,,,,,,,,,,,,,,,1.27,627.3616019999608,None,space,1,0.3624772001057863,628.7347121001221,None,628.7347121001221,None,628.7347121001221,None,,,,,,,,,,,P009,fencog,1,Pre,2021_Aug_10_1058,Go No-Go Task,2021.1.4,120.3451984982374,
,"Rule: When you see a yellow image, do not press 'spacebar'.",Images/Happy/AM03_HO.jpg,Happy,Blue,Images/Blue.jpg,space,ParentConditions/YellowYellowBlue_v1.xlsx,YellowYellowBlue,Conditions/Version_1/YellowFearStop.xlsx,no,PASS,0.6960883574837642,,,,,,,,,0,0,0,1,0,0,0,0,0,38,38,38,,,,,,,,,,,,,,,,,,,,,,,,,,,,,,,,,,,,,,,,,,,,,,,,,,,,,,,,,,,,,,,,,,,,,,,,,,,,,,,1.72,629.1414752001874,None,space,1,0.2735740998759866,630.9674316002056,None,630.9674316002056,None,630.9674316002056,None,,,,,,,,,,,P009,fencog,1,Pre,2021_Aug_10_1058,Go No-Go Task,2021.1.4,120.3451984982374,
,"Rule: When you see a yellow image, do not press 'spacebar'.",Images/Happy/AM05HAS.jpg,Happy,Blue,Images/Blue.jpg,space,ParentConditions/YellowYellowBlue_v1.xlsx,YellowYellowBlue,Conditions/Version_1/YellowFearStop.xlsx,no,PASS,0.8897547995150092,,,,,,,,,0,0,0,1,0,0,0,0,0,39,39,39,,,,,,,,,,,,,,,,,,,,,,,,,,,,,,,,,,,,,,,,,,,,,,,,,,,,,,,,,,,,,,,,,,,,,,,,,,,,,,,1.44,631.3743937001564,None,space,1,0.2767074001021683,632.9168992000632,None,632.9168992000632,None,632.9168992000632,None,,,,,,,,,,,P009,fencog,1,Pre,2021_Aug_10_1058,Go No-Go Task,2021.1.4,120.3451984982374,
,"Rule: When you see a yellow image, do not press 'spacebar'.",Images/Happy/AF02HAS.jpg,Happy,Blue,Images/Blue.jpg,space,ParentConditions/YellowYellowBlue_v1.xlsx,YellowYellowBlue,Conditions/Version_1/YellowFearStop.xlsx,no,PASS,0.25376599793626176,,,,,,,,,0,0,0,1,0,0,0,0,0,40,40,40,,,,,,,,,,,,,,,,,,,,,,,,,,,,,,,,,,,,,,,,,,,,,,,,,,,,,,,,,,,,,,,,,,,,,,,,,,,,,,,1.54,633.3220871998928,None,None,0,,634.9745434001088,None,634.9745434001088,None,634.9745434001088,None,,,,,,,,,,,P009,fencog,1,Pre,2021_Aug_10_1058,Go No-Go Task,2021.1.4,120.3451984982374,
,"Rule: When you see a yellow image, do not press 'spacebar'.",Images/Happy/BM08_HO.jpg,Happy,Blue,Images/Blue.jpg,space,ParentConditions/YellowYellowBlue_v1.xlsx,YellowYellowBlue,Conditions/Version_1/YellowFearStop.xlsx,no,PASS,0.999289280912827,,,,,,,,,0,0,0,1,0,0,0,0,0,41,41,41,,,,,,,,,,,,,,,,,,,,,,,,,,,,,,,,,,,,,,,,,,,,,,,,,,,,,,,,,,,,,,,,,,,,,,,,,,,,,,,1.97,635.3736153999344,None,space,1,0.2405710997991264,637.4488666001707,None,637.4488666001707,None,637.4488666001707,None,,,,,,,,,,,P009,fencog,1,Pre,2021_Aug_10_1058,Go No-Go Task,2021.1.4,120.3451984982374,
,"Rule: When you see a yellow image, do not press 'spacebar'.",Images/Happy/AM22HAS.jpg,Happy,Blue,Images/Blue.jpg,space,ParentConditions/YellowYellowBlue_v1.xlsx,YellowYellowBlue,Conditions/Version_1/YellowFearStop.xlsx,no,PASS,0.3243688929703894,,,,,,,,,0,0,0,1,0,0,0,0,0,42,42,42,,,,,,,,,,,,,,,,,,,,,,,,,,,,,,,,,,,,,,,,,,,,,,,,,,,,,,,,,,,,,,,,,,,,,,,,,,,,,,,1.34,637.8498825002462,None,space,1,0.2945803999900818,639.2982425000519,None,639.2982425000519,None,639.2982425000519,None,,,,,,,,,,,P009,fencog,1,Pre,2021_Aug_10_1058,Go No-Go Task,2021.1.4,120.3451984982374,
,"Rule: When you see a yellow image, do not press 'spacebar'.",Images/Happy/AM30HAS.jpg,Happy,Blue,Images/Blue.jpg,space,ParentConditions/YellowYellowBlue_v1.xlsx,YellowYellowBlue,Conditions/Version_1/YellowFearStop.xlsx,no,PASS,0.6329749014690744,,,,,,,,,0,0,0,1,0,0,0,0,0,43,43,43,,,,,,,,,,,,,,,,,,,,,,,,,,,,,,,,,,,,,,,,,,,,,,,,,,,,,,,,,,,,,,,,,,,,,,,,,,,,,,,1.63,639.6988973999396,None,space,1,0.24999559996649623,641.4309608000331,None,641.4309608000331,None,641.4309608000331,None,,,,,,,,,,,P009,fencog,1,Pre,2021_Aug_10_1058,Go No-Go Task,2021.1.4,120.3451984982374,
,"Rule: When you see a yellow image, do not press 'spacebar'.",Images/Fearful/BF09_FC.jpg,Fear,Yellow,Images/Yellow.jpg,None,ParentConditions/YellowYellowBlue_v1.xlsx,YellowYellowBlue,Conditions/Version_1/YellowFearStop.xlsx,yes,PASS,0.8490666234880494,,,,,,,,,0,0,0,1,0,0,0,0,0,44,44,44,,,,,,,,,,,,,,,,,,,,,,,,,,,,,,,,,,,,,,,,,,,,,,,,,,,,,,,,,,,,,,,,,,,,,,,,,,,,,,,1.48,641.8319508000277,None,None,1,,643.4137234999798,None,643.4137234999798,None,643.4137234999798,None,,,,,,,,,,,P009,fencog,1,Pre,2021_Aug_10_1058,Go No-Go Task,2021.1.4,120.3451984982374,
,"Rule: When you see a yellow image, do not press 'spacebar'.",Images/Happy/WM12_HE.jpg,Happy,Blue,Images/Blue.jpg,space,ParentConditions/YellowYellowBlue_v1.xlsx,YellowYellowBlue,Conditions/Version_1/YellowFearStop.xlsx,no,PASS,0.11929099481185879,,,,,,,,,0,0,0,1,0,0,0,0,0,45,45,45,,,,,,,,,,,,,,,,,,,,,,,,,,,,,,,,,,,,,,,,,,,,,,,,,,,,,,,,,,,,,,,,,,,,,,,,,,,,,,,1.45,643.8151973001659,None,space,1,0.26937049999833107,645.3714371998794,None,645.3714371998794,None,645.3714371998794,None,,,,,,,,,,,P009,fencog,1,Pre,2021_Aug_10_1058,Go No-Go Task,2021.1.4,120.3451984982374,
,"Rule: When you see a yellow image, do not press 'spacebar'.",Images/Happy/HF10_HE.jpg,Happy,Blue,Images/Blue.jpg,space,ParentConditions/YellowYellowBlue_v1.xlsx,YellowYellowBlue,Conditions/Version_1/YellowFearStop.xlsx,no,PASS,0.835696516720082,,,,,,,,,0,0,0,1,0,0,0,0,0,46,46,46,,,,,,,,,,,,,,,,,,,,,,,,,,,,,,,,,,,,,,,,,,,,,,,,,,,,,,,,,,,,,,,,,,,,,,,,,,,,,,,1.89,645.7711665001698,None,space,1,0.25485929986461997,647.7625215002336,None,647.7625215002336,None,647.7625215002336,None,,,,,,,,,,,P009,fencog,1,Pre,2021_Aug_10_1058,Go No-Go Task,2021.1.4,120.3451984982374,
,"Rule: When you see a yellow image, do not press 'spacebar'.",Images/Happy/HM09_HO.jpg,Happy,Blue,Images/Blue.jpg,space,ParentConditions/YellowYellowBlue_v1.xlsx,YellowYellowBlue,Conditions/Version_1/YellowFearStop.xlsx,no,PASS,0.80615804446551,,,,,,,,,0,0,0,1,0,0,0,0,0,47,47,47,,,,,,,,,,,,,,,,,,,,,,,,,,,,,,,,,,,,,,,,,,,,,,,,,,,,,,,,,,,,,,,,,,,,,,,,,,,,,,,1.33,648.1615077001043,None,space,1,0.26187789998948574,649.6034853002056,None,649.6034853002056,None,649.6034853002056,None,,,,,,,,,,,P009,fencog,1,Pre,2021_Aug_10_1058,Go No-Go Task,2021.1.4,120.3451984982374,
,"Rule: When you see a yellow image, do not press 'spacebar'.",Images/Fearful/AM03_FC.jpg,Fear,Yellow,Images/Yellow.jpg,None,ParentConditions/YellowYellowBlue_v1.xlsx,YellowYellowBlue,Conditions/Version_1/YellowFearStop.xlsx,yes,PASS,0.14846567878901318,,,,,,,,,0,0,0,1,0,0,0,0,0,48,48,48,,,,,,,,,,,,,,,,,,,,,,,,,,,,,,,,,,,,,,,,,,,,,,,,,,,,,,,,,,,,,,,,,,,,,,,,,,,,,,,1.99,650.0036511002108,None,space,0,0.22612169990316033,652.0944825001061,None,652.0944825001061,None,652.0944825001061,None,,,,,,,,,,,P009,fencog,1,Pre,2021_Aug_10_1058,Go No-Go Task,2021.1.4,120.3451984982374,
,"Rule: When you see a yellow image, do not press 'spacebar'.",Images/Happy/HF04_HE.jpg,Happy,Blue,Images/Blue.jpg,space,ParentConditions/YellowYellowBlue_v1.xlsx,YellowYellowBlue,Conditions/Version_1/YellowFearStop.xlsx,no,PASS,0.49340132442678397,,,,,,,,,0,0,0,1,0,0,0,0,0,49,49,49,,,,,,,,,,,,,,,,,,,,,,,,,,,,,,,,,,,,,,,,,,,,,,,,,,,,,,,,,,,,,,,,,,,,,,,,,,,,,,,1.62,652.4936076002195,None,space,1,0.261657000053674,654.2188583998941,None,654.2188583998941,None,654.2188583998941,None,,,,,,,,,,,P009,fencog,1,Pre,2021_Aug_10_1058,Go No-Go Task,2021.1.4,120.3451984982374,
,"Rule: When you see a yellow image, do not press 'spacebar'.",Images/Happy/AM17HAS.jpg,Happy,Blue,Images/Blue.jpg,space,ParentConditions/YellowYellowBlue_v1.xlsx,YellowYellowBlue,Conditions/Version_1/YellowFearStop.xlsx,no,PASS,0.47053997269579284,,,,,,,,,0,0,0,1,0,0,0,0,0,50,50,50,,,,,,,,,,,,,,,,,,,,,,,,,,,,,,,,,,,,,,,,,,,,,,,,,,,,,,,,,,,,,,,,,,,,,,,,,,,,,,,1.47,654.6249552001245,None,space,1,0.3517575999721885,656.2015864001587,None,656.2015864001587,None,656.2015864001587,None,,,,,,,,,,,P009,fencog,1,Pre,2021_Aug_10_1058,Go No-Go Task,2021.1.4,120.3451984982374,
,"Rule: When you see a yellow image, do not press 'spacebar'.",Images/Fearful/BM01_FO.jpg,Fear,Yellow,Images/Yellow.jpg,None,ParentConditions/YellowYellowBlue_v1.xlsx,YellowYellowBlue,Conditions/Version_1/YellowFearStop.xlsx,yes,PASS,0.31347174673362443,,,,,,,,,0,0,0,1,0,0,0,0,0,51,51,51,,,,,,,,,,,,,,,,,,,,,,,,,,,,,,,,,,,,,,,,,,,,,,,,,,,,,,,,,,,,,,,,,,,,,,,,,,,,,,,1.96,656.6066181999631,None,None,1,,658.6677390998229,None,658.6677390998229,None,658.6677390998229,None,,,,,,,,,,,P009,fencog,1,Pre,2021_Aug_10_1058,Go No-Go Task,2021.1.4,120.3451984982374,
,"Rule: When you see a yellow image, do not press 'spacebar'.",Images/Happy/HF09_HE.jpg,Happy,Blue,Images/Blue.jpg,space,ParentConditions/YellowYellowBlue_v1.xlsx,YellowYellowBlue,Conditions/Version_1/YellowFearStop.xlsx,no,PASS,0.012739972194723559,,,,,,,,,0,0,0,1,0,0,0,0,0,52,52,52,,,,,,,,,,,,,,,,,,,,,,,,,,,,,,,,,,,,,,,,,,,,,,,,,,,,,,,,,,,,,,,,,,,,,,,,,,,,,,,1.35,659.0704852002673,None,space,1,0.26033319998532534,660.5170176001266,None,660.5170176001266,None,660.5170176001266,None,,,,,,,,,,,P009,fencog,1,Pre,2021_Aug_10_1058,Go No-Go Task,2021.1.4,120.3451984982374,
,"Rule: When you see a yellow image, do not press 'spacebar'.",Images/Happy/WF11_HE.jpg,Happy,Blue,Images/Blue.jpg,space,ParentConditions/YellowYellowBlue_v1.xlsx,YellowYellowBlue,Conditions/Version_1/YellowFearStop.xlsx,no,PASS,0.5128097154267254,,,,,,,,,0,0,0,1,0,0,0,0,0,53,53,53,,,,,,,,,,,,,,,,,,,,,,,,,,,,,,,,,,,,,,,,,,,,,,,,,,,,,,,,,,,,,,,,,,,,,,,,,,,,,,,1.43,660.9208511998877,None,space,1,0.2631002999842167,662.4581726002507,None,662.4581726002507,None,662.4581726002507,None,,,,,,,,,,,P009,fencog,1,Pre,2021_Aug_10_1058,Go No-Go Task,2021.1.4,120.3451984982374,
,"Rule: When you see a yellow image, do not press 'spacebar'.",Images/Fearful/AM04AFS.jpg,Fear,Yellow,Images/Yellow.jpg,None,ParentConditions/YellowYellowBlue_v1.xlsx,YellowYellowBlue,Conditions/Version_1/YellowFearStop.xlsx,yes,PASS,0.4808108011742167,,,,,,,,,0,0,0,1,0,0,0,0,0,54,54,54,,,,,,,,,,,,,,,,,,,,,,,,,,,,,,,,,,,,,,,,,,,,,,,,,,,,,,,,,,,,,,,,,,,,,,,,,,,,,,,1.65,662.8628521999344,None,None,1,,664.6074349000119,None,664.6074349000119,None,664.6074349000119,None,,,,,,,,,,,P009,fencog,1,Pre,2021_Aug_10_1058,Go No-Go Task,2021.1.4,120.3451984982374,
,"Rule: When you see a yellow image, do not press 'spacebar'.",Images/Happy/AF19HAS.jpg,Happy,Blue,Images/Blue.jpg,space,ParentConditions/YellowYellowBlue_v1.xlsx,YellowYellowBlue,Conditions/Version_1/YellowFearStop.xlsx,no,PASS,0.3252147007245795,,,,,,,,,0,0,0,1,0,0,0,0,0,55,55,55,,,,,,,,,,,,,,,,,,,,,,,,,,,,,,,,,,,,,,,,,,,,,,,,,,,,,,,,,,,,,,,,,,,,,,,,,,,,,,,1.21,665.0138034000993,None,space,1,0.32571590039879084,666.3236067001708,None,666.3236067001708,None,666.3236067001708,None,,,,,,,,,,,P009,fencog,1,Pre,2021_Aug_10_1058,Go No-Go Task,2021.1.4,120.3451984982374,
,"Rule: When you see a yellow image, do not press 'spacebar'.",Images/Happy/HM06_HO.jpg,Happy,Blue,Images/Blue.jpg,space,ParentConditions/YellowYellowBlue_v1.xlsx,YellowYellowBlue,Conditions/Version_1/YellowFearStop.xlsx,no,PASS,0.3282337486862341,,,,,,,,,0,0,0,1,0,0,0,0,0,56,56,56,,,,,,,,,,,,,,,,,,,,,,,,,,,,,,,,,,,,,,,,,,,,,,,,,,,,,,,,,,,,,,,,,,,,,,,,,,,,,,,1.83,666.7269712002017,None,space,1,0.2923281998373568,668.6644784002565,None,668.6644784002565,None,668.6644784002565,None,,,,,,,,,,,P009,fencog,1,Pre,2021_Aug_10_1058,Go No-Go Task,2021.1.4,120.3451984982374,
,"Rule: When you see a yellow image, do not press 'spacebar'.",Images/Happy/HF05_HO.jpg,Happy,Blue,Images/Blue.jpg,space,ParentConditions/YellowYellowBlue_v1.xlsx,YellowYellowBlue,Conditions/Version_1/YellowFearStop.xlsx,no,PASS,0.5833391709234322,,,,,,,,,0,0,0,1,0,0,0,0,0,57,57,57,,,,,,,,,,,,,,,,,,,,,,,,,,,,,,,,,,,,,,,,,,,,,,,,,,,,,,,,,,,,,,,,,,,,,,,,,,,,,,,1.39,669.0698279999197,None,space,1,0.2774282000027597,670.5557519998401,None,670.5557519998401,None,670.5557519998401,None,,,,,,,,,,,P009,fencog,1,Pre,2021_Aug_10_1058,Go No-Go Task,2021.1.4,120.3451984982374,
,"Rule: When you see a yellow image, do not press 'spacebar'.",Images/Fearful/AF01_FO.jpg,Fear,Yellow,Images/Yellow.jpg,None,ParentConditions/YellowYellowBlue_v1.xlsx,YellowYellowBlue,Conditions/Version_1/YellowFearStop.xlsx,yes,PASS,0.3034900725746609,,,,,,,,,0,0,0,1,0,0,0,0,0,58,58,58,,,,,,,,,,,,,,,,,,,,,,,,,,,,,,,,,,,,,,,,,,,,,,,,,,,,,,,,,,,,,,,,,,,,,,,,,,,,,,,1.31,670.9547232999466,None,None,1,,672.3717889999971,None,672.3717889999971,None,672.3717889999971,None,,,,,,,,,,,P009,fencog,1,Pre,2021_Aug_10_1058,Go No-Go Task,2021.1.4,120.3451984982374,
,"Rule: When you see a yellow image, do not press 'spacebar'.",Images/Happy/AF21HAS.jpg,Happy,Blue,Images/Blue.jpg,space,ParentConditions/YellowYellowBlue_v1.xlsx,YellowYellowBlue,Conditions/Version_1/YellowFearStop.xlsx,no,PASS,0.9799702127391234,,,,,,,,,0,0,0,1,0,0,0,0,0,59,59,59,,,,,,,,,,,,,,,,,,,,,,,,,,,,,,,,,,,,,,,,,,,,,,,,,,,,,,,,,,,,,,,,,,,,,,,,,,,,,,,1.41,672.7728389999829,None,space,1,0.23350359965115786,674.287872900255,None,674.287872900255,None,674.287872900255,None,,,,,,,,,,,P009,fencog,1,Pre,2021_Aug_10_1058,Go No-Go Task,2021.1.4,120.3451984982374,
,"Rule: When you see a yellow image, do not press 'spacebar'.",Images/Happy/AM06_HC.jpg,Happy,Blue,Images/Blue.jpg,space,ParentConditions/YellowYellowBlue_v1.xlsx,YellowYellowBlue,Conditions/Version_1/YellowFearStop.xlsx,no,PASS,0.29816427390759137,,,,,,,,,0,0,0,1,0,0,0,0,0,60,60,60,,,,,,,,,,,,,,,,,,,,,,,,,,,,,,,,,,,,,,,,,,,,,,,,,,,,,,,,,,,,,,,,,,,,,,,,,,,,,,,1.2,674.6868285001256,None,space,1,0.2535828002728522,675.9872425999492,None,675.9872425999492,None,675.9872425999492,None,,,,,,,,,,,P009,fencog,1,Pre,2021_Aug_10_1058,Go No-Go Task,2021.1.4,120.3451984982374,
,"Rule: When you see a yellow image, do not press 'spacebar'.",Images/Fearful/AF02AFS.jpg,Fear,Yellow,Images/Yellow.jpg,None,ParentConditions/YellowYellowBlue_v1.xlsx,YellowYellowBlue,Conditions/Version_1/YellowFearStop.xlsx,yes,PASS,0.15582520477375605,,,,,,,,,0,0,0,1,0,0,0,0,0,61,61,61,,,,,,,,,,,,,,,,,,,,,,,,,,,,,,,,,,,,,,,,,,,,,,,,,,,,,,,,,,,,,,,,,,,,,,,,,,,,,,,1.79,676.3928700000979,None,space,0,0.16236810013651848,678.2867772998288,None,678.2867772998288,None,678.2867772998288,None,,,,,,,,,,,P009,fencog,1,Pre,2021_Aug_10_1058,Go No-Go Task,2021.1.4,120.3451984982374,
,"Rule: When you see a yellow image, do not press 'spacebar'.",Images/Happy/AF25HAS.jpg,Happy,Blue,Images/Blue.jpg,space,ParentConditions/YellowYellowBlue_v1.xlsx,YellowYellowBlue,Conditions/Version_1/YellowFearStop.xlsx,no,PASS,0.7963653427272854,,,,,,,,,0,0,0,1,0,0,0,0,0,62,62,62,,,,,,,,,,,,,,,,,,,,,,,,,,,,,,,,,,,,,,,,,,,,,,,,,,,,,,,,,,,,,,,,,,,,,,,,,,,,,,,1.22,678.694223199971,None,space,1,0.3252485999837518,680.0195916001685,None,680.0195916001685,None,680.0195916001685,None,,,,,,,,,,,P009,fencog,1,Pre,2021_Aug_10_1058,Go No-Go Task,2021.1.4,120.3451984982374,
,"Rule: When you see a yellow image, do not press 'spacebar'.",Images/Happy/AM32HAS.jpg,Happy,Blue,Images/Blue.jpg,space,ParentConditions/YellowYellowBlue_v1.xlsx,YellowYellowBlue,Conditions/Version_1/YellowFearStop.xlsx,no,PASS,0.2823557460482189,,,,,,,,,0,0,0,1,0,0,0,0,0,63,63,63,,,,,,,,,,,,,,,,,,,,,,,,,,,,,,,,,,,,,,,,,,,,,,,,,,,,,,,,,,,,,,,,,,,,,,,,,,,,,,,1.32,680.4206436998211,None,space,1,0.2524942997843027,681.8441033000126,None,681.8441033000126,None,681.8441033000126,None,,,,,,,,,,,P009,fencog,1,Pre,2021_Aug_10_1058,Go No-Go Task,2021.1.4,120.3451984982374,
,"Rule: When you see a yellow image, do not press 'spacebar'.",Images/Fearful/AM02_FO.jpg,Fear,Yellow,Images/Yellow.jpg,None,ParentConditions/YellowYellowBlue_v1.xlsx,YellowYellowBlue,Conditions/Version_1/YellowFearStop.xlsx,yes,PASS,0.8481624514007016,,,,,,,,,0,0,0,1,0,0,0,0,0,64,64,64,,,,,,,,,,,,,,,,,,,,,,,,,,,,,,,,,,,,,,,,,,,,,,,,,,,,,,,,,,,,,,,,,,,,,,,,,,,,,,,1.59,682.2494763000868,None,None,1,,683.9434680002742,None,683.9434680002742,None,683.9434680002742,None,,,,,,,,,,,P009,fencog,1,Pre,2021_Aug_10_1058,Go No-Go Task,2021.1.4,120.3451984982374,
,"Rule: When you see a yellow image, do not press 'spacebar'.",Images/Fearful/BM02_FC.jpg,Fear,Yellow,Images/Yellow.jpg,None,ParentConditions/YellowYellowBlue_v1.xlsx,YellowYellowBlue,Conditions/Version_1/YellowFearStop.xlsx,yes,PASS,0.7033474445186839,,,,,,,,,0,0,0,1,0,0,0,0,0,65,65,65,,,,,,,,,,,,,,,,,,,,,,,,,,,,,,,,,,,,,,,,,,,,,,,,,,,,,,,,,,,,,,,,,,,,,,,,,,,,,,,1.58,684.3461649999954,None,None,1,,686.0177494999953,None,686.0177494999953,None,686.0177494999953,None,,,,,,,,,,,P009,fencog,1,Pre,2021_Aug_10_1058,Go No-Go Task,2021.1.4,120.3451984982374,
,"Rule: When you see a yellow image, do not press 'spacebar'.",Images/Happy/AM04_HE.jpg,Happy,Blue,Images/Blue.jpg,space,ParentConditions/YellowYellowBlue_v1.xlsx,YellowYellowBlue,Conditions/Version_1/YellowFearStop.xlsx,no,PASS,0.1954454647057855,,,,,,,,,0,0,0,1,0,0,0,0,0,66,66,66,,,,,,,,,,,,,,,,,,,,,,,,,,,,,,,,,,,,,,,,,,,,,,,,,,,,,,,,,,,,,,,,,,,,,,,,,,,,,,,1.49,686.4187747999094,None,space,1,0.32830969989299774,688.0089108999819,None,688.0089108999819,None,688.0089108999819,None,,,,,,,,,,,P009,fencog,1,Pre,2021_Aug_10_1058,Go No-Go Task,2021.1.4,120.3451984982374,
,"Rule: When you see a yellow image, do not press 'spacebar'.",Images/Fearful/AM05AFS.jpg,Fear,Yellow,Images/Yellow.jpg,None,ParentConditions/YellowYellowBlue_v1.xlsx,YellowYellowBlue,Conditions/Version_1/YellowFearStop.xlsx,yes,PASS,0.6459336406761428,,,,,,,,,0,0,0,1,0,0,0,0,0,67,67,67,,,,,,,,,,,,,,,,,,,,,,,,,,,,,,,,,,,,,,,,,,,,,,,,,,,,,,,,,,,,,,,,,,,,,,,,,,,,,,,1.66,688.408652599901,None,None,1,,690.1748705999926,None,690.1748705999926,None,690.1748705999926,None,,,,,,,,,,,P009,fencog,1,Pre,2021_Aug_10_1058,Go No-Go Task,2021.1.4,120.3451984982374,
,"Rule: When you see a yellow image, do not press 'spacebar'.",Images/Happy/AF28HAS.jpg,Happy,Blue,Images/Blue.jpg,space,ParentConditions/YellowYellowBlue_v1.xlsx,YellowYellowBlue,Conditions/Version_1/YellowFearStop.xlsx,no,PASS,0.16840775809852682,,,,,,,,,0,0,0,1,0,0,0,0,0,68,68,68,,,,,,,,,,,,,,,,,,,,,,,,,,,,,,,,,,,,,,,,,,,,,,,,,,,,,,,,,,,,,,,,,,,,,,,,,,,,,,,1.64,690.5758374002762,None,space,1,0.3334951000288129,692.3076248001307,None,692.3076248001307,None,692.3076248001307,None,,,,,,,,,,,P009,fencog,1,Pre,2021_Aug_10_1058,Go No-Go Task,2021.1.4,120.3451984982374,
,"Rule: When you see a yellow image, do not press 'spacebar'.",Images/Happy/AF07_HO.jpg,Happy,Blue,Images/Blue.jpg,space,ParentConditions/YellowYellowBlue_v1.xlsx,YellowYellowBlue,Conditions/Version_1/YellowFearStop.xlsx,no,PASS,0.8921854253161821,,,,,,,,,0,0,0,1,0,0,0,0,0,69,69,69,,,,,,,,,,,,,,,,,,,,,,,,,,,,,,,,,,,,,,,,,,,,,,,,,,,,,,,,,,,,,,,,,,,,,,,,,,,,,,,1.81,692.7076679002494,None,space,1,0.3288990999571979,694.6236343998462,None,694.6236343998462,None,694.6236343998462,None,,,,,,,,,,,P009,fencog,1,Pre,2021_Aug_10_1058,Go No-Go Task,2021.1.4,120.3451984982374,
,"Rule: When you see a yellow image, do not press 'spacebar'.",Images/Happy/BF14_HO.jpg,Happy,Blue,Images/Blue.jpg,space,ParentConditions/YellowYellowBlue_v1.xlsx,YellowYellowBlue,Conditions/Version_1/YellowFearStop.xlsx,no,PASS,0.11340023271387378,,,,,,,,,0,0,0,1,0,0,0,0,0,70,70,70,,,,,,,,,,,,,,,,,,,,,,,,,,,,,,,,,,,,,,,,,,,,,,,,,,,,,,,,,,,,,,,,,,,,,,,,,,,,,,,1.53,695.0255762999877,None,space,1,0.28013049997389317,696.6562836999074,None,696.6562836999074,None,696.6562836999074,None,,,,,,,,,,,P009,fencog,1,Pre,2021_Aug_10_1058,Go No-Go Task,2021.1.4,120.3451984982374,
,"Rule: When you see a yellow image, do not press 'spacebar'.",Images/Fearful/AF07FS.jpg,Fear,Yellow,Images/Yellow.jpg,None,ParentConditions/YellowYellowBlue_v1.xlsx,YellowYellowBlue,Conditions/Version_1/YellowFearStop.xlsx,yes,PASS,0.01772114652951917,,,,,,,,,0,0,0,1,0,0,0,0,0,71,71,71,,,,,,,,,,,,,,,,,,,,,,,,,,,,,,,,,,,,,,,,,,,,,,,,,,,,,,,,,,,,,,,,,,,,,,,,,,,,,,,1.23,697.0556550002657,None,None,1,,698.3891493999399,None,698.3891493999399,None,698.3891493999399,None,,,,,,,,,,,P009,fencog,1,Pre,2021_Aug_10_1058,Go No-Go Task,2021.1.4,120.3451984982374,
,"Rule: When you see a yellow image, do not press 'spacebar'.",Images/Happy/AF32HAS.jpg,Happy,Blue,Images/Blue.jpg,space,ParentConditions/YellowYellowBlue_v1.xlsx,YellowYellowBlue,Conditions/Version_1/YellowFearStop.xlsx,no,PASS,0.351428612146247,,,,,,,,,0,0,0,1,0,0,0,0,0,72,72,72,,,,,,,,,,,,,,,,,,,,,,,,,,,,,,,,,,,,,,,,,,,,,,,,,,,,,,,,,,,,,,,,,,,,,,,,,,,,,,,1.25,698.7901763999835,None,space,1,0.2865288998000324,700.1387113002129,None,700.1387113002129,None,700.1387113002129,None,,,,,,,,,,,P009,fencog,1,Pre,2021_Aug_10_1058,Go No-Go Task,2021.1.4,120.3451984982374,
,"Rule: When you see a yellow image, do not press 'spacebar'.",Images/Happy/AF11HAS.jpg,Happy,Blue,Images/Blue.jpg,space,ParentConditions/YellowYellowBlue_v1.xlsx,YellowYellowBlue,Conditions/Version_1/YellowFearStop.xlsx,no,PASS,0.5437174345826498,,,,,,,,,0,0,0,1,0,0,0,0,0,73,73,73,,,,,,,,,,,,,,,,,,,,,,,,,,,,,,,,,,,,,,,,,,,,,,,,,,,,,,,,,,,,,,,,,,,,,,,,,,,,,,,1.24,700.5382371000014,None,space,1,0.27319400012493134,701.8798060002737,None,701.8798060002737,None,701.8798060002737,None,,,,,,,,,,,P009,fencog,1,Pre,2021_Aug_10_1058,Go No-Go Task,2021.1.4,120.3451984982374,
,"Rule: When you see a yellow image, do not press 'spacebar'.",Images/Happy/AM19HAS.jpg,Happy,Blue,Images/Blue.jpg,space,ParentConditions/YellowYellowBlue_v1.xlsx,YellowYellowBlue,Conditions/Version_1/YellowFearStop.xlsx,no,PASS,0.4048546584074827,,,,,,,,,0,0,0,1,0,0,0,0,0,74,74,74,,,,,,,,,,,,,,,,,,,,,,,,,,,,,,,,,,,,,,,,,,,,,,,,,,,,,,,,,,,,,,,,,,,,,,,,,,,,,,,1.88,702.2796080000699,None,space,1,0.2662114999257028,704.2623922000639,None,704.2623922000639,None,704.2623922000639,None,,,,,,,,,,,P009,fencog,1,Pre,2021_Aug_10_1058,Go No-Go Task,2021.1.4,120.3451984982374,
,"Rule: When you see a yellow image, do not press 'spacebar'.",Images/Happy/AM01HAS.jpg,Happy,Blue,Images/Blue.jpg,space,ParentConditions/YellowYellowBlue_v1.xlsx,YellowYellowBlue,Conditions/Version_1/YellowFearStop.xlsx,no,PASS,0.668098744931977,,,,,,,,,0,0,0,1,0,0,0,0,0,75,75,75,,,,,,,,,,,,,,,,,,,,,,,,,,,,,,,,,,,,,,,,,,,,,,,,,,,,,,,,,,,,,,,,,,,,,,,,,,,,,,,1.71,704.662328899838,None,space,1,0.2903482001274824,706.4784361999482,None,706.4784361999482,None,706.4784361999482,None,,,,,,,,,,,P009,fencog,1,Pre,2021_Aug_10_1058,Go No-Go Task,2021.1.4,120.3451984982374,
,"Rule: When you see a yellow image, do not press 'spacebar'.",Images/Happy/WF05_HC.jpg,Happy,Blue,Images/Blue.jpg,space,ParentConditions/YellowYellowBlue_v1.xlsx,YellowYellowBlue,Conditions/Version_1/YellowFearStop.xlsx,no,PASS,0.3346503168901146,,,,,,,,,0,0,0,1,0,0,0,0,0,76,76,76,,,,,,,,,,,,,,,,,,,,,,,,,,,,,,,,,,,,,,,,,,,,,,,,,,,,,,,,,,,,,,,,,,,,,,,,,,,,,,,1.74,706.8782458002679,None,space,1,0.32957910001277924,708.719387399964,None,708.719387399964,None,708.719387399964,None,,,,,,,,,,,P009,fencog,1,Pre,2021_Aug_10_1058,Go No-Go Task,2021.1.4,120.3451984982374,
,"Rule: When you see a yellow image, do not press 'spacebar'.",Images/Happy/BM03_HO.jpg,Happy,Blue,Images/Blue.jpg,space,ParentConditions/YellowYellowBlue_v1.xlsx,YellowYellowBlue,Conditions/Version_1/YellowFearStop.xlsx,no,PASS,0.8309182769230548,,,,,,,,,0,0,0,1,0,0,0,0,0,77,77,77,,,,,,,,,,,,,,,,,,,,,,,,,,,,,,,,,,,,,,,,,,,,,,,,,,,,,,,,,,,,,,,,,,,,,,,,,,,,,,,1.92,709.1185000999831,None,space,1,0.2811044999398291,711.1354411002249,None,711.1354411002249,None,711.1354411002249,None,,,,,,,,,,,P009,fencog,1,Pre,2021_Aug_10_1058,Go No-Go Task,2021.1.4,120.3451984982374,
,"Rule: When you see a yellow image, do not press 'spacebar'.",Images/Happy/AM02_HE.jpg,Happy,Blue,Images/Blue.jpg,space,ParentConditions/YellowYellowBlue_v1.xlsx,YellowYellowBlue,Conditions/Version_1/YellowFearStop.xlsx,no,PASS,0.732833616031058,,,,,,,,,0,0,0,1,0,0,0,0,0,78,78,78,,,,,,,,,,,,,,,,,,,,,,,,,,,,,,,,,,,,,,,,,,,,,,,,,,,,,,,,,,,,,,,,,,,,,,,,,,,,,,,1.5,711.5352635998279,None,space,1,0.313461699988693,713.1431157998741,None,713.1431157998741,None,713.1431157998741,None,,,,,,,,,,,P009,fencog,1,Pre,2021_Aug_10_1058,Go No-Go Task,2021.1.4,120.3451984982374,
,"Rule: When you see a yellow image, do not press 'spacebar'.",Images/Fearful/AM06_FO.jpg,Fear,Yellow,Images/Yellow.jpg,None,ParentConditions/YellowYellowBlue_v1.xlsx,YellowYellowBlue,Conditions/Version_1/YellowFearStop.xlsx,yes,PASS,0.2239834878173258,,,,,,,,,0,0,0,1,0,0,0,0,0,79,79,79,,,,,,,,,,,,,,,,,,,,,,,,,,,,,,,,,,,,,,,,,,,,,,,,,,,,,,,,,,,,,,,,,,,,,,,,,,,,,,,1.38,713.5434729000553,None,None,1,,715.0176333002746,None,715.0176333002746,None,715.0176333002746,None,,,,,,,,,,,P009,fencog,1,Pre,2021_Aug_10_1058,Go No-Go Task,2021.1.4,120.3451984982374,
,"Rule: When you see a yellow image, do not press 'spacebar'.",Images/Scram2/HM09_NC.jpg,Scramble,Blue,Images/Blue.jpg,space,ParentConditions/YellowYellowBlue_v1.xlsx,YellowYellowBlue,Conditions/Version_1/YellowScramStop.xlsx,no,PASS,0.16546209529303746,,,,,,,,,0,0,0,1,0,1,1,1,0,0,0,0,,,,,,,,,,,,,,,,,,,,,,,,,,,,,,,,,,,,,,,,,,,,,,,,,,,,,,,,,,,,,,,,,719.5478584002703,None,722.5399389001541,None,space,8.172689599916339,722.5399389001541,None,719.5478584002703,None,719.5478584002703,None,719.5478584002703,None,2,730.7635757001117,None,space,1,0.3220374998636544,732.8706308002584,None,732.8706308002584,None,732.8706308002584,None,715.4381963000633,None,space,3.603493200149387,715.9250122001395,None,715.4381963000633,None,715.4381963000633,None,P009,fencog,1,Pre,2021_Aug_10_1058,Go No-Go Task,2021.1.4,120.3451984982374,
,"Rule: When you see a yellow image, do not press 'spacebar'.",Images/Scram2/HM06_NC.jpg,Scramble,Blue,Images/Blue.jpg,space,ParentConditions/YellowYellowBlue_v1.xlsx,YellowYellowBlue,Conditions/Version_1/YellowScramStop.xlsx,no,PASS,0.8979675286244925,,,,,,,,,0,0,0,1,0,1,1,1,0,1,1,1,,,,,,,,,,,,,,,,,,,,,,,,,,,,,,,,,,,,,,,,,,,,,,,,,,,,,,,,,,,,,,,,,,,,,,,,,,,,,,,1.42,733.2820631000213,None,space,1,0.31709459982812405,734.8033632002771,None,734.8033632002771,None,734.8033632002771,None,,,,,,,,,,,P009,fencog,1,Pre,2021_Aug_10_1058,Go No-Go Task,2021.1.4,120.3451984982374,
,"Rule: When you see a yellow image, do not press 'spacebar'.",Images/Scram1/AM31NES.jpg,Scramble,Blue,Images/Blue.jpg,space,ParentConditions/YellowYellowBlue_v1.xlsx,YellowYellowBlue,Conditions/Version_1/YellowScramStop.xlsx,no,PASS,0.9231879679928262,,,,,,,,,0,0,0,1,0,1,1,1,0,2,2,2,,,,,,,,,,,,,,,,,,,,,,,,,,,,,,,,,,,,,,,,,,,,,,,,,,,,,,,,,,,,,,,,,,,,,,,,,,,,,,,1.45,735.2106416998431,None,space,1,0.272038500290364,736.7611941001378,None,736.7611941001378,None,736.7611941001378,None,,,,,,,,,,,P009,fencog,1,Pre,2021_Aug_10_1058,Go No-Go Task,2021.1.4,120.3451984982374,
,"Rule: When you see a yellow image, do not press 'spacebar'.",Images/Scram2/AM03NES.jpg,Scramble,Yellow,Images/Yellow.jpg,None,ParentConditions/YellowYellowBlue_v1.xlsx,YellowYellowBlue,Conditions/Version_1/YellowScramStop.xlsx,yes,PASS,0.5123844621609239,,,,,,,,,0,0,0,1,0,1,1,1,0,3,3,3,,,,,,,,,,,,,,,,,,,,,,,,,,,,,,,,,,,,,,,,,,,,,,,,,,,,,,,,,,,,,,,,,,,,,,,,,,,,,,,1.57,737.1661168001592,None,space,0,0.26869239984080195,738.84389499994,None,738.84389499994,None,738.84389499994,None,,,,,,,,,,,P009,fencog,1,Pre,2021_Aug_10_1058,Go No-Go Task,2021.1.4,120.3451984982374,
,"Rule: When you see a yellow image, do not press 'spacebar'.",Images/Scram2/BM01_NC.jpg,Scramble,Blue,Images/Blue.jpg,space,ParentConditions/YellowYellowBlue_v1.xlsx,YellowYellowBlue,Conditions/Version_1/YellowScramStop.xlsx,no,PASS,0.9647622626448304,,,,,,,,,0,0,0,1,0,1,1,1,0,4,4,4,,,,,,,,,,,,,,,,,,,,,,,,,,,,,,,,,,,,,,,,,,,,,,,,,,,,,,,,,,,,,,,,,,,,,,,,,,,,,,,1.4,739.2443218999542,None,space,1,0.24869649996981025,740.752238499932,None,740.752238499932,None,740.752238499932,None,,,,,,,,,,,P009,fencog,1,Pre,2021_Aug_10_1058,Go No-Go Task,2021.1.4,120.3451984982374,
,"Rule: When you see a yellow image, do not press 'spacebar'.",Images/Scram1/HM09_NC.jpg,Scramble,Blue,Images/Blue.jpg,space,ParentConditions/YellowYellowBlue_v1.xlsx,YellowYellowBlue,Conditions/Version_1/YellowScramStop.xlsx,no,PASS,0.0006879251870249847,,,,,,,,,0,0,0,1,0,1,1,1,0,5,5,5,,,,,,,,,,,,,,,,,,,,,,,,,,,,,,,,,,,,,,,,,,,,,,,,,,,,,,,,,,,,,,,,,,,,,,,,,,,,,,,1.9,741.1588556999341,None,space,1,0.27346349973231554,743.1592410998419,None,743.1592410998419,None,743.1592410998419,None,,,,,,,,,,,P009,fencog,1,Pre,2021_Aug_10_1058,Go No-Go Task,2021.1.4,120.3451984982374,
,"Rule: When you see a yellow image, do not press 'spacebar'.",Images/Scram2/BF07_NC.jpg,Scramble,Blue,Images/Blue.jpg,space,ParentConditions/YellowYellowBlue_v1.xlsx,YellowYellowBlue,Conditions/Version_1/YellowScramStop.xlsx,no,PASS,0.9958823679259557,,,,,,,,,0,0,0,1,0,1,1,1,0,6,6,6,,,,,,,,,,,,,,,,,,,,,,,,,,,,,,,,,,,,,,,,,,,,,,,,,,,,,,,,,,,,,,,,,,,,,,,,,,,,,,,1.22,743.5583122000098,None,space,1,0.30869940016418695,744.8837998998351,None,744.8837998998351,None,744.8837998998351,None,,,,,,,,,,,P009,fencog,1,Pre,2021_Aug_10_1058,Go No-Go Task,2021.1.4,120.3451984982374,
,"Rule: When you see a yellow image, do not press 'spacebar'.",Images/Scram1/BF14_NC.jpg,Scramble,Blue,Images/Blue.jpg,space,ParentConditions/YellowYellowBlue_v1.xlsx,YellowYellowBlue,Conditions/Version_1/YellowScramStop.xlsx,no,PASS,0.23975965807979494,,,,,,,,,0,0,0,1,0,1,1,1,0,7,7,7,,,,,,,,,,,,,,,,,,,,,,,,,,,,,,,,,,,,,,,,,,,,,,,,,,,,,,,,,,,,,,,,,,,,,,,,,,,,,,,1.23,745.2831097999588,None,space,1,0.28040930023416877,746.6166082001291,None,746.6166082001291,None,746.6166082001291,None,,,,,,,,,,,P009,fencog,1,Pre,2021_Aug_10_1058,Go No-Go Task,2021.1.4,120.3451984982374,
,"Rule: When you see a yellow image, do not press 'spacebar'.",Images/Scram2/AF10_NC.jpg,Scramble,Blue,Images/Blue.jpg,space,ParentConditions/YellowYellowBlue_v1.xlsx,YellowYellowBlue,Conditions/Version_1/YellowScramStop.xlsx,no,PASS,0.23192838167496266,,,,,,,,,0,0,0,1,0,1,1,1,0,8,8,8,,,,,,,,,,,,,,,,,,,,,,,,,,,,,,,,,,,,,,,,,,,,,,,,,,,,,,,,,,,,,,,,,,,,,,,,,,,,,,,1.44,747.0190105000511,None,space,1,0.30711149983108044,748.565931300167,None,748.565931300167,None,748.565931300167,None,,,,,,,,,,,P009,fencog,1,Pre,2021_Aug_10_1058,Go No-Go Task,2021.1.4,120.3451984982374,
,"Rule: When you see a yellow image, do not press 'spacebar'.",Images/Scram2/AF01_NC.jpg,Scramble,Blue,Images/Blue.jpg,space,ParentConditions/YellowYellowBlue_v1.xlsx,YellowYellowBlue,Conditions/Version_1/YellowScramStop.xlsx,no,PASS,0.030564678936407685,,,,,,,,,0,0,0,1,0,1,1,1,0,9,9,9,,,,,,,,,,,,,,,,,,,,,,,,,,,,,,,,,,,,,,,,,,,,,,,,,,,,,,,,,,,,,,,,,,,,,,,,,,,,,,,1.82,748.9721564999782,None,space,1,0.35004339972510934,750.8986789002083,None,750.8986789002083,None,750.8986789002083,None,,,,,,,,,,,P009,fencog,1,Pre,2021_Aug_10_1058,Go No-Go Task,2021.1.4,120.3451984982374,
,"Rule: When you see a yellow image, do not press 'spacebar'.",Images/Scram2/AF24NES.jpg,Scramble,Blue,Images/Blue.jpg,space,ParentConditions/YellowYellowBlue_v1.xlsx,YellowYellowBlue,Conditions/Version_1/YellowScramStop.xlsx,no,PASS,0.3257124610951796,,,,,,,,,0,0,0,1,0,1,1,1,0,10,10,10,,,,,,,,,,,,,,,,,,,,,,,,,,,,,,,,,,,,,,,,,,,,,,,,,,,,,,,,,,,,,,,,,,,,,,,,,,,,,,,1.48,751.2976398998871,None,space,1,0.327407100237906,752.8813590998761,None,752.8813590998761,None,752.8813590998761,None,,,,,,,,,,,P009,fencog,1,Pre,2021_Aug_10_1058,Go No-Go Task,2021.1.4,120.3451984982374,
,"Rule: When you see a yellow image, do not press 'spacebar'.",Images/Scram2/BF14_NC.jpg,Scramble,Blue,Images/Blue.jpg,space,ParentConditions/YellowYellowBlue_v1.xlsx,YellowYellowBlue,Conditions/Version_1/YellowScramStop.xlsx,no,PASS,0.7452625323265352,,,,,,,,,0,0,0,1,0,1,1,1,0,11,11,11,,,,,,,,,,,,,,,,,,,,,,,,,,,,,,,,,,,,,,,,,,,,,,,,,,,,,,,,,,,,,,,,,,,,,,,,,,,,,,,1.86,753.2819067002274,None,space,1,0.328660000115633,755.2556555001065,None,755.2556555001065,None,755.2556555001065,None,,,,,,,,,,,P009,fencog,1,Pre,2021_Aug_10_1058,Go No-Go Task,2021.1.4,120.3451984982374,
,"Rule: When you see a yellow image, do not press 'spacebar'.",Images/Scram1/AM13NES.jpg,Scramble,Blue,Images/Blue.jpg,space,ParentConditions/YellowYellowBlue_v1.xlsx,YellowYellowBlue,Conditions/Version_1/YellowScramStop.xlsx,no,PASS,0.49399354825257,,,,,,,,,0,0,0,1,0,1,1,1,0,12,12,12,,,,,,,,,,,,,,,,,,,,,,,,,,,,,,,,,,,,,,,,,,,,,,,,,,,,,,,,,,,,,,,,,,,,,,,,,,,,,,,1.39,755.6571293999441,None,space,1,0.37372530018910766,757.1550639998168,None,757.1550639998168,None,757.1550639998168,None,,,,,,,,,,,P009,fencog,1,Pre,2021_Aug_10_1058,Go No-Go Task,2021.1.4,120.3451984982374,
,"Rule: When you see a yellow image, do not press 'spacebar'.",Images/Scram1/HM04_NC.jpg,Scramble,Blue,Images/Blue.jpg,space,ParentConditions/YellowYellowBlue_v1.xlsx,YellowYellowBlue,Conditions/Version_1/YellowScramStop.xlsx,no,PASS,0.18467466618813977,,,,,,,,,0,0,0,1,0,1,1,1,0,13,13,13,,,,,,,,,,,,,,,,,,,,,,,,,,,,,,,,,,,,,,,,,,,,,,,,,,,,,,,,,,,,,,,,,,,,,,,,,,,,,,,1.93,757.5609649000689,None,space,1,0.29291299963369966,759.5957122002728,None,759.5957122002728,None,759.5957122002728,None,,,,,,,,,,,P009,fencog,1,Pre,2021_Aug_10_1058,Go No-Go Task,2021.1.4,120.3451984982374,
,"Rule: When you see a yellow image, do not press 'spacebar'.",Images/Scram1/AM03NES.jpg,Scramble,Blue,Images/Blue.jpg,space,ParentConditions/YellowYellowBlue_v1.xlsx,YellowYellowBlue,Conditions/Version_1/YellowScramStop.xlsx,no,PASS,0.036392655954534225,,,,,,,,,0,0,0,1,0,1,1,1,0,14,14,14,,,,,,,,,,,,,,,,,,,,,,,,,,,,,,,,,,,,,,,,,,,,,,,,,,,,,,,,,,,,,,,,,,,,,,,,,,,,,,,1.56,759.9948657001369,None,space,1,0.2908610999584198,761.6616597999819,None,761.6616597999819,None,761.6616597999819,None,,,,,,,,,,,P009,fencog,1,Pre,2021_Aug_10_1058,Go No-Go Task,2021.1.4,120.3451984982374,
,"Rule: When you see a yellow image, do not press 'spacebar'.",Images/Scram1/AM22NES.jpg,Scramble,Blue,Images/Blue.jpg,space,ParentConditions/YellowYellowBlue_v1.xlsx,YellowYellowBlue,Conditions/Version_1/YellowScramStop.xlsx,no,PASS,0.46426586463932284,,,,,,,,,0,0,0,1,0,1,1,1,0,15,15,15,,,,,,,,,,,,,,,,,,,,,,,,,,,,,,,,,,,,,,,,,,,,,,,,,,,,,,,,,,,,,,,,,,,,,,,,,,,,,,,1.32,762.060794999823,None,space,1,0.32218159968033433,763.4862012001686,None,763.4862012001686,None,763.4862012001686,None,,,,,,,,,,,P009,fencog,1,Pre,2021_Aug_10_1058,Go No-Go Task,2021.1.4,120.3451984982374,
,"Rule: When you see a yellow image, do not press 'spacebar'.",Images/Scram2/AM17NES.jpg,Scramble,Yellow,Images/Yellow.jpg,None,ParentConditions/YellowYellowBlue_v1.xlsx,YellowYellowBlue,Conditions/Version_1/YellowScramStop.xlsx,yes,PASS,0.9679079792094736,,,,,,,,,0,0,0,1,0,1,1,1,0,16,16,16,,,,,,,,,,,,,,,,,,,,,,,,,,,,,,,,,,,,,,,,,,,,,,,,,,,,,,,,,,,,,,,,,,,,,,,,,,,,,,,1.88,763.8852142002434,None,None,1,,765.8687656000257,None,765.8687656000257,None,765.8687656000257,None,,,,,,,,,,,P009,fencog,1,Pre,2021_Aug_10_1058,Go No-Go Task,2021.1.4,120.3451984982374,
,"Rule: When you see a yellow image, do not press 'spacebar'.",Images/Scram1/AM10NES.jpg,Scramble,Blue,Images/Blue.jpg,space,ParentConditions/YellowYellowBlue_v1.xlsx,YellowYellowBlue,Conditions/Version_1/YellowScramStop.xlsx,no,PASS,0.60606204058038,,,,,,,,,0,0,0,1,0,1,1,1,0,17,17,17,,,,,,,,,,,,,,,,,,,,,,,,,,,,,,,,,,,,,,,,,,,,,,,,,,,,,,,,,,,,,,,,,,,,,,,,,,,,,,,1.53,766.2678423002362,None,space,1,0.2990351999178529,767.9015083000995,None,767.9015083000995,None,767.9015083000995,None,,,,,,,,,,,P009,fencog,1,Pre,2021_Aug_10_1058,Go No-Go Task,2021.1.4,120.3451984982374,
,"Rule: When you see a yellow image, do not press 'spacebar'.",Images/Scram2/AM03_NC.jpg,Scramble,Yellow,Images/Yellow.jpg,None,ParentConditions/YellowYellowBlue_v1.xlsx,YellowYellowBlue,Conditions/Version_1/YellowScramStop.xlsx,yes,PASS,0.375029210281841,,,,,,,,,0,0,0,1,0,1,1,1,0,18,18,18,,,,,,,,,,,,,,,,,,,,,,,,,,,,,,,,,,,,,,,,,,,,,,,,,,,,,,,,,,,,,,,,,,,,,,,,,,,,,,,1.41,768.3005383000709,None,space,0,0.2548206001520157,769.8175872000866,None,769.8175872000866,None,769.8175872000866,None,,,,,,,,,,,P009,fencog,1,Pre,2021_Aug_10_1058,Go No-Go Task,2021.1.4,120.3451984982374,
,"Rule: When you see a yellow image, do not press 'spacebar'.",Images/Scram1/HF09_NC.jpg,Scramble,Blue,Images/Blue.jpg,space,ParentConditions/YellowYellowBlue_v1.xlsx,YellowYellowBlue,Conditions/Version_1/YellowScramStop.xlsx,no,PASS,0.5505947352432977,,,,,,,,,0,0,0,1,0,1,1,1,0,19,19,19,,,,,,,,,,,,,,,,,,,,,,,,,,,,,,,,,,,,,,,,,,,,,,,,,,,,,,,,,,,,,,,,,,,,,,,,,,,,,,,1.35,770.2166691999882,None,space,1,0.2771617998369038,771.6670583002269,None,771.6670583002269,None,771.6670583002269,None,,,,,,,,,,,P009,fencog,1,Pre,2021_Aug_10_1058,Go No-Go Task,2021.1.4,120.3451984982374,
,"Rule: When you see a yellow image, do not press 'spacebar'.",Images/Scram1/BM08_NC.jpg,Scramble,Blue,Images/Blue.jpg,space,ParentConditions/YellowYellowBlue_v1.xlsx,YellowYellowBlue,Conditions/Version_1/YellowScramStop.xlsx,no,PASS,0.1123919377407171,,,,,,,,,0,0,0,1,0,1,1,1,0,20,20,20,,,,,,,,,,,,,,,,,,,,,,,,,,,,,,,,,,,,,,,,,,,,,,,,,,,,,,,,,,,,,,,,,,,,,,,,,,,,,,,1.63,772.0661474000663,None,space,1,0.19254849990829825,773.7998056001961,None,773.7998056001961,None,773.7998056001961,None,,,,,,,,,,,P009,fencog,1,Pre,2021_Aug_10_1058,Go No-Go Task,2021.1.4,120.3451984982374,
,"Rule: When you see a yellow image, do not press 'spacebar'.",Images/Scram1/AF32NES.jpg,Scramble,Blue,Images/Blue.jpg,space,ParentConditions/YellowYellowBlue_v1.xlsx,YellowYellowBlue,Conditions/Version_1/YellowScramStop.xlsx,no,PASS,0.6647641829322217,,,,,,,,,0,0,0,1,0,1,1,1,0,21,21,21,,,,,,,,,,,,,,,,,,,,,,,,,,,,,,,,,,,,,,,,,,,,,,,,,,,,,,,,,,,,,,,,,,,,,,,,,,,,,,,1.2,774.19884369988,None,space,1,0.2773751998320222,775.4992839000188,None,775.4992839000188,None,775.4992839000188,None,,,,,,,,,,,P009,fencog,1,Pre,2021_Aug_10_1058,Go No-Go Task,2021.1.4,120.3451984982374,
,"Rule: When you see a yellow image, do not press 'spacebar'.",Images/Scram2/AM06_NC.jpg,Scramble,Yellow,Images/Yellow.jpg,None,ParentConditions/YellowYellowBlue_v1.xlsx,YellowYellowBlue,Conditions/Version_1/YellowScramStop.xlsx,yes,PASS,0.3634874867374246,,,,,,,,,0,0,0,1,0,1,1,1,0,22,22,22,,,,,,,,,,,,,,,,,,,,,,,,,,,,,,,,,,,,,,,,,,,,,,,,,,,,,,,,,,,,,,,,,,,,,,,,,,,,,,,1.29,775.8984493999742,None,None,1,,777.2822525999509,None,777.2822525999509,None,777.2822525999509,None,,,,,,,,,,,P009,fencog,1,Pre,2021_Aug_10_1058,Go No-Go Task,2021.1.4,120.3451984982374,
,"Rule: When you see a yellow image, do not press 'spacebar'.",Images/Scram1/AM06_NC.jpg,Scramble,Blue,Images/Blue.jpg,space,ParentConditions/YellowYellowBlue_v1.xlsx,YellowYellowBlue,Conditions/Version_1/YellowScramStop.xlsx,no,PASS,0.9155941996303448,,,,,,,,,0,0,0,1,0,1,1,1,0,23,23,23,,,,,,,,,,,,,,,,,,,,,,,,,,,,,,,,,,,,,,,,,,,,,,,,,,,,,,,,,,,,,,,,,,,,,,,,,,,,,,,1.34,777.6811577002518,None,space,1,0.3411754001863301,779.1232131002471,None,779.1232131002471,None,779.1232131002471,None,,,,,,,,,,,P009,fencog,1,Pre,2021_Aug_10_1058,Go No-Go Task,2021.1.4,120.3451984982374,
,"Rule: When you see a yellow image, do not press 'spacebar'.",Images/Scram2/AM02_NC.jpg,Scramble,Yellow,Images/Yellow.jpg,None,ParentConditions/YellowYellowBlue_v1.xlsx,YellowYellowBlue,Conditions/Version_1/YellowScramStop.xlsx,yes,PASS,0.40349662212467063,,,,,,,,,0,0,0,1,0,1,1,1,0,24,24,24,,,,,,,,,,,,,,,,,,,,,,,,,,,,,,,,,,,,,,,,,,,,,,,,,,,,,,,,,,,,,,,,,,,,,,,,,,,,,,,1.26,779.5222674999386,None,space,0,0.29465969977900386,780.8894282998517,None,780.8894282998517,None,780.8894282998517,None,,,,,,,,,,,P009,fencog,1,Pre,2021_Aug_10_1058,Go No-Go Task,2021.1.4,120.3451984982374,
,"Rule: When you see a yellow image, do not press 'spacebar'.",Images/Scram2/HF05_NC.jpg,Scramble,Blue,Images/Blue.jpg,space,ParentConditions/YellowYellowBlue_v1.xlsx,YellowYellowBlue,Conditions/Version_1/YellowScramStop.xlsx,no,PASS,0.921711635827277,,,,,,,,,0,0,0,1,0,1,1,1,0,25,25,25,,,,,,,,,,,,,,,,,,,,,,,,,,,,,,,,,,,,,,,,,,,,,,,,,,,,,,,,,,,,,,,,,,,,,,,,,,,,,,,1.71,781.2884510001168,None,space,1,0.34294799994677305,783.105365099851,None,783.105365099851,None,783.105365099851,None,,,,,,,,,,,P009,fencog,1,Pre,2021_Aug_10_1058,Go No-Go Task,2021.1.4,120.3451984982374,
,"Rule: When you see a yellow image, do not press 'spacebar'.",Images/Scram2/AF32NES.jpg,Scramble,Yellow,Images/Yellow.jpg,None,ParentConditions/YellowYellowBlue_v1.xlsx,YellowYellowBlue,Conditions/Version_1/YellowScramStop.xlsx,yes,PASS,0.017466824187156504,,,,,,,,,0,0,0,1,0,1,1,1,0,26,26,26,,,,,,,,,,,,,,,,,,,,,,,,,,,,,,,,,,,,,,,,,,,,,,,,,,,,,,,,,,,,,,,,,,,,,,,,,,,,,,,1.55,783.5044674999081,None,None,1,,785.1548278001137,None,785.1548278001137,None,785.1548278001137,None,,,,,,,,,,,P009,fencog,1,Pre,2021_Aug_10_1058,Go No-Go Task,2021.1.4,120.3451984982374,
,"Rule: When you see a yellow image, do not press 'spacebar'.",Images/Scram2/HM04_NC.jpg,Scramble,Blue,Images/Blue.jpg,space,ParentConditions/YellowYellowBlue_v1.xlsx,YellowYellowBlue,Conditions/Version_1/YellowScramStop.xlsx,no,PASS,0.5736341227927889,,,,,,,,,0,0,0,1,0,1,1,1,0,27,27,27,,,,,,,,,,,,,,,,,,,,,,,,,,,,,,,,,,,,,,,,,,,,,,,,,,,,,,,,,,,,,,,,,,,,,,,,,,,,,,,1.96,785.5539775001816,None,space,1,0.3793751001358032,787.620668400079,None,787.620668400079,None,787.620668400079,None,,,,,,,,,,,P009,fencog,1,Pre,2021_Aug_10_1058,Go No-Go Task,2021.1.4,120.3451984982374,
,"Rule: When you see a yellow image, do not press 'spacebar'.",Images/Scram2/AF25NES.jpg,Scramble,Blue,Images/Blue.jpg,space,ParentConditions/YellowYellowBlue_v1.xlsx,YellowYellowBlue,Conditions/Version_1/YellowScramStop.xlsx,no,PASS,0.4815009065668029,,,,,,,,,0,0,0,1,0,1,1,1,0,28,28,28,,,,,,,,,,,,,,,,,,,,,,,,,,,,,,,,,,,,,,,,,,,,,,,,,,,,,,,,,,,,,,,,,,,,,,,,,,,,,,,1.28,788.0197550002486,None,space,1,0.29210059996694326,789.3963676998392,None,789.3963676998392,None,789.3963676998392,None,,,,,,,,,,,P009,fencog,1,Pre,2021_Aug_10_1058,Go No-Go Task,2021.1.4,120.3451984982374,
,"Rule: When you see a yellow image, do not press 'spacebar'.",Images/Scram1/AF34NES.jpg,Scramble,Blue,Images/Blue.jpg,space,ParentConditions/YellowYellowBlue_v1.xlsx,YellowYellowBlue,Conditions/Version_1/YellowScramStop.xlsx,no,PASS,0.16322109337010782,,,,,,,,,0,0,0,1,0,1,1,1,0,29,29,29,,,,,,,,,,,,,,,,,,,,,,,,,,,,,,,,,,,,,,,,,,,,,,,,,,,,,,,,,,,,,,,,,,,,,,,,,,,,,,,1.74,789.8030179999769,None,space,1,0.32401520013809204,791.6448810999282,None,791.6448810999282,None,791.6448810999282,None,,,,,,,,,,,P009,fencog,1,Pre,2021_Aug_10_1058,Go No-Go Task,2021.1.4,120.3451984982374,
,"Rule: When you see a yellow image, do not press 'spacebar'.",Images/Scram2/AF11NES.jpg,Scramble,Blue,Images/Blue.jpg,space,ParentConditions/YellowYellowBlue_v1.xlsx,YellowYellowBlue,Conditions/Version_1/YellowScramStop.xlsx,no,PASS,0.863906943339551,,,,,,,,,0,0,0,1,0,1,1,1,0,30,30,30,,,,,,,,,,,,,,,,,,,,,,,,,,,,,,,,,,,,,,,,,,,,,,,,,,,,,,,,,,,,,,,,,,,,,,,,,,,,,,,1.31,792.0467564002611,None,space,1,0.28361809998750687,793.4610044001602,None,793.4610044001602,None,793.4610044001602,None,,,,,,,,,,,P009,fencog,1,Pre,2021_Aug_10_1058,Go No-Go Task,2021.1.4,120.3451984982374,
,"Rule: When you see a yellow image, do not press 'spacebar'.",Images/Scram2/AF34NES.jpg,Scramble,Yellow,Images/Yellow.jpg,None,ParentConditions/YellowYellowBlue_v1.xlsx,YellowYellowBlue,Conditions/Version_1/YellowScramStop.xlsx,yes,PASS,0.06159009202316168,,,,,,,,,0,0,0,1,0,1,1,1,0,31,31,31,,,,,,,,,,,,,,,,,,,,,,,,,,,,,,,,,,,,,,,,,,,,,,,,,,,,,,,,,,,,,,,,,,,,,,,,,,,,,,,1.92,793.866917300038,None,space,0,0.29928419971838593,795.885300999973,None,795.885300999973,None,795.885300999973,None,,,,,,,,,,,P009,fencog,1,Pre,2021_Aug_10_1058,Go No-Go Task,2021.1.4,120.3451984982374,
,"Rule: When you see a yellow image, do not press 'spacebar'.",Images/Scram1/AM02_NC.jpg,Scramble,Blue,Images/Blue.jpg,space,ParentConditions/YellowYellowBlue_v1.xlsx,YellowYellowBlue,Conditions/Version_1/YellowScramStop.xlsx,no,PASS,0.7758508003758968,,,,,,,,,0,0,0,1,0,1,1,1,0,32,32,32,,,,,,,,,,,,,,,,,,,,,,,,,,,,,,,,,,,,,,,,,,,,,,,,,,,,,,,,,,,,,,,,,,,,,,,,,,,,,,,1.38,796.2861277000047,None,space,1,0.28877019975334406,797.7681609001011,None,797.7681609001011,None,797.7681609001011,None,,,,,,,,,,,P009,fencog,1,Pre,2021_Aug_10_1058,Go No-Go Task,2021.1.4,120.3451984982374,
,"Rule: When you see a yellow image, do not press 'spacebar'.",Images/Scram2/AM13NES.jpg,Scramble,Yellow,Images/Yellow.jpg,None,ParentConditions/YellowYellowBlue_v1.xlsx,YellowYellowBlue,Conditions/Version_1/YellowScramStop.xlsx,yes,PASS,0.6726515097084437,,,,,,,,,0,0,0,1,0,1,1,1,0,33,33,33,,,,,,,,,,,,,,,,,,,,,,,,,,,,,,,,,,,,,,,,,,,,,,,,,,,,,,,,,,,,,,,,,,,,,,,,,,,,,,,1.85,798.1727328998968,None,space,0,0.18031940003857017,800.1256973999552,None,800.1256973999552,None,800.1256973999552,None,,,,,,,,,,,P009,fencog,1,Pre,2021_Aug_10_1058,Go No-Go Task,2021.1.4,120.3451984982374,
,"Rule: When you see a yellow image, do not press 'spacebar'.",Images/Scram1/AM03_NC.jpg,Scramble,Blue,Images/Blue.jpg,space,ParentConditions/YellowYellowBlue_v1.xlsx,YellowYellowBlue,Conditions/Version_1/YellowScramStop.xlsx,no,PASS,0.060310837369876635,,,,,,,,,0,0,0,1,0,1,1,1,0,34,34,34,,,,,,,,,,,,,,,,,,,,,,,,,,,,,,,,,,,,,,,,,,,,,,,,,,,,,,,,,,,,,,,,,,,,,,,,,,,,,,,1.61,800.5256011001766,None,space,1,0.25465379981324077,802.2418583999388,None,802.2418583999388,None,802.2418583999388,None,,,,,,,,,,,P009,fencog,1,Pre,2021_Aug_10_1058,Go No-Go Task,2021.1.4,120.3451984982374,
,"Rule: When you see a yellow image, do not press 'spacebar'.",Images/Scram1/AF33NES.jpg,Scramble,Blue,Images/Blue.jpg,space,ParentConditions/YellowYellowBlue_v1.xlsx,YellowYellowBlue,Conditions/Version_1/YellowScramStop.xlsx,no,PASS,0.9883395332949252,,,,,,,,,0,0,0,1,0,1,1,1,0,35,35,35,,,,,,,,,,,,,,,,,,,,,,,,,,,,,,,,,,,,,,,,,,,,,,,,,,,,,,,,,,,,,,,,,,,,,,,,,,,,,,,1.64,802.6501883999445,None,space,1,0.2896295003592968,804.3911672001705,None,804.3911672001705,None,804.3911672001705,None,,,,,,,,,,,P009,fencog,1,Pre,2021_Aug_10_1058,Go No-Go Task,2021.1.4,120.3451984982374,
,"Rule: When you see a yellow image, do not press 'spacebar'.",Images/Scram1/BF10_NC.jpg,Scramble,Blue,Images/Blue.jpg,space,ParentConditions/YellowYellowBlue_v1.xlsx,YellowYellowBlue,Conditions/Version_1/YellowScramStop.xlsx,no,PASS,0.832283926857634,,,,,,,,,0,0,0,1,0,1,1,1,0,36,36,36,,,,,,,,,,,,,,,,,,,,,,,,,,,,,,,,,,,,,,,,,,,,,,,,,,,,,,,,,,,,,,,,,,,,,,,,,,,,,,,1.49,804.7958351001143,None,space,1,0.2746954998001456,806.3904996002093,None,806.3904996002093,None,806.3904996002093,None,,,,,,,,,,,P009,fencog,1,Pre,2021_Aug_10_1058,Go No-Go Task,2021.1.4,120.3451984982374,
,"Rule: When you see a yellow image, do not press 'spacebar'.",Images/Scram1/AF07_NC.jpg,Scramble,Blue,Images/Blue.jpg,space,ParentConditions/YellowYellowBlue_v1.xlsx,YellowYellowBlue,Conditions/Version_1/YellowScramStop.xlsx,no,PASS,0.9763895949527831,,,,,,,,,0,0,0,1,0,1,1,1,0,37,37,37,,,,,,,,,,,,,,,,,,,,,,,,,,,,,,,,,,,,,,,,,,,,,,,,,,,,,,,,,,,,,,,,,,,,,,,,,,,,,,,1.81,806.7932354998775,None,space,1,0.2381672002375126,808.7065095002763,None,808.7065095002763,None,808.7065095002763,None,,,,,,,,,,,P009,fencog,1,Pre,2021_Aug_10_1058,Go No-Go Task,2021.1.4,120.3451984982374,
,"Rule: When you see a yellow image, do not press 'spacebar'.",Images/Scram2/AM23NES.jpg,Scramble,Yellow,Images/Yellow.jpg,None,ParentConditions/YellowYellowBlue_v1.xlsx,YellowYellowBlue,Conditions/Version_1/YellowScramStop.xlsx,yes,PASS,0.6002481140469051,,,,,,,,,0,0,0,1,0,1,1,1,0,38,38,38,,,,,,,,,,,,,,,,,,,,,,,,,,,,,,,,,,,,,,,,,,,,,,,,,,,,,,,,,,,,,,,,,,,,,,,,,,,,,,,1.6,809.1071127001196,None,None,1,,810.814363699872,None,810.814363699872,None,810.814363699872,None,,,,,,,,,,,P009,fencog,1,Pre,2021_Aug_10_1058,Go No-Go Task,2021.1.4,120.3451984982374,
,"Rule: When you see a yellow image, do not press 'spacebar'.",Images/Scram1/AF24NES.jpg,Scramble,Blue,Images/Blue.jpg,space,ParentConditions/YellowYellowBlue_v1.xlsx,YellowYellowBlue,Conditions/Version_1/YellowScramStop.xlsx,no,PASS,0.1129494583795736,,,,,,,,,0,0,0,1,0,1,1,1,0,39,39,39,,,,,,,,,,,,,,,,,,,,,,,,,,,,,,,,,,,,,,,,,,,,,,,,,,,,,,,,,,,,,,,,,,,,,,,,,,,,,,,1.43,811.2191678001545,None,space,1,0.36589419981464744,812.7553218002431,None,812.7553218002431,None,812.7553218002431,None,,,,,,,,,,,P009,fencog,1,Pre,2021_Aug_10_1058,Go No-Go Task,2021.1.4,120.3451984982374,
,"Rule: When you see a yellow image, do not press 'spacebar'.",Images/Scram2/AF33NES.jpg,Scramble,Yellow,Images/Yellow.jpg,None,ParentConditions/YellowYellowBlue_v1.xlsx,YellowYellowBlue,Conditions/Version_1/YellowScramStop.xlsx,yes,PASS,0.8037537420652296,,,,,,,,,0,0,0,1,0,1,1,1,0,40,40,40,,,,,,,,,,,,,,,,,,,,,,,,,,,,,,,,,,,,,,,,,,,,,,,,,,,,,,,,,,,,,,,,,,,,,,,,,,,,,,,1.83,813.1627083001658,None,None,1,,815.0962344999425,None,815.0962344999425,None,815.0962344999425,None,,,,,,,,,,,P009,fencog,1,Pre,2021_Aug_10_1058,Go No-Go Task,2021.1.4,120.3451984982374,
,"Rule: When you see a yellow image, do not press 'spacebar'.",Images/Scram1/AF25NES.jpg,Scramble,Blue,Images/Blue.jpg,space,ParentConditions/YellowYellowBlue_v1.xlsx,YellowYellowBlue,Conditions/Version_1/YellowScramStop.xlsx,no,PASS,0.14378736257712743,,,,,,,,,0,0,0,1,0,1,1,1,0,41,41,41,,,,,,,,,,,,,,,,,,,,,,,,,,,,,,,,,,,,,,,,,,,,,,,,,,,,,,,,,,,,,,,,,,,,,,,,,,,,,,,1.77,815.4969430002384,None,space,1,0.32620180025696754,817.3706249999814,None,817.3706249999814,None,817.3706249999814,None,,,,,,,,,,,P009,fencog,1,Pre,2021_Aug_10_1058,Go No-Go Task,2021.1.4,120.3451984982374,
,"Rule: When you see a yellow image, do not press 'spacebar'.",Images/Scram2/AM10NES.jpg,Scramble,Yellow,Images/Yellow.jpg,None,ParentConditions/YellowYellowBlue_v1.xlsx,YellowYellowBlue,Conditions/Version_1/YellowScramStop.xlsx,yes,PASS,0.5820319295028303,,,,,,,,,0,0,0,1,0,1,1,1,0,42,42,42,,,,,,,,,,,,,,,,,,,,,,,,,,,,,,,,,,,,,,,,,,,,,,,,,,,,,,,,,,,,,,,,,,,,,,,,,,,,,,,1.51,817.7709933998995,None,None,1,,819.3783145998605,None,819.3783145998605,None,819.3783145998605,None,,,,,,,,,,,P009,fencog,1,Pre,2021_Aug_10_1058,Go No-Go Task,2021.1.4,120.3451984982374,
,"Rule: When you see a yellow image, do not press 'spacebar'.",Images/Scram2/BF10_NC.jpg,Scramble,Blue,Images/Blue.jpg,space,ParentConditions/YellowYellowBlue_v1.xlsx,YellowYellowBlue,Conditions/Version_1/YellowScramStop.xlsx,no,PASS,0.2078164907866934,,,,,,,,,0,0,0,1,0,1,1,1,0,43,43,43,,,,,,,,,,,,,,,,,,,,,,,,,,,,,,,,,,,,,,,,,,,,,,,,,,,,,,,,,,,,,,,,,,,,,,,,,,,,,,,1.87,819.7789504998364,None,space,1,0.25633969996124506,821.7442463999614,None,821.7442463999614,None,821.7442463999614,None,,,,,,,,,,,P009,fencog,1,Pre,2021_Aug_10_1058,Go No-Go Task,2021.1.4,120.3451984982374,
,"Rule: When you see a yellow image, do not press 'spacebar'.",Images/Scram1/BF18_NC.jpg,Scramble,Blue,Images/Blue.jpg,space,ParentConditions/YellowYellowBlue_v1.xlsx,YellowYellowBlue,Conditions/Version_1/YellowScramStop.xlsx,no,PASS,0.3689261099445472,,,,,,,,,0,0,0,1,0,1,1,1,0,44,44,44,,,,,,,,,,,,,,,,,,,,,,,,,,,,,,,,,,,,,,,,,,,,,,,,,,,,,,,,,,,,,,,,,,,,,,,,,,,,,,,1.24,822.1526092002168,None,space,1,0.37046039989218116,823.4937895000912,None,823.4937895000912,None,823.4937895000912,None,,,,,,,,,,,P009,fencog,1,Pre,2021_Aug_10_1058,Go No-Go Task,2021.1.4,120.3451984982374,
,"Rule: When you see a yellow image, do not press 'spacebar'.",Images/Scram2/HF09_NC.jpg,Scramble,Blue,Images/Blue.jpg,space,ParentConditions/YellowYellowBlue_v1.xlsx,YellowYellowBlue,Conditions/Version_1/YellowScramStop.xlsx,no,PASS,0.286178806367275,,,,,,,,,0,0,0,1,0,1,1,1,0,45,45,45,,,,,,,,,,,,,,,,,,,,,,,,,,,,,,,,,,,,,,,,,,,,,,,,,,,,,,,,,,,,,,,,,,,,,,,,,,,,,,,1.46,823.8984865001403,None,space,1,0.32474600011482835,825.4600030002184,None,825.4600030002184,None,825.4600030002184,None,,,,,,,,,,,P009,fencog,1,Pre,2021_Aug_10_1058,Go No-Go Task,2021.1.4,120.3451984982374,
,"Rule: When you see a yellow image, do not press 'spacebar'.",Images/Scram1/BF05_NC.jpg,Scramble,Blue,Images/Blue.jpg,space,ParentConditions/YellowYellowBlue_v1.xlsx,YellowYellowBlue,Conditions/Version_1/YellowScramStop.xlsx,no,PASS,0.7692637816145413,,,,,,,,,0,0,0,1,0,1,1,1,0,46,46,46,,,,,,,,,,,,,,,,,,,,,,,,,,,,,,,,,,,,,,,,,,,,,,,,,,,,,,,,,,,,,,,,,,,,,,,,,,,,,,,1.66,825.8618570002727,None,space,1,0.2954090000130236,827.6258935998194,None,827.6258935998194,None,827.6258935998194,None,,,,,,,,,,,P009,fencog,1,Pre,2021_Aug_10_1058,Go No-Go Task,2021.1.4,120.3451984982374,
,"Rule: When you see a yellow image, do not press 'spacebar'.",Images/Scram1/AM17NES.jpg,Scramble,Blue,Images/Blue.jpg,space,ParentConditions/YellowYellowBlue_v1.xlsx,YellowYellowBlue,Conditions/Version_1/YellowScramStop.xlsx,no,PASS,0.7553300637440975,,,,,,,,,0,0,0,1,0,1,1,1,0,47,47,47,,,,,,,,,,,,,,,,,,,,,,,,,,,,,,,,,,,,,,,,,,,,,,,,,,,,,,,,,,,,,,,,,,,,,,,,,,,,,,,1.65,828.0266026002355,None,space,1,0.2894650995731354,829.7753206002526,None,829.7753206002526,None,829.7753206002526,None,,,,,,,,,,,P009,fencog,1,Pre,2021_Aug_10_1058,Go No-Go Task,2021.1.4,120.3451984982374,
,"Rule: When you see a yellow image, do not press 'spacebar'.",Images/Scram2/AM09_NC.jpg,Scramble,Yellow,Images/Yellow.jpg,None,ParentConditions/YellowYellowBlue_v1.xlsx,YellowYellowBlue,Conditions/Version_1/YellowScramStop.xlsx,yes,PASS,0.984865364539922,,,,,,,,,0,0,0,1,0,1,1,1,0,48,48,48,,,,,,,,,,,,,,,,,,,,,,,,,,,,,,,,,,,,,,,,,,,,,,,,,,,,,,,,,,,,,,,,,,,,,,,,,,,,,,,1.89,830.1752209002152,None,None,1,,832.1662103999406,None,832.1662103999406,None,832.1662103999406,None,,,,,,,,,,,P009,fencog,1,Pre,2021_Aug_10_1058,Go No-Go Task,2021.1.4,120.3451984982374,
,"Rule: When you see a yellow image, do not press 'spacebar'.",Images/Scram2/AF09NES.jpg,Scramble,Blue,Images/Blue.jpg,space,ParentConditions/YellowYellowBlue_v1.xlsx,YellowYellowBlue,Conditions/Version_1/YellowScramStop.xlsx,no,PASS,0.2099853615180053,,,,,,,,,0,0,0,1,0,1,1,1,0,49,49,49,,,,,,,,,,,,,,,,,,,,,,,,,,,,,,,,,,,,,,,,,,,,,,,,,,,,,,,,,,,,,,,,,,,,,,,,,,,,,,,1.78,832.5661432002671,None,space,1,0.27180959982797503,834.4488909998909,None,834.4488909998909,None,834.4488909998909,None,,,,,,,,,,,P009,fencog,1,Pre,2021_Aug_10_1058,Go No-Go Task,2021.1.4,120.3451984982374,
,"Rule: When you see a yellow image, do not press 'spacebar'.",Images/Scram2/AM04_NC.jpg,Scramble,Yellow,Images/Yellow.jpg,None,ParentConditions/YellowYellowBlue_v1.xlsx,YellowYellowBlue,Conditions/Version_1/YellowScramStop.xlsx,yes,PASS,0.8595632143536898,,,,,,,,,0,0,0,1,0,1,1,1,0,50,50,50,,,,,,,,,,,,,,,,,,,,,,,,,,,,,,,,,,,,,,,,,,,,,,,,,,,,,,,,,,,,,,,,,,,,,,,,,,,,,,,1.54,834.8486962001771,None,None,1,,836.490008499939,None,836.490008499939,None,836.490008499939,None,,,,,,,,,,,P009,fencog,1,Pre,2021_Aug_10_1058,Go No-Go Task,2021.1.4,120.3451984982374,
,"Rule: When you see a yellow image, do not press 'spacebar'.",Images/Scram2/BF05_NC.jpg,Scramble,Yellow,Images/Yellow.jpg,None,ParentConditions/YellowYellowBlue_v1.xlsx,YellowYellowBlue,Conditions/Version_1/YellowScramStop.xlsx,yes,PASS,0.9038892448018151,,,,,,,,,0,0,0,1,0,1,1,1,0,51,51,51,,,,,,,,,,,,,,,,,,,,,,,,,,,,,,,,,,,,,,,,,,,,,,,,,,,,,,,,,,,,,,,,,,,,,,,,,,,,,,,1.58,836.8907011002302,None,space,0,0.267746000085026,838.5727472002618,None,838.5727472002618,None,838.5727472002618,None,,,,,,,,,,,P009,fencog,1,Pre,2021_Aug_10_1058,Go No-Go Task,2021.1.4,120.3451984982374,
,"Rule: When you see a yellow image, do not press 'spacebar'.",Images/Scram1/HM06_NC.jpg,Scramble,Blue,Images/Blue.jpg,space,ParentConditions/YellowYellowBlue_v1.xlsx,YellowYellowBlue,Conditions/Version_1/YellowScramStop.xlsx,no,PASS,0.7183076447823791,,,,,,,,,0,0,0,1,0,1,1,1,0,52,52,52,,,,,,,,,,,,,,,,,,,,,,,,,,,,,,,,,,,,,,,,,,,,,,,,,,,,,,,,,,,,,,,,,,,,,,,,,,,,,,,1.8,838.9729201002046,None,space,1,0.3683625999838114,840.880392299965,None,840.880392299965,None,840.880392299965,None,,,,,,,,,,,P009,fencog,1,Pre,2021_Aug_10_1058,Go No-Go Task,2021.1.4,120.3451984982374,
,"Rule: When you see a yellow image, do not press 'spacebar'.",Images/Scram2/AF07NES.jpg,Scramble,Blue,Images/Blue.jpg,space,ParentConditions/YellowYellowBlue_v1.xlsx,YellowYellowBlue,Conditions/Version_1/YellowScramStop.xlsx,no,PASS,0.8685827011476244,,,,,,,,,0,0,0,1,0,1,1,1,0,53,53,53,,,,,,,,,,,,,,,,,,,,,,,,,,,,,,,,,,,,,,,,,,,,,,,,,,,,,,,,,,,,,,,,,,,,,,,,,,,,,,,1.95,841.2793712001294,None,space,1,0.3669246002100408,843.3296628999524,None,843.3296628999524,None,843.3296628999524,None,,,,,,,,,,,P009,fencog,1,Pre,2021_Aug_10_1058,Go No-Go Task,2021.1.4,120.3451984982374,
,"Rule: When you see a yellow image, do not press 'spacebar'.",Images/Scram1/BM01_NC.jpg,Scramble,Blue,Images/Blue.jpg,space,ParentConditions/YellowYellowBlue_v1.xlsx,YellowYellowBlue,Conditions/Version_1/YellowScramStop.xlsx,no,PASS,0.7516161036696042,,,,,,,,,0,0,0,1,0,1,1,1,0,54,54,54,,,,,,,,,,,,,,,,,,,,,,,,,,,,,,,,,,,,,,,,,,,,,,,,,,,,,,,,,,,,,,,,,,,,,,,,,,,,,,,1.52,843.7349852002226,None,space,1,0.2632487998344004,845.3539729001932,None,845.3539729001932,None,845.3539729001932,None,,,,,,,,,,,P009,fencog,1,Pre,2021_Aug_10_1058,Go No-Go Task,2021.1.4,120.3451984982374,
,"Rule: When you see a yellow image, do not press 'spacebar'.",Images/Scram2/AF07_NC.jpg,Scramble,Blue,Images/Blue.jpg,space,ParentConditions/YellowYellowBlue_v1.xlsx,YellowYellowBlue,Conditions/Version_1/YellowScramStop.xlsx,no,PASS,0.609812891298236,,,,,,,,,0,0,0,1,0,1,1,1,0,55,55,55,,,,,,,,,,,,,,,,,,,,,,,,,,,,,,,,,,,,,,,,,,,,,,,,,,,,,,,,,,,,,,,,,,,,,,,,,,,,,,,1.25,845.7584203002043,None,space,1,0.3124804999679327,847.1118097002618,None,847.1118097002618,None,847.1118097002618,None,,,,,,,,,,,P009,fencog,1,Pre,2021_Aug_10_1058,Go No-Go Task,2021.1.4,120.3451984982374,
