CondFileP,Instructions,FaceE,Express,ColourT,ColourF,CorrectAnsP,MasterCondFile,BlockOrder,CondFile,ColCheck,Triplicate_check,SORT_BY_SMALLEST,EPracticeOuterLoop.thisRepN,EPracticeOuterLoop.thisTrialN,EPracticeOuterLoop.thisN,EPracticeOuterLoop.thisIndex,EPracticeInnerLoop.thisRepN,EPracticeInnerLoop.thisTrialN,EPracticeInnerLoop.thisN,EPracticeInnerLoop.thisIndex,MasterLoop.thisRepN,MasterLoop.thisTrialN,MasterLoop.thisN,MasterLoop.thisIndex,OuterLoop.thisRepN,OuterLoop.thisTrialN,OuterLoop.thisN,OuterLoop.thisIndex,InnerLoop.thisRepN,InnerLoop.thisTrialN,InnerLoop.thisN,InnerLoop.thisIndex,text_13.started,text_13.stopped,key_resp_10.keys,key_resp_10.rt,key_resp_10.started,key_resp_10.stopped,text4.started,text4.stopped,EmotionTaskInstructions1.keys,EmotionTaskInstructions1.rt,EmotionTaskInstructions1.started,EmotionTaskInstructions1.stopped,text_4.started,text_4.stopped,key_resp_5.keys,key_resp_5.rt,key_resp_5.started,key_resp_5.stopped,Text_14.started,Text_14.stopped,key_resp_9.keys,key_resp_9.rt,key_resp_9.started,key_resp_9.stopped,text_5.started,text_5.stopped,text_6.started,text_6.stopped,key_resp_7.keys,key_resp_7.rt,key_resp_7.started,key_resp_7.stopped,text_10.started,text_10.stopped,text_11.started,text_11.stopped,text_12.started,text_12.stopped,ISIjitterPractice,EPracticeISIMarker.started,EPracticeISIMarker.stopped,Pract.keys,Pract.corr,Pract.started,Pract.stopped,PracticeFace.started,PracticeFace.stopped,ColourPractice.started,ColourPractice.stopped,text_7.started,text_7.stopped,Pract.rt,EndOfPractice.started,EndOfPractice.stopped,key_resp_8.keys,key_resp_8.rt,key_resp_8.started,key_resp_8.stopped,text_8.started,text_8.stopped,key_resp_6.keys,key_resp_6.rt,key_resp_6.started,key_resp_6.stopped,text_2.started,text_2.stopped,text_3.started,text_3.stopped,key_resp_3.keys,key_resp_3.rt,key_resp_3.started,key_resp_3.stopped,TaskBlock.started,TaskBlock.stopped,BlockNo1.started,BlockNo1.stopped,OfBlock.started,OfBlock.stopped,ISIjitter,ISImarker.started,ISImarker.stopped,key_resp.keys,key_resp.corr,key_resp.rt,key_resp.started,key_resp.stopped,FaceSet.started,FaceSet.stopped,Colour.started,Colour.stopped,EndBlockText.started,EndBlockText.stopped,key_resp_4.keys,key_resp_4.rt,key_resp_4.started,key_resp_4.stopped,BreakText2.started,BreakText2.stopped,PressToContinue.started,PressToContinue.stopped,participant,Study Name,Task Version (required to run),PRE/POST,date,expName,psychopyVersion,frameRate,
,,,,,,,,,,,,,,,,,,,,,,,,,,,,,,,,,80.56732690008357,None,space,4.697559899883345,81.5586860999465,None,,,,,,,,,,,,,,,,,,,,,,,,,,,,,,,,,,,,,,,,,,,,,,,,,,,,,,,,,,,,,,,,,,,,,,,,,,,,,,,,,,,,,,,,,,,,,,,P010,fencog,2,Pre,2021_Sep_06_1031,Go No-Go Task,2021.1.4,120.33303360607265,
,,,,,,,,,,,,,,,,,,,,,,,,,,,,,,,,,,,,,,,87.75862860004418,None,space,216.625624100212,87.75862860004418,None,,,,,,,,,,,,,,,,,,,,,,,,,,,,,,,,,,,,,,,,,,,,,,,,,,,,,,,,,,,,,,,,,,,,,,,,,,,,,,,,,,,,,,,,,P010,fencog,2,Pre,2021_Sep_06_1031,Go No-Go Task,2021.1.4,120.33303360607265,
,,,,,,,,,,,,,,,,,,,,,,,,,,,,,,,,,,,,,,,,,,,,,304.44894229993224,None,space,2.6316519000101835,304.44894229993224,None,,,,,,,,,,,,,,,,,,,,,,,,,,,,,,,,,,,,,,,,,,,,,,,,,,,,,,,,,,,,,,,,,,,,,,,,,,,,,,,,,,,P010,fencog,2,Pre,2021_Sep_06_1031,Go No-Go Task,2021.1.4,120.33303360607265,
,,,,,,,,,,,,,,,,,,,,,,,,,,,,,,,,,,,,,,,,,,,,,,,,,,,307.0943293001037,None,space,13.017721900017932,307.0943293001037,None,,,,,,,,,,,,,,,,,,,,,,,,,,,,,,,,,,,,,,,,,,,,,,,,,,,,,,,,,,,,,,,,,,,,,,,,,,,,,P010,fencog,2,Pre,2021_Sep_06_1031,Go No-Go Task,2021.1.4,120.33303360607265,
EPracticeConditions/BlueEyes.csv,"Rule: When you see a blue image, do not press 'spacebar'.",Images/Fearful/AF01_FO.jpg,Fear,Blue,Images/Blue.jpg,None,,,,,,,0,0,0,0,0,0,0,1,,,,,,,,,,,,,,,,,,,,,,,,,,,,,,,,,,,,,320.1876666001044,None,323.17901830002666,None,space,1.517237199936062,323.17901830002666,None,320.1876666001044,None,320.1876666001044,None,320.1876666001044,None,1.8,324.8054583000485,None,None,1,326.76985169993713,None,326.76985169993713,None,326.76985169993713,None,328.15513560012914,None,,,,,,,,,,,,,,,,,,,,,,,,,,,,,,,,,,,,,,,,,,,,,,,,,,P010,fencog,2,Pre,2021_Sep_06_1031,Go No-Go Task,2021.1.4,120.33303360607265,
EPracticeConditions/BlueEyes.csv,"Rule: When you see a blue image, do not press 'spacebar'.",Images/Happy/HF04_HE.jpg,Happy,Yellow,Images/Yellow.jpg,space,,,,,,,0,0,0,0,0,1,1,4,,,,,,,,,,,,,,,,,,,,,,,,,,,,,,,,,,,,,,,,,,,,,,,,,,,1.3,329.64785160007887,None,space,1,331.05242770002224,None,331.05242770002224,None,331.05242770002224,None,331.95190989994444,None,0.34029110008850694,,,,,,,,,,,,,,,,,,,,,,,,,,,,,,,,,,,,,,,,,,,,,,,,,P010,fencog,2,Pre,2021_Sep_06_1031,Go No-Go Task,2021.1.4,120.33303360607265,
EPracticeConditions/BlueEyes.csv,"Rule: When you see a blue image, do not press 'spacebar'.",Images/Happy/BM02_HO.jpg,Happy,Yellow,Images/Yellow.jpg,space,,,,,,,0,0,0,0,0,2,2,2,,,,,,,,,,,,,,,,,,,,,,,,,,,,,,,,,,,,,,,,,,,,,,,,,,,1.6,333.9589635999873,None,space,1,335.6677127999719,None,335.6677127999719,None,335.6677127999719,None,336.5636661001481,None,0.3252431999426335,,,,,,,,,,,,,,,,,,,,,,,,,,,,,,,,,,,,,,,,,,,,,,,,,P010,fencog,2,Pre,2021_Sep_06_1031,Go No-Go Task,2021.1.4,120.33303360607265,
EPracticeConditions/BlueEyes.csv,"Rule: When you see a blue image, do not press 'spacebar'.",Images/Fearful/HM09_FC.jpg,Fear,Blue,Images/Blue.jpg,None,,,,,,,0,0,0,0,0,3,3,0,,,,,,,,,,,,,,,,,,,,,,,,,,,,,,,,,,,,,,,,,,,,,,,,,,,1.4,338.5660147999879,None,None,1,340.0664256999735,None,340.0664256999735,None,340.0664256999735,None,340.96244879998267,None,,,,,,,,,,,,,,,,,,,,,,,,,,,,,,,,,,,,,,,,,,,,,,,,,,P010,fencog,2,Pre,2021_Sep_06_1031,Go No-Go Task,2021.1.4,120.33303360607265,
EPracticeConditions/BlueEyes.csv,"Rule: When you see a blue image, do not press 'spacebar'.",Images/Happy/HF05_HO.jpg,Happy,Yellow,Images/Yellow.jpg,space,,,,,,,0,0,0,0,0,4,4,5,,,,,,,,,,,,,,,,,,,,,,,,,,,,,,,,,,,,,,,,,,,,,,,,,,,1.7,342.9670869000256,None,space,1,344.77321880008094,None,344.77321880008094,None,344.77321880008094,None,345.6691767000593,None,0.3625743000302464,,,,,,,,,,,,,,,,,,,,,,,,,,,,,,,,,,,,,,,,,,,,,,,,,P010,fencog,2,Pre,2021_Sep_06_1031,Go No-Go Task,2021.1.4,120.33303360607265,
EPracticeConditions/BlueEyes.csv,"Rule: When you see a blue image, do not press 'spacebar'.",Images/Happy/BM08_HO.jpg,Happy,Yellow,Images/Yellow.jpg,space,,,,,,,0,0,0,0,0,5,5,3,,,,,,,,,,,,,,,,,,,,,,,,,,,,,,,,,,,,,,,,,,,,,,,,,,,1.2,347.6751363000367,None,None,0,348.98064870014787,None,348.98064870014787,None,348.98064870014787,None,349.8934196000919,None,,,,,,,,,,,,,,,,,,,,,,,,,,,,,,,,,,,,,,,,,,,,,,,,,,P010,fencog,2,Pre,2021_Sep_06_1031,Go No-Go Task,2021.1.4,120.33303360607265,
EPracticeConditions/BlueEyes.csv,"Rule: When you see a blue image, do not press 'spacebar'.",Images/Happy/HF10_HE.jpg,Happy,Yellow,Images/Yellow.jpg,space,,,,,,,0,0,0,0,0,6,6,7,,,,,,,,,,,,,,,,,,,,,,,,,,,,,,,,,,,,,,,,,,,,,,,,,,,1.9,351.8870471001137,None,space,1,353.8872365001589,None,353.8872365001589,None,353.8872365001589,None,354.7898339999374,None,0.3625862000044435,,,,,,,,,,,,,,,,,,,,,,,,,,,,,,,,,,,,,,,,,,,,,,,,,P010,fencog,2,Pre,2021_Sep_06_1031,Go No-Go Task,2021.1.4,120.33303360607265,
EPracticeConditions/BlueEyes.csv,"Rule: When you see a blue image, do not press 'spacebar'.",Images/Happy/HF09_HE.jpg,Happy,Yellow,Images/Yellow.jpg,space,,,,,,,0,0,0,0,0,7,7,6,,,,,,,,,,,,,,,,,,,,,,,,,,,,,,,,,,,,,,,,,,,,,,,,,,,1.5,356.79396990011446,None,space,1,358.40262229996733,None,358.40262229996733,None,358.40262229996733,None,359.2931928001344,None,0.3263717000372708,,,,,,,,,,,,,,,,,,,,,,,,,,,,,,,,,,,,,,,,,,,,,,,,,P010,fencog,2,Pre,2021_Sep_06_1031,Go No-Go Task,2021.1.4,120.33303360607265,
EPracticeConditions/BlueEyes.csv,"Rule: When you see a blue image, do not press 'spacebar'.",,,,,,,,,,,,0,0,0,0,,,,,,,,,,,,,,,,,,,,,,,,,,,,,,,,,,,,,,,,,,,,,,,,,,,,,,,,,,,,,,,,,,,,,,,,,,,,,,,,,,,,,,,,,,,,,,,,,,,,,,,,,,,,,,,,,,,,,P010,fencog,2,Pre,2021_Sep_06_1031,Go No-Go Task,2021.1.4,120.33303360607265,
EPracticeConditions/YellowEyes.csv,"Rule: When you see a yellow image, do not press 'spacebar'.",Images/Fearful/AM23AFS.jpg,Fear,Blue,Images/Blue.jpg,space,,,,,,,0,1,1,1,0,0,0,6,,,,,,,,,,,,,,,,,,,,,,,,,,,,,,,,,,,,,361.31104890001006,None,364.30026940000243,None,space,0.6039644000120461,364.30026940000243,None,361.31104890001006,None,361.31104890001006,None,361.31104890001006,None,1.5,364.9271523000207,None,None,0,366.5251728000585,None,366.5251728000585,None,366.5251728000585,None,367.4316432001069,None,,,,,,,,,,,,,,,,,,,,,,,,,,,,,,,,,,,,,,,,,,,,,,,,,,P010,fencog,2,Pre,2021_Sep_06_1031,Go No-Go Task,2021.1.4,120.33303360607265,
EPracticeConditions/YellowEyes.csv,"Rule: When you see a yellow image, do not press 'spacebar'.",Images/Happy/BF05_HO.jpg,Happy,Yellow,Images/Yellow.jpg,None,,,,,,,0,1,1,1,0,1,1,1,,,,,,,,,,,,,,,,,,,,,,,,,,,,,,,,,,,,,,,,,,,,,,,,,,,1.7,369.43576560006477,None,None,1,371.2405560000334,None,371.2405560000334,None,371.2405560000334,None,372.1532392001245,None,,,,,,,,,,,,,,,,,,,,,,,,,,,,,,,,,,,,,,,,,,,,,,,,,,P010,fencog,2,Pre,2021_Sep_06_1031,Go No-Go Task,2021.1.4,120.33303360607265,
EPracticeConditions/YellowEyes.csv,"Rule: When you see a yellow image, do not press 'spacebar'.",Images/Fearful/AM17AFS.jpg,Fear,Blue,Images/Blue.jpg,space,,,,,,,0,1,1,1,0,2,2,3,,,,,,,,,,,,,,,,,,,,,,,,,,,,,,,,,,,,,,,,,,,,,,,,,,,1.6,374.14712000009604,None,space,1,375.8475029000547,None,375.8475029000547,None,375.8475029000547,None,376.74127360014245,None,0.27273790002800524,,,,,,,,,,,,,,,,,,,,,,,,,,,,,,,,,,,,,,,,,,,,,,,,,P010,fencog,2,Pre,2021_Sep_06_1031,Go No-Go Task,2021.1.4,120.33303360607265,
EPracticeConditions/YellowEyes.csv,"Rule: When you see a yellow image, do not press 'spacebar'.",Images/Happy/AM32HAS.jpg,Happy,Yellow,Images/Yellow.jpg,None,,,,,,,0,1,1,1,0,3,3,0,,,,,,,,,,,,,,,,,,,,,,,,,,,,,,,,,,,,,,,,,,,,,,,,,,,1.3,378.7478418999817,None,None,1,380.15481420001015,None,380.15481420001015,None,380.15481420001015,None,381.05139610008337,None,,,,,,,,,,,,,,,,,,,,,,,,,,,,,,,,,,,,,,,,,,,,,,,,,,P010,fencog,2,Pre,2021_Sep_06_1031,Go No-Go Task,2021.1.4,120.33303360607265,
EPracticeConditions/YellowEyes.csv,"Rule: When you see a yellow image, do not press 'spacebar'.",Images/Fearful/AM22AFS.jpg,Fear,Blue,Images/Blue.jpg,space,,,,,,,0,1,1,1,0,4,4,5,,,,,,,,,,,,,,,,,,,,,,,,,,,,,,,,,,,,,,,,,,,,,,,,,,,1.2,383.05698540015146,None,space,1,384.36136320000514,None,384.36136320000514,None,384.36136320000514,None,385.26010940014385,None,0.31165300006978214,,,,,,,,,,,,,,,,,,,,,,,,,,,,,,,,,,,,,,,,,,,,,,,,,P010,fencog,2,Pre,2021_Sep_06_1031,Go No-Go Task,2021.1.4,120.33303360607265,
EPracticeConditions/YellowEyes.csv,"Rule: When you see a yellow image, do not press 'spacebar'.",Images/Fearful/AM16AFS.jpg,Fear,Blue,Images/Blue.jpg,space,,,,,,,0,1,1,1,0,5,5,2,,,,,,,,,,,,,,,,,,,,,,,,,,,,,,,,,,,,,,,,,,,,,,,,,,,1.9,387.26129689998925,None,space,1,389.2685492001474,None,389.2685492001474,None,389.2685492001474,None,390.1732993000187,None,0.32361119985580444,,,,,,,,,,,,,,,,,,,,,,,,,,,,,,,,,,,,,,,,,,,,,,,,,P010,fencog,2,Pre,2021_Sep_06_1031,Go No-Go Task,2021.1.4,120.33303360607265,
EPracticeConditions/YellowEyes.csv,"Rule: When you see a yellow image, do not press 'spacebar'.",Images/Fearful/AM19AFS.jpg,Fear,Blue,Images/Blue.jpg,space,,,,,,,0,1,1,1,0,6,6,4,,,,,,,,,,,,,,,,,,,,,,,,,,,,,,,,,,,,,,,,,,,,,,,,,,,1.4,392.18125499994494,None,space,1,393.6838386999443,None,393.6838386999443,None,393.6838386999443,None,394.58831300004385,None,0.3323379000648856,,,,,,,,,,,,,,,,,,,,,,,,,,,,,,,,,,,,,,,,,,,,,,,,,P010,fencog,2,Pre,2021_Sep_06_1031,Go No-Go Task,2021.1.4,120.33303360607265,
EPracticeConditions/YellowEyes.csv,"Rule: When you see a yellow image, do not press 'spacebar'.",Images/Fearful/AM24AFS.jpg,Fear,Blue,Images/Blue.jpg,space,,,,,,,0,1,1,1,0,7,7,7,,,,,,,,,,,,,,,,,,,,,,,,,,,,,,,,,,,,,,,,,,,,,,,,,,,1.8,396.59049349999987,None,space,1,398.4908629001584,None,398.4908629001584,None,398.4908629001584,None,399.3877179999836,None,0.2775705000385642,,,,,,,,,,,,,,,,,,,,,,,,,,,,,,,,,,,,,,,,,,,,,,,,,P010,fencog,2,Pre,2021_Sep_06_1031,Go No-Go Task,2021.1.4,120.33303360607265,
EPracticeConditions/YellowEyes.csv,"Rule: When you see a yellow image, do not press 'spacebar'.",,,,,,,,,,,,0,1,1,1,,,,,,,,,,,,,,,,,,,,,,,,,,,,,,,,,,,,,,,,,,,,,,,,,,,,,,,,,,,,,,,,,,,,,,,,,,,,,,,,,,,,,,,,,,,,,,,,,,,,,,,,,,,,,,,,,,,,,P010,fencog,2,Pre,2021_Sep_06_1031,Go No-Go Task,2021.1.4,120.33303360607265,
EPracticeConditions/BlueScram.csv,"Rule: When you see a blue image, do not press 'spacebar'.",Images/Scram1/AM03NES.jpg,Scramble,Yellow,Images/Yellow.jpg,space,,,,,,,0,2,2,2,0,0,0,4,,,,,,,,,,,,,,,,,,,,,,,,,,,,,,,,,,,,,401.39940320001915,None,404.3886156999506,None,space,0.39567149989306927,404.3886156999506,None,401.39940320001915,None,401.39940320001915,None,401.39940320001915,None,1.3,404.8159719000105,None,None,0,406.221916400129,None,406.221916400129,None,406.221916400129,None,407.1283803000115,None,,,,,,,,,,,,,,,,,,,,,,,,,,,,,,,,,,,,,,,,,,,,,,,,,,P010,fencog,2,Pre,2021_Sep_06_1031,Go No-Go Task,2021.1.4,120.33303360607265,
EPracticeConditions/BlueScram.csv,"Rule: When you see a blue image, do not press 'spacebar'.",Images/Scram1/AM13NES.jpg,Scramble,Yellow,Images/Yellow.jpg,space,,,,,,,0,2,2,2,0,1,1,5,,,,,,,,,,,,,,,,,,,,,,,,,,,,,,,,,,,,,,,,,,,,,,,,,,,1.4,409.1284541001078,None,space,1,410.62895990000106,None,410.62895990000106,None,410.62895990000106,None,411.5192188001238,None,0.29104670020751655,,,,,,,,,,,,,,,,,,,,,,,,,,,,,,,,,,,,,,,,,,,,,,,,,P010,fencog,2,Pre,2021_Sep_06_1031,Go No-Go Task,2021.1.4,120.33303360607265,
EPracticeConditions/BlueScram.csv,"Rule: When you see a blue image, do not press 'spacebar'.",Images/Scram2/AF25NES.jpg,Scramble,Yellow,Images/Yellow.jpg,space,,,,,,,0,2,2,2,0,2,2,7,,,,,,,,,,,,,,,,,,,,,,,,,,,,,,,,,,,,,,,,,,,,,,,,,,,1.6,413.5199613000732,None,space,1,415.2275613001548,None,415.2275613001548,None,415.2275613001548,None,416.12390700005926,None,0.3484219000674784,,,,,,,,,,,,,,,,,,,,,,,,,,,,,,,,,,,,,,,,,,,,,,,,,P010,fencog,2,Pre,2021_Sep_06_1031,Go No-Go Task,2021.1.4,120.33303360607265,
EPracticeConditions/BlueScram.csv,"Rule: When you see a blue image, do not press 'spacebar'.",Images/Scram1/AM04_NC.jpg,Scramble,Yellow,Images/Yellow.jpg,space,,,,,,,0,2,2,2,0,3,3,3,,,,,,,,,,,,,,,,,,,,,,,,,,,,,,,,,,,,,,,,,,,,,,,,,,,1.8,418.1256763001438,None,space,1,420.0260569001548,None,420.0260569001548,None,420.0260569001548,None,420.9227855000645,None,0.2710174999665469,,,,,,,,,,,,,,,,,,,,,,,,,,,,,,,,,,,,,,,,,,,,,,,,,P010,fencog,2,Pre,2021_Sep_06_1031,Go No-Go Task,2021.1.4,120.33303360607265,
EPracticeConditions/BlueScram.csv,"Rule: When you see a blue image, do not press 'spacebar'.",Images/Scram1/BF18_NC.jpg,Scramble,Blue,Images/Blue.jpg,None,,,,,,,0,2,2,2,0,4,4,1,,,,,,,,,,,,,,,,,,,,,,,,,,,,,,,,,,,,,,,,,,,,,,,,,,,1.7,422.924574600067,None,space,0,424.7246886000503,None,424.7246886000503,None,424.7246886000503,None,425.6238885000348,None,0.34770749998278916,,,,,,,,,,,,,,,,,,,,,,,,,,,,,,,,,,,,,,,,,,,,,,,,,P010,fencog,2,Pre,2021_Sep_06_1031,Go No-Go Task,2021.1.4,120.33303360607265,
EPracticeConditions/BlueScram.csv,"Rule: When you see a blue image, do not press 'spacebar'.",Images/Scram1/BM08_NC.jpg,Scramble,Blue,Images/Blue.jpg,None,,,,,,,0,2,2,2,0,5,5,0,,,,,,,,,,,,,,,,,,,,,,,,,,,,,,,,,,,,,,,,,,,,,,,,,,,1.2,427.6240461000707,None,None,1,428.9317783000879,None,428.9317783000879,None,428.9317783000879,None,429.8306275000796,None,,,,,,,,,,,,,,,,,,,,,,,,,,,,,,,,,,,,,,,,,,,,,,,,,,P010,fencog,2,Pre,2021_Sep_06_1031,Go No-Go Task,2021.1.4,120.33303360607265,
EPracticeConditions/BlueScram.csv,"Rule: When you see a blue image, do not press 'spacebar'.",Images/Scram2/AF10_NC.jpg,Scramble,Yellow,Images/Yellow.jpg,space,,,,,,,0,2,2,2,0,6,6,2,,,,,,,,,,,,,,,,,,,,,,,,,,,,,,,,,,,,,,,,,,,,,,,,,,,1.9,431.83059730008245,None,space,1,433.8308703000657,None,433.8308703000657,None,433.8308703000657,None,434.7335479001049,None,0.3862700001336634,,,,,,,,,,,,,,,,,,,,,,,,,,,,,,,,,,,,,,,,,,,,,,,,,P010,fencog,2,Pre,2021_Sep_06_1031,Go No-Go Task,2021.1.4,120.33303360607265,
EPracticeConditions/BlueScram.csv,"Rule: When you see a blue image, do not press 'spacebar'.",Images/Scram2/AM03_NC.jpg,Scramble,Yellow,Images/Yellow.jpg,space,,,,,,,0,2,2,2,0,7,7,6,,,,,,,,,,,,,,,,,,,,,,,,,,,,,,,,,,,,,,,,,,,,,,,,,,,1.5,436.736972700106,None,space,1,438.3374394001439,None,438.3374394001439,None,438.3374394001439,None,439.2424351000227,None,0.3507502998691052,,,,,,,,,,,,,,,,,,,,,,,,,,,,,,,,,,,,,,,,,,,,,,,,,P010,fencog,2,Pre,2021_Sep_06_1031,Go No-Go Task,2021.1.4,120.33303360607265,
EPracticeConditions/BlueScram.csv,"Rule: When you see a blue image, do not press 'spacebar'.",,,,,,,,,,,,0,2,2,2,,,,,,,,,,,,,,,,,,,,,,,,,,,,,,,,,,,,,,,,,,,,,,,,,,,,,,,,,,,,,,,,,,,,,,,,,,,,,,,,,,,,,,,,,,,,,,,,,,,,,,,,,,,,,,,,,,,,,P010,fencog,2,Pre,2021_Sep_06_1031,Go No-Go Task,2021.1.4,120.33303360607265,
EPracticeConditions/YellowScram.csv,"Rule: When you see a yellow image, do not press 'spacebar'.",Images/Scram1/AF24NES.jpg,Scramble,Blue,Images/Blue.jpg,space,,,,,,,0,3,3,3,0,0,0,7,,,,,,,,,,,,,,,,,,,,,,,,,,,,,,,,,,,,,441.25304440013133,None,444.2435697000474,None,space,0.6927978000603616,444.2435697000474,None,441.25304440013133,None,441.25304440013133,None,441.25304440013133,None,1.4,444.9515273999423,None,space,1,446.451635299949,None,446.451635299949,None,446.451635299949,None,447.3515542000532,None,0.3161471001803875,,,,,,,,,,,,,,,,,,,,,,,,,,,,,,,,,,,,,,,,,,,,,,,,,P010,fencog,2,Pre,2021_Sep_06_1031,Go No-Go Task,2021.1.4,120.33303360607265,
EPracticeConditions/YellowScram.csv,"Rule: When you see a yellow image, do not press 'spacebar'.",Images/Scram1/AF07NES.jpg,Scramble,Blue,Images/Blue.jpg,space,,,,,,,0,3,3,3,0,1,1,3,,,,,,,,,,,,,,,,,,,,,,,,,,,,,,,,,,,,,,,,,,,,,,,,,,,1.7,449.3592294000555,None,space,1,451.1669189000968,None,451.1669189000968,None,451.1669189000968,None,452.06198649993166,None,0.28134829993359745,,,,,,,,,,,,,,,,,,,,,,,,,,,,,,,,,,,,,,,,,,,,,,,,,P010,fencog,2,Pre,2021_Sep_06_1031,Go No-Go Task,2021.1.4,120.33303360607265,
EPracticeConditions/YellowScram.csv,"Rule: When you see a yellow image, do not press 'spacebar'.",Images/Scram1/AF30NES.JPG,Scramble,Blue,Images/Blue.jpg,space,,,,,,,0,3,3,3,0,2,2,4,,,,,,,,,,,,,,,,,,,,,,,,,,,,,,,,,,,,,,,,,,,,,,,,,,,1.9,454.0680869000498,None,space,1,456.07381989993155,None,456.07381989993155,None,456.07381989993155,None,456.97067330009304,None,0.302986100083217,,,,,,,,,,,,,,,,,,,,,,,,,,,,,,,,,,,,,,,,,,,,,,,,,P010,fencog,2,Pre,2021_Sep_06_1031,Go No-Go Task,2021.1.4,120.33303360607265,
EPracticeConditions/YellowScram.csv,"Rule: When you see a yellow image, do not press 'spacebar'.",Images/Scram2/AM03NES.jpg,Scramble,Yellow,Images/Yellow.jpg,None,,,,,,,0,3,3,3,0,3,3,1,,,,,,,,,,,,,,,,,,,,,,,,,,,,,,,,,,,,,,,,,,,,,,,,,,,1.6,458.9730998999439,None,None,1,460.68086199997924,None,460.68086199997924,None,460.68086199997924,None,461.5765538001433,None,,,,,,,,,,,,,,,,,,,,,,,,,,,,,,,,,,,,,,,,,,,,,,,,,,P010,fencog,2,Pre,2021_Sep_06_1031,Go No-Go Task,2021.1.4,120.33303360607265,
EPracticeConditions/YellowScram.csv,"Rule: When you see a yellow image, do not press 'spacebar'.",Images/Scram1/HF04_NC.jpg,Scramble,Blue,Images/Blue.jpg,space,,,,,,,0,3,3,3,0,4,4,2,,,,,,,,,,,,,,,,,,,,,,,,,,,,,,,,,,,,,,,,,,,,,,,,,,,1.5,463.579239099985,None,space,1,465.17945170006715,None,465.17945170006715,None,465.17945170006715,None,466.0851662000641,None,0.3328394000418484,,,,,,,,,,,,,,,,,,,,,,,,,,,,,,,,,,,,,,,,,,,,,,,,,P010,fencog,2,Pre,2021_Sep_06_1031,Go No-Go Task,2021.1.4,120.33303360607265,
EPracticeConditions/YellowScram.csv,"Rule: When you see a yellow image, do not press 'spacebar'.",Images/Scram1/BM01_NC.jpg,Scramble,Blue,Images/Blue.jpg,space,,,,,,,0,3,3,3,0,5,5,5,,,,,,,,,,,,,,,,,,,,,,,,,,,,,,,,,,,,,,,,,,,,,,,,,,,1.2,468.08610840002075,None,space,1,469.38657109998167,None,469.38657109998167,None,469.38657109998167,None,470.2825814001262,None,0.38167869998142123,,,,,,,,,,,,,,,,,,,,,,,,,,,,,,,,,,,,,,,,,,,,,,,,,P010,fencog,2,Pre,2021_Sep_06_1031,Go No-Go Task,2021.1.4,120.33303360607265,
EPracticeConditions/YellowScram.csv,"Rule: When you see a yellow image, do not press 'spacebar'.",Images/Scram2/HM06_NC.jpg,Scramble,Yellow,Images/Yellow.jpg,None,,,,,,,0,3,3,3,0,6,6,0,,,,,,,,,,,,,,,,,,,,,,,,,,,,,,,,,,,,,,,,,,,,,,,,,,,1.3,472.28494339995086,None,None,1,473.68526159995236,None,473.68526159995236,None,473.68526159995236,None,474.5758379001636,None,,,,,,,,,,,,,,,,,,,,,,,,,,,,,,,,,,,,,,,,,,,,,,,,,,P010,fencog,2,Pre,2021_Sep_06_1031,Go No-Go Task,2021.1.4,120.33303360607265,
EPracticeConditions/YellowScram.csv,"Rule: When you see a yellow image, do not press 'spacebar'.",Images/Scram1/AF10_NC.jpg,Scramble,Blue,Images/Blue.jpg,space,,,,,,,0,3,3,3,0,7,7,6,,,,,,,,,,,,,,,,,,,,,,,,,,,,,,,,,,,,,,,,,,,,,,,,,,,1.8,476.579459000146,None,space,1,478.4839536999352,None,478.4839536999352,None,478.4839536999352,None,479.3807453000918,None,0.3004880000371486,,,,,,,,,,,,,,,,,,,,,,,,,,,,,,,,,,,,,,,,,,,,,,,,,P010,fencog,2,Pre,2021_Sep_06_1031,Go No-Go Task,2021.1.4,120.33303360607265,
EPracticeConditions/YellowScram.csv,"Rule: When you see a yellow image, do not press 'spacebar'.",,,,,,,,,,,,0,3,3,3,,,,,,,,,,,,,,,,,,,,,,,,,,,,,,,,,,,,,,,,,,,,,,,,,,,,,,,,,,,,,,,,,,,,,,,,,,,,,,,,,,,,,,,,,,,,,,,,,,,,,,,,,,,,,,,,,,,,,P010,fencog,2,Pre,2021_Sep_06_1031,Go No-Go Task,2021.1.4,120.33303360607265,
,,,,,,,,,,,,,,,,,,,,,,,,,,,,,,,,,,,,,,,,,,,,,,,,,,,,,,,,,,,,,,,,,,,,,,,,,,,,,,,,,,,,,482.6848973000888,None,space,3.5064236000180244,483.16598240006715,None,,,,,,,,,,,,,,,,,,,,,,,,,,,,,,,,,,,,,,,,,,,P010,fencog,2,Pre,2021_Sep_06_1031,Go No-Go Task,2021.1.4,120.33303360607265,
,,,,,,,,,,,,,,,,,,,,,,,,,,,,,,,,,,,,,,,,,,,,,,,,,,,,,,,,,,,,,,,,,,,,,,,,,,,,,,,,,,,,,,,,,,,486.68235919997096,None,space,2.0378782998304814,486.68235919997096,None,,,,,,,,,,,,,,,,,,,,,,,,,,,,,,,,,,,,,P010,fencog,2,Pre,2021_Sep_06_1031,Go No-Go Task,2021.1.4,120.33303360607265,
,"Rule: When you see a yellow image, do not press 'spacebar'.",Images/Fearful/BM02_FC.jpg,Fear,Blue,Images/Blue.jpg,space,ParentConditions/YellowBlueBlue_v2.xlsx,BlueBlueYellow,Conditions/Version_2/YellowHappyStop.xlsx,no,PASS,0.16858645908030467,,,,,,,,,0,0,0,0,0,0,0,0,0,0,0,0,,,,,,,,,,,,,,,,,,,,,,,,,,,,,,,,,,,,,,,,,,,,,,,,,,,,,,,,,,,,,,,,,488.79189769993536,None,491.7794699999504,None,space,1.3158478001132607,491.7794699999504,None,488.79189769993536,None,488.79189769993536,None,488.79189769993536,None,1.47,493.1549931000918,None,space,1,0.36026969994418323,494.72870149998926,None,494.72870149998926,None,494.72870149998926,None,,,,,,,,,,,P010,fencog,2,Pre,2021_Sep_06_1031,Go No-Go Task,2021.1.4,120.33303360607265,
,"Rule: When you see a yellow image, do not press 'spacebar'.",Images/Fearful/HF05_FC.jpg,Fear,Blue,Images/Blue.jpg,space,ParentConditions/YellowBlueBlue_v2.xlsx,BlueBlueYellow,Conditions/Version_2/YellowHappyStop.xlsx,no,PASS,0.9484055972569129,,,,,,,,,0,0,0,0,0,0,0,0,0,1,1,1,,,,,,,,,,,,,,,,,,,,,,,,,,,,,,,,,,,,,,,,,,,,,,,,,,,,,,,,,,,,,,,,,,,,,,,,,,,,,,,1.5,495.1283243999351,None,space,1,0.27975909993983805,496.7284830000717,None,496.7284830000717,None,496.7284830000717,None,,,,,,,,,,,P010,fencog,2,Pre,2021_Sep_06_1031,Go No-Go Task,2021.1.4,120.33303360607265,
,"Rule: When you see a yellow image, do not press 'spacebar'.",Images/Happy/AF32HAS.jpg,Happy,Yellow,Images/Yellow.jpg,None,ParentConditions/YellowBlueBlue_v2.xlsx,BlueBlueYellow,Conditions/Version_2/YellowHappyStop.xlsx,yes,PASS,0.508887905761459,,,,,,,,,0,0,0,0,0,0,0,0,0,2,2,2,,,,,,,,,,,,,,,,,,,,,,,,,,,,,,,,,,,,,,,,,,,,,,,,,,,,,,,,,,,,,,,,,,,,,,,,,,,,,,,1.42,497.12745800009,None,None,1,,498.6529139999766,None,498.6529139999766,None,498.6529139999766,None,,,,,,,,,,,P010,fencog,2,Pre,2021_Sep_06_1031,Go No-Go Task,2021.1.4,120.33303360607265,
,"Rule: When you see a yellow image, do not press 'spacebar'.",Images/Happy/AM32HAS.jpg,Happy,Yellow,Images/Yellow.jpg,None,ParentConditions/YellowBlueBlue_v2.xlsx,BlueBlueYellow,Conditions/Version_2/YellowHappyStop.xlsx,yes,PASS,0.12877007601010582,,,,,,,,,0,0,0,0,0,0,0,0,0,3,3,3,,,,,,,,,,,,,,,,,,,,,,,,,,,,,,,,,,,,,,,,,,,,,,,,,,,,,,,,,,,,,,,,,,,,,,,,,,,,,,,1.74,499.0565504000988,None,None,1,,500.902226800099,None,500.902226800099,None,500.902226800099,None,,,,,,,,,,,P010,fencog,2,Pre,2021_Sep_06_1031,Go No-Go Task,2021.1.4,120.33303360607265,
,"Rule: When you see a yellow image, do not press 'spacebar'.",Images/Fearful/AF07FS.jpg,Fear,Blue,Images/Blue.jpg,space,ParentConditions/YellowBlueBlue_v2.xlsx,BlueBlueYellow,Conditions/Version_2/YellowHappyStop.xlsx,no,PASS,0.4320382618493961,,,,,,,,,0,0,0,0,0,0,0,0,0,4,4,4,,,,,,,,,,,,,,,,,,,,,,,,,,,,,,,,,,,,,,,,,,,,,,,,,,,,,,,,,,,,,,,,,,,,,,,,,,,,,,,1.25,501.3020273000002,None,space,1,0.260459799785167,502.6598331001587,None,502.6598331001587,None,502.6598331001587,None,,,,,,,,,,,P010,fencog,2,Pre,2021_Sep_06_1031,Go No-Go Task,2021.1.4,120.33303360607265,
,"Rule: When you see a yellow image, do not press 'spacebar'.",Images/Fearful/AM30AFS.jpg,Fear,Blue,Images/Blue.jpg,space,ParentConditions/YellowBlueBlue_v2.xlsx,BlueBlueYellow,Conditions/Version_2/YellowHappyStop.xlsx,no,PASS,0.14164593092902533,,,,,,,,,0,0,0,0,0,0,0,0,0,5,5,5,,,,,,,,,,,,,,,,,,,,,,,,,,,,,,,,,,,,,,,,,,,,,,,,,,,,,,,,,,,,,,,,,,,,,,,,,,,,,,,1.41,503.06674250005744,None,space,1,0.34431339986622334,504.584561600117,None,504.584561600117,None,504.584561600117,None,,,,,,,,,,,P010,fencog,2,Pre,2021_Sep_06_1031,Go No-Go Task,2021.1.4,120.33303360607265,
,"Rule: When you see a yellow image, do not press 'spacebar'.",Images/Happy/BM03_HO.jpg,Happy,Yellow,Images/Yellow.jpg,None,ParentConditions/YellowBlueBlue_v2.xlsx,BlueBlueYellow,Conditions/Version_2/YellowHappyStop.xlsx,yes,PASS,0.824528473694533,,,,,,,,,0,0,0,0,0,0,0,0,0,6,6,6,,,,,,,,,,,,,,,,,,,,,,,,,,,,,,,,,,,,,,,,,,,,,,,,,,,,,,,,,,,,,,,,,,,,,,,,,,,,,,,1.96,504.9835662001278,None,None,1,,507.05046400008723,None,507.05046400008723,None,507.05046400008723,None,,,,,,,,,,,P010,fencog,2,Pre,2021_Sep_06_1031,Go No-Go Task,2021.1.4,120.33303360607265,
,"Rule: When you see a yellow image, do not press 'spacebar'.",Images/Fearful/HM06_FC.jpg,Fear,Blue,Images/Blue.jpg,space,ParentConditions/YellowBlueBlue_v2.xlsx,BlueBlueYellow,Conditions/Version_2/YellowHappyStop.xlsx,no,PASS,0.06881493513979675,,,,,,,,,0,0,0,0,0,0,0,0,0,7,7,7,,,,,,,,,,,,,,,,,,,,,,,,,,,,,,,,,,,,,,,,,,,,,,,,,,,,,,,,,,,,,,,,,,,,,,,,,,,,,,,1.53,507.45112180011347,None,space,1,0.3018493999261409,509.0831575000193,None,509.0831575000193,None,509.0831575000193,None,,,,,,,,,,,P010,fencog,2,Pre,2021_Sep_06_1031,Go No-Go Task,2021.1.4,120.33303360607265,
,"Rule: When you see a yellow image, do not press 'spacebar'.",Images/Fearful/AF19AFS.jpg,Fear,Blue,Images/Blue.jpg,space,ParentConditions/YellowBlueBlue_v2.xlsx,BlueBlueYellow,Conditions/Version_2/YellowHappyStop.xlsx,no,PASS,0.6194516353064884,,,,,,,,,0,0,0,0,0,0,0,0,0,8,8,8,,,,,,,,,,,,,,,,,,,,,,,,,,,,,,,,,,,,,,,,,,,,,,,,,,,,,,,,,,,,,,,,,,,,,,,,,,,,,,,1.91,509.48318270011805,None,None,0,,511.49913050001487,None,511.49913050001487,None,511.49913050001487,None,,,,,,,,,,,P010,fencog,2,Pre,2021_Sep_06_1031,Go No-Go Task,2021.1.4,120.33303360607265,
,"Rule: When you see a yellow image, do not press 'spacebar'.",Images/Happy/AF30HAS.jpg,Happy,Yellow,Images/Yellow.jpg,None,ParentConditions/YellowBlueBlue_v2.xlsx,BlueBlueYellow,Conditions/Version_2/YellowHappyStop.xlsx,yes,PASS,0.7783721125891628,,,,,,,,,0,0,0,0,0,0,0,0,0,9,9,9,,,,,,,,,,,,,,,,,,,,,,,,,,,,,,,,,,,,,,,,,,,,,,,,,,,,,,,,,,,,,,,,,,,,,,,,,,,,,,,1.9,511.899756600149,None,None,1,,513.9067691999953,None,513.9067691999953,None,513.9067691999953,None,,,,,,,,,,,P010,fencog,2,Pre,2021_Sep_06_1031,Go No-Go Task,2021.1.4,120.33303360607265,
,"Rule: When you see a yellow image, do not press 'spacebar'.",Images/Fearful/AF25AFS.jpg,Fear,Blue,Images/Blue.jpg,space,ParentConditions/YellowBlueBlue_v2.xlsx,BlueBlueYellow,Conditions/Version_2/YellowHappyStop.xlsx,no,PASS,0.9528113424204139,,,,,,,,,0,0,0,0,0,0,0,0,0,10,10,10,,,,,,,,,,,,,,,,,,,,,,,,,,,,,,,,,,,,,,,,,,,,,,,,,,,,,,,,,,,,,,,,,,,,,,,,,,,,,,,1.21,514.3068292001262,None,space,1,0.290187600068748,515.6230572001077,None,515.6230572001077,None,515.6230572001077,None,,,,,,,,,,,P010,fencog,2,Pre,2021_Sep_06_1031,Go No-Go Task,2021.1.4,120.33303360607265,
,"Rule: When you see a yellow image, do not press 'spacebar'.",Images/Fearful/AF30AFS.jpg,Fear,Blue,Images/Blue.jpg,space,ParentConditions/YellowBlueBlue_v2.xlsx,BlueBlueYellow,Conditions/Version_2/YellowHappyStop.xlsx,no,PASS,0.022094815080431318,,,,,,,,,0,0,0,0,0,0,0,0,0,11,11,11,,,,,,,,,,,,,,,,,,,,,,,,,,,,,,,,,,,,,,,,,,,,,,,,,,,,,,,,,,,,,,,,,,,,,,,,,,,,,,,1.33,516.0225341999903,None,space,1,0.3529079998843372,517.4474273000378,None,517.4474273000378,None,517.4474273000378,None,,,,,,,,,,,P010,fencog,2,Pre,2021_Sep_06_1031,Go No-Go Task,2021.1.4,120.33303360607265,
,"Rule: When you see a yellow image, do not press 'spacebar'.",Images/Happy/BF10_HO.jpg,Happy,Yellow,Images/Yellow.jpg,None,ParentConditions/YellowBlueBlue_v2.xlsx,BlueBlueYellow,Conditions/Version_2/YellowHappyStop.xlsx,yes,PASS,0.5001600173303757,,,,,,,,,0,0,0,0,0,0,0,0,0,12,12,12,,,,,,,,,,,,,,,,,,,,,,,,,,,,,,,,,,,,,,,,,,,,,,,,,,,,,,,,,,,,,,,,,,,,,,,,,,,,,,,1.48,517.8555020999629,None,None,1,,519.4383924000431,None,519.4383924000431,None,519.4383924000431,None,,,,,,,,,,,P010,fencog,2,Pre,2021_Sep_06_1031,Go No-Go Task,2021.1.4,120.33303360607265,
,"Rule: When you see a yellow image, do not press 'spacebar'.",Images/Fearful/AM06_FO.jpg,Fear,Blue,Images/Blue.jpg,space,ParentConditions/YellowBlueBlue_v2.xlsx,BlueBlueYellow,Conditions/Version_2/YellowHappyStop.xlsx,no,PASS,0.578262378462087,,,,,,,,,0,0,0,0,0,0,0,0,0,13,13,13,,,,,,,,,,,,,,,,,,,,,,,,,,,,,,,,,,,,,,,,,,,,,,,,,,,,,,,,,,,,,,,,,,,,,,,,,,,,,,,1.83,519.8390450000297,None,space,1,0.2932211998850107,521.7711573999841,None,521.7711573999841,None,521.7711573999841,None,,,,,,,,,,,P010,fencog,2,Pre,2021_Sep_06_1031,Go No-Go Task,2021.1.4,120.33303360607265,
,"Rule: When you see a yellow image, do not press 'spacebar'.",Images/Happy/AM24HAS.jpg,Happy,Yellow,Images/Yellow.jpg,None,ParentConditions/YellowBlueBlue_v2.xlsx,BlueBlueYellow,Conditions/Version_2/YellowHappyStop.xlsx,yes,PASS,0.39484184444569004,,,,,,,,,0,0,0,0,0,0,0,0,0,14,14,14,,,,,,,,,,,,,,,,,,,,,,,,,,,,,,,,,,,,,,,,,,,,,,,,,,,,,,,,,,,,,,,,,,,,,,,,,,,,,,,1.35,522.1751904999837,None,None,1,,523.6288550000172,None,523.6288550000172,None,523.6288550000172,None,,,,,,,,,,,P010,fencog,2,Pre,2021_Sep_06_1031,Go No-Go Task,2021.1.4,120.33303360607265,
,"Rule: When you see a yellow image, do not press 'spacebar'.",Images/Fearful/AF21AFS.jpg,Fear,Blue,Images/Blue.jpg,space,ParentConditions/YellowBlueBlue_v2.xlsx,BlueBlueYellow,Conditions/Version_2/YellowHappyStop.xlsx,no,PASS,0.6432231069793333,,,,,,,,,0,0,0,0,0,0,0,0,0,15,15,15,,,,,,,,,,,,,,,,,,,,,,,,,,,,,,,,,,,,,,,,,,,,,,,,,,,,,,,,,,,,,,,,,,,,,,,,,,,,,,,1.6,524.0298224000726,None,space,1,0.28850430017337203,525.7366027000826,None,525.7366027000826,None,525.7366027000826,None,,,,,,,,,,,P010,fencog,2,Pre,2021_Sep_06_1031,Go No-Go Task,2021.1.4,120.33303360607265,
,"Rule: When you see a yellow image, do not press 'spacebar'.",Images/Happy/AM06_HC.jpg,Happy,Yellow,Images/Yellow.jpg,None,ParentConditions/YellowBlueBlue_v2.xlsx,BlueBlueYellow,Conditions/Version_2/YellowHappyStop.xlsx,yes,PASS,0.7943976294198472,,,,,,,,,0,0,0,0,0,0,0,0,0,16,16,16,,,,,,,,,,,,,,,,,,,,,,,,,,,,,,,,,,,,,,,,,,,,,,,,,,,,,,,,,,,,,,,,,,,,,,,,,,,,,,,1.82,526.1356012001634,None,None,1,,528.0692749000154,None,528.0692749000154,None,528.0692749000154,None,,,,,,,,,,,P010,fencog,2,Pre,2021_Sep_06_1031,Go No-Go Task,2021.1.4,120.33303360607265,
,"Rule: When you see a yellow image, do not press 'spacebar'.",Images/Fearful/AF10_FC.jpg,Fear,Blue,Images/Blue.jpg,space,ParentConditions/YellowBlueBlue_v2.xlsx,BlueBlueYellow,Conditions/Version_2/YellowHappyStop.xlsx,no,PASS,0.4387172057805456,,,,,,,,,0,0,0,0,0,0,0,0,0,17,17,17,,,,,,,,,,,,,,,,,,,,,,,,,,,,,,,,,,,,,,,,,,,,,,,,,,,,,,,,,,,,,,,,,,,,,,,,,,,,,,,1.81,528.4690948999487,None,space,1,0.311251699924469,530.3852387000807,None,530.3852387000807,None,530.3852387000807,None,,,,,,,,,,,P010,fencog,2,Pre,2021_Sep_06_1031,Go No-Go Task,2021.1.4,120.33303360607265,
,"Rule: When you see a yellow image, do not press 'spacebar'.",Images/Fearful/BM03_FC.jpg,Fear,Blue,Images/Blue.jpg,space,ParentConditions/YellowBlueBlue_v2.xlsx,BlueBlueYellow,Conditions/Version_2/YellowHappyStop.xlsx,no,PASS,0.20170262712346598,,,,,,,,,0,0,0,0,0,0,0,0,0,18,18,18,,,,,,,,,,,,,,,,,,,,,,,,,,,,,,,,,,,,,,,,,,,,,,,,,,,,,,,,,,,,,,,,,,,,,,,,,,,,,,,1.32,530.7947989001404,None,space,1,0.32598560000769794,532.2180914999917,None,532.2180914999917,None,532.2180914999917,None,,,,,,,,,,,P010,fencog,2,Pre,2021_Sep_06_1031,Go No-Go Task,2021.1.4,120.33303360607265,
,"Rule: When you see a yellow image, do not press 'spacebar'.",Images/Fearful/HM09_FC.jpg,Fear,Blue,Images/Blue.jpg,space,ParentConditions/YellowBlueBlue_v2.xlsx,BlueBlueYellow,Conditions/Version_2/YellowHappyStop.xlsx,no,PASS,0.15976906823467862,,,,,,,,,0,0,0,0,0,0,0,0,0,19,19,19,,,,,,,,,,,,,,,,,,,,,,,,,,,,,,,,,,,,,,,,,,,,,,,,,,,,,,,,,,,,,,,,,,,,,,,,,,,,,,,2,532.618730999995,None,space,1,0.3067123999353498,534.7254501001444,None,534.7254501001444,None,534.7254501001444,None,,,,,,,,,,,P010,fencog,2,Pre,2021_Sep_06_1031,Go No-Go Task,2021.1.4,120.33303360607265,
,"Rule: When you see a yellow image, do not press 'spacebar'.",Images/Fearful/AM04_FO.jpg,Fear,Blue,Images/Blue.jpg,space,ParentConditions/YellowBlueBlue_v2.xlsx,BlueBlueYellow,Conditions/Version_2/YellowHappyStop.xlsx,no,PASS,0.7842232797128176,,,,,,,,,0,0,0,0,0,0,0,0,0,20,20,20,,,,,,,,,,,,,,,,,,,,,,,,,,,,,,,,,,,,,,,,,,,,,,,,,,,,,,,,,,,,,,,,,,,,,,,,,,,,,,,1.78,535.133453000104,None,space,1,0.34391129994764924,537.0166852001566,None,537.0166852001566,None,537.0166852001566,None,,,,,,,,,,,P010,fencog,2,Pre,2021_Sep_06_1031,Go No-Go Task,2021.1.4,120.33303360607265,
,"Rule: When you see a yellow image, do not press 'spacebar'.",Images/Fearful/AF11AFS.jpg,Fear,Blue,Images/Blue.jpg,space,ParentConditions/YellowBlueBlue_v2.xlsx,BlueBlueYellow,Conditions/Version_2/YellowHappyStop.xlsx,no,PASS,0.5758948553509043,,,,,,,,,0,0,0,0,0,0,0,0,0,21,21,21,,,,,,,,,,,,,,,,,,,,,,,,,,,,,,,,,,,,,,,,,,,,,,,,,,,,,,,,,,,,,,,,,,,,,,,,,,,,,,,1.39,537.4182202999946,None,space,1,0.3319156998768449,538.9244183001574,None,538.9244183001574,None,538.9244183001574,None,,,,,,,,,,,P010,fencog,2,Pre,2021_Sep_06_1031,Go No-Go Task,2021.1.4,120.33303360607265,
,"Rule: When you see a yellow image, do not press 'spacebar'.",Images/Fearful/AM10_FO.jpg,Fear,Blue,Images/Blue.jpg,space,ParentConditions/YellowBlueBlue_v2.xlsx,BlueBlueYellow,Conditions/Version_2/YellowHappyStop.xlsx,no,PASS,0.7516560744284169,,,,,,,,,0,0,0,0,0,0,0,0,0,22,22,22,,,,,,,,,,,,,,,,,,,,,,,,,,,,,,,,,,,,,,,,,,,,,,,,,,,,,,,,,,,,,,,,,,,,,,,,,,,,,,,1.95,539.3234387000557,None,None,0,,541.373625200009,None,541.373625200009,None,541.373625200009,None,,,,,,,,,,,P010,fencog,2,Pre,2021_Sep_06_1031,Go No-Go Task,2021.1.4,120.33303360607265,
,"Rule: When you see a yellow image, do not press 'spacebar'.",Images/Fearful/WF04_FC.jpg,Fear,Blue,Images/Blue.jpg,space,ParentConditions/YellowBlueBlue_v2.xlsx,BlueBlueYellow,Conditions/Version_2/YellowHappyStop.xlsx,no,PASS,0.8626299251261901,,,,,,,,,0,0,0,0,0,0,0,0,0,23,23,23,,,,,,,,,,,,,,,,,,,,,,,,,,,,,,,,,,,,,,,,,,,,,,,,,,,,,,,,,,,,,,,,,,,,,,,,,,,,,,,1.31,541.7734391000122,None,space,1,0.3226876000408083,543.1897827000357,None,543.1897827000357,None,543.1897827000357,None,,,,,,,,,,,P010,fencog,2,Pre,2021_Sep_06_1031,Go No-Go Task,2021.1.4,120.33303360607265,
,"Rule: When you see a yellow image, do not press 'spacebar'.",Images/Fearful/AF28AFS.jpg,Fear,Blue,Images/Blue.jpg,space,ParentConditions/YellowBlueBlue_v2.xlsx,BlueBlueYellow,Conditions/Version_2/YellowHappyStop.xlsx,no,PASS,0.7326117629083128,,,,,,,,,0,0,0,0,0,0,0,0,0,24,24,24,,,,,,,,,,,,,,,,,,,,,,,,,,,,,,,,,,,,,,,,,,,,,,,,,,,,,,,,,,,,,,,,,,,,,,,,,,,,,,,1.8,543.5903944000602,None,space,1,0.34246190008707345,545.4973876001313,None,545.4973876001313,None,545.4973876001313,None,,,,,,,,,,,P010,fencog,2,Pre,2021_Sep_06_1031,Go No-Go Task,2021.1.4,120.33303360607265,
,"Rule: When you see a yellow image, do not press 'spacebar'.",Images/Fearful/WF11_FC.jpg,Fear,Blue,Images/Blue.jpg,space,ParentConditions/YellowBlueBlue_v2.xlsx,BlueBlueYellow,Conditions/Version_2/YellowHappyStop.xlsx,no,PASS,0.32883698788558013,,,,,,,,,0,0,0,0,0,0,0,0,0,25,25,25,,,,,,,,,,,,,,,,,,,,,,,,,,,,,,,,,,,,,,,,,,,,,,,,,,,,,,,,,,,,,,,,,,,,,,,,,,,,,,,1.62,545.9050070999656,None,space,1,0.26607170002534986,547.6301238001324,None,547.6301238001324,None,547.6301238001324,None,,,,,,,,,,,P010,fencog,2,Pre,2021_Sep_06_1031,Go No-Go Task,2021.1.4,120.33303360607265,
,"Rule: When you see a yellow image, do not press 'spacebar'.",Images/Fearful/AM17AFS.jpg,Fear,Blue,Images/Blue.jpg,space,ParentConditions/YellowBlueBlue_v2.xlsx,BlueBlueYellow,Conditions/Version_2/YellowHappyStop.xlsx,no,PASS,0.2011457593950874,,,,,,,,,0,0,0,0,0,0,0,0,0,26,26,26,,,,,,,,,,,,,,,,,,,,,,,,,,,,,,,,,,,,,,,,,,,,,,,,,,,,,,,,,,,,,,,,,,,,,,,,,,,,,,,1.67,548.0294331000187,None,space,1,0.29251780011691153,549.8044931001496,None,549.8044931001496,None,549.8044931001496,None,,,,,,,,,,,P010,fencog,2,Pre,2021_Sep_06_1031,Go No-Go Task,2021.1.4,120.33303360607265,
,"Rule: When you see a yellow image, do not press 'spacebar'.",Images/Happy/AF27HAS.jpg,Happy,Yellow,Images/Yellow.jpg,None,ParentConditions/YellowBlueBlue_v2.xlsx,BlueBlueYellow,Conditions/Version_2/YellowHappyStop.xlsx,yes,PASS,0.03113428438097654,,,,,,,,,0,0,0,0,0,0,0,0,0,27,27,27,,,,,,,,,,,,,,,,,,,,,,,,,,,,,,,,,,,,,,,,,,,,,,,,,,,,,,,,,,,,,,,,,,,,,,,,,,,,,,,1.84,550.2052027001046,None,None,1,,552.153825599933,None,552.153825599933,None,552.153825599933,None,,,,,,,,,,,P010,fencog,2,Pre,2021_Sep_06_1031,Go No-Go Task,2021.1.4,120.33303360607265,
,"Rule: When you see a yellow image, do not press 'spacebar'.",Images/Fearful/BF10_FO.jpg,Fear,Blue,Images/Blue.jpg,space,ParentConditions/YellowBlueBlue_v2.xlsx,BlueBlueYellow,Conditions/Version_2/YellowHappyStop.xlsx,no,PASS,0.8821344053441019,,,,,,,,,0,0,0,0,0,0,0,0,0,28,28,28,,,,,,,,,,,,,,,,,,,,,,,,,,,,,,,,,,,,,,,,,,,,,,,,,,,,,,,,,,,,,,,,,,,,,,,,,,,,,,,1.98,552.546898700064,None,space,1,0.2756477000657469,554.6364035001025,None,554.6364035001025,None,554.6364035001025,None,,,,,,,,,,,P010,fencog,2,Pre,2021_Sep_06_1031,Go No-Go Task,2021.1.4,120.33303360607265,
,"Rule: When you see a yellow image, do not press 'spacebar'.",Images/Fearful/HF04_FO.jpg,Fear,Blue,Images/Blue.jpg,space,ParentConditions/YellowBlueBlue_v2.xlsx,BlueBlueYellow,Conditions/Version_2/YellowHappyStop.xlsx,no,PASS,0.10236928865186712,,,,,,,,,0,0,0,0,0,0,0,0,0,29,29,29,,,,,,,,,,,,,,,,,,,,,,,,,,,,,,,,,,,,,,,,,,,,,,,,,,,,,,,,,,,,,,,,,,,,,,,,,,,,,,,1.28,555.0355957001448,None,space,1,0.3244264000095427,556.4275960000232,None,556.4275960000232,None,556.4275960000232,None,,,,,,,,,,,P010,fencog,2,Pre,2021_Sep_06_1031,Go No-Go Task,2021.1.4,120.33303360607265,
,"Rule: When you see a yellow image, do not press 'spacebar'.",Images/Happy/AF26HAS.jpg,Happy,Yellow,Images/Yellow.jpg,None,ParentConditions/YellowBlueBlue_v2.xlsx,BlueBlueYellow,Conditions/Version_2/YellowHappyStop.xlsx,yes,PASS,0.3122778532266225,,,,,,,,,0,0,0,0,0,0,0,0,0,30,30,30,,,,,,,,,,,,,,,,,,,,,,,,,,,,,,,,,,,,,,,,,,,,,,,,,,,,,,,,,,,,,,,,,,,,,,,,,,,,,,,1.85,556.8265965001192,None,None,1,,558.7769398000091,None,558.7769398000091,None,558.7769398000091,None,,,,,,,,,,,P010,fencog,2,Pre,2021_Sep_06_1031,Go No-Go Task,2021.1.4,120.33303360607265,
,"Rule: When you see a yellow image, do not press 'spacebar'.",Images/Happy/HF09_HE.jpg,Happy,Yellow,Images/Yellow.jpg,None,ParentConditions/YellowBlueBlue_v2.xlsx,BlueBlueYellow,Conditions/Version_2/YellowHappyStop.xlsx,yes,PASS,0.8889954581367391,,,,,,,,,0,0,0,0,0,0,0,0,0,31,31,31,,,,,,,,,,,,,,,,,,,,,,,,,,,,,,,,,,,,,,,,,,,,,,,,,,,,,,,,,,,,,,,,,,,,,,,,,,,,,,,1.72,559.1806626999751,None,None,1,,561.0011881999671,None,561.0011881999671,None,561.0011881999671,None,,,,,,,,,,,P010,fencog,2,Pre,2021_Sep_06_1031,Go No-Go Task,2021.1.4,120.33303360607265,
,"Rule: When you see a yellow image, do not press 'spacebar'.",Images/Fearful/AM16AFS.jpg,Fear,Blue,Images/Blue.jpg,space,ParentConditions/YellowBlueBlue_v2.xlsx,BlueBlueYellow,Conditions/Version_2/YellowHappyStop.xlsx,no,PASS,0.3485636078399603,,,,,,,,,0,0,0,0,0,0,0,0,0,32,32,32,,,,,,,,,,,,,,,,,,,,,,,,,,,,,,,,,,,,,,,,,,,,,,,,,,,,,,,,,,,,,,,,,,,,,,,,,,,,,,,1.2,561.4000296001323,None,space,1,0.27521770005114377,562.7007300001569,None,562.7007300001569,None,562.7007300001569,None,,,,,,,,,,,P010,fencog,2,Pre,2021_Sep_06_1031,Go No-Go Task,2021.1.4,120.33303360607265,
,"Rule: When you see a yellow image, do not press 'spacebar'.",Images/Fearful/WF05_FO.jpg,Fear,Blue,Images/Blue.jpg,space,ParentConditions/YellowBlueBlue_v2.xlsx,BlueBlueYellow,Conditions/Version_2/YellowHappyStop.xlsx,no,PASS,0.571161037699378,,,,,,,,,0,0,0,0,0,0,0,0,0,33,33,33,,,,,,,,,,,,,,,,,,,,,,,,,,,,,,,,,,,,,,,,,,,,,,,,,,,,,,,,,,,,,,,,,,,,,,,,,,,,,,,1.52,563.1060822000727,None,space,1,0.283811500063166,564.7330142999999,None,564.7330142999999,None,564.7330142999999,None,,,,,,,,,,,P010,fencog,2,Pre,2021_Sep_06_1031,Go No-Go Task,2021.1.4,120.33303360607265,
,"Rule: When you see a yellow image, do not press 'spacebar'.",Images/Fearful/AM03_FC.jpg,Fear,Blue,Images/Blue.jpg,space,ParentConditions/YellowBlueBlue_v2.xlsx,BlueBlueYellow,Conditions/Version_2/YellowHappyStop.xlsx,no,PASS,0.795310308756252,,,,,,,,,0,0,0,0,0,0,0,0,0,34,34,34,,,,,,,,,,,,,,,,,,,,,,,,,,,,,,,,,,,,,,,,,,,,,,,,,,,,,,,,,,,,,,,,,,,,,,,,,,,,,,,1.63,565.1354191999417,None,space,1,0.30204130010679364,566.8661632000003,None,566.8661632000003,None,566.8661632000003,None,,,,,,,,,,,P010,fencog,2,Pre,2021_Sep_06_1031,Go No-Go Task,2021.1.4,120.33303360607265,
,"Rule: When you see a yellow image, do not press 'spacebar'.",Images/Fearful/AM01AFS.jpg,Fear,Blue,Images/Blue.jpg,space,ParentConditions/YellowBlueBlue_v2.xlsx,BlueBlueYellow,Conditions/Version_2/YellowHappyStop.xlsx,no,PASS,0.0960655228006344,,,,,,,,,0,0,0,0,0,0,0,0,0,35,35,35,,,,,,,,,,,,,,,,,,,,,,,,,,,,,,,,,,,,,,,,,,,,,,,,,,,,,,,,,,,,,,,,,,,,,,,,,,,,,,,1.44,567.2658665000927,None,space,1,0.32947789994068444,568.8072846001014,None,568.8072846001014,None,568.8072846001014,None,,,,,,,,,,,P010,fencog,2,Pre,2021_Sep_06_1031,Go No-Go Task,2021.1.4,120.33303360607265,
,"Rule: When you see a yellow image, do not press 'spacebar'.",Images/Fearful/HM04_FC.jpg,Fear,Blue,Images/Blue.jpg,space,ParentConditions/YellowBlueBlue_v2.xlsx,BlueBlueYellow,Conditions/Version_2/YellowHappyStop.xlsx,no,PASS,0.2671765254267089,,,,,,,,,0,0,0,0,0,0,0,0,0,36,36,36,,,,,,,,,,,,,,,,,,,,,,,,,,,,,,,,,,,,,,,,,,,,,,,,,,,,,,,,,,,,,,,,,,,,,,,,,,,,,,,1.37,569.2069429999683,None,space,1,0.3183069999795407,570.6816615001298,None,570.6816615001298,None,570.6816615001298,None,,,,,,,,,,,P010,fencog,2,Pre,2021_Sep_06_1031,Go No-Go Task,2021.1.4,120.33303360607265,
,"Rule: When you see a yellow image, do not press 'spacebar'.",Images/Fearful/BF18_FC.jpg,Fear,Blue,Images/Blue.jpg,space,ParentConditions/YellowBlueBlue_v2.xlsx,BlueBlueYellow,Conditions/Version_2/YellowHappyStop.xlsx,no,PASS,0.30493199358976686,,,,,,,,,0,0,0,0,0,0,0,0,0,37,37,37,,,,,,,,,,,,,,,,,,,,,,,,,,,,,,,,,,,,,,,,,,,,,,,,,,,,,,,,,,,,,,,,,,,,,,,,,,,,,,,1.92,571.0908153001219,None,space,1,0.27773440000601113,573.1142725001555,None,573.1142725001555,None,573.1142725001555,None,,,,,,,,,,,P010,fencog,2,Pre,2021_Sep_06_1031,Go No-Go Task,2021.1.4,120.33303360607265,
,"Rule: When you see a yellow image, do not press 'spacebar'.",Images/Fearful/AF07_FO.jpg,Fear,Blue,Images/Blue.jpg,space,ParentConditions/YellowBlueBlue_v2.xlsx,BlueBlueYellow,Conditions/Version_2/YellowHappyStop.xlsx,no,PASS,0.06571981152440787,,,,,,,,,0,0,0,0,0,0,0,0,0,38,38,38,,,,,,,,,,,,,,,,,,,,,,,,,,,,,,,,,,,,,,,,,,,,,,,,,,,,,,,,,,,,,,,,,,,,,,,,,,,,,,,1.7,573.5161911000032,None,space,1,0.2947660000063479,575.3219739999622,None,575.3219739999622,None,575.3219739999622,None,,,,,,,,,,,P010,fencog,2,Pre,2021_Sep_06_1031,Go No-Go Task,2021.1.4,120.33303360607265,
,"Rule: When you see a yellow image, do not press 'spacebar'.",Images/Fearful/AM24AFS.jpg,Fear,Blue,Images/Blue.jpg,space,ParentConditions/YellowBlueBlue_v2.xlsx,BlueBlueYellow,Conditions/Version_2/YellowHappyStop.xlsx,no,PASS,0.23738601052691555,,,,,,,,,0,0,0,0,0,0,0,0,0,39,39,39,,,,,,,,,,,,,,,,,,,,,,,,,,,,,,,,,,,,,,,,,,,,,,,,,,,,,,,,,,,,,,,,,,,,,,,,,,,,,,,1.24,575.7260835999623,None,space,1,0.376596299931407,577.0715656999964,None,577.0715656999964,None,577.0715656999964,None,,,,,,,,,,,P010,fencog,2,Pre,2021_Sep_06_1031,Go No-Go Task,2021.1.4,120.33303360607265,
,"Rule: When you see a yellow image, do not press 'spacebar'.",Images/Fearful/AM03AFS.jpg,Fear,Blue,Images/Blue.jpg,space,ParentConditions/YellowBlueBlue_v2.xlsx,BlueBlueYellow,Conditions/Version_2/YellowHappyStop.xlsx,no,PASS,0.9496981002344779,,,,,,,,,0,0,0,0,0,0,0,0,0,40,40,40,,,,,,,,,,,,,,,,,,,,,,,,,,,,,,,,,,,,,,,,,,,,,,,,,,,,,,,,,,,,,,,,,,,,,,,,,,,,,,,1.46,577.4706180000212,None,space,1,0.3386182999238372,579.037488900125,None,579.037488900125,None,579.037488900125,None,,,,,,,,,,,P010,fencog,2,Pre,2021_Sep_06_1031,Go No-Go Task,2021.1.4,120.33303360607265,
,"Rule: When you see a yellow image, do not press 'spacebar'.",Images/Fearful/BM08_FC.jpg,Fear,Blue,Images/Blue.jpg,space,ParentConditions/YellowBlueBlue_v2.xlsx,BlueBlueYellow,Conditions/Version_2/YellowHappyStop.xlsx,no,PASS,0.9731806168242675,,,,,,,,,0,0,0,0,0,0,0,0,0,41,41,41,,,,,,,,,,,,,,,,,,,,,,,,,,,,,,,,,,,,,,,,,,,,,,,,,,,,,,,,,,,,,,,,,,,,,,,,,,,,,,,1.56,579.43818930001,None,space,1,0.34485670016147196,581.1034661000594,None,581.1034661000594,None,581.1034661000594,None,,,,,,,,,,,P010,fencog,2,Pre,2021_Sep_06_1031,Go No-Go Task,2021.1.4,120.33303360607265,
,"Rule: When you see a yellow image, do not press 'spacebar'.",Images/Fearful/AF32AFS.jpg,Fear,Blue,Images/Blue.jpg,space,ParentConditions/YellowBlueBlue_v2.xlsx,BlueBlueYellow,Conditions/Version_2/YellowHappyStop.xlsx,no,PASS,0.6516797726115628,,,,,,,,,0,0,0,0,0,0,0,0,0,42,42,42,,,,,,,,,,,,,,,,,,,,,,,,,,,,,,,,,,,,,,,,,,,,,,,,,,,,,,,,,,,,,,,,,,,,,,,,,,,,,,,1.58,581.5098936001305,None,space,1,0.34874760010279715,583.1946505999658,None,583.1946505999658,None,583.1946505999658,None,,,,,,,,,,,P010,fencog,2,Pre,2021_Sep_06_1031,Go No-Go Task,2021.1.4,120.33303360607265,
,"Rule: When you see a yellow image, do not press 'spacebar'.",Images/Fearful/AF26AFS.jpg,Fear,Blue,Images/Blue.jpg,space,ParentConditions/YellowBlueBlue_v2.xlsx,BlueBlueYellow,Conditions/Version_2/YellowHappyStop.xlsx,no,PASS,0.7646464028460872,,,,,,,,,0,0,0,0,0,0,0,0,0,43,43,43,,,,,,,,,,,,,,,,,,,,,,,,,,,,,,,,,,,,,,,,,,,,,,,,,,,,,,,,,,,,,,,,,,,,,,,,,,,,,,,1.57,583.5937072001398,None,space,1,0.2991639000829309,585.2690016999841,None,585.2690016999841,None,585.2690016999841,None,,,,,,,,,,,P010,fencog,2,Pre,2021_Sep_06_1031,Go No-Go Task,2021.1.4,120.33303360607265,
,"Rule: When you see a yellow image, do not press 'spacebar'.",Images/Fearful/BF09_FC.jpg,Fear,Blue,Images/Blue.jpg,space,ParentConditions/YellowBlueBlue_v2.xlsx,BlueBlueYellow,Conditions/Version_2/YellowHappyStop.xlsx,no,PASS,0.026085524820318784,,,,,,,,,0,0,0,0,0,0,0,0,0,44,44,44,,,,,,,,,,,,,,,,,,,,,,,,,,,,,,,,,,,,,,,,,,,,,,,,,,,,,,,,,,,,,,,,,,,,,,,,,,,,,,,1.68,585.6695087000262,None,space,1,0.3088085998315364,587.451702099992,None,587.451702099992,None,587.451702099992,None,,,,,,,,,,,P010,fencog,2,Pre,2021_Sep_06_1031,Go No-Go Task,2021.1.4,120.33303360607265,
,"Rule: When you see a yellow image, do not press 'spacebar'.",Images/Fearful/BM01_FO.jpg,Fear,Blue,Images/Blue.jpg,space,ParentConditions/YellowBlueBlue_v2.xlsx,BlueBlueYellow,Conditions/Version_2/YellowHappyStop.xlsx,no,PASS,0.5546632244892579,,,,,,,,,0,0,0,0,0,0,0,0,0,45,45,45,,,,,,,,,,,,,,,,,,,,,,,,,,,,,,,,,,,,,,,,,,,,,,,,,,,,,,,,,,,,,,,,,,,,,,,,,,,,,,,1.3,587.8518900999334,None,space,1,0.3166644999291748,589.2595651000738,None,589.2595651000738,None,589.2595651000738,None,,,,,,,,,,,P010,fencog,2,Pre,2021_Sep_06_1031,Go No-Go Task,2021.1.4,120.33303360607265,
,"Rule: When you see a yellow image, do not press 'spacebar'.",Images/Happy/BF14_HO.jpg,Happy,Yellow,Images/Yellow.jpg,None,ParentConditions/YellowBlueBlue_v2.xlsx,BlueBlueYellow,Conditions/Version_2/YellowHappyStop.xlsx,yes,PASS,0.8128181362801364,,,,,,,,,0,0,0,0,0,0,0,0,0,46,46,46,,,,,,,,,,,,,,,,,,,,,,,,,,,,,,,,,,,,,,,,,,,,,,,,,,,,,,,,,,,,,,,,,,,,,,,,,,,,,,,1.51,589.6588979000226,None,None,1,,591.2755374000408,None,591.2755374000408,None,591.2755374000408,None,,,,,,,,,,,P010,fencog,2,Pre,2021_Sep_06_1031,Go No-Go Task,2021.1.4,120.33303360607265,
,"Rule: When you see a yellow image, do not press 'spacebar'.",Images/Fearful/WM11_FC.jpg,Fear,Blue,Images/Blue.jpg,space,ParentConditions/YellowBlueBlue_v2.xlsx,BlueBlueYellow,Conditions/Version_2/YellowHappyStop.xlsx,no,PASS,0.9251187011996334,,,,,,,,,0,0,0,0,0,0,0,0,0,47,47,47,,,,,,,,,,,,,,,,,,,,,,,,,,,,,,,,,,,,,,,,,,,,,,,,,,,,,,,,,,,,,,,,,,,,,,,,,,,,,,,1.69,591.675997100072,None,space,1,0.29352619987912476,593.4667526001576,None,593.4667526001576,None,593.4667526001576,None,,,,,,,,,,,P010,fencog,2,Pre,2021_Sep_06_1031,Go No-Go Task,2021.1.4,120.33303360607265,
,"Rule: When you see a yellow image, do not press 'spacebar'.",Images/Fearful/AM02_FO.jpg,Fear,Blue,Images/Blue.jpg,space,ParentConditions/YellowBlueBlue_v2.xlsx,BlueBlueYellow,Conditions/Version_2/YellowHappyStop.xlsx,no,PASS,0.0455811702140666,,,,,,,,,0,0,0,0,0,0,0,0,0,48,48,48,,,,,,,,,,,,,,,,,,,,,,,,,,,,,,,,,,,,,,,,,,,,,,,,,,,,,,,,,,,,,,,,,,,,,,,,,,,,,,,1.94,593.8781649000011,None,space,1,0.3316845998633653,595.9243421000428,None,595.9243421000428,None,595.9243421000428,None,,,,,,,,,,,P010,fencog,2,Pre,2021_Sep_06_1031,Go No-Go Task,2021.1.4,120.33303360607265,
,"Rule: When you see a yellow image, do not press 'spacebar'.",Images/Happy/HM09_HO.jpg,Happy,Yellow,Images/Yellow.jpg,None,ParentConditions/YellowBlueBlue_v2.xlsx,BlueBlueYellow,Conditions/Version_2/YellowHappyStop.xlsx,yes,PASS,0.3219974030212036,,,,,,,,,0,0,0,0,0,0,0,0,0,49,49,49,,,,,,,,,,,,,,,,,,,,,,,,,,,,,,,,,,,,,,,,,,,,,,,,,,,,,,,,,,,,,,,,,,,,,,,,,,,,,,,1.93,596.3248399000149,None,None,1,,598.3568856001366,None,598.3568856001366,None,598.3568856001366,None,,,,,,,,,,,P010,fencog,2,Pre,2021_Sep_06_1031,Go No-Go Task,2021.1.4,120.33303360607265,
,"Rule: When you see a yellow image, do not press 'spacebar'.",Images/Happy/HF10_HE.jpg,Happy,Yellow,Images/Yellow.jpg,None,ParentConditions/YellowBlueBlue_v2.xlsx,BlueBlueYellow,Conditions/Version_2/YellowHappyStop.xlsx,yes,PASS,0.5613535526914523,,,,,,,,,0,0,0,0,0,0,0,0,0,50,50,50,,,,,,,,,,,,,,,,,,,,,,,,,,,,,,,,,,,,,,,,,,,,,,,,,,,,,,,,,,,,,,,,,,,,,,,,,,,,,,,1.49,598.7587924001273,None,None,1,,600.3562717000023,None,600.3562717000023,None,600.3562717000023,None,,,,,,,,,,,P010,fencog,2,Pre,2021_Sep_06_1031,Go No-Go Task,2021.1.4,120.33303360607265,
,"Rule: When you see a yellow image, do not press 'spacebar'.",Images/Fearful/AF09AFS.jpg,Fear,Blue,Images/Blue.jpg,space,ParentConditions/YellowBlueBlue_v2.xlsx,BlueBlueYellow,Conditions/Version_2/YellowHappyStop.xlsx,no,PASS,0.5511492847876154,,,,,,,,,0,0,0,0,0,0,0,0,0,51,51,51,,,,,,,,,,,,,,,,,,,,,,,,,,,,,,,,,,,,,,,,,,,,,,,,,,,,,,,,,,,,,,,,,,,,,,,,,,,,,,,1.65,600.7569341000635,None,space,1,0.3824084000661969,602.5056597001385,None,602.5056597001385,None,602.5056597001385,None,,,,,,,,,,,P010,fencog,2,Pre,2021_Sep_06_1031,Go No-Go Task,2021.1.4,120.33303360607265,
,"Rule: When you see a yellow image, do not press 'spacebar'.",Images/Fearful/AM23AFS.jpg,Fear,Blue,Images/Blue.jpg,space,ParentConditions/YellowBlueBlue_v2.xlsx,BlueBlueYellow,Conditions/Version_2/YellowHappyStop.xlsx,no,PASS,0.2159972500516506,,,,,,,,,0,0,0,0,0,0,0,0,0,52,52,52,,,,,,,,,,,,,,,,,,,,,,,,,,,,,,,,,,,,,,,,,,,,,,,,,,,,,,,,,,,,,,,,,,,,,,,,,,,,,,,1.36,602.9053702999372,None,space,1,0.3162827999331057,604.3718193999957,None,604.3718193999957,None,604.3718193999957,None,,,,,,,,,,,P010,fencog,2,Pre,2021_Sep_06_1031,Go No-Go Task,2021.1.4,120.33303360607265,
,"Rule: When you see a yellow image, do not press 'spacebar'.",Images/Fearful/AM05AFS.jpg,Fear,Blue,Images/Blue.jpg,space,ParentConditions/YellowBlueBlue_v2.xlsx,BlueBlueYellow,Conditions/Version_2/YellowHappyStop.xlsx,no,PASS,0.18827335330329198,,,,,,,,,0,0,0,0,0,0,0,0,0,53,53,53,,,,,,,,,,,,,,,,,,,,,,,,,,,,,,,,,,,,,,,,,,,,,,,,,,,,,,,,,,,,,,,,,,,,,,,,,,,,,,,1.43,604.7831655000336,None,space,1,0.35916049988009036,606.3212842000648,None,606.3212842000648,None,606.3212842000648,None,,,,,,,,,,,P010,fencog,2,Pre,2021_Sep_06_1031,Go No-Go Task,2021.1.4,120.33303360607265,
,"Rule: When you see a yellow image, do not press 'spacebar'.",Images/Happy/AF28HAS.jpg,Happy,Yellow,Images/Yellow.jpg,None,ParentConditions/YellowBlueBlue_v2.xlsx,BlueBlueYellow,Conditions/Version_2/YellowHappyStop.xlsx,yes,PASS,0.7444008667159328,,,,,,,,,0,0,0,0,0,0,0,0,0,54,54,54,,,,,,,,,,,,,,,,,,,,,,,,,,,,,,,,,,,,,,,,,,,,,,,,,,,,,,,,,,,,,,,,,,,,,,,,,,,,,,,1.38,606.7205231001135,None,None,1,,608.2039382001385,None,608.2039382001385,None,608.2039382001385,None,,,,,,,,,,,P010,fencog,2,Pre,2021_Sep_06_1031,Go No-Go Task,2021.1.4,120.33303360607265,
,"Rule: When you see a yellow image, do not press 'spacebar'.",Images/Fearful/BF14_FO.jpg,Fear,Blue,Images/Blue.jpg,space,ParentConditions/YellowBlueBlue_v2.xlsx,BlueBlueYellow,Conditions/Version_2/YellowHappyStop.xlsx,no,PASS,0.036114312510467594,,,,,,,,,0,0,0,0,0,0,0,0,0,55,55,55,,,,,,,,,,,,,,,,,,,,,,,,,,,,,,,,,,,,,,,,,,,,,,,,,,,,,,,,,,,,,,,,,,,,,,,,,,,,,,,1.75,608.6118564000353,None,space,1,0.2911731998901814,610.4704539000522,None,610.4704539000522,None,610.4704539000522,None,,,,,,,,,,,P010,fencog,2,Pre,2021_Sep_06_1031,Go No-Go Task,2021.1.4,120.33303360607265,
,"Rule: When you see a yellow image, do not press 'spacebar'.",Images/Happy/AM30HAS.jpg,Happy,Yellow,Images/Yellow.jpg,None,ParentConditions/YellowBlueBlue_v2.xlsx,BlueBlueYellow,Conditions/Version_2/YellowHappyStop.xlsx,yes,PASS,0.9276323490247724,,,,,,,,,0,0,0,0,0,0,0,0,0,56,56,56,,,,,,,,,,,,,,,,,,,,,,,,,,,,,,,,,,,,,,,,,,,,,,,,,,,,,,,,,,,,,,,,,,,,,,,,,,,,,,,1.73,610.8704272999894,None,None,1,,612.7026452000719,None,612.7026452000719,None,612.7026452000719,None,,,,,,,,,,,P010,fencog,2,Pre,2021_Sep_06_1031,Go No-Go Task,2021.1.4,120.33303360607265,
,"Rule: When you see a yellow image, do not press 'spacebar'.",Images/Fearful/AF27AFS.jpg,Fear,Blue,Images/Blue.jpg,space,ParentConditions/YellowBlueBlue_v2.xlsx,BlueBlueYellow,Conditions/Version_2/YellowHappyStop.xlsx,no,PASS,0.9674336643747157,,,,,,,,,0,0,0,0,0,0,0,0,0,57,57,57,,,,,,,,,,,,,,,,,,,,,,,,,,,,,,,,,,,,,,,,,,,,,,,,,,,,,,,,,,,,,,,,,,,,,,,,,,,,,,,1.4,613.1050722999498,None,space,1,0.31782349990680814,614.6104645000305,None,614.6104645000305,None,614.6104645000305,None,,,,,,,,,,,P010,fencog,2,Pre,2021_Sep_06_1031,Go No-Go Task,2021.1.4,120.33303360607265,
,"Rule: When you see a yellow image, do not press 'spacebar'.",Images/Fearful/AM32AFS.jpg,Fear,Blue,Images/Blue.jpg,space,ParentConditions/YellowBlueBlue_v2.xlsx,BlueBlueYellow,Conditions/Version_2/YellowHappyStop.xlsx,no,PASS,0.5429320828851499,,,,,,,,,0,0,0,0,0,0,0,0,0,58,58,58,,,,,,,,,,,,,,,,,,,,,,,,,,,,,,,,,,,,,,,,,,,,,,,,,,,,,,,,,,,,,,,,,,,,,,,,,,,,,,,1.64,615.0112610999495,None,space,1,0.33755369996652007,616.7514013000764,None,616.7514013000764,None,616.7514013000764,None,,,,,,,,,,,P010,fencog,2,Pre,2021_Sep_06_1031,Go No-Go Task,2021.1.4,120.33303360607265,
,"Rule: When you see a yellow image, do not press 'spacebar'.",Images/Fearful/AM09_FO.jpg,Fear,Blue,Images/Blue.jpg,space,ParentConditions/YellowBlueBlue_v2.xlsx,BlueBlueYellow,Conditions/Version_2/YellowHappyStop.xlsx,no,PASS,0.5248989229975377,,,,,,,,,0,0,0,0,0,0,0,0,0,59,59,59,,,,,,,,,,,,,,,,,,,,,,,,,,,,,,,,,,,,,,,,,,,,,,,,,,,,,,,,,,,,,,,,,,,,,,,,,,,,,,,1.61,617.1506114001386,None,None,0,,618.8674672001507,None,618.8674672001507,None,618.8674672001507,None,,,,,,,,,,,P010,fencog,2,Pre,2021_Sep_06_1031,Go No-Go Task,2021.1.4,120.33303360607265,
,"Rule: When you see a yellow image, do not press 'spacebar'.",Images/Fearful/AF01_FO.jpg,Fear,Blue,Images/Blue.jpg,space,ParentConditions/YellowBlueBlue_v2.xlsx,BlueBlueYellow,Conditions/Version_2/YellowHappyStop.xlsx,no,PASS,0.007145119379767917,,,,,,,,,0,0,0,0,0,0,0,0,0,60,60,60,,,,,,,,,,,,,,,,,,,,,,,,,,,,,,,,,,,,,,,,,,,,,,,,,,,,,,,,,,,,,,,,,,,,,,,,,,,,,,,1.76,619.2748847000767,None,space,1,0.32236060011200607,621.1418580999598,None,621.1418580999598,None,621.1418580999598,None,,,,,,,,,,,P010,fencog,2,Pre,2021_Sep_06_1031,Go No-Go Task,2021.1.4,120.33303360607265,
,"Rule: When you see a yellow image, do not press 'spacebar'.",Images/Happy/AM10_HO.jpg,Happy,Yellow,Images/Yellow.jpg,None,ParentConditions/YellowBlueBlue_v2.xlsx,BlueBlueYellow,Conditions/Version_2/YellowHappyStop.xlsx,yes,PASS,0.8341186478720962,,,,,,,,,0,0,0,0,0,0,0,0,0,61,61,61,,,,,,,,,,,,,,,,,,,,,,,,,,,,,,,,,,,,,,,,,,,,,,,,,,,,,,,,,,,,,,,,,,,,,,,,,,,,,,,1.22,621.5423797001131,None,None,1,,622.8662889001425,None,622.8662889001425,None,622.8662889001425,None,,,,,,,,,,,P010,fencog,2,Pre,2021_Sep_06_1031,Go No-Go Task,2021.1.4,120.33303360607265,
,"Rule: When you see a yellow image, do not press 'spacebar'.",Images/Happy/AM22HAS.jpg,Happy,Yellow,Images/Yellow.jpg,None,ParentConditions/YellowBlueBlue_v2.xlsx,BlueBlueYellow,Conditions/Version_2/YellowHappyStop.xlsx,yes,PASS,0.6172419840647391,,,,,,,,,0,0,0,0,0,0,0,0,0,62,62,62,,,,,,,,,,,,,,,,,,,,,,,,,,,,,,,,,,,,,,,,,,,,,,,,,,,,,,,,,,,,,,,,,,,,,,,,,,,,,,,1.71,623.2708515000995,None,None,1,,625.0823292999994,None,625.0823292999994,None,625.0823292999994,None,,,,,,,,,,,P010,fencog,2,Pre,2021_Sep_06_1031,Go No-Go Task,2021.1.4,120.33303360607265,
,"Rule: When you see a yellow image, do not press 'spacebar'.",Images/Fearful/AM22AFS.jpg,Fear,Blue,Images/Blue.jpg,space,ParentConditions/YellowBlueBlue_v2.xlsx,BlueBlueYellow,Conditions/Version_2/YellowHappyStop.xlsx,no,PASS,0.13735844586330215,,,,,,,,,0,0,0,0,0,0,0,0,0,63,63,63,,,,,,,,,,,,,,,,,,,,,,,,,,,,,,,,,,,,,,,,,,,,,,,,,,,,,,,,,,,,,,,,,,,,,,,,,,,,,,,1.99,625.4846040001139,None,space,1,0.3222795999608934,627.582507800078,None,627.582507800078,None,627.582507800078,None,,,,,,,,,,,P010,fencog,2,Pre,2021_Sep_06_1031,Go No-Go Task,2021.1.4,120.33303360607265,
,"Rule: When you see a yellow image, do not press 'spacebar'.",Images/Happy/BM08_HO.jpg,Happy,Yellow,Images/Yellow.jpg,None,ParentConditions/YellowBlueBlue_v2.xlsx,BlueBlueYellow,Conditions/Version_2/YellowHappyStop.xlsx,yes,PASS,0.19822628709829182,,,,,,,,,0,0,0,0,0,0,0,0,0,64,64,64,,,,,,,,,,,,,,,,,,,,,,,,,,,,,,,,,,,,,,,,,,,,,,,,,,,,,,,,,,,,,,,,,,,,,,,,,,,,,,,1.77,627.9876888000872,None,None,1,,629.8642607000656,None,629.8642607000656,None,629.8642607000656,None,,,,,,,,,,,P010,fencog,2,Pre,2021_Sep_06_1031,Go No-Go Task,2021.1.4,120.33303360607265,
,"Rule: When you see a yellow image, do not press 'spacebar'.",Images/Fearful/AM19AFS.jpg,Fear,Blue,Images/Blue.jpg,space,ParentConditions/YellowBlueBlue_v2.xlsx,BlueBlueYellow,Conditions/Version_2/YellowHappyStop.xlsx,no,PASS,0.9846537447676192,,,,,,,,,0,0,0,0,0,0,0,0,0,65,65,65,,,,,,,,,,,,,,,,,,,,,,,,,,,,,,,,,,,,,,,,,,,,,,,,,,,,,,,,,,,,,,,,,,,,,,,,,,,,,,,1.86,630.2628820000682,None,space,1,0.3059223999734968,632.2302030001301,None,632.2302030001301,None,632.2302030001301,None,,,,,,,,,,,P010,fencog,2,Pre,2021_Sep_06_1031,Go No-Go Task,2021.1.4,120.33303360607265,
,"Rule: When you see a yellow image, do not press 'spacebar'.",Images/Fearful/AF23AFS.jpg,Fear,Blue,Images/Blue.jpg,space,ParentConditions/YellowBlueBlue_v2.xlsx,BlueBlueYellow,Conditions/Version_2/YellowHappyStop.xlsx,no,PASS,0.06538281980323435,,,,,,,,,0,0,0,0,0,0,0,0,0,66,66,66,,,,,,,,,,,,,,,,,,,,,,,,,,,,,,,,,,,,,,,,,,,,,,,,,,,,,,,,,,,,,,,,,,,,,,,,,,,,,,,1.97,632.6373499000911,None,space,1,0.3269962000194937,634.72118400014,None,634.72118400014,None,634.72118400014,None,,,,,,,,,,,P010,fencog,2,Pre,2021_Sep_06_1031,Go No-Go Task,2021.1.4,120.33303360607265,
,"Rule: When you see a yellow image, do not press 'spacebar'.",Images/Fearful/AM13AFS.jpg,Fear,Blue,Images/Blue.jpg,space,ParentConditions/YellowBlueBlue_v2.xlsx,BlueBlueYellow,Conditions/Version_2/YellowHappyStop.xlsx,no,PASS,0.501942139065686,,,,,,,,,0,0,0,0,0,0,0,0,0,67,67,67,,,,,,,,,,,,,,,,,,,,,,,,,,,,,,,,,,,,,,,,,,,,,,,,,,,,,,,,,,,,,,,,,,,,,,,,,,,,,,,1.88,635.1164158000611,None,space,1,0.2881869999691844,637.1038041999564,None,637.1038041999564,None,637.1038041999564,None,,,,,,,,,,,P010,fencog,2,Pre,2021_Sep_06_1031,Go No-Go Task,2021.1.4,120.33303360607265,
,"Rule: When you see a yellow image, do not press 'spacebar'.",Images/Fearful/HF09_FC.jpg,Fear,Blue,Images/Blue.jpg,space,ParentConditions/YellowBlueBlue_v2.xlsx,BlueBlueYellow,Conditions/Version_2/YellowHappyStop.xlsx,no,PASS,0.5863101312226996,,,,,,,,,0,0,0,0,0,0,0,0,0,68,68,68,,,,,,,,,,,,,,,,,,,,,,,,,,,,,,,,,,,,,,,,,,,,,,,,,,,,,,,,,,,,,,,,,,,,,,,,,,,,,,,1.87,637.5059325001203,None,space,1,0.2821443001739681,639.4779676999897,None,639.4779676999897,None,639.4779676999897,None,,,,,,,,,,,P010,fencog,2,Pre,2021_Sep_06_1031,Go No-Go Task,2021.1.4,120.33303360607265,
,"Rule: When you see a yellow image, do not press 'spacebar'.",Images/Fearful/AM04AFS.jpg,Fear,Blue,Images/Blue.jpg,space,ParentConditions/YellowBlueBlue_v2.xlsx,BlueBlueYellow,Conditions/Version_2/YellowHappyStop.xlsx,no,PASS,0.9464588162199873,,,,,,,,,0,0,0,0,0,0,0,0,0,69,69,69,,,,,,,,,,,,,,,,,,,,,,,,,,,,,,,,,,,,,,,,,,,,,,,,,,,,,,,,,,,,,,,,,,,,,,,,,,,,,,,1.27,639.878364500124,None,space,1,0.3553049999754876,641.2525534001179,None,641.2525534001179,None,641.2525534001179,None,,,,,,,,,,,P010,fencog,2,Pre,2021_Sep_06_1031,Go No-Go Task,2021.1.4,120.33303360607265,
,"Rule: When you see a yellow image, do not press 'spacebar'.",Images/Fearful/AF02AFS.jpg,Fear,Blue,Images/Blue.jpg,space,ParentConditions/YellowBlueBlue_v2.xlsx,BlueBlueYellow,Conditions/Version_2/YellowHappyStop.xlsx,no,PASS,0.745835010449707,,,,,,,,,0,0,0,0,0,0,0,0,0,70,70,70,,,,,,,,,,,,,,,,,,,,,,,,,,,,,,,,,,,,,,,,,,,,,,,,,,,,,,,,,,,,,,,,,,,,,,,,,,,,,,,1.89,641.6617404001299,None,space,1,0.3644240000285208,643.6519309000578,None,643.6519309000578,None,643.6519309000578,None,,,,,,,,,,,P010,fencog,2,Pre,2021_Sep_06_1031,Go No-Go Task,2021.1.4,120.33303360607265,
,"Rule: When you see a yellow image, do not press 'spacebar'.",Images/Fearful/AM09AFS.jpg,Fear,Blue,Images/Blue.jpg,space,ParentConditions/YellowBlueBlue_v2.xlsx,BlueBlueYellow,Conditions/Version_2/YellowHappyStop.xlsx,no,PASS,0.8501894993195995,,,,,,,,,0,0,0,0,0,0,0,0,0,71,71,71,,,,,,,,,,,,,,,,,,,,,,,,,,,,,,,,,,,,,,,,,,,,,,,,,,,,,,,,,,,,,,,,,,,,,,,,,,,,,,,1.54,644.0587673000991,None,space,1,0.3306354000233114,645.7011951000895,None,645.7011951000895,None,645.7011951000895,None,,,,,,,,,,,P010,fencog,2,Pre,2021_Sep_06_1031,Go No-Go Task,2021.1.4,120.33303360607265,
,"Rule: When you see a yellow image, do not press 'spacebar'.",Images/Fearful/BF05_FO.jpg,Fear,Blue,Images/Blue.jpg,space,ParentConditions/YellowBlueBlue_v2.xlsx,BlueBlueYellow,Conditions/Version_2/YellowHappyStop.xlsx,no,PASS,0.41552487186891285,,,,,,,,,0,0,0,0,0,0,0,0,0,72,72,72,,,,,,,,,,,,,,,,,,,,,,,,,,,,,,,,,,,,,,,,,,,,,,,,,,,,,,,,,,,,,,,,,,,,,,,,,,,,,,,1.29,646.1005696000066,None,space,1,0.3475722000002861,647.4924181001261,None,647.4924181001261,None,647.4924181001261,None,,,,,,,,,,,P010,fencog,2,Pre,2021_Sep_06_1031,Go No-Go Task,2021.1.4,120.33303360607265,
,"Rule: When you see a yellow image, do not press 'spacebar'.",Images/Fearful/AF22AFS.jpg,Fear,Blue,Images/Blue.jpg,space,ParentConditions/YellowBlueBlue_v2.xlsx,BlueBlueYellow,Conditions/Version_2/YellowHappyStop.xlsx,no,PASS,0.6701019786706065,,,,,,,,,0,0,0,0,0,0,0,0,0,73,73,73,,,,,,,,,,,,,,,,,,,,,,,,,,,,,,,,,,,,,,,,,,,,,,,,,,,,,,,,,,,,,,,,,,,,,,,,,,,,,,,1.26,647.8928956999443,None,space,1,0.3330902000889182,649.2582785000559,None,649.2582785000559,None,649.2582785000559,None,,,,,,,,,,,P010,fencog,2,Pre,2021_Sep_06_1031,Go No-Go Task,2021.1.4,120.33303360607265,
,"Rule: When you see a yellow image, do not press 'spacebar'.",Images/Happy/BF18_HO.jpg,Happy,Yellow,Images/Yellow.jpg,None,ParentConditions/YellowBlueBlue_v2.xlsx,BlueBlueYellow,Conditions/Version_2/YellowHappyStop.xlsx,yes,PASS,0.41437941694275227,,,,,,,,,0,0,0,0,0,0,0,0,0,74,74,74,,,,,,,,,,,,,,,,,,,,,,,,,,,,,,,,,,,,,,,,,,,,,,,,,,,,,,,,,,,,,,,,,,,,,,,,,,,,,,,1.79,649.6575744999573,None,None,1,,651.5494763001334,None,651.5494763001334,None,651.5494763001334,None,,,,,,,,,,,P010,fencog,2,Pre,2021_Sep_06_1031,Go No-Go Task,2021.1.4,120.33303360607265,
,"Rule: When you see a yellow image, do not press 'spacebar'.",Images/Fearful/WM12_FO.jpg,Fear,Blue,Images/Blue.jpg,space,ParentConditions/YellowBlueBlue_v2.xlsx,BlueBlueYellow,Conditions/Version_2/YellowHappyStop.xlsx,no,PASS,0.577397464904033,,,,,,,,,0,0,0,0,0,0,0,0,0,75,75,75,,,,,,,,,,,,,,,,,,,,,,,,,,,,,,,,,,,,,,,,,,,,,,,,,,,,,,,,,,,,,,,,,,,,,,,,,,,,,,,1.66,651.948509800015,None,space,1,0.27646109997294843,653.7155291000381,None,653.7155291000381,None,653.7155291000381,None,,,,,,,,,,,P010,fencog,2,Pre,2021_Sep_06_1031,Go No-Go Task,2021.1.4,120.33303360607265,
,"Rule: When you see a yellow image, do not press 'spacebar'.",Images/Fearful/BF07_FO.jpg,Fear,Blue,Images/Blue.jpg,space,ParentConditions/YellowBlueBlue_v2.xlsx,BlueBlueYellow,Conditions/Version_2/YellowHappyStop.xlsx,no,PASS,0.3175910009200418,,,,,,,,,0,0,0,0,0,0,0,0,0,76,76,76,,,,,,,,,,,,,,,,,,,,,,,,,,,,,,,,,,,,,,,,,,,,,,,,,,,,,,,,,,,,,,,,,,,,,,,,,,,,,,,1.55,654.1240350001026,None,space,1,0.3472150999587029,655.781587400008,None,655.781587400008,None,655.781587400008,None,,,,,,,,,,,P010,fencog,2,Pre,2021_Sep_06_1031,Go No-Go Task,2021.1.4,120.33303360607265,
,"Rule: When you see a yellow image, do not press 'spacebar'.",Images/Fearful/HF10_FO.jpg,Fear,Blue,Images/Blue.jpg,space,ParentConditions/YellowBlueBlue_v2.xlsx,BlueBlueYellow,Conditions/Version_2/YellowHappyStop.xlsx,no,PASS,0.5511356040110476,,,,,,,,,0,0,0,0,0,0,0,0,0,77,77,77,,,,,,,,,,,,,,,,,,,,,,,,,,,,,,,,,,,,,,,,,,,,,,,,,,,,,,,,,,,,,,,,,,,,,,,,,,,,,,,1.23,656.1850293001626,None,None,0,,657.5143735001329,None,657.5143735001329,None,657.5143735001329,None,,,,,,,,,,,P010,fencog,2,Pre,2021_Sep_06_1031,Go No-Go Task,2021.1.4,120.33303360607265,
,"Rule: When you see a yellow image, do not press 'spacebar'.",Images/Fearful/AM10AFS.jpg,Fear,Blue,Images/Blue.jpg,space,ParentConditions/YellowBlueBlue_v2.xlsx,BlueBlueYellow,Conditions/Version_2/YellowHappyStop.xlsx,no,PASS,0.516543326357497,,,,,,,,,0,0,0,0,0,0,0,0,0,78,78,78,,,,,,,,,,,,,,,,,,,,,,,,,,,,,,,,,,,,,,,,,,,,,,,,,,,,,,,,,,,,,,,,,,,,,,,,,,,,,,,1.34,657.9150733000133,None,space,1,0.28504139999859035,659.3555225001182,None,659.3555225001182,None,659.3555225001182,None,,,,,,,,,,,P010,fencog,2,Pre,2021_Sep_06_1031,Go No-Go Task,2021.1.4,120.33303360607265,
,"Rule: When you see a yellow image, do not press 'spacebar'.",Images/Happy/AM23HAS.jpg,Happy,Yellow,Images/Yellow.jpg,None,ParentConditions/YellowBlueBlue_v2.xlsx,BlueBlueYellow,Conditions/Version_2/YellowHappyStop.xlsx,yes,PASS,0.4223687412850129,,,,,,,,,0,0,0,0,0,0,0,0,0,79,79,79,,,,,,,,,,,,,,,,,,,,,,,,,,,,,,,,,,,,,,,,,,,,,,,,,,,,,,,,,,,,,,,,,,,,,,,,,,,,,,,1.45,659.7607116000727,None,None,1,,661.3215421000496,None,661.3215421000496,None,661.3215421000496,None,,,,,,,,,,,P010,fencog,2,Pre,2021_Sep_06_1031,Go No-Go Task,2021.1.4,120.33303360607265,
,"Rule: When you see blue image, do not press 'spacebar'.",Images/Fearful/HM06_FC.jpg,Fear,Blue,Images/Blue.jpg,None,ParentConditions/YellowBlueBlue_v2.xlsx,BlueBlueYellow,Conditions/Version_2/BlueFearStop.xlsx,yes,PASS,0.29049104493206235,,,,,,,,,0,0,0,0,0,1,1,1,0,0,0,0,,,,,,,,,,,,,,,,,,,,,,,,,,,,,,,,,,,,,,,,,,,,,,,,,,,,,,,,,,,,,,,,,663.3120643999428,None,666.3030332000926,None,space,0.3452121999580413,666.3030332000926,None,663.3120643999428,None,663.3120643999428,None,663.3120643999428,None,1.86,666.6900862001348,None,None,1,,668.6527724999469,None,668.6527724999469,None,668.6527724999469,None,661.7339631000068,None,space,1.067188500193879,662.2207017000765,None,661.7339631000068,None,661.7339631000068,None,P010,fencog,2,Pre,2021_Sep_06_1031,Go No-Go Task,2021.1.4,120.33303360607265,
,"Rule: When you see blue image, do not press 'spacebar'.",Images/Happy/AF07HAS.jpg,Happy,Yellow,Images/Yellow.jpg,space,ParentConditions/YellowBlueBlue_v2.xlsx,BlueBlueYellow,Conditions/Version_2/BlueFearStop.xlsx,no,PASS,0.3060165792014795,,,,,,,,,0,0,0,0,0,1,1,1,0,1,1,1,,,,,,,,,,,,,,,,,,,,,,,,,,,,,,,,,,,,,,,,,,,,,,,,,,,,,,,,,,,,,,,,,,,,,,,,,,,,,,,1.95,669.054035600042,None,space,1,0.35405869991518557,671.1104157001246,None,671.1104157001246,None,671.1104157001246,None,,,,,,,,,,,P010,fencog,2,Pre,2021_Sep_06_1031,Go No-Go Task,2021.1.4,120.33303360607265,
,"Rule: When you see blue image, do not press 'spacebar'.",Images/Happy/AF28HAS.jpg,Happy,Yellow,Images/Yellow.jpg,space,ParentConditions/YellowBlueBlue_v2.xlsx,BlueBlueYellow,Conditions/Version_2/BlueFearStop.xlsx,no,PASS,0.23458600871698787,,,,,,,,,0,0,0,0,0,1,1,1,0,2,2,2,,,,,,,,,,,,,,,,,,,,,,,,,,,,,,,,,,,,,,,,,,,,,,,,,,,,,,,,,,,,,,,,,,,,,,,,,,,,,,,1.41,671.5097954000812,None,space,1,0.3016302001196891,673.0265550001059,None,673.0265550001059,None,673.0265550001059,None,,,,,,,,,,,P010,fencog,2,Pre,2021_Sep_06_1031,Go No-Go Task,2021.1.4,120.33303360607265,
,"Rule: When you see blue image, do not press 'spacebar'.",Images/Happy/AF22HAS.jpg,Happy,Yellow,Images/Yellow.jpg,space,ParentConditions/YellowBlueBlue_v2.xlsx,BlueBlueYellow,Conditions/Version_2/BlueFearStop.xlsx,no,PASS,0.11899132917260535,,,,,,,,,0,0,0,0,0,1,1,1,0,3,3,3,,,,,,,,,,,,,,,,,,,,,,,,,,,,,,,,,,,,,,,,,,,,,,,,,,,,,,,,,,,,,,,,,,,,,,,,,,,,,,,1.63,673.4287441000342,None,space,1,0.3048773999325931,675.1591835001018,None,675.1591835001018,None,675.1591835001018,None,,,,,,,,,,,P010,fencog,2,Pre,2021_Sep_06_1031,Go No-Go Task,2021.1.4,120.33303360607265,
,"Rule: When you see blue image, do not press 'spacebar'.",Images/Fearful/AF27AFS.jpg,Fear,Blue,Images/Blue.jpg,None,ParentConditions/YellowBlueBlue_v2.xlsx,BlueBlueYellow,Conditions/Version_2/BlueFearStop.xlsx,yes,PASS,0.3988252776358663,,,,,,,,,0,0,0,0,0,1,1,1,0,4,4,4,,,,,,,,,,,,,,,,,,,,,,,,,,,,,,,,,,,,,,,,,,,,,,,,,,,,,,,,,,,,,,,,,,,,,,,,,,,,,,,1.27,675.5596916000359,None,None,1,,676.9334863999393,None,676.9334863999393,None,676.9334863999393,None,,,,,,,,,,,P010,fencog,2,Pre,2021_Sep_06_1031,Go No-Go Task,2021.1.4,120.33303360607265,
,"Rule: When you see blue image, do not press 'spacebar'.",Images/Happy/AM24HAS.jpg,Happy,Yellow,Images/Yellow.jpg,space,ParentConditions/YellowBlueBlue_v2.xlsx,BlueBlueYellow,Conditions/Version_2/BlueFearStop.xlsx,no,PASS,0.6540701766357542,,,,,,,,,0,0,0,0,0,1,1,1,0,5,5,5,,,,,,,,,,,,,,,,,,,,,,,,,,,,,,,,,,,,,,,,,,,,,,,,,,,,,,,,,,,,,,,,,,,,,,,,,,,,,,,1.91,677.3343877000734,None,space,1,0.2910200001206249,679.3497295000125,None,679.3497295000125,None,679.3497295000125,None,,,,,,,,,,,P010,fencog,2,Pre,2021_Sep_06_1031,Go No-Go Task,2021.1.4,120.33303360607265,
,"Rule: When you see blue image, do not press 'spacebar'.",Images/Fearful/AF26AFS.jpg,Fear,Blue,Images/Blue.jpg,None,ParentConditions/YellowBlueBlue_v2.xlsx,BlueBlueYellow,Conditions/Version_2/BlueFearStop.xlsx,yes,PASS,0.672416725983861,,,,,,,,,0,0,0,0,0,1,1,1,0,6,6,6,,,,,,,,,,,,,,,,,,,,,,,,,,,,,,,,,,,,,,,,,,,,,,,,,,,,,,,,,,,,,,,,,,,,,,,,,,,,,,,1.5,679.7580751001369,None,None,1,,681.3655880000442,None,681.3655880000442,None,681.3655880000442,None,,,,,,,,,,,P010,fencog,2,Pre,2021_Sep_06_1031,Go No-Go Task,2021.1.4,120.33303360607265,
,"Rule: When you see blue image, do not press 'spacebar'.",Images/Happy/WM11_HC.jpg,Happy,Yellow,Images/Yellow.jpg,space,ParentConditions/YellowBlueBlue_v2.xlsx,BlueBlueYellow,Conditions/Version_2/BlueFearStop.xlsx,no,PASS,0.8722598945732238,,,,,,,,,0,0,0,0,0,1,1,1,0,7,7,7,,,,,,,,,,,,,,,,,,,,,,,,,,,,,,,,,,,,,,,,,,,,,,,,,,,,,,,,,,,,,,,,,,,,,,,,,,,,,,,1.57,681.7752384999767,None,space,1,0.3036050999071449,683.4484044001438,None,683.4484044001438,None,683.4484044001438,None,,,,,,,,,,,P010,fencog,2,Pre,2021_Sep_06_1031,Go No-Go Task,2021.1.4,120.33303360607265,
,"Rule: When you see blue image, do not press 'spacebar'.",Images/Happy/BM03_HO.jpg,Happy,Yellow,Images/Yellow.jpg,space,ParentConditions/YellowBlueBlue_v2.xlsx,BlueBlueYellow,Conditions/Version_2/BlueFearStop.xlsx,no,PASS,0.281866807892032,,,,,,,,,0,0,0,0,0,1,1,1,0,8,8,8,,,,,,,,,,,,,,,,,,,,,,,,,,,,,,,,,,,,,,,,,,,,,,,,,,,,,,,,,,,,,,,,,,,,,,,,,,,,,,,1.38,683.858573500067,None,space,1,0.3081924000289291,685.339636299992,None,685.339636299992,None,685.339636299992,None,,,,,,,,,,,P010,fencog,2,Pre,2021_Sep_06_1031,Go No-Go Task,2021.1.4,120.33303360607265,
,"Rule: When you see blue image, do not press 'spacebar'.",Images/Happy/BF18_HO.jpg,Happy,Yellow,Images/Yellow.jpg,space,ParentConditions/YellowBlueBlue_v2.xlsx,BlueBlueYellow,Conditions/Version_2/BlueFearStop.xlsx,no,PASS,0.056262560303186104,,,,,,,,,0,0,0,0,0,1,1,1,0,9,9,9,,,,,,,,,,,,,,,,,,,,,,,,,,,,,,,,,,,,,,,,,,,,,,,,,,,,,,,,,,,,,,,,,,,,,,,,,,,,,,,1.55,685.7455637000967,None,space,1,0.2746787001378834,687.3972434001043,None,687.3972434001043,None,687.3972434001043,None,,,,,,,,,,,P010,fencog,2,Pre,2021_Sep_06_1031,Go No-Go Task,2021.1.4,120.33303360607265,
,"Rule: When you see blue image, do not press 'spacebar'.",Images/Happy/AM10HAS.jpg,Happy,Yellow,Images/Yellow.jpg,space,ParentConditions/YellowBlueBlue_v2.xlsx,BlueBlueYellow,Conditions/Version_2/BlueFearStop.xlsx,no,PASS,0.26234858566298536,,,,,,,,,0,0,0,0,0,1,1,1,0,10,10,10,,,,,,,,,,,,,,,,,,,,,,,,,,,,,,,,,,,,,,,,,,,,,,,,,,,,,,,,,,,,,,,,,,,,,,,,,,,,,,,1.61,687.8061760000419,None,space,1,0.2708914000540972,689.5133187000174,None,689.5133187000174,None,689.5133187000174,None,,,,,,,,,,,P010,fencog,2,Pre,2021_Sep_06_1031,Go No-Go Task,2021.1.4,120.33303360607265,
,"Rule: When you see blue image, do not press 'spacebar'.",Images/Happy/AM09HAS.jpg,Happy,Yellow,Images/Yellow.jpg,space,ParentConditions/YellowBlueBlue_v2.xlsx,BlueBlueYellow,Conditions/Version_2/BlueFearStop.xlsx,no,PASS,0.5322853606558464,,,,,,,,,0,0,0,0,0,1,1,1,0,11,11,11,,,,,,,,,,,,,,,,,,,,,,,,,,,,,,,,,,,,,,,,,,,,,,,,,,,,,,,,,,,,,,,,,,,,,,,,,,,,,,,1.43,689.9127275999635,None,space,1,0.26580239995382726,691.4461289001629,None,691.4461289001629,None,691.4461289001629,None,,,,,,,,,,,P010,fencog,2,Pre,2021_Sep_06_1031,Go No-Go Task,2021.1.4,120.33303360607265,
,"Rule: When you see blue image, do not press 'spacebar'.",Images/Happy/AM16HAS.jpg,Happy,Yellow,Images/Yellow.jpg,space,ParentConditions/YellowBlueBlue_v2.xlsx,BlueBlueYellow,Conditions/Version_2/BlueFearStop.xlsx,no,PASS,0.8730560121673133,,,,,,,,,0,0,0,0,0,1,1,1,0,12,12,12,,,,,,,,,,,,,,,,,,,,,,,,,,,,,,,,,,,,,,,,,,,,,,,,,,,,,,,,,,,,,,,,,,,,,,,,,,,,,,,1.92,691.8483337000944,None,space,1,0.27380499988794327,693.870322200004,None,693.870322200004,None,693.870322200004,None,,,,,,,,,,,P010,fencog,2,Pre,2021_Sep_06_1031,Go No-Go Task,2021.1.4,120.33303360607265,
,"Rule: When you see blue image, do not press 'spacebar'.",Images/Happy/AF10_HE.jpg,Happy,Yellow,Images/Yellow.jpg,space,ParentConditions/YellowBlueBlue_v2.xlsx,BlueBlueYellow,Conditions/Version_2/BlueFearStop.xlsx,no,PASS,0.7103342893987146,,,,,,,,,0,0,0,0,0,1,1,1,0,13,13,13,,,,,,,,,,,,,,,,,,,,,,,,,,,,,,,,,,,,,,,,,,,,,,,,,,,,,,,,,,,,,,,,,,,,,,,,,,,,,,,1.24,694.2697789000813,None,space,1,0.29290539980866015,695.6112005000468,None,695.6112005000468,None,695.6112005000468,None,,,,,,,,,,,P010,fencog,2,Pre,2021_Sep_06_1031,Go No-Go Task,2021.1.4,120.33303360607265,
,"Rule: When you see blue image, do not press 'spacebar'.",Images/Happy/AF27HAS.jpg,Happy,Yellow,Images/Yellow.jpg,space,ParentConditions/YellowBlueBlue_v2.xlsx,BlueBlueYellow,Conditions/Version_2/BlueFearStop.xlsx,no,PASS,0.8937289807404983,,,,,,,,,0,0,0,0,0,1,1,1,0,14,14,14,,,,,,,,,,,,,,,,,,,,,,,,,,,,,,,,,,,,,,,,,,,,,,,,,,,,,,,,,,,,,,,,,,,,,,,,,,,,,,,1.35,696.0234811999835,None,space,1,0.2581291999667883,697.4780274999794,None,697.4780274999794,None,697.4780274999794,None,,,,,,,,,,,P010,fencog,2,Pre,2021_Sep_06_1031,Go No-Go Task,2021.1.4,120.33303360607265,
,"Rule: When you see blue image, do not press 'spacebar'.",Images/Happy/BF10_HO.jpg,Happy,Yellow,Images/Yellow.jpg,space,ParentConditions/YellowBlueBlue_v2.xlsx,BlueBlueYellow,Conditions/Version_2/BlueFearStop.xlsx,no,PASS,0.41505973664432705,,,,,,,,,0,0,0,0,0,1,1,1,0,15,15,15,,,,,,,,,,,,,,,,,,,,,,,,,,,,,,,,,,,,,,,,,,,,,,,,,,,,,,,,,,,,,,,,,,,,,,,,,,,,,,,1.2,697.8772120999638,None,space,1,0.31911669997498393,699.1771093001589,None,699.1771093001589,None,699.1771093001589,None,,,,,,,,,,,P010,fencog,2,Pre,2021_Sep_06_1031,Go No-Go Task,2021.1.4,120.33303360607265,
,"Rule: When you see blue image, do not press 'spacebar'.",Images/Happy/BF14_HO.jpg,Happy,Yellow,Images/Yellow.jpg,space,ParentConditions/YellowBlueBlue_v2.xlsx,BlueBlueYellow,Conditions/Version_2/BlueFearStop.xlsx,no,PASS,0.38735807018105894,,,,,,,,,0,0,0,0,0,1,1,1,0,16,16,16,,,,,,,,,,,,,,,,,,,,,,,,,,,,,,,,,,,,,,,,,,,,,,,,,,,,,,,,,,,,,,,,,,,,,,,,,,,,,,,1.76,699.5780843000393,None,None,0,,701.4430913000833,None,701.4430913000833,None,701.4430913000833,None,,,,,,,,,,,P010,fencog,2,Pre,2021_Sep_06_1031,Go No-Go Task,2021.1.4,120.33303360607265,
,"Rule: When you see blue image, do not press 'spacebar'.",Images/Fearful/BM08_FC.jpg,Fear,Blue,Images/Blue.jpg,None,ParentConditions/YellowBlueBlue_v2.xlsx,BlueBlueYellow,Conditions/Version_2/BlueFearStop.xlsx,yes,PASS,0.7905879335514261,,,,,,,,,0,0,0,0,0,1,1,1,0,17,17,17,,,,,,,,,,,,,,,,,,,,,,,,,,,,,,,,,,,,,,,,,,,,,,,,,,,,,,,,,,,,,,,,,,,,,,,,,,,,,,,1.54,701.846036199946,None,None,1,,703.4924532000441,None,703.4924532000441,None,703.4924532000441,None,,,,,,,,,,,P010,fencog,2,Pre,2021_Sep_06_1031,Go No-Go Task,2021.1.4,120.33303360607265,
,"Rule: When you see blue image, do not press 'spacebar'.",Images/Happy/AM01HAS.jpg,Happy,Yellow,Images/Yellow.jpg,space,ParentConditions/YellowBlueBlue_v2.xlsx,BlueBlueYellow,Conditions/Version_2/BlueFearStop.xlsx,no,PASS,0.9589705349559869,,,,,,,,,0,0,0,0,0,1,1,1,0,18,18,18,,,,,,,,,,,,,,,,,,,,,,,,,,,,,,,,,,,,,,,,,,,,,,,,,,,,,,,,,,,,,,,,,,,,,,,,,,,,,,,2,703.899229099974,None,space,1,0.271966400090605,706.0001395000145,None,706.0001395000145,None,706.0001395000145,None,,,,,,,,,,,P010,fencog,2,Pre,2021_Sep_06_1031,Go No-Go Task,2021.1.4,120.33303360607265,
,"Rule: When you see blue image, do not press 'spacebar'.",Images/Happy/AF11HAS.jpg,Happy,Yellow,Images/Yellow.jpg,space,ParentConditions/YellowBlueBlue_v2.xlsx,BlueBlueYellow,Conditions/Version_2/BlueFearStop.xlsx,no,PASS,0.6358882343202421,,,,,,,,,0,0,0,0,0,1,1,1,0,19,19,19,,,,,,,,,,,,,,,,,,,,,,,,,,,,,,,,,,,,,,,,,,,,,,,,,,,,,,,,,,,,,,,,,,,,,,,,,,,,,,,1.49,706.4002918000333,None,space,1,0.3689813001547009,707.9912008000538,None,707.9912008000538,None,707.9912008000538,None,,,,,,,,,,,P010,fencog,2,Pre,2021_Sep_06_1031,Go No-Go Task,2021.1.4,120.33303360607265,
,"Rule: When you see blue image, do not press 'spacebar'.",Images/Happy/BM01_HO.jpg,Happy,Yellow,Images/Yellow.jpg,space,ParentConditions/YellowBlueBlue_v2.xlsx,BlueBlueYellow,Conditions/Version_2/BlueFearStop.xlsx,no,PASS,0.301040907790301,,,,,,,,,0,0,0,0,0,1,1,1,0,20,20,20,,,,,,,,,,,,,,,,,,,,,,,,,,,,,,,,,,,,,,,,,,,,,,,,,,,,,,,,,,,,,,,,,,,,,,,,,,,,,,,1.71,708.3902962000575,None,None,0,,710.2072074001189,None,710.2072074001189,None,710.2072074001189,None,,,,,,,,,,,P010,fencog,2,Pre,2021_Sep_06_1031,Go No-Go Task,2021.1.4,120.33303360607265,
,"Rule: When you see blue image, do not press 'spacebar'.",Images/Happy/AF07_HO.jpg,Happy,Yellow,Images/Yellow.jpg,space,ParentConditions/YellowBlueBlue_v2.xlsx,BlueBlueYellow,Conditions/Version_2/BlueFearStop.xlsx,no,PASS,0.16146803476355298,,,,,,,,,0,0,0,0,0,1,1,1,0,21,21,21,,,,,,,,,,,,,,,,,,,,,,,,,,,,,,,,,,,,,,,,,,,,,,,,,,,,,,,,,,,,,,,,,,,,,,,,,,,,,,,1.37,710.6093918001279,None,space,1,0.34231900004670024,712.0817076000385,None,712.0817076000385,None,712.0817076000385,None,,,,,,,,,,,P010,fencog,2,Pre,2021_Sep_06_1031,Go No-Go Task,2021.1.4,120.33303360607265,
,"Rule: When you see blue image, do not press 'spacebar'.",Images/Happy/HM06_HO.jpg,Happy,Yellow,Images/Yellow.jpg,space,ParentConditions/YellowBlueBlue_v2.xlsx,BlueBlueYellow,Conditions/Version_2/BlueFearStop.xlsx,no,PASS,0.017367743981932304,,,,,,,,,0,0,0,0,0,1,1,1,0,22,22,22,,,,,,,,,,,,,,,,,,,,,,,,,,,,,,,,,,,,,,,,,,,,,,,,,,,,,,,,,,,,,,,,,,,,,,,,,,,,,,,1.64,712.482565500075,None,space,1,0.3449418998789042,714.2310481001623,None,714.2310481001623,None,714.2310481001623,None,,,,,,,,,,,P010,fencog,2,Pre,2021_Sep_06_1031,Go No-Go Task,2021.1.4,120.33303360607265,
,"Rule: When you see blue image, do not press 'spacebar'.",Images/Fearful/AM09_FO.jpg,Fear,Blue,Images/Blue.jpg,None,ParentConditions/YellowBlueBlue_v2.xlsx,BlueBlueYellow,Conditions/Version_2/BlueFearStop.xlsx,yes,PASS,0.2997278789301355,,,,,,,,,0,0,0,0,0,1,1,1,0,23,23,23,,,,,,,,,,,,,,,,,,,,,,,,,,,,,,,,,,,,,,,,,,,,,,,,,,,,,,,,,,,,,,,,,,,,,,,,,,,,,,,1.68,714.6298634000123,None,None,1,,716.4136983000208,None,716.4136983000208,None,716.4136983000208,None,,,,,,,,,,,P010,fencog,2,Pre,2021_Sep_06_1031,Go No-Go Task,2021.1.4,120.33303360607265,
,"Rule: When you see blue image, do not press 'spacebar'.",Images/Happy/AF09HAS.jpg,Happy,Yellow,Images/Yellow.jpg,space,ParentConditions/YellowBlueBlue_v2.xlsx,BlueBlueYellow,Conditions/Version_2/BlueFearStop.xlsx,no,PASS,0.8273900201130844,,,,,,,,,0,0,0,0,0,1,1,1,0,24,24,24,,,,,,,,,,,,,,,,,,,,,,,,,,,,,,,,,,,,,,,,,,,,,,,,,,,,,,,,,,,,,,,,,,,,,,,,,,,,,,,1.72,716.8220591000281,None,space,1,0.28917969996109605,718.6380974999629,None,718.6380974999629,None,718.6380974999629,None,,,,,,,,,,,P010,fencog,2,Pre,2021_Sep_06_1031,Go No-Go Task,2021.1.4,120.33303360607265,
,"Rule: When you see blue image, do not press 'spacebar'.",Images/Happy/AM04HAS.jpg,Happy,Yellow,Images/Yellow.jpg,space,ParentConditions/YellowBlueBlue_v2.xlsx,BlueBlueYellow,Conditions/Version_2/BlueFearStop.xlsx,no,PASS,0.7497236344439144,,,,,,,,,0,0,0,0,0,1,1,1,0,25,25,25,,,,,,,,,,,,,,,,,,,,,,,,,,,,,,,,,,,,,,,,,,,,,,,,,,,,,,,,,,,,,,,,,,,,,,,,,,,,,,,1.78,719.0381696999539,None,space,1,0.3511476998683065,720.9207701999694,None,720.9207701999694,None,720.9207701999694,None,,,,,,,,,,,P010,fencog,2,Pre,2021_Sep_06_1031,Go No-Go Task,2021.1.4,120.33303360607265,
,"Rule: When you see blue image, do not press 'spacebar'.",Images/Happy/BF07_HO.jpg,Happy,Yellow,Images/Yellow.jpg,space,ParentConditions/YellowBlueBlue_v2.xlsx,BlueBlueYellow,Conditions/Version_2/BlueFearStop.xlsx,no,PASS,0.9631973209169931,,,,,,,,,0,0,0,0,0,1,1,1,0,26,26,26,,,,,,,,,,,,,,,,,,,,,,,,,,,,,,,,,,,,,,,,,,,,,,,,,,,,,,,,,,,,,,,,,,,,,,,,,,,,,,,1.52,721.3214279001113,None,space,1,0.34316690010018647,722.9451304001268,None,722.9451304001268,None,722.9451304001268,None,,,,,,,,,,,P010,fencog,2,Pre,2021_Sep_06_1031,Go No-Go Task,2021.1.4,120.33303360607265,
,"Rule: When you see blue image, do not press 'spacebar'.",Images/Happy/AF02HAS.jpg,Happy,Yellow,Images/Yellow.jpg,space,ParentConditions/YellowBlueBlue_v2.xlsx,BlueBlueYellow,Conditions/Version_2/BlueFearStop.xlsx,no,PASS,0.44316288931410874,,,,,,,,,0,0,0,0,0,1,1,1,0,27,27,27,,,,,,,,,,,,,,,,,,,,,,,,,,,,,,,,,,,,,,,,,,,,,,,,,,,,,,,,,,,,,,,,,,,,,,,,,,,,,,,1.89,723.349015600048,None,space,1,0.28798219980672,725.3443217000458,None,725.3443217000458,None,725.3443217000458,None,,,,,,,,,,,P010,fencog,2,Pre,2021_Sep_06_1031,Go No-Go Task,2021.1.4,120.33303360607265,
,"Rule: When you see blue image, do not press 'spacebar'.",Images/Happy/AM30HAS.jpg,Happy,Yellow,Images/Yellow.jpg,space,ParentConditions/YellowBlueBlue_v2.xlsx,BlueBlueYellow,Conditions/Version_2/BlueFearStop.xlsx,no,PASS,0.8101164063536405,,,,,,,,,0,0,0,0,0,1,1,1,0,28,28,28,,,,,,,,,,,,,,,,,,,,,,,,,,,,,,,,,,,,,,,,,,,,,,,,,,,,,,,,,,,,,,,,,,,,,,,,,,,,,,,1.59,725.74712179997,None,space,1,0.31620390014722943,727.4438911001198,None,727.4438911001198,None,727.4438911001198,None,,,,,,,,,,,P010,fencog,2,Pre,2021_Sep_06_1031,Go No-Go Task,2021.1.4,120.33303360607265,
,"Rule: When you see blue image, do not press 'spacebar'.",Images/Happy/BF05_HO.jpg,Happy,Yellow,Images/Yellow.jpg,space,ParentConditions/YellowBlueBlue_v2.xlsx,BlueBlueYellow,Conditions/Version_2/BlueFearStop.xlsx,no,PASS,0.6770609167729968,,,,,,,,,0,0,0,0,0,1,1,1,0,29,29,29,,,,,,,,,,,,,,,,,,,,,,,,,,,,,,,,,,,,,,,,,,,,,,,,,,,,,,,,,,,,,,,,,,,,,,,,,,,,,,,1.85,727.8447120999917,None,space,1,0.31171669997274876,729.801138299983,None,729.801138299983,None,729.801138299983,None,,,,,,,,,,,P010,fencog,2,Pre,2021_Sep_06_1031,Go No-Go Task,2021.1.4,120.33303360607265,
,"Rule: When you see blue image, do not press 'spacebar'.",Images/Fearful/AF25AFS.jpg,Fear,Blue,Images/Blue.jpg,None,ParentConditions/YellowBlueBlue_v2.xlsx,BlueBlueYellow,Conditions/Version_2/BlueFearStop.xlsx,yes,PASS,0.9137328829424104,,,,,,,,,0,0,0,0,0,1,1,1,0,30,30,30,,,,,,,,,,,,,,,,,,,,,,,,,,,,,,,,,,,,,,,,,,,,,,,,,,,,,,,,,,,,,,,,,,,,,,,,,,,,,,,1.53,730.2097194001544,None,None,1,,731.8424702000339,None,731.8424702000339,None,731.8424702000339,None,,,,,,,,,,,P010,fencog,2,Pre,2021_Sep_06_1031,Go No-Go Task,2021.1.4,120.33303360607265,
,"Rule: When you see blue image, do not press 'spacebar'.",Images/Happy/BF09_HO.jpg,Happy,Yellow,Images/Yellow.jpg,space,ParentConditions/YellowBlueBlue_v2.xlsx,BlueBlueYellow,Conditions/Version_2/BlueFearStop.xlsx,no,PASS,0.7233148419047607,,,,,,,,,0,0,0,0,0,1,1,1,0,31,31,31,,,,,,,,,,,,,,,,,,,,,,,,,,,,,,,,,,,,,,,,,,,,,,,,,,,,,,,,,,,,,,,,,,,,,,,,,,,,,,,1.73,732.2787554999813,None,space,1,0.2603758000768721,734.116735199932,None,734.116735199932,None,734.116735199932,None,,,,,,,,,,,P010,fencog,2,Pre,2021_Sep_06_1031,Go No-Go Task,2021.1.4,120.33303360607265,
,"Rule: When you see blue image, do not press 'spacebar'.",Images/Happy/AM09_HE.jpg,Happy,Yellow,Images/Yellow.jpg,space,ParentConditions/YellowBlueBlue_v2.xlsx,BlueBlueYellow,Conditions/Version_2/BlueFearStop.xlsx,no,PASS,0.703399731728546,,,,,,,,,0,0,0,0,0,1,1,1,0,32,32,32,,,,,,,,,,,,,,,,,,,,,,,,,,,,,,,,,,,,,,,,,,,,,,,,,,,,,,,,,,,,,,,,,,,,,,,,,,,,,,,1.99,734.5159273999743,None,space,1,0.2965483001898974,736.6077889001463,None,736.6077889001463,None,736.6077889001463,None,,,,,,,,,,,P010,fencog,2,Pre,2021_Sep_06_1031,Go No-Go Task,2021.1.4,120.33303360607265,
,"Rule: When you see blue image, do not press 'spacebar'.",Images/Fearful/BF14_FO.jpg,Fear,Blue,Images/Blue.jpg,None,ParentConditions/YellowBlueBlue_v2.xlsx,BlueBlueYellow,Conditions/Version_2/BlueFearStop.xlsx,yes,PASS,0.641858343679783,,,,,,,,,0,0,0,0,0,1,1,1,0,33,33,33,,,,,,,,,,,,,,,,,,,,,,,,,,,,,,,,,,,,,,,,,,,,,,,,,,,,,,,,,,,,,,,,,,,,,,,,,,,,,,,1.77,737.0086195999756,None,None,1,,738.8822576000821,None,738.8822576000821,None,738.8822576000821,None,,,,,,,,,,,P010,fencog,2,Pre,2021_Sep_06_1031,Go No-Go Task,2021.1.4,120.33303360607265,
,"Rule: When you see blue image, do not press 'spacebar'.",Images/Fearful/HF05_FC.jpg,Fear,Blue,Images/Blue.jpg,None,ParentConditions/YellowBlueBlue_v2.xlsx,BlueBlueYellow,Conditions/Version_2/BlueFearStop.xlsx,yes,PASS,0.11935527908981858,,,,,,,,,0,0,0,0,0,1,1,1,0,34,34,34,,,,,,,,,,,,,,,,,,,,,,,,,,,,,,,,,,,,,,,,,,,,,,,,,,,,,,,,,,,,,,,,,,,,,,,,,,,,,,,1.62,739.2831570999697,None,None,1,,741.0063943001442,None,741.0063943001442,None,741.0063943001442,None,,,,,,,,,,,P010,fencog,2,Pre,2021_Sep_06_1031,Go No-Go Task,2021.1.4,120.33303360607265,
,"Rule: When you see blue image, do not press 'spacebar'.",Images/Happy/AM23HAS.jpg,Happy,Yellow,Images/Yellow.jpg,space,ParentConditions/YellowBlueBlue_v2.xlsx,BlueBlueYellow,Conditions/Version_2/BlueFearStop.xlsx,no,PASS,0.4310663721908784,,,,,,,,,0,0,0,0,0,1,1,1,0,35,35,35,,,,,,,,,,,,,,,,,,,,,,,,,,,,,,,,,,,,,,,,,,,,,,,,,,,,,,,,,,,,,,,,,,,,,,,,,,,,,,,1.83,741.407668699976,None,space,1,0.3088797000236809,743.3391969001386,None,743.3391969001386,None,743.3391969001386,None,,,,,,,,,,,P010,fencog,2,Pre,2021_Sep_06_1031,Go No-Go Task,2021.1.4,120.33303360607265,
,"Rule: When you see blue image, do not press 'spacebar'.",Images/Happy/AM03_HO.jpg,Happy,Yellow,Images/Yellow.jpg,space,ParentConditions/YellowBlueBlue_v2.xlsx,BlueBlueYellow,Conditions/Version_2/BlueFearStop.xlsx,no,PASS,0.027367773514368476,,,,,,,,,0,0,0,0,0,1,1,1,0,36,36,36,,,,,,,,,,,,,,,,,,,,,,,,,,,,,,,,,,,,,,,,,,,,,,,,,,,,,,,,,,,,,,,,,,,,,,,,,,,,,,,1.94,743.7383839001413,None,None,0,,745.7800954999402,None,745.7800954999402,None,745.7800954999402,None,,,,,,,,,,,P010,fencog,2,Pre,2021_Sep_06_1031,Go No-Go Task,2021.1.4,120.33303360607265,
,"Rule: When you see blue image, do not press 'spacebar'.",Images/Happy/AF25HAS.jpg,Happy,Yellow,Images/Yellow.jpg,space,ParentConditions/YellowBlueBlue_v2.xlsx,BlueBlueYellow,Conditions/Version_2/BlueFearStop.xlsx,no,PASS,0.04870321560414337,,,,,,,,,0,0,0,0,0,1,1,1,0,37,37,37,,,,,,,,,,,,,,,,,,,,,,,,,,,,,,,,,,,,,,,,,,,,,,,,,,,,,,,,,,,,,,,,,,,,,,,,,,,,,,,1.69,746.1924149000552,None,None,0,,747.9878010000102,None,747.9878010000102,None,747.9878010000102,None,,,,,,,,,,,P010,fencog,2,Pre,2021_Sep_06_1031,Go No-Go Task,2021.1.4,120.33303360607265,
,"Rule: When you see blue image, do not press 'spacebar'.",Images/Happy/BM08_HO.jpg,Happy,Yellow,Images/Yellow.jpg,space,ParentConditions/YellowBlueBlue_v2.xlsx,BlueBlueYellow,Conditions/Version_2/BlueFearStop.xlsx,no,PASS,0.026169495354104844,,,,,,,,,0,0,0,0,0,1,1,1,0,38,38,38,,,,,,,,,,,,,,,,,,,,,,,,,,,,,,,,,,,,,,,,,,,,,,,,,,,,,,,,,,,,,,,,,,,,,,,,,,,,,,,1.8,748.3866713000461,None,space,1,0.3291259999386966,750.2870644000359,None,750.2870644000359,None,750.2870644000359,None,,,,,,,,,,,P010,fencog,2,Pre,2021_Sep_06_1031,Go No-Go Task,2021.1.4,120.33303360607265,
,"Rule: When you see blue image, do not press 'spacebar'.",Images/Happy/AF32HAS.jpg,Happy,Yellow,Images/Yellow.jpg,space,ParentConditions/YellowBlueBlue_v2.xlsx,BlueBlueYellow,Conditions/Version_2/BlueFearStop.xlsx,no,PASS,0.007662007482450273,,,,,,,,,0,0,0,0,0,1,1,1,0,39,39,39,,,,,,,,,,,,,,,,,,,,,,,,,,,,,,,,,,,,,,,,,,,,,,,,,,,,,,,,,,,,,,,,,,,,,,,,,,,,,,,1.47,750.692084700102,None,None,0,,752.2697885001544,None,752.2697885001544,None,752.2697885001544,None,,,,,,,,,,,P010,fencog,2,Pre,2021_Sep_06_1031,Go No-Go Task,2021.1.4,120.33303360607265,
,"Rule: When you see blue image, do not press 'spacebar'.",Images/Happy/AF23HAS.jpg,Happy,Yellow,Images/Yellow.jpg,space,ParentConditions/YellowBlueBlue_v2.xlsx,BlueBlueYellow,Conditions/Version_2/BlueFearStop.xlsx,no,PASS,0.13322659163638806,,,,,,,,,0,0,0,0,0,1,1,1,0,40,40,40,,,,,,,,,,,,,,,,,,,,,,,,,,,,,,,,,,,,,,,,,,,,,,,,,,,,,,,,,,,,,,,,,,,,,,,,,,,,,,,1.28,752.6688759999815,None,space,1,0.35716899996623397,754.0526024999563,None,754.0526024999563,None,754.0526024999563,None,,,,,,,,,,,P010,fencog,2,Pre,2021_Sep_06_1031,Go No-Go Task,2021.1.4,120.33303360607265,
,"Rule: When you see blue image, do not press 'spacebar'.",Images/Happy/AM32HAS.jpg,Happy,Yellow,Images/Yellow.jpg,space,ParentConditions/YellowBlueBlue_v2.xlsx,BlueBlueYellow,Conditions/Version_2/BlueFearStop.xlsx,no,PASS,0.18790539518346805,,,,,,,,,0,0,0,0,0,1,1,1,0,41,41,41,,,,,,,,,,,,,,,,,,,,,,,,,,,,,,,,,,,,,,,,,,,,,,,,,,,,,,,,,,,,,,,,,,,,,,,,,,,,,,,1.56,754.4525554000866,None,space,1,0.3533680001273751,756.1186571000144,None,756.1186571000144,None,756.1186571000144,None,,,,,,,,,,,P010,fencog,2,Pre,2021_Sep_06_1031,Go No-Go Task,2021.1.4,120.33303360607265,
,"Rule: When you see blue image, do not press 'spacebar'.",Images/Fearful/AM30AFS.jpg,Fear,Blue,Images/Blue.jpg,None,ParentConditions/YellowBlueBlue_v2.xlsx,BlueBlueYellow,Conditions/Version_2/BlueFearStop.xlsx,yes,PASS,0.3894428318578558,,,,,,,,,0,0,0,0,0,1,1,1,0,42,42,42,,,,,,,,,,,,,,,,,,,,,,,,,,,,,,,,,,,,,,,,,,,,,,,,,,,,,,,,,,,,,,,,,,,,,,,,,,,,,,,1.51,756.5292207000311,None,None,1,,758.1430351000745,None,758.1430351000745,None,758.1430351000745,None,,,,,,,,,,,P010,fencog,2,Pre,2021_Sep_06_1031,Go No-Go Task,2021.1.4,120.33303360607265,
,"Rule: When you see blue image, do not press 'spacebar'.",Images/Happy/BM02_HO.jpg,Happy,Yellow,Images/Yellow.jpg,space,ParentConditions/YellowBlueBlue_v2.xlsx,BlueBlueYellow,Conditions/Version_2/BlueFearStop.xlsx,no,PASS,0.8000984906086622,,,,,,,,,0,0,0,0,0,1,1,1,0,43,43,43,,,,,,,,,,,,,,,,,,,,,,,,,,,,,,,,,,,,,,,,,,,,,,,,,,,,,,,,,,,,,,,,,,,,,,,,,,,,,,,1.79,758.5531456000172,None,space,1,0.29301020014099777,760.4508102000691,None,760.4508102000691,None,760.4508102000691,None,,,,,,,,,,,P010,fencog,2,Pre,2021_Sep_06_1031,Go No-Go Task,2021.1.4,120.33303360607265,
,"Rule: When you see blue image, do not press 'spacebar'.",Images/Happy/AM10_HO.jpg,Happy,Yellow,Images/Yellow.jpg,space,ParentConditions/YellowBlueBlue_v2.xlsx,BlueBlueYellow,Conditions/Version_2/BlueFearStop.xlsx,no,PASS,0.5717939201397183,,,,,,,,,0,0,0,0,0,1,1,1,0,44,44,44,,,,,,,,,,,,,,,,,,,,,,,,,,,,,,,,,,,,,,,,,,,,,,,,,,,,,,,,,,,,,,,,,,,,,,,,,,,,,,,1.7,760.8500676001422,None,space,1,0.3581634000875056,762.6502406001091,None,762.6502406001091,None,762.6502406001091,None,,,,,,,,,,,P010,fencog,2,Pre,2021_Sep_06_1031,Go No-Go Task,2021.1.4,120.33303360607265,
,"Rule: When you see blue image, do not press 'spacebar'.",Images/Fearful/AM10_FO.jpg,Fear,Blue,Images/Blue.jpg,None,ParentConditions/YellowBlueBlue_v2.xlsx,BlueBlueYellow,Conditions/Version_2/BlueFearStop.xlsx,yes,PASS,0.5269701617606191,,,,,,,,,0,0,0,0,0,1,1,1,0,45,45,45,,,,,,,,,,,,,,,,,,,,,,,,,,,,,,,,,,,,,,,,,,,,,,,,,,,,,,,,,,,,,,,,,,,,,,,,,,,,,,,1.81,763.0556574999355,None,None,1,,764.9661358001176,None,764.9661358001176,None,764.9661358001176,None,,,,,,,,,,,P010,fencog,2,Pre,2021_Sep_06_1031,Go No-Go Task,2021.1.4,120.33303360607265,
,"Rule: When you see blue image, do not press 'spacebar'.",Images/Happy/AF19HAS.jpg,Happy,Yellow,Images/Yellow.jpg,space,ParentConditions/YellowBlueBlue_v2.xlsx,BlueBlueYellow,Conditions/Version_2/BlueFearStop.xlsx,no,PASS,0.6170839926730745,,,,,,,,,0,0,0,0,0,1,1,1,0,46,46,46,,,,,,,,,,,,,,,,,,,,,,,,,,,,,,,,,,,,,,,,,,,,,,,,,,,,,,,,,,,,,,,,,,,,,,,,,,,,,,,1.74,765.3734912001528,None,space,1,0.2888187998905778,767.2153833999764,None,767.2153833999764,None,767.2153833999764,None,,,,,,,,,,,P010,fencog,2,Pre,2021_Sep_06_1031,Go No-Go Task,2021.1.4,120.33303360607265,
,"Rule: When you see blue image, do not press 'spacebar'.",Images/Fearful/HF09_FC.jpg,Fear,Blue,Images/Blue.jpg,None,ParentConditions/YellowBlueBlue_v2.xlsx,BlueBlueYellow,Conditions/Version_2/BlueFearStop.xlsx,yes,PASS,0.03424286048079783,,,,,,,,,0,0,0,0,0,1,1,1,0,47,47,47,,,,,,,,,,,,,,,,,,,,,,,,,,,,,,,,,,,,,,,,,,,,,,,,,,,,,,,,,,,,,,,,,,,,,,,,,,,,,,,1.4,767.6171079999767,None,None,1,,769.1230844999664,None,769.1230844999664,None,769.1230844999664,None,,,,,,,,,,,P010,fencog,2,Pre,2021_Sep_06_1031,Go No-Go Task,2021.1.4,120.33303360607265,
,"Rule: When you see blue image, do not press 'spacebar'.",Images/Fearful/AM22AFS.jpg,Fear,Blue,Images/Blue.jpg,None,ParentConditions/YellowBlueBlue_v2.xlsx,BlueBlueYellow,Conditions/Version_2/BlueFearStop.xlsx,yes,PASS,0.9945919074829972,,,,,,,,,0,0,0,0,0,1,1,1,0,48,48,48,,,,,,,,,,,,,,,,,,,,,,,,,,,,,,,,,,,,,,,,,,,,,,,,,,,,,,,,,,,,,,,,,,,,,,,,,,,,,,,1.67,769.5238550000358,None,None,1,,771.2975320999976,None,771.2975320999976,None,771.2975320999976,None,,,,,,,,,,,P010,fencog,2,Pre,2021_Sep_06_1031,Go No-Go Task,2021.1.4,120.33303360607265,
,"Rule: When you see blue image, do not press 'spacebar'.",Images/Happy/AM06_HC.jpg,Happy,Yellow,Images/Yellow.jpg,space,ParentConditions/YellowBlueBlue_v2.xlsx,BlueBlueYellow,Conditions/Version_2/BlueFearStop.xlsx,no,PASS,0.15639026645094434,,,,,,,,,0,0,0,0,0,1,1,1,0,49,49,49,,,,,,,,,,,,,,,,,,,,,,,,,,,,,,,,,,,,,,,,,,,,,,,,,,,,,,,,,,,,,,,,,,,,,,,,,,,,,,,1.42,771.7064720999915,None,space,1,0.29792860010638833,773.2221409999765,None,773.2221409999765,None,773.2221409999765,None,,,,,,,,,,,P010,fencog,2,Pre,2021_Sep_06_1031,Go No-Go Task,2021.1.4,120.33303360607265,
,"Rule: When you see blue image, do not press 'spacebar'.",Images/Fearful/AM32AFS.jpg,Fear,Blue,Images/Blue.jpg,None,ParentConditions/YellowBlueBlue_v2.xlsx,BlueBlueYellow,Conditions/Version_2/BlueFearStop.xlsx,yes,PASS,0.6879520753296126,,,,,,,,,0,0,0,0,0,1,1,1,0,50,50,50,,,,,,,,,,,,,,,,,,,,,,,,,,,,,,,,,,,,,,,,,,,,,,,,,,,,,,,,,,,,,,,,,,,,,,,,,,,,,,,1.36,773.6222814000212,None,None,1,,775.0881652000826,None,775.0881652000826,None,775.0881652000826,None,,,,,,,,,,,P010,fencog,2,Pre,2021_Sep_06_1031,Go No-Go Task,2021.1.4,120.33303360607265,
,"Rule: When you see blue image, do not press 'spacebar'.",Images/Happy/WF11_HE.jpg,Happy,Yellow,Images/Yellow.jpg,space,ParentConditions/YellowBlueBlue_v2.xlsx,BlueBlueYellow,Conditions/Version_2/BlueFearStop.xlsx,no,PASS,0.0583479260669304,,,,,,,,,0,0,0,0,0,1,1,1,0,51,51,51,,,,,,,,,,,,,,,,,,,,,,,,,,,,,,,,,,,,,,,,,,,,,,,,,,,,,,,,,,,,,,,,,,,,,,,,,,,,,,,1.34,775.4892319000792,None,space,1,0.27906530001200736,776.9291932000779,None,776.9291932000779,None,776.9291932000779,None,,,,,,,,,,,P010,fencog,2,Pre,2021_Sep_06_1031,Go No-Go Task,2021.1.4,120.33303360607265,
,"Rule: When you see blue image, do not press 'spacebar'.",Images/Fearful/AF28AFS.jpg,Fear,Blue,Images/Blue.jpg,None,ParentConditions/YellowBlueBlue_v2.xlsx,BlueBlueYellow,Conditions/Version_2/BlueFearStop.xlsx,yes,PASS,0.84152709172785,,,,,,,,,0,0,0,0,0,1,1,1,0,52,52,52,,,,,,,,,,,,,,,,,,,,,,,,,,,,,,,,,,,,,,,,,,,,,,,,,,,,,,,,,,,,,,,,,,,,,,,,,,,,,,,1.98,777.3317631999962,None,None,1,,779.4117737000342,None,779.4117737000342,None,779.4117737000342,None,,,,,,,,,,,P010,fencog,2,Pre,2021_Sep_06_1031,Go No-Go Task,2021.1.4,120.33303360607265,
,"Rule: When you see blue image, do not press 'spacebar'.",Images/Happy/HF04_HE.jpg,Happy,Yellow,Images/Yellow.jpg,space,ParentConditions/YellowBlueBlue_v2.xlsx,BlueBlueYellow,Conditions/Version_2/BlueFearStop.xlsx,no,PASS,0.4119172299729392,,,,,,,,,0,0,0,0,0,1,1,1,0,53,53,53,,,,,,,,,,,,,,,,,,,,,,,,,,,,,,,,,,,,,,,,,,,,,,,,,,,,,,,,,,,,,,,,,,,,,,,,,,,,,,,1.26,779.8117351999972,None,space,1,0.33486309996806085,781.1779744999949,None,781.1779744999949,None,781.1779744999949,None,,,,,,,,,,,P010,fencog,2,Pre,2021_Sep_06_1031,Go No-Go Task,2021.1.4,120.33303360607265,
,"Rule: When you see blue image, do not press 'spacebar'.",Images/Happy/AM13HAS.jpg,Happy,Yellow,Images/Yellow.jpg,space,ParentConditions/YellowBlueBlue_v2.xlsx,BlueBlueYellow,Conditions/Version_2/BlueFearStop.xlsx,no,PASS,0.1481016084905541,,,,,,,,,0,0,0,0,0,1,1,1,0,54,54,54,,,,,,,,,,,,,,,,,,,,,,,,,,,,,,,,,,,,,,,,,,,,,,,,,,,,,,,,,,,,,,,,,,,,,,,,,,,,,,,1.22,781.5775147001259,None,space,1,0.3779855999164283,782.9024414999876,None,782.9024414999876,None,782.9024414999876,None,,,,,,,,,,,P010,fencog,2,Pre,2021_Sep_06_1031,Go No-Go Task,2021.1.4,120.33303360607265,
,"Rule: When you see blue image, do not press 'spacebar'.",Images/Happy/HF10_HE.jpg,Happy,Yellow,Images/Yellow.jpg,space,ParentConditions/YellowBlueBlue_v2.xlsx,BlueBlueYellow,Conditions/Version_2/BlueFearStop.xlsx,no,PASS,0.04388835754455167,,,,,,,,,0,0,0,0,0,1,1,1,0,55,55,55,,,,,,,,,,,,,,,,,,,,,,,,,,,,,,,,,,,,,,,,,,,,,,,,,,,,,,,,,,,,,,,,,,,,,,,,,,,,,,,1.97,783.3015145000536,None,space,1,0.34337520017288625,785.3767846000846,None,785.3767846000846,None,785.3767846000846,None,,,,,,,,,,,P010,fencog,2,Pre,2021_Sep_06_1031,Go No-Go Task,2021.1.4,120.33303360607265,
,"Rule: When you see blue image, do not press 'spacebar'.",Images/Happy/AM04_HE.jpg,Happy,Yellow,Images/Yellow.jpg,space,ParentConditions/YellowBlueBlue_v2.xlsx,BlueBlueYellow,Conditions/Version_2/BlueFearStop.xlsx,no,PASS,0.8425689490019698,,,,,,,,,0,0,0,0,0,1,1,1,0,56,56,56,,,,,,,,,,,,,,,,,,,,,,,,,,,,,,,,,,,,,,,,,,,,,,,,,,,,,,,,,,,,,,,,,,,,,,,,,,,,,,,1.84,785.7842433999758,None,space,1,0.3463538000360131,787.7260984999593,None,787.7260984999593,None,787.7260984999593,None,,,,,,,,,,,P010,fencog,2,Pre,2021_Sep_06_1031,Go No-Go Task,2021.1.4,120.33303360607265,
,"Rule: When you see blue image, do not press 'spacebar'.",Images/Happy/WF04_HC.jpg,Happy,Yellow,Images/Yellow.jpg,space,ParentConditions/YellowBlueBlue_v2.xlsx,BlueBlueYellow,Conditions/Version_2/BlueFearStop.xlsx,no,PASS,0.9132846307792184,,,,,,,,,0,0,0,0,0,1,1,1,0,57,57,57,,,,,,,,,,,,,,,,,,,,,,,,,,,,,,,,,,,,,,,,,,,,,,,,,,,,,,,,,,,,,,,,,,,,,,,,,,,,,,,1.9,788.1250334000215,None,space,1,0.3385766001883894,790.1253335999791,None,790.1253335999791,None,790.1253335999791,None,,,,,,,,,,,P010,fencog,2,Pre,2021_Sep_06_1031,Go No-Go Task,2021.1.4,120.33303360607265,
