CondFileP,Instructions,FaceE,Express,ColourT,ColourF,CorrectAnsP,MasterCondFile,BlockOrder,CondFile,ColCheck,Triplicate_check,SORT_BY_SMALLEST,EPracticeOuterLoop.thisRepN,EPracticeOuterLoop.thisTrialN,EPracticeOuterLoop.thisN,EPracticeOuterLoop.thisIndex,EPracticeInnerLoop.thisRepN,EPracticeInnerLoop.thisTrialN,EPracticeInnerLoop.thisN,EPracticeInnerLoop.thisIndex,MasterLoop.thisRepN,MasterLoop.thisTrialN,MasterLoop.thisN,MasterLoop.thisIndex,OuterLoop.thisRepN,OuterLoop.thisTrialN,OuterLoop.thisN,OuterLoop.thisIndex,InnerLoop.thisRepN,InnerLoop.thisTrialN,InnerLoop.thisN,InnerLoop.thisIndex,text_13.started,text_13.stopped,key_resp_10.keys,key_resp_10.rt,key_resp_10.started,key_resp_10.stopped,text4.started,text4.stopped,EmotionTaskInstructions1.keys,EmotionTaskInstructions1.rt,EmotionTaskInstructions1.started,EmotionTaskInstructions1.stopped,text_4.started,text_4.stopped,key_resp_5.keys,key_resp_5.rt,key_resp_5.started,key_resp_5.stopped,Text_14.started,Text_14.stopped,key_resp_9.keys,key_resp_9.rt,key_resp_9.started,key_resp_9.stopped,text_5.started,text_5.stopped,text_6.started,text_6.stopped,key_resp_7.keys,key_resp_7.rt,key_resp_7.started,key_resp_7.stopped,text_10.started,text_10.stopped,text_11.started,text_11.stopped,text_12.started,text_12.stopped,ISIjitterPractice,EPracticeISIMarker.started,EPracticeISIMarker.stopped,Pract.keys,Pract.corr,Pract.started,Pract.stopped,PracticeFace.started,PracticeFace.stopped,ColourPractice.started,ColourPractice.stopped,text_7.started,text_7.stopped,Pract.rt,EndOfPractice.started,EndOfPractice.stopped,key_resp_8.keys,key_resp_8.rt,key_resp_8.started,key_resp_8.stopped,text_8.started,text_8.stopped,key_resp_6.keys,key_resp_6.rt,key_resp_6.started,key_resp_6.stopped,text_2.started,text_2.stopped,text_3.started,text_3.stopped,key_resp_3.keys,key_resp_3.rt,key_resp_3.started,key_resp_3.stopped,TaskBlock.started,TaskBlock.stopped,BlockNo1.started,BlockNo1.stopped,OfBlock.started,OfBlock.stopped,ISIjitter,ISImarker.started,ISImarker.stopped,key_resp.keys,key_resp.corr,key_resp.rt,key_resp.started,key_resp.stopped,FaceSet.started,FaceSet.stopped,Colour.started,Colour.stopped,EndBlockText.started,EndBlockText.stopped,key_resp_4.keys,key_resp_4.rt,key_resp_4.started,key_resp_4.stopped,BreakText2.started,BreakText2.stopped,PressToContinue.started,PressToContinue.stopped,participant,Study Name,Task Version (required to run),PRE/POST,date,expName,psychopyVersion,frameRate,
,,,,,,,,,,,,,,,,,,,,,,,,,,,,,,,,,28.77376289991662,None,space,4.0279334001243114,29.761467200005427,None,,,,,,,,,,,,,,,,,,,,,,,,,,,,,,,,,,,,,,,,,,,,,,,,,,,,,,,,,,,,,,,,,,,,,,,,,,,,,,,,,,,,,,,,,,,,,,,P011,fencog,2,Pre,2021_Sep_07_1113,Go No-Go Task,2021.1.4,119.99860806142595,
,,,,,,,,,,,,,,,,,,,,,,,,,,,,,,,,,,,,,,,35.300175899872556,None,space,-0.4615877000615001,35.300175899872556,None,,,,,,,,,,,,,,,,,,,,,,,,,,,,,,,,,,,,,,,,,,,,,,,,,,,,,,,,,,,,,,,,,,,,,,,,,,,,,,,,,,,,,,,,,P011,fencog,2,Pre,2021_Sep_07_1113,Go No-Go Task,2021.1.4,119.99860806142595,
,,,,,,,,,,,,,,,,,,,,,,,,,,,,,,,,,,,,,,,,,,,,,35.361632799962536,None,space,48.54742050007917,35.361632799962536,None,,,,,,,,,,,,,,,,,,,,,,,,,,,,,,,,,,,,,,,,,,,,,,,,,,,,,,,,,,,,,,,,,,,,,,,,,,,,,,,,,,,P011,fencog,2,Pre,2021_Sep_07_1113,Go No-Go Task,2021.1.4,119.99860806142595,
,,,,,,,,,,,,,,,,,,,,,,,,,,,,,,,,,,,,,,,,,,,,,,,,,,,83.92190519999713,None,space,18.819148699985817,83.92190519999713,None,,,,,,,,,,,,,,,,,,,,,,,,,,,,,,,,,,,,,,,,,,,,,,,,,,,,,,,,,,,,,,,,,,,,,,,,,,,,,P011,fencog,2,Pre,2021_Sep_07_1113,Go No-Go Task,2021.1.4,119.99860806142595,
EPracticeConditions/BlueEyes.csv,"Rule: When you see a blue image, do not press 'spacebar'.",Images/Happy/HF05_HO.jpg,Happy,Yellow,Images/Yellow.jpg,space,,,,,,,0,0,0,0,0,0,0,5,,,,,,,,,,,,,,,,,,,,,,,,,,,,,,,,,,,,,102.81223000003956,None,105.79755919985473,None,space,21.263343899976462,105.79755919985473,None,102.81223000003956,None,102.81223000003956,None,102.81223000003956,None,1.3,127.16877119988203,None,None,0,128.62838899996132,None,128.62838899996132,None,128.62838899996132,None,130.17112059984356,None,,,,,,,,,,,,,,,,,,,,,,,,,,,,,,,,,,,,,,,,,,,,,,,,,,P011,fencog,2,Pre,2021_Sep_07_1113,Go No-Go Task,2021.1.4,119.99860806142595,
EPracticeConditions/BlueEyes.csv,"Rule: When you see a blue image, do not press 'spacebar'.",Images/Happy/BM08_HO.jpg,Happy,Yellow,Images/Yellow.jpg,space,,,,,,,0,0,0,0,0,1,1,3,,,,,,,,,,,,,,,,,,,,,,,,,,,,,,,,,,,,,,,,,,,,,,,,,,,1.9,131.51309360004961,None,None,0,133.53168759983964,None,133.53168759983964,None,133.53168759983964,None,134.43437079992145,None,,,,,,,,,,,,,,,,,,,,,,,,,,,,,,,,,,,,,,,,,,,,,,,,,,P011,fencog,2,Pre,2021_Sep_07_1113,Go No-Go Task,2021.1.4,119.99860806142595,
EPracticeConditions/BlueEyes.csv,"Rule: When you see a blue image, do not press 'spacebar'.",Images/Happy/HF09_HE.jpg,Happy,Yellow,Images/Yellow.jpg,space,,,,,,,0,0,0,0,0,2,2,6,,,,,,,,,,,,,,,,,,,,,,,,,,,,,,,,,,,,,,,,,,,,,,,,,,,1.7,136.42991709988564,None,space,1,138.2301002999302,None,138.2301002999302,None,138.2301002999302,None,139.13747439999133,None,0.29490000009536743,,,,,,,,,,,,,,,,,,,,,,,,,,,,,,,,,,,,,,,,,,,,,,,,,P011,fencog,2,Pre,2021_Sep_07_1113,Go No-Go Task,2021.1.4,119.99860806142595,
EPracticeConditions/BlueEyes.csv,"Rule: When you see a blue image, do not press 'spacebar'.",Images/Happy/HF10_HE.jpg,Happy,Yellow,Images/Yellow.jpg,space,,,,,,,0,0,0,0,0,3,3,7,,,,,,,,,,,,,,,,,,,,,,,,,,,,,,,,,,,,,,,,,,,,,,,,,,,1.2,141.1368896998465,None,space,1,142.4372704999987,None,142.4372704999987,None,142.4372704999987,None,143.3328865999356,None,0.30399199994280934,,,,,,,,,,,,,,,,,,,,,,,,,,,,,,,,,,,,,,,,,,,,,,,,,P011,fencog,2,Pre,2021_Sep_07_1113,Go No-Go Task,2021.1.4,119.99860806142595,
EPracticeConditions/BlueEyes.csv,"Rule: When you see a blue image, do not press 'spacebar'.",Images/Happy/HF04_HE.jpg,Happy,Yellow,Images/Yellow.jpg,space,,,,,,,0,0,0,0,0,4,4,4,,,,,,,,,,,,,,,,,,,,,,,,,,,,,,,,,,,,,,,,,,,,,,,,,,,1.8,145.34388979990035,None,None,0,147.25252950005233,None,147.25252950005233,None,147.25252950005233,None,148.15003479993902,None,,,,,,,,,,,,,,,,,,,,,,,,,,,,,,,,,,,,,,,,,,,,,,,,,,P011,fencog,2,Pre,2021_Sep_07_1113,Go No-Go Task,2021.1.4,119.99860806142595,
EPracticeConditions/BlueEyes.csv,"Rule: When you see a blue image, do not press 'spacebar'.",Images/Happy/BM02_HO.jpg,Happy,Yellow,Images/Yellow.jpg,space,,,,,,,0,0,0,0,0,5,5,2,,,,,,,,,,,,,,,,,,,,,,,,,,,,,,,,,,,,,,,,,,,,,,,,,,,1.6,150.15255820006132,None,space,1,151.85121649992652,None,151.85121649992652,None,151.85121649992652,None,152.74405870004557,None,0.2657571998424828,,,,,,,,,,,,,,,,,,,,,,,,,,,,,,,,,,,,,,,,,,,,,,,,,P011,fencog,2,Pre,2021_Sep_07_1113,Go No-Go Task,2021.1.4,119.99860806142595,
EPracticeConditions/BlueEyes.csv,"Rule: When you see a blue image, do not press 'spacebar'.",Images/Fearful/HM09_FC.jpg,Fear,Blue,Images/Blue.jpg,None,,,,,,,0,0,0,0,0,6,6,0,,,,,,,,,,,,,,,,,,,,,,,,,,,,,,,,,,,,,,,,,,,,,,,,,,,1.4,154.75021540001035,None,space,0,156.25819419999607,None,156.25819419999607,None,156.25819419999607,None,157.16398089984432,None,0.24290239997208118,,,,,,,,,,,,,,,,,,,,,,,,,,,,,,,,,,,,,,,,,,,,,,,,,P011,fencog,2,Pre,2021_Sep_07_1113,Go No-Go Task,2021.1.4,119.99860806142595,
EPracticeConditions/BlueEyes.csv,"Rule: When you see a blue image, do not press 'spacebar'.",Images/Fearful/AF01_FO.jpg,Fear,Blue,Images/Blue.jpg,None,,,,,,,0,0,0,0,0,7,7,1,,,,,,,,,,,,,,,,,,,,,,,,,,,,,,,,,,,,,,,,,,,,,,,,,,,1.5,159.16639609984122,None,None,1,160.77350150002167,None,160.77350150002167,None,160.77350150002167,None,161.67630739999004,None,,,,,,,,,,,,,,,,,,,,,,,,,,,,,,,,,,,,,,,,,,,,,,,,,,P011,fencog,2,Pre,2021_Sep_07_1113,Go No-Go Task,2021.1.4,119.99860806142595,
EPracticeConditions/BlueEyes.csv,"Rule: When you see a blue image, do not press 'spacebar'.",,,,,,,,,,,,0,0,0,0,,,,,,,,,,,,,,,,,,,,,,,,,,,,,,,,,,,,,,,,,,,,,,,,,,,,,,,,,,,,,,,,,,,,,,,,,,,,,,,,,,,,,,,,,,,,,,,,,,,,,,,,,,,,,,,,,,,,,P011,fencog,2,Pre,2021_Sep_07_1113,Go No-Go Task,2021.1.4,119.99860806142595,
EPracticeConditions/YellowEyes.csv,"Rule: When you see a yellow image, do not press 'spacebar'.",Images/Fearful/AM22AFS.jpg,Fear,Blue,Images/Blue.jpg,space,,,,,,,0,1,1,1,0,0,0,5,,,,,,,,,,,,,,,,,,,,,,,,,,,,,,,,,,,,,163.70006459997967,None,166.6878163998481,None,space,2.5013078001793474,166.6878163998481,None,163.70006459997967,None,163.70006459997967,None,163.70006459997967,None,1.3,169.21239729993977,None,None,0,170.62059499998577,None,170.62059499998577,None,170.62059499998577,None,171.53560689999722,None,,,,,,,,,,,,,,,,,,,,,,,,,,,,,,,,,,,,,,,,,,,,,,,,,,P011,fencog,2,Pre,2021_Sep_07_1113,Go No-Go Task,2021.1.4,119.99860806142595,
EPracticeConditions/YellowEyes.csv,"Rule: When you see a yellow image, do not press 'spacebar'.",Images/Happy/AM32HAS.jpg,Happy,Yellow,Images/Yellow.jpg,None,,,,,,,0,1,1,1,0,1,1,0,,,,,,,,,,,,,,,,,,,,,,,,,,,,,,,,,,,,,,,,,,,,,,,,,,,1.8,173.52692830003798,None,None,1,175.41925460007042,None,175.41925460007042,None,175.41925460007042,None,176.32048840005882,None,,,,,,,,,,,,,,,,,,,,,,,,,,,,,,,,,,,,,,,,,,,,,,,,,,P011,fencog,2,Pre,2021_Sep_07_1113,Go No-Go Task,2021.1.4,119.99860806142595,
EPracticeConditions/YellowEyes.csv,"Rule: When you see a yellow image, do not press 'spacebar'.",Images/Fearful/AM16AFS.jpg,Fear,Blue,Images/Blue.jpg,space,,,,,,,0,1,1,1,0,2,2,2,,,,,,,,,,,,,,,,,,,,,,,,,,,,,,,,,,,,,,,,,,,,,,,,,,,1.6,178.32792879990302,None,space,1,180.0346212000586,None,180.0346212000586,None,180.0346212000586,None,180.93061190005392,None,0.3471507001668215,,,,,,,,,,,,,,,,,,,,,,,,,,,,,,,,,,,,,,,,,,,,,,,,,P011,fencog,2,Pre,2021_Sep_07_1113,Go No-Go Task,2021.1.4,119.99860806142595,
EPracticeConditions/YellowEyes.csv,"Rule: When you see a yellow image, do not press 'spacebar'.",Images/Fearful/AM24AFS.jpg,Fear,Blue,Images/Blue.jpg,space,,,,,,,0,1,1,1,0,3,3,7,,,,,,,,,,,,,,,,,,,,,,,,,,,,,,,,,,,,,,,,,,,,,,,,,,,1.2,182.93626779993065,None,None,0,184.241643599933,None,184.241643599933,None,184.241643599933,None,185.14770890004002,None,,,,,,,,,,,,,,,,,,,,,,,,,,,,,,,,,,,,,,,,,,,,,,,,,,P011,fencog,2,Pre,2021_Sep_07_1113,Go No-Go Task,2021.1.4,119.99860806142595,
EPracticeConditions/YellowEyes.csv,"Rule: When you see a yellow image, do not press 'spacebar'.",Images/Fearful/AM17AFS.jpg,Fear,Blue,Images/Blue.jpg,space,,,,,,,0,1,1,1,0,4,4,3,,,,,,,,,,,,,,,,,,,,,,,,,,,,,,,,,,,,,,,,,,,,,,,,,,,1.9,187.14822499989532,None,None,0,189.14858429995365,None,189.14858429995365,None,189.14858429995365,None,190.045727299992,None,,,,,,,,,,,,,,,,,,,,,,,,,,,,,,,,,,,,,,,,,,,,,,,,,,P011,fencog,2,Pre,2021_Sep_07_1113,Go No-Go Task,2021.1.4,119.99860806142595,
EPracticeConditions/YellowEyes.csv,"Rule: When you see a yellow image, do not press 'spacebar'.",Images/Fearful/AM19AFS.jpg,Fear,Blue,Images/Blue.jpg,space,,,,,,,0,1,1,1,0,5,5,4,,,,,,,,,,,,,,,,,,,,,,,,,,,,,,,,,,,,,,,,,,,,,,,,,,,1.5,192.0468454998918,None,None,0,193.6471634998452,None,193.6471634998452,None,193.6471634998452,None,194.5377958000172,None,,,,,,,,,,,,,,,,,,,,,,,,,,,,,,,,,,,,,,,,,,,,,,,,,,P011,fencog,2,Pre,2021_Sep_07_1113,Go No-Go Task,2021.1.4,119.99860806142595,
EPracticeConditions/YellowEyes.csv,"Rule: When you see a yellow image, do not press 'spacebar'.",Images/Fearful/AM23AFS.jpg,Fear,Blue,Images/Blue.jpg,space,,,,,,,0,1,1,1,0,6,6,6,,,,,,,,,,,,,,,,,,,,,,,,,,,,,,,,,,,,,,,,,,,,,,,,,,,1.4,196.53715920005925,None,None,0,198.03762329998426,None,198.03762329998426,None,198.03762329998426,None,198.939980099909,None,,,,,,,,,,,,,,,,,,,,,,,,,,,,,,,,,,,,,,,,,,,,,,,,,,P011,fencog,2,Pre,2021_Sep_07_1113,Go No-Go Task,2021.1.4,119.99860806142595,
EPracticeConditions/YellowEyes.csv,"Rule: When you see a yellow image, do not press 'spacebar'.",Images/Happy/BF05_HO.jpg,Happy,Yellow,Images/Yellow.jpg,None,,,,,,,0,1,1,1,0,7,7,1,,,,,,,,,,,,,,,,,,,,,,,,,,,,,,,,,,,,,,,,,,,,,,,,,,,1.7,200.9440023000352,None,space,0,202.74464389984496,None,202.74464389984496,None,202.74464389984496,None,203.65023939986713,None,0.2444851000327617,,,,,,,,,,,,,,,,,,,,,,,,,,,,,,,,,,,,,,,,,,,,,,,,,P011,fencog,2,Pre,2021_Sep_07_1113,Go No-Go Task,2021.1.4,119.99860806142595,
EPracticeConditions/YellowEyes.csv,"Rule: When you see a yellow image, do not press 'spacebar'.",,,,,,,,,,,,0,1,1,1,,,,,,,,,,,,,,,,,,,,,,,,,,,,,,,,,,,,,,,,,,,,,,,,,,,,,,,,,,,,,,,,,,,,,,,,,,,,,,,,,,,,,,,,,,,,,,,,,,,,,,,,,,,,,,,,,,,,,P011,fencog,2,Pre,2021_Sep_07_1113,Go No-Go Task,2021.1.4,119.99860806142595,
EPracticeConditions/BlueScram.csv,"Rule: When you see a blue image, do not press 'spacebar'.",Images/Scram1/AM13NES.jpg,Scramble,Yellow,Images/Yellow.jpg,space,,,,,,,0,2,2,2,0,0,0,5,,,,,,,,,,,,,,,,,,,,,,,,,,,,,,,,,,,,,205.6618733999785,None,208.65046809986234,None,space,4.922580599784851,208.65046809986234,None,205.6618733999785,None,205.6618733999785,None,205.6618733999785,None,1.9,213.59028619993478,None,None,0,215.590804599924,None,215.590804599924,None,215.590804599924,None,216.4969319999218,None,,,,,,,,,,,,,,,,,,,,,,,,,,,,,,,,,,,,,,,,,,,,,,,,,,P011,fencog,2,Pre,2021_Sep_07_1113,Go No-Go Task,2021.1.4,119.99860806142595,
EPracticeConditions/BlueScram.csv,"Rule: When you see a blue image, do not press 'spacebar'.",Images/Scram1/BM08_NC.jpg,Scramble,Blue,Images/Blue.jpg,None,,,,,,,0,2,2,2,0,1,1,0,,,,,,,,,,,,,,,,,,,,,,,,,,,,,,,,,,,,,,,,,,,,,,,,,,,1.6,218.4989682000596,None,None,1,220.2059673999902,None,220.2059673999902,None,220.2059673999902,None,221.10969379986636,None,,,,,,,,,,,,,,,,,,,,,,,,,,,,,,,,,,,,,,,,,,,,,,,,,,P011,fencog,2,Pre,2021_Sep_07_1113,Go No-Go Task,2021.1.4,119.99860806142595,
EPracticeConditions/BlueScram.csv,"Rule: When you see a blue image, do not press 'spacebar'.",Images/Scram1/AM04_NC.jpg,Scramble,Yellow,Images/Yellow.jpg,space,,,,,,,0,2,2,2,0,2,2,3,,,,,,,,,,,,,,,,,,,,,,,,,,,,,,,,,,,,,,,,,,,,,,,,,,,1.2,223.11483139987104,None,space,1,224.41307989996858,None,224.41307989996858,None,224.41307989996858,None,225.308642399963,None,0.27220089989714324,,,,,,,,,,,,,,,,,,,,,,,,,,,,,,,,,,,,,,,,,,,,,,,,,P011,fencog,2,Pre,2021_Sep_07_1113,Go No-Go Task,2021.1.4,119.99860806142595,
EPracticeConditions/BlueScram.csv,"Rule: When you see a blue image, do not press 'spacebar'.",Images/Scram2/AF10_NC.jpg,Scramble,Yellow,Images/Yellow.jpg,space,,,,,,,0,2,2,2,0,3,3,2,,,,,,,,,,,,,,,,,,,,,,,,,,,,,,,,,,,,,,,,,,,,,,,,,,,1.5,227.31524179992266,None,space,1,228.9118500999175,None,228.9118500999175,None,228.9118500999175,None,229.80807440006174,None,0.3652429999783635,,,,,,,,,,,,,,,,,,,,,,,,,,,,,,,,,,,,,,,,,,,,,,,,,P011,fencog,2,Pre,2021_Sep_07_1113,Go No-Go Task,2021.1.4,119.99860806142595,
EPracticeConditions/BlueScram.csv,"Rule: When you see a blue image, do not press 'spacebar'.",Images/Scram1/BF18_NC.jpg,Scramble,Blue,Images/Blue.jpg,None,,,,,,,0,2,2,2,0,4,4,1,,,,,,,,,,,,,,,,,,,,,,,,,,,,,,,,,,,,,,,,,,,,,,,,,,,1.8,231.8113222999964,None,space,0,233.71877949987538,None,233.71877949987538,None,233.71877949987538,None,234.62358590005897,None,0.23800459993071854,,,,,,,,,,,,,,,,,,,,,,,,,,,,,,,,,,,,,,,,,,,,,,,,,P011,fencog,2,Pre,2021_Sep_07_1113,Go No-Go Task,2021.1.4,119.99860806142595,
EPracticeConditions/BlueScram.csv,"Rule: When you see a blue image, do not press 'spacebar'.",Images/Scram2/AF25NES.jpg,Scramble,Yellow,Images/Yellow.jpg,space,,,,,,,0,2,2,2,0,5,5,7,,,,,,,,,,,,,,,,,,,,,,,,,,,,,,,,,,,,,,,,,,,,,,,,,,,1.3,236.62716639996506,None,None,0,238.02582209999673,None,238.02582209999673,None,238.02582209999673,None,238.9248273000121,None,,,,,,,,,,,,,,,,,,,,,,,,,,,,,,,,,,,,,,,,,,,,,,,,,,P011,fencog,2,Pre,2021_Sep_07_1113,Go No-Go Task,2021.1.4,119.99860806142595,
EPracticeConditions/BlueScram.csv,"Rule: When you see a blue image, do not press 'spacebar'.",Images/Scram2/AM03_NC.jpg,Scramble,Yellow,Images/Yellow.jpg,space,,,,,,,0,2,2,2,0,6,6,6,,,,,,,,,,,,,,,,,,,,,,,,,,,,,,,,,,,,,,,,,,,,,,,,,,,1.7,240.9253334000241,None,space,1,242.7327048999723,None,242.7327048999723,None,242.7327048999723,None,243.63766060001217,None,0.2730425000190735,,,,,,,,,,,,,,,,,,,,,,,,,,,,,,,,,,,,,,,,,,,,,,,,,P011,fencog,2,Pre,2021_Sep_07_1113,Go No-Go Task,2021.1.4,119.99860806142595,
EPracticeConditions/BlueScram.csv,"Rule: When you see a blue image, do not press 'spacebar'.",Images/Scram1/AM03NES.jpg,Scramble,Yellow,Images/Yellow.jpg,space,,,,,,,0,2,2,2,0,7,7,4,,,,,,,,,,,,,,,,,,,,,,,,,,,,,,,,,,,,,,,,,,,,,,,,,,,1.4,245.64146639988758,None,space,1,247.14810510003008,None,247.14810510003008,None,247.14810510003008,None,248.0440219999291,None,0.3290681999642402,,,,,,,,,,,,,,,,,,,,,,,,,,,,,,,,,,,,,,,,,,,,,,,,,P011,fencog,2,Pre,2021_Sep_07_1113,Go No-Go Task,2021.1.4,119.99860806142595,
EPracticeConditions/BlueScram.csv,"Rule: When you see a blue image, do not press 'spacebar'.",,,,,,,,,,,,0,2,2,2,,,,,,,,,,,,,,,,,,,,,,,,,,,,,,,,,,,,,,,,,,,,,,,,,,,,,,,,,,,,,,,,,,,,,,,,,,,,,,,,,,,,,,,,,,,,,,,,,,,,,,,,,,,,,,,,,,,,,P011,fencog,2,Pre,2021_Sep_07_1113,Go No-Go Task,2021.1.4,119.99860806142595,
EPracticeConditions/YellowScram.csv,"Rule: When you see a yellow image, do not press 'spacebar'.",Images/Scram1/AF10_NC.jpg,Scramble,Blue,Images/Blue.jpg,space,,,,,,,0,3,3,3,0,0,0,6,,,,,,,,,,,,,,,,,,,,,,,,,,,,,,,,,,,,,250.06728599988855,None,253.05405010003597,None,space,0.5748840000014752,253.05405010003597,None,250.06728599988855,None,250.06728599988855,None,250.06728599988855,None,1.3,253.64920079987496,None,space,1,255.0624758999329,None,255.0624758999329,None,255.0624758999329,None,255.95481420005672,None,0.3352585001848638,,,,,,,,,,,,,,,,,,,,,,,,,,,,,,,,,,,,,,,,,,,,,,,,,P011,fencog,2,Pre,2021_Sep_07_1113,Go No-Go Task,2021.1.4,119.99860806142595,
EPracticeConditions/YellowScram.csv,"Rule: When you see a yellow image, do not press 'spacebar'.",Images/Scram1/AF24NES.jpg,Scramble,Blue,Images/Blue.jpg,space,,,,,,,0,3,3,3,0,1,1,7,,,,,,,,,,,,,,,,,,,,,,,,,,,,,,,,,,,,,,,,,,,,,,,,,,,1.2,257.9605306999292,None,space,1,259.26113849994726,None,259.26113849994726,None,259.26113849994726,None,260.1562590999529,None,0.33596910000778735,,,,,,,,,,,,,,,,,,,,,,,,,,,,,,,,,,,,,,,,,,,,,,,,,P011,fencog,2,Pre,2021_Sep_07_1113,Go No-Go Task,2021.1.4,119.99860806142595,
EPracticeConditions/YellowScram.csv,"Rule: When you see a yellow image, do not press 'spacebar'.",Images/Scram2/HM06_NC.jpg,Scramble,Yellow,Images/Yellow.jpg,None,,,,,,,0,3,3,3,0,2,2,0,,,,,,,,,,,,,,,,,,,,,,,,,,,,,,,,,,,,,,,,,,,,,,,,,,,1.4,262.1629548999481,None,space,0,263.6681506000459,None,263.6681506000459,None,263.6681506000459,None,264.5734359000344,None,0.2650070998352021,,,,,,,,,,,,,,,,,,,,,,,,,,,,,,,,,,,,,,,,,,,,,,,,,P011,fencog,2,Pre,2021_Sep_07_1113,Go No-Go Task,2021.1.4,119.99860806142595,
EPracticeConditions/YellowScram.csv,"Rule: When you see a yellow image, do not press 'spacebar'.",Images/Scram1/BM01_NC.jpg,Scramble,Blue,Images/Blue.jpg,space,,,,,,,0,3,3,3,0,3,3,5,,,,,,,,,,,,,,,,,,,,,,,,,,,,,,,,,,,,,,,,,,,,,,,,,,,1.9,266.57480979990214,None,space,1,268.57515940000303,None,268.57515940000303,None,268.57515940000303,None,269.4738659998402,None,0.2625325999688357,,,,,,,,,,,,,,,,,,,,,,,,,,,,,,,,,,,,,,,,,,,,,,,,,P011,fencog,2,Pre,2021_Sep_07_1113,Go No-Go Task,2021.1.4,119.99860806142595,
EPracticeConditions/YellowScram.csv,"Rule: When you see a yellow image, do not press 'spacebar'.",Images/Scram1/AF30NES.JPG,Scramble,Blue,Images/Blue.jpg,space,,,,,,,0,3,3,3,0,4,4,4,,,,,,,,,,,,,,,,,,,,,,,,,,,,,,,,,,,,,,,,,,,,,,,,,,,1.8,271.47411089995876,None,None,0,273.3819766000379,None,273.3819766000379,None,273.3819766000379,None,274.2882963998709,None,,,,,,,,,,,,,,,,,,,,,,,,,,,,,,,,,,,,,,,,,,,,,,,,,,P011,fencog,2,Pre,2021_Sep_07_1113,Go No-Go Task,2021.1.4,119.99860806142595,
EPracticeConditions/YellowScram.csv,"Rule: When you see a yellow image, do not press 'spacebar'.",Images/Scram2/AM03NES.jpg,Scramble,Yellow,Images/Yellow.jpg,None,,,,,,,0,3,3,3,0,5,5,1,,,,,,,,,,,,,,,,,,,,,,,,,,,,,,,,,,,,,,,,,,,,,,,,,,,1.7,276.29048169986345,None,None,1,278.09732010005973,None,278.09732010005973,None,278.09732010005973,None,279.0008439999074,None,,,,,,,,,,,,,,,,,,,,,,,,,,,,,,,,,,,,,,,,,,,,,,,,,,P011,fencog,2,Pre,2021_Sep_07_1113,Go No-Go Task,2021.1.4,119.99860806142595,
EPracticeConditions/YellowScram.csv,"Rule: When you see a yellow image, do not press 'spacebar'.",Images/Scram1/HF04_NC.jpg,Scramble,Blue,Images/Blue.jpg,space,,,,,,,0,3,3,3,0,6,6,2,,,,,,,,,,,,,,,,,,,,,,,,,,,,,,,,,,,,,,,,,,,,,,,,,,,1.5,281.00387059990317,None,space,1,282.60434959991835,None,282.60434959991835,None,282.60434959991835,None,283.49998479988426,None,0.32080230000428855,,,,,,,,,,,,,,,,,,,,,,,,,,,,,,,,,,,,,,,,,,,,,,,,,P011,fencog,2,Pre,2021_Sep_07_1113,Go No-Go Task,2021.1.4,119.99860806142595,
EPracticeConditions/YellowScram.csv,"Rule: When you see a yellow image, do not press 'spacebar'.",Images/Scram1/AF07NES.jpg,Scramble,Blue,Images/Blue.jpg,space,,,,,,,0,3,3,3,0,7,7,3,,,,,,,,,,,,,,,,,,,,,,,,,,,,,,,,,,,,,,,,,,,,,,,,,,,1.6,285.5027183999773,None,None,0,287.2029150999151,None,287.2029150999151,None,287.2029150999151,None,288.1048586999532,None,,,,,,,,,,,,,,,,,,,,,,,,,,,,,,,,,,,,,,,,,,,,,,,,,,P011,fencog,2,Pre,2021_Sep_07_1113,Go No-Go Task,2021.1.4,119.99860806142595,
EPracticeConditions/YellowScram.csv,"Rule: When you see a yellow image, do not press 'spacebar'.",,,,,,,,,,,,0,3,3,3,,,,,,,,,,,,,,,,,,,,,,,,,,,,,,,,,,,,,,,,,,,,,,,,,,,,,,,,,,,,,,,,,,,,,,,,,,,,,,,,,,,,,,,,,,,,,,,,,,,,,,,,,,,,,,,,,,,,,P011,fencog,2,Pre,2021_Sep_07_1113,Go No-Go Task,2021.1.4,119.99860806142595,
,,,,,,,,,,,,,,,,,,,,,,,,,,,,,,,,,,,,,,,,,,,,,,,,,,,,,,,,,,,,,,,,,,,,,,,,,,,,,,,,,,,,,291.4246567999944,None,space,7.295851800125092,291.9012334998697,None,,,,,,,,,,,,,,,,,,,,,,,,,,,,,,,,,,,,,,,,,,,P011,fencog,2,Pre,2021_Sep_07_1113,Go No-Go Task,2021.1.4,119.99860806142595,
,,,,,,,,,,,,,,,,,,,,,,,,,,,,,,,,,,,,,,,,,,,,,,,,,,,,,,,,,,,,,,,,,,,,,,,,,,,,,,,,,,,,,,,,,,,299.2108729998581,None,space,6.93022090010345,299.2108729998581,None,,,,,,,,,,,,,,,,,,,,,,,,,,,,,,,,,,,,,P011,fencog,2,Pre,2021_Sep_07_1113,Go No-Go Task,2021.1.4,119.99860806142595,
,"Rule: When you see a yellow image, do not press 'spacebar'.",Images/Fearful/BM02_FC.jpg,Fear,Blue,Images/Blue.jpg,space,ParentConditions/YellowBlueBlue_v2.xlsx,BlueBlueYellow,Conditions/Version_2/YellowHappyStop.xlsx,no,PASS,0.16858645908030467,,,,,,,,,0,0,0,0,0,0,0,0,0,0,0,0,,,,,,,,,,,,,,,,,,,,,,,,,,,,,,,,,,,,,,,,,,,,,,,,,,,,,,,,,,,,,,,,,306.21984479995444,None,309.2125309999101,None,space,3.9604354000184685,309.2125309999101,None,306.21984479995444,None,306.21984479995444,None,306.21984479995444,None,1.9,313.2285620998591,None,space,1,0.2889075998682529,315.23628939990886,None,315.23628939990886,None,315.23628939990886,None,,,,,,,,,,,P011,fencog,2,Pre,2021_Sep_07_1113,Go No-Go Task,2021.1.4,119.99860806142595,
,"Rule: When you see a yellow image, do not press 'spacebar'.",Images/Fearful/HF05_FC.jpg,Fear,Blue,Images/Blue.jpg,space,ParentConditions/YellowBlueBlue_v2.xlsx,BlueBlueYellow,Conditions/Version_2/YellowHappyStop.xlsx,no,PASS,0.9484055972569129,,,,,,,,,0,0,0,0,0,0,0,0,0,1,1,1,,,,,,,,,,,,,,,,,,,,,,,,,,,,,,,,,,,,,,,,,,,,,,,,,,,,,,,,,,,,,,,,,,,,,,,,,,,,,,,1.53,315.6405511999037,None,space,1,0.2808438998181373,317.2773651999887,None,317.2773651999887,None,317.2773651999887,None,,,,,,,,,,,P011,fencog,2,Pre,2021_Sep_07_1113,Go No-Go Task,2021.1.4,119.99860806142595,
,"Rule: When you see a yellow image, do not press 'spacebar'.",Images/Happy/AF32HAS.jpg,Happy,Yellow,Images/Yellow.jpg,None,ParentConditions/YellowBlueBlue_v2.xlsx,BlueBlueYellow,Conditions/Version_2/YellowHappyStop.xlsx,yes,PASS,0.508887905761459,,,,,,,,,0,0,0,0,0,0,0,0,0,2,2,2,,,,,,,,,,,,,,,,,,,,,,,,,,,,,,,,,,,,,,,,,,,,,,,,,,,,,,,,,,,,,,,,,,,,,,,,,,,,,,,1.66,317.6763571999036,None,space,0,0.26637049997225404,319.4434604998678,None,319.4434604998678,None,319.4434604998678,None,,,,,,,,,,,P011,fencog,2,Pre,2021_Sep_07_1113,Go No-Go Task,2021.1.4,119.99860806142595,
,"Rule: When you see a yellow image, do not press 'spacebar'.",Images/Happy/AM32HAS.jpg,Happy,Yellow,Images/Yellow.jpg,None,ParentConditions/YellowBlueBlue_v2.xlsx,BlueBlueYellow,Conditions/Version_2/YellowHappyStop.xlsx,yes,PASS,0.12877007601010582,,,,,,,,,0,0,0,0,0,0,0,0,0,3,3,3,,,,,,,,,,,,,,,,,,,,,,,,,,,,,,,,,,,,,,,,,,,,,,,,,,,,,,,,,,,,,,,,,,,,,,,,,,,,,,,1.47,319.85046139988117,None,space,0,0.13199090003035963,321.42615989991464,None,321.42615989991464,None,321.42615989991464,None,,,,,,,,,,,P011,fencog,2,Pre,2021_Sep_07_1113,Go No-Go Task,2021.1.4,119.99860806142595,
,"Rule: When you see a yellow image, do not press 'spacebar'.",Images/Fearful/AF07FS.jpg,Fear,Blue,Images/Blue.jpg,space,ParentConditions/YellowBlueBlue_v2.xlsx,BlueBlueYellow,Conditions/Version_2/YellowHappyStop.xlsx,no,PASS,0.4320382618493961,,,,,,,,,0,0,0,0,0,0,0,0,0,4,4,4,,,,,,,,,,,,,,,,,,,,,,,,,,,,,,,,,,,,,,,,,,,,,,,,,,,,,,,,,,,,,,,,,,,,,,,,,,,,,,,1.64,321.82715180004016,None,None,0,,323.5671941000037,None,323.5671941000037,None,323.5671941000037,None,,,,,,,,,,,P011,fencog,2,Pre,2021_Sep_07_1113,Go No-Go Task,2021.1.4,119.99860806142595,
,"Rule: When you see a yellow image, do not press 'spacebar'.",Images/Fearful/AM30AFS.jpg,Fear,Blue,Images/Blue.jpg,space,ParentConditions/YellowBlueBlue_v2.xlsx,BlueBlueYellow,Conditions/Version_2/YellowHappyStop.xlsx,no,PASS,0.14164593092902533,,,,,,,,,0,0,0,0,0,0,0,0,0,5,5,5,,,,,,,,,,,,,,,,,,,,,,,,,,,,,,,,,,,,,,,,,,,,,,,,,,,,,,,,,,,,,,,,,,,,,,,,,,,,,,,1.34,323.96847099997103,None,space,1,0.3487394000403583,325.408348799916,None,325.408348799916,None,325.408348799916,None,,,,,,,,,,,P011,fencog,2,Pre,2021_Sep_07_1113,Go No-Go Task,2021.1.4,119.99860806142595,
,"Rule: When you see a yellow image, do not press 'spacebar'.",Images/Happy/BM03_HO.jpg,Happy,Yellow,Images/Yellow.jpg,None,ParentConditions/YellowBlueBlue_v2.xlsx,BlueBlueYellow,Conditions/Version_2/YellowHappyStop.xlsx,yes,PASS,0.824528473694533,,,,,,,,,0,0,0,0,0,0,0,0,0,6,6,6,,,,,,,,,,,,,,,,,,,,,,,,,,,,,,,,,,,,,,,,,,,,,,,,,,,,,,,,,,,,,,,,,,,,,,,,,,,,,,,1.27,325.8088318000082,None,None,1,,327.18288239999674,None,327.18288239999674,None,327.18288239999674,None,,,,,,,,,,,P011,fencog,2,Pre,2021_Sep_07_1113,Go No-Go Task,2021.1.4,119.99860806142595,
,"Rule: When you see a yellow image, do not press 'spacebar'.",Images/Fearful/HM06_FC.jpg,Fear,Blue,Images/Blue.jpg,space,ParentConditions/YellowBlueBlue_v2.xlsx,BlueBlueYellow,Conditions/Version_2/YellowHappyStop.xlsx,no,PASS,0.06881493513979675,,,,,,,,,0,0,0,0,0,0,0,0,0,7,7,7,,,,,,,,,,,,,,,,,,,,,,,,,,,,,,,,,,,,,,,,,,,,,,,,,,,,,,,,,,,,,,,,,,,,,,,,,,,,,,,1.23,327.5836646000389,None,space,1,0.25752110010944307,328.91556009999476,None,328.91556009999476,None,328.91556009999476,None,,,,,,,,,,,P011,fencog,2,Pre,2021_Sep_07_1113,Go No-Go Task,2021.1.4,119.99860806142595,
,"Rule: When you see a yellow image, do not press 'spacebar'.",Images/Fearful/AF19AFS.jpg,Fear,Blue,Images/Blue.jpg,space,ParentConditions/YellowBlueBlue_v2.xlsx,BlueBlueYellow,Conditions/Version_2/YellowHappyStop.xlsx,no,PASS,0.6194516353064884,,,,,,,,,0,0,0,0,0,0,0,0,0,8,8,8,,,,,,,,,,,,,,,,,,,,,,,,,,,,,,,,,,,,,,,,,,,,,,,,,,,,,,,,,,,,,,,,,,,,,,,,,,,,,,,1.7,329.3225444999989,None,space,1,0.24176170001737773,331.12334619998,None,331.12334619998,None,331.12334619998,None,,,,,,,,,,,P011,fencog,2,Pre,2021_Sep_07_1113,Go No-Go Task,2021.1.4,119.99860806142595,
,"Rule: When you see a yellow image, do not press 'spacebar'.",Images/Happy/AF30HAS.jpg,Happy,Yellow,Images/Yellow.jpg,None,ParentConditions/YellowBlueBlue_v2.xlsx,BlueBlueYellow,Conditions/Version_2/YellowHappyStop.xlsx,yes,PASS,0.7783721125891628,,,,,,,,,0,0,0,0,0,0,0,0,0,9,9,9,,,,,,,,,,,,,,,,,,,,,,,,,,,,,,,,,,,,,,,,,,,,,,,,,,,,,,,,,,,,,,,,,,,,,,,,,,,,,,,1.82,331.52377339988016,None,None,1,,333.44765489990823,None,333.44765489990823,None,333.44765489990823,None,,,,,,,,,,,P011,fencog,2,Pre,2021_Sep_07_1113,Go No-Go Task,2021.1.4,119.99860806142595,
,"Rule: When you see a yellow image, do not press 'spacebar'.",Images/Fearful/AF25AFS.jpg,Fear,Blue,Images/Blue.jpg,space,ParentConditions/YellowBlueBlue_v2.xlsx,BlueBlueYellow,Conditions/Version_2/YellowHappyStop.xlsx,no,PASS,0.9528113424204139,,,,,,,,,0,0,0,0,0,0,0,0,0,10,10,10,,,,,,,,,,,,,,,,,,,,,,,,,,,,,,,,,,,,,,,,,,,,,,,,,,,,,,,,,,,,,,,,,,,,,,,,,,,,,,,1.84,333.8468372998759,None,space,1,0.2799752000719309,335.7889588000253,None,335.7889588000253,None,335.7889588000253,None,,,,,,,,,,,P011,fencog,2,Pre,2021_Sep_07_1113,Go No-Go Task,2021.1.4,119.99860806142595,
,"Rule: When you see a yellow image, do not press 'spacebar'.",Images/Fearful/AF30AFS.jpg,Fear,Blue,Images/Blue.jpg,space,ParentConditions/YellowBlueBlue_v2.xlsx,BlueBlueYellow,Conditions/Version_2/YellowHappyStop.xlsx,no,PASS,0.022094815080431318,,,,,,,,,0,0,0,0,0,0,0,0,0,11,11,11,,,,,,,,,,,,,,,,,,,,,,,,,,,,,,,,,,,,,,,,,,,,,,,,,,,,,,,,,,,,,,,,,,,,,,,,,,,,,,,1.65,336.18750400003046,None,space,1,0.26767740002833307,337.94635579991154,None,337.94635579991154,None,337.94635579991154,None,,,,,,,,,,,P011,fencog,2,Pre,2021_Sep_07_1113,Go No-Go Task,2021.1.4,119.99860806142595,
,"Rule: When you see a yellow image, do not press 'spacebar'.",Images/Happy/BF10_HO.jpg,Happy,Yellow,Images/Yellow.jpg,None,ParentConditions/YellowBlueBlue_v2.xlsx,BlueBlueYellow,Conditions/Version_2/YellowHappyStop.xlsx,yes,PASS,0.5001600173303757,,,,,,,,,0,0,0,0,0,0,0,0,0,12,12,12,,,,,,,,,,,,,,,,,,,,,,,,,,,,,,,,,,,,,,,,,,,,,,,,,,,,,,,,,,,,,,,,,,,,,,,,,,,,,,,1.89,338.34544399986044,None,space,0,0.23667860007844865,340.3372926998418,None,340.3372926998418,None,340.3372926998418,None,,,,,,,,,,,P011,fencog,2,Pre,2021_Sep_07_1113,Go No-Go Task,2021.1.4,119.99860806142595,
,"Rule: When you see a yellow image, do not press 'spacebar'.",Images/Fearful/AM06_FO.jpg,Fear,Blue,Images/Blue.jpg,space,ParentConditions/YellowBlueBlue_v2.xlsx,BlueBlueYellow,Conditions/Version_2/YellowHappyStop.xlsx,no,PASS,0.578262378462087,,,,,,,,,0,0,0,0,0,0,0,0,0,13,13,13,,,,,,,,,,,,,,,,,,,,,,,,,,,,,,,,,,,,,,,,,,,,,,,,,,,,,,,,,,,,,,,,,,,,,,,,,,,,,,,1.4,340.7423598000314,None,space,1,0.2721804999746382,342.2450184999034,None,342.2450184999034,None,342.2450184999034,None,,,,,,,,,,,P011,fencog,2,Pre,2021_Sep_07_1113,Go No-Go Task,2021.1.4,119.99860806142595,
,"Rule: When you see a yellow image, do not press 'spacebar'.",Images/Happy/AM24HAS.jpg,Happy,Yellow,Images/Yellow.jpg,None,ParentConditions/YellowBlueBlue_v2.xlsx,BlueBlueYellow,Conditions/Version_2/YellowHappyStop.xlsx,yes,PASS,0.39484184444569004,,,,,,,,,0,0,0,0,0,0,0,0,0,14,14,14,,,,,,,,,,,,,,,,,,,,,,,,,,,,,,,,,,,,,,,,,,,,,,,,,,,,,,,,,,,,,,,,,,,,,,,,,,,,,,,1.67,342.6504518999718,None,space,0,0.25708039989694953,344.42771099996753,None,344.42771099996753,None,344.42771099996753,None,,,,,,,,,,,P011,fencog,2,Pre,2021_Sep_07_1113,Go No-Go Task,2021.1.4,119.99860806142595,
,"Rule: When you see a yellow image, do not press 'spacebar'.",Images/Fearful/AF21AFS.jpg,Fear,Blue,Images/Blue.jpg,space,ParentConditions/YellowBlueBlue_v2.xlsx,BlueBlueYellow,Conditions/Version_2/YellowHappyStop.xlsx,no,PASS,0.6432231069793333,,,,,,,,,0,0,0,0,0,0,0,0,0,15,15,15,,,,,,,,,,,,,,,,,,,,,,,,,,,,,,,,,,,,,,,,,,,,,,,,,,,,,,,,,,,,,,,,,,,,,,,,,,,,,,,1.71,344.83230399992317,None,space,1,0.25759189995005727,346.6436807999853,None,346.6436807999853,None,346.6436807999853,None,,,,,,,,,,,P011,fencog,2,Pre,2021_Sep_07_1113,Go No-Go Task,2021.1.4,119.99860806142595,
,"Rule: When you see a yellow image, do not press 'spacebar'.",Images/Happy/AM06_HC.jpg,Happy,Yellow,Images/Yellow.jpg,None,ParentConditions/YellowBlueBlue_v2.xlsx,BlueBlueYellow,Conditions/Version_2/YellowHappyStop.xlsx,yes,PASS,0.7943976294198472,,,,,,,,,0,0,0,0,0,0,0,0,0,16,16,16,,,,,,,,,,,,,,,,,,,,,,,,,,,,,,,,,,,,,,,,,,,,,,,,,,,,,,,,,,,,,,,,,,,,,,,,,,,,,,,1.68,347.04403709992766,None,None,1,,348.8264526000712,None,348.8264526000712,None,348.8264526000712,None,,,,,,,,,,,P011,fencog,2,Pre,2021_Sep_07_1113,Go No-Go Task,2021.1.4,119.99860806142595,
,"Rule: When you see a yellow image, do not press 'spacebar'.",Images/Fearful/AF10_FC.jpg,Fear,Blue,Images/Blue.jpg,space,ParentConditions/YellowBlueBlue_v2.xlsx,BlueBlueYellow,Conditions/Version_2/YellowHappyStop.xlsx,no,PASS,0.4387172057805456,,,,,,,,,0,0,0,0,0,0,0,0,0,17,17,17,,,,,,,,,,,,,,,,,,,,,,,,,,,,,,,,,,,,,,,,,,,,,,,,,,,,,,,,,,,,,,,,,,,,,,,,,,,,,,,1.93,349.22721330006607,None,space,1,0.290635600220412,351.25911369989626,None,351.25911369989626,None,351.25911369989626,None,,,,,,,,,,,P011,fencog,2,Pre,2021_Sep_07_1113,Go No-Go Task,2021.1.4,119.99860806142595,
,"Rule: When you see a yellow image, do not press 'spacebar'.",Images/Fearful/BM03_FC.jpg,Fear,Blue,Images/Blue.jpg,space,ParentConditions/YellowBlueBlue_v2.xlsx,BlueBlueYellow,Conditions/Version_2/YellowHappyStop.xlsx,no,PASS,0.20170262712346598,,,,,,,,,0,0,0,0,0,0,0,0,0,18,18,18,,,,,,,,,,,,,,,,,,,,,,,,,,,,,,,,,,,,,,,,,,,,,,,,,,,,,,,,,,,,,,,,,,,,,,,,,,,,,,,1.8,351.66469989996403,None,space,1,0.2622642000205815,353.5750378998928,None,353.5750378998928,None,353.5750378998928,None,,,,,,,,,,,P011,fencog,2,Pre,2021_Sep_07_1113,Go No-Go Task,2021.1.4,119.99860806142595,
,"Rule: When you see a yellow image, do not press 'spacebar'.",Images/Fearful/HM09_FC.jpg,Fear,Blue,Images/Blue.jpg,space,ParentConditions/YellowBlueBlue_v2.xlsx,BlueBlueYellow,Conditions/Version_2/YellowHappyStop.xlsx,no,PASS,0.15976906823467862,,,,,,,,,0,0,0,0,0,0,0,0,0,19,19,19,,,,,,,,,,,,,,,,,,,,,,,,,,,,,,,,,,,,,,,,,,,,,,,,,,,,,,,,,,,,,,,,,,,,,,,,,,,,,,,1.81,353.97399079985917,None,space,1,0.33818620000965893,355.8909758999944,None,355.8909758999944,None,355.8909758999944,None,,,,,,,,,,,P011,fencog,2,Pre,2021_Sep_07_1113,Go No-Go Task,2021.1.4,119.99860806142595,
,"Rule: When you see a yellow image, do not press 'spacebar'.",Images/Fearful/AM04_FO.jpg,Fear,Blue,Images/Blue.jpg,space,ParentConditions/YellowBlueBlue_v2.xlsx,BlueBlueYellow,Conditions/Version_2/YellowHappyStop.xlsx,no,PASS,0.7842232797128176,,,,,,,,,0,0,0,0,0,0,0,0,0,20,20,20,,,,,,,,,,,,,,,,,,,,,,,,,,,,,,,,,,,,,,,,,,,,,,,,,,,,,,,,,,,,,,,,,,,,,,,,,,,,,,,1.33,356.29538849997334,None,space,1,0.3293341000098735,357.723718999885,None,357.723718999885,None,357.723718999885,None,,,,,,,,,,,P011,fencog,2,Pre,2021_Sep_07_1113,Go No-Go Task,2021.1.4,119.99860806142595,
,"Rule: When you see a yellow image, do not press 'spacebar'.",Images/Fearful/AF11AFS.jpg,Fear,Blue,Images/Blue.jpg,space,ParentConditions/YellowBlueBlue_v2.xlsx,BlueBlueYellow,Conditions/Version_2/YellowHappyStop.xlsx,no,PASS,0.5758948553509043,,,,,,,,,0,0,0,0,0,0,0,0,0,21,21,21,,,,,,,,,,,,,,,,,,,,,,,,,,,,,,,,,,,,,,,,,,,,,,,,,,,,,,,,,,,,,,,,,,,,,,,,,,,,,,,1.63,358.1236340999603,None,space,1,0.37251400016248226,359.848234300036,None,359.848234300036,None,359.848234300036,None,,,,,,,,,,,P011,fencog,2,Pre,2021_Sep_07_1113,Go No-Go Task,2021.1.4,119.99860806142595,
,"Rule: When you see a yellow image, do not press 'spacebar'.",Images/Fearful/AM10_FO.jpg,Fear,Blue,Images/Blue.jpg,space,ParentConditions/YellowBlueBlue_v2.xlsx,BlueBlueYellow,Conditions/Version_2/YellowHappyStop.xlsx,no,PASS,0.7516560744284169,,,,,,,,,0,0,0,0,0,0,0,0,0,22,22,22,,,,,,,,,,,,,,,,,,,,,,,,,,,,,,,,,,,,,,,,,,,,,,,,,,,,,,,,,,,,,,,,,,,,,,,,,,,,,,,1.95,360.24788350006565,None,space,1,0.37193910009227693,362.3057444000151,None,362.3057444000151,None,362.3057444000151,None,,,,,,,,,,,P011,fencog,2,Pre,2021_Sep_07_1113,Go No-Go Task,2021.1.4,119.99860806142595,
,"Rule: When you see a yellow image, do not press 'spacebar'.",Images/Fearful/WF04_FC.jpg,Fear,Blue,Images/Blue.jpg,space,ParentConditions/YellowBlueBlue_v2.xlsx,BlueBlueYellow,Conditions/Version_2/YellowHappyStop.xlsx,no,PASS,0.8626299251261901,,,,,,,,,0,0,0,0,0,0,0,0,0,23,23,23,,,,,,,,,,,,,,,,,,,,,,,,,,,,,,,,,,,,,,,,,,,,,,,,,,,,,,,,,,,,,,,,,,,,,,,,,,,,,,,1.78,362.7126873000525,None,space,1,0.30427880003117025,364.59681040002033,None,364.59681040002033,None,364.59681040002033,None,,,,,,,,,,,P011,fencog,2,Pre,2021_Sep_07_1113,Go No-Go Task,2021.1.4,119.99860806142595,
,"Rule: When you see a yellow image, do not press 'spacebar'.",Images/Fearful/AF28AFS.jpg,Fear,Blue,Images/Blue.jpg,space,ParentConditions/YellowBlueBlue_v2.xlsx,BlueBlueYellow,Conditions/Version_2/YellowHappyStop.xlsx,no,PASS,0.7326117629083128,,,,,,,,,0,0,0,0,0,0,0,0,0,24,24,24,,,,,,,,,,,,,,,,,,,,,,,,,,,,,,,,,,,,,,,,,,,,,,,,,,,,,,,,,,,,,,,,,,,,,,,,,,,,,,,1.99,365.00085680000484,None,None,0,,367.09604969993234,None,367.09604969993234,None,367.09604969993234,None,,,,,,,,,,,P011,fencog,2,Pre,2021_Sep_07_1113,Go No-Go Task,2021.1.4,119.99860806142595,
,"Rule: When you see a yellow image, do not press 'spacebar'.",Images/Fearful/WF11_FC.jpg,Fear,Blue,Images/Blue.jpg,space,ParentConditions/YellowBlueBlue_v2.xlsx,BlueBlueYellow,Conditions/Version_2/YellowHappyStop.xlsx,no,PASS,0.32883698788558013,,,,,,,,,0,0,0,0,0,0,0,0,0,25,25,25,,,,,,,,,,,,,,,,,,,,,,,,,,,,,,,,,,,,,,,,,,,,,,,,,,,,,,,,,,,,,,,,,,,,,,,,,,,,,,,1.92,367.49707859987393,None,space,1,0.2696370000485331,369.5202572999988,None,369.5202572999988,None,369.5202572999988,None,,,,,,,,,,,P011,fencog,2,Pre,2021_Sep_07_1113,Go No-Go Task,2021.1.4,119.99860806142595,
,"Rule: When you see a yellow image, do not press 'spacebar'.",Images/Fearful/AM17AFS.jpg,Fear,Blue,Images/Blue.jpg,space,ParentConditions/YellowBlueBlue_v2.xlsx,BlueBlueYellow,Conditions/Version_2/YellowHappyStop.xlsx,no,PASS,0.2011457593950874,,,,,,,,,0,0,0,0,0,0,0,0,0,26,26,26,,,,,,,,,,,,,,,,,,,,,,,,,,,,,,,,,,,,,,,,,,,,,,,,,,,,,,,,,,,,,,,,,,,,,,,,,,,,,,,1.5,369.91922969999723,None,space,1,0.2610736000351608,371.52805409999564,None,371.52805409999564,None,371.52805409999564,None,,,,,,,,,,,P011,fencog,2,Pre,2021_Sep_07_1113,Go No-Go Task,2021.1.4,119.99860806142595,
,"Rule: When you see a yellow image, do not press 'spacebar'.",Images/Happy/AF27HAS.jpg,Happy,Yellow,Images/Yellow.jpg,None,ParentConditions/YellowBlueBlue_v2.xlsx,BlueBlueYellow,Conditions/Version_2/YellowHappyStop.xlsx,yes,PASS,0.03113428438097654,,,,,,,,,0,0,0,0,0,0,0,0,0,27,27,27,,,,,,,,,,,,,,,,,,,,,,,,,,,,,,,,,,,,,,,,,,,,,,,,,,,,,,,,,,,,,,,,,,,,,,,,,,,,,,,1.44,371.92719219997525,None,None,1,,373.4773909000214,None,373.4773909000214,None,373.4773909000214,None,,,,,,,,,,,P011,fencog,2,Pre,2021_Sep_07_1113,Go No-Go Task,2021.1.4,119.99860806142595,
,"Rule: When you see a yellow image, do not press 'spacebar'.",Images/Fearful/BF10_FO.jpg,Fear,Blue,Images/Blue.jpg,space,ParentConditions/YellowBlueBlue_v2.xlsx,BlueBlueYellow,Conditions/Version_2/YellowHappyStop.xlsx,no,PASS,0.8821344053441019,,,,,,,,,0,0,0,0,0,0,0,0,0,28,28,28,,,,,,,,,,,,,,,,,,,,,,,,,,,,,,,,,,,,,,,,,,,,,,,,,,,,,,,,,,,,,,,,,,,,,,,,,,,,,,,1.28,373.8779599999543,None,space,1,0.2647728999145329,375.26865900005214,None,375.26865900005214,None,375.26865900005214,None,,,,,,,,,,,P011,fencog,2,Pre,2021_Sep_07_1113,Go No-Go Task,2021.1.4,119.99860806142595,
,"Rule: When you see a yellow image, do not press 'spacebar'.",Images/Fearful/HF04_FO.jpg,Fear,Blue,Images/Blue.jpg,space,ParentConditions/YellowBlueBlue_v2.xlsx,BlueBlueYellow,Conditions/Version_2/YellowHappyStop.xlsx,no,PASS,0.10236928865186712,,,,,,,,,0,0,0,0,0,0,0,0,0,29,29,29,,,,,,,,,,,,,,,,,,,,,,,,,,,,,,,,,,,,,,,,,,,,,,,,,,,,,,,,,,,,,,,,,,,,,,,,,,,,,,,1.73,375.6676812998485,None,space,1,0.27193470019847155,377.50132189993747,None,377.50132189993747,None,377.50132189993747,None,,,,,,,,,,,P011,fencog,2,Pre,2021_Sep_07_1113,Go No-Go Task,2021.1.4,119.99860806142595,
,"Rule: When you see a yellow image, do not press 'spacebar'.",Images/Happy/AF26HAS.jpg,Happy,Yellow,Images/Yellow.jpg,None,ParentConditions/YellowBlueBlue_v2.xlsx,BlueBlueYellow,Conditions/Version_2/YellowHappyStop.xlsx,yes,PASS,0.3122778532266225,,,,,,,,,0,0,0,0,0,0,0,0,0,30,30,30,,,,,,,,,,,,,,,,,,,,,,,,,,,,,,,,,,,,,,,,,,,,,,,,,,,,,,,,,,,,,,,,,,,,,,,,,,,,,,,1.45,377.900425999891,None,None,1,,379.4506798000075,None,379.4506798000075,None,379.4506798000075,None,,,,,,,,,,,P011,fencog,2,Pre,2021_Sep_07_1113,Go No-Go Task,2021.1.4,119.99860806142595,
,"Rule: When you see a yellow image, do not press 'spacebar'.",Images/Happy/HF09_HE.jpg,Happy,Yellow,Images/Yellow.jpg,None,ParentConditions/YellowBlueBlue_v2.xlsx,BlueBlueYellow,Conditions/Version_2/YellowHappyStop.xlsx,yes,PASS,0.8889954581367391,,,,,,,,,0,0,0,0,0,0,0,0,0,31,31,31,,,,,,,,,,,,,,,,,,,,,,,,,,,,,,,,,,,,,,,,,,,,,,,,,,,,,,,,,,,,,,,,,,,,,,,,,,,,,,,1.54,379.8606519000605,None,space,0,0.24014890007674694,381.51674230000935,None,381.51674230000935,None,381.51674230000935,None,,,,,,,,,,,P011,fencog,2,Pre,2021_Sep_07_1113,Go No-Go Task,2021.1.4,119.99860806142595,
,"Rule: When you see a yellow image, do not press 'spacebar'.",Images/Fearful/AM16AFS.jpg,Fear,Blue,Images/Blue.jpg,space,ParentConditions/YellowBlueBlue_v2.xlsx,BlueBlueYellow,Conditions/Version_2/YellowHappyStop.xlsx,no,PASS,0.3485636078399603,,,,,,,,,0,0,0,0,0,0,0,0,0,32,32,32,,,,,,,,,,,,,,,,,,,,,,,,,,,,,,,,,,,,,,,,,,,,,,,,,,,,,,,,,,,,,,,,,,,,,,,,,,,,,,,1.96,381.91593889985234,None,space,1,0.27127519994974136,383.98271969985217,None,383.98271969985217,None,383.98271969985217,None,,,,,,,,,,,P011,fencog,2,Pre,2021_Sep_07_1113,Go No-Go Task,2021.1.4,119.99860806142595,
,"Rule: When you see a yellow image, do not press 'spacebar'.",Images/Fearful/WF05_FO.jpg,Fear,Blue,Images/Blue.jpg,space,ParentConditions/YellowBlueBlue_v2.xlsx,BlueBlueYellow,Conditions/Version_2/YellowHappyStop.xlsx,no,PASS,0.571161037699378,,,,,,,,,0,0,0,0,0,0,0,0,0,33,33,33,,,,,,,,,,,,,,,,,,,,,,,,,,,,,,,,,,,,,,,,,,,,,,,,,,,,,,,,,,,,,,,,,,,,,,,,,,,,,,,1.62,384.393797500059,None,space,1,0.32996660005301237,386.11570589989424,None,386.11570589989424,None,386.11570589989424,None,,,,,,,,,,,P011,fencog,2,Pre,2021_Sep_07_1113,Go No-Go Task,2021.1.4,119.99860806142595,
,"Rule: When you see a yellow image, do not press 'spacebar'.",Images/Fearful/AM03_FC.jpg,Fear,Blue,Images/Blue.jpg,space,ParentConditions/YellowBlueBlue_v2.xlsx,BlueBlueYellow,Conditions/Version_2/YellowHappyStop.xlsx,no,PASS,0.795310308756252,,,,,,,,,0,0,0,0,0,0,0,0,0,34,34,34,,,,,,,,,,,,,,,,,,,,,,,,,,,,,,,,,,,,,,,,,,,,,,,,,,,,,,,,,,,,,,,,,,,,,,,,,,,,,,,1.59,386.5151851999108,None,space,1,0.2465500000398606,388.20646240003407,None,388.20646240003407,None,388.20646240003407,None,,,,,,,,,,,P011,fencog,2,Pre,2021_Sep_07_1113,Go No-Go Task,2021.1.4,119.99860806142595,
,"Rule: When you see a yellow image, do not press 'spacebar'.",Images/Fearful/AM01AFS.jpg,Fear,Blue,Images/Blue.jpg,space,ParentConditions/YellowBlueBlue_v2.xlsx,BlueBlueYellow,Conditions/Version_2/YellowHappyStop.xlsx,no,PASS,0.0960655228006344,,,,,,,,,0,0,0,0,0,0,0,0,0,35,35,35,,,,,,,,,,,,,,,,,,,,,,,,,,,,,,,,,,,,,,,,,,,,,,,,,,,,,,,,,,,,,,,,,,,,,,,,,,,,,,,1.36,388.6132689998485,None,space,1,0.23691099998541176,390.0810805999208,None,390.0810805999208,None,390.0810805999208,None,,,,,,,,,,,P011,fencog,2,Pre,2021_Sep_07_1113,Go No-Go Task,2021.1.4,119.99860806142595,
,"Rule: When you see a yellow image, do not press 'spacebar'.",Images/Fearful/HM04_FC.jpg,Fear,Blue,Images/Blue.jpg,space,ParentConditions/YellowBlueBlue_v2.xlsx,BlueBlueYellow,Conditions/Version_2/YellowHappyStop.xlsx,no,PASS,0.2671765254267089,,,,,,,,,0,0,0,0,0,0,0,0,0,36,36,36,,,,,,,,,,,,,,,,,,,,,,,,,,,,,,,,,,,,,,,,,,,,,,,,,,,,,,,,,,,,,,,,,,,,,,,,,,,,,,,1.42,390.4916772998404,None,space,1,0.2871813999954611,392.0137344999239,None,392.0137344999239,None,392.0137344999239,None,,,,,,,,,,,P011,fencog,2,Pre,2021_Sep_07_1113,Go No-Go Task,2021.1.4,119.99860806142595,
,"Rule: When you see a yellow image, do not press 'spacebar'.",Images/Fearful/BF18_FC.jpg,Fear,Blue,Images/Blue.jpg,space,ParentConditions/YellowBlueBlue_v2.xlsx,BlueBlueYellow,Conditions/Version_2/YellowHappyStop.xlsx,no,PASS,0.30493199358976686,,,,,,,,,0,0,0,0,0,0,0,0,0,37,37,37,,,,,,,,,,,,,,,,,,,,,,,,,,,,,,,,,,,,,,,,,,,,,,,,,,,,,,,,,,,,,,,,,,,,,,,,,,,,,,,1.29,392.41924669989385,None,space,1,0.3196644999552518,393.8133183999453,None,393.8133183999453,None,393.8133183999453,None,,,,,,,,,,,P011,fencog,2,Pre,2021_Sep_07_1113,Go No-Go Task,2021.1.4,119.99860806142595,
,"Rule: When you see a yellow image, do not press 'spacebar'.",Images/Fearful/AF07_FO.jpg,Fear,Blue,Images/Blue.jpg,space,ParentConditions/YellowBlueBlue_v2.xlsx,BlueBlueYellow,Conditions/Version_2/YellowHappyStop.xlsx,no,PASS,0.06571981152440787,,,,,,,,,0,0,0,0,0,0,0,0,0,38,38,38,,,,,,,,,,,,,,,,,,,,,,,,,,,,,,,,,,,,,,,,,,,,,,,,,,,,,,,,,,,,,,,,,,,,,,,,,,,,,,,1.41,394.223075899994,None,None,0,,395.72930540004745,None,395.72930540004745,None,395.72930540004745,None,,,,,,,,,,,P011,fencog,2,Pre,2021_Sep_07_1113,Go No-Go Task,2021.1.4,119.99860806142595,
,"Rule: When you see a yellow image, do not press 'spacebar'.",Images/Fearful/AM24AFS.jpg,Fear,Blue,Images/Blue.jpg,space,ParentConditions/YellowBlueBlue_v2.xlsx,BlueBlueYellow,Conditions/Version_2/YellowHappyStop.xlsx,no,PASS,0.23738601052691555,,,,,,,,,0,0,0,0,0,0,0,0,0,39,39,39,,,,,,,,,,,,,,,,,,,,,,,,,,,,,,,,,,,,,,,,,,,,,,,,,,,,,,,,,,,,,,,,,,,,,,,,,,,,,,,1.6,396.13914259988815,None,space,1,0.2479091000277549,397.84529939992353,None,397.84529939992353,None,397.84529939992353,None,,,,,,,,,,,P011,fencog,2,Pre,2021_Sep_07_1113,Go No-Go Task,2021.1.4,119.99860806142595,
,"Rule: When you see a yellow image, do not press 'spacebar'.",Images/Fearful/AM03AFS.jpg,Fear,Blue,Images/Blue.jpg,space,ParentConditions/YellowBlueBlue_v2.xlsx,BlueBlueYellow,Conditions/Version_2/YellowHappyStop.xlsx,no,PASS,0.9496981002344779,,,,,,,,,0,0,0,0,0,0,0,0,0,40,40,40,,,,,,,,,,,,,,,,,,,,,,,,,,,,,,,,,,,,,,,,,,,,,,,,,,,,,,,,,,,,,,,,,,,,,,,,,,,,,,,2,398.25166779989377,None,space,1,0.2923779000993818,400.352726199897,None,400.352726199897,None,400.352726199897,None,,,,,,,,,,,P011,fencog,2,Pre,2021_Sep_07_1113,Go No-Go Task,2021.1.4,119.99860806142595,
,"Rule: When you see a yellow image, do not press 'spacebar'.",Images/Fearful/BM08_FC.jpg,Fear,Blue,Images/Blue.jpg,space,ParentConditions/YellowBlueBlue_v2.xlsx,BlueBlueYellow,Conditions/Version_2/YellowHappyStop.xlsx,no,PASS,0.9731806168242675,,,,,,,,,0,0,0,0,0,0,0,0,0,41,41,41,,,,,,,,,,,,,,,,,,,,,,,,,,,,,,,,,,,,,,,,,,,,,,,,,,,,,,,,,,,,,,,,,,,,,,,,,,,,,,,1.24,400.7522835000418,None,space,1,0.32783910003490746,402.0940956999548,None,402.0940956999548,None,402.0940956999548,None,,,,,,,,,,,P011,fencog,2,Pre,2021_Sep_07_1113,Go No-Go Task,2021.1.4,119.99860806142595,
,"Rule: When you see a yellow image, do not press 'spacebar'.",Images/Fearful/AF32AFS.jpg,Fear,Blue,Images/Blue.jpg,space,ParentConditions/YellowBlueBlue_v2.xlsx,BlueBlueYellow,Conditions/Version_2/YellowHappyStop.xlsx,no,PASS,0.6516797726115628,,,,,,,,,0,0,0,0,0,0,0,0,0,42,42,42,,,,,,,,,,,,,,,,,,,,,,,,,,,,,,,,,,,,,,,,,,,,,,,,,,,,,,,,,,,,,,,,,,,,,,,,,,,,,,,1.56,402.49321920005605,None,space,1,0.2849838000256568,404.1601476999931,None,404.1601476999931,None,404.1601476999931,None,,,,,,,,,,,P011,fencog,2,Pre,2021_Sep_07_1113,Go No-Go Task,2021.1.4,119.99860806142595,
,"Rule: When you see a yellow image, do not press 'spacebar'.",Images/Fearful/AF26AFS.jpg,Fear,Blue,Images/Blue.jpg,space,ParentConditions/YellowBlueBlue_v2.xlsx,BlueBlueYellow,Conditions/Version_2/YellowHappyStop.xlsx,no,PASS,0.7646464028460872,,,,,,,,,0,0,0,0,0,0,0,0,0,43,43,43,,,,,,,,,,,,,,,,,,,,,,,,,,,,,,,,,,,,,,,,,,,,,,,,,,,,,,,,,,,,,,,,,,,,,,,,,,,,,,,1.37,404.5615646999795,None,space,1,0.2505431000608951,406.0345900999382,None,406.0345900999382,None,406.0345900999382,None,,,,,,,,,,,P011,fencog,2,Pre,2021_Sep_07_1113,Go No-Go Task,2021.1.4,119.99860806142595,
,"Rule: When you see a yellow image, do not press 'spacebar'.",Images/Fearful/BF09_FC.jpg,Fear,Blue,Images/Blue.jpg,space,ParentConditions/YellowBlueBlue_v2.xlsx,BlueBlueYellow,Conditions/Version_2/YellowHappyStop.xlsx,no,PASS,0.026085524820318784,,,,,,,,,0,0,0,0,0,0,0,0,0,44,44,44,,,,,,,,,,,,,,,,,,,,,,,,,,,,,,,,,,,,,,,,,,,,,,,,,,,,,,,,,,,,,,,,,,,,,,,,,,,,,,,1.48,406.43454519985244,None,space,1,0.24472420010715723,408.0172357999254,None,408.0172357999254,None,408.0172357999254,None,,,,,,,,,,,P011,fencog,2,Pre,2021_Sep_07_1113,Go No-Go Task,2021.1.4,119.99860806142595,
,"Rule: When you see a yellow image, do not press 'spacebar'.",Images/Fearful/BM01_FO.jpg,Fear,Blue,Images/Blue.jpg,space,ParentConditions/YellowBlueBlue_v2.xlsx,BlueBlueYellow,Conditions/Version_2/YellowHappyStop.xlsx,no,PASS,0.5546632244892579,,,,,,,,,0,0,0,0,0,0,0,0,0,45,45,45,,,,,,,,,,,,,,,,,,,,,,,,,,,,,,,,,,,,,,,,,,,,,,,,,,,,,,,,,,,,,,,,,,,,,,,,,,,,,,,1.61,408.4186732999515,None,space,1,0.288476400077343,410.12503809994087,None,410.12503809994087,None,410.12503809994087,None,,,,,,,,,,,P011,fencog,2,Pre,2021_Sep_07_1113,Go No-Go Task,2021.1.4,119.99860806142595,
,"Rule: When you see a yellow image, do not press 'spacebar'.",Images/Happy/BF14_HO.jpg,Happy,Yellow,Images/Yellow.jpg,None,ParentConditions/YellowBlueBlue_v2.xlsx,BlueBlueYellow,Conditions/Version_2/YellowHappyStop.xlsx,yes,PASS,0.8128181362801364,,,,,,,,,0,0,0,0,0,0,0,0,0,46,46,46,,,,,,,,,,,,,,,,,,,,,,,,,,,,,,,,,,,,,,,,,,,,,,,,,,,,,,,,,,,,,,,,,,,,,,,,,,,,,,,1.21,410.528106899932,None,None,1,,411.8328634998761,None,411.8328634998761,None,411.8328634998761,None,,,,,,,,,,,P011,fencog,2,Pre,2021_Sep_07_1113,Go No-Go Task,2021.1.4,119.99860806142595,
,"Rule: When you see a yellow image, do not press 'spacebar'.",Images/Fearful/WM11_FC.jpg,Fear,Blue,Images/Blue.jpg,space,ParentConditions/YellowBlueBlue_v2.xlsx,BlueBlueYellow,Conditions/Version_2/YellowHappyStop.xlsx,no,PASS,0.9251187011996334,,,,,,,,,0,0,0,0,0,0,0,0,0,47,47,47,,,,,,,,,,,,,,,,,,,,,,,,,,,,,,,,,,,,,,,,,,,,,,,,,,,,,,,,,,,,,,,,,,,,,,,,,,,,,,,1.51,412.23274230002426,None,space,1,0.24424530006945133,413.8489391999319,None,413.8489391999319,None,413.8489391999319,None,,,,,,,,,,,P011,fencog,2,Pre,2021_Sep_07_1113,Go No-Go Task,2021.1.4,119.99860806142595,
,"Rule: When you see a yellow image, do not press 'spacebar'.",Images/Fearful/AM02_FO.jpg,Fear,Blue,Images/Blue.jpg,space,ParentConditions/YellowBlueBlue_v2.xlsx,BlueBlueYellow,Conditions/Version_2/YellowHappyStop.xlsx,no,PASS,0.0455811702140666,,,,,,,,,0,0,0,0,0,0,0,0,0,48,48,48,,,,,,,,,,,,,,,,,,,,,,,,,,,,,,,,,,,,,,,,,,,,,,,,,,,,,,,,,,,,,,,,,,,,,,,,,,,,,,,1.57,414.24946939991787,None,space,1,0.2421699999831617,415.92324510007165,None,415.92324510007165,None,415.92324510007165,None,,,,,,,,,,,P011,fencog,2,Pre,2021_Sep_07_1113,Go No-Go Task,2021.1.4,119.99860806142595,
,"Rule: When you see a yellow image, do not press 'spacebar'.",Images/Happy/HM09_HO.jpg,Happy,Yellow,Images/Yellow.jpg,None,ParentConditions/YellowBlueBlue_v2.xlsx,BlueBlueYellow,Conditions/Version_2/YellowHappyStop.xlsx,yes,PASS,0.3219974030212036,,,,,,,,,0,0,0,0,0,0,0,0,0,49,49,49,,,,,,,,,,,,,,,,,,,,,,,,,,,,,,,,,,,,,,,,,,,,,,,,,,,,,,,,,,,,,,,,,,,,,,,,,,,,,,,1.2,416.33300519990735,None,None,1,,417.6395314000547,None,417.6395314000547,None,417.6395314000547,None,,,,,,,,,,,P011,fencog,2,Pre,2021_Sep_07_1113,Go No-Go Task,2021.1.4,119.99860806142595,
,"Rule: When you see a yellow image, do not press 'spacebar'.",Images/Happy/HF10_HE.jpg,Happy,Yellow,Images/Yellow.jpg,None,ParentConditions/YellowBlueBlue_v2.xlsx,BlueBlueYellow,Conditions/Version_2/YellowHappyStop.xlsx,yes,PASS,0.5613535526914523,,,,,,,,,0,0,0,0,0,0,0,0,0,50,50,50,,,,,,,,,,,,,,,,,,,,,,,,,,,,,,,,,,,,,,,,,,,,,,,,,,,,,,,,,,,,,,,,,,,,,,,,,,,,,,,1.87,418.04007350001484,None,space,0,0.1598002000246197,420.0137789999135,None,420.0137789999135,None,420.0137789999135,None,,,,,,,,,,,P011,fencog,2,Pre,2021_Sep_07_1113,Go No-Go Task,2021.1.4,119.99860806142595,
,"Rule: When you see a yellow image, do not press 'spacebar'.",Images/Fearful/AF09AFS.jpg,Fear,Blue,Images/Blue.jpg,space,ParentConditions/YellowBlueBlue_v2.xlsx,BlueBlueYellow,Conditions/Version_2/YellowHappyStop.xlsx,no,PASS,0.5511492847876154,,,,,,,,,0,0,0,0,0,0,0,0,0,51,51,51,,,,,,,,,,,,,,,,,,,,,,,,,,,,,,,,,,,,,,,,,,,,,,,,,,,,,,,,,,,,,,,,,,,,,,,,,,,,,,,1.52,420.4160207998939,None,space,1,0.22298650001175702,422.03817079984583,None,422.03817079984583,None,422.03817079984583,None,,,,,,,,,,,P011,fencog,2,Pre,2021_Sep_07_1113,Go No-Go Task,2021.1.4,119.99860806142595,
,"Rule: When you see a yellow image, do not press 'spacebar'.",Images/Fearful/AM23AFS.jpg,Fear,Blue,Images/Blue.jpg,space,ParentConditions/YellowBlueBlue_v2.xlsx,BlueBlueYellow,Conditions/Version_2/YellowHappyStop.xlsx,no,PASS,0.2159972500516506,,,,,,,,,0,0,0,0,0,0,0,0,0,52,52,52,,,,,,,,,,,,,,,,,,,,,,,,,,,,,,,,,,,,,,,,,,,,,,,,,,,,,,,,,,,,,,,,,,,,,,,,,,,,,,,1.72,422.442279699957,None,space,1,0.27111109998077154,424.262535699876,None,424.262535699876,None,424.262535699876,None,,,,,,,,,,,P011,fencog,2,Pre,2021_Sep_07_1113,Go No-Go Task,2021.1.4,119.99860806142595,
,"Rule: When you see a yellow image, do not press 'spacebar'.",Images/Fearful/AM05AFS.jpg,Fear,Blue,Images/Blue.jpg,space,ParentConditions/YellowBlueBlue_v2.xlsx,BlueBlueYellow,Conditions/Version_2/YellowHappyStop.xlsx,no,PASS,0.18827335330329198,,,,,,,,,0,0,0,0,0,0,0,0,0,53,53,53,,,,,,,,,,,,,,,,,,,,,,,,,,,,,,,,,,,,,,,,,,,,,,,,,,,,,,,,,,,,,,,,,,,,,,,,,,,,,,,1.74,424.6622580999974,None,None,0,,426.5033251999412,None,426.5033251999412,None,426.5033251999412,None,,,,,,,,,,,P011,fencog,2,Pre,2021_Sep_07_1113,Go No-Go Task,2021.1.4,119.99860806142595,
,"Rule: When you see a yellow image, do not press 'spacebar'.",Images/Happy/AF28HAS.jpg,Happy,Yellow,Images/Yellow.jpg,None,ParentConditions/YellowBlueBlue_v2.xlsx,BlueBlueYellow,Conditions/Version_2/YellowHappyStop.xlsx,yes,PASS,0.7444008667159328,,,,,,,,,0,0,0,0,0,0,0,0,0,54,54,54,,,,,,,,,,,,,,,,,,,,,,,,,,,,,,,,,,,,,,,,,,,,,,,,,,,,,,,,,,,,,,,,,,,,,,,,,,,,,,,1.85,426.91119119990617,None,None,1,,428.8611401000526,None,428.8611401000526,None,428.8611401000526,None,,,,,,,,,,,P011,fencog,2,Pre,2021_Sep_07_1113,Go No-Go Task,2021.1.4,119.99860806142595,
,"Rule: When you see a yellow image, do not press 'spacebar'.",Images/Fearful/BF14_FO.jpg,Fear,Blue,Images/Blue.jpg,space,ParentConditions/YellowBlueBlue_v2.xlsx,BlueBlueYellow,Conditions/Version_2/YellowHappyStop.xlsx,no,PASS,0.036114312510467594,,,,,,,,,0,0,0,0,0,0,0,0,0,55,55,55,,,,,,,,,,,,,,,,,,,,,,,,,,,,,,,,,,,,,,,,,,,,,,,,,,,,,,,,,,,,,,,,,,,,,,,,,,,,,,,1.97,429.26211480004713,None,space,1,0.22915499983355403,431.343802300049,None,431.343802300049,None,431.343802300049,None,,,,,,,,,,,P011,fencog,2,Pre,2021_Sep_07_1113,Go No-Go Task,2021.1.4,119.99860806142595,
,"Rule: When you see a yellow image, do not press 'spacebar'.",Images/Happy/AM30HAS.jpg,Happy,Yellow,Images/Yellow.jpg,None,ParentConditions/YellowBlueBlue_v2.xlsx,BlueBlueYellow,Conditions/Version_2/YellowHappyStop.xlsx,yes,PASS,0.9276323490247724,,,,,,,,,0,0,0,0,0,0,0,0,0,56,56,56,,,,,,,,,,,,,,,,,,,,,,,,,,,,,,,,,,,,,,,,,,,,,,,,,,,,,,,,,,,,,,,,,,,,,,,,,,,,,,,1.76,431.7357917998452,None,space,0,0.19584840000607073,433.6014353998471,None,433.6014353998471,None,433.6014353998471,None,,,,,,,,,,,P011,fencog,2,Pre,2021_Sep_07_1113,Go No-Go Task,2021.1.4,119.99860806142595,
,"Rule: When you see a yellow image, do not press 'spacebar'.",Images/Fearful/AF27AFS.jpg,Fear,Blue,Images/Blue.jpg,space,ParentConditions/YellowBlueBlue_v2.xlsx,BlueBlueYellow,Conditions/Version_2/YellowHappyStop.xlsx,no,PASS,0.9674336643747157,,,,,,,,,0,0,0,0,0,0,0,0,0,57,57,57,,,,,,,,,,,,,,,,,,,,,,,,,,,,,,,,,,,,,,,,,,,,,,,,,,,,,,,,,,,,,,,,,,,,,,,,,,,,,,,1.98,434.0003728000447,None,space,1,0.3772065001539886,436.0839151998516,None,436.0839151998516,None,436.0839151998516,None,,,,,,,,,,,P011,fencog,2,Pre,2021_Sep_07_1113,Go No-Go Task,2021.1.4,119.99860806142595,
,"Rule: When you see a yellow image, do not press 'spacebar'.",Images/Fearful/AM32AFS.jpg,Fear,Blue,Images/Blue.jpg,space,ParentConditions/YellowBlueBlue_v2.xlsx,BlueBlueYellow,Conditions/Version_2/YellowHappyStop.xlsx,no,PASS,0.5429320828851499,,,,,,,,,0,0,0,0,0,0,0,0,0,58,58,58,,,,,,,,,,,,,,,,,,,,,,,,,,,,,,,,,,,,,,,,,,,,,,,,,,,,,,,,,,,,,,,,,,,,,,,,,,,,,,,1.55,436.48323079990223,None,space,1,0.23962919996120036,438.1333238000516,None,438.1333238000516,None,438.1333238000516,None,,,,,,,,,,,P011,fencog,2,Pre,2021_Sep_07_1113,Go No-Go Task,2021.1.4,119.99860806142595,
,"Rule: When you see a yellow image, do not press 'spacebar'.",Images/Fearful/AM09_FO.jpg,Fear,Blue,Images/Blue.jpg,space,ParentConditions/YellowBlueBlue_v2.xlsx,BlueBlueYellow,Conditions/Version_2/YellowHappyStop.xlsx,no,PASS,0.5248989229975377,,,,,,,,,0,0,0,0,0,0,0,0,0,59,59,59,,,,,,,,,,,,,,,,,,,,,,,,,,,,,,,,,,,,,,,,,,,,,,,,,,,,,,,,,,,,,,,,,,,,,,,,,,,,,,,1.43,438.5328474000562,None,space,1,0.3718335998710245,440.06628239993006,None,440.06628239993006,None,440.06628239993006,None,,,,,,,,,,,P011,fencog,2,Pre,2021_Sep_07_1113,Go No-Go Task,2021.1.4,119.99860806142595,
,"Rule: When you see a yellow image, do not press 'spacebar'.",Images/Fearful/AF01_FO.jpg,Fear,Blue,Images/Blue.jpg,space,ParentConditions/YellowBlueBlue_v2.xlsx,BlueBlueYellow,Conditions/Version_2/YellowHappyStop.xlsx,no,PASS,0.007145119379767917,,,,,,,,,0,0,0,0,0,0,0,0,0,60,60,60,,,,,,,,,,,,,,,,,,,,,,,,,,,,,,,,,,,,,,,,,,,,,,,,,,,,,,,,,,,,,,,,,,,,,,,,,,,,,,,1.35,440.47469689999707,None,space,1,0.265627000015229,441.9323247000575,None,441.9323247000575,None,441.9323247000575,None,,,,,,,,,,,P011,fencog,2,Pre,2021_Sep_07_1113,Go No-Go Task,2021.1.4,119.99860806142595,
,"Rule: When you see a yellow image, do not press 'spacebar'.",Images/Happy/AM10_HO.jpg,Happy,Yellow,Images/Yellow.jpg,None,ParentConditions/YellowBlueBlue_v2.xlsx,BlueBlueYellow,Conditions/Version_2/YellowHappyStop.xlsx,yes,PASS,0.8341186478720962,,,,,,,,,0,0,0,0,0,0,0,0,0,61,61,61,,,,,,,,,,,,,,,,,,,,,,,,,,,,,,,,,,,,,,,,,,,,,,,,,,,,,,,,,,,,,,,,,,,,,,,,,,,,,,,1.69,442.33149480004795,None,None,1,,444.1233045998961,None,444.1233045998961,None,444.1233045998961,None,,,,,,,,,,,P011,fencog,2,Pre,2021_Sep_07_1113,Go No-Go Task,2021.1.4,119.99860806142595,
,"Rule: When you see a yellow image, do not press 'spacebar'.",Images/Happy/AM22HAS.jpg,Happy,Yellow,Images/Yellow.jpg,None,ParentConditions/YellowBlueBlue_v2.xlsx,BlueBlueYellow,Conditions/Version_2/YellowHappyStop.xlsx,yes,PASS,0.6172419840647391,,,,,,,,,0,0,0,0,0,0,0,0,0,62,62,62,,,,,,,,,,,,,,,,,,,,,,,,,,,,,,,,,,,,,,,,,,,,,,,,,,,,,,,,,,,,,,,,,,,,,,,,,,,,,,,1.49,444.52383159985766,None,space,0,0.2749885998200625,446.1144157999661,None,446.1144157999661,None,446.1144157999661,None,,,,,,,,,,,P011,fencog,2,Pre,2021_Sep_07_1113,Go No-Go Task,2021.1.4,119.99860806142595,
,"Rule: When you see a yellow image, do not press 'spacebar'.",Images/Fearful/AM22AFS.jpg,Fear,Blue,Images/Blue.jpg,space,ParentConditions/YellowBlueBlue_v2.xlsx,BlueBlueYellow,Conditions/Version_2/YellowHappyStop.xlsx,no,PASS,0.13735844586330215,,,,,,,,,0,0,0,0,0,0,0,0,0,63,63,63,,,,,,,,,,,,,,,,,,,,,,,,,,,,,,,,,,,,,,,,,,,,,,,,,,,,,,,,,,,,,,,,,,,,,,,,,,,,,,,1.22,446.514314299915,None,space,1,0.23865319998003542,447.8471702998504,None,447.8471702998504,None,447.8471702998504,None,,,,,,,,,,,P011,fencog,2,Pre,2021_Sep_07_1113,Go No-Go Task,2021.1.4,119.99860806142595,
,"Rule: When you see a yellow image, do not press 'spacebar'.",Images/Happy/BM08_HO.jpg,Happy,Yellow,Images/Yellow.jpg,None,ParentConditions/YellowBlueBlue_v2.xlsx,BlueBlueYellow,Conditions/Version_2/YellowHappyStop.xlsx,yes,PASS,0.19822628709829182,,,,,,,,,0,0,0,0,0,0,0,0,0,64,64,64,,,,,,,,,,,,,,,,,,,,,,,,,,,,,,,,,,,,,,,,,,,,,,,,,,,,,,,,,,,,,,,,,,,,,,,,,,,,,,,1.46,448.246078300057,None,space,0,0.24773490009829402,449.81339020002633,None,449.81339020002633,None,449.81339020002633,None,,,,,,,,,,,P011,fencog,2,Pre,2021_Sep_07_1113,Go No-Go Task,2021.1.4,119.99860806142595,
,"Rule: When you see a yellow image, do not press 'spacebar'.",Images/Fearful/AM19AFS.jpg,Fear,Blue,Images/Blue.jpg,space,ParentConditions/YellowBlueBlue_v2.xlsx,BlueBlueYellow,Conditions/Version_2/YellowHappyStop.xlsx,no,PASS,0.9846537447676192,,,,,,,,,0,0,0,0,0,0,0,0,0,65,65,65,,,,,,,,,,,,,,,,,,,,,,,,,,,,,,,,,,,,,,,,,,,,,,,,,,,,,,,,,,,,,,,,,,,,,,,,,,,,,,,1.79,450.21261049993336,None,space,1,0.3169836001470685,452.1043004000094,None,452.1043004000094,None,452.1043004000094,None,,,,,,,,,,,P011,fencog,2,Pre,2021_Sep_07_1113,Go No-Go Task,2021.1.4,119.99860806142595,
,"Rule: When you see a yellow image, do not press 'spacebar'.",Images/Fearful/AF23AFS.jpg,Fear,Blue,Images/Blue.jpg,space,ParentConditions/YellowBlueBlue_v2.xlsx,BlueBlueYellow,Conditions/Version_2/YellowHappyStop.xlsx,no,PASS,0.06538281980323435,,,,,,,,,0,0,0,0,0,0,0,0,0,66,66,66,,,,,,,,,,,,,,,,,,,,,,,,,,,,,,,,,,,,,,,,,,,,,,,,,,,,,,,,,,,,,,,,,,,,,,,,,,,,,,,1.25,452.5103263000492,None,space,1,0.2866469998843968,453.8704321999103,None,453.8704321999103,None,453.8704321999103,None,,,,,,,,,,,P011,fencog,2,Pre,2021_Sep_07_1113,Go No-Go Task,2021.1.4,119.99860806142595,
,"Rule: When you see a yellow image, do not press 'spacebar'.",Images/Fearful/AM13AFS.jpg,Fear,Blue,Images/Blue.jpg,space,ParentConditions/YellowBlueBlue_v2.xlsx,BlueBlueYellow,Conditions/Version_2/YellowHappyStop.xlsx,no,PASS,0.501942139065686,,,,,,,,,0,0,0,0,0,0,0,0,0,67,67,67,,,,,,,,,,,,,,,,,,,,,,,,,,,,,,,,,,,,,,,,,,,,,,,,,,,,,,,,,,,,,,,,,,,,,,,,,,,,,,,1.3,454.26952179986984,None,space,1,0.22299879998899996,455.67004049988464,None,455.67004049988464,None,455.67004049988464,None,,,,,,,,,,,P011,fencog,2,Pre,2021_Sep_07_1113,Go No-Go Task,2021.1.4,119.99860806142595,
,"Rule: When you see a yellow image, do not press 'spacebar'.",Images/Fearful/HF09_FC.jpg,Fear,Blue,Images/Blue.jpg,space,ParentConditions/YellowBlueBlue_v2.xlsx,BlueBlueYellow,Conditions/Version_2/YellowHappyStop.xlsx,no,PASS,0.5863101312226996,,,,,,,,,0,0,0,0,0,0,0,0,0,68,68,68,,,,,,,,,,,,,,,,,,,,,,,,,,,,,,,,,,,,,,,,,,,,,,,,,,,,,,,,,,,,,,,,,,,,,,,,,,,,,,,1.77,456.0763546999078,None,space,1,0.3326183999888599,457.95260019996203,None,457.95260019996203,None,457.95260019996203,None,,,,,,,,,,,P011,fencog,2,Pre,2021_Sep_07_1113,Go No-Go Task,2021.1.4,119.99860806142595,
,"Rule: When you see a yellow image, do not press 'spacebar'.",Images/Fearful/AM04AFS.jpg,Fear,Blue,Images/Blue.jpg,space,ParentConditions/YellowBlueBlue_v2.xlsx,BlueBlueYellow,Conditions/Version_2/YellowHappyStop.xlsx,no,PASS,0.9464588162199873,,,,,,,,,0,0,0,0,0,0,0,0,0,69,69,69,,,,,,,,,,,,,,,,,,,,,,,,,,,,,,,,,,,,,,,,,,,,,,,,,,,,,,,,,,,,,,,,,,,,,,,,,,,,,,,1.88,458.35353980003856,None,space,1,0.26983100012876093,460.3352135999594,None,460.3352135999594,None,460.3352135999594,None,,,,,,,,,,,P011,fencog,2,Pre,2021_Sep_07_1113,Go No-Go Task,2021.1.4,119.99860806142595,
,"Rule: When you see a yellow image, do not press 'spacebar'.",Images/Fearful/AF02AFS.jpg,Fear,Blue,Images/Blue.jpg,space,ParentConditions/YellowBlueBlue_v2.xlsx,BlueBlueYellow,Conditions/Version_2/YellowHappyStop.xlsx,no,PASS,0.745835010449707,,,,,,,,,0,0,0,0,0,0,0,0,0,70,70,70,,,,,,,,,,,,,,,,,,,,,,,,,,,,,,,,,,,,,,,,,,,,,,,,,,,,,,,,,,,,,,,,,,,,,,,,,,,,,,,1.75,460.7371439000126,None,space,1,0.24444969999603927,462.59294390003197,None,462.59294390003197,None,462.59294390003197,None,,,,,,,,,,,P011,fencog,2,Pre,2021_Sep_07_1113,Go No-Go Task,2021.1.4,119.99860806142595,
,"Rule: When you see a yellow image, do not press 'spacebar'.",Images/Fearful/AM09AFS.jpg,Fear,Blue,Images/Blue.jpg,space,ParentConditions/YellowBlueBlue_v2.xlsx,BlueBlueYellow,Conditions/Version_2/YellowHappyStop.xlsx,no,PASS,0.8501894993195995,,,,,,,,,0,0,0,0,0,0,0,0,0,71,71,71,,,,,,,,,,,,,,,,,,,,,,,,,,,,,,,,,,,,,,,,,,,,,,,,,,,,,,,,,,,,,,,,,,,,,,,,,,,,,,,1.91,462.9933567000553,None,space,1,0.24424070003442466,465.00885839993134,None,465.00885839993134,None,465.00885839993134,None,,,,,,,,,,,P011,fencog,2,Pre,2021_Sep_07_1113,Go No-Go Task,2021.1.4,119.99860806142595,
,"Rule: When you see a yellow image, do not press 'spacebar'.",Images/Fearful/BF05_FO.jpg,Fear,Blue,Images/Blue.jpg,space,ParentConditions/YellowBlueBlue_v2.xlsx,BlueBlueYellow,Conditions/Version_2/YellowHappyStop.xlsx,no,PASS,0.41552487186891285,,,,,,,,,0,0,0,0,0,0,0,0,0,72,72,72,,,,,,,,,,,,,,,,,,,,,,,,,,,,,,,,,,,,,,,,,,,,,,,,,,,,,,,,,,,,,,,,,,,,,,,,,,,,,,,1.86,465.4094626000151,None,space,1,0.27119529992341995,467.3744959998876,None,467.3744959998876,None,467.3744959998876,None,,,,,,,,,,,P011,fencog,2,Pre,2021_Sep_07_1113,Go No-Go Task,2021.1.4,119.99860806142595,
,"Rule: When you see a yellow image, do not press 'spacebar'.",Images/Fearful/AF22AFS.jpg,Fear,Blue,Images/Blue.jpg,space,ParentConditions/YellowBlueBlue_v2.xlsx,BlueBlueYellow,Conditions/Version_2/YellowHappyStop.xlsx,no,PASS,0.6701019786706065,,,,,,,,,0,0,0,0,0,0,0,0,0,73,73,73,,,,,,,,,,,,,,,,,,,,,,,,,,,,,,,,,,,,,,,,,,,,,,,,,,,,,,,,,,,,,,,,,,,,,,,,,,,,,,,1.31,467.78022269997746,None,space,1,0.34296609996818006,469.18267780006863,None,469.18267780006863,None,469.18267780006863,None,,,,,,,,,,,P011,fencog,2,Pre,2021_Sep_07_1113,Go No-Go Task,2021.1.4,119.99860806142595,
,"Rule: When you see a yellow image, do not press 'spacebar'.",Images/Happy/BF18_HO.jpg,Happy,Yellow,Images/Yellow.jpg,None,ParentConditions/YellowBlueBlue_v2.xlsx,BlueBlueYellow,Conditions/Version_2/YellowHappyStop.xlsx,yes,PASS,0.41437941694275227,,,,,,,,,0,0,0,0,0,0,0,0,0,74,74,74,,,,,,,,,,,,,,,,,,,,,,,,,,,,,,,,,,,,,,,,,,,,,,,,,,,,,,,,,,,,,,,,,,,,,,,,,,,,,,,1.83,469.5863987999037,None,None,1,,471.53192360000685,None,471.53192360000685,None,471.53192360000685,None,,,,,,,,,,,P011,fencog,2,Pre,2021_Sep_07_1113,Go No-Go Task,2021.1.4,119.99860806142595,
,"Rule: When you see a yellow image, do not press 'spacebar'.",Images/Fearful/WM12_FO.jpg,Fear,Blue,Images/Blue.jpg,space,ParentConditions/YellowBlueBlue_v2.xlsx,BlueBlueYellow,Conditions/Version_2/YellowHappyStop.xlsx,no,PASS,0.577397464904033,,,,,,,,,0,0,0,0,0,0,0,0,0,75,75,75,,,,,,,,,,,,,,,,,,,,,,,,,,,,,,,,,,,,,,,,,,,,,,,,,,,,,,,,,,,,,,,,,,,,,,,,,,,,,,,1.26,471.93095379997976,None,space,1,0.2669995999895036,473.29804100003093,None,473.29804100003093,None,473.29804100003093,None,,,,,,,,,,,P011,fencog,2,Pre,2021_Sep_07_1113,Go No-Go Task,2021.1.4,119.99860806142595,
,"Rule: When you see a yellow image, do not press 'spacebar'.",Images/Fearful/BF07_FO.jpg,Fear,Blue,Images/Blue.jpg,space,ParentConditions/YellowBlueBlue_v2.xlsx,BlueBlueYellow,Conditions/Version_2/YellowHappyStop.xlsx,no,PASS,0.3175910009200418,,,,,,,,,0,0,0,0,0,0,0,0,0,76,76,76,,,,,,,,,,,,,,,,,,,,,,,,,,,,,,,,,,,,,,,,,,,,,,,,,,,,,,,,,,,,,,,,,,,,,,,,,,,,,,,1.58,473.70545500004664,None,space,1,0.33599339984357357,475.38907949998975,None,475.38907949998975,None,475.38907949998975,None,,,,,,,,,,,P011,fencog,2,Pre,2021_Sep_07_1113,Go No-Go Task,2021.1.4,119.99860806142595,
,"Rule: When you see a yellow image, do not press 'spacebar'.",Images/Fearful/HF10_FO.jpg,Fear,Blue,Images/Blue.jpg,space,ParentConditions/YellowBlueBlue_v2.xlsx,BlueBlueYellow,Conditions/Version_2/YellowHappyStop.xlsx,no,PASS,0.5511356040110476,,,,,,,,,0,0,0,0,0,0,0,0,0,77,77,77,,,,,,,,,,,,,,,,,,,,,,,,,,,,,,,,,,,,,,,,,,,,,,,,,,,,,,,,,,,,,,,,,,,,,,,,,,,,,,,1.94,475.7969694000203,None,space,1,0.2954043000936508,477.83841109997593,None,477.83841109997593,None,477.83841109997593,None,,,,,,,,,,,P011,fencog,2,Pre,2021_Sep_07_1113,Go No-Go Task,2021.1.4,119.99860806142595,
,"Rule: When you see a yellow image, do not press 'spacebar'.",Images/Fearful/AM10AFS.jpg,Fear,Blue,Images/Blue.jpg,space,ParentConditions/YellowBlueBlue_v2.xlsx,BlueBlueYellow,Conditions/Version_2/YellowHappyStop.xlsx,no,PASS,0.516543326357497,,,,,,,,,0,0,0,0,0,0,0,0,0,78,78,78,,,,,,,,,,,,,,,,,,,,,,,,,,,,,,,,,,,,,,,,,,,,,,,,,,,,,,,,,,,,,,,,,,,,,,,,,,,,,,,1.39,478.23942289990373,None,space,1,0.29979129997082055,479.7295382998418,None,479.7295382998418,None,479.7295382998418,None,,,,,,,,,,,P011,fencog,2,Pre,2021_Sep_07_1113,Go No-Go Task,2021.1.4,119.99860806142595,
,"Rule: When you see a yellow image, do not press 'spacebar'.",Images/Happy/AM23HAS.jpg,Happy,Yellow,Images/Yellow.jpg,None,ParentConditions/YellowBlueBlue_v2.xlsx,BlueBlueYellow,Conditions/Version_2/YellowHappyStop.xlsx,yes,PASS,0.4223687412850129,,,,,,,,,0,0,0,0,0,0,0,0,0,79,79,79,,,,,,,,,,,,,,,,,,,,,,,,,,,,,,,,,,,,,,,,,,,,,,,,,,,,,,,,,,,,,,,,,,,,,,,,,,,,,,,1.32,480.13689379999414,None,None,1,,481.562313699862,None,481.562313699862,None,481.562313699862,None,,,,,,,,,,,P011,fencog,2,Pre,2021_Sep_07_1113,Go No-Go Task,2021.1.4,119.99860806142595,
,"Rule: When you see blue image, do not press 'spacebar'.",Images/Fearful/HM06_FC.jpg,Fear,Blue,Images/Blue.jpg,None,ParentConditions/YellowBlueBlue_v2.xlsx,BlueBlueYellow,Conditions/Version_2/BlueFearStop.xlsx,yes,PASS,0.29049104493206235,,,,,,,,,0,0,0,0,0,1,1,1,0,0,0,0,,,,,,,,,,,,,,,,,,,,,,,,,,,,,,,,,,,,,,,,,,,,,,,,,,,,,,,,,,,,,,,,,487.6323414000217,None,490.6172100000549,None,space,9.123121500015259,490.6172100000549,None,487.6323414000217,None,487.6323414000217,None,487.6323414000217,None,1.33,499.80492149991915,None,None,1,,501.2397809000686,None,501.2397809000686,None,501.2397809000686,None,481.9887206000276,None,space,5.134861400118098,482.47807169985026,None,481.9887206000276,None,481.9887206000276,None,P011,fencog,2,Pre,2021_Sep_07_1113,Go No-Go Task,2021.1.4,119.99860806142595,
,"Rule: When you see blue image, do not press 'spacebar'.",Images/Happy/AF07HAS.jpg,Happy,Yellow,Images/Yellow.jpg,space,ParentConditions/YellowBlueBlue_v2.xlsx,BlueBlueYellow,Conditions/Version_2/BlueFearStop.xlsx,no,PASS,0.3060165792014795,,,,,,,,,0,0,0,0,0,1,1,1,0,1,1,1,,,,,,,,,,,,,,,,,,,,,,,,,,,,,,,,,,,,,,,,,,,,,,,,,,,,,,,,,,,,,,,,,,,,,,,,,,,,,,,1.93,501.6410334999673,None,space,1,0.3005433001089841,503.67249349993654,None,503.67249349993654,None,503.67249349993654,None,,,,,,,,,,,P011,fencog,2,Pre,2021_Sep_07_1113,Go No-Go Task,2021.1.4,119.99860806142595,
,"Rule: When you see blue image, do not press 'spacebar'.",Images/Happy/AF28HAS.jpg,Happy,Yellow,Images/Yellow.jpg,space,ParentConditions/YellowBlueBlue_v2.xlsx,BlueBlueYellow,Conditions/Version_2/BlueFearStop.xlsx,no,PASS,0.23458600871698787,,,,,,,,,0,0,0,0,0,1,1,1,0,2,2,2,,,,,,,,,,,,,,,,,,,,,,,,,,,,,,,,,,,,,,,,,,,,,,,,,,,,,,,,,,,,,,,,,,,,,,,,,,,,,,,1.59,504.0725646999199,None,space,1,0.37784230010583997,505.7551480999682,None,505.7551480999682,None,505.7551480999682,None,,,,,,,,,,,P011,fencog,2,Pre,2021_Sep_07_1113,Go No-Go Task,2021.1.4,119.99860806142595,
,"Rule: When you see blue image, do not press 'spacebar'.",Images/Happy/AF22HAS.jpg,Happy,Yellow,Images/Yellow.jpg,space,ParentConditions/YellowBlueBlue_v2.xlsx,BlueBlueYellow,Conditions/Version_2/BlueFearStop.xlsx,no,PASS,0.11899132917260535,,,,,,,,,0,0,0,0,0,1,1,1,0,3,3,3,,,,,,,,,,,,,,,,,,,,,,,,,,,,,,,,,,,,,,,,,,,,,,,,,,,,,,,,,,,,,,,,,,,,,,,,,,,,,,,1.22,506.1610584000591,None,space,1,0.29293370014056563,507.48805990000255,None,507.48805990000255,None,507.48805990000255,None,,,,,,,,,,,P011,fencog,2,Pre,2021_Sep_07_1113,Go No-Go Task,2021.1.4,119.99860806142595,
,"Rule: When you see blue image, do not press 'spacebar'.",Images/Fearful/AF27AFS.jpg,Fear,Blue,Images/Blue.jpg,None,ParentConditions/YellowBlueBlue_v2.xlsx,BlueBlueYellow,Conditions/Version_2/BlueFearStop.xlsx,yes,PASS,0.3988252776358663,,,,,,,,,0,0,0,0,0,1,1,1,0,4,4,4,,,,,,,,,,,,,,,,,,,,,,,,,,,,,,,,,,,,,,,,,,,,,,,,,,,,,,,,,,,,,,,,,,,,,,,,,,,,,,,1.71,507.8887976000551,None,None,1,,509.70400059991516,None,509.70400059991516,None,509.70400059991516,None,,,,,,,,,,,P011,fencog,2,Pre,2021_Sep_07_1113,Go No-Go Task,2021.1.4,119.99860806142595,
,"Rule: When you see blue image, do not press 'spacebar'.",Images/Happy/AM24HAS.jpg,Happy,Yellow,Images/Yellow.jpg,space,ParentConditions/YellowBlueBlue_v2.xlsx,BlueBlueYellow,Conditions/Version_2/BlueFearStop.xlsx,no,PASS,0.6540701766357542,,,,,,,,,0,0,0,0,0,1,1,1,0,5,5,5,,,,,,,,,,,,,,,,,,,,,,,,,,,,,,,,,,,,,,,,,,,,,,,,,,,,,,,,,,,,,,,,,,,,,,,,,,,,,,,1.73,510.1045637000352,None,space,1,0.28412110009230673,511.93665080005303,None,511.93665080005303,None,511.93665080005303,None,,,,,,,,,,,P011,fencog,2,Pre,2021_Sep_07_1113,Go No-Go Task,2021.1.4,119.99860806142595,
,"Rule: When you see blue image, do not press 'spacebar'.",Images/Fearful/AF26AFS.jpg,Fear,Blue,Images/Blue.jpg,None,ParentConditions/YellowBlueBlue_v2.xlsx,BlueBlueYellow,Conditions/Version_2/BlueFearStop.xlsx,yes,PASS,0.672416725983861,,,,,,,,,0,0,0,0,0,1,1,1,0,6,6,6,,,,,,,,,,,,,,,,,,,,,,,,,,,,,,,,,,,,,,,,,,,,,,,,,,,,,,,,,,,,,,,,,,,,,,,,,,,,,,,1.66,512.337375599891,None,space,0,0.30269649997353554,514.1111000999808,None,514.1111000999808,None,514.1111000999808,None,,,,,,,,,,,P011,fencog,2,Pre,2021_Sep_07_1113,Go No-Go Task,2021.1.4,119.99860806142595,
,"Rule: When you see blue image, do not press 'spacebar'.",Images/Happy/WM11_HC.jpg,Happy,Yellow,Images/Yellow.jpg,space,ParentConditions/YellowBlueBlue_v2.xlsx,BlueBlueYellow,Conditions/Version_2/BlueFearStop.xlsx,no,PASS,0.8722598945732238,,,,,,,,,0,0,0,0,0,1,1,1,0,7,7,7,,,,,,,,,,,,,,,,,,,,,,,,,,,,,,,,,,,,,,,,,,,,,,,,,,,,,,,,,,,,,,,,,,,,,,,,,,,,,,,1.82,514.5050176000223,None,None,0,,516.4270309000276,None,516.4270309000276,None,516.4270309000276,None,,,,,,,,,,,P011,fencog,2,Pre,2021_Sep_07_1113,Go No-Go Task,2021.1.4,119.99860806142595,
,"Rule: When you see blue image, do not press 'spacebar'.",Images/Happy/BM03_HO.jpg,Happy,Yellow,Images/Yellow.jpg,space,ParentConditions/YellowBlueBlue_v2.xlsx,BlueBlueYellow,Conditions/Version_2/BlueFearStop.xlsx,no,PASS,0.281866807892032,,,,,,,,,0,0,0,0,0,1,1,1,0,8,8,8,,,,,,,,,,,,,,,,,,,,,,,,,,,,,,,,,,,,,,,,,,,,,,,,,,,,,,,,,,,,,,,,,,,,,,,,,,,,,,,1.58,516.826054800069,None,space,1,0.28843099996447563,518.5097318000626,None,518.5097318000626,None,518.5097318000626,None,,,,,,,,,,,P011,fencog,2,Pre,2021_Sep_07_1113,Go No-Go Task,2021.1.4,119.99860806142595,
,"Rule: When you see blue image, do not press 'spacebar'.",Images/Happy/BF18_HO.jpg,Happy,Yellow,Images/Yellow.jpg,space,ParentConditions/YellowBlueBlue_v2.xlsx,BlueBlueYellow,Conditions/Version_2/BlueFearStop.xlsx,no,PASS,0.056262560303186104,,,,,,,,,0,0,0,0,0,1,1,1,0,9,9,9,,,,,,,,,,,,,,,,,,,,,,,,,,,,,,,,,,,,,,,,,,,,,,,,,,,,,,,,,,,,,,,,,,,,,,,,,,,,,,,1.32,518.9089675999712,None,space,1,0.2946609000209719,520.3342031999491,None,520.3342031999491,None,520.3342031999491,None,,,,,,,,,,,P011,fencog,2,Pre,2021_Sep_07_1113,Go No-Go Task,2021.1.4,119.99860806142595,
,"Rule: When you see blue image, do not press 'spacebar'.",Images/Happy/AM10HAS.jpg,Happy,Yellow,Images/Yellow.jpg,space,ParentConditions/YellowBlueBlue_v2.xlsx,BlueBlueYellow,Conditions/Version_2/BlueFearStop.xlsx,no,PASS,0.26234858566298536,,,,,,,,,0,0,0,0,0,1,1,1,0,10,10,10,,,,,,,,,,,,,,,,,,,,,,,,,,,,,,,,,,,,,,,,,,,,,,,,,,,,,,,,,,,,,,,,,,,,,,,,,,,,,,,1.38,520.7336170999333,None,space,1,0.26015660003758967,522.2253721000161,None,522.2253721000161,None,522.2253721000161,None,,,,,,,,,,,P011,fencog,2,Pre,2021_Sep_07_1113,Go No-Go Task,2021.1.4,119.99860806142595,
,"Rule: When you see blue image, do not press 'spacebar'.",Images/Happy/AM09HAS.jpg,Happy,Yellow,Images/Yellow.jpg,space,ParentConditions/YellowBlueBlue_v2.xlsx,BlueBlueYellow,Conditions/Version_2/BlueFearStop.xlsx,no,PASS,0.5322853606558464,,,,,,,,,0,0,0,0,0,1,1,1,0,11,11,11,,,,,,,,,,,,,,,,,,,,,,,,,,,,,,,,,,,,,,,,,,,,,,,,,,,,,,,,,,,,,,,,,,,,,,,,,,,,,,,1.95,522.6244800998829,None,None,0,,524.6746089998633,None,524.6746089998633,None,524.6746089998633,None,,,,,,,,,,,P011,fencog,2,Pre,2021_Sep_07_1113,Go No-Go Task,2021.1.4,119.99860806142595,
,"Rule: When you see blue image, do not press 'spacebar'.",Images/Happy/AM16HAS.jpg,Happy,Yellow,Images/Yellow.jpg,space,ParentConditions/YellowBlueBlue_v2.xlsx,BlueBlueYellow,Conditions/Version_2/BlueFearStop.xlsx,no,PASS,0.8730560121673133,,,,,,,,,0,0,0,0,0,1,1,1,0,12,12,12,,,,,,,,,,,,,,,,,,,,,,,,,,,,,,,,,,,,,,,,,,,,,,,,,,,,,,,,,,,,,,,,,,,,,,,,,,,,,,,1.69,525.0757418998983,None,space,1,0.28435149998404086,526.8656531998422,None,526.8656531998422,None,526.8656531998422,None,,,,,,,,,,,P011,fencog,2,Pre,2021_Sep_07_1113,Go No-Go Task,2021.1.4,119.99860806142595,
,"Rule: When you see blue image, do not press 'spacebar'.",Images/Happy/AF10_HE.jpg,Happy,Yellow,Images/Yellow.jpg,space,ParentConditions/YellowBlueBlue_v2.xlsx,BlueBlueYellow,Conditions/Version_2/BlueFearStop.xlsx,no,PASS,0.7103342893987146,,,,,,,,,0,0,0,0,0,1,1,1,0,13,13,13,,,,,,,,,,,,,,,,,,,,,,,,,,,,,,,,,,,,,,,,,,,,,,,,,,,,,,,,,,,,,,,,,,,,,,,,,,,,,,,1.42,527.2686016999651,None,space,1,0.3270662999711931,528.7900340000633,None,528.7900340000633,None,528.7900340000633,None,,,,,,,,,,,P011,fencog,2,Pre,2021_Sep_07_1113,Go No-Go Task,2021.1.4,119.99860806142595,
,"Rule: When you see blue image, do not press 'spacebar'.",Images/Happy/AF27HAS.jpg,Happy,Yellow,Images/Yellow.jpg,space,ParentConditions/YellowBlueBlue_v2.xlsx,BlueBlueYellow,Conditions/Version_2/BlueFearStop.xlsx,no,PASS,0.8937289807404983,,,,,,,,,0,0,0,0,0,1,1,1,0,14,14,14,,,,,,,,,,,,,,,,,,,,,,,,,,,,,,,,,,,,,,,,,,,,,,,,,,,,,,,,,,,,,,,,,,,,,,,,,,,,,,,1.77,529.2011277999263,None,space,1,0.236237799981609,531.0726962999906,None,531.0726962999906,None,531.0726962999906,None,,,,,,,,,,,P011,fencog,2,Pre,2021_Sep_07_1113,Go No-Go Task,2021.1.4,119.99860806142595,
,"Rule: When you see blue image, do not press 'spacebar'.",Images/Happy/BF10_HO.jpg,Happy,Yellow,Images/Yellow.jpg,space,ParentConditions/YellowBlueBlue_v2.xlsx,BlueBlueYellow,Conditions/Version_2/BlueFearStop.xlsx,no,PASS,0.41505973664432705,,,,,,,,,0,0,0,0,0,1,1,1,0,15,15,15,,,,,,,,,,,,,,,,,,,,,,,,,,,,,,,,,,,,,,,,,,,,,,,,,,,,,,,,,,,,,,,,,,,,,,,,,,,,,,,1.74,531.4722092999145,None,space,1,0.2673641999717802,533.3054344998673,None,533.3054344998673,None,533.3054344998673,None,,,,,,,,,,,P011,fencog,2,Pre,2021_Sep_07_1113,Go No-Go Task,2021.1.4,119.99860806142595,
,"Rule: When you see blue image, do not press 'spacebar'.",Images/Happy/BF14_HO.jpg,Happy,Yellow,Images/Yellow.jpg,space,ParentConditions/YellowBlueBlue_v2.xlsx,BlueBlueYellow,Conditions/Version_2/BlueFearStop.xlsx,no,PASS,0.38735807018105894,,,,,,,,,0,0,0,0,0,1,1,1,0,16,16,16,,,,,,,,,,,,,,,,,,,,,,,,,,,,,,,,,,,,,,,,,,,,,,,,,,,,,,,,,,,,,,,,,,,,,,,,,,,,,,,1.65,533.7068594000302,None,space,1,0.25376330013386905,535.4631298999302,None,535.4631298999302,None,535.4631298999302,None,,,,,,,,,,,P011,fencog,2,Pre,2021_Sep_07_1113,Go No-Go Task,2021.1.4,119.99860806142595,
,"Rule: When you see blue image, do not press 'spacebar'.",Images/Fearful/BM08_FC.jpg,Fear,Blue,Images/Blue.jpg,None,ParentConditions/YellowBlueBlue_v2.xlsx,BlueBlueYellow,Conditions/Version_2/BlueFearStop.xlsx,yes,PASS,0.7905879335514261,,,,,,,,,0,0,0,0,0,1,1,1,0,17,17,17,,,,,,,,,,,,,,,,,,,,,,,,,,,,,,,,,,,,,,,,,,,,,,,,,,,,,,,,,,,,,,,,,,,,,,,,,,,,,,,2,535.8620583999436,None,None,1,,537.9624830000103,None,537.9624830000103,None,537.9624830000103,None,,,,,,,,,,,P011,fencog,2,Pre,2021_Sep_07_1113,Go No-Go Task,2021.1.4,119.99860806142595,
,"Rule: When you see blue image, do not press 'spacebar'.",Images/Happy/AM01HAS.jpg,Happy,Yellow,Images/Yellow.jpg,space,ParentConditions/YellowBlueBlue_v2.xlsx,BlueBlueYellow,Conditions/Version_2/BlueFearStop.xlsx,no,PASS,0.9589705349559869,,,,,,,,,0,0,0,0,0,1,1,1,0,18,18,18,,,,,,,,,,,,,,,,,,,,,,,,,,,,,,,,,,,,,,,,,,,,,,,,,,,,,,,,,,,,,,,,,,,,,,,,,,,,,,,1.57,538.3633727000561,None,space,1,0.32056650007143617,540.0367078999989,None,540.0367078999989,None,540.0367078999989,None,,,,,,,,,,,P011,fencog,2,Pre,2021_Sep_07_1113,Go No-Go Task,2021.1.4,119.99860806142595,
,"Rule: When you see blue image, do not press 'spacebar'.",Images/Happy/AF11HAS.jpg,Happy,Yellow,Images/Yellow.jpg,space,ParentConditions/YellowBlueBlue_v2.xlsx,BlueBlueYellow,Conditions/Version_2/BlueFearStop.xlsx,no,PASS,0.6358882343202421,,,,,,,,,0,0,0,0,0,1,1,1,0,19,19,19,,,,,,,,,,,,,,,,,,,,,,,,,,,,,,,,,,,,,,,,,,,,,,,,,,,,,,,,,,,,,,,,,,,,,,,,,,,,,,,1.76,540.4418375999667,None,space,1,0.2544188001193106,542.3027894999832,None,542.3027894999832,None,542.3027894999832,None,,,,,,,,,,,P011,fencog,2,Pre,2021_Sep_07_1113,Go No-Go Task,2021.1.4,119.99860806142595,
,"Rule: When you see blue image, do not press 'spacebar'.",Images/Happy/BM01_HO.jpg,Happy,Yellow,Images/Yellow.jpg,space,ParentConditions/YellowBlueBlue_v2.xlsx,BlueBlueYellow,Conditions/Version_2/BlueFearStop.xlsx,no,PASS,0.301040907790301,,,,,,,,,0,0,0,0,0,1,1,1,0,20,20,20,,,,,,,,,,,,,,,,,,,,,,,,,,,,,,,,,,,,,,,,,,,,,,,,,,,,,,,,,,,,,,,,,,,,,,,,,,,,,,,1.5,542.7068831999786,None,space,1,0.24651660001836717,544.3104671998881,None,544.3104671998881,None,544.3104671998881,None,,,,,,,,,,,P011,fencog,2,Pre,2021_Sep_07_1113,Go No-Go Task,2021.1.4,119.99860806142595,
,"Rule: When you see blue image, do not press 'spacebar'.",Images/Happy/AF07_HO.jpg,Happy,Yellow,Images/Yellow.jpg,space,ParentConditions/YellowBlueBlue_v2.xlsx,BlueBlueYellow,Conditions/Version_2/BlueFearStop.xlsx,no,PASS,0.16146803476355298,,,,,,,,,0,0,0,0,0,1,1,1,0,21,21,21,,,,,,,,,,,,,,,,,,,,,,,,,,,,,,,,,,,,,,,,,,,,,,,,,,,,,,,,,,,,,,,,,,,,,,,,,,,,,,,1.6,544.716793099884,None,space,1,0.2916650001425296,546.4181526000611,None,546.4181526000611,None,546.4181526000611,None,,,,,,,,,,,P011,fencog,2,Pre,2021_Sep_07_1113,Go No-Go Task,2021.1.4,119.99860806142595,
,"Rule: When you see blue image, do not press 'spacebar'.",Images/Happy/HM06_HO.jpg,Happy,Yellow,Images/Yellow.jpg,space,ParentConditions/YellowBlueBlue_v2.xlsx,BlueBlueYellow,Conditions/Version_2/BlueFearStop.xlsx,no,PASS,0.017367743981932304,,,,,,,,,0,0,0,0,0,1,1,1,0,22,22,22,,,,,,,,,,,,,,,,,,,,,,,,,,,,,,,,,,,,,,,,,,,,,,,,,,,,,,,,,,,,,,,,,,,,,,,,,,,,,,,1.37,546.8283380998764,None,space,1,0.2567722999956459,548.3009865998756,None,548.3009865998756,None,548.3009865998756,None,,,,,,,,,,,P011,fencog,2,Pre,2021_Sep_07_1113,Go No-Go Task,2021.1.4,119.99860806142595,
,"Rule: When you see blue image, do not press 'spacebar'.",Images/Fearful/AM09_FO.jpg,Fear,Blue,Images/Blue.jpg,None,ParentConditions/YellowBlueBlue_v2.xlsx,BlueBlueYellow,Conditions/Version_2/BlueFearStop.xlsx,yes,PASS,0.2997278789301355,,,,,,,,,0,0,0,0,0,1,1,1,0,23,23,23,,,,,,,,,,,,,,,,,,,,,,,,,,,,,,,,,,,,,,,,,,,,,,,,,,,,,,,,,,,,,,,,,,,,,,,,,,,,,,,1.54,548.703700499842,None,space,0,0.26339560002088547,550.3503642999567,None,550.3503642999567,None,550.3503642999567,None,,,,,,,,,,,P011,fencog,2,Pre,2021_Sep_07_1113,Go No-Go Task,2021.1.4,119.99860806142595,
,"Rule: When you see blue image, do not press 'spacebar'.",Images/Happy/AF09HAS.jpg,Happy,Yellow,Images/Yellow.jpg,space,ParentConditions/YellowBlueBlue_v2.xlsx,BlueBlueYellow,Conditions/Version_2/BlueFearStop.xlsx,no,PASS,0.8273900201130844,,,,,,,,,0,0,0,0,0,1,1,1,0,24,24,24,,,,,,,,,,,,,,,,,,,,,,,,,,,,,,,,,,,,,,,,,,,,,,,,,,,,,,,,,,,,,,,,,,,,,,,,,,,,,,,1.87,550.7563674000558,None,space,1,0.21645790012553334,552.7326628998853,None,552.7326628998853,None,552.7326628998853,None,,,,,,,,,,,P011,fencog,2,Pre,2021_Sep_07_1113,Go No-Go Task,2021.1.4,119.99860806142595,
,"Rule: When you see blue image, do not press 'spacebar'.",Images/Happy/AM04HAS.jpg,Happy,Yellow,Images/Yellow.jpg,space,ParentConditions/YellowBlueBlue_v2.xlsx,BlueBlueYellow,Conditions/Version_2/BlueFearStop.xlsx,no,PASS,0.7497236344439144,,,,,,,,,0,0,0,0,0,1,1,1,0,25,25,25,,,,,,,,,,,,,,,,,,,,,,,,,,,,,,,,,,,,,,,,,,,,,,,,,,,,,,,,,,,,,,,,,,,,,,,,,,,,,,,1.47,553.1328527999576,None,space,1,0.25761030009016395,554.7075123998802,None,554.7075123998802,None,554.7075123998802,None,,,,,,,,,,,P011,fencog,2,Pre,2021_Sep_07_1113,Go No-Go Task,2021.1.4,119.99860806142595,
,"Rule: When you see blue image, do not press 'spacebar'.",Images/Happy/BF07_HO.jpg,Happy,Yellow,Images/Yellow.jpg,space,ParentConditions/YellowBlueBlue_v2.xlsx,BlueBlueYellow,Conditions/Version_2/BlueFearStop.xlsx,no,PASS,0.9631973209169931,,,,,,,,,0,0,0,0,0,1,1,1,0,26,26,26,,,,,,,,,,,,,,,,,,,,,,,,,,,,,,,,,,,,,,,,,,,,,,,,,,,,,,,,,,,,,,,,,,,,,,,,,,,,,,,1.97,555.11310279998,None,space,1,0.1990714999847114,557.1899486000184,None,557.1899486000184,None,557.1899486000184,None,,,,,,,,,,,P011,fencog,2,Pre,2021_Sep_07_1113,Go No-Go Task,2021.1.4,119.99860806142595,
,"Rule: When you see blue image, do not press 'spacebar'.",Images/Happy/AF02HAS.jpg,Happy,Yellow,Images/Yellow.jpg,space,ParentConditions/YellowBlueBlue_v2.xlsx,BlueBlueYellow,Conditions/Version_2/BlueFearStop.xlsx,no,PASS,0.44316288931410874,,,,,,,,,0,0,0,0,0,1,1,1,0,27,27,27,,,,,,,,,,,,,,,,,,,,,,,,,,,,,,,,,,,,,,,,,,,,,,,,,,,,,,,,,,,,,,,,,,,,,,,,,,,,,,,1.75,557.5897168999072,None,space,1,0.3015690001193434,559.447440699907,None,559.447440699907,None,559.447440699907,None,,,,,,,,,,,P011,fencog,2,Pre,2021_Sep_07_1113,Go No-Go Task,2021.1.4,119.99860806142595,
,"Rule: When you see blue image, do not press 'spacebar'.",Images/Happy/AM30HAS.jpg,Happy,Yellow,Images/Yellow.jpg,space,ParentConditions/YellowBlueBlue_v2.xlsx,BlueBlueYellow,Conditions/Version_2/BlueFearStop.xlsx,no,PASS,0.8101164063536405,,,,,,,,,0,0,0,0,0,1,1,1,0,28,28,28,,,,,,,,,,,,,,,,,,,,,,,,,,,,,,,,,,,,,,,,,,,,,,,,,,,,,,,,,,,,,,,,,,,,,,,,,,,,,,,1.56,559.8570858999155,None,space,1,0.31506099994294345,561.5218577999622,None,561.5218577999622,None,561.5218577999622,None,,,,,,,,,,,P011,fencog,2,Pre,2021_Sep_07_1113,Go No-Go Task,2021.1.4,119.99860806142595,
,"Rule: When you see blue image, do not press 'spacebar'.",Images/Happy/BF05_HO.jpg,Happy,Yellow,Images/Yellow.jpg,space,ParentConditions/YellowBlueBlue_v2.xlsx,BlueBlueYellow,Conditions/Version_2/BlueFearStop.xlsx,no,PASS,0.6770609167729968,,,,,,,,,0,0,0,0,0,1,1,1,0,29,29,29,,,,,,,,,,,,,,,,,,,,,,,,,,,,,,,,,,,,,,,,,,,,,,,,,,,,,,,,,,,,,,,,,,,,,,,,,,,,,,,1.3,561.9233154999092,None,space,1,0.31498390017077327,563.3299358999357,None,563.3299358999357,None,563.3299358999357,None,,,,,,,,,,,P011,fencog,2,Pre,2021_Sep_07_1113,Go No-Go Task,2021.1.4,119.99860806142595,
,"Rule: When you see blue image, do not press 'spacebar'.",Images/Fearful/AF25AFS.jpg,Fear,Blue,Images/Blue.jpg,None,ParentConditions/YellowBlueBlue_v2.xlsx,BlueBlueYellow,Conditions/Version_2/BlueFearStop.xlsx,yes,PASS,0.9137328829424104,,,,,,,,,0,0,0,0,0,1,1,1,0,30,30,30,,,,,,,,,,,,,,,,,,,,,,,,,,,,,,,,,,,,,,,,,,,,,,,,,,,,,,,,,,,,,,,,,,,,,,,,,,,,,,,1.45,563.7403551999014,None,None,1,,565.295918900054,None,565.295918900054,None,565.295918900054,None,,,,,,,,,,,P011,fencog,2,Pre,2021_Sep_07_1113,Go No-Go Task,2021.1.4,119.99860806142595,
,"Rule: When you see blue image, do not press 'spacebar'.",Images/Happy/BF09_HO.jpg,Happy,Yellow,Images/Yellow.jpg,space,ParentConditions/YellowBlueBlue_v2.xlsx,BlueBlueYellow,Conditions/Version_2/BlueFearStop.xlsx,no,PASS,0.7233148419047607,,,,,,,,,0,0,0,0,0,1,1,1,0,31,31,31,,,,,,,,,,,,,,,,,,,,,,,,,,,,,,,,,,,,,,,,,,,,,,,,,,,,,,,,,,,,,,,,,,,,,,,,,,,,,,,1.78,565.7371236998588,None,space,1,0.25670330016873777,567.6119792000391,None,567.6119792000391,None,567.6119792000391,None,,,,,,,,,,,P011,fencog,2,Pre,2021_Sep_07_1113,Go No-Go Task,2021.1.4,119.99860806142595,
,"Rule: When you see blue image, do not press 'spacebar'.",Images/Happy/AM09_HE.jpg,Happy,Yellow,Images/Yellow.jpg,space,ParentConditions/YellowBlueBlue_v2.xlsx,BlueBlueYellow,Conditions/Version_2/BlueFearStop.xlsx,no,PASS,0.703399731728546,,,,,,,,,0,0,0,0,0,1,1,1,0,32,32,32,,,,,,,,,,,,,,,,,,,,,,,,,,,,,,,,,,,,,,,,,,,,,,,,,,,,,,,,,,,,,,,,,,,,,,,,,,,,,,,1.88,568.0141181000508,None,space,1,0.20258380006998777,569.9946186000016,None,569.9946186000016,None,569.9946186000016,None,,,,,,,,,,,P011,fencog,2,Pre,2021_Sep_07_1113,Go No-Go Task,2021.1.4,119.99860806142595,
,"Rule: When you see blue image, do not press 'spacebar'.",Images/Fearful/BF14_FO.jpg,Fear,Blue,Images/Blue.jpg,None,ParentConditions/YellowBlueBlue_v2.xlsx,BlueBlueYellow,Conditions/Version_2/BlueFearStop.xlsx,yes,PASS,0.641858343679783,,,,,,,,,0,0,0,0,0,1,1,1,0,33,33,33,,,,,,,,,,,,,,,,,,,,,,,,,,,,,,,,,,,,,,,,,,,,,,,,,,,,,,,,,,,,,,,,,,,,,,,,,,,,,,,1.21,570.3949750999454,None,None,1,,571.7023473000154,None,571.7023473000154,None,571.7023473000154,None,,,,,,,,,,,P011,fencog,2,Pre,2021_Sep_07_1113,Go No-Go Task,2021.1.4,119.99860806142595,
,"Rule: When you see blue image, do not press 'spacebar'.",Images/Fearful/HF05_FC.jpg,Fear,Blue,Images/Blue.jpg,None,ParentConditions/YellowBlueBlue_v2.xlsx,BlueBlueYellow,Conditions/Version_2/BlueFearStop.xlsx,yes,PASS,0.11935527908981858,,,,,,,,,0,0,0,0,0,1,1,1,0,34,34,34,,,,,,,,,,,,,,,,,,,,,,,,,,,,,,,,,,,,,,,,,,,,,,,,,,,,,,,,,,,,,,,,,,,,,,,,,,,,,,,1.62,572.1018632999621,None,space,0,0.28254800010472536,573.8268206999637,None,573.8268206999637,None,573.8268206999637,None,,,,,,,,,,,P011,fencog,2,Pre,2021_Sep_07_1113,Go No-Go Task,2021.1.4,119.99860806142595,
,"Rule: When you see blue image, do not press 'spacebar'.",Images/Happy/AM23HAS.jpg,Happy,Yellow,Images/Yellow.jpg,space,ParentConditions/YellowBlueBlue_v2.xlsx,BlueBlueYellow,Conditions/Version_2/BlueFearStop.xlsx,no,PASS,0.4310663721908784,,,,,,,,,0,0,0,0,0,1,1,1,0,35,35,35,,,,,,,,,,,,,,,,,,,,,,,,,,,,,,,,,,,,,,,,,,,,,,,,,,,,,,,,,,,,,,,,,,,,,,,,,,,,,,,1.63,574.227465499891,None,None,0,,575.9511480999645,None,575.9511480999645,None,575.9511480999645,None,,,,,,,,,,,P011,fencog,2,Pre,2021_Sep_07_1113,Go No-Go Task,2021.1.4,119.99860806142595,
,"Rule: When you see blue image, do not press 'spacebar'.",Images/Happy/AM03_HO.jpg,Happy,Yellow,Images/Yellow.jpg,space,ParentConditions/YellowBlueBlue_v2.xlsx,BlueBlueYellow,Conditions/Version_2/BlueFearStop.xlsx,no,PASS,0.027367773514368476,,,,,,,,,0,0,0,0,0,1,1,1,0,36,36,36,,,,,,,,,,,,,,,,,,,,,,,,,,,,,,,,,,,,,,,,,,,,,,,,,,,,,,,,,,,,,,,,,,,,,,,,,,,,,,,1.98,576.3590384998824,None,space,1,0.27507480001077056,578.4420340999495,None,578.4420340999495,None,578.4420340999495,None,,,,,,,,,,,P011,fencog,2,Pre,2021_Sep_07_1113,Go No-Go Task,2021.1.4,119.99860806142595,
,"Rule: When you see blue image, do not press 'spacebar'.",Images/Happy/AF25HAS.jpg,Happy,Yellow,Images/Yellow.jpg,space,ParentConditions/YellowBlueBlue_v2.xlsx,BlueBlueYellow,Conditions/Version_2/BlueFearStop.xlsx,no,PASS,0.04870321560414337,,,,,,,,,0,0,0,0,0,1,1,1,0,37,37,37,,,,,,,,,,,,,,,,,,,,,,,,,,,,,,,,,,,,,,,,,,,,,,,,,,,,,,,,,,,,,,,,,,,,,,,,,,,,,,,1.29,578.8476928998716,None,space,1,0.2676711999811232,580.2415195999201,None,580.2415195999201,None,580.2415195999201,None,,,,,,,,,,,P011,fencog,2,Pre,2021_Sep_07_1113,Go No-Go Task,2021.1.4,119.99860806142595,
,"Rule: When you see blue image, do not press 'spacebar'.",Images/Happy/BM08_HO.jpg,Happy,Yellow,Images/Yellow.jpg,space,ParentConditions/YellowBlueBlue_v2.xlsx,BlueBlueYellow,Conditions/Version_2/BlueFearStop.xlsx,no,PASS,0.026169495354104844,,,,,,,,,0,0,0,0,0,1,1,1,0,38,38,38,,,,,,,,,,,,,,,,,,,,,,,,,,,,,,,,,,,,,,,,,,,,,,,,,,,,,,,,,,,,,,,,,,,,,,,,,,,,,,,1.64,580.6443955998402,None,space,1,0.3022002999205142,582.3909567999654,None,582.3909567999654,None,582.3909567999654,None,,,,,,,,,,,P011,fencog,2,Pre,2021_Sep_07_1113,Go No-Go Task,2021.1.4,119.99860806142595,
,"Rule: When you see blue image, do not press 'spacebar'.",Images/Happy/AF32HAS.jpg,Happy,Yellow,Images/Yellow.jpg,space,ParentConditions/YellowBlueBlue_v2.xlsx,BlueBlueYellow,Conditions/Version_2/BlueFearStop.xlsx,no,PASS,0.007662007482450273,,,,,,,,,0,0,0,0,0,1,1,1,0,39,39,39,,,,,,,,,,,,,,,,,,,,,,,,,,,,,,,,,,,,,,,,,,,,,,,,,,,,,,,,,,,,,,,,,,,,,,,,,,,,,,,1.89,582.7951459998731,None,None,0,,584.7902416998986,None,584.7902416998986,None,584.7902416998986,None,,,,,,,,,,,P011,fencog,2,Pre,2021_Sep_07_1113,Go No-Go Task,2021.1.4,119.99860806142595,
,"Rule: When you see blue image, do not press 'spacebar'.",Images/Happy/AF23HAS.jpg,Happy,Yellow,Images/Yellow.jpg,space,ParentConditions/YellowBlueBlue_v2.xlsx,BlueBlueYellow,Conditions/Version_2/BlueFearStop.xlsx,no,PASS,0.13322659163638806,,,,,,,,,0,0,0,0,0,1,1,1,0,40,40,40,,,,,,,,,,,,,,,,,,,,,,,,,,,,,,,,,,,,,,,,,,,,,,,,,,,,,,,,,,,,,,,,,,,,,,,,,,,,,,,1.68,585.1941343999933,None,None,0,,586.9812449999154,None,586.9812449999154,None,586.9812449999154,None,,,,,,,,,,,P011,fencog,2,Pre,2021_Sep_07_1113,Go No-Go Task,2021.1.4,119.99860806142595,
,"Rule: When you see blue image, do not press 'spacebar'.",Images/Happy/AM32HAS.jpg,Happy,Yellow,Images/Yellow.jpg,space,ParentConditions/YellowBlueBlue_v2.xlsx,BlueBlueYellow,Conditions/Version_2/BlueFearStop.xlsx,no,PASS,0.18790539518346805,,,,,,,,,0,0,0,0,0,1,1,1,0,41,41,41,,,,,,,,,,,,,,,,,,,,,,,,,,,,,,,,,,,,,,,,,,,,,,,,,,,,,,,,,,,,,,,,,,,,,,,,,,,,,,,1.24,587.3843079998624,None,space,1,0.258754099952057,588.7306812000461,None,588.7306812000461,None,588.7306812000461,None,,,,,,,,,,,P011,fencog,2,Pre,2021_Sep_07_1113,Go No-Go Task,2021.1.4,119.99860806142595,
,"Rule: When you see blue image, do not press 'spacebar'.",Images/Fearful/AM30AFS.jpg,Fear,Blue,Images/Blue.jpg,None,ParentConditions/YellowBlueBlue_v2.xlsx,BlueBlueYellow,Conditions/Version_2/BlueFearStop.xlsx,yes,PASS,0.3894428318578558,,,,,,,,,0,0,0,0,0,1,1,1,0,42,42,42,,,,,,,,,,,,,,,,,,,,,,,,,,,,,,,,,,,,,,,,,,,,,,,,,,,,,,,,,,,,,,,,,,,,,,,,,,,,,,,1.28,589.1393049999606,None,None,1,,590.5218587999698,None,590.5218587999698,None,590.5218587999698,None,,,,,,,,,,,P011,fencog,2,Pre,2021_Sep_07_1113,Go No-Go Task,2021.1.4,119.99860806142595,
,"Rule: When you see blue image, do not press 'spacebar'.",Images/Happy/BM02_HO.jpg,Happy,Yellow,Images/Yellow.jpg,space,ParentConditions/YellowBlueBlue_v2.xlsx,BlueBlueYellow,Conditions/Version_2/BlueFearStop.xlsx,no,PASS,0.8000984906086622,,,,,,,,,0,0,0,0,0,1,1,1,0,43,43,43,,,,,,,,,,,,,,,,,,,,,,,,,,,,,,,,,,,,,,,,,,,,,,,,,,,,,,,,,,,,,,,,,,,,,,,,,,,,,,,1.72,590.9238483000081,None,space,1,0.290272600017488,592.746250399854,None,592.746250399854,None,592.746250399854,None,,,,,,,,,,,P011,fencog,2,Pre,2021_Sep_07_1113,Go No-Go Task,2021.1.4,119.99860806142595,
,"Rule: When you see blue image, do not press 'spacebar'.",Images/Happy/AM10_HO.jpg,Happy,Yellow,Images/Yellow.jpg,space,ParentConditions/YellowBlueBlue_v2.xlsx,BlueBlueYellow,Conditions/Version_2/BlueFearStop.xlsx,no,PASS,0.5717939201397183,,,,,,,,,0,0,0,0,0,1,1,1,0,44,44,44,,,,,,,,,,,,,,,,,,,,,,,,,,,,,,,,,,,,,,,,,,,,,,,,,,,,,,,,,,,,,,,,,,,,,,,,,,,,,,,1.23,593.1454256998841,None,space,1,0.2542545001488179,594.4790447000414,None,594.4790447000414,None,594.4790447000414,None,,,,,,,,,,,P011,fencog,2,Pre,2021_Sep_07_1113,Go No-Go Task,2021.1.4,119.99860806142595,
,"Rule: When you see blue image, do not press 'spacebar'.",Images/Fearful/AM10_FO.jpg,Fear,Blue,Images/Blue.jpg,None,ParentConditions/YellowBlueBlue_v2.xlsx,BlueBlueYellow,Conditions/Version_2/BlueFearStop.xlsx,yes,PASS,0.5269701617606191,,,,,,,,,0,0,0,0,0,1,1,1,0,45,45,45,,,,,,,,,,,,,,,,,,,,,,,,,,,,,,,,,,,,,,,,,,,,,,,,,,,,,,,,,,,,,,,,,,,,,,,,,,,,,,,1.48,594.8803036999889,None,space,0,0.25490259984508157,596.4617613998707,None,596.4617613998707,None,596.4617613998707,None,,,,,,,,,,,P011,fencog,2,Pre,2021_Sep_07_1113,Go No-Go Task,2021.1.4,119.99860806142595,
,"Rule: When you see blue image, do not press 'spacebar'.",Images/Happy/AF19HAS.jpg,Happy,Yellow,Images/Yellow.jpg,space,ParentConditions/YellowBlueBlue_v2.xlsx,BlueBlueYellow,Conditions/Version_2/BlueFearStop.xlsx,no,PASS,0.6170839926730745,,,,,,,,,0,0,0,0,0,1,1,1,0,46,46,46,,,,,,,,,,,,,,,,,,,,,,,,,,,,,,,,,,,,,,,,,,,,,,,,,,,,,,,,,,,,,,,,,,,,,,,,,,,,,,,1.96,596.860688299872,None,space,1,0.2539276999887079,598.9276767000556,None,598.9276767000556,None,598.9276767000556,None,,,,,,,,,,,P011,fencog,2,Pre,2021_Sep_07_1113,Go No-Go Task,2021.1.4,119.99860806142595,
,"Rule: When you see blue image, do not press 'spacebar'.",Images/Fearful/HF09_FC.jpg,Fear,Blue,Images/Blue.jpg,None,ParentConditions/YellowBlueBlue_v2.xlsx,BlueBlueYellow,Conditions/Version_2/BlueFearStop.xlsx,yes,PASS,0.03424286048079783,,,,,,,,,0,0,0,0,0,1,1,1,0,47,47,47,,,,,,,,,,,,,,,,,,,,,,,,,,,,,,,,,,,,,,,,,,,,,,,,,,,,,,,,,,,,,,,,,,,,,,,,,,,,,,,1.55,599.3281749000307,None,space,0,0.33183329994790256,600.985470399959,None,600.985470399959,None,600.985470399959,None,,,,,,,,,,,P011,fencog,2,Pre,2021_Sep_07_1113,Go No-Go Task,2021.1.4,119.99860806142595,
,"Rule: When you see blue image, do not press 'spacebar'.",Images/Fearful/AM22AFS.jpg,Fear,Blue,Images/Blue.jpg,None,ParentConditions/YellowBlueBlue_v2.xlsx,BlueBlueYellow,Conditions/Version_2/BlueFearStop.xlsx,yes,PASS,0.9945919074829972,,,,,,,,,0,0,0,0,0,1,1,1,0,48,48,48,,,,,,,,,,,,,,,,,,,,,,,,,,,,,,,,,,,,,,,,,,,,,,,,,,,,,,,,,,,,,,,,,,,,,,,,,,,,,,,1.83,601.3894742999692,None,None,1,,603.32643190003,None,603.32643190003,None,603.32643190003,None,,,,,,,,,,,P011,fencog,2,Pre,2021_Sep_07_1113,Go No-Go Task,2021.1.4,119.99860806142595,
,"Rule: When you see blue image, do not press 'spacebar'.",Images/Happy/AM06_HC.jpg,Happy,Yellow,Images/Yellow.jpg,space,ParentConditions/YellowBlueBlue_v2.xlsx,BlueBlueYellow,Conditions/Version_2/BlueFearStop.xlsx,no,PASS,0.15639026645094434,,,,,,,,,0,0,0,0,0,1,1,1,0,49,49,49,,,,,,,,,,,,,,,,,,,,,,,,,,,,,,,,,,,,,,,,,,,,,,,,,,,,,,,,,,,,,,,,,,,,,,,,,,,,,,,1.7,603.7266607000493,None,space,1,0.38288940000347793,605.534073599847,None,605.534073599847,None,605.534073599847,None,,,,,,,,,,,P011,fencog,2,Pre,2021_Sep_07_1113,Go No-Go Task,2021.1.4,119.99860806142595,
,"Rule: When you see blue image, do not press 'spacebar'.",Images/Fearful/AM32AFS.jpg,Fear,Blue,Images/Blue.jpg,None,ParentConditions/YellowBlueBlue_v2.xlsx,BlueBlueYellow,Conditions/Version_2/BlueFearStop.xlsx,yes,PASS,0.6879520753296126,,,,,,,,,0,0,0,0,0,1,1,1,0,50,50,50,,,,,,,,,,,,,,,,,,,,,,,,,,,,,,,,,,,,,,,,,,,,,,,,,,,,,,,,,,,,,,,,,,,,,,,,,,,,,,,1.91,605.9384761999827,None,None,1,,607.9500231998973,None,607.9500231998973,None,607.9500231998973,None,,,,,,,,,,,P011,fencog,2,Pre,2021_Sep_07_1113,Go No-Go Task,2021.1.4,119.99860806142595,
,"Rule: When you see blue image, do not press 'spacebar'.",Images/Happy/WF11_HE.jpg,Happy,Yellow,Images/Yellow.jpg,space,ParentConditions/YellowBlueBlue_v2.xlsx,BlueBlueYellow,Conditions/Version_2/BlueFearStop.xlsx,no,PASS,0.0583479260669304,,,,,,,,,0,0,0,0,0,1,1,1,0,51,51,51,,,,,,,,,,,,,,,,,,,,,,,,,,,,,,,,,,,,,,,,,,,,,,,,,,,,,,,,,,,,,,,,,,,,,,,,,,,,,,,1.26,608.3519691000693,None,space,1,0.3377129000145942,609.7161391000263,None,609.7161391000263,None,609.7161391000263,None,,,,,,,,,,,P011,fencog,2,Pre,2021_Sep_07_1113,Go No-Go Task,2021.1.4,119.99860806142595,
,"Rule: When you see blue image, do not press 'spacebar'.",Images/Fearful/AF28AFS.jpg,Fear,Blue,Images/Blue.jpg,None,ParentConditions/YellowBlueBlue_v2.xlsx,BlueBlueYellow,Conditions/Version_2/BlueFearStop.xlsx,yes,PASS,0.84152709172785,,,,,,,,,0,0,0,0,0,1,1,1,0,52,52,52,,,,,,,,,,,,,,,,,,,,,,,,,,,,,,,,,,,,,,,,,,,,,,,,,,,,,,,,,,,,,,,,,,,,,,,,,,,,,,,1.94,610.1165716999676,None,None,1,,612.1653684999328,None,612.1653684999328,None,612.1653684999328,None,,,,,,,,,,,P011,fencog,2,Pre,2021_Sep_07_1113,Go No-Go Task,2021.1.4,119.99860806142595,
,"Rule: When you see blue image, do not press 'spacebar'.",Images/Happy/HF04_HE.jpg,Happy,Yellow,Images/Yellow.jpg,space,ParentConditions/YellowBlueBlue_v2.xlsx,BlueBlueYellow,Conditions/Version_2/BlueFearStop.xlsx,no,PASS,0.4119172299729392,,,,,,,,,0,0,0,0,0,1,1,1,0,53,53,53,,,,,,,,,,,,,,,,,,,,,,,,,,,,,,,,,,,,,,,,,,,,,,,,,,,,,,,,,,,,,,,,,,,,,,,,,,,,,,,1.51,612.5645723000634,None,space,1,0.31138859991915524,614.1815855999012,None,614.1815855999012,None,614.1815855999012,None,,,,,,,,,,,P011,fencog,2,Pre,2021_Sep_07_1113,Go No-Go Task,2021.1.4,119.99860806142595,
,"Rule: When you see blue image, do not press 'spacebar'.",Images/Happy/AM13HAS.jpg,Happy,Yellow,Images/Yellow.jpg,space,ParentConditions/YellowBlueBlue_v2.xlsx,BlueBlueYellow,Conditions/Version_2/BlueFearStop.xlsx,no,PASS,0.1481016084905541,,,,,,,,,0,0,0,0,0,1,1,1,0,54,54,54,,,,,,,,,,,,,,,,,,,,,,,,,,,,,,,,,,,,,,,,,,,,,,,,,,,,,,,,,,,,,,,,,,,,,,,,,,,,,,,1.92,614.5813086999115,None,space,1,0.2792800001334399,616.6058227999602,None,616.6058227999602,None,616.6058227999602,None,,,,,,,,,,,P011,fencog,2,Pre,2021_Sep_07_1113,Go No-Go Task,2021.1.4,119.99860806142595,
,"Rule: When you see blue image, do not press 'spacebar'.",Images/Happy/HF10_HE.jpg,Happy,Yellow,Images/Yellow.jpg,space,ParentConditions/YellowBlueBlue_v2.xlsx,BlueBlueYellow,Conditions/Version_2/BlueFearStop.xlsx,no,PASS,0.04388835754455167,,,,,,,,,0,0,0,0,0,1,1,1,0,55,55,55,,,,,,,,,,,,,,,,,,,,,,,,,,,,,,,,,,,,,,,,,,,,,,,,,,,,,,,,,,,,,,,,,,,,,,,,,,,,,,,1.49,617.0063640000299,None,space,1,0.2962132999673486,618.5969251999632,None,618.5969251999632,None,618.5969251999632,None,,,,,,,,,,,P011,fencog,2,Pre,2021_Sep_07_1113,Go No-Go Task,2021.1.4,119.99860806142595,
,"Rule: When you see blue image, do not press 'spacebar'.",Images/Happy/AM04_HE.jpg,Happy,Yellow,Images/Yellow.jpg,space,ParentConditions/YellowBlueBlue_v2.xlsx,BlueBlueYellow,Conditions/Version_2/BlueFearStop.xlsx,no,PASS,0.8425689490019698,,,,,,,,,0,0,0,0,0,1,1,1,0,56,56,56,,,,,,,,,,,,,,,,,,,,,,,,,,,,,,,,,,,,,,,,,,,,,,,,,,,,,,,,,,,,,,,,,,,,,,,,,,,,,,,1.36,618.9966822999995,None,space,1,0.2700901997741312,620.4629887999035,None,620.4629887999035,None,620.4629887999035,None,,,,,,,,,,,P011,fencog,2,Pre,2021_Sep_07_1113,Go No-Go Task,2021.1.4,119.99860806142595,
