CondFileP,Instructions,FaceE,Express,ColourT,ColourF,CorrectAnsP,MasterCondFile,BlockOrder,CondFile,ColCheck,Triplicate_check,SORT_BY_SMALLEST,EPracticeOuterLoop.thisRepN,EPracticeOuterLoop.thisTrialN,EPracticeOuterLoop.thisN,EPracticeOuterLoop.thisIndex,EPracticeInnerLoop.thisRepN,EPracticeInnerLoop.thisTrialN,EPracticeInnerLoop.thisN,EPracticeInnerLoop.thisIndex,MasterLoop.thisRepN,MasterLoop.thisTrialN,MasterLoop.thisN,MasterLoop.thisIndex,OuterLoop.thisRepN,OuterLoop.thisTrialN,OuterLoop.thisN,OuterLoop.thisIndex,InnerLoop.thisRepN,InnerLoop.thisTrialN,InnerLoop.thisN,InnerLoop.thisIndex,text_13.started,text_13.stopped,key_resp_10.keys,key_resp_10.rt,key_resp_10.started,key_resp_10.stopped,text4.started,text4.stopped,EmotionTaskInstructions1.keys,EmotionTaskInstructions1.rt,EmotionTaskInstructions1.started,EmotionTaskInstructions1.stopped,text_4.started,text_4.stopped,key_resp_5.keys,key_resp_5.rt,key_resp_5.started,key_resp_5.stopped,Text_14.started,Text_14.stopped,key_resp_9.keys,key_resp_9.rt,key_resp_9.started,key_resp_9.stopped,text_5.started,text_5.stopped,text_6.started,text_6.stopped,key_resp_7.keys,key_resp_7.rt,key_resp_7.started,key_resp_7.stopped,text_10.started,text_10.stopped,text_11.started,text_11.stopped,text_12.started,text_12.stopped,ISIjitterPractice,EPracticeISIMarker.started,EPracticeISIMarker.stopped,Pract.keys,Pract.corr,Pract.rt,Pract.started,Pract.stopped,PracticeFace.started,PracticeFace.stopped,ColourPractice.started,ColourPractice.stopped,text_7.started,text_7.stopped,EndOfPractice.started,EndOfPractice.stopped,key_resp_8.keys,key_resp_8.rt,key_resp_8.started,key_resp_8.stopped,text_8.started,text_8.stopped,key_resp_6.keys,key_resp_6.rt,key_resp_6.started,key_resp_6.stopped,text_2.started,text_2.stopped,text_3.started,text_3.stopped,key_resp_3.keys,key_resp_3.rt,key_resp_3.started,key_resp_3.stopped,TaskBlock.started,TaskBlock.stopped,BlockNo1.started,BlockNo1.stopped,OfBlock.started,OfBlock.stopped,ISIjitter,ISImarker.started,ISImarker.stopped,key_resp.keys,key_resp.corr,key_resp.rt,key_resp.started,key_resp.stopped,FaceSet.started,FaceSet.stopped,Colour.started,Colour.stopped,EndBlockText.started,EndBlockText.stopped,key_resp_4.keys,key_resp_4.rt,key_resp_4.started,key_resp_4.stopped,BreakText2.started,BreakText2.stopped,PressToContinue.started,PressToContinue.stopped,participant,Study Name,Task Version (required to run),PRE/POST,date,expName,psychopyVersion,frameRate
,,,,,,,,,,,,,,,,,,,,,,,,,,,,,,,,,48.7985056,None,space,14.9416566,49.7808806,None,,,,,,,,,,,,,,,,,,,,,,,,,,,,,,,,,,,,,,,,,,,,,,,,,,,,,,,,,,,,,,,,,,,,,,,,,,,,,,,,,,,,,,,,,,,,,,,P012,fencog,1,Post,2021_Oct_15_1121,Go No-Go Task,2021.1.4,120.0700731
,,,,,,,,,,,,,,,,,,,,,,,,,,,,,,,,,,,,,,,66.2416684,None,space,64.0570742,66.2416684,None,,,,,,,,,,,,,,,,,,,,,,,,,,,,,,,,,,,,,,,,,,,,,,,,,,,,,,,,,,,,,,,,,,,,,,,,,,,,,,,,,,,,,,,,,P012,fencog,1,Post,2021_Oct_15_1121,Go No-Go Task,2021.1.4,120.0700731
,,,,,,,,,,,,,,,,,,,,,,,,,,,,,,,,,,,,,,,,,,,,,130.3657927,None,space,3.9163018,130.3657927,None,,,,,,,,,,,,,,,,,,,,,,,,,,,,,,,,,,,,,,,,,,,,,,,,,,,,,,,,,,,,,,,,,,,,,,,,,,,,,,,,,,,P012,fencog,1,Post,2021_Oct_15_1121,Go No-Go Task,2021.1.4,120.0700731
,,,,,,,,,,,,,,,,,,,,,,,,,,,,,,,,,,,,,,,,,,,,,,,,,,,134.291683,None,space,1.3024652,134.291683,None,,,,,,,,,,,,,,,,,,,,,,,,,,,,,,,,,,,,,,,,,,,,,,,,,,,,,,,,,,,,,,,,,,,,,,,,,,,,,P012,fencog,1,Post,2021_Oct_15_1121,Go No-Go Task,2021.1.4,120.0700731
EPracticeConditions/BlueEyes.csv,"Rule: When you see a blue image, do not press 'spacebar'.",Images/Happy/BM02_HO.jpg,Happy,Yellow,Images/Yellow.jpg,space,,,,,,,0,0,0,0,0,0,0,2,,,,,,,,,,,,,,,,,,,,,,,,,,,,,,,,,,,,,135.6706468,None,138.6632937,None,space,0.1391809,138.6632937,None,135.6706468,None,135.6706468,None,135.6706468,None,1.7,138.9239363,None,space,1,0.2731804,140.7851287,None,140.7851287,None,140.7851287,None,141.9928441,None,,,,,,,,,,,,,,,,,,,,,,,,,,,,,,,,,,,,,,,,,,,,,,,,,P012,fencog,1,Post,2021_Oct_15_1121,Go No-Go Task,2021.1.4,120.0700731
EPracticeConditions/BlueEyes.csv,"Rule: When you see a blue image, do not press 'spacebar'.",Images/Happy/HF05_HO.jpg,Happy,Yellow,Images/Yellow.jpg,space,,,,,,,0,0,0,0,0,1,1,5,,,,,,,,,,,,,,,,,,,,,,,,,,,,,,,,,,,,,,,,,,,,,,,,,,,1.3,143.668474,None,space,1,0.2680742,145.070324,None,145.070324,None,145.070324,None,145.9711604,None,,,,,,,,,,,,,,,,,,,,,,,,,,,,,,,,,,,,,,,,,,,,,,,,,P012,fencog,1,Post,2021_Oct_15_1121,Go No-Go Task,2021.1.4,120.0700731
EPracticeConditions/BlueEyes.csv,"Rule: When you see a blue image, do not press 'spacebar'.",Images/Happy/HF09_HE.jpg,Happy,Yellow,Images/Yellow.jpg,space,,,,,,,0,0,0,0,0,2,2,6,,,,,,,,,,,,,,,,,,,,,,,,,,,,,,,,,,,,,,,,,,,,,,,,,,,1.2,147.9773534,None,space,1,0.3412082,149.2773638,None,149.2773638,None,149.2773638,None,150.1818608,None,,,,,,,,,,,,,,,,,,,,,,,,,,,,,,,,,,,,,,,,,,,,,,,,,P012,fencog,1,Post,2021_Oct_15_1121,Go No-Go Task,2021.1.4,120.0700731
EPracticeConditions/BlueEyes.csv,"Rule: When you see a blue image, do not press 'spacebar'.",Images/Happy/HF04_HE.jpg,Happy,Yellow,Images/Yellow.jpg,space,,,,,,,0,0,0,0,0,3,3,4,,,,,,,,,,,,,,,,,,,,,,,,,,,,,,,,,,,,,,,,,,,,,,,,,,,1.6,152.1844858,None,space,1,0.2860751,153.8843462,None,153.8843462,None,153.8843462,None,154.7843944,None,,,,,,,,,,,,,,,,,,,,,,,,,,,,,,,,,,,,,,,,,,,,,,,,,P012,fencog,1,Post,2021_Oct_15_1121,Go No-Go Task,2021.1.4,120.0700731
EPracticeConditions/BlueEyes.csv,"Rule: When you see a blue image, do not press 'spacebar'.",Images/Happy/BM08_HO.jpg,Happy,Yellow,Images/Yellow.jpg,space,,,,,,,0,0,0,0,0,4,4,3,,,,,,,,,,,,,,,,,,,,,,,,,,,,,,,,,,,,,,,,,,,,,,,,,,,1.4,156.790792,None,space,1,0.3436696,158.2829555,None,158.2829555,None,158.2829555,None,159.1819108,None,,,,,,,,,,,,,,,,,,,,,,,,,,,,,,,,,,,,,,,,,,,,,,,,,P012,fencog,1,Post,2021_Oct_15_1121,Go No-Go Task,2021.1.4,120.0700731
EPracticeConditions/BlueEyes.csv,"Rule: When you see a blue image, do not press 'spacebar'.",Images/Fearful/AF01_FO.jpg,Fear,Blue,Images/Blue.jpg,None,,,,,,,0,0,0,0,0,5,5,1,,,,,,,,,,,,,,,,,,,,,,,,,,,,,,,,,,,,,,,,,,,,,,,,,,,1.5,161.1826568,None,None,1,,162.7900785,None,162.7900785,None,162.7900785,None,163.6806207,None,,,,,,,,,,,,,,,,,,,,,,,,,,,,,,,,,,,,,,,,,,,,,,,,,P012,fencog,1,Post,2021_Oct_15_1121,Go No-Go Task,2021.1.4,120.0700731
EPracticeConditions/BlueEyes.csv,"Rule: When you see a blue image, do not press 'spacebar'.",Images/Happy/HF10_HE.jpg,Happy,Yellow,Images/Yellow.jpg,space,,,,,,,0,0,0,0,0,6,6,7,,,,,,,,,,,,,,,,,,,,,,,,,,,,,,,,,,,,,,,,,,,,,,,,,,,1.8,165.6808128,None,space,1,0.3176444,167.5886072,None,167.5886072,None,167.5886072,None,168.4839434,None,,,,,,,,,,,,,,,,,,,,,,,,,,,,,,,,,,,,,,,,,,,,,,,,,P012,fencog,1,Post,2021_Oct_15_1121,Go No-Go Task,2021.1.4,120.0700731
EPracticeConditions/BlueEyes.csv,"Rule: When you see a blue image, do not press 'spacebar'.",Images/Fearful/HM09_FC.jpg,Fear,Blue,Images/Blue.jpg,None,,,,,,,0,0,0,0,0,7,7,0,,,,,,,,,,,,,,,,,,,,,,,,,,,,,,,,,,,,,,,,,,,,,,,,,,,1.9,170.4884973,None,None,1,,172.4956332,None,172.4956332,None,172.4956332,None,173.3899881,None,,,,,,,,,,,,,,,,,,,,,,,,,,,,,,,,,,,,,,,,,,,,,,,,,P012,fencog,1,Post,2021_Oct_15_1121,Go No-Go Task,2021.1.4,120.0700731
EPracticeConditions/BlueEyes.csv,"Rule: When you see a blue image, do not press 'spacebar'.",,,,,,,,,,,,0,0,0,0,,,,,,,,,,,,,,,,,,,,,,,,,,,,,,,,,,,,,,,,,,,,,,,,,,,,,,,,,,,,,,,,,,,,,,,,,,,,,,,,,,,,,,,,,,,,,,,,,,,,,,,,,,,,,,,,,,,,,P012,fencog,1,Post,2021_Oct_15_1121,Go No-Go Task,2021.1.4,120.0700731
EPracticeConditions/YellowEyes.csv,"Rule: When you see a yellow image, do not press 'spacebar'.",Images/Fearful/AM24AFS.jpg,Fear,Blue,Images/Blue.jpg,space,,,,,,,0,1,1,1,0,0,0,7,,,,,,,,,,,,,,,,,,,,,,,,,,,,,,,,,,,,,175.4146587,None,178.4098488,None,space,0.3923729,178.4098488,None,175.4146587,None,175.4146587,None,175.4146587,None,1.2,178.8191841,None,space,1,0.3476521,180.1266458,None,180.1266458,None,180.1266458,None,181.0171704,None,,,,,,,,,,,,,,,,,,,,,,,,,,,,,,,,,,,,,,,,,,,,,,,,,P012,fencog,1,Post,2021_Oct_15_1121,Go No-Go Task,2021.1.4,120.0700731
EPracticeConditions/YellowEyes.csv,"Rule: When you see a yellow image, do not press 'spacebar'.",Images/Happy/BF05_HO.jpg,Happy,Yellow,Images/Yellow.jpg,None,,,,,,,0,1,1,1,0,1,1,1,,,,,,,,,,,,,,,,,,,,,,,,,,,,,,,,,,,,,,,,,,,,,,,,,,,1.8,183.0192126,None,None,1,,184.9252982,None,184.9252982,None,184.9252982,None,185.8215137,None,,,,,,,,,,,,,,,,,,,,,,,,,,,,,,,,,,,,,,,,,,,,,,,,,P012,fencog,1,Post,2021_Oct_15_1121,Go No-Go Task,2021.1.4,120.0700731
EPracticeConditions/YellowEyes.csv,"Rule: When you see a yellow image, do not press 'spacebar'.",Images/Fearful/AM22AFS.jpg,Fear,Blue,Images/Blue.jpg,space,,,,,,,0,1,1,1,0,2,2,5,,,,,,,,,,,,,,,,,,,,,,,,,,,,,,,,,,,,,,,,,,,,,,,,,,,1.3,187.8249166,None,None,0,,189.2322781,None,189.2322781,None,189.2322781,None,190.1470981,None,,,,,,,,,,,,,,,,,,,,,,,,,,,,,,,,,,,,,,,,,,,,,,,,,P012,fencog,1,Post,2021_Oct_15_1121,Go No-Go Task,2021.1.4,120.0700731
EPracticeConditions/YellowEyes.csv,"Rule: When you see a yellow image, do not press 'spacebar'.",Images/Fearful/AM17AFS.jpg,Fear,Blue,Images/Blue.jpg,space,,,,,,,0,1,1,1,0,3,3,3,,,,,,,,,,,,,,,,,,,,,,,,,,,,,,,,,,,,,,,,,,,,,,,,,,,1.7,192.1460127,None,space,1,0.3109659,193.9476118,None,193.9476118,None,193.9476118,None,194.8519708,None,,,,,,,,,,,,,,,,,,,,,,,,,,,,,,,,,,,,,,,,,,,,,,,,,P012,fencog,1,Post,2021_Oct_15_1121,Go No-Go Task,2021.1.4,120.0700731
EPracticeConditions/YellowEyes.csv,"Rule: When you see a yellow image, do not press 'spacebar'.",Images/Fearful/AM23AFS.jpg,Fear,Blue,Images/Blue.jpg,space,,,,,,,0,1,1,1,0,4,4,6,,,,,,,,,,,,,,,,,,,,,,,,,,,,,,,,,,,,,,,,,,,,,,,,,,,1.9,196.8540919,None,space,1,0.2676268,198.8545149,None,198.8545149,None,198.8545149,None,199.7513529,None,,,,,,,,,,,,,,,,,,,,,,,,,,,,,,,,,,,,,,,,,,,,,,,,,P012,fencog,1,Post,2021_Oct_15_1121,Go No-Go Task,2021.1.4,120.0700731
EPracticeConditions/YellowEyes.csv,"Rule: When you see a yellow image, do not press 'spacebar'.",Images/Fearful/AM16AFS.jpg,Fear,Blue,Images/Blue.jpg,space,,,,,,,0,1,1,1,0,5,5,2,,,,,,,,,,,,,,,,,,,,,,,,,,,,,,,,,,,,,,,,,,,,,,,,,,,1.5,201.7542425,None,space,1,0.280976,203.3614949,None,203.3614949,None,203.3614949,None,204.2572362,None,,,,,,,,,,,,,,,,,,,,,,,,,,,,,,,,,,,,,,,,,,,,,,,,,P012,fencog,1,Post,2021_Oct_15_1121,Go No-Go Task,2021.1.4,120.0700731
EPracticeConditions/YellowEyes.csv,"Rule: When you see a yellow image, do not press 'spacebar'.",Images/Fearful/AM19AFS.jpg,Fear,Blue,Images/Blue.jpg,space,,,,,,,0,1,1,1,0,6,6,4,,,,,,,,,,,,,,,,,,,,,,,,,,,,,,,,,,,,,,,,,,,,,,,,,,,1.6,206.2608895,None,space,1,0.3146987,207.9685255,None,207.9685255,None,207.9685255,None,208.8673146,None,,,,,,,,,,,,,,,,,,,,,,,,,,,,,,,,,,,,,,,,,,,,,,,,,P012,fencog,1,Post,2021_Oct_15_1121,Go No-Go Task,2021.1.4,120.0700731
EPracticeConditions/YellowEyes.csv,"Rule: When you see a yellow image, do not press 'spacebar'.",Images/Happy/AM32HAS.jpg,Happy,Yellow,Images/Yellow.jpg,None,,,,,,,0,1,1,1,0,7,7,0,,,,,,,,,,,,,,,,,,,,,,,,,,,,,,,,,,,,,,,,,,,,,,,,,,,1.4,210.8684118,None,None,1,,212.3754169,None,212.3754169,None,212.3754169,None,213.2660002,None,,,,,,,,,,,,,,,,,,,,,,,,,,,,,,,,,,,,,,,,,,,,,,,,,P012,fencog,1,Post,2021_Oct_15_1121,Go No-Go Task,2021.1.4,120.0700731
EPracticeConditions/YellowEyes.csv,"Rule: When you see a yellow image, do not press 'spacebar'.",,,,,,,,,,,,0,1,1,1,,,,,,,,,,,,,,,,,,,,,,,,,,,,,,,,,,,,,,,,,,,,,,,,,,,,,,,,,,,,,,,,,,,,,,,,,,,,,,,,,,,,,,,,,,,,,,,,,,,,,,,,,,,,,,,,,,,,,P012,fencog,1,Post,2021_Oct_15_1121,Go No-Go Task,2021.1.4,120.0700731
EPracticeConditions/BlueScram.csv,"Rule: When you see a blue image, do not press 'spacebar'.",Images/Scram2/AF10_NC.jpg,Scramble,Yellow,Images/Yellow.jpg,space,,,,,,,0,2,2,2,0,0,0,2,,,,,,,,,,,,,,,,,,,,,,,,,,,,,,,,,,,,,215.2773389,None,218.2649221,None,space,0.4974577,218.2649221,None,215.2773389,None,215.2773389,None,215.2773389,None,1.7,218.7852559,None,space,1,0.3330729,220.5898224,None,220.5898224,None,220.5898224,None,221.4942399,None,,,,,,,,,,,,,,,,,,,,,,,,,,,,,,,,,,,,,,,,,,,,,,,,,P012,fencog,1,Post,2021_Oct_15_1121,Go No-Go Task,2021.1.4,120.0700731
EPracticeConditions/BlueScram.csv,"Rule: When you see a blue image, do not press 'spacebar'.",Images/Scram2/AM03_NC.jpg,Scramble,Yellow,Images/Yellow.jpg,space,,,,,,,0,2,2,2,0,1,1,6,,,,,,,,,,,,,,,,,,,,,,,,,,,,,,,,,,,,,,,,,,,,,,,,,,,1.6,223.4964547,None,space,1,0.3098905,225.1966837,None,225.1966837,None,225.1966837,None,226.0894762,None,,,,,,,,,,,,,,,,,,,,,,,,,,,,,,,,,,,,,,,,,,,,,,,,,P012,fencog,1,Post,2021_Oct_15_1121,Go No-Go Task,2021.1.4,120.0700731
EPracticeConditions/BlueScram.csv,"Rule: When you see a blue image, do not press 'spacebar'.",Images/Scram1/AM04_NC.jpg,Scramble,Yellow,Images/Yellow.jpg,space,,,,,,,0,2,2,2,0,2,2,3,,,,,,,,,,,,,,,,,,,,,,,,,,,,,,,,,,,,,,,,,,,,,,,,,,,1.5,228.0979086,None,space,1,0.322425,229.7038349,None,229.7038349,None,229.7038349,None,230.6012825,None,,,,,,,,,,,,,,,,,,,,,,,,,,,,,,,,,,,,,,,,,,,,,,,,,P012,fencog,1,Post,2021_Oct_15_1121,Go No-Go Task,2021.1.4,120.0700731
EPracticeConditions/BlueScram.csv,"Rule: When you see a blue image, do not press 'spacebar'.",Images/Scram1/BF18_NC.jpg,Scramble,Blue,Images/Blue.jpg,None,,,,,,,0,2,2,2,0,3,3,1,,,,,,,,,,,,,,,,,,,,,,,,,,,,,,,,,,,,,,,,,,,,,,,,,,,1.3,232.606122,None,None,1,,234.0108622,None,234.0108622,None,234.0108622,None,234.907169,None,,,,,,,,,,,,,,,,,,,,,,,,,,,,,,,,,,,,,,,,,,,,,,,,,P012,fencog,1,Post,2021_Oct_15_1121,Go No-Go Task,2021.1.4,120.0700731
EPracticeConditions/BlueScram.csv,"Rule: When you see a blue image, do not press 'spacebar'.",Images/Scram1/AM13NES.jpg,Scramble,Yellow,Images/Yellow.jpg,space,,,,,,,0,2,2,2,0,4,4,5,,,,,,,,,,,,,,,,,,,,,,,,,,,,,,,,,,,,,,,,,,,,,,,,,,,1.4,236.9089673,None,space,1,0.2965808,238.4095312,None,238.4095312,None,238.4095312,None,239.3054763,None,,,,,,,,,,,,,,,,,,,,,,,,,,,,,,,,,,,,,,,,,,,,,,,,,P012,fencog,1,Post,2021_Oct_15_1121,Go No-Go Task,2021.1.4,120.0700731
EPracticeConditions/BlueScram.csv,"Rule: When you see a blue image, do not press 'spacebar'.",Images/Scram2/AF25NES.jpg,Scramble,Yellow,Images/Yellow.jpg,space,,,,,,,0,2,2,2,0,5,5,7,,,,,,,,,,,,,,,,,,,,,,,,,,,,,,,,,,,,,,,,,,,,,,,,,,,1.2,241.3103385,None,space,1,0.2585765,242.6166128,None,242.6166128,None,242.6166128,None,243.5095138,None,,,,,,,,,,,,,,,,,,,,,,,,,,,,,,,,,,,,,,,,,,,,,,,,,P012,fencog,1,Post,2021_Oct_15_1121,Go No-Go Task,2021.1.4,120.0700731
EPracticeConditions/BlueScram.csv,"Rule: When you see a blue image, do not press 'spacebar'.",Images/Scram1/BM08_NC.jpg,Scramble,Blue,Images/Blue.jpg,None,,,,,,,0,2,2,2,0,6,6,0,,,,,,,,,,,,,,,,,,,,,,,,,,,,,,,,,,,,,,,,,,,,,,,,,,,1.9,245.5172,None,space,0,0.3030259,247.5235023,None,247.5235023,None,247.5235023,None,248.4223967,None,,,,,,,,,,,,,,,,,,,,,,,,,,,,,,,,,,,,,,,,,,,,,,,,,P012,fencog,1,Post,2021_Oct_15_1121,Go No-Go Task,2021.1.4,120.0700731
EPracticeConditions/BlueScram.csv,"Rule: When you see a blue image, do not press 'spacebar'.",Images/Scram1/AM03NES.jpg,Scramble,Yellow,Images/Yellow.jpg,space,,,,,,,0,2,2,2,0,7,7,4,,,,,,,,,,,,,,,,,,,,,,,,,,,,,,,,,,,,,,,,,,,,,,,,,,,1.8,250.4235645,None,space,1,0.0962308,252.3304653,None,252.3304653,None,252.3304653,None,253.2347001,None,,,,,,,,,,,,,,,,,,,,,,,,,,,,,,,,,,,,,,,,,,,,,,,,,P012,fencog,1,Post,2021_Oct_15_1121,Go No-Go Task,2021.1.4,120.0700731
EPracticeConditions/BlueScram.csv,"Rule: When you see a blue image, do not press 'spacebar'.",,,,,,,,,,,,0,2,2,2,,,,,,,,,,,,,,,,,,,,,,,,,,,,,,,,,,,,,,,,,,,,,,,,,,,,,,,,,,,,,,,,,,,,,,,,,,,,,,,,,,,,,,,,,,,,,,,,,,,,,,,,,,,,,,,,,,,,,P012,fencog,1,Post,2021_Oct_15_1121,Go No-Go Task,2021.1.4,120.0700731
EPracticeConditions/YellowScram.csv,"Rule: When you see a yellow image, do not press 'spacebar'.",Images/Scram1/BM01_NC.jpg,Scramble,Blue,Images/Blue.jpg,space,,,,,,,0,3,3,3,0,0,0,5,,,,,,,,,,,,,,,,,,,,,,,,,,,,,,,,,,,,,255.2492215,None,258.2366005,None,space,0.533672,258.2366005,None,255.2492215,None,255.2492215,None,255.2492215,None,1.3,258.7880624,None,None,0,,260.1948233,None,260.1948233,None,260.1948233,None,261.0932374,None,,,,,,,,,,,,,,,,,,,,,,,,,,,,,,,,,,,,,,,,,,,,,,,,,P012,fencog,1,Post,2021_Oct_15_1121,Go No-Go Task,2021.1.4,120.0700731
EPracticeConditions/YellowScram.csv,"Rule: When you see a yellow image, do not press 'spacebar'.",Images/Scram2/AM03NES.jpg,Scramble,Yellow,Images/Yellow.jpg,None,,,,,,,0,3,3,3,0,1,1,1,,,,,,,,,,,,,,,,,,,,,,,,,,,,,,,,,,,,,,,,,,,,,,,,,,,1.8,263.0956499,None,None,1,,265.0017326,None,265.0017326,None,265.0017326,None,265.9046103,None,,,,,,,,,,,,,,,,,,,,,,,,,,,,,,,,,,,,,,,,,,,,,,,,,P012,fencog,1,Post,2021_Oct_15_1121,Go No-Go Task,2021.1.4,120.0700731
EPracticeConditions/YellowScram.csv,"Rule: When you see a yellow image, do not press 'spacebar'.",Images/Scram1/AF07NES.jpg,Scramble,Blue,Images/Blue.jpg,space,,,,,,,0,3,3,3,0,2,2,3,,,,,,,,,,,,,,,,,,,,,,,,,,,,,,,,,,,,,,,,,,,,,,,,,,,1.9,267.9082884,None,space,1,0.3097943,269.9085515,None,269.9085515,None,269.9085515,None,270.7994713,None,,,,,,,,,,,,,,,,,,,,,,,,,,,,,,,,,,,,,,,,,,,,,,,,,P012,fencog,1,Post,2021_Oct_15_1121,Go No-Go Task,2021.1.4,120.0700731
EPracticeConditions/YellowScram.csv,"Rule: When you see a yellow image, do not press 'spacebar'.",Images/Scram2/HM06_NC.jpg,Scramble,Yellow,Images/Yellow.jpg,None,,,,,,,0,3,3,3,0,3,3,0,,,,,,,,,,,,,,,,,,,,,,,,,,,,,,,,,,,,,,,,,,,,,,,,,,,1.4,272.8021523,None,None,1,,274.307381,None,274.307381,None,274.307381,None,275.2025735,None,,,,,,,,,,,,,,,,,,,,,,,,,,,,,,,,,,,,,,,,,,,,,,,,,P012,fencog,1,Post,2021_Oct_15_1121,Go No-Go Task,2021.1.4,120.0700731
EPracticeConditions/YellowScram.csv,"Rule: When you see a yellow image, do not press 'spacebar'.",Images/Scram1/AF10_NC.jpg,Scramble,Blue,Images/Blue.jpg,space,,,,,,,0,3,3,3,0,4,4,6,,,,,,,,,,,,,,,,,,,,,,,,,,,,,,,,,,,,,,,,,,,,,,,,,,,1.5,277.2058691,None,space,1,0.3326667,278.8059243,None,278.8059243,None,278.8059243,None,279.7030431,None,,,,,,,,,,,,,,,,,,,,,,,,,,,,,,,,,,,,,,,,,,,,,,,,,P012,fencog,1,Post,2021_Oct_15_1121,Go No-Go Task,2021.1.4,120.0700731
EPracticeConditions/YellowScram.csv,"Rule: When you see a yellow image, do not press 'spacebar'.",Images/Scram1/HF04_NC.jpg,Scramble,Blue,Images/Blue.jpg,space,,,,,,,0,3,3,3,0,5,5,2,,,,,,,,,,,,,,,,,,,,,,,,,,,,,,,,,,,,,,,,,,,,,,,,,,,1.2,281.7057405,None,space,1,0.3819077,283.013043,None,283.013043,None,283.013043,None,283.9099414,None,,,,,,,,,,,,,,,,,,,,,,,,,,,,,,,,,,,,,,,,,,,,,,,,,P012,fencog,1,Post,2021_Oct_15_1121,Go No-Go Task,2021.1.4,120.0700731
EPracticeConditions/YellowScram.csv,"Rule: When you see a yellow image, do not press 'spacebar'.",Images/Scram1/AF24NES.jpg,Scramble,Blue,Images/Blue.jpg,space,,,,,,,0,3,3,3,0,6,6,7,,,,,,,,,,,,,,,,,,,,,,,,,,,,,,,,,,,,,,,,,,,,,,,,,,,1.7,285.9135323,None,space,1,0.3708181,287.7198307,None,287.7198307,None,287.7198307,None,288.6157261,None,,,,,,,,,,,,,,,,,,,,,,,,,,,,,,,,,,,,,,,,,,,,,,,,,P012,fencog,1,Post,2021_Oct_15_1121,Go No-Go Task,2021.1.4,120.0700731
EPracticeConditions/YellowScram.csv,"Rule: When you see a yellow image, do not press 'spacebar'.",Images/Scram1/AF30NES.JPG,Scramble,Blue,Images/Blue.jpg,space,,,,,,,0,3,3,3,0,7,7,4,,,,,,,,,,,,,,,,,,,,,,,,,,,,,,,,,,,,,,,,,,,,,,,,,,,1.6,290.6203478,None,space,1,0.3157869,292.327101,None,292.327101,None,292.327101,None,293.2316713,None,,,,,,,,,,,,,,,,,,,,,,,,,,,,,,,,,,,,,,,,,,,,,,,,,P012,fencog,1,Post,2021_Oct_15_1121,Go No-Go Task,2021.1.4,120.0700731
EPracticeConditions/YellowScram.csv,"Rule: When you see a yellow image, do not press 'spacebar'.",,,,,,,,,,,,0,3,3,3,,,,,,,,,,,,,,,,,,,,,,,,,,,,,,,,,,,,,,,,,,,,,,,,,,,,,,,,,,,,,,,,,,,,,,,,,,,,,,,,,,,,,,,,,,,,,,,,,,,,,,,,,,,,,,,,,,,,,P012,fencog,1,Post,2021_Oct_15_1121,Go No-Go Task,2021.1.4,120.0700731
,,,,,,,,,,,,,,,,,,,,,,,,,,,,,,,,,,,,,,,,,,,,,,,,,,,,,,,,,,,,,,,,,,,,,,,,,,,,,,,,,,,,,296.5289845,None,space,0.8340311,297.0085157,None,,,,,,,,,,,,,,,,,,,,,,,,,,,,,,,,,,,,,,,,,,,P012,fencog,1,Post,2021_Oct_15_1121,Go No-Go Task,2021.1.4,120.0700731
,,,,,,,,,,,,,,,,,,,,,,,,,,,,,,,,,,,,,,,,,,,,,,,,,,,,,,,,,,,,,,,,,,,,,,,,,,,,,,,,,,,,,,,,,,,297.8507421,None,space,14.3597189,297.8507421,None,,,,,,,,,,,,,,,,,,,,,,,,,,,,,,,,,,,,,P012,fencog,1,Post,2021_Oct_15_1121,Go No-Go Task,2021.1.4,120.0700731
,"Rule: When you see a yellow image, do not press 'spacebar'.",Images/Happy/BF09_HO.jpg,Happy,Blue,Images/Blue.jpg,space,ParentConditions/YellowYellowBlue_v1.xlsx,YellowYellowBlue,Conditions/Version_1/YellowFearStop.xlsx,no,PASS,0.826418621,,,,,,,,,0,0,0,1,0,0,0,0,0,0,0,0,,,,,,,,,,,,,,,,,,,,,,,,,,,,,,,,,,,,,,,,,,,,,,,,,,,,,,,,,,,,,,,,,312.2853134,None,315.2779354,None,space,1.7963033,315.2779354,None,312.2853134,None,312.2853134,None,312.2853134,None,1.44,317.1172812,None,space,1,0.2936119,318.6611747,None,318.6611747,None,318.6611747,None,,,,,,,,,,,P012,fencog,1,Post,2021_Oct_15_1121,Go No-Go Task,2021.1.4,120.0700731
,"Rule: When you see a yellow image, do not press 'spacebar'.",Images/Happy/AF30HAS.jpg,Happy,Blue,Images/Blue.jpg,space,ParentConditions/YellowYellowBlue_v1.xlsx,YellowYellowBlue,Conditions/Version_1/YellowFearStop.xlsx,no,PASS,0.175771647,,,,,,,,,0,0,0,1,0,0,0,0,0,1,1,1,,,,,,,,,,,,,,,,,,,,,,,,,,,,,,,,,,,,,,,,,,,,,,,,,,,,,,,,,,,,,,,,,,,,,,,,,,,,,,,1.57,319.0658489,None,space,1,0.2592545,320.735287,None,320.735287,None,320.735287,None,,,,,,,,,,,P012,fencog,1,Post,2021_Oct_15_1121,Go No-Go Task,2021.1.4,120.0700731
,"Rule: When you see a yellow image, do not press 'spacebar'.",Images/Happy/AF27HAS.jpg,Happy,Blue,Images/Blue.jpg,space,ParentConditions/YellowYellowBlue_v1.xlsx,YellowYellowBlue,Conditions/Version_1/YellowFearStop.xlsx,no,PASS,0.953023419,,,,,,,,,0,0,0,1,0,0,0,0,0,2,2,2,,,,,,,,,,,,,,,,,,,,,,,,,,,,,,,,,,,,,,,,,,,,,,,,,,,,,,,,,,,,,,,,,,,,,,,,,,,,,,,1.3,321.1435813,None,space,1,0.2676735,322.5514932,None,322.5514932,None,322.5514932,None,,,,,,,,,,,P012,fencog,1,Post,2021_Oct_15_1121,Go No-Go Task,2021.1.4,120.0700731
,"Rule: When you see a yellow image, do not press 'spacebar'.",Images/Happy/AF22HAS.jpg,Happy,Blue,Images/Blue.jpg,space,ParentConditions/YellowYellowBlue_v1.xlsx,YellowYellowBlue,Conditions/Version_1/YellowFearStop.xlsx,no,PASS,0.382442311,,,,,,,,,0,0,0,1,0,0,0,0,0,3,3,3,,,,,,,,,,,,,,,,,,,,,,,,,,,,,,,,,,,,,,,,,,,,,,,,,,,,,,,,,,,,,,,,,,,,,,,,,,,,,,,1.37,322.9543104,None,space,1,0.2807341,324.4259266,None,324.4259266,None,324.4259266,None,,,,,,,,,,,P012,fencog,1,Post,2021_Oct_15_1121,Go No-Go Task,2021.1.4,120.0700731
,"Rule: When you see a yellow image, do not press 'spacebar'.",Images/Happy/WM11_HC.jpg,Happy,Blue,Images/Blue.jpg,space,ParentConditions/YellowYellowBlue_v1.xlsx,YellowYellowBlue,Conditions/Version_1/YellowFearStop.xlsx,no,PASS,0.464619418,,,,,,,,,0,0,0,1,0,0,0,0,0,4,4,4,,,,,,,,,,,,,,,,,,,,,,,,,,,,,,,,,,,,,,,,,,,,,,,,,,,,,,,,,,,,,,,,,,,,,,,,,,,,,,,1.32,324.8272312,None,space,1,0.2563411,326.2420244,None,326.2420244,None,326.2420244,None,,,,,,,,,,,P012,fencog,1,Post,2021_Oct_15_1121,Go No-Go Task,2021.1.4,120.0700731
,"Rule: When you see a yellow image, do not press 'spacebar'.",Images/Happy/BF05_HO.jpg,Happy,Blue,Images/Blue.jpg,space,ParentConditions/YellowYellowBlue_v1.xlsx,YellowYellowBlue,Conditions/Version_1/YellowFearStop.xlsx,no,PASS,0.787207226,,,,,,,,,0,0,0,1,0,0,0,0,0,5,5,5,,,,,,,,,,,,,,,,,,,,,,,,,,,,,,,,,,,,,,,,,,,,,,,,,,,,,,,,,,,,,,,,,,,,,,,,,,,,,,,1.55,326.640939,None,space,1,0.27113,328.2914035,None,328.2914035,None,328.2914035,None,,,,,,,,,,,P012,fencog,1,Post,2021_Oct_15_1121,Go No-Go Task,2021.1.4,120.0700731
,"Rule: When you see a yellow image, do not press 'spacebar'.",Images/Fearful/AM01AFS.jpg,Fear,Yellow,Images/Yellow.jpg,None,ParentConditions/YellowYellowBlue_v1.xlsx,YellowYellowBlue,Conditions/Version_1/YellowFearStop.xlsx,yes,PASS,0.046465855,,,,,,,,,0,0,0,1,0,0,0,0,0,6,6,6,,,,,,,,,,,,,,,,,,,,,,,,,,,,,,,,,,,,,,,,,,,,,,,,,,,,,,,,,,,,,,,,,,,,,,,,,,,,,,,1.35,328.6917942,None,None,1,,330.1491997,None,330.1491997,None,330.1491997,None,,,,,,,,,,,P012,fencog,1,Post,2021_Oct_15_1121,Go No-Go Task,2021.1.4,120.0700731
,"Rule: When you see a yellow image, do not press 'spacebar'.",Images/Happy/AF23HAS.jpg,Happy,Blue,Images/Blue.jpg,space,ParentConditions/YellowYellowBlue_v1.xlsx,YellowYellowBlue,Conditions/Version_1/YellowFearStop.xlsx,no,PASS,0.956689778,,,,,,,,,0,0,0,1,0,0,0,0,0,7,7,7,,,,,,,,,,,,,,,,,,,,,,,,,,,,,,,,,,,,,,,,,,,,,,,,,,,,,,,,,,,,,,,,,,,,,,,,,,,,,,,1.28,330.5500039,None,space,1,0.2947548,331.9319926,None,331.9319926,None,331.9319926,None,,,,,,,,,,,P012,fencog,1,Post,2021_Oct_15_1121,Go No-Go Task,2021.1.4,120.0700731
,"Rule: When you see a yellow image, do not press 'spacebar'.",Images/Happy/AM16HAS.jpg,Happy,Blue,Images/Blue.jpg,space,ParentConditions/YellowYellowBlue_v1.xlsx,YellowYellowBlue,Conditions/Version_1/YellowFearStop.xlsx,no,PASS,0.971596274,,,,,,,,,0,0,0,1,0,0,0,0,0,8,8,8,,,,,,,,,,,,,,,,,,,,,,,,,,,,,,,,,,,,,,,,,,,,,,,,,,,,,,,,,,,,,,,,,,,,,,,,,,,,,,,1.4,332.3335472,None,space,1,0.2668811,333.8479951,None,333.8479951,None,333.8479951,None,,,,,,,,,,,P012,fencog,1,Post,2021_Oct_15_1121,Go No-Go Task,2021.1.4,120.0700731
,"Rule: When you see a yellow image, do not press 'spacebar'.",Images/Happy/AM04HAS.jpg,Happy,Blue,Images/Blue.jpg,space,ParentConditions/YellowYellowBlue_v1.xlsx,YellowYellowBlue,Conditions/Version_1/YellowFearStop.xlsx,no,PASS,0.883453283,,,,,,,,,0,0,0,1,0,0,0,0,0,9,9,9,,,,,,,,,,,,,,,,,,,,,,,,,,,,,,,,,,,,,,,,,,,,,,,,,,,,,,,,,,,,,,,,,,,,,,,,,,,,,,,1.63,334.2480757,None,space,1,0.2695758,335.9808335,None,335.9808335,None,335.9808335,None,,,,,,,,,,,P012,fencog,1,Post,2021_Oct_15_1121,Go No-Go Task,2021.1.4,120.0700731
,"Rule: When you see a yellow image, do not press 'spacebar'.",Images/Happy/AF26HAS.jpg,Happy,Blue,Images/Blue.jpg,space,ParentConditions/YellowYellowBlue_v1.xlsx,YellowYellowBlue,Conditions/Version_1/YellowFearStop.xlsx,no,PASS,0.183751262,,,,,,,,,0,0,0,1,0,0,0,0,0,10,10,10,,,,,,,,,,,,,,,,,,,,,,,,,,,,,,,,,,,,,,,,,,,,,,,,,,,,,,,,,,,,,,,,,,,,,,,,,,,,,,,1.59,336.3874813,None,space,1,0.2831498,338.0718483,None,338.0718483,None,338.0718483,None,,,,,,,,,,,P012,fencog,1,Post,2021_Oct_15_1121,Go No-Go Task,2021.1.4,120.0700731
,"Rule: When you see a yellow image, do not press 'spacebar'.",Images/Fearful/AF10_FC.jpg,Fear,Yellow,Images/Yellow.jpg,None,ParentConditions/YellowYellowBlue_v1.xlsx,YellowYellowBlue,Conditions/Version_1/YellowFearStop.xlsx,yes,PASS,0.280171839,,,,,,,,,0,0,0,1,0,0,0,0,0,11,11,11,,,,,,,,,,,,,,,,,,,,,,,,,,,,,,,,,,,,,,,,,,,,,,,,,,,,,,,,,,,,,,,,,,,,,,,,,,,,,,,1.61,338.4783041,None,None,1,,340.1961251,None,340.1961251,None,340.1961251,None,,,,,,,,,,,P012,fencog,1,Post,2021_Oct_15_1121,Go No-Go Task,2021.1.4,120.0700731
,"Rule: When you see a yellow image, do not press 'spacebar'.",Images/Fearful/AM09_FO.jpg,Fear,Yellow,Images/Yellow.jpg,None,ParentConditions/YellowYellowBlue_v1.xlsx,YellowYellowBlue,Conditions/Version_1/YellowFearStop.xlsx,yes,PASS,0.663013992,,,,,,,,,0,0,0,1,0,0,0,0,0,12,12,12,,,,,,,,,,,,,,,,,,,,,,,,,,,,,,,,,,,,,,,,,,,,,,,,,,,,,,,,,,,,,,,,,,,,,,,,,,,,,,,1.2,340.5971425,None,None,1,,341.9041428,None,341.9041428,None,341.9041428,None,,,,,,,,,,,P012,fencog,1,Post,2021_Oct_15_1121,Go No-Go Task,2021.1.4,120.0700731
,"Rule: When you see a yellow image, do not press 'spacebar'.",Images/Happy/HM04_HO.jpg,Happy,Blue,Images/Blue.jpg,space,ParentConditions/YellowYellowBlue_v1.xlsx,YellowYellowBlue,Conditions/Version_1/YellowFearStop.xlsx,no,PASS,0.940231429,,,,,,,,,0,0,0,1,0,0,0,0,0,13,13,13,,,,,,,,,,,,,,,,,,,,,,,,,,,,,,,,,,,,,,,,,,,,,,,,,,,,,,,,,,,,,,,,,,,,,,,,,,,,,,,1.6,342.3047964,None,space,1,0.3114193,344.0117756,None,344.0117756,None,344.0117756,None,,,,,,,,,,,P012,fencog,1,Post,2021_Oct_15_1121,Go No-Go Task,2021.1.4,120.0700731
,"Rule: When you see a yellow image, do not press 'spacebar'.",Images/Fearful/AM04_FO.jpg,Fear,Yellow,Images/Yellow.jpg,None,ParentConditions/YellowYellowBlue_v1.xlsx,YellowYellowBlue,Conditions/Version_1/YellowFearStop.xlsx,yes,PASS,0.310049008,,,,,,,,,0,0,0,1,0,0,0,0,0,14,14,14,,,,,,,,,,,,,,,,,,,,,,,,,,,,,,,,,,,,,,,,,,,,,,,,,,,,,,,,,,,,,,,,,,,,,,,,,,,,,,,1.89,344.418103,None,None,1,,346.4111198,None,346.4111198,None,346.4111198,None,,,,,,,,,,,P012,fencog,1,Post,2021_Oct_15_1121,Go No-Go Task,2021.1.4,120.0700731
,"Rule: When you see a yellow image, do not press 'spacebar'.",Images/Happy/AM13HAS.jpg,Happy,Blue,Images/Blue.jpg,space,ParentConditions/YellowYellowBlue_v1.xlsx,YellowYellowBlue,Conditions/Version_1/YellowFearStop.xlsx,no,PASS,0.443146769,,,,,,,,,0,0,0,1,0,0,0,0,0,15,15,15,,,,,,,,,,,,,,,,,,,,,,,,,,,,,,,,,,,,,,,,,,,,,,,,,,,,,,,,,,,,,,,,,,,,,,,,,,,,,,,1.23,346.8115385,None,space,1,0.2991254,348.1438875,None,348.1438875,None,348.1438875,None,,,,,,,,,,,P012,fencog,1,Post,2021_Oct_15_1121,Go No-Go Task,2021.1.4,120.0700731
,"Rule: When you see a yellow image, do not press 'spacebar'.",Images/Fearful/AF09AFS.jpg,Fear,Yellow,Images/Yellow.jpg,None,ParentConditions/YellowYellowBlue_v1.xlsx,YellowYellowBlue,Conditions/Version_1/YellowFearStop.xlsx,yes,PASS,0.44980257,,,,,,,,,0,0,0,1,0,0,0,0,0,16,16,16,,,,,,,,,,,,,,,,,,,,,,,,,,,,,,,,,,,,,,,,,,,,,,,,,,,,,,,,,,,,,,,,,,,,,,,,,,,,,,,1.81,348.544948,None,None,1,,350.4598901,None,350.4598901,None,350.4598901,None,,,,,,,,,,,P012,fencog,1,Post,2021_Oct_15_1121,Go No-Go Task,2021.1.4,120.0700731
,"Rule: When you see a yellow image, do not press 'spacebar'.",Images/Fearful/BF05_FO.jpg,Fear,Yellow,Images/Yellow.jpg,None,ParentConditions/YellowYellowBlue_v1.xlsx,YellowYellowBlue,Conditions/Version_1/YellowFearStop.xlsx,yes,PASS,0.908002058,,,,,,,,,0,0,0,1,0,0,0,0,0,17,17,17,,,,,,,,,,,,,,,,,,,,,,,,,,,,,,,,,,,,,,,,,,,,,,,,,,,,,,,,,,,,,,,,,,,,,,,,,,,,,,,1.29,350.8605544,None,None,1,,352.2511179,None,352.2511179,None,352.2511179,None,,,,,,,,,,,P012,fencog,1,Post,2021_Oct_15_1121,Go No-Go Task,2021.1.4,120.0700731
,"Rule: When you see a yellow image, do not press 'spacebar'.",Images/Happy/AM24HAS.jpg,Happy,Blue,Images/Blue.jpg,space,ParentConditions/YellowYellowBlue_v1.xlsx,YellowYellowBlue,Conditions/Version_1/YellowFearStop.xlsx,no,PASS,0.922071682,,,,,,,,,0,0,0,1,0,0,0,0,0,18,18,18,,,,,,,,,,,,,,,,,,,,,,,,,,,,,,,,,,,,,,,,,,,,,,,,,,,,,,,,,,,,,,,,,,,,,,,,,,,,,,,1.25,352.6520885,None,space,1,0.2819525,354.008754,None,354.008754,None,354.008754,None,,,,,,,,,,,P012,fencog,1,Post,2021_Oct_15_1121,Go No-Go Task,2021.1.4,120.0700731
,"Rule: When you see a yellow image, do not press 'spacebar'.",Images/Fearful/AF11AFS.jpg,Fear,Yellow,Images/Yellow.jpg,None,ParentConditions/YellowYellowBlue_v1.xlsx,YellowYellowBlue,Conditions/Version_1/YellowFearStop.xlsx,yes,PASS,0.947335264,,,,,,,,,0,0,0,1,0,0,0,0,0,19,19,19,,,,,,,,,,,,,,,,,,,,,,,,,,,,,,,,,,,,,,,,,,,,,,,,,,,,,,,,,,,,,,,,,,,,,,,,,,,,,,,1.72,354.4109163,None,None,1,,356.2331843,None,356.2331843,None,356.2331843,None,,,,,,,,,,,P012,fencog,1,Post,2021_Oct_15_1121,Go No-Go Task,2021.1.4,120.0700731
,"Rule: When you see a yellow image, do not press 'spacebar'.",Images/Happy/AF01_HE.jpg,Happy,Blue,Images/Blue.jpg,space,ParentConditions/YellowYellowBlue_v1.xlsx,YellowYellowBlue,Conditions/Version_1/YellowFearStop.xlsx,no,PASS,0.97589007,,,,,,,,,0,0,0,1,0,0,0,0,0,20,20,20,,,,,,,,,,,,,,,,,,,,,,,,,,,,,,,,,,,,,,,,,,,,,,,,,,,,,,,,,,,,,,,,,,,,,,,,,,,,,,,1.34,356.6337444,None,space,1,0.3122142,358.074426,None,358.074426,None,358.074426,None,,,,,,,,,,,P012,fencog,1,Post,2021_Oct_15_1121,Go No-Go Task,2021.1.4,120.0700731
,"Rule: When you see a yellow image, do not press 'spacebar'.",Images/Happy/AM10_HO.jpg,Happy,Blue,Images/Blue.jpg,space,ParentConditions/YellowYellowBlue_v1.xlsx,YellowYellowBlue,Conditions/Version_1/YellowFearStop.xlsx,no,PASS,0.063235566,,,,,,,,,0,0,0,1,0,0,0,0,0,21,21,21,,,,,,,,,,,,,,,,,,,,,,,,,,,,,,,,,,,,,,,,,,,,,,,,,,,,,,,,,,,,,,,,,,,,,,,,,,,,,,,1.26,358.4730138,None,space,1,0.3301592,359.8404844,None,359.8404844,None,359.8404844,None,,,,,,,,,,,P012,fencog,1,Post,2021_Oct_15_1121,Go No-Go Task,2021.1.4,120.0700731
,"Rule: When you see a yellow image, do not press 'spacebar'.",Images/Happy/AF09HAS.jpg,Happy,Blue,Images/Blue.jpg,space,ParentConditions/YellowYellowBlue_v1.xlsx,YellowYellowBlue,Conditions/Version_1/YellowFearStop.xlsx,no,PASS,0.69621759,,,,,,,,,0,0,0,1,0,0,0,0,0,22,22,22,,,,,,,,,,,,,,,,,,,,,,,,,,,,,,,,,,,,,,,,,,,,,,,,,,,,,,,,,,,,,,,,,,,,,,,,,,,,,,,1.85,360.2437977,None,space,1,0.3004865,362.1981986,None,362.1981986,None,362.1981986,None,,,,,,,,,,,P012,fencog,1,Post,2021_Oct_15_1121,Go No-Go Task,2021.1.4,120.0700731
,"Rule: When you see a yellow image, do not press 'spacebar'.",Images/Happy/BM02_HO.jpg,Happy,Blue,Images/Blue.jpg,space,ParentConditions/YellowYellowBlue_v1.xlsx,YellowYellowBlue,Conditions/Version_1/YellowFearStop.xlsx,no,PASS,0.396113477,,,,,,,,,0,0,0,1,0,0,0,0,0,23,23,23,,,,,,,,,,,,,,,,,,,,,,,,,,,,,,,,,,,,,,,,,,,,,,,,,,,,,,,,,,,,,,,,,,,,,,,,,,,,,,,1.43,362.5985947,None,None,0,,364.1308733,None,364.1308733,None,364.1308733,None,,,,,,,,,,,P012,fencog,1,Post,2021_Oct_15_1121,Go No-Go Task,2021.1.4,120.0700731
,"Rule: When you see a yellow image, do not press 'spacebar'.",Images/Happy/AM09_HE.jpg,Happy,Blue,Images/Blue.jpg,space,ParentConditions/YellowYellowBlue_v1.xlsx,YellowYellowBlue,Conditions/Version_1/YellowFearStop.xlsx,no,PASS,0.077579477,,,,,,,,,0,0,0,1,0,0,0,0,0,24,24,24,,,,,,,,,,,,,,,,,,,,,,,,,,,,,,,,,,,,,,,,,,,,,,,,,,,,,,,,,,,,,,,,,,,,,,,,,,,,,,,1.98,364.5310881,None,space,1,0.2693876,366.6134352,None,366.6134352,None,366.6134352,None,,,,,,,,,,,P012,fencog,1,Post,2021_Oct_15_1121,Go No-Go Task,2021.1.4,120.0700731
,"Rule: When you see a yellow image, do not press 'spacebar'.",Images/Happy/AF10_HE.jpg,Happy,Blue,Images/Blue.jpg,space,ParentConditions/YellowYellowBlue_v1.xlsx,YellowYellowBlue,Conditions/Version_1/YellowFearStop.xlsx,no,PASS,0.031738248,,,,,,,,,0,0,0,1,0,0,0,0,0,25,25,25,,,,,,,,,,,,,,,,,,,,,,,,,,,,,,,,,,,,,,,,,,,,,,,,,,,,,,,,,,,,,,,,,,,,,,,,,,,,,,,1.22,367.0159186,None,space,1,0.2639884,368.3380867,None,368.3380867,None,368.3380867,None,,,,,,,,,,,P012,fencog,1,Post,2021_Oct_15_1121,Go No-Go Task,2021.1.4,120.0700731
,"Rule: When you see a yellow image, do not press 'spacebar'.",Images/Happy/BM01_HO.jpg,Happy,Blue,Images/Blue.jpg,space,ParentConditions/YellowYellowBlue_v1.xlsx,YellowYellowBlue,Conditions/Version_1/YellowFearStop.xlsx,no,PASS,0.523683635,,,,,,,,,0,0,0,1,0,0,0,0,0,26,26,26,,,,,,,,,,,,,,,,,,,,,,,,,,,,,,,,,,,,,,,,,,,,,,,,,,,,,,,,,,,,,,,,,,,,,,,,,,,,,,,1.82,368.7381468,None,space,1,0.3323659,370.6623797,None,370.6623797,None,370.6623797,None,,,,,,,,,,,P012,fencog,1,Post,2021_Oct_15_1121,Go No-Go Task,2021.1.4,120.0700731
,"Rule: When you see a yellow image, do not press 'spacebar'.",Images/Fearful/AF07_FO.jpg,Fear,Yellow,Images/Yellow.jpg,None,ParentConditions/YellowYellowBlue_v1.xlsx,YellowYellowBlue,Conditions/Version_1/YellowFearStop.xlsx,yes,PASS,0.054604097,,,,,,,,,0,0,0,1,0,0,0,0,0,27,27,27,,,,,,,,,,,,,,,,,,,,,,,,,,,,,,,,,,,,,,,,,,,,,,,,,,,,,,,,,,,,,,,,,,,,,,,,,,,,,,,1.67,371.0628234,None,None,1,,372.8366842,None,372.8366842,None,372.8366842,None,,,,,,,,,,,P012,fencog,1,Post,2021_Oct_15_1121,Go No-Go Task,2021.1.4,120.0700731
,"Rule: When you see a yellow image, do not press 'spacebar'.",Images/Happy/BF18_HO.jpg,Happy,Blue,Images/Blue.jpg,space,ParentConditions/YellowYellowBlue_v1.xlsx,YellowYellowBlue,Conditions/Version_1/YellowFearStop.xlsx,no,PASS,0.725547291,,,,,,,,,0,0,0,1,0,0,0,0,0,28,28,28,,,,,,,,,,,,,,,,,,,,,,,,,,,,,,,,,,,,,,,,,,,,,,,,,,,,,,,,,,,,,,,,,,,,,,,,,,,,,,,1.88,373.2374075,None,space,1,0.2392672,375.2192376,None,375.2192376,None,375.2192376,None,,,,,,,,,,,P012,fencog,1,Post,2021_Oct_15_1121,Go No-Go Task,2021.1.4,120.0700731
,"Rule: When you see a yellow image, do not press 'spacebar'.",Images/Happy/AM03HAS.jpg,Happy,Blue,Images/Blue.jpg,space,ParentConditions/YellowYellowBlue_v1.xlsx,YellowYellowBlue,Conditions/Version_1/YellowFearStop.xlsx,no,PASS,0.253179684,,,,,,,,,0,0,0,1,0,0,0,0,0,29,29,29,,,,,,,,,,,,,,,,,,,,,,,,,,,,,,,,,,,,,,,,,,,,,,,,,,,,,,,,,,,,,,,,,,,,,,,,,,,,,,,1.93,375.6298388,None,space,1,0.2783278,377.6602071,None,377.6602071,None,377.6602071,None,,,,,,,,,,,P012,fencog,1,Post,2021_Oct_15_1121,Go No-Go Task,2021.1.4,120.0700731
,"Rule: When you see a yellow image, do not press 'spacebar'.",Images/Happy/BF10_HO.jpg,Happy,Blue,Images/Blue.jpg,space,ParentConditions/YellowYellowBlue_v1.xlsx,YellowYellowBlue,Conditions/Version_1/YellowFearStop.xlsx,no,PASS,0.497783974,,,,,,,,,0,0,0,1,0,0,0,0,0,30,30,30,,,,,,,,,,,,,,,,,,,,,,,,,,,,,,,,,,,,,,,,,,,,,,,,,,,,,,,,,,,,,,,,,,,,,,,,,,,,,,,1.74,378.0604048,None,space,1,0.293208,379.9012191,None,379.9012191,None,379.9012191,None,,,,,,,,,,,P012,fencog,1,Post,2021_Oct_15_1121,Go No-Go Task,2021.1.4,120.0700731
,"Rule: When you see a yellow image, do not press 'spacebar'.",Images/Happy/BF07_HO.jpg,Happy,Blue,Images/Blue.jpg,space,ParentConditions/YellowYellowBlue_v1.xlsx,YellowYellowBlue,Conditions/Version_1/YellowFearStop.xlsx,no,PASS,0.823093167,,,,,,,,,0,0,0,1,0,0,0,0,0,31,31,31,,,,,,,,,,,,,,,,,,,,,,,,,,,,,,,,,,,,,,,,,,,,,,,,,,,,,,,,,,,,,,,,,,,,,,,,,,,,,,,1.53,380.3003773,None,space,1,0.3013647,381.9256493,None,381.9256493,None,381.9256493,None,,,,,,,,,,,P012,fencog,1,Post,2021_Oct_15_1121,Go No-Go Task,2021.1.4,120.0700731
,"Rule: When you see a yellow image, do not press 'spacebar'.",Images/Fearful/BF07_FO.jpg,Fear,Yellow,Images/Yellow.jpg,None,ParentConditions/YellowYellowBlue_v1.xlsx,YellowYellowBlue,Conditions/Version_1/YellowFearStop.xlsx,yes,PASS,0.211940988,,,,,,,,,0,0,0,1,0,0,0,0,0,32,32,32,,,,,,,,,,,,,,,,,,,,,,,,,,,,,,,,,,,,,,,,,,,,,,,,,,,,,,,,,,,,,,,,,,,,,,,,,,,,,,,1.76,382.3262477,None,None,1,,384.1916439,None,384.1916439,None,384.1916439,None,,,,,,,,,,,P012,fencog,1,Post,2021_Oct_15_1121,Go No-Go Task,2021.1.4,120.0700731
,"Rule: When you see a yellow image, do not press 'spacebar'.",Images/Happy/WF04_HC.jpg,Happy,Blue,Images/Blue.jpg,space,ParentConditions/YellowYellowBlue_v1.xlsx,YellowYellowBlue,Conditions/Version_1/YellowFearStop.xlsx,no,PASS,0.262296129,,,,,,,,,0,0,0,1,0,0,0,0,0,33,33,33,,,,,,,,,,,,,,,,,,,,,,,,,,,,,,,,,,,,,,,,,,,,,,,,,,,,,,,,,,,,,,,,,,,,,,,,,,,,,,,2,384.5919444,None,None,0,,386.6995454,None,386.6995454,None,386.6995454,None,,,,,,,,,,,P012,fencog,1,Post,2021_Oct_15_1121,Go No-Go Task,2021.1.4,120.0700731
,"Rule: When you see a yellow image, do not press 'spacebar'.",Images/Happy/AM23HAS.jpg,Happy,Blue,Images/Blue.jpg,space,ParentConditions/YellowYellowBlue_v1.xlsx,YellowYellowBlue,Conditions/Version_1/YellowFearStop.xlsx,no,PASS,0.65530777,,,,,,,,,0,0,0,1,0,0,0,0,0,34,34,34,,,,,,,,,,,,,,,,,,,,,,,,,,,,,,,,,,,,,,,,,,,,,,,,,,,,,,,,,,,,,,,,,,,,,,,,,,,,,,,1.9,387.101413,None,space,1,0.3195894,389.1069362,None,389.1069362,None,389.1069362,None,,,,,,,,,,,P012,fencog,1,Post,2021_Oct_15_1121,Go No-Go Task,2021.1.4,120.0700731
,"Rule: When you see a yellow image, do not press 'spacebar'.",Images/Happy/AM09HAS.jpg,Happy,Blue,Images/Blue.jpg,space,ParentConditions/YellowYellowBlue_v1.xlsx,YellowYellowBlue,Conditions/Version_1/YellowFearStop.xlsx,no,PASS,0.379245172,,,,,,,,,0,0,0,1,0,0,0,0,0,35,35,35,,,,,,,,,,,,,,,,,,,,,,,,,,,,,,,,,,,,,,,,,,,,,,,,,,,,,,,,,,,,,,,,,,,,,,,,,,,,,,,1.69,389.5074902,None,space,1,0.2652741,391.2978888,None,391.2978888,None,391.2978888,None,,,,,,,,,,,P012,fencog,1,Post,2021_Oct_15_1121,Go No-Go Task,2021.1.4,120.0700731
,"Rule: When you see a yellow image, do not press 'spacebar'.",Images/Happy/AM10HAS.jpg,Happy,Blue,Images/Blue.jpg,space,ParentConditions/YellowYellowBlue_v1.xlsx,YellowYellowBlue,Conditions/Version_1/YellowFearStop.xlsx,no,PASS,0.97815503,,,,,,,,,0,0,0,1,0,0,0,0,0,36,36,36,,,,,,,,,,,,,,,,,,,,,,,,,,,,,,,,,,,,,,,,,,,,,,,,,,,,,,,,,,,,,,,,,,,,,,,,,,,,,,,1.99,391.698986,None,space,1,0.2947002,393.7888158,None,393.7888158,None,393.7888158,None,,,,,,,,,,,P012,fencog,1,Post,2021_Oct_15_1121,Go No-Go Task,2021.1.4,120.0700731
,"Rule: When you see a yellow image, do not press 'spacebar'.",Images/Happy/AF07HAS.jpg,Happy,Blue,Images/Blue.jpg,space,ParentConditions/YellowYellowBlue_v1.xlsx,YellowYellowBlue,Conditions/Version_1/YellowFearStop.xlsx,no,PASS,0.982771062,,,,,,,,,0,0,0,1,0,0,0,0,0,37,37,37,,,,,,,,,,,,,,,,,,,,,,,,,,,,,,,,,,,,,,,,,,,,,,,,,,,,,,,,,,,,,,,,,,,,,,,,,,,,,,,1.56,394.1892816,None,None,0,,395.846533,None,395.846533,None,395.846533,None,,,,,,,,,,,P012,fencog,1,Post,2021_Oct_15_1121,Go No-Go Task,2021.1.4,120.0700731
,"Rule: When you see a yellow image, do not press 'spacebar'.",Images/Happy/AM03_HO.jpg,Happy,Blue,Images/Blue.jpg,space,ParentConditions/YellowYellowBlue_v1.xlsx,YellowYellowBlue,Conditions/Version_1/YellowFearStop.xlsx,no,PASS,0.696088357,,,,,,,,,0,0,0,1,0,0,0,0,0,38,38,38,,,,,,,,,,,,,,,,,,,,,,,,,,,,,,,,,,,,,,,,,,,,,,,,,,,,,,,,,,,,,,,,,,,,,,,,,,,,,,,1.84,396.2511719,None,space,1,0.2464621,398.1959516,None,398.1959516,None,398.1959516,None,,,,,,,,,,,P012,fencog,1,Post,2021_Oct_15_1121,Go No-Go Task,2021.1.4,120.0700731
,"Rule: When you see a yellow image, do not press 'spacebar'.",Images/Happy/AM05HAS.jpg,Happy,Blue,Images/Blue.jpg,space,ParentConditions/YellowYellowBlue_v1.xlsx,YellowYellowBlue,Conditions/Version_1/YellowFearStop.xlsx,no,PASS,0.8897548,,,,,,,,,0,0,0,1,0,0,0,0,0,39,39,39,,,,,,,,,,,,,,,,,,,,,,,,,,,,,,,,,,,,,,,,,,,,,,,,,,,,,,,,,,,,,,,,,,,,,,,,,,,,,,,1.41,398.5957386,None,space,1,0.1711822,400.1119411,None,400.1119411,None,400.1119411,None,,,,,,,,,,,P012,fencog,1,Post,2021_Oct_15_1121,Go No-Go Task,2021.1.4,120.0700731
,"Rule: When you see a yellow image, do not press 'spacebar'.",Images/Happy/AF02HAS.jpg,Happy,Blue,Images/Blue.jpg,space,ParentConditions/YellowYellowBlue_v1.xlsx,YellowYellowBlue,Conditions/Version_1/YellowFearStop.xlsx,no,PASS,0.253765998,,,,,,,,,0,0,0,1,0,0,0,0,0,40,40,40,,,,,,,,,,,,,,,,,,,,,,,,,,,,,,,,,,,,,,,,,,,,,,,,,,,,,,,,,,,,,,,,,,,,,,,,,,,,,,,1.83,400.5122786,None,space,1,0.2548235,402.4363286,None,402.4363286,None,402.4363286,None,,,,,,,,,,,P012,fencog,1,Post,2021_Oct_15_1121,Go No-Go Task,2021.1.4,120.0700731
,"Rule: When you see a yellow image, do not press 'spacebar'.",Images/Happy/BM08_HO.jpg,Happy,Blue,Images/Blue.jpg,space,ParentConditions/YellowYellowBlue_v1.xlsx,YellowYellowBlue,Conditions/Version_1/YellowFearStop.xlsx,no,PASS,0.999289281,,,,,,,,,0,0,0,1,0,0,0,0,0,41,41,41,,,,,,,,,,,,,,,,,,,,,,,,,,,,,,,,,,,,,,,,,,,,,,,,,,,,,,,,,,,,,,,,,,,,,,,,,,,,,,,1.45,402.8473988,None,space,1,0.2882931,404.4024138,None,404.4024138,None,404.4024138,None,,,,,,,,,,,P012,fencog,1,Post,2021_Oct_15_1121,Go No-Go Task,2021.1.4,120.0700731
,"Rule: When you see a yellow image, do not press 'spacebar'.",Images/Happy/AM22HAS.jpg,Happy,Blue,Images/Blue.jpg,space,ParentConditions/YellowYellowBlue_v1.xlsx,YellowYellowBlue,Conditions/Version_1/YellowFearStop.xlsx,no,PASS,0.324368893,,,,,,,,,0,0,0,1,0,0,0,0,0,42,42,42,,,,,,,,,,,,,,,,,,,,,,,,,,,,,,,,,,,,,,,,,,,,,,,,,,,,,,,,,,,,,,,,,,,,,,,,,,,,,,,1.92,404.8029066,None,space,1,0.2321677,406.826733,None,406.826733,None,406.826733,None,,,,,,,,,,,P012,fencog,1,Post,2021_Oct_15_1121,Go No-Go Task,2021.1.4,120.0700731
,"Rule: When you see a yellow image, do not press 'spacebar'.",Images/Happy/AM30HAS.jpg,Happy,Blue,Images/Blue.jpg,space,ParentConditions/YellowYellowBlue_v1.xlsx,YellowYellowBlue,Conditions/Version_1/YellowFearStop.xlsx,no,PASS,0.632974901,,,,,,,,,0,0,0,1,0,0,0,0,0,43,43,43,,,,,,,,,,,,,,,,,,,,,,,,,,,,,,,,,,,,,,,,,,,,,,,,,,,,,,,,,,,,,,,,,,,,,,,,,,,,,,,1.95,407.2274853,None,space,1,0.2233289,409.2840403,None,409.2840403,None,409.2840403,None,,,,,,,,,,,P012,fencog,1,Post,2021_Oct_15_1121,Go No-Go Task,2021.1.4,120.0700731
,"Rule: When you see a yellow image, do not press 'spacebar'.",Images/Fearful/BF09_FC.jpg,Fear,Yellow,Images/Yellow.jpg,None,ParentConditions/YellowYellowBlue_v1.xlsx,YellowYellowBlue,Conditions/Version_1/YellowFearStop.xlsx,yes,PASS,0.849066623,,,,,,,,,0,0,0,1,0,0,0,0,0,44,44,44,,,,,,,,,,,,,,,,,,,,,,,,,,,,,,,,,,,,,,,,,,,,,,,,,,,,,,,,,,,,,,,,,,,,,,,,,,,,,,,1.51,409.6892596,None,None,1,,411.3001305,None,411.3001305,None,411.3001305,None,,,,,,,,,,,P012,fencog,1,Post,2021_Oct_15_1121,Go No-Go Task,2021.1.4,120.0700731
,"Rule: When you see a yellow image, do not press 'spacebar'.",Images/Happy/WM12_HE.jpg,Happy,Blue,Images/Blue.jpg,space,ParentConditions/YellowYellowBlue_v1.xlsx,YellowYellowBlue,Conditions/Version_1/YellowFearStop.xlsx,no,PASS,0.119290995,,,,,,,,,0,0,0,1,0,0,0,0,0,45,45,45,,,,,,,,,,,,,,,,,,,,,,,,,,,,,,,,,,,,,,,,,,,,,,,,,,,,,,,,,,,,,,,,,,,,,,,,,,,,,,,1.68,411.6990245,None,space,1,0.2632121,413.4826285,None,413.4826285,None,413.4826285,None,,,,,,,,,,,P012,fencog,1,Post,2021_Oct_15_1121,Go No-Go Task,2021.1.4,120.0700731
,"Rule: When you see a yellow image, do not press 'spacebar'.",Images/Happy/HF10_HE.jpg,Happy,Blue,Images/Blue.jpg,space,ParentConditions/YellowYellowBlue_v1.xlsx,YellowYellowBlue,Conditions/Version_1/YellowFearStop.xlsx,no,PASS,0.835696517,,,,,,,,,0,0,0,1,0,0,0,0,0,46,46,46,,,,,,,,,,,,,,,,,,,,,,,,,,,,,,,,,,,,,,,,,,,,,,,,,,,,,,,,,,,,,,,,,,,,,,,,,,,,,,,1.96,413.8825459,None,space,1,0.2848711,415.9490148,None,415.9490148,None,415.9490148,None,,,,,,,,,,,P012,fencog,1,Post,2021_Oct_15_1121,Go No-Go Task,2021.1.4,120.0700731
,"Rule: When you see a yellow image, do not press 'spacebar'.",Images/Happy/HM09_HO.jpg,Happy,Blue,Images/Blue.jpg,space,ParentConditions/YellowYellowBlue_v1.xlsx,YellowYellowBlue,Conditions/Version_1/YellowFearStop.xlsx,no,PASS,0.806158044,,,,,,,,,0,0,0,1,0,0,0,0,0,47,47,47,,,,,,,,,,,,,,,,,,,,,,,,,,,,,,,,,,,,,,,,,,,,,,,,,,,,,,,,,,,,,,,,,,,,,,,,,,,,,,,1.52,416.3525089,None,None,0,,417.965667,None,417.965667,None,417.965667,None,,,,,,,,,,,P012,fencog,1,Post,2021_Oct_15_1121,Go No-Go Task,2021.1.4,120.0700731
,"Rule: When you see a yellow image, do not press 'spacebar'.",Images/Fearful/AM03_FC.jpg,Fear,Yellow,Images/Yellow.jpg,None,ParentConditions/YellowYellowBlue_v1.xlsx,YellowYellowBlue,Conditions/Version_1/YellowFearStop.xlsx,yes,PASS,0.148465679,,,,,,,,,0,0,0,1,0,0,0,0,0,48,48,48,,,,,,,,,,,,,,,,,,,,,,,,,,,,,,,,,,,,,,,,,,,,,,,,,,,,,,,,,,,,,,,,,,,,,,,,,,,,,,,1.39,418.3728185,None,None,1,,419.8644529,None,419.8644529,None,419.8644529,None,,,,,,,,,,,P012,fencog,1,Post,2021_Oct_15_1121,Go No-Go Task,2021.1.4,120.0700731
,"Rule: When you see a yellow image, do not press 'spacebar'.",Images/Happy/HF04_HE.jpg,Happy,Blue,Images/Blue.jpg,space,ParentConditions/YellowYellowBlue_v1.xlsx,YellowYellowBlue,Conditions/Version_1/YellowFearStop.xlsx,no,PASS,0.493401324,,,,,,,,,0,0,0,1,0,0,0,0,0,49,49,49,,,,,,,,,,,,,,,,,,,,,,,,,,,,,,,,,,,,,,,,,,,,,,,,,,,,,,,,,,,,,,,,,,,,,,,,,,,,,,,1.97,420.2697112,None,space,1,0.2476684,422.3471533,None,422.3471533,None,422.3471533,None,,,,,,,,,,,P012,fencog,1,Post,2021_Oct_15_1121,Go No-Go Task,2021.1.4,120.0700731
,"Rule: When you see a yellow image, do not press 'spacebar'.",Images/Happy/AM17HAS.jpg,Happy,Blue,Images/Blue.jpg,space,ParentConditions/YellowYellowBlue_v1.xlsx,YellowYellowBlue,Conditions/Version_1/YellowFearStop.xlsx,no,PASS,0.470539973,,,,,,,,,0,0,0,1,0,0,0,0,0,50,50,50,,,,,,,,,,,,,,,,,,,,,,,,,,,,,,,,,,,,,,,,,,,,,,,,,,,,,,,,,,,,,,,,,,,,,,,,,,,,,,,1.33,422.7474386,None,space,1,0.2863081,424.1799086,None,424.1799086,None,424.1799086,None,,,,,,,,,,,P012,fencog,1,Post,2021_Oct_15_1121,Go No-Go Task,2021.1.4,120.0700731
,"Rule: When you see a yellow image, do not press 'spacebar'.",Images/Fearful/BM01_FO.jpg,Fear,Yellow,Images/Yellow.jpg,None,ParentConditions/YellowYellowBlue_v1.xlsx,YellowYellowBlue,Conditions/Version_1/YellowFearStop.xlsx,yes,PASS,0.313471747,,,,,,,,,0,0,0,1,0,0,0,0,0,51,51,51,,,,,,,,,,,,,,,,,,,,,,,,,,,,,,,,,,,,,,,,,,,,,,,,,,,,,,,,,,,,,,,,,,,,,,,,,,,,,,,1.8,424.5818986,None,None,1,,426.4792131,None,426.4792131,None,426.4792131,None,,,,,,,,,,,P012,fencog,1,Post,2021_Oct_15_1121,Go No-Go Task,2021.1.4,120.0700731
,"Rule: When you see a yellow image, do not press 'spacebar'.",Images/Happy/HF09_HE.jpg,Happy,Blue,Images/Blue.jpg,space,ParentConditions/YellowYellowBlue_v1.xlsx,YellowYellowBlue,Conditions/Version_1/YellowFearStop.xlsx,no,PASS,0.012739972,,,,,,,,,0,0,0,1,0,0,0,0,0,52,52,52,,,,,,,,,,,,,,,,,,,,,,,,,,,,,,,,,,,,,,,,,,,,,,,,,,,,,,,,,,,,,,,,,,,,,,,,,,,,,,,1.5,426.8802021,None,space,1,0.2601135,428.4869334,None,428.4869334,None,428.4869334,None,,,,,,,,,,,P012,fencog,1,Post,2021_Oct_15_1121,Go No-Go Task,2021.1.4,120.0700731
,"Rule: When you see a yellow image, do not press 'spacebar'.",Images/Happy/WF11_HE.jpg,Happy,Blue,Images/Blue.jpg,space,ParentConditions/YellowYellowBlue_v1.xlsx,YellowYellowBlue,Conditions/Version_1/YellowFearStop.xlsx,no,PASS,0.512809715,,,,,,,,,0,0,0,1,0,0,0,0,0,53,53,53,,,,,,,,,,,,,,,,,,,,,,,,,,,,,,,,,,,,,,,,,,,,,,,,,,,,,,,,,,,,,,,,,,,,,,,,,,,,,,,1.73,428.8865602,None,space,1,0.282942,430.7196273,None,430.7196273,None,430.7196273,None,,,,,,,,,,,P012,fencog,1,Post,2021_Oct_15_1121,Go No-Go Task,2021.1.4,120.0700731
,"Rule: When you see a yellow image, do not press 'spacebar'.",Images/Fearful/AM04AFS.jpg,Fear,Yellow,Images/Yellow.jpg,None,ParentConditions/YellowYellowBlue_v1.xlsx,YellowYellowBlue,Conditions/Version_1/YellowFearStop.xlsx,yes,PASS,0.480810801,,,,,,,,,0,0,0,1,0,0,0,0,0,54,54,54,,,,,,,,,,,,,,,,,,,,,,,,,,,,,,,,,,,,,,,,,,,,,,,,,,,,,,,,,,,,,,,,,,,,,,,,,,,,,,,1.7,431.1267812,None,None,1,,432.9272792,None,432.9272792,None,432.9272792,None,,,,,,,,,,,P012,fencog,1,Post,2021_Oct_15_1121,Go No-Go Task,2021.1.4,120.0700731
,"Rule: When you see a yellow image, do not press 'spacebar'.",Images/Happy/AF19HAS.jpg,Happy,Blue,Images/Blue.jpg,space,ParentConditions/YellowYellowBlue_v1.xlsx,YellowYellowBlue,Conditions/Version_1/YellowFearStop.xlsx,no,PASS,0.325214701,,,,,,,,,0,0,0,1,0,0,0,0,0,55,55,55,,,,,,,,,,,,,,,,,,,,,,,,,,,,,,,,,,,,,,,,,,,,,,,,,,,,,,,,,,,,,,,,,,,,,,,,,,,,,,,1.38,433.3302739,None,space,1,0.2966844,434.8100476,None,434.8100476,None,434.8100476,None,,,,,,,,,,,P012,fencog,1,Post,2021_Oct_15_1121,Go No-Go Task,2021.1.4,120.0700731
,"Rule: When you see a yellow image, do not press 'spacebar'.",Images/Happy/HM06_HO.jpg,Happy,Blue,Images/Blue.jpg,space,ParentConditions/YellowYellowBlue_v1.xlsx,YellowYellowBlue,Conditions/Version_1/YellowFearStop.xlsx,no,PASS,0.328233749,,,,,,,,,0,0,0,1,0,0,0,0,0,56,56,56,,,,,,,,,,,,,,,,,,,,,,,,,,,,,,,,,,,,,,,,,,,,,,,,,,,,,,,,,,,,,,,,,,,,,,,,,,,,,,,1.62,435.2092206,None,None,0,,436.9344951,None,436.9344951,None,436.9344951,None,,,,,,,,,,,P012,fencog,1,Post,2021_Oct_15_1121,Go No-Go Task,2021.1.4,120.0700731
,"Rule: When you see a yellow image, do not press 'spacebar'.",Images/Happy/HF05_HO.jpg,Happy,Blue,Images/Blue.jpg,space,ParentConditions/YellowYellowBlue_v1.xlsx,YellowYellowBlue,Conditions/Version_1/YellowFearStop.xlsx,no,PASS,0.583339171,,,,,,,,,0,0,0,1,0,0,0,0,0,57,57,57,,,,,,,,,,,,,,,,,,,,,,,,,,,,,,,,,,,,,,,,,,,,,,,,,,,,,,,,,,,,,,,,,,,,,,,,,,,,,,,1.54,437.3369183,None,space,1,0.2830494,438.9838673,None,438.9838673,None,438.9838673,None,,,,,,,,,,,P012,fencog,1,Post,2021_Oct_15_1121,Go No-Go Task,2021.1.4,120.0700731
,"Rule: When you see a yellow image, do not press 'spacebar'.",Images/Fearful/AF01_FO.jpg,Fear,Yellow,Images/Yellow.jpg,None,ParentConditions/YellowYellowBlue_v1.xlsx,YellowYellowBlue,Conditions/Version_1/YellowFearStop.xlsx,yes,PASS,0.303490073,,,,,,,,,0,0,0,1,0,0,0,0,0,58,58,58,,,,,,,,,,,,,,,,,,,,,,,,,,,,,,,,,,,,,,,,,,,,,,,,,,,,,,,,,,,,,,,,,,,,,,,,,,,,,,,1.79,439.3843998,None,None,1,,441.2747907,None,441.2747907,None,441.2747907,None,,,,,,,,,,,P012,fencog,1,Post,2021_Oct_15_1121,Go No-Go Task,2021.1.4,120.0700731
,"Rule: When you see a yellow image, do not press 'spacebar'.",Images/Happy/AF21HAS.jpg,Happy,Blue,Images/Blue.jpg,space,ParentConditions/YellowYellowBlue_v1.xlsx,YellowYellowBlue,Conditions/Version_1/YellowFearStop.xlsx,no,PASS,0.979970213,,,,,,,,,0,0,0,1,0,0,0,0,0,59,59,59,,,,,,,,,,,,,,,,,,,,,,,,,,,,,,,,,,,,,,,,,,,,,,,,,,,,,,,,,,,,,,,,,,,,,,,,,,,,,,,1.91,441.6801255,None,space,1,0.2796281,443.6908716,None,443.6908716,None,443.6908716,None,,,,,,,,,,,P012,fencog,1,Post,2021_Oct_15_1121,Go No-Go Task,2021.1.4,120.0700731
,"Rule: When you see a yellow image, do not press 'spacebar'.",Images/Happy/AM06_HC.jpg,Happy,Blue,Images/Blue.jpg,space,ParentConditions/YellowYellowBlue_v1.xlsx,YellowYellowBlue,Conditions/Version_1/YellowFearStop.xlsx,no,PASS,0.298164274,,,,,,,,,0,0,0,1,0,0,0,0,0,60,60,60,,,,,,,,,,,,,,,,,,,,,,,,,,,,,,,,,,,,,,,,,,,,,,,,,,,,,,,,,,,,,,,,,,,,,,,,,,,,,,,1.86,444.0914725,None,space,1,0.2899583,446.0567499,None,446.0567499,None,446.0567499,None,,,,,,,,,,,P012,fencog,1,Post,2021_Oct_15_1121,Go No-Go Task,2021.1.4,120.0700731
,"Rule: When you see a yellow image, do not press 'spacebar'.",Images/Fearful/AF02AFS.jpg,Fear,Yellow,Images/Yellow.jpg,None,ParentConditions/YellowYellowBlue_v1.xlsx,YellowYellowBlue,Conditions/Version_1/YellowFearStop.xlsx,yes,PASS,0.155825205,,,,,,,,,0,0,0,1,0,0,0,0,0,61,61,61,,,,,,,,,,,,,,,,,,,,,,,,,,,,,,,,,,,,,,,,,,,,,,,,,,,,,,,,,,,,,,,,,,,,,,,,,,,,,,,1.64,446.4629751,None,None,1,,448.2061025,None,448.2061025,None,448.2061025,None,,,,,,,,,,,P012,fencog,1,Post,2021_Oct_15_1121,Go No-Go Task,2021.1.4,120.0700731
,"Rule: When you see a yellow image, do not press 'spacebar'.",Images/Happy/AF25HAS.jpg,Happy,Blue,Images/Blue.jpg,space,ParentConditions/YellowYellowBlue_v1.xlsx,YellowYellowBlue,Conditions/Version_1/YellowFearStop.xlsx,no,PASS,0.796365343,,,,,,,,,0,0,0,1,0,0,0,0,0,62,62,62,,,,,,,,,,,,,,,,,,,,,,,,,,,,,,,,,,,,,,,,,,,,,,,,,,,,,,,,,,,,,,,,,,,,,,,,,,,,,,,1.42,448.6109138,None,space,1,0.2874994,450.1388894,None,450.1388894,None,450.1388894,None,,,,,,,,,,,P012,fencog,1,Post,2021_Oct_15_1121,Go No-Go Task,2021.1.4,120.0700731
,"Rule: When you see a yellow image, do not press 'spacebar'.",Images/Happy/AM32HAS.jpg,Happy,Blue,Images/Blue.jpg,space,ParentConditions/YellowYellowBlue_v1.xlsx,YellowYellowBlue,Conditions/Version_1/YellowFearStop.xlsx,no,PASS,0.282355746,,,,,,,,,0,0,0,1,0,0,0,0,0,63,63,63,,,,,,,,,,,,,,,,,,,,,,,,,,,,,,,,,,,,,,,,,,,,,,,,,,,,,,,,,,,,,,,,,,,,,,,,,,,,,,,1.47,450.5376173,None,space,1,0.3453433,452.1134068,None,452.1134068,None,452.1134068,None,,,,,,,,,,,P012,fencog,1,Post,2021_Oct_15_1121,Go No-Go Task,2021.1.4,120.0700731
,"Rule: When you see a yellow image, do not press 'spacebar'.",Images/Fearful/AM02_FO.jpg,Fear,Yellow,Images/Yellow.jpg,None,ParentConditions/YellowYellowBlue_v1.xlsx,YellowYellowBlue,Conditions/Version_1/YellowFearStop.xlsx,yes,PASS,0.848162451,,,,,,,,,0,0,0,1,0,0,0,0,0,64,64,64,,,,,,,,,,,,,,,,,,,,,,,,,,,,,,,,,,,,,,,,,,,,,,,,,,,,,,,,,,,,,,,,,,,,,,,,,,,,,,,1.75,452.5130924,None,None,1,,454.3710915,None,454.3710915,None,454.3710915,None,,,,,,,,,,,P012,fencog,1,Post,2021_Oct_15_1121,Go No-Go Task,2021.1.4,120.0700731
,"Rule: When you see a yellow image, do not press 'spacebar'.",Images/Fearful/BM02_FC.jpg,Fear,Yellow,Images/Yellow.jpg,None,ParentConditions/YellowYellowBlue_v1.xlsx,YellowYellowBlue,Conditions/Version_1/YellowFearStop.xlsx,yes,PASS,0.703347445,,,,,,,,,0,0,0,1,0,0,0,0,0,65,65,65,,,,,,,,,,,,,,,,,,,,,,,,,,,,,,,,,,,,,,,,,,,,,,,,,,,,,,,,,,,,,,,,,,,,,,,,,,,,,,,1.36,454.7701046,None,None,1,,456.2287625,None,456.2287625,None,456.2287625,None,,,,,,,,,,,P012,fencog,1,Post,2021_Oct_15_1121,Go No-Go Task,2021.1.4,120.0700731
,"Rule: When you see a yellow image, do not press 'spacebar'.",Images/Happy/AM04_HE.jpg,Happy,Blue,Images/Blue.jpg,space,ParentConditions/YellowYellowBlue_v1.xlsx,YellowYellowBlue,Conditions/Version_1/YellowFearStop.xlsx,no,PASS,0.195445465,,,,,,,,,0,0,0,1,0,0,0,0,0,66,66,66,,,,,,,,,,,,,,,,,,,,,,,,,,,,,,,,,,,,,,,,,,,,,,,,,,,,,,,,,,,,,,,,,,,,,,,,,,,,,,,1.46,456.6288889,None,space,1,0.2961886,458.1947489,None,458.1947489,None,458.1947489,None,,,,,,,,,,,P012,fencog,1,Post,2021_Oct_15_1121,Go No-Go Task,2021.1.4,120.0700731
,"Rule: When you see a yellow image, do not press 'spacebar'.",Images/Fearful/AM05AFS.jpg,Fear,Yellow,Images/Yellow.jpg,None,ParentConditions/YellowYellowBlue_v1.xlsx,YellowYellowBlue,Conditions/Version_1/YellowFearStop.xlsx,yes,PASS,0.645933641,,,,,,,,,0,0,0,1,0,0,0,0,0,67,67,67,,,,,,,,,,,,,,,,,,,,,,,,,,,,,,,,,,,,,,,,,,,,,,,,,,,,,,,,,,,,,,,,,,,,,,,,,,,,,,,1.24,458.5982167,None,None,1,,459.9443302,None,459.9443302,None,459.9443302,None,,,,,,,,,,,P012,fencog,1,Post,2021_Oct_15_1121,Go No-Go Task,2021.1.4,120.0700731
,"Rule: When you see a yellow image, do not press 'spacebar'.",Images/Happy/AF28HAS.jpg,Happy,Blue,Images/Blue.jpg,space,ParentConditions/YellowYellowBlue_v1.xlsx,YellowYellowBlue,Conditions/Version_1/YellowFearStop.xlsx,no,PASS,0.168407758,,,,,,,,,0,0,0,1,0,0,0,0,0,68,68,68,,,,,,,,,,,,,,,,,,,,,,,,,,,,,,,,,,,,,,,,,,,,,,,,,,,,,,,,,,,,,,,,,,,,,,,,,,,,,,,1.49,460.3470206,None,space,1,0.2915713,461.9437115,None,461.9437115,None,461.9437115,None,,,,,,,,,,,P012,fencog,1,Post,2021_Oct_15_1121,Go No-Go Task,2021.1.4,120.0700731
,"Rule: When you see a yellow image, do not press 'spacebar'.",Images/Happy/AF07_HO.jpg,Happy,Blue,Images/Blue.jpg,space,ParentConditions/YellowYellowBlue_v1.xlsx,YellowYellowBlue,Conditions/Version_1/YellowFearStop.xlsx,no,PASS,0.892185425,,,,,,,,,0,0,0,1,0,0,0,0,0,69,69,69,,,,,,,,,,,,,,,,,,,,,,,,,,,,,,,,,,,,,,,,,,,,,,,,,,,,,,,,,,,,,,,,,,,,,,,,,,,,,,,1.21,462.3535635,None,space,1,0.3341713,463.6683228,None,463.6683228,None,463.6683228,None,,,,,,,,,,,P012,fencog,1,Post,2021_Oct_15_1121,Go No-Go Task,2021.1.4,120.0700731
,"Rule: When you see a yellow image, do not press 'spacebar'.",Images/Happy/BF14_HO.jpg,Happy,Blue,Images/Blue.jpg,space,ParentConditions/YellowYellowBlue_v1.xlsx,YellowYellowBlue,Conditions/Version_1/YellowFearStop.xlsx,no,PASS,0.113400233,,,,,,,,,0,0,0,1,0,0,0,0,0,70,70,70,,,,,,,,,,,,,,,,,,,,,,,,,,,,,,,,,,,,,,,,,,,,,,,,,,,,,,,,,,,,,,,,,,,,,,,,,,,,,,,1.48,464.0686697,None,space,1,0.311697,465.6426272,None,465.6426272,None,465.6426272,None,,,,,,,,,,,P012,fencog,1,Post,2021_Oct_15_1121,Go No-Go Task,2021.1.4,120.0700731
,"Rule: When you see a yellow image, do not press 'spacebar'.",Images/Fearful/AF07FS.jpg,Fear,Yellow,Images/Yellow.jpg,None,ParentConditions/YellowYellowBlue_v1.xlsx,YellowYellowBlue,Conditions/Version_1/YellowFearStop.xlsx,yes,PASS,0.017721147,,,,,,,,,0,0,0,1,0,0,0,0,0,71,71,71,,,,,,,,,,,,,,,,,,,,,,,,,,,,,,,,,,,,,,,,,,,,,,,,,,,,,,,,,,,,,,,,,,,,,,,,,,,,,,,1.27,466.0437295,None,None,1,,467.4171308,None,467.4171308,None,467.4171308,None,,,,,,,,,,,P012,fencog,1,Post,2021_Oct_15_1121,Go No-Go Task,2021.1.4,120.0700731
,"Rule: When you see a yellow image, do not press 'spacebar'.",Images/Happy/AF32HAS.jpg,Happy,Blue,Images/Blue.jpg,space,ParentConditions/YellowYellowBlue_v1.xlsx,YellowYellowBlue,Conditions/Version_1/YellowFearStop.xlsx,no,PASS,0.351428612,,,,,,,,,0,0,0,1,0,0,0,0,0,72,72,72,,,,,,,,,,,,,,,,,,,,,,,,,,,,,,,,,,,,,,,,,,,,,,,,,,,,,,,,,,,,,,,,,,,,,,,,,,,,,,,1.31,467.8178652,None,space,1,0.3378835,469.2331738,None,469.2331738,None,469.2331738,None,,,,,,,,,,,P012,fencog,1,Post,2021_Oct_15_1121,Go No-Go Task,2021.1.4,120.0700731
,"Rule: When you see a yellow image, do not press 'spacebar'.",Images/Happy/AF11HAS.jpg,Happy,Blue,Images/Blue.jpg,space,ParentConditions/YellowYellowBlue_v1.xlsx,YellowYellowBlue,Conditions/Version_1/YellowFearStop.xlsx,no,PASS,0.543717435,,,,,,,,,0,0,0,1,0,0,0,0,0,73,73,73,,,,,,,,,,,,,,,,,,,,,,,,,,,,,,,,,,,,,,,,,,,,,,,,,,,,,,,,,,,,,,,,,,,,,,,,,,,,,,,1.77,469.6335669,None,space,1,0.3034991,471.5076049,None,471.5076049,None,471.5076049,None,,,,,,,,,,,P012,fencog,1,Post,2021_Oct_15_1121,Go No-Go Task,2021.1.4,120.0700731
,"Rule: When you see a yellow image, do not press 'spacebar'.",Images/Happy/AM19HAS.jpg,Happy,Blue,Images/Blue.jpg,space,ParentConditions/YellowYellowBlue_v1.xlsx,YellowYellowBlue,Conditions/Version_1/YellowFearStop.xlsx,no,PASS,0.404854658,,,,,,,,,0,0,0,1,0,0,0,0,0,74,74,74,,,,,,,,,,,,,,,,,,,,,,,,,,,,,,,,,,,,,,,,,,,,,,,,,,,,,,,,,,,,,,,,,,,,,,,,,,,,,,,1.94,471.9081336,None,None,0,,473.948664,None,473.948664,None,473.948664,None,,,,,,,,,,,P012,fencog,1,Post,2021_Oct_15_1121,Go No-Go Task,2021.1.4,120.0700731
,"Rule: When you see a yellow image, do not press 'spacebar'.",Images/Happy/AM01HAS.jpg,Happy,Blue,Images/Blue.jpg,space,ParentConditions/YellowYellowBlue_v1.xlsx,YellowYellowBlue,Conditions/Version_1/YellowFearStop.xlsx,no,PASS,0.668098745,,,,,,,,,0,0,0,1,0,0,0,0,0,75,75,75,,,,,,,,,,,,,,,,,,,,,,,,,,,,,,,,,,,,,,,,,,,,,,,,,,,,,,,,,,,,,,,,,,,,,,,,,,,,,,,1.78,474.3491166,None,space,1,0.3233152,476.2309714,None,476.2309714,None,476.2309714,None,,,,,,,,,,,P012,fencog,1,Post,2021_Oct_15_1121,Go No-Go Task,2021.1.4,120.0700731
,"Rule: When you see a yellow image, do not press 'spacebar'.",Images/Happy/WF05_HC.jpg,Happy,Blue,Images/Blue.jpg,space,ParentConditions/YellowYellowBlue_v1.xlsx,YellowYellowBlue,Conditions/Version_1/YellowFearStop.xlsx,no,PASS,0.334650317,,,,,,,,,0,0,0,1,0,0,0,0,0,76,76,76,,,,,,,,,,,,,,,,,,,,,,,,,,,,,,,,,,,,,,,,,,,,,,,,,,,,,,,,,,,,,,,,,,,,,,,,,,,,,,,1.58,476.6331919,None,space,1,0.3286702,478.3140432,None,478.3140432,None,478.3140432,None,,,,,,,,,,,P012,fencog,1,Post,2021_Oct_15_1121,Go No-Go Task,2021.1.4,120.0700731
,"Rule: When you see a yellow image, do not press 'spacebar'.",Images/Happy/BM03_HO.jpg,Happy,Blue,Images/Blue.jpg,space,ParentConditions/YellowYellowBlue_v1.xlsx,YellowYellowBlue,Conditions/Version_1/YellowFearStop.xlsx,no,PASS,0.830918277,,,,,,,,,0,0,0,1,0,0,0,0,0,77,77,77,,,,,,,,,,,,,,,,,,,,,,,,,,,,,,,,,,,,,,,,,,,,,,,,,,,,,,,,,,,,,,,,,,,,,,,,,,,,,,,1.71,478.7230718,None,space,1,0.3125694,480.5384018,None,480.5384018,None,480.5384018,None,,,,,,,,,,,P012,fencog,1,Post,2021_Oct_15_1121,Go No-Go Task,2021.1.4,120.0700731
,"Rule: When you see a yellow image, do not press 'spacebar'.",Images/Happy/AM02_HE.jpg,Happy,Blue,Images/Blue.jpg,space,ParentConditions/YellowYellowBlue_v1.xlsx,YellowYellowBlue,Conditions/Version_1/YellowFearStop.xlsx,no,PASS,0.732833616,,,,,,,,,0,0,0,1,0,0,0,0,0,78,78,78,,,,,,,,,,,,,,,,,,,,,,,,,,,,,,,,,,,,,,,,,,,,,,,,,,,,,,,,,,,,,,,,,,,,,,,,,,,,,,,1.65,480.9417366,None,space,1,0.3387348,482.695983,None,482.695983,None,482.695983,None,,,,,,,,,,,P012,fencog,1,Post,2021_Oct_15_1121,Go No-Go Task,2021.1.4,120.0700731
,"Rule: When you see a yellow image, do not press 'spacebar'.",Images/Fearful/AM06_FO.jpg,Fear,Yellow,Images/Yellow.jpg,None,ParentConditions/YellowYellowBlue_v1.xlsx,YellowYellowBlue,Conditions/Version_1/YellowFearStop.xlsx,yes,PASS,0.223983488,,,,,,,,,0,0,0,1,0,0,0,0,0,79,79,79,,,,,,,,,,,,,,,,,,,,,,,,,,,,,,,,,,,,,,,,,,,,,,,,,,,,,,,,,,,,,,,,,,,,,,,,,,,,,,,1.87,483.0977731,None,None,1,,485.0703353,None,485.0703353,None,485.0703353,None,,,,,,,,,,,P012,fencog,1,Post,2021_Oct_15_1121,Go No-Go Task,2021.1.4,120.0700731
,"Rule: When you see a yellow image, do not press 'spacebar'.",Images/Scram2/HM09_NC.jpg,Scramble,Blue,Images/Blue.jpg,space,ParentConditions/YellowYellowBlue_v1.xlsx,YellowYellowBlue,Conditions/Version_1/YellowScramStop.xlsx,no,PASS,0.165462095,,,,,,,,,0,0,0,1,0,1,1,1,0,0,0,0,,,,,,,,,,,,,,,,,,,,,,,,,,,,,,,,,,,,,,,,,,,,,,,,,,,,,,,,,,,,,,,,,486.5929837,None,489.5851767,None,space,19.2332592,489.5851767,None,486.5929837,None,486.5929837,None,486.5929837,None,1.78,508.8798321,None,None,0,,510.7627351,None,510.7627351,None,510.7627351,None,485.4901677,None,space,0.6004914,485.9778319,None,485.4901677,None,485.4901677,None,P012,fencog,1,Post,2021_Oct_15_1121,Go No-Go Task,2021.1.4,120.0700731
,"Rule: When you see a yellow image, do not press 'spacebar'.",Images/Scram2/HM06_NC.jpg,Scramble,Blue,Images/Blue.jpg,space,ParentConditions/YellowYellowBlue_v1.xlsx,YellowYellowBlue,Conditions/Version_1/YellowScramStop.xlsx,no,PASS,0.897967529,,,,,,,,,0,0,0,1,0,1,1,1,0,1,1,1,,,,,,,,,,,,,,,,,,,,,,,,,,,,,,,,,,,,,,,,,,,,,,,,,,,,,,,,,,,,,,,,,,,,,,,,,,,,,,,1.36,511.164235,None,space,1,0.3340339,512.6288605,None,512.6288605,None,512.6288605,None,,,,,,,,,,,P012,fencog,1,Post,2021_Oct_15_1121,Go No-Go Task,2021.1.4,120.0700731
,"Rule: When you see a yellow image, do not press 'spacebar'.",Images/Scram1/AM31NES.jpg,Scramble,Blue,Images/Blue.jpg,space,ParentConditions/YellowYellowBlue_v1.xlsx,YellowYellowBlue,Conditions/Version_1/YellowScramStop.xlsx,no,PASS,0.923187968,,,,,,,,,0,0,0,1,0,1,1,1,0,2,2,2,,,,,,,,,,,,,,,,,,,,,,,,,,,,,,,,,,,,,,,,,,,,,,,,,,,,,,,,,,,,,,,,,,,,,,,,,,,,,,,1.94,513.0291227,None,space,1,0.2770954,515.0697312,None,515.0697312,None,515.0697312,None,,,,,,,,,,,P012,fencog,1,Post,2021_Oct_15_1121,Go No-Go Task,2021.1.4,120.0700731
,"Rule: When you see a yellow image, do not press 'spacebar'.",Images/Scram2/AM03NES.jpg,Scramble,Yellow,Images/Yellow.jpg,None,ParentConditions/YellowYellowBlue_v1.xlsx,YellowYellowBlue,Conditions/Version_1/YellowScramStop.xlsx,yes,PASS,0.512384462,,,,,,,,,0,0,0,1,0,1,1,1,0,3,3,3,,,,,,,,,,,,,,,,,,,,,,,,,,,,,,,,,,,,,,,,,,,,,,,,,,,,,,,,,,,,,,,,,,,,,,,,,,,,,,,1.39,515.4691567,None,None,1,,516.961449,None,516.961449,None,516.961449,None,,,,,,,,,,,P012,fencog,1,Post,2021_Oct_15_1121,Go No-Go Task,2021.1.4,120.0700731
,"Rule: When you see a yellow image, do not press 'spacebar'.",Images/Scram2/BM01_NC.jpg,Scramble,Blue,Images/Blue.jpg,space,ParentConditions/YellowYellowBlue_v1.xlsx,YellowYellowBlue,Conditions/Version_1/YellowScramStop.xlsx,no,PASS,0.964762263,,,,,,,,,0,0,0,1,0,1,1,1,0,4,4,4,,,,,,,,,,,,,,,,,,,,,,,,,,,,,,,,,,,,,,,,,,,,,,,,,,,,,,,,,,,,,,,,,,,,,,,,,,,,,,,1.55,517.3611966,None,space,1,0.2641707,519.018752,None,519.018752,None,519.018752,None,,,,,,,,,,,P012,fencog,1,Post,2021_Oct_15_1121,Go No-Go Task,2021.1.4,120.0700731
,"Rule: When you see a yellow image, do not press 'spacebar'.",Images/Scram1/HM09_NC.jpg,Scramble,Blue,Images/Blue.jpg,space,ParentConditions/YellowYellowBlue_v1.xlsx,YellowYellowBlue,Conditions/Version_1/YellowScramStop.xlsx,no,PASS,0.000687925,,,,,,,,,0,0,0,1,0,1,1,1,0,5,5,5,,,,,,,,,,,,,,,,,,,,,,,,,,,,,,,,,,,,,,,,,,,,,,,,,,,,,,,,,,,,,,,,,,,,,,,,,,,,,,,1.79,519.4184972,None,space,1,0.2373792,521.3097426,None,521.3097426,None,521.3097426,None,,,,,,,,,,,P012,fencog,1,Post,2021_Oct_15_1121,Go No-Go Task,2021.1.4,120.0700731
,"Rule: When you see a yellow image, do not press 'spacebar'.",Images/Scram2/BF07_NC.jpg,Scramble,Blue,Images/Blue.jpg,space,ParentConditions/YellowYellowBlue_v1.xlsx,YellowYellowBlue,Conditions/Version_1/YellowScramStop.xlsx,no,PASS,0.995882368,,,,,,,,,0,0,0,1,0,1,1,1,0,6,6,6,,,,,,,,,,,,,,,,,,,,,,,,,,,,,,,,,,,,,,,,,,,,,,,,,,,,,,,,,,,,,,,,,,,,,,,,,,,,,,,1.7,521.7086458,None,space,1,0.2697845,523.5090488,None,523.5090488,None,523.5090488,None,,,,,,,,,,,P012,fencog,1,Post,2021_Oct_15_1121,Go No-Go Task,2021.1.4,120.0700731
,"Rule: When you see a yellow image, do not press 'spacebar'.",Images/Scram1/BF14_NC.jpg,Scramble,Blue,Images/Blue.jpg,space,ParentConditions/YellowYellowBlue_v1.xlsx,YellowYellowBlue,Conditions/Version_1/YellowScramStop.xlsx,no,PASS,0.239759658,,,,,,,,,0,0,0,1,0,1,1,1,0,7,7,7,,,,,,,,,,,,,,,,,,,,,,,,,,,,,,,,,,,,,,,,,,,,,,,,,,,,,,,,,,,,,,,,,,,,,,,,,,,,,,,1.9,523.909292,None,space,1,0.2625998,525.9166392,None,525.9166392,None,525.9166392,None,,,,,,,,,,,P012,fencog,1,Post,2021_Oct_15_1121,Go No-Go Task,2021.1.4,120.0700731
,"Rule: When you see a yellow image, do not press 'spacebar'.",Images/Scram2/AF10_NC.jpg,Scramble,Blue,Images/Blue.jpg,space,ParentConditions/YellowYellowBlue_v1.xlsx,YellowYellowBlue,Conditions/Version_1/YellowScramStop.xlsx,no,PASS,0.231928382,,,,,,,,,0,0,0,1,0,1,1,1,0,8,8,8,,,,,,,,,,,,,,,,,,,,,,,,,,,,,,,,,,,,,,,,,,,,,,,,,,,,,,,,,,,,,,,,,,,,,,,,,,,,,,,1.95,526.3155923,None,space,1,0.2766236,528.3659692,None,528.3659692,None,528.3659692,None,,,,,,,,,,,P012,fencog,1,Post,2021_Oct_15_1121,Go No-Go Task,2021.1.4,120.0700731
,"Rule: When you see a yellow image, do not press 'spacebar'.",Images/Scram2/AF01_NC.jpg,Scramble,Blue,Images/Blue.jpg,space,ParentConditions/YellowYellowBlue_v1.xlsx,YellowYellowBlue,Conditions/Version_1/YellowScramStop.xlsx,no,PASS,0.030564679,,,,,,,,,0,0,0,1,0,1,1,1,0,9,9,9,,,,,,,,,,,,,,,,,,,,,,,,,,,,,,,,,,,,,,,,,,,,,,,,,,,,,,,,,,,,,,,,,,,,,,,,,,,,,,,1.31,528.7660725,None,space,1,0.3006213,530.1821968,None,530.1821968,None,530.1821968,None,,,,,,,,,,,P012,fencog,1,Post,2021_Oct_15_1121,Go No-Go Task,2021.1.4,120.0700731
,"Rule: When you see a yellow image, do not press 'spacebar'.",Images/Scram2/AF24NES.jpg,Scramble,Blue,Images/Blue.jpg,space,ParentConditions/YellowYellowBlue_v1.xlsx,YellowYellowBlue,Conditions/Version_1/YellowScramStop.xlsx,no,PASS,0.325712461,,,,,,,,,0,0,0,1,0,1,1,1,0,10,10,10,,,,,,,,,,,,,,,,,,,,,,,,,,,,,,,,,,,,,,,,,,,,,,,,,,,,,,,,,,,,,,,,,,,,,,,,,,,,,,,1.5,530.5880121,None,space,1,0.2686264,532.1899012,None,532.1899012,None,532.1899012,None,,,,,,,,,,,P012,fencog,1,Post,2021_Oct_15_1121,Go No-Go Task,2021.1.4,120.0700731
,"Rule: When you see a yellow image, do not press 'spacebar'.",Images/Scram2/BF14_NC.jpg,Scramble,Blue,Images/Blue.jpg,space,ParentConditions/YellowYellowBlue_v1.xlsx,YellowYellowBlue,Conditions/Version_1/YellowScramStop.xlsx,no,PASS,0.745262532,,,,,,,,,0,0,0,1,0,1,1,1,0,11,11,11,,,,,,,,,,,,,,,,,,,,,,,,,,,,,,,,,,,,,,,,,,,,,,,,,,,,,,,,,,,,,,,,,,,,,,,,,,,,,,,1.45,532.5903903,None,space,1,0.2799725,534.1392428,None,534.1392428,None,534.1392428,None,,,,,,,,,,,P012,fencog,1,Post,2021_Oct_15_1121,Go No-Go Task,2021.1.4,120.0700731
,"Rule: When you see a yellow image, do not press 'spacebar'.",Images/Scram1/AM13NES.jpg,Scramble,Blue,Images/Blue.jpg,space,ParentConditions/YellowYellowBlue_v1.xlsx,YellowYellowBlue,Conditions/Version_1/YellowScramStop.xlsx,no,PASS,0.493993548,,,,,,,,,0,0,0,1,0,1,1,1,0,12,12,12,,,,,,,,,,,,,,,,,,,,,,,,,,,,,,,,,,,,,,,,,,,,,,,,,,,,,,,,,,,,,,,,,,,,,,,,,,,,,,,1.69,534.5384349,None,space,1,0.2725272,536.3303865,None,536.3303865,None,536.3303865,None,,,,,,,,,,,P012,fencog,1,Post,2021_Oct_15_1121,Go No-Go Task,2021.1.4,120.0700731
,"Rule: When you see a yellow image, do not press 'spacebar'.",Images/Scram1/HM04_NC.jpg,Scramble,Blue,Images/Blue.jpg,space,ParentConditions/YellowYellowBlue_v1.xlsx,YellowYellowBlue,Conditions/Version_1/YellowScramStop.xlsx,no,PASS,0.184674666,,,,,,,,,0,0,0,1,0,1,1,1,0,13,13,13,,,,,,,,,,,,,,,,,,,,,,,,,,,,,,,,,,,,,,,,,,,,,,,,,,,,,,,,,,,,,,,,,,,,,,,,,,,,,,,1.81,536.7304141,None,space,1,0.2204477,538.646324,None,538.646324,None,538.646324,None,,,,,,,,,,,P012,fencog,1,Post,2021_Oct_15_1121,Go No-Go Task,2021.1.4,120.0700731
,"Rule: When you see a yellow image, do not press 'spacebar'.",Images/Scram1/AM03NES.jpg,Scramble,Blue,Images/Blue.jpg,space,ParentConditions/YellowYellowBlue_v1.xlsx,YellowYellowBlue,Conditions/Version_1/YellowScramStop.xlsx,no,PASS,0.036392656,,,,,,,,,0,0,0,1,0,1,1,1,0,14,14,14,,,,,,,,,,,,,,,,,,,,,,,,,,,,,,,,,,,,,,,,,,,,,,,,,,,,,,,,,,,,,,,,,,,,,,,,,,,,,,,1.26,539.0468093,None,space,1,0.2710989,540.4123875,None,540.4123875,None,540.4123875,None,,,,,,,,,,,P012,fencog,1,Post,2021_Oct_15_1121,Go No-Go Task,2021.1.4,120.0700731
,"Rule: When you see a yellow image, do not press 'spacebar'.",Images/Scram1/AM22NES.jpg,Scramble,Blue,Images/Blue.jpg,space,ParentConditions/YellowYellowBlue_v1.xlsx,YellowYellowBlue,Conditions/Version_1/YellowScramStop.xlsx,no,PASS,0.464265865,,,,,,,,,0,0,0,1,0,1,1,1,0,15,15,15,,,,,,,,,,,,,,,,,,,,,,,,,,,,,,,,,,,,,,,,,,,,,,,,,,,,,,,,,,,,,,,,,,,,,,,,,,,,,,,1.91,540.8173847,None,space,1,0.2785745,542.8283249,None,542.8283249,None,542.8283249,None,,,,,,,,,,,P012,fencog,1,Post,2021_Oct_15_1121,Go No-Go Task,2021.1.4,120.0700731
,"Rule: When you see a yellow image, do not press 'spacebar'.",Images/Scram2/AM17NES.jpg,Scramble,Yellow,Images/Yellow.jpg,None,ParentConditions/YellowYellowBlue_v1.xlsx,YellowYellowBlue,Conditions/Version_1/YellowScramStop.xlsx,yes,PASS,0.967907979,,,,,,,,,0,0,0,1,0,1,1,1,0,16,16,16,,,,,,,,,,,,,,,,,,,,,,,,,,,,,,,,,,,,,,,,,,,,,,,,,,,,,,,,,,,,,,,,,,,,,,,,,,,,,,,1.89,543.232228,None,None,1,,545.2277277,None,545.2277277,None,545.2277277,None,,,,,,,,,,,P012,fencog,1,Post,2021_Oct_15_1121,Go No-Go Task,2021.1.4,120.0700731
,"Rule: When you see a yellow image, do not press 'spacebar'.",Images/Scram1/AM10NES.jpg,Scramble,Blue,Images/Blue.jpg,space,ParentConditions/YellowYellowBlue_v1.xlsx,YellowYellowBlue,Conditions/Version_1/YellowScramStop.xlsx,no,PASS,0.606062041,,,,,,,,,0,0,0,1,0,1,1,1,0,17,17,17,,,,,,,,,,,,,,,,,,,,,,,,,,,,,,,,,,,,,,,,,,,,,,,,,,,,,,,,,,,,,,,,,,,,,,,,,,,,,,,1.37,545.6286893,None,None,0,,547.0937744,None,547.0937744,None,547.0937744,None,,,,,,,,,,,P012,fencog,1,Post,2021_Oct_15_1121,Go No-Go Task,2021.1.4,120.0700731
,"Rule: When you see a yellow image, do not press 'spacebar'.",Images/Scram2/AM03_NC.jpg,Scramble,Yellow,Images/Yellow.jpg,None,ParentConditions/YellowYellowBlue_v1.xlsx,YellowYellowBlue,Conditions/Version_1/YellowScramStop.xlsx,yes,PASS,0.37502921,,,,,,,,,0,0,0,1,0,1,1,1,0,18,18,18,,,,,,,,,,,,,,,,,,,,,,,,,,,,,,,,,,,,,,,,,,,,,,,,,,,,,,,,,,,,,,,,,,,,,,,,,,,,,,,1.6,547.4929165,None,None,1,,549.193206,None,549.193206,None,549.193206,None,,,,,,,,,,,P012,fencog,1,Post,2021_Oct_15_1121,Go No-Go Task,2021.1.4,120.0700731
,"Rule: When you see a yellow image, do not press 'spacebar'.",Images/Scram1/HF09_NC.jpg,Scramble,Blue,Images/Blue.jpg,space,ParentConditions/YellowYellowBlue_v1.xlsx,YellowYellowBlue,Conditions/Version_1/YellowScramStop.xlsx,no,PASS,0.550594735,,,,,,,,,0,0,0,1,0,1,1,1,0,19,19,19,,,,,,,,,,,,,,,,,,,,,,,,,,,,,,,,,,,,,,,,,,,,,,,,,,,,,,,,,,,,,,,,,,,,,,,,,,,,,,,1.56,549.5994346,None,space,1,0.3190384,551.2758832,None,551.2758832,None,551.2758832,None,,,,,,,,,,,P012,fencog,1,Post,2021_Oct_15_1121,Go No-Go Task,2021.1.4,120.0700731
,"Rule: When you see a yellow image, do not press 'spacebar'.",Images/Scram1/BM08_NC.jpg,Scramble,Blue,Images/Blue.jpg,space,ParentConditions/YellowYellowBlue_v1.xlsx,YellowYellowBlue,Conditions/Version_1/YellowScramStop.xlsx,no,PASS,0.112391938,,,,,,,,,0,0,0,1,0,1,1,1,0,20,20,20,,,,,,,,,,,,,,,,,,,,,,,,,,,,,,,,,,,,,,,,,,,,,,,,,,,,,,,,,,,,,,,,,,,,,,,,,,,,,,,1.21,551.6800578,None,space,1,0.3626068,552.9920758,None,552.9920758,None,552.9920758,None,,,,,,,,,,,P012,fencog,1,Post,2021_Oct_15_1121,Go No-Go Task,2021.1.4,120.0700731
,"Rule: When you see a yellow image, do not press 'spacebar'.",Images/Scram1/AF32NES.jpg,Scramble,Blue,Images/Blue.jpg,space,ParentConditions/YellowYellowBlue_v1.xlsx,YellowYellowBlue,Conditions/Version_1/YellowScramStop.xlsx,no,PASS,0.664764183,,,,,,,,,0,0,0,1,0,1,1,1,0,21,21,21,,,,,,,,,,,,,,,,,,,,,,,,,,,,,,,,,,,,,,,,,,,,,,,,,,,,,,,,,,,,,,,,,,,,,,,,,,,,,,,1.49,553.3981698,None,space,1,0.2673506,554.9915529,None,554.9915529,None,554.9915529,None,,,,,,,,,,,P012,fencog,1,Post,2021_Oct_15_1121,Go No-Go Task,2021.1.4,120.0700731
,"Rule: When you see a yellow image, do not press 'spacebar'.",Images/Scram2/AM06_NC.jpg,Scramble,Yellow,Images/Yellow.jpg,None,ParentConditions/YellowYellowBlue_v1.xlsx,YellowYellowBlue,Conditions/Version_1/YellowScramStop.xlsx,yes,PASS,0.363487487,,,,,,,,,0,0,0,1,0,1,1,1,0,22,22,22,,,,,,,,,,,,,,,,,,,,,,,,,,,,,,,,,,,,,,,,,,,,,,,,,,,,,,,,,,,,,,,,,,,,,,,,,,,,,,,1.93,555.3905066,None,space,0,0.2510344,557.424088,None,557.424088,None,557.424088,None,,,,,,,,,,,P012,fencog,1,Post,2021_Oct_15_1121,Go No-Go Task,2021.1.4,120.0700731
,"Rule: When you see a yellow image, do not press 'spacebar'.",Images/Scram1/AM06_NC.jpg,Scramble,Blue,Images/Blue.jpg,space,ParentConditions/YellowYellowBlue_v1.xlsx,YellowYellowBlue,Conditions/Version_1/YellowScramStop.xlsx,no,PASS,0.9155942,,,,,,,,,0,0,0,1,0,1,1,1,0,23,23,23,,,,,,,,,,,,,,,,,,,,,,,,,,,,,,,,,,,,,,,,,,,,,,,,,,,,,,,,,,,,,,,,,,,,,,,,,,,,,,,1.32,557.8235366,None,space,1,0.3544731,559.2485424,None,559.2485424,None,559.2485424,None,,,,,,,,,,,P012,fencog,1,Post,2021_Oct_15_1121,Go No-Go Task,2021.1.4,120.0700731
,"Rule: When you see a yellow image, do not press 'spacebar'.",Images/Scram2/AM02_NC.jpg,Scramble,Yellow,Images/Yellow.jpg,None,ParentConditions/YellowYellowBlue_v1.xlsx,YellowYellowBlue,Conditions/Version_1/YellowScramStop.xlsx,yes,PASS,0.403496622,,,,,,,,,0,0,0,1,0,1,1,1,0,24,24,24,,,,,,,,,,,,,,,,,,,,,,,,,,,,,,,,,,,,,,,,,,,,,,,,,,,,,,,,,,,,,,,,,,,,,,,,,,,,,,,1.67,559.6478386,None,space,0,0.2436132,561.4230575,None,561.4230575,None,561.4230575,None,,,,,,,,,,,P012,fencog,1,Post,2021_Oct_15_1121,Go No-Go Task,2021.1.4,120.0700731
,"Rule: When you see a yellow image, do not press 'spacebar'.",Images/Scram2/HF05_NC.jpg,Scramble,Blue,Images/Blue.jpg,space,ParentConditions/YellowYellowBlue_v1.xlsx,YellowYellowBlue,Conditions/Version_1/YellowScramStop.xlsx,no,PASS,0.921711636,,,,,,,,,0,0,0,1,0,1,1,1,0,25,25,25,,,,,,,,,,,,,,,,,,,,,,,,,,,,,,,,,,,,,,,,,,,,,,,,,,,,,,,,,,,,,,,,,,,,,,,,,,,,,,,1.99,561.825092,None,space,1,0.3607454,563.9221888,None,563.9221888,None,563.9221888,None,,,,,,,,,,,P012,fencog,1,Post,2021_Oct_15_1121,Go No-Go Task,2021.1.4,120.0700731
,"Rule: When you see a yellow image, do not press 'spacebar'.",Images/Scram2/AF32NES.jpg,Scramble,Yellow,Images/Yellow.jpg,None,ParentConditions/YellowYellowBlue_v1.xlsx,YellowYellowBlue,Conditions/Version_1/YellowScramStop.xlsx,yes,PASS,0.017466824,,,,,,,,,0,0,0,1,0,1,1,1,0,26,26,26,,,,,,,,,,,,,,,,,,,,,,,,,,,,,,,,,,,,,,,,,,,,,,,,,,,,,,,,,,,,,,,,,,,,,,,,,,,,,,,1.28,564.3289424,None,None,1,,565.7050374,None,565.7050374,None,565.7050374,None,,,,,,,,,,,P012,fencog,1,Post,2021_Oct_15_1121,Go No-Go Task,2021.1.4,120.0700731
,"Rule: When you see a yellow image, do not press 'spacebar'.",Images/Scram2/HM04_NC.jpg,Scramble,Blue,Images/Blue.jpg,space,ParentConditions/YellowYellowBlue_v1.xlsx,YellowYellowBlue,Conditions/Version_1/YellowScramStop.xlsx,no,PASS,0.573634123,,,,,,,,,0,0,0,1,0,1,1,1,0,27,27,27,,,,,,,,,,,,,,,,,,,,,,,,,,,,,,,,,,,,,,,,,,,,,,,,,,,,,,,,,,,,,,,,,,,,,,,,,,,,,,,1.33,566.1056229,None,space,1,0.3611856,567.5377686,None,567.5377686,None,567.5377686,None,,,,,,,,,,,P012,fencog,1,Post,2021_Oct_15_1121,Go No-Go Task,2021.1.4,120.0700731
,"Rule: When you see a yellow image, do not press 'spacebar'.",Images/Scram2/AF25NES.jpg,Scramble,Blue,Images/Blue.jpg,space,ParentConditions/YellowYellowBlue_v1.xlsx,YellowYellowBlue,Conditions/Version_1/YellowScramStop.xlsx,no,PASS,0.481500907,,,,,,,,,0,0,0,1,0,1,1,1,0,28,28,28,,,,,,,,,,,,,,,,,,,,,,,,,,,,,,,,,,,,,,,,,,,,,,,,,,,,,,,,,,,,,,,,,,,,,,,,,,,,,,,1.58,567.9367895,None,space,1,0.3421238,569.6204765,None,569.6204765,None,569.6204765,None,,,,,,,,,,,P012,fencog,1,Post,2021_Oct_15_1121,Go No-Go Task,2021.1.4,120.0700731
,"Rule: When you see a yellow image, do not press 'spacebar'.",Images/Scram1/AF34NES.jpg,Scramble,Blue,Images/Blue.jpg,space,ParentConditions/YellowYellowBlue_v1.xlsx,YellowYellowBlue,Conditions/Version_1/YellowScramStop.xlsx,no,PASS,0.163221093,,,,,,,,,0,0,0,1,0,1,1,1,0,29,29,29,,,,,,,,,,,,,,,,,,,,,,,,,,,,,,,,,,,,,,,,,,,,,,,,,,,,,,,,,,,,,,,,,,,,,,,,,,,,,,,1.98,570.0196997,None,space,1,0.2756591,572.1031405,None,572.1031405,None,572.1031405,None,,,,,,,,,,,P012,fencog,1,Post,2021_Oct_15_1121,Go No-Go Task,2021.1.4,120.0700731
,"Rule: When you see a yellow image, do not press 'spacebar'.",Images/Scram2/AF11NES.jpg,Scramble,Blue,Images/Blue.jpg,space,ParentConditions/YellowYellowBlue_v1.xlsx,YellowYellowBlue,Conditions/Version_1/YellowScramStop.xlsx,no,PASS,0.863906943,,,,,,,,,0,0,0,1,0,1,1,1,0,30,30,30,,,,,,,,,,,,,,,,,,,,,,,,,,,,,,,,,,,,,,,,,,,,,,,,,,,,,,,,,,,,,,,,,,,,,,,,,,,,,,,1.52,572.5048169,None,space,1,0.2679424,574.1191892,None,574.1191892,None,574.1191892,None,,,,,,,,,,,P012,fencog,1,Post,2021_Oct_15_1121,Go No-Go Task,2021.1.4,120.0700731
,"Rule: When you see a yellow image, do not press 'spacebar'.",Images/Scram2/AF34NES.jpg,Scramble,Yellow,Images/Yellow.jpg,None,ParentConditions/YellowYellowBlue_v1.xlsx,YellowYellowBlue,Conditions/Version_1/YellowScramStop.xlsx,yes,PASS,0.061590092,,,,,,,,,0,0,0,1,0,1,1,1,0,31,31,31,,,,,,,,,,,,,,,,,,,,,,,,,,,,,,,,,,,,,,,,,,,,,,,,,,,,,,,,,,,,,,,,,,,,,,,,,,,,,,,1.24,574.5246212,None,None,1,,575.8686257,None,575.8686257,None,575.8686257,None,,,,,,,,,,,P012,fencog,1,Post,2021_Oct_15_1121,Go No-Go Task,2021.1.4,120.0700731
,"Rule: When you see a yellow image, do not press 'spacebar'.",Images/Scram1/AM02_NC.jpg,Scramble,Blue,Images/Blue.jpg,space,ParentConditions/YellowYellowBlue_v1.xlsx,YellowYellowBlue,Conditions/Version_1/YellowScramStop.xlsx,no,PASS,0.7758508,,,,,,,,,0,0,0,1,0,1,1,1,0,32,32,32,,,,,,,,,,,,,,,,,,,,,,,,,,,,,,,,,,,,,,,,,,,,,,,,,,,,,,,,,,,,,,,,,,,,,,,,,,,,,,,1.41,576.2691695,None,space,1,0.2734972,577.7847225,None,577.7847225,None,577.7847225,None,,,,,,,,,,,P012,fencog,1,Post,2021_Oct_15_1121,Go No-Go Task,2021.1.4,120.0700731
,"Rule: When you see a yellow image, do not press 'spacebar'.",Images/Scram2/AM13NES.jpg,Scramble,Yellow,Images/Yellow.jpg,None,ParentConditions/YellowYellowBlue_v1.xlsx,YellowYellowBlue,Conditions/Version_1/YellowScramStop.xlsx,yes,PASS,0.67265151,,,,,,,,,0,0,0,1,0,1,1,1,0,33,33,33,,,,,,,,,,,,,,,,,,,,,,,,,,,,,,,,,,,,,,,,,,,,,,,,,,,,,,,,,,,,,,,,,,,,,,,,,,,,,,,1.92,578.1838713,None,None,1,,580.2090231,None,580.2090231,None,580.2090231,None,,,,,,,,,,,P012,fencog,1,Post,2021_Oct_15_1121,Go No-Go Task,2021.1.4,120.0700731
,"Rule: When you see a yellow image, do not press 'spacebar'.",Images/Scram1/AM03_NC.jpg,Scramble,Blue,Images/Blue.jpg,space,ParentConditions/YellowYellowBlue_v1.xlsx,YellowYellowBlue,Conditions/Version_1/YellowScramStop.xlsx,no,PASS,0.060310837,,,,,,,,,0,0,0,1,0,1,1,1,0,34,34,34,,,,,,,,,,,,,,,,,,,,,,,,,,,,,,,,,,,,,,,,,,,,,,,,,,,,,,,,,,,,,,,,,,,,,,,,,,,,,,,1.85,580.6165893,None,space,1,0.2529358,582.566708,None,582.566708,None,582.566708,None,,,,,,,,,,,P012,fencog,1,Post,2021_Oct_15_1121,Go No-Go Task,2021.1.4,120.0700731
,"Rule: When you see a yellow image, do not press 'spacebar'.",Images/Scram1/AF33NES.jpg,Scramble,Blue,Images/Blue.jpg,space,ParentConditions/YellowYellowBlue_v1.xlsx,YellowYellowBlue,Conditions/Version_1/YellowScramStop.xlsx,no,PASS,0.988339533,,,,,,,,,0,0,0,1,0,1,1,1,0,35,35,35,,,,,,,,,,,,,,,,,,,,,,,,,,,,,,,,,,,,,,,,,,,,,,,,,,,,,,,,,,,,,,,,,,,,,,,,,,,,,,,1.96,582.9692509,None,space,1,0.2984761,585.0242535,None,585.0242535,None,585.0242535,None,,,,,,,,,,,P012,fencog,1,Post,2021_Oct_15_1121,Go No-Go Task,2021.1.4,120.0700731
,"Rule: When you see a yellow image, do not press 'spacebar'.",Images/Scram1/BF10_NC.jpg,Scramble,Blue,Images/Blue.jpg,space,ParentConditions/YellowYellowBlue_v1.xlsx,YellowYellowBlue,Conditions/Version_1/YellowScramStop.xlsx,no,PASS,0.832283927,,,,,,,,,0,0,0,1,0,1,1,1,0,36,36,36,,,,,,,,,,,,,,,,,,,,,,,,,,,,,,,,,,,,,,,,,,,,,,,,,,,,,,,,,,,,,,,,,,,,,,,,,,,,,,,1.48,585.4361901,None,space,1,0.3392171,587.023679,None,587.023679,None,587.023679,None,,,,,,,,,,,P012,fencog,1,Post,2021_Oct_15_1121,Go No-Go Task,2021.1.4,120.0700731
,"Rule: When you see a yellow image, do not press 'spacebar'.",Images/Scram1/AF07_NC.jpg,Scramble,Blue,Images/Blue.jpg,space,ParentConditions/YellowYellowBlue_v1.xlsx,YellowYellowBlue,Conditions/Version_1/YellowScramStop.xlsx,no,PASS,0.976389595,,,,,,,,,0,0,0,1,0,1,1,1,0,37,37,37,,,,,,,,,,,,,,,,,,,,,,,,,,,,,,,,,,,,,,,,,,,,,,,,,,,,,,,,,,,,,,,,,,,,,,,,,,,,,,,1.65,587.4327332,None,None,0,,589.1813313,None,589.1813313,None,589.1813313,None,,,,,,,,,,,P012,fencog,1,Post,2021_Oct_15_1121,Go No-Go Task,2021.1.4,120.0700731
,"Rule: When you see a yellow image, do not press 'spacebar'.",Images/Scram2/AM23NES.jpg,Scramble,Yellow,Images/Yellow.jpg,None,ParentConditions/YellowYellowBlue_v1.xlsx,YellowYellowBlue,Conditions/Version_1/YellowScramStop.xlsx,yes,PASS,0.600248114,,,,,,,,,0,0,0,1,0,1,1,1,0,38,38,38,,,,,,,,,,,,,,,,,,,,,,,,,,,,,,,,,,,,,,,,,,,,,,,,,,,,,,,,,,,,,,,,,,,,,,,,,,,,,,,1.84,589.5828099,None,None,1,,591.530792,None,591.530792,None,591.530792,None,,,,,,,,,,,P012,fencog,1,Post,2021_Oct_15_1121,Go No-Go Task,2021.1.4,120.0700731
,"Rule: When you see a yellow image, do not press 'spacebar'.",Images/Scram1/AF24NES.jpg,Scramble,Blue,Images/Blue.jpg,space,ParentConditions/YellowYellowBlue_v1.xlsx,YellowYellowBlue,Conditions/Version_1/YellowScramStop.xlsx,no,PASS,0.112949458,,,,,,,,,0,0,0,1,0,1,1,1,0,39,39,39,,,,,,,,,,,,,,,,,,,,,,,,,,,,,,,,,,,,,,,,,,,,,,,,,,,,,,,,,,,,,,,,,,,,,,,,,,,,,,,1.75,591.9314912,None,space,1,0.2785031,593.7883521,None,593.7883521,None,593.7883521,None,,,,,,,,,,,P012,fencog,1,Post,2021_Oct_15_1121,Go No-Go Task,2021.1.4,120.0700731
,"Rule: When you see a yellow image, do not press 'spacebar'.",Images/Scram2/AF33NES.jpg,Scramble,Yellow,Images/Yellow.jpg,None,ParentConditions/YellowYellowBlue_v1.xlsx,YellowYellowBlue,Conditions/Version_1/YellowScramStop.xlsx,yes,PASS,0.803753742,,,,,,,,,0,0,0,1,0,1,1,1,0,40,40,40,,,,,,,,,,,,,,,,,,,,,,,,,,,,,,,,,,,,,,,,,,,,,,,,,,,,,,,,,,,,,,,,,,,,,,,,,,,,,,,1.86,594.1899283,None,None,1,,596.1543274,None,596.1543274,None,596.1543274,None,,,,,,,,,,,P012,fencog,1,Post,2021_Oct_15_1121,Go No-Go Task,2021.1.4,120.0700731
,"Rule: When you see a yellow image, do not press 'spacebar'.",Images/Scram1/AF25NES.jpg,Scramble,Blue,Images/Blue.jpg,space,ParentConditions/YellowYellowBlue_v1.xlsx,YellowYellowBlue,Conditions/Version_1/YellowScramStop.xlsx,no,PASS,0.143787363,,,,,,,,,0,0,0,1,0,1,1,1,0,41,41,41,,,,,,,,,,,,,,,,,,,,,,,,,,,,,,,,,,,,,,,,,,,,,,,,,,,,,,,,,,,,,,,,,,,,,,,,,,,,,,,1.97,596.5532953,None,space,1,0.2224334,598.6286394,None,598.6286394,None,598.6286394,None,,,,,,,,,,,P012,fencog,1,Post,2021_Oct_15_1121,Go No-Go Task,2021.1.4,120.0700731
,"Rule: When you see a yellow image, do not press 'spacebar'.",Images/Scram2/AM10NES.jpg,Scramble,Yellow,Images/Yellow.jpg,None,ParentConditions/YellowYellowBlue_v1.xlsx,YellowYellowBlue,Conditions/Version_1/YellowScramStop.xlsx,yes,PASS,0.58203193,,,,,,,,,0,0,0,1,0,1,1,1,0,42,42,42,,,,,,,,,,,,,,,,,,,,,,,,,,,,,,,,,,,,,,,,,,,,,,,,,,,,,,,,,,,,,,,,,,,,,,,,,,,,,,,1.74,599.0308985,None,None,1,,600.8780089,None,600.8780089,None,600.8780089,None,,,,,,,,,,,P012,fencog,1,Post,2021_Oct_15_1121,Go No-Go Task,2021.1.4,120.0700731
,"Rule: When you see a yellow image, do not press 'spacebar'.",Images/Scram2/BF10_NC.jpg,Scramble,Blue,Images/Blue.jpg,space,ParentConditions/YellowYellowBlue_v1.xlsx,YellowYellowBlue,Conditions/Version_1/YellowScramStop.xlsx,no,PASS,0.207816491,,,,,,,,,0,0,0,1,0,1,1,1,0,43,43,43,,,,,,,,,,,,,,,,,,,,,,,,,,,,,,,,,,,,,,,,,,,,,,,,,,,,,,,,,,,,,,,,,,,,,,,,,,,,,,,1.77,601.2785144,None,space,1,0.2343646,603.1523015,None,603.1523015,None,603.1523015,None,,,,,,,,,,,P012,fencog,1,Post,2021_Oct_15_1121,Go No-Go Task,2021.1.4,120.0700731
,"Rule: When you see a yellow image, do not press 'spacebar'.",Images/Scram1/BF18_NC.jpg,Scramble,Blue,Images/Blue.jpg,space,ParentConditions/YellowYellowBlue_v1.xlsx,YellowYellowBlue,Conditions/Version_1/YellowScramStop.xlsx,no,PASS,0.36892611,,,,,,,,,0,0,0,1,0,1,1,1,0,44,44,44,,,,,,,,,,,,,,,,,,,,,,,,,,,,,,,,,,,,,,,,,,,,,,,,,,,,,,,,,,,,,,,,,,,,,,,,,,,,,,,1.23,603.5605707,None,space,1,0.309712,604.885179,None,604.885179,None,604.885179,None,,,,,,,,,,,P012,fencog,1,Post,2021_Oct_15_1121,Go No-Go Task,2021.1.4,120.0700731
,"Rule: When you see a yellow image, do not press 'spacebar'.",Images/Scram2/HF09_NC.jpg,Scramble,Blue,Images/Blue.jpg,space,ParentConditions/YellowYellowBlue_v1.xlsx,YellowYellowBlue,Conditions/Version_1/YellowScramStop.xlsx,no,PASS,0.286178806,,,,,,,,,0,0,0,1,0,1,1,1,0,45,45,45,,,,,,,,,,,,,,,,,,,,,,,,,,,,,,,,,,,,,,,,,,,,,,,,,,,,,,,,,,,,,,,,,,,,,,,,,,,,,,,1.46,605.2855447,None,space,1,0.2476487,606.8511367,None,606.8511367,None,606.8511367,None,,,,,,,,,,,P012,fencog,1,Post,2021_Oct_15_1121,Go No-Go Task,2021.1.4,120.0700731
,"Rule: When you see a yellow image, do not press 'spacebar'.",Images/Scram1/BF05_NC.jpg,Scramble,Blue,Images/Blue.jpg,space,ParentConditions/YellowYellowBlue_v1.xlsx,YellowYellowBlue,Conditions/Version_1/YellowScramStop.xlsx,no,PASS,0.769263782,,,,,,,,,0,0,0,1,0,1,1,1,0,46,46,46,,,,,,,,,,,,,,,,,,,,,,,,,,,,,,,,,,,,,,,,,,,,,,,,,,,,,,,,,,,,,,,,,,,,,,,,,,,,,,,1.62,607.2501331,None,None,0,,608.9755359,None,608.9755359,None,608.9755359,None,,,,,,,,,,,P012,fencog,1,Post,2021_Oct_15_1121,Go No-Go Task,2021.1.4,120.0700731
,"Rule: When you see a yellow image, do not press 'spacebar'.",Images/Scram1/AM17NES.jpg,Scramble,Blue,Images/Blue.jpg,space,ParentConditions/YellowYellowBlue_v1.xlsx,YellowYellowBlue,Conditions/Version_1/YellowScramStop.xlsx,no,PASS,0.755330064,,,,,,,,,0,0,0,1,0,1,1,1,0,47,47,47,,,,,,,,,,,,,,,,,,,,,,,,,,,,,,,,,,,,,,,,,,,,,,,,,,,,,,,,,,,,,,,,,,,,,,,,,,,,,,,1.8,609.3759344,None,None,0,,611.2833142,None,611.2833142,None,611.2833142,None,,,,,,,,,,,P012,fencog,1,Post,2021_Oct_15_1121,Go No-Go Task,2021.1.4,120.0700731
,"Rule: When you see a yellow image, do not press 'spacebar'.",Images/Scram2/AM09_NC.jpg,Scramble,Yellow,Images/Yellow.jpg,None,ParentConditions/YellowYellowBlue_v1.xlsx,YellowYellowBlue,Conditions/Version_1/YellowScramStop.xlsx,yes,PASS,0.984865365,,,,,,,,,0,0,0,1,0,1,1,1,0,48,48,48,,,,,,,,,,,,,,,,,,,,,,,,,,,,,,,,,,,,,,,,,,,,,,,,,,,,,,,,,,,,,,,,,,,,,,,,,,,,,,,1.29,611.6822029,None,None,1,,613.0744437,None,613.0744437,None,613.0744437,None,,,,,,,,,,,P012,fencog,1,Post,2021_Oct_15_1121,Go No-Go Task,2021.1.4,120.0700731
,"Rule: When you see a yellow image, do not press 'spacebar'.",Images/Scram2/AF09NES.jpg,Scramble,Blue,Images/Blue.jpg,space,ParentConditions/YellowYellowBlue_v1.xlsx,YellowYellowBlue,Conditions/Version_1/YellowScramStop.xlsx,no,PASS,0.209985362,,,,,,,,,0,0,0,1,0,1,1,1,0,49,49,49,,,,,,,,,,,,,,,,,,,,,,,,,,,,,,,,,,,,,,,,,,,,,,,,,,,,,,,,,,,,,,,,,,,,,,,,,,,,,,,1.76,613.4741516,None,space,1,0.2620853,615.3486791,None,615.3486791,None,615.3486791,None,,,,,,,,,,,P012,fencog,1,Post,2021_Oct_15_1121,Go No-Go Task,2021.1.4,120.0700731
,"Rule: When you see a yellow image, do not press 'spacebar'.",Images/Scram2/AM04_NC.jpg,Scramble,Yellow,Images/Yellow.jpg,None,ParentConditions/YellowYellowBlue_v1.xlsx,YellowYellowBlue,Conditions/Version_1/YellowScramStop.xlsx,yes,PASS,0.859563214,,,,,,,,,0,0,0,1,0,1,1,1,0,50,50,50,,,,,,,,,,,,,,,,,,,,,,,,,,,,,,,,,,,,,,,,,,,,,,,,,,,,,,,,,,,,,,,,,,,,,,,,,,,,,,,1.38,615.747892,None,None,1,,617.2315073,None,617.2315073,None,617.2315073,None,,,,,,,,,,,P012,fencog,1,Post,2021_Oct_15_1121,Go No-Go Task,2021.1.4,120.0700731
,"Rule: When you see a yellow image, do not press 'spacebar'.",Images/Scram2/BF05_NC.jpg,Scramble,Yellow,Images/Yellow.jpg,None,ParentConditions/YellowYellowBlue_v1.xlsx,YellowYellowBlue,Conditions/Version_1/YellowScramStop.xlsx,yes,PASS,0.903889245,,,,,,,,,0,0,0,1,0,1,1,1,0,51,51,51,,,,,,,,,,,,,,,,,,,,,,,,,,,,,,,,,,,,,,,,,,,,,,,,,,,,,,,,,,,,,,,,,,,,,,,,,,,,,,,1.25,617.6319287,None,space,0,0.2547351,618.9893108,None,618.9893108,None,618.9893108,None,,,,,,,,,,,P012,fencog,1,Post,2021_Oct_15_1121,Go No-Go Task,2021.1.4,120.0700731
,"Rule: When you see a yellow image, do not press 'spacebar'.",Images/Scram1/HM06_NC.jpg,Scramble,Blue,Images/Blue.jpg,space,ParentConditions/YellowYellowBlue_v1.xlsx,YellowYellowBlue,Conditions/Version_1/YellowScramStop.xlsx,no,PASS,0.718307645,,,,,,,,,0,0,0,1,0,1,1,1,0,52,52,52,,,,,,,,,,,,,,,,,,,,,,,,,,,,,,,,,,,,,,,,,,,,,,,,,,,,,,,,,,,,,,,,,,,,,,,,,,,,,,,1.73,619.3895821,None,space,1,0.2925928,621.2219754,None,621.2219754,None,621.2219754,None,,,,,,,,,,,P012,fencog,1,Post,2021_Oct_15_1121,Go No-Go Task,2021.1.4,120.0700731
,"Rule: When you see a yellow image, do not press 'spacebar'.",Images/Scram2/AF07NES.jpg,Scramble,Blue,Images/Blue.jpg,space,ParentConditions/YellowYellowBlue_v1.xlsx,YellowYellowBlue,Conditions/Version_1/YellowScramStop.xlsx,no,PASS,0.868582701,,,,,,,,,0,0,0,1,0,1,1,1,0,53,53,53,,,,,,,,,,,,,,,,,,,,,,,,,,,,,,,,,,,,,,,,,,,,,,,,,,,,,,,,,,,,,,,,,,,,,,,,,,,,,,,1.57,621.6244974,None,None,0,,623.296346,None,623.296346,None,623.296346,None,,,,,,,,,,,P012,fencog,1,Post,2021_Oct_15_1121,Go No-Go Task,2021.1.4,120.0700731
,"Rule: When you see a yellow image, do not press 'spacebar'.",Images/Scram1/BM01_NC.jpg,Scramble,Blue,Images/Blue.jpg,space,ParentConditions/YellowYellowBlue_v1.xlsx,YellowYellowBlue,Conditions/Version_1/YellowScramStop.xlsx,no,PASS,0.751616104,,,,,,,,,0,0,0,1,0,1,1,1,0,54,54,54,,,,,,,,,,,,,,,,,,,,,,,,,,,,,,,,,,,,,,,,,,,,,,,,,,,,,,,,,,,,,,,,,,,,,,,,,,,,,,,1.54,623.6972184,None,space,1,0.3296115,625.3374642,None,625.3374642,None,625.3374642,None,,,,,,,,,,,P012,fencog,1,Post,2021_Oct_15_1121,Go No-Go Task,2021.1.4,120.0700731
,"Rule: When you see a yellow image, do not press 'spacebar'.",Images/Scram2/AF07_NC.jpg,Scramble,Blue,Images/Blue.jpg,space,ParentConditions/YellowYellowBlue_v1.xlsx,YellowYellowBlue,Conditions/Version_1/YellowScramStop.xlsx,no,PASS,0.609812891,,,,,,,,,0,0,0,1,0,1,1,1,0,55,55,55,,,,,,,,,,,,,,,,,,,,,,,,,,,,,,,,,,,,,,,,,,,,,,,,,,,,,,,,,,,,,,,,,,,,,,,,,,,,,,,1.87,625.738128,None,space,1,0.2676637,627.7117365,None,627.7117365,None,627.7117365,None,,,,,,,,,,,P012,fencog,1,Post,2021_Oct_15_1121,Go No-Go Task,2021.1.4,120.0700731
,"Rule: When you see a yellow image, do not press 'spacebar'.",Images/Scram1/AF10_NC.jpg,Scramble,Blue,Images/Blue.jpg,space,ParentConditions/YellowYellowBlue_v1.xlsx,YellowYellowBlue,Conditions/Version_1/YellowScramStop.xlsx,no,PASS,0.980512803,,,,,,,,,0,0,0,1,0,1,1,1,0,56,56,56,,,,,,,,,,,,,,,,,,,,,,,,,,,,,,,,,,,,,,,,,,,,,,,,,,,,,,,,,,,,,,,,,,,,,,,,,,,,,,,1.34,628.1119448,None,space,1,0.3374638,629.5529742,None,629.5529742,None,629.5529742,None,,,,,,,,,,,P012,fencog,1,Post,2021_Oct_15_1121,Go No-Go Task,2021.1.4,120.0700731
,"Rule: When you see a yellow image, do not press 'spacebar'.",Images/Scram1/AM09NES.jpg,Scramble,Blue,Images/Blue.jpg,space,ParentConditions/YellowYellowBlue_v1.xlsx,YellowYellowBlue,Conditions/Version_1/YellowScramStop.xlsx,no,PASS,0.711317095,,,,,,,,,0,0,0,1,0,1,1,1,0,57,57,57,,,,,,,,,,,,,,,,,,,,,,,,,,,,,,,,,,,,,,,,,,,,,,,,,,,,,,,,,,,,,,,,,,,,,,,,,,,,,,,1.22,629.9536277,None,space,1,0.2856535,631.2773215,None,631.2773215,None,631.2773215,None,,,,,,,,,,,P012,fencog,1,Post,2021_Oct_15_1121,Go No-Go Task,2021.1.4,120.0700731
,"Rule: When you see a yellow image, do not press 'spacebar'.",Images/Scram1/AF01_NC.jpg,Scramble,Blue,Images/Blue.jpg,space,ParentConditions/YellowYellowBlue_v1.xlsx,YellowYellowBlue,Conditions/Version_1/YellowScramStop.xlsx,no,PASS,0.081952385,,,,,,,,,0,0,0,1,0,1,1,1,0,58,58,58,,,,,,,,,,,,,,,,,,,,,,,,,,,,,,,,,,,,,,,,,,,,,,,,,,,,,,,,,,,,,,,,,,,,,,,,,,,,,,,1.27,631.682711,None,space,1,0.3745,633.0601347,None,633.0601347,None,633.0601347,None,,,,,,,,,,,P012,fencog,1,Post,2021_Oct_15_1121,Go No-Go Task,2021.1.4,120.0700731
,"Rule: When you see a yellow image, do not press 'spacebar'.",Images/Scram1/AM09_NC.jpg,Scramble,Blue,Images/Blue.jpg,space,ParentConditions/YellowYellowBlue_v1.xlsx,YellowYellowBlue,Conditions/Version_1/YellowScramStop.xlsx,no,PASS,0.689970999,,,,,,,,,0,0,0,1,0,1,1,1,0,59,59,59,,,,,,,,,,,,,,,,,,,,,,,,,,,,,,,,,,,,,,,,,,,,,,,,,,,,,,,,,,,,,,,,,,,,,,,,,,,,,,,1.51,633.4594321,None,space,1,0.2704529,635.0762811,None,635.0762811,None,635.0762811,None,,,,,,,,,,,P012,fencog,1,Post,2021_Oct_15_1121,Go No-Go Task,2021.1.4,120.0700731
,"Rule: When you see a yellow image, do not press 'spacebar'.",Images/Scram1/AF11NES.jpg,Scramble,Blue,Images/Blue.jpg,space,ParentConditions/YellowYellowBlue_v1.xlsx,YellowYellowBlue,Conditions/Version_1/YellowScramStop.xlsx,no,PASS,0.557754436,,,,,,,,,0,0,0,1,0,1,1,1,0,60,60,60,,,,,,,,,,,,,,,,,,,,,,,,,,,,,,,,,,,,,,,,,,,,,,,,,,,,,,,,,,,,,,,,,,,,,,,,,,,,,,,2,635.477644,None,space,1,0.2829063,637.5755046,None,637.5755046,None,637.5755046,None,,,,,,,,,,,P012,fencog,1,Post,2021_Oct_15_1121,Go No-Go Task,2021.1.4,120.0700731
,"Rule: When you see a yellow image, do not press 'spacebar'.",Images/Scram1/BF07_NC.jpg,Scramble,Blue,Images/Blue.jpg,space,ParentConditions/YellowYellowBlue_v1.xlsx,YellowYellowBlue,Conditions/Version_1/YellowScramStop.xlsx,no,PASS,0.170581625,,,,,,,,,0,0,0,1,0,1,1,1,0,61,61,61,,,,,,,,,,,,,,,,,,,,,,,,,,,,,,,,,,,,,,,,,,,,,,,,,,,,,,,,,,,,,,,,,,,,,,,,,,,,,,,1.83,637.981816,None,space,1,0.2862212,639.9164533,None,639.9164533,None,639.9164533,None,,,,,,,,,,,P012,fencog,1,Post,2021_Oct_15_1121,Go No-Go Task,2021.1.4,120.0700731
,"Rule: When you see a yellow image, do not press 'spacebar'.",Images/Scram2/AM34NES.JPG,Scramble,Yellow,Images/Yellow.jpg,None,ParentConditions/YellowYellowBlue_v1.xlsx,YellowYellowBlue,Conditions/Version_1/YellowScramStop.xlsx,yes,PASS,0.200965001,,,,,,,,,0,0,0,1,0,1,1,1,0,62,62,62,,,,,,,,,,,,,,,,,,,,,,,,,,,,,,,,,,,,,,,,,,,,,,,,,,,,,,,,,,,,,,,,,,,,,,,,,,,,,,,1.4,640.3207672,None,None,1,,641.8243209,None,641.8243209,None,641.8243209,None,,,,,,,,,,,P012,fencog,1,Post,2021_Oct_15_1121,Go No-Go Task,2021.1.4,120.0700731
,"Rule: When you see a yellow image, do not press 'spacebar'.",Images/Scram1/AM04_NC.jpg,Scramble,Blue,Images/Blue.jpg,space,ParentConditions/YellowYellowBlue_v1.xlsx,YellowYellowBlue,Conditions/Version_1/YellowScramStop.xlsx,no,PASS,0.492065699,,,,,,,,,0,0,0,1,0,1,1,1,0,63,63,63,,,,,,,,,,,,,,,,,,,,,,,,,,,,,,,,,,,,,,,,,,,,,,,,,,,,,,,,,,,,,,,,,,,,,,,,,,,,,,,1.61,642.2248582,None,space,1,0.3511093,643.94029,None,643.94029,None,643.94029,None,,,,,,,,,,,P012,fencog,1,Post,2021_Oct_15_1121,Go No-Go Task,2021.1.4,120.0700731
,"Rule: When you see a yellow image, do not press 'spacebar'.",Images/Scram1/AM23NES.jpg,Scramble,Blue,Images/Blue.jpg,space,ParentConditions/YellowYellowBlue_v1.xlsx,YellowYellowBlue,Conditions/Version_1/YellowScramStop.xlsx,no,PASS,0.209094486,,,,,,,,,0,0,0,1,0,1,1,1,0,64,64,64,,,,,,,,,,,,,,,,,,,,,,,,,,,,,,,,,,,,,,,,,,,,,,,,,,,,,,,,,,,,,,,,,,,,,,,,,,,,,,,1.63,644.3427631,None,space,1,0.2738414,646.0730533,None,646.0730533,None,646.0730533,None,,,,,,,,,,,P012,fencog,1,Post,2021_Oct_15_1121,Go No-Go Task,2021.1.4,120.0700731
,"Rule: When you see a yellow image, do not press 'spacebar'.",Images/Scram2/HF10_NO.jpg,Scramble,Blue,Images/Blue.jpg,space,ParentConditions/YellowYellowBlue_v1.xlsx,YellowYellowBlue,Conditions/Version_1/YellowScramStop.xlsx,no,PASS,0.913200347,,,,,,,,,0,0,0,1,0,1,1,1,0,65,65,65,,,,,,,,,,,,,,,,,,,,,,,,,,,,,,,,,,,,,,,,,,,,,,,,,,,,,,,,,,,,,,,,,,,,,,,,,,,,,,,1.72,646.4719321,None,space,1,0.2576103,648.2973476,None,648.2973476,None,648.2973476,None,,,,,,,,,,,P012,fencog,1,Post,2021_Oct_15_1121,Go No-Go Task,2021.1.4,120.0700731
,"Rule: When you see a yellow image, do not press 'spacebar'.",Images/Scram1/AF07NES.jpg,Scramble,Blue,Images/Blue.jpg,space,ParentConditions/YellowYellowBlue_v1.xlsx,YellowYellowBlue,Conditions/Version_1/YellowScramStop.xlsx,no,PASS,0.45060309,,,,,,,,,0,0,0,1,0,1,1,1,0,66,66,66,,,,,,,,,,,,,,,,,,,,,,,,,,,,,,,,,,,,,,,,,,,,,,,,,,,,,,,,,,,,,,,,,,,,,,,,,,,,,,,1.88,648.699028,None,space,1,0.2667723,650.680001,None,650.680001,None,650.680001,None,,,,,,,,,,,P012,fencog,1,Post,2021_Oct_15_1121,Go No-Go Task,2021.1.4,120.0700731
,"Rule: When you see a yellow image, do not press 'spacebar'.",Images/Scram2/AM09NES.jpg,Scramble,Yellow,Images/Yellow.jpg,None,ParentConditions/YellowYellowBlue_v1.xlsx,YellowYellowBlue,Conditions/Version_1/YellowScramStop.xlsx,yes,PASS,0.565509457,,,,,,,,,0,0,0,1,0,1,1,1,0,67,67,67,,,,,,,,,,,,,,,,,,,,,,,,,,,,,,,,,,,,,,,,,,,,,,,,,,,,,,,,,,,,,,,,,,,,,,,,,,,,,,,1.68,651.0796404,None,None,1,,652.8627297,None,652.8627297,None,652.8627297,None,,,,,,,,,,,P012,fencog,1,Post,2021_Oct_15_1121,Go No-Go Task,2021.1.4,120.0700731
,"Rule: When you see a yellow image, do not press 'spacebar'.",Images/Scram2/BM08_NC.jpg,Scramble,Blue,Images/Blue.jpg,space,ParentConditions/YellowYellowBlue_v1.xlsx,YellowYellowBlue,Conditions/Version_1/YellowScramStop.xlsx,no,PASS,0.479096971,,,,,,,,,0,0,0,1,0,1,1,1,0,68,68,68,,,,,,,,,,,,,,,,,,,,,,,,,,,,,,,,,,,,,,,,,,,,,,,,,,,,,,,,,,,,,,,,,,,,,,,,,,,,,,,1.3,653.2637261,None,space,1,0.2923481,654.6704525,None,654.6704525,None,654.6704525,None,,,,,,,,,,,P012,fencog,1,Post,2021_Oct_15_1121,Go No-Go Task,2021.1.4,120.0700731
,"Rule: When you see a yellow image, do not press 'spacebar'.",Images/Scram2/AF30NES.JPG,Scramble,Yellow,Images/Yellow.jpg,None,ParentConditions/YellowYellowBlue_v1.xlsx,YellowYellowBlue,Conditions/Version_1/YellowScramStop.xlsx,yes,PASS,0.810500571,,,,,,,,,0,0,0,1,0,1,1,1,0,69,69,69,,,,,,,,,,,,,,,,,,,,,,,,,,,,,,,,,,,,,,,,,,,,,,,,,,,,,,,,,,,,,,,,,,,,,,,,,,,,,,,1.44,655.0766539,None,None,1,,656.6199026,None,656.6199026,None,656.6199026,None,,,,,,,,,,,P012,fencog,1,Post,2021_Oct_15_1121,Go No-Go Task,2021.1.4,120.0700731
,"Rule: When you see a yellow image, do not press 'spacebar'.",Images/Scram1/AM34NES.JPG,Scramble,Blue,Images/Blue.jpg,space,ParentConditions/YellowYellowBlue_v1.xlsx,YellowYellowBlue,Conditions/Version_1/YellowScramStop.xlsx,no,PASS,0.918912105,,,,,,,,,0,0,0,1,0,1,1,1,0,70,70,70,,,,,,,,,,,,,,,,,,,,,,,,,,,,,,,,,,,,,,,,,,,,,,,,,,,,,,,,,,,,,,,,,,,,,,,,,,,,,,,1.64,657.0233738,None,space,1,0.2336395,658.7692708,None,658.7692708,None,658.7692708,None,,,,,,,,,,,P012,fencog,1,Post,2021_Oct_15_1121,Go No-Go Task,2021.1.4,120.0700731
