CondFileP,Instructions,FaceE,Express,ColourT,ColourF,CorrectAnsP,MasterCondFile,BlockOrder,CondFile,ColCheck,Triplicate_check,SORT_BY_SMALLEST,EPracticeOuterLoop.thisRepN,EPracticeOuterLoop.thisTrialN,EPracticeOuterLoop.thisN,EPracticeOuterLoop.thisIndex,EPracticeInnerLoop.thisRepN,EPracticeInnerLoop.thisTrialN,EPracticeInnerLoop.thisN,EPracticeInnerLoop.thisIndex,MasterLoop.thisRepN,MasterLoop.thisTrialN,MasterLoop.thisN,MasterLoop.thisIndex,OuterLoop.thisRepN,OuterLoop.thisTrialN,OuterLoop.thisN,OuterLoop.thisIndex,InnerLoop.thisRepN,InnerLoop.thisTrialN,InnerLoop.thisN,InnerLoop.thisIndex,text_13.started,text_13.stopped,key_resp_10.keys,key_resp_10.rt,key_resp_10.started,key_resp_10.stopped,text4.started,text4.stopped,EmotionTaskInstructions1.keys,EmotionTaskInstructions1.rt,EmotionTaskInstructions1.started,EmotionTaskInstructions1.stopped,text_4.started,text_4.stopped,key_resp_5.keys,key_resp_5.rt,key_resp_5.started,key_resp_5.stopped,Text_14.started,Text_14.stopped,key_resp_9.keys,key_resp_9.rt,key_resp_9.started,key_resp_9.stopped,text_5.started,text_5.stopped,text_6.started,text_6.stopped,key_resp_7.keys,key_resp_7.rt,key_resp_7.started,key_resp_7.stopped,text_10.started,text_10.stopped,text_11.started,text_11.stopped,text_12.started,text_12.stopped,ISIjitterPractice,EPracticeISIMarker.started,EPracticeISIMarker.stopped,Pract.keys,Pract.corr,Pract.started,Pract.stopped,PracticeFace.started,PracticeFace.stopped,ColourPractice.started,ColourPractice.stopped,text_7.started,text_7.stopped,Pract.rt,EndOfPractice.started,EndOfPractice.stopped,key_resp_8.keys,key_resp_8.rt,key_resp_8.started,key_resp_8.stopped,text_8.started,text_8.stopped,key_resp_6.keys,key_resp_6.rt,key_resp_6.started,key_resp_6.stopped,text_2.started,text_2.stopped,text_3.started,text_3.stopped,key_resp_3.keys,key_resp_3.rt,key_resp_3.started,key_resp_3.stopped,TaskBlock.started,TaskBlock.stopped,BlockNo1.started,BlockNo1.stopped,OfBlock.started,OfBlock.stopped,ISIjitter,ISImarker.started,ISImarker.stopped,key_resp.keys,key_resp.corr,key_resp.rt,key_resp.started,key_resp.stopped,FaceSet.started,FaceSet.stopped,Colour.started,Colour.stopped,EndBlockText.started,EndBlockText.stopped,key_resp_4.keys,key_resp_4.rt,key_resp_4.started,key_resp_4.stopped,BreakText2.started,BreakText2.stopped,PressToContinue.started,PressToContinue.stopped,participant,Study Name,Task Version (required to run),PRE/POST,date,expName,psychopyVersion,frameRate,
,,,,,,,,,,,,,,,,,,,,,,,,,,,,,,,,,28.610278599895537,None,space,178.06388380005956,29.59452600008808,None,,,,,,,,,,,,,,,,,,,,,,,,,,,,,,,,,,,,,,,,,,,,,,,,,,,,,,,,,,,,,,,,,,,,,,,,,,,,,,,,,,,,,,,,,,,,,,,P012,fencog,2,Pre,2021_Oct_07_1055,Go No-Go Task,2021.1.4,119.97427754250072,
,,,,,,,,,,,,,,,,,,,,,,,,,,,,,,,,,,,,,,,209.1452915999107,None,space,39.86753199994564,209.1452915999107,None,,,,,,,,,,,,,,,,,,,,,,,,,,,,,,,,,,,,,,,,,,,,,,,,,,,,,,,,,,,,,,,,,,,,,,,,,,,,,,,,,,,,,,,,,P012,fencog,2,Pre,2021_Oct_07_1055,Go No-Go Task,2021.1.4,119.97427754250072,
,,,,,,,,,,,,,,,,,,,,,,,,,,,,,,,,,,,,,,,,,,,,,249.0755503999535,None,space,7.04991940013133,249.0755503999535,None,,,,,,,,,,,,,,,,,,,,,,,,,,,,,,,,,,,,,,,,,,,,,,,,,,,,,,,,,,,,,,,,,,,,,,,,,,,,,,,,,,,P012,fencog,2,Pre,2021_Oct_07_1055,Go No-Go Task,2021.1.4,119.97427754250072,
,,,,,,,,,,,,,,,,,,,,,,,,,,,,,,,,,,,,,,,,,,,,,,,,,,,256.13514270004816,None,space,5.861939399968833,256.13514270004816,None,,,,,,,,,,,,,,,,,,,,,,,,,,,,,,,,,,,,,,,,,,,,,,,,,,,,,,,,,,,,,,,,,,,,,,,,,,,,,P012,fencog,2,Pre,2021_Oct_07_1055,Go No-Go Task,2021.1.4,119.97427754250072,
EPracticeConditions/BlueEyes.csv,"Rule: When you see a blue image, do not press 'spacebar'.",Images/Happy/HF10_HE.jpg,Happy,Yellow,Images/Yellow.jpg,space,,,,,,,0,0,0,0,0,0,0,7,,,,,,,,,,,,,,,,,,,,,,,,,,,,,,,,,,,,,262.0914789000526,None,265.08523470000364,None,space,5.367719799978659,265.08523470000364,None,262.0914789000526,None,262.0914789000526,None,262.0914789000526,None,1.2,270.553058499936,None,None,0,271.9084753000643,None,271.9084753000643,None,271.9084753000643,None,273.43865819997154,None,,,,,,,,,,,,,,,,,,,,,,,,,,,,,,,,,,,,,,,,,,,,,,,,,,P012,fencog,2,Pre,2021_Oct_07_1055,Go No-Go Task,2021.1.4,119.97427754250072,
EPracticeConditions/BlueEyes.csv,"Rule: When you see a blue image, do not press 'spacebar'.",Images/Happy/BM02_HO.jpg,Happy,Yellow,Images/Yellow.jpg,space,,,,,,,0,0,0,0,0,1,1,2,,,,,,,,,,,,,,,,,,,,,,,,,,,,,,,,,,,,,,,,,,,,,,,,,,,1.4,274.79743240005337,None,space,1,276.2977883000858,None,276.2977883000858,None,276.2977883000858,None,277.20356879988685,None,0.28351540002040565,,,,,,,,,,,,,,,,,,,,,,,,,,,,,,,,,,,,,,,,,,,,,,,,,P012,fencog,2,Pre,2021_Oct_07_1055,Go No-Go Task,2021.1.4,119.97427754250072,
EPracticeConditions/BlueEyes.csv,"Rule: When you see a blue image, do not press 'spacebar'.",Images/Fearful/AF01_FO.jpg,Fear,Blue,Images/Blue.jpg,None,,,,,,,0,0,0,0,0,2,2,1,,,,,,,,,,,,,,,,,,,,,,,,,,,,,,,,,,,,,,,,,,,,,,,,,,,1.6,279.2061934999656,None,None,1,280.9046964000445,None,280.9046964000445,None,280.9046964000445,None,281.80157310003415,None,,,,,,,,,,,,,,,,,,,,,,,,,,,,,,,,,,,,,,,,,,,,,,,,,,P012,fencog,2,Pre,2021_Oct_07_1055,Go No-Go Task,2021.1.4,119.97427754250072,
EPracticeConditions/BlueEyes.csv,"Rule: When you see a blue image, do not press 'spacebar'.",Images/Happy/HF04_HE.jpg,Happy,Yellow,Images/Yellow.jpg,space,,,,,,,0,0,0,0,0,3,3,4,,,,,,,,,,,,,,,,,,,,,,,,,,,,,,,,,,,,,,,,,,,,,,,,,,,1.3,283.8048177000601,None,space,1,285.2201956999488,None,285.2201956999488,None,285.2201956999488,None,286.1211280999705,None,0.27307599992491305,,,,,,,,,,,,,,,,,,,,,,,,,,,,,,,,,,,,,,,,,,,,,,,,,P012,fencog,2,Pre,2021_Oct_07_1055,Go No-Go Task,2021.1.4,119.97427754250072,
EPracticeConditions/BlueEyes.csv,"Rule: When you see a blue image, do not press 'spacebar'.",Images/Happy/HF09_HE.jpg,Happy,Yellow,Images/Yellow.jpg,space,,,,,,,0,0,0,0,0,4,4,6,,,,,,,,,,,,,,,,,,,,,,,,,,,,,,,,,,,,,,,,,,,,,,,,,,,1.9,288.1184467000421,None,space,1,290.1187849000562,None,290.1187849000562,None,290.1187849000562,None,291.01390310004354,None,0.29377009999006987,,,,,,,,,,,,,,,,,,,,,,,,,,,,,,,,,,,,,,,,,,,,,,,,,P012,fencog,2,Pre,2021_Oct_07_1055,Go No-Go Task,2021.1.4,119.97427754250072,
EPracticeConditions/BlueEyes.csv,"Rule: When you see a blue image, do not press 'spacebar'.",Images/Happy/BM08_HO.jpg,Happy,Yellow,Images/Yellow.jpg,space,,,,,,,0,0,0,0,0,5,5,3,,,,,,,,,,,,,,,,,,,,,,,,,,,,,,,,,,,,,,,,,,,,,,,,,,,1.7,293.0207545000594,None,space,1,294.83409649995156,None,294.83409649995156,None,294.83409649995156,None,295.7313353999052,None,0.2988529000431299,,,,,,,,,,,,,,,,,,,,,,,,,,,,,,,,,,,,,,,,,,,,,,,,,P012,fencog,2,Pre,2021_Oct_07_1055,Go No-Go Task,2021.1.4,119.97427754250072,
EPracticeConditions/BlueEyes.csv,"Rule: When you see a blue image, do not press 'spacebar'.",Images/Fearful/HM09_FC.jpg,Fear,Blue,Images/Blue.jpg,None,,,,,,,0,0,0,0,0,6,6,0,,,,,,,,,,,,,,,,,,,,,,,,,,,,,,,,,,,,,,,,,,,,,,,,,,,1.8,297.7334654999431,None,None,1,299.6409833000507,None,299.6409833000507,None,299.6409833000507,None,300.5425428999588,None,,,,,,,,,,,,,,,,,,,,,,,,,,,,,,,,,,,,,,,,,,,,,,,,,,P012,fencog,2,Pre,2021_Oct_07_1055,Go No-Go Task,2021.1.4,119.97427754250072,
EPracticeConditions/BlueEyes.csv,"Rule: When you see a blue image, do not press 'spacebar'.",Images/Happy/HF05_HO.jpg,Happy,Yellow,Images/Yellow.jpg,space,,,,,,,0,0,0,0,0,7,7,5,,,,,,,,,,,,,,,,,,,,,,,,,,,,,,,,,,,,,,,,,,,,,,,,,,,1.5,302.5477533999365,None,space,1,304.1480425999034,None,304.1480425999034,None,304.1480425999034,None,305.04260229994543,None,0.2807710999622941,,,,,,,,,,,,,,,,,,,,,,,,,,,,,,,,,,,,,,,,,,,,,,,,,P012,fencog,2,Pre,2021_Oct_07_1055,Go No-Go Task,2021.1.4,119.97427754250072,
EPracticeConditions/BlueEyes.csv,"Rule: When you see a blue image, do not press 'spacebar'.",,,,,,,,,,,,0,0,0,0,,,,,,,,,,,,,,,,,,,,,,,,,,,,,,,,,,,,,,,,,,,,,,,,,,,,,,,,,,,,,,,,,,,,,,,,,,,,,,,,,,,,,,,,,,,,,,,,,,,,,,,,,,,,,,,,,,,,,P012,fencog,2,Pre,2021_Oct_07_1055,Go No-Go Task,2021.1.4,119.97427754250072,
EPracticeConditions/YellowEyes.csv,"Rule: When you see a yellow image, do not press 'spacebar'.",Images/Fearful/AM19AFS.jpg,Fear,Blue,Images/Blue.jpg,space,,,,,,,0,1,1,1,0,0,0,4,,,,,,,,,,,,,,,,,,,,,,,,,,,,,,,,,,,,,307.06694720010273,None,310.0539802000858,None,space,0.8870565998367965,310.0539802000858,None,307.06694720010273,None,307.06694720010273,None,307.06694720010273,None,1.4,310.9581226001028,None,space,1,312.4621629000176,None,312.4621629000176,None,312.4621629000176,None,313.3565032000188,None,0.3111069998703897,,,,,,,,,,,,,,,,,,,,,,,,,,,,,,,,,,,,,,,,,,,,,,,,,P012,fencog,2,Pre,2021_Oct_07_1055,Go No-Go Task,2021.1.4,119.97427754250072,
EPracticeConditions/YellowEyes.csv,"Rule: When you see a yellow image, do not press 'spacebar'.",Images/Fearful/AM22AFS.jpg,Fear,Blue,Images/Blue.jpg,space,,,,,,,0,1,1,1,0,1,1,5,,,,,,,,,,,,,,,,,,,,,,,,,,,,,,,,,,,,,,,,,,,,,,,,,,,1.7,315.36090339999646,None,space,1,317.1691546998918,None,317.1691546998918,None,317.1691546998918,None,318.0733755999245,None,0.23604439990594983,,,,,,,,,,,,,,,,,,,,,,,,,,,,,,,,,,,,,,,,,,,,,,,,,P012,fencog,2,Pre,2021_Oct_07_1055,Go No-Go Task,2021.1.4,119.97427754250072,
EPracticeConditions/YellowEyes.csv,"Rule: When you see a yellow image, do not press 'spacebar'.",Images/Fearful/AM17AFS.jpg,Fear,Blue,Images/Blue.jpg,space,,,,,,,0,1,1,1,0,2,2,3,,,,,,,,,,,,,,,,,,,,,,,,,,,,,,,,,,,,,,,,,,,,,,,,,,,1.5,320.0757732000202,None,space,1,321.6761610999238,None,321.6761610999238,None,321.6761610999238,None,322.5734900000971,None,0.3128213998861611,,,,,,,,,,,,,,,,,,,,,,,,,,,,,,,,,,,,,,,,,,,,,,,,,P012,fencog,2,Pre,2021_Oct_07_1055,Go No-Go Task,2021.1.4,119.97427754250072,
EPracticeConditions/YellowEyes.csv,"Rule: When you see a yellow image, do not press 'spacebar'.",Images/Fearful/AM16AFS.jpg,Fear,Blue,Images/Blue.jpg,space,,,,,,,0,1,1,1,0,3,3,2,,,,,,,,,,,,,,,,,,,,,,,,,,,,,,,,,,,,,,,,,,,,,,,,,,,1.8,324.5772456000559,None,space,1,326.48304839991033,None,326.48304839991033,None,326.48304839991033,None,327.3807369999122,None,0.37838810007087886,,,,,,,,,,,,,,,,,,,,,,,,,,,,,,,,,,,,,,,,,,,,,,,,,P012,fencog,2,Pre,2021_Oct_07_1055,Go No-Go Task,2021.1.4,119.97427754250072,
EPracticeConditions/YellowEyes.csv,"Rule: When you see a yellow image, do not press 'spacebar'.",Images/Happy/AM32HAS.jpg,Happy,Yellow,Images/Yellow.jpg,None,,,,,,,0,1,1,1,0,4,4,0,,,,,,,,,,,,,,,,,,,,,,,,,,,,,,,,,,,,,,,,,,,,,,,,,,,1.2,329.3839279001113,None,None,1,330.69006359996274,None,330.69006359996274,None,330.69006359996274,None,331.58227670006454,None,,,,,,,,,,,,,,,,,,,,,,,,,,,,,,,,,,,,,,,,,,,,,,,,,,P012,fencog,2,Pre,2021_Oct_07_1055,Go No-Go Task,2021.1.4,119.97427754250072,
EPracticeConditions/YellowEyes.csv,"Rule: When you see a yellow image, do not press 'spacebar'.",Images/Happy/BF05_HO.jpg,Happy,Yellow,Images/Yellow.jpg,None,,,,,,,0,1,1,1,0,5,5,1,,,,,,,,,,,,,,,,,,,,,,,,,,,,,,,,,,,,,,,,,,,,,,,,,,,1.9,333.58829899993725,None,None,1,335.5804016001057,None,335.5804016001057,None,335.5804016001057,None,336.4757375998888,None,,,,,,,,,,,,,,,,,,,,,,,,,,,,,,,,,,,,,,,,,,,,,,,,,,P012,fencog,2,Pre,2021_Oct_07_1055,Go No-Go Task,2021.1.4,119.97427754250072,
EPracticeConditions/YellowEyes.csv,"Rule: When you see a yellow image, do not press 'spacebar'.",Images/Fearful/AM23AFS.jpg,Fear,Blue,Images/Blue.jpg,space,,,,,,,0,1,1,1,0,6,6,6,,,,,,,,,,,,,,,,,,,,,,,,,,,,,,,,,,,,,,,,,,,,,,,,,,,1.6,338.4802125999704,None,space,1,340.18732569995336,None,340.18732569995336,None,340.18732569995336,None,341.091752700042,None,0.2817937999498099,,,,,,,,,,,,,,,,,,,,,,,,,,,,,,,,,,,,,,,,,,,,,,,,,P012,fencog,2,Pre,2021_Oct_07_1055,Go No-Go Task,2021.1.4,119.97427754250072,
EPracticeConditions/YellowEyes.csv,"Rule: When you see a yellow image, do not press 'spacebar'.",Images/Fearful/AM24AFS.jpg,Fear,Blue,Images/Blue.jpg,space,,,,,,,0,1,1,1,0,7,7,7,,,,,,,,,,,,,,,,,,,,,,,,,,,,,,,,,,,,,,,,,,,,,,,,,,,1.3,343.09642540011555,None,space,1,344.5024598001037,None,344.5024598001037,None,344.5024598001037,None,345.3992536000442,None,0.2791749997995794,,,,,,,,,,,,,,,,,,,,,,,,,,,,,,,,,,,,,,,,,,,,,,,,,P012,fencog,2,Pre,2021_Oct_07_1055,Go No-Go Task,2021.1.4,119.97427754250072,
EPracticeConditions/YellowEyes.csv,"Rule: When you see a yellow image, do not press 'spacebar'.",,,,,,,,,,,,0,1,1,1,,,,,,,,,,,,,,,,,,,,,,,,,,,,,,,,,,,,,,,,,,,,,,,,,,,,,,,,,,,,,,,,,,,,,,,,,,,,,,,,,,,,,,,,,,,,,,,,,,,,,,,,,,,,,,,,,,,,,P012,fencog,2,Pre,2021_Oct_07_1055,Go No-Go Task,2021.1.4,119.97427754250072,
EPracticeConditions/BlueScram.csv,"Rule: When you see a blue image, do not press 'spacebar'.",Images/Scram1/AM13NES.jpg,Scramble,Yellow,Images/Yellow.jpg,space,,,,,,,0,2,2,2,0,0,0,5,,,,,,,,,,,,,,,,,,,,,,,,,,,,,,,,,,,,,347.41281010000966,None,350.4002712999936,None,space,0.4606415999587625,350.4002712999936,None,347.41281010000966,None,347.41281010000966,None,347.41281010000966,None,1.8,350.8769934999291,None,None,0,352.7919073998928,None,352.7919073998928,None,352.7919073998928,None,353.6988256999757,None,,,,,,,,,,,,,,,,,,,,,,,,,,,,,,,,,,,,,,,,,,,,,,,,,,P012,fencog,2,Pre,2021_Oct_07_1055,Go No-Go Task,2021.1.4,119.97427754250072,
EPracticeConditions/BlueScram.csv,"Rule: When you see a blue image, do not press 'spacebar'.",Images/Scram2/AM03_NC.jpg,Scramble,Yellow,Images/Yellow.jpg,space,,,,,,,0,2,2,2,0,1,1,6,,,,,,,,,,,,,,,,,,,,,,,,,,,,,,,,,,,,,,,,,,,,,,,,,,,1.2,355.6908050000202,None,space,1,356.9907422000542,None,356.9907422000542,None,356.9907422000542,None,357.88731179991737,None,0.2704590999055654,,,,,,,,,,,,,,,,,,,,,,,,,,,,,,,,,,,,,,,,,,,,,,,,,P012,fencog,2,Pre,2021_Oct_07_1055,Go No-Go Task,2021.1.4,119.97427754250072,
EPracticeConditions/BlueScram.csv,"Rule: When you see a blue image, do not press 'spacebar'.",Images/Scram1/BM08_NC.jpg,Scramble,Blue,Images/Blue.jpg,None,,,,,,,0,2,2,2,0,2,2,0,,,,,,,,,,,,,,,,,,,,,,,,,,,,,,,,,,,,,,,,,,,,,,,,,,,1.5,359.8904053999577,None,None,1,361.48931439989246,None,361.48931439989246,None,361.48931439989246,None,362.39494189992547,None,,,,,,,,,,,,,,,,,,,,,,,,,,,,,,,,,,,,,,,,,,,,,,,,,,P012,fencog,2,Pre,2021_Oct_07_1055,Go No-Go Task,2021.1.4,119.97427754250072,
EPracticeConditions/BlueScram.csv,"Rule: When you see a blue image, do not press 'spacebar'.",Images/Scram2/AF10_NC.jpg,Scramble,Yellow,Images/Yellow.jpg,space,,,,,,,0,2,2,2,0,3,3,2,,,,,,,,,,,,,,,,,,,,,,,,,,,,,,,,,,,,,,,,,,,,,,,,,,,1.6,364.39988110004924,None,space,1,366.1047767000273,None,366.1047767000273,None,366.1047767000273,None,367.0081807000097,None,0.26819680002518,,,,,,,,,,,,,,,,,,,,,,,,,,,,,,,,,,,,,,,,,,,,,,,,,P012,fencog,2,Pre,2021_Oct_07_1055,Go No-Go Task,2021.1.4,119.97427754250072,
EPracticeConditions/BlueScram.csv,"Rule: When you see a blue image, do not press 'spacebar'.",Images/Scram1/AM04_NC.jpg,Scramble,Yellow,Images/Yellow.jpg,space,,,,,,,0,2,2,2,0,4,4,3,,,,,,,,,,,,,,,,,,,,,,,,,,,,,,,,,,,,,,,,,,,,,,,,,,,1.3,369.01267739990726,None,None,0,370.42851169989444,None,370.42851169989444,None,370.42851169989444,None,371.3234635000117,None,,,,,,,,,,,,,,,,,,,,,,,,,,,,,,,,,,,,,,,,,,,,,,,,,,P012,fencog,2,Pre,2021_Oct_07_1055,Go No-Go Task,2021.1.4,119.97427754250072,
EPracticeConditions/BlueScram.csv,"Rule: When you see a blue image, do not press 'spacebar'.",Images/Scram1/AM03NES.jpg,Scramble,Yellow,Images/Yellow.jpg,space,,,,,,,0,2,2,2,0,5,5,4,,,,,,,,,,,,,,,,,,,,,,,,,,,,,,,,,,,,,,,,,,,,,,,,,,,1.7,373.3282711999491,None,space,1,375.135314400075,None,375.135314400075,None,375.135314400075,None,376.0277813000139,None,0.2621705001220107,,,,,,,,,,,,,,,,,,,,,,,,,,,,,,,,,,,,,,,,,,,,,,,,,P012,fencog,2,Pre,2021_Oct_07_1055,Go No-Go Task,2021.1.4,119.97427754250072,
EPracticeConditions/BlueScram.csv,"Rule: When you see a blue image, do not press 'spacebar'.",Images/Scram2/AF25NES.jpg,Scramble,Yellow,Images/Yellow.jpg,space,,,,,,,0,2,2,2,0,6,6,7,,,,,,,,,,,,,,,,,,,,,,,,,,,,,,,,,,,,,,,,,,,,,,,,,,,1.4,378.0340299999807,None,space,1,379.5341352999676,None,379.5341352999676,None,379.5341352999676,None,380.43038340006024,None,0.2632631999440491,,,,,,,,,,,,,,,,,,,,,,,,,,,,,,,,,,,,,,,,,,,,,,,,,P012,fencog,2,Pre,2021_Oct_07_1055,Go No-Go Task,2021.1.4,119.97427754250072,
EPracticeConditions/BlueScram.csv,"Rule: When you see a blue image, do not press 'spacebar'.",Images/Scram1/BF18_NC.jpg,Scramble,Blue,Images/Blue.jpg,None,,,,,,,0,2,2,2,0,7,7,1,,,,,,,,,,,,,,,,,,,,,,,,,,,,,,,,,,,,,,,,,,,,,,,,,,,1.9,382.4348404998891,None,None,1,384.4410476000048,None,384.4410476000048,None,384.4410476000048,None,385.34187570004724,None,,,,,,,,,,,,,,,,,,,,,,,,,,,,,,,,,,,,,,,,,,,,,,,,,,P012,fencog,2,Pre,2021_Oct_07_1055,Go No-Go Task,2021.1.4,119.97427754250072,
EPracticeConditions/BlueScram.csv,"Rule: When you see a blue image, do not press 'spacebar'.",,,,,,,,,,,,0,2,2,2,,,,,,,,,,,,,,,,,,,,,,,,,,,,,,,,,,,,,,,,,,,,,,,,,,,,,,,,,,,,,,,,,,,,,,,,,,,,,,,,,,,,,,,,,,,,,,,,,,,,,,,,,,,,,,,,,,,,,P012,fencog,2,Pre,2021_Oct_07_1055,Go No-Go Task,2021.1.4,119.97427754250072,
EPracticeConditions/YellowScram.csv,"Rule: When you see a yellow image, do not press 'spacebar'.",Images/Scram2/HM06_NC.jpg,Scramble,Yellow,Images/Yellow.jpg,None,,,,,,,0,3,3,3,0,0,0,0,,,,,,,,,,,,,,,,,,,,,,,,,,,,,,,,,,,,,387.36079089995474,None,390.34677550010383,None,space,0.514323600102216,390.34677550010383,None,387.36079089995474,None,387.36079089995474,None,387.36079089995474,None,1.2,390.88233139994554,None,None,1,392.1970577999018,None,392.1970577999018,None,392.1970577999018,None,393.0904475999996,None,,,,,,,,,,,,,,,,,,,,,,,,,,,,,,,,,,,,,,,,,,,,,,,,,,P012,fencog,2,Pre,2021_Oct_07_1055,Go No-Go Task,2021.1.4,119.97427754250072,
EPracticeConditions/YellowScram.csv,"Rule: When you see a yellow image, do not press 'spacebar'.",Images/Scram1/HF04_NC.jpg,Scramble,Blue,Images/Blue.jpg,space,,,,,,,0,3,3,3,0,1,1,2,,,,,,,,,,,,,,,,,,,,,,,,,,,,,,,,,,,,,,,,,,,,,,,,,,,1.7,395.0951763999183,None,space,1,396.8955880999565,None,396.8955880999565,None,396.8955880999565,None,397.80060519999824,None,0.2616272000595927,,,,,,,,,,,,,,,,,,,,,,,,,,,,,,,,,,,,,,,,,,,,,,,,,P012,fencog,2,Pre,2021_Oct_07_1055,Go No-Go Task,2021.1.4,119.97427754250072,
EPracticeConditions/YellowScram.csv,"Rule: When you see a yellow image, do not press 'spacebar'.",Images/Scram1/BM01_NC.jpg,Scramble,Blue,Images/Blue.jpg,space,,,,,,,0,3,3,3,0,2,2,5,,,,,,,,,,,,,,,,,,,,,,,,,,,,,,,,,,,,,,,,,,,,,,,,,,,1.4,399.8021430000663,None,space,1,401.29428469995037,None,401.29428469995037,None,401.29428469995037,None,402.2038177999202,None,0.26323949988000095,,,,,,,,,,,,,,,,,,,,,,,,,,,,,,,,,,,,,,,,,,,,,,,,,P012,fencog,2,Pre,2021_Oct_07_1055,Go No-Go Task,2021.1.4,119.97427754250072,
EPracticeConditions/YellowScram.csv,"Rule: When you see a yellow image, do not press 'spacebar'.",Images/Scram1/AF24NES.jpg,Scramble,Blue,Images/Blue.jpg,space,,,,,,,0,3,3,3,0,3,3,7,,,,,,,,,,,,,,,,,,,,,,,,,,,,,,,,,,,,,,,,,,,,,,,,,,,1.3,404.20909629995003,None,space,1,405.6098660000134,None,405.6098660000134,None,405.6098660000134,None,406.5056928000413,None,0.25965430005453527,,,,,,,,,,,,,,,,,,,,,,,,,,,,,,,,,,,,,,,,,,,,,,,,,P012,fencog,2,Pre,2021_Oct_07_1055,Go No-Go Task,2021.1.4,119.97427754250072,
EPracticeConditions/YellowScram.csv,"Rule: When you see a yellow image, do not press 'spacebar'.",Images/Scram1/AF10_NC.jpg,Scramble,Blue,Images/Blue.jpg,space,,,,,,,0,3,3,3,0,4,4,6,,,,,,,,,,,,,,,,,,,,,,,,,,,,,,,,,,,,,,,,,,,,,,,,,,,1.8,408.51129269995727,None,space,1,410.4167470999528,None,410.4167470999528,None,410.4167470999528,None,411.3136179000139,None,0.2843849000055343,,,,,,,,,,,,,,,,,,,,,,,,,,,,,,,,,,,,,,,,,,,,,,,,,P012,fencog,2,Pre,2021_Oct_07_1055,Go No-Go Task,2021.1.4,119.97427754250072,
EPracticeConditions/YellowScram.csv,"Rule: When you see a yellow image, do not press 'spacebar'.",Images/Scram2/AM03NES.jpg,Scramble,Yellow,Images/Yellow.jpg,None,,,,,,,0,3,3,3,0,5,5,1,,,,,,,,,,,,,,,,,,,,,,,,,,,,,,,,,,,,,,,,,,,,,,,,,,,1.6,413.3175123000983,None,None,1,415.02357989992015,None,415.02357989992015,None,415.02357989992015,None,415.9194213000592,None,,,,,,,,,,,,,,,,,,,,,,,,,,,,,,,,,,,,,,,,,,,,,,,,,,P012,fencog,2,Pre,2021_Oct_07_1055,Go No-Go Task,2021.1.4,119.97427754250072,
EPracticeConditions/YellowScram.csv,"Rule: When you see a yellow image, do not press 'spacebar'.",Images/Scram1/AF07NES.jpg,Scramble,Blue,Images/Blue.jpg,space,,,,,,,0,3,3,3,0,6,6,3,,,,,,,,,,,,,,,,,,,,,,,,,,,,,,,,,,,,,,,,,,,,,,,,,,,1.5,417.9233736000024,None,space,1,419.53061080002226,None,419.53061080002226,None,419.53061080002226,None,420.42589160008356,None,0.34640950011089444,,,,,,,,,,,,,,,,,,,,,,,,,,,,,,,,,,,,,,,,,,,,,,,,,P012,fencog,2,Pre,2021_Oct_07_1055,Go No-Go Task,2021.1.4,119.97427754250072,
EPracticeConditions/YellowScram.csv,"Rule: When you see a yellow image, do not press 'spacebar'.",Images/Scram1/AF30NES.JPG,Scramble,Blue,Images/Blue.jpg,space,,,,,,,0,3,3,3,0,7,7,4,,,,,,,,,,,,,,,,,,,,,,,,,,,,,,,,,,,,,,,,,,,,,,,,,,,1.9,422.42885740008205,None,space,1,424.4292905998882,None,424.4292905998882,None,424.4292905998882,None,425.324412799906,None,0.33596600010059774,,,,,,,,,,,,,,,,,,,,,,,,,,,,,,,,,,,,,,,,,,,,,,,,,P012,fencog,2,Pre,2021_Oct_07_1055,Go No-Go Task,2021.1.4,119.97427754250072,
EPracticeConditions/YellowScram.csv,"Rule: When you see a yellow image, do not press 'spacebar'.",,,,,,,,,,,,0,3,3,3,,,,,,,,,,,,,,,,,,,,,,,,,,,,,,,,,,,,,,,,,,,,,,,,,,,,,,,,,,,,,,,,,,,,,,,,,,,,,,,,,,,,,,,,,,,,,,,,,,,,,,,,,,,,,,,,,,,,,P012,fencog,2,Pre,2021_Oct_07_1055,Go No-Go Task,2021.1.4,119.97427754250072,
,,,,,,,,,,,,,,,,,,,,,,,,,,,,,,,,,,,,,,,,,,,,,,,,,,,,,,,,,,,,,,,,,,,,,,,,,,,,,,,,,,,,,428.6277276999317,None,space,2.9103769999928772,429.11070970003493,None,,,,,,,,,,,,,,,,,,,,,,,,,,,,,,,,,,,,,,,,,,,P012,fencog,2,Pre,2021_Oct_07_1055,Go No-Go Task,2021.1.4,119.97427754250072,
,,,,,,,,,,,,,,,,,,,,,,,,,,,,,,,,,,,,,,,,,,,,,,,,,,,,,,,,,,,,,,,,,,,,,,,,,,,,,,,,,,,,,,,,,,,432.03878320008516,None,space,1.365995999891311,432.03878320008516,None,,,,,,,,,,,,,,,,,,,,,,,,,,,,,,,,,,,,,P012,fencog,2,Pre,2021_Oct_07_1055,Go No-Go Task,2021.1.4,119.97427754250072,
,"Rule: When you see a yellow image, do not press 'spacebar'.",Images/Happy/BF09_HO.jpg,Happy,Blue,Images/Blue.jpg,space,ParentConditions/YellowYellowBlue_v2.xlsx,YellowYellowBlue,Conditions/Version_2/YellowFearStop.xlsx,no,PASS,0.2009685743777515,,,,,,,,,0,0,0,1,0,0,0,0,0,0,0,0,,,,,,,,,,,,,,,,,,,,,,,,,,,,,,,,,,,,,,,,,,,,,,,,,,,,,,,,,,,,,,,,,433.4815664999187,None,436.47502300003543,None,space,0.6659826000686735,436.47502300003543,None,433.4815664999187,None,433.4815664999187,None,433.4815664999187,None,1.59,437.2091957000084,None,space,1,0.24935810011811554,438.8999073000159,None,438.8999073000159,None,438.8999073000159,None,,,,,,,,,,,P012,fencog,2,Pre,2021_Oct_07_1055,Go No-Go Task,2021.1.4,119.97427754250072,
,"Rule: When you see a yellow image, do not press 'spacebar'.",Images/Happy/AF30HAS.jpg,Happy,Blue,Images/Blue.jpg,space,ParentConditions/YellowYellowBlue_v2.xlsx,YellowYellowBlue,Conditions/Version_2/YellowFearStop.xlsx,no,PASS,0.9679561444510932,,,,,,,,,0,0,0,1,0,0,0,0,0,1,1,1,,,,,,,,,,,,,,,,,,,,,,,,,,,,,,,,,,,,,,,,,,,,,,,,,,,,,,,,,,,,,,,,,,,,,,,,,,,,,,,1.48,439.30713209998794,None,space,1,0.33038750011473894,440.8911234999541,None,440.8911234999541,None,440.8911234999541,None,,,,,,,,,,,P012,fencog,2,Pre,2021_Oct_07_1055,Go No-Go Task,2021.1.4,119.97427754250072,
,"Rule: When you see a yellow image, do not press 'spacebar'.",Images/Happy/AF27HAS.jpg,Happy,Blue,Images/Blue.jpg,space,ParentConditions/YellowYellowBlue_v2.xlsx,YellowYellowBlue,Conditions/Version_2/YellowFearStop.xlsx,no,PASS,0.024466481670397555,,,,,,,,,0,0,0,1,0,0,0,0,0,2,2,2,,,,,,,,,,,,,,,,,,,,,,,,,,,,,,,,,,,,,,,,,,,,,,,,,,,,,,,,,,,,,,,,,,,,,,,,,,,,,,,1.68,441.29966760007665,None,space,1,0.2909968001767993,443.08212479995564,None,443.08212479995564,None,443.08212479995564,None,,,,,,,,,,,P012,fencog,2,Pre,2021_Oct_07_1055,Go No-Go Task,2021.1.4,119.97427754250072,
,"Rule: When you see a yellow image, do not press 'spacebar'.",Images/Happy/AF22HAS.jpg,Happy,Blue,Images/Blue.jpg,space,ParentConditions/YellowYellowBlue_v2.xlsx,YellowYellowBlue,Conditions/Version_2/YellowFearStop.xlsx,no,PASS,0.900419425166189,,,,,,,,,0,0,0,1,0,0,0,0,0,3,3,3,,,,,,,,,,,,,,,,,,,,,,,,,,,,,,,,,,,,,,,,,,,,,,,,,,,,,,,,,,,,,,,,,,,,,,,,,,,,,,,1.82,443.4862613999285,None,space,1,0.24706640001386404,445.40651039988734,None,445.40651039988734,None,445.40651039988734,None,,,,,,,,,,,P012,fencog,2,Pre,2021_Oct_07_1055,Go No-Go Task,2021.1.4,119.97427754250072,
,"Rule: When you see a yellow image, do not press 'spacebar'.",Images/Happy/WM11_HC.jpg,Happy,Blue,Images/Blue.jpg,space,ParentConditions/YellowYellowBlue_v2.xlsx,YellowYellowBlue,Conditions/Version_2/YellowFearStop.xlsx,no,PASS,0.5042081063795358,,,,,,,,,0,0,0,1,0,0,0,0,0,4,4,4,,,,,,,,,,,,,,,,,,,,,,,,,,,,,,,,,,,,,,,,,,,,,,,,,,,,,,,,,,,,,,,,,,,,,,,,,,,,,,,1.31,445.8055873999838,None,space,1,0.2884971001185477,447.2224584999494,None,447.2224584999494,None,447.2224584999494,None,,,,,,,,,,,P012,fencog,2,Pre,2021_Oct_07_1055,Go No-Go Task,2021.1.4,119.97427754250072,
,"Rule: When you see a yellow image, do not press 'spacebar'.",Images/Happy/BF05_HO.jpg,Happy,Blue,Images/Blue.jpg,space,ParentConditions/YellowYellowBlue_v2.xlsx,YellowYellowBlue,Conditions/Version_2/YellowFearStop.xlsx,no,PASS,0.6687720633168746,,,,,,,,,0,0,0,1,0,0,0,0,0,5,5,5,,,,,,,,,,,,,,,,,,,,,,,,,,,,,,,,,,,,,,,,,,,,,,,,,,,,,,,,,,,,,,,,,,,,,,,,,,,,,,,1.26,447.6229276000522,None,space,1,0.28852300019934773,448.988692099927,None,448.988692099927,None,448.988692099927,None,,,,,,,,,,,P012,fencog,2,Pre,2021_Oct_07_1055,Go No-Go Task,2021.1.4,119.97427754250072,
,"Rule: When you see a yellow image, do not press 'spacebar'.",Images/Fearful/AM01AFS.jpg,Fear,Yellow,Images/Yellow.jpg,None,ParentConditions/YellowYellowBlue_v2.xlsx,YellowYellowBlue,Conditions/Version_2/YellowFearStop.xlsx,yes,PASS,0.008120847249678764,,,,,,,,,0,0,0,1,0,0,0,0,0,6,6,6,,,,,,,,,,,,,,,,,,,,,,,,,,,,,,,,,,,,,,,,,,,,,,,,,,,,,,,,,,,,,,,,,,,,,,,,,,,,,,,1.56,449.39382270001806,None,space,0,0.3742814001161605,451.0547658998985,None,451.0547658998985,None,451.0547658998985,None,,,,,,,,,,,P012,fencog,2,Pre,2021_Oct_07_1055,Go No-Go Task,2021.1.4,119.97427754250072,
,"Rule: When you see a yellow image, do not press 'spacebar'.",Images/Happy/AF23HAS.jpg,Happy,Blue,Images/Blue.jpg,space,ParentConditions/YellowYellowBlue_v2.xlsx,YellowYellowBlue,Conditions/Version_2/YellowFearStop.xlsx,no,PASS,0.07023198870971747,,,,,,,,,0,0,0,1,0,0,0,0,0,7,7,7,,,,,,,,,,,,,,,,,,,,,,,,,,,,,,,,,,,,,,,,,,,,,,,,,,,,,,,,,,,,,,,,,,,,,,,,,,,,,,,1.42,451.4549368999433,None,space,1,0.32192820007912815,452.9791653000284,None,452.9791653000284,None,452.9791653000284,None,,,,,,,,,,,P012,fencog,2,Pre,2021_Oct_07_1055,Go No-Go Task,2021.1.4,119.97427754250072,
,"Rule: When you see a yellow image, do not press 'spacebar'.",Images/Happy/AM16HAS.jpg,Happy,Blue,Images/Blue.jpg,space,ParentConditions/YellowYellowBlue_v2.xlsx,YellowYellowBlue,Conditions/Version_2/YellowFearStop.xlsx,no,PASS,0.031804034281165405,,,,,,,,,0,0,0,1,0,0,0,0,0,8,8,8,,,,,,,,,,,,,,,,,,,,,,,,,,,,,,,,,,,,,,,,,,,,,,,,,,,,,,,,,,,,,,,,,,,,,,,,,,,,,,,1.72,453.3781471999828,None,space,1,0.370392199838534,455.203467000043,None,455.203467000043,None,455.203467000043,None,,,,,,,,,,,P012,fencog,2,Pre,2021_Oct_07_1055,Go No-Go Task,2021.1.4,119.97427754250072,
,"Rule: When you see a yellow image, do not press 'spacebar'.",Images/Happy/AM04HAS.jpg,Happy,Blue,Images/Blue.jpg,space,ParentConditions/YellowYellowBlue_v2.xlsx,YellowYellowBlue,Conditions/Version_2/YellowFearStop.xlsx,no,PASS,0.0002121348500070397,,,,,,,,,0,0,0,1,0,0,0,0,0,9,9,9,,,,,,,,,,,,,,,,,,,,,,,,,,,,,,,,,,,,,,,,,,,,,,,,,,,,,,,,,,,,,,,,,,,,,,,,,,,,,,,1.76,455.6049695000984,None,space,1,0.34400809998624027,457.4695190000348,None,457.4695190000348,None,457.4695190000348,None,,,,,,,,,,,P012,fencog,2,Pre,2021_Oct_07_1055,Go No-Go Task,2021.1.4,119.97427754250072,
,"Rule: When you see a yellow image, do not press 'spacebar'.",Images/Happy/AF26HAS.jpg,Happy,Blue,Images/Blue.jpg,space,ParentConditions/YellowYellowBlue_v2.xlsx,YellowYellowBlue,Conditions/Version_2/YellowFearStop.xlsx,no,PASS,0.408079602030768,,,,,,,,,0,0,0,1,0,0,0,0,0,10,10,10,,,,,,,,,,,,,,,,,,,,,,,,,,,,,,,,,,,,,,,,,,,,,,,,,,,,,,,,,,,,,,,,,,,,,,,,,,,,,,,1.55,457.8695831000805,None,space,1,0.26223779981955886,459.5272174999118,None,459.5272174999118,None,459.5272174999118,None,,,,,,,,,,,P012,fencog,2,Pre,2021_Oct_07_1055,Go No-Go Task,2021.1.4,119.97427754250072,
,"Rule: When you see a yellow image, do not press 'spacebar'.",Images/Fearful/AF10_FC.jpg,Fear,Yellow,Images/Yellow.jpg,None,ParentConditions/YellowYellowBlue_v2.xlsx,YellowYellowBlue,Conditions/Version_2/YellowFearStop.xlsx,yes,PASS,0.43118367877877073,,,,,,,,,0,0,0,1,0,0,0,0,0,11,11,11,,,,,,,,,,,,,,,,,,,,,,,,,,,,,,,,,,,,,,,,,,,,,,,,,,,,,,,,,,,,,,,,,,,,,,,,,,,,,,,1.24,459.93832680000924,None,None,1,,461.2850661999546,None,461.2850661999546,None,461.2850661999546,None,,,,,,,,,,,P012,fencog,2,Pre,2021_Oct_07_1055,Go No-Go Task,2021.1.4,119.97427754250072,
,"Rule: When you see a yellow image, do not press 'spacebar'.",Images/Fearful/AM09_FO.jpg,Fear,Yellow,Images/Yellow.jpg,None,ParentConditions/YellowYellowBlue_v2.xlsx,YellowYellowBlue,Conditions/Version_2/YellowFearStop.xlsx,yes,PASS,0.25324381257324213,,,,,,,,,0,0,0,1,0,0,0,0,0,12,12,12,,,,,,,,,,,,,,,,,,,,,,,,,,,,,,,,,,,,,,,,,,,,,,,,,,,,,,,,,,,,,,,,,,,,,,,,,,,,,,,1.4,461.68419459997676,None,space,0,0.2846248000860214,463.18453769991174,None,463.18453769991174,None,463.18453769991174,None,,,,,,,,,,,P012,fencog,2,Pre,2021_Oct_07_1055,Go No-Go Task,2021.1.4,119.97427754250072,
,"Rule: When you see a yellow image, do not press 'spacebar'.",Images/Happy/HM04_HO.jpg,Happy,Blue,Images/Blue.jpg,space,ParentConditions/YellowYellowBlue_v2.xlsx,YellowYellowBlue,Conditions/Version_2/YellowFearStop.xlsx,no,PASS,0.4072425132028237,,,,,,,,,0,0,0,1,0,0,0,0,0,13,13,13,,,,,,,,,,,,,,,,,,,,,,,,,,,,,,,,,,,,,,,,,,,,,,,,,,,,,,,,,,,,,,,,,,,,,,,,,,,,,,,2,463.5838750000112,None,space,1,0.3058277000673115,465.6838126000948,None,465.6838126000948,None,465.6838126000948,None,,,,,,,,,,,P012,fencog,2,Pre,2021_Oct_07_1055,Go No-Go Task,2021.1.4,119.97427754250072,
,"Rule: When you see a yellow image, do not press 'spacebar'.",Images/Fearful/AM04_FO.jpg,Fear,Yellow,Images/Yellow.jpg,None,ParentConditions/YellowYellowBlue_v2.xlsx,YellowYellowBlue,Conditions/Version_2/YellowFearStop.xlsx,yes,PASS,0.7288256558461894,,,,,,,,,0,0,0,1,0,0,0,0,0,14,14,14,,,,,,,,,,,,,,,,,,,,,,,,,,,,,,,,,,,,,,,,,,,,,,,,,,,,,,,,,,,,,,,,,,,,,,,,,,,,,,,1.41,466.0899678999558,None,None,1,,467.5998865000438,None,467.5998865000438,None,467.5998865000438,None,,,,,,,,,,,P012,fencog,2,Pre,2021_Oct_07_1055,Go No-Go Task,2021.1.4,119.97427754250072,
,"Rule: When you see a yellow image, do not press 'spacebar'.",Images/Happy/AM13HAS.jpg,Happy,Blue,Images/Blue.jpg,space,ParentConditions/YellowYellowBlue_v2.xlsx,YellowYellowBlue,Conditions/Version_2/YellowFearStop.xlsx,no,PASS,0.9405484517370288,,,,,,,,,0,0,0,1,0,0,0,0,0,15,15,15,,,,,,,,,,,,,,,,,,,,,,,,,,,,,,,,,,,,,,,,,,,,,,,,,,,,,,,,,,,,,,,,,,,,,,,,,,,,,,,1.78,468.0024753001053,None,space,1,0.2825197000056505,469.88256629998796,None,469.88256629998796,None,469.88256629998796,None,,,,,,,,,,,P012,fencog,2,Pre,2021_Oct_07_1055,Go No-Go Task,2021.1.4,119.97427754250072,
,"Rule: When you see a yellow image, do not press 'spacebar'.",Images/Fearful/AF09AFS.jpg,Fear,Yellow,Images/Yellow.jpg,None,ParentConditions/YellowYellowBlue_v2.xlsx,YellowYellowBlue,Conditions/Version_2/YellowFearStop.xlsx,yes,PASS,0.6464881792541419,,,,,,,,,0,0,0,1,0,0,0,0,0,16,16,16,,,,,,,,,,,,,,,,,,,,,,,,,,,,,,,,,,,,,,,,,,,,,,,,,,,,,,,,,,,,,,,,,,,,,,,,,,,,,,,1.57,470.287573199952,None,None,1,,471.96524389996193,None,471.96524389996193,None,471.96524389996193,None,,,,,,,,,,,P012,fencog,2,Pre,2021_Oct_07_1055,Go No-Go Task,2021.1.4,119.97427754250072,
,"Rule: When you see a yellow image, do not press 'spacebar'.",Images/Fearful/BF05_FO.jpg,Fear,Yellow,Images/Yellow.jpg,None,ParentConditions/YellowYellowBlue_v2.xlsx,YellowYellowBlue,Conditions/Version_2/YellowFearStop.xlsx,yes,PASS,0.37509261462312704,,,,,,,,,0,0,0,1,0,0,0,0,0,17,17,17,,,,,,,,,,,,,,,,,,,,,,,,,,,,,,,,,,,,,,,,,,,,,,,,,,,,,,,,,,,,,,,,,,,,,,,,,,,,,,,1.87,472.3659610999748,None,None,1,,474.3395320000127,None,474.3395320000127,None,474.3395320000127,None,,,,,,,,,,,P012,fencog,2,Pre,2021_Oct_07_1055,Go No-Go Task,2021.1.4,119.97427754250072,
,"Rule: When you see a yellow image, do not press 'spacebar'.",Images/Happy/AM24HAS.jpg,Happy,Blue,Images/Blue.jpg,space,ParentConditions/YellowYellowBlue_v2.xlsx,YellowYellowBlue,Conditions/Version_2/YellowFearStop.xlsx,no,PASS,0.016158036932588105,,,,,,,,,0,0,0,1,0,0,0,0,0,18,18,18,,,,,,,,,,,,,,,,,,,,,,,,,,,,,,,,,,,,,,,,,,,,,,,,,,,,,,,,,,,,,,,,,,,,,,,,,,,,,,,1.46,474.7451808999758,None,space,1,0.34792049997486174,476.31399239995517,None,476.31399239995517,None,476.31399239995517,None,,,,,,,,,,,P012,fencog,2,Pre,2021_Oct_07_1055,Go No-Go Task,2021.1.4,119.97427754250072,
,"Rule: When you see a yellow image, do not press 'spacebar'.",Images/Fearful/AF11AFS.jpg,Fear,Yellow,Images/Yellow.jpg,None,ParentConditions/YellowYellowBlue_v2.xlsx,YellowYellowBlue,Conditions/Version_2/YellowFearStop.xlsx,yes,PASS,0.3371554357894605,,,,,,,,,0,0,0,1,0,0,0,0,0,19,19,19,,,,,,,,,,,,,,,,,,,,,,,,,,,,,,,,,,,,,,,,,,,,,,,,,,,,,,,,,,,,,,,,,,,,,,,,,,,,,,,1.53,476.71612449991517,None,None,1,,478.3466600999236,None,478.3466600999236,None,478.3466600999236,None,,,,,,,,,,,P012,fencog,2,Pre,2021_Oct_07_1055,Go No-Go Task,2021.1.4,119.97427754250072,
,"Rule: When you see a yellow image, do not press 'spacebar'.",Images/Happy/AF01_HE.jpg,Happy,Blue,Images/Blue.jpg,space,ParentConditions/YellowYellowBlue_v2.xlsx,YellowYellowBlue,Conditions/Version_2/YellowFearStop.xlsx,no,PASS,0.09770872574206646,,,,,,,,,0,0,0,1,0,0,0,0,0,20,20,20,,,,,,,,,,,,,,,,,,,,,,,,,,,,,,,,,,,,,,,,,,,,,,,,,,,,,,,,,,,,,,,,,,,,,,,,,,,,,,,1.27,478.7474358000327,None,space,1,0.26804120000451803,480.1211556000635,None,480.1211556000635,None,480.1211556000635,None,,,,,,,,,,,P012,fencog,2,Pre,2021_Oct_07_1055,Go No-Go Task,2021.1.4,119.97427754250072,
,"Rule: When you see a yellow image, do not press 'spacebar'.",Images/Happy/AM10_HO.jpg,Happy,Blue,Images/Blue.jpg,space,ParentConditions/YellowYellowBlue_v2.xlsx,YellowYellowBlue,Conditions/Version_2/YellowFearStop.xlsx,no,PASS,0.35803186882916893,,,,,,,,,0,0,0,1,0,0,0,0,0,21,21,21,,,,,,,,,,,,,,,,,,,,,,,,,,,,,,,,,,,,,,,,,,,,,,,,,,,,,,,,,,,,,,,,,,,,,,,,,,,,,,,1.64,480.5207497999072,None,space,1,0.3509398000314832,482.2621830001008,None,482.2621830001008,None,482.2621830001008,None,,,,,,,,,,,P012,fencog,2,Pre,2021_Oct_07_1055,Go No-Go Task,2021.1.4,119.97427754250072,
,"Rule: When you see a yellow image, do not press 'spacebar'.",Images/Happy/AF09HAS.jpg,Happy,Blue,Images/Blue.jpg,space,ParentConditions/YellowYellowBlue_v2.xlsx,YellowYellowBlue,Conditions/Version_2/YellowFearStop.xlsx,no,PASS,0.20902890792548556,,,,,,,,,0,0,0,1,0,0,0,0,0,22,22,22,,,,,,,,,,,,,,,,,,,,,,,,,,,,,,,,,,,,,,,,,,,,,,,,,,,,,,,,,,,,,,,,,,,,,,,,,,,,,,,1.34,482.6686255999375,None,space,1,0.2856113000307232,484.1116347000934,None,484.1116347000934,None,484.1116347000934,None,,,,,,,,,,,P012,fencog,2,Pre,2021_Oct_07_1055,Go No-Go Task,2021.1.4,119.97427754250072,
,"Rule: When you see a yellow image, do not press 'spacebar'.",Images/Happy/BM02_HO.jpg,Happy,Blue,Images/Blue.jpg,space,ParentConditions/YellowYellowBlue_v2.xlsx,YellowYellowBlue,Conditions/Version_2/YellowFearStop.xlsx,no,PASS,0.6732741052769042,,,,,,,,,0,0,0,1,0,0,0,0,0,23,23,23,,,,,,,,,,,,,,,,,,,,,,,,,,,,,,,,,,,,,,,,,,,,,,,,,,,,,,,,,,,,,,,,,,,,,,,,,,,,,,,1.37,484.51185650005937,None,space,1,0.2994436000008136,485.98616189998575,None,485.98616189998575,None,485.98616189998575,None,,,,,,,,,,,P012,fencog,2,Pre,2021_Oct_07_1055,Go No-Go Task,2021.1.4,119.97427754250072,
,"Rule: When you see a yellow image, do not press 'spacebar'.",Images/Happy/AM09_HE.jpg,Happy,Blue,Images/Blue.jpg,space,ParentConditions/YellowYellowBlue_v2.xlsx,YellowYellowBlue,Conditions/Version_2/YellowFearStop.xlsx,no,PASS,0.6065078221259242,,,,,,,,,0,0,0,1,0,0,0,0,0,24,24,24,,,,,,,,,,,,,,,,,,,,,,,,,,,,,,,,,,,,,,,,,,,,,,,,,,,,,,,,,,,,,,,,,,,,,,,,,,,,,,,1.22,486.38530190009624,None,space,1,0.27038499992340803,487.71894320007414,None,487.71894320007414,None,487.71894320007414,None,,,,,,,,,,,P012,fencog,2,Pre,2021_Oct_07_1055,Go No-Go Task,2021.1.4,119.97427754250072,
,"Rule: When you see a yellow image, do not press 'spacebar'.",Images/Happy/AF10_HE.jpg,Happy,Blue,Images/Blue.jpg,space,ParentConditions/YellowYellowBlue_v2.xlsx,YellowYellowBlue,Conditions/Version_2/YellowFearStop.xlsx,no,PASS,0.6869968801100608,,,,,,,,,0,0,0,1,0,0,0,0,0,25,25,25,,,,,,,,,,,,,,,,,,,,,,,,,,,,,,,,,,,,,,,,,,,,,,,,,,,,,,,,,,,,,,,,,,,,,,,,,,,,,,,1.65,488.11450619995594,None,space,1,0.2892215000465512,489.86827549990267,None,489.86827549990267,None,489.86827549990267,None,,,,,,,,,,,P012,fencog,2,Pre,2021_Oct_07_1055,Go No-Go Task,2021.1.4,119.97427754250072,
,"Rule: When you see a yellow image, do not press 'spacebar'.",Images/Happy/BM01_HO.jpg,Happy,Blue,Images/Blue.jpg,space,ParentConditions/YellowYellowBlue_v2.xlsx,YellowYellowBlue,Conditions/Version_2/YellowFearStop.xlsx,no,PASS,0.5538207000686074,,,,,,,,,0,0,0,1,0,0,0,0,0,26,26,26,,,,,,,,,,,,,,,,,,,,,,,,,,,,,,,,,,,,,,,,,,,,,,,,,,,,,,,,,,,,,,,,,,,,,,,,,,,,,,,1.25,490.2676578001119,None,space,1,0.2760747999418527,491.617766499985,None,491.617766499985,None,491.617766499985,None,,,,,,,,,,,P012,fencog,2,Pre,2021_Oct_07_1055,Go No-Go Task,2021.1.4,119.97427754250072,
,"Rule: When you see a yellow image, do not press 'spacebar'.",Images/Fearful/AF07_FO.jpg,Fear,Yellow,Images/Yellow.jpg,None,ParentConditions/YellowYellowBlue_v2.xlsx,YellowYellowBlue,Conditions/Version_2/YellowFearStop.xlsx,yes,PASS,0.5689879324899989,,,,,,,,,0,0,0,1,0,0,0,0,0,27,27,27,,,,,,,,,,,,,,,,,,,,,,,,,,,,,,,,,,,,,,,,,,,,,,,,,,,,,,,,,,,,,,,,,,,,,,,,,,,,,,,1.66,492.01785559998825,None,None,1,,493.7921275999397,None,493.7921275999397,None,493.7921275999397,None,,,,,,,,,,,P012,fencog,2,Pre,2021_Oct_07_1055,Go No-Go Task,2021.1.4,119.97427754250072,
,"Rule: When you see a yellow image, do not press 'spacebar'.",Images/Happy/BF18_HO.jpg,Happy,Blue,Images/Blue.jpg,space,ParentConditions/YellowYellowBlue_v2.xlsx,YellowYellowBlue,Conditions/Version_2/YellowFearStop.xlsx,no,PASS,0.2528908254284902,,,,,,,,,0,0,0,1,0,0,0,0,0,28,28,28,,,,,,,,,,,,,,,,,,,,,,,,,,,,,,,,,,,,,,,,,,,,,,,,,,,,,,,,,,,,,,,,,,,,,,,,,,,,,,,1.54,494.19102240004577,None,space,1,0.25220280000939965,495.83323489991017,None,495.83323489991017,None,495.83323489991017,None,,,,,,,,,,,P012,fencog,2,Pre,2021_Oct_07_1055,Go No-Go Task,2021.1.4,119.97427754250072,
,"Rule: When you see a yellow image, do not press 'spacebar'.",Images/Happy/AM03HAS.jpg,Happy,Blue,Images/Blue.jpg,space,ParentConditions/YellowYellowBlue_v2.xlsx,YellowYellowBlue,Conditions/Version_2/YellowFearStop.xlsx,no,PASS,0.6129705520501836,,,,,,,,,0,0,0,1,0,0,0,0,0,29,29,29,,,,,,,,,,,,,,,,,,,,,,,,,,,,,,,,,,,,,,,,,,,,,,,,,,,,,,,,,,,,,,,,,,,,,,,,,,,,,,,1.52,496.23909480008297,None,space,1,0.29277539998292923,497.8659349998925,None,497.8659349998925,None,497.8659349998925,None,,,,,,,,,,,P012,fencog,2,Pre,2021_Oct_07_1055,Go No-Go Task,2021.1.4,119.97427754250072,
,"Rule: When you see a yellow image, do not press 'spacebar'.",Images/Happy/BF10_HO.jpg,Happy,Blue,Images/Blue.jpg,space,ParentConditions/YellowYellowBlue_v2.xlsx,YellowYellowBlue,Conditions/Version_2/YellowFearStop.xlsx,no,PASS,0.6633214650414543,,,,,,,,,0,0,0,1,0,0,0,0,0,30,30,30,,,,,,,,,,,,,,,,,,,,,,,,,,,,,,,,,,,,,,,,,,,,,,,,,,,,,,,,,,,,,,,,,,,,,,,,,,,,,,,1.28,498.27598870010115,None,space,1,0.3562039998359978,499.6572732999921,None,499.6572732999921,None,499.6572732999921,None,,,,,,,,,,,P012,fencog,2,Pre,2021_Oct_07_1055,Go No-Go Task,2021.1.4,119.97427754250072,
,"Rule: When you see a yellow image, do not press 'spacebar'.",Images/Happy/BF07_HO.jpg,Happy,Blue,Images/Blue.jpg,space,ParentConditions/YellowYellowBlue_v2.xlsx,YellowYellowBlue,Conditions/Version_2/YellowFearStop.xlsx,no,PASS,0.38343441764823294,,,,,,,,,0,0,0,1,0,0,0,0,0,31,31,31,,,,,,,,,,,,,,,,,,,,,,,,,,,,,,,,,,,,,,,,,,,,,,,,,,,,,,,,,,,,,,,,,,,,,,,,,,,,,,,1.62,500.0576373001095,None,space,1,0.2641977001912892,501.7814482001122,None,501.7814482001122,None,501.7814482001122,None,,,,,,,,,,,P012,fencog,2,Pre,2021_Oct_07_1055,Go No-Go Task,2021.1.4,119.97427754250072,
,"Rule: When you see a yellow image, do not press 'spacebar'.",Images/Fearful/BF07_FO.jpg,Fear,Yellow,Images/Yellow.jpg,None,ParentConditions/YellowYellowBlue_v2.xlsx,YellowYellowBlue,Conditions/Version_2/YellowFearStop.xlsx,yes,PASS,0.00831620462665883,,,,,,,,,0,0,0,1,0,0,0,0,0,32,32,32,,,,,,,,,,,,,,,,,,,,,,,,,,,,,,,,,,,,,,,,,,,,,,,,,,,,,,,,,,,,,,,,,,,,,,,,,,,,,,,1.94,502.19033759995364,None,None,1,,504.23071960010566,None,504.23071960010566,None,504.23071960010566,None,,,,,,,,,,,P012,fencog,2,Pre,2021_Oct_07_1055,Go No-Go Task,2021.1.4,119.97427754250072,
,"Rule: When you see a yellow image, do not press 'spacebar'.",Images/Happy/WF04_HC.jpg,Happy,Blue,Images/Blue.jpg,space,ParentConditions/YellowYellowBlue_v2.xlsx,YellowYellowBlue,Conditions/Version_2/YellowFearStop.xlsx,no,PASS,0.6777495076385776,,,,,,,,,0,0,0,1,0,0,0,0,0,33,33,33,,,,,,,,,,,,,,,,,,,,,,,,,,,,,,,,,,,,,,,,,,,,,,,,,,,,,,,,,,,,,,,,,,,,,,,,,,,,,,,1.91,504.6335307001136,None,space,1,0.25533040007576346,506.64664230006747,None,506.64664230006747,None,506.64664230006747,None,,,,,,,,,,,P012,fencog,2,Pre,2021_Oct_07_1055,Go No-Go Task,2021.1.4,119.97427754250072,
,"Rule: When you see a yellow image, do not press 'spacebar'.",Images/Happy/AM23HAS.jpg,Happy,Blue,Images/Blue.jpg,space,ParentConditions/YellowYellowBlue_v2.xlsx,YellowYellowBlue,Conditions/Version_2/YellowFearStop.xlsx,no,PASS,0.04303712392230152,,,,,,,,,0,0,0,1,0,0,0,0,0,34,34,34,,,,,,,,,,,,,,,,,,,,,,,,,,,,,,,,,,,,,,,,,,,,,,,,,,,,,,,,,,,,,,,,,,,,,,,,,,,,,,,1.93,507.04598980001174,None,space,1,0.38243499980308115,509.0791116000619,None,509.0791116000619,None,509.0791116000619,None,,,,,,,,,,,P012,fencog,2,Pre,2021_Oct_07_1055,Go No-Go Task,2021.1.4,119.97427754250072,
,"Rule: When you see a yellow image, do not press 'spacebar'.",Images/Happy/AM09HAS.jpg,Happy,Blue,Images/Blue.jpg,space,ParentConditions/YellowYellowBlue_v2.xlsx,YellowYellowBlue,Conditions/Version_2/YellowFearStop.xlsx,no,PASS,0.09574836161041034,,,,,,,,,0,0,0,1,0,0,0,0,0,35,35,35,,,,,,,,,,,,,,,,,,,,,,,,,,,,,,,,,,,,,,,,,,,,,,,,,,,,,,,,,,,,,,,,,,,,,,,,,,,,,,,1.23,509.48023140011355,None,space,1,0.2894546000752598,510.81201140000485,None,510.81201140000485,None,510.81201140000485,None,,,,,,,,,,,P012,fencog,2,Pre,2021_Oct_07_1055,Go No-Go Task,2021.1.4,119.97427754250072,
,"Rule: When you see a yellow image, do not press 'spacebar'.",Images/Happy/AM10HAS.jpg,Happy,Blue,Images/Blue.jpg,space,ParentConditions/YellowYellowBlue_v2.xlsx,YellowYellowBlue,Conditions/Version_2/YellowFearStop.xlsx,no,PASS,0.1630912911655703,,,,,,,,,0,0,0,1,0,0,0,0,0,36,36,36,,,,,,,,,,,,,,,,,,,,,,,,,,,,,,,,,,,,,,,,,,,,,,,,,,,,,,,,,,,,,,,,,,,,,,,,,,,,,,,1.84,511.22093020007014,None,space,1,0.3083222000859678,513.1614214000292,None,513.1614214000292,None,513.1614214000292,None,,,,,,,,,,,P012,fencog,2,Pre,2021_Oct_07_1055,Go No-Go Task,2021.1.4,119.97427754250072,
,"Rule: When you see a yellow image, do not press 'spacebar'.",Images/Happy/AF07HAS.jpg,Happy,Blue,Images/Blue.jpg,space,ParentConditions/YellowYellowBlue_v2.xlsx,YellowYellowBlue,Conditions/Version_2/YellowFearStop.xlsx,no,PASS,0.34867471869559996,,,,,,,,,0,0,0,1,0,0,0,0,0,37,37,37,,,,,,,,,,,,,,,,,,,,,,,,,,,,,,,,,,,,,,,,,,,,,,,,,,,,,,,,,,,,,,,,,,,,,,,,,,,,,,,1.58,513.5672377001029,None,space,1,0.25668460014276206,515.2525047000963,None,515.2525047000963,None,515.2525047000963,None,,,,,,,,,,,P012,fencog,2,Pre,2021_Oct_07_1055,Go No-Go Task,2021.1.4,119.97427754250072,
,"Rule: When you see a yellow image, do not press 'spacebar'.",Images/Happy/AM03_HO.jpg,Happy,Blue,Images/Blue.jpg,space,ParentConditions/YellowYellowBlue_v2.xlsx,YellowYellowBlue,Conditions/Version_2/YellowFearStop.xlsx,no,PASS,0.8852047943617631,,,,,,,,,0,0,0,1,0,0,0,0,0,38,38,38,,,,,,,,,,,,,,,,,,,,,,,,,,,,,,,,,,,,,,,,,,,,,,,,,,,,,,,,,,,,,,,,,,,,,,,,,,,,,,,1.44,515.6532326999586,None,space,1,0.2915747999213636,517.1936168998946,None,517.1936168998946,None,517.1936168998946,None,,,,,,,,,,,P012,fencog,2,Pre,2021_Oct_07_1055,Go No-Go Task,2021.1.4,119.97427754250072,
,"Rule: When you see a yellow image, do not press 'spacebar'.",Images/Happy/AM05HAS.jpg,Happy,Blue,Images/Blue.jpg,space,ParentConditions/YellowYellowBlue_v2.xlsx,YellowYellowBlue,Conditions/Version_2/YellowFearStop.xlsx,no,PASS,0.25496798119470154,,,,,,,,,0,0,0,1,0,0,0,0,0,39,39,39,,,,,,,,,,,,,,,,,,,,,,,,,,,,,,,,,,,,,,,,,,,,,,,,,,,,,,,,,,,,,,,,,,,,,,,,,,,,,,,1.92,517.5939054999035,None,space,1,0.3314904000144452,519.6178625000175,None,519.6178625000175,None,519.6178625000175,None,,,,,,,,,,,P012,fencog,2,Pre,2021_Oct_07_1055,Go No-Go Task,2021.1.4,119.97427754250072,
,"Rule: When you see a yellow image, do not press 'spacebar'.",Images/Happy/AF02HAS.jpg,Happy,Blue,Images/Blue.jpg,space,ParentConditions/YellowYellowBlue_v2.xlsx,YellowYellowBlue,Conditions/Version_2/YellowFearStop.xlsx,no,PASS,0.4518610007497229,,,,,,,,,0,0,0,1,0,0,0,0,0,40,40,40,,,,,,,,,,,,,,,,,,,,,,,,,,,,,,,,,,,,,,,,,,,,,,,,,,,,,,,,,,,,,,,,,,,,,,,,,,,,,,,1.83,520.0286308999639,None,space,1,0.3266404001042247,521.9589180999901,None,521.9589180999901,None,521.9589180999901,None,,,,,,,,,,,P012,fencog,2,Pre,2021_Oct_07_1055,Go No-Go Task,2021.1.4,119.97427754250072,
,"Rule: When you see a yellow image, do not press 'spacebar'.",Images/Happy/BM08_HO.jpg,Happy,Blue,Images/Blue.jpg,space,ParentConditions/YellowYellowBlue_v2.xlsx,YellowYellowBlue,Conditions/Version_2/YellowFearStop.xlsx,no,PASS,0.6109180265070229,,,,,,,,,0,0,0,1,0,0,0,0,0,41,41,41,,,,,,,,,,,,,,,,,,,,,,,,,,,,,,,,,,,,,,,,,,,,,,,,,,,,,,,,,,,,,,,,,,,,,,,,,,,,,,,1.98,522.3579921999481,None,space,1,0.2756839001085609,524.4414615998976,None,524.4414615998976,None,524.4414615998976,None,,,,,,,,,,,P012,fencog,2,Pre,2021_Oct_07_1055,Go No-Go Task,2021.1.4,119.97427754250072,
,"Rule: When you see a yellow image, do not press 'spacebar'.",Images/Happy/AM22HAS.jpg,Happy,Blue,Images/Blue.jpg,space,ParentConditions/YellowYellowBlue_v2.xlsx,YellowYellowBlue,Conditions/Version_2/YellowFearStop.xlsx,no,PASS,0.358808559720486,,,,,,,,,0,0,0,1,0,0,0,0,0,42,42,42,,,,,,,,,,,,,,,,,,,,,,,,,,,,,,,,,,,,,,,,,,,,,,,,,,,,,,,,,,,,,,,,,,,,,,,,,,,,,,,1.74,524.8407133000437,None,space,1,0.2910340998787433,526.6825333999004,None,526.6825333999004,None,526.6825333999004,None,,,,,,,,,,,P012,fencog,2,Pre,2021_Oct_07_1055,Go No-Go Task,2021.1.4,119.97427754250072,
,"Rule: When you see a yellow image, do not press 'spacebar'.",Images/Happy/AM30HAS.jpg,Happy,Blue,Images/Blue.jpg,space,ParentConditions/YellowYellowBlue_v2.xlsx,YellowYellowBlue,Conditions/Version_2/YellowFearStop.xlsx,no,PASS,0.02897569025915847,,,,,,,,,0,0,0,1,0,0,0,0,0,43,43,43,,,,,,,,,,,,,,,,,,,,,,,,,,,,,,,,,,,,,,,,,,,,,,,,,,,,,,,,,,,,,,,,,,,,,,,,,,,,,,,1.97,527.0883084998932,None,space,1,0.2963978999760002,529.1650704001077,None,529.1650704001077,None,529.1650704001077,None,,,,,,,,,,,P012,fencog,2,Pre,2021_Oct_07_1055,Go No-Go Task,2021.1.4,119.97427754250072,
,"Rule: When you see a yellow image, do not press 'spacebar'.",Images/Fearful/BF09_FC.jpg,Fear,Yellow,Images/Yellow.jpg,None,ParentConditions/YellowYellowBlue_v2.xlsx,YellowYellowBlue,Conditions/Version_2/YellowFearStop.xlsx,yes,PASS,0.33656912313274023,,,,,,,,,0,0,0,1,0,0,0,0,0,44,44,44,,,,,,,,,,,,,,,,,,,,,,,,,,,,,,,,,,,,,,,,,,,,,,,,,,,,,,,,,,,,,,,,,,,,,,,,,,,,,,,1.39,529.5651392000727,None,None,1,,531.0561548001133,None,531.0561548001133,None,531.0561548001133,None,,,,,,,,,,,P012,fencog,2,Pre,2021_Oct_07_1055,Go No-Go Task,2021.1.4,119.97427754250072,
,"Rule: When you see a yellow image, do not press 'spacebar'.",Images/Happy/WM12_HE.jpg,Happy,Blue,Images/Blue.jpg,space,ParentConditions/YellowYellowBlue_v2.xlsx,YellowYellowBlue,Conditions/Version_2/YellowFearStop.xlsx,no,PASS,0.7601850991054155,,,,,,,,,0,0,0,1,0,0,0,0,0,45,45,45,,,,,,,,,,,,,,,,,,,,,,,,,,,,,,,,,,,,,,,,,,,,,,,,,,,,,,,,,,,,,,,,,,,,,,,,,,,,,,,1.67,531.4613713000435,None,space,1,0.24680810002610087,533.2388758000452,None,533.2388758000452,None,533.2388758000452,None,,,,,,,,,,,P012,fencog,2,Pre,2021_Oct_07_1055,Go No-Go Task,2021.1.4,119.97427754250072,
,"Rule: When you see a yellow image, do not press 'spacebar'.",Images/Happy/HF10_HE.jpg,Happy,Blue,Images/Blue.jpg,space,ParentConditions/YellowYellowBlue_v2.xlsx,YellowYellowBlue,Conditions/Version_2/YellowFearStop.xlsx,no,PASS,0.6650727272929988,,,,,,,,,0,0,0,1,0,0,0,0,0,46,46,46,,,,,,,,,,,,,,,,,,,,,,,,,,,,,,,,,,,,,,,,,,,,,,,,,,,,,,,,,,,,,,,,,,,,,,,,,,,,,,,1.36,533.6422832000535,None,space,1,0.26927060005255044,535.0966841999907,None,535.0966841999907,None,535.0966841999907,None,,,,,,,,,,,P012,fencog,2,Pre,2021_Oct_07_1055,Go No-Go Task,2021.1.4,119.97427754250072,
,"Rule: When you see a yellow image, do not press 'spacebar'.",Images/Happy/HM09_HO.jpg,Happy,Blue,Images/Blue.jpg,space,ParentConditions/YellowYellowBlue_v2.xlsx,YellowYellowBlue,Conditions/Version_2/YellowFearStop.xlsx,no,PASS,0.7196619298468737,,,,,,,,,0,0,0,1,0,0,0,0,0,47,47,47,,,,,,,,,,,,,,,,,,,,,,,,,,,,,,,,,,,,,,,,,,,,,,,,,,,,,,,,,,,,,,,,,,,,,,,,,,,,,,,1.9,535.4956930999178,None,space,1,0.2696423998568207,537.4959575000685,None,537.4959575000685,None,537.4959575000685,None,,,,,,,,,,,P012,fencog,2,Pre,2021_Oct_07_1055,Go No-Go Task,2021.1.4,119.97427754250072,
,"Rule: When you see a yellow image, do not press 'spacebar'.",Images/Fearful/AM03_FC.jpg,Fear,Yellow,Images/Yellow.jpg,None,ParentConditions/YellowYellowBlue_v2.xlsx,YellowYellowBlue,Conditions/Version_2/YellowFearStop.xlsx,yes,PASS,0.9021154613913315,,,,,,,,,0,0,0,1,0,0,0,0,0,48,48,48,,,,,,,,,,,,,,,,,,,,,,,,,,,,,,,,,,,,,,,,,,,,,,,,,,,,,,,,,,,,,,,,,,,,,,,,,,,,,,,1.95,537.9010666001122,None,None,1,,539.9536745001096,None,539.9536745001096,None,539.9536745001096,None,,,,,,,,,,,P012,fencog,2,Pre,2021_Oct_07_1055,Go No-Go Task,2021.1.4,119.97427754250072,
,"Rule: When you see a yellow image, do not press 'spacebar'.",Images/Happy/HF04_HE.jpg,Happy,Blue,Images/Blue.jpg,space,ParentConditions/YellowYellowBlue_v2.xlsx,YellowYellowBlue,Conditions/Version_2/YellowFearStop.xlsx,no,PASS,0.6828282636628492,,,,,,,,,0,0,0,1,0,0,0,0,0,49,49,49,,,,,,,,,,,,,,,,,,,,,,,,,,,,,,,,,,,,,,,,,,,,,,,,,,,,,,,,,,,,,,,,,,,,,,,,,,,,,,,1.71,540.3538701999933,None,space,1,0.21929939999245107,542.1696071999613,None,542.1696071999613,None,542.1696071999613,None,,,,,,,,,,,P012,fencog,2,Pre,2021_Oct_07_1055,Go No-Go Task,2021.1.4,119.97427754250072,
,"Rule: When you see a yellow image, do not press 'spacebar'.",Images/Happy/AM17HAS.jpg,Happy,Blue,Images/Blue.jpg,space,ParentConditions/YellowYellowBlue_v2.xlsx,YellowYellowBlue,Conditions/Version_2/YellowFearStop.xlsx,no,PASS,0.7726840133197573,,,,,,,,,0,0,0,1,0,0,0,0,0,50,50,50,,,,,,,,,,,,,,,,,,,,,,,,,,,,,,,,,,,,,,,,,,,,,,,,,,,,,,,,,,,,,,,,,,,,,,,,,,,,,,,1.47,542.5709683999885,None,space,1,0.28513140021823347,544.1440844999161,None,544.1440844999161,None,544.1440844999161,None,,,,,,,,,,,P012,fencog,2,Pre,2021_Oct_07_1055,Go No-Go Task,2021.1.4,119.97427754250072,
,"Rule: When you see a yellow image, do not press 'spacebar'.",Images/Fearful/BM01_FO.jpg,Fear,Yellow,Images/Yellow.jpg,None,ParentConditions/YellowYellowBlue_v2.xlsx,YellowYellowBlue,Conditions/Version_2/YellowFearStop.xlsx,yes,PASS,0.029850228609631824,,,,,,,,,0,0,0,1,0,0,0,0,0,51,51,51,,,,,,,,,,,,,,,,,,,,,,,,,,,,,,,,,,,,,,,,,,,,,,,,,,,,,,,,,,,,,,,,,,,,,,,,,,,,,,,1.21,544.5498210000806,None,None,1,,545.8685848999303,None,545.8685848999303,None,545.8685848999303,None,,,,,,,,,,,P012,fencog,2,Pre,2021_Oct_07_1055,Go No-Go Task,2021.1.4,119.97427754250072,
,"Rule: When you see a yellow image, do not press 'spacebar'.",Images/Happy/HF09_HE.jpg,Happy,Blue,Images/Blue.jpg,space,ParentConditions/YellowYellowBlue_v2.xlsx,YellowYellowBlue,Conditions/Version_2/YellowFearStop.xlsx,no,PASS,0.5416297044271999,,,,,,,,,0,0,0,1,0,0,0,0,0,52,52,52,,,,,,,,,,,,,,,,,,,,,,,,,,,,,,,,,,,,,,,,,,,,,,,,,,,,,,,,,,,,,,,,,,,,,,,,,,,,,,,1.51,546.2675538999029,None,space,1,0.3047269000671804,547.8846237999387,None,547.8846237999387,None,547.8846237999387,None,,,,,,,,,,,P012,fencog,2,Pre,2021_Oct_07_1055,Go No-Go Task,2021.1.4,119.97427754250072,
,"Rule: When you see a yellow image, do not press 'spacebar'.",Images/Happy/WF11_HE.jpg,Happy,Blue,Images/Blue.jpg,space,ParentConditions/YellowYellowBlue_v2.xlsx,YellowYellowBlue,Conditions/Version_2/YellowFearStop.xlsx,no,PASS,0.3923399468002319,,,,,,,,,0,0,0,1,0,0,0,0,0,53,53,53,,,,,,,,,,,,,,,,,,,,,,,,,,,,,,,,,,,,,,,,,,,,,,,,,,,,,,,,,,,,,,,,,,,,,,,,,,,,,,,1.5,548.2908932000864,None,space,1,0.27271639998070896,549.8923738000449,None,549.8923738000449,None,549.8923738000449,None,,,,,,,,,,,P012,fencog,2,Pre,2021_Oct_07_1055,Go No-Go Task,2021.1.4,119.97427754250072,
,"Rule: When you see a yellow image, do not press 'spacebar'.",Images/Fearful/AM04AFS.jpg,Fear,Yellow,Images/Yellow.jpg,None,ParentConditions/YellowYellowBlue_v2.xlsx,YellowYellowBlue,Conditions/Version_2/YellowFearStop.xlsx,yes,PASS,0.7106263735051498,,,,,,,,,0,0,0,1,0,0,0,0,0,54,54,54,,,,,,,,,,,,,,,,,,,,,,,,,,,,,,,,,,,,,,,,,,,,,,,,,,,,,,,,,,,,,,,,,,,,,,,,,,,,,,,1.6,550.292062799912,None,None,1,,552.0002091000788,None,552.0002091000788,None,552.0002091000788,None,,,,,,,,,,,P012,fencog,2,Pre,2021_Oct_07_1055,Go No-Go Task,2021.1.4,119.97427754250072,
,"Rule: When you see a yellow image, do not press 'spacebar'.",Images/Happy/AF19HAS.jpg,Happy,Blue,Images/Blue.jpg,space,ParentConditions/YellowYellowBlue_v2.xlsx,YellowYellowBlue,Conditions/Version_2/YellowFearStop.xlsx,no,PASS,0.3419128984214137,,,,,,,,,0,0,0,1,0,0,0,0,0,55,55,55,,,,,,,,,,,,,,,,,,,,,,,,,,,,,,,,,,,,,,,,,,,,,,,,,,,,,,,,,,,,,,,,,,,,,,,,,,,,,,,1.8,552.4002865001094,None,space,1,0.30552089982666075,554.3076563000213,None,554.3076563000213,None,554.3076563000213,None,,,,,,,,,,,P012,fencog,2,Pre,2021_Oct_07_1055,Go No-Go Task,2021.1.4,119.97427754250072,
,"Rule: When you see a yellow image, do not press 'spacebar'.",Images/Happy/HM06_HO.jpg,Happy,Blue,Images/Blue.jpg,space,ParentConditions/YellowYellowBlue_v2.xlsx,YellowYellowBlue,Conditions/Version_2/YellowFearStop.xlsx,no,PASS,0.8215154078276994,,,,,,,,,0,0,0,1,0,0,0,0,0,56,56,56,,,,,,,,,,,,,,,,,,,,,,,,,,,,,,,,,,,,,,,,,,,,,,,,,,,,,,,,,,,,,,,,,,,,,,,,,,,,,,,1.35,554.708766900003,None,space,1,0.2957882001064718,556.1654163999483,None,556.1654163999483,None,556.1654163999483,None,,,,,,,,,,,P012,fencog,2,Pre,2021_Oct_07_1055,Go No-Go Task,2021.1.4,119.97427754250072,
,"Rule: When you see a yellow image, do not press 'spacebar'.",Images/Happy/HF05_HO.jpg,Happy,Blue,Images/Blue.jpg,space,ParentConditions/YellowYellowBlue_v2.xlsx,YellowYellowBlue,Conditions/Version_2/YellowFearStop.xlsx,no,PASS,0.4418945189155604,,,,,,,,,0,0,0,1,0,0,0,0,0,57,57,57,,,,,,,,,,,,,,,,,,,,,,,,,,,,,,,,,,,,,,,,,,,,,,,,,,,,,,,,,,,,,,,,,,,,,,,,,,,,,,,1.32,556.5652054001112,None,space,1,0.28753419988788664,557.9899339000694,None,557.9899339000694,None,557.9899339000694,None,,,,,,,,,,,P012,fencog,2,Pre,2021_Oct_07_1055,Go No-Go Task,2021.1.4,119.97427754250072,
,"Rule: When you see a yellow image, do not press 'spacebar'.",Images/Fearful/AF01_FO.jpg,Fear,Yellow,Images/Yellow.jpg,None,ParentConditions/YellowYellowBlue_v2.xlsx,YellowYellowBlue,Conditions/Version_2/YellowFearStop.xlsx,yes,PASS,0.9630260753042453,,,,,,,,,0,0,0,1,0,0,0,0,0,58,58,58,,,,,,,,,,,,,,,,,,,,,,,,,,,,,,,,,,,,,,,,,,,,,,,,,,,,,,,,,,,,,,,,,,,,,,,,,,,,,,,1.49,558.3950318000279,None,None,1,,559.9894061000086,None,559.9894061000086,None,559.9894061000086,None,,,,,,,,,,,P012,fencog,2,Pre,2021_Oct_07_1055,Go No-Go Task,2021.1.4,119.97427754250072,
,"Rule: When you see a yellow image, do not press 'spacebar'.",Images/Happy/AF21HAS.jpg,Happy,Blue,Images/Blue.jpg,space,ParentConditions/YellowYellowBlue_v2.xlsx,YellowYellowBlue,Conditions/Version_2/YellowFearStop.xlsx,no,PASS,0.5410977161582079,,,,,,,,,0,0,0,1,0,0,0,0,0,59,59,59,,,,,,,,,,,,,,,,,,,,,,,,,,,,,,,,,,,,,,,,,,,,,,,,,,,,,,,,,,,,,,,,,,,,,,,,,,,,,,,1.45,560.3928644000553,None,space,1,0.29811149998568,561.9471219000407,None,561.9471219000407,None,561.9471219000407,None,,,,,,,,,,,P012,fencog,2,Pre,2021_Oct_07_1055,Go No-Go Task,2021.1.4,119.97427754250072,
,"Rule: When you see a yellow image, do not press 'spacebar'.",Images/Happy/AM06_HC.jpg,Happy,Blue,Images/Blue.jpg,space,ParentConditions/YellowYellowBlue_v2.xlsx,YellowYellowBlue,Conditions/Version_2/YellowFearStop.xlsx,no,PASS,0.8195458073624309,,,,,,,,,0,0,0,1,0,0,0,0,0,60,60,60,,,,,,,,,,,,,,,,,,,,,,,,,,,,,,,,,,,,,,,,,,,,,,,,,,,,,,,,,,,,,,,,,,,,,,,,,,,,,,,1.73,562.3464236001018,None,space,1,0.28971930011175573,564.1798719998915,None,564.1798719998915,None,564.1798719998915,None,,,,,,,,,,,P012,fencog,2,Pre,2021_Oct_07_1055,Go No-Go Task,2021.1.4,119.97427754250072,
,"Rule: When you see a yellow image, do not press 'spacebar'.",Images/Fearful/AF02AFS.jpg,Fear,Yellow,Images/Yellow.jpg,None,ParentConditions/YellowYellowBlue_v2.xlsx,YellowYellowBlue,Conditions/Version_2/YellowFearStop.xlsx,yes,PASS,0.43475605439224807,,,,,,,,,0,0,0,1,0,0,0,0,0,61,61,61,,,,,,,,,,,,,,,,,,,,,,,,,,,,,,,,,,,,,,,,,,,,,,,,,,,,,,,,,,,,,,,,,,,,,,,,,,,,,,,1.38,564.5788789999206,None,None,1,,566.0625559999608,None,566.0625559999608,None,566.0625559999608,None,,,,,,,,,,,P012,fencog,2,Pre,2021_Oct_07_1055,Go No-Go Task,2021.1.4,119.97427754250072,
,"Rule: When you see a yellow image, do not press 'spacebar'.",Images/Happy/AF25HAS.jpg,Happy,Blue,Images/Blue.jpg,space,ParentConditions/YellowYellowBlue_v2.xlsx,YellowYellowBlue,Conditions/Version_2/YellowFearStop.xlsx,no,PASS,0.35344562160834636,,,,,,,,,0,0,0,1,0,0,0,0,0,62,62,62,,,,,,,,,,,,,,,,,,,,,,,,,,,,,,,,,,,,,,,,,,,,,,,,,,,,,,,,,,,,,,,,,,,,,,,,,,,,,,,1.79,566.4636005000211,None,space,1,0.2433941001072526,568.3534880999941,None,568.3534880999941,None,568.3534880999941,None,,,,,,,,,,,P012,fencog,2,Pre,2021_Oct_07_1055,Go No-Go Task,2021.1.4,119.97427754250072,
,"Rule: When you see a yellow image, do not press 'spacebar'.",Images/Happy/AM32HAS.jpg,Happy,Blue,Images/Blue.jpg,space,ParentConditions/YellowYellowBlue_v2.xlsx,YellowYellowBlue,Conditions/Version_2/YellowFearStop.xlsx,no,PASS,0.10846156836896592,,,,,,,,,0,0,0,1,0,0,0,0,0,63,63,63,,,,,,,,,,,,,,,,,,,,,,,,,,,,,,,,,,,,,,,,,,,,,,,,,,,,,,,,,,,,,,,,,,,,,,,,,,,,,,,1.77,568.7625214001164,None,space,1,0.36890500015579164,570.6362880000379,None,570.6362880000379,None,570.6362880000379,None,,,,,,,,,,,P012,fencog,2,Pre,2021_Oct_07_1055,Go No-Go Task,2021.1.4,119.97427754250072,
,"Rule: When you see a yellow image, do not press 'spacebar'.",Images/Fearful/AM02_FO.jpg,Fear,Yellow,Images/Yellow.jpg,None,ParentConditions/YellowYellowBlue_v2.xlsx,YellowYellowBlue,Conditions/Version_2/YellowFearStop.xlsx,yes,PASS,0.093492050295921,,,,,,,,,0,0,0,1,0,0,0,0,0,64,64,64,,,,,,,,,,,,,,,,,,,,,,,,,,,,,,,,,,,,,,,,,,,,,,,,,,,,,,,,,,,,,,,,,,,,,,,,,,,,,,,1.7,571.0422767999116,None,None,1,,572.8439416999463,None,572.8439416999463,None,572.8439416999463,None,,,,,,,,,,,P012,fencog,2,Pre,2021_Oct_07_1055,Go No-Go Task,2021.1.4,119.97427754250072,
,"Rule: When you see a yellow image, do not press 'spacebar'.",Images/Fearful/BM02_FC.jpg,Fear,Yellow,Images/Yellow.jpg,None,ParentConditions/YellowYellowBlue_v2.xlsx,YellowYellowBlue,Conditions/Version_2/YellowFearStop.xlsx,yes,PASS,0.8390777988560751,,,,,,,,,0,0,0,1,0,0,0,0,0,65,65,65,,,,,,,,,,,,,,,,,,,,,,,,,,,,,,,,,,,,,,,,,,,,,,,,,,,,,,,,,,,,,,,,,,,,,,,,,,,,,,,1.29,573.2455241999123,None,None,1,,574.6517576000188,None,574.6517576000188,None,574.6517576000188,None,,,,,,,,,,,P012,fencog,2,Pre,2021_Oct_07_1055,Go No-Go Task,2021.1.4,119.97427754250072,
,"Rule: When you see a yellow image, do not press 'spacebar'.",Images/Happy/AM04_HE.jpg,Happy,Blue,Images/Blue.jpg,space,ParentConditions/YellowYellowBlue_v2.xlsx,YellowYellowBlue,Conditions/Version_2/YellowFearStop.xlsx,no,PASS,0.268677407796428,,,,,,,,,0,0,0,1,0,0,0,0,0,66,66,66,,,,,,,,,,,,,,,,,,,,,,,,,,,,,,,,,,,,,,,,,,,,,,,,,,,,,,,,,,,,,,,,,,,,,,,,,,,,,,,1.85,575.0466972999275,None,space,1,0.3641399999614805,577.0010106000118,None,577.0010106000118,None,577.0010106000118,None,,,,,,,,,,,P012,fencog,2,Pre,2021_Oct_07_1055,Go No-Go Task,2021.1.4,119.97427754250072,
,"Rule: When you see a yellow image, do not press 'spacebar'.",Images/Fearful/AM05AFS.jpg,Fear,Yellow,Images/Yellow.jpg,None,ParentConditions/YellowYellowBlue_v2.xlsx,YellowYellowBlue,Conditions/Version_2/YellowFearStop.xlsx,yes,PASS,0.6951263252071049,,,,,,,,,0,0,0,1,0,0,0,0,0,67,67,67,,,,,,,,,,,,,,,,,,,,,,,,,,,,,,,,,,,,,,,,,,,,,,,,,,,,,,,,,,,,,,,,,,,,,,,,,,,,,,,1.81,577.4038406999316,None,None,1,,579.3169110999443,None,579.3169110999443,None,579.3169110999443,None,,,,,,,,,,,P012,fencog,2,Pre,2021_Oct_07_1055,Go No-Go Task,2021.1.4,119.97427754250072,
,"Rule: When you see a yellow image, do not press 'spacebar'.",Images/Happy/AF28HAS.jpg,Happy,Blue,Images/Blue.jpg,space,ParentConditions/YellowYellowBlue_v2.xlsx,YellowYellowBlue,Conditions/Version_2/YellowFearStop.xlsx,no,PASS,0.25032705960911217,,,,,,,,,0,0,0,1,0,0,0,0,0,68,68,68,,,,,,,,,,,,,,,,,,,,,,,,,,,,,,,,,,,,,,,,,,,,,,,,,,,,,,,,,,,,,,,,,,,,,,,,,,,,,,,1.86,579.7174873000477,None,space,1,0.28275069990195334,581.6830249000341,None,581.6830249000341,None,581.6830249000341,None,,,,,,,,,,,P012,fencog,2,Pre,2021_Oct_07_1055,Go No-Go Task,2021.1.4,119.97427754250072,
,"Rule: When you see a yellow image, do not press 'spacebar'.",Images/Happy/AF07_HO.jpg,Happy,Blue,Images/Blue.jpg,space,ParentConditions/YellowYellowBlue_v2.xlsx,YellowYellowBlue,Conditions/Version_2/YellowFearStop.xlsx,no,PASS,0.293841477080362,,,,,,,,,0,0,0,1,0,0,0,0,0,69,69,69,,,,,,,,,,,,,,,,,,,,,,,,,,,,,,,,,,,,,,,,,,,,,,,,,,,,,,,,,,,,,,,,,,,,,,,,,,,,,,,1.75,582.0849774999078,None,space,1,0.2803950000088662,583.9406115000602,None,583.9406115000602,None,583.9406115000602,None,,,,,,,,,,,P012,fencog,2,Pre,2021_Oct_07_1055,Go No-Go Task,2021.1.4,119.97427754250072,
,"Rule: When you see a yellow image, do not press 'spacebar'.",Images/Happy/BF14_HO.jpg,Happy,Blue,Images/Blue.jpg,space,ParentConditions/YellowYellowBlue_v2.xlsx,YellowYellowBlue,Conditions/Version_2/YellowFearStop.xlsx,no,PASS,0.40422519447396765,,,,,,,,,0,0,0,1,0,0,0,0,0,70,70,70,,,,,,,,,,,,,,,,,,,,,,,,,,,,,,,,,,,,,,,,,,,,,,,,,,,,,,,,,,,,,,,,,,,,,,,,,,,,,,,1.33,584.3403708999977,None,space,1,0.3599478001706302,585.7734888999257,None,585.7734888999257,None,585.7734888999257,None,,,,,,,,,,,P012,fencog,2,Pre,2021_Oct_07_1055,Go No-Go Task,2021.1.4,119.97427754250072,
,"Rule: When you see a yellow image, do not press 'spacebar'.",Images/Fearful/AF07FS.jpg,Fear,Yellow,Images/Yellow.jpg,None,ParentConditions/YellowYellowBlue_v2.xlsx,YellowYellowBlue,Conditions/Version_2/YellowFearStop.xlsx,yes,PASS,0.7059954464635801,,,,,,,,,0,0,0,1,0,0,0,0,0,71,71,71,,,,,,,,,,,,,,,,,,,,,,,,,,,,,,,,,,,,,,,,,,,,,,,,,,,,,,,,,,,,,,,,,,,,,,,,,,,,,,,1.61,586.1725284000859,None,None,1,,587.8895453000441,None,587.8895453000441,None,587.8895453000441,None,,,,,,,,,,,P012,fencog,2,Pre,2021_Oct_07_1055,Go No-Go Task,2021.1.4,119.97427754250072,
,"Rule: When you see a yellow image, do not press 'spacebar'.",Images/Happy/AF32HAS.jpg,Happy,Blue,Images/Blue.jpg,space,ParentConditions/YellowYellowBlue_v2.xlsx,YellowYellowBlue,Conditions/Version_2/YellowFearStop.xlsx,no,PASS,0.6505932127186488,,,,,,,,,0,0,0,1,0,0,0,0,0,72,72,72,,,,,,,,,,,,,,,,,,,,,,,,,,,,,,,,,,,,,,,,,,,,,,,,,,,,,,,,,,,,,,,,,,,,,,,,,,,,,,,1.89,588.2938327000011,None,space,1,0.2843688998837024,590.2887764000334,None,590.2887764000334,None,590.2887764000334,None,,,,,,,,,,,P012,fencog,2,Pre,2021_Oct_07_1055,Go No-Go Task,2021.1.4,119.97427754250072,
,"Rule: When you see a yellow image, do not press 'spacebar'.",Images/Happy/AF11HAS.jpg,Happy,Blue,Images/Blue.jpg,space,ParentConditions/YellowYellowBlue_v2.xlsx,YellowYellowBlue,Conditions/Version_2/YellowFearStop.xlsx,no,PASS,0.22413936824153813,,,,,,,,,0,0,0,1,0,0,0,0,0,73,73,73,,,,,,,,,,,,,,,,,,,,,,,,,,,,,,,,,,,,,,,,,,,,,,,,,,,,,,,,,,,,,,,,,,,,,,,,,,,,,,,1.99,590.6938682000618,None,space,1,0.28978889994323254,592.7797844999004,None,592.7797844999004,None,592.7797844999004,None,,,,,,,,,,,P012,fencog,2,Pre,2021_Oct_07_1055,Go No-Go Task,2021.1.4,119.97427754250072,
,"Rule: When you see a yellow image, do not press 'spacebar'.",Images/Happy/AM19HAS.jpg,Happy,Blue,Images/Blue.jpg,space,ParentConditions/YellowYellowBlue_v2.xlsx,YellowYellowBlue,Conditions/Version_2/YellowFearStop.xlsx,no,PASS,0.5367328627339492,,,,,,,,,0,0,0,1,0,0,0,0,0,74,74,74,,,,,,,,,,,,,,,,,,,,,,,,,,,,,,,,,,,,,,,,,,,,,,,,,,,,,,,,,,,,,,,,,,,,,,,,,,,,,,,1.63,593.1809042999521,None,space,1,0.2774093998596072,594.9124342000578,None,594.9124342000578,None,594.9124342000578,None,,,,,,,,,,,P012,fencog,2,Pre,2021_Oct_07_1055,Go No-Go Task,2021.1.4,119.97427754250072,
,"Rule: When you see a yellow image, do not press 'spacebar'.",Images/Happy/AM01HAS.jpg,Happy,Blue,Images/Blue.jpg,space,ParentConditions/YellowYellowBlue_v2.xlsx,YellowYellowBlue,Conditions/Version_2/YellowFearStop.xlsx,no,PASS,0.4512238869721793,,,,,,,,,0,0,0,1,0,0,0,0,0,75,75,75,,,,,,,,,,,,,,,,,,,,,,,,,,,,,,,,,,,,,,,,,,,,,,,,,,,,,,,,,,,,,,,,,,,,,,,,,,,,,,,1.96,595.3139965001028,None,space,1,0.2590943998657167,597.3783491998911,None,597.3783491998911,None,597.3783491998911,None,,,,,,,,,,,P012,fencog,2,Pre,2021_Oct_07_1055,Go No-Go Task,2021.1.4,119.97427754250072,
,"Rule: When you see a yellow image, do not press 'spacebar'.",Images/Happy/WF05_HC.jpg,Happy,Blue,Images/Blue.jpg,space,ParentConditions/YellowYellowBlue_v2.xlsx,YellowYellowBlue,Conditions/Version_2/YellowFearStop.xlsx,no,PASS,0.7681499259335962,,,,,,,,,0,0,0,1,0,0,0,0,0,76,76,76,,,,,,,,,,,,,,,,,,,,,,,,,,,,,,,,,,,,,,,,,,,,,,,,,,,,,,,,,,,,,,,,,,,,,,,,,,,,,,,1.2,597.7774126001168,None,space,1,0.2876003000419587,599.0861649999861,None,599.0861649999861,None,599.0861649999861,None,,,,,,,,,,,P012,fencog,2,Pre,2021_Oct_07_1055,Go No-Go Task,2021.1.4,119.97427754250072,
,"Rule: When you see a yellow image, do not press 'spacebar'.",Images/Happy/BM03_HO.jpg,Happy,Blue,Images/Blue.jpg,space,ParentConditions/YellowYellowBlue_v2.xlsx,YellowYellowBlue,Conditions/Version_2/YellowFearStop.xlsx,no,PASS,0.5824047138137685,,,,,,,,,0,0,0,1,0,0,0,0,0,77,77,77,,,,,,,,,,,,,,,,,,,,,,,,,,,,,,,,,,,,,,,,,,,,,,,,,,,,,,,,,,,,,,,,,,,,,,,,,,,,,,,1.3,599.4853125000373,None,space,1,0.3038347000256181,600.8857166001108,None,600.8857166001108,None,600.8857166001108,None,,,,,,,,,,,P012,fencog,2,Pre,2021_Oct_07_1055,Go No-Go Task,2021.1.4,119.97427754250072,
,"Rule: When you see a yellow image, do not press 'spacebar'.",Images/Happy/AM02_HE.jpg,Happy,Blue,Images/Blue.jpg,space,ParentConditions/YellowYellowBlue_v2.xlsx,YellowYellowBlue,Conditions/Version_2/YellowFearStop.xlsx,no,PASS,0.8791068347561973,,,,,,,,,0,0,0,1,0,0,0,0,0,78,78,78,,,,,,,,,,,,,,,,,,,,,,,,,,,,,,,,,,,,,,,,,,,,,,,,,,,,,,,,,,,,,,,,,,,,,,,,,,,,,,,1.69,601.286739199888,None,space,1,0.28086529998108745,603.0766803000588,None,603.0766803000588,None,603.0766803000588,None,,,,,,,,,,,P012,fencog,2,Pre,2021_Oct_07_1055,Go No-Go Task,2021.1.4,119.97427754250072,
,"Rule: When you see a yellow image, do not press 'spacebar'.",Images/Fearful/AM06_FO.jpg,Fear,Yellow,Images/Yellow.jpg,None,ParentConditions/YellowYellowBlue_v2.xlsx,YellowYellowBlue,Conditions/Version_2/YellowFearStop.xlsx,yes,PASS,0.40627235988994603,,,,,,,,,0,0,0,1,0,0,0,0,0,79,79,79,,,,,,,,,,,,,,,,,,,,,,,,,,,,,,,,,,,,,,,,,,,,,,,,,,,,,,,,,,,,,,,,,,,,,,,,,,,,,,,1.88,603.4819644999225,None,None,1,,605.4676644001156,None,605.4676644001156,None,605.4676644001156,None,,,,,,,,,,,P012,fencog,2,Pre,2021_Oct_07_1055,Go No-Go Task,2021.1.4,119.97427754250072,
,"Rule: When you see a yellow image, do not press 'spacebar'.",Images/Scram2/HM09_NC.jpg,Scramble,Blue,Images/Blue.jpg,space,ParentConditions/YellowYellowBlue_v2.xlsx,YellowYellowBlue,Conditions/Version_2/YellowScramStop.xlsx,no,PASS,0.46719820189093064,,,,,,,,,0,0,0,1,0,1,1,1,0,0,0,0,,,,,,,,,,,,,,,,,,,,,,,,,,,,,,,,,,,,,,,,,,,,,,,,,,,,,,,,,,,,,,,,,609.9411696000025,None,612.9315448000561,None,space,6.83322130003944,612.9315448000561,None,609.9411696000025,None,609.9411696000025,None,609.9411696000025,None,1.21,619.8138095000759,None,None,0,,621.138140300056,None,621.138140300056,None,621.138140300056,None,605.8859284000937,None,space,3.550251199863851,606.3751030999701,None,605.8859284000937,None,605.8859284000937,None,P012,fencog,2,Pre,2021_Oct_07_1055,Go No-Go Task,2021.1.4,119.97427754250072,
,"Rule: When you see a yellow image, do not press 'spacebar'.",Images/Scram2/HM06_NC.jpg,Scramble,Blue,Images/Blue.jpg,space,ParentConditions/YellowYellowBlue_v2.xlsx,YellowYellowBlue,Conditions/Version_2/YellowScramStop.xlsx,no,PASS,0.564231421897386,,,,,,,,,0,0,0,1,0,1,1,1,0,1,1,1,,,,,,,,,,,,,,,,,,,,,,,,,,,,,,,,,,,,,,,,,,,,,,,,,,,,,,,,,,,,,,,,,,,,,,,,,,,,,,,1.81,621.5364852000494,None,space,1,0.2718304998707026,623.454074600013,None,623.454074600013,None,623.454074600013,None,,,,,,,,,,,P012,fencog,2,Pre,2021_Oct_07_1055,Go No-Go Task,2021.1.4,119.97427754250072,
,"Rule: When you see a yellow image, do not press 'spacebar'.",Images/Scram1/AM31NES.jpg,Scramble,Blue,Images/Blue.jpg,space,ParentConditions/YellowYellowBlue_v2.xlsx,YellowYellowBlue,Conditions/Version_2/YellowScramStop.xlsx,no,PASS,0.846238330522312,,,,,,,,,0,0,0,1,0,1,1,1,0,2,2,2,,,,,,,,,,,,,,,,,,,,,,,,,,,,,,,,,,,,,,,,,,,,,,,,,,,,,,,,,,,,,,,,,,,,,,,,,,,,,,,1.29,623.8544189000968,None,space,1,0.2884780000895262,625.245316500077,None,625.245316500077,None,625.245316500077,None,,,,,,,,,,,P012,fencog,2,Pre,2021_Oct_07_1055,Go No-Go Task,2021.1.4,119.97427754250072,
,"Rule: When you see a yellow image, do not press 'spacebar'.",Images/Scram2/AM03NES.jpg,Scramble,Yellow,Images/Yellow.jpg,None,ParentConditions/YellowYellowBlue_v2.xlsx,YellowYellowBlue,Conditions/Version_2/YellowScramStop.xlsx,yes,PASS,0.3566483684653988,,,,,,,,,0,0,0,1,0,1,1,1,0,3,3,3,,,,,,,,,,,,,,,,,,,,,,,,,,,,,,,,,,,,,,,,,,,,,,,,,,,,,,,,,,,,,,,,,,,,,,,,,,,,,,,1.9,625.6473924999591,None,None,1,,627.6528193999548,None,627.6528193999548,None,627.6528193999548,None,,,,,,,,,,,P012,fencog,2,Pre,2021_Oct_07_1055,Go No-Go Task,2021.1.4,119.97427754250072,
,"Rule: When you see a yellow image, do not press 'spacebar'.",Images/Scram2/BM01_NC.jpg,Scramble,Blue,Images/Blue.jpg,space,ParentConditions/YellowYellowBlue_v2.xlsx,YellowYellowBlue,Conditions/Version_2/YellowScramStop.xlsx,no,PASS,0.6300515820310504,,,,,,,,,0,0,0,1,0,1,1,1,0,4,4,4,,,,,,,,,,,,,,,,,,,,,,,,,,,,,,,,,,,,,,,,,,,,,,,,,,,,,,,,,,,,,,,,,,,,,,,,,,,,,,,1.51,628.0534365000203,None,space,1,0.2964310001116246,629.6688715000637,None,629.6688715000637,None,629.6688715000637,None,,,,,,,,,,,P012,fencog,2,Pre,2021_Oct_07_1055,Go No-Go Task,2021.1.4,119.97427754250072,
,"Rule: When you see a yellow image, do not press 'spacebar'.",Images/Scram1/HM09_NC.jpg,Scramble,Blue,Images/Blue.jpg,space,ParentConditions/YellowYellowBlue_v2.xlsx,YellowYellowBlue,Conditions/Version_2/YellowScramStop.xlsx,no,PASS,0.9681952009545239,,,,,,,,,0,0,0,1,0,1,1,1,0,5,5,5,,,,,,,,,,,,,,,,,,,,,,,,,,,,,,,,,,,,,,,,,,,,,,,,,,,,,,,,,,,,,,,,,,,,,,,,,,,,,,,1.74,630.0733199999668,None,space,1,0.2869907000567764,631.9182184999809,None,631.9182184999809,None,631.9182184999809,None,,,,,,,,,,,P012,fencog,2,Pre,2021_Oct_07_1055,Go No-Go Task,2021.1.4,119.97427754250072,
,"Rule: When you see a yellow image, do not press 'spacebar'.",Images/Scram2/BF07_NC.jpg,Scramble,Blue,Images/Blue.jpg,space,ParentConditions/YellowYellowBlue_v2.xlsx,YellowYellowBlue,Conditions/Version_2/YellowScramStop.xlsx,no,PASS,0.21646267744166114,,,,,,,,,0,0,0,1,0,1,1,1,0,6,6,6,,,,,,,,,,,,,,,,,,,,,,,,,,,,,,,,,,,,,,,,,,,,,,,,,,,,,,,,,,,,,,,,,,,,,,,,,,,,,,,1.97,632.3212125999853,None,space,1,0.28517419984564185,634.3841480999254,None,634.3841480999254,None,634.3841480999254,None,,,,,,,,,,,P012,fencog,2,Pre,2021_Oct_07_1055,Go No-Go Task,2021.1.4,119.97427754250072,
,"Rule: When you see a yellow image, do not press 'spacebar'.",Images/Scram1/BF14_NC.jpg,Scramble,Blue,Images/Blue.jpg,space,ParentConditions/YellowYellowBlue_v2.xlsx,YellowYellowBlue,Conditions/Version_2/YellowScramStop.xlsx,no,PASS,0.9846643703258401,,,,,,,,,0,0,0,1,0,1,1,1,0,7,7,7,,,,,,,,,,,,,,,,,,,,,,,,,,,,,,,,,,,,,,,,,,,,,,,,,,,,,,,,,,,,,,,,,,,,,,,,,,,,,,,1.66,634.7869537000079,None,space,1,0.2229271000251174,636.5585864000022,None,636.5585864000022,None,636.5585864000022,None,,,,,,,,,,,P012,fencog,2,Pre,2021_Oct_07_1055,Go No-Go Task,2021.1.4,119.97427754250072,
,"Rule: When you see a yellow image, do not press 'spacebar'.",Images/Scram2/AF10_NC.jpg,Scramble,Blue,Images/Blue.jpg,space,ParentConditions/YellowYellowBlue_v2.xlsx,YellowYellowBlue,Conditions/Version_2/YellowScramStop.xlsx,no,PASS,0.2443614348279377,,,,,,,,,0,0,0,1,0,1,1,1,0,8,8,8,,,,,,,,,,,,,,,,,,,,,,,,,,,,,,,,,,,,,,,,,,,,,,,,,,,,,,,,,,,,,,,,,,,,,,,,,,,,,,,1.89,636.9585498000961,None,space,1,0.3520758000668138,638.949438800104,None,638.949438800104,None,638.949438800104,None,,,,,,,,,,,P012,fencog,2,Pre,2021_Oct_07_1055,Go No-Go Task,2021.1.4,119.97427754250072,
,"Rule: When you see a yellow image, do not press 'spacebar'.",Images/Scram2/AF01_NC.jpg,Scramble,Blue,Images/Blue.jpg,space,ParentConditions/YellowYellowBlue_v2.xlsx,YellowYellowBlue,Conditions/Version_2/YellowScramStop.xlsx,no,PASS,0.5418077894665677,,,,,,,,,0,0,0,1,0,1,1,1,0,9,9,9,,,,,,,,,,,,,,,,,,,,,,,,,,,,,,,,,,,,,,,,,,,,,,,,,,,,,,,,,,,,,,,,,,,,,,,,,,,,,,,1.35,639.3490039999597,None,space,1,0.23824310000054538,640.7989242998883,None,640.7989242998883,None,640.7989242998883,None,,,,,,,,,,,P012,fencog,2,Pre,2021_Oct_07_1055,Go No-Go Task,2021.1.4,119.97427754250072,
,"Rule: When you see a yellow image, do not press 'spacebar'.",Images/Scram2/AF24NES.jpg,Scramble,Blue,Images/Blue.jpg,space,ParentConditions/YellowYellowBlue_v2.xlsx,YellowYellowBlue,Conditions/Version_2/YellowScramStop.xlsx,no,PASS,0.5679342954932528,,,,,,,,,0,0,0,1,0,1,1,1,0,10,10,10,,,,,,,,,,,,,,,,,,,,,,,,,,,,,,,,,,,,,,,,,,,,,,,,,,,,,,,,,,,,,,,,,,,,,,,,,,,,,,,1.34,641.1980292000808,None,space,1,0.25269510014913976,642.6401817998849,None,642.6401817998849,None,642.6401817998849,None,,,,,,,,,,,P012,fencog,2,Pre,2021_Oct_07_1055,Go No-Go Task,2021.1.4,119.97427754250072,
,"Rule: When you see a yellow image, do not press 'spacebar'.",Images/Scram2/BF14_NC.jpg,Scramble,Blue,Images/Blue.jpg,space,ParentConditions/YellowYellowBlue_v2.xlsx,YellowYellowBlue,Conditions/Version_2/YellowScramStop.xlsx,no,PASS,0.8825179199303765,,,,,,,,,0,0,0,1,0,1,1,1,0,11,11,11,,,,,,,,,,,,,,,,,,,,,,,,,,,,,,,,,,,,,,,,,,,,,,,,,,,,,,,,,,,,,,,,,,,,,,,,,,,,,,,1.32,643.0405369999353,None,space,1,0.3650948000140488,644.4645922000054,None,644.4645922000054,None,644.4645922000054,None,,,,,,,,,,,P012,fencog,2,Pre,2021_Oct_07_1055,Go No-Go Task,2021.1.4,119.97427754250072,
,"Rule: When you see a yellow image, do not press 'spacebar'.",Images/Scram1/AM13NES.jpg,Scramble,Blue,Images/Blue.jpg,space,ParentConditions/YellowYellowBlue_v2.xlsx,YellowYellowBlue,Conditions/Version_2/YellowScramStop.xlsx,no,PASS,0.21043647733489834,,,,,,,,,0,0,0,1,0,1,1,1,0,12,12,12,,,,,,,,,,,,,,,,,,,,,,,,,,,,,,,,,,,,,,,,,,,,,,,,,,,,,,,,,,,,,,,,,,,,,,,,,,,,,,,1.72,644.8720352998935,None,space,1,0.3641476999036968,646.6973133001011,None,646.6973133001011,None,646.6973133001011,None,,,,,,,,,,,P012,fencog,2,Pre,2021_Oct_07_1055,Go No-Go Task,2021.1.4,119.97427754250072,
,"Rule: When you see a yellow image, do not press 'spacebar'.",Images/Scram1/HM04_NC.jpg,Scramble,Blue,Images/Blue.jpg,space,ParentConditions/YellowYellowBlue_v2.xlsx,YellowYellowBlue,Conditions/Version_2/YellowScramStop.xlsx,no,PASS,0.048118244636673246,,,,,,,,,0,0,0,1,0,1,1,1,0,13,13,13,,,,,,,,,,,,,,,,,,,,,,,,,,,,,,,,,,,,,,,,,,,,,,,,,,,,,,,,,,,,,,,,,,,,,,,,,,,,,,,1.27,647.0970226000063,None,space,1,0.28444559988565743,648.4806832999457,None,648.4806832999457,None,648.4806832999457,None,,,,,,,,,,,P012,fencog,2,Pre,2021_Oct_07_1055,Go No-Go Task,2021.1.4,119.97427754250072,
,"Rule: When you see a yellow image, do not press 'spacebar'.",Images/Scram1/AM03NES.jpg,Scramble,Blue,Images/Blue.jpg,space,ParentConditions/YellowYellowBlue_v2.xlsx,YellowYellowBlue,Conditions/Version_2/YellowScramStop.xlsx,no,PASS,0.5072407620323995,,,,,,,,,0,0,0,1,0,1,1,1,0,14,14,14,,,,,,,,,,,,,,,,,,,,,,,,,,,,,,,,,,,,,,,,,,,,,,,,,,,,,,,,,,,,,,,,,,,,,,,,,,,,,,,1.64,648.8846287999768,None,None,0,,650.6294523000252,None,650.6294523000252,None,650.6294523000252,None,,,,,,,,,,,P012,fencog,2,Pre,2021_Oct_07_1055,Go No-Go Task,2021.1.4,119.97427754250072,
,"Rule: When you see a yellow image, do not press 'spacebar'.",Images/Scram1/AM22NES.jpg,Scramble,Blue,Images/Blue.jpg,space,ParentConditions/YellowYellowBlue_v2.xlsx,YellowYellowBlue,Conditions/Version_2/YellowScramStop.xlsx,no,PASS,0.8332736468200919,,,,,,,,,0,0,0,1,0,1,1,1,0,15,15,15,,,,,,,,,,,,,,,,,,,,,,,,,,,,,,,,,,,,,,,,,,,,,,,,,,,,,,,,,,,,,,,,,,,,,,,,,,,,,,,1.46,651.0288285999559,None,space,1,0.29826229996979237,652.5955449000467,None,652.5955449000467,None,652.5955449000467,None,,,,,,,,,,,P012,fencog,2,Pre,2021_Oct_07_1055,Go No-Go Task,2021.1.4,119.97427754250072,
,"Rule: When you see a yellow image, do not press 'spacebar'.",Images/Scram2/AM17NES.jpg,Scramble,Yellow,Images/Yellow.jpg,None,ParentConditions/YellowYellowBlue_v2.xlsx,YellowYellowBlue,Conditions/Version_2/YellowScramStop.xlsx,yes,PASS,0.5524440306249002,,,,,,,,,0,0,0,1,0,1,1,1,0,16,16,16,,,,,,,,,,,,,,,,,,,,,,,,,,,,,,,,,,,,,,,,,,,,,,,,,,,,,,,,,,,,,,,,,,,,,,,,,,,,,,,1.85,652.9961771999951,None,None,1,,654.9530752000865,None,654.9530752000865,None,654.9530752000865,None,,,,,,,,,,,P012,fencog,2,Pre,2021_Oct_07_1055,Go No-Go Task,2021.1.4,119.97427754250072,
,"Rule: When you see a yellow image, do not press 'spacebar'.",Images/Scram1/AM10NES.jpg,Scramble,Blue,Images/Blue.jpg,space,ParentConditions/YellowYellowBlue_v2.xlsx,YellowYellowBlue,Conditions/Version_2/YellowScramStop.xlsx,no,PASS,0.13699730503466545,,,,,,,,,0,0,0,1,0,1,1,1,0,17,17,17,,,,,,,,,,,,,,,,,,,,,,,,,,,,,,,,,,,,,,,,,,,,,,,,,,,,,,,,,,,,,,,,,,,,,,,,,,,,,,,1.24,655.3540284000337,None,space,1,0.2551887999288738,656.6943135000765,None,656.6943135000765,None,656.6943135000765,None,,,,,,,,,,,P012,fencog,2,Pre,2021_Oct_07_1055,Go No-Go Task,2021.1.4,119.97427754250072,
,"Rule: When you see a yellow image, do not press 'spacebar'.",Images/Scram2/AM03_NC.jpg,Scramble,Yellow,Images/Yellow.jpg,None,ParentConditions/YellowYellowBlue_v2.xlsx,YellowYellowBlue,Conditions/Version_2/YellowScramStop.xlsx,yes,PASS,0.2886954903206703,,,,,,,,,0,0,0,1,0,1,1,1,0,18,18,18,,,,,,,,,,,,,,,,,,,,,,,,,,,,,,,,,,,,,,,,,,,,,,,,,,,,,,,,,,,,,,,,,,,,,,,,,,,,,,,1.79,657.0941391000524,None,None,1,,658.9851995999925,None,658.9851995999925,None,658.9851995999925,None,,,,,,,,,,,P012,fencog,2,Pre,2021_Oct_07_1055,Go No-Go Task,2021.1.4,119.97427754250072,
,"Rule: When you see a yellow image, do not press 'spacebar'.",Images/Scram1/HF09_NC.jpg,Scramble,Blue,Images/Blue.jpg,space,ParentConditions/YellowYellowBlue_v2.xlsx,YellowYellowBlue,Conditions/Version_2/YellowScramStop.xlsx,no,PASS,0.5210471780653185,,,,,,,,,0,0,0,1,0,1,1,1,0,19,19,19,,,,,,,,,,,,,,,,,,,,,,,,,,,,,,,,,,,,,,,,,,,,,,,,,,,,,,,,,,,,,,,,,,,,,,,,,,,,,,,1.77,659.3858924000524,None,space,1,0.3224176000803709,661.2595436999109,None,661.2595436999109,None,661.2595436999109,None,,,,,,,,,,,P012,fencog,2,Pre,2021_Oct_07_1055,Go No-Go Task,2021.1.4,119.97427754250072,
,"Rule: When you see a yellow image, do not press 'spacebar'.",Images/Scram1/BM08_NC.jpg,Scramble,Blue,Images/Blue.jpg,space,ParentConditions/YellowYellowBlue_v2.xlsx,YellowYellowBlue,Conditions/Version_2/YellowScramStop.xlsx,no,PASS,0.7192207106921986,,,,,,,,,0,0,0,1,0,1,1,1,0,20,20,20,,,,,,,,,,,,,,,,,,,,,,,,,,,,,,,,,,,,,,,,,,,,,,,,,,,,,,,,,,,,,,,,,,,,,,,,,,,,,,,1.41,661.6641448999289,None,space,1,0.2693258000072092,663.1757449000143,None,663.1757449000143,None,663.1757449000143,None,,,,,,,,,,,P012,fencog,2,Pre,2021_Oct_07_1055,Go No-Go Task,2021.1.4,119.97427754250072,
,"Rule: When you see a yellow image, do not press 'spacebar'.",Images/Scram1/AF32NES.jpg,Scramble,Blue,Images/Blue.jpg,space,ParentConditions/YellowYellowBlue_v2.xlsx,YellowYellowBlue,Conditions/Version_2/YellowScramStop.xlsx,no,PASS,0.3856706921106089,,,,,,,,,0,0,0,1,0,1,1,1,0,21,21,21,,,,,,,,,,,,,,,,,,,,,,,,,,,,,,,,,,,,,,,,,,,,,,,,,,,,,,,,,,,,,,,,,,,,,,,,,,,,,,,1.56,663.5757701999974,None,space,1,0.2834466998465359,665.241745099891,None,665.241745099891,None,665.241745099891,None,,,,,,,,,,,P012,fencog,2,Pre,2021_Oct_07_1055,Go No-Go Task,2021.1.4,119.97427754250072,
,"Rule: When you see a yellow image, do not press 'spacebar'.",Images/Scram2/AM06_NC.jpg,Scramble,Yellow,Images/Yellow.jpg,None,ParentConditions/YellowYellowBlue_v2.xlsx,YellowYellowBlue,Conditions/Version_2/YellowScramStop.xlsx,yes,PASS,0.593844606938259,,,,,,,,,0,0,0,1,0,1,1,1,0,22,22,22,,,,,,,,,,,,,,,,,,,,,,,,,,,,,,,,,,,,,,,,,,,,,,,,,,,,,,,,,,,,,,,,,,,,,,,,,,,,,,,1.25,665.6436175000854,None,None,1,,666.9995577000082,None,666.9995577000082,None,666.9995577000082,None,,,,,,,,,,,P012,fencog,2,Pre,2021_Oct_07_1055,Go No-Go Task,2021.1.4,119.97427754250072,
,"Rule: When you see a yellow image, do not press 'spacebar'.",Images/Scram1/AM06_NC.jpg,Scramble,Blue,Images/Blue.jpg,space,ParentConditions/YellowYellowBlue_v2.xlsx,YellowYellowBlue,Conditions/Version_2/YellowScramStop.xlsx,no,PASS,0.5597751985943138,,,,,,,,,0,0,0,1,0,1,1,1,0,23,23,23,,,,,,,,,,,,,,,,,,,,,,,,,,,,,,,,,,,,,,,,,,,,,,,,,,,,,,,,,,,,,,,,,,,,,,,,,,,,,,,1.57,667.4003802000079,None,space,1,0.2756608999334276,669.0740400999784,None,669.0740400999784,None,669.0740400999784,None,,,,,,,,,,,P012,fencog,2,Pre,2021_Oct_07_1055,Go No-Go Task,2021.1.4,119.97427754250072,
,"Rule: When you see a yellow image, do not press 'spacebar'.",Images/Scram2/AM02_NC.jpg,Scramble,Yellow,Images/Yellow.jpg,None,ParentConditions/YellowYellowBlue_v2.xlsx,YellowYellowBlue,Conditions/Version_2/YellowScramStop.xlsx,yes,PASS,0.21014535444537008,,,,,,,,,0,0,0,1,0,1,1,1,0,24,24,24,,,,,,,,,,,,,,,,,,,,,,,,,,,,,,,,,,,,,,,,,,,,,,,,,,,,,,,,,,,,,,,,,,,,,,,,,,,,,,,1.55,669.4732445001137,None,None,1,,671.123225599993,None,671.123225599993,None,671.123225599993,None,,,,,,,,,,,P012,fencog,2,Pre,2021_Oct_07_1055,Go No-Go Task,2021.1.4,119.97427754250072,
,"Rule: When you see a yellow image, do not press 'spacebar'.",Images/Scram2/HF05_NC.jpg,Scramble,Blue,Images/Blue.jpg,space,ParentConditions/YellowYellowBlue_v2.xlsx,YellowYellowBlue,Conditions/Version_2/YellowScramStop.xlsx,no,PASS,0.0025091428399978133,,,,,,,,,0,0,0,1,0,1,1,1,0,25,25,25,,,,,,,,,,,,,,,,,,,,,,,,,,,,,,,,,,,,,,,,,,,,,,,,,,,,,,,,,,,,,,,,,,,,,,,,,,,,,,,1.5,671.5244330998976,None,space,1,0.2906073001213372,673.1310773000587,None,673.1310773000587,None,673.1310773000587,None,,,,,,,,,,,P012,fencog,2,Pre,2021_Oct_07_1055,Go No-Go Task,2021.1.4,119.97427754250072,
,"Rule: When you see a yellow image, do not press 'spacebar'.",Images/Scram2/AF32NES.jpg,Scramble,Yellow,Images/Yellow.jpg,None,ParentConditions/YellowYellowBlue_v2.xlsx,YellowYellowBlue,Conditions/Version_2/YellowScramStop.xlsx,yes,PASS,0.5621638043526047,,,,,,,,,0,0,0,1,0,1,1,1,0,26,26,26,,,,,,,,,,,,,,,,,,,,,,,,,,,,,,,,,,,,,,,,,,,,,,,,,,,,,,,,,,,,,,,,,,,,,,,,,,,,,,,1.86,673.5367477000691,None,None,1,,675.4970947999973,None,675.4970947999973,None,675.4970947999973,None,,,,,,,,,,,P012,fencog,2,Pre,2021_Oct_07_1055,Go No-Go Task,2021.1.4,119.97427754250072,
,"Rule: When you see a yellow image, do not press 'spacebar'.",Images/Scram2/HM04_NC.jpg,Scramble,Blue,Images/Blue.jpg,space,ParentConditions/YellowYellowBlue_v2.xlsx,YellowYellowBlue,Conditions/Version_2/YellowScramStop.xlsx,no,PASS,0.3656961779732233,,,,,,,,,0,0,0,1,0,1,1,1,0,27,27,27,,,,,,,,,,,,,,,,,,,,,,,,,,,,,,,,,,,,,,,,,,,,,,,,,,,,,,,,,,,,,,,,,,,,,,,,,,,,,,,1.61,675.9015452000313,None,space,1,0.2804777999408543,677.6131321000867,None,677.6131321000867,None,677.6131321000867,None,,,,,,,,,,,P012,fencog,2,Pre,2021_Oct_07_1055,Go No-Go Task,2021.1.4,119.97427754250072,
,"Rule: When you see a yellow image, do not press 'spacebar'.",Images/Scram2/AF25NES.jpg,Scramble,Blue,Images/Blue.jpg,space,ParentConditions/YellowYellowBlue_v2.xlsx,YellowYellowBlue,Conditions/Version_2/YellowScramStop.xlsx,no,PASS,0.24296732370581886,,,,,,,,,0,0,0,1,0,1,1,1,0,28,28,28,,,,,,,,,,,,,,,,,,,,,,,,,,,,,,,,,,,,,,,,,,,,,,,,,,,,,,,,,,,,,,,,,,,,,,,,,,,,,,,1.42,678.0256646999624,None,space,1,0.29141919990070164,679.5459678999614,None,679.5459678999614,None,679.5459678999614,None,,,,,,,,,,,P012,fencog,2,Pre,2021_Oct_07_1055,Go No-Go Task,2021.1.4,119.97427754250072,
,"Rule: When you see a yellow image, do not press 'spacebar'.",Images/Scram1/AF34NES.jpg,Scramble,Blue,Images/Blue.jpg,space,ParentConditions/YellowYellowBlue_v2.xlsx,YellowYellowBlue,Conditions/Version_2/YellowScramStop.xlsx,no,PASS,0.2947970947694444,,,,,,,,,0,0,0,1,0,1,1,1,0,29,29,29,,,,,,,,,,,,,,,,,,,,,,,,,,,,,,,,,,,,,,,,,,,,,,,,,,,,,,,,,,,,,,,,,,,,,,,,,,,,,,,1.23,679.9455979000777,None,space,1,0.28652610001154244,681.2787099000998,None,681.2787099000998,None,681.2787099000998,None,,,,,,,,,,,P012,fencog,2,Pre,2021_Oct_07_1055,Go No-Go Task,2021.1.4,119.97427754250072,
,"Rule: When you see a yellow image, do not press 'spacebar'.",Images/Scram2/AF11NES.jpg,Scramble,Blue,Images/Blue.jpg,space,ParentConditions/YellowYellowBlue_v2.xlsx,YellowYellowBlue,Conditions/Version_2/YellowScramStop.xlsx,no,PASS,0.06112693600308039,,,,,,,,,0,0,0,1,0,1,1,1,0,30,30,30,,,,,,,,,,,,,,,,,,,,,,,,,,,,,,,,,,,,,,,,,,,,,,,,,,,,,,,,,,,,,,,,,,,,,,,,,,,,,,,1.44,681.6780352999922,None,space,1,0.22552859992720187,683.2197789000347,None,683.2197789000347,None,683.2197789000347,None,,,,,,,,,,,P012,fencog,2,Pre,2021_Oct_07_1055,Go No-Go Task,2021.1.4,119.97427754250072,
,"Rule: When you see a yellow image, do not press 'spacebar'.",Images/Scram2/AF34NES.jpg,Scramble,Yellow,Images/Yellow.jpg,None,ParentConditions/YellowYellowBlue_v2.xlsx,YellowYellowBlue,Conditions/Version_2/YellowScramStop.xlsx,yes,PASS,0.36837427021744795,,,,,,,,,0,0,0,1,0,1,1,1,0,31,31,31,,,,,,,,,,,,,,,,,,,,,,,,,,,,,,,,,,,,,,,,,,,,,,,,,,,,,,,,,,,,,,,,,,,,,,,,,,,,,,,1.82,683.6699157000985,None,None,1,,685.5942299000453,None,685.5942299000453,None,685.5942299000453,None,,,,,,,,,,,P012,fencog,2,Pre,2021_Oct_07_1055,Go No-Go Task,2021.1.4,119.97427754250072,
,"Rule: When you see a yellow image, do not press 'spacebar'.",Images/Scram1/AM02_NC.jpg,Scramble,Blue,Images/Blue.jpg,space,ParentConditions/YellowYellowBlue_v2.xlsx,YellowYellowBlue,Conditions/Version_2/YellowScramStop.xlsx,no,PASS,0.7004017432139685,,,,,,,,,0,0,0,1,0,1,1,1,0,32,32,32,,,,,,,,,,,,,,,,,,,,,,,,,,,,,,,,,,,,,,,,,,,,,,,,,,,,,,,,,,,,,,,,,,,,,,,,,,,,,,,1.45,685.9985581999645,None,space,1,0.36543740006163716,687.5518557000905,None,687.5518557000905,None,687.5518557000905,None,,,,,,,,,,,P012,fencog,2,Pre,2021_Oct_07_1055,Go No-Go Task,2021.1.4,119.97427754250072,
,"Rule: When you see a yellow image, do not press 'spacebar'.",Images/Scram2/AM13NES.jpg,Scramble,Yellow,Images/Yellow.jpg,None,ParentConditions/YellowYellowBlue_v2.xlsx,YellowYellowBlue,Conditions/Version_2/YellowScramStop.xlsx,yes,PASS,0.7037668434542473,,,,,,,,,0,0,0,1,0,1,1,1,0,33,33,33,,,,,,,,,,,,,,,,,,,,,,,,,,,,,,,,,,,,,,,,,,,,,,,,,,,,,,,,,,,,,,,,,,,,,,,,,,,,,,,1.65,687.9510474000126,None,None,1,,689.7011941000819,None,689.7011941000819,None,689.7011941000819,None,,,,,,,,,,,P012,fencog,2,Pre,2021_Oct_07_1055,Go No-Go Task,2021.1.4,119.97427754250072,
,"Rule: When you see a yellow image, do not press 'spacebar'.",Images/Scram1/AM03_NC.jpg,Scramble,Blue,Images/Blue.jpg,space,ParentConditions/YellowYellowBlue_v2.xlsx,YellowYellowBlue,Conditions/Version_2/YellowScramStop.xlsx,no,PASS,0.13984736132192788,,,,,,,,,0,0,0,1,0,1,1,1,0,34,34,34,,,,,,,,,,,,,,,,,,,,,,,,,,,,,,,,,,,,,,,,,,,,,,,,,,,,,,,,,,,,,,,,,,,,,,,,,,,,,,,1.7,690.1033669998869,None,space,1,0.2970104000996798,691.9089059000835,None,691.9089059000835,None,691.9089059000835,None,,,,,,,,,,,P012,fencog,2,Pre,2021_Oct_07_1055,Go No-Go Task,2021.1.4,119.97427754250072,
,"Rule: When you see a yellow image, do not press 'spacebar'.",Images/Scram1/AF33NES.jpg,Scramble,Blue,Images/Blue.jpg,space,ParentConditions/YellowYellowBlue_v2.xlsx,YellowYellowBlue,Conditions/Version_2/YellowScramStop.xlsx,no,PASS,0.7479968675198729,,,,,,,,,0,0,0,1,0,1,1,1,0,35,35,35,,,,,,,,,,,,,,,,,,,,,,,,,,,,,,,,,,,,,,,,,,,,,,,,,,,,,,,,,,,,,,,,,,,,,,,,,,,,,,,1.59,692.3142331000417,None,space,1,0.2695317000616342,694.0082990999799,None,694.0082990999799,None,694.0082990999799,None,,,,,,,,,,,P012,fencog,2,Pre,2021_Oct_07_1055,Go No-Go Task,2021.1.4,119.97427754250072,
,"Rule: When you see a yellow image, do not press 'spacebar'.",Images/Scram1/BF10_NC.jpg,Scramble,Blue,Images/Blue.jpg,space,ParentConditions/YellowYellowBlue_v2.xlsx,YellowYellowBlue,Conditions/Version_2/YellowScramStop.xlsx,no,PASS,0.5225639267337787,,,,,,,,,0,0,0,1,0,1,1,1,0,36,36,36,,,,,,,,,,,,,,,,,,,,,,,,,,,,,,,,,,,,,,,,,,,,,,,,,,,,,,,,,,,,,,,,,,,,,,,,,,,,,,,1.71,694.4164843999315,None,space,1,0.3006353999953717,696.2326795000117,None,696.2326795000117,None,696.2326795000117,None,,,,,,,,,,,P012,fencog,2,Pre,2021_Oct_07_1055,Go No-Go Task,2021.1.4,119.97427754250072,
,"Rule: When you see a yellow image, do not press 'spacebar'.",Images/Scram1/AF07_NC.jpg,Scramble,Blue,Images/Blue.jpg,space,ParentConditions/YellowYellowBlue_v2.xlsx,YellowYellowBlue,Conditions/Version_2/YellowScramStop.xlsx,no,PASS,0.5221002530466395,,,,,,,,,0,0,0,1,0,1,1,1,0,37,37,37,,,,,,,,,,,,,,,,,,,,,,,,,,,,,,,,,,,,,,,,,,,,,,,,,,,,,,,,,,,,,,,,,,,,,,,,,,,,,,,1.37,696.6406982999761,None,space,1,0.23397319996729493,698.1154181000311,None,698.1154181000311,None,698.1154181000311,None,,,,,,,,,,,P012,fencog,2,Pre,2021_Oct_07_1055,Go No-Go Task,2021.1.4,119.97427754250072,
,"Rule: When you see a yellow image, do not press 'spacebar'.",Images/Scram2/AM23NES.jpg,Scramble,Yellow,Images/Yellow.jpg,None,ParentConditions/YellowYellowBlue_v2.xlsx,YellowYellowBlue,Conditions/Version_2/YellowScramStop.xlsx,yes,PASS,0.18195499113806335,,,,,,,,,0,0,0,1,0,1,1,1,0,38,38,38,,,,,,,,,,,,,,,,,,,,,,,,,,,,,,,,,,,,,,,,,,,,,,,,,,,,,,,,,,,,,,,,,,,,,,,,,,,,,,,1.78,698.5168544999324,None,None,1,,700.3980815000832,None,700.3980815000832,None,700.3980815000832,None,,,,,,,,,,,P012,fencog,2,Pre,2021_Oct_07_1055,Go No-Go Task,2021.1.4,119.97427754250072,
,"Rule: When you see a yellow image, do not press 'spacebar'.",Images/Scram1/AF24NES.jpg,Scramble,Blue,Images/Blue.jpg,space,ParentConditions/YellowYellowBlue_v2.xlsx,YellowYellowBlue,Conditions/Version_2/YellowScramStop.xlsx,no,PASS,0.6640389388315467,,,,,,,,,0,0,0,1,0,1,1,1,0,39,39,39,,,,,,,,,,,,,,,,,,,,,,,,,,,,,,,,,,,,,,,,,,,,,,,,,,,,,,,,,,,,,,,,,,,,,,,,,,,,,,,1.38,700.7989507000893,None,space,1,0.23634200007654727,702.2808485999703,None,702.2808485999703,None,702.2808485999703,None,,,,,,,,,,,P012,fencog,2,Pre,2021_Oct_07_1055,Go No-Go Task,2021.1.4,119.97427754250072,
,"Rule: When you see a yellow image, do not press 'spacebar'.",Images/Scram2/AF33NES.jpg,Scramble,Yellow,Images/Yellow.jpg,None,ParentConditions/YellowYellowBlue_v2.xlsx,YellowYellowBlue,Conditions/Version_2/YellowScramStop.xlsx,yes,PASS,0.6203826022283658,,,,,,,,,0,0,0,1,0,1,1,1,0,40,40,40,,,,,,,,,,,,,,,,,,,,,,,,,,,,,,,,,,,,,,,,,,,,,,,,,,,,,,,,,,,,,,,,,,,,,,,,,,,,,,,1.3,702.6806548999157,None,None,1,,704.0888004999142,None,704.0888004999142,None,704.0888004999142,None,,,,,,,,,,,P012,fencog,2,Pre,2021_Oct_07_1055,Go No-Go Task,2021.1.4,119.97427754250072,
,"Rule: When you see a yellow image, do not press 'spacebar'.",Images/Scram1/AF25NES.jpg,Scramble,Blue,Images/Blue.jpg,space,ParentConditions/YellowYellowBlue_v2.xlsx,YellowYellowBlue,Conditions/Version_2/YellowScramStop.xlsx,no,PASS,0.05141546475857928,,,,,,,,,0,0,0,1,0,1,1,1,0,41,41,41,,,,,,,,,,,,,,,,,,,,,,,,,,,,,,,,,,,,,,,,,,,,,,,,,,,,,,,,,,,,,,,,,,,,,,,,,,,,,,,1.26,704.4908535999712,None,space,1,0.25483140000142157,705.8548520000186,None,705.8548520000186,None,705.8548520000186,None,,,,,,,,,,,P012,fencog,2,Pre,2021_Oct_07_1055,Go No-Go Task,2021.1.4,119.97427754250072,
,"Rule: When you see a yellow image, do not press 'spacebar'.",Images/Scram2/AM10NES.jpg,Scramble,Yellow,Images/Yellow.jpg,None,ParentConditions/YellowYellowBlue_v2.xlsx,YellowYellowBlue,Conditions/Version_2/YellowScramStop.xlsx,yes,PASS,0.1267743006232639,,,,,,,,,0,0,0,1,0,1,1,1,0,42,42,42,,,,,,,,,,,,,,,,,,,,,,,,,,,,,,,,,,,,,,,,,,,,,,,,,,,,,,,,,,,,,,,,,,,,,,,,,,,,,,,1.49,706.2552350000478,None,None,1,,707.8459520000033,None,707.8459520000033,None,707.8459520000033,None,,,,,,,,,,,P012,fencog,2,Pre,2021_Oct_07_1055,Go No-Go Task,2021.1.4,119.97427754250072,
,"Rule: When you see a yellow image, do not press 'spacebar'.",Images/Scram2/BF10_NC.jpg,Scramble,Blue,Images/Blue.jpg,space,ParentConditions/YellowYellowBlue_v2.xlsx,YellowYellowBlue,Conditions/Version_2/YellowScramStop.xlsx,no,PASS,0.22016560502147287,,,,,,,,,0,0,0,1,0,1,1,1,0,43,43,43,,,,,,,,,,,,,,,,,,,,,,,,,,,,,,,,,,,,,,,,,,,,,,,,,,,,,,,,,,,,,,,,,,,,,,,,,,,,,,,1.93,708.2466078000143,None,space,1,0.24669379997067153,710.2785591001157,None,710.2785591001157,None,710.2785591001157,None,,,,,,,,,,,P012,fencog,2,Pre,2021_Oct_07_1055,Go No-Go Task,2021.1.4,119.97427754250072,
,"Rule: When you see a yellow image, do not press 'spacebar'.",Images/Scram1/BF18_NC.jpg,Scramble,Blue,Images/Blue.jpg,space,ParentConditions/YellowYellowBlue_v2.xlsx,YellowYellowBlue,Conditions/Version_2/YellowScramStop.xlsx,no,PASS,0.11487631985977975,,,,,,,,,0,0,0,1,0,1,1,1,0,44,44,44,,,,,,,,,,,,,,,,,,,,,,,,,,,,,,,,,,,,,,,,,,,,,,,,,,,,,,,,,,,,,,,,,,,,,,,,,,,,,,,1.95,710.6781109999865,None,space,1,0.2936979001387954,712.73610739992,None,712.73610739992,None,712.73610739992,None,,,,,,,,,,,P012,fencog,2,Pre,2021_Oct_07_1055,Go No-Go Task,2021.1.4,119.97427754250072,
,"Rule: When you see a yellow image, do not press 'spacebar'.",Images/Scram2/HF09_NC.jpg,Scramble,Blue,Images/Blue.jpg,space,ParentConditions/YellowYellowBlue_v2.xlsx,YellowYellowBlue,Conditions/Version_2/YellowScramStop.xlsx,no,PASS,0.20475492045840804,,,,,,,,,0,0,0,1,0,1,1,1,0,45,45,45,,,,,,,,,,,,,,,,,,,,,,,,,,,,,,,,,,,,,,,,,,,,,,,,,,,,,,,,,,,,,,,,,,,,,,,,,,,,,,,1.58,713.1430327999406,None,space,1,0.21825879998505116,714.8272585999221,None,714.8272585999221,None,714.8272585999221,None,,,,,,,,,,,P012,fencog,2,Pre,2021_Oct_07_1055,Go No-Go Task,2021.1.4,119.97427754250072,
,"Rule: When you see a yellow image, do not press 'spacebar'.",Images/Scram1/BF05_NC.jpg,Scramble,Blue,Images/Blue.jpg,space,ParentConditions/YellowYellowBlue_v2.xlsx,YellowYellowBlue,Conditions/Version_2/YellowScramStop.xlsx,no,PASS,0.6685497116677461,,,,,,,,,0,0,0,1,0,1,1,1,0,46,46,46,,,,,,,,,,,,,,,,,,,,,,,,,,,,,,,,,,,,,,,,,,,,,,,,,,,,,,,,,,,,,,,,,,,,,,,,,,,,,,,1.53,715.2268477999605,None,space,1,0.32147510000504553,716.8600033000112,None,716.8600033000112,None,716.8600033000112,None,,,,,,,,,,,P012,fencog,2,Pre,2021_Oct_07_1055,Go No-Go Task,2021.1.4,119.97427754250072,
,"Rule: When you see a yellow image, do not press 'spacebar'.",Images/Scram1/AM17NES.jpg,Scramble,Blue,Images/Blue.jpg,space,ParentConditions/YellowYellowBlue_v2.xlsx,YellowYellowBlue,Conditions/Version_2/YellowScramStop.xlsx,no,PASS,0.5575549831069895,,,,,,,,,0,0,0,1,0,1,1,1,0,47,47,47,,,,,,,,,,,,,,,,,,,,,,,,,,,,,,,,,,,,,,,,,,,,,,,,,,,,,,,,,,,,,,,,,,,,,,,,,,,,,,,1.33,717.2692458999809,None,space,1,0.2568461000919342,718.7010906999931,None,718.7010906999931,None,718.7010906999931,None,,,,,,,,,,,P012,fencog,2,Pre,2021_Oct_07_1055,Go No-Go Task,2021.1.4,119.97427754250072,
,"Rule: When you see a yellow image, do not press 'spacebar'.",Images/Scram2/AM09_NC.jpg,Scramble,Yellow,Images/Yellow.jpg,None,ParentConditions/YellowYellowBlue_v2.xlsx,YellowYellowBlue,Conditions/Version_2/YellowScramStop.xlsx,yes,PASS,0.08490473937246712,,,,,,,,,0,0,0,1,0,1,1,1,0,48,48,48,,,,,,,,,,,,,,,,,,,,,,,,,,,,,,,,,,,,,,,,,,,,,,,,,,,,,,,,,,,,,,,,,,,,,,,,,,,,,,,1.36,719.1078800999094,None,None,1,,720.5755270998925,None,720.5755270998925,None,720.5755270998925,None,,,,,,,,,,,P012,fencog,2,Pre,2021_Oct_07_1055,Go No-Go Task,2021.1.4,119.97427754250072,
,"Rule: When you see a yellow image, do not press 'spacebar'.",Images/Scram2/AF09NES.jpg,Scramble,Blue,Images/Blue.jpg,space,ParentConditions/YellowYellowBlue_v2.xlsx,YellowYellowBlue,Conditions/Version_2/YellowScramStop.xlsx,no,PASS,0.8511922023884788,,,,,,,,,0,0,0,1,0,1,1,1,0,49,49,49,,,,,,,,,,,,,,,,,,,,,,,,,,,,,,,,,,,,,,,,,,,,,,,,,,,,,,,,,,,,,,,,,,,,,,,,,,,,,,,1.8,720.9781001000665,None,space,1,0.2824604001361877,722.8831382000353,None,722.8831382000353,None,722.8831382000353,None,,,,,,,,,,,P012,fencog,2,Pre,2021_Oct_07_1055,Go No-Go Task,2021.1.4,119.97427754250072,
,"Rule: When you see a yellow image, do not press 'spacebar'.",Images/Scram2/AM04_NC.jpg,Scramble,Yellow,Images/Yellow.jpg,None,ParentConditions/YellowYellowBlue_v2.xlsx,YellowYellowBlue,Conditions/Version_2/YellowScramStop.xlsx,yes,PASS,0.9711738915701108,,,,,,,,,0,0,0,1,0,1,1,1,0,50,50,50,,,,,,,,,,,,,,,,,,,,,,,,,,,,,,,,,,,,,,,,,,,,,,,,,,,,,,,,,,,,,,,,,,,,,,,,,,,,,,,1.75,723.2835377000738,None,None,1,,725.1408146000467,None,725.1408146000467,None,725.1408146000467,None,,,,,,,,,,,P012,fencog,2,Pre,2021_Oct_07_1055,Go No-Go Task,2021.1.4,119.97427754250072,
,"Rule: When you see a yellow image, do not press 'spacebar'.",Images/Scram2/BF05_NC.jpg,Scramble,Yellow,Images/Yellow.jpg,None,ParentConditions/YellowYellowBlue_v2.xlsx,YellowYellowBlue,Conditions/Version_2/YellowScramStop.xlsx,yes,PASS,0.3684660889098009,,,,,,,,,0,0,0,1,0,1,1,1,0,51,51,51,,,,,,,,,,,,,,,,,,,,,,,,,,,,,,,,,,,,,,,,,,,,,,,,,,,,,,,,,,,,,,,,,,,,,,,,,,,,,,,1.4,725.5437143000308,None,space,0,0.21337009989656508,727.0486526000313,None,727.0486526000313,None,727.0486526000313,None,,,,,,,,,,,P012,fencog,2,Pre,2021_Oct_07_1055,Go No-Go Task,2021.1.4,119.97427754250072,
,"Rule: When you see a yellow image, do not press 'spacebar'.",Images/Scram1/HM06_NC.jpg,Scramble,Blue,Images/Blue.jpg,space,ParentConditions/YellowYellowBlue_v2.xlsx,YellowYellowBlue,Conditions/Version_2/YellowScramStop.xlsx,no,PASS,0.5754528995111275,,,,,,,,,0,0,0,1,0,1,1,1,0,52,52,52,,,,,,,,,,,,,,,,,,,,,,,,,,,,,,,,,,,,,,,,,,,,,,,,,,,,,,,,,,,,,,,,,,,,,,,,,,,,,,,1.48,727.4551629000343,None,space,1,0.22244710009545088,729.0397133999504,None,729.0397133999504,None,729.0397133999504,None,,,,,,,,,,,P012,fencog,2,Pre,2021_Oct_07_1055,Go No-Go Task,2021.1.4,119.97427754250072,
,"Rule: When you see a yellow image, do not press 'spacebar'.",Images/Scram2/AF07NES.jpg,Scramble,Blue,Images/Blue.jpg,space,ParentConditions/YellowYellowBlue_v2.xlsx,YellowYellowBlue,Conditions/Version_2/YellowScramStop.xlsx,no,PASS,0.5077779466511061,,,,,,,,,0,0,0,1,0,1,1,1,0,53,53,53,,,,,,,,,,,,,,,,,,,,,,,,,,,,,,,,,,,,,,,,,,,,,,,,,,,,,,,,,,,,,,,,,,,,,,,,,,,,,,,1.99,729.4406429999508,None,space,1,0.33104369998909533,731.5305862999521,None,731.5305862999521,None,731.5305862999521,None,,,,,,,,,,,P012,fencog,2,Pre,2021_Oct_07_1055,Go No-Go Task,2021.1.4,119.97427754250072,
,"Rule: When you see a yellow image, do not press 'spacebar'.",Images/Scram1/BM01_NC.jpg,Scramble,Blue,Images/Blue.jpg,space,ParentConditions/YellowYellowBlue_v2.xlsx,YellowYellowBlue,Conditions/Version_2/YellowScramStop.xlsx,no,PASS,0.6162286290631079,,,,,,,,,0,0,0,1,0,1,1,1,0,54,54,54,,,,,,,,,,,,,,,,,,,,,,,,,,,,,,,,,,,,,,,,,,,,,,,,,,,,,,,,,,,,,,,,,,,,,,,,,,,,,,,1.28,731.930975999916,None,space,1,0.30003909999504685,733.3133626999334,None,733.3133626999334,None,733.3133626999334,None,,,,,,,,,,,P012,fencog,2,Pre,2021_Oct_07_1055,Go No-Go Task,2021.1.4,119.97427754250072,
