CondFileP,Instructions,FaceE,Express,ColourT,ColourF,CorrectAnsP,MasterCondFile,BlockOrder,CondFile,ColCheck,Triplicate_check,SORT_BY_SMALLEST,EPracticeOuterLoop.thisRepN,EPracticeOuterLoop.thisTrialN,EPracticeOuterLoop.thisN,EPracticeOuterLoop.thisIndex,EPracticeInnerLoop.thisRepN,EPracticeInnerLoop.thisTrialN,EPracticeInnerLoop.thisN,EPracticeInnerLoop.thisIndex,MasterLoop.thisRepN,MasterLoop.thisTrialN,MasterLoop.thisN,MasterLoop.thisIndex,OuterLoop.thisRepN,OuterLoop.thisTrialN,OuterLoop.thisN,OuterLoop.thisIndex,InnerLoop.thisRepN,InnerLoop.thisTrialN,InnerLoop.thisN,InnerLoop.thisIndex,text_13.started,text_13.stopped,key_resp_10.keys,key_resp_10.rt,key_resp_10.started,key_resp_10.stopped,text4.started,text4.stopped,EmotionTaskInstructions1.keys,EmotionTaskInstructions1.rt,EmotionTaskInstructions1.started,EmotionTaskInstructions1.stopped,text_4.started,text_4.stopped,key_resp_5.keys,key_resp_5.rt,key_resp_5.started,key_resp_5.stopped,Text_14.started,Text_14.stopped,key_resp_9.keys,key_resp_9.rt,key_resp_9.started,key_resp_9.stopped,text_5.started,text_5.stopped,text_6.started,text_6.stopped,key_resp_7.keys,key_resp_7.rt,key_resp_7.started,key_resp_7.stopped,text_10.started,text_10.stopped,text_11.started,text_11.stopped,text_12.started,text_12.stopped,ISIjitterPractice,EPracticeISIMarker.started,EPracticeISIMarker.stopped,Pract.keys,Pract.corr,Pract.started,Pract.stopped,PracticeFace.started,PracticeFace.stopped,ColourPractice.started,ColourPractice.stopped,text_7.started,text_7.stopped,Pract.rt,EndOfPractice.started,EndOfPractice.stopped,key_resp_8.keys,key_resp_8.rt,key_resp_8.started,key_resp_8.stopped,text_8.started,text_8.stopped,key_resp_6.keys,key_resp_6.rt,key_resp_6.started,key_resp_6.stopped,text_2.started,text_2.stopped,text_3.started,text_3.stopped,key_resp_3.keys,key_resp_3.rt,key_resp_3.started,key_resp_3.stopped,TaskBlock.started,TaskBlock.stopped,BlockNo1.started,BlockNo1.stopped,OfBlock.started,OfBlock.stopped,ISIjitter,ISImarker.started,ISImarker.stopped,key_resp.keys,key_resp.corr,key_resp.started,key_resp.stopped,FaceSet.started,FaceSet.stopped,Colour.started,Colour.stopped,key_resp.rt,EndBlockText.started,EndBlockText.stopped,key_resp_4.keys,key_resp_4.rt,key_resp_4.started,key_resp_4.stopped,BreakText2.started,BreakText2.stopped,PressToContinue.started,PressToContinue.stopped,participant,Study Name,Task Version (required to run),PRE/POST,date,expName,psychopyVersion,frameRate,
,,,,,,,,,,,,,,,,,,,,,,,,,,,,,,,,,20.71692240005359,None,space,17.189124499913305,21.711187600158155,None,,,,,,,,,,,,,,,,,,,,,,,,,,,,,,,,,,,,,,,,,,,,,,,,,,,,,,,,,,,,,,,,,,,,,,,,,,,,,,,,,,,,,,,,,,,,,,,P014,fencog,1,Pre,2021_Oct_19_1052,Go No-Go Task,2021.1.4,119.7072918979771,
,,,,,,,,,,,,,,,,,,,,,,,,,,,,,,,,,,,,,,,40.63772789994255,None,space,9.901498899795115,40.63772789994255,None,,,,,,,,,,,,,,,,,,,,,,,,,,,,,,,,,,,,,,,,,,,,,,,,,,,,,,,,,,,,,,,,,,,,,,,,,,,,,,,,,,,,,,,,,P014,fencog,1,Pre,2021_Oct_19_1052,Go No-Go Task,2021.1.4,119.7072918979771,
,,,,,,,,,,,,,,,,,,,,,,,,,,,,,,,,,,,,,,,,,,,,,50.62660120008513,None,space,16.672883700113744,50.62660120008513,None,,,,,,,,,,,,,,,,,,,,,,,,,,,,,,,,,,,,,,,,,,,,,,,,,,,,,,,,,,,,,,,,,,,,,,,,,,,,,,,,,,,P014,fencog,1,Pre,2021_Oct_19_1052,Go No-Go Task,2021.1.4,119.7072918979771,
,,,,,,,,,,,,,,,,,,,,,,,,,,,,,,,,,,,,,,,,,,,,,,,,,,,67.32006660010666,None,space,38.180537400301546,67.32006660010666,None,,,,,,,,,,,,,,,,,,,,,,,,,,,,,,,,,,,,,,,,,,,,,,,,,,,,,,,,,,,,,,,,,,,,,,,,,,,,,P014,fencog,1,Pre,2021_Oct_19_1052,Go No-Go Task,2021.1.4,119.7072918979771,
EPracticeConditions/BlueEyes.csv,"Rule: When you see a blue image, do not press 'spacebar'.",Images/Happy/BM02_HO.jpg,Happy,Yellow,Images/Yellow.jpg,space,,,,,,,0,0,0,0,0,0,0,2,,,,,,,,,,,,,,,,,,,,,,,,,,,,,,,,,,,,,105.60598450014368,None,108.59379860013723,None,space,2.6475796001031995,108.59379860013723,None,105.60598450014368,None,105.60598450014368,None,105.60598450014368,None,1.9,111.364140199963,None,None,0,113.4257319001481,None,113.4257319001481,None,113.4257319001481,None,115.06182250007987,None,,,,,,,,,,,,,,,,,,,,,,,,,,,,,,,,,,,,,,,,,,,,,,,,,,P014,fencog,1,Pre,2021_Oct_19_1052,Go No-Go Task,2021.1.4,119.7072918979771,
EPracticeConditions/BlueEyes.csv,"Rule: When you see a blue image, do not press 'spacebar'.",Images/Happy/BM08_HO.jpg,Happy,Yellow,Images/Yellow.jpg,space,,,,,,,0,0,0,0,0,1,1,3,,,,,,,,,,,,,,,,,,,,,,,,,,,,,,,,,,,,,,,,,,,,,,,,,,,1.4,116.31701260013506,None,space,1,117.82521839998662,None,117.82521839998662,None,117.82521839998662,None,118.73052689991891,None,0.3176739001646638,,,,,,,,,,,,,,,,,,,,,,,,,,,,,,,,,,,,,,,,,,,,,,,,,P014,fencog,1,Pre,2021_Oct_19_1052,Go No-Go Task,2021.1.4,119.7072918979771,
EPracticeConditions/BlueEyes.csv,"Rule: When you see a blue image, do not press 'spacebar'.",Images/Happy/HF04_HE.jpg,Happy,Yellow,Images/Yellow.jpg,space,,,,,,,0,0,0,0,0,2,2,4,,,,,,,,,,,,,,,,,,,,,,,,,,,,,,,,,,,,,,,,,,,,,,,,,,,1.2,120.72992039984092,None,space,1,122.04059730004519,None,122.04059730004519,None,122.04059730004519,None,122.93612620001659,None,0.35023240000009537,,,,,,,,,,,,,,,,,,,,,,,,,,,,,,,,,,,,,,,,,,,,,,,,,P014,fencog,1,Pre,2021_Oct_19_1052,Go No-Go Task,2021.1.4,119.7072918979771,
EPracticeConditions/BlueEyes.csv,"Rule: When you see a blue image, do not press 'spacebar'.",Images/Fearful/AF01_FO.jpg,Fear,Blue,Images/Blue.jpg,None,,,,,,,0,0,0,0,0,3,3,1,,,,,,,,,,,,,,,,,,,,,,,,,,,,,,,,,,,,,,,,,,,,,,,,,,,1.5,124.9417996997945,None,None,1,126.54767180001363,None,126.54767180001363,None,126.54767180001363,None,127.45311809983104,None,,,,,,,,,,,,,,,,,,,,,,,,,,,,,,,,,,,,,,,,,,,,,,,,,,P014,fencog,1,Pre,2021_Oct_19_1052,Go No-Go Task,2021.1.4,119.7072918979771,
EPracticeConditions/BlueEyes.csv,"Rule: When you see a blue image, do not press 'spacebar'.",Images/Happy/HF05_HO.jpg,Happy,Yellow,Images/Yellow.jpg,space,,,,,,,0,0,0,0,0,4,4,5,,,,,,,,,,,,,,,,,,,,,,,,,,,,,,,,,,,,,,,,,,,,,,,,,,,1.6,129.46080730017275,None,space,1,131.17131889984012,None,131.17131889984012,None,131.17131889984012,None,132.06740280007944,None,0.23123349994421005,,,,,,,,,,,,,,,,,,,,,,,,,,,,,,,,,,,,,,,,,,,,,,,,,P014,fencog,1,Pre,2021_Oct_19_1052,Go No-Go Task,2021.1.4,119.7072918979771,
EPracticeConditions/BlueEyes.csv,"Rule: When you see a blue image, do not press 'spacebar'.",Images/Happy/HF09_HE.jpg,Happy,Yellow,Images/Yellow.jpg,space,,,,,,,0,0,0,0,0,5,5,6,,,,,,,,,,,,,,,,,,,,,,,,,,,,,,,,,,,,,,,,,,,,,,,,,,,1.3,134.07345309993252,None,None,0,135.486620800104,None,135.486620800104,None,135.486620800104,None,136.39380900003016,None,,,,,,,,,,,,,,,,,,,,,,,,,,,,,,,,,,,,,,,,,,,,,,,,,,P014,fencog,1,Pre,2021_Oct_19_1052,Go No-Go Task,2021.1.4,119.7072918979771,
EPracticeConditions/BlueEyes.csv,"Rule: When you see a blue image, do not press 'spacebar'.",Images/Happy/HF10_HE.jpg,Happy,Yellow,Images/Yellow.jpg,space,,,,,,,0,0,0,0,0,6,6,7,,,,,,,,,,,,,,,,,,,,,,,,,,,,,,,,,,,,,,,,,,,,,,,,,,,1.7,138.38855620007962,None,space,1,140.2020330997184,None,140.2020330997184,None,140.2020330997184,None,141.10712359985337,None,0.3208647002466023,,,,,,,,,,,,,,,,,,,,,,,,,,,,,,,,,,,,,,,,,,,,,,,,,P014,fencog,1,Pre,2021_Oct_19_1052,Go No-Go Task,2021.1.4,119.7072918979771,
EPracticeConditions/BlueEyes.csv,"Rule: When you see a blue image, do not press 'spacebar'.",Images/Fearful/HM09_FC.jpg,Fear,Blue,Images/Blue.jpg,None,,,,,,,0,0,0,0,0,7,7,0,,,,,,,,,,,,,,,,,,,,,,,,,,,,,,,,,,,,,,,,,,,,,,,,,,,1.8,143.1049465998076,None,space,0,145.01719040004537,None,145.01719040004537,None,145.01719040004537,None,145.93020220007747,None,0.24689200008288026,,,,,,,,,,,,,,,,,,,,,,,,,,,,,,,,,,,,,,,,,,,,,,,,,P014,fencog,1,Pre,2021_Oct_19_1052,Go No-Go Task,2021.1.4,119.7072918979771,
EPracticeConditions/BlueEyes.csv,"Rule: When you see a blue image, do not press 'spacebar'.",,,,,,,,,,,,0,0,0,0,,,,,,,,,,,,,,,,,,,,,,,,,,,,,,,,,,,,,,,,,,,,,,,,,,,,,,,,,,,,,,,,,,,,,,,,,,,,,,,,,,,,,,,,,,,,,,,,,,,,,,,,,,,,,,,,,,,,,P014,fencog,1,Pre,2021_Oct_19_1052,Go No-Go Task,2021.1.4,119.7072918979771,
EPracticeConditions/YellowEyes.csv,"Rule: When you see a yellow image, do not press 'spacebar'.",Images/Fearful/AM19AFS.jpg,Fear,Blue,Images/Blue.jpg,space,,,,,,,0,1,1,1,0,0,0,4,,,,,,,,,,,,,,,,,,,,,,,,,,,,,,,,,,,,,147.94716939982027,None,150.93979609990492,None,space,3.081934900023043,150.93979609990492,None,147.94716939982027,None,147.94716939982027,None,147.94716939982027,None,1.7,154.0453403997235,None,space,1,155.8557027000934,None,155.8557027000934,None,155.8557027000934,None,156.7517943000421,None,0.32304419996216893,,,,,,,,,,,,,,,,,,,,,,,,,,,,,,,,,,,,,,,,,,,,,,,,,P014,fencog,1,Pre,2021_Oct_19_1052,Go No-Go Task,2021.1.4,119.7072918979771,
EPracticeConditions/YellowEyes.csv,"Rule: When you see a yellow image, do not press 'spacebar'.",Images/Fearful/AM23AFS.jpg,Fear,Blue,Images/Blue.jpg,space,,,,,,,0,1,1,1,0,1,1,6,,,,,,,,,,,,,,,,,,,,,,,,,,,,,,,,,,,,,,,,,,,,,,,,,,,1.5,158.75638329982758,None,space,1,160.37100759986788,None,160.37100759986788,None,160.37100759986788,None,161.2669298001565,None,0.2721903999336064,,,,,,,,,,,,,,,,,,,,,,,,,,,,,,,,,,,,,,,,,,,,,,,,,P014,fencog,1,Pre,2021_Oct_19_1052,Go No-Go Task,2021.1.4,119.7072918979771,
EPracticeConditions/YellowEyes.csv,"Rule: When you see a yellow image, do not press 'spacebar'.",Images/Happy/BF05_HO.jpg,Happy,Yellow,Images/Yellow.jpg,None,,,,,,,0,1,1,1,0,2,2,1,,,,,,,,,,,,,,,,,,,,,,,,,,,,,,,,,,,,,,,,,,,,,,,,,,,1.2,163.2722110999748,None,None,1,164.58648339984939,None,164.58648339984939,None,164.58648339984939,None,165.48352079978213,None,,,,,,,,,,,,,,,,,,,,,,,,,,,,,,,,,,,,,,,,,,,,,,,,,,P014,fencog,1,Pre,2021_Oct_19_1052,Go No-Go Task,2021.1.4,119.7072918979771,
EPracticeConditions/YellowEyes.csv,"Rule: When you see a yellow image, do not press 'spacebar'.",Images/Fearful/AM22AFS.jpg,Fear,Blue,Images/Blue.jpg,space,,,,,,,0,1,1,1,0,3,3,5,,,,,,,,,,,,,,,,,,,,,,,,,,,,,,,,,,,,,,,,,,,,,,,,,,,1.8,167.48842220008373,None,space,1,169.40170989977196,None,169.40170989977196,None,169.40170989977196,None,170.29850629996508,None,0.2282406003214419,,,,,,,,,,,,,,,,,,,,,,,,,,,,,,,,,,,,,,,,,,,,,,,,,P014,fencog,1,Pre,2021_Oct_19_1052,Go No-Go Task,2021.1.4,119.7072918979771,
EPracticeConditions/YellowEyes.csv,"Rule: When you see a yellow image, do not press 'spacebar'.",Images/Fearful/AM17AFS.jpg,Fear,Blue,Images/Blue.jpg,space,,,,,,,0,1,1,1,0,4,4,3,,,,,,,,,,,,,,,,,,,,,,,,,,,,,,,,,,,,,,,,,,,,,,,,,,,1.3,172.3034071000293,None,space,1,173.71713820006698,None,173.71713820006698,None,173.71713820006698,None,174.62328699976206,None,0.3315302999690175,,,,,,,,,,,,,,,,,,,,,,,,,,,,,,,,,,,,,,,,,,,,,,,,,P014,fencog,1,Pre,2021_Oct_19_1052,Go No-Go Task,2021.1.4,119.7072918979771,
EPracticeConditions/YellowEyes.csv,"Rule: When you see a yellow image, do not press 'spacebar'.",Images/Fearful/AM16AFS.jpg,Fear,Blue,Images/Blue.jpg,space,,,,,,,0,1,1,1,0,5,5,2,,,,,,,,,,,,,,,,,,,,,,,,,,,,,,,,,,,,,,,,,,,,,,,,,,,1.6,176.61923119984567,None,space,1,178.3324593999423,None,178.3324593999423,None,178.3324593999423,None,179.22886439971626,None,0.3756519998423755,,,,,,,,,,,,,,,,,,,,,,,,,,,,,,,,,,,,,,,,,,,,,,,,,P014,fencog,1,Pre,2021_Oct_19_1052,Go No-Go Task,2021.1.4,119.7072918979771,
EPracticeConditions/YellowEyes.csv,"Rule: When you see a yellow image, do not press 'spacebar'.",Images/Happy/AM32HAS.jpg,Happy,Yellow,Images/Yellow.jpg,None,,,,,,,0,1,1,1,0,6,6,0,,,,,,,,,,,,,,,,,,,,,,,,,,,,,,,,,,,,,,,,,,,,,,,,,,,1.9,181.2343381997198,None,None,1,183.24755379976705,None,183.24755379976705,None,183.24755379976705,None,184.1444493001327,None,,,,,,,,,,,,,,,,,,,,,,,,,,,,,,,,,,,,,,,,,,,,,,,,,,P014,fencog,1,Pre,2021_Oct_19_1052,Go No-Go Task,2021.1.4,119.7072918979771,
EPracticeConditions/YellowEyes.csv,"Rule: When you see a yellow image, do not press 'spacebar'.",Images/Fearful/AM24AFS.jpg,Fear,Blue,Images/Blue.jpg,space,,,,,,,0,1,1,1,0,7,7,7,,,,,,,,,,,,,,,,,,,,,,,,,,,,,,,,,,,,,,,,,,,,,,,,,,,1.4,186.15201730001718,None,space,1,187.66298200003803,None,187.66298200003803,None,187.66298200003803,None,188.559320199769,None,0.29001230001449585,,,,,,,,,,,,,,,,,,,,,,,,,,,,,,,,,,,,,,,,,,,,,,,,,P014,fencog,1,Pre,2021_Oct_19_1052,Go No-Go Task,2021.1.4,119.7072918979771,
EPracticeConditions/YellowEyes.csv,"Rule: When you see a yellow image, do not press 'spacebar'.",,,,,,,,,,,,0,1,1,1,,,,,,,,,,,,,,,,,,,,,,,,,,,,,,,,,,,,,,,,,,,,,,,,,,,,,,,,,,,,,,,,,,,,,,,,,,,,,,,,,,,,,,,,,,,,,,,,,,,,,,,,,,,,,,,,,,,,,P014,fencog,1,Pre,2021_Oct_19_1052,Go No-Go Task,2021.1.4,119.7072918979771,
EPracticeConditions/BlueScram.csv,"Rule: When you see a blue image, do not press 'spacebar'.",Images/Scram2/AM03_NC.jpg,Scramble,Yellow,Images/Yellow.jpg,space,,,,,,,0,2,2,2,0,0,0,6,,,,,,,,,,,,,,,,,,,,,,,,,,,,,,,,,,,,,190.58547060005367,None,193.5690246000886,None,space,1.3205174999311566,193.5690246000886,None,190.58547060005367,None,190.58547060005367,None,190.58547060005367,None,1.6,194.90657640015706,None,None,0,196.61859369976446,None,196.61859369976446,None,196.61859369976446,None,197.52503320015967,None,,,,,,,,,,,,,,,,,,,,,,,,,,,,,,,,,,,,,,,,,,,,,,,,,,P014,fencog,1,Pre,2021_Oct_19_1052,Go No-Go Task,2021.1.4,119.7072918979771,
EPracticeConditions/BlueScram.csv,"Rule: When you see a blue image, do not press 'spacebar'.",Images/Scram1/AM04_NC.jpg,Scramble,Yellow,Images/Yellow.jpg,space,,,,,,,0,2,2,2,0,1,1,3,,,,,,,,,,,,,,,,,,,,,,,,,,,,,,,,,,,,,,,,,,,,,,,,,,,1.8,199.52144420007244,None,None,0,201.43406020011753,None,201.43406020011753,None,201.43406020011753,None,202.3249880000949,None,,,,,,,,,,,,,,,,,,,,,,,,,,,,,,,,,,,,,,,,,,,,,,,,,,P014,fencog,1,Pre,2021_Oct_19_1052,Go No-Go Task,2021.1.4,119.7072918979771,
EPracticeConditions/BlueScram.csv,"Rule: When you see a blue image, do not press 'spacebar'.",Images/Scram1/AM03NES.jpg,Scramble,Yellow,Images/Yellow.jpg,space,,,,,,,0,2,2,2,0,2,2,4,,,,,,,,,,,,,,,,,,,,,,,,,,,,,,,,,,,,,,,,,,,,,,,,,,,1.9,204.3361391997896,None,space,1,206.34925829991698,None,206.34925829991698,None,206.34925829991698,None,207.24577330006287,None,0.30712040001526475,,,,,,,,,,,,,,,,,,,,,,,,,,,,,,,,,,,,,,,,,,,,,,,,,P014,fencog,1,Pre,2021_Oct_19_1052,Go No-Go Task,2021.1.4,119.7072918979771,
EPracticeConditions/BlueScram.csv,"Rule: When you see a blue image, do not press 'spacebar'.",Images/Scram1/AM13NES.jpg,Scramble,Yellow,Images/Yellow.jpg,space,,,,,,,0,2,2,2,0,3,3,5,,,,,,,,,,,,,,,,,,,,,,,,,,,,,,,,,,,,,,,,,,,,,,,,,,,1.5,209.25110099976882,None,space,1,210.86457009986043,None,210.86457009986043,None,210.86457009986043,None,211.7694522999227,None,0.29169060010463,,,,,,,,,,,,,,,,,,,,,,,,,,,,,,,,,,,,,,,,,,,,,,,,,P014,fencog,1,Pre,2021_Oct_19_1052,Go No-Go Task,2021.1.4,119.7072918979771,
EPracticeConditions/BlueScram.csv,"Rule: When you see a blue image, do not press 'spacebar'.",Images/Scram2/AF25NES.jpg,Scramble,Yellow,Images/Yellow.jpg,space,,,,,,,0,2,2,2,0,4,4,7,,,,,,,,,,,,,,,,,,,,,,,,,,,,,,,,,,,,,,,,,,,,,,,,,,,1.3,213.766619999893,None,space,1,215.1800048998557,None,215.1800048998557,None,215.1800048998557,None,216.0766517999582,None,0.32548200013116,,,,,,,,,,,,,,,,,,,,,,,,,,,,,,,,,,,,,,,,,,,,,,,,,P014,fencog,1,Pre,2021_Oct_19_1052,Go No-Go Task,2021.1.4,119.7072918979771,
EPracticeConditions/BlueScram.csv,"Rule: When you see a blue image, do not press 'spacebar'.",Images/Scram2/AF10_NC.jpg,Scramble,Yellow,Images/Yellow.jpg,space,,,,,,,0,2,2,2,0,5,5,2,,,,,,,,,,,,,,,,,,,,,,,,,,,,,,,,,,,,,,,,,,,,,,,,,,,1.7,218.08174489997327,None,space,1,219.8952293000184,None,219.8952293000184,None,219.8952293000184,None,220.79218570003286,None,0.22919880039989948,,,,,,,,,,,,,,,,,,,,,,,,,,,,,,,,,,,,,,,,,,,,,,,,,P014,fencog,1,Pre,2021_Oct_19_1052,Go No-Go Task,2021.1.4,119.7072918979771,
EPracticeConditions/BlueScram.csv,"Rule: When you see a blue image, do not press 'spacebar'.",Images/Scram1/BM08_NC.jpg,Scramble,Blue,Images/Blue.jpg,None,,,,,,,0,2,2,2,0,6,6,0,,,,,,,,,,,,,,,,,,,,,,,,,,,,,,,,,,,,,,,,,,,,,,,,,,,1.2,222.79752619983628,None,None,1,224.1109905000776,None,224.1109905000776,None,224.1109905000776,None,225.00724009983242,None,,,,,,,,,,,,,,,,,,,,,,,,,,,,,,,,,,,,,,,,,,,,,,,,,,P014,fencog,1,Pre,2021_Oct_19_1052,Go No-Go Task,2021.1.4,119.7072918979771,
EPracticeConditions/BlueScram.csv,"Rule: When you see a blue image, do not press 'spacebar'.",Images/Scram1/BF18_NC.jpg,Scramble,Blue,Images/Blue.jpg,None,,,,,,,0,2,2,2,0,7,7,1,,,,,,,,,,,,,,,,,,,,,,,,,,,,,,,,,,,,,,,,,,,,,,,,,,,1.4,227.01157729979604,None,None,1,228.52602719981223,None,228.52602719981223,None,228.52602719981223,None,229.43011120008305,None,,,,,,,,,,,,,,,,,,,,,,,,,,,,,,,,,,,,,,,,,,,,,,,,,,P014,fencog,1,Pre,2021_Oct_19_1052,Go No-Go Task,2021.1.4,119.7072918979771,
EPracticeConditions/BlueScram.csv,"Rule: When you see a blue image, do not press 'spacebar'.",,,,,,,,,,,,0,2,2,2,,,,,,,,,,,,,,,,,,,,,,,,,,,,,,,,,,,,,,,,,,,,,,,,,,,,,,,,,,,,,,,,,,,,,,,,,,,,,,,,,,,,,,,,,,,,,,,,,,,,,,,,,,,,,,,,,,,,,P014,fencog,1,Pre,2021_Oct_19_1052,Go No-Go Task,2021.1.4,119.7072918979771,
EPracticeConditions/YellowScram.csv,"Rule: When you see a yellow image, do not press 'spacebar'.",Images/Scram1/AF24NES.jpg,Scramble,Blue,Images/Blue.jpg,space,,,,,,,0,3,3,3,0,0,0,7,,,,,,,,,,,,,,,,,,,,,,,,,,,,,,,,,,,,,231.45460109971464,None,234.44036989985034,None,space,1.1694865999743342,234.44036989985034,None,231.45460109971464,None,231.45460109971464,None,231.45460109971464,None,1.9,235.6332180998288,None,space,1,237.64826120017096,None,237.64826120017096,None,237.64826120017096,None,238.54531619977206,None,0.364924400113523,,,,,,,,,,,,,,,,,,,,,,,,,,,,,,,,,,,,,,,,,,,,,,,,,P014,fencog,1,Pre,2021_Oct_19_1052,Go No-Go Task,2021.1.4,119.7072918979771,
EPracticeConditions/YellowScram.csv,"Rule: When you see a yellow image, do not press 'spacebar'.",Images/Scram1/AF07NES.jpg,Scramble,Blue,Images/Blue.jpg,space,,,,,,,0,3,3,3,0,1,1,3,,,,,,,,,,,,,,,,,,,,,,,,,,,,,,,,,,,,,,,,,,,,,,,,,,,1.7,240.55301779974252,None,space,1,242.3636968000792,None,242.3636968000792,None,242.3636968000792,None,243.26092629972845,None,0.22050199983641505,,,,,,,,,,,,,,,,,,,,,,,,,,,,,,,,,,,,,,,,,,,,,,,,,P014,fencog,1,Pre,2021_Oct_19_1052,Go No-Go Task,2021.1.4,119.7072918979771,
EPracticeConditions/YellowScram.csv,"Rule: When you see a yellow image, do not press 'spacebar'.",Images/Scram1/AF10_NC.jpg,Scramble,Blue,Images/Blue.jpg,space,,,,,,,0,3,3,3,0,2,2,6,,,,,,,,,,,,,,,,,,,,,,,,,,,,,,,,,,,,,,,,,,,,,,,,,,,1.5,245.2651941999793,None,None,0,246.87907289993018,None,246.87907289993018,None,246.87907289993018,None,247.78560480009764,None,,,,,,,,,,,,,,,,,,,,,,,,,,,,,,,,,,,,,,,,,,,,,,,,,,P014,fencog,1,Pre,2021_Oct_19_1052,Go No-Go Task,2021.1.4,119.7072918979771,
EPracticeConditions/YellowScram.csv,"Rule: When you see a yellow image, do not press 'spacebar'.",Images/Scram2/HM06_NC.jpg,Scramble,Yellow,Images/Yellow.jpg,None,,,,,,,0,3,3,3,0,3,3,0,,,,,,,,,,,,,,,,,,,,,,,,,,,,,,,,,,,,,,,,,,,,,,,,,,,1.3,249.78085209988058,None,None,1,251.19428570009768,None,251.19428570009768,None,251.19428570009768,None,252.09183380007744,None,,,,,,,,,,,,,,,,,,,,,,,,,,,,,,,,,,,,,,,,,,,,,,,,,,P014,fencog,1,Pre,2021_Oct_19_1052,Go No-Go Task,2021.1.4,119.7072918979771,
EPracticeConditions/YellowScram.csv,"Rule: When you see a yellow image, do not press 'spacebar'.",Images/Scram1/AF30NES.JPG,Scramble,Blue,Images/Blue.jpg,space,,,,,,,0,3,3,3,0,4,4,4,,,,,,,,,,,,,,,,,,,,,,,,,,,,,,,,,,,,,,,,,,,,,,,,,,,1.4,254.0940784998238,None,space,1,255.6097518997267,None,255.6097518997267,None,255.6097518997267,None,256.50633740006015,None,0.331935599911958,,,,,,,,,,,,,,,,,,,,,,,,,,,,,,,,,,,,,,,,,,,,,,,,,P014,fencog,1,Pre,2021_Oct_19_1052,Go No-Go Task,2021.1.4,119.7072918979771,
EPracticeConditions/YellowScram.csv,"Rule: When you see a yellow image, do not press 'spacebar'.",Images/Scram1/BM01_NC.jpg,Scramble,Blue,Images/Blue.jpg,space,,,,,,,0,3,3,3,0,5,5,5,,,,,,,,,,,,,,,,,,,,,,,,,,,,,,,,,,,,,,,,,,,,,,,,,,,1.2,258.5127540999092,None,None,0,259.8251947998069,None,259.8251947998069,None,259.8251947998069,None,260.72246799990535,None,,,,,,,,,,,,,,,,,,,,,,,,,,,,,,,,,,,,,,,,,,,,,,,,,,P014,fencog,1,Pre,2021_Oct_19_1052,Go No-Go Task,2021.1.4,119.7072918979771,
EPracticeConditions/YellowScram.csv,"Rule: When you see a yellow image, do not press 'spacebar'.",Images/Scram1/HF04_NC.jpg,Scramble,Blue,Images/Blue.jpg,space,,,,,,,0,3,3,3,0,6,6,2,,,,,,,,,,,,,,,,,,,,,,,,,,,,,,,,,,,,,,,,,,,,,,,,,,,1.8,262.7267738999799,None,space,1,264.6319769998081,None,264.6319769998081,None,264.6319769998081,None,265.5461706998758,None,0.34087010007351637,,,,,,,,,,,,,,,,,,,,,,,,,,,,,,,,,,,,,,,,,,,,,,,,,P014,fencog,1,Pre,2021_Oct_19_1052,Go No-Go Task,2021.1.4,119.7072918979771,
EPracticeConditions/YellowScram.csv,"Rule: When you see a yellow image, do not press 'spacebar'.",Images/Scram2/AM03NES.jpg,Scramble,Yellow,Images/Yellow.jpg,None,,,,,,,0,3,3,3,0,7,7,1,,,,,,,,,,,,,,,,,,,,,,,,,,,,,,,,,,,,,,,,,,,,,,,,,,,1.6,267.54216439975426,None,None,1,269.2557697999291,None,269.2557697999291,None,269.2557697999291,None,270.14436879986897,None,,,,,,,,,,,,,,,,,,,,,,,,,,,,,,,,,,,,,,,,,,,,,,,,,,P014,fencog,1,Pre,2021_Oct_19_1052,Go No-Go Task,2021.1.4,119.7072918979771,
EPracticeConditions/YellowScram.csv,"Rule: When you see a yellow image, do not press 'spacebar'.",,,,,,,,,,,,0,3,3,3,,,,,,,,,,,,,,,,,,,,,,,,,,,,,,,,,,,,,,,,,,,,,,,,,,,,,,,,,,,,,,,,,,,,,,,,,,,,,,,,,,,,,,,,,,,,,,,,,,,,,,,,,,,,,,,,,,,,,P014,fencog,1,Pre,2021_Oct_19_1052,Go No-Go Task,2021.1.4,119.7072918979771,
,,,,,,,,,,,,,,,,,,,,,,,,,,,,,,,,,,,,,,,,,,,,,,,,,,,,,,,,,,,,,,,,,,,,,,,,,,,,,,,,,,,,,273.58165760012344,None,space,5.318370399996638,274.06210809992626,None,,,,,,,,,,,,,,,,,,,,,,,,,,,,,,,,,,,,,,,,,,,P014,fencog,1,Pre,2021_Oct_19_1052,Go No-Go Task,2021.1.4,119.7072918979771,
,,,,,,,,,,,,,,,,,,,,,,,,,,,,,,,,,,,,,,,,,,,,,,,,,,,,,,,,,,,,,,,,,,,,,,,,,,,,,,,,,,,,,,,,,,,279.39554399996996,None,space,2.7259232001379132,279.39554399996996,None,,,,,,,,,,,,,,,,,,,,,,,,,,,,,,,,,,,,,P014,fencog,1,Pre,2021_Oct_19_1052,Go No-Go Task,2021.1.4,119.7072918979771,
,"Rule: When you see a yellow image, do not press 'spacebar'.",Images/Fearful/BM02_FC.jpg,Fear,Blue,Images/Blue.jpg,space,ParentConditions/YellowBlueBlue_v1.xlsx,BlueBlueYellow,Conditions/Version_1/YellowHappyStop.xlsx,no,PASS,0.44148177898618846,,,,,,,,,0,0,0,0,0,0,0,0,0,0,0,0,,,,,,,,,,,,,,,,,,,,,,,,,,,,,,,,,,,,,,,,,,,,,,,,,,,,,,,,,,,,,,,,,282.231928399764,None,285.2167865000665,None,space,1.5330984997563064,285.2167865000665,None,282.231928399764,None,282.231928399764,None,282.231928399764,None,1.27,286.8082507001236,None,None,0,288.19184459978715,None,288.19184459978715,None,288.19184459978715,None,,,,,,,,,,,,P014,fencog,1,Pre,2021_Oct_19_1052,Go No-Go Task,2021.1.4,119.7072918979771,
,"Rule: When you see a yellow image, do not press 'spacebar'.",Images/Fearful/HF05_FC.jpg,Fear,Blue,Images/Blue.jpg,space,ParentConditions/YellowBlueBlue_v1.xlsx,BlueBlueYellow,Conditions/Version_1/YellowHappyStop.xlsx,no,PASS,0.49496512693563743,,,,,,,,,0,0,0,0,0,0,0,0,0,1,1,1,,,,,,,,,,,,,,,,,,,,,,,,,,,,,,,,,,,,,,,,,,,,,,,,,,,,,,,,,,,,,,,,,,,,,,,,,,,,,,,1.43,288.5913709998131,None,space,1,290.13291759975255,None,290.13291759975255,None,290.13291759975255,None,0.2855842998251319,,,,,,,,,,,P014,fencog,1,Pre,2021_Oct_19_1052,Go No-Go Task,2021.1.4,119.7072918979771,
,"Rule: When you see a yellow image, do not press 'spacebar'.",Images/Happy/AF32HAS.jpg,Happy,Yellow,Images/Yellow.jpg,None,ParentConditions/YellowBlueBlue_v1.xlsx,BlueBlueYellow,Conditions/Version_1/YellowHappyStop.xlsx,yes,PASS,0.3690153910902233,,,,,,,,,0,0,0,0,0,0,0,0,0,2,2,2,,,,,,,,,,,,,,,,,,,,,,,,,,,,,,,,,,,,,,,,,,,,,,,,,,,,,,,,,,,,,,,,,,,,,,,,,,,,,,,1.99,290.5354704000056,None,None,1,292.6321779000573,None,292.6321779000573,None,292.6321779000573,None,,,,,,,,,,,,P014,fencog,1,Pre,2021_Oct_19_1052,Go No-Go Task,2021.1.4,119.7072918979771,
,"Rule: When you see a yellow image, do not press 'spacebar'.",Images/Happy/AM32HAS.jpg,Happy,Yellow,Images/Yellow.jpg,None,ParentConditions/YellowBlueBlue_v1.xlsx,BlueBlueYellow,Conditions/Version_1/YellowHappyStop.xlsx,yes,PASS,0.09240134349582851,,,,,,,,,0,0,0,0,0,0,0,0,0,3,3,3,,,,,,,,,,,,,,,,,,,,,,,,,,,,,,,,,,,,,,,,,,,,,,,,,,,,,,,,,,,,,,,,,,,,,,,,,,,,,,,1.47,293.04200579971075,None,None,1,294.6233089999296,None,294.6233089999296,None,294.6233089999296,None,,,,,,,,,,,,P014,fencog,1,Pre,2021_Oct_19_1052,Go No-Go Task,2021.1.4,119.7072918979771,
,"Rule: When you see a yellow image, do not press 'spacebar'.",Images/Fearful/AF07FS.jpg,Fear,Blue,Images/Blue.jpg,space,ParentConditions/YellowBlueBlue_v1.xlsx,BlueBlueYellow,Conditions/Version_1/YellowHappyStop.xlsx,no,PASS,0.4013300010309635,,,,,,,,,0,0,0,0,0,0,0,0,0,4,4,4,,,,,,,,,,,,,,,,,,,,,,,,,,,,,,,,,,,,,,,,,,,,,,,,,,,,,,,,,,,,,,,,,,,,,,,,,,,,,,,1.69,295.02673889975995,None,space,1,296.83085309993476,None,296.83085309993476,None,296.83085309993476,None,0.2482119002379477,,,,,,,,,,,P014,fencog,1,Pre,2021_Oct_19_1052,Go No-Go Task,2021.1.4,119.7072918979771,
,"Rule: When you see a yellow image, do not press 'spacebar'.",Images/Fearful/AM30AFS.jpg,Fear,Blue,Images/Blue.jpg,space,ParentConditions/YellowBlueBlue_v1.xlsx,BlueBlueYellow,Conditions/Version_1/YellowHappyStop.xlsx,no,PASS,0.5026512951867452,,,,,,,,,0,0,0,0,0,0,0,0,0,5,5,5,,,,,,,,,,,,,,,,,,,,,,,,,,,,,,,,,,,,,,,,,,,,,,,,,,,,,,,,,,,,,,,,,,,,,,,,,,,,,,,1.31,297.22810149984434,None,space,1,298.6469163997099,None,298.6469163997099,None,298.6469163997099,None,0.3034954001195729,,,,,,,,,,,P014,fencog,1,Pre,2021_Oct_19_1052,Go No-Go Task,2021.1.4,119.7072918979771,
,"Rule: When you see a yellow image, do not press 'spacebar'.",Images/Happy/BM03_HO.jpg,Happy,Yellow,Images/Yellow.jpg,None,ParentConditions/YellowBlueBlue_v1.xlsx,BlueBlueYellow,Conditions/Version_1/YellowHappyStop.xlsx,yes,PASS,0.3904556138764915,,,,,,,,,0,0,0,0,0,0,0,0,0,6,6,6,,,,,,,,,,,,,,,,,,,,,,,,,,,,,,,,,,,,,,,,,,,,,,,,,,,,,,,,,,,,,,,,,,,,,,,,,,,,,,,1.45,299.0511837997474,None,None,1,300.6131429998204,None,300.6131429998204,None,300.6131429998204,None,,,,,,,,,,,,P014,fencog,1,Pre,2021_Oct_19_1052,Go No-Go Task,2021.1.4,119.7072918979771,
,"Rule: When you see a yellow image, do not press 'spacebar'.",Images/Fearful/HM06_FC.jpg,Fear,Blue,Images/Blue.jpg,space,ParentConditions/YellowBlueBlue_v1.xlsx,BlueBlueYellow,Conditions/Version_1/YellowHappyStop.xlsx,no,PASS,0.8295870874618959,,,,,,,,,0,0,0,0,0,0,0,0,0,7,7,7,,,,,,,,,,,,,,,,,,,,,,,,,,,,,,,,,,,,,,,,,,,,,,,,,,,,,,,,,,,,,,,,,,,,,,,,,,,,,,,1.68,301.0108233001083,None,space,1,302.8041373998858,None,302.8041373998858,None,302.8041373998858,None,0.24774419981986284,,,,,,,,,,,P014,fencog,1,Pre,2021_Oct_19_1052,Go No-Go Task,2021.1.4,119.7072918979771,
,"Rule: When you see a yellow image, do not press 'spacebar'.",Images/Fearful/AF19AFS.jpg,Fear,Blue,Images/Blue.jpg,space,ParentConditions/YellowBlueBlue_v1.xlsx,BlueBlueYellow,Conditions/Version_1/YellowHappyStop.xlsx,no,PASS,0.31457189280880904,,,,,,,,,0,0,0,0,0,0,0,0,0,8,8,8,,,,,,,,,,,,,,,,,,,,,,,,,,,,,,,,,,,,,,,,,,,,,,,,,,,,,,,,,,,,,,,,,,,,,,,,,,,,,,,1.2,303.19904660014436,None,space,1,304.51206579990685,None,304.51206579990685,None,304.51206579990685,None,0.27267720038071275,,,,,,,,,,,P014,fencog,1,Pre,2021_Oct_19_1052,Go No-Go Task,2021.1.4,119.7072918979771,
,"Rule: When you see a yellow image, do not press 'spacebar'.",Images/Happy/AF30HAS.jpg,Happy,Yellow,Images/Yellow.jpg,None,ParentConditions/YellowBlueBlue_v1.xlsx,BlueBlueYellow,Conditions/Version_1/YellowHappyStop.xlsx,yes,PASS,0.14544836048525234,,,,,,,,,0,0,0,0,0,0,0,0,0,9,9,9,,,,,,,,,,,,,,,,,,,,,,,,,,,,,,,,,,,,,,,,,,,,,,,,,,,,,,,,,,,,,,,,,,,,,,,,,,,,,,,1.54,304.91610269993544,None,None,1,306.5696728997864,None,306.5696728997864,None,306.5696728997864,None,,,,,,,,,,,,P014,fencog,1,Pre,2021_Oct_19_1052,Go No-Go Task,2021.1.4,119.7072918979771,
,"Rule: When you see a yellow image, do not press 'spacebar'.",Images/Fearful/AF25AFS.jpg,Fear,Blue,Images/Blue.jpg,space,ParentConditions/YellowBlueBlue_v1.xlsx,BlueBlueYellow,Conditions/Version_1/YellowHappyStop.xlsx,no,PASS,0.31319631990865415,,,,,,,,,0,0,0,0,0,0,0,0,0,10,10,10,,,,,,,,,,,,,,,,,,,,,,,,,,,,,,,,,,,,,,,,,,,,,,,,,,,,,,,,,,,,,,,,,,,,,,,,,,,,,,,1.23,306.9724453999661,None,space,1,308.3108541001566,None,308.3108541001566,None,308.3108541001566,None,0.3509979001246393,,,,,,,,,,,P014,fencog,1,Pre,2021_Oct_19_1052,Go No-Go Task,2021.1.4,119.7072918979771,
,"Rule: When you see a yellow image, do not press 'spacebar'.",Images/Fearful/AF30AFS.jpg,Fear,Blue,Images/Blue.jpg,space,ParentConditions/YellowBlueBlue_v1.xlsx,BlueBlueYellow,Conditions/Version_1/YellowHappyStop.xlsx,no,PASS,0.9854799433848976,,,,,,,,,0,0,0,0,0,0,0,0,0,11,11,11,,,,,,,,,,,,,,,,,,,,,,,,,,,,,,,,,,,,,,,,,,,,,,,,,,,,,,,,,,,,,,,,,,,,,,,,,,,,,,,1.74,308.7092781001702,None,space,1,310.5601920001209,None,310.5601920001209,None,310.5601920001209,None,0.28126459987834096,,,,,,,,,,,P014,fencog,1,Pre,2021_Oct_19_1052,Go No-Go Task,2021.1.4,119.7072918979771,
,"Rule: When you see a yellow image, do not press 'spacebar'.",Images/Happy/BF10_HO.jpg,Happy,Yellow,Images/Yellow.jpg,None,ParentConditions/YellowBlueBlue_v1.xlsx,BlueBlueYellow,Conditions/Version_1/YellowHappyStop.xlsx,yes,PASS,0.9368187318754497,,,,,,,,,0,0,0,0,0,0,0,0,0,12,12,12,,,,,,,,,,,,,,,,,,,,,,,,,,,,,,,,,,,,,,,,,,,,,,,,,,,,,,,,,,,,,,,,,,,,,,,,,,,,,,,1.53,310.95785949984565,None,None,1,312.6012741001323,None,312.6012741001323,None,312.6012741001323,None,,,,,,,,,,,,P014,fencog,1,Pre,2021_Oct_19_1052,Go No-Go Task,2021.1.4,119.7072918979771,
,"Rule: When you see a yellow image, do not press 'spacebar'.",Images/Fearful/AM06_FO.jpg,Fear,Blue,Images/Blue.jpg,space,ParentConditions/YellowBlueBlue_v1.xlsx,BlueBlueYellow,Conditions/Version_1/YellowHappyStop.xlsx,no,PASS,0.6030700196123316,,,,,,,,,0,0,0,0,0,0,0,0,0,13,13,13,,,,,,,,,,,,,,,,,,,,,,,,,,,,,,,,,,,,,,,,,,,,,,,,,,,,,,,,,,,,,,,,,,,,,,,,,,,,,,,1.61,313.0020665000193,None,space,1,314.7256408999674,None,314.7256408999674,None,314.7256408999674,None,0.22168370010331273,,,,,,,,,,,P014,fencog,1,Pre,2021_Oct_19_1052,Go No-Go Task,2021.1.4,119.7072918979771,
,"Rule: When you see a yellow image, do not press 'spacebar'.",Images/Happy/AM24HAS.jpg,Happy,Yellow,Images/Yellow.jpg,None,ParentConditions/YellowBlueBlue_v1.xlsx,BlueBlueYellow,Conditions/Version_1/YellowHappyStop.xlsx,yes,PASS,0.8401488188278822,,,,,,,,,0,0,0,0,0,0,0,0,0,14,14,14,,,,,,,,,,,,,,,,,,,,,,,,,,,,,,,,,,,,,,,,,,,,,,,,,,,,,,,,,,,,,,,,,,,,,,,,,,,,,,,1.24,315.1232390999794,None,None,1,316.47512229997665,None,316.47512229997665,None,316.47512229997665,None,,,,,,,,,,,,P014,fencog,1,Pre,2021_Oct_19_1052,Go No-Go Task,2021.1.4,119.7072918979771,
,"Rule: When you see a yellow image, do not press 'spacebar'.",Images/Fearful/AF21AFS.jpg,Fear,Blue,Images/Blue.jpg,space,ParentConditions/YellowBlueBlue_v1.xlsx,BlueBlueYellow,Conditions/Version_1/YellowHappyStop.xlsx,no,PASS,0.9561052396726243,,,,,,,,,0,0,0,0,0,0,0,0,0,15,15,15,,,,,,,,,,,,,,,,,,,,,,,,,,,,,,,,,,,,,,,,,,,,,,,,,,,,,,,,,,,,,,,,,,,,,,,,,,,,,,,1.67,316.8731025001034,None,space,1,318.6578714000061,None,318.6578714000061,None,318.6578714000061,None,0.2508392999880016,,,,,,,,,,,P014,fencog,1,Pre,2021_Oct_19_1052,Go No-Go Task,2021.1.4,119.7072918979771,
,"Rule: When you see a yellow image, do not press 'spacebar'.",Images/Happy/AM06_HC.jpg,Happy,Yellow,Images/Yellow.jpg,None,ParentConditions/YellowBlueBlue_v1.xlsx,BlueBlueYellow,Conditions/Version_1/YellowHappyStop.xlsx,yes,PASS,0.36325944609889094,,,,,,,,,0,0,0,0,0,0,0,0,0,16,16,16,,,,,,,,,,,,,,,,,,,,,,,,,,,,,,,,,,,,,,,,,,,,,,,,,,,,,,,,,,,,,,,,,,,,,,,,,,,,,,,1.72,319.0611923998222,None,None,1,320.89051789976656,None,320.89051789976656,None,320.89051789976656,None,,,,,,,,,,,,P014,fencog,1,Pre,2021_Oct_19_1052,Go No-Go Task,2021.1.4,119.7072918979771,
,"Rule: When you see a yellow image, do not press 'spacebar'.",Images/Fearful/AF10_FC.jpg,Fear,Blue,Images/Blue.jpg,space,ParentConditions/YellowBlueBlue_v1.xlsx,BlueBlueYellow,Conditions/Version_1/YellowHappyStop.xlsx,no,PASS,0.09357566512353055,,,,,,,,,0,0,0,0,0,0,0,0,0,17,17,17,,,,,,,,,,,,,,,,,,,,,,,,,,,,,,,,,,,,,,,,,,,,,,,,,,,,,,,,,,,,,,,,,,,,,,,,,,,,,,,1.22,321.2867145999335,None,space,1,322.6148453997448,None,322.6148453997448,None,322.6148453997448,None,0.32192090013995767,,,,,,,,,,,P014,fencog,1,Pre,2021_Oct_19_1052,Go No-Go Task,2021.1.4,119.7072918979771,
,"Rule: When you see a yellow image, do not press 'spacebar'.",Images/Fearful/BM03_FC.jpg,Fear,Blue,Images/Blue.jpg,space,ParentConditions/YellowBlueBlue_v1.xlsx,BlueBlueYellow,Conditions/Version_1/YellowHappyStop.xlsx,no,PASS,0.789884489320339,,,,,,,,,0,0,0,0,0,0,0,0,0,18,18,18,,,,,,,,,,,,,,,,,,,,,,,,,,,,,,,,,,,,,,,,,,,,,,,,,,,,,,,,,,,,,,,,,,,,,,,,,,,,,,,1.63,323.01684070006013,None,space,1,324.75597769999877,None,324.75597769999877,None,324.75597769999877,None,0.3002069001086056,,,,,,,,,,,P014,fencog,1,Pre,2021_Oct_19_1052,Go No-Go Task,2021.1.4,119.7072918979771,
,"Rule: When you see a yellow image, do not press 'spacebar'.",Images/Fearful/HM09_FC.jpg,Fear,Blue,Images/Blue.jpg,space,ParentConditions/YellowBlueBlue_v1.xlsx,BlueBlueYellow,Conditions/Version_1/YellowHappyStop.xlsx,no,PASS,0.8198583361260475,,,,,,,,,0,0,0,0,0,0,0,0,0,19,19,19,,,,,,,,,,,,,,,,,,,,,,,,,,,,,,,,,,,,,,,,,,,,,,,,,,,,,,,,,,,,,,,,,,,,,,,,,,,,,,,1.91,325.1615888001397,None,space,1,327.1720108999871,None,327.1720108999871,None,327.1720108999871,None,0.24472869979217649,,,,,,,,,,,P014,fencog,1,Pre,2021_Oct_19_1052,Go No-Go Task,2021.1.4,119.7072918979771,
,"Rule: When you see a yellow image, do not press 'spacebar'.",Images/Fearful/AM04_FO.jpg,Fear,Blue,Images/Blue.jpg,space,ParentConditions/YellowBlueBlue_v1.xlsx,BlueBlueYellow,Conditions/Version_1/YellowHappyStop.xlsx,no,PASS,0.9595350245966109,,,,,,,,,0,0,0,0,0,0,0,0,0,20,20,20,,,,,,,,,,,,,,,,,,,,,,,,,,,,,,,,,,,,,,,,,,,,,,,,,,,,,,,,,,,,,,,,,,,,,,,,,,,,,,,1.58,327.5812562997453,None,space,1,329.2713584001176,None,329.2713584001176,None,329.2713584001176,None,0.3313615000806749,,,,,,,,,,,P014,fencog,1,Pre,2021_Oct_19_1052,Go No-Go Task,2021.1.4,119.7072918979771,
,"Rule: When you see a yellow image, do not press 'spacebar'.",Images/Fearful/AF11AFS.jpg,Fear,Blue,Images/Blue.jpg,space,ParentConditions/YellowBlueBlue_v1.xlsx,BlueBlueYellow,Conditions/Version_1/YellowHappyStop.xlsx,no,PASS,0.7276184017912607,,,,,,,,,0,0,0,0,0,0,0,0,0,21,21,21,,,,,,,,,,,,,,,,,,,,,,,,,,,,,,,,,,,,,,,,,,,,,,,,,,,,,,,,,,,,,,,,,,,,,,,,,,,,,,,1.3,329.67217040015385,None,space,1,331.0874485000968,None,331.0874485000968,None,331.0874485000968,None,0.2529080999083817,,,,,,,,,,,P014,fencog,1,Pre,2021_Oct_19_1052,Go No-Go Task,2021.1.4,119.7072918979771,
,"Rule: When you see a yellow image, do not press 'spacebar'.",Images/Fearful/AM10_FO.jpg,Fear,Blue,Images/Blue.jpg,space,ParentConditions/YellowBlueBlue_v1.xlsx,BlueBlueYellow,Conditions/Version_1/YellowHappyStop.xlsx,no,PASS,0.7995855816230459,,,,,,,,,0,0,0,0,0,0,0,0,0,22,22,22,,,,,,,,,,,,,,,,,,,,,,,,,,,,,,,,,,,,,,,,,,,,,,,,,,,,,,,,,,,,,,,,,,,,,,,,,,,,,,,1.98,331.49316360009834,None,space,1,333.5866988999769,None,333.5866988999769,None,333.5866988999769,None,0.33275860035791993,,,,,,,,,,,P014,fencog,1,Pre,2021_Oct_19_1052,Go No-Go Task,2021.1.4,119.7072918979771,
,"Rule: When you see a yellow image, do not press 'spacebar'.",Images/Fearful/WF04_FC.jpg,Fear,Blue,Images/Blue.jpg,space,ParentConditions/YellowBlueBlue_v1.xlsx,BlueBlueYellow,Conditions/Version_1/YellowHappyStop.xlsx,no,PASS,0.007163238332436372,,,,,,,,,0,0,0,0,0,0,0,0,0,23,23,23,,,,,,,,,,,,,,,,,,,,,,,,,,,,,,,,,,,,,,,,,,,,,,,,,,,,,,,,,,,,,,,,,,,,,,,,,,,,,,,1.95,333.98718479974195,None,space,1,336.0526434001513,None,336.0526434001513,None,336.0526434001513,None,0.23184960009530187,,,,,,,,,,,P014,fencog,1,Pre,2021_Oct_19_1052,Go No-Go Task,2021.1.4,119.7072918979771,
,"Rule: When you see a yellow image, do not press 'spacebar'.",Images/Fearful/AF28AFS.jpg,Fear,Blue,Images/Blue.jpg,space,ParentConditions/YellowBlueBlue_v1.xlsx,BlueBlueYellow,Conditions/Version_1/YellowHappyStop.xlsx,no,PASS,0.6578574406316495,,,,,,,,,0,0,0,0,0,0,0,0,0,24,24,24,,,,,,,,,,,,,,,,,,,,,,,,,,,,,,,,,,,,,,,,,,,,,,,,,,,,,,,,,,,,,,,,,,,,,,,,,,,,,,,1.25,336.45706699974835,None,space,1,337.81878410000354,None,337.81878410000354,None,337.81878410000354,None,0.302796000149101,,,,,,,,,,,P014,fencog,1,Pre,2021_Oct_19_1052,Go No-Go Task,2021.1.4,119.7072918979771,
,"Rule: When you see a yellow image, do not press 'spacebar'.",Images/Fearful/WF11_FC.jpg,Fear,Blue,Images/Blue.jpg,space,ParentConditions/YellowBlueBlue_v1.xlsx,BlueBlueYellow,Conditions/Version_1/YellowHappyStop.xlsx,no,PASS,0.16001068916200367,,,,,,,,,0,0,0,0,0,0,0,0,0,25,25,25,,,,,,,,,,,,,,,,,,,,,,,,,,,,,,,,,,,,,,,,,,,,,,,,,,,,,,,,,,,,,,,,,,,,,,,,,,,,,,,1.93,338.21736619994044,None,space,1,340.25984539976344,None,340.25984539976344,None,340.25984539976344,None,0.24773370008915663,,,,,,,,,,,P014,fencog,1,Pre,2021_Oct_19_1052,Go No-Go Task,2021.1.4,119.7072918979771,
,"Rule: When you see a yellow image, do not press 'spacebar'.",Images/Fearful/AM17AFS.jpg,Fear,Blue,Images/Blue.jpg,space,ParentConditions/YellowBlueBlue_v1.xlsx,BlueBlueYellow,Conditions/Version_1/YellowHappyStop.xlsx,no,PASS,0.11773651559349041,,,,,,,,,0,0,0,0,0,0,0,0,0,26,26,26,,,,,,,,,,,,,,,,,,,,,,,,,,,,,,,,,,,,,,,,,,,,,,,,,,,,,,,,,,,,,,,,,,,,,,,,,,,,,,,1.92,340.6586565999314,None,space,1,342.684016500134,None,342.684016500134,None,342.684016500134,None,0.2146348999813199,,,,,,,,,,,P014,fencog,1,Pre,2021_Oct_19_1052,Go No-Go Task,2021.1.4,119.7072918979771,
,"Rule: When you see a yellow image, do not press 'spacebar'.",Images/Happy/AF27HAS.jpg,Happy,Yellow,Images/Yellow.jpg,None,ParentConditions/YellowBlueBlue_v1.xlsx,BlueBlueYellow,Conditions/Version_1/YellowHappyStop.xlsx,yes,PASS,0.3141869564869746,,,,,,,,,0,0,0,0,0,0,0,0,0,27,27,27,,,,,,,,,,,,,,,,,,,,,,,,,,,,,,,,,,,,,,,,,,,,,,,,,,,,,,,,,,,,,,,,,,,,,,,,,,,,,,,1.85,343.0929038999602,None,None,1,345.0583473001607,None,345.0583473001607,None,345.0583473001607,None,,,,,,,,,,,,P014,fencog,1,Pre,2021_Oct_19_1052,Go No-Go Task,2021.1.4,119.7072918979771,
,"Rule: When you see a yellow image, do not press 'spacebar'.",Images/Fearful/BF10_FO.jpg,Fear,Blue,Images/Blue.jpg,space,ParentConditions/YellowBlueBlue_v1.xlsx,BlueBlueYellow,Conditions/Version_1/YellowHappyStop.xlsx,no,PASS,0.6473836402289548,,,,,,,,,0,0,0,0,0,0,0,0,0,28,28,28,,,,,,,,,,,,,,,,,,,,,,,,,,,,,,,,,,,,,,,,,,,,,,,,,,,,,,,,,,,,,,,,,,,,,,,,,,,,,,,1.7,345.4578688000329,None,space,1,347.26602059975266,None,347.26602059975266,None,347.26602059975266,None,0.2489318000152707,,,,,,,,,,,P014,fencog,1,Pre,2021_Oct_19_1052,Go No-Go Task,2021.1.4,119.7072918979771,
,"Rule: When you see a yellow image, do not press 'spacebar'.",Images/Fearful/HF04_FO.jpg,Fear,Blue,Images/Blue.jpg,space,ParentConditions/YellowBlueBlue_v1.xlsx,BlueBlueYellow,Conditions/Version_1/YellowHappyStop.xlsx,no,PASS,0.6573655365841123,,,,,,,,,0,0,0,0,0,0,0,0,0,29,29,29,,,,,,,,,,,,,,,,,,,,,,,,,,,,,,,,,,,,,,,,,,,,,,,,,,,,,,,,,,,,,,,,,,,,,,,,,,,,,,,1.51,347.67017369996756,None,space,1,349.29045980004594,None,349.29045980004594,None,349.29045980004594,None,0.24172599986195564,,,,,,,,,,,P014,fencog,1,Pre,2021_Oct_19_1052,Go No-Go Task,2021.1.4,119.7072918979771,
,"Rule: When you see a yellow image, do not press 'spacebar'.",Images/Happy/AF26HAS.jpg,Happy,Yellow,Images/Yellow.jpg,None,ParentConditions/YellowBlueBlue_v1.xlsx,BlueBlueYellow,Conditions/Version_1/YellowHappyStop.xlsx,yes,PASS,0.9634288273569958,,,,,,,,,0,0,0,0,0,0,0,0,0,30,30,30,,,,,,,,,,,,,,,,,,,,,,,,,,,,,,,,,,,,,,,,,,,,,,,,,,,,,,,,,,,,,,,,,,,,,,,,,,,,,,,1.36,349.6867178999819,None,None,1,351.1565451999195,None,351.1565451999195,None,351.1565451999195,None,,,,,,,,,,,,P014,fencog,1,Pre,2021_Oct_19_1052,Go No-Go Task,2021.1.4,119.7072918979771,
,"Rule: When you see a yellow image, do not press 'spacebar'.",Images/Happy/HF09_HE.jpg,Happy,Yellow,Images/Yellow.jpg,None,ParentConditions/YellowBlueBlue_v1.xlsx,BlueBlueYellow,Conditions/Version_1/YellowHappyStop.xlsx,yes,PASS,0.28002812366142005,,,,,,,,,0,0,0,0,0,0,0,0,0,31,31,31,,,,,,,,,,,,,,,,,,,,,,,,,,,,,,,,,,,,,,,,,,,,,,,,,,,,,,,,,,,,,,,,,,,,,,,,,,,,,,,1.46,351.5556549001485,None,None,1,353.12273309985176,None,353.12273309985176,None,353.12273309985176,None,,,,,,,,,,,,P014,fencog,1,Pre,2021_Oct_19_1052,Go No-Go Task,2021.1.4,119.7072918979771,
,"Rule: When you see a yellow image, do not press 'spacebar'.",Images/Fearful/AM16AFS.jpg,Fear,Blue,Images/Blue.jpg,space,ParentConditions/YellowBlueBlue_v1.xlsx,BlueBlueYellow,Conditions/Version_1/YellowHappyStop.xlsx,no,PASS,0.5681414931312986,,,,,,,,,0,0,0,0,0,0,0,0,0,32,32,32,,,,,,,,,,,,,,,,,,,,,,,,,,,,,,,,,,,,,,,,,,,,,,,,,,,,,,,,,,,,,,,,,,,,,,,,,,,,,,,1.84,353.52767580002546,None,space,1,355.48036819975823,None,355.48036819975823,None,355.48036819975823,None,0.23442669957876205,,,,,,,,,,,P014,fencog,1,Pre,2021_Oct_19_1052,Go No-Go Task,2021.1.4,119.7072918979771,
,"Rule: When you see a yellow image, do not press 'spacebar'.",Images/Fearful/WF05_FO.jpg,Fear,Blue,Images/Blue.jpg,space,ParentConditions/YellowBlueBlue_v1.xlsx,BlueBlueYellow,Conditions/Version_1/YellowHappyStop.xlsx,no,PASS,0.23759173368539344,,,,,,,,,0,0,0,0,0,0,0,0,0,33,33,33,,,,,,,,,,,,,,,,,,,,,,,,,,,,,,,,,,,,,,,,,,,,,,,,,,,,,,,,,,,,,,,,,,,,,,,,,,,,,,,1.76,355.88548710010946,None,space,1,357.7546330001205,None,357.7546330001205,None,357.7546330001205,None,0.29666030034422874,,,,,,,,,,,P014,fencog,1,Pre,2021_Oct_19_1052,Go No-Go Task,2021.1.4,119.7072918979771,
,"Rule: When you see a yellow image, do not press 'spacebar'.",Images/Fearful/AM03_FC.jpg,Fear,Blue,Images/Blue.jpg,space,ParentConditions/YellowBlueBlue_v1.xlsx,BlueBlueYellow,Conditions/Version_1/YellowHappyStop.xlsx,no,PASS,0.45277772012976447,,,,,,,,,0,0,0,0,0,0,0,0,0,34,34,34,,,,,,,,,,,,,,,,,,,,,,,,,,,,,,,,,,,,,,,,,,,,,,,,,,,,,,,,,,,,,,,,,,,,,,,,,,,,,,,1.88,358.1565545001067,None,space,1,360.1456161001697,None,360.1456161001697,None,360.1456161001697,None,0.2719505000859499,,,,,,,,,,,P014,fencog,1,Pre,2021_Oct_19_1052,Go No-Go Task,2021.1.4,119.7072918979771,
,"Rule: When you see a yellow image, do not press 'spacebar'.",Images/Fearful/AM01AFS.jpg,Fear,Blue,Images/Blue.jpg,space,ParentConditions/YellowBlueBlue_v1.xlsx,BlueBlueYellow,Conditions/Version_1/YellowHappyStop.xlsx,no,PASS,0.4826830931616207,,,,,,,,,0,0,0,0,0,0,0,0,0,35,35,35,,,,,,,,,,,,,,,,,,,,,,,,,,,,,,,,,,,,,,,,,,,,,,,,,,,,,,,,,,,,,,,,,,,,,,,,,,,,,,,1.89,360.54651860008016,None,space,1,362.54494909988716,None,362.54494909988716,None,362.54494909988716,None,0.2926127999089658,,,,,,,,,,,P014,fencog,1,Pre,2021_Oct_19_1052,Go No-Go Task,2021.1.4,119.7072918979771,
,"Rule: When you see a yellow image, do not press 'spacebar'.",Images/Fearful/HM04_FC.jpg,Fear,Blue,Images/Blue.jpg,space,ParentConditions/YellowBlueBlue_v1.xlsx,BlueBlueYellow,Conditions/Version_1/YellowHappyStop.xlsx,no,PASS,0.46069029171054665,,,,,,,,,0,0,0,0,0,0,0,0,0,36,36,36,,,,,,,,,,,,,,,,,,,,,,,,,,,,,,,,,,,,,,,,,,,,,,,,,,,,,,,,,,,,,,,,,,,,,,,,,,,,,,,1.87,362.9504744000733,None,space,1,364.93584029981866,None,364.93584029981866,None,364.93584029981866,None,0.2930115000344813,,,,,,,,,,,P014,fencog,1,Pre,2021_Oct_19_1052,Go No-Go Task,2021.1.4,119.7072918979771,
,"Rule: When you see a yellow image, do not press 'spacebar'.",Images/Fearful/BF18_FC.jpg,Fear,Blue,Images/Blue.jpg,space,ParentConditions/YellowBlueBlue_v1.xlsx,BlueBlueYellow,Conditions/Version_1/YellowHappyStop.xlsx,no,PASS,0.633030328468129,,,,,,,,,0,0,0,0,0,0,0,0,0,37,37,37,,,,,,,,,,,,,,,,,,,,,,,,,,,,,,,,,,,,,,,,,,,,,,,,,,,,,,,,,,,,,,,,,,,,,,,,,,,,,,,1.96,365.33703459985554,None,space,1,367.410100299865,None,367.410100299865,None,367.410100299865,None,0.2648673001676798,,,,,,,,,,,P014,fencog,1,Pre,2021_Oct_19_1052,Go No-Go Task,2021.1.4,119.7072918979771,
,"Rule: When you see a yellow image, do not press 'spacebar'.",Images/Fearful/AF07_FO.jpg,Fear,Blue,Images/Blue.jpg,space,ParentConditions/YellowBlueBlue_v1.xlsx,BlueBlueYellow,Conditions/Version_1/YellowHappyStop.xlsx,no,PASS,0.34147832357579266,,,,,,,,,0,0,0,0,0,0,0,0,0,38,38,38,,,,,,,,,,,,,,,,,,,,,,,,,,,,,,,,,,,,,,,,,,,,,,,,,,,,,,,,,,,,,,,,,,,,,,,,,,,,,,,2,367.8117772000842,None,space,1,369.92614999972284,None,369.92614999972284,None,369.92614999972284,None,0.22506219986826181,,,,,,,,,,,P014,fencog,1,Pre,2021_Oct_19_1052,Go No-Go Task,2021.1.4,119.7072918979771,
,"Rule: When you see a yellow image, do not press 'spacebar'.",Images/Fearful/AM24AFS.jpg,Fear,Blue,Images/Blue.jpg,space,ParentConditions/YellowBlueBlue_v1.xlsx,BlueBlueYellow,Conditions/Version_1/YellowHappyStop.xlsx,no,PASS,0.778148808430259,,,,,,,,,0,0,0,0,0,0,0,0,0,39,39,39,,,,,,,,,,,,,,,,,,,,,,,,,,,,,,,,,,,,,,,,,,,,,,,,,,,,,,,,,,,,,,,,,,,,,,,,,,,,,,,1.33,370.32937909988686,None,space,1,371.767332599964,None,371.767332599964,None,371.767332599964,None,0.27733989991247654,,,,,,,,,,,P014,fencog,1,Pre,2021_Oct_19_1052,Go No-Go Task,2021.1.4,119.7072918979771,
,"Rule: When you see a yellow image, do not press 'spacebar'.",Images/Fearful/AM03AFS.jpg,Fear,Blue,Images/Blue.jpg,space,ParentConditions/YellowBlueBlue_v1.xlsx,BlueBlueYellow,Conditions/Version_1/YellowHappyStop.xlsx,no,PASS,0.23044092834848573,,,,,,,,,0,0,0,0,0,0,0,0,0,40,40,40,,,,,,,,,,,,,,,,,,,,,,,,,,,,,,,,,,,,,,,,,,,,,,,,,,,,,,,,,,,,,,,,,,,,,,,,,,,,,,,1.75,372.1794607997872,None,space,1,374.0414498001337,None,374.0414498001337,None,374.0414498001337,None,0.23210360016673803,,,,,,,,,,,P014,fencog,1,Pre,2021_Oct_19_1052,Go No-Go Task,2021.1.4,119.7072918979771,
,"Rule: When you see a yellow image, do not press 'spacebar'.",Images/Fearful/BM08_FC.jpg,Fear,Blue,Images/Blue.jpg,space,ParentConditions/YellowBlueBlue_v1.xlsx,BlueBlueYellow,Conditions/Version_1/YellowHappyStop.xlsx,no,PASS,0.6548756521259214,,,,,,,,,0,0,0,0,0,0,0,0,0,41,41,41,,,,,,,,,,,,,,,,,,,,,,,,,,,,,,,,,,,,,,,,,,,,,,,,,,,,,,,,,,,,,,,,,,,,,,,,,,,,,,,1.79,374.4420960000716,None,None,0,376.34088909998536,None,376.34088909998536,None,376.34088909998536,None,,,,,,,,,,,,P014,fencog,1,Pre,2021_Oct_19_1052,Go No-Go Task,2021.1.4,119.7072918979771,
,"Rule: When you see a yellow image, do not press 'spacebar'.",Images/Fearful/AF32AFS.jpg,Fear,Blue,Images/Blue.jpg,space,ParentConditions/YellowBlueBlue_v1.xlsx,BlueBlueYellow,Conditions/Version_1/YellowHappyStop.xlsx,no,PASS,0.9401650545876452,,,,,,,,,0,0,0,0,0,0,0,0,0,42,42,42,,,,,,,,,,,,,,,,,,,,,,,,,,,,,,,,,,,,,,,,,,,,,,,,,,,,,,,,,,,,,,,,,,,,,,,,,,,,,,,1.44,376.7384579000063,None,space,1,378.29030400002375,None,378.29030400002375,None,378.29030400002375,None,0.2657662001438439,,,,,,,,,,,P014,fencog,1,Pre,2021_Oct_19_1052,Go No-Go Task,2021.1.4,119.7072918979771,
,"Rule: When you see a yellow image, do not press 'spacebar'.",Images/Fearful/AF26AFS.jpg,Fear,Blue,Images/Blue.jpg,space,ParentConditions/YellowBlueBlue_v1.xlsx,BlueBlueYellow,Conditions/Version_1/YellowHappyStop.xlsx,no,PASS,0.5799257276734284,,,,,,,,,0,0,0,0,0,0,0,0,0,43,43,43,,,,,,,,,,,,,,,,,,,,,,,,,,,,,,,,,,,,,,,,,,,,,,,,,,,,,,,,,,,,,,,,,,,,,,,,,,,,,,,1.37,378.6916541000828,None,space,1,380.17305199988186,None,380.17305199988186,None,380.17305199988186,None,0.2653052001260221,,,,,,,,,,,P014,fencog,1,Pre,2021_Oct_19_1052,Go No-Go Task,2021.1.4,119.7072918979771,
,"Rule: When you see a yellow image, do not press 'spacebar'.",Images/Fearful/BF09_FC.jpg,Fear,Blue,Images/Blue.jpg,space,ParentConditions/YellowBlueBlue_v1.xlsx,BlueBlueYellow,Conditions/Version_1/YellowHappyStop.xlsx,no,PASS,0.9512288628250045,,,,,,,,,0,0,0,0,0,0,0,0,0,44,44,44,,,,,,,,,,,,,,,,,,,,,,,,,,,,,,,,,,,,,,,,,,,,,,,,,,,,,,,,,,,,,,,,,,,,,,,,,,,,,,,1.38,380.5780842998065,None,space,1,382.0725279999897,None,382.0725279999897,None,382.0725279999897,None,0.2527373996563256,,,,,,,,,,,P014,fencog,1,Pre,2021_Oct_19_1052,Go No-Go Task,2021.1.4,119.7072918979771,
,"Rule: When you see a yellow image, do not press 'spacebar'.",Images/Fearful/BM01_FO.jpg,Fear,Blue,Images/Blue.jpg,space,ParentConditions/YellowBlueBlue_v1.xlsx,BlueBlueYellow,Conditions/Version_1/YellowHappyStop.xlsx,no,PASS,0.8954287307362916,,,,,,,,,0,0,0,0,0,0,0,0,0,45,45,45,,,,,,,,,,,,,,,,,,,,,,,,,,,,,,,,,,,,,,,,,,,,,,,,,,,,,,,,,,,,,,,,,,,,,,,,,,,,,,,1.48,382.4743217998184,None,space,1,384.0636018998921,None,384.0636018998921,None,384.0636018998921,None,0.22821469977498055,,,,,,,,,,,P014,fencog,1,Pre,2021_Oct_19_1052,Go No-Go Task,2021.1.4,119.7072918979771,
,"Rule: When you see a yellow image, do not press 'spacebar'.",Images/Happy/BF14_HO.jpg,Happy,Yellow,Images/Yellow.jpg,None,ParentConditions/YellowBlueBlue_v1.xlsx,BlueBlueYellow,Conditions/Version_1/YellowHappyStop.xlsx,yes,PASS,0.7234280216409134,,,,,,,,,0,0,0,0,0,0,0,0,0,46,46,46,,,,,,,,,,,,,,,,,,,,,,,,,,,,,,,,,,,,,,,,,,,,,,,,,,,,,,,,,,,,,,,,,,,,,,,,,,,,,,,1.49,384.46351529983804,None,space,0,386.0631074998528,None,386.0631074998528,None,386.0631074998528,None,0.1960233999416232,,,,,,,,,,,P014,fencog,1,Pre,2021_Oct_19_1052,Go No-Go Task,2021.1.4,119.7072918979771,
,"Rule: When you see a yellow image, do not press 'spacebar'.",Images/Fearful/WM11_FC.jpg,Fear,Blue,Images/Blue.jpg,space,ParentConditions/YellowBlueBlue_v1.xlsx,BlueBlueYellow,Conditions/Version_1/YellowHappyStop.xlsx,no,PASS,0.023552814974996727,,,,,,,,,0,0,0,0,0,0,0,0,0,47,47,47,,,,,,,,,,,,,,,,,,,,,,,,,,,,,,,,,,,,,,,,,,,,,,,,,,,,,,,,,,,,,,,,,,,,,,,,,,,,,,,1.39,386.46247419994324,None,space,1,387.9625299000181,None,387.9625299000181,None,387.9625299000181,None,0.22631940012797713,,,,,,,,,,,P014,fencog,1,Pre,2021_Oct_19_1052,Go No-Go Task,2021.1.4,119.7072918979771,
,"Rule: When you see a yellow image, do not press 'spacebar'.",Images/Fearful/AM02_FO.jpg,Fear,Blue,Images/Blue.jpg,space,ParentConditions/YellowBlueBlue_v1.xlsx,BlueBlueYellow,Conditions/Version_1/YellowHappyStop.xlsx,no,PASS,0.4906088235260202,,,,,,,,,0,0,0,0,0,0,0,0,0,48,48,48,,,,,,,,,,,,,,,,,,,,,,,,,,,,,,,,,,,,,,,,,,,,,,,,,,,,,,,,,,,,,,,,,,,,,,,,,,,,,,,1.52,388.363158499822,None,space,1,389.9952110997401,None,389.9952110997401,None,389.9952110997401,None,0.24292810028418899,,,,,,,,,,,P014,fencog,1,Pre,2021_Oct_19_1052,Go No-Go Task,2021.1.4,119.7072918979771,
,"Rule: When you see a yellow image, do not press 'spacebar'.",Images/Happy/HM09_HO.jpg,Happy,Yellow,Images/Yellow.jpg,None,ParentConditions/YellowBlueBlue_v1.xlsx,BlueBlueYellow,Conditions/Version_1/YellowHappyStop.xlsx,yes,PASS,0.5172626673634482,,,,,,,,,0,0,0,0,0,0,0,0,0,49,49,49,,,,,,,,,,,,,,,,,,,,,,,,,,,,,,,,,,,,,,,,,,,,,,,,,,,,,,,,,,,,,,,,,,,,,,,,,,,,,,,1.4,390.3941401997581,None,None,1,391.90295240003616,None,391.90295240003616,None,391.90295240003616,None,,,,,,,,,,,,P014,fencog,1,Pre,2021_Oct_19_1052,Go No-Go Task,2021.1.4,119.7072918979771,
,"Rule: When you see a yellow image, do not press 'spacebar'.",Images/Happy/HF10_HE.jpg,Happy,Yellow,Images/Yellow.jpg,None,ParentConditions/YellowBlueBlue_v1.xlsx,BlueBlueYellow,Conditions/Version_1/YellowHappyStop.xlsx,yes,PASS,0.44150167084278924,,,,,,,,,0,0,0,0,0,0,0,0,0,50,50,50,,,,,,,,,,,,,,,,,,,,,,,,,,,,,,,,,,,,,,,,,,,,,,,,,,,,,,,,,,,,,,,,,,,,,,,,,,,,,,,1.78,392.30321409972385,None,None,1,394.19401150010526,None,394.19401150010526,None,394.19401150010526,None,,,,,,,,,,,,P014,fencog,1,Pre,2021_Oct_19_1052,Go No-Go Task,2021.1.4,119.7072918979771,
,"Rule: When you see a yellow image, do not press 'spacebar'.",Images/Fearful/AF09AFS.jpg,Fear,Blue,Images/Blue.jpg,space,ParentConditions/YellowBlueBlue_v1.xlsx,BlueBlueYellow,Conditions/Version_1/YellowHappyStop.xlsx,no,PASS,0.20329731425220043,,,,,,,,,0,0,0,0,0,0,0,0,0,51,51,51,,,,,,,,,,,,,,,,,,,,,,,,,,,,,,,,,,,,,,,,,,,,,,,,,,,,,,,,,,,,,,,,,,,,,,,,,,,,,,,1.59,394.59911709977314,None,space,1,396.3016329999082,None,396.3016329999082,None,396.3016329999082,None,0.24204740021377802,,,,,,,,,,,P014,fencog,1,Pre,2021_Oct_19_1052,Go No-Go Task,2021.1.4,119.7072918979771,
,"Rule: When you see a yellow image, do not press 'spacebar'.",Images/Fearful/AM23AFS.jpg,Fear,Blue,Images/Blue.jpg,space,ParentConditions/YellowBlueBlue_v1.xlsx,BlueBlueYellow,Conditions/Version_1/YellowHappyStop.xlsx,no,PASS,0.9134790301426777,,,,,,,,,0,0,0,0,0,0,0,0,0,52,52,52,,,,,,,,,,,,,,,,,,,,,,,,,,,,,,,,,,,,,,,,,,,,,,,,,,,,,,,,,,,,,,,,,,,,,,,,,,,,,,,1.97,396.7109777000733,None,space,1,398.7925828001462,None,398.7925828001462,None,398.7925828001462,None,0.24290570011362433,,,,,,,,,,,P014,fencog,1,Pre,2021_Oct_19_1052,Go No-Go Task,2021.1.4,119.7072918979771,
,"Rule: When you see a yellow image, do not press 'spacebar'.",Images/Fearful/AM05AFS.jpg,Fear,Blue,Images/Blue.jpg,space,ParentConditions/YellowBlueBlue_v1.xlsx,BlueBlueYellow,Conditions/Version_1/YellowHappyStop.xlsx,no,PASS,0.7369542946293995,,,,,,,,,0,0,0,0,0,0,0,0,0,53,53,53,,,,,,,,,,,,,,,,,,,,,,,,,,,,,,,,,,,,,,,,,,,,,,,,,,,,,,,,,,,,,,,,,,,,,,,,,,,,,,,1.65,399.19689300004393,None,space,1,400.9586366000585,None,400.9586366000585,None,400.9586366000585,None,0.28140350012108684,,,,,,,,,,,P014,fencog,1,Pre,2021_Oct_19_1052,Go No-Go Task,2021.1.4,119.7072918979771,
,"Rule: When you see a yellow image, do not press 'spacebar'.",Images/Happy/AF28HAS.jpg,Happy,Yellow,Images/Yellow.jpg,None,ParentConditions/YellowBlueBlue_v1.xlsx,BlueBlueYellow,Conditions/Version_1/YellowHappyStop.xlsx,yes,PASS,0.27168303726444554,,,,,,,,,0,0,0,0,0,0,0,0,0,54,54,54,,,,,,,,,,,,,,,,,,,,,,,,,,,,,,,,,,,,,,,,,,,,,,,,,,,,,,,,,,,,,,,,,,,,,,,,,,,,,,,1.34,401.3612506999634,None,None,1,402.8163628000766,None,402.8163628000766,None,402.8163628000766,None,,,,,,,,,,,,P014,fencog,1,Pre,2021_Oct_19_1052,Go No-Go Task,2021.1.4,119.7072918979771,
,"Rule: When you see a yellow image, do not press 'spacebar'.",Images/Fearful/BF14_FO.jpg,Fear,Blue,Images/Blue.jpg,space,ParentConditions/YellowBlueBlue_v1.xlsx,BlueBlueYellow,Conditions/Version_1/YellowHappyStop.xlsx,no,PASS,0.6433421649003036,,,,,,,,,0,0,0,0,0,0,0,0,0,55,55,55,,,,,,,,,,,,,,,,,,,,,,,,,,,,,,,,,,,,,,,,,,,,,,,,,,,,,,,,,,,,,,,,,,,,,,,,,,,,,,,1.29,403.22076250007376,None,space,1,404.62445539981127,None,404.62445539981127,None,404.62445539981127,None,0.2913547004573047,,,,,,,,,,,P014,fencog,1,Pre,2021_Oct_19_1052,Go No-Go Task,2021.1.4,119.7072918979771,
,"Rule: When you see a yellow image, do not press 'spacebar'.",Images/Happy/AM30HAS.jpg,Happy,Yellow,Images/Yellow.jpg,None,ParentConditions/YellowBlueBlue_v1.xlsx,BlueBlueYellow,Conditions/Version_1/YellowHappyStop.xlsx,yes,PASS,0.0794505415747715,,,,,,,,,0,0,0,0,0,0,0,0,0,56,56,56,,,,,,,,,,,,,,,,,,,,,,,,,,,,,,,,,,,,,,,,,,,,,,,,,,,,,,,,,,,,,,,,,,,,,,,,,,,,,,,1.73,405.023619200103,None,None,1,406.86523710004985,None,406.86523710004985,None,406.86523710004985,None,,,,,,,,,,,,P014,fencog,1,Pre,2021_Oct_19_1052,Go No-Go Task,2021.1.4,119.7072918979771,
,"Rule: When you see a yellow image, do not press 'spacebar'.",Images/Fearful/AF27AFS.jpg,Fear,Blue,Images/Blue.jpg,space,ParentConditions/YellowBlueBlue_v1.xlsx,BlueBlueYellow,Conditions/Version_1/YellowHappyStop.xlsx,no,PASS,0.3935834771022866,,,,,,,,,0,0,0,0,0,0,0,0,0,57,57,57,,,,,,,,,,,,,,,,,,,,,,,,,,,,,,,,,,,,,,,,,,,,,,,,,,,,,,,,,,,,,,,,,,,,,,,,,,,,,,,1.94,407.2634414997883,None,space,1,409.31447400012985,None,409.31447400012985,None,409.31447400012985,None,0.24801700003445148,,,,,,,,,,,P014,fencog,1,Pre,2021_Oct_19_1052,Go No-Go Task,2021.1.4,119.7072918979771,
,"Rule: When you see a yellow image, do not press 'spacebar'.",Images/Fearful/AM32AFS.jpg,Fear,Blue,Images/Blue.jpg,space,ParentConditions/YellowBlueBlue_v1.xlsx,BlueBlueYellow,Conditions/Version_1/YellowHappyStop.xlsx,no,PASS,0.5614458224122035,,,,,,,,,0,0,0,0,0,0,0,0,0,58,58,58,,,,,,,,,,,,,,,,,,,,,,,,,,,,,,,,,,,,,,,,,,,,,,,,,,,,,,,,,,,,,,,,,,,,,,,,,,,,,,,1.5,409.71579959988594,None,space,1,411.3308792999014,None,411.3308792999014,None,411.3308792999014,None,0.2745582000352442,,,,,,,,,,,P014,fencog,1,Pre,2021_Oct_19_1052,Go No-Go Task,2021.1.4,119.7072918979771,
,"Rule: When you see a yellow image, do not press 'spacebar'.",Images/Fearful/AM09_FO.jpg,Fear,Blue,Images/Blue.jpg,space,ParentConditions/YellowBlueBlue_v1.xlsx,BlueBlueYellow,Conditions/Version_1/YellowHappyStop.xlsx,no,PASS,0.3933837419145386,,,,,,,,,0,0,0,0,0,0,0,0,0,59,59,59,,,,,,,,,,,,,,,,,,,,,,,,,,,,,,,,,,,,,,,,,,,,,,,,,,,,,,,,,,,,,,,,,,,,,,,,,,,,,,,1.56,411.7336626998149,None,None,0,413.4050496001728,None,413.4050496001728,None,413.4050496001728,None,,,,,,,,,,,,P014,fencog,1,Pre,2021_Oct_19_1052,Go No-Go Task,2021.1.4,119.7072918979771,
,"Rule: When you see a yellow image, do not press 'spacebar'.",Images/Fearful/AF01_FO.jpg,Fear,Blue,Images/Blue.jpg,space,ParentConditions/YellowBlueBlue_v1.xlsx,BlueBlueYellow,Conditions/Version_1/YellowHappyStop.xlsx,no,PASS,0.7419870009427991,,,,,,,,,0,0,0,0,0,0,0,0,0,60,60,60,,,,,,,,,,,,,,,,,,,,,,,,,,,,,,,,,,,,,,,,,,,,,,,,,,,,,,,,,,,,,,,,,,,,,,,,,,,,,,,1.83,413.8054451998323,None,space,1,415.73761980002746,None,415.73761980002746,None,415.73761980002746,None,0.2120782001875341,,,,,,,,,,,P014,fencog,1,Pre,2021_Oct_19_1052,Go No-Go Task,2021.1.4,119.7072918979771,
,"Rule: When you see a yellow image, do not press 'spacebar'.",Images/Happy/AM10_HO.jpg,Happy,Yellow,Images/Yellow.jpg,None,ParentConditions/YellowBlueBlue_v1.xlsx,BlueBlueYellow,Conditions/Version_1/YellowHappyStop.xlsx,yes,PASS,0.7352402085502512,,,,,,,,,0,0,0,0,0,0,0,0,0,61,61,61,,,,,,,,,,,,,,,,,,,,,,,,,,,,,,,,,,,,,,,,,,,,,,,,,,,,,,,,,,,,,,,,,,,,,,,,,,,,,,,1.6,416.143019199837,None,None,1,417.84534149989486,None,417.84534149989486,None,417.84534149989486,None,,,,,,,,,,,,P014,fencog,1,Pre,2021_Oct_19_1052,Go No-Go Task,2021.1.4,119.7072918979771,
,"Rule: When you see a yellow image, do not press 'spacebar'.",Images/Happy/AM22HAS.jpg,Happy,Yellow,Images/Yellow.jpg,None,ParentConditions/YellowBlueBlue_v1.xlsx,BlueBlueYellow,Conditions/Version_1/YellowHappyStop.xlsx,yes,PASS,0.27838589915801637,,,,,,,,,0,0,0,0,0,0,0,0,0,62,62,62,,,,,,,,,,,,,,,,,,,,,,,,,,,,,,,,,,,,,,,,,,,,,,,,,,,,,,,,,,,,,,,,,,,,,,,,,,,,,,,1.62,418.2523749000393,None,space,0,419.9864412001334,None,419.9864412001334,None,419.9864412001334,None,0.12316109985113144,,,,,,,,,,,P014,fencog,1,Pre,2021_Oct_19_1052,Go No-Go Task,2021.1.4,119.7072918979771,
,"Rule: When you see a yellow image, do not press 'spacebar'.",Images/Fearful/AM22AFS.jpg,Fear,Blue,Images/Blue.jpg,space,ParentConditions/YellowBlueBlue_v1.xlsx,BlueBlueYellow,Conditions/Version_1/YellowHappyStop.xlsx,no,PASS,0.012398818855924532,,,,,,,,,0,0,0,0,0,0,0,0,0,63,63,63,,,,,,,,,,,,,,,,,,,,,,,,,,,,,,,,,,,,,,,,,,,,,,,,,,,,,,,,,,,,,,,,,,,,,,,,,,,,,,,1.35,420.3912069001235,None,space,1,421.8441570997238,None,421.8441570997238,None,421.8441570997238,None,0.318731099832803,,,,,,,,,,,P014,fencog,1,Pre,2021_Oct_19_1052,Go No-Go Task,2021.1.4,119.7072918979771,
,"Rule: When you see a yellow image, do not press 'spacebar'.",Images/Happy/BM08_HO.jpg,Happy,Yellow,Images/Yellow.jpg,None,ParentConditions/YellowBlueBlue_v1.xlsx,BlueBlueYellow,Conditions/Version_1/YellowHappyStop.xlsx,yes,PASS,0.25791881247444226,,,,,,,,,0,0,0,0,0,0,0,0,0,64,64,64,,,,,,,,,,,,,,,,,,,,,,,,,,,,,,,,,,,,,,,,,,,,,,,,,,,,,,,,,,,,,,,,,,,,,,,,,,,,,,,1.21,422.2491397000849,None,None,1,423.56037929980084,None,423.56037929980084,None,423.56037929980084,None,,,,,,,,,,,,P014,fencog,1,Pre,2021_Oct_19_1052,Go No-Go Task,2021.1.4,119.7072918979771,
,"Rule: When you see a yellow image, do not press 'spacebar'.",Images/Fearful/AM19AFS.jpg,Fear,Blue,Images/Blue.jpg,space,ParentConditions/YellowBlueBlue_v1.xlsx,BlueBlueYellow,Conditions/Version_1/YellowHappyStop.xlsx,no,PASS,0.4570092371665587,,,,,,,,,0,0,0,0,0,0,0,0,0,65,65,65,,,,,,,,,,,,,,,,,,,,,,,,,,,,,,,,,,,,,,,,,,,,,,,,,,,,,,,,,,,,,,,,,,,,,,,,,,,,,,,1.55,423.97104959981516,None,space,1,425.62649059994146,None,425.62649059994146,None,425.62649059994146,None,0.2935796999372542,,,,,,,,,,,P014,fencog,1,Pre,2021_Oct_19_1052,Go No-Go Task,2021.1.4,119.7072918979771,
,"Rule: When you see a yellow image, do not press 'spacebar'.",Images/Fearful/AF23AFS.jpg,Fear,Blue,Images/Blue.jpg,space,ParentConditions/YellowBlueBlue_v1.xlsx,BlueBlueYellow,Conditions/Version_1/YellowHappyStop.xlsx,no,PASS,0.9065930904744121,,,,,,,,,0,0,0,0,0,0,0,0,0,66,66,66,,,,,,,,,,,,,,,,,,,,,,,,,,,,,,,,,,,,,,,,,,,,,,,,,,,,,,,,,,,,,,,,,,,,,,,,,,,,,,,1.42,426.0371755999513,None,space,1,427.56743689998984,None,427.56743689998984,None,427.56743689998984,None,0.3182892999611795,,,,,,,,,,,P014,fencog,1,Pre,2021_Oct_19_1052,Go No-Go Task,2021.1.4,119.7072918979771,
,"Rule: When you see a yellow image, do not press 'spacebar'.",Images/Fearful/AM13AFS.jpg,Fear,Blue,Images/Blue.jpg,space,ParentConditions/YellowBlueBlue_v1.xlsx,BlueBlueYellow,Conditions/Version_1/YellowHappyStop.xlsx,no,PASS,0.672217887403839,,,,,,,,,0,0,0,0,0,0,0,0,0,67,67,67,,,,,,,,,,,,,,,,,,,,,,,,,,,,,,,,,,,,,,,,,,,,,,,,,,,,,,,,,,,,,,,,,,,,,,,,,,,,,,,1.64,427.97123620007187,None,space,1,429.7251464999281,None,429.7251464999281,None,429.7251464999281,None,0.29251600010320544,,,,,,,,,,,P014,fencog,1,Pre,2021_Oct_19_1052,Go No-Go Task,2021.1.4,119.7072918979771,
,"Rule: When you see a yellow image, do not press 'spacebar'.",Images/Fearful/HF09_FC.jpg,Fear,Blue,Images/Blue.jpg,space,ParentConditions/YellowBlueBlue_v1.xlsx,BlueBlueYellow,Conditions/Version_1/YellowHappyStop.xlsx,no,PASS,0.947763278232759,,,,,,,,,0,0,0,0,0,0,0,0,0,68,68,68,,,,,,,,,,,,,,,,,,,,,,,,,,,,,,,,,,,,,,,,,,,,,,,,,,,,,,,,,,,,,,,,,,,,,,,,,,,,,,,1.86,430.12357020005584,None,space,1,432.09905820013955,None,432.09905820013955,None,432.09905820013955,None,0.19147329963743687,,,,,,,,,,,P014,fencog,1,Pre,2021_Oct_19_1052,Go No-Go Task,2021.1.4,119.7072918979771,
,"Rule: When you see a yellow image, do not press 'spacebar'.",Images/Fearful/AM04AFS.jpg,Fear,Blue,Images/Blue.jpg,space,ParentConditions/YellowBlueBlue_v1.xlsx,BlueBlueYellow,Conditions/Version_1/YellowHappyStop.xlsx,no,PASS,0.7155710730323807,,,,,,,,,0,0,0,0,0,0,0,0,0,69,69,69,,,,,,,,,,,,,,,,,,,,,,,,,,,,,,,,,,,,,,,,,,,,,,,,,,,,,,,,,,,,,,,,,,,,,,,,,,,,,,,1.28,432.5024179997854,None,space,1,433.8909076000564,None,433.8909076000564,None,433.8909076000564,None,0.2258710996247828,,,,,,,,,,,P014,fencog,1,Pre,2021_Oct_19_1052,Go No-Go Task,2021.1.4,119.7072918979771,
,"Rule: When you see a yellow image, do not press 'spacebar'.",Images/Fearful/AF02AFS.jpg,Fear,Blue,Images/Blue.jpg,space,ParentConditions/YellowBlueBlue_v1.xlsx,BlueBlueYellow,Conditions/Version_1/YellowHappyStop.xlsx,no,PASS,0.9864792225255055,,,,,,,,,0,0,0,0,0,0,0,0,0,70,70,70,,,,,,,,,,,,,,,,,,,,,,,,,,,,,,,,,,,,,,,,,,,,,,,,,,,,,,,,,,,,,,,,,,,,,,,,,,,,,,,1.8,434.2923352001235,None,space,1,436.2065468998626,None,436.2065468998626,None,436.2065468998626,None,0.1628351998515427,,,,,,,,,,,P014,fencog,1,Pre,2021_Oct_19_1052,Go No-Go Task,2021.1.4,119.7072918979771,
,"Rule: When you see a yellow image, do not press 'spacebar'.",Images/Fearful/AM09AFS.jpg,Fear,Blue,Images/Blue.jpg,space,ParentConditions/YellowBlueBlue_v1.xlsx,BlueBlueYellow,Conditions/Version_1/YellowHappyStop.xlsx,no,PASS,0.8390326237024166,,,,,,,,,0,0,0,0,0,0,0,0,0,71,71,71,,,,,,,,,,,,,,,,,,,,,,,,,,,,,,,,,,,,,,,,,,,,,,,,,,,,,,,,,,,,,,,,,,,,,,,,,,,,,,,1.82,436.60256689973176,None,space,1,438.5309600001201,None,438.5309600001201,None,438.5309600001201,None,0.23829769995063543,,,,,,,,,,,P014,fencog,1,Pre,2021_Oct_19_1052,Go No-Go Task,2021.1.4,119.7072918979771,
,"Rule: When you see a yellow image, do not press 'spacebar'.",Images/Fearful/BF05_FO.jpg,Fear,Blue,Images/Blue.jpg,space,ParentConditions/YellowBlueBlue_v1.xlsx,BlueBlueYellow,Conditions/Version_1/YellowHappyStop.xlsx,no,PASS,0.691917879610661,,,,,,,,,0,0,0,0,0,0,0,0,0,72,72,72,,,,,,,,,,,,,,,,,,,,,,,,,,,,,,,,,,,,,,,,,,,,,,,,,,,,,,,,,,,,,,,,,,,,,,,,,,,,,,,1.57,438.9313543997705,None,space,1,440.6136547997594,None,440.6136547997594,None,440.6136547997594,None,0.3487378996796906,,,,,,,,,,,P014,fencog,1,Pre,2021_Oct_19_1052,Go No-Go Task,2021.1.4,119.7072918979771,
,"Rule: When you see a yellow image, do not press 'spacebar'.",Images/Fearful/AF22AFS.jpg,Fear,Blue,Images/Blue.jpg,space,ParentConditions/YellowBlueBlue_v1.xlsx,BlueBlueYellow,Conditions/Version_1/YellowHappyStop.xlsx,no,PASS,0.03529836358299465,,,,,,,,,0,0,0,0,0,0,0,0,0,73,73,73,,,,,,,,,,,,,,,,,,,,,,,,,,,,,,,,,,,,,,,,,,,,,,,,,,,,,,,,,,,,,,,,,,,,,,,,,,,,,,,1.66,441.0141102997586,None,space,1,442.7881038999185,None,442.7881038999185,None,442.7881038999185,None,0.30557369999587536,,,,,,,,,,,P014,fencog,1,Pre,2021_Oct_19_1052,Go No-Go Task,2021.1.4,119.7072918979771,
,"Rule: When you see a yellow image, do not press 'spacebar'.",Images/Happy/BF18_HO.jpg,Happy,Yellow,Images/Yellow.jpg,None,ParentConditions/YellowBlueBlue_v1.xlsx,BlueBlueYellow,Conditions/Version_1/YellowHappyStop.xlsx,yes,PASS,0.4232691792902379,,,,,,,,,0,0,0,0,0,0,0,0,0,74,74,74,,,,,,,,,,,,,,,,,,,,,,,,,,,,,,,,,,,,,,,,,,,,,,,,,,,,,,,,,,,,,,,,,,,,,,,,,,,,,,,1.26,443.1891133999452,None,None,1,444.56255599996075,None,444.56255599996075,None,444.56255599996075,None,,,,,,,,,,,,P014,fencog,1,Pre,2021_Oct_19_1052,Go No-Go Task,2021.1.4,119.7072918979771,
,"Rule: When you see a yellow image, do not press 'spacebar'.",Images/Fearful/WM12_FO.jpg,Fear,Blue,Images/Blue.jpg,space,ParentConditions/YellowBlueBlue_v1.xlsx,BlueBlueYellow,Conditions/Version_1/YellowHappyStop.xlsx,no,PASS,0.34671640176200413,,,,,,,,,0,0,0,0,0,0,0,0,0,75,75,75,,,,,,,,,,,,,,,,,,,,,,,,,,,,,,,,,,,,,,,,,,,,,,,,,,,,,,,,,,,,,,,,,,,,,,,,,,,,,,,1.71,444.95902199996635,None,space,1,446.77850200003013,None,446.77850200003013,None,446.77850200003013,None,0.2526245000772178,,,,,,,,,,,P014,fencog,1,Pre,2021_Oct_19_1052,Go No-Go Task,2021.1.4,119.7072918979771,
,"Rule: When you see a yellow image, do not press 'spacebar'.",Images/Fearful/BF07_FO.jpg,Fear,Blue,Images/Blue.jpg,space,ParentConditions/YellowBlueBlue_v1.xlsx,BlueBlueYellow,Conditions/Version_1/YellowHappyStop.xlsx,no,PASS,0.2992945798396267,,,,,,,,,0,0,0,0,0,0,0,0,0,76,76,76,,,,,,,,,,,,,,,,,,,,,,,,,,,,,,,,,,,,,,,,,,,,,,,,,,,,,,,,,,,,,,,,,,,,,,,,,,,,,,,1.41,447.18298200005665,None,space,1,448.7028669998981,None,448.7028669998981,None,448.7028669998981,None,0.3034890000708401,,,,,,,,,,,P014,fencog,1,Pre,2021_Oct_19_1052,Go No-Go Task,2021.1.4,119.7072918979771,
,"Rule: When you see a yellow image, do not press 'spacebar'.",Images/Fearful/HF10_FO.jpg,Fear,Blue,Images/Blue.jpg,space,ParentConditions/YellowBlueBlue_v1.xlsx,BlueBlueYellow,Conditions/Version_1/YellowHappyStop.xlsx,no,PASS,0.06506977473557796,,,,,,,,,0,0,0,0,0,0,0,0,0,77,77,77,,,,,,,,,,,,,,,,,,,,,,,,,,,,,,,,,,,,,,,,,,,,,,,,,,,,,,,,,,,,,,,,,,,,,,,,,,,,,,,1.77,449.1009202999994,None,space,1,450.9855871000327,None,450.9855871000327,None,450.9855871000327,None,0.2786097996868193,,,,,,,,,,,P014,fencog,1,Pre,2021_Oct_19_1052,Go No-Go Task,2021.1.4,119.7072918979771,
,"Rule: When you see a yellow image, do not press 'spacebar'.",Images/Fearful/AM10AFS.jpg,Fear,Blue,Images/Blue.jpg,space,ParentConditions/YellowBlueBlue_v1.xlsx,BlueBlueYellow,Conditions/Version_1/YellowHappyStop.xlsx,no,PASS,0.4391085826227009,,,,,,,,,0,0,0,0,0,0,0,0,0,78,78,78,,,,,,,,,,,,,,,,,,,,,,,,,,,,,,,,,,,,,,,,,,,,,,,,,,,,,,,,,,,,,,,,,,,,,,,,,,,,,,,1.81,451.3820401998237,None,space,1,453.3016089000739,None,453.3016089000739,None,453.3016089000739,None,0.2960864999331534,,,,,,,,,,,P014,fencog,1,Pre,2021_Oct_19_1052,Go No-Go Task,2021.1.4,119.7072918979771,
,"Rule: When you see a yellow image, do not press 'spacebar'.",Images/Happy/AM23HAS.jpg,Happy,Yellow,Images/Yellow.jpg,None,ParentConditions/YellowBlueBlue_v1.xlsx,BlueBlueYellow,Conditions/Version_1/YellowHappyStop.xlsx,yes,PASS,0.8296456455429673,,,,,,,,,0,0,0,0,0,0,0,0,0,79,79,79,,,,,,,,,,,,,,,,,,,,,,,,,,,,,,,,,,,,,,,,,,,,,,,,,,,,,,,,,,,,,,,,,,,,,,,,,,,,,,,1.32,453.69903799984604,None,None,1,455.134431600105,None,455.134431600105,None,455.134431600105,None,,,,,,,,,,,,P014,fencog,1,Pre,2021_Oct_19_1052,Go No-Go Task,2021.1.4,119.7072918979771,
,"Rule: When you see blue image, do not press 'spacebar'.",Images/Fearful/HM06_FC.jpg,Fear,Blue,Images/Blue.jpg,None,ParentConditions/YellowBlueBlue_v1.xlsx,BlueBlueYellow,Conditions/Version_1/BlueFearStop.xlsx,yes,PASS,0.7729813006314565,,,,,,,,,0,0,0,0,0,1,1,1,0,0,0,0,,,,,,,,,,,,,,,,,,,,,,,,,,,,,,,,,,,,,,,,,,,,,,,,,,,,,,,,,,,,,,,,,465.824103299994,None,468.8132933997549,None,space,4.00460120011121,468.8132933997549,None,465.824103299994,None,465.824103299994,None,465.824103299994,None,1.7,472.8736462001689,None,None,1,474.6784848999232,None,474.6784848999232,None,474.6784848999232,None,,455.5573832998052,None,space,9.741325299721211,456.05716069974005,None,455.5573832998052,None,455.5573832998052,None,P014,fencog,1,Pre,2021_Oct_19_1052,Go No-Go Task,2021.1.4,119.7072918979771,
,"Rule: When you see blue image, do not press 'spacebar'.",Images/Happy/AF07HAS.jpg,Happy,Yellow,Images/Yellow.jpg,space,ParentConditions/YellowBlueBlue_v1.xlsx,BlueBlueYellow,Conditions/Version_1/BlueFearStop.xlsx,no,PASS,0.4924453653062516,,,,,,,,,0,0,0,0,0,1,1,1,0,1,1,1,,,,,,,,,,,,,,,,,,,,,,,,,,,,,,,,,,,,,,,,,,,,,,,,,,,,,,,,,,,,,,,,,,,,,,,,,,,,,,,1.31,475.0870666000992,None,space,1,476.50311829987913,None,476.50311829987913,None,476.50311829987913,None,0.24543150002136827,,,,,,,,,,,P014,fencog,1,Pre,2021_Oct_19_1052,Go No-Go Task,2021.1.4,119.7072918979771,
,"Rule: When you see blue image, do not press 'spacebar'.",Images/Happy/AF28HAS.jpg,Happy,Yellow,Images/Yellow.jpg,space,ParentConditions/YellowBlueBlue_v1.xlsx,BlueBlueYellow,Conditions/Version_1/BlueFearStop.xlsx,no,PASS,0.8943473655540664,,,,,,,,,0,0,0,0,0,1,1,1,0,2,2,2,,,,,,,,,,,,,,,,,,,,,,,,,,,,,,,,,,,,,,,,,,,,,,,,,,,,,,,,,,,,,,,,,,,,,,,,,,,,,,,1.83,476.9121984001249,None,space,1,478.84411290008575,None,478.84411290008575,None,478.84411290008575,None,0.293533599935472,,,,,,,,,,,P014,fencog,1,Pre,2021_Oct_19_1052,Go No-Go Task,2021.1.4,119.7072918979771,
,"Rule: When you see blue image, do not press 'spacebar'.",Images/Happy/AF22HAS.jpg,Happy,Yellow,Images/Yellow.jpg,space,ParentConditions/YellowBlueBlue_v1.xlsx,BlueBlueYellow,Conditions/Version_1/BlueFearStop.xlsx,no,PASS,0.5892765061873407,,,,,,,,,0,0,0,0,0,1,1,1,0,3,3,3,,,,,,,,,,,,,,,,,,,,,,,,,,,,,,,,,,,,,,,,,,,,,,,,,,,,,,,,,,,,,,,,,,,,,,,,,,,,,,,1.38,479.2496135998517,None,space,1,480.73516790010035,None,480.73516790010035,None,480.73516790010035,None,0.3122368003241718,,,,,,,,,,,P014,fencog,1,Pre,2021_Oct_19_1052,Go No-Go Task,2021.1.4,119.7072918979771,
,"Rule: When you see blue image, do not press 'spacebar'.",Images/Fearful/AF27AFS.jpg,Fear,Blue,Images/Blue.jpg,None,ParentConditions/YellowBlueBlue_v1.xlsx,BlueBlueYellow,Conditions/Version_1/BlueFearStop.xlsx,yes,PASS,0.41428581318896585,,,,,,,,,0,0,0,0,0,1,1,1,0,4,4,4,,,,,,,,,,,,,,,,,,,,,,,,,,,,,,,,,,,,,,,,,,,,,,,,,,,,,,,,,,,,,,,,,,,,,,,,,,,,,,,1.34,481.1450506001711,None,None,1,482.60127210011706,None,482.60127210011706,None,482.60127210011706,None,,,,,,,,,,,,P014,fencog,1,Pre,2021_Oct_19_1052,Go No-Go Task,2021.1.4,119.7072918979771,
,"Rule: When you see blue image, do not press 'spacebar'.",Images/Happy/AM24HAS.jpg,Happy,Yellow,Images/Yellow.jpg,space,ParentConditions/YellowBlueBlue_v1.xlsx,BlueBlueYellow,Conditions/Version_1/BlueFearStop.xlsx,no,PASS,0.8126867400025187,,,,,,,,,0,0,0,0,0,1,1,1,0,5,5,5,,,,,,,,,,,,,,,,,,,,,,,,,,,,,,,,,,,,,,,,,,,,,,,,,,,,,,,,,,,,,,,,,,,,,,,,,,,,,,,2,482.99762179981917,None,space,1,485.10055619990453,None,485.10055619990453,None,485.10055619990453,None,0.24120069993659854,,,,,,,,,,,P014,fencog,1,Pre,2021_Oct_19_1052,Go No-Go Task,2021.1.4,119.7072918979771,
,"Rule: When you see blue image, do not press 'spacebar'.",Images/Fearful/AF26AFS.jpg,Fear,Blue,Images/Blue.jpg,None,ParentConditions/YellowBlueBlue_v1.xlsx,BlueBlueYellow,Conditions/Version_1/BlueFearStop.xlsx,yes,PASS,0.7771539142714355,,,,,,,,,0,0,0,0,0,1,1,1,0,6,6,6,,,,,,,,,,,,,,,,,,,,,,,,,,,,,,,,,,,,,,,,,,,,,,,,,,,,,,,,,,,,,,,,,,,,,,,,,,,,,,,1.99,485.51053339987993,None,None,1,487.61646940000355,None,487.61646940000355,None,487.61646940000355,None,,,,,,,,,,,,P014,fencog,1,Pre,2021_Oct_19_1052,Go No-Go Task,2021.1.4,119.7072918979771,
,"Rule: When you see blue image, do not press 'spacebar'.",Images/Happy/WM11_HC.jpg,Happy,Yellow,Images/Yellow.jpg,space,ParentConditions/YellowBlueBlue_v1.xlsx,BlueBlueYellow,Conditions/Version_1/BlueFearStop.xlsx,no,PASS,0.612727142386838,,,,,,,,,0,0,0,0,0,1,1,1,0,7,7,7,,,,,,,,,,,,,,,,,,,,,,,,,,,,,,,,,,,,,,,,,,,,,,,,,,,,,,,,,,,,,,,,,,,,,,,,,,,,,,,1.89,488.0150965000503,None,None,0,490.0157956997864,None,490.0157956997864,None,490.0157956997864,None,,,,,,,,,,,,P014,fencog,1,Pre,2021_Oct_19_1052,Go No-Go Task,2021.1.4,119.7072918979771,
,"Rule: When you see blue image, do not press 'spacebar'.",Images/Happy/BM03_HO.jpg,Happy,Yellow,Images/Yellow.jpg,space,ParentConditions/YellowBlueBlue_v1.xlsx,BlueBlueYellow,Conditions/Version_1/BlueFearStop.xlsx,no,PASS,0.7313165030586903,,,,,,,,,0,0,0,0,0,1,1,1,0,8,8,8,,,,,,,,,,,,,,,,,,,,,,,,,,,,,,,,,,,,,,,,,,,,,,,,,,,,,,,,,,,,,,,,,,,,,,,,,,,,,,,1.5,490.413591099903,None,space,1,492.023475300055,None,492.023475300055,None,492.023475300055,None,0.3659777999855578,,,,,,,,,,,P014,fencog,1,Pre,2021_Oct_19_1052,Go No-Go Task,2021.1.4,119.7072918979771,
,"Rule: When you see blue image, do not press 'spacebar'.",Images/Happy/BF18_HO.jpg,Happy,Yellow,Images/Yellow.jpg,space,ParentConditions/YellowBlueBlue_v1.xlsx,BlueBlueYellow,Conditions/Version_1/BlueFearStop.xlsx,no,PASS,0.5715935528670182,,,,,,,,,0,0,0,0,0,1,1,1,0,9,9,9,,,,,,,,,,,,,,,,,,,,,,,,,,,,,,,,,,,,,,,,,,,,,,,,,,,,,,,,,,,,,,,,,,,,,,,,,,,,,,,1.85,492.4223437998444,None,space,1,494.3727943999693,None,494.3727943999693,None,494.3727943999693,None,0.2978777000680566,,,,,,,,,,,P014,fencog,1,Pre,2021_Oct_19_1052,Go No-Go Task,2021.1.4,119.7072918979771,
,"Rule: When you see blue image, do not press 'spacebar'.",Images/Happy/AM10HAS.jpg,Happy,Yellow,Images/Yellow.jpg,space,ParentConditions/YellowBlueBlue_v1.xlsx,BlueBlueYellow,Conditions/Version_1/BlueFearStop.xlsx,no,PASS,0.4742386996589605,,,,,,,,,0,0,0,0,0,1,1,1,0,10,10,10,,,,,,,,,,,,,,,,,,,,,,,,,,,,,,,,,,,,,,,,,,,,,,,,,,,,,,,,,,,,,,,,,,,,,,,,,,,,,,,1.56,494.78315369971097,None,space,1,496.45553959999233,None,496.45553959999233,None,496.45553959999233,None,0.26989190001040697,,,,,,,,,,,P014,fencog,1,Pre,2021_Oct_19_1052,Go No-Go Task,2021.1.4,119.7072918979771,
,"Rule: When you see blue image, do not press 'spacebar'.",Images/Happy/AM09HAS.jpg,Happy,Yellow,Images/Yellow.jpg,space,ParentConditions/YellowBlueBlue_v1.xlsx,BlueBlueYellow,Conditions/Version_1/BlueFearStop.xlsx,no,PASS,0.5791375189576048,,,,,,,,,0,0,0,0,0,1,1,1,0,11,11,11,,,,,,,,,,,,,,,,,,,,,,,,,,,,,,,,,,,,,,,,,,,,,,,,,,,,,,,,,,,,,,,,,,,,,,,,,,,,,,,1.46,496.8567487001419,None,space,1,498.42993179988116,None,498.42993179988116,None,498.42993179988116,None,0.270225299987942,,,,,,,,,,,P014,fencog,1,Pre,2021_Oct_19_1052,Go No-Go Task,2021.1.4,119.7072918979771,
,"Rule: When you see blue image, do not press 'spacebar'.",Images/Happy/AM16HAS.jpg,Happy,Yellow,Images/Yellow.jpg,space,ParentConditions/YellowBlueBlue_v1.xlsx,BlueBlueYellow,Conditions/Version_1/BlueFearStop.xlsx,no,PASS,0.06851146054747248,,,,,,,,,0,0,0,0,0,1,1,1,0,12,12,12,,,,,,,,,,,,,,,,,,,,,,,,,,,,,,,,,,,,,,,,,,,,,,,,,,,,,,,,,,,,,,,,,,,,,,,,,,,,,,,1.55,498.8340241997503,None,space,1,500.49606789974496,None,500.49606789974496,None,500.49606789974496,None,0.22472129995003343,,,,,,,,,,,P014,fencog,1,Pre,2021_Oct_19_1052,Go No-Go Task,2021.1.4,119.7072918979771,
,"Rule: When you see blue image, do not press 'spacebar'.",Images/Happy/AF10_HE.jpg,Happy,Yellow,Images/Yellow.jpg,space,ParentConditions/YellowBlueBlue_v1.xlsx,BlueBlueYellow,Conditions/Version_1/BlueFearStop.xlsx,no,PASS,0.21267371658214962,,,,,,,,,0,0,0,0,0,1,1,1,0,13,13,13,,,,,,,,,,,,,,,,,,,,,,,,,,,,,,,,,,,,,,,,,,,,,,,,,,,,,,,,,,,,,,,,,,,,,,,,,,,,,,,1.54,500.8999248999171,None,space,1,502.5537556000054,None,502.5537556000054,None,502.5537556000054,None,0.22389709996059537,,,,,,,,,,,P014,fencog,1,Pre,2021_Oct_19_1052,Go No-Go Task,2021.1.4,119.7072918979771,
,"Rule: When you see blue image, do not press 'spacebar'.",Images/Happy/AF27HAS.jpg,Happy,Yellow,Images/Yellow.jpg,space,ParentConditions/YellowBlueBlue_v1.xlsx,BlueBlueYellow,Conditions/Version_1/BlueFearStop.xlsx,no,PASS,0.8109673156723475,,,,,,,,,0,0,0,0,0,1,1,1,0,14,14,14,,,,,,,,,,,,,,,,,,,,,,,,,,,,,,,,,,,,,,,,,,,,,,,,,,,,,,,,,,,,,,,,,,,,,,,,,,,,,,,1.91,502.951928100083,None,space,1,504.9696945999749,None,504.9696945999749,None,504.9696945999749,None,0.22469380032271147,,,,,,,,,,,P014,fencog,1,Pre,2021_Oct_19_1052,Go No-Go Task,2021.1.4,119.7072918979771,
,"Rule: When you see blue image, do not press 'spacebar'.",Images/Happy/BF10_HO.jpg,Happy,Yellow,Images/Yellow.jpg,space,ParentConditions/YellowBlueBlue_v1.xlsx,BlueBlueYellow,Conditions/Version_1/BlueFearStop.xlsx,no,PASS,0.35707259862702334,,,,,,,,,0,0,0,0,0,1,1,1,0,15,15,15,,,,,,,,,,,,,,,,,,,,,,,,,,,,,,,,,,,,,,,,,,,,,,,,,,,,,,,,,,,,,,,,,,,,,,,,,,,,,,,1.98,505.3748532999307,None,space,1,507.4606622001156,None,507.4606622001156,None,507.4606622001156,None,0.25913830008357763,,,,,,,,,,,P014,fencog,1,Pre,2021_Oct_19_1052,Go No-Go Task,2021.1.4,119.7072918979771,
,"Rule: When you see blue image, do not press 'spacebar'.",Images/Happy/BF14_HO.jpg,Happy,Yellow,Images/Yellow.jpg,space,ParentConditions/YellowBlueBlue_v1.xlsx,BlueBlueYellow,Conditions/Version_1/BlueFearStop.xlsx,no,PASS,0.41712793219483124,,,,,,,,,0,0,0,0,0,1,1,1,0,16,16,16,,,,,,,,,,,,,,,,,,,,,,,,,,,,,,,,,,,,,,,,,,,,,,,,,,,,,,,,,,,,,,,,,,,,,,,,,,,,,,,1.28,507.86539979977533,None,space,1,509.25175629975274,None,509.25175629975274,None,509.25175629975274,None,0.2577384999021888,,,,,,,,,,,P014,fencog,1,Pre,2021_Oct_19_1052,Go No-Go Task,2021.1.4,119.7072918979771,
,"Rule: When you see blue image, do not press 'spacebar'.",Images/Fearful/BM08_FC.jpg,Fear,Blue,Images/Blue.jpg,None,ParentConditions/YellowBlueBlue_v1.xlsx,BlueBlueYellow,Conditions/Version_1/BlueFearStop.xlsx,yes,PASS,0.2777606849347436,,,,,,,,,0,0,0,0,0,1,1,1,0,17,17,17,,,,,,,,,,,,,,,,,,,,,,,,,,,,,,,,,,,,,,,,,,,,,,,,,,,,,,,,,,,,,,,,,,,,,,,,,,,,,,,1.74,509.65767459990457,None,space,0,511.50989850005135,None,511.50989850005135,None,511.50989850005135,None,0.23975510010495782,,,,,,,,,,,P014,fencog,1,Pre,2021_Oct_19_1052,Go No-Go Task,2021.1.4,119.7072918979771,
,"Rule: When you see blue image, do not press 'spacebar'.",Images/Happy/AM01HAS.jpg,Happy,Yellow,Images/Yellow.jpg,space,ParentConditions/YellowBlueBlue_v1.xlsx,BlueBlueYellow,Conditions/Version_1/BlueFearStop.xlsx,no,PASS,0.43160138117116176,,,,,,,,,0,0,0,0,0,1,1,1,0,18,18,18,,,,,,,,,,,,,,,,,,,,,,,,,,,,,,,,,,,,,,,,,,,,,,,,,,,,,,,,,,,,,,,,,,,,,,,,,,,,,,,1.37,511.90833829995245,None,space,1,513.3922611000016,None,513.3922611000016,None,513.3922611000016,None,0.2575823999941349,,,,,,,,,,,P014,fencog,1,Pre,2021_Oct_19_1052,Go No-Go Task,2021.1.4,119.7072918979771,
,"Rule: When you see blue image, do not press 'spacebar'.",Images/Happy/AF11HAS.jpg,Happy,Yellow,Images/Yellow.jpg,space,ParentConditions/YellowBlueBlue_v1.xlsx,BlueBlueYellow,Conditions/Version_1/BlueFearStop.xlsx,no,PASS,0.9696898199968184,,,,,,,,,0,0,0,0,0,1,1,1,0,19,19,19,,,,,,,,,,,,,,,,,,,,,,,,,,,,,,,,,,,,,,,,,,,,,,,,,,,,,,,,,,,,,,,,,,,,,,,,,,,,,,,1.2,513.7958364998922,None,space,1,515.1000401000492,None,515.1000401000492,None,515.1000401000492,None,0.2849485999904573,,,,,,,,,,,P014,fencog,1,Pre,2021_Oct_19_1052,Go No-Go Task,2021.1.4,119.7072918979771,
,"Rule: When you see blue image, do not press 'spacebar'.",Images/Happy/BM01_HO.jpg,Happy,Yellow,Images/Yellow.jpg,space,ParentConditions/YellowBlueBlue_v1.xlsx,BlueBlueYellow,Conditions/Version_1/BlueFearStop.xlsx,no,PASS,0.40182091251260654,,,,,,,,,0,0,0,0,0,1,1,1,0,20,20,20,,,,,,,,,,,,,,,,,,,,,,,,,,,,,,,,,,,,,,,,,,,,,,,,,,,,,,,,,,,,,,,,,,,,,,,,,,,,,,,1.26,515.5108302999288,None,None,0,516.8828349001706,None,516.8828349001706,None,516.8828349001706,None,,,,,,,,,,,,P014,fencog,1,Pre,2021_Oct_19_1052,Go No-Go Task,2021.1.4,119.7072918979771,
,"Rule: When you see blue image, do not press 'spacebar'.",Images/Happy/AF07_HO.jpg,Happy,Yellow,Images/Yellow.jpg,space,ParentConditions/YellowBlueBlue_v1.xlsx,BlueBlueYellow,Conditions/Version_1/BlueFearStop.xlsx,no,PASS,0.304860645067783,,,,,,,,,0,0,0,0,0,1,1,1,0,21,21,21,,,,,,,,,,,,,,,,,,,,,,,,,,,,,,,,,,,,,,,,,,,,,,,,,,,,,,,,,,,,,,,,,,,,,,,,,,,,,,,1.81,517.2877648998983,None,space,1,519.2071525999345,None,519.2071525999345,None,519.2071525999345,None,0.2820514999330044,,,,,,,,,,,P014,fencog,1,Pre,2021_Oct_19_1052,Go No-Go Task,2021.1.4,119.7072918979771,
,"Rule: When you see blue image, do not press 'spacebar'.",Images/Happy/HM06_HO.jpg,Happy,Yellow,Images/Yellow.jpg,space,ParentConditions/YellowBlueBlue_v1.xlsx,BlueBlueYellow,Conditions/Version_1/BlueFearStop.xlsx,no,PASS,0.3928744637511502,,,,,,,,,0,0,0,0,0,1,1,1,0,22,22,22,,,,,,,,,,,,,,,,,,,,,,,,,,,,,,,,,,,,,,,,,,,,,,,,,,,,,,,,,,,,,,,,,,,,,,,,,,,,,,,1.22,519.6080061998218,None,space,1,520.9400422000326,None,520.9400422000326,None,520.9400422000326,None,0.31448059994727373,,,,,,,,,,,P014,fencog,1,Pre,2021_Oct_19_1052,Go No-Go Task,2021.1.4,119.7072918979771,
,"Rule: When you see blue image, do not press 'spacebar'.",Images/Fearful/AM09_FO.jpg,Fear,Blue,Images/Blue.jpg,None,ParentConditions/YellowBlueBlue_v1.xlsx,BlueBlueYellow,Conditions/Version_1/BlueFearStop.xlsx,yes,PASS,0.17130222782280535,,,,,,,,,0,0,0,0,0,1,1,1,0,23,23,23,,,,,,,,,,,,,,,,,,,,,,,,,,,,,,,,,,,,,,,,,,,,,,,,,,,,,,,,,,,,,,,,,,,,,,,,,,,,,,,1.53,521.3375264997594,None,None,1,522.9810599000193,None,522.9810599000193,None,522.9810599000193,None,,,,,,,,,,,,P014,fencog,1,Pre,2021_Oct_19_1052,Go No-Go Task,2021.1.4,119.7072918979771,
,"Rule: When you see blue image, do not press 'spacebar'.",Images/Happy/AF09HAS.jpg,Happy,Yellow,Images/Yellow.jpg,space,ParentConditions/YellowBlueBlue_v1.xlsx,BlueBlueYellow,Conditions/Version_1/BlueFearStop.xlsx,no,PASS,0.32050850835393896,,,,,,,,,0,0,0,0,0,1,1,1,0,24,24,24,,,,,,,,,,,,,,,,,,,,,,,,,,,,,,,,,,,,,,,,,,,,,,,,,,,,,,,,,,,,,,,,,,,,,,,,,,,,,,,1.33,523.3793162000366,None,space,1,524.8221521000378,None,524.8221521000378,None,524.8221521000378,None,0.2747876001521945,,,,,,,,,,,P014,fencog,1,Pre,2021_Oct_19_1052,Go No-Go Task,2021.1.4,119.7072918979771,
,"Rule: When you see blue image, do not press 'spacebar'.",Images/Happy/AM04HAS.jpg,Happy,Yellow,Images/Yellow.jpg,space,ParentConditions/YellowBlueBlue_v1.xlsx,BlueBlueYellow,Conditions/Version_1/BlueFearStop.xlsx,no,PASS,0.17004201555218557,,,,,,,,,0,0,0,0,0,1,1,1,0,25,25,25,,,,,,,,,,,,,,,,,,,,,,,,,,,,,,,,,,,,,,,,,,,,,,,,,,,,,,,,,,,,,,,,,,,,,,,,,,,,,,,1.42,525.2248130999506,None,space,1,526.7550122998655,None,526.7550122998655,None,526.7550122998655,None,0.3065886003896594,,,,,,,,,,,P014,fencog,1,Pre,2021_Oct_19_1052,Go No-Go Task,2021.1.4,119.7072918979771,
,"Rule: When you see blue image, do not press 'spacebar'.",Images/Happy/BF07_HO.jpg,Happy,Yellow,Images/Yellow.jpg,space,ParentConditions/YellowBlueBlue_v1.xlsx,BlueBlueYellow,Conditions/Version_1/BlueFearStop.xlsx,no,PASS,0.9775255982448644,,,,,,,,,0,0,0,0,0,1,1,1,0,26,26,26,,,,,,,,,,,,,,,,,,,,,,,,,,,,,,,,,,,,,,,,,,,,,,,,,,,,,,,,,,,,,,,,,,,,,,,,,,,,,,,1.75,527.1582629000768,None,space,1,529.0209408998489,None,529.0209408998489,None,529.0209408998489,None,0.35960600012913346,,,,,,,,,,,P014,fencog,1,Pre,2021_Oct_19_1052,Go No-Go Task,2021.1.4,119.7072918979771,
,"Rule: When you see blue image, do not press 'spacebar'.",Images/Happy/AF02HAS.jpg,Happy,Yellow,Images/Yellow.jpg,space,ParentConditions/YellowBlueBlue_v1.xlsx,BlueBlueYellow,Conditions/Version_1/BlueFearStop.xlsx,no,PASS,0.9926707513295598,,,,,,,,,0,0,0,0,0,1,1,1,0,27,27,27,,,,,,,,,,,,,,,,,,,,,,,,,,,,,,,,,,,,,,,,,,,,,,,,,,,,,,,,,,,,,,,,,,,,,,,,,,,,,,,1.82,529.4223262998275,None,space,1,531.3452405999415,None,531.3452405999415,None,531.3452405999415,None,0.2843867000192404,,,,,,,,,,,P014,fencog,1,Pre,2021_Oct_19_1052,Go No-Go Task,2021.1.4,119.7072918979771,
,"Rule: When you see blue image, do not press 'spacebar'.",Images/Happy/AM30HAS.jpg,Happy,Yellow,Images/Yellow.jpg,space,ParentConditions/YellowBlueBlue_v1.xlsx,BlueBlueYellow,Conditions/Version_1/BlueFearStop.xlsx,no,PASS,0.6844901636445411,,,,,,,,,0,0,0,0,0,1,1,1,0,28,28,28,,,,,,,,,,,,,,,,,,,,,,,,,,,,,,,,,,,,,,,,,,,,,,,,,,,,,,,,,,,,,,,,,,,,,,,,,,,,,,,1.96,531.7561953999102,None,space,1,533.8198500000872,None,533.8198500000872,None,533.8198500000872,None,0.27046879986301064,,,,,,,,,,,P014,fencog,1,Pre,2021_Oct_19_1052,Go No-Go Task,2021.1.4,119.7072918979771,
,"Rule: When you see blue image, do not press 'spacebar'.",Images/Happy/BF05_HO.jpg,Happy,Yellow,Images/Yellow.jpg,space,ParentConditions/YellowBlueBlue_v1.xlsx,BlueBlueYellow,Conditions/Version_1/BlueFearStop.xlsx,no,PASS,0.010815687417666808,,,,,,,,,0,0,0,0,0,1,1,1,0,29,29,29,,,,,,,,,,,,,,,,,,,,,,,,,,,,,,,,,,,,,,,,,,,,,,,,,,,,,,,,,,,,,,,,,,,,,,,,,,,,,,,1.52,534.2269163001329,None,space,1,535.8523091999814,None,535.8523091999814,None,535.8523091999814,None,0.251643099822104,,,,,,,,,,,P014,fencog,1,Pre,2021_Oct_19_1052,Go No-Go Task,2021.1.4,119.7072918979771,
,"Rule: When you see blue image, do not press 'spacebar'.",Images/Fearful/AF25AFS.jpg,Fear,Blue,Images/Blue.jpg,None,ParentConditions/YellowBlueBlue_v1.xlsx,BlueBlueYellow,Conditions/Version_1/BlueFearStop.xlsx,yes,PASS,0.35816317389786545,,,,,,,,,0,0,0,0,0,1,1,1,0,30,30,30,,,,,,,,,,,,,,,,,,,,,,,,,,,,,,,,,,,,,,,,,,,,,,,,,,,,,,,,,,,,,,,,,,,,,,,,,,,,,,,1.8,536.2595697999932,None,space,0,538.1682966998778,None,538.1682966998778,None,538.1682966998778,None,0.2307559996843338,,,,,,,,,,,P014,fencog,1,Pre,2021_Oct_19_1052,Go No-Go Task,2021.1.4,119.7072918979771,
,"Rule: When you see blue image, do not press 'spacebar'.",Images/Happy/BF09_HO.jpg,Happy,Yellow,Images/Yellow.jpg,space,ParentConditions/YellowBlueBlue_v1.xlsx,BlueBlueYellow,Conditions/Version_1/BlueFearStop.xlsx,no,PASS,0.3783419276063734,,,,,,,,,0,0,0,0,0,1,1,1,0,31,31,31,,,,,,,,,,,,,,,,,,,,,,,,,,,,,,,,,,,,,,,,,,,,,,,,,,,,,,,,,,,,,,,,,,,,,,,,,,,,,,,1.41,538.568826300092,None,space,1,540.0928540998138,None,540.0928540998138,None,540.0928540998138,None,0.3547494998201728,,,,,,,,,,,P014,fencog,1,Pre,2021_Oct_19_1052,Go No-Go Task,2021.1.4,119.7072918979771,
,"Rule: When you see blue image, do not press 'spacebar'.",Images/Happy/AM09_HE.jpg,Happy,Yellow,Images/Yellow.jpg,space,ParentConditions/YellowBlueBlue_v1.xlsx,BlueBlueYellow,Conditions/Version_1/BlueFearStop.xlsx,no,PASS,0.21016465424314756,,,,,,,,,0,0,0,0,0,1,1,1,0,32,32,32,,,,,,,,,,,,,,,,,,,,,,,,,,,,,,,,,,,,,,,,,,,,,,,,,,,,,,,,,,,,,,,,,,,,,,,,,,,,,,,1.65,540.4947036998346,None,space,1,542.2587302001193,None,542.2587302001193,None,542.2587302001193,None,0.27774549974128604,,,,,,,,,,,P014,fencog,1,Pre,2021_Oct_19_1052,Go No-Go Task,2021.1.4,119.7072918979771,
,"Rule: When you see blue image, do not press 'spacebar'.",Images/Fearful/BF14_FO.jpg,Fear,Blue,Images/Blue.jpg,None,ParentConditions/YellowBlueBlue_v1.xlsx,BlueBlueYellow,Conditions/Version_1/BlueFearStop.xlsx,yes,PASS,0.9618360969741386,,,,,,,,,0,0,0,0,0,1,1,1,0,33,33,33,,,,,,,,,,,,,,,,,,,,,,,,,,,,,,,,,,,,,,,,,,,,,,,,,,,,,,,,,,,,,,,,,,,,,,,,,,,,,,,1.79,542.6572854998522,None,None,1,544.5581692997366,None,544.5581692997366,None,544.5581692997366,None,,,,,,,,,,,,P014,fencog,1,Pre,2021_Oct_19_1052,Go No-Go Task,2021.1.4,119.7072918979771,
,"Rule: When you see blue image, do not press 'spacebar'.",Images/Fearful/HF05_FC.jpg,Fear,Blue,Images/Blue.jpg,None,ParentConditions/YellowBlueBlue_v1.xlsx,BlueBlueYellow,Conditions/Version_1/BlueFearStop.xlsx,yes,PASS,0.005236598035567086,,,,,,,,,0,0,0,0,0,1,1,1,0,34,34,34,,,,,,,,,,,,,,,,,,,,,,,,,,,,,,,,,,,,,,,,,,,,,,,,,,,,,,,,,,,,,,,,,,,,,,,,,,,,,,,1.94,544.9571090997197,None,None,1,547.0079600000754,None,547.0079600000754,None,547.0079600000754,None,,,,,,,,,,,,P014,fencog,1,Pre,2021_Oct_19_1052,Go No-Go Task,2021.1.4,119.7072918979771,
,"Rule: When you see blue image, do not press 'spacebar'.",Images/Happy/AM23HAS.jpg,Happy,Yellow,Images/Yellow.jpg,space,ParentConditions/YellowBlueBlue_v1.xlsx,BlueBlueYellow,Conditions/Version_1/BlueFearStop.xlsx,no,PASS,0.13077339503157293,,,,,,,,,0,0,0,0,0,1,1,1,0,35,35,35,,,,,,,,,,,,,,,,,,,,,,,,,,,,,,,,,,,,,,,,,,,,,,,,,,,,,,,,,,,,,,,,,,,,,,,,,,,,,,,1.61,547.4050930999219,None,space,1,549.1162727000192,None,549.1162727000192,None,549.1162727000192,None,0.30100659979507327,,,,,,,,,,,P014,fencog,1,Pre,2021_Oct_19_1052,Go No-Go Task,2021.1.4,119.7072918979771,
,"Rule: When you see blue image, do not press 'spacebar'.",Images/Happy/AM03_HO.jpg,Happy,Yellow,Images/Yellow.jpg,space,ParentConditions/YellowBlueBlue_v1.xlsx,BlueBlueYellow,Conditions/Version_1/BlueFearStop.xlsx,no,PASS,0.29520703840296547,,,,,,,,,0,0,0,0,0,1,1,1,0,36,36,36,,,,,,,,,,,,,,,,,,,,,,,,,,,,,,,,,,,,,,,,,,,,,,,,,,,,,,,,,,,,,,,,,,,,,,,,,,,,,,,1.58,549.5263168998063,None,space,1,551.2145000998862,None,551.2145000998862,None,551.2145000998862,None,0.2968418998643756,,,,,,,,,,,P014,fencog,1,Pre,2021_Oct_19_1052,Go No-Go Task,2021.1.4,119.7072918979771,
,"Rule: When you see blue image, do not press 'spacebar'.",Images/Happy/AF25HAS.jpg,Happy,Yellow,Images/Yellow.jpg,space,ParentConditions/YellowBlueBlue_v1.xlsx,BlueBlueYellow,Conditions/Version_1/BlueFearStop.xlsx,no,PASS,0.3205802973983102,,,,,,,,,0,0,0,0,0,1,1,1,0,37,37,37,,,,,,,,,,,,,,,,,,,,,,,,,,,,,,,,,,,,,,,,,,,,,,,,,,,,,,,,,,,,,,,,,,,,,,,,,,,,,,,1.39,551.6126107997261,None,space,1,553.1138971997425,None,553.1138971997425,None,553.1138971997425,None,0.2924299002625048,,,,,,,,,,,P014,fencog,1,Pre,2021_Oct_19_1052,Go No-Go Task,2021.1.4,119.7072918979771,
,"Rule: When you see blue image, do not press 'spacebar'.",Images/Happy/BM08_HO.jpg,Happy,Yellow,Images/Yellow.jpg,space,ParentConditions/YellowBlueBlue_v1.xlsx,BlueBlueYellow,Conditions/Version_1/BlueFearStop.xlsx,no,PASS,0.9250231228335681,,,,,,,,,0,0,0,0,0,1,1,1,0,38,38,38,,,,,,,,,,,,,,,,,,,,,,,,,,,,,,,,,,,,,,,,,,,,,,,,,,,,,,,,,,,,,,,,,,,,,,,,,,,,,,,1.95,553.5154479998164,None,space,1,555.579787499737,None,555.579787499737,None,555.579787499737,None,0.2555142999626696,,,,,,,,,,,P014,fencog,1,Pre,2021_Oct_19_1052,Go No-Go Task,2021.1.4,119.7072918979771,
,"Rule: When you see blue image, do not press 'spacebar'.",Images/Happy/AF32HAS.jpg,Happy,Yellow,Images/Yellow.jpg,space,ParentConditions/YellowBlueBlue_v1.xlsx,BlueBlueYellow,Conditions/Version_1/BlueFearStop.xlsx,no,PASS,0.73804934699979,,,,,,,,,0,0,0,0,0,1,1,1,0,39,39,39,,,,,,,,,,,,,,,,,,,,,,,,,,,,,,,,,,,,,,,,,,,,,,,,,,,,,,,,,,,,,,,,,,,,,,,,,,,,,,,1.92,555.9812376000918,None,None,0,558.0124232997186,None,558.0124232997186,None,558.0124232997186,None,,,,,,,,,,,,P014,fencog,1,Pre,2021_Oct_19_1052,Go No-Go Task,2021.1.4,119.7072918979771,
,"Rule: When you see blue image, do not press 'spacebar'.",Images/Happy/AF23HAS.jpg,Happy,Yellow,Images/Yellow.jpg,space,ParentConditions/YellowBlueBlue_v1.xlsx,BlueBlueYellow,Conditions/Version_1/BlueFearStop.xlsx,no,PASS,0.9000246195519893,,,,,,,,,0,0,0,0,0,1,1,1,0,40,40,40,,,,,,,,,,,,,,,,,,,,,,,,,,,,,,,,,,,,,,,,,,,,,,,,,,,,,,,,,,,,,,,,,,,,,,,,,,,,,,,1.88,558.4153372999281,None,space,1,560.4117419999093,None,560.4117419999093,None,560.4117419999093,None,0.283555599860847,,,,,,,,,,,P014,fencog,1,Pre,2021_Oct_19_1052,Go No-Go Task,2021.1.4,119.7072918979771,
,"Rule: When you see blue image, do not press 'spacebar'.",Images/Happy/AM32HAS.jpg,Happy,Yellow,Images/Yellow.jpg,space,ParentConditions/YellowBlueBlue_v1.xlsx,BlueBlueYellow,Conditions/Version_1/BlueFearStop.xlsx,no,PASS,0.738989629625258,,,,,,,,,0,0,0,0,0,1,1,1,0,41,41,41,,,,,,,,,,,,,,,,,,,,,,,,,,,,,,,,,,,,,,,,,,,,,,,,,,,,,,,,,,,,,,,,,,,,,,,,,,,,,,,1.24,560.8093830998987,None,space,1,562.1529679000378,None,562.1529679000378,None,562.1529679000378,None,0.25346199981868267,,,,,,,,,,,P014,fencog,1,Pre,2021_Oct_19_1052,Go No-Go Task,2021.1.4,119.7072918979771,
,"Rule: When you see blue image, do not press 'spacebar'.",Images/Fearful/AM30AFS.jpg,Fear,Blue,Images/Blue.jpg,None,ParentConditions/YellowBlueBlue_v1.xlsx,BlueBlueYellow,Conditions/Version_1/BlueFearStop.xlsx,yes,PASS,0.33529906039128465,,,,,,,,,0,0,0,0,0,1,1,1,0,42,42,42,,,,,,,,,,,,,,,,,,,,,,,,,,,,,,,,,,,,,,,,,,,,,,,,,,,,,,,,,,,,,,,,,,,,,,,,,,,,,,,1.21,562.5628999001347,None,None,1,563.877433499787,None,563.877433499787,None,563.877433499787,None,,,,,,,,,,,,P014,fencog,1,Pre,2021_Oct_19_1052,Go No-Go Task,2021.1.4,119.7072918979771,
,"Rule: When you see blue image, do not press 'spacebar'.",Images/Happy/BM02_HO.jpg,Happy,Yellow,Images/Yellow.jpg,space,ParentConditions/YellowBlueBlue_v1.xlsx,BlueBlueYellow,Conditions/Version_1/BlueFearStop.xlsx,no,PASS,0.711648218321579,,,,,,,,,0,0,0,0,0,1,1,1,0,43,43,43,,,,,,,,,,,,,,,,,,,,,,,,,,,,,,,,,,,,,,,,,,,,,,,,,,,,,,,,,,,,,,,,,,,,,,,,,,,,,,,1.44,564.2836758000776,None,space,1,565.8352342001162,None,565.8352342001162,None,565.8352342001162,None,0.2552124997600913,,,,,,,,,,,P014,fencog,1,Pre,2021_Oct_19_1052,Go No-Go Task,2021.1.4,119.7072918979771,
,"Rule: When you see blue image, do not press 'spacebar'.",Images/Happy/AM10_HO.jpg,Happy,Yellow,Images/Yellow.jpg,space,ParentConditions/YellowBlueBlue_v1.xlsx,BlueBlueYellow,Conditions/Version_1/BlueFearStop.xlsx,no,PASS,0.7811025651589869,,,,,,,,,0,0,0,0,0,1,1,1,0,44,44,44,,,,,,,,,,,,,,,,,,,,,,,,,,,,,,,,,,,,,,,,,,,,,,,,,,,,,,,,,,,,,,,,,,,,,,,,,,,,,,,1.86,566.2378913997672,None,space,1,568.2098216000013,None,568.2098216000013,None,568.2098216000013,None,0.263845999725163,,,,,,,,,,,P014,fencog,1,Pre,2021_Oct_19_1052,Go No-Go Task,2021.1.4,119.7072918979771,
,"Rule: When you see blue image, do not press 'spacebar'.",Images/Fearful/AM10_FO.jpg,Fear,Blue,Images/Blue.jpg,None,ParentConditions/YellowBlueBlue_v1.xlsx,BlueBlueYellow,Conditions/Version_1/BlueFearStop.xlsx,yes,PASS,0.14747063444404174,,,,,,,,,0,0,0,0,0,1,1,1,0,45,45,45,,,,,,,,,,,,,,,,,,,,,,,,,,,,,,,,,,,,,,,,,,,,,,,,,,,,,,,,,,,,,,,,,,,,,,,,,,,,,,,1.47,568.6083563999273,None,None,1,570.1926261000335,None,570.1926261000335,None,570.1926261000335,None,,,,,,,,,,,,P014,fencog,1,Pre,2021_Oct_19_1052,Go No-Go Task,2021.1.4,119.7072918979771,
,"Rule: When you see blue image, do not press 'spacebar'.",Images/Happy/AF19HAS.jpg,Happy,Yellow,Images/Yellow.jpg,space,ParentConditions/YellowBlueBlue_v1.xlsx,BlueBlueYellow,Conditions/Version_1/BlueFearStop.xlsx,no,PASS,0.5734484599929517,,,,,,,,,0,0,0,0,0,1,1,1,0,46,46,46,,,,,,,,,,,,,,,,,,,,,,,,,,,,,,,,,,,,,,,,,,,,,,,,,,,,,,,,,,,,,,,,,,,,,,,,,,,,,,,1.36,570.5927812000737,None,space,1,572.0667401999235,None,572.0667401999235,None,572.0667401999235,None,0.29674920020624995,,,,,,,,,,,P014,fencog,1,Pre,2021_Oct_19_1052,Go No-Go Task,2021.1.4,119.7072918979771,
,"Rule: When you see blue image, do not press 'spacebar'.",Images/Fearful/HF09_FC.jpg,Fear,Blue,Images/Blue.jpg,None,ParentConditions/YellowBlueBlue_v1.xlsx,BlueBlueYellow,Conditions/Version_1/BlueFearStop.xlsx,yes,PASS,0.19935802832005745,,,,,,,,,0,0,0,0,0,1,1,1,0,47,47,47,,,,,,,,,,,,,,,,,,,,,,,,,,,,,,,,,,,,,,,,,,,,,,,,,,,,,,,,,,,,,,,,,,,,,,,,,,,,,,,1.68,572.4674742999487,None,None,1,574.249305000063,None,574.249305000063,None,574.249305000063,None,,,,,,,,,,,,P014,fencog,1,Pre,2021_Oct_19_1052,Go No-Go Task,2021.1.4,119.7072918979771,
,"Rule: When you see blue image, do not press 'spacebar'.",Images/Fearful/AM22AFS.jpg,Fear,Blue,Images/Blue.jpg,None,ParentConditions/YellowBlueBlue_v1.xlsx,BlueBlueYellow,Conditions/Version_1/BlueFearStop.xlsx,yes,PASS,0.17276378175067786,,,,,,,,,0,0,0,0,0,1,1,1,0,48,48,48,,,,,,,,,,,,,,,,,,,,,,,,,,,,,,,,,,,,,,,,,,,,,,,,,,,,,,,,,,,,,,,,,,,,,,,,,,,,,,,1.57,574.6568827000447,None,None,1,576.3320559998974,None,576.3320559998974,None,576.3320559998974,None,,,,,,,,,,,,P014,fencog,1,Pre,2021_Oct_19_1052,Go No-Go Task,2021.1.4,119.7072918979771,
,"Rule: When you see blue image, do not press 'spacebar'.",Images/Happy/AM06_HC.jpg,Happy,Yellow,Images/Yellow.jpg,space,ParentConditions/YellowBlueBlue_v1.xlsx,BlueBlueYellow,Conditions/Version_1/BlueFearStop.xlsx,no,PASS,0.06320185727949179,,,,,,,,,0,0,0,0,0,1,1,1,0,49,49,49,,,,,,,,,,,,,,,,,,,,,,,,,,,,,,,,,,,,,,,,,,,,,,,,,,,,,,,,,,,,,,,,,,,,,,,,,,,,,,,1.73,576.7383562000468,None,space,1,578.5730576999485,None,578.5730576999485,None,578.5730576999485,None,0.3361863000318408,,,,,,,,,,,P014,fencog,1,Pre,2021_Oct_19_1052,Go No-Go Task,2021.1.4,119.7072918979771,
,"Rule: When you see blue image, do not press 'spacebar'.",Images/Fearful/AM32AFS.jpg,Fear,Blue,Images/Blue.jpg,None,ParentConditions/YellowBlueBlue_v1.xlsx,BlueBlueYellow,Conditions/Version_1/BlueFearStop.xlsx,yes,PASS,0.03468314974069586,,,,,,,,,0,0,0,0,0,1,1,1,0,50,50,50,,,,,,,,,,,,,,,,,,,,,,,,,,,,,,,,,,,,,,,,,,,,,,,,,,,,,,,,,,,,,,,,,,,,,,,,,,,,,,,1.45,578.9784186999314,None,None,1,580.5308559997939,None,580.5308559997939,None,580.5308559997939,None,,,,,,,,,,,,P014,fencog,1,Pre,2021_Oct_19_1052,Go No-Go Task,2021.1.4,119.7072918979771,
,"Rule: When you see blue image, do not press 'spacebar'.",Images/Happy/WF11_HE.jpg,Happy,Yellow,Images/Yellow.jpg,space,ParentConditions/YellowBlueBlue_v1.xlsx,BlueBlueYellow,Conditions/Version_1/BlueFearStop.xlsx,no,PASS,0.5138011133022752,,,,,,,,,0,0,0,0,0,1,1,1,0,51,51,51,,,,,,,,,,,,,,,,,,,,,,,,,,,,,,,,,,,,,,,,,,,,,,,,,,,,,,,,,,,,,,,,,,,,,,,,,,,,,,,1.27,580.9359773998149,None,space,1,582.3219571998343,None,582.3219571998343,None,582.3219571998343,None,0.25700980005785823,,,,,,,,,,,P014,fencog,1,Pre,2021_Oct_19_1052,Go No-Go Task,2021.1.4,119.7072918979771,
,"Rule: When you see blue image, do not press 'spacebar'.",Images/Fearful/AF28AFS.jpg,Fear,Blue,Images/Blue.jpg,None,ParentConditions/YellowBlueBlue_v1.xlsx,BlueBlueYellow,Conditions/Version_1/BlueFearStop.xlsx,yes,PASS,0.30204493442130675,,,,,,,,,0,0,0,0,0,1,1,1,0,52,52,52,,,,,,,,,,,,,,,,,,,,,,,,,,,,,,,,,,,,,,,,,,,,,,,,,,,,,,,,,,,,,,,,,,,,,,,,,,,,,,,1.64,582.7224984001368,None,None,1,584.4713175999932,None,584.4713175999932,None,584.4713175999932,None,,,,,,,,,,,,P014,fencog,1,Pre,2021_Oct_19_1052,Go No-Go Task,2021.1.4,119.7072918979771,
,"Rule: When you see blue image, do not press 'spacebar'.",Images/Happy/HF04_HE.jpg,Happy,Yellow,Images/Yellow.jpg,space,ParentConditions/YellowBlueBlue_v1.xlsx,BlueBlueYellow,Conditions/Version_1/BlueFearStop.xlsx,no,PASS,0.05385370360405073,,,,,,,,,0,0,0,0,0,1,1,1,0,53,53,53,,,,,,,,,,,,,,,,,,,,,,,,,,,,,,,,,,,,,,,,,,,,,,,,,,,,,,,,,,,,,,,,,,,,,,,,,,,,,,,1.9,584.8720080000348,None,space,1,586.8873151997104,None,586.8873151997104,None,586.8873151997104,None,0.2956259003840387,,,,,,,,,,,P014,fencog,1,Pre,2021_Oct_19_1052,Go No-Go Task,2021.1.4,119.7072918979771,
,"Rule: When you see blue image, do not press 'spacebar'.",Images/Happy/AM13HAS.jpg,Happy,Yellow,Images/Yellow.jpg,space,ParentConditions/YellowBlueBlue_v1.xlsx,BlueBlueYellow,Conditions/Version_1/BlueFearStop.xlsx,no,PASS,0.9978120552242631,,,,,,,,,0,0,0,0,0,1,1,1,0,54,54,54,,,,,,,,,,,,,,,,,,,,,,,,,,,,,,,,,,,,,,,,,,,,,,,,,,,,,,,,,,,,,,,,,,,,,,,,,,,,,,,1.48,587.2887126998976,None,space,1,588.8783343001269,None,588.8783343001269,None,588.8783343001269,None,0.2586930999532342,,,,,,,,,,,P014,fencog,1,Pre,2021_Oct_19_1052,Go No-Go Task,2021.1.4,119.7072918979771,
,"Rule: When you see blue image, do not press 'spacebar'.",Images/Happy/HF10_HE.jpg,Happy,Yellow,Images/Yellow.jpg,space,ParentConditions/YellowBlueBlue_v1.xlsx,BlueBlueYellow,Conditions/Version_1/BlueFearStop.xlsx,no,PASS,0.7658265452728541,,,,,,,,,0,0,0,0,0,1,1,1,0,55,55,55,,,,,,,,,,,,,,,,,,,,,,,,,,,,,,,,,,,,,,,,,,,,,,,,,,,,,,,,,,,,,,,,,,,,,,,,,,,,,,,1.62,589.2799720000476,None,space,1,591.0032691997476,None,591.0032691997476,None,591.0032691997476,None,0.2741585001349449,,,,,,,,,,,P014,fencog,1,Pre,2021_Oct_19_1052,Go No-Go Task,2021.1.4,119.7072918979771,
,"Rule: When you see blue image, do not press 'spacebar'.",Images/Happy/AM04_HE.jpg,Happy,Yellow,Images/Yellow.jpg,space,ParentConditions/YellowBlueBlue_v1.xlsx,BlueBlueYellow,Conditions/Version_1/BlueFearStop.xlsx,no,PASS,0.8987539961300183,,,,,,,,,0,0,0,0,0,1,1,1,0,56,56,56,,,,,,,,,,,,,,,,,,,,,,,,,,,,,,,,,,,,,,,,,,,,,,,,,,,,,,,,,,,,,,,,,,,,,,,,,,,,,,,1.49,591.4079175000079,None,space,1,593.011418600101,None,593.011418600101,None,593.011418600101,None,0.26398189971223474,,,,,,,,,,,P014,fencog,1,Pre,2021_Oct_19_1052,Go No-Go Task,2021.1.4,119.7072918979771,
