CondFileP,Instructions,FaceE,Express,ColourT,ColourF,CorrectAnsP,MasterCondFile,BlockOrder,CondFile,ColCheck,Triplicate_check,SORT_BY_SMALLEST,EPracticeOuterLoop.thisRepN,EPracticeOuterLoop.thisTrialN,EPracticeOuterLoop.thisN,EPracticeOuterLoop.thisIndex,EPracticeInnerLoop.thisRepN,EPracticeInnerLoop.thisTrialN,EPracticeInnerLoop.thisN,EPracticeInnerLoop.thisIndex,MasterLoop.thisRepN,MasterLoop.thisTrialN,MasterLoop.thisN,MasterLoop.thisIndex,OuterLoop.thisRepN,OuterLoop.thisTrialN,OuterLoop.thisN,OuterLoop.thisIndex,InnerLoop.thisRepN,InnerLoop.thisTrialN,InnerLoop.thisN,InnerLoop.thisIndex,text_13.started,text_13.stopped,key_resp_10.keys,key_resp_10.rt,key_resp_10.started,key_resp_10.stopped,text4.started,text4.stopped,EmotionTaskInstructions1.keys,EmotionTaskInstructions1.rt,EmotionTaskInstructions1.started,EmotionTaskInstructions1.stopped,text_4.started,text_4.stopped,key_resp_5.keys,key_resp_5.rt,key_resp_5.started,key_resp_5.stopped,Text_14.started,Text_14.stopped,key_resp_9.keys,key_resp_9.rt,key_resp_9.started,key_resp_9.stopped,text_5.started,text_5.stopped,text_6.started,text_6.stopped,key_resp_7.keys,key_resp_7.rt,key_resp_7.started,key_resp_7.stopped,text_10.started,text_10.stopped,text_11.started,text_11.stopped,text_12.started,text_12.stopped,ISIjitterPractice,EPracticeISIMarker.started,EPracticeISIMarker.stopped,Pract.keys,Pract.corr,Pract.started,Pract.stopped,PracticeFace.started,PracticeFace.stopped,ColourPractice.started,ColourPractice.stopped,text_7.started,text_7.stopped,Pract.rt,EndOfPractice.started,EndOfPractice.stopped,key_resp_8.keys,key_resp_8.rt,key_resp_8.started,key_resp_8.stopped,text_8.started,text_8.stopped,key_resp_6.keys,key_resp_6.rt,key_resp_6.started,key_resp_6.stopped,text_2.started,text_2.stopped,text_3.started,text_3.stopped,key_resp_3.keys,key_resp_3.rt,key_resp_3.started,key_resp_3.stopped,TaskBlock.started,TaskBlock.stopped,BlockNo1.started,BlockNo1.stopped,OfBlock.started,OfBlock.stopped,ISIjitter,ISImarker.started,ISImarker.stopped,key_resp.keys,key_resp.corr,key_resp.rt,key_resp.started,key_resp.stopped,FaceSet.started,FaceSet.stopped,Colour.started,Colour.stopped,EndBlockText.started,EndBlockText.stopped,key_resp_4.keys,key_resp_4.rt,key_resp_4.started,key_resp_4.stopped,BreakText2.started,BreakText2.stopped,PressToContinue.started,PressToContinue.stopped,participant,Study Name,Task Version (required to run),PRE/POST,date,expName,psychopyVersion,frameRate,
,,,,,,,,,,,,,,,,,,,,,,,,,,,,,,,,,29.290597700048238,None,space,205.33671359997243,30.28109270008281,None,,,,,,,,,,,,,,,,,,,,,,,,,,,,,,,,,,,,,,,,,,,,,,,,,,,,,,,,,,,,,,,,,,,,,,,,,,,,,,,,,,,,,,,,,,,,,,,P015,fencog,1,Pre,2021_Oct_20_1041,Go No-Go Task,2021.1.4,120.22019536302781,
,,,,,,,,,,,,,,,,,,,,,,,,,,,,,,,,,,,,,,,237.1211081999354,None,space,-0.2789413998834789,237.1211081999354,None,,,,,,,,,,,,,,,,,,,,,,,,,,,,,,,,,,,,,,,,,,,,,,,,,,,,,,,,,,,,,,,,,,,,,,,,,,,,,,,,,,,,,,,,,P015,fencog,1,Pre,2021_Oct_20_1041,Go No-Go Task,2021.1.4,120.22019536302781,
,,,,,,,,,,,,,,,,,,,,,,,,,,,,,,,,,,,,,,,,,,,,,237.18566819978878,None,space,8.629512900020927,237.18566819978878,None,,,,,,,,,,,,,,,,,,,,,,,,,,,,,,,,,,,,,,,,,,,,,,,,,,,,,,,,,,,,,,,,,,,,,,,,,,,,,,,,,,,P015,fencog,1,Pre,2021_Oct_20_1041,Go No-Go Task,2021.1.4,120.22019536302781,
,,,,,,,,,,,,,,,,,,,,,,,,,,,,,,,,,,,,,,,,,,,,,,,,,,,245.82838270021603,None,space,11.359219800215214,245.82838270021603,None,,,,,,,,,,,,,,,,,,,,,,,,,,,,,,,,,,,,,,,,,,,,,,,,,,,,,,,,,,,,,,,,,,,,,,,,,,,,,P015,fencog,1,Pre,2021_Oct_20_1041,Go No-Go Task,2021.1.4,120.22019536302781,
EPracticeConditions/BlueEyes.csv,"Rule: When you see a blue image, do not press 'spacebar'.",Images/Happy/HF09_HE.jpg,Happy,Yellow,Images/Yellow.jpg,space,,,,,,,0,0,0,0,0,0,0,6,,,,,,,,,,,,,,,,,,,,,,,,,,,,,,,,,,,,,257.27564609982073,None,260.26099570002407,None,space,4.253226300235838,260.26099570002407,None,257.27564609982073,None,257.27564609982073,None,257.27564609982073,None,1.8,264.65974339982495,None,None,0,266.6081844000146,None,266.6081844000146,None,266.6081844000146,None,268.16771780001,None,,,,,,,,,,,,,,,,,,,,,,,,,,,,,,,,,,,,,,,,,,,,,,,,,,P015,fencog,1,Pre,2021_Oct_20_1041,Go No-Go Task,2021.1.4,120.22019536302781,
EPracticeConditions/BlueEyes.csv,"Rule: When you see a blue image, do not press 'spacebar'.",Images/Happy/HF04_HE.jpg,Happy,Yellow,Images/Yellow.jpg,space,,,,,,,0,0,0,0,0,1,1,4,,,,,,,,,,,,,,,,,,,,,,,,,,,,,,,,,,,,,,,,,,,,,,,,,,,1.7,269.4964462001808,None,None,0,271.30014509987086,None,271.30014509987086,None,271.30014509987086,None,272.20089490013197,None,,,,,,,,,,,,,,,,,,,,,,,,,,,,,,,,,,,,,,,,,,,,,,,,,,P015,fencog,1,Pre,2021_Oct_20_1041,Go No-Go Task,2021.1.4,120.22019536302781,
EPracticeConditions/BlueEyes.csv,"Rule: When you see a blue image, do not press 'spacebar'.",Images/Happy/BM02_HO.jpg,Happy,Yellow,Images/Yellow.jpg,space,,,,,,,0,0,0,0,0,2,2,2,,,,,,,,,,,,,,,,,,,,,,,,,,,,,,,,,,,,,,,,,,,,,,,,,,,1.9,274.2065912000835,None,space,1,276.20698660006747,None,276.20698660006747,None,276.20698660006747,None,277.1120099001564,None,0.363745900336653,,,,,,,,,,,,,,,,,,,,,,,,,,,,,,,,,,,,,,,,,,,,,,,,,P015,fencog,1,Pre,2021_Oct_20_1041,Go No-Go Task,2021.1.4,120.22019536302781,
EPracticeConditions/BlueEyes.csv,"Rule: When you see a blue image, do not press 'spacebar'.",Images/Happy/HF10_HE.jpg,Happy,Yellow,Images/Yellow.jpg,space,,,,,,,0,0,0,0,0,3,3,7,,,,,,,,,,,,,,,,,,,,,,,,,,,,,,,,,,,,,,,,,,,,,,,,,,,1.6,279.1135195000097,None,space,1,280.81390010006726,None,280.81390010006726,None,280.81390010006726,None,281.71047660009935,None,0.24479979975149035,,,,,,,,,,,,,,,,,,,,,,,,,,,,,,,,,,,,,,,,,,,,,,,,,P015,fencog,1,Pre,2021_Oct_20_1041,Go No-Go Task,2021.1.4,120.22019536302781,
EPracticeConditions/BlueEyes.csv,"Rule: When you see a blue image, do not press 'spacebar'.",Images/Fearful/HM09_FC.jpg,Fear,Blue,Images/Blue.jpg,None,,,,,,,0,0,0,0,0,4,4,0,,,,,,,,,,,,,,,,,,,,,,,,,,,,,,,,,,,,,,,,,,,,,,,,,,,1.4,283.7137603000738,None,None,1,285.2210833998397,None,285.2210833998397,None,285.2210833998397,None,286.11720199976116,None,,,,,,,,,,,,,,,,,,,,,,,,,,,,,,,,,,,,,,,,,,,,,,,,,,P015,fencog,1,Pre,2021_Oct_20_1041,Go No-Go Task,2021.1.4,120.22019536302781,
EPracticeConditions/BlueEyes.csv,"Rule: When you see a blue image, do not press 'spacebar'.",Images/Happy/HF05_HO.jpg,Happy,Yellow,Images/Yellow.jpg,space,,,,,,,0,0,0,0,0,5,5,5,,,,,,,,,,,,,,,,,,,,,,,,,,,,,,,,,,,,,,,,,,,,,,,,,,,1.3,288.12104040011764,None,space,1,289.52813410013914,None,289.52813410013914,None,289.52813410013914,None,290.4255873998627,None,0.22617299994453788,,,,,,,,,,,,,,,,,,,,,,,,,,,,,,,,,,,,,,,,,,,,,,,,,P015,fencog,1,Pre,2021_Oct_20_1041,Go No-Go Task,2021.1.4,120.22019536302781,
EPracticeConditions/BlueEyes.csv,"Rule: When you see a blue image, do not press 'spacebar'.",Images/Happy/BM08_HO.jpg,Happy,Yellow,Images/Yellow.jpg,space,,,,,,,0,0,0,0,0,6,6,3,,,,,,,,,,,,,,,,,,,,,,,,,,,,,,,,,,,,,,,,,,,,,,,,,,,1.2,292.4261789000593,None,space,1,293.72672609984875,None,293.72672609984875,None,293.72672609984875,None,294.617759199813,None,0.3395564001984894,,,,,,,,,,,,,,,,,,,,,,,,,,,,,,,,,,,,,,,,,,,,,,,,,P015,fencog,1,Pre,2021_Oct_20_1041,Go No-Go Task,2021.1.4,120.22019536302781,
EPracticeConditions/BlueEyes.csv,"Rule: When you see a blue image, do not press 'spacebar'.",Images/Fearful/AF01_FO.jpg,Fear,Blue,Images/Blue.jpg,None,,,,,,,0,0,0,0,0,7,7,1,,,,,,,,,,,,,,,,,,,,,,,,,,,,,,,,,,,,,,,,,,,,,,,,,,,1.5,296.6286055999808,None,None,1,298.2338458998129,None,298.2338458998129,None,298.2338458998129,None,299.1243467000313,None,,,,,,,,,,,,,,,,,,,,,,,,,,,,,,,,,,,,,,,,,,,,,,,,,,P015,fencog,1,Pre,2021_Oct_20_1041,Go No-Go Task,2021.1.4,120.22019536302781,
EPracticeConditions/BlueEyes.csv,"Rule: When you see a blue image, do not press 'spacebar'.",,,,,,,,,,,,0,0,0,0,,,,,,,,,,,,,,,,,,,,,,,,,,,,,,,,,,,,,,,,,,,,,,,,,,,,,,,,,,,,,,,,,,,,,,,,,,,,,,,,,,,,,,,,,,,,,,,,,,,,,,,,,,,,,,,,,,,,,P015,fencog,1,Pre,2021_Oct_20_1041,Go No-Go Task,2021.1.4,120.22019536302781,
EPracticeConditions/YellowEyes.csv,"Rule: When you see a yellow image, do not press 'spacebar'.",Images/Fearful/AM24AFS.jpg,Fear,Blue,Images/Blue.jpg,space,,,,,,,0,1,1,1,0,0,0,7,,,,,,,,,,,,,,,,,,,,,,,,,,,,,,,,,,,,,301.1438842997886,None,304.1314453999512,None,space,0.8149742996320128,304.1314453999512,None,301.1438842997886,None,301.1438842997886,None,301.1438842997886,None,1.7,304.96392899984494,None,space,1,306.7730617998168,None,306.7730617998168,None,306.7730617998168,None,307.66998319979757,None,0.25314299995079637,,,,,,,,,,,,,,,,,,,,,,,,,,,,,,,,,,,,,,,,,,,,,,,,,P015,fencog,1,Pre,2021_Oct_20_1041,Go No-Go Task,2021.1.4,120.22019536302781,
EPracticeConditions/YellowEyes.csv,"Rule: When you see a yellow image, do not press 'spacebar'.",Images/Fearful/AM22AFS.jpg,Fear,Blue,Images/Blue.jpg,space,,,,,,,0,1,1,1,0,1,1,5,,,,,,,,,,,,,,,,,,,,,,,,,,,,,,,,,,,,,,,,,,,,,,,,,,,1.6,309.6712902998552,None,space,1,311.371663399972,None,311.371663399972,None,311.371663399972,None,312.2678188001737,None,0.27078309981152415,,,,,,,,,,,,,,,,,,,,,,,,,,,,,,,,,,,,,,,,,,,,,,,,,P015,fencog,1,Pre,2021_Oct_20_1041,Go No-Go Task,2021.1.4,120.22019536302781,
EPracticeConditions/YellowEyes.csv,"Rule: When you see a yellow image, do not press 'spacebar'.",Images/Fearful/AM17AFS.jpg,Fear,Blue,Images/Blue.jpg,space,,,,,,,0,1,1,1,0,2,2,3,,,,,,,,,,,,,,,,,,,,,,,,,,,,,,,,,,,,,,,,,,,,,,,,,,,1.5,314.2702235998586,None,space,1,315.87027319986373,None,315.87027319986373,None,315.87027319986373,None,316.76705700019374,None,0.2604892002418637,,,,,,,,,,,,,,,,,,,,,,,,,,,,,,,,,,,,,,,,,,,,,,,,,P015,fencog,1,Pre,2021_Oct_20_1041,Go No-Go Task,2021.1.4,120.22019536302781,
EPracticeConditions/YellowEyes.csv,"Rule: When you see a yellow image, do not press 'spacebar'.",Images/Fearful/AM19AFS.jpg,Fear,Blue,Images/Blue.jpg,space,,,,,,,0,1,1,1,0,3,3,4,,,,,,,,,,,,,,,,,,,,,,,,,,,,,,,,,,,,,,,,,,,,,,,,,,,1.8,318.7717824000865,None,space,1,320.6772406999953,None,320.6772406999953,None,320.6772406999953,None,321.57175430003554,None,0.32556529995054007,,,,,,,,,,,,,,,,,,,,,,,,,,,,,,,,,,,,,,,,,,,,,,,,,P015,fencog,1,Pre,2021_Oct_20_1041,Go No-Go Task,2021.1.4,120.22019536302781,
EPracticeConditions/YellowEyes.csv,"Rule: When you see a yellow image, do not press 'spacebar'.",Images/Fearful/AM23AFS.jpg,Fear,Blue,Images/Blue.jpg,space,,,,,,,0,1,1,1,0,4,4,6,,,,,,,,,,,,,,,,,,,,,,,,,,,,,,,,,,,,,,,,,,,,,,,,,,,1.4,323.5769253000617,None,space,1,325.07602109992877,None,325.07602109992877,None,325.07602109992877,None,325.9717096001841,None,0.33454080019146204,,,,,,,,,,,,,,,,,,,,,,,,,,,,,,,,,,,,,,,,,,,,,,,,,P015,fencog,1,Pre,2021_Oct_20_1041,Go No-Go Task,2021.1.4,120.22019536302781,
EPracticeConditions/YellowEyes.csv,"Rule: When you see a yellow image, do not press 'spacebar'.",Images/Happy/AM32HAS.jpg,Happy,Yellow,Images/Yellow.jpg,None,,,,,,,0,1,1,1,0,5,5,0,,,,,,,,,,,,,,,,,,,,,,,,,,,,,,,,,,,,,,,,,,,,,,,,,,,1.9,327.97405709978193,None,space,0,329.97452539997175,None,329.97452539997175,None,329.97452539997175,None,330.87880029994994,None,0.19608059991151094,,,,,,,,,,,,,,,,,,,,,,,,,,,,,,,,,,,,,,,,,,,,,,,,,P015,fencog,1,Pre,2021_Oct_20_1041,Go No-Go Task,2021.1.4,120.22019536302781,
EPracticeConditions/YellowEyes.csv,"Rule: When you see a yellow image, do not press 'spacebar'.",Images/Happy/BF05_HO.jpg,Happy,Yellow,Images/Yellow.jpg,None,,,,,,,0,1,1,1,0,6,6,1,,,,,,,,,,,,,,,,,,,,,,,,,,,,,,,,,,,,,,,,,,,,,,,,,,,1.3,332.88096670014784,None,None,1,334.2816095999442,None,334.2816095999442,None,334.2816095999442,None,335.18694060016423,None,,,,,,,,,,,,,,,,,,,,,,,,,,,,,,,,,,,,,,,,,,,,,,,,,,P015,fencog,1,Pre,2021_Oct_20_1041,Go No-Go Task,2021.1.4,120.22019536302781,
EPracticeConditions/YellowEyes.csv,"Rule: When you see a yellow image, do not press 'spacebar'.",Images/Fearful/AM16AFS.jpg,Fear,Blue,Images/Blue.jpg,space,,,,,,,0,1,1,1,0,7,7,2,,,,,,,,,,,,,,,,,,,,,,,,,,,,,,,,,,,,,,,,,,,,,,,,,,,1.2,337.1880115000531,None,space,1,338.4886420001276,None,338.4886420001276,None,338.4886420001276,None,339.38569999998435,None,0.24221510021016002,,,,,,,,,,,,,,,,,,,,,,,,,,,,,,,,,,,,,,,,,,,,,,,,,P015,fencog,1,Pre,2021_Oct_20_1041,Go No-Go Task,2021.1.4,120.22019536302781,
EPracticeConditions/YellowEyes.csv,"Rule: When you see a yellow image, do not press 'spacebar'.",,,,,,,,,,,,0,1,1,1,,,,,,,,,,,,,,,,,,,,,,,,,,,,,,,,,,,,,,,,,,,,,,,,,,,,,,,,,,,,,,,,,,,,,,,,,,,,,,,,,,,,,,,,,,,,,,,,,,,,,,,,,,,,,,,,,,,,,P015,fencog,1,Pre,2021_Oct_20_1041,Go No-Go Task,2021.1.4,120.22019536302781,
EPracticeConditions/BlueScram.csv,"Rule: When you see a blue image, do not press 'spacebar'.",Images/Scram2/AM03_NC.jpg,Scramble,Yellow,Images/Yellow.jpg,space,,,,,,,0,2,2,2,0,0,0,6,,,,,,,,,,,,,,,,,,,,,,,,,,,,,,,,,,,,,341.40290190000087,None,344.39471579995006,None,space,0.39952609967440367,344.39471579995006,None,341.40290190000087,None,341.40290190000087,None,341.40290190000087,None,1.6,344.8125970000401,None,space,1,346.5196308000013,None,346.5196308000013,None,346.5196308000013,None,347.4160623000935,None,0.2831695000641048,,,,,,,,,,,,,,,,,,,,,,,,,,,,,,,,,,,,,,,,,,,,,,,,,P015,fencog,1,Pre,2021_Oct_20_1041,Go No-Go Task,2021.1.4,120.22019536302781,
EPracticeConditions/BlueScram.csv,"Rule: When you see a blue image, do not press 'spacebar'.",Images/Scram1/AM04_NC.jpg,Scramble,Yellow,Images/Yellow.jpg,space,,,,,,,0,2,2,2,0,1,1,3,,,,,,,,,,,,,,,,,,,,,,,,,,,,,,,,,,,,,,,,,,,,,,,,,,,1.7,349.4205884998664,None,space,1,351.2266664998606,None,351.2266664998606,None,351.2266664998606,None,352.12399110011756,None,0.2959402003325522,,,,,,,,,,,,,,,,,,,,,,,,,,,,,,,,,,,,,,,,,,,,,,,,,P015,fencog,1,Pre,2021_Oct_20_1041,Go No-Go Task,2021.1.4,120.22019536302781,
EPracticeConditions/BlueScram.csv,"Rule: When you see a blue image, do not press 'spacebar'.",Images/Scram2/AF25NES.jpg,Scramble,Yellow,Images/Yellow.jpg,space,,,,,,,0,2,2,2,0,2,2,7,,,,,,,,,,,,,,,,,,,,,,,,,,,,,,,,,,,,,,,,,,,,,,,,,,,1.5,354.12613390013576,None,space,1,355.73356739990413,None,355.73356739990413,None,355.73356739990413,None,356.6306087002158,None,0.269768999889493,,,,,,,,,,,,,,,,,,,,,,,,,,,,,,,,,,,,,,,,,,,,,,,,,P015,fencog,1,Pre,2021_Oct_20_1041,Go No-Go Task,2021.1.4,120.22019536302781,
EPracticeConditions/BlueScram.csv,"Rule: When you see a blue image, do not press 'spacebar'.",Images/Scram1/BM08_NC.jpg,Scramble,Blue,Images/Blue.jpg,None,,,,,,,0,2,2,2,0,3,3,0,,,,,,,,,,,,,,,,,,,,,,,,,,,,,,,,,,,,,,,,,,,,,,,,,,,1.8,358.6346869999543,None,None,1,360.5403093001805,None,360.5403093001805,None,360.5403093001805,None,361.4363099997863,None,,,,,,,,,,,,,,,,,,,,,,,,,,,,,,,,,,,,,,,,,,,,,,,,,,P015,fencog,1,Pre,2021_Oct_20_1041,Go No-Go Task,2021.1.4,120.22019536302781,
EPracticeConditions/BlueScram.csv,"Rule: When you see a blue image, do not press 'spacebar'.",Images/Scram2/AF10_NC.jpg,Scramble,Yellow,Images/Yellow.jpg,space,,,,,,,0,2,2,2,0,4,4,2,,,,,,,,,,,,,,,,,,,,,,,,,,,,,,,,,,,,,,,,,,,,,,,,,,,1.3,363.44031709991395,None,space,1,364.8476462000981,None,364.8476462000981,None,364.8476462000981,None,365.7445593001321,None,0.2833449002355337,,,,,,,,,,,,,,,,,,,,,,,,,,,,,,,,,,,,,,,,,,,,,,,,,P015,fencog,1,Pre,2021_Oct_20_1041,Go No-Go Task,2021.1.4,120.22019536302781,
EPracticeConditions/BlueScram.csv,"Rule: When you see a blue image, do not press 'spacebar'.",Images/Scram1/AM13NES.jpg,Scramble,Yellow,Images/Yellow.jpg,space,,,,,,,0,2,2,2,0,5,5,5,,,,,,,,,,,,,,,,,,,,,,,,,,,,,,,,,,,,,,,,,,,,,,,,,,,1.9,367.74836480012164,None,space,1,369.7545627001673,None,369.7545627001673,None,369.7545627001673,None,370.65209389990196,None,0.33614989975467324,,,,,,,,,,,,,,,,,,,,,,,,,,,,,,,,,,,,,,,,,,,,,,,,,P015,fencog,1,Pre,2021_Oct_20_1041,Go No-Go Task,2021.1.4,120.22019536302781,
EPracticeConditions/BlueScram.csv,"Rule: When you see a blue image, do not press 'spacebar'.",Images/Scram1/BF18_NC.jpg,Scramble,Blue,Images/Blue.jpg,None,,,,,,,0,2,2,2,0,6,6,1,,,,,,,,,,,,,,,,,,,,,,,,,,,,,,,,,,,,,,,,,,,,,,,,,,,1.4,372.65605450002477,None,None,1,374.1615459998138,None,374.1615459998138,None,374.1615459998138,None,375.05598470009863,None,,,,,,,,,,,,,,,,,,,,,,,,,,,,,,,,,,,,,,,,,,,,,,,,,,P015,fencog,1,Pre,2021_Oct_20_1041,Go No-Go Task,2021.1.4,120.22019536302781,
EPracticeConditions/BlueScram.csv,"Rule: When you see a blue image, do not press 'spacebar'.",Images/Scram1/AM03NES.jpg,Scramble,Yellow,Images/Yellow.jpg,space,,,,,,,0,2,2,2,0,7,7,4,,,,,,,,,,,,,,,,,,,,,,,,,,,,,,,,,,,,,,,,,,,,,,,,,,,1.2,377.0629345001653,None,space,1,378.36870939983055,None,378.36870939983055,None,378.36870939983055,None,379.2634820002131,None,0.28258629981428385,,,,,,,,,,,,,,,,,,,,,,,,,,,,,,,,,,,,,,,,,,,,,,,,,P015,fencog,1,Pre,2021_Oct_20_1041,Go No-Go Task,2021.1.4,120.22019536302781,
EPracticeConditions/BlueScram.csv,"Rule: When you see a blue image, do not press 'spacebar'.",,,,,,,,,,,,0,2,2,2,,,,,,,,,,,,,,,,,,,,,,,,,,,,,,,,,,,,,,,,,,,,,,,,,,,,,,,,,,,,,,,,,,,,,,,,,,,,,,,,,,,,,,,,,,,,,,,,,,,,,,,,,,,,,,,,,,,,,P015,fencog,1,Pre,2021_Oct_20_1041,Go No-Go Task,2021.1.4,120.22019536302781,
EPracticeConditions/YellowScram.csv,"Rule: When you see a yellow image, do not press 'spacebar'.",Images/Scram2/AM03NES.jpg,Scramble,Yellow,Images/Yellow.jpg,None,,,,,,,0,3,3,3,0,0,0,1,,,,,,,,,,,,,,,,,,,,,,,,,,,,,,,,,,,,,381.2845351998694,None,384.27452119998634,None,space,1.9437750997021794,384.27452119998634,None,381.2845351998694,None,381.2845351998694,None,381.2845351998694,None,1.9,386.23809899995103,None,None,1,388.2406554999761,None,388.2406554999761,None,388.2406554999761,None,389.1441534999758,None,,,,,,,,,,,,,,,,,,,,,,,,,,,,,,,,,,,,,,,,,,,,,,,,,,P015,fencog,1,Pre,2021_Oct_20_1041,Go No-Go Task,2021.1.4,120.22019536302781,
EPracticeConditions/YellowScram.csv,"Rule: When you see a yellow image, do not press 'spacebar'.",Images/Scram1/HF04_NC.jpg,Scramble,Blue,Images/Blue.jpg,space,,,,,,,0,3,3,3,0,1,1,2,,,,,,,,,,,,,,,,,,,,,,,,,,,,,,,,,,,,,,,,,,,,,,,,,,,1.7,391.14721299987286,None,space,1,392.94761350005865,None,392.94761350005865,None,392.94761350005865,None,393.84452070016414,None,0.271231799852103,,,,,,,,,,,,,,,,,,,,,,,,,,,,,,,,,,,,,,,,,,,,,,,,,P015,fencog,1,Pre,2021_Oct_20_1041,Go No-Go Task,2021.1.4,120.22019536302781,
EPracticeConditions/YellowScram.csv,"Rule: When you see a yellow image, do not press 'spacebar'.",Images/Scram1/AF07NES.jpg,Scramble,Blue,Images/Blue.jpg,space,,,,,,,0,3,3,3,0,2,2,3,,,,,,,,,,,,,,,,,,,,,,,,,,,,,,,,,,,,,,,,,,,,,,,,,,,1.5,395.847501100041,None,space,1,397.4464500998147,None,397.4464500998147,None,397.4464500998147,None,398.3519612001255,None,0.27614969993010163,,,,,,,,,,,,,,,,,,,,,,,,,,,,,,,,,,,,,,,,,,,,,,,,,P015,fencog,1,Pre,2021_Oct_20_1041,Go No-Go Task,2021.1.4,120.22019536302781,
EPracticeConditions/YellowScram.csv,"Rule: When you see a yellow image, do not press 'spacebar'.",Images/Scram1/AF10_NC.jpg,Scramble,Blue,Images/Blue.jpg,space,,,,,,,0,3,3,3,0,3,3,6,,,,,,,,,,,,,,,,,,,,,,,,,,,,,,,,,,,,,,,,,,,,,,,,,,,1.4,400.35537179978564,None,space,1,401.8618022999726,None,401.8618022999726,None,401.8618022999726,None,402.76688880007714,None,0.302195499651134,,,,,,,,,,,,,,,,,,,,,,,,,,,,,,,,,,,,,,,,,,,,,,,,,P015,fencog,1,Pre,2021_Oct_20_1041,Go No-Go Task,2021.1.4,120.22019536302781,
EPracticeConditions/YellowScram.csv,"Rule: When you see a yellow image, do not press 'spacebar'.",Images/Scram2/HM06_NC.jpg,Scramble,Yellow,Images/Yellow.jpg,None,,,,,,,0,3,3,3,0,4,4,0,,,,,,,,,,,,,,,,,,,,,,,,,,,,,,,,,,,,,,,,,,,,,,,,,,,1.6,404.7683254000731,None,None,1,406.4687596000731,None,406.4687596000731,None,406.4687596000731,None,407.36532159987837,None,,,,,,,,,,,,,,,,,,,,,,,,,,,,,,,,,,,,,,,,,,,,,,,,,,P015,fencog,1,Pre,2021_Oct_20_1041,Go No-Go Task,2021.1.4,120.22019536302781,
EPracticeConditions/YellowScram.csv,"Rule: When you see a yellow image, do not press 'spacebar'.",Images/Scram1/AF30NES.JPG,Scramble,Blue,Images/Blue.jpg,space,,,,,,,0,3,3,3,0,5,5,4,,,,,,,,,,,,,,,,,,,,,,,,,,,,,,,,,,,,,,,,,,,,,,,,,,,1.3,409.3753025000915,None,space,1,410.76742260018364,None,410.76742260018364,None,410.76742260018364,None,411.6643562000245,None,0.3153331996873021,,,,,,,,,,,,,,,,,,,,,,,,,,,,,,,,,,,,,,,,,,,,,,,,,P015,fencog,1,Pre,2021_Oct_20_1041,Go No-Go Task,2021.1.4,120.22019536302781,
EPracticeConditions/YellowScram.csv,"Rule: When you see a yellow image, do not press 'spacebar'.",Images/Scram1/BM01_NC.jpg,Scramble,Blue,Images/Blue.jpg,space,,,,,,,0,3,3,3,0,6,6,5,,,,,,,,,,,,,,,,,,,,,,,,,,,,,,,,,,,,,,,,,,,,,,,,,,,1.2,413.668778100051,None,space,1,414.97456770017743,None,414.97456770017743,None,414.97456770017743,None,415.8708930001594,None,0.2522279000841081,,,,,,,,,,,,,,,,,,,,,,,,,,,,,,,,,,,,,,,,,,,,,,,,,P015,fencog,1,Pre,2021_Oct_20_1041,Go No-Go Task,2021.1.4,120.22019536302781,
EPracticeConditions/YellowScram.csv,"Rule: When you see a yellow image, do not press 'spacebar'.",Images/Scram1/AF24NES.jpg,Scramble,Blue,Images/Blue.jpg,space,,,,,,,0,3,3,3,0,7,7,7,,,,,,,,,,,,,,,,,,,,,,,,,,,,,,,,,,,,,,,,,,,,,,,,,,,1.8,417.87553730001673,None,space,1,419.7815497000702,None,419.7815497000702,None,419.7815497000702,None,420.67502880003303,None,0.2695900001563132,,,,,,,,,,,,,,,,,,,,,,,,,,,,,,,,,,,,,,,,,,,,,,,,,P015,fencog,1,Pre,2021_Oct_20_1041,Go No-Go Task,2021.1.4,120.22019536302781,
EPracticeConditions/YellowScram.csv,"Rule: When you see a yellow image, do not press 'spacebar'.",,,,,,,,,,,,0,3,3,3,,,,,,,,,,,,,,,,,,,,,,,,,,,,,,,,,,,,,,,,,,,,,,,,,,,,,,,,,,,,,,,,,,,,,,,,,,,,,,,,,,,,,,,,,,,,,,,,,,,,,,,,,,,,,,,,,,,,,P015,fencog,1,Pre,2021_Oct_20_1041,Go No-Go Task,2021.1.4,120.22019536302781,
,,,,,,,,,,,,,,,,,,,,,,,,,,,,,,,,,,,,,,,,,,,,,,,,,,,,,,,,,,,,,,,,,,,,,,,,,,,,,,,,,,,,,423.9536127001047,None,space,3.3723486997187138,424.4379166001454,None,,,,,,,,,,,,,,,,,,,,,,,,,,,,,,,,,,,,,,,,,,,P015,fencog,1,Pre,2021_Oct_20_1041,Go No-Go Task,2021.1.4,120.22019536302781,
,,,,,,,,,,,,,,,,,,,,,,,,,,,,,,,,,,,,,,,,,,,,,,,,,,,,,,,,,,,,,,,,,,,,,,,,,,,,,,,,,,,,,,,,,,,427.8212096998468,None,space,2.061030200216919,427.8212096998468,None,,,,,,,,,,,,,,,,,,,,,,,,,,,,,,,,,,,,,P015,fencog,1,Pre,2021_Oct_20_1041,Go No-Go Task,2021.1.4,120.22019536302781,
,"Rule: When you see a yellow image, do not press 'spacebar'.",Images/Fearful/BM02_FC.jpg,Fear,Blue,Images/Blue.jpg,space,ParentConditions/YellowBlueBlue_v1.xlsx,BlueBlueYellow,Conditions/Version_1/YellowHappyStop.xlsx,no,PASS,0.44148177898618846,,,,,,,,,0,0,0,0,0,0,0,0,0,0,0,0,,,,,,,,,,,,,,,,,,,,,,,,,,,,,,,,,,,,,,,,,,,,,,,,,,,,,,,,,,,,,,,,,429.9584968001582,None,432.95170619990677,None,space,1.1709285997785628,432.95170619990677,None,429.9584968001582,None,429.9584968001582,None,429.9584968001582,None,1.8,434.1693282001652,None,space,1,0.2546816999092698,436.07675069989637,None,436.07675069989637,None,436.07675069989637,None,,,,,,,,,,,P015,fencog,1,Pre,2021_Oct_20_1041,Go No-Go Task,2021.1.4,120.22019536302781,
,"Rule: When you see a yellow image, do not press 'spacebar'.",Images/Fearful/HF05_FC.jpg,Fear,Blue,Images/Blue.jpg,space,ParentConditions/YellowBlueBlue_v1.xlsx,BlueBlueYellow,Conditions/Version_1/YellowHappyStop.xlsx,no,PASS,0.49496512693563743,,,,,,,,,0,0,0,0,0,0,0,0,0,1,1,1,,,,,,,,,,,,,,,,,,,,,,,,,,,,,,,,,,,,,,,,,,,,,,,,,,,,,,,,,,,,,,,,,,,,,,,,,,,,,,,1.29,436.4769553998485,None,space,1,0.25483979983255267,437.86779200006276,None,437.86779200006276,None,437.86779200006276,None,,,,,,,,,,,P015,fencog,1,Pre,2021_Oct_20_1041,Go No-Go Task,2021.1.4,120.22019536302781,
,"Rule: When you see a yellow image, do not press 'spacebar'.",Images/Happy/AF32HAS.jpg,Happy,Yellow,Images/Yellow.jpg,None,ParentConditions/YellowBlueBlue_v1.xlsx,BlueBlueYellow,Conditions/Version_1/YellowHappyStop.xlsx,yes,PASS,0.3690153910902233,,,,,,,,,0,0,0,0,0,0,0,0,0,2,2,2,,,,,,,,,,,,,,,,,,,,,,,,,,,,,,,,,,,,,,,,,,,,,,,,,,,,,,,,,,,,,,,,,,,,,,,,,,,,,,,1.21,438.2731498000212,None,None,1,,439.57595970015973,None,439.57595970015973,None,439.57595970015973,None,,,,,,,,,,,P015,fencog,1,Pre,2021_Oct_20_1041,Go No-Go Task,2021.1.4,120.22019536302781,
,"Rule: When you see a yellow image, do not press 'spacebar'.",Images/Happy/AM32HAS.jpg,Happy,Yellow,Images/Yellow.jpg,None,ParentConditions/YellowBlueBlue_v1.xlsx,BlueBlueYellow,Conditions/Version_1/YellowHappyStop.xlsx,yes,PASS,0.09240134349582851,,,,,,,,,0,0,0,0,0,0,0,0,0,3,3,3,,,,,,,,,,,,,,,,,,,,,,,,,,,,,,,,,,,,,,,,,,,,,,,,,,,,,,,,,,,,,,,,,,,,,,,,,,,,,,,1.22,439.9852530998178,None,None,1,,441.3084681998007,None,441.3084681998007,None,441.3084681998007,None,,,,,,,,,,,P015,fencog,1,Pre,2021_Oct_20_1041,Go No-Go Task,2021.1.4,120.22019536302781,
,"Rule: When you see a yellow image, do not press 'spacebar'.",Images/Fearful/AF07FS.jpg,Fear,Blue,Images/Blue.jpg,space,ParentConditions/YellowBlueBlue_v1.xlsx,BlueBlueYellow,Conditions/Version_1/YellowHappyStop.xlsx,no,PASS,0.4013300010309635,,,,,,,,,0,0,0,0,0,0,0,0,0,4,4,4,,,,,,,,,,,,,,,,,,,,,,,,,,,,,,,,,,,,,,,,,,,,,,,,,,,,,,,,,,,,,,,,,,,,,,,,,,,,,,,1.95,441.7109102997929,None,space,1,0.28483369993045926,443.7576655000448,None,443.7576655000448,None,443.7576655000448,None,,,,,,,,,,,P015,fencog,1,Pre,2021_Oct_20_1041,Go No-Go Task,2021.1.4,120.22019536302781,
,"Rule: When you see a yellow image, do not press 'spacebar'.",Images/Fearful/AM30AFS.jpg,Fear,Blue,Images/Blue.jpg,space,ParentConditions/YellowBlueBlue_v1.xlsx,BlueBlueYellow,Conditions/Version_1/YellowHappyStop.xlsx,no,PASS,0.5026512951867452,,,,,,,,,0,0,0,0,0,0,0,0,0,5,5,5,,,,,,,,,,,,,,,,,,,,,,,,,,,,,,,,,,,,,,,,,,,,,,,,,,,,,,,,,,,,,,,,,,,,,,,,,,,,,,,1.76,444.1594405998476,None,space,1,0.251709199976176,446.0237297001295,None,446.0237297001295,None,446.0237297001295,None,,,,,,,,,,,P015,fencog,1,Pre,2021_Oct_20_1041,Go No-Go Task,2021.1.4,120.22019536302781,
,"Rule: When you see a yellow image, do not press 'spacebar'.",Images/Happy/BM03_HO.jpg,Happy,Yellow,Images/Yellow.jpg,None,ParentConditions/YellowBlueBlue_v1.xlsx,BlueBlueYellow,Conditions/Version_1/YellowHappyStop.xlsx,yes,PASS,0.3904556138764915,,,,,,,,,0,0,0,0,0,0,0,0,0,6,6,6,,,,,,,,,,,,,,,,,,,,,,,,,,,,,,,,,,,,,,,,,,,,,,,,,,,,,,,,,,,,,,,,,,,,,,,,,,,,,,,1.9,446.4275877000764,None,None,1,,448.4313187999651,None,448.4313187999651,None,448.4313187999651,None,,,,,,,,,,,P015,fencog,1,Pre,2021_Oct_20_1041,Go No-Go Task,2021.1.4,120.22019536302781,
,"Rule: When you see a yellow image, do not press 'spacebar'.",Images/Fearful/HM06_FC.jpg,Fear,Blue,Images/Blue.jpg,space,ParentConditions/YellowBlueBlue_v1.xlsx,BlueBlueYellow,Conditions/Version_1/YellowHappyStop.xlsx,no,PASS,0.8295870874618959,,,,,,,,,0,0,0,0,0,0,0,0,0,7,7,7,,,,,,,,,,,,,,,,,,,,,,,,,,,,,,,,,,,,,,,,,,,,,,,,,,,,,,,,,,,,,,,,,,,,,,,,,,,,,,,1.42,448.83303060010076,None,None,0,,450.3556316001341,None,450.3556316001341,None,450.3556316001341,None,,,,,,,,,,,P015,fencog,1,Pre,2021_Oct_20_1041,Go No-Go Task,2021.1.4,120.22019536302781,
,"Rule: When you see a yellow image, do not press 'spacebar'.",Images/Fearful/AF19AFS.jpg,Fear,Blue,Images/Blue.jpg,space,ParentConditions/YellowBlueBlue_v1.xlsx,BlueBlueYellow,Conditions/Version_1/YellowHappyStop.xlsx,no,PASS,0.31457189280880904,,,,,,,,,0,0,0,0,0,0,0,0,0,8,8,8,,,,,,,,,,,,,,,,,,,,,,,,,,,,,,,,,,,,,,,,,,,,,,,,,,,,,,,,,,,,,,,,,,,,,,,,,,,,,,,1.92,450.7668351000175,None,space,1,0.27876289980486035,452.7883987999521,None,452.7883987999521,None,452.7883987999521,None,,,,,,,,,,,P015,fencog,1,Pre,2021_Oct_20_1041,Go No-Go Task,2021.1.4,120.22019536302781,
,"Rule: When you see a yellow image, do not press 'spacebar'.",Images/Happy/AF30HAS.jpg,Happy,Yellow,Images/Yellow.jpg,None,ParentConditions/YellowBlueBlue_v1.xlsx,BlueBlueYellow,Conditions/Version_1/YellowHappyStop.xlsx,yes,PASS,0.14544836048525234,,,,,,,,,0,0,0,0,0,0,0,0,0,9,9,9,,,,,,,,,,,,,,,,,,,,,,,,,,,,,,,,,,,,,,,,,,,,,,,,,,,,,,,,,,,,,,,,,,,,,,,,,,,,,,,1.94,453.1945279999636,None,None,1,,455.23777869995683,None,455.23777869995683,None,455.23777869995683,None,,,,,,,,,,,P015,fencog,1,Pre,2021_Oct_20_1041,Go No-Go Task,2021.1.4,120.22019536302781,
,"Rule: When you see a yellow image, do not press 'spacebar'.",Images/Fearful/AF25AFS.jpg,Fear,Blue,Images/Blue.jpg,space,ParentConditions/YellowBlueBlue_v1.xlsx,BlueBlueYellow,Conditions/Version_1/YellowHappyStop.xlsx,no,PASS,0.31319631990865415,,,,,,,,,0,0,0,0,0,0,0,0,0,10,10,10,,,,,,,,,,,,,,,,,,,,,,,,,,,,,,,,,,,,,,,,,,,,,,,,,,,,,,,,,,,,,,,,,,,,,,,,,,,,,,,1.58,455.6380401002243,None,space,1,0.24219899997115135,457.32052809977904,None,457.32052809977904,None,457.32052809977904,None,,,,,,,,,,,P015,fencog,1,Pre,2021_Oct_20_1041,Go No-Go Task,2021.1.4,120.22019536302781,
,"Rule: When you see a yellow image, do not press 'spacebar'.",Images/Fearful/AF30AFS.jpg,Fear,Blue,Images/Blue.jpg,space,ParentConditions/YellowBlueBlue_v1.xlsx,BlueBlueYellow,Conditions/Version_1/YellowHappyStop.xlsx,no,PASS,0.9854799433848976,,,,,,,,,0,0,0,0,0,0,0,0,0,11,11,11,,,,,,,,,,,,,,,,,,,,,,,,,,,,,,,,,,,,,,,,,,,,,,,,,,,,,,,,,,,,,,,,,,,,,,,,,,,,,,,1.72,457.7206577998586,None,space,1,0.2898304001428187,459.54473780002445,None,459.54473780002445,None,459.54473780002445,None,,,,,,,,,,,P015,fencog,1,Pre,2021_Oct_20_1041,Go No-Go Task,2021.1.4,120.22019536302781,
,"Rule: When you see a yellow image, do not press 'spacebar'.",Images/Happy/BF10_HO.jpg,Happy,Yellow,Images/Yellow.jpg,None,ParentConditions/YellowBlueBlue_v1.xlsx,BlueBlueYellow,Conditions/Version_1/YellowHappyStop.xlsx,yes,PASS,0.9368187318754497,,,,,,,,,0,0,0,0,0,0,0,0,0,12,12,12,,,,,,,,,,,,,,,,,,,,,,,,,,,,,,,,,,,,,,,,,,,,,,,,,,,,,,,,,,,,,,,,,,,,,,,,,,,,,,,1.34,459.94720260007307,None,None,1,,461.39415210019797,None,461.39415210019797,None,461.39415210019797,None,,,,,,,,,,,P015,fencog,1,Pre,2021_Oct_20_1041,Go No-Go Task,2021.1.4,120.22019536302781,
,"Rule: When you see a yellow image, do not press 'spacebar'.",Images/Fearful/AM06_FO.jpg,Fear,Blue,Images/Blue.jpg,space,ParentConditions/YellowBlueBlue_v1.xlsx,BlueBlueYellow,Conditions/Version_1/YellowHappyStop.xlsx,no,PASS,0.6030700196123316,,,,,,,,,0,0,0,0,0,0,0,0,0,13,13,13,,,,,,,,,,,,,,,,,,,,,,,,,,,,,,,,,,,,,,,,,,,,,,,,,,,,,,,,,,,,,,,,,,,,,,,,,,,,,,,1.82,461.79431009991094,None,space,1,0.22813089983537793,463.7267443998717,None,463.7267443998717,None,463.7267443998717,None,,,,,,,,,,,P015,fencog,1,Pre,2021_Oct_20_1041,Go No-Go Task,2021.1.4,120.22019536302781,
,"Rule: When you see a yellow image, do not press 'spacebar'.",Images/Happy/AM24HAS.jpg,Happy,Yellow,Images/Yellow.jpg,None,ParentConditions/YellowBlueBlue_v1.xlsx,BlueBlueYellow,Conditions/Version_1/YellowHappyStop.xlsx,yes,PASS,0.8401488188278822,,,,,,,,,0,0,0,0,0,0,0,0,0,14,14,14,,,,,,,,,,,,,,,,,,,,,,,,,,,,,,,,,,,,,,,,,,,,,,,,,,,,,,,,,,,,,,,,,,,,,,,,,,,,,,,1.39,464.1256858999841,None,None,1,,465.62636150000617,None,465.62636150000617,None,465.62636150000617,None,,,,,,,,,,,P015,fencog,1,Pre,2021_Oct_20_1041,Go No-Go Task,2021.1.4,120.22019536302781,
,"Rule: When you see a yellow image, do not press 'spacebar'.",Images/Fearful/AF21AFS.jpg,Fear,Blue,Images/Blue.jpg,space,ParentConditions/YellowBlueBlue_v1.xlsx,BlueBlueYellow,Conditions/Version_1/YellowHappyStop.xlsx,no,PASS,0.9561052396726243,,,,,,,,,0,0,0,0,0,0,0,0,0,15,15,15,,,,,,,,,,,,,,,,,,,,,,,,,,,,,,,,,,,,,,,,,,,,,,,,,,,,,,,,,,,,,,,,,,,,,,,,,,,,,,,1.96,466.0252042999491,None,space,1,0.2626112001016736,468.09218169981614,None,468.09218169981614,None,468.09218169981614,None,,,,,,,,,,,P015,fencog,1,Pre,2021_Oct_20_1041,Go No-Go Task,2021.1.4,120.22019536302781,
,"Rule: When you see a yellow image, do not press 'spacebar'.",Images/Happy/AM06_HC.jpg,Happy,Yellow,Images/Yellow.jpg,None,ParentConditions/YellowBlueBlue_v1.xlsx,BlueBlueYellow,Conditions/Version_1/YellowHappyStop.xlsx,yes,PASS,0.36325944609889094,,,,,,,,,0,0,0,0,0,0,0,0,0,16,16,16,,,,,,,,,,,,,,,,,,,,,,,,,,,,,,,,,,,,,,,,,,,,,,,,,,,,,,,,,,,,,,,,,,,,,,,,,,,,,,,1.68,468.4922527000308,None,None,1,,470.2749153999612,None,470.2749153999612,None,470.2749153999612,None,,,,,,,,,,,P015,fencog,1,Pre,2021_Oct_20_1041,Go No-Go Task,2021.1.4,120.22019536302781,
,"Rule: When you see a yellow image, do not press 'spacebar'.",Images/Fearful/AF10_FC.jpg,Fear,Blue,Images/Blue.jpg,space,ParentConditions/YellowBlueBlue_v1.xlsx,BlueBlueYellow,Conditions/Version_1/YellowHappyStop.xlsx,no,PASS,0.09357566512353055,,,,,,,,,0,0,0,0,0,0,0,0,0,17,17,17,,,,,,,,,,,,,,,,,,,,,,,,,,,,,,,,,,,,,,,,,,,,,,,,,,,,,,,,,,,,,,,,,,,,,,,,,,,,,,,1.78,470.6756771001965,None,space,1,0.2610010001808405,472.55758310016245,None,472.55758310016245,None,472.55758310016245,None,,,,,,,,,,,P015,fencog,1,Pre,2021_Oct_20_1041,Go No-Go Task,2021.1.4,120.22019536302781,
,"Rule: When you see a yellow image, do not press 'spacebar'.",Images/Fearful/BM03_FC.jpg,Fear,Blue,Images/Blue.jpg,space,ParentConditions/YellowBlueBlue_v1.xlsx,BlueBlueYellow,Conditions/Version_1/YellowHappyStop.xlsx,no,PASS,0.789884489320339,,,,,,,,,0,0,0,0,0,0,0,0,0,18,18,18,,,,,,,,,,,,,,,,,,,,,,,,,,,,,,,,,,,,,,,,,,,,,,,,,,,,,,,,,,,,,,,,,,,,,,,,,,,,,,,1.49,472.9583589998074,None,space,1,0.246070499997586,474.5486353999004,None,474.5486353999004,None,474.5486353999004,None,,,,,,,,,,,P015,fencog,1,Pre,2021_Oct_20_1041,Go No-Go Task,2021.1.4,120.22019536302781,
,"Rule: When you see a yellow image, do not press 'spacebar'.",Images/Fearful/HM09_FC.jpg,Fear,Blue,Images/Blue.jpg,space,ParentConditions/YellowBlueBlue_v1.xlsx,BlueBlueYellow,Conditions/Version_1/YellowHappyStop.xlsx,no,PASS,0.8198583361260475,,,,,,,,,0,0,0,0,0,0,0,0,0,19,19,19,,,,,,,,,,,,,,,,,,,,,,,,,,,,,,,,,,,,,,,,,,,,,,,,,,,,,,,,,,,,,,,,,,,,,,,,,,,,,,,1.71,474.95134459994733,None,space,1,0.33390050008893013,476.76466089999303,None,476.76466089999303,None,476.76466089999303,None,,,,,,,,,,,P015,fencog,1,Pre,2021_Oct_20_1041,Go No-Go Task,2021.1.4,120.22019536302781,
,"Rule: When you see a yellow image, do not press 'spacebar'.",Images/Fearful/AM04_FO.jpg,Fear,Blue,Images/Blue.jpg,space,ParentConditions/YellowBlueBlue_v1.xlsx,BlueBlueYellow,Conditions/Version_1/YellowHappyStop.xlsx,no,PASS,0.9595350245966109,,,,,,,,,0,0,0,0,0,0,0,0,0,20,20,20,,,,,,,,,,,,,,,,,,,,,,,,,,,,,,,,,,,,,,,,,,,,,,,,,,,,,,,,,,,,,,,,,,,,,,,,,,,,,,,1.37,477.16572570009157,None,space,1,0.28365710005164146,478.63912319997326,None,478.63912319997326,None,478.63912319997326,None,,,,,,,,,,,P015,fencog,1,Pre,2021_Oct_20_1041,Go No-Go Task,2021.1.4,120.22019536302781,
,"Rule: When you see a yellow image, do not press 'spacebar'.",Images/Fearful/AF11AFS.jpg,Fear,Blue,Images/Blue.jpg,space,ParentConditions/YellowBlueBlue_v1.xlsx,BlueBlueYellow,Conditions/Version_1/YellowHappyStop.xlsx,no,PASS,0.7276184017912607,,,,,,,,,0,0,0,0,0,0,0,0,0,21,21,21,,,,,,,,,,,,,,,,,,,,,,,,,,,,,,,,,,,,,,,,,,,,,,,,,,,,,,,,,,,,,,,,,,,,,,,,,,,,,,,1.28,479.04124270007014,None,space,1,0.26068189973011613,480.4219877999276,None,480.4219877999276,None,480.4219877999276,None,,,,,,,,,,,P015,fencog,1,Pre,2021_Oct_20_1041,Go No-Go Task,2021.1.4,120.22019536302781,
,"Rule: When you see a yellow image, do not press 'spacebar'.",Images/Fearful/AM10_FO.jpg,Fear,Blue,Images/Blue.jpg,space,ParentConditions/YellowBlueBlue_v1.xlsx,BlueBlueYellow,Conditions/Version_1/YellowHappyStop.xlsx,no,PASS,0.7995855816230459,,,,,,,,,0,0,0,0,0,0,0,0,0,22,22,22,,,,,,,,,,,,,,,,,,,,,,,,,,,,,,,,,,,,,,,,,,,,,,,,,,,,,,,,,,,,,,,,,,,,,,,,,,,,,,,1.3,480.83112609991804,None,space,1,0.2367874002084136,482.23807800002396,None,482.23807800002396,None,482.23807800002396,None,,,,,,,,,,,P015,fencog,1,Pre,2021_Oct_20_1041,Go No-Go Task,2021.1.4,120.22019536302781,
,"Rule: When you see a yellow image, do not press 'spacebar'.",Images/Fearful/WF04_FC.jpg,Fear,Blue,Images/Blue.jpg,space,ParentConditions/YellowBlueBlue_v1.xlsx,BlueBlueYellow,Conditions/Version_1/YellowHappyStop.xlsx,no,PASS,0.007163238332436372,,,,,,,,,0,0,0,0,0,0,0,0,0,23,23,23,,,,,,,,,,,,,,,,,,,,,,,,,,,,,,,,,,,,,,,,,,,,,,,,,,,,,,,,,,,,,,,,,,,,,,,,,,,,,,,1.98,482.6397762000561,None,space,1,0.37831000005826354,484.7207244997844,None,484.7207244997844,None,484.7207244997844,None,,,,,,,,,,,P015,fencog,1,Pre,2021_Oct_20_1041,Go No-Go Task,2021.1.4,120.22019536302781,
,"Rule: When you see a yellow image, do not press 'spacebar'.",Images/Fearful/AF28AFS.jpg,Fear,Blue,Images/Blue.jpg,space,ParentConditions/YellowBlueBlue_v1.xlsx,BlueBlueYellow,Conditions/Version_1/YellowHappyStop.xlsx,no,PASS,0.6578574406316495,,,,,,,,,0,0,0,0,0,0,0,0,0,24,24,24,,,,,,,,,,,,,,,,,,,,,,,,,,,,,,,,,,,,,,,,,,,,,,,,,,,,,,,,,,,,,,,,,,,,,,,,,,,,,,,1.46,485.12618979997933,None,space,1,0.25188650004565716,486.68677160004154,None,486.68677160004154,None,486.68677160004154,None,,,,,,,,,,,P015,fencog,1,Pre,2021_Oct_20_1041,Go No-Go Task,2021.1.4,120.22019536302781,
,"Rule: When you see a yellow image, do not press 'spacebar'.",Images/Fearful/WF11_FC.jpg,Fear,Blue,Images/Blue.jpg,space,ParentConditions/YellowBlueBlue_v1.xlsx,BlueBlueYellow,Conditions/Version_1/YellowHappyStop.xlsx,no,PASS,0.16001068916200367,,,,,,,,,0,0,0,0,0,0,0,0,0,25,25,25,,,,,,,,,,,,,,,,,,,,,,,,,,,,,,,,,,,,,,,,,,,,,,,,,,,,,,,,,,,,,,,,,,,,,,,,,,,,,,,1.84,487.0864253998734,None,space,1,0.34257290000095963,489.0277979001403,None,489.0277979001403,None,489.0277979001403,None,,,,,,,,,,,P015,fencog,1,Pre,2021_Oct_20_1041,Go No-Go Task,2021.1.4,120.22019536302781,
,"Rule: When you see a yellow image, do not press 'spacebar'.",Images/Fearful/AM17AFS.jpg,Fear,Blue,Images/Blue.jpg,space,ParentConditions/YellowBlueBlue_v1.xlsx,BlueBlueYellow,Conditions/Version_1/YellowHappyStop.xlsx,no,PASS,0.11773651559349041,,,,,,,,,0,0,0,0,0,0,0,0,0,26,26,26,,,,,,,,,,,,,,,,,,,,,,,,,,,,,,,,,,,,,,,,,,,,,,,,,,,,,,,,,,,,,,,,,,,,,,,,,,,,,,,1.31,489.4359964001924,None,space,1,0.2542059002444148,490.85219520004466,None,490.85219520004466,None,490.85219520004466,None,,,,,,,,,,,P015,fencog,1,Pre,2021_Oct_20_1041,Go No-Go Task,2021.1.4,120.22019536302781,
,"Rule: When you see a yellow image, do not press 'spacebar'.",Images/Happy/AF27HAS.jpg,Happy,Yellow,Images/Yellow.jpg,None,ParentConditions/YellowBlueBlue_v1.xlsx,BlueBlueYellow,Conditions/Version_1/YellowHappyStop.xlsx,yes,PASS,0.3141869564869746,,,,,,,,,0,0,0,0,0,0,0,0,0,27,27,27,,,,,,,,,,,,,,,,,,,,,,,,,,,,,,,,,,,,,,,,,,,,,,,,,,,,,,,,,,,,,,,,,,,,,,,,,,,,,,,1.56,491.25367709994316,None,None,1,,492.91838470008224,None,492.91838470008224,None,492.91838470008224,None,,,,,,,,,,,P015,fencog,1,Pre,2021_Oct_20_1041,Go No-Go Task,2021.1.4,120.22019536302781,
,"Rule: When you see a yellow image, do not press 'spacebar'.",Images/Fearful/BF10_FO.jpg,Fear,Blue,Images/Blue.jpg,space,ParentConditions/YellowBlueBlue_v1.xlsx,BlueBlueYellow,Conditions/Version_1/YellowHappyStop.xlsx,no,PASS,0.6473836402289548,,,,,,,,,0,0,0,0,0,0,0,0,0,28,28,28,,,,,,,,,,,,,,,,,,,,,,,,,,,,,,,,,,,,,,,,,,,,,,,,,,,,,,,,,,,,,,,,,,,,,,,,,,,,,,,1.24,493.31870390009135,None,space,1,0.223407999612391,494.65938899992034,None,494.65938899992034,None,494.65938899992034,None,,,,,,,,,,,P015,fencog,1,Pre,2021_Oct_20_1041,Go No-Go Task,2021.1.4,120.22019536302781,
,"Rule: When you see a yellow image, do not press 'spacebar'.",Images/Fearful/HF04_FO.jpg,Fear,Blue,Images/Blue.jpg,space,ParentConditions/YellowBlueBlue_v1.xlsx,BlueBlueYellow,Conditions/Version_1/YellowHappyStop.xlsx,no,PASS,0.6573655365841123,,,,,,,,,0,0,0,0,0,0,0,0,0,29,29,29,,,,,,,,,,,,,,,,,,,,,,,,,,,,,,,,,,,,,,,,,,,,,,,,,,,,,,,,,,,,,,,,,,,,,,,,,,,,,,,1.91,495.05848920019343,None,space,1,0.2638280000537634,497.06705200020224,None,497.06705200020224,None,497.06705200020224,None,,,,,,,,,,,P015,fencog,1,Pre,2021_Oct_20_1041,Go No-Go Task,2021.1.4,120.22019536302781,
,"Rule: When you see a yellow image, do not press 'spacebar'.",Images/Happy/AF26HAS.jpg,Happy,Yellow,Images/Yellow.jpg,None,ParentConditions/YellowBlueBlue_v1.xlsx,BlueBlueYellow,Conditions/Version_1/YellowHappyStop.xlsx,yes,PASS,0.9634288273569958,,,,,,,,,0,0,0,0,0,0,0,0,0,30,30,30,,,,,,,,,,,,,,,,,,,,,,,,,,,,,,,,,,,,,,,,,,,,,,,,,,,,,,,,,,,,,,,,,,,,,,,,,,,,,,,1.65,497.4702639998868,None,None,1,,499.2247771997936,None,499.2247771997936,None,499.2247771997936,None,,,,,,,,,,,P015,fencog,1,Pre,2021_Oct_20_1041,Go No-Go Task,2021.1.4,120.22019536302781,
,"Rule: When you see a yellow image, do not press 'spacebar'.",Images/Happy/HF09_HE.jpg,Happy,Yellow,Images/Yellow.jpg,None,ParentConditions/YellowBlueBlue_v1.xlsx,BlueBlueYellow,Conditions/Version_1/YellowHappyStop.xlsx,yes,PASS,0.28002812366142005,,,,,,,,,0,0,0,0,0,0,0,0,0,31,31,31,,,,,,,,,,,,,,,,,,,,,,,,,,,,,,,,,,,,,,,,,,,,,,,,,,,,,,,,,,,,,,,,,,,,,,,,,,,,,,,1.75,499.6255072997883,None,None,1,,501.4825237002224,None,501.4825237002224,None,501.4825237002224,None,,,,,,,,,,,P015,fencog,1,Pre,2021_Oct_20_1041,Go No-Go Task,2021.1.4,120.22019536302781,
,"Rule: When you see a yellow image, do not press 'spacebar'.",Images/Fearful/AM16AFS.jpg,Fear,Blue,Images/Blue.jpg,space,ParentConditions/YellowBlueBlue_v1.xlsx,BlueBlueYellow,Conditions/Version_1/YellowHappyStop.xlsx,no,PASS,0.5681414931312986,,,,,,,,,0,0,0,0,0,0,0,0,0,32,32,32,,,,,,,,,,,,,,,,,,,,,,,,,,,,,,,,,,,,,,,,,,,,,,,,,,,,,,,,,,,,,,,,,,,,,,,,,,,,,,,1.87,501.88590230001137,None,space,1,0.2577579999342561,503.8567821998149,None,503.8567821998149,None,503.8567821998149,None,,,,,,,,,,,P015,fencog,1,Pre,2021_Oct_20_1041,Go No-Go Task,2021.1.4,120.22019536302781,
,"Rule: When you see a yellow image, do not press 'spacebar'.",Images/Fearful/WF05_FO.jpg,Fear,Blue,Images/Blue.jpg,space,ParentConditions/YellowBlueBlue_v1.xlsx,BlueBlueYellow,Conditions/Version_1/YellowHappyStop.xlsx,no,PASS,0.23759173368539344,,,,,,,,,0,0,0,0,0,0,0,0,0,33,33,33,,,,,,,,,,,,,,,,,,,,,,,,,,,,,,,,,,,,,,,,,,,,,,,,,,,,,,,,,,,,,,,,,,,,,,,,,,,,,,,1.88,504.2578345001675,None,space,1,0.2670785002410412,506.23963219998404,None,506.23963219998404,None,506.23963219998404,None,,,,,,,,,,,P015,fencog,1,Pre,2021_Oct_20_1041,Go No-Go Task,2021.1.4,120.22019536302781,
,"Rule: When you see a yellow image, do not press 'spacebar'.",Images/Fearful/AM03_FC.jpg,Fear,Blue,Images/Blue.jpg,space,ParentConditions/YellowBlueBlue_v1.xlsx,BlueBlueYellow,Conditions/Version_1/YellowHappyStop.xlsx,no,PASS,0.45277772012976447,,,,,,,,,0,0,0,0,0,0,0,0,0,34,34,34,,,,,,,,,,,,,,,,,,,,,,,,,,,,,,,,,,,,,,,,,,,,,,,,,,,,,,,,,,,,,,,,,,,,,,,,,,,,,,,1.79,506.6398470001295,None,space,1,0.26413939986377954,508.53032509982586,None,508.53032509982586,None,508.53032509982586,None,,,,,,,,,,,P015,fencog,1,Pre,2021_Oct_20_1041,Go No-Go Task,2021.1.4,120.22019536302781,
,"Rule: When you see a yellow image, do not press 'spacebar'.",Images/Fearful/AM01AFS.jpg,Fear,Blue,Images/Blue.jpg,space,ParentConditions/YellowBlueBlue_v1.xlsx,BlueBlueYellow,Conditions/Version_1/YellowHappyStop.xlsx,no,PASS,0.4826830931616207,,,,,,,,,0,0,0,0,0,0,0,0,0,35,35,35,,,,,,,,,,,,,,,,,,,,,,,,,,,,,,,,,,,,,,,,,,,,,,,,,,,,,,,,,,,,,,,,,,,,,,,,,,,,,,,1.6,508.9308930002153,None,space,1,0.26162520004436374,510.62974540004507,None,510.62974540004507,None,510.62974540004507,None,,,,,,,,,,,P015,fencog,1,Pre,2021_Oct_20_1041,Go No-Go Task,2021.1.4,120.22019536302781,
,"Rule: When you see a yellow image, do not press 'spacebar'.",Images/Fearful/HM04_FC.jpg,Fear,Blue,Images/Blue.jpg,space,ParentConditions/YellowBlueBlue_v1.xlsx,BlueBlueYellow,Conditions/Version_1/YellowHappyStop.xlsx,no,PASS,0.46069029171054665,,,,,,,,,0,0,0,0,0,0,0,0,0,36,36,36,,,,,,,,,,,,,,,,,,,,,,,,,,,,,,,,,,,,,,,,,,,,,,,,,,,,,,,,,,,,,,,,,,,,,,,,,,,,,,,1.26,511.02900459989905,None,space,1,0.3825644999742508,512.4043072001077,None,512.4043072001077,None,512.4043072001077,None,,,,,,,,,,,P015,fencog,1,Pre,2021_Oct_20_1041,Go No-Go Task,2021.1.4,120.22019536302781,
,"Rule: When you see a yellow image, do not press 'spacebar'.",Images/Fearful/BF18_FC.jpg,Fear,Blue,Images/Blue.jpg,space,ParentConditions/YellowBlueBlue_v1.xlsx,BlueBlueYellow,Conditions/Version_1/YellowHappyStop.xlsx,no,PASS,0.633030328468129,,,,,,,,,0,0,0,0,0,0,0,0,0,37,37,37,,,,,,,,,,,,,,,,,,,,,,,,,,,,,,,,,,,,,,,,,,,,,,,,,,,,,,,,,,,,,,,,,,,,,,,,,,,,,,,1.73,512.8033231999725,None,space,1,0.2941244002431631,514.628653800115,None,514.628653800115,None,514.628653800115,None,,,,,,,,,,,P015,fencog,1,Pre,2021_Oct_20_1041,Go No-Go Task,2021.1.4,120.22019536302781,
,"Rule: When you see a yellow image, do not press 'spacebar'.",Images/Fearful/AF07_FO.jpg,Fear,Blue,Images/Blue.jpg,space,ParentConditions/YellowBlueBlue_v1.xlsx,BlueBlueYellow,Conditions/Version_1/YellowHappyStop.xlsx,no,PASS,0.34147832357579266,,,,,,,,,0,0,0,0,0,0,0,0,0,38,38,38,,,,,,,,,,,,,,,,,,,,,,,,,,,,,,,,,,,,,,,,,,,,,,,,,,,,,,,,,,,,,,,,,,,,,,,,,,,,,,,1.51,515.0310696000233,None,space,1,0.2630612999200821,516.6446993001737,None,516.6446993001737,None,516.6446993001737,None,,,,,,,,,,,P015,fencog,1,Pre,2021_Oct_20_1041,Go No-Go Task,2021.1.4,120.22019536302781,
,"Rule: When you see a yellow image, do not press 'spacebar'.",Images/Fearful/AM24AFS.jpg,Fear,Blue,Images/Blue.jpg,space,ParentConditions/YellowBlueBlue_v1.xlsx,BlueBlueYellow,Conditions/Version_1/YellowHappyStop.xlsx,no,PASS,0.778148808430259,,,,,,,,,0,0,0,0,0,0,0,0,0,39,39,39,,,,,,,,,,,,,,,,,,,,,,,,,,,,,,,,,,,,,,,,,,,,,,,,,,,,,,,,,,,,,,,,,,,,,,,,,,,,,,,1.62,517.0451547000557,None,space,1,0.22590140020474792,518.7690444001928,None,518.7690444001928,None,518.7690444001928,None,,,,,,,,,,,P015,fencog,1,Pre,2021_Oct_20_1041,Go No-Go Task,2021.1.4,120.22019536302781,
,"Rule: When you see a yellow image, do not press 'spacebar'.",Images/Fearful/AM03AFS.jpg,Fear,Blue,Images/Blue.jpg,space,ParentConditions/YellowBlueBlue_v1.xlsx,BlueBlueYellow,Conditions/Version_1/YellowHappyStop.xlsx,no,PASS,0.23044092834848573,,,,,,,,,0,0,0,0,0,0,0,0,0,40,40,40,,,,,,,,,,,,,,,,,,,,,,,,,,,,,,,,,,,,,,,,,,,,,,,,,,,,,,,,,,,,,,,,,,,,,,,,,,,,,,,1.55,519.170642899815,None,space,1,0.24821510026231408,520.8267327998765,None,520.8267327998765,None,520.8267327998765,None,,,,,,,,,,,P015,fencog,1,Pre,2021_Oct_20_1041,Go No-Go Task,2021.1.4,120.22019536302781,
,"Rule: When you see a yellow image, do not press 'spacebar'.",Images/Fearful/BM08_FC.jpg,Fear,Blue,Images/Blue.jpg,space,ParentConditions/YellowBlueBlue_v1.xlsx,BlueBlueYellow,Conditions/Version_1/YellowHappyStop.xlsx,no,PASS,0.6548756521259214,,,,,,,,,0,0,0,0,0,0,0,0,0,41,41,41,,,,,,,,,,,,,,,,,,,,,,,,,,,,,,,,,,,,,,,,,,,,,,,,,,,,,,,,,,,,,,,,,,,,,,,,,,,,,,,1.32,521.2302469001152,None,space,1,0.2479420998133719,522.651234799996,None,522.651234799996,None,522.651234799996,None,,,,,,,,,,,P015,fencog,1,Pre,2021_Oct_20_1041,Go No-Go Task,2021.1.4,120.22019536302781,
,"Rule: When you see a yellow image, do not press 'spacebar'.",Images/Fearful/AF32AFS.jpg,Fear,Blue,Images/Blue.jpg,space,ParentConditions/YellowBlueBlue_v1.xlsx,BlueBlueYellow,Conditions/Version_1/YellowHappyStop.xlsx,no,PASS,0.9401650545876452,,,,,,,,,0,0,0,0,0,0,0,0,0,42,42,42,,,,,,,,,,,,,,,,,,,,,,,,,,,,,,,,,,,,,,,,,,,,,,,,,,,,,,,,,,,,,,,,,,,,,,,,,,,,,,,1.77,523.0534908999689,None,space,1,0.2765346998348832,524.9339167000726,None,524.9339167000726,None,524.9339167000726,None,,,,,,,,,,,P015,fencog,1,Pre,2021_Oct_20_1041,Go No-Go Task,2021.1.4,120.22019536302781,
,"Rule: When you see a yellow image, do not press 'spacebar'.",Images/Fearful/AF26AFS.jpg,Fear,Blue,Images/Blue.jpg,space,ParentConditions/YellowBlueBlue_v1.xlsx,BlueBlueYellow,Conditions/Version_1/YellowHappyStop.xlsx,no,PASS,0.5799257276734284,,,,,,,,,0,0,0,0,0,0,0,0,0,43,43,43,,,,,,,,,,,,,,,,,,,,,,,,,,,,,,,,,,,,,,,,,,,,,,,,,,,,,,,,,,,,,,,,,,,,,,,,,,,,,,,1.93,525.3311164001934,None,space,1,0.22823689971119165,527.3664807998575,None,527.3664807998575,None,527.3664807998575,None,,,,,,,,,,,P015,fencog,1,Pre,2021_Oct_20_1041,Go No-Go Task,2021.1.4,120.22019536302781,
,"Rule: When you see a yellow image, do not press 'spacebar'.",Images/Fearful/BF09_FC.jpg,Fear,Blue,Images/Blue.jpg,space,ParentConditions/YellowBlueBlue_v1.xlsx,BlueBlueYellow,Conditions/Version_1/YellowHappyStop.xlsx,no,PASS,0.9512288628250045,,,,,,,,,0,0,0,0,0,0,0,0,0,44,44,44,,,,,,,,,,,,,,,,,,,,,,,,,,,,,,,,,,,,,,,,,,,,,,,,,,,,,,,,,,,,,,,,,,,,,,,,,,,,,,,1.23,527.7725798999891,None,space,1,0.27948779985308647,529.1076616998762,None,529.1076616998762,None,529.1076616998762,None,,,,,,,,,,,P015,fencog,1,Pre,2021_Oct_20_1041,Go No-Go Task,2021.1.4,120.22019536302781,
,"Rule: When you see a yellow image, do not press 'spacebar'.",Images/Fearful/BM01_FO.jpg,Fear,Blue,Images/Blue.jpg,space,ParentConditions/YellowBlueBlue_v1.xlsx,BlueBlueYellow,Conditions/Version_1/YellowHappyStop.xlsx,no,PASS,0.8954287307362916,,,,,,,,,0,0,0,0,0,0,0,0,0,45,45,45,,,,,,,,,,,,,,,,,,,,,,,,,,,,,,,,,,,,,,,,,,,,,,,,,,,,,,,,,,,,,,,,,,,,,,,,,,,,,,,1.97,529.5099014001898,None,space,1,0.34880660008639097,531.5819149999879,None,531.5819149999879,None,531.5819149999879,None,,,,,,,,,,,P015,fencog,1,Pre,2021_Oct_20_1041,Go No-Go Task,2021.1.4,120.22019536302781,
,"Rule: When you see a yellow image, do not press 'spacebar'.",Images/Happy/BF14_HO.jpg,Happy,Yellow,Images/Yellow.jpg,None,ParentConditions/YellowBlueBlue_v1.xlsx,BlueBlueYellow,Conditions/Version_1/YellowHappyStop.xlsx,yes,PASS,0.7234280216409134,,,,,,,,,0,0,0,0,0,0,0,0,0,46,46,46,,,,,,,,,,,,,,,,,,,,,,,,,,,,,,,,,,,,,,,,,,,,,,,,,,,,,,,,,,,,,,,,,,,,,,,,,,,,,,,1.7,531.9826382999308,None,None,1,,533.7895744000562,None,533.7895744000562,None,533.7895744000562,None,,,,,,,,,,,P015,fencog,1,Pre,2021_Oct_20_1041,Go No-Go Task,2021.1.4,120.22019536302781,
,"Rule: When you see a yellow image, do not press 'spacebar'.",Images/Fearful/WM11_FC.jpg,Fear,Blue,Images/Blue.jpg,space,ParentConditions/YellowBlueBlue_v1.xlsx,BlueBlueYellow,Conditions/Version_1/YellowHappyStop.xlsx,no,PASS,0.023552814974996727,,,,,,,,,0,0,0,0,0,0,0,0,0,47,47,47,,,,,,,,,,,,,,,,,,,,,,,,,,,,,,,,,,,,,,,,,,,,,,,,,,,,,,,,,,,,,,,,,,,,,,,,,,,,,,,1.41,534.1905390000902,None,space,1,0.2490469003096223,535.7057282999158,None,535.7057282999158,None,535.7057282999158,None,,,,,,,,,,,P015,fencog,1,Pre,2021_Oct_20_1041,Go No-Go Task,2021.1.4,120.22019536302781,
,"Rule: When you see a yellow image, do not press 'spacebar'.",Images/Fearful/AM02_FO.jpg,Fear,Blue,Images/Blue.jpg,space,ParentConditions/YellowBlueBlue_v1.xlsx,BlueBlueYellow,Conditions/Version_1/YellowHappyStop.xlsx,no,PASS,0.4906088235260202,,,,,,,,,0,0,0,0,0,0,0,0,0,48,48,48,,,,,,,,,,,,,,,,,,,,,,,,,,,,,,,,,,,,,,,,,,,,,,,,,,,,,,,,,,,,,,,,,,,,,,,,,,,,,,,1.36,536.1088457000442,None,space,1,0.2540266001597047,537.5725217000581,None,537.5725217000581,None,537.5725217000581,None,,,,,,,,,,,P015,fencog,1,Pre,2021_Oct_20_1041,Go No-Go Task,2021.1.4,120.22019536302781,
,"Rule: When you see a yellow image, do not press 'spacebar'.",Images/Happy/HM09_HO.jpg,Happy,Yellow,Images/Yellow.jpg,None,ParentConditions/YellowBlueBlue_v1.xlsx,BlueBlueYellow,Conditions/Version_1/YellowHappyStop.xlsx,yes,PASS,0.5172626673634482,,,,,,,,,0,0,0,0,0,0,0,0,0,49,49,49,,,,,,,,,,,,,,,,,,,,,,,,,,,,,,,,,,,,,,,,,,,,,,,,,,,,,,,,,,,,,,,,,,,,,,,,,,,,,,,1.35,537.9826425001957,None,None,1,,539.4296288001351,None,539.4296288001351,None,539.4296288001351,None,,,,,,,,,,,P015,fencog,1,Pre,2021_Oct_20_1041,Go No-Go Task,2021.1.4,120.22019536302781,
,"Rule: When you see a yellow image, do not press 'spacebar'.",Images/Happy/HF10_HE.jpg,Happy,Yellow,Images/Yellow.jpg,None,ParentConditions/YellowBlueBlue_v1.xlsx,BlueBlueYellow,Conditions/Version_1/YellowHappyStop.xlsx,yes,PASS,0.44150167084278924,,,,,,,,,0,0,0,0,0,0,0,0,0,50,50,50,,,,,,,,,,,,,,,,,,,,,,,,,,,,,,,,,,,,,,,,,,,,,,,,,,,,,,,,,,,,,,,,,,,,,,,,,,,,,,,1.86,539.8303861999884,None,None,1,,541.7955649001524,None,541.7955649001524,None,541.7955649001524,None,,,,,,,,,,,P015,fencog,1,Pre,2021_Oct_20_1041,Go No-Go Task,2021.1.4,120.22019536302781,
,"Rule: When you see a yellow image, do not press 'spacebar'.",Images/Fearful/AF09AFS.jpg,Fear,Blue,Images/Blue.jpg,space,ParentConditions/YellowBlueBlue_v1.xlsx,BlueBlueYellow,Conditions/Version_1/YellowHappyStop.xlsx,no,PASS,0.20329731425220043,,,,,,,,,0,0,0,0,0,0,0,0,0,51,51,51,,,,,,,,,,,,,,,,,,,,,,,,,,,,,,,,,,,,,,,,,,,,,,,,,,,,,,,,,,,,,,,,,,,,,,,,,,,,,,,1.57,542.1973327999003,None,space,1,0.26096760015934706,543.8700243001804,None,543.8700243001804,None,543.8700243001804,None,,,,,,,,,,,P015,fencog,1,Pre,2021_Oct_20_1041,Go No-Go Task,2021.1.4,120.22019536302781,
,"Rule: When you see a yellow image, do not press 'spacebar'.",Images/Fearful/AM23AFS.jpg,Fear,Blue,Images/Blue.jpg,space,ParentConditions/YellowBlueBlue_v1.xlsx,BlueBlueYellow,Conditions/Version_1/YellowHappyStop.xlsx,no,PASS,0.9134790301426777,,,,,,,,,0,0,0,0,0,0,0,0,0,52,52,52,,,,,,,,,,,,,,,,,,,,,,,,,,,,,,,,,,,,,,,,,,,,,,,,,,,,,,,,,,,,,,,,,,,,,,,,,,,,,,,1.89,544.2714824001305,None,space,1,0.2856638999655843,546.2692535999231,None,546.2692535999231,None,546.2692535999231,None,,,,,,,,,,,P015,fencog,1,Pre,2021_Oct_20_1041,Go No-Go Task,2021.1.4,120.22019536302781,
,"Rule: When you see a yellow image, do not press 'spacebar'.",Images/Fearful/AM05AFS.jpg,Fear,Blue,Images/Blue.jpg,space,ParentConditions/YellowBlueBlue_v1.xlsx,BlueBlueYellow,Conditions/Version_1/YellowHappyStop.xlsx,no,PASS,0.7369542946293995,,,,,,,,,0,0,0,0,0,0,0,0,0,53,53,53,,,,,,,,,,,,,,,,,,,,,,,,,,,,,,,,,,,,,,,,,,,,,,,,,,,,,,,,,,,,,,,,,,,,,,,,,,,,,,,1.99,546.6712251999415,None,space,1,0.26590800005942583,548.7686112998053,None,548.7686112998053,None,548.7686112998053,None,,,,,,,,,,,P015,fencog,1,Pre,2021_Oct_20_1041,Go No-Go Task,2021.1.4,120.22019536302781,
,"Rule: When you see a yellow image, do not press 'spacebar'.",Images/Happy/AF28HAS.jpg,Happy,Yellow,Images/Yellow.jpg,None,ParentConditions/YellowBlueBlue_v1.xlsx,BlueBlueYellow,Conditions/Version_1/YellowHappyStop.xlsx,yes,PASS,0.27168303726444554,,,,,,,,,0,0,0,0,0,0,0,0,0,54,54,54,,,,,,,,,,,,,,,,,,,,,,,,,,,,,,,,,,,,,,,,,,,,,,,,,,,,,,,,,,,,,,,,,,,,,,,,,,,,,,,1.4,549.1677693999372,None,None,1,,550.6679866998456,None,550.6679866998456,None,550.6679866998456,None,,,,,,,,,,,P015,fencog,1,Pre,2021_Oct_20_1041,Go No-Go Task,2021.1.4,120.22019536302781,
,"Rule: When you see a yellow image, do not press 'spacebar'.",Images/Fearful/BF14_FO.jpg,Fear,Blue,Images/Blue.jpg,space,ParentConditions/YellowBlueBlue_v1.xlsx,BlueBlueYellow,Conditions/Version_1/YellowHappyStop.xlsx,no,PASS,0.6433421649003036,,,,,,,,,0,0,0,0,0,0,0,0,0,55,55,55,,,,,,,,,,,,,,,,,,,,,,,,,,,,,,,,,,,,,,,,,,,,,,,,,,,,,,,,,,,,,,,,,,,,,,,,,,,,,,,1.5,551.0687672002241,None,space,1,0.24676640005782247,552.675792499911,None,552.675792499911,None,552.675792499911,None,,,,,,,,,,,P015,fencog,1,Pre,2021_Oct_20_1041,Go No-Go Task,2021.1.4,120.22019536302781,
,"Rule: When you see a yellow image, do not press 'spacebar'.",Images/Happy/AM30HAS.jpg,Happy,Yellow,Images/Yellow.jpg,None,ParentConditions/YellowBlueBlue_v1.xlsx,BlueBlueYellow,Conditions/Version_1/YellowHappyStop.xlsx,yes,PASS,0.0794505415747715,,,,,,,,,0,0,0,0,0,0,0,0,0,56,56,56,,,,,,,,,,,,,,,,,,,,,,,,,,,,,,,,,,,,,,,,,,,,,,,,,,,,,,,,,,,,,,,,,,,,,,,,,,,,,,,1.48,553.0808482998982,None,None,1,,554.6667877999134,None,554.6667877999134,None,554.6667877999134,None,,,,,,,,,,,P015,fencog,1,Pre,2021_Oct_20_1041,Go No-Go Task,2021.1.4,120.22019536302781,
,"Rule: When you see a yellow image, do not press 'spacebar'.",Images/Fearful/AF27AFS.jpg,Fear,Blue,Images/Blue.jpg,space,ParentConditions/YellowBlueBlue_v1.xlsx,BlueBlueYellow,Conditions/Version_1/YellowHappyStop.xlsx,no,PASS,0.3935834771022866,,,,,,,,,0,0,0,0,0,0,0,0,0,57,57,57,,,,,,,,,,,,,,,,,,,,,,,,,,,,,,,,,,,,,,,,,,,,,,,,,,,,,,,,,,,,,,,,,,,,,,,,,,,,,,,1.33,555.067957600113,None,space,1,0.24741140007972717,556.4996114000678,None,556.4996114000678,None,556.4996114000678,None,,,,,,,,,,,P015,fencog,1,Pre,2021_Oct_20_1041,Go No-Go Task,2021.1.4,120.22019536302781,
,"Rule: When you see a yellow image, do not press 'spacebar'.",Images/Fearful/AM32AFS.jpg,Fear,Blue,Images/Blue.jpg,space,ParentConditions/YellowBlueBlue_v1.xlsx,BlueBlueYellow,Conditions/Version_1/YellowHappyStop.xlsx,no,PASS,0.5614458224122035,,,,,,,,,0,0,0,0,0,0,0,0,0,58,58,58,,,,,,,,,,,,,,,,,,,,,,,,,,,,,,,,,,,,,,,,,,,,,,,,,,,,,,,,,,,,,,,,,,,,,,,,,,,,,,,1.81,556.8989499998279,None,space,1,0.3151483000256121,558.8156606000848,None,558.8156606000848,None,558.8156606000848,None,,,,,,,,,,,P015,fencog,1,Pre,2021_Oct_20_1041,Go No-Go Task,2021.1.4,120.22019536302781,
,"Rule: When you see a yellow image, do not press 'spacebar'.",Images/Fearful/AM09_FO.jpg,Fear,Blue,Images/Blue.jpg,space,ParentConditions/YellowBlueBlue_v1.xlsx,BlueBlueYellow,Conditions/Version_1/YellowHappyStop.xlsx,no,PASS,0.3933837419145386,,,,,,,,,0,0,0,0,0,0,0,0,0,59,59,59,,,,,,,,,,,,,,,,,,,,,,,,,,,,,,,,,,,,,,,,,,,,,,,,,,,,,,,,,,,,,,,,,,,,,,,,,,,,,,,1.85,559.2211809,None,space,1,0.2935746000148356,561.1731934999116,None,561.1731934999116,None,561.1731934999116,None,,,,,,,,,,,P015,fencog,1,Pre,2021_Oct_20_1041,Go No-Go Task,2021.1.4,120.22019536302781,
,"Rule: When you see a yellow image, do not press 'spacebar'.",Images/Fearful/AF01_FO.jpg,Fear,Blue,Images/Blue.jpg,space,ParentConditions/YellowBlueBlue_v1.xlsx,BlueBlueYellow,Conditions/Version_1/YellowHappyStop.xlsx,no,PASS,0.7419870009427991,,,,,,,,,0,0,0,0,0,0,0,0,0,60,60,60,,,,,,,,,,,,,,,,,,,,,,,,,,,,,,,,,,,,,,,,,,,,,,,,,,,,,,,,,,,,,,,,,,,,,,,,,,,,,,,1.64,561.5780000998639,None,space,1,0.2479751999489963,563.3225447000004,None,563.3225447000004,None,563.3225447000004,None,,,,,,,,,,,P015,fencog,1,Pre,2021_Oct_20_1041,Go No-Go Task,2021.1.4,120.22019536302781,
,"Rule: When you see a yellow image, do not press 'spacebar'.",Images/Happy/AM10_HO.jpg,Happy,Yellow,Images/Yellow.jpg,None,ParentConditions/YellowBlueBlue_v1.xlsx,BlueBlueYellow,Conditions/Version_1/YellowHappyStop.xlsx,yes,PASS,0.7352402085502512,,,,,,,,,0,0,0,0,0,0,0,0,0,61,61,61,,,,,,,,,,,,,,,,,,,,,,,,,,,,,,,,,,,,,,,,,,,,,,,,,,,,,,,,,,,,,,,,,,,,,,,,,,,,,,,1.67,563.7229177001864,None,None,1,,565.49703089986,None,565.49703089986,None,565.49703089986,None,,,,,,,,,,,P015,fencog,1,Pre,2021_Oct_20_1041,Go No-Go Task,2021.1.4,120.22019536302781,
,"Rule: When you see a yellow image, do not press 'spacebar'.",Images/Happy/AM22HAS.jpg,Happy,Yellow,Images/Yellow.jpg,None,ParentConditions/YellowBlueBlue_v1.xlsx,BlueBlueYellow,Conditions/Version_1/YellowHappyStop.xlsx,yes,PASS,0.27838589915801637,,,,,,,,,0,0,0,0,0,0,0,0,0,62,62,62,,,,,,,,,,,,,,,,,,,,,,,,,,,,,,,,,,,,,,,,,,,,,,,,,,,,,,,,,,,,,,,,,,,,,,,,,,,,,,,1.66,565.8975537000224,None,None,1,,567.6630262997933,None,567.6630262997933,None,567.6630262997933,None,,,,,,,,,,,P015,fencog,1,Pre,2021_Oct_20_1041,Go No-Go Task,2021.1.4,120.22019536302781,
,"Rule: When you see a yellow image, do not press 'spacebar'.",Images/Fearful/AM22AFS.jpg,Fear,Blue,Images/Blue.jpg,space,ParentConditions/YellowBlueBlue_v1.xlsx,BlueBlueYellow,Conditions/Version_1/YellowHappyStop.xlsx,no,PASS,0.012398818855924532,,,,,,,,,0,0,0,0,0,0,0,0,0,63,63,63,,,,,,,,,,,,,,,,,,,,,,,,,,,,,,,,,,,,,,,,,,,,,,,,,,,,,,,,,,,,,,,,,,,,,,,,,,,,,,,1.63,568.063240500167,None,space,1,0.3109793998301029,569.7956686001271,None,569.7956686001271,None,569.7956686001271,None,,,,,,,,,,,P015,fencog,1,Pre,2021_Oct_20_1041,Go No-Go Task,2021.1.4,120.22019536302781,
,"Rule: When you see a yellow image, do not press 'spacebar'.",Images/Happy/BM08_HO.jpg,Happy,Yellow,Images/Yellow.jpg,None,ParentConditions/YellowBlueBlue_v1.xlsx,BlueBlueYellow,Conditions/Version_1/YellowHappyStop.xlsx,yes,PASS,0.25791881247444226,,,,,,,,,0,0,0,0,0,0,0,0,0,64,64,64,,,,,,,,,,,,,,,,,,,,,,,,,,,,,,,,,,,,,,,,,,,,,,,,,,,,,,,,,,,,,,,,,,,,,,,,,,,,,,,1.74,570.1987196998671,None,None,1,,572.0450498000719,None,572.0450498000719,None,572.0450498000719,None,,,,,,,,,,,P015,fencog,1,Pre,2021_Oct_20_1041,Go No-Go Task,2021.1.4,120.22019536302781,
,"Rule: When you see a yellow image, do not press 'spacebar'.",Images/Fearful/AM19AFS.jpg,Fear,Blue,Images/Blue.jpg,space,ParentConditions/YellowBlueBlue_v1.xlsx,BlueBlueYellow,Conditions/Version_1/YellowHappyStop.xlsx,no,PASS,0.4570092371665587,,,,,,,,,0,0,0,0,0,0,0,0,0,65,65,65,,,,,,,,,,,,,,,,,,,,,,,,,,,,,,,,,,,,,,,,,,,,,,,,,,,,,,,,,,,,,,,,,,,,,,,,,,,,,,,1.83,572.4472562000155,None,space,1,0.26581860007718205,574.3776795999147,None,574.3776795999147,None,574.3776795999147,None,,,,,,,,,,,P015,fencog,1,Pre,2021_Oct_20_1041,Go No-Go Task,2021.1.4,120.22019536302781,
,"Rule: When you see a yellow image, do not press 'spacebar'.",Images/Fearful/AF23AFS.jpg,Fear,Blue,Images/Blue.jpg,space,ParentConditions/YellowBlueBlue_v1.xlsx,BlueBlueYellow,Conditions/Version_1/YellowHappyStop.xlsx,no,PASS,0.9065930904744121,,,,,,,,,0,0,0,0,0,0,0,0,0,66,66,66,,,,,,,,,,,,,,,,,,,,,,,,,,,,,,,,,,,,,,,,,,,,,,,,,,,,,,,,,,,,,,,,,,,,,,,,,,,,,,,1.25,574.7783613000065,None,space,1,0.2831979999318719,576.1354884998873,None,576.1354884998873,None,576.1354884998873,None,,,,,,,,,,,P015,fencog,1,Pre,2021_Oct_20_1041,Go No-Go Task,2021.1.4,120.22019536302781,
,"Rule: When you see a yellow image, do not press 'spacebar'.",Images/Fearful/AM13AFS.jpg,Fear,Blue,Images/Blue.jpg,space,ParentConditions/YellowBlueBlue_v1.xlsx,BlueBlueYellow,Conditions/Version_1/YellowHappyStop.xlsx,no,PASS,0.672217887403839,,,,,,,,,0,0,0,0,0,0,0,0,0,67,67,67,,,,,,,,,,,,,,,,,,,,,,,,,,,,,,,,,,,,,,,,,,,,,,,,,,,,,,,,,,,,,,,,,,,,,,,,,,,,,,,1.59,576.5408936999738,None,space,1,0.29592599999159575,578.2348545999266,None,578.2348545999266,None,578.2348545999266,None,,,,,,,,,,,P015,fencog,1,Pre,2021_Oct_20_1041,Go No-Go Task,2021.1.4,120.22019536302781,
,"Rule: When you see a yellow image, do not press 'spacebar'.",Images/Fearful/HF09_FC.jpg,Fear,Blue,Images/Blue.jpg,space,ParentConditions/YellowBlueBlue_v1.xlsx,BlueBlueYellow,Conditions/Version_1/YellowHappyStop.xlsx,no,PASS,0.947763278232759,,,,,,,,,0,0,0,0,0,0,0,0,0,68,68,68,,,,,,,,,,,,,,,,,,,,,,,,,,,,,,,,,,,,,,,,,,,,,,,,,,,,,,,,,,,,,,,,,,,,,,,,,,,,,,,1.27,578.6367522999644,None,space,1,0.24908050009980798,580.009442599956,None,580.009442599956,None,580.009442599956,None,,,,,,,,,,,P015,fencog,1,Pre,2021_Oct_20_1041,Go No-Go Task,2021.1.4,120.22019536302781,
,"Rule: When you see a yellow image, do not press 'spacebar'.",Images/Fearful/AM04AFS.jpg,Fear,Blue,Images/Blue.jpg,space,ParentConditions/YellowBlueBlue_v1.xlsx,BlueBlueYellow,Conditions/Version_1/YellowHappyStop.xlsx,no,PASS,0.7155710730323807,,,,,,,,,0,0,0,0,0,0,0,0,0,69,69,69,,,,,,,,,,,,,,,,,,,,,,,,,,,,,,,,,,,,,,,,,,,,,,,,,,,,,,,,,,,,,,,,,,,,,,,,,,,,,,,1.69,580.4158709999174,None,space,1,0.19456400023773313,582.2086355001666,None,582.2086355001666,None,582.2086355001666,None,,,,,,,,,,,P015,fencog,1,Pre,2021_Oct_20_1041,Go No-Go Task,2021.1.4,120.22019536302781,
,"Rule: When you see a yellow image, do not press 'spacebar'.",Images/Fearful/AF02AFS.jpg,Fear,Blue,Images/Blue.jpg,space,ParentConditions/YellowBlueBlue_v1.xlsx,BlueBlueYellow,Conditions/Version_1/YellowHappyStop.xlsx,no,PASS,0.9864792225255055,,,,,,,,,0,0,0,0,0,0,0,0,0,70,70,70,,,,,,,,,,,,,,,,,,,,,,,,,,,,,,,,,,,,,,,,,,,,,,,,,,,,,,,,,,,,,,,,,,,,,,,,,,,,,,,1.2,582.6182575998828,None,space,1,0.2622162997722626,583.9248869000003,None,583.9248869000003,None,583.9248869000003,None,,,,,,,,,,,P015,fencog,1,Pre,2021_Oct_20_1041,Go No-Go Task,2021.1.4,120.22019536302781,
,"Rule: When you see a yellow image, do not press 'spacebar'.",Images/Fearful/AM09AFS.jpg,Fear,Blue,Images/Blue.jpg,space,ParentConditions/YellowBlueBlue_v1.xlsx,BlueBlueYellow,Conditions/Version_1/YellowHappyStop.xlsx,no,PASS,0.8390326237024166,,,,,,,,,0,0,0,0,0,0,0,0,0,71,71,71,,,,,,,,,,,,,,,,,,,,,,,,,,,,,,,,,,,,,,,,,,,,,,,,,,,,,,,,,,,,,,,,,,,,,,,,,,,,,,,1.54,584.3243606998585,None,space,1,0.2126935999840498,585.965923700016,None,585.965923700016,None,585.965923700016,None,,,,,,,,,,,P015,fencog,1,Pre,2021_Oct_20_1041,Go No-Go Task,2021.1.4,120.22019536302781,
,"Rule: When you see a yellow image, do not press 'spacebar'.",Images/Fearful/BF05_FO.jpg,Fear,Blue,Images/Blue.jpg,space,ParentConditions/YellowBlueBlue_v1.xlsx,BlueBlueYellow,Conditions/Version_1/YellowHappyStop.xlsx,no,PASS,0.691917879610661,,,,,,,,,0,0,0,0,0,0,0,0,0,72,72,72,,,,,,,,,,,,,,,,,,,,,,,,,,,,,,,,,,,,,,,,,,,,,,,,,,,,,,,,,,,,,,,,,,,,,,,,,,,,,,,1.53,586.3660250999965,None,space,1,0.25207919999957085,587.9986817999743,None,587.9986817999743,None,587.9986817999743,None,,,,,,,,,,,P015,fencog,1,Pre,2021_Oct_20_1041,Go No-Go Task,2021.1.4,120.22019536302781,
,"Rule: When you see a yellow image, do not press 'spacebar'.",Images/Fearful/AF22AFS.jpg,Fear,Blue,Images/Blue.jpg,space,ParentConditions/YellowBlueBlue_v1.xlsx,BlueBlueYellow,Conditions/Version_1/YellowHappyStop.xlsx,no,PASS,0.03529836358299465,,,,,,,,,0,0,0,0,0,0,0,0,0,73,73,73,,,,,,,,,,,,,,,,,,,,,,,,,,,,,,,,,,,,,,,,,,,,,,,,,,,,,,,,,,,,,,,,,,,,,,,,,,,,,,,2,588.399420700036,None,space,1,0.24858740018680692,590.506201799959,None,590.506201799959,None,590.506201799959,None,,,,,,,,,,,P015,fencog,1,Pre,2021_Oct_20_1041,Go No-Go Task,2021.1.4,120.22019536302781,
,"Rule: When you see a yellow image, do not press 'spacebar'.",Images/Happy/BF18_HO.jpg,Happy,Yellow,Images/Yellow.jpg,None,ParentConditions/YellowBlueBlue_v1.xlsx,BlueBlueYellow,Conditions/Version_1/YellowHappyStop.xlsx,yes,PASS,0.4232691792902379,,,,,,,,,0,0,0,0,0,0,0,0,0,74,74,74,,,,,,,,,,,,,,,,,,,,,,,,,,,,,,,,,,,,,,,,,,,,,,,,,,,,,,,,,,,,,,,,,,,,,,,,,,,,,,,1.45,590.9083054000512,None,space,0,0.2427912000566721,592.4639885998331,None,592.4639885998331,None,592.4639885998331,None,,,,,,,,,,,P015,fencog,1,Pre,2021_Oct_20_1041,Go No-Go Task,2021.1.4,120.22019536302781,
,"Rule: When you see a yellow image, do not press 'spacebar'.",Images/Fearful/WM12_FO.jpg,Fear,Blue,Images/Blue.jpg,space,ParentConditions/YellowBlueBlue_v1.xlsx,BlueBlueYellow,Conditions/Version_1/YellowHappyStop.xlsx,no,PASS,0.34671640176200413,,,,,,,,,0,0,0,0,0,0,0,0,0,75,75,75,,,,,,,,,,,,,,,,,,,,,,,,,,,,,,,,,,,,,,,,,,,,,,,,,,,,,,,,,,,,,,,,,,,,,,,,,,,,,,,1.47,592.8683988000266,None,space,1,0.3006301000714302,594.4384238999337,None,594.4384238999337,None,594.4384238999337,None,,,,,,,,,,,P015,fencog,1,Pre,2021_Oct_20_1041,Go No-Go Task,2021.1.4,120.22019536302781,
,"Rule: When you see a yellow image, do not press 'spacebar'.",Images/Fearful/BF07_FO.jpg,Fear,Blue,Images/Blue.jpg,space,ParentConditions/YellowBlueBlue_v1.xlsx,BlueBlueYellow,Conditions/Version_1/YellowHappyStop.xlsx,no,PASS,0.2992945798396267,,,,,,,,,0,0,0,0,0,0,0,0,0,76,76,76,,,,,,,,,,,,,,,,,,,,,,,,,,,,,,,,,,,,,,,,,,,,,,,,,,,,,,,,,,,,,,,,,,,,,,,,,,,,,,,1.43,594.8409770000726,None,space,1,0.25572010036557913,596.37118129991,None,596.37118129991,None,596.37118129991,None,,,,,,,,,,,P015,fencog,1,Pre,2021_Oct_20_1041,Go No-Go Task,2021.1.4,120.22019536302781,
,"Rule: When you see a yellow image, do not press 'spacebar'.",Images/Fearful/HF10_FO.jpg,Fear,Blue,Images/Blue.jpg,space,ParentConditions/YellowBlueBlue_v1.xlsx,BlueBlueYellow,Conditions/Version_1/YellowHappyStop.xlsx,no,PASS,0.06506977473557796,,,,,,,,,0,0,0,0,0,0,0,0,0,77,77,77,,,,,,,,,,,,,,,,,,,,,,,,,,,,,,,,,,,,,,,,,,,,,,,,,,,,,,,,,,,,,,,,,,,,,,,,,,,,,,,1.38,596.773687900044,None,space,1,0.27696660021319985,598.2538145999424,None,598.2538145999424,None,598.2538145999424,None,,,,,,,,,,,P015,fencog,1,Pre,2021_Oct_20_1041,Go No-Go Task,2021.1.4,120.22019536302781,
,"Rule: When you see a yellow image, do not press 'spacebar'.",Images/Fearful/AM10AFS.jpg,Fear,Blue,Images/Blue.jpg,space,ParentConditions/YellowBlueBlue_v1.xlsx,BlueBlueYellow,Conditions/Version_1/YellowHappyStop.xlsx,no,PASS,0.4391085826227009,,,,,,,,,0,0,0,0,0,0,0,0,0,78,78,78,,,,,,,,,,,,,,,,,,,,,,,,,,,,,,,,,,,,,,,,,,,,,,,,,,,,,,,,,,,,,,,,,,,,,,,,,,,,,,,1.61,598.6597596998326,None,None,0,,600.3616988998838,None,600.3616988998838,None,600.3616988998838,None,,,,,,,,,,,P015,fencog,1,Pre,2021_Oct_20_1041,Go No-Go Task,2021.1.4,120.22019536302781,
,"Rule: When you see a yellow image, do not press 'spacebar'.",Images/Happy/AM23HAS.jpg,Happy,Yellow,Images/Yellow.jpg,None,ParentConditions/YellowBlueBlue_v1.xlsx,BlueBlueYellow,Conditions/Version_1/YellowHappyStop.xlsx,yes,PASS,0.8296456455429673,,,,,,,,,0,0,0,0,0,0,0,0,0,79,79,79,,,,,,,,,,,,,,,,,,,,,,,,,,,,,,,,,,,,,,,,,,,,,,,,,,,,,,,,,,,,,,,,,,,,,,,,,,,,,,,1.44,600.7622941001318,None,None,1,,602.3028533998877,None,602.3028533998877,None,602.3028533998877,None,,,,,,,,,,,P015,fencog,1,Pre,2021_Oct_20_1041,Go No-Go Task,2021.1.4,120.22019536302781,
,"Rule: When you see blue image, do not press 'spacebar'.",Images/Fearful/HM06_FC.jpg,Fear,Blue,Images/Blue.jpg,None,ParentConditions/YellowBlueBlue_v1.xlsx,BlueBlueYellow,Conditions/Version_1/BlueFearStop.xlsx,yes,PASS,0.7729813006314565,,,,,,,,,0,0,0,0,0,1,1,1,0,0,0,0,,,,,,,,,,,,,,,,,,,,,,,,,,,,,,,,,,,,,,,,,,,,,,,,,,,,,,,,,,,,,,,,,604.6570922001265,None,607.6424231999554,None,space,8.823961499612778,607.6424231999554,None,604.6570922001265,None,604.6570922001265,None,604.6570922001265,None,1.77,616.5101557001472,None,None,1,,618.3814254999161,None,618.3814254999161,None,618.3814254999161,None,602.7205471000634,None,space,1.432575499638915,603.2019866001792,None,602.7205471000634,None,602.7205471000634,None,P015,fencog,1,Pre,2021_Oct_20_1041,Go No-Go Task,2021.1.4,120.22019536302781,
,"Rule: When you see blue image, do not press 'spacebar'.",Images/Happy/AF07HAS.jpg,Happy,Yellow,Images/Yellow.jpg,space,ParentConditions/YellowBlueBlue_v1.xlsx,BlueBlueYellow,Conditions/Version_1/BlueFearStop.xlsx,no,PASS,0.4924453653062516,,,,,,,,,0,0,0,0,0,1,1,1,0,1,1,1,,,,,,,,,,,,,,,,,,,,,,,,,,,,,,,,,,,,,,,,,,,,,,,,,,,,,,,,,,,,,,,,,,,,,,,,,,,,,,,1.79,618.7855370999314,None,space,1,0.25021359976381063,620.680780199822,None,620.680780199822,None,620.680780199822,None,,,,,,,,,,,P015,fencog,1,Pre,2021_Oct_20_1041,Go No-Go Task,2021.1.4,120.22019536302781,
,"Rule: When you see blue image, do not press 'spacebar'.",Images/Happy/AF28HAS.jpg,Happy,Yellow,Images/Yellow.jpg,space,ParentConditions/YellowBlueBlue_v1.xlsx,BlueBlueYellow,Conditions/Version_1/BlueFearStop.xlsx,no,PASS,0.8943473655540664,,,,,,,,,0,0,0,0,0,1,1,1,0,2,2,2,,,,,,,,,,,,,,,,,,,,,,,,,,,,,,,,,,,,,,,,,,,,,,,,,,,,,,,,,,,,,,,,,,,,,,,,,,,,,,,1.33,621.0858454001136,None,space,1,0.32084470009431243,622.5218353997916,None,622.5218353997916,None,622.5218353997916,None,,,,,,,,,,,P015,fencog,1,Pre,2021_Oct_20_1041,Go No-Go Task,2021.1.4,120.22019536302781,
,"Rule: When you see blue image, do not press 'spacebar'.",Images/Happy/AF22HAS.jpg,Happy,Yellow,Images/Yellow.jpg,space,ParentConditions/YellowBlueBlue_v1.xlsx,BlueBlueYellow,Conditions/Version_1/BlueFearStop.xlsx,no,PASS,0.5892765061873407,,,,,,,,,0,0,0,0,0,1,1,1,0,3,3,3,,,,,,,,,,,,,,,,,,,,,,,,,,,,,,,,,,,,,,,,,,,,,,,,,,,,,,,,,,,,,,,,,,,,,,,,,,,,,,,1.71,622.9226214000955,None,space,1,0.32887159986421466,624.7378130001016,None,624.7378130001016,None,624.7378130001016,None,,,,,,,,,,,P015,fencog,1,Pre,2021_Oct_20_1041,Go No-Go Task,2021.1.4,120.22019536302781,
,"Rule: When you see blue image, do not press 'spacebar'.",Images/Fearful/AF27AFS.jpg,Fear,Blue,Images/Blue.jpg,None,ParentConditions/YellowBlueBlue_v1.xlsx,BlueBlueYellow,Conditions/Version_1/BlueFearStop.xlsx,yes,PASS,0.41428581318896585,,,,,,,,,0,0,0,0,0,1,1,1,0,4,4,4,,,,,,,,,,,,,,,,,,,,,,,,,,,,,,,,,,,,,,,,,,,,,,,,,,,,,,,,,,,,,,,,,,,,,,,,,,,,,,,1.61,625.1385822999291,None,None,1,,626.8540000999346,None,626.8540000999346,None,626.8540000999346,None,,,,,,,,,,,P015,fencog,1,Pre,2021_Oct_20_1041,Go No-Go Task,2021.1.4,120.22019536302781,
,"Rule: When you see blue image, do not press 'spacebar'.",Images/Happy/AM24HAS.jpg,Happy,Yellow,Images/Yellow.jpg,space,ParentConditions/YellowBlueBlue_v1.xlsx,BlueBlueYellow,Conditions/Version_1/BlueFearStop.xlsx,no,PASS,0.8126867400025187,,,,,,,,,0,0,0,0,0,1,1,1,0,5,5,5,,,,,,,,,,,,,,,,,,,,,,,,,,,,,,,,,,,,,,,,,,,,,,,,,,,,,,,,,,,,,,,,,,,,,,,,,,,,,,,1.43,627.2544535999186,None,space,1,0.2720671999268234,628.7866229000501,None,628.7866229000501,None,628.7866229000501,None,,,,,,,,,,,P015,fencog,1,Pre,2021_Oct_20_1041,Go No-Go Task,2021.1.4,120.22019536302781,
,"Rule: When you see blue image, do not press 'spacebar'.",Images/Fearful/AF26AFS.jpg,Fear,Blue,Images/Blue.jpg,None,ParentConditions/YellowBlueBlue_v1.xlsx,BlueBlueYellow,Conditions/Version_1/BlueFearStop.xlsx,yes,PASS,0.7771539142714355,,,,,,,,,0,0,0,0,0,1,1,1,0,6,6,6,,,,,,,,,,,,,,,,,,,,,,,,,,,,,,,,,,,,,,,,,,,,,,,,,,,,,,,,,,,,,,,,,,,,,,,,,,,,,,,1.52,629.1885971999727,None,None,1,,630.8110600998625,None,630.8110600998625,None,630.8110600998625,None,,,,,,,,,,,P015,fencog,1,Pre,2021_Oct_20_1041,Go No-Go Task,2021.1.4,120.22019536302781,
,"Rule: When you see blue image, do not press 'spacebar'.",Images/Happy/WM11_HC.jpg,Happy,Yellow,Images/Yellow.jpg,space,ParentConditions/YellowBlueBlue_v1.xlsx,BlueBlueYellow,Conditions/Version_1/BlueFearStop.xlsx,no,PASS,0.612727142386838,,,,,,,,,0,0,0,0,0,1,1,1,0,7,7,7,,,,,,,,,,,,,,,,,,,,,,,,,,,,,,,,,,,,,,,,,,,,,,,,,,,,,,,,,,,,,,,,,,,,,,,,,,,,,,,1.92,631.2143012997694,None,space,1,0.27908740006387234,633.2353440998122,None,633.2353440998122,None,633.2353440998122,None,,,,,,,,,,,P015,fencog,1,Pre,2021_Oct_20_1041,Go No-Go Task,2021.1.4,120.22019536302781,
,"Rule: When you see blue image, do not press 'spacebar'.",Images/Happy/BM03_HO.jpg,Happy,Yellow,Images/Yellow.jpg,space,ParentConditions/YellowBlueBlue_v1.xlsx,BlueBlueYellow,Conditions/Version_1/BlueFearStop.xlsx,no,PASS,0.7313165030586903,,,,,,,,,0,0,0,0,0,1,1,1,0,8,8,8,,,,,,,,,,,,,,,,,,,,,,,,,,,,,,,,,,,,,,,,,,,,,,,,,,,,,,,,,,,,,,,,,,,,,,,,,,,,,,,1.98,633.63726889994,None,space,1,0.30067239981144667,635.7179235001095,None,635.7179235001095,None,635.7179235001095,None,,,,,,,,,,,P015,fencog,1,Pre,2021_Oct_20_1041,Go No-Go Task,2021.1.4,120.22019536302781,
,"Rule: When you see blue image, do not press 'spacebar'.",Images/Happy/BF18_HO.jpg,Happy,Yellow,Images/Yellow.jpg,space,ParentConditions/YellowBlueBlue_v1.xlsx,BlueBlueYellow,Conditions/Version_1/BlueFearStop.xlsx,no,PASS,0.5715935528670182,,,,,,,,,0,0,0,0,0,1,1,1,0,9,9,9,,,,,,,,,,,,,,,,,,,,,,,,,,,,,,,,,,,,,,,,,,,,,,,,,,,,,,,,,,,,,,,,,,,,,,,,,,,,,,,1.3,636.1187204001471,None,space,1,0.3171902000904083,637.5257411999628,None,637.5257411999628,None,637.5257411999628,None,,,,,,,,,,,P015,fencog,1,Pre,2021_Oct_20_1041,Go No-Go Task,2021.1.4,120.22019536302781,
,"Rule: When you see blue image, do not press 'spacebar'.",Images/Happy/AM10HAS.jpg,Happy,Yellow,Images/Yellow.jpg,space,ParentConditions/YellowBlueBlue_v1.xlsx,BlueBlueYellow,Conditions/Version_1/BlueFearStop.xlsx,no,PASS,0.4742386996589605,,,,,,,,,0,0,0,0,0,1,1,1,0,10,10,10,,,,,,,,,,,,,,,,,,,,,,,,,,,,,,,,,,,,,,,,,,,,,,,,,,,,,,,,,,,,,,,,,,,,,,,,,,,,,,,1.37,637.9373265998438,None,space,1,0.28249110002070665,639.4085865002126,None,639.4085865002126,None,639.4085865002126,None,,,,,,,,,,,P015,fencog,1,Pre,2021_Oct_20_1041,Go No-Go Task,2021.1.4,120.22019536302781,
,"Rule: When you see blue image, do not press 'spacebar'.",Images/Happy/AM09HAS.jpg,Happy,Yellow,Images/Yellow.jpg,space,ParentConditions/YellowBlueBlue_v1.xlsx,BlueBlueYellow,Conditions/Version_1/BlueFearStop.xlsx,no,PASS,0.5791375189576048,,,,,,,,,0,0,0,0,0,1,1,1,0,11,11,11,,,,,,,,,,,,,,,,,,,,,,,,,,,,,,,,,,,,,,,,,,,,,,,,,,,,,,,,,,,,,,,,,,,,,,,,,,,,,,,1.22,639.810048900079,None,space,1,0.2939259000122547,641.1329415999353,None,641.1329415999353,None,641.1329415999353,None,,,,,,,,,,,P015,fencog,1,Pre,2021_Oct_20_1041,Go No-Go Task,2021.1.4,120.22019536302781,
,"Rule: When you see blue image, do not press 'spacebar'.",Images/Happy/AM16HAS.jpg,Happy,Yellow,Images/Yellow.jpg,space,ParentConditions/YellowBlueBlue_v1.xlsx,BlueBlueYellow,Conditions/Version_1/BlueFearStop.xlsx,no,PASS,0.06851146054747248,,,,,,,,,0,0,0,0,0,1,1,1,0,12,12,12,,,,,,,,,,,,,,,,,,,,,,,,,,,,,,,,,,,,,,,,,,,,,,,,,,,,,,,,,,,,,,,,,,,,,,,,,,,,,,,1.89,641.5336202997714,None,space,1,0.25498500000685453,643.5156490998343,None,643.5156490998343,None,643.5156490998343,None,,,,,,,,,,,P015,fencog,1,Pre,2021_Oct_20_1041,Go No-Go Task,2021.1.4,120.22019536302781,
,"Rule: When you see blue image, do not press 'spacebar'.",Images/Happy/AF10_HE.jpg,Happy,Yellow,Images/Yellow.jpg,space,ParentConditions/YellowBlueBlue_v1.xlsx,BlueBlueYellow,Conditions/Version_1/BlueFearStop.xlsx,no,PASS,0.21267371658214962,,,,,,,,,0,0,0,0,0,1,1,1,0,13,13,13,,,,,,,,,,,,,,,,,,,,,,,,,,,,,,,,,,,,,,,,,,,,,,,,,,,,,,,,,,,,,,,,,,,,,,,,,,,,,,,1.68,643.918962799944,None,space,1,0.2870167000219226,645.7066998998635,None,645.7066998998635,None,645.7066998998635,None,,,,,,,,,,,P015,fencog,1,Pre,2021_Oct_20_1041,Go No-Go Task,2021.1.4,120.22019536302781,
,"Rule: When you see blue image, do not press 'spacebar'.",Images/Happy/AF27HAS.jpg,Happy,Yellow,Images/Yellow.jpg,space,ParentConditions/YellowBlueBlue_v1.xlsx,BlueBlueYellow,Conditions/Version_1/BlueFearStop.xlsx,no,PASS,0.8109673156723475,,,,,,,,,0,0,0,0,0,1,1,1,0,14,14,14,,,,,,,,,,,,,,,,,,,,,,,,,,,,,,,,,,,,,,,,,,,,,,,,,,,,,,,,,,,,,,,,,,,,,,,,,,,,,,,1.69,646.1053638998419,None,space,1,0.2656477000564337,647.8976913001388,None,647.8976913001388,None,647.8976913001388,None,,,,,,,,,,,P015,fencog,1,Pre,2021_Oct_20_1041,Go No-Go Task,2021.1.4,120.22019536302781,
,"Rule: When you see blue image, do not press 'spacebar'.",Images/Happy/BF10_HO.jpg,Happy,Yellow,Images/Yellow.jpg,space,ParentConditions/YellowBlueBlue_v1.xlsx,BlueBlueYellow,Conditions/Version_1/BlueFearStop.xlsx,no,PASS,0.35707259862702334,,,,,,,,,0,0,0,0,0,1,1,1,0,15,15,15,,,,,,,,,,,,,,,,,,,,,,,,,,,,,,,,,,,,,,,,,,,,,,,,,,,,,,,,,,,,,,,,,,,,,,,,,,,,,,,1.44,648.2986344997771,None,space,1,0.2603254998102784,649.8388887997717,None,649.8388887997717,None,649.8388887997717,None,,,,,,,,,,,P015,fencog,1,Pre,2021_Oct_20_1041,Go No-Go Task,2021.1.4,120.22019536302781,
,"Rule: When you see blue image, do not press 'spacebar'.",Images/Happy/BF14_HO.jpg,Happy,Yellow,Images/Yellow.jpg,space,ParentConditions/YellowBlueBlue_v1.xlsx,BlueBlueYellow,Conditions/Version_1/BlueFearStop.xlsx,no,PASS,0.41712793219483124,,,,,,,,,0,0,0,0,0,1,1,1,0,16,16,16,,,,,,,,,,,,,,,,,,,,,,,,,,,,,,,,,,,,,,,,,,,,,,,,,,,,,,,,,,,,,,,,,,,,,,,,,,,,,,,1.21,650.23953599995,None,space,1,0.2640411998145282,651.5549654997885,None,651.5549654997885,None,651.5549654997885,None,,,,,,,,,,,P015,fencog,1,Pre,2021_Oct_20_1041,Go No-Go Task,2021.1.4,120.22019536302781,
,"Rule: When you see blue image, do not press 'spacebar'.",Images/Fearful/BM08_FC.jpg,Fear,Blue,Images/Blue.jpg,None,ParentConditions/YellowBlueBlue_v1.xlsx,BlueBlueYellow,Conditions/Version_1/BlueFearStop.xlsx,yes,PASS,0.2777606849347436,,,,,,,,,0,0,0,0,0,1,1,1,0,17,17,17,,,,,,,,,,,,,,,,,,,,,,,,,,,,,,,,,,,,,,,,,,,,,,,,,,,,,,,,,,,,,,,,,,,,,,,,,,,,,,,1.75,651.9542109998874,None,None,1,,653.8042073999532,None,653.8042073999532,None,653.8042073999532,None,,,,,,,,,,,P015,fencog,1,Pre,2021_Oct_20_1041,Go No-Go Task,2021.1.4,120.22019536302781,
,"Rule: When you see blue image, do not press 'spacebar'.",Images/Happy/AM01HAS.jpg,Happy,Yellow,Images/Yellow.jpg,space,ParentConditions/YellowBlueBlue_v1.xlsx,BlueBlueYellow,Conditions/Version_1/BlueFearStop.xlsx,no,PASS,0.43160138117116176,,,,,,,,,0,0,0,0,0,1,1,1,0,18,18,18,,,,,,,,,,,,,,,,,,,,,,,,,,,,,,,,,,,,,,,,,,,,,,,,,,,,,,,,,,,,,,,,,,,,,,,,,,,,,,,1.34,654.2052641999908,None,space,1,0.2534202001988888,655.6455378001556,None,655.6455378001556,None,655.6455378001556,None,,,,,,,,,,,P015,fencog,1,Pre,2021_Oct_20_1041,Go No-Go Task,2021.1.4,120.22019536302781,
,"Rule: When you see blue image, do not press 'spacebar'.",Images/Happy/AF11HAS.jpg,Happy,Yellow,Images/Yellow.jpg,space,ParentConditions/YellowBlueBlue_v1.xlsx,BlueBlueYellow,Conditions/Version_1/BlueFearStop.xlsx,no,PASS,0.9696898199968184,,,,,,,,,0,0,0,0,0,1,1,1,0,19,19,19,,,,,,,,,,,,,,,,,,,,,,,,,,,,,,,,,,,,,,,,,,,,,,,,,,,,,,,,,,,,,,,,,,,,,,,,,,,,,,,1.56,656.0461070998572,None,space,1,0.2755936002358794,657.7114209001884,None,657.7114209001884,None,657.7114209001884,None,,,,,,,,,,,P015,fencog,1,Pre,2021_Oct_20_1041,Go No-Go Task,2021.1.4,120.22019536302781,
,"Rule: When you see blue image, do not press 'spacebar'.",Images/Happy/BM01_HO.jpg,Happy,Yellow,Images/Yellow.jpg,space,ParentConditions/YellowBlueBlue_v1.xlsx,BlueBlueYellow,Conditions/Version_1/BlueFearStop.xlsx,no,PASS,0.40182091251260654,,,,,,,,,0,0,0,0,0,1,1,1,0,20,20,20,,,,,,,,,,,,,,,,,,,,,,,,,,,,,,,,,,,,,,,,,,,,,,,,,,,,,,,,,,,,,,,,,,,,,,,,,,,,,,,1.6,658.1122730998322,None,space,1,0.27944620000198483,659.819282299839,None,659.819282299839,None,659.819282299839,None,,,,,,,,,,,P015,fencog,1,Pre,2021_Oct_20_1041,Go No-Go Task,2021.1.4,120.22019536302781,
,"Rule: When you see blue image, do not press 'spacebar'.",Images/Happy/AF07_HO.jpg,Happy,Yellow,Images/Yellow.jpg,space,ParentConditions/YellowBlueBlue_v1.xlsx,BlueBlueYellow,Conditions/Version_1/BlueFearStop.xlsx,no,PASS,0.304860645067783,,,,,,,,,0,0,0,0,0,1,1,1,0,21,21,21,,,,,,,,,,,,,,,,,,,,,,,,,,,,,,,,,,,,,,,,,,,,,,,,,,,,,,,,,,,,,,,,,,,,,,,,,,,,,,,1.48,660.2213396001607,None,space,1,0.26472910027951,661.8020000997931,None,661.8020000997931,None,661.8020000997931,None,,,,,,,,,,,P015,fencog,1,Pre,2021_Oct_20_1041,Go No-Go Task,2021.1.4,120.22019536302781,
,"Rule: When you see blue image, do not press 'spacebar'.",Images/Happy/HM06_HO.jpg,Happy,Yellow,Images/Yellow.jpg,space,ParentConditions/YellowBlueBlue_v1.xlsx,BlueBlueYellow,Conditions/Version_1/BlueFearStop.xlsx,no,PASS,0.3928744637511502,,,,,,,,,0,0,0,0,0,1,1,1,0,22,22,22,,,,,,,,,,,,,,,,,,,,,,,,,,,,,,,,,,,,,,,,,,,,,,,,,,,,,,,,,,,,,,,,,,,,,,,,,,,,,,,1.73,662.2043250999413,None,space,1,0.2559531996957958,664.0346257002093,None,664.0346257002093,None,664.0346257002093,None,,,,,,,,,,,P015,fencog,1,Pre,2021_Oct_20_1041,Go No-Go Task,2021.1.4,120.22019536302781,
,"Rule: When you see blue image, do not press 'spacebar'.",Images/Fearful/AM09_FO.jpg,Fear,Blue,Images/Blue.jpg,None,ParentConditions/YellowBlueBlue_v1.xlsx,BlueBlueYellow,Conditions/Version_1/BlueFearStop.xlsx,yes,PASS,0.17130222782280535,,,,,,,,,0,0,0,0,0,1,1,1,0,23,23,23,,,,,,,,,,,,,,,,,,,,,,,,,,,,,,,,,,,,,,,,,,,,,,,,,,,,,,,,,,,,,,,,,,,,,,,,,,,,,,,1.49,664.4359051999636,None,None,1,,666.0340813999064,None,666.0340813999064,None,666.0340813999064,None,,,,,,,,,,,P015,fencog,1,Pre,2021_Oct_20_1041,Go No-Go Task,2021.1.4,120.22019536302781,
,"Rule: When you see blue image, do not press 'spacebar'.",Images/Happy/AF09HAS.jpg,Happy,Yellow,Images/Yellow.jpg,space,ParentConditions/YellowBlueBlue_v1.xlsx,BlueBlueYellow,Conditions/Version_1/BlueFearStop.xlsx,no,PASS,0.32050850835393896,,,,,,,,,0,0,0,0,0,1,1,1,0,24,24,24,,,,,,,,,,,,,,,,,,,,,,,,,,,,,,,,,,,,,,,,,,,,,,,,,,,,,,,,,,,,,,,,,,,,,,,,,,,,,,,1.5,666.4357504001819,None,space,1,0.28103529987856746,668.0418310998939,None,668.0418310998939,None,668.0418310998939,None,,,,,,,,,,,P015,fencog,1,Pre,2021_Oct_20_1041,Go No-Go Task,2021.1.4,120.22019536302781,
,"Rule: When you see blue image, do not press 'spacebar'.",Images/Happy/AM04HAS.jpg,Happy,Yellow,Images/Yellow.jpg,space,ParentConditions/YellowBlueBlue_v1.xlsx,BlueBlueYellow,Conditions/Version_1/BlueFearStop.xlsx,no,PASS,0.17004201555218557,,,,,,,,,0,0,0,0,0,1,1,1,0,25,25,25,,,,,,,,,,,,,,,,,,,,,,,,,,,,,,,,,,,,,,,,,,,,,,,,,,,,,,,,,,,,,,,,,,,,,,,,,,,,,,,1.57,668.4436653000303,None,space,1,0.2866223002783954,670.1160734998994,None,670.1160734998994,None,670.1160734998994,None,,,,,,,,,,,P015,fencog,1,Pre,2021_Oct_20_1041,Go No-Go Task,2021.1.4,120.22019536302781,
,"Rule: When you see blue image, do not press 'spacebar'.",Images/Happy/BF07_HO.jpg,Happy,Yellow,Images/Yellow.jpg,space,ParentConditions/YellowBlueBlue_v1.xlsx,BlueBlueYellow,Conditions/Version_1/BlueFearStop.xlsx,no,PASS,0.9775255982448644,,,,,,,,,0,0,0,0,0,1,1,1,0,26,26,26,,,,,,,,,,,,,,,,,,,,,,,,,,,,,,,,,,,,,,,,,,,,,,,,,,,,,,,,,,,,,,,,,,,,,,,,,,,,,,,1.39,670.5167958000675,None,space,1,0.25978800002485514,672.0073309000582,None,672.0073309000582,None,672.0073309000582,None,,,,,,,,,,,P015,fencog,1,Pre,2021_Oct_20_1041,Go No-Go Task,2021.1.4,120.22019536302781,
,"Rule: When you see blue image, do not press 'spacebar'.",Images/Happy/AF02HAS.jpg,Happy,Yellow,Images/Yellow.jpg,space,ParentConditions/YellowBlueBlue_v1.xlsx,BlueBlueYellow,Conditions/Version_1/BlueFearStop.xlsx,no,PASS,0.9926707513295598,,,,,,,,,0,0,0,0,0,1,1,1,0,27,27,27,,,,,,,,,,,,,,,,,,,,,,,,,,,,,,,,,,,,,,,,,,,,,,,,,,,,,,,,,,,,,,,,,,,,,,,,,,,,,,,1.45,672.410191600211,None,space,1,0.22896250011399388,673.965083300136,None,673.965083300136,None,673.965083300136,None,,,,,,,,,,,P015,fencog,1,Pre,2021_Oct_20_1041,Go No-Go Task,2021.1.4,120.22019536302781,
,"Rule: When you see blue image, do not press 'spacebar'.",Images/Happy/AM30HAS.jpg,Happy,Yellow,Images/Yellow.jpg,space,ParentConditions/YellowBlueBlue_v1.xlsx,BlueBlueYellow,Conditions/Version_1/BlueFearStop.xlsx,no,PASS,0.6844901636445411,,,,,,,,,0,0,0,0,0,1,1,1,0,28,28,28,,,,,,,,,,,,,,,,,,,,,,,,,,,,,,,,,,,,,,,,,,,,,,,,,,,,,,,,,,,,,,,,,,,,,,,,,,,,,,,1.26,674.3661279999651,None,space,1,0.25549109978601336,675.731250599958,None,675.731250599958,None,675.731250599958,None,,,,,,,,,,,P015,fencog,1,Pre,2021_Oct_20_1041,Go No-Go Task,2021.1.4,120.22019536302781,
,"Rule: When you see blue image, do not press 'spacebar'.",Images/Happy/BF05_HO.jpg,Happy,Yellow,Images/Yellow.jpg,space,ParentConditions/YellowBlueBlue_v1.xlsx,BlueBlueYellow,Conditions/Version_1/BlueFearStop.xlsx,no,PASS,0.010815687417666808,,,,,,,,,0,0,0,0,0,1,1,1,0,29,29,29,,,,,,,,,,,,,,,,,,,,,,,,,,,,,,,,,,,,,,,,,,,,,,,,,,,,,,,,,,,,,,,,,,,,,,,,,,,,,,,1.67,676.1333548999391,None,space,1,0.2180347996763885,677.9056083997712,None,677.9056083997712,None,677.9056083997712,None,,,,,,,,,,,P015,fencog,1,Pre,2021_Oct_20_1041,Go No-Go Task,2021.1.4,120.22019536302781,
,"Rule: When you see blue image, do not press 'spacebar'.",Images/Fearful/AF25AFS.jpg,Fear,Blue,Images/Blue.jpg,None,ParentConditions/YellowBlueBlue_v1.xlsx,BlueBlueYellow,Conditions/Version_1/BlueFearStop.xlsx,yes,PASS,0.35816317389786545,,,,,,,,,0,0,0,0,0,1,1,1,0,30,30,30,,,,,,,,,,,,,,,,,,,,,,,,,,,,,,,,,,,,,,,,,,,,,,,,,,,,,,,,,,,,,,,,,,,,,,,,,,,,,,,1.46,678.3045279998332,None,None,1,,679.8716377997771,None,679.8716377997771,None,679.8716377997771,None,,,,,,,,,,,P015,fencog,1,Pre,2021_Oct_20_1041,Go No-Go Task,2021.1.4,120.22019536302781,
,"Rule: When you see blue image, do not press 'spacebar'.",Images/Happy/BF09_HO.jpg,Happy,Yellow,Images/Yellow.jpg,space,ParentConditions/YellowBlueBlue_v1.xlsx,BlueBlueYellow,Conditions/Version_1/BlueFearStop.xlsx,no,PASS,0.3783419276063734,,,,,,,,,0,0,0,0,0,1,1,1,0,31,31,31,,,,,,,,,,,,,,,,,,,,,,,,,,,,,,,,,,,,,,,,,,,,,,,,,,,,,,,,,,,,,,,,,,,,,,,,,,,,,,,1.76,680.2725713001564,None,space,1,0.2579096001572907,682.137586100027,None,682.137586100027,None,682.137586100027,None,,,,,,,,,,,P015,fencog,1,Pre,2021_Oct_20_1041,Go No-Go Task,2021.1.4,120.22019536302781,
,"Rule: When you see blue image, do not press 'spacebar'.",Images/Happy/AM09_HE.jpg,Happy,Yellow,Images/Yellow.jpg,space,ParentConditions/YellowBlueBlue_v1.xlsx,BlueBlueYellow,Conditions/Version_1/BlueFearStop.xlsx,no,PASS,0.21016465424314756,,,,,,,,,0,0,0,0,0,1,1,1,0,32,32,32,,,,,,,,,,,,,,,,,,,,,,,,,,,,,,,,,,,,,,,,,,,,,,,,,,,,,,,,,,,,,,,,,,,,,,,,,,,,,,,1.29,682.5382655002177,None,space,1,0.2657988998107612,683.9288266999647,None,683.9288266999647,None,683.9288266999647,None,,,,,,,,,,,P015,fencog,1,Pre,2021_Oct_20_1041,Go No-Go Task,2021.1.4,120.22019536302781,
,"Rule: When you see blue image, do not press 'spacebar'.",Images/Fearful/BF14_FO.jpg,Fear,Blue,Images/Blue.jpg,None,ParentConditions/YellowBlueBlue_v1.xlsx,BlueBlueYellow,Conditions/Version_1/BlueFearStop.xlsx,yes,PASS,0.9618360969741386,,,,,,,,,0,0,0,0,0,1,1,1,0,33,33,33,,,,,,,,,,,,,,,,,,,,,,,,,,,,,,,,,,,,,,,,,,,,,,,,,,,,,,,,,,,,,,,,,,,,,,,,,,,,,,,1.2,684.3310075001791,None,None,1,,685.6366591001861,None,685.6366591001861,None,685.6366591001861,None,,,,,,,,,,,P015,fencog,1,Pre,2021_Oct_20_1041,Go No-Go Task,2021.1.4,120.22019536302781,
,"Rule: When you see blue image, do not press 'spacebar'.",Images/Fearful/HF05_FC.jpg,Fear,Blue,Images/Blue.jpg,None,ParentConditions/YellowBlueBlue_v1.xlsx,BlueBlueYellow,Conditions/Version_1/BlueFearStop.xlsx,yes,PASS,0.005236598035567086,,,,,,,,,0,0,0,0,0,1,1,1,0,34,34,34,,,,,,,,,,,,,,,,,,,,,,,,,,,,,,,,,,,,,,,,,,,,,,,,,,,,,,,,,,,,,,,,,,,,,,,,,,,,,,,1.38,686.0388237000443,None,None,1,,687.5193846002221,None,687.5193846002221,None,687.5193846002221,None,,,,,,,,,,,P015,fencog,1,Pre,2021_Oct_20_1041,Go No-Go Task,2021.1.4,120.22019536302781,
,"Rule: When you see blue image, do not press 'spacebar'.",Images/Happy/AM23HAS.jpg,Happy,Yellow,Images/Yellow.jpg,space,ParentConditions/YellowBlueBlue_v1.xlsx,BlueBlueYellow,Conditions/Version_1/BlueFearStop.xlsx,no,PASS,0.13077339503157293,,,,,,,,,0,0,0,0,0,1,1,1,0,35,35,35,,,,,,,,,,,,,,,,,,,,,,,,,,,,,,,,,,,,,,,,,,,,,,,,,,,,,,,,,,,,,,,,,,,,,,,,,,,,,,,1.59,687.9199363999069,None,space,1,0.3114954000338912,689.6114916000515,None,689.6114916000515,None,689.6114916000515,None,,,,,,,,,,,P015,fencog,1,Pre,2021_Oct_20_1041,Go No-Go Task,2021.1.4,120.22019536302781,
,"Rule: When you see blue image, do not press 'spacebar'.",Images/Happy/AM03_HO.jpg,Happy,Yellow,Images/Yellow.jpg,space,ParentConditions/YellowBlueBlue_v1.xlsx,BlueBlueYellow,Conditions/Version_1/BlueFearStop.xlsx,no,PASS,0.29520703840296547,,,,,,,,,0,0,0,0,0,1,1,1,0,36,36,36,,,,,,,,,,,,,,,,,,,,,,,,,,,,,,,,,,,,,,,,,,,,,,,,,,,,,,,,,,,,,,,,,,,,,,,,,,,,,,,1.35,690.0204147999175,None,space,1,0.29419009992852807,691.4682400999591,None,691.4682400999591,None,691.4682400999591,None,,,,,,,,,,,P015,fencog,1,Pre,2021_Oct_20_1041,Go No-Go Task,2021.1.4,120.22019536302781,
,"Rule: When you see blue image, do not press 'spacebar'.",Images/Happy/AF25HAS.jpg,Happy,Yellow,Images/Yellow.jpg,space,ParentConditions/YellowBlueBlue_v1.xlsx,BlueBlueYellow,Conditions/Version_1/BlueFearStop.xlsx,no,PASS,0.3205802973983102,,,,,,,,,0,0,0,0,0,1,1,1,0,37,37,37,,,,,,,,,,,,,,,,,,,,,,,,,,,,,,,,,,,,,,,,,,,,,,,,,,,,,,,,,,,,,,,,,,,,,,,,,,,,,,,1.53,691.8712404998951,None,space,1,0.2866809000261128,693.5093255997635,None,693.5093255997635,None,693.5093255997635,None,,,,,,,,,,,P015,fencog,1,Pre,2021_Oct_20_1041,Go No-Go Task,2021.1.4,120.22019536302781,
,"Rule: When you see blue image, do not press 'spacebar'.",Images/Happy/BM08_HO.jpg,Happy,Yellow,Images/Yellow.jpg,space,ParentConditions/YellowBlueBlue_v1.xlsx,BlueBlueYellow,Conditions/Version_1/BlueFearStop.xlsx,no,PASS,0.9250231228335681,,,,,,,,,0,0,0,0,0,1,1,1,0,38,38,38,,,,,,,,,,,,,,,,,,,,,,,,,,,,,,,,,,,,,,,,,,,,,,,,,,,,,,,,,,,,,,,,,,,,,,,,,,,,,,,1.7,693.9166922001168,None,space,1,0.29445939976722,695.7086922000162,None,695.7086922000162,None,695.7086922000162,None,,,,,,,,,,,P015,fencog,1,Pre,2021_Oct_20_1041,Go No-Go Task,2021.1.4,120.22019536302781,
,"Rule: When you see blue image, do not press 'spacebar'.",Images/Happy/AF32HAS.jpg,Happy,Yellow,Images/Yellow.jpg,space,ParentConditions/YellowBlueBlue_v1.xlsx,BlueBlueYellow,Conditions/Version_1/BlueFearStop.xlsx,no,PASS,0.73804934699979,,,,,,,,,0,0,0,0,0,1,1,1,0,39,39,39,,,,,,,,,,,,,,,,,,,,,,,,,,,,,,,,,,,,,,,,,,,,,,,,,,,,,,,,,,,,,,,,,,,,,,,,,,,,,,,1.28,696.1184772998095,None,space,1,0.29526690021157265,697.4997605001554,None,697.4997605001554,None,697.4997605001554,None,,,,,,,,,,,P015,fencog,1,Pre,2021_Oct_20_1041,Go No-Go Task,2021.1.4,120.22019536302781,
,"Rule: When you see blue image, do not press 'spacebar'.",Images/Happy/AF23HAS.jpg,Happy,Yellow,Images/Yellow.jpg,space,ParentConditions/YellowBlueBlue_v1.xlsx,BlueBlueYellow,Conditions/Version_1/BlueFearStop.xlsx,no,PASS,0.9000246195519893,,,,,,,,,0,0,0,0,0,1,1,1,0,40,40,40,,,,,,,,,,,,,,,,,,,,,,,,,,,,,,,,,,,,,,,,,,,,,,,,,,,,,,,,,,,,,,,,,,,,,,,,,,,,,,,1.9,697.9016225999221,None,space,1,0.27158960001543164,699.9074591998942,None,699.9074591998942,None,699.9074591998942,None,,,,,,,,,,,P015,fencog,1,Pre,2021_Oct_20_1041,Go No-Go Task,2021.1.4,120.22019536302781,
,"Rule: When you see blue image, do not press 'spacebar'.",Images/Happy/AM32HAS.jpg,Happy,Yellow,Images/Yellow.jpg,space,ParentConditions/YellowBlueBlue_v1.xlsx,BlueBlueYellow,Conditions/Version_1/BlueFearStop.xlsx,no,PASS,0.738989629625258,,,,,,,,,0,0,0,0,0,1,1,1,0,41,41,41,,,,,,,,,,,,,,,,,,,,,,,,,,,,,,,,,,,,,,,,,,,,,,,,,,,,,,,,,,,,,,,,,,,,,,,,,,,,,,,1.41,700.30804360006,None,space,1,0.26717850007116795,701.8235424999148,None,701.8235424999148,None,701.8235424999148,None,,,,,,,,,,,P015,fencog,1,Pre,2021_Oct_20_1041,Go No-Go Task,2021.1.4,120.22019536302781,
,"Rule: When you see blue image, do not press 'spacebar'.",Images/Fearful/AM30AFS.jpg,Fear,Blue,Images/Blue.jpg,None,ParentConditions/YellowBlueBlue_v1.xlsx,BlueBlueYellow,Conditions/Version_1/BlueFearStop.xlsx,yes,PASS,0.33529906039128465,,,,,,,,,0,0,0,0,0,1,1,1,0,42,42,42,,,,,,,,,,,,,,,,,,,,,,,,,,,,,,,,,,,,,,,,,,,,,,,,,,,,,,,,,,,,,,,,,,,,,,,,,,,,,,,1.24,702.2241362999193,None,None,1,,703.5647241999395,None,703.5647241999395,None,703.5647241999395,None,,,,,,,,,,,P015,fencog,1,Pre,2021_Oct_20_1041,Go No-Go Task,2021.1.4,120.22019536302781,
,"Rule: When you see blue image, do not press 'spacebar'.",Images/Happy/BM02_HO.jpg,Happy,Yellow,Images/Yellow.jpg,space,ParentConditions/YellowBlueBlue_v1.xlsx,BlueBlueYellow,Conditions/Version_1/BlueFearStop.xlsx,no,PASS,0.711648218321579,,,,,,,,,0,0,0,0,0,1,1,1,0,43,43,43,,,,,,,,,,,,,,,,,,,,,,,,,,,,,,,,,,,,,,,,,,,,,,,,,,,,,,,,,,,,,,,,,,,,,,,,,,,,,,,1.96,703.965683599934,None,space,1,0.33227339992299676,706.0306878001429,None,706.0306878001429,None,706.0306878001429,None,,,,,,,,,,,P015,fencog,1,Pre,2021_Oct_20_1041,Go No-Go Task,2021.1.4,120.22019536302781,
,"Rule: When you see blue image, do not press 'spacebar'.",Images/Happy/AM10_HO.jpg,Happy,Yellow,Images/Yellow.jpg,space,ParentConditions/YellowBlueBlue_v1.xlsx,BlueBlueYellow,Conditions/Version_1/BlueFearStop.xlsx,no,PASS,0.7811025651589869,,,,,,,,,0,0,0,0,0,1,1,1,0,44,44,44,,,,,,,,,,,,,,,,,,,,,,,,,,,,,,,,,,,,,,,,,,,,,,,,,,,,,,,,,,,,,,,,,,,,,,,,,,,,,,,1.74,706.4392125001177,None,space,1,0.23510259995236993,708.2797500998713,None,708.2797500998713,None,708.2797500998713,None,,,,,,,,,,,P015,fencog,1,Pre,2021_Oct_20_1041,Go No-Go Task,2021.1.4,120.22019536302781,
,"Rule: When you see blue image, do not press 'spacebar'.",Images/Fearful/AM10_FO.jpg,Fear,Blue,Images/Blue.jpg,None,ParentConditions/YellowBlueBlue_v1.xlsx,BlueBlueYellow,Conditions/Version_1/BlueFearStop.xlsx,yes,PASS,0.14747063444404174,,,,,,,,,0,0,0,0,0,1,1,1,0,45,45,45,,,,,,,,,,,,,,,,,,,,,,,,,,,,,,,,,,,,,,,,,,,,,,,,,,,,,,,,,,,,,,,,,,,,,,,,,,,,,,,1.54,708.6822235002182,None,None,1,,710.3294359999709,None,710.3294359999709,None,710.3294359999709,None,,,,,,,,,,,P015,fencog,1,Pre,2021_Oct_20_1041,Go No-Go Task,2021.1.4,120.22019536302781,
,"Rule: When you see blue image, do not press 'spacebar'.",Images/Happy/AF19HAS.jpg,Happy,Yellow,Images/Yellow.jpg,space,ParentConditions/YellowBlueBlue_v1.xlsx,BlueBlueYellow,Conditions/Version_1/BlueFearStop.xlsx,no,PASS,0.5734484599929517,,,,,,,,,0,0,0,0,0,1,1,1,0,46,46,46,,,,,,,,,,,,,,,,,,,,,,,,,,,,,,,,,,,,,,,,,,,,,,,,,,,,,,,,,,,,,,,,,,,,,,,,,,,,,,,1.95,710.7301151999272,None,space,1,0.296762699726969,712.7869285000488,None,712.7869285000488,None,712.7869285000488,None,,,,,,,,,,,P015,fencog,1,Pre,2021_Oct_20_1041,Go No-Go Task,2021.1.4,120.22019536302781,
,"Rule: When you see blue image, do not press 'spacebar'.",Images/Fearful/HF09_FC.jpg,Fear,Blue,Images/Blue.jpg,None,ParentConditions/YellowBlueBlue_v1.xlsx,BlueBlueYellow,Conditions/Version_1/BlueFearStop.xlsx,yes,PASS,0.19935802832005745,,,,,,,,,0,0,0,0,0,1,1,1,0,47,47,47,,,,,,,,,,,,,,,,,,,,,,,,,,,,,,,,,,,,,,,,,,,,,,,,,,,,,,,,,,,,,,,,,,,,,,,,,,,,,,,1.97,713.1876019001938,None,None,1,,715.2612315998413,None,715.2612315998413,None,715.2612315998413,None,,,,,,,,,,,P015,fencog,1,Pre,2021_Oct_20_1041,Go No-Go Task,2021.1.4,120.22019536302781,
,"Rule: When you see blue image, do not press 'spacebar'.",Images/Fearful/AM22AFS.jpg,Fear,Blue,Images/Blue.jpg,None,ParentConditions/YellowBlueBlue_v1.xlsx,BlueBlueYellow,Conditions/Version_1/BlueFearStop.xlsx,yes,PASS,0.17276378175067786,,,,,,,,,0,0,0,0,0,1,1,1,0,48,48,48,,,,,,,,,,,,,,,,,,,,,,,,,,,,,,,,,,,,,,,,,,,,,,,,,,,,,,,,,,,,,,,,,,,,,,,,,,,,,,,1.58,715.6639891001396,None,None,1,,717.3440060000867,None,717.3440060000867,None,717.3440060000867,None,,,,,,,,,,,P015,fencog,1,Pre,2021_Oct_20_1041,Go No-Go Task,2021.1.4,120.22019536302781,
,"Rule: When you see blue image, do not press 'spacebar'.",Images/Happy/AM06_HC.jpg,Happy,Yellow,Images/Yellow.jpg,space,ParentConditions/YellowBlueBlue_v1.xlsx,BlueBlueYellow,Conditions/Version_1/BlueFearStop.xlsx,no,PASS,0.06320185727949179,,,,,,,,,0,0,0,0,0,1,1,1,0,49,49,49,,,,,,,,,,,,,,,,,,,,,,,,,,,,,,,,,,,,,,,,,,,,,,,,,,,,,,,,,,,,,,,,,,,,,,,,,,,,,,,1.88,717.7458899999037,None,space,1,0.27709020022302866,719.7266166000627,None,719.7266166000627,None,719.7266166000627,None,,,,,,,,,,,P015,fencog,1,Pre,2021_Oct_20_1041,Go No-Go Task,2021.1.4,120.22019536302781,
,"Rule: When you see blue image, do not press 'spacebar'.",Images/Fearful/AM32AFS.jpg,Fear,Blue,Images/Blue.jpg,None,ParentConditions/YellowBlueBlue_v1.xlsx,BlueBlueYellow,Conditions/Version_1/BlueFearStop.xlsx,yes,PASS,0.03468314974069586,,,,,,,,,0,0,0,0,0,1,1,1,0,50,50,50,,,,,,,,,,,,,,,,,,,,,,,,,,,,,,,,,,,,,,,,,,,,,,,,,,,,,,,,,,,,,,,,,,,,,,,,,,,,,,,1.51,720.1292984997854,None,None,1,,721.7343359999359,None,721.7343359999359,None,721.7343359999359,None,,,,,,,,,,,P015,fencog,1,Pre,2021_Oct_20_1041,Go No-Go Task,2021.1.4,120.22019536302781,
,"Rule: When you see blue image, do not press 'spacebar'.",Images/Happy/WF11_HE.jpg,Happy,Yellow,Images/Yellow.jpg,space,ParentConditions/YellowBlueBlue_v1.xlsx,BlueBlueYellow,Conditions/Version_1/BlueFearStop.xlsx,no,PASS,0.5138011133022752,,,,,,,,,0,0,0,0,0,1,1,1,0,51,51,51,,,,,,,,,,,,,,,,,,,,,,,,,,,,,,,,,,,,,,,,,,,,,,,,,,,,,,,,,,,,,,,,,,,,,,,,,,,,,,,1.86,722.1344579998404,None,space,1,0.2945971000008285,724.1004155999981,None,724.1004155999981,None,724.1004155999981,None,,,,,,,,,,,P015,fencog,1,Pre,2021_Oct_20_1041,Go No-Go Task,2021.1.4,120.22019536302781,
,"Rule: When you see blue image, do not press 'spacebar'.",Images/Fearful/AF28AFS.jpg,Fear,Blue,Images/Blue.jpg,None,ParentConditions/YellowBlueBlue_v1.xlsx,BlueBlueYellow,Conditions/Version_1/BlueFearStop.xlsx,yes,PASS,0.30204493442130675,,,,,,,,,0,0,0,0,0,1,1,1,0,52,52,52,,,,,,,,,,,,,,,,,,,,,,,,,,,,,,,,,,,,,,,,,,,,,,,,,,,,,,,,,,,,,,,,,,,,,,,,,,,,,,,1.93,724.5016700001433,None,None,1,,726.5327976997942,None,726.5327976997942,None,726.5327976997942,None,,,,,,,,,,,P015,fencog,1,Pre,2021_Oct_20_1041,Go No-Go Task,2021.1.4,120.22019536302781,
,"Rule: When you see blue image, do not press 'spacebar'.",Images/Happy/HF04_HE.jpg,Happy,Yellow,Images/Yellow.jpg,space,ParentConditions/YellowBlueBlue_v1.xlsx,BlueBlueYellow,Conditions/Version_1/BlueFearStop.xlsx,no,PASS,0.05385370360405073,,,,,,,,,0,0,0,0,0,1,1,1,0,53,53,53,,,,,,,,,,,,,,,,,,,,,,,,,,,,,,,,,,,,,,,,,,,,,,,,,,,,,,,,,,,,,,,,,,,,,,,,,,,,,,,1.84,726.9352051001042,None,space,1,0.32078230008482933,728.8822865001857,None,728.8822865001857,None,728.8822865001857,None,,,,,,,,,,,P015,fencog,1,Pre,2021_Oct_20_1041,Go No-Go Task,2021.1.4,120.22019536302781,
,"Rule: When you see blue image, do not press 'spacebar'.",Images/Happy/AM13HAS.jpg,Happy,Yellow,Images/Yellow.jpg,space,ParentConditions/YellowBlueBlue_v1.xlsx,BlueBlueYellow,Conditions/Version_1/BlueFearStop.xlsx,no,PASS,0.9978120552242631,,,,,,,,,0,0,0,0,0,1,1,1,0,54,54,54,,,,,,,,,,,,,,,,,,,,,,,,,,,,,,,,,,,,,,,,,,,,,,,,,,,,,,,,,,,,,,,,,,,,,,,,,,,,,,,1.42,729.2912592999637,None,space,1,0.3081614999100566,730.8150210999884,None,730.8150210999884,None,730.8150210999884,None,,,,,,,,,,,P015,fencog,1,Pre,2021_Oct_20_1041,Go No-Go Task,2021.1.4,120.22019536302781,
,"Rule: When you see blue image, do not press 'spacebar'.",Images/Happy/HF10_HE.jpg,Happy,Yellow,Images/Yellow.jpg,space,ParentConditions/YellowBlueBlue_v1.xlsx,BlueBlueYellow,Conditions/Version_1/BlueFearStop.xlsx,no,PASS,0.7658265452728541,,,,,,,,,0,0,0,0,0,1,1,1,0,55,55,55,,,,,,,,,,,,,,,,,,,,,,,,,,,,,,,,,,,,,,,,,,,,,,,,,,,,,,,,,,,,,,,,,,,,,,,,,,,,,,,1.87,731.2154697999358,None,space,1,0.2695524003356695,733.1892929999158,None,733.1892929999158,None,733.1892929999158,None,,,,,,,,,,,P015,fencog,1,Pre,2021_Oct_20_1041,Go No-Go Task,2021.1.4,120.22019536302781,
,"Rule: When you see blue image, do not press 'spacebar'.",Images/Happy/AM04_HE.jpg,Happy,Yellow,Images/Yellow.jpg,space,ParentConditions/YellowBlueBlue_v1.xlsx,BlueBlueYellow,Conditions/Version_1/BlueFearStop.xlsx,no,PASS,0.8987539961300183,,,,,,,,,0,0,0,0,0,1,1,1,0,56,56,56,,,,,,,,,,,,,,,,,,,,,,,,,,,,,,,,,,,,,,,,,,,,,,,,,,,,,,,,,,,,,,,,,,,,,,,,,,,,,,,1.64,733.5887695001438,None,space,1,0.26428910018876195,735.3304709000513,None,735.3304709000513,None,735.3304709000513,None,,,,,,,,,,,P015,fencog,1,Pre,2021_Oct_20_1041,Go No-Go Task,2021.1.4,120.22019536302781,
