CondFileP,Instructions,FaceE,Express,ColourT,ColourF,CorrectAnsP,MasterCondFile,BlockOrder,CondFile,ColCheck,Triplicate_check,SORT_BY_SMALLEST,EPracticeOuterLoop.thisRepN,EPracticeOuterLoop.thisTrialN,EPracticeOuterLoop.thisN,EPracticeOuterLoop.thisIndex,EPracticeInnerLoop.thisRepN,EPracticeInnerLoop.thisTrialN,EPracticeInnerLoop.thisN,EPracticeInnerLoop.thisIndex,MasterLoop.thisRepN,MasterLoop.thisTrialN,MasterLoop.thisN,MasterLoop.thisIndex,OuterLoop.thisRepN,OuterLoop.thisTrialN,OuterLoop.thisN,OuterLoop.thisIndex,InnerLoop.thisRepN,InnerLoop.thisTrialN,InnerLoop.thisN,InnerLoop.thisIndex,text_13.started,text_13.stopped,key_resp_10.keys,key_resp_10.rt,key_resp_10.started,key_resp_10.stopped,text4.started,text4.stopped,EmotionTaskInstructions1.keys,EmotionTaskInstructions1.rt,EmotionTaskInstructions1.started,EmotionTaskInstructions1.stopped,text_4.started,text_4.stopped,key_resp_5.keys,key_resp_5.rt,key_resp_5.started,key_resp_5.stopped,Text_14.started,Text_14.stopped,key_resp_9.keys,key_resp_9.rt,key_resp_9.started,key_resp_9.stopped,text_5.started,text_5.stopped,text_6.started,text_6.stopped,key_resp_7.keys,key_resp_7.rt,key_resp_7.started,key_resp_7.stopped,text_10.started,text_10.stopped,text_11.started,text_11.stopped,text_12.started,text_12.stopped,ISIjitterPractice,EPracticeISIMarker.started,EPracticeISIMarker.stopped,Pract.keys,Pract.corr,Pract.started,Pract.stopped,PracticeFace.started,PracticeFace.stopped,ColourPractice.started,ColourPractice.stopped,text_7.started,text_7.stopped,Pract.rt,EndOfPractice.started,EndOfPractice.stopped,key_resp_8.keys,key_resp_8.rt,key_resp_8.started,key_resp_8.stopped,text_8.started,text_8.stopped,key_resp_6.keys,key_resp_6.rt,key_resp_6.started,key_resp_6.stopped,text_2.started,text_2.stopped,text_3.started,text_3.stopped,key_resp_3.keys,key_resp_3.rt,key_resp_3.started,key_resp_3.stopped,TaskBlock.started,TaskBlock.stopped,BlockNo1.started,BlockNo1.stopped,OfBlock.started,OfBlock.stopped,ISIjitter,ISImarker.started,ISImarker.stopped,key_resp.keys,key_resp.corr,key_resp.rt,key_resp.started,key_resp.stopped,FaceSet.started,FaceSet.stopped,Colour.started,Colour.stopped,EndBlockText.started,EndBlockText.stopped,key_resp_4.keys,key_resp_4.rt,key_resp_4.started,key_resp_4.stopped,BreakText2.started,BreakText2.stopped,PressToContinue.started,PressToContinue.stopped,participant,Study Name,Task Version (required to run),PRE/POST,date,expName,psychopyVersion,frameRate,
,,,,,,,,,,,,,,,,,,,,,,,,,,,,,,,,,34.08967539999867,None,space,122.32157050003298,35.075778399943374,None,,,,,,,,,,,,,,,,,,,,,,,,,,,,,,,,,,,,,,,,,,,,,,,,,,,,,,,,,,,,,,,,,,,,,,,,,,,,,,,,,,,,,,,,,,,,,,,P016,fencog,1,Pre,2021_Oct_25_1156,Go No-Go Task,2021.1.4,119.61665261270538,
,,,,,,,,,,,,,,,,,,,,,,,,,,,,,,,,,,,,,,,158.95009800000116,None,space,8.782497100008186,158.95009800000116,None,,,,,,,,,,,,,,,,,,,,,,,,,,,,,,,,,,,,,,,,,,,,,,,,,,,,,,,,,,,,,,,,,,,,,,,,,,,,,,,,,,,,,,,,,P016,fencog,1,Pre,2021_Oct_25_1156,Go No-Go Task,2021.1.4,119.61665261270538,
,,,,,,,,,,,,,,,,,,,,,,,,,,,,,,,,,,,,,,,,,,,,,167.79753459995845,None,space,6.462656900053844,167.79753459995845,None,,,,,,,,,,,,,,,,,,,,,,,,,,,,,,,,,,,,,,,,,,,,,,,,,,,,,,,,,,,,,,,,,,,,,,,,,,,,,,,,,,,P016,fencog,1,Pre,2021_Oct_25_1156,Go No-Go Task,2021.1.4,119.61665261270538,
,,,,,,,,,,,,,,,,,,,,,,,,,,,,,,,,,,,,,,,,,,,,,,,,,,,174.2690803000005,None,space,5.911699199990835,174.2690803000005,None,,,,,,,,,,,,,,,,,,,,,,,,,,,,,,,,,,,,,,,,,,,,,,,,,,,,,,,,,,,,,,,,,,,,,,,,,,,,,P016,fencog,1,Pre,2021_Oct_25_1156,Go No-Go Task,2021.1.4,119.61665261270538,
EPracticeConditions/BlueEyes.csv,"Rule: When you see a blue image, do not press 'spacebar'.",Images/Happy/HF04_HE.jpg,Happy,Yellow,Images/Yellow.jpg,space,,,,,,,0,0,0,0,0,0,0,4,,,,,,,,,,,,,,,,,,,,,,,,,,,,,,,,,,,,,180.2582196999574,None,183.2485301999841,None,space,1.787921399984043,183.2485301999841,None,180.2582196999574,None,180.2582196999574,None,180.2582196999574,None,1.4,185.15301159996307,None,None,0,186.69005349994404,None,186.69005349994404,None,186.69005349994404,None,188.26109970000107,None,,,,,,,,,,,,,,,,,,,,,,,,,,,,,,,,,,,,,,,,,,,,,,,,,,P016,fencog,1,Pre,2021_Oct_25_1156,Go No-Go Task,2021.1.4,119.61665261270538,
EPracticeConditions/BlueEyes.csv,"Rule: When you see a blue image, do not press 'spacebar'.",Images/Happy/HF09_HE.jpg,Happy,Yellow,Images/Yellow.jpg,space,,,,,,,0,0,0,0,0,1,1,6,,,,,,,,,,,,,,,,,,,,,,,,,,,,,,,,,,,,,,,,,,,,,,,,,,,1.3,189.58909049996873,None,None,0,190.99677179998253,None,190.99677179998253,None,190.99677179998253,None,191.8900554999709,None,,,,,,,,,,,,,,,,,,,,,,,,,,,,,,,,,,,,,,,,,,,,,,,,,,P016,fencog,1,Pre,2021_Oct_25_1156,Go No-Go Task,2021.1.4,119.61665261270538,
EPracticeConditions/BlueEyes.csv,"Rule: When you see a blue image, do not press 'spacebar'.",Images/Happy/BM02_HO.jpg,Happy,Yellow,Images/Yellow.jpg,space,,,,,,,0,0,0,0,0,2,2,2,,,,,,,,,,,,,,,,,,,,,,,,,,,,,,,,,,,,,,,,,,,,,,,,,,,1.6,193.89500149997184,None,space,1,195.5953853999963,None,195.5953853999963,None,195.5953853999963,None,196.4952745999908,None,0.24124070000834763,,,,,,,,,,,,,,,,,,,,,,,,,,,,,,,,,,,,,,,,,,,,,,,,,P016,fencog,1,Pre,2021_Oct_25_1156,Go No-Go Task,2021.1.4,119.61665261270538,
EPracticeConditions/BlueEyes.csv,"Rule: When you see a blue image, do not press 'spacebar'.",Images/Fearful/HM09_FC.jpg,Fear,Blue,Images/Blue.jpg,None,,,,,,,0,0,0,0,0,3,3,0,,,,,,,,,,,,,,,,,,,,,,,,,,,,,,,,,,,,,,,,,,,,,,,,,,,1.7,198.50202229997376,None,space,0,200.30237229994964,None,200.30237229994964,None,200.30237229994964,None,201.20108329999493,None,0.222250199993141,,,,,,,,,,,,,,,,,,,,,,,,,,,,,,,,,,,,,,,,,,,,,,,,,P016,fencog,1,Pre,2021_Oct_25_1156,Go No-Go Task,2021.1.4,119.61665261270538,
EPracticeConditions/BlueEyes.csv,"Rule: When you see a blue image, do not press 'spacebar'.",Images/Happy/HF10_HE.jpg,Happy,Yellow,Images/Yellow.jpg,space,,,,,,,0,0,0,0,0,4,4,7,,,,,,,,,,,,,,,,,,,,,,,,,,,,,,,,,,,,,,,,,,,,,,,,,,,1.5,203.2017159999814,None,space,1,204.80924069997855,None,204.80924069997855,None,204.80924069997855,None,205.70812779996777,None,0.34001919999718666,,,,,,,,,,,,,,,,,,,,,,,,,,,,,,,,,,,,,,,,,,,,,,,,,P016,fencog,1,Pre,2021_Oct_25_1156,Go No-Go Task,2021.1.4,119.61665261270538,
EPracticeConditions/BlueEyes.csv,"Rule: When you see a blue image, do not press 'spacebar'.",Images/Happy/HF05_HO.jpg,Happy,Yellow,Images/Yellow.jpg,space,,,,,,,0,0,0,0,0,5,5,5,,,,,,,,,,,,,,,,,,,,,,,,,,,,,,,,,,,,,,,,,,,,,,,,,,,1.2,207.7119138999842,None,space,1,209.01618369994685,None,209.01618369994685,None,209.01618369994685,None,209.9065376999788,None,0.33267570001771674,,,,,,,,,,,,,,,,,,,,,,,,,,,,,,,,,,,,,,,,,,,,,,,,,P016,fencog,1,Pre,2021_Oct_25_1156,Go No-Go Task,2021.1.4,119.61665261270538,
EPracticeConditions/BlueEyes.csv,"Rule: When you see a blue image, do not press 'spacebar'.",Images/Fearful/AF01_FO.jpg,Fear,Blue,Images/Blue.jpg,None,,,,,,,0,0,0,0,0,6,6,1,,,,,,,,,,,,,,,,,,,,,,,,,,,,,,,,,,,,,,,,,,,,,,,,,,,1.8,211.90630729997065,None,None,1,213.81490889994893,None,213.81490889994893,None,213.81490889994893,None,214.70787349995226,None,,,,,,,,,,,,,,,,,,,,,,,,,,,,,,,,,,,,,,,,,,,,,,,,,,P016,fencog,1,Pre,2021_Oct_25_1156,Go No-Go Task,2021.1.4,119.61665261270538,
EPracticeConditions/BlueEyes.csv,"Rule: When you see a blue image, do not press 'spacebar'.",Images/Happy/BM08_HO.jpg,Happy,Yellow,Images/Yellow.jpg,space,,,,,,,0,0,0,0,0,7,7,3,,,,,,,,,,,,,,,,,,,,,,,,,,,,,,,,,,,,,,,,,,,,,,,,,,,1.9,216.71334929997101,None,space,1,218.7134807999828,None,218.7134807999828,None,218.7134807999828,None,219.6170032999944,None,0.3548315999796614,,,,,,,,,,,,,,,,,,,,,,,,,,,,,,,,,,,,,,,,,,,,,,,,,P016,fencog,1,Pre,2021_Oct_25_1156,Go No-Go Task,2021.1.4,119.61665261270538,
EPracticeConditions/BlueEyes.csv,"Rule: When you see a blue image, do not press 'spacebar'.",,,,,,,,,,,,0,0,0,0,,,,,,,,,,,,,,,,,,,,,,,,,,,,,,,,,,,,,,,,,,,,,,,,,,,,,,,,,,,,,,,,,,,,,,,,,,,,,,,,,,,,,,,,,,,,,,,,,,,,,,,,,,,,,,,,,,,,,P016,fencog,1,Pre,2021_Oct_25_1156,Go No-Go Task,2021.1.4,119.61665261270538,
EPracticeConditions/YellowEyes.csv,"Rule: When you see a yellow image, do not press 'spacebar'.",Images/Fearful/AM19AFS.jpg,Fear,Blue,Images/Blue.jpg,space,,,,,,,0,1,1,1,0,0,0,4,,,,,,,,,,,,,,,,,,,,,,,,,,,,,,,,,,,,,221.64877619995968,None,224.64452609996079,None,space,0.7675423999899067,224.64452609996079,None,221.64877619995968,None,221.64877619995968,None,221.64877619995968,None,1.8,225.43449479999254,None,space,1,227.34397489996627,None,227.34397489996627,None,227.34397489996627,None,228.23188699997263,None,0.3172886000247672,,,,,,,,,,,,,,,,,,,,,,,,,,,,,,,,,,,,,,,,,,,,,,,,,P016,fencog,1,Pre,2021_Oct_25_1156,Go No-Go Task,2021.1.4,119.61665261270538,
EPracticeConditions/YellowEyes.csv,"Rule: When you see a yellow image, do not press 'spacebar'.",Images/Fearful/AM16AFS.jpg,Fear,Blue,Images/Blue.jpg,space,,,,,,,0,1,1,1,0,1,1,2,,,,,,,,,,,,,,,,,,,,,,,,,,,,,,,,,,,,,,,,,,,,,,,,,,,1.6,230.2349244999932,None,space,1,231.9511027999688,None,231.9511027999688,None,231.9511027999688,None,232.8429564999533,None,0.3332949000177905,,,,,,,,,,,,,,,,,,,,,,,,,,,,,,,,,,,,,,,,,,,,,,,,,P016,fencog,1,Pre,2021_Oct_25_1156,Go No-Go Task,2021.1.4,119.61665261270538,
EPracticeConditions/YellowEyes.csv,"Rule: When you see a yellow image, do not press 'spacebar'.",Images/Happy/AM32HAS.jpg,Happy,Yellow,Images/Yellow.jpg,None,,,,,,,0,1,1,1,0,2,2,0,,,,,,,,,,,,,,,,,,,,,,,,,,,,,,,,,,,,,,,,,,,,,,,,,,,1.3,234.84934479999356,None,None,1,236.24969929998042,None,236.24969929998042,None,236.24969929998042,None,237.14036819996545,None,,,,,,,,,,,,,,,,,,,,,,,,,,,,,,,,,,,,,,,,,,,,,,,,,,P016,fencog,1,Pre,2021_Oct_25_1156,Go No-Go Task,2021.1.4,119.61665261270538,
EPracticeConditions/YellowEyes.csv,"Rule: When you see a yellow image, do not press 'spacebar'.",Images/Fearful/AM24AFS.jpg,Fear,Blue,Images/Blue.jpg,space,,,,,,,0,1,1,1,0,3,3,7,,,,,,,,,,,,,,,,,,,,,,,,,,,,,,,,,,,,,,,,,,,,,,,,,,,1.7,239.13952989998506,None,space,1,240.939949099964,None,240.939949099964,None,240.939949099964,None,241.83141139999498,None,0.30392269999720156,,,,,,,,,,,,,,,,,,,,,,,,,,,,,,,,,,,,,,,,,,,,,,,,,P016,fencog,1,Pre,2021_Oct_25_1156,Go No-Go Task,2021.1.4,119.61665261270538,
EPracticeConditions/YellowEyes.csv,"Rule: When you see a yellow image, do not press 'spacebar'.",Images/Fearful/AM23AFS.jpg,Fear,Blue,Images/Blue.jpg,space,,,,,,,0,1,1,1,0,4,4,6,,,,,,,,,,,,,,,,,,,,,,,,,,,,,,,,,,,,,,,,,,,,,,,,,,,1.2,243.8387226999621,None,None,0,245.13887919997796,None,245.13887919997796,None,245.13887919997796,None,246.03901519998908,None,,,,,,,,,,,,,,,,,,,,,,,,,,,,,,,,,,,,,,,,,,,,,,,,,,P016,fencog,1,Pre,2021_Oct_25_1156,Go No-Go Task,2021.1.4,119.61665261270538,
EPracticeConditions/YellowEyes.csv,"Rule: When you see a yellow image, do not press 'spacebar'.",Images/Happy/BF05_HO.jpg,Happy,Yellow,Images/Yellow.jpg,None,,,,,,,0,1,1,1,0,5,5,1,,,,,,,,,,,,,,,,,,,,,,,,,,,,,,,,,,,,,,,,,,,,,,,,,,,1.4,248.045227399969,None,None,1,249.5457616999629,None,249.5457616999629,None,249.5457616999629,None,250.44453779998003,None,,,,,,,,,,,,,,,,,,,,,,,,,,,,,,,,,,,,,,,,,,,,,,,,,,P016,fencog,1,Pre,2021_Oct_25_1156,Go No-Go Task,2021.1.4,119.61665261270538,
EPracticeConditions/YellowEyes.csv,"Rule: When you see a yellow image, do not press 'spacebar'.",Images/Fearful/AM22AFS.jpg,Fear,Blue,Images/Blue.jpg,space,,,,,,,0,1,1,1,0,6,6,5,,,,,,,,,,,,,,,,,,,,,,,,,,,,,,,,,,,,,,,,,,,,,,,,,,,1.5,252.4441158999689,None,space,1,254.0359438000014,None,254.0359438000014,None,254.0359438000014,None,254.92646749998676,None,0.28782899997895584,,,,,,,,,,,,,,,,,,,,,,,,,,,,,,,,,,,,,,,,,,,,,,,,,P016,fencog,1,Pre,2021_Oct_25_1156,Go No-Go Task,2021.1.4,119.61665261270538,
EPracticeConditions/YellowEyes.csv,"Rule: When you see a yellow image, do not press 'spacebar'.",Images/Fearful/AM17AFS.jpg,Fear,Blue,Images/Blue.jpg,space,,,,,,,0,1,1,1,0,7,7,3,,,,,,,,,,,,,,,,,,,,,,,,,,,,,,,,,,,,,,,,,,,,,,,,,,,1.9,256.92593219998525,None,space,1,258.9261559000006,None,258.9261559000006,None,258.9261559000006,None,259.81672019994585,None,0.3179243999766186,,,,,,,,,,,,,,,,,,,,,,,,,,,,,,,,,,,,,,,,,,,,,,,,,P016,fencog,1,Pre,2021_Oct_25_1156,Go No-Go Task,2021.1.4,119.61665261270538,
EPracticeConditions/YellowEyes.csv,"Rule: When you see a yellow image, do not press 'spacebar'.",,,,,,,,,,,,0,1,1,1,,,,,,,,,,,,,,,,,,,,,,,,,,,,,,,,,,,,,,,,,,,,,,,,,,,,,,,,,,,,,,,,,,,,,,,,,,,,,,,,,,,,,,,,,,,,,,,,,,,,,,,,,,,,,,,,,,,,,P016,fencog,1,Pre,2021_Oct_25_1156,Go No-Go Task,2021.1.4,119.61665261270538,
EPracticeConditions/BlueScram.csv,"Rule: When you see a blue image, do not press 'spacebar'.",Images/Scram2/AM03_NC.jpg,Scramble,Yellow,Images/Yellow.jpg,space,,,,,,,0,2,2,2,0,0,0,6,,,,,,,,,,,,,,,,,,,,,,,,,,,,,,,,,,,,,261.8252321999753,None,264.81545709999045,None,space,0.5887836000183597,264.81545709999045,None,261.8252321999753,None,261.8252321999753,None,261.8252321999753,None,1.3,265.42752669996116,None,None,0,266.8238367999438,None,266.8238367999438,None,266.8238367999438,None,267.7144274999737,None,,,,,,,,,,,,,,,,,,,,,,,,,,,,,,,,,,,,,,,,,,,,,,,,,,P016,fencog,1,Pre,2021_Oct_25_1156,Go No-Go Task,2021.1.4,119.61665261270538,
EPracticeConditions/BlueScram.csv,"Rule: When you see a blue image, do not press 'spacebar'.",Images/Scram2/AF10_NC.jpg,Scramble,Yellow,Images/Yellow.jpg,space,,,,,,,0,2,2,2,0,1,1,2,,,,,,,,,,,,,,,,,,,,,,,,,,,,,,,,,,,,,,,,,,,,,,,,,,,1.7,269.7138154999702,None,space,1,271.5140823999536,None,271.5140823999536,None,271.5140823999536,None,272.4046527999453,None,0.3056573000503704,,,,,,,,,,,,,,,,,,,,,,,,,,,,,,,,,,,,,,,,,,,,,,,,,P016,fencog,1,Pre,2021_Oct_25_1156,Go No-Go Task,2021.1.4,119.61665261270538,
EPracticeConditions/BlueScram.csv,"Rule: When you see a blue image, do not press 'spacebar'.",Images/Scram1/AM13NES.jpg,Scramble,Yellow,Images/Yellow.jpg,space,,,,,,,0,2,2,2,0,2,2,5,,,,,,,,,,,,,,,,,,,,,,,,,,,,,,,,,,,,,,,,,,,,,,,,,,,1.6,274.40407449996565,None,None,0,276.1043711999664,None,276.1043711999664,None,276.1043711999664,None,276.99495879997266,None,,,,,,,,,,,,,,,,,,,,,,,,,,,,,,,,,,,,,,,,,,,,,,,,,,P016,fencog,1,Pre,2021_Oct_25_1156,Go No-Go Task,2021.1.4,119.61665261270538,
EPracticeConditions/BlueScram.csv,"Rule: When you see a blue image, do not press 'spacebar'.",Images/Scram1/AM04_NC.jpg,Scramble,Yellow,Images/Yellow.jpg,space,,,,,,,0,2,2,2,0,3,3,3,,,,,,,,,,,,,,,,,,,,,,,,,,,,,,,,,,,,,,,,,,,,,,,,,,,1.8,278.99435519997496,None,space,1,280.89465139998356,None,280.89465139998356,None,280.89465139998356,None,281.7935040999437,None,0.35758630000054836,,,,,,,,,,,,,,,,,,,,,,,,,,,,,,,,,,,,,,,,,,,,,,,,,P016,fencog,1,Pre,2021_Oct_25_1156,Go No-Go Task,2021.1.4,119.61665261270538,
EPracticeConditions/BlueScram.csv,"Rule: When you see a blue image, do not press 'spacebar'.",Images/Scram1/BF18_NC.jpg,Scramble,Blue,Images/Blue.jpg,None,,,,,,,0,2,2,2,0,4,4,1,,,,,,,,,,,,,,,,,,,,,,,,,,,,,,,,,,,,,,,,,,,,,,,,,,,1.4,283.7931533999508,None,None,1,285.293760999979,None,285.293760999979,None,285.293760999979,None,286.1839329999639,None,,,,,,,,,,,,,,,,,,,,,,,,,,,,,,,,,,,,,,,,,,,,,,,,,,P016,fencog,1,Pre,2021_Oct_25_1156,Go No-Go Task,2021.1.4,119.61665261270538,
EPracticeConditions/BlueScram.csv,"Rule: When you see a blue image, do not press 'spacebar'.",Images/Scram1/AM03NES.jpg,Scramble,Yellow,Images/Yellow.jpg,space,,,,,,,0,2,2,2,0,5,5,4,,,,,,,,,,,,,,,,,,,,,,,,,,,,,,,,,,,,,,,,,,,,,,,,,,,1.5,288.1841859999695,None,space,1,289.792430099973,None,289.792430099973,None,289.792430099973,None,290.68248499999754,None,0.3799384000012651,,,,,,,,,,,,,,,,,,,,,,,,,,,,,,,,,,,,,,,,,,,,,,,,,P016,fencog,1,Pre,2021_Oct_25_1156,Go No-Go Task,2021.1.4,119.61665261270538,
EPracticeConditions/BlueScram.csv,"Rule: When you see a blue image, do not press 'spacebar'.",Images/Scram1/BM08_NC.jpg,Scramble,Blue,Images/Blue.jpg,None,,,,,,,0,2,2,2,0,6,6,0,,,,,,,,,,,,,,,,,,,,,,,,,,,,,,,,,,,,,,,,,,,,,,,,,,,1.2,292.68602949997876,None,None,1,293.99118189996807,None,293.99118189996807,None,293.99118189996807,None,294.8899437999935,None,,,,,,,,,,,,,,,,,,,,,,,,,,,,,,,,,,,,,,,,,,,,,,,,,,P016,fencog,1,Pre,2021_Oct_25_1156,Go No-Go Task,2021.1.4,119.61665261270538,
EPracticeConditions/BlueScram.csv,"Rule: When you see a blue image, do not press 'spacebar'.",Images/Scram2/AF25NES.jpg,Scramble,Yellow,Images/Yellow.jpg,space,,,,,,,0,2,2,2,0,7,7,7,,,,,,,,,,,,,,,,,,,,,,,,,,,,,,,,,,,,,,,,,,,,,,,,,,,1.9,296.8892759999726,None,space,1,298.8897242999519,None,298.8897242999519,None,298.8897242999519,None,299.78013419994386,None,0.32298589998390526,,,,,,,,,,,,,,,,,,,,,,,,,,,,,,,,,,,,,,,,,,,,,,,,,P016,fencog,1,Pre,2021_Oct_25_1156,Go No-Go Task,2021.1.4,119.61665261270538,
EPracticeConditions/BlueScram.csv,"Rule: When you see a blue image, do not press 'spacebar'.",,,,,,,,,,,,0,2,2,2,,,,,,,,,,,,,,,,,,,,,,,,,,,,,,,,,,,,,,,,,,,,,,,,,,,,,,,,,,,,,,,,,,,,,,,,,,,,,,,,,,,,,,,,,,,,,,,,,,,,,,,,,,,,,,,,,,,,,P016,fencog,1,Pre,2021_Oct_25_1156,Go No-Go Task,2021.1.4,119.61665261270538,
EPracticeConditions/YellowScram.csv,"Rule: When you see a yellow image, do not press 'spacebar'.",Images/Scram1/BM01_NC.jpg,Scramble,Blue,Images/Blue.jpg,space,,,,,,,0,3,3,3,0,0,0,5,,,,,,,,,,,,,,,,,,,,,,,,,,,,,,,,,,,,,301.7921063999529,None,304.7789636999951,None,space,0.3292360000195913,304.7789636999951,None,301.7921063999529,None,301.7921063999529,None,301.7921063999529,None,1.6,305.1333008999936,None,space,1,306.83742839994375,None,306.83742839994375,None,306.83742839994375,None,307.7276059999713,None,0.3746981000294909,,,,,,,,,,,,,,,,,,,,,,,,,,,,,,,,,,,,,,,,,,,,,,,,,P016,fencog,1,Pre,2021_Oct_25_1156,Go No-Go Task,2021.1.4,119.61665261270538,
EPracticeConditions/YellowScram.csv,"Rule: When you see a yellow image, do not press 'spacebar'.",Images/Scram2/AM03NES.jpg,Scramble,Yellow,Images/Yellow.jpg,None,,,,,,,0,3,3,3,0,1,1,1,,,,,,,,,,,,,,,,,,,,,,,,,,,,,,,,,,,,,,,,,,,,,,,,,,,1.9,309.7273140999605,None,None,1,311.7277249999461,None,311.7277249999461,None,311.7277249999461,None,312.62354299996514,None,,,,,,,,,,,,,,,,,,,,,,,,,,,,,,,,,,,,,,,,,,,,,,,,,,P016,fencog,1,Pre,2021_Oct_25_1156,Go No-Go Task,2021.1.4,119.61665261270538,
EPracticeConditions/YellowScram.csv,"Rule: When you see a yellow image, do not press 'spacebar'.",Images/Scram2/HM06_NC.jpg,Scramble,Yellow,Images/Yellow.jpg,None,,,,,,,0,3,3,3,0,2,2,0,,,,,,,,,,,,,,,,,,,,,,,,,,,,,,,,,,,,,,,,,,,,,,,,,,,1.2,314.6256077999715,None,None,1,315.92641089996323,None,315.92641089996323,None,315.92641089996323,None,316.8166502999957,None,,,,,,,,,,,,,,,,,,,,,,,,,,,,,,,,,,,,,,,,,,,,,,,,,,P016,fencog,1,Pre,2021_Oct_25_1156,Go No-Go Task,2021.1.4,119.61665261270538,
EPracticeConditions/YellowScram.csv,"Rule: When you see a yellow image, do not press 'spacebar'.",Images/Scram1/HF04_NC.jpg,Scramble,Blue,Images/Blue.jpg,space,,,,,,,0,3,3,3,0,3,3,2,,,,,,,,,,,,,,,,,,,,,,,,,,,,,,,,,,,,,,,,,,,,,,,,,,,1.7,318.81990929995663,None,None,0,320.63342369999737,None,320.63342369999737,None,320.63342369999737,None,321.5277032999438,None,,,,,,,,,,,,,,,,,,,,,,,,,,,,,,,,,,,,,,,,,,,,,,,,,,P016,fencog,1,Pre,2021_Oct_25_1156,Go No-Go Task,2021.1.4,119.61665261270538,
EPracticeConditions/YellowScram.csv,"Rule: When you see a yellow image, do not press 'spacebar'.",Images/Scram1/AF07NES.jpg,Scramble,Blue,Images/Blue.jpg,space,,,,,,,0,3,3,3,0,4,4,3,,,,,,,,,,,,,,,,,,,,,,,,,,,,,,,,,,,,,,,,,,,,,,,,,,,1.8,323.5312890999485,None,space,1,325.4403410999803,None,325.4403410999803,None,325.4403410999803,None,326.3358494999702,None,0.38000529998680577,,,,,,,,,,,,,,,,,,,,,,,,,,,,,,,,,,,,,,,,,,,,,,,,,P016,fencog,1,Pre,2021_Oct_25_1156,Go No-Go Task,2021.1.4,119.61665261270538,
EPracticeConditions/YellowScram.csv,"Rule: When you see a yellow image, do not press 'spacebar'.",Images/Scram1/AF10_NC.jpg,Scramble,Blue,Images/Blue.jpg,space,,,,,,,0,3,3,3,0,5,5,6,,,,,,,,,,,,,,,,,,,,,,,,,,,,,,,,,,,,,,,,,,,,,,,,,,,1.4,328.33852999994997,None,space,1,329.84727659996133,None,329.84727659996133,None,329.84727659996133,None,330.7323770999792,None,0.31778250000206754,,,,,,,,,,,,,,,,,,,,,,,,,,,,,,,,,,,,,,,,,,,,,,,,,P016,fencog,1,Pre,2021_Oct_25_1156,Go No-Go Task,2021.1.4,119.61665261270538,
EPracticeConditions/YellowScram.csv,"Rule: When you see a yellow image, do not press 'spacebar'.",Images/Scram1/AF30NES.JPG,Scramble,Blue,Images/Blue.jpg,space,,,,,,,0,3,3,3,0,6,6,4,,,,,,,,,,,,,,,,,,,,,,,,,,,,,,,,,,,,,,,,,,,,,,,,,,,1.3,332.7371485999902,None,None,0,334.1375743999961,None,334.1375743999961,None,334.1375743999961,None,335.03641869995045,None,,,,,,,,,,,,,,,,,,,,,,,,,,,,,,,,,,,,,,,,,,,,,,,,,,P016,fencog,1,Pre,2021_Oct_25_1156,Go No-Go Task,2021.1.4,119.61665261270538,
EPracticeConditions/YellowScram.csv,"Rule: When you see a yellow image, do not press 'spacebar'.",Images/Scram1/AF24NES.jpg,Scramble,Blue,Images/Blue.jpg,space,,,,,,,0,3,3,3,0,7,7,7,,,,,,,,,,,,,,,,,,,,,,,,,,,,,,,,,,,,,,,,,,,,,,,,,,,1.5,337.03584149997914,None,None,0,338.63627769995946,None,338.63627769995946,None,338.63627769995946,None,339.5292957999627,None,,,,,,,,,,,,,,,,,,,,,,,,,,,,,,,,,,,,,,,,,,,,,,,,,,P016,fencog,1,Pre,2021_Oct_25_1156,Go No-Go Task,2021.1.4,119.61665261270538,
EPracticeConditions/YellowScram.csv,"Rule: When you see a yellow image, do not press 'spacebar'.",,,,,,,,,,,,0,3,3,3,,,,,,,,,,,,,,,,,,,,,,,,,,,,,,,,,,,,,,,,,,,,,,,,,,,,,,,,,,,,,,,,,,,,,,,,,,,,,,,,,,,,,,,,,,,,,,,,,,,,,,,,,,,,,,,,,,,,,P016,fencog,1,Pre,2021_Oct_25_1156,Go No-Go Task,2021.1.4,119.61665261270538,
,,,,,,,,,,,,,,,,,,,,,,,,,,,,,,,,,,,,,,,,,,,,,,,,,,,,,,,,,,,,,,,,,,,,,,,,,,,,,,,,,,,,,342.96263229998294,None,space,7.153836700017564,343.44273859995883,None,,,,,,,,,,,,,,,,,,,,,,,,,,,,,,,,,,,,,,,,,,,P016,fencog,1,Pre,2021_Oct_25_1156,Go No-Go Task,2021.1.4,119.61665261270538,
,,,,,,,,,,,,,,,,,,,,,,,,,,,,,,,,,,,,,,,,,,,,,,,,,,,,,,,,,,,,,,,,,,,,,,,,,,,,,,,,,,,,,,,,,,,350.60883459995966,None,space,3.4433602999779396,350.60883459995966,None,,,,,,,,,,,,,,,,,,,,,,,,,,,,,,,,,,,,,P016,fencog,1,Pre,2021_Oct_25_1156,Go No-Go Task,2021.1.4,119.61665261270538,
,"Rule: When you see a yellow image, do not press 'spacebar'.",Images/Happy/BF09_HO.jpg,Happy,Blue,Images/Blue.jpg,space,ParentConditions/YellowYellowBlue_v1.xlsx,YellowYellowBlue,Conditions/Version_1/YellowFearStop.xlsx,no,PASS,0.8264186213388923,,,,,,,,,0,0,0,1,0,0,0,0,0,0,0,0,,,,,,,,,,,,,,,,,,,,,,,,,,,,,,,,,,,,,,,,,,,,,,,,,,,,,,,,,,,,,,,,,354.1392762999749,None,357.13004109996837,None,space,3.442329299985431,357.13004109996837,None,354.1392762999749,None,354.1392762999749,None,354.1392762999749,None,1.73,360.62059529998805,None,space,1,0.2771061999956146,362.47087509999983,None,362.47087509999983,None,362.47087509999983,None,,,,,,,,,,,P016,fencog,1,Pre,2021_Oct_25_1156,Go No-Go Task,2021.1.4,119.61665261270538,
,"Rule: When you see a yellow image, do not press 'spacebar'.",Images/Happy/AF30HAS.jpg,Happy,Blue,Images/Blue.jpg,space,ParentConditions/YellowYellowBlue_v1.xlsx,YellowYellowBlue,Conditions/Version_1/YellowFearStop.xlsx,no,PASS,0.17577164693776992,,,,,,,,,0,0,0,1,0,0,0,0,0,1,1,1,,,,,,,,,,,,,,,,,,,,,,,,,,,,,,,,,,,,,,,,,,,,,,,,,,,,,,,,,,,,,,,,,,,,,,,,,,,,,,,1.37,362.8565385999973,None,space,1,0.3315209999564104,364.3287857999676,None,364.3287857999676,None,364.3287857999676,None,,,,,,,,,,,P016,fencog,1,Pre,2021_Oct_25_1156,Go No-Go Task,2021.1.4,119.61665261270538,
,"Rule: When you see a yellow image, do not press 'spacebar'.",Images/Happy/AF27HAS.jpg,Happy,Blue,Images/Blue.jpg,space,ParentConditions/YellowYellowBlue_v1.xlsx,YellowYellowBlue,Conditions/Version_1/YellowFearStop.xlsx,no,PASS,0.9530234186227198,,,,,,,,,0,0,0,1,0,0,0,0,0,2,2,2,,,,,,,,,,,,,,,,,,,,,,,,,,,,,,,,,,,,,,,,,,,,,,,,,,,,,,,,,,,,,,,,,,,,,,,,,,,,,,,1.99,364.73738949996186,None,space,1,0.296416400000453,366.8196379999863,None,366.8196379999863,None,366.8196379999863,None,,,,,,,,,,,P016,fencog,1,Pre,2021_Oct_25_1156,Go No-Go Task,2021.1.4,119.61665261270538,
,"Rule: When you see a yellow image, do not press 'spacebar'.",Images/Happy/AF22HAS.jpg,Happy,Blue,Images/Blue.jpg,space,ParentConditions/YellowYellowBlue_v1.xlsx,YellowYellowBlue,Conditions/Version_1/YellowFearStop.xlsx,no,PASS,0.38244231072686263,,,,,,,,,0,0,0,1,0,0,0,0,0,3,3,3,,,,,,,,,,,,,,,,,,,,,,,,,,,,,,,,,,,,,,,,,,,,,,,,,,,,,,,,,,,,,,,,,,,,,,,,,,,,,,,1.38,367.2198249999783,None,space,1,0.2932671000016853,368.7040219999617,None,368.7040219999617,None,368.7040219999617,None,,,,,,,,,,,P016,fencog,1,Pre,2021_Oct_25_1156,Go No-Go Task,2021.1.4,119.61665261270538,
,"Rule: When you see a yellow image, do not press 'spacebar'.",Images/Happy/WM11_HC.jpg,Happy,Blue,Images/Blue.jpg,space,ParentConditions/YellowYellowBlue_v1.xlsx,YellowYellowBlue,Conditions/Version_1/YellowFearStop.xlsx,no,PASS,0.4646194175443181,,,,,,,,,0,0,0,1,0,0,0,0,0,4,4,4,,,,,,,,,,,,,,,,,,,,,,,,,,,,,,,,,,,,,,,,,,,,,,,,,,,,,,,,,,,,,,,,,,,,,,,,,,,,,,,1.27,369.1097405999899,None,space,1,0.3111094000050798,370.48518599994713,None,370.48518599994713,None,370.48518599994713,None,,,,,,,,,,,P016,fencog,1,Pre,2021_Oct_25_1156,Go No-Go Task,2021.1.4,119.61665261270538,
,"Rule: When you see a yellow image, do not press 'spacebar'.",Images/Happy/BF05_HO.jpg,Happy,Blue,Images/Blue.jpg,space,ParentConditions/YellowYellowBlue_v1.xlsx,YellowYellowBlue,Conditions/Version_1/YellowFearStop.xlsx,no,PASS,0.7872072262972759,,,,,,,,,0,0,0,1,0,0,0,0,0,5,5,5,,,,,,,,,,,,,,,,,,,,,,,,,,,,,,,,,,,,,,,,,,,,,,,,,,,,,,,,,,,,,,,,,,,,,,,,,,,,,,,1.83,370.8842194999452,None,space,1,0.27444339997600764,372.81775099999504,None,372.81775099999504,None,372.81775099999504,None,,,,,,,,,,,P016,fencog,1,Pre,2021_Oct_25_1156,Go No-Go Task,2021.1.4,119.61665261270538,
,"Rule: When you see a yellow image, do not press 'spacebar'.",Images/Fearful/AM01AFS.jpg,Fear,Yellow,Images/Yellow.jpg,None,ParentConditions/YellowYellowBlue_v1.xlsx,YellowYellowBlue,Conditions/Version_1/YellowFearStop.xlsx,yes,PASS,0.04646585469142872,,,,,,,,,0,0,0,1,0,0,0,0,0,6,6,6,,,,,,,,,,,,,,,,,,,,,,,,,,,,,,,,,,,,,,,,,,,,,,,,,,,,,,,,,,,,,,,,,,,,,,,,,,,,,,,1.33,373.2191145999823,None,None,1,,374.6505778999999,None,374.6505778999999,None,374.6505778999999,None,,,,,,,,,,,P016,fencog,1,Pre,2021_Oct_25_1156,Go No-Go Task,2021.1.4,119.61665261270538,
,"Rule: When you see a yellow image, do not press 'spacebar'.",Images/Happy/AF23HAS.jpg,Happy,Blue,Images/Blue.jpg,space,ParentConditions/YellowYellowBlue_v1.xlsx,YellowYellowBlue,Conditions/Version_1/YellowFearStop.xlsx,no,PASS,0.9566897784343521,,,,,,,,,0,0,0,1,0,0,0,0,0,7,7,7,,,,,,,,,,,,,,,,,,,,,,,,,,,,,,,,,,,,,,,,,,,,,,,,,,,,,,,,,,,,,,,,,,,,,,,,,,,,,,,1.52,375.0513886999688,None,space,1,0.2818519999855198,376.67493899998954,None,376.67493899998954,None,376.67493899998954,None,,,,,,,,,,,P016,fencog,1,Pre,2021_Oct_25_1156,Go No-Go Task,2021.1.4,119.61665261270538,
,"Rule: When you see a yellow image, do not press 'spacebar'.",Images/Happy/AM16HAS.jpg,Happy,Blue,Images/Blue.jpg,space,ParentConditions/YellowYellowBlue_v1.xlsx,YellowYellowBlue,Conditions/Version_1/YellowFearStop.xlsx,no,PASS,0.9715962743635901,,,,,,,,,0,0,0,1,0,0,0,0,0,8,8,8,,,,,,,,,,,,,,,,,,,,,,,,,,,,,,,,,,,,,,,,,,,,,,,,,,,,,,,,,,,,,,,,,,,,,,,,,,,,,,,1.74,377.0750280999928,None,space,1,0.29539799998747185,378.9243511999957,None,378.9243511999957,None,378.9243511999957,None,,,,,,,,,,,P016,fencog,1,Pre,2021_Oct_25_1156,Go No-Go Task,2021.1.4,119.61665261270538,
,"Rule: When you see a yellow image, do not press 'spacebar'.",Images/Happy/AM04HAS.jpg,Happy,Blue,Images/Blue.jpg,space,ParentConditions/YellowYellowBlue_v1.xlsx,YellowYellowBlue,Conditions/Version_1/YellowFearStop.xlsx,no,PASS,0.8834532829789966,,,,,,,,,0,0,0,1,0,0,0,0,0,9,9,9,,,,,,,,,,,,,,,,,,,,,,,,,,,,,,,,,,,,,,,,,,,,,,,,,,,,,,,,,,,,,,,,,,,,,,,,,,,,,,,1.65,379.32666049996624,None,space,1,0.2581959000090137,381.09023949998664,None,381.09023949998664,None,381.09023949998664,None,,,,,,,,,,,P016,fencog,1,Pre,2021_Oct_25_1156,Go No-Go Task,2021.1.4,119.61665261270538,
,"Rule: When you see a yellow image, do not press 'spacebar'.",Images/Happy/AF26HAS.jpg,Happy,Blue,Images/Blue.jpg,space,ParentConditions/YellowYellowBlue_v1.xlsx,YellowYellowBlue,Conditions/Version_1/YellowFearStop.xlsx,no,PASS,0.1837512616409066,,,,,,,,,0,0,0,1,0,0,0,0,0,10,10,10,,,,,,,,,,,,,,,,,,,,,,,,,,,,,,,,,,,,,,,,,,,,,,,,,,,,,,,,,,,,,,,,,,,,,,,,,,,,,,,1.35,381.489867199969,None,space,1,0.368269800033886,382.9564231999684,None,382.9564231999684,None,382.9564231999684,None,,,,,,,,,,,P016,fencog,1,Pre,2021_Oct_25_1156,Go No-Go Task,2021.1.4,119.61665261270538,
,"Rule: When you see a yellow image, do not press 'spacebar'.",Images/Fearful/AF10_FC.jpg,Fear,Yellow,Images/Yellow.jpg,None,ParentConditions/YellowYellowBlue_v1.xlsx,YellowYellowBlue,Conditions/Version_1/YellowFearStop.xlsx,yes,PASS,0.28017183869067563,,,,,,,,,0,0,0,1,0,0,0,0,0,11,11,11,,,,,,,,,,,,,,,,,,,,,,,,,,,,,,,,,,,,,,,,,,,,,,,,,,,,,,,,,,,,,,,,,,,,,,,,,,,,,,,1.64,383.3564663999714,None,space,0,0.12271049997070804,385.09744289994705,None,385.09744289994705,None,385.09744289994705,None,,,,,,,,,,,P016,fencog,1,Pre,2021_Oct_25_1156,Go No-Go Task,2021.1.4,119.61665261270538,
,"Rule: When you see a yellow image, do not press 'spacebar'.",Images/Fearful/AM09_FO.jpg,Fear,Yellow,Images/Yellow.jpg,None,ParentConditions/YellowYellowBlue_v1.xlsx,YellowYellowBlue,Conditions/Version_1/YellowFearStop.xlsx,yes,PASS,0.6630139915996167,,,,,,,,,0,0,0,1,0,0,0,0,0,12,12,12,,,,,,,,,,,,,,,,,,,,,,,,,,,,,,,,,,,,,,,,,,,,,,,,,,,,,,,,,,,,,,,,,,,,,,,,,,,,,,,1.2,385.49641369999154,None,None,1,,386.79703239997616,None,386.79703239997616,None,386.79703239997616,None,,,,,,,,,,,P016,fencog,1,Pre,2021_Oct_25_1156,Go No-Go Task,2021.1.4,119.61665261270538,
,"Rule: When you see a yellow image, do not press 'spacebar'.",Images/Happy/HM04_HO.jpg,Happy,Blue,Images/Blue.jpg,space,ParentConditions/YellowYellowBlue_v1.xlsx,YellowYellowBlue,Conditions/Version_1/YellowFearStop.xlsx,no,PASS,0.9402314290963173,,,,,,,,,0,0,0,1,0,0,0,0,0,13,13,13,,,,,,,,,,,,,,,,,,,,,,,,,,,,,,,,,,,,,,,,,,,,,,,,,,,,,,,,,,,,,,,,,,,,,,,,,,,,,,,1.23,387.19762589997845,None,None,0,,388.52972599997884,None,388.52972599997884,None,388.52972599997884,None,,,,,,,,,,,P016,fencog,1,Pre,2021_Oct_25_1156,Go No-Go Task,2021.1.4,119.61665261270538,
,"Rule: When you see a yellow image, do not press 'spacebar'.",Images/Fearful/AM04_FO.jpg,Fear,Yellow,Images/Yellow.jpg,None,ParentConditions/YellowYellowBlue_v1.xlsx,YellowYellowBlue,Conditions/Version_1/YellowFearStop.xlsx,yes,PASS,0.3100490082037951,,,,,,,,,0,0,0,1,0,0,0,0,0,14,14,14,,,,,,,,,,,,,,,,,,,,,,,,,,,,,,,,,,,,,,,,,,,,,,,,,,,,,,,,,,,,,,,,,,,,,,,,,,,,,,,1.8,388.9286406999454,None,None,1,,390.837430799962,None,390.837430799962,None,390.837430799962,None,,,,,,,,,,,P016,fencog,1,Pre,2021_Oct_25_1156,Go No-Go Task,2021.1.4,119.61665261270538,
,"Rule: When you see a yellow image, do not press 'spacebar'.",Images/Happy/AM13HAS.jpg,Happy,Blue,Images/Blue.jpg,space,ParentConditions/YellowYellowBlue_v1.xlsx,YellowYellowBlue,Conditions/Version_1/YellowFearStop.xlsx,no,PASS,0.44314676907690376,,,,,,,,,0,0,0,1,0,0,0,0,0,15,15,15,,,,,,,,,,,,,,,,,,,,,,,,,,,,,,,,,,,,,,,,,,,,,,,,,,,,,,,,,,,,,,,,,,,,,,,,,,,,,,,1.63,391.23649799998384,None,None,0,,392.9700929999817,None,392.9700929999817,None,392.9700929999817,None,,,,,,,,,,,P016,fencog,1,Pre,2021_Oct_25_1156,Go No-Go Task,2021.1.4,119.61665261270538,
,"Rule: When you see a yellow image, do not press 'spacebar'.",Images/Fearful/AF09AFS.jpg,Fear,Yellow,Images/Yellow.jpg,None,ParentConditions/YellowYellowBlue_v1.xlsx,YellowYellowBlue,Conditions/Version_1/YellowFearStop.xlsx,yes,PASS,0.4498025699510172,,,,,,,,,0,0,0,1,0,0,0,0,0,16,16,16,,,,,,,,,,,,,,,,,,,,,,,,,,,,,,,,,,,,,,,,,,,,,,,,,,,,,,,,,,,,,,,,,,,,,,,,,,,,,,,1.89,393.3708289999631,None,None,1,,395.3777266999823,None,395.3777266999823,None,395.3777266999823,None,,,,,,,,,,,P016,fencog,1,Pre,2021_Oct_25_1156,Go No-Go Task,2021.1.4,119.61665261270538,
,"Rule: When you see a yellow image, do not press 'spacebar'.",Images/Fearful/BF05_FO.jpg,Fear,Yellow,Images/Yellow.jpg,None,ParentConditions/YellowYellowBlue_v1.xlsx,YellowYellowBlue,Conditions/Version_1/YellowFearStop.xlsx,yes,PASS,0.9080020582242041,,,,,,,,,0,0,0,1,0,0,0,0,0,17,17,17,,,,,,,,,,,,,,,,,,,,,,,,,,,,,,,,,,,,,,,,,,,,,,,,,,,,,,,,,,,,,,,,,,,,,,,,,,,,,,,1.85,395.7716054999619,None,space,0,0.27006380003876984,397.7270865999744,None,397.7270865999744,None,397.7270865999744,None,,,,,,,,,,,P016,fencog,1,Pre,2021_Oct_25_1156,Go No-Go Task,2021.1.4,119.61665261270538,
,"Rule: When you see a yellow image, do not press 'spacebar'.",Images/Happy/AM24HAS.jpg,Happy,Blue,Images/Blue.jpg,space,ParentConditions/YellowYellowBlue_v1.xlsx,YellowYellowBlue,Conditions/Version_1/YellowFearStop.xlsx,no,PASS,0.922071682303877,,,,,,,,,0,0,0,1,0,0,0,0,0,18,18,18,,,,,,,,,,,,,,,,,,,,,,,,,,,,,,,,,,,,,,,,,,,,,,,,,,,,,,,,,,,,,,,,,,,,,,,,,,,,,,,1.96,398.1263936999603,None,None,0,,400.19306329998653,None,400.19306329998653,None,400.19306329998653,None,,,,,,,,,,,P016,fencog,1,Pre,2021_Oct_25_1156,Go No-Go Task,2021.1.4,119.61665261270538,
,"Rule: When you see a yellow image, do not press 'spacebar'.",Images/Fearful/AF11AFS.jpg,Fear,Yellow,Images/Yellow.jpg,None,ParentConditions/YellowYellowBlue_v1.xlsx,YellowYellowBlue,Conditions/Version_1/YellowFearStop.xlsx,yes,PASS,0.9473352640697336,,,,,,,,,0,0,0,1,0,0,0,0,0,19,19,19,,,,,,,,,,,,,,,,,,,,,,,,,,,,,,,,,,,,,,,,,,,,,,,,,,,,,,,,,,,,,,,,,,,,,,,,,,,,,,,1.6,400.5934839999536,None,None,1,,402.3005310999579,None,402.3005310999579,None,402.3005310999579,None,,,,,,,,,,,P016,fencog,1,Pre,2021_Oct_25_1156,Go No-Go Task,2021.1.4,119.61665261270538,
,"Rule: When you see a yellow image, do not press 'spacebar'.",Images/Happy/AF01_HE.jpg,Happy,Blue,Images/Blue.jpg,space,ParentConditions/YellowYellowBlue_v1.xlsx,YellowYellowBlue,Conditions/Version_1/YellowFearStop.xlsx,no,PASS,0.975890070475601,,,,,,,,,0,0,0,1,0,0,0,0,0,20,20,20,,,,,,,,,,,,,,,,,,,,,,,,,,,,,,,,,,,,,,,,,,,,,,,,,,,,,,,,,,,,,,,,,,,,,,,,,,,,,,,1.41,402.70161699998425,None,None,0,,404.22520149999764,None,404.22520149999764,None,404.22520149999764,None,,,,,,,,,,,P016,fencog,1,Pre,2021_Oct_25_1156,Go No-Go Task,2021.1.4,119.61665261270538,
,"Rule: When you see a yellow image, do not press 'spacebar'.",Images/Happy/AM10_HO.jpg,Happy,Blue,Images/Blue.jpg,space,ParentConditions/YellowYellowBlue_v1.xlsx,YellowYellowBlue,Conditions/Version_1/YellowFearStop.xlsx,no,PASS,0.06323556568324906,,,,,,,,,0,0,0,1,0,0,0,0,0,21,21,21,,,,,,,,,,,,,,,,,,,,,,,,,,,,,,,,,,,,,,,,,,,,,,,,,,,,,,,,,,,,,,,,,,,,,,,,,,,,,,,1.24,404.6240871999762,None,space,1,0.3336231000139378,405.9663696999778,None,405.9663696999778,None,405.9663696999778,None,,,,,,,,,,,P016,fencog,1,Pre,2021_Oct_25_1156,Go No-Go Task,2021.1.4,119.61665261270538,
,"Rule: When you see a yellow image, do not press 'spacebar'.",Images/Happy/AF09HAS.jpg,Happy,Blue,Images/Blue.jpg,space,ParentConditions/YellowYellowBlue_v1.xlsx,YellowYellowBlue,Conditions/Version_1/YellowFearStop.xlsx,no,PASS,0.6962175902541581,,,,,,,,,0,0,0,1,0,0,0,0,0,22,22,22,,,,,,,,,,,,,,,,,,,,,,,,,,,,,,,,,,,,,,,,,,,,,,,,,,,,,,,,,,,,,,,,,,,,,,,,,,,,,,,1.82,406.3743836999638,None,space,1,0.25766400003340095,408.29885539994575,None,408.29885539994575,None,408.29885539994575,None,,,,,,,,,,,P016,fencog,1,Pre,2021_Oct_25_1156,Go No-Go Task,2021.1.4,119.61665261270538,
,"Rule: When you see a yellow image, do not press 'spacebar'.",Images/Happy/BM02_HO.jpg,Happy,Blue,Images/Blue.jpg,space,ParentConditions/YellowYellowBlue_v1.xlsx,YellowYellowBlue,Conditions/Version_1/YellowFearStop.xlsx,no,PASS,0.39611347700197175,,,,,,,,,0,0,0,1,0,0,0,0,0,23,23,23,,,,,,,,,,,,,,,,,,,,,,,,,,,,,,,,,,,,,,,,,,,,,,,,,,,,,,,,,,,,,,,,,,,,,,,,,,,,,,,1.59,408.6986719999695,None,space,1,0.26985009998315945,410.39827509998577,None,410.39827509998577,None,410.39827509998577,None,,,,,,,,,,,P016,fencog,1,Pre,2021_Oct_25_1156,Go No-Go Task,2021.1.4,119.61665261270538,
,"Rule: When you see a yellow image, do not press 'spacebar'.",Images/Happy/AM09_HE.jpg,Happy,Blue,Images/Blue.jpg,space,ParentConditions/YellowYellowBlue_v1.xlsx,YellowYellowBlue,Conditions/Version_1/YellowFearStop.xlsx,no,PASS,0.07757947711401492,,,,,,,,,0,0,0,1,0,0,0,0,0,24,24,24,,,,,,,,,,,,,,,,,,,,,,,,,,,,,,,,,,,,,,,,,,,,,,,,,,,,,,,,,,,,,,,,,,,,,,,,,,,,,,,1.72,410.8021977999597,None,space,1,0.3818178999936208,412.63091179996263,None,412.63091179996263,None,412.63091179996263,None,,,,,,,,,,,P016,fencog,1,Pre,2021_Oct_25_1156,Go No-Go Task,2021.1.4,119.61665261270538,
,"Rule: When you see a yellow image, do not press 'spacebar'.",Images/Happy/AF10_HE.jpg,Happy,Blue,Images/Blue.jpg,space,ParentConditions/YellowYellowBlue_v1.xlsx,YellowYellowBlue,Conditions/Version_1/YellowFearStop.xlsx,no,PASS,0.0317382475703174,,,,,,,,,0,0,0,1,0,0,0,0,0,25,25,25,,,,,,,,,,,,,,,,,,,,,,,,,,,,,,,,,,,,,,,,,,,,,,,,,,,,,,,,,,,,,,,,,,,,,,,,,,,,,,,1.53,413.0282694999478,None,space,1,0.2519929999834858,414.67193019995466,None,414.67193019995466,None,414.67193019995466,None,,,,,,,,,,,P016,fencog,1,Pre,2021_Oct_25_1156,Go No-Go Task,2021.1.4,119.61665261270538,
,"Rule: When you see a yellow image, do not press 'spacebar'.",Images/Happy/BM01_HO.jpg,Happy,Blue,Images/Blue.jpg,space,ParentConditions/YellowYellowBlue_v1.xlsx,YellowYellowBlue,Conditions/Version_1/YellowFearStop.xlsx,no,PASS,0.5236836345272965,,,,,,,,,0,0,0,1,0,0,0,0,0,26,26,26,,,,,,,,,,,,,,,,,,,,,,,,,,,,,,,,,,,,,,,,,,,,,,,,,,,,,,,,,,,,,,,,,,,,,,,,,,,,,,,1.57,415.0713235999574,None,space,1,0.20948459999635816,416.74648919998435,None,416.74648919998435,None,416.74648919998435,None,,,,,,,,,,,P016,fencog,1,Pre,2021_Oct_25_1156,Go No-Go Task,2021.1.4,119.61665261270538,
,"Rule: When you see a yellow image, do not press 'spacebar'.",Images/Fearful/AF07_FO.jpg,Fear,Yellow,Images/Yellow.jpg,None,ParentConditions/YellowYellowBlue_v1.xlsx,YellowYellowBlue,Conditions/Version_1/YellowFearStop.xlsx,yes,PASS,0.05460409726356086,,,,,,,,,0,0,0,1,0,0,0,0,0,27,27,27,,,,,,,,,,,,,,,,,,,,,,,,,,,,,,,,,,,,,,,,,,,,,,,,,,,,,,,,,,,,,,,,,,,,,,,,,,,,,,,1.78,417.1468555999454,None,space,0,0.23866209998959675,419.02906599995913,None,419.02906599995913,None,419.02906599995913,None,,,,,,,,,,,P016,fencog,1,Pre,2021_Oct_25_1156,Go No-Go Task,2021.1.4,119.61665261270538,
,"Rule: When you see a yellow image, do not press 'spacebar'.",Images/Happy/BF18_HO.jpg,Happy,Blue,Images/Blue.jpg,space,ParentConditions/YellowYellowBlue_v1.xlsx,YellowYellowBlue,Conditions/Version_1/YellowFearStop.xlsx,no,PASS,0.725547290944351,,,,,,,,,0,0,0,1,0,0,0,0,0,28,28,28,,,,,,,,,,,,,,,,,,,,,,,,,,,,,,,,,,,,,,,,,,,,,,,,,,,,,,,,,,,,,,,,,,,,,,,,,,,,,,,1.68,419.4322954999516,None,space,1,0.33575619995826855,421.22012239997275,None,421.22012239997275,None,421.22012239997275,None,,,,,,,,,,,P016,fencog,1,Pre,2021_Oct_25_1156,Go No-Go Task,2021.1.4,119.61665261270538,
,"Rule: When you see a yellow image, do not press 'spacebar'.",Images/Happy/AM03HAS.jpg,Happy,Blue,Images/Blue.jpg,space,ParentConditions/YellowYellowBlue_v1.xlsx,YellowYellowBlue,Conditions/Version_1/YellowFearStop.xlsx,no,PASS,0.25317968373868693,,,,,,,,,0,0,0,1,0,0,0,0,0,29,29,29,,,,,,,,,,,,,,,,,,,,,,,,,,,,,,,,,,,,,,,,,,,,,,,,,,,,,,,,,,,,,,,,,,,,,,,,,,,,,,,1.92,421.6197420999524,None,space,1,0.25615560001460835,423.6441254999954,None,423.6441254999954,None,423.6441254999954,None,,,,,,,,,,,P016,fencog,1,Pre,2021_Oct_25_1156,Go No-Go Task,2021.1.4,119.61665261270538,
,"Rule: When you see a yellow image, do not press 'spacebar'.",Images/Happy/BF10_HO.jpg,Happy,Blue,Images/Blue.jpg,space,ParentConditions/YellowYellowBlue_v1.xlsx,YellowYellowBlue,Conditions/Version_1/YellowFearStop.xlsx,no,PASS,0.49778397383761497,,,,,,,,,0,0,0,1,0,0,0,0,0,30,30,30,,,,,,,,,,,,,,,,,,,,,,,,,,,,,,,,,,,,,,,,,,,,,,,,,,,,,,,,,,,,,,,,,,,,,,,,,,,,,,,1.75,424.0449518999667,None,space,1,0.2862938999896869,425.9020458999439,None,425.9020458999439,None,425.9020458999439,None,,,,,,,,,,,P016,fencog,1,Pre,2021_Oct_25_1156,Go No-Go Task,2021.1.4,119.61665261270538,
,"Rule: When you see a yellow image, do not press 'spacebar'.",Images/Happy/BF07_HO.jpg,Happy,Blue,Images/Blue.jpg,space,ParentConditions/YellowYellowBlue_v1.xlsx,YellowYellowBlue,Conditions/Version_1/YellowFearStop.xlsx,no,PASS,0.8230931671283865,,,,,,,,,0,0,0,1,0,0,0,0,0,31,31,31,,,,,,,,,,,,,,,,,,,,,,,,,,,,,,,,,,,,,,,,,,,,,,,,,,,,,,,,,,,,,,,,,,,,,,,,,,,,,,,1.97,426.30096969997976,None,space,1,0.2602094000321813,428.3762956999708,None,428.3762956999708,None,428.3762956999708,None,,,,,,,,,,,P016,fencog,1,Pre,2021_Oct_25_1156,Go No-Go Task,2021.1.4,119.61665261270538,
,"Rule: When you see a yellow image, do not press 'spacebar'.",Images/Fearful/BF07_FO.jpg,Fear,Yellow,Images/Yellow.jpg,None,ParentConditions/YellowYellowBlue_v1.xlsx,YellowYellowBlue,Conditions/Version_1/YellowFearStop.xlsx,yes,PASS,0.2119409881246468,,,,,,,,,0,0,0,1,0,0,0,0,0,32,32,32,,,,,,,,,,,,,,,,,,,,,,,,,,,,,,,,,,,,,,,,,,,,,,,,,,,,,,,,,,,,,,,,,,,,,,,,,,,,,,,1.67,428.783105599985,None,None,1,,430.55896979995305,None,430.55896979995305,None,430.55896979995305,None,,,,,,,,,,,P016,fencog,1,Pre,2021_Oct_25_1156,Go No-Go Task,2021.1.4,119.61665261270538,
,"Rule: When you see a yellow image, do not press 'spacebar'.",Images/Happy/WF04_HC.jpg,Happy,Blue,Images/Blue.jpg,space,ParentConditions/YellowYellowBlue_v1.xlsx,YellowYellowBlue,Conditions/Version_1/YellowFearStop.xlsx,no,PASS,0.26229612863468255,,,,,,,,,0,0,0,1,0,0,0,0,0,33,33,33,,,,,,,,,,,,,,,,,,,,,,,,,,,,,,,,,,,,,,,,,,,,,,,,,,,,,,,,,,,,,,,,,,,,,,,,,,,,,,,1.22,430.96503379999194,None,space,1,0.24792699998943135,432.3001993999933,None,432.3001993999933,None,432.3001993999933,None,,,,,,,,,,,P016,fencog,1,Pre,2021_Oct_25_1156,Go No-Go Task,2021.1.4,119.61665261270538,
,"Rule: When you see a yellow image, do not press 'spacebar'.",Images/Happy/AM23HAS.jpg,Happy,Blue,Images/Blue.jpg,space,ParentConditions/YellowYellowBlue_v1.xlsx,YellowYellowBlue,Conditions/Version_1/YellowFearStop.xlsx,no,PASS,0.6553077695853636,,,,,,,,,0,0,0,1,0,0,0,0,0,34,34,34,,,,,,,,,,,,,,,,,,,,,,,,,,,,,,,,,,,,,,,,,,,,,,,,,,,,,,,,,,,,,,,,,,,,,,,,,,,,,,,1.87,432.70110659999773,None,space,1,0.31321630004094914,434.6744508999982,None,434.6744508999982,None,434.6744508999982,None,,,,,,,,,,,P016,fencog,1,Pre,2021_Oct_25_1156,Go No-Go Task,2021.1.4,119.61665261270538,
,"Rule: When you see a yellow image, do not press 'spacebar'.",Images/Happy/AM09HAS.jpg,Happy,Blue,Images/Blue.jpg,space,ParentConditions/YellowYellowBlue_v1.xlsx,YellowYellowBlue,Conditions/Version_1/YellowFearStop.xlsx,no,PASS,0.3792451721627529,,,,,,,,,0,0,0,1,0,0,0,0,0,35,35,35,,,,,,,,,,,,,,,,,,,,,,,,,,,,,,,,,,,,,,,,,,,,,,,,,,,,,,,,,,,,,,,,,,,,,,,,,,,,,,,1.25,435.0786046999856,None,space,1,0.26768380001885816,436.43222519999836,None,436.43222519999836,None,436.43222519999836,None,,,,,,,,,,,P016,fencog,1,Pre,2021_Oct_25_1156,Go No-Go Task,2021.1.4,119.61665261270538,
,"Rule: When you see a yellow image, do not press 'spacebar'.",Images/Happy/AM10HAS.jpg,Happy,Blue,Images/Blue.jpg,space,ParentConditions/YellowYellowBlue_v1.xlsx,YellowYellowBlue,Conditions/Version_1/YellowFearStop.xlsx,no,PASS,0.9781550300020249,,,,,,,,,0,0,0,1,0,0,0,0,0,36,36,36,,,,,,,,,,,,,,,,,,,,,,,,,,,,,,,,,,,,,,,,,,,,,,,,,,,,,,,,,,,,,,,,,,,,,,,,,,,,,,,1.77,436.8393479999504,None,space,1,0.26526640000520274,438.71483379998244,None,438.71483379998244,None,438.71483379998244,None,,,,,,,,,,,P016,fencog,1,Pre,2021_Oct_25_1156,Go No-Go Task,2021.1.4,119.61665261270538,
,"Rule: When you see a yellow image, do not press 'spacebar'.",Images/Happy/AF07HAS.jpg,Happy,Blue,Images/Blue.jpg,space,ParentConditions/YellowYellowBlue_v1.xlsx,YellowYellowBlue,Conditions/Version_1/YellowFearStop.xlsx,no,PASS,0.9827710623676732,,,,,,,,,0,0,0,1,0,0,0,0,0,37,37,37,,,,,,,,,,,,,,,,,,,,,,,,,,,,,,,,,,,,,,,,,,,,,,,,,,,,,,,,,,,,,,,,,,,,,,,,,,,,,,,1.58,439.11447979998775,None,space,1,0.23795960005372763,440.7978554999572,None,440.7978554999572,None,440.7978554999572,None,,,,,,,,,,,P016,fencog,1,Pre,2021_Oct_25_1156,Go No-Go Task,2021.1.4,119.61665261270538,
,"Rule: When you see a yellow image, do not press 'spacebar'.",Images/Happy/AM03_HO.jpg,Happy,Blue,Images/Blue.jpg,space,ParentConditions/YellowYellowBlue_v1.xlsx,YellowYellowBlue,Conditions/Version_1/YellowFearStop.xlsx,no,PASS,0.6960883574837642,,,,,,,,,0,0,0,1,0,0,0,0,0,38,38,38,,,,,,,,,,,,,,,,,,,,,,,,,,,,,,,,,,,,,,,,,,,,,,,,,,,,,,,,,,,,,,,,,,,,,,,,,,,,,,,1.44,441.1994209999684,None,space,1,0.24970540002686903,442.74659549997887,None,442.74659549997887,None,442.74659549997887,None,,,,,,,,,,,P016,fencog,1,Pre,2021_Oct_25_1156,Go No-Go Task,2021.1.4,119.61665261270538,
,"Rule: When you see a yellow image, do not press 'spacebar'.",Images/Happy/AM05HAS.jpg,Happy,Blue,Images/Blue.jpg,space,ParentConditions/YellowYellowBlue_v1.xlsx,YellowYellowBlue,Conditions/Version_1/YellowFearStop.xlsx,no,PASS,0.8897547995150092,,,,,,,,,0,0,0,1,0,0,0,0,0,39,39,39,,,,,,,,,,,,,,,,,,,,,,,,,,,,,,,,,,,,,,,,,,,,,,,,,,,,,,,,,,,,,,,,,,,,,,,,,,,,,,,1.36,443.1562031999929,None,space,1,0.24592619994655252,444.63816089998,None,444.63816089998,None,444.63816089998,None,,,,,,,,,,,P016,fencog,1,Pre,2021_Oct_25_1156,Go No-Go Task,2021.1.4,119.61665261270538,
,"Rule: When you see a yellow image, do not press 'spacebar'.",Images/Happy/AF02HAS.jpg,Happy,Blue,Images/Blue.jpg,space,ParentConditions/YellowYellowBlue_v1.xlsx,YellowYellowBlue,Conditions/Version_1/YellowFearStop.xlsx,no,PASS,0.25376599793626176,,,,,,,,,0,0,0,1,0,0,0,0,0,40,40,40,,,,,,,,,,,,,,,,,,,,,,,,,,,,,,,,,,,,,,,,,,,,,,,,,,,,,,,,,,,,,,,,,,,,,,,,,,,,,,,1.95,445.02885529998457,None,space,1,0.23688470001798123,447.079053799971,None,447.079053799971,None,447.079053799971,None,,,,,,,,,,,P016,fencog,1,Pre,2021_Oct_25_1156,Go No-Go Task,2021.1.4,119.61665261270538,
,"Rule: When you see a yellow image, do not press 'spacebar'.",Images/Happy/BM08_HO.jpg,Happy,Blue,Images/Blue.jpg,space,ParentConditions/YellowYellowBlue_v1.xlsx,YellowYellowBlue,Conditions/Version_1/YellowFearStop.xlsx,no,PASS,0.999289280912827,,,,,,,,,0,0,0,1,0,0,0,0,0,41,41,41,,,,,,,,,,,,,,,,,,,,,,,,,,,,,,,,,,,,,,,,,,,,,,,,,,,,,,,,,,,,,,,,,,,,,,,,,,,,,,,1.39,447.4847364999587,None,space,1,0.23405940004158765,448.9702725999523,None,448.9702725999523,None,448.9702725999523,None,,,,,,,,,,,P016,fencog,1,Pre,2021_Oct_25_1156,Go No-Go Task,2021.1.4,119.61665261270538,
,"Rule: When you see a yellow image, do not press 'spacebar'.",Images/Happy/AM22HAS.jpg,Happy,Blue,Images/Blue.jpg,space,ParentConditions/YellowYellowBlue_v1.xlsx,YellowYellowBlue,Conditions/Version_1/YellowFearStop.xlsx,no,PASS,0.3243688929703894,,,,,,,,,0,0,0,1,0,0,0,0,0,42,42,42,,,,,,,,,,,,,,,,,,,,,,,,,,,,,,,,,,,,,,,,,,,,,,,,,,,,,,,,,,,,,,,,,,,,,,,,,,,,,,,1.47,449.3763968999847,None,space,1,0.22732380003435537,450.95255769998766,None,450.95255769998766,None,450.95255769998766,None,,,,,,,,,,,P016,fencog,1,Pre,2021_Oct_25_1156,Go No-Go Task,2021.1.4,119.61665261270538,
,"Rule: When you see a yellow image, do not press 'spacebar'.",Images/Happy/AM30HAS.jpg,Happy,Blue,Images/Blue.jpg,space,ParentConditions/YellowYellowBlue_v1.xlsx,YellowYellowBlue,Conditions/Version_1/YellowFearStop.xlsx,no,PASS,0.6329749014690744,,,,,,,,,0,0,0,1,0,0,0,0,0,43,43,43,,,,,,,,,,,,,,,,,,,,,,,,,,,,,,,,,,,,,,,,,,,,,,,,,,,,,,,,,,,,,,,,,,,,,,,,,,,,,,,1.21,451.3516819999786,None,space,1,0.3031922000227496,452.66043039999204,None,452.66043039999204,None,452.66043039999204,None,,,,,,,,,,,P016,fencog,1,Pre,2021_Oct_25_1156,Go No-Go Task,2021.1.4,119.61665261270538,
,"Rule: When you see a yellow image, do not press 'spacebar'.",Images/Fearful/BF09_FC.jpg,Fear,Yellow,Images/Yellow.jpg,None,ParentConditions/YellowYellowBlue_v1.xlsx,YellowYellowBlue,Conditions/Version_1/YellowFearStop.xlsx,yes,PASS,0.8490666234880494,,,,,,,,,0,0,0,1,0,0,0,0,0,44,44,44,,,,,,,,,,,,,,,,,,,,,,,,,,,,,,,,,,,,,,,,,,,,,,,,,,,,,,,,,,,,,,,,,,,,,,,,,,,,,,,1.86,453.0594795999932,None,space,0,0.2337672000285238,455.0264992999728,None,455.0264992999728,None,455.0264992999728,None,,,,,,,,,,,P016,fencog,1,Pre,2021_Oct_25_1156,Go No-Go Task,2021.1.4,119.61665261270538,
,"Rule: When you see a yellow image, do not press 'spacebar'.",Images/Happy/WM12_HE.jpg,Happy,Blue,Images/Blue.jpg,space,ParentConditions/YellowYellowBlue_v1.xlsx,YellowYellowBlue,Conditions/Version_1/YellowFearStop.xlsx,no,PASS,0.11929099481185879,,,,,,,,,0,0,0,1,0,0,0,0,0,45,45,45,,,,,,,,,,,,,,,,,,,,,,,,,,,,,,,,,,,,,,,,,,,,,,,,,,,,,,,,,,,,,,,,,,,,,,,,,,,,,,,1.54,455.42543959995965,None,space,1,0.2803688999847509,457.0674397999537,None,457.0674397999537,None,457.0674397999537,None,,,,,,,,,,,P016,fencog,1,Pre,2021_Oct_25_1156,Go No-Go Task,2021.1.4,119.61665261270538,
,"Rule: When you see a yellow image, do not press 'spacebar'.",Images/Happy/HF10_HE.jpg,Happy,Blue,Images/Blue.jpg,space,ParentConditions/YellowYellowBlue_v1.xlsx,YellowYellowBlue,Conditions/Version_1/YellowFearStop.xlsx,no,PASS,0.835696516720082,,,,,,,,,0,0,0,1,0,0,0,0,0,46,46,46,,,,,,,,,,,,,,,,,,,,,,,,,,,,,,,,,,,,,,,,,,,,,,,,,,,,,,,,,,,,,,,,,,,,,,,,,,,,,,,1.48,457.46648259996437,None,space,1,0.2735900000552647,459.05018729995936,None,459.05018729995936,None,459.05018729995936,None,,,,,,,,,,,P016,fencog,1,Pre,2021_Oct_25_1156,Go No-Go Task,2021.1.4,119.61665261270538,
,"Rule: When you see a yellow image, do not press 'spacebar'.",Images/Happy/HM09_HO.jpg,Happy,Blue,Images/Blue.jpg,space,ParentConditions/YellowYellowBlue_v1.xlsx,YellowYellowBlue,Conditions/Version_1/YellowFearStop.xlsx,no,PASS,0.80615804446551,,,,,,,,,0,0,0,1,0,0,0,0,0,47,47,47,,,,,,,,,,,,,,,,,,,,,,,,,,,,,,,,,,,,,,,,,,,,,,,,,,,,,,,,,,,,,,,,,,,,,,,,,,,,,,,1.56,459.4492394999834,None,space,1,0.24789240001700819,461.1161869999487,None,461.1161869999487,None,461.1161869999487,None,,,,,,,,,,,P016,fencog,1,Pre,2021_Oct_25_1156,Go No-Go Task,2021.1.4,119.61665261270538,
,"Rule: When you see a yellow image, do not press 'spacebar'.",Images/Fearful/AM03_FC.jpg,Fear,Yellow,Images/Yellow.jpg,None,ParentConditions/YellowYellowBlue_v1.xlsx,YellowYellowBlue,Conditions/Version_1/YellowFearStop.xlsx,yes,PASS,0.14846567878901318,,,,,,,,,0,0,0,1,0,0,0,0,0,48,48,48,,,,,,,,,,,,,,,,,,,,,,,,,,,,,,,,,,,,,,,,,,,,,,,,,,,,,,,,,,,,,,,,,,,,,,,,,,,,,,,1.46,461.51558449998265,None,space,0,0.24964819999877363,463.08243369997945,None,463.08243369997945,None,463.08243369997945,None,,,,,,,,,,,P016,fencog,1,Pre,2021_Oct_25_1156,Go No-Go Task,2021.1.4,119.61665261270538,
,"Rule: When you see a yellow image, do not press 'spacebar'.",Images/Happy/HF04_HE.jpg,Happy,Blue,Images/Blue.jpg,space,ParentConditions/YellowYellowBlue_v1.xlsx,YellowYellowBlue,Conditions/Version_1/YellowFearStop.xlsx,no,PASS,0.49340132442678397,,,,,,,,,0,0,0,1,0,0,0,0,0,49,49,49,,,,,,,,,,,,,,,,,,,,,,,,,,,,,,,,,,,,,,,,,,,,,,,,,,,,,,,,,,,,,,,,,,,,,,,,,,,,,,,1.91,463.48201659996994,None,space,1,0.27361269999528304,465.4982786999899,None,465.4982786999899,None,465.4982786999899,None,,,,,,,,,,,P016,fencog,1,Pre,2021_Oct_25_1156,Go No-Go Task,2021.1.4,119.61665261270538,
,"Rule: When you see a yellow image, do not press 'spacebar'.",Images/Happy/AM17HAS.jpg,Happy,Blue,Images/Blue.jpg,space,ParentConditions/YellowYellowBlue_v1.xlsx,YellowYellowBlue,Conditions/Version_1/YellowFearStop.xlsx,no,PASS,0.47053997269579284,,,,,,,,,0,0,0,1,0,0,0,0,0,50,50,50,,,,,,,,,,,,,,,,,,,,,,,,,,,,,,,,,,,,,,,,,,,,,,,,,,,,,,,,,,,,,,,,,,,,,,,,,,,,,,,1.84,465.8978840999771,None,space,1,0.27726920001441613,467.83087669999804,None,467.83087669999804,None,467.83087669999804,None,,,,,,,,,,,P016,fencog,1,Pre,2021_Oct_25_1156,Go No-Go Task,2021.1.4,119.61665261270538,
,"Rule: When you see a yellow image, do not press 'spacebar'.",Images/Fearful/BM01_FO.jpg,Fear,Yellow,Images/Yellow.jpg,None,ParentConditions/YellowYellowBlue_v1.xlsx,YellowYellowBlue,Conditions/Version_1/YellowFearStop.xlsx,yes,PASS,0.31347174673362443,,,,,,,,,0,0,0,1,0,0,0,0,0,51,51,51,,,,,,,,,,,,,,,,,,,,,,,,,,,,,,,,,,,,,,,,,,,,,,,,,,,,,,,,,,,,,,,,,,,,,,,,,,,,,,,1.43,468.2299499999499,None,space,0,0.28805249999277294,469.7721375999972,None,469.7721375999972,None,469.7721375999972,None,,,,,,,,,,,P016,fencog,1,Pre,2021_Oct_25_1156,Go No-Go Task,2021.1.4,119.61665261270538,
,"Rule: When you see a yellow image, do not press 'spacebar'.",Images/Happy/HF09_HE.jpg,Happy,Blue,Images/Blue.jpg,space,ParentConditions/YellowYellowBlue_v1.xlsx,YellowYellowBlue,Conditions/Version_1/YellowFearStop.xlsx,no,PASS,0.012739972194723559,,,,,,,,,0,0,0,1,0,0,0,0,0,52,52,52,,,,,,,,,,,,,,,,,,,,,,,,,,,,,,,,,,,,,,,,,,,,,,,,,,,,,,,,,,,,,,,,,,,,,,,,,,,,,,,1.28,470.17143059999216,None,space,1,0.3533032000414096,471.5468218999449,None,471.5468218999449,None,471.5468218999449,None,,,,,,,,,,,P016,fencog,1,Pre,2021_Oct_25_1156,Go No-Go Task,2021.1.4,119.61665261270538,
,"Rule: When you see a yellow image, do not press 'spacebar'.",Images/Happy/WF11_HE.jpg,Happy,Blue,Images/Blue.jpg,space,ParentConditions/YellowYellowBlue_v1.xlsx,YellowYellowBlue,Conditions/Version_1/YellowFearStop.xlsx,no,PASS,0.5128097154267254,,,,,,,,,0,0,0,1,0,0,0,0,0,53,53,53,,,,,,,,,,,,,,,,,,,,,,,,,,,,,,,,,,,,,,,,,,,,,,,,,,,,,,,,,,,,,,,,,,,,,,,,,,,,,,,1.94,471.9456949000014,None,space,1,0.28734999999869615,474.00449239998125,None,474.00449239998125,None,474.00449239998125,None,,,,,,,,,,,P016,fencog,1,Pre,2021_Oct_25_1156,Go No-Go Task,2021.1.4,119.61665261270538,
,"Rule: When you see a yellow image, do not press 'spacebar'.",Images/Fearful/AM04AFS.jpg,Fear,Yellow,Images/Yellow.jpg,None,ParentConditions/YellowYellowBlue_v1.xlsx,YellowYellowBlue,Conditions/Version_1/YellowFearStop.xlsx,yes,PASS,0.4808108011742167,,,,,,,,,0,0,0,1,0,0,0,0,0,54,54,54,,,,,,,,,,,,,,,,,,,,,,,,,,,,,,,,,,,,,,,,,,,,,,,,,,,,,,,,,,,,,,,,,,,,,,,,,,,,,,,1.9,474.39502659998834,None,None,1,,476.39538359997096,None,476.39538359997096,None,476.39538359997096,None,,,,,,,,,,,P016,fencog,1,Pre,2021_Oct_25_1156,Go No-Go Task,2021.1.4,119.61665261270538,
,"Rule: When you see a yellow image, do not press 'spacebar'.",Images/Happy/AF19HAS.jpg,Happy,Blue,Images/Blue.jpg,space,ParentConditions/YellowYellowBlue_v1.xlsx,YellowYellowBlue,Conditions/Version_1/YellowFearStop.xlsx,no,PASS,0.3252147007245795,,,,,,,,,0,0,0,1,0,0,0,0,0,55,55,55,,,,,,,,,,,,,,,,,,,,,,,,,,,,,,,,,,,,,,,,,,,,,,,,,,,,,,,,,,,,,,,,,,,,,,,,,,,,,,,1.49,476.7943560999702,None,space,1,0.22639650001656264,478.38633289997233,None,478.38633289997233,None,478.38633289997233,None,,,,,,,,,,,P016,fencog,1,Pre,2021_Oct_25_1156,Go No-Go Task,2021.1.4,119.61665261270538,
,"Rule: When you see a yellow image, do not press 'spacebar'.",Images/Happy/HM06_HO.jpg,Happy,Blue,Images/Blue.jpg,space,ParentConditions/YellowYellowBlue_v1.xlsx,YellowYellowBlue,Conditions/Version_1/YellowFearStop.xlsx,no,PASS,0.3282337486862341,,,,,,,,,0,0,0,1,0,0,0,0,0,56,56,56,,,,,,,,,,,,,,,,,,,,,,,,,,,,,,,,,,,,,,,,,,,,,,,,,,,,,,,,,,,,,,,,,,,,,,,,,,,,,,,1.32,478.7856443999917,None,space,1,0.30366779997712,480.2122593999957,None,480.2122593999957,None,480.2122593999957,None,,,,,,,,,,,P016,fencog,1,Pre,2021_Oct_25_1156,Go No-Go Task,2021.1.4,119.61665261270538,
,"Rule: When you see a yellow image, do not press 'spacebar'.",Images/Happy/HF05_HO.jpg,Happy,Blue,Images/Blue.jpg,space,ParentConditions/YellowYellowBlue_v1.xlsx,YellowYellowBlue,Conditions/Version_1/YellowFearStop.xlsx,no,PASS,0.5833391709234322,,,,,,,,,0,0,0,1,0,0,0,0,0,57,57,57,,,,,,,,,,,,,,,,,,,,,,,,,,,,,,,,,,,,,,,,,,,,,,,,,,,,,,,,,,,,,,,,,,,,,,,,,,,,,,,1.29,480.6210773999919,None,space,1,0.2964065999840386,482.02714959997684,None,482.02714959997684,None,482.02714959997684,None,,,,,,,,,,,P016,fencog,1,Pre,2021_Oct_25_1156,Go No-Go Task,2021.1.4,119.61665261270538,
,"Rule: When you see a yellow image, do not press 'spacebar'.",Images/Fearful/AF01_FO.jpg,Fear,Yellow,Images/Yellow.jpg,None,ParentConditions/YellowYellowBlue_v1.xlsx,YellowYellowBlue,Conditions/Version_1/YellowFearStop.xlsx,yes,PASS,0.3034900725746609,,,,,,,,,0,0,0,1,0,0,0,0,0,58,58,58,,,,,,,,,,,,,,,,,,,,,,,,,,,,,,,,,,,,,,,,,,,,,,,,,,,,,,,,,,,,,,,,,,,,,,,,,,,,,,,1.81,482.4261917999829,None,None,1,,484.35139629995683,None,484.35139629995683,None,484.35139629995683,None,,,,,,,,,,,P016,fencog,1,Pre,2021_Oct_25_1156,Go No-Go Task,2021.1.4,119.61665261270538,
,"Rule: When you see a yellow image, do not press 'spacebar'.",Images/Happy/AF21HAS.jpg,Happy,Blue,Images/Blue.jpg,space,ParentConditions/YellowYellowBlue_v1.xlsx,YellowYellowBlue,Conditions/Version_1/YellowFearStop.xlsx,no,PASS,0.9799702127391234,,,,,,,,,0,0,0,1,0,0,0,0,0,59,59,59,,,,,,,,,,,,,,,,,,,,,,,,,,,,,,,,,,,,,,,,,,,,,,,,,,,,,,,,,,,,,,,,,,,,,,,,,,,,,,,2,484.75052149995463,None,space,1,0.2572811999707483,486.8506157999509,None,486.8506157999509,None,486.8506157999509,None,,,,,,,,,,,P016,fencog,1,Pre,2021_Oct_25_1156,Go No-Go Task,2021.1.4,119.61665261270538,
,"Rule: When you see a yellow image, do not press 'spacebar'.",Images/Happy/AM06_HC.jpg,Happy,Blue,Images/Blue.jpg,space,ParentConditions/YellowYellowBlue_v1.xlsx,YellowYellowBlue,Conditions/Version_1/YellowFearStop.xlsx,no,PASS,0.29816427390759137,,,,,,,,,0,0,0,1,0,0,0,0,0,60,60,60,,,,,,,,,,,,,,,,,,,,,,,,,,,,,,,,,,,,,,,,,,,,,,,,,,,,,,,,,,,,,,,,,,,,,,,,,,,,,,,1.5,487.24981979996664,None,space,1,0.29846760001964867,488.8499766999739,None,488.8499766999739,None,488.8499766999739,None,,,,,,,,,,,P016,fencog,1,Pre,2021_Oct_25_1156,Go No-Go Task,2021.1.4,119.61665261270538,
,"Rule: When you see a yellow image, do not press 'spacebar'.",Images/Fearful/AF02AFS.jpg,Fear,Yellow,Images/Yellow.jpg,None,ParentConditions/YellowYellowBlue_v1.xlsx,YellowYellowBlue,Conditions/Version_1/YellowFearStop.xlsx,yes,PASS,0.15582520477375605,,,,,,,,,0,0,0,1,0,0,0,0,0,61,61,61,,,,,,,,,,,,,,,,,,,,,,,,,,,,,,,,,,,,,,,,,,,,,,,,,,,,,,,,,,,,,,,,,,,,,,,,,,,,,,,1.55,489.2518444999587,None,space,0,0.2642117000068538,490.916124499985,None,490.916124499985,None,490.916124499985,None,,,,,,,,,,,P016,fencog,1,Pre,2021_Oct_25_1156,Go No-Go Task,2021.1.4,119.61665261270538,
,"Rule: When you see a yellow image, do not press 'spacebar'.",Images/Happy/AF25HAS.jpg,Happy,Blue,Images/Blue.jpg,space,ParentConditions/YellowYellowBlue_v1.xlsx,YellowYellowBlue,Conditions/Version_1/YellowFearStop.xlsx,no,PASS,0.7963653427272854,,,,,,,,,0,0,0,1,0,0,0,0,0,62,62,62,,,,,,,,,,,,,,,,,,,,,,,,,,,,,,,,,,,,,,,,,,,,,,,,,,,,,,,,,,,,,,,,,,,,,,,,,,,,,,,1.4,491.31513889995404,None,None,0,,492.82358829997247,None,492.82358829997247,None,492.82358829997247,None,,,,,,,,,,,P016,fencog,1,Pre,2021_Oct_25_1156,Go No-Go Task,2021.1.4,119.61665261270538,
,"Rule: When you see a yellow image, do not press 'spacebar'.",Images/Happy/AM32HAS.jpg,Happy,Blue,Images/Blue.jpg,space,ParentConditions/YellowYellowBlue_v1.xlsx,YellowYellowBlue,Conditions/Version_1/YellowFearStop.xlsx,no,PASS,0.2823557460482189,,,,,,,,,0,0,0,1,0,0,0,0,0,63,63,63,,,,,,,,,,,,,,,,,,,,,,,,,,,,,,,,,,,,,,,,,,,,,,,,,,,,,,,,,,,,,,,,,,,,,,,,,,,,,,,1.45,493.2226800999488,None,space,1,0.2463253000169061,494.7816310999915,None,494.7816310999915,None,494.7816310999915,None,,,,,,,,,,,P016,fencog,1,Pre,2021_Oct_25_1156,Go No-Go Task,2021.1.4,119.61665261270538,
,"Rule: When you see a yellow image, do not press 'spacebar'.",Images/Fearful/AM02_FO.jpg,Fear,Yellow,Images/Yellow.jpg,None,ParentConditions/YellowYellowBlue_v1.xlsx,YellowYellowBlue,Conditions/Version_1/YellowFearStop.xlsx,yes,PASS,0.8481624514007016,,,,,,,,,0,0,0,1,0,0,0,0,0,64,64,64,,,,,,,,,,,,,,,,,,,,,,,,,,,,,,,,,,,,,,,,,,,,,,,,,,,,,,,,,,,,,,,,,,,,,,,,,,,,,,,1.66,495.1828550999635,None,None,1,,496.95603579998715,None,496.95603579998715,None,496.95603579998715,None,,,,,,,,,,,P016,fencog,1,Pre,2021_Oct_25_1156,Go No-Go Task,2021.1.4,119.61665261270538,
,"Rule: When you see a yellow image, do not press 'spacebar'.",Images/Fearful/BM02_FC.jpg,Fear,Yellow,Images/Yellow.jpg,None,ParentConditions/YellowYellowBlue_v1.xlsx,YellowYellowBlue,Conditions/Version_1/YellowFearStop.xlsx,yes,PASS,0.7033474445186839,,,,,,,,,0,0,0,1,0,0,0,0,0,65,65,65,,,,,,,,,,,,,,,,,,,,,,,,,,,,,,,,,,,,,,,,,,,,,,,,,,,,,,,,,,,,,,,,,,,,,,,,,,,,,,,1.42,497.35481379996054,None,space,0,0.17081660003168508,498.8970921,None,498.8970921,None,498.8970921,None,,,,,,,,,,,P016,fencog,1,Pre,2021_Oct_25_1156,Go No-Go Task,2021.1.4,119.61665261270538,
,"Rule: When you see a yellow image, do not press 'spacebar'.",Images/Happy/AM04_HE.jpg,Happy,Blue,Images/Blue.jpg,space,ParentConditions/YellowYellowBlue_v1.xlsx,YellowYellowBlue,Conditions/Version_1/YellowFearStop.xlsx,no,PASS,0.1954454647057855,,,,,,,,,0,0,0,1,0,0,0,0,0,66,66,66,,,,,,,,,,,,,,,,,,,,,,,,,,,,,,,,,,,,,,,,,,,,,,,,,,,,,,,,,,,,,,,,,,,,,,,,,,,,,,,1.26,499.28779119998217,None,space,1,0.3172095000045374,500.64650339999935,None,500.64650339999935,None,500.64650339999935,None,,,,,,,,,,,P016,fencog,1,Pre,2021_Oct_25_1156,Go No-Go Task,2021.1.4,119.61665261270538,
,"Rule: When you see a yellow image, do not press 'spacebar'.",Images/Fearful/AM05AFS.jpg,Fear,Yellow,Images/Yellow.jpg,None,ParentConditions/YellowYellowBlue_v1.xlsx,YellowYellowBlue,Conditions/Version_1/YellowFearStop.xlsx,yes,PASS,0.6459336406761428,,,,,,,,,0,0,0,1,0,0,0,0,0,67,67,67,,,,,,,,,,,,,,,,,,,,,,,,,,,,,,,,,,,,,,,,,,,,,,,,,,,,,,,,,,,,,,,,,,,,,,,,,,,,,,,1.3,501.04694989998825,None,None,1,,502.46262349997414,None,502.46262349997414,None,502.46262349997414,None,,,,,,,,,,,P016,fencog,1,Pre,2021_Oct_25_1156,Go No-Go Task,2021.1.4,119.61665261270538,
,"Rule: When you see a yellow image, do not press 'spacebar'.",Images/Happy/AF28HAS.jpg,Happy,Blue,Images/Blue.jpg,space,ParentConditions/YellowYellowBlue_v1.xlsx,YellowYellowBlue,Conditions/Version_1/YellowFearStop.xlsx,no,PASS,0.16840775809852682,,,,,,,,,0,0,0,1,0,0,0,0,0,68,68,68,,,,,,,,,,,,,,,,,,,,,,,,,,,,,,,,,,,,,,,,,,,,,,,,,,,,,,,,,,,,,,,,,,,,,,,,,,,,,,,1.7,502.86646059999475,None,space,1,0.2849316000356339,504.686958199949,None,504.686958199949,None,504.686958199949,None,,,,,,,,,,,P016,fencog,1,Pre,2021_Oct_25_1156,Go No-Go Task,2021.1.4,119.61665261270538,
,"Rule: When you see a yellow image, do not press 'spacebar'.",Images/Happy/AF07_HO.jpg,Happy,Blue,Images/Blue.jpg,space,ParentConditions/YellowYellowBlue_v1.xlsx,YellowYellowBlue,Conditions/Version_1/YellowFearStop.xlsx,no,PASS,0.8921854253161821,,,,,,,,,0,0,0,1,0,0,0,0,0,69,69,69,,,,,,,,,,,,,,,,,,,,,,,,,,,,,,,,,,,,,,,,,,,,,,,,,,,,,,,,,,,,,,,,,,,,,,,,,,,,,,,1.88,505.0748155999463,None,None,0,,507.06130249996204,None,507.06130249996204,None,507.06130249996204,None,,,,,,,,,,,P016,fencog,1,Pre,2021_Oct_25_1156,Go No-Go Task,2021.1.4,119.61665261270538,
,"Rule: When you see a yellow image, do not press 'spacebar'.",Images/Happy/BF14_HO.jpg,Happy,Blue,Images/Blue.jpg,space,ParentConditions/YellowYellowBlue_v1.xlsx,YellowYellowBlue,Conditions/Version_1/YellowFearStop.xlsx,no,PASS,0.11340023271387378,,,,,,,,,0,0,0,1,0,0,0,0,0,70,70,70,,,,,,,,,,,,,,,,,,,,,,,,,,,,,,,,,,,,,,,,,,,,,,,,,,,,,,,,,,,,,,,,,,,,,,,,,,,,,,,1.79,507.4633254999644,None,None,0,,509.3605725999805,None,509.3605725999805,None,509.3605725999805,None,,,,,,,,,,,P016,fencog,1,Pre,2021_Oct_25_1156,Go No-Go Task,2021.1.4,119.61665261270538,
,"Rule: When you see a yellow image, do not press 'spacebar'.",Images/Fearful/AF07FS.jpg,Fear,Yellow,Images/Yellow.jpg,None,ParentConditions/YellowYellowBlue_v1.xlsx,YellowYellowBlue,Conditions/Version_1/YellowFearStop.xlsx,yes,PASS,0.01772114652951917,,,,,,,,,0,0,0,1,0,0,0,0,0,71,71,71,,,,,,,,,,,,,,,,,,,,,,,,,,,,,,,,,,,,,,,,,,,,,,,,,,,,,,,,,,,,,,,,,,,,,,,,,,,,,,,1.69,509.7618412000011,None,None,1,,511.55999199999496,None,511.55999199999496,None,511.55999199999496,None,,,,,,,,,,,P016,fencog,1,Pre,2021_Oct_25_1156,Go No-Go Task,2021.1.4,119.61665261270538,
,"Rule: When you see a yellow image, do not press 'spacebar'.",Images/Happy/AF32HAS.jpg,Happy,Blue,Images/Blue.jpg,space,ParentConditions/YellowYellowBlue_v1.xlsx,YellowYellowBlue,Conditions/Version_1/YellowFearStop.xlsx,no,PASS,0.351428612146247,,,,,,,,,0,0,0,1,0,0,0,0,0,72,72,72,,,,,,,,,,,,,,,,,,,,,,,,,,,,,,,,,,,,,,,,,,,,,,,,,,,,,,,,,,,,,,,,,,,,,,,,,,,,,,,1.71,511.9593074999866,None,space,1,0.2527948999777436,513.7759621999576,None,513.7759621999576,None,513.7759621999576,None,,,,,,,,,,,P016,fencog,1,Pre,2021_Oct_25_1156,Go No-Go Task,2021.1.4,119.61665261270538,
,"Rule: When you see a yellow image, do not press 'spacebar'.",Images/Happy/AF11HAS.jpg,Happy,Blue,Images/Blue.jpg,space,ParentConditions/YellowYellowBlue_v1.xlsx,YellowYellowBlue,Conditions/Version_1/YellowFearStop.xlsx,no,PASS,0.5437174345826498,,,,,,,,,0,0,0,1,0,0,0,0,0,73,73,73,,,,,,,,,,,,,,,,,,,,,,,,,,,,,,,,,,,,,,,,,,,,,,,,,,,,,,,,,,,,,,,,,,,,,,,,,,,,,,,1.34,514.1790145999985,None,space,1,0.2973928999854252,515.6421444999869,None,515.6421444999869,None,515.6421444999869,None,,,,,,,,,,,P016,fencog,1,Pre,2021_Oct_25_1156,Go No-Go Task,2021.1.4,119.61665261270538,
,"Rule: When you see a yellow image, do not press 'spacebar'.",Images/Happy/AM19HAS.jpg,Happy,Blue,Images/Blue.jpg,space,ParentConditions/YellowYellowBlue_v1.xlsx,YellowYellowBlue,Conditions/Version_1/YellowFearStop.xlsx,no,PASS,0.4048546584074827,,,,,,,,,0,0,0,1,0,0,0,0,0,74,74,74,,,,,,,,,,,,,,,,,,,,,,,,,,,,,,,,,,,,,,,,,,,,,,,,,,,,,,,,,,,,,,,,,,,,,,,,,,,,,,,1.93,516.0327257999452,None,space,1,0.24142940004821867,518.0663071999443,None,518.0663071999443,None,518.0663071999443,None,,,,,,,,,,,P016,fencog,1,Pre,2021_Oct_25_1156,Go No-Go Task,2021.1.4,119.61665261270538,
,"Rule: When you see a yellow image, do not press 'spacebar'.",Images/Happy/AM01HAS.jpg,Happy,Blue,Images/Blue.jpg,space,ParentConditions/YellowYellowBlue_v1.xlsx,YellowYellowBlue,Conditions/Version_1/YellowFearStop.xlsx,no,PASS,0.668098744931977,,,,,,,,,0,0,0,1,0,0,0,0,0,75,75,75,,,,,,,,,,,,,,,,,,,,,,,,,,,,,,,,,,,,,,,,,,,,,,,,,,,,,,,,,,,,,,,,,,,,,,,,,,,,,,,1.76,518.4669538999442,None,space,1,0.2789230999769643,520.3489837999805,None,520.3489837999805,None,520.3489837999805,None,,,,,,,,,,,P016,fencog,1,Pre,2021_Oct_25_1156,Go No-Go Task,2021.1.4,119.61665261270538,
,"Rule: When you see a yellow image, do not press 'spacebar'.",Images/Happy/WF05_HC.jpg,Happy,Blue,Images/Blue.jpg,space,ParentConditions/YellowYellowBlue_v1.xlsx,YellowYellowBlue,Conditions/Version_1/YellowFearStop.xlsx,no,PASS,0.3346503168901146,,,,,,,,,0,0,0,1,0,0,0,0,0,76,76,76,,,,,,,,,,,,,,,,,,,,,,,,,,,,,,,,,,,,,,,,,,,,,,,,,,,,,,,,,,,,,,,,,,,,,,,,,,,,,,,1.98,520.7396044999477,None,space,1,0.23708940000506118,522.8231073999777,None,522.8231073999777,None,522.8231073999777,None,,,,,,,,,,,P016,fencog,1,Pre,2021_Oct_25_1156,Go No-Go Task,2021.1.4,119.61665261270538,
,"Rule: When you see a yellow image, do not press 'spacebar'.",Images/Happy/BM03_HO.jpg,Happy,Blue,Images/Blue.jpg,space,ParentConditions/YellowYellowBlue_v1.xlsx,YellowYellowBlue,Conditions/Version_1/YellowFearStop.xlsx,no,PASS,0.8309182769230548,,,,,,,,,0,0,0,1,0,0,0,0,0,77,77,77,,,,,,,,,,,,,,,,,,,,,,,,,,,,,,,,,,,,,,,,,,,,,,,,,,,,,,,,,,,,,,,,,,,,,,,,,,,,,,,1.62,523.2320622999687,None,space,1,0.2636050999863073,524.9643247999484,None,524.9643247999484,None,524.9643247999484,None,,,,,,,,,,,P016,fencog,1,Pre,2021_Oct_25_1156,Go No-Go Task,2021.1.4,119.61665261270538,
,"Rule: When you see a yellow image, do not press 'spacebar'.",Images/Happy/AM02_HE.jpg,Happy,Blue,Images/Blue.jpg,space,ParentConditions/YellowYellowBlue_v1.xlsx,YellowYellowBlue,Conditions/Version_1/YellowFearStop.xlsx,no,PASS,0.732833616031058,,,,,,,,,0,0,0,1,0,0,0,0,0,78,78,78,,,,,,,,,,,,,,,,,,,,,,,,,,,,,,,,,,,,,,,,,,,,,,,,,,,,,,,,,,,,,,,,,,,,,,,,,,,,,,,1.31,525.3633565999917,None,space,1,0.2869309000088833,526.7804847999942,None,526.7804847999942,None,526.7804847999942,None,,,,,,,,,,,P016,fencog,1,Pre,2021_Oct_25_1156,Go No-Go Task,2021.1.4,119.61665261270538,
,"Rule: When you see a yellow image, do not press 'spacebar'.",Images/Fearful/AM06_FO.jpg,Fear,Yellow,Images/Yellow.jpg,None,ParentConditions/YellowYellowBlue_v1.xlsx,YellowYellowBlue,Conditions/Version_1/YellowFearStop.xlsx,yes,PASS,0.2239834878173258,,,,,,,,,0,0,0,1,0,0,0,0,0,79,79,79,,,,,,,,,,,,,,,,,,,,,,,,,,,,,,,,,,,,,,,,,,,,,,,,,,,,,,,,,,,,,,,,,,,,,,,,,,,,,,,1.61,527.1841112999828,None,None,1,,528.8965475999867,None,528.8965475999867,None,528.8965475999867,None,,,,,,,,,,,P016,fencog,1,Pre,2021_Oct_25_1156,Go No-Go Task,2021.1.4,119.61665261270538,
,"Rule: When you see a yellow image, do not press 'spacebar'.",Images/Scram2/HM09_NC.jpg,Scramble,Blue,Images/Blue.jpg,space,ParentConditions/YellowYellowBlue_v1.xlsx,YellowYellowBlue,Conditions/Version_1/YellowScramStop.xlsx,no,PASS,0.16546209529303746,,,,,,,,,0,0,0,1,0,1,1,1,0,0,0,0,,,,,,,,,,,,,,,,,,,,,,,,,,,,,,,,,,,,,,,,,,,,,,,,,,,,,,,,,,,,,,,,,537.4864035999635,None,540.4756372999982,None,space,2.0481170999701135,540.4756372999982,None,537.4864035999635,None,537.4864035999635,None,537.4864035999635,None,1.83,542.570791199978,None,None,0,,544.5168955999543,None,544.5168955999543,None,544.5168955999543,None,529.3124123999733,None,space,7.663688400003593,529.8039448999916,None,529.3124123999733,None,529.3124123999733,None,P016,fencog,1,Pre,2021_Oct_25_1156,Go No-Go Task,2021.1.4,119.61665261270538,
,"Rule: When you see a yellow image, do not press 'spacebar'.",Images/Scram2/HM06_NC.jpg,Scramble,Blue,Images/Blue.jpg,space,ParentConditions/YellowYellowBlue_v1.xlsx,YellowYellowBlue,Conditions/Version_1/YellowScramStop.xlsx,no,PASS,0.8979675286244925,,,,,,,,,0,0,0,1,0,1,1,1,0,1,1,1,,,,,,,,,,,,,,,,,,,,,,,,,,,,,,,,,,,,,,,,,,,,,,,,,,,,,,,,,,,,,,,,,,,,,,,,,,,,,,,1.97,544.9167783999583,None,space,1,0.22961949999444187,546.9910723999492,None,546.9910723999492,None,546.9910723999492,None,,,,,,,,,,,P016,fencog,1,Pre,2021_Oct_25_1156,Go No-Go Task,2021.1.4,119.61665261270538,
,"Rule: When you see a yellow image, do not press 'spacebar'.",Images/Scram1/AM31NES.jpg,Scramble,Blue,Images/Blue.jpg,space,ParentConditions/YellowYellowBlue_v1.xlsx,YellowYellowBlue,Conditions/Version_1/YellowScramStop.xlsx,no,PASS,0.9231879679928262,,,,,,,,,0,0,0,1,0,1,1,1,0,2,2,2,,,,,,,,,,,,,,,,,,,,,,,,,,,,,,,,,,,,,,,,,,,,,,,,,,,,,,,,,,,,,,,,,,,,,,,,,,,,,,,1.53,547.3969499999657,None,None,0,,549.0321535999537,None,549.0321535999537,None,549.0321535999537,None,,,,,,,,,,,P016,fencog,1,Pre,2021_Oct_25_1156,Go No-Go Task,2021.1.4,119.61665261270538,
,"Rule: When you see a yellow image, do not press 'spacebar'.",Images/Scram2/AM03NES.jpg,Scramble,Yellow,Images/Yellow.jpg,None,ParentConditions/YellowYellowBlue_v1.xlsx,YellowYellowBlue,Conditions/Version_1/YellowScramStop.xlsx,yes,PASS,0.5123844621609239,,,,,,,,,0,0,0,1,0,1,1,1,0,3,3,3,,,,,,,,,,,,,,,,,,,,,,,,,,,,,,,,,,,,,,,,,,,,,,,,,,,,,,,,,,,,,,,,,,,,,,,,,,,,,,,1.2,549.4328570999787,None,space,0,0.25576179998461157,550.7400646999595,None,550.7400646999595,None,550.7400646999595,None,,,,,,,,,,,P016,fencog,1,Pre,2021_Oct_25_1156,Go No-Go Task,2021.1.4,119.61665261270538,
,"Rule: When you see a yellow image, do not press 'spacebar'.",Images/Scram2/BM01_NC.jpg,Scramble,Blue,Images/Blue.jpg,space,ParentConditions/YellowYellowBlue_v1.xlsx,YellowYellowBlue,Conditions/Version_1/YellowScramStop.xlsx,no,PASS,0.9647622626448304,,,,,,,,,0,0,0,1,0,1,1,1,0,4,4,4,,,,,,,,,,,,,,,,,,,,,,,,,,,,,,,,,,,,,,,,,,,,,,,,,,,,,,,,,,,,,,,,,,,,,,,,,,,,,,,1.23,551.1422126999823,None,None,0,,552.4729072999908,None,552.4729072999908,None,552.4729072999908,None,,,,,,,,,,,P016,fencog,1,Pre,2021_Oct_25_1156,Go No-Go Task,2021.1.4,119.61665261270538,
,"Rule: When you see a yellow image, do not press 'spacebar'.",Images/Scram1/HM09_NC.jpg,Scramble,Blue,Images/Blue.jpg,space,ParentConditions/YellowYellowBlue_v1.xlsx,YellowYellowBlue,Conditions/Version_1/YellowScramStop.xlsx,no,PASS,0.0006879251870249847,,,,,,,,,0,0,0,1,0,1,1,1,0,5,5,5,,,,,,,,,,,,,,,,,,,,,,,,,,,,,,,,,,,,,,,,,,,,,,,,,,,,,,,,,,,,,,,,,,,,,,,,,,,,,,,1.69,552.8736366999801,None,space,1,0.31577559997094795,554.6638662999612,None,554.6638662999612,None,554.6638662999612,None,,,,,,,,,,,P016,fencog,1,Pre,2021_Oct_25_1156,Go No-Go Task,2021.1.4,119.61665261270538,
,"Rule: When you see a yellow image, do not press 'spacebar'.",Images/Scram2/BF07_NC.jpg,Scramble,Blue,Images/Blue.jpg,space,ParentConditions/YellowYellowBlue_v1.xlsx,YellowYellowBlue,Conditions/Version_1/YellowScramStop.xlsx,no,PASS,0.9958823679259557,,,,,,,,,0,0,0,1,0,1,1,1,0,6,6,6,,,,,,,,,,,,,,,,,,,,,,,,,,,,,,,,,,,,,,,,,,,,,,,,,,,,,,,,,,,,,,,,,,,,,,,,,,,,,,,1.38,555.0643536999705,None,space,1,0.25701149995438755,556.5466725999722,None,556.5466725999722,None,556.5466725999722,None,,,,,,,,,,,P016,fencog,1,Pre,2021_Oct_25_1156,Go No-Go Task,2021.1.4,119.61665261270538,
,"Rule: When you see a yellow image, do not press 'spacebar'.",Images/Scram1/BF14_NC.jpg,Scramble,Blue,Images/Blue.jpg,space,ParentConditions/YellowYellowBlue_v1.xlsx,YellowYellowBlue,Conditions/Version_1/YellowScramStop.xlsx,no,PASS,0.23975965807979494,,,,,,,,,0,0,0,1,0,1,1,1,0,7,7,7,,,,,,,,,,,,,,,,,,,,,,,,,,,,,,,,,,,,,,,,,,,,,,,,,,,,,,,,,,,,,,,,,,,,,,,,,,,,,,,1.54,556.9516966999508,None,space,1,0.24787239998113364,558.5960737999994,None,558.5960737999994,None,558.5960737999994,None,,,,,,,,,,,P016,fencog,1,Pre,2021_Oct_25_1156,Go No-Go Task,2021.1.4,119.61665261270538,
,"Rule: When you see a yellow image, do not press 'spacebar'.",Images/Scram2/AF10_NC.jpg,Scramble,Blue,Images/Blue.jpg,space,ParentConditions/YellowYellowBlue_v1.xlsx,YellowYellowBlue,Conditions/Version_1/YellowScramStop.xlsx,no,PASS,0.23192838167496266,,,,,,,,,0,0,0,1,0,1,1,1,0,8,8,8,,,,,,,,,,,,,,,,,,,,,,,,,,,,,,,,,,,,,,,,,,,,,,,,,,,,,,,,,,,,,,,,,,,,,,,,,,,,,,,1.77,558.9947390999878,None,space,1,0.24578950001159683,560.8703655999852,None,560.8703655999852,None,560.8703655999852,None,,,,,,,,,,,P016,fencog,1,Pre,2021_Oct_25_1156,Go No-Go Task,2021.1.4,119.61665261270538,
,"Rule: When you see a yellow image, do not press 'spacebar'.",Images/Scram2/AF01_NC.jpg,Scramble,Blue,Images/Blue.jpg,space,ParentConditions/YellowYellowBlue_v1.xlsx,YellowYellowBlue,Conditions/Version_1/YellowScramStop.xlsx,no,PASS,0.030564678936407685,,,,,,,,,0,0,0,1,0,1,1,1,0,9,9,9,,,,,,,,,,,,,,,,,,,,,,,,,,,,,,,,,,,,,,,,,,,,,,,,,,,,,,,,,,,,,,,,,,,,,,,,,,,,,,,1.66,561.2715422999463,None,space,1,0.2234499000478536,563.0363771999837,None,563.0363771999837,None,563.0363771999837,None,,,,,,,,,,,P016,fencog,1,Pre,2021_Oct_25_1156,Go No-Go Task,2021.1.4,119.61665261270538,
,"Rule: When you see a yellow image, do not press 'spacebar'.",Images/Scram2/AF24NES.jpg,Scramble,Blue,Images/Blue.jpg,space,ParentConditions/YellowYellowBlue_v1.xlsx,YellowYellowBlue,Conditions/Version_1/YellowScramStop.xlsx,no,PASS,0.3257124610951796,,,,,,,,,0,0,0,1,0,1,1,1,0,10,10,10,,,,,,,,,,,,,,,,,,,,,,,,,,,,,,,,,,,,,,,,,,,,,,,,,,,,,,,,,,,,,,,,,,,,,,,,,,,,,,,1.52,563.4367601999547,None,space,1,0.32685299997683614,565.0607881999458,None,565.0607881999458,None,565.0607881999458,None,,,,,,,,,,,P016,fencog,1,Pre,2021_Oct_25_1156,Go No-Go Task,2021.1.4,119.61665261270538,
,"Rule: When you see a yellow image, do not press 'spacebar'.",Images/Scram2/BF14_NC.jpg,Scramble,Blue,Images/Blue.jpg,space,ParentConditions/YellowYellowBlue_v1.xlsx,YellowYellowBlue,Conditions/Version_1/YellowScramStop.xlsx,no,PASS,0.7452625323265352,,,,,,,,,0,0,0,1,0,1,1,1,0,11,11,11,,,,,,,,,,,,,,,,,,,,,,,,,,,,,,,,,,,,,,,,,,,,,,,,,,,,,,,,,,,,,,,,,,,,,,,,,,,,,,,1.87,565.4601073999656,None,space,1,0.25699449999956414,567.4350581999752,None,567.4350581999752,None,567.4350581999752,None,,,,,,,,,,,P016,fencog,1,Pre,2021_Oct_25_1156,Go No-Go Task,2021.1.4,119.61665261270538,
,"Rule: When you see a yellow image, do not press 'spacebar'.",Images/Scram1/AM13NES.jpg,Scramble,Blue,Images/Blue.jpg,space,ParentConditions/YellowYellowBlue_v1.xlsx,YellowYellowBlue,Conditions/Version_1/YellowScramStop.xlsx,no,PASS,0.49399354825257,,,,,,,,,0,0,0,1,0,1,1,1,0,12,12,12,,,,,,,,,,,,,,,,,,,,,,,,,,,,,,,,,,,,,,,,,,,,,,,,,,,,,,,,,,,,,,,,,,,,,,,,,,,,,,,1.63,567.8339093999821,None,space,1,0.2526598999975249,569.5678015999729,None,569.5678015999729,None,569.5678015999729,None,,,,,,,,,,,P016,fencog,1,Pre,2021_Oct_25_1156,Go No-Go Task,2021.1.4,119.61665261270538,
,"Rule: When you see a yellow image, do not press 'spacebar'.",Images/Scram1/HM04_NC.jpg,Scramble,Blue,Images/Blue.jpg,space,ParentConditions/YellowYellowBlue_v1.xlsx,YellowYellowBlue,Conditions/Version_1/YellowScramStop.xlsx,no,PASS,0.18467466618813977,,,,,,,,,0,0,0,1,0,1,1,1,0,13,13,13,,,,,,,,,,,,,,,,,,,,,,,,,,,,,,,,,,,,,,,,,,,,,,,,,,,,,,,,,,,,,,,,,,,,,,,,,,,,,,,1.61,569.9664645000012,None,space,1,0.2967402000213042,571.6837802999653,None,571.6837802999653,None,571.6837802999653,None,,,,,,,,,,,P016,fencog,1,Pre,2021_Oct_25_1156,Go No-Go Task,2021.1.4,119.61665261270538,
,"Rule: When you see a yellow image, do not press 'spacebar'.",Images/Scram1/AM03NES.jpg,Scramble,Blue,Images/Blue.jpg,space,ParentConditions/YellowYellowBlue_v1.xlsx,YellowYellowBlue,Conditions/Version_1/YellowScramStop.xlsx,no,PASS,0.036392655954534225,,,,,,,,,0,0,0,1,0,1,1,1,0,14,14,14,,,,,,,,,,,,,,,,,,,,,,,,,,,,,,,,,,,,,,,,,,,,,,,,,,,,,,,,,,,,,,,,,,,,,,,,,,,,,,,1.67,572.085572699958,None,space,1,0.2731938000069931,573.8582198999939,None,573.8582198999939,None,573.8582198999939,None,,,,,,,,,,,P016,fencog,1,Pre,2021_Oct_25_1156,Go No-Go Task,2021.1.4,119.61665261270538,
,"Rule: When you see a yellow image, do not press 'spacebar'.",Images/Scram1/AM22NES.jpg,Scramble,Blue,Images/Blue.jpg,space,ParentConditions/YellowYellowBlue_v1.xlsx,YellowYellowBlue,Conditions/Version_1/YellowScramStop.xlsx,no,PASS,0.46426586463932284,,,,,,,,,0,0,0,1,0,1,1,1,0,15,15,15,,,,,,,,,,,,,,,,,,,,,,,,,,,,,,,,,,,,,,,,,,,,,,,,,,,,,,,,,,,,,,,,,,,,,,,,,,,,,,,1.39,574.2580935999868,None,space,1,0.326458299998194,575.7492781999754,None,575.7492781999754,None,575.7492781999754,None,,,,,,,,,,,P016,fencog,1,Pre,2021_Oct_25_1156,Go No-Go Task,2021.1.4,119.61665261270538,
,"Rule: When you see a yellow image, do not press 'spacebar'.",Images/Scram2/AM17NES.jpg,Scramble,Yellow,Images/Yellow.jpg,None,ParentConditions/YellowYellowBlue_v1.xlsx,YellowYellowBlue,Conditions/Version_1/YellowScramStop.xlsx,yes,PASS,0.9679079792094736,,,,,,,,,0,0,0,1,0,1,1,1,0,16,16,16,,,,,,,,,,,,,,,,,,,,,,,,,,,,,,,,,,,,,,,,,,,,,,,,,,,,,,,,,,,,,,,,,,,,,,,,,,,,,,,1.68,576.1500386999687,None,space,0,0.23146869998890907,577.9318498999928,None,577.9318498999928,None,577.9318498999928,None,,,,,,,,,,,P016,fencog,1,Pre,2021_Oct_25_1156,Go No-Go Task,2021.1.4,119.61665261270538,
,"Rule: When you see a yellow image, do not press 'spacebar'.",Images/Scram1/AM10NES.jpg,Scramble,Blue,Images/Blue.jpg,space,ParentConditions/YellowYellowBlue_v1.xlsx,YellowYellowBlue,Conditions/Version_1/YellowScramStop.xlsx,no,PASS,0.60606204058038,,,,,,,,,0,0,0,1,0,1,1,1,0,17,17,17,,,,,,,,,,,,,,,,,,,,,,,,,,,,,,,,,,,,,,,,,,,,,,,,,,,,,,,,,,,,,,,,,,,,,,,,,,,,,,,1.4,578.3312527999515,None,space,1,0.18843589996686205,579.8313929999713,None,579.8313929999713,None,579.8313929999713,None,,,,,,,,,,,P016,fencog,1,Pre,2021_Oct_25_1156,Go No-Go Task,2021.1.4,119.61665261270538,
,"Rule: When you see a yellow image, do not press 'spacebar'.",Images/Scram2/AM03_NC.jpg,Scramble,Yellow,Images/Yellow.jpg,None,ParentConditions/YellowYellowBlue_v1.xlsx,YellowYellowBlue,Conditions/Version_1/YellowScramStop.xlsx,yes,PASS,0.375029210281841,,,,,,,,,0,0,0,1,0,1,1,1,0,18,18,18,,,,,,,,,,,,,,,,,,,,,,,,,,,,,,,,,,,,,,,,,,,,,,,,,,,,,,,,,,,,,,,,,,,,,,,,,,,,,,,1.94,580.2340150999953,None,space,0,0.23446000000694767,582.2806935999542,None,582.2806935999542,None,582.2806935999542,None,,,,,,,,,,,P016,fencog,1,Pre,2021_Oct_25_1156,Go No-Go Task,2021.1.4,119.61665261270538,
,"Rule: When you see a yellow image, do not press 'spacebar'.",Images/Scram1/HF09_NC.jpg,Scramble,Blue,Images/Blue.jpg,space,ParentConditions/YellowYellowBlue_v1.xlsx,YellowYellowBlue,Conditions/Version_1/YellowScramStop.xlsx,no,PASS,0.5505947352432977,,,,,,,,,0,0,0,1,0,1,1,1,0,19,19,19,,,,,,,,,,,,,,,,,,,,,,,,,,,,,,,,,,,,,,,,,,,,,,,,,,,,,,,,,,,,,,,,,,,,,,,,,,,,,,,1.85,582.6825187999639,None,space,1,0.2294908000039868,584.638235499966,None,584.638235499966,None,584.638235499966,None,,,,,,,,,,,P016,fencog,1,Pre,2021_Oct_25_1156,Go No-Go Task,2021.1.4,119.61665261270538,
,"Rule: When you see a yellow image, do not press 'spacebar'.",Images/Scram1/BM08_NC.jpg,Scramble,Blue,Images/Blue.jpg,space,ParentConditions/YellowYellowBlue_v1.xlsx,YellowYellowBlue,Conditions/Version_1/YellowScramStop.xlsx,no,PASS,0.1123919377407171,,,,,,,,,0,0,0,1,0,1,1,1,0,20,20,20,,,,,,,,,,,,,,,,,,,,,,,,,,,,,,,,,,,,,,,,,,,,,,,,,,,,,,,,,,,,,,,,,,,,,,,,,,,,,,,1.93,585.0477953999653,None,space,1,0.2533791000023484,587.0792185999453,None,587.0792185999453,None,587.0792185999453,None,,,,,,,,,,,P016,fencog,1,Pre,2021_Oct_25_1156,Go No-Go Task,2021.1.4,119.61665261270538,
,"Rule: When you see a yellow image, do not press 'spacebar'.",Images/Scram1/AF32NES.jpg,Scramble,Blue,Images/Blue.jpg,space,ParentConditions/YellowYellowBlue_v1.xlsx,YellowYellowBlue,Conditions/Version_1/YellowScramStop.xlsx,no,PASS,0.6647641829322217,,,,,,,,,0,0,0,1,0,1,1,1,0,21,21,21,,,,,,,,,,,,,,,,,,,,,,,,,,,,,,,,,,,,,,,,,,,,,,,,,,,,,,,,,,,,,,,,,,,,,,,,,,,,,,,1.74,587.4825931999949,None,space,1,0.23506629996700212,589.3368468999979,None,589.3368468999979,None,589.3368468999979,None,,,,,,,,,,,P016,fencog,1,Pre,2021_Oct_25_1156,Go No-Go Task,2021.1.4,119.61665261270538,
,"Rule: When you see a yellow image, do not press 'spacebar'.",Images/Scram2/AM06_NC.jpg,Scramble,Yellow,Images/Yellow.jpg,None,ParentConditions/YellowYellowBlue_v1.xlsx,YellowYellowBlue,Conditions/Version_1/YellowScramStop.xlsx,yes,PASS,0.3634874867374246,,,,,,,,,0,0,0,1,0,1,1,1,0,22,22,22,,,,,,,,,,,,,,,,,,,,,,,,,,,,,,,,,,,,,,,,,,,,,,,,,,,,,,,,,,,,,,,,,,,,,,,,,,,,,,,1.65,589.7358431999455,None,space,0,0.22973419999470934,591.4862097000005,None,591.4862097000005,None,591.4862097000005,None,,,,,,,,,,,P016,fencog,1,Pre,2021_Oct_25_1156,Go No-Go Task,2021.1.4,119.61665261270538,
,"Rule: When you see a yellow image, do not press 'spacebar'.",Images/Scram1/AM06_NC.jpg,Scramble,Blue,Images/Blue.jpg,space,ParentConditions/YellowYellowBlue_v1.xlsx,YellowYellowBlue,Conditions/Version_1/YellowScramStop.xlsx,no,PASS,0.9155941996303448,,,,,,,,,0,0,0,1,0,1,1,1,0,23,23,23,,,,,,,,,,,,,,,,,,,,,,,,,,,,,,,,,,,,,,,,,,,,,,,,,,,,,,,,,,,,,,,,,,,,,,,,,,,,,,,1.33,591.8851936999708,None,space,1,0.24425889999838546,593.3357841999969,None,593.3357841999969,None,593.3357841999969,None,,,,,,,,,,,P016,fencog,1,Pre,2021_Oct_25_1156,Go No-Go Task,2021.1.4,119.61665261270538,
,"Rule: When you see a yellow image, do not press 'spacebar'.",Images/Scram2/AM02_NC.jpg,Scramble,Yellow,Images/Yellow.jpg,None,ParentConditions/YellowYellowBlue_v1.xlsx,YellowYellowBlue,Conditions/Version_1/YellowScramStop.xlsx,yes,PASS,0.40349662212467063,,,,,,,,,0,0,0,1,0,1,1,1,0,24,24,24,,,,,,,,,,,,,,,,,,,,,,,,,,,,,,,,,,,,,,,,,,,,,,,,,,,,,,,,,,,,,,,,,,,,,,,,,,,,,,,1.27,593.7264649999561,None,space,0,0.2540692999609746,595.1019010999589,None,595.1019010999589,None,595.1019010999589,None,,,,,,,,,,,P016,fencog,1,Pre,2021_Oct_25_1156,Go No-Go Task,2021.1.4,119.61665261270538,
,"Rule: When you see a yellow image, do not press 'spacebar'.",Images/Scram2/HF05_NC.jpg,Scramble,Blue,Images/Blue.jpg,space,ParentConditions/YellowYellowBlue_v1.xlsx,YellowYellowBlue,Conditions/Version_1/YellowScramStop.xlsx,no,PASS,0.921711635827277,,,,,,,,,0,0,0,1,0,1,1,1,0,25,25,25,,,,,,,,,,,,,,,,,,,,,,,,,,,,,,,,,,,,,,,,,,,,,,,,,,,,,,,,,,,,,,,,,,,,,,,,,,,,,,,1.84,595.5009181999485,None,space,1,0.26416879997123033,597.4595120999729,None,597.4595120999729,None,597.4595120999729,None,,,,,,,,,,,P016,fencog,1,Pre,2021_Oct_25_1156,Go No-Go Task,2021.1.4,119.61665261270538,
,"Rule: When you see a yellow image, do not press 'spacebar'.",Images/Scram2/AF32NES.jpg,Scramble,Yellow,Images/Yellow.jpg,None,ParentConditions/YellowYellowBlue_v1.xlsx,YellowYellowBlue,Conditions/Version_1/YellowScramStop.xlsx,yes,PASS,0.017466824187156504,,,,,,,,,0,0,0,1,0,1,1,1,0,26,26,26,,,,,,,,,,,,,,,,,,,,,,,,,,,,,,,,,,,,,,,,,,,,,,,,,,,,,,,,,,,,,,,,,,,,,,,,,,,,,,,1.41,597.8533289999468,None,None,1,,599.3673066999763,None,599.3673066999763,None,599.3673066999763,None,,,,,,,,,,,P016,fencog,1,Pre,2021_Oct_25_1156,Go No-Go Task,2021.1.4,119.61665261270538,
,"Rule: When you see a yellow image, do not press 'spacebar'.",Images/Scram2/HM04_NC.jpg,Scramble,Blue,Images/Blue.jpg,space,ParentConditions/YellowYellowBlue_v1.xlsx,YellowYellowBlue,Conditions/Version_1/YellowScramStop.xlsx,no,PASS,0.5736341227927889,,,,,,,,,0,0,0,1,0,1,1,1,0,27,27,27,,,,,,,,,,,,,,,,,,,,,,,,,,,,,,,,,,,,,,,,,,,,,,,,,,,,,,,,,,,,,,,,,,,,,,,,,,,,,,,1.48,599.7678029999952,None,space,1,0.20572779997019097,601.3500930999871,None,601.3500930999871,None,601.3500930999871,None,,,,,,,,,,,P016,fencog,1,Pre,2021_Oct_25_1156,Go No-Go Task,2021.1.4,119.61665261270538,
,"Rule: When you see a yellow image, do not press 'spacebar'.",Images/Scram2/AF25NES.jpg,Scramble,Blue,Images/Blue.jpg,space,ParentConditions/YellowYellowBlue_v1.xlsx,YellowYellowBlue,Conditions/Version_1/YellowScramStop.xlsx,no,PASS,0.4815009065668029,,,,,,,,,0,0,0,1,0,1,1,1,0,28,28,28,,,,,,,,,,,,,,,,,,,,,,,,,,,,,,,,,,,,,,,,,,,,,,,,,,,,,,,,,,,,,,,,,,,,,,,,,,,,,,,1.98,601.7522178999498,None,space,1,0.29126570001244545,603.8325894000009,None,603.8325894000009,None,603.8325894000009,None,,,,,,,,,,,P016,fencog,1,Pre,2021_Oct_25_1156,Go No-Go Task,2021.1.4,119.61665261270538,
,"Rule: When you see a yellow image, do not press 'spacebar'.",Images/Scram1/AF34NES.jpg,Scramble,Blue,Images/Blue.jpg,space,ParentConditions/YellowYellowBlue_v1.xlsx,YellowYellowBlue,Conditions/Version_1/YellowScramStop.xlsx,no,PASS,0.16322109337010782,,,,,,,,,0,0,0,1,0,1,1,1,0,29,29,29,,,,,,,,,,,,,,,,,,,,,,,,,,,,,,,,,,,,,,,,,,,,,,,,,,,,,,,,,,,,,,,,,,,,,,,,,,,,,,,1.56,604.2335161999799,None,space,1,0.28905600000871345,605.898670799972,None,605.898670799972,None,605.898670799972,None,,,,,,,,,,,P016,fencog,1,Pre,2021_Oct_25_1156,Go No-Go Task,2021.1.4,119.61665261270538,
,"Rule: When you see a yellow image, do not press 'spacebar'.",Images/Scram2/AF11NES.jpg,Scramble,Blue,Images/Blue.jpg,space,ParentConditions/YellowYellowBlue_v1.xlsx,YellowYellowBlue,Conditions/Version_1/YellowScramStop.xlsx,no,PASS,0.863906943339551,,,,,,,,,0,0,0,1,0,1,1,1,0,30,30,30,,,,,,,,,,,,,,,,,,,,,,,,,,,,,,,,,,,,,,,,,,,,,,,,,,,,,,,,,,,,,,,,,,,,,,,,,,,,,,,1.73,606.2976832999848,None,space,1,0.24906379997264594,608.1313410999719,None,608.1313410999719,None,608.1313410999719,None,,,,,,,,,,,P016,fencog,1,Pre,2021_Oct_25_1156,Go No-Go Task,2021.1.4,119.61665261270538,
,"Rule: When you see a yellow image, do not press 'spacebar'.",Images/Scram2/AF34NES.jpg,Scramble,Yellow,Images/Yellow.jpg,None,ParentConditions/YellowYellowBlue_v1.xlsx,YellowYellowBlue,Conditions/Version_1/YellowScramStop.xlsx,yes,PASS,0.06159009202316168,,,,,,,,,0,0,0,1,0,1,1,1,0,31,31,31,,,,,,,,,,,,,,,,,,,,,,,,,,,,,,,,,,,,,,,,,,,,,,,,,,,,,,,,,,,,,,,,,,,,,,,,,,,,,,,1.99,608.5344651999767,None,None,1,,610.6305960999453,None,610.6305960999453,None,610.6305960999453,None,,,,,,,,,,,P016,fencog,1,Pre,2021_Oct_25_1156,Go No-Go Task,2021.1.4,119.61665261270538,
,"Rule: When you see a yellow image, do not press 'spacebar'.",Images/Scram1/AM02_NC.jpg,Scramble,Blue,Images/Blue.jpg,space,ParentConditions/YellowYellowBlue_v1.xlsx,YellowYellowBlue,Conditions/Version_1/YellowScramStop.xlsx,no,PASS,0.7758508003758968,,,,,,,,,0,0,0,1,0,1,1,1,0,32,32,32,,,,,,,,,,,,,,,,,,,,,,,,,,,,,,,,,,,,,,,,,,,,,,,,,,,,,,,,,,,,,,,,,,,,,,,,,,,,,,,1.51,611.0381569999736,None,space,1,0.26011339999968186,612.6634501999943,None,612.6634501999943,None,612.6634501999943,None,,,,,,,,,,,P016,fencog,1,Pre,2021_Oct_25_1156,Go No-Go Task,2021.1.4,119.61665261270538,
,"Rule: When you see a yellow image, do not press 'spacebar'.",Images/Scram2/AM13NES.jpg,Scramble,Yellow,Images/Yellow.jpg,None,ParentConditions/YellowYellowBlue_v1.xlsx,YellowYellowBlue,Conditions/Version_1/YellowScramStop.xlsx,yes,PASS,0.6726515097084437,,,,,,,,,0,0,0,1,0,1,1,1,0,33,33,33,,,,,,,,,,,,,,,,,,,,,,,,,,,,,,,,,,,,,,,,,,,,,,,,,,,,,,,,,,,,,,,,,,,,,,,,,,,,,,,1.5,613.0619688999723,None,None,1,,614.6627819999703,None,614.6627819999703,None,614.6627819999703,None,,,,,,,,,,,P016,fencog,1,Pre,2021_Oct_25_1156,Go No-Go Task,2021.1.4,119.61665261270538,
,"Rule: When you see a yellow image, do not press 'spacebar'.",Images/Scram1/AM03_NC.jpg,Scramble,Blue,Images/Blue.jpg,space,ParentConditions/YellowYellowBlue_v1.xlsx,YellowYellowBlue,Conditions/Version_1/YellowScramStop.xlsx,no,PASS,0.060310837369876635,,,,,,,,,0,0,0,1,0,1,1,1,0,34,34,34,,,,,,,,,,,,,,,,,,,,,,,,,,,,,,,,,,,,,,,,,,,,,,,,,,,,,,,,,,,,,,,,,,,,,,,,,,,,,,,1.59,615.0619643999962,None,space,1,0.2749955999897793,616.7536021999549,None,616.7536021999549,None,616.7536021999549,None,,,,,,,,,,,P016,fencog,1,Pre,2021_Oct_25_1156,Go No-Go Task,2021.1.4,119.61665261270538,
,"Rule: When you see a yellow image, do not press 'spacebar'.",Images/Scram1/AF33NES.jpg,Scramble,Blue,Images/Blue.jpg,space,ParentConditions/YellowYellowBlue_v1.xlsx,YellowYellowBlue,Conditions/Version_1/YellowScramStop.xlsx,no,PASS,0.9883395332949252,,,,,,,,,0,0,0,1,0,1,1,1,0,35,35,35,,,,,,,,,,,,,,,,,,,,,,,,,,,,,,,,,,,,,,,,,,,,,,,,,,,,,,,,,,,,,,,,,,,,,,,,,,,,,,,1.25,617.1540633999975,None,space,1,0.30009470001095906,618.5114673999487,None,618.5114673999487,None,618.5114673999487,None,,,,,,,,,,,P016,fencog,1,Pre,2021_Oct_25_1156,Go No-Go Task,2021.1.4,119.61665261270538,
,"Rule: When you see a yellow image, do not press 'spacebar'.",Images/Scram1/BF10_NC.jpg,Scramble,Blue,Images/Blue.jpg,space,ParentConditions/YellowYellowBlue_v1.xlsx,YellowYellowBlue,Conditions/Version_1/YellowScramStop.xlsx,no,PASS,0.832283926857634,,,,,,,,,0,0,0,1,0,1,1,1,0,36,36,36,,,,,,,,,,,,,,,,,,,,,,,,,,,,,,,,,,,,,,,,,,,,,,,,,,,,,,,,,,,,,,,,,,,,,,,,,,,,,,,1.6,618.9118506999803,None,space,1,0.2403751999954693,620.6192665999988,None,620.6192665999988,None,620.6192665999988,None,,,,,,,,,,,P016,fencog,1,Pre,2021_Oct_25_1156,Go No-Go Task,2021.1.4,119.61665261270538,
,"Rule: When you see a yellow image, do not press 'spacebar'.",Images/Scram1/AF07_NC.jpg,Scramble,Blue,Images/Blue.jpg,space,ParentConditions/YellowYellowBlue_v1.xlsx,YellowYellowBlue,Conditions/Version_1/YellowScramStop.xlsx,no,PASS,0.9763895949527831,,,,,,,,,0,0,0,1,0,1,1,1,0,37,37,37,,,,,,,,,,,,,,,,,,,,,,,,,,,,,,,,,,,,,,,,,,,,,,,,,,,,,,,,,,,,,,,,,,,,,,,,,,,,,,,1.75,621.0198325999663,None,space,1,0.29552879999391735,622.877016399987,None,622.877016399987,None,622.877016399987,None,,,,,,,,,,,P016,fencog,1,Pre,2021_Oct_25_1156,Go No-Go Task,2021.1.4,119.61665261270538,
,"Rule: When you see a yellow image, do not press 'spacebar'.",Images/Scram2/AM23NES.jpg,Scramble,Yellow,Images/Yellow.jpg,None,ParentConditions/YellowYellowBlue_v1.xlsx,YellowYellowBlue,Conditions/Version_1/YellowScramStop.xlsx,yes,PASS,0.6002481140469051,,,,,,,,,0,0,0,1,0,1,1,1,0,38,38,38,,,,,,,,,,,,,,,,,,,,,,,,,,,,,,,,,,,,,,,,,,,,,,,,,,,,,,,,,,,,,,,,,,,,,,,,,,,,,,,1.32,623.2768499999656,None,None,1,,624.7014206999447,None,624.7014206999447,None,624.7014206999447,None,,,,,,,,,,,P016,fencog,1,Pre,2021_Oct_25_1156,Go No-Go Task,2021.1.4,119.61665261270538,
,"Rule: When you see a yellow image, do not press 'spacebar'.",Images/Scram1/AF24NES.jpg,Scramble,Blue,Images/Blue.jpg,space,ParentConditions/YellowYellowBlue_v1.xlsx,YellowYellowBlue,Conditions/Version_1/YellowScramStop.xlsx,no,PASS,0.1129494583795736,,,,,,,,,0,0,0,1,0,1,1,1,0,39,39,39,,,,,,,,,,,,,,,,,,,,,,,,,,,,,,,,,,,,,,,,,,,,,,,,,,,,,,,,,,,,,,,,,,,,,,,,,,,,,,,1.42,625.10211659997,None,space,1,0.25071550003485754,626.6258342999499,None,626.6258342999499,None,626.6258342999499,None,,,,,,,,,,,P016,fencog,1,Pre,2021_Oct_25_1156,Go No-Go Task,2021.1.4,119.61665261270538,
,"Rule: When you see a yellow image, do not press 'spacebar'.",Images/Scram2/AF33NES.jpg,Scramble,Yellow,Images/Yellow.jpg,None,ParentConditions/YellowYellowBlue_v1.xlsx,YellowYellowBlue,Conditions/Version_1/YellowScramStop.xlsx,yes,PASS,0.8037537420652296,,,,,,,,,0,0,0,1,0,1,1,1,0,40,40,40,,,,,,,,,,,,,,,,,,,,,,,,,,,,,,,,,,,,,,,,,,,,,,,,,,,,,,,,,,,,,,,,,,,,,,,,,,,,,,,1.62,627.0278726999532,None,space,0,0.2932376000098884,628.7584873999585,None,628.7584873999585,None,628.7584873999585,None,,,,,,,,,,,P016,fencog,1,Pre,2021_Oct_25_1156,Go No-Go Task,2021.1.4,119.61665261270538,
,"Rule: When you see a yellow image, do not press 'spacebar'.",Images/Scram1/AF25NES.jpg,Scramble,Blue,Images/Blue.jpg,space,ParentConditions/YellowYellowBlue_v1.xlsx,YellowYellowBlue,Conditions/Version_1/YellowScramStop.xlsx,no,PASS,0.14378736257712743,,,,,,,,,0,0,0,1,0,1,1,1,0,41,41,41,,,,,,,,,,,,,,,,,,,,,,,,,,,,,,,,,,,,,,,,,,,,,,,,,,,,,,,,,,,,,,,,,,,,,,,,,,,,,,,1.49,629.1573520999518,None,space,1,0.2787055000080727,630.7494977999595,None,630.7494977999595,None,630.7494977999595,None,,,,,,,,,,,P016,fencog,1,Pre,2021_Oct_25_1156,Go No-Go Task,2021.1.4,119.61665261270538,
,"Rule: When you see a yellow image, do not press 'spacebar'.",Images/Scram2/AM10NES.jpg,Scramble,Yellow,Images/Yellow.jpg,None,ParentConditions/YellowYellowBlue_v1.xlsx,YellowYellowBlue,Conditions/Version_1/YellowScramStop.xlsx,yes,PASS,0.5820319295028303,,,,,,,,,0,0,0,1,0,1,1,1,0,42,42,42,,,,,,,,,,,,,,,,,,,,,,,,,,,,,,,,,,,,,,,,,,,,,,,,,,,,,,,,,,,,,,,,,,,,,,,,,,,,,,,1.55,631.1495997999446,None,None,1,,632.8073492999538,None,632.8073492999538,None,632.8073492999538,None,,,,,,,,,,,P016,fencog,1,Pre,2021_Oct_25_1156,Go No-Go Task,2021.1.4,119.61665261270538,
,"Rule: When you see a yellow image, do not press 'spacebar'.",Images/Scram2/BF10_NC.jpg,Scramble,Blue,Images/Blue.jpg,space,ParentConditions/YellowYellowBlue_v1.xlsx,YellowYellowBlue,Conditions/Version_1/YellowScramStop.xlsx,no,PASS,0.2078164907866934,,,,,,,,,0,0,0,1,0,1,1,1,0,43,43,43,,,,,,,,,,,,,,,,,,,,,,,,,,,,,,,,,,,,,,,,,,,,,,,,,,,,,,,,,,,,,,,,,,,,,,,,,,,,,,,1.9,633.2078983999672,None,space,1,0.32487959996797144,635.2149662999436,None,635.2149662999436,None,635.2149662999436,None,,,,,,,,,,,P016,fencog,1,Pre,2021_Oct_25_1156,Go No-Go Task,2021.1.4,119.61665261270538,
,"Rule: When you see a yellow image, do not press 'spacebar'.",Images/Scram1/BF18_NC.jpg,Scramble,Blue,Images/Blue.jpg,space,ParentConditions/YellowYellowBlue_v1.xlsx,YellowYellowBlue,Conditions/Version_1/YellowScramStop.xlsx,no,PASS,0.3689261099445472,,,,,,,,,0,0,0,1,0,1,1,1,0,44,44,44,,,,,,,,,,,,,,,,,,,,,,,,,,,,,,,,,,,,,,,,,,,,,,,,,,,,,,,,,,,,,,,,,,,,,,,,,,,,,,,1.29,635.6157080999692,None,space,1,0.3500103999977,637.0060539999977,None,637.0060539999977,None,637.0060539999977,None,,,,,,,,,,,P016,fencog,1,Pre,2021_Oct_25_1156,Go No-Go Task,2021.1.4,119.61665261270538,
,"Rule: When you see a yellow image, do not press 'spacebar'.",Images/Scram2/HF09_NC.jpg,Scramble,Blue,Images/Blue.jpg,space,ParentConditions/YellowYellowBlue_v1.xlsx,YellowYellowBlue,Conditions/Version_1/YellowScramStop.xlsx,no,PASS,0.286178806367275,,,,,,,,,0,0,0,1,0,1,1,1,0,45,45,45,,,,,,,,,,,,,,,,,,,,,,,,,,,,,,,,,,,,,,,,,,,,,,,,,,,,,,,,,,,,,,,,,,,,,,,,,,,,,,,1.34,637.4101544999867,None,space,1,0.38087890000315383,638.8556125999894,None,638.8556125999894,None,638.8556125999894,None,,,,,,,,,,,P016,fencog,1,Pre,2021_Oct_25_1156,Go No-Go Task,2021.1.4,119.61665261270538,
,"Rule: When you see a yellow image, do not press 'spacebar'.",Images/Scram1/BF05_NC.jpg,Scramble,Blue,Images/Blue.jpg,space,ParentConditions/YellowYellowBlue_v1.xlsx,YellowYellowBlue,Conditions/Version_1/YellowScramStop.xlsx,no,PASS,0.7692637816145413,,,,,,,,,0,0,0,1,0,1,1,1,0,46,46,46,,,,,,,,,,,,,,,,,,,,,,,,,,,,,,,,,,,,,,,,,,,,,,,,,,,,,,,,,,,,,,,,,,,,,,,,,,,,,,,1.44,639.2628131999518,None,space,1,0.29416910000145435,640.8049371999805,None,640.8049371999805,None,640.8049371999805,None,,,,,,,,,,,P016,fencog,1,Pre,2021_Oct_25_1156,Go No-Go Task,2021.1.4,119.61665261270538,
,"Rule: When you see a yellow image, do not press 'spacebar'.",Images/Scram1/AM17NES.jpg,Scramble,Blue,Images/Blue.jpg,space,ParentConditions/YellowYellowBlue_v1.xlsx,YellowYellowBlue,Conditions/Version_1/YellowScramStop.xlsx,no,PASS,0.7553300637440975,,,,,,,,,0,0,0,1,0,1,1,1,0,47,47,47,,,,,,,,,,,,,,,,,,,,,,,,,,,,,,,,,,,,,,,,,,,,,,,,,,,,,,,,,,,,,,,,,,,,,,,,,,,,,,,1.89,641.2043923999881,None,space,1,0.35977889999048784,643.1958685999853,None,643.1958685999853,None,643.1958685999853,None,,,,,,,,,,,P016,fencog,1,Pre,2021_Oct_25_1156,Go No-Go Task,2021.1.4,119.61665261270538,
,"Rule: When you see a yellow image, do not press 'spacebar'.",Images/Scram2/AM09_NC.jpg,Scramble,Yellow,Images/Yellow.jpg,None,ParentConditions/YellowYellowBlue_v1.xlsx,YellowYellowBlue,Conditions/Version_1/YellowScramStop.xlsx,yes,PASS,0.984865364539922,,,,,,,,,0,0,0,1,0,1,1,1,0,48,48,48,,,,,,,,,,,,,,,,,,,,,,,,,,,,,,,,,,,,,,,,,,,,,,,,,,,,,,,,,,,,,,,,,,,,,,,,,,,,,,,1.88,643.5951905999682,None,None,1,,645.5784284999827,None,645.5784284999827,None,645.5784284999827,None,,,,,,,,,,,P016,fencog,1,Pre,2021_Oct_25_1156,Go No-Go Task,2021.1.4,119.61665261270538,
,"Rule: When you see a yellow image, do not press 'spacebar'.",Images/Scram2/AF09NES.jpg,Scramble,Blue,Images/Blue.jpg,space,ParentConditions/YellowYellowBlue_v1.xlsx,YellowYellowBlue,Conditions/Version_1/YellowScramStop.xlsx,no,PASS,0.2099853615180053,,,,,,,,,0,0,0,1,0,1,1,1,0,49,49,49,,,,,,,,,,,,,,,,,,,,,,,,,,,,,,,,,,,,,,,,,,,,,,,,,,,,,,,,,,,,,,,,,,,,,,,,,,,,,,,1.91,645.9794066999457,None,space,1,0.25737830001162365,647.994295499986,None,647.994295499986,None,647.994295499986,None,,,,,,,,,,,P016,fencog,1,Pre,2021_Oct_25_1156,Go No-Go Task,2021.1.4,119.61665261270538,
,"Rule: When you see a yellow image, do not press 'spacebar'.",Images/Scram2/AM04_NC.jpg,Scramble,Yellow,Images/Yellow.jpg,None,ParentConditions/YellowYellowBlue_v1.xlsx,YellowYellowBlue,Conditions/Version_1/YellowScramStop.xlsx,yes,PASS,0.8595632143536898,,,,,,,,,0,0,0,1,0,1,1,1,0,50,50,50,,,,,,,,,,,,,,,,,,,,,,,,,,,,,,,,,,,,,,,,,,,,,,,,,,,,,,,,,,,,,,,,,,,,,,,,,,,,,,,1.3,648.3934646999696,None,None,1,,649.7938490999513,None,649.7938490999513,None,649.7938490999513,None,,,,,,,,,,,P016,fencog,1,Pre,2021_Oct_25_1156,Go No-Go Task,2021.1.4,119.61665261270538,
,"Rule: When you see a yellow image, do not press 'spacebar'.",Images/Scram2/BF05_NC.jpg,Scramble,Yellow,Images/Yellow.jpg,None,ParentConditions/YellowYellowBlue_v1.xlsx,YellowYellowBlue,Conditions/Version_1/YellowScramStop.xlsx,yes,PASS,0.9038892448018151,,,,,,,,,0,0,0,1,0,1,1,1,0,51,51,51,,,,,,,,,,,,,,,,,,,,,,,,,,,,,,,,,,,,,,,,,,,,,,,,,,,,,,,,,,,,,,,,,,,,,,,,,,,,,,,1.58,650.1942522999598,None,None,1,,651.8765425999882,None,651.8765425999882,None,651.8765425999882,None,,,,,,,,,,,P016,fencog,1,Pre,2021_Oct_25_1156,Go No-Go Task,2021.1.4,119.61665261270538,
,"Rule: When you see a yellow image, do not press 'spacebar'.",Images/Scram1/HM06_NC.jpg,Scramble,Blue,Images/Blue.jpg,space,ParentConditions/YellowYellowBlue_v1.xlsx,YellowYellowBlue,Conditions/Version_1/YellowScramStop.xlsx,no,PASS,0.7183076447823791,,,,,,,,,0,0,0,1,0,1,1,1,0,52,52,52,,,,,,,,,,,,,,,,,,,,,,,,,,,,,,,,,,,,,,,,,,,,,,,,,,,,,,,,,,,,,,,,,,,,,,,,,,,,,,,1.82,652.2775376999634,None,space,1,0.3381743000354618,654.2176520999637,None,654.2176520999637,None,654.2176520999637,None,,,,,,,,,,,P016,fencog,1,Pre,2021_Oct_25_1156,Go No-Go Task,2021.1.4,119.61665261270538,
,"Rule: When you see a yellow image, do not press 'spacebar'.",Images/Scram2/AF07NES.jpg,Scramble,Blue,Images/Blue.jpg,space,ParentConditions/YellowYellowBlue_v1.xlsx,YellowYellowBlue,Conditions/Version_1/YellowScramStop.xlsx,no,PASS,0.8685827011476244,,,,,,,,,0,0,0,1,0,1,1,1,0,53,53,53,,,,,,,,,,,,,,,,,,,,,,,,,,,,,,,,,,,,,,,,,,,,,,,,,,,,,,,,,,,,,,,,,,,,,,,,,,,,,,,1.96,654.6081483999733,None,space,1,0.3518301000003703,656.6756538999616,None,656.6756538999616,None,656.6756538999616,None,,,,,,,,,,,P016,fencog,1,Pre,2021_Oct_25_1156,Go No-Go Task,2021.1.4,119.61665261270538,
,"Rule: When you see a yellow image, do not press 'spacebar'.",Images/Scram1/BM01_NC.jpg,Scramble,Blue,Images/Blue.jpg,space,ParentConditions/YellowYellowBlue_v1.xlsx,YellowYellowBlue,Conditions/Version_1/YellowScramStop.xlsx,no,PASS,0.7516161036696042,,,,,,,,,0,0,0,1,0,1,1,1,0,54,54,54,,,,,,,,,,,,,,,,,,,,,,,,,,,,,,,,,,,,,,,,,,,,,,,,,,,,,,,,,,,,,,,,,,,,,,,,,,,,,,,1.36,657.0832240999443,None,space,1,0.278414000000339,658.5581066999584,None,658.5581066999584,None,658.5581066999584,None,,,,,,,,,,,P016,fencog,1,Pre,2021_Oct_25_1156,Go No-Go Task,2021.1.4,119.61665261270538,
