CondFileP,Instructions,FaceE,Express,ColourT,ColourF,CorrectAnsP,MasterCondFile,BlockOrder,CondFile,ColCheck,Triplicate_check,SORT_BY_SMALLEST,EPracticeOuterLoop.thisRepN,EPracticeOuterLoop.thisTrialN,EPracticeOuterLoop.thisN,EPracticeOuterLoop.thisIndex,EPracticeInnerLoop.thisRepN,EPracticeInnerLoop.thisTrialN,EPracticeInnerLoop.thisN,EPracticeInnerLoop.thisIndex,MasterLoop.thisRepN,MasterLoop.thisTrialN,MasterLoop.thisN,MasterLoop.thisIndex,OuterLoop.thisRepN,OuterLoop.thisTrialN,OuterLoop.thisN,OuterLoop.thisIndex,InnerLoop.thisRepN,InnerLoop.thisTrialN,InnerLoop.thisN,InnerLoop.thisIndex,text_13.started,text_13.stopped,key_resp_10.keys,key_resp_10.rt,key_resp_10.started,key_resp_10.stopped,text4.started,text4.stopped,EmotionTaskInstructions1.keys,EmotionTaskInstructions1.rt,EmotionTaskInstructions1.started,EmotionTaskInstructions1.stopped,text_4.started,text_4.stopped,key_resp_5.keys,key_resp_5.rt,key_resp_5.started,key_resp_5.stopped,Text_14.started,Text_14.stopped,key_resp_9.keys,key_resp_9.rt,key_resp_9.started,key_resp_9.stopped,text_5.started,text_5.stopped,text_6.started,text_6.stopped,key_resp_7.keys,key_resp_7.rt,key_resp_7.started,key_resp_7.stopped,text_10.started,text_10.stopped,text_11.started,text_11.stopped,text_12.started,text_12.stopped,ISIjitterPractice,EPracticeISIMarker.started,EPracticeISIMarker.stopped,Pract.keys,Pract.corr,Pract.started,Pract.stopped,PracticeFace.started,PracticeFace.stopped,ColourPractice.started,ColourPractice.stopped,text_7.started,text_7.stopped,Pract.rt,EndOfPractice.started,EndOfPractice.stopped,key_resp_8.keys,key_resp_8.rt,key_resp_8.started,key_resp_8.stopped,text_8.started,text_8.stopped,key_resp_6.keys,key_resp_6.rt,key_resp_6.started,key_resp_6.stopped,text_2.started,text_2.stopped,text_3.started,text_3.stopped,key_resp_3.keys,key_resp_3.rt,key_resp_3.started,key_resp_3.stopped,TaskBlock.started,TaskBlock.stopped,BlockNo1.started,BlockNo1.stopped,OfBlock.started,OfBlock.stopped,ISIjitter,ISImarker.started,ISImarker.stopped,key_resp.keys,key_resp.corr,key_resp.rt,key_resp.started,key_resp.stopped,FaceSet.started,FaceSet.stopped,Colour.started,Colour.stopped,EndBlockText.started,EndBlockText.stopped,key_resp_4.keys,key_resp_4.rt,key_resp_4.started,key_resp_4.stopped,BreakText2.started,BreakText2.stopped,PressToContinue.started,PressToContinue.stopped,participant,Study Name,Task Version (required to run),PRE/POST,date,expName,psychopyVersion,frameRate,
,,,,,,,,,,,,,,,,,,,,,,,,,,,,,,,,,69.25512849993538,None,space,2.6783782000420615,70.24651109997649,None,,,,,,,,,,,,,,,,,,,,,,,,,,,,,,,,,,,,,,,,,,,,,,,,,,,,,,,,,,,,,,,,,,,,,,,,,,,,,,,,,,,,,,,,,,,,,,,P017,fencog,1,Pre,2021_Oct_28_1045,Go No-Go Task,2021.1.4,118.77923442635712,
,,,,,,,,,,,,,,,,,,,,,,,,,,,,,,,,,,,,,,,74.46083699993324,None,space,120.53567160002422,74.46083699993324,None,,,,,,,,,,,,,,,,,,,,,,,,,,,,,,,,,,,,,,,,,,,,,,,,,,,,,,,,,,,,,,,,,,,,,,,,,,,,,,,,,,,,,,,,,P017,fencog,1,Pre,2021_Oct_28_1045,Go No-Go Task,2021.1.4,118.77923442635712,
,,,,,,,,,,,,,,,,,,,,,,,,,,,,,,,,,,,,,,,,,,,,,195.06405759998597,None,space,8.75686930003576,195.06405759998597,None,,,,,,,,,,,,,,,,,,,,,,,,,,,,,,,,,,,,,,,,,,,,,,,,,,,,,,,,,,,,,,,,,,,,,,,,,,,,,,,,,,,P017,fencog,1,Pre,2021_Oct_28_1045,Go No-Go Task,2021.1.4,118.77923442635712,
,,,,,,,,,,,,,,,,,,,,,,,,,,,,,,,,,,,,,,,,,,,,,,,,,,,203.83143759996165,None,space,5.421244399971329,203.83143759996165,None,,,,,,,,,,,,,,,,,,,,,,,,,,,,,,,,,,,,,,,,,,,,,,,,,,,,,,,,,,,,,,,,,,,,,,,,,,,,,P017,fencog,1,Pre,2021_Oct_28_1045,Go No-Go Task,2021.1.4,118.77923442635712,
EPracticeConditions/BlueEyes.csv,"Rule: When you see a blue image, do not press 'spacebar'.",Images/Happy/HF04_HE.jpg,Happy,Yellow,Images/Yellow.jpg,space,,,,,,,0,0,0,0,0,0,0,4,,,,,,,,,,,,,,,,,,,,,,,,,,,,,,,,,,,,,209.3354316999903,None,212.32121899991762,None,space,0.9713508000131696,212.32121899991762,None,209.3354316999903,None,209.3354316999903,None,209.3354316999903,None,1.9,213.41667499998584,None,None,0,215.479803299997,None,215.479803299997,None,215.479803299997,None,217.03301799995825,None,,,,,,,,,,,,,,,,,,,,,,,,,,,,,,,,,,,,,,,,,,,,,,,,,,P017,fencog,1,Pre,2021_Oct_28_1045,Go No-Go Task,2021.1.4,118.77923442635712,
EPracticeConditions/BlueEyes.csv,"Rule: When you see a blue image, do not press 'spacebar'.",Images/Happy/HF09_HE.jpg,Happy,Yellow,Images/Yellow.jpg,space,,,,,,,0,0,0,0,0,1,1,6,,,,,,,,,,,,,,,,,,,,,,,,,,,,,,,,,,,,,,,,,,,,,,,,,,,1.3,218.36450149992015,None,space,1,219.76967569999397,None,219.76967569999397,None,219.76967569999397,None,220.66843669989612,None,0.38700960006099194,,,,,,,,,,,,,,,,,,,,,,,,,,,,,,,,,,,,,,,,,,,,,,,,,P017,fencog,1,Pre,2021_Oct_28_1045,Go No-Go Task,2021.1.4,118.77923442635712,
EPracticeConditions/BlueEyes.csv,"Rule: When you see a blue image, do not press 'spacebar'.",Images/Happy/BM08_HO.jpg,Happy,Yellow,Images/Yellow.jpg,space,,,,,,,0,0,0,0,0,2,2,3,,,,,,,,,,,,,,,,,,,,,,,,,,,,,,,,,,,,,,,,,,,,,,,,,,,1.2,222.66749719996005,None,None,0,223.97667000000365,None,223.97667000000365,None,223.97667000000365,None,224.8786717999028,None,,,,,,,,,,,,,,,,,,,,,,,,,,,,,,,,,,,,,,,,,,,,,,,,,,P017,fencog,1,Pre,2021_Oct_28_1045,Go No-Go Task,2021.1.4,118.77923442635712,
EPracticeConditions/BlueEyes.csv,"Rule: When you see a blue image, do not press 'spacebar'.",Images/Happy/HF10_HE.jpg,Happy,Yellow,Images/Yellow.jpg,space,,,,,,,0,0,0,0,0,3,3,7,,,,,,,,,,,,,,,,,,,,,,,,,,,,,,,,,,,,,,,,,,,,,,,,,,,1.4,226.87501179997344,None,space,1,228.3754622999113,None,228.3754622999113,None,228.3754622999113,None,229.27426189999096,None,0.2852024999447167,,,,,,,,,,,,,,,,,,,,,,,,,,,,,,,,,,,,,,,,,,,,,,,,,P017,fencog,1,Pre,2021_Oct_28_1045,Go No-Go Task,2021.1.4,118.77923442635712,
EPracticeConditions/BlueEyes.csv,"Rule: When you see a blue image, do not press 'spacebar'.",Images/Happy/HF05_HO.jpg,Happy,Yellow,Images/Yellow.jpg,space,,,,,,,0,0,0,0,0,4,4,5,,,,,,,,,,,,,,,,,,,,,,,,,,,,,,,,,,,,,,,,,,,,,,,,,,,1.5,231.2737194999354,None,space,1,232.88227419997565,None,232.88227419997565,None,232.88227419997565,None,233.7727135999594,None,0.29831189999822527,,,,,,,,,,,,,,,,,,,,,,,,,,,,,,,,,,,,,,,,,,,,,,,,,P017,fencog,1,Pre,2021_Oct_28_1045,Go No-Go Task,2021.1.4,118.77923442635712,
EPracticeConditions/BlueEyes.csv,"Rule: When you see a blue image, do not press 'spacebar'.",Images/Fearful/AF01_FO.jpg,Fear,Blue,Images/Blue.jpg,None,,,,,,,0,0,0,0,0,5,5,1,,,,,,,,,,,,,,,,,,,,,,,,,,,,,,,,,,,,,,,,,,,,,,,,,,,1.6,235.77269269991666,None,None,1,237.4807025999762,None,237.4807025999762,None,237.4807025999762,None,238.37524470000062,None,,,,,,,,,,,,,,,,,,,,,,,,,,,,,,,,,,,,,,,,,,,,,,,,,,P017,fencog,1,Pre,2021_Oct_28_1045,Go No-Go Task,2021.1.4,118.77923442635712,
EPracticeConditions/BlueEyes.csv,"Rule: When you see a blue image, do not press 'spacebar'.",Images/Happy/BM02_HO.jpg,Happy,Yellow,Images/Yellow.jpg,space,,,,,,,0,0,0,0,0,6,6,2,,,,,,,,,,,,,,,,,,,,,,,,,,,,,,,,,,,,,,,,,,,,,,,,,,,1.8,240.37906680000015,None,space,1,242.27943359990604,None,242.27943359990604,None,242.27943359990604,None,243.17482899990864,None,0.2697094999020919,,,,,,,,,,,,,,,,,,,,,,,,,,,,,,,,,,,,,,,,,,,,,,,,,P017,fencog,1,Pre,2021_Oct_28_1045,Go No-Go Task,2021.1.4,118.77923442635712,
EPracticeConditions/BlueEyes.csv,"Rule: When you see a blue image, do not press 'spacebar'.",Images/Fearful/HM09_FC.jpg,Fear,Blue,Images/Blue.jpg,None,,,,,,,0,0,0,0,0,7,7,0,,,,,,,,,,,,,,,,,,,,,,,,,,,,,,,,,,,,,,,,,,,,,,,,,,,1.7,245.18542959995102,None,None,1,247.00324190000538,None,247.00324190000538,None,247.00324190000538,None,247.87674370000605,None,,,,,,,,,,,,,,,,,,,,,,,,,,,,,,,,,,,,,,,,,,,,,,,,,,P017,fencog,1,Pre,2021_Oct_28_1045,Go No-Go Task,2021.1.4,118.77923442635712,
EPracticeConditions/BlueEyes.csv,"Rule: When you see a blue image, do not press 'spacebar'.",,,,,,,,,,,,0,0,0,0,,,,,,,,,,,,,,,,,,,,,,,,,,,,,,,,,,,,,,,,,,,,,,,,,,,,,,,,,,,,,,,,,,,,,,,,,,,,,,,,,,,,,,,,,,,,,,,,,,,,,,,,,,,,,,,,,,,,,P017,fencog,1,Pre,2021_Oct_28_1045,Go No-Go Task,2021.1.4,118.77923442635712,
EPracticeConditions/YellowEyes.csv,"Rule: When you see a yellow image, do not press 'spacebar'.",Images/Fearful/AM24AFS.jpg,Fear,Blue,Images/Blue.jpg,space,,,,,,,0,1,1,1,0,0,0,7,,,,,,,,,,,,,,,,,,,,,,,,,,,,,,,,,,,,,249.89864669996314,None,252.89252929994836,None,space,0.5202037000562996,252.89252929994836,None,249.89864669996314,None,249.89864669996314,None,249.89864669996314,None,1.4,253.44576669996604,None,None,0,254.9505203999579,None,254.9505203999579,None,254.9505203999579,None,255.84820999996737,None,,,,,,,,,,,,,,,,,,,,,,,,,,,,,,,,,,,,,,,,,,,,,,,,,,P017,fencog,1,Pre,2021_Oct_28_1045,Go No-Go Task,2021.1.4,118.77923442635712,
EPracticeConditions/YellowEyes.csv,"Rule: When you see a yellow image, do not press 'spacebar'.",Images/Fearful/AM22AFS.jpg,Fear,Blue,Images/Blue.jpg,space,,,,,,,0,1,1,1,0,1,1,5,,,,,,,,,,,,,,,,,,,,,,,,,,,,,,,,,,,,,,,,,,,,,,,,,,,1.3,257.85007809998933,None,space,1,259.2662922999589,None,259.2662922999589,None,259.2662922999589,None,260.15655979991425,None,0.30741189990658313,,,,,,,,,,,,,,,,,,,,,,,,,,,,,,,,,,,,,,,,,,,,,,,,,P017,fencog,1,Pre,2021_Oct_28_1045,Go No-Go Task,2021.1.4,118.77923442635712,
EPracticeConditions/YellowEyes.csv,"Rule: When you see a yellow image, do not press 'spacebar'.",Images/Fearful/AM16AFS.jpg,Fear,Blue,Images/Blue.jpg,space,,,,,,,0,1,1,1,0,2,2,2,,,,,,,,,,,,,,,,,,,,,,,,,,,,,,,,,,,,,,,,,,,,,,,,,,,1.7,262.155951899942,None,space,1,263.9563603999559,None,263.9563603999559,None,263.9563603999559,None,264.85361849993933,None,0.32813849998638034,,,,,,,,,,,,,,,,,,,,,,,,,,,,,,,,,,,,,,,,,,,,,,,,,P017,fencog,1,Pre,2021_Oct_28_1045,Go No-Go Task,2021.1.4,118.77923442635712,
EPracticeConditions/YellowEyes.csv,"Rule: When you see a yellow image, do not press 'spacebar'.",Images/Fearful/AM23AFS.jpg,Fear,Blue,Images/Blue.jpg,space,,,,,,,0,1,1,1,0,3,3,6,,,,,,,,,,,,,,,,,,,,,,,,,,,,,,,,,,,,,,,,,,,,,,,,,,,1.5,266.8550409999443,None,None,0,268.4550889999373,None,268.4550889999373,None,268.4550889999373,None,269.3527688999893,None,,,,,,,,,,,,,,,,,,,,,,,,,,,,,,,,,,,,,,,,,,,,,,,,,,P017,fencog,1,Pre,2021_Oct_28_1045,Go No-Go Task,2021.1.4,118.77923442635712,
EPracticeConditions/YellowEyes.csv,"Rule: When you see a yellow image, do not press 'spacebar'.",Images/Fearful/AM19AFS.jpg,Fear,Blue,Images/Blue.jpg,space,,,,,,,0,1,1,1,0,4,4,4,,,,,,,,,,,,,,,,,,,,,,,,,,,,,,,,,,,,,,,,,,,,,,,,,,,1.8,271.36180429998785,None,None,0,273.26185109990183,None,273.26185109990183,None,273.26185109990183,None,274.15254459995776,None,,,,,,,,,,,,,,,,,,,,,,,,,,,,,,,,,,,,,,,,,,,,,,,,,,P017,fencog,1,Pre,2021_Oct_28_1045,Go No-Go Task,2021.1.4,118.77923442635712,
EPracticeConditions/YellowEyes.csv,"Rule: When you see a yellow image, do not press 'spacebar'.",Images/Happy/BF05_HO.jpg,Happy,Yellow,Images/Yellow.jpg,None,,,,,,,0,1,1,1,0,5,5,1,,,,,,,,,,,,,,,,,,,,,,,,,,,,,,,,,,,,,,,,,,,,,,,,,,,1.9,276.1595140999416,None,None,1,278.16970079997554,None,278.16970079997554,None,278.16970079997554,None,279.0647249999456,None,,,,,,,,,,,,,,,,,,,,,,,,,,,,,,,,,,,,,,,,,,,,,,,,,,P017,fencog,1,Pre,2021_Oct_28_1045,Go No-Go Task,2021.1.4,118.77923442635712,
EPracticeConditions/YellowEyes.csv,"Rule: When you see a yellow image, do not press 'spacebar'.",Images/Happy/AM32HAS.jpg,Happy,Yellow,Images/Yellow.jpg,None,,,,,,,0,1,1,1,0,6,6,0,,,,,,,,,,,,,,,,,,,,,,,,,,,,,,,,,,,,,,,,,,,,,,,,,,,1.6,281.0672824999783,None,None,1,282.7759157998953,None,282.7759157998953,None,282.7759157998953,None,283.67300829989836,None,,,,,,,,,,,,,,,,,,,,,,,,,,,,,,,,,,,,,,,,,,,,,,,,,,P017,fencog,1,Pre,2021_Oct_28_1045,Go No-Go Task,2021.1.4,118.77923442635712,
EPracticeConditions/YellowEyes.csv,"Rule: When you see a yellow image, do not press 'spacebar'.",Images/Fearful/AM17AFS.jpg,Fear,Blue,Images/Blue.jpg,space,,,,,,,0,1,1,1,0,7,7,3,,,,,,,,,,,,,,,,,,,,,,,,,,,,,,,,,,,,,,,,,,,,,,,,,,,1.2,285.674167899997,None,space,1,286.9743945999071,None,286.9743945999071,None,286.9743945999071,None,287.87709909991827,None,0.3498961000004783,,,,,,,,,,,,,,,,,,,,,,,,,,,,,,,,,,,,,,,,,,,,,,,,,P017,fencog,1,Pre,2021_Oct_28_1045,Go No-Go Task,2021.1.4,118.77923442635712,
EPracticeConditions/YellowEyes.csv,"Rule: When you see a yellow image, do not press 'spacebar'.",,,,,,,,,,,,0,1,1,1,,,,,,,,,,,,,,,,,,,,,,,,,,,,,,,,,,,,,,,,,,,,,,,,,,,,,,,,,,,,,,,,,,,,,,,,,,,,,,,,,,,,,,,,,,,,,,,,,,,,,,,,,,,,,,,,,,,,,P017,fencog,1,Pre,2021_Oct_28_1045,Go No-Go Task,2021.1.4,118.77923442635712,
EPracticeConditions/BlueScram.csv,"Rule: When you see a blue image, do not press 'spacebar'.",Images/Scram1/AM04_NC.jpg,Scramble,Yellow,Images/Yellow.jpg,space,,,,,,,0,2,2,2,0,0,0,3,,,,,,,,,,,,,,,,,,,,,,,,,,,,,,,,,,,,,289.8901273999363,None,292.88057179993484,None,space,0.4199426000704989,292.88057179993484,None,289.8901273999363,None,289.8901273999363,None,289.8901273999363,None,1.6,293.31792119995225,None,None,0,295.0304664999712,None,295.0304664999712,None,295.0304664999712,None,295.93653809989337,None,,,,,,,,,,,,,,,,,,,,,,,,,,,,,,,,,,,,,,,,,,,,,,,,,,P017,fencog,1,Pre,2021_Oct_28_1045,Go No-Go Task,2021.1.4,118.77923442635712,
EPracticeConditions/BlueScram.csv,"Rule: When you see a blue image, do not press 'spacebar'.",Images/Scram1/AM13NES.jpg,Scramble,Yellow,Images/Yellow.jpg,space,,,,,,,0,2,2,2,0,1,1,5,,,,,,,,,,,,,,,,,,,,,,,,,,,,,,,,,,,,,,,,,,,,,,,,,,,1.4,297.9287990999874,None,space,1,299.42936879990157,None,299.42936879990157,None,299.42936879990157,None,300.32792099996004,None,0.3588645000709221,,,,,,,,,,,,,,,,,,,,,,,,,,,,,,,,,,,,,,,,,,,,,,,,,P017,fencog,1,Pre,2021_Oct_28_1045,Go No-Go Task,2021.1.4,118.77923442635712,
EPracticeConditions/BlueScram.csv,"Rule: When you see a blue image, do not press 'spacebar'.",Images/Scram2/AF25NES.jpg,Scramble,Yellow,Images/Yellow.jpg,space,,,,,,,0,2,2,2,0,2,2,7,,,,,,,,,,,,,,,,,,,,,,,,,,,,,,,,,,,,,,,,,,,,,,,,,,,1.8,302.3275213999441,None,space,1,304.227732499945,None,304.227732499945,None,304.227732499945,None,305.12362569989637,None,0.32032739999704063,,,,,,,,,,,,,,,,,,,,,,,,,,,,,,,,,,,,,,,,,,,,,,,,,P017,fencog,1,Pre,2021_Oct_28_1045,Go No-Go Task,2021.1.4,118.77923442635712,
EPracticeConditions/BlueScram.csv,"Rule: When you see a blue image, do not press 'spacebar'.",Images/Scram1/BM08_NC.jpg,Scramble,Blue,Images/Blue.jpg,None,,,,,,,0,2,2,2,0,3,3,0,,,,,,,,,,,,,,,,,,,,,,,,,,,,,,,,,,,,,,,,,,,,,,,,,,,1.9,307.1264359999914,None,space,0,309.1264294999419,None,309.1264294999419,None,309.1264294999419,None,310.04084449994843,None,0.2773096999153495,,,,,,,,,,,,,,,,,,,,,,,,,,,,,,,,,,,,,,,,,,,,,,,,,P017,fencog,1,Pre,2021_Oct_28_1045,Go No-Go Task,2021.1.4,118.77923442635712,
EPracticeConditions/BlueScram.csv,"Rule: When you see a blue image, do not press 'spacebar'.",Images/Scram1/AM03NES.jpg,Scramble,Yellow,Images/Yellow.jpg,space,,,,,,,0,2,2,2,0,4,4,4,,,,,,,,,,,,,,,,,,,,,,,,,,,,,,,,,,,,,,,,,,,,,,,,,,,1.3,312.0330446999287,None,None,0,313.4417562999297,None,313.4417562999297,None,313.4417562999297,None,314.3482072999468,None,,,,,,,,,,,,,,,,,,,,,,,,,,,,,,,,,,,,,,,,,,,,,,,,,,P017,fencog,1,Pre,2021_Oct_28_1045,Go No-Go Task,2021.1.4,118.77923442635712,
EPracticeConditions/BlueScram.csv,"Rule: When you see a blue image, do not press 'spacebar'.",Images/Scram1/BF18_NC.jpg,Scramble,Blue,Images/Blue.jpg,None,,,,,,,0,2,2,2,0,5,5,1,,,,,,,,,,,,,,,,,,,,,,,,,,,,,,,,,,,,,,,,,,,,,,,,,,,1.5,316.3399277999997,None,None,1,317.94040999992285,None,317.94040999992285,None,317.94040999992285,None,318.8378489000024,None,,,,,,,,,,,,,,,,,,,,,,,,,,,,,,,,,,,,,,,,,,,,,,,,,,P017,fencog,1,Pre,2021_Oct_28_1045,Go No-Go Task,2021.1.4,118.77923442635712,
EPracticeConditions/BlueScram.csv,"Rule: When you see a blue image, do not press 'spacebar'.",Images/Scram2/AM03_NC.jpg,Scramble,Yellow,Images/Yellow.jpg,space,,,,,,,0,2,2,2,0,6,6,6,,,,,,,,,,,,,,,,,,,,,,,,,,,,,,,,,,,,,,,,,,,,,,,,,,,1.7,320.83863399992697,None,space,1,322.65572129993234,None,322.65572129993234,None,322.65572129993234,None,323.53782389999833,None,0.25296039995737374,,,,,,,,,,,,,,,,,,,,,,,,,,,,,,,,,,,,,,,,,,,,,,,,,P017,fencog,1,Pre,2021_Oct_28_1045,Go No-Go Task,2021.1.4,118.77923442635712,
EPracticeConditions/BlueScram.csv,"Rule: When you see a blue image, do not press 'spacebar'.",Images/Scram2/AF10_NC.jpg,Scramble,Yellow,Images/Yellow.jpg,space,,,,,,,0,2,2,2,0,7,7,2,,,,,,,,,,,,,,,,,,,,,,,,,,,,,,,,,,,,,,,,,,,,,,,,,,,1.2,325.5374986999668,None,space,1,326.85432499996386,None,326.85432499996386,None,326.85432499996386,None,327.74382999993395,None,0.28653529996518046,,,,,,,,,,,,,,,,,,,,,,,,,,,,,,,,,,,,,,,,,,,,,,,,,P017,fencog,1,Pre,2021_Oct_28_1045,Go No-Go Task,2021.1.4,118.77923442635712,
EPracticeConditions/BlueScram.csv,"Rule: When you see a blue image, do not press 'spacebar'.",,,,,,,,,,,,0,2,2,2,,,,,,,,,,,,,,,,,,,,,,,,,,,,,,,,,,,,,,,,,,,,,,,,,,,,,,,,,,,,,,,,,,,,,,,,,,,,,,,,,,,,,,,,,,,,,,,,,,,,,,,,,,,,,,,,,,,,,P017,fencog,1,Pre,2021_Oct_28_1045,Go No-Go Task,2021.1.4,118.77923442635712,
EPracticeConditions/YellowScram.csv,"Rule: When you see a yellow image, do not press 'spacebar'.",Images/Scram1/AF10_NC.jpg,Scramble,Blue,Images/Blue.jpg,space,,,,,,,0,3,3,3,0,0,0,6,,,,,,,,,,,,,,,,,,,,,,,,,,,,,,,,,,,,,329.75279929989483,None,332.7352339999052,None,space,4.397162599954754,332.7352339999052,None,329.75279929989483,None,329.75279929989483,None,329.75279929989483,None,1.7,337.16741469991393,None,None,0,338.96768549992703,None,338.96768549992703,None,338.96768549992703,None,339.8747782999417,None,,,,,,,,,,,,,,,,,,,,,,,,,,,,,,,,,,,,,,,,,,,,,,,,,,P017,fencog,1,Pre,2021_Oct_28_1045,Go No-Go Task,2021.1.4,118.77923442635712,
EPracticeConditions/YellowScram.csv,"Rule: When you see a yellow image, do not press 'spacebar'.",Images/Scram1/AF30NES.JPG,Scramble,Blue,Images/Blue.jpg,space,,,,,,,0,3,3,3,0,1,1,4,,,,,,,,,,,,,,,,,,,,,,,,,,,,,,,,,,,,,,,,,,,,,,,,,,,1.4,341.88053759990726,None,space,1,343.3912225998938,None,343.3912225998938,None,343.3912225998938,None,344.2818382999394,None,0.2614904000656679,,,,,,,,,,,,,,,,,,,,,,,,,,,,,,,,,,,,,,,,,,,,,,,,,P017,fencog,1,Pre,2021_Oct_28_1045,Go No-Go Task,2021.1.4,118.77923442635712,
EPracticeConditions/YellowScram.csv,"Rule: When you see a yellow image, do not press 'spacebar'.",Images/Scram1/BM01_NC.jpg,Scramble,Blue,Images/Blue.jpg,space,,,,,,,0,3,3,3,0,2,2,5,,,,,,,,,,,,,,,,,,,,,,,,,,,,,,,,,,,,,,,,,,,,,,,,,,,1.2,346.28132049995475,None,space,1,347.57295939989854,None,347.57295939989854,None,347.57295939989854,None,348.4779466999462,None,0.2806249000132084,,,,,,,,,,,,,,,,,,,,,,,,,,,,,,,,,,,,,,,,,,,,,,,,,P017,fencog,1,Pre,2021_Oct_28_1045,Go No-Go Task,2021.1.4,118.77923442635712,
EPracticeConditions/YellowScram.csv,"Rule: When you see a yellow image, do not press 'spacebar'.",Images/Scram2/HM06_NC.jpg,Scramble,Yellow,Images/Yellow.jpg,None,,,,,,,0,3,3,3,0,3,3,0,,,,,,,,,,,,,,,,,,,,,,,,,,,,,,,,,,,,,,,,,,,,,,,,,,,1.5,350.48110759991687,None,None,1,352.08869279990904,None,352.08869279990904,None,352.08869279990904,None,352.9851523999823,None,,,,,,,,,,,,,,,,,,,,,,,,,,,,,,,,,,,,,,,,,,,,,,,,,,P017,fencog,1,Pre,2021_Oct_28_1045,Go No-Go Task,2021.1.4,118.77923442635712,
EPracticeConditions/YellowScram.csv,"Rule: When you see a yellow image, do not press 'spacebar'.",Images/Scram1/AF07NES.jpg,Scramble,Blue,Images/Blue.jpg,space,,,,,,,0,3,3,3,0,4,4,3,,,,,,,,,,,,,,,,,,,,,,,,,,,,,,,,,,,,,,,,,,,,,,,,,,,1.8,354.9959496000083,None,space,1,356.91229809995275,None,356.91229809995275,None,356.91229809995275,None,357.8024240999948,None,0.2358963000588119,,,,,,,,,,,,,,,,,,,,,,,,,,,,,,,,,,,,,,,,,,,,,,,,,P017,fencog,1,Pre,2021_Oct_28_1045,Go No-Go Task,2021.1.4,118.77923442635712,
EPracticeConditions/YellowScram.csv,"Rule: When you see a yellow image, do not press 'spacebar'.",Images/Scram1/AF24NES.jpg,Scramble,Blue,Images/Blue.jpg,space,,,,,,,0,3,3,3,0,5,5,7,,,,,,,,,,,,,,,,,,,,,,,,,,,,,,,,,,,,,,,,,,,,,,,,,,,1.9,359.81091030000243,None,space,1,361.8108200998977,None,361.8108200998977,None,361.8108200998977,None,362.71644459990785,None,0.24969299999065697,,,,,,,,,,,,,,,,,,,,,,,,,,,,,,,,,,,,,,,,,,,,,,,,,P017,fencog,1,Pre,2021_Oct_28_1045,Go No-Go Task,2021.1.4,118.77923442635712,
EPracticeConditions/YellowScram.csv,"Rule: When you see a yellow image, do not press 'spacebar'.",Images/Scram1/HF04_NC.jpg,Scramble,Blue,Images/Blue.jpg,space,,,,,,,0,3,3,3,0,6,6,2,,,,,,,,,,,,,,,,,,,,,,,,,,,,,,,,,,,,,,,,,,,,,,,,,,,1.6,364.71746039995924,None,None,0,366.4177402999485,None,366.4177402999485,None,366.4177402999485,None,367.3163963999832,None,,,,,,,,,,,,,,,,,,,,,,,,,,,,,,,,,,,,,,,,,,,,,,,,,,P017,fencog,1,Pre,2021_Oct_28_1045,Go No-Go Task,2021.1.4,118.77923442635712,
EPracticeConditions/YellowScram.csv,"Rule: When you see a yellow image, do not press 'spacebar'.",Images/Scram2/AM03NES.jpg,Scramble,Yellow,Images/Yellow.jpg,None,,,,,,,0,3,3,3,0,7,7,1,,,,,,,,,,,,,,,,,,,,,,,,,,,,,,,,,,,,,,,,,,,,,,,,,,,1.3,369.3237806999823,None,None,1,370.73318079998717,None,370.73318079998717,None,370.73318079998717,None,371.62941609998234,None,,,,,,,,,,,,,,,,,,,,,,,,,,,,,,,,,,,,,,,,,,,,,,,,,,P017,fencog,1,Pre,2021_Oct_28_1045,Go No-Go Task,2021.1.4,118.77923442635712,
EPracticeConditions/YellowScram.csv,"Rule: When you see a yellow image, do not press 'spacebar'.",,,,,,,,,,,,0,3,3,3,,,,,,,,,,,,,,,,,,,,,,,,,,,,,,,,,,,,,,,,,,,,,,,,,,,,,,,,,,,,,,,,,,,,,,,,,,,,,,,,,,,,,,,,,,,,,,,,,,,,,,,,,,,,,,,,,,,,,P017,fencog,1,Pre,2021_Oct_28_1045,Go No-Go Task,2021.1.4,118.77923442635712,
,,,,,,,,,,,,,,,,,,,,,,,,,,,,,,,,,,,,,,,,,,,,,,,,,,,,,,,,,,,,,,,,,,,,,,,,,,,,,,,,,,,,,374.98467839998193,None,space,3.7967606000602245,375.46457939990796,None,,,,,,,,,,,,,,,,,,,,,,,,,,,,,,,,,,,,,,,,,,,P017,fencog,1,Pre,2021_Oct_28_1045,Go No-Go Task,2021.1.4,118.77923442635712,
,,,,,,,,,,,,,,,,,,,,,,,,,,,,,,,,,,,,,,,,,,,,,,,,,,,,,,,,,,,,,,,,,,,,,,,,,,,,,,,,,,,,,,,,,,,379.2719853000017,None,space,2.27717220003251,379.2719853000017,None,,,,,,,,,,,,,,,,,,,,,,,,,,,,,,,,,,,,,P017,fencog,1,Pre,2021_Oct_28_1045,Go No-Go Task,2021.1.4,118.77923442635712,
,"Rule: When you see a yellow image, do not press 'spacebar'.",Images/Fearful/BM02_FC.jpg,Fear,Blue,Images/Blue.jpg,space,ParentConditions/YellowBlueBlue_v1.xlsx,BlueBlueYellow,Conditions/Version_1/YellowHappyStop.xlsx,no,PASS,0.44148177898618846,,,,,,,,,0,0,0,0,0,0,0,0,0,0,0,0,,,,,,,,,,,,,,,,,,,,,,,,,,,,,,,,,,,,,,,,,,,,,,,,,,,,,,,,,,,,,,,,,381.6576892999001,None,384.6449384998996,None,space,1.8079264999832958,384.6449384998996,None,381.6576892999001,None,381.6576892999001,None,381.6576892999001,None,1.76,386.5024581999751,None,space,1,0.2667490999447182,388.36963929992635,None,388.36963929992635,None,388.36963929992635,None,,,,,,,,,,,P017,fencog,1,Pre,2021_Oct_28_1045,Go No-Go Task,2021.1.4,118.77923442635712,
,"Rule: When you see a yellow image, do not press 'spacebar'.",Images/Fearful/HF05_FC.jpg,Fear,Blue,Images/Blue.jpg,space,ParentConditions/YellowBlueBlue_v1.xlsx,BlueBlueYellow,Conditions/Version_1/YellowHappyStop.xlsx,no,PASS,0.49496512693563743,,,,,,,,,0,0,0,0,0,0,0,0,0,1,1,1,,,,,,,,,,,,,,,,,,,,,,,,,,,,,,,,,,,,,,,,,,,,,,,,,,,,,,,,,,,,,,,,,,,,,,,,,,,,,,,1.51,388.7688711999217,None,space,1,0.28278279991354793,390.38560299994424,None,390.38560299994424,None,390.38560299994424,None,,,,,,,,,,,P017,fencog,1,Pre,2021_Oct_28_1045,Go No-Go Task,2021.1.4,118.77923442635712,
,"Rule: When you see a yellow image, do not press 'spacebar'.",Images/Happy/AF32HAS.jpg,Happy,Yellow,Images/Yellow.jpg,None,ParentConditions/YellowBlueBlue_v1.xlsx,BlueBlueYellow,Conditions/Version_1/YellowHappyStop.xlsx,yes,PASS,0.3690153910902233,,,,,,,,,0,0,0,0,0,0,0,0,0,2,2,2,,,,,,,,,,,,,,,,,,,,,,,,,,,,,,,,,,,,,,,,,,,,,,,,,,,,,,,,,,,,,,,,,,,,,,,,,,,,,,,1.24,390.78485129994806,None,None,1,,392.12675219995435,None,392.12675219995435,None,392.12675219995435,None,,,,,,,,,,,P017,fencog,1,Pre,2021_Oct_28_1045,Go No-Go Task,2021.1.4,118.77923442635712,
,"Rule: When you see a yellow image, do not press 'spacebar'.",Images/Happy/AM32HAS.jpg,Happy,Yellow,Images/Yellow.jpg,None,ParentConditions/YellowBlueBlue_v1.xlsx,BlueBlueYellow,Conditions/Version_1/YellowHappyStop.xlsx,yes,PASS,0.09240134349582851,,,,,,,,,0,0,0,0,0,0,0,0,0,3,3,3,,,,,,,,,,,,,,,,,,,,,,,,,,,,,,,,,,,,,,,,,,,,,,,,,,,,,,,,,,,,,,,,,,,,,,,,,,,,,,,1.55,392.53092229994945,None,None,1,,394.1844563999912,None,394.1844563999912,None,394.1844563999912,None,,,,,,,,,,,P017,fencog,1,Pre,2021_Oct_28_1045,Go No-Go Task,2021.1.4,118.77923442635712,
,"Rule: When you see a yellow image, do not press 'spacebar'.",Images/Fearful/AF07FS.jpg,Fear,Blue,Images/Blue.jpg,space,ParentConditions/YellowBlueBlue_v1.xlsx,BlueBlueYellow,Conditions/Version_1/YellowHappyStop.xlsx,no,PASS,0.4013300010309635,,,,,,,,,0,0,0,0,0,0,0,0,0,4,4,4,,,,,,,,,,,,,,,,,,,,,,,,,,,,,,,,,,,,,,,,,,,,,,,,,,,,,,,,,,,,,,,,,,,,,,,,,,,,,,,1.36,394.58766769990325,None,space,1,0.2743700999999419,396.05065979994833,None,396.05065979994833,None,396.05065979994833,None,,,,,,,,,,,P017,fencog,1,Pre,2021_Oct_28_1045,Go No-Go Task,2021.1.4,118.77923442635712,
,"Rule: When you see a yellow image, do not press 'spacebar'.",Images/Fearful/AM30AFS.jpg,Fear,Blue,Images/Blue.jpg,space,ParentConditions/YellowBlueBlue_v1.xlsx,BlueBlueYellow,Conditions/Version_1/YellowHappyStop.xlsx,no,PASS,0.5026512951867452,,,,,,,,,0,0,0,0,0,0,0,0,0,5,5,5,,,,,,,,,,,,,,,,,,,,,,,,,,,,,,,,,,,,,,,,,,,,,,,,,,,,,,,,,,,,,,,,,,,,,,,,,,,,,,,1.53,396.45062009990215,None,space,1,0.2899075000314042,398.08337669994216,None,398.08337669994216,None,398.08337669994216,None,,,,,,,,,,,P017,fencog,1,Pre,2021_Oct_28_1045,Go No-Go Task,2021.1.4,118.77923442635712,
,"Rule: When you see a yellow image, do not press 'spacebar'.",Images/Happy/BM03_HO.jpg,Happy,Yellow,Images/Yellow.jpg,None,ParentConditions/YellowBlueBlue_v1.xlsx,BlueBlueYellow,Conditions/Version_1/YellowHappyStop.xlsx,yes,PASS,0.3904556138764915,,,,,,,,,0,0,0,0,0,0,0,0,0,6,6,6,,,,,,,,,,,,,,,,,,,,,,,,,,,,,,,,,,,,,,,,,,,,,,,,,,,,,,,,,,,,,,,,,,,,,,,,,,,,,,,1.26,398.48558259999845,None,None,1,,399.85781499999575,None,399.85781499999575,None,399.85781499999575,None,,,,,,,,,,,P017,fencog,1,Pre,2021_Oct_28_1045,Go No-Go Task,2021.1.4,118.77923442635712,
,"Rule: When you see a yellow image, do not press 'spacebar'.",Images/Fearful/HM06_FC.jpg,Fear,Blue,Images/Blue.jpg,space,ParentConditions/YellowBlueBlue_v1.xlsx,BlueBlueYellow,Conditions/Version_1/YellowHappyStop.xlsx,no,PASS,0.8295870874618959,,,,,,,,,0,0,0,0,0,0,0,0,0,7,7,7,,,,,,,,,,,,,,,,,,,,,,,,,,,,,,,,,,,,,,,,,,,,,,,,,,,,,,,,,,,,,,,,,,,,,,,,,,,,,,,1.3,400.25524809991475,None,space,1,0.25925460003782064,401.65727929992136,None,401.65727929992136,None,401.65727929992136,None,,,,,,,,,,,P017,fencog,1,Pre,2021_Oct_28_1045,Go No-Go Task,2021.1.4,118.77923442635712,
,"Rule: When you see a yellow image, do not press 'spacebar'.",Images/Fearful/AF19AFS.jpg,Fear,Blue,Images/Blue.jpg,space,ParentConditions/YellowBlueBlue_v1.xlsx,BlueBlueYellow,Conditions/Version_1/YellowHappyStop.xlsx,no,PASS,0.31457189280880904,,,,,,,,,0,0,0,0,0,0,0,0,0,8,8,8,,,,,,,,,,,,,,,,,,,,,,,,,,,,,,,,,,,,,,,,,,,,,,,,,,,,,,,,,,,,,,,,,,,,,,,,,,,,,,,1.4,402.0566961999284,None,space,1,0.3518434000434354,403.5733586999122,None,403.5733586999122,None,403.5733586999122,None,,,,,,,,,,,P017,fencog,1,Pre,2021_Oct_28_1045,Go No-Go Task,2021.1.4,118.77923442635712,
,"Rule: When you see a yellow image, do not press 'spacebar'.",Images/Happy/AF30HAS.jpg,Happy,Yellow,Images/Yellow.jpg,None,ParentConditions/YellowBlueBlue_v1.xlsx,BlueBlueYellow,Conditions/Version_1/YellowHappyStop.xlsx,yes,PASS,0.14544836048525234,,,,,,,,,0,0,0,0,0,0,0,0,0,9,9,9,,,,,,,,,,,,,,,,,,,,,,,,,,,,,,,,,,,,,,,,,,,,,,,,,,,,,,,,,,,,,,,,,,,,,,,,,,,,,,,1.33,403.964229999925,None,None,1,,405.3977993999142,None,405.3977993999142,None,405.3977993999142,None,,,,,,,,,,,P017,fencog,1,Pre,2021_Oct_28_1045,Go No-Go Task,2021.1.4,118.77923442635712,
,"Rule: When you see a yellow image, do not press 'spacebar'.",Images/Fearful/AF25AFS.jpg,Fear,Blue,Images/Blue.jpg,space,ParentConditions/YellowBlueBlue_v1.xlsx,BlueBlueYellow,Conditions/Version_1/YellowHappyStop.xlsx,no,PASS,0.31319631990865415,,,,,,,,,0,0,0,0,0,0,0,0,0,10,10,10,,,,,,,,,,,,,,,,,,,,,,,,,,,,,,,,,,,,,,,,,,,,,,,,,,,,,,,,,,,,,,,,,,,,,,,,,,,,,,,1.37,405.79696849989705,None,space,1,0.25985140004195273,407.2723412999185,None,407.2723412999185,None,407.2723412999185,None,,,,,,,,,,,P017,fencog,1,Pre,2021_Oct_28_1045,Go No-Go Task,2021.1.4,118.77923442635712,
,"Rule: When you see a yellow image, do not press 'spacebar'.",Images/Fearful/AF30AFS.jpg,Fear,Blue,Images/Blue.jpg,space,ParentConditions/YellowBlueBlue_v1.xlsx,BlueBlueYellow,Conditions/Version_1/YellowHappyStop.xlsx,no,PASS,0.9854799433848976,,,,,,,,,0,0,0,0,0,0,0,0,0,11,11,11,,,,,,,,,,,,,,,,,,,,,,,,,,,,,,,,,,,,,,,,,,,,,,,,,,,,,,,,,,,,,,,,,,,,,,,,,,,,,,,1.91,407.6727496999083,None,space,1,0.25269049999769777,409.68823589989915,None,409.68823589989915,None,409.68823589989915,None,,,,,,,,,,,P017,fencog,1,Pre,2021_Oct_28_1045,Go No-Go Task,2021.1.4,118.77923442635712,
,"Rule: When you see a yellow image, do not press 'spacebar'.",Images/Happy/BF10_HO.jpg,Happy,Yellow,Images/Yellow.jpg,None,ParentConditions/YellowBlueBlue_v1.xlsx,BlueBlueYellow,Conditions/Version_1/YellowHappyStop.xlsx,yes,PASS,0.9368187318754497,,,,,,,,,0,0,0,0,0,0,0,0,0,12,12,12,,,,,,,,,,,,,,,,,,,,,,,,,,,,,,,,,,,,,,,,,,,,,,,,,,,,,,,,,,,,,,,,,,,,,,,,,,,,,,,1.81,410.0941349999048,None,None,1,,412.0041727999924,None,412.0041727999924,None,412.0041727999924,None,,,,,,,,,,,P017,fencog,1,Pre,2021_Oct_28_1045,Go No-Go Task,2021.1.4,118.77923442635712,
,"Rule: When you see a yellow image, do not press 'spacebar'.",Images/Fearful/AM06_FO.jpg,Fear,Blue,Images/Blue.jpg,space,ParentConditions/YellowBlueBlue_v1.xlsx,BlueBlueYellow,Conditions/Version_1/YellowHappyStop.xlsx,no,PASS,0.6030700196123316,,,,,,,,,0,0,0,0,0,0,0,0,0,13,13,13,,,,,,,,,,,,,,,,,,,,,,,,,,,,,,,,,,,,,,,,,,,,,,,,,,,,,,,,,,,,,,,,,,,,,,,,,,,,,,,1.45,412.4049493999919,None,space,1,0.28224109997972846,413.9702188000083,None,413.9702188000083,None,413.9702188000083,None,,,,,,,,,,,P017,fencog,1,Pre,2021_Oct_28_1045,Go No-Go Task,2021.1.4,118.77923442635712,
,"Rule: When you see a yellow image, do not press 'spacebar'.",Images/Happy/AM24HAS.jpg,Happy,Yellow,Images/Yellow.jpg,None,ParentConditions/YellowBlueBlue_v1.xlsx,BlueBlueYellow,Conditions/Version_1/YellowHappyStop.xlsx,yes,PASS,0.8401488188278822,,,,,,,,,0,0,0,0,0,0,0,0,0,14,14,14,,,,,,,,,,,,,,,,,,,,,,,,,,,,,,,,,,,,,,,,,,,,,,,,,,,,,,,,,,,,,,,,,,,,,,,,,,,,,,,1.47,414.3691519999411,None,None,1,,415.9447973999195,None,415.9447973999195,None,415.9447973999195,None,,,,,,,,,,,P017,fencog,1,Pre,2021_Oct_28_1045,Go No-Go Task,2021.1.4,118.77923442635712,
,"Rule: When you see a yellow image, do not press 'spacebar'.",Images/Fearful/AF21AFS.jpg,Fear,Blue,Images/Blue.jpg,space,ParentConditions/YellowBlueBlue_v1.xlsx,BlueBlueYellow,Conditions/Version_1/YellowHappyStop.xlsx,no,PASS,0.9561052396726243,,,,,,,,,0,0,0,0,0,0,0,0,0,15,15,15,,,,,,,,,,,,,,,,,,,,,,,,,,,,,,,,,,,,,,,,,,,,,,,,,,,,,,,,,,,,,,,,,,,,,,,,,,,,,,,1.67,416.34741129993927,None,space,1,0.2459448000881821,418.1191012999043,None,418.1191012999043,None,418.1191012999043,None,,,,,,,,,,,P017,fencog,1,Pre,2021_Oct_28_1045,Go No-Go Task,2021.1.4,118.77923442635712,
,"Rule: When you see a yellow image, do not press 'spacebar'.",Images/Happy/AM06_HC.jpg,Happy,Yellow,Images/Yellow.jpg,None,ParentConditions/YellowBlueBlue_v1.xlsx,BlueBlueYellow,Conditions/Version_1/YellowHappyStop.xlsx,yes,PASS,0.36325944609889094,,,,,,,,,0,0,0,0,0,0,0,0,0,16,16,16,,,,,,,,,,,,,,,,,,,,,,,,,,,,,,,,,,,,,,,,,,,,,,,,,,,,,,,,,,,,,,,,,,,,,,,,,,,,,,,1.32,418.5191185999429,None,None,1,,419.9433898999123,None,419.9433898999123,None,419.9433898999123,None,,,,,,,,,,,P017,fencog,1,Pre,2021_Oct_28_1045,Go No-Go Task,2021.1.4,118.77923442635712,
,"Rule: When you see a yellow image, do not press 'spacebar'.",Images/Fearful/AF10_FC.jpg,Fear,Blue,Images/Blue.jpg,space,ParentConditions/YellowBlueBlue_v1.xlsx,BlueBlueYellow,Conditions/Version_1/YellowHappyStop.xlsx,no,PASS,0.09357566512353055,,,,,,,,,0,0,0,0,0,0,0,0,0,17,17,17,,,,,,,,,,,,,,,,,,,,,,,,,,,,,,,,,,,,,,,,,,,,,,,,,,,,,,,,,,,,,,,,,,,,,,,,,,,,,,,1.65,420.3448696999112,None,space,1,0.23261289997026324,422.101184799918,None,422.101184799918,None,422.101184799918,None,,,,,,,,,,,P017,fencog,1,Pre,2021_Oct_28_1045,Go No-Go Task,2021.1.4,118.77923442635712,
,"Rule: When you see a yellow image, do not press 'spacebar'.",Images/Fearful/BM03_FC.jpg,Fear,Blue,Images/Blue.jpg,space,ParentConditions/YellowBlueBlue_v1.xlsx,BlueBlueYellow,Conditions/Version_1/YellowHappyStop.xlsx,no,PASS,0.789884489320339,,,,,,,,,0,0,0,0,0,0,0,0,0,18,18,18,,,,,,,,,,,,,,,,,,,,,,,,,,,,,,,,,,,,,,,,,,,,,,,,,,,,,,,,,,,,,,,,,,,,,,,,,,,,,,,1.58,422.5006878999993,None,space,1,0.3244192000711337,424.1839081000071,None,424.1839081000071,None,424.1839081000071,None,,,,,,,,,,,P017,fencog,1,Pre,2021_Oct_28_1045,Go No-Go Task,2021.1.4,118.77923442635712,
,"Rule: When you see a yellow image, do not press 'spacebar'.",Images/Fearful/HM09_FC.jpg,Fear,Blue,Images/Blue.jpg,space,ParentConditions/YellowBlueBlue_v1.xlsx,BlueBlueYellow,Conditions/Version_1/YellowHappyStop.xlsx,no,PASS,0.8198583361260475,,,,,,,,,0,0,0,0,0,0,0,0,0,19,19,19,,,,,,,,,,,,,,,,,,,,,,,,,,,,,,,,,,,,,,,,,,,,,,,,,,,,,,,,,,,,,,,,,,,,,,,,,,,,,,,1.59,424.5835907999426,None,space,1,0.34587959991768,426.27501609991305,None,426.27501609991305,None,426.27501609991305,None,,,,,,,,,,,P017,fencog,1,Pre,2021_Oct_28_1045,Go No-Go Task,2021.1.4,118.77923442635712,
,"Rule: When you see a yellow image, do not press 'spacebar'.",Images/Fearful/AM04_FO.jpg,Fear,Blue,Images/Blue.jpg,space,ParentConditions/YellowBlueBlue_v1.xlsx,BlueBlueYellow,Conditions/Version_1/YellowHappyStop.xlsx,no,PASS,0.9595350245966109,,,,,,,,,0,0,0,0,0,0,0,0,0,20,20,20,,,,,,,,,,,,,,,,,,,,,,,,,,,,,,,,,,,,,,,,,,,,,,,,,,,,,,,,,,,,,,,,,,,,,,,,,,,,,,,2,426.6739960999694,None,space,1,0.26139800006058067,428.7742079999298,None,428.7742079999298,None,428.7742079999298,None,,,,,,,,,,,P017,fencog,1,Pre,2021_Oct_28_1045,Go No-Go Task,2021.1.4,118.77923442635712,
,"Rule: When you see a yellow image, do not press 'spacebar'.",Images/Fearful/AF11AFS.jpg,Fear,Blue,Images/Blue.jpg,space,ParentConditions/YellowBlueBlue_v1.xlsx,BlueBlueYellow,Conditions/Version_1/YellowHappyStop.xlsx,no,PASS,0.7276184017912607,,,,,,,,,0,0,0,0,0,0,0,0,0,21,21,21,,,,,,,,,,,,,,,,,,,,,,,,,,,,,,,,,,,,,,,,,,,,,,,,,,,,,,,,,,,,,,,,,,,,,,,,,,,,,,,1.25,429.17415529990103,None,space,1,0.23189240007195622,430.5403584999731,None,430.5403584999731,None,430.5403584999731,None,,,,,,,,,,,P017,fencog,1,Pre,2021_Oct_28_1045,Go No-Go Task,2021.1.4,118.77923442635712,
,"Rule: When you see a yellow image, do not press 'spacebar'.",Images/Fearful/AM10_FO.jpg,Fear,Blue,Images/Blue.jpg,space,ParentConditions/YellowBlueBlue_v1.xlsx,BlueBlueYellow,Conditions/Version_1/YellowHappyStop.xlsx,no,PASS,0.7995855816230459,,,,,,,,,0,0,0,0,0,0,0,0,0,22,22,22,,,,,,,,,,,,,,,,,,,,,,,,,,,,,,,,,,,,,,,,,,,,,,,,,,,,,,,,,,,,,,,,,,,,,,,,,,,,,,,1.5,430.9310535999248,None,space,1,0.2812623999780044,432.5314953000052,None,432.5314953000052,None,432.5314953000052,None,,,,,,,,,,,P017,fencog,1,Pre,2021_Oct_28_1045,Go No-Go Task,2021.1.4,118.77923442635712,
,"Rule: When you see a yellow image, do not press 'spacebar'.",Images/Fearful/WF04_FC.jpg,Fear,Blue,Images/Blue.jpg,space,ParentConditions/YellowBlueBlue_v1.xlsx,BlueBlueYellow,Conditions/Version_1/YellowHappyStop.xlsx,no,PASS,0.007163238332436372,,,,,,,,,0,0,0,0,0,0,0,0,0,23,23,23,,,,,,,,,,,,,,,,,,,,,,,,,,,,,,,,,,,,,,,,,,,,,,,,,,,,,,,,,,,,,,,,,,,,,,,,,,,,,,,1.99,432.938903799979,None,space,1,0.37404450005851686,435.0390466999961,None,435.0390466999961,None,435.0390466999961,None,,,,,,,,,,,P017,fencog,1,Pre,2021_Oct_28_1045,Go No-Go Task,2021.1.4,118.77923442635712,
,"Rule: When you see a yellow image, do not press 'spacebar'.",Images/Fearful/AF28AFS.jpg,Fear,Blue,Images/Blue.jpg,space,ParentConditions/YellowBlueBlue_v1.xlsx,BlueBlueYellow,Conditions/Version_1/YellowHappyStop.xlsx,no,PASS,0.6578574406316495,,,,,,,,,0,0,0,0,0,0,0,0,0,24,24,24,,,,,,,,,,,,,,,,,,,,,,,,,,,,,,,,,,,,,,,,,,,,,,,,,,,,,,,,,,,,,,,,,,,,,,,,,,,,,,,1.82,435.43223869998474,None,space,1,0.3289967000018805,437.3634046999505,None,437.3634046999505,None,437.3634046999505,None,,,,,,,,,,,P017,fencog,1,Pre,2021_Oct_28_1045,Go No-Go Task,2021.1.4,118.77923442635712,
,"Rule: When you see a yellow image, do not press 'spacebar'.",Images/Fearful/WF11_FC.jpg,Fear,Blue,Images/Blue.jpg,space,ParentConditions/YellowBlueBlue_v1.xlsx,BlueBlueYellow,Conditions/Version_1/YellowHappyStop.xlsx,no,PASS,0.16001068916200367,,,,,,,,,0,0,0,0,0,0,0,0,0,25,25,25,,,,,,,,,,,,,,,,,,,,,,,,,,,,,,,,,,,,,,,,,,,,,,,,,,,,,,,,,,,,,,,,,,,,,,,,,,,,,,,1.88,437.76240159990266,None,space,1,0.2349303999217227,439.7459647000069,None,439.7459647000069,None,439.7459647000069,None,,,,,,,,,,,P017,fencog,1,Pre,2021_Oct_28_1045,Go No-Go Task,2021.1.4,118.77923442635712,
,"Rule: When you see a yellow image, do not press 'spacebar'.",Images/Fearful/AM17AFS.jpg,Fear,Blue,Images/Blue.jpg,space,ParentConditions/YellowBlueBlue_v1.xlsx,BlueBlueYellow,Conditions/Version_1/YellowHappyStop.xlsx,no,PASS,0.11773651559349041,,,,,,,,,0,0,0,0,0,0,0,0,0,26,26,26,,,,,,,,,,,,,,,,,,,,,,,,,,,,,,,,,,,,,,,,,,,,,,,,,,,,,,,,,,,,,,,,,,,,,,,,,,,,,,,1.38,440.1547554999124,None,space,1,0.32684550003614277,441.6371893999167,None,441.6371893999167,None,441.6371893999167,None,,,,,,,,,,,P017,fencog,1,Pre,2021_Oct_28_1045,Go No-Go Task,2021.1.4,118.77923442635712,
,"Rule: When you see a yellow image, do not press 'spacebar'.",Images/Happy/AF27HAS.jpg,Happy,Yellow,Images/Yellow.jpg,None,ParentConditions/YellowBlueBlue_v1.xlsx,BlueBlueYellow,Conditions/Version_1/YellowHappyStop.xlsx,yes,PASS,0.3141869564869746,,,,,,,,,0,0,0,0,0,0,0,0,0,27,27,27,,,,,,,,,,,,,,,,,,,,,,,,,,,,,,,,,,,,,,,,,,,,,,,,,,,,,,,,,,,,,,,,,,,,,,,,,,,,,,,1.96,442.04183609993197,None,None,1,,444.1029649999691,None,444.1029649999691,None,444.1029649999691,None,,,,,,,,,,,P017,fencog,1,Pre,2021_Oct_28_1045,Go No-Go Task,2021.1.4,118.77923442635712,
,"Rule: When you see a yellow image, do not press 'spacebar'.",Images/Fearful/BF10_FO.jpg,Fear,Blue,Images/Blue.jpg,space,ParentConditions/YellowBlueBlue_v1.xlsx,BlueBlueYellow,Conditions/Version_1/YellowHappyStop.xlsx,no,PASS,0.6473836402289548,,,,,,,,,0,0,0,0,0,0,0,0,0,28,28,28,,,,,,,,,,,,,,,,,,,,,,,,,,,,,,,,,,,,,,,,,,,,,,,,,,,,,,,,,,,,,,,,,,,,,,,,,,,,,,,1.21,444.5021445999155,None,space,1,0.2805462999967858,445.8276217998937,None,445.8276217998937,None,445.8276217998937,None,,,,,,,,,,,P017,fencog,1,Pre,2021_Oct_28_1045,Go No-Go Task,2021.1.4,118.77923442635712,
,"Rule: When you see a yellow image, do not press 'spacebar'.",Images/Fearful/HF04_FO.jpg,Fear,Blue,Images/Blue.jpg,space,ParentConditions/YellowBlueBlue_v1.xlsx,BlueBlueYellow,Conditions/Version_1/YellowHappyStop.xlsx,no,PASS,0.6573655365841123,,,,,,,,,0,0,0,0,0,0,0,0,0,29,29,29,,,,,,,,,,,,,,,,,,,,,,,,,,,,,,,,,,,,,,,,,,,,,,,,,,,,,,,,,,,,,,,,,,,,,,,,,,,,,,,1.57,446.22459989995696,None,space,1,0.2300746999680996,447.91002339997794,None,447.91002339997794,None,447.91002339997794,None,,,,,,,,,,,P017,fencog,1,Pre,2021_Oct_28_1045,Go No-Go Task,2021.1.4,118.77923442635712,
,"Rule: When you see a yellow image, do not press 'spacebar'.",Images/Happy/AF26HAS.jpg,Happy,Yellow,Images/Yellow.jpg,None,ParentConditions/YellowBlueBlue_v1.xlsx,BlueBlueYellow,Conditions/Version_1/YellowHappyStop.xlsx,yes,PASS,0.9634288273569958,,,,,,,,,0,0,0,0,0,0,0,0,0,30,30,30,,,,,,,,,,,,,,,,,,,,,,,,,,,,,,,,,,,,,,,,,,,,,,,,,,,,,,,,,,,,,,,,,,,,,,,,,,,,,,,1.71,448.307547000004,None,None,1,,450.11804249999113,None,450.11804249999113,None,450.11804249999113,None,,,,,,,,,,,P017,fencog,1,Pre,2021_Oct_28_1045,Go No-Go Task,2021.1.4,118.77923442635712,
,"Rule: When you see a yellow image, do not press 'spacebar'.",Images/Happy/HF09_HE.jpg,Happy,Yellow,Images/Yellow.jpg,None,ParentConditions/YellowBlueBlue_v1.xlsx,BlueBlueYellow,Conditions/Version_1/YellowHappyStop.xlsx,yes,PASS,0.28002812366142005,,,,,,,,,0,0,0,0,0,0,0,0,0,31,31,31,,,,,,,,,,,,,,,,,,,,,,,,,,,,,,,,,,,,,,,,,,,,,,,,,,,,,,,,,,,,,,,,,,,,,,,,,,,,,,,1.98,450.5210713999113,None,space,0,0.2675244000274688,452.6095120999962,None,452.6095120999962,None,452.6095120999962,None,,,,,,,,,,,P017,fencog,1,Pre,2021_Oct_28_1045,Go No-Go Task,2021.1.4,118.77923442635712,
,"Rule: When you see a yellow image, do not press 'spacebar'.",Images/Fearful/AM16AFS.jpg,Fear,Blue,Images/Blue.jpg,space,ParentConditions/YellowBlueBlue_v1.xlsx,BlueBlueYellow,Conditions/Version_1/YellowHappyStop.xlsx,no,PASS,0.5681414931312986,,,,,,,,,0,0,0,0,0,0,0,0,0,32,32,32,,,,,,,,,,,,,,,,,,,,,,,,,,,,,,,,,,,,,,,,,,,,,,,,,,,,,,,,,,,,,,,,,,,,,,,,,,,,,,,1.29,453.0168393999338,None,space,1,0.2678668999578804,454.4078587999102,None,454.4078587999102,None,454.4078587999102,None,,,,,,,,,,,P017,fencog,1,Pre,2021_Oct_28_1045,Go No-Go Task,2021.1.4,118.77923442635712,
,"Rule: When you see a yellow image, do not press 'spacebar'.",Images/Fearful/WF05_FO.jpg,Fear,Blue,Images/Blue.jpg,space,ParentConditions/YellowBlueBlue_v1.xlsx,BlueBlueYellow,Conditions/Version_1/YellowHappyStop.xlsx,no,PASS,0.23759173368539344,,,,,,,,,0,0,0,0,0,0,0,0,0,33,33,33,,,,,,,,,,,,,,,,,,,,,,,,,,,,,,,,,,,,,,,,,,,,,,,,,,,,,,,,,,,,,,,,,,,,,,,,,,,,,,,1.68,454.8181290999055,None,space,1,0.2613740999950096,456.5993534999434,None,456.5993534999434,None,456.5993534999434,None,,,,,,,,,,,P017,fencog,1,Pre,2021_Oct_28_1045,Go No-Go Task,2021.1.4,118.77923442635712,
,"Rule: When you see a yellow image, do not press 'spacebar'.",Images/Fearful/AM03_FC.jpg,Fear,Blue,Images/Blue.jpg,space,ParentConditions/YellowBlueBlue_v1.xlsx,BlueBlueYellow,Conditions/Version_1/YellowHappyStop.xlsx,no,PASS,0.45277772012976447,,,,,,,,,0,0,0,0,0,0,0,0,0,34,34,34,,,,,,,,,,,,,,,,,,,,,,,,,,,,,,,,,,,,,,,,,,,,,,,,,,,,,,,,,,,,,,,,,,,,,,,,,,,,,,,1.49,457.0046526999213,None,space,1,0.23014770005829632,458.59873470000457,None,458.59873470000457,None,458.59873470000457,None,,,,,,,,,,,P017,fencog,1,Pre,2021_Oct_28_1045,Go No-Go Task,2021.1.4,118.77923442635712,
,"Rule: When you see a yellow image, do not press 'spacebar'.",Images/Fearful/AM01AFS.jpg,Fear,Blue,Images/Blue.jpg,space,ParentConditions/YellowBlueBlue_v1.xlsx,BlueBlueYellow,Conditions/Version_1/YellowHappyStop.xlsx,no,PASS,0.4826830931616207,,,,,,,,,0,0,0,0,0,0,0,0,0,35,35,35,,,,,,,,,,,,,,,,,,,,,,,,,,,,,,,,,,,,,,,,,,,,,,,,,,,,,,,,,,,,,,,,,,,,,,,,,,,,,,,1.54,458.997967400006,None,space,1,0.24411710002459586,460.63993740000296,None,460.63993740000296,None,460.63993740000296,None,,,,,,,,,,,P017,fencog,1,Pre,2021_Oct_28_1045,Go No-Go Task,2021.1.4,118.77923442635712,
,"Rule: When you see a yellow image, do not press 'spacebar'.",Images/Fearful/HM04_FC.jpg,Fear,Blue,Images/Blue.jpg,space,ParentConditions/YellowBlueBlue_v1.xlsx,BlueBlueYellow,Conditions/Version_1/YellowHappyStop.xlsx,no,PASS,0.46069029171054665,,,,,,,,,0,0,0,0,0,0,0,0,0,36,36,36,,,,,,,,,,,,,,,,,,,,,,,,,,,,,,,,,,,,,,,,,,,,,,,,,,,,,,,,,,,,,,,,,,,,,,,,,,,,,,,1.6,461.0387695999816,None,space,1,0.2415394999552518,462.74759269994684,None,462.74759269994684,None,462.74759269994684,None,,,,,,,,,,,P017,fencog,1,Pre,2021_Oct_28_1045,Go No-Go Task,2021.1.4,118.77923442635712,
,"Rule: When you see a yellow image, do not press 'spacebar'.",Images/Fearful/BF18_FC.jpg,Fear,Blue,Images/Blue.jpg,space,ParentConditions/YellowBlueBlue_v1.xlsx,BlueBlueYellow,Conditions/Version_1/YellowHappyStop.xlsx,no,PASS,0.633030328468129,,,,,,,,,0,0,0,0,0,0,0,0,0,37,37,37,,,,,,,,,,,,,,,,,,,,,,,,,,,,,,,,,,,,,,,,,,,,,,,,,,,,,,,,,,,,,,,,,,,,,,,,,,,,,,,1.46,463.1465507999528,None,space,1,0.2509279999649152,464.704864099971,None,464.704864099971,None,464.704864099971,None,,,,,,,,,,,P017,fencog,1,Pre,2021_Oct_28_1045,Go No-Go Task,2021.1.4,118.77923442635712,
,"Rule: When you see a yellow image, do not press 'spacebar'.",Images/Fearful/AF07_FO.jpg,Fear,Blue,Images/Blue.jpg,space,ParentConditions/YellowBlueBlue_v1.xlsx,BlueBlueYellow,Conditions/Version_1/YellowHappyStop.xlsx,no,PASS,0.34147832357579266,,,,,,,,,0,0,0,0,0,0,0,0,0,38,38,38,,,,,,,,,,,,,,,,,,,,,,,,,,,,,,,,,,,,,,,,,,,,,,,,,,,,,,,,,,,,,,,,,,,,,,,,,,,,,,,1.9,465.10395189991686,None,space,1,0.2358066999586299,467.1045202999376,None,467.1045202999376,None,467.1045202999376,None,,,,,,,,,,,P017,fencog,1,Pre,2021_Oct_28_1045,Go No-Go Task,2021.1.4,118.77923442635712,
,"Rule: When you see a yellow image, do not press 'spacebar'.",Images/Fearful/AM24AFS.jpg,Fear,Blue,Images/Blue.jpg,space,ParentConditions/YellowBlueBlue_v1.xlsx,BlueBlueYellow,Conditions/Version_1/YellowHappyStop.xlsx,no,PASS,0.778148808430259,,,,,,,,,0,0,0,0,0,0,0,0,0,39,39,39,,,,,,,,,,,,,,,,,,,,,,,,,,,,,,,,,,,,,,,,,,,,,,,,,,,,,,,,,,,,,,,,,,,,,,,,,,,,,,,1.52,467.5038264999166,None,space,1,0.23538540001027286,469.12906449998263,None,469.12906449998263,None,469.12906449998263,None,,,,,,,,,,,P017,fencog,1,Pre,2021_Oct_28_1045,Go No-Go Task,2021.1.4,118.77923442635712,
,"Rule: When you see a yellow image, do not press 'spacebar'.",Images/Fearful/AM03AFS.jpg,Fear,Blue,Images/Blue.jpg,space,ParentConditions/YellowBlueBlue_v1.xlsx,BlueBlueYellow,Conditions/Version_1/YellowHappyStop.xlsx,no,PASS,0.23044092834848573,,,,,,,,,0,0,0,0,0,0,0,0,0,40,40,40,,,,,,,,,,,,,,,,,,,,,,,,,,,,,,,,,,,,,,,,,,,,,,,,,,,,,,,,,,,,,,,,,,,,,,,,,,,,,,,1.2,469.5388981999131,None,space,1,0.24750329996459186,470.8450360998977,None,470.8450360998977,None,470.8450360998977,None,,,,,,,,,,,P017,fencog,1,Pre,2021_Oct_28_1045,Go No-Go Task,2021.1.4,118.77923442635712,
,"Rule: When you see a yellow image, do not press 'spacebar'.",Images/Fearful/BM08_FC.jpg,Fear,Blue,Images/Blue.jpg,space,ParentConditions/YellowBlueBlue_v1.xlsx,BlueBlueYellow,Conditions/Version_1/YellowHappyStop.xlsx,no,PASS,0.6548756521259214,,,,,,,,,0,0,0,0,0,0,0,0,0,41,41,41,,,,,,,,,,,,,,,,,,,,,,,,,,,,,,,,,,,,,,,,,,,,,,,,,,,,,,,,,,,,,,,,,,,,,,,,,,,,,,,1.7,471.24612539994996,None,space,1,0.24726650002412498,473.05264469992835,None,473.05264469992835,None,473.05264469992835,None,,,,,,,,,,,P017,fencog,1,Pre,2021_Oct_28_1045,Go No-Go Task,2021.1.4,118.77923442635712,
,"Rule: When you see a yellow image, do not press 'spacebar'.",Images/Fearful/AF32AFS.jpg,Fear,Blue,Images/Blue.jpg,space,ParentConditions/YellowBlueBlue_v1.xlsx,BlueBlueYellow,Conditions/Version_1/YellowHappyStop.xlsx,no,PASS,0.9401650545876452,,,,,,,,,0,0,0,0,0,0,0,0,0,42,42,42,,,,,,,,,,,,,,,,,,,,,,,,,,,,,,,,,,,,,,,,,,,,,,,,,,,,,,,,,,,,,,,,,,,,,,,,,,,,,,,1.41,473.4535567999119,None,space,1,0.2358776000328362,474.9772510000039,None,474.9772510000039,None,474.9772510000039,None,,,,,,,,,,,P017,fencog,1,Pre,2021_Oct_28_1045,Go No-Go Task,2021.1.4,118.77923442635712,
,"Rule: When you see a yellow image, do not press 'spacebar'.",Images/Fearful/AF26AFS.jpg,Fear,Blue,Images/Blue.jpg,space,ParentConditions/YellowBlueBlue_v1.xlsx,BlueBlueYellow,Conditions/Version_1/YellowHappyStop.xlsx,no,PASS,0.5799257276734284,,,,,,,,,0,0,0,0,0,0,0,0,0,43,43,43,,,,,,,,,,,,,,,,,,,,,,,,,,,,,,,,,,,,,,,,,,,,,,,,,,,,,,,,,,,,,,,,,,,,,,,,,,,,,,,1.34,475.37628440000117,None,space,1,0.2741614000406116,476.8266967999516,None,476.8266967999516,None,476.8266967999516,None,,,,,,,,,,,P017,fencog,1,Pre,2021_Oct_28_1045,Go No-Go Task,2021.1.4,118.77923442635712,
,"Rule: When you see a yellow image, do not press 'spacebar'.",Images/Fearful/BF09_FC.jpg,Fear,Blue,Images/Blue.jpg,space,ParentConditions/YellowBlueBlue_v1.xlsx,BlueBlueYellow,Conditions/Version_1/YellowHappyStop.xlsx,no,PASS,0.9512288628250045,,,,,,,,,0,0,0,0,0,0,0,0,0,44,44,44,,,,,,,,,,,,,,,,,,,,,,,,,,,,,,,,,,,,,,,,,,,,,,,,,,,,,,,,,,,,,,,,,,,,,,,,,,,,,,,1.86,477.23185559990816,None,space,1,0.2517672999529168,479.1842953999294,None,479.1842953999294,None,479.1842953999294,None,,,,,,,,,,,P017,fencog,1,Pre,2021_Oct_28_1045,Go No-Go Task,2021.1.4,118.77923442635712,
,"Rule: When you see a yellow image, do not press 'spacebar'.",Images/Fearful/BM01_FO.jpg,Fear,Blue,Images/Blue.jpg,space,ParentConditions/YellowBlueBlue_v1.xlsx,BlueBlueYellow,Conditions/Version_1/YellowHappyStop.xlsx,no,PASS,0.8954287307362916,,,,,,,,,0,0,0,0,0,0,0,0,0,45,45,45,,,,,,,,,,,,,,,,,,,,,,,,,,,,,,,,,,,,,,,,,,,,,,,,,,,,,,,,,,,,,,,,,,,,,,,,,,,,,,,1.63,479.5863627999788,None,space,1,0.21486890001688153,481.3253734000027,None,481.3253734000027,None,481.3253734000027,None,,,,,,,,,,,P017,fencog,1,Pre,2021_Oct_28_1045,Go No-Go Task,2021.1.4,118.77923442635712,
,"Rule: When you see a yellow image, do not press 'spacebar'.",Images/Happy/BF14_HO.jpg,Happy,Yellow,Images/Yellow.jpg,None,ParentConditions/YellowBlueBlue_v1.xlsx,BlueBlueYellow,Conditions/Version_1/YellowHappyStop.xlsx,yes,PASS,0.7234280216409134,,,,,,,,,0,0,0,0,0,0,0,0,0,46,46,46,,,,,,,,,,,,,,,,,,,,,,,,,,,,,,,,,,,,,,,,,,,,,,,,,,,,,,,,,,,,,,,,,,,,,,,,,,,,,,,1.28,481.73056639998686,None,space,0,0.2407235000282526,483.11653429991566,None,483.11653429991566,None,483.11653429991566,None,,,,,,,,,,,P017,fencog,1,Pre,2021_Oct_28_1045,Go No-Go Task,2021.1.4,118.77923442635712,
,"Rule: When you see a yellow image, do not press 'spacebar'.",Images/Fearful/WM11_FC.jpg,Fear,Blue,Images/Blue.jpg,space,ParentConditions/YellowBlueBlue_v1.xlsx,BlueBlueYellow,Conditions/Version_1/YellowHappyStop.xlsx,no,PASS,0.023552814974996727,,,,,,,,,0,0,0,0,0,0,0,0,0,47,47,47,,,,,,,,,,,,,,,,,,,,,,,,,,,,,,,,,,,,,,,,,,,,,,,,,,,,,,,,,,,,,,,,,,,,,,,,,,,,,,,1.56,483.51647009991575,None,space,1,0.2855268999701366,485.1825523999287,None,485.1825523999287,None,485.1825523999287,None,,,,,,,,,,,P017,fencog,1,Pre,2021_Oct_28_1045,Go No-Go Task,2021.1.4,118.77923442635712,
,"Rule: When you see a yellow image, do not press 'spacebar'.",Images/Fearful/AM02_FO.jpg,Fear,Blue,Images/Blue.jpg,space,ParentConditions/YellowBlueBlue_v1.xlsx,BlueBlueYellow,Conditions/Version_1/YellowHappyStop.xlsx,no,PASS,0.4906088235260202,,,,,,,,,0,0,0,0,0,0,0,0,0,48,48,48,,,,,,,,,,,,,,,,,,,,,,,,,,,,,,,,,,,,,,,,,,,,,,,,,,,,,,,,,,,,,,,,,,,,,,,,,,,,,,,1.78,485.5818718998926,None,None,0,,487.4652221999131,None,487.4652221999131,None,487.4652221999131,None,,,,,,,,,,,P017,fencog,1,Pre,2021_Oct_28_1045,Go No-Go Task,2021.1.4,118.77923442635712,
,"Rule: When you see a yellow image, do not press 'spacebar'.",Images/Happy/HM09_HO.jpg,Happy,Yellow,Images/Yellow.jpg,None,ParentConditions/YellowBlueBlue_v1.xlsx,BlueBlueYellow,Conditions/Version_1/YellowHappyStop.xlsx,yes,PASS,0.5172626673634482,,,,,,,,,0,0,0,0,0,0,0,0,0,49,49,49,,,,,,,,,,,,,,,,,,,,,,,,,,,,,,,,,,,,,,,,,,,,,,,,,,,,,,,,,,,,,,,,,,,,,,,,,,,,,,,1.42,487.8647386999801,None,space,0,0.2619755999185145,489.38954879995435,None,489.38954879995435,None,489.38954879995435,None,,,,,,,,,,,P017,fencog,1,Pre,2021_Oct_28_1045,Go No-Go Task,2021.1.4,118.77923442635712,
,"Rule: When you see a yellow image, do not press 'spacebar'.",Images/Happy/HF10_HE.jpg,Happy,Yellow,Images/Yellow.jpg,None,ParentConditions/YellowBlueBlue_v1.xlsx,BlueBlueYellow,Conditions/Version_1/YellowHappyStop.xlsx,yes,PASS,0.44150167084278924,,,,,,,,,0,0,0,0,0,0,0,0,0,50,50,50,,,,,,,,,,,,,,,,,,,,,,,,,,,,,,,,,,,,,,,,,,,,,,,,,,,,,,,,,,,,,,,,,,,,,,,,,,,,,,,1.23,489.79861659999005,None,space,0,0.29713750001974404,491.1306947999401,None,491.1306947999401,None,491.1306947999401,None,,,,,,,,,,,P017,fencog,1,Pre,2021_Oct_28_1045,Go No-Go Task,2021.1.4,118.77923442635712,
,"Rule: When you see a yellow image, do not press 'spacebar'.",Images/Fearful/AF09AFS.jpg,Fear,Blue,Images/Blue.jpg,space,ParentConditions/YellowBlueBlue_v1.xlsx,BlueBlueYellow,Conditions/Version_1/YellowHappyStop.xlsx,no,PASS,0.20329731425220043,,,,,,,,,0,0,0,0,0,0,0,0,0,51,51,51,,,,,,,,,,,,,,,,,,,,,,,,,,,,,,,,,,,,,,,,,,,,,,,,,,,,,,,,,,,,,,,,,,,,,,,,,,,,,,,1.83,491.53145319991745,None,None,0,,493.4633960999781,None,493.4633960999781,None,493.4633960999781,None,,,,,,,,,,,P017,fencog,1,Pre,2021_Oct_28_1045,Go No-Go Task,2021.1.4,118.77923442635712,
,"Rule: When you see a yellow image, do not press 'spacebar'.",Images/Fearful/AM23AFS.jpg,Fear,Blue,Images/Blue.jpg,space,ParentConditions/YellowBlueBlue_v1.xlsx,BlueBlueYellow,Conditions/Version_1/YellowHappyStop.xlsx,no,PASS,0.9134790301426777,,,,,,,,,0,0,0,0,0,0,0,0,0,52,52,52,,,,,,,,,,,,,,,,,,,,,,,,,,,,,,,,,,,,,,,,,,,,,,,,,,,,,,,,,,,,,,,,,,,,,,,,,,,,,,,1.48,493.86982299992815,None,None,0,,495.45416849991307,None,495.45416849991307,None,495.45416849991307,None,,,,,,,,,,,P017,fencog,1,Pre,2021_Oct_28_1045,Go No-Go Task,2021.1.4,118.77923442635712,
,"Rule: When you see a yellow image, do not press 'spacebar'.",Images/Fearful/AM05AFS.jpg,Fear,Blue,Images/Blue.jpg,space,ParentConditions/YellowBlueBlue_v1.xlsx,BlueBlueYellow,Conditions/Version_1/YellowHappyStop.xlsx,no,PASS,0.7369542946293995,,,,,,,,,0,0,0,0,0,0,0,0,0,53,53,53,,,,,,,,,,,,,,,,,,,,,,,,,,,,,,,,,,,,,,,,,,,,,,,,,,,,,,,,,,,,,,,,,,,,,,,,,,,,,,,1.27,495.8538267998956,None,space,1,0.3186455999966711,497.23730959999375,None,497.23730959999375,None,497.23730959999375,None,,,,,,,,,,,P017,fencog,1,Pre,2021_Oct_28_1045,Go No-Go Task,2021.1.4,118.77923442635712,
,"Rule: When you see a yellow image, do not press 'spacebar'.",Images/Happy/AF28HAS.jpg,Happy,Yellow,Images/Yellow.jpg,None,ParentConditions/YellowBlueBlue_v1.xlsx,BlueBlueYellow,Conditions/Version_1/YellowHappyStop.xlsx,yes,PASS,0.27168303726444554,,,,,,,,,0,0,0,0,0,0,0,0,0,54,54,54,,,,,,,,,,,,,,,,,,,,,,,,,,,,,,,,,,,,,,,,,,,,,,,,,,,,,,,,,,,,,,,,,,,,,,,,,,,,,,,1.43,497.6362063999986,None,None,1,,499.17003499995917,None,499.17003499995917,None,499.17003499995917,None,,,,,,,,,,,P017,fencog,1,Pre,2021_Oct_28_1045,Go No-Go Task,2021.1.4,118.77923442635712,
,"Rule: When you see a yellow image, do not press 'spacebar'.",Images/Fearful/BF14_FO.jpg,Fear,Blue,Images/Blue.jpg,space,ParentConditions/YellowBlueBlue_v1.xlsx,BlueBlueYellow,Conditions/Version_1/YellowHappyStop.xlsx,no,PASS,0.6433421649003036,,,,,,,,,0,0,0,0,0,0,0,0,0,55,55,55,,,,,,,,,,,,,,,,,,,,,,,,,,,,,,,,,,,,,,,,,,,,,,,,,,,,,,,,,,,,,,,,,,,,,,,,,,,,,,,1.44,499.56926999997813,None,space,1,0.3088410999625921,501.11119549989235,None,501.11119549989235,None,501.11119549989235,None,,,,,,,,,,,P017,fencog,1,Pre,2021_Oct_28_1045,Go No-Go Task,2021.1.4,118.77923442635712,
,"Rule: When you see a yellow image, do not press 'spacebar'.",Images/Happy/AM30HAS.jpg,Happy,Yellow,Images/Yellow.jpg,None,ParentConditions/YellowBlueBlue_v1.xlsx,BlueBlueYellow,Conditions/Version_1/YellowHappyStop.xlsx,yes,PASS,0.0794505415747715,,,,,,,,,0,0,0,0,0,0,0,0,0,56,56,56,,,,,,,,,,,,,,,,,,,,,,,,,,,,,,,,,,,,,,,,,,,,,,,,,,,,,,,,,,,,,,,,,,,,,,,,,,,,,,,1.22,501.5102255999809,None,None,1,,502.8440100000007,None,502.8440100000007,None,502.8440100000007,None,,,,,,,,,,,P017,fencog,1,Pre,2021_Oct_28_1045,Go No-Go Task,2021.1.4,118.77923442635712,
,"Rule: When you see a yellow image, do not press 'spacebar'.",Images/Fearful/AF27AFS.jpg,Fear,Blue,Images/Blue.jpg,space,ParentConditions/YellowBlueBlue_v1.xlsx,BlueBlueYellow,Conditions/Version_1/YellowHappyStop.xlsx,no,PASS,0.3935834771022866,,,,,,,,,0,0,0,0,0,0,0,0,0,57,57,57,,,,,,,,,,,,,,,,,,,,,,,,,,,,,,,,,,,,,,,,,,,,,,,,,,,,,,,,,,,,,,,,,,,,,,,,,,,,,,,1.73,503.24306939996313,None,space,1,0.3112859999528155,505.07670129998587,None,505.07670129998587,None,505.07670129998587,None,,,,,,,,,,,P017,fencog,1,Pre,2021_Oct_28_1045,Go No-Go Task,2021.1.4,118.77923442635712,
,"Rule: When you see a yellow image, do not press 'spacebar'.",Images/Fearful/AM32AFS.jpg,Fear,Blue,Images/Blue.jpg,space,ParentConditions/YellowBlueBlue_v1.xlsx,BlueBlueYellow,Conditions/Version_1/YellowHappyStop.xlsx,no,PASS,0.5614458224122035,,,,,,,,,0,0,0,0,0,0,0,0,0,58,58,58,,,,,,,,,,,,,,,,,,,,,,,,,,,,,,,,,,,,,,,,,,,,,,,,,,,,,,,,,,,,,,,,,,,,,,,,,,,,,,,1.69,505.48066779994406,None,space,1,0.2640011999756098,507.2843394000083,None,507.2843394000083,None,507.2843394000083,None,,,,,,,,,,,P017,fencog,1,Pre,2021_Oct_28_1045,Go No-Go Task,2021.1.4,118.77923442635712,
,"Rule: When you see a yellow image, do not press 'spacebar'.",Images/Fearful/AM09_FO.jpg,Fear,Blue,Images/Blue.jpg,space,ParentConditions/YellowBlueBlue_v1.xlsx,BlueBlueYellow,Conditions/Version_1/YellowHappyStop.xlsx,no,PASS,0.3933837419145386,,,,,,,,,0,0,0,0,0,0,0,0,0,59,59,59,,,,,,,,,,,,,,,,,,,,,,,,,,,,,,,,,,,,,,,,,,,,,,,,,,,,,,,,,,,,,,,,,,,,,,,,,,,,,,,1.93,507.6830798999872,None,space,1,0.2794147999957204,509.71702260000166,None,509.71702260000166,None,509.71702260000166,None,,,,,,,,,,,P017,fencog,1,Pre,2021_Oct_28_1045,Go No-Go Task,2021.1.4,118.77923442635712,
,"Rule: When you see a yellow image, do not press 'spacebar'.",Images/Fearful/AF01_FO.jpg,Fear,Blue,Images/Blue.jpg,space,ParentConditions/YellowBlueBlue_v1.xlsx,BlueBlueYellow,Conditions/Version_1/YellowHappyStop.xlsx,no,PASS,0.7419870009427991,,,,,,,,,0,0,0,0,0,0,0,0,0,60,60,60,,,,,,,,,,,,,,,,,,,,,,,,,,,,,,,,,,,,,,,,,,,,,,,,,,,,,,,,,,,,,,,,,,,,,,,,,,,,,,,1.35,510.1170867999317,None,space,1,0.2616560000460595,511.5746971999761,None,511.5746971999761,None,511.5746971999761,None,,,,,,,,,,,P017,fencog,1,Pre,2021_Oct_28_1045,Go No-Go Task,2021.1.4,118.77923442635712,
,"Rule: When you see a yellow image, do not press 'spacebar'.",Images/Happy/AM10_HO.jpg,Happy,Yellow,Images/Yellow.jpg,None,ParentConditions/YellowBlueBlue_v1.xlsx,BlueBlueYellow,Conditions/Version_1/YellowHappyStop.xlsx,yes,PASS,0.7352402085502512,,,,,,,,,0,0,0,0,0,0,0,0,0,61,61,61,,,,,,,,,,,,,,,,,,,,,,,,,,,,,,,,,,,,,,,,,,,,,,,,,,,,,,,,,,,,,,,,,,,,,,,,,,,,,,,1.8,511.97950039990246,None,None,1,,513.8823381999973,None,513.8823381999973,None,513.8823381999973,None,,,,,,,,,,,P017,fencog,1,Pre,2021_Oct_28_1045,Go No-Go Task,2021.1.4,118.77923442635712,
,"Rule: When you see a yellow image, do not press 'spacebar'.",Images/Happy/AM22HAS.jpg,Happy,Yellow,Images/Yellow.jpg,None,ParentConditions/YellowBlueBlue_v1.xlsx,BlueBlueYellow,Conditions/Version_1/YellowHappyStop.xlsx,yes,PASS,0.27838589915801637,,,,,,,,,0,0,0,0,0,0,0,0,0,62,62,62,,,,,,,,,,,,,,,,,,,,,,,,,,,,,,,,,,,,,,,,,,,,,,,,,,,,,,,,,,,,,,,,,,,,,,,,,,,,,,,1.64,514.2868094999576,None,space,0,0.2843938000733033,516.0317513999762,None,516.0317513999762,None,516.0317513999762,None,,,,,,,,,,,P017,fencog,1,Pre,2021_Oct_28_1045,Go No-Go Task,2021.1.4,118.77923442635712,
,"Rule: When you see a yellow image, do not press 'spacebar'.",Images/Fearful/AM22AFS.jpg,Fear,Blue,Images/Blue.jpg,space,ParentConditions/YellowBlueBlue_v1.xlsx,BlueBlueYellow,Conditions/Version_1/YellowHappyStop.xlsx,no,PASS,0.012398818855924532,,,,,,,,,0,0,0,0,0,0,0,0,0,63,63,63,,,,,,,,,,,,,,,,,,,,,,,,,,,,,,,,,,,,,,,,,,,,,,,,,,,,,,,,,,,,,,,,,,,,,,,,,,,,,,,1.97,516.4359444999136,None,space,1,0.353796900017187,518.5141789999325,None,518.5141789999325,None,518.5141789999325,None,,,,,,,,,,,P017,fencog,1,Pre,2021_Oct_28_1045,Go No-Go Task,2021.1.4,118.77923442635712,
,"Rule: When you see a yellow image, do not press 'spacebar'.",Images/Happy/BM08_HO.jpg,Happy,Yellow,Images/Yellow.jpg,None,ParentConditions/YellowBlueBlue_v1.xlsx,BlueBlueYellow,Conditions/Version_1/YellowHappyStop.xlsx,yes,PASS,0.25791881247444226,,,,,,,,,0,0,0,0,0,0,0,0,0,64,64,64,,,,,,,,,,,,,,,,,,,,,,,,,,,,,,,,,,,,,,,,,,,,,,,,,,,,,,,,,,,,,,,,,,,,,,,,,,,,,,,1.66,518.9172031999333,None,None,1,,520.6719926999649,None,520.6719926999649,None,520.6719926999649,None,,,,,,,,,,,P017,fencog,1,Pre,2021_Oct_28_1045,Go No-Go Task,2021.1.4,118.77923442635712,
,"Rule: When you see a yellow image, do not press 'spacebar'.",Images/Fearful/AM19AFS.jpg,Fear,Blue,Images/Blue.jpg,space,ParentConditions/YellowBlueBlue_v1.xlsx,BlueBlueYellow,Conditions/Version_1/YellowHappyStop.xlsx,no,PASS,0.4570092371665587,,,,,,,,,0,0,0,0,0,0,0,0,0,65,65,65,,,,,,,,,,,,,,,,,,,,,,,,,,,,,,,,,,,,,,,,,,,,,,,,,,,,,,,,,,,,,,,,,,,,,,,,,,,,,,,1.72,521.0708224999253,None,space,1,0.32405960001051426,522.8963213999523,None,522.8963213999523,None,522.8963213999523,None,,,,,,,,,,,P017,fencog,1,Pre,2021_Oct_28_1045,Go No-Go Task,2021.1.4,118.77923442635712,
,"Rule: When you see a yellow image, do not press 'spacebar'.",Images/Fearful/AF23AFS.jpg,Fear,Blue,Images/Blue.jpg,space,ParentConditions/YellowBlueBlue_v1.xlsx,BlueBlueYellow,Conditions/Version_1/YellowHappyStop.xlsx,no,PASS,0.9065930904744121,,,,,,,,,0,0,0,0,0,0,0,0,0,66,66,66,,,,,,,,,,,,,,,,,,,,,,,,,,,,,,,,,,,,,,,,,,,,,,,,,,,,,,,,,,,,,,,,,,,,,,,,,,,,,,,1.61,523.2961201999569,None,None,0,,525.0124796999153,None,525.0124796999153,None,525.0124796999153,None,,,,,,,,,,,P017,fencog,1,Pre,2021_Oct_28_1045,Go No-Go Task,2021.1.4,118.77923442635712,
,"Rule: When you see a yellow image, do not press 'spacebar'.",Images/Fearful/AM13AFS.jpg,Fear,Blue,Images/Blue.jpg,space,ParentConditions/YellowBlueBlue_v1.xlsx,BlueBlueYellow,Conditions/Version_1/YellowHappyStop.xlsx,no,PASS,0.672217887403839,,,,,,,,,0,0,0,0,0,0,0,0,0,67,67,67,,,,,,,,,,,,,,,,,,,,,,,,,,,,,,,,,,,,,,,,,,,,,,,,,,,,,,,,,,,,,,,,,,,,,,,,,,,,,,,1.84,525.4132551999064,None,space,1,0.26682180003263056,527.3534305999056,None,527.3534305999056,None,527.3534305999056,None,,,,,,,,,,,P017,fencog,1,Pre,2021_Oct_28_1045,Go No-Go Task,2021.1.4,118.77923442635712,
,"Rule: When you see a yellow image, do not press 'spacebar'.",Images/Fearful/HF09_FC.jpg,Fear,Blue,Images/Blue.jpg,space,ParentConditions/YellowBlueBlue_v1.xlsx,BlueBlueYellow,Conditions/Version_1/YellowHappyStop.xlsx,no,PASS,0.947763278232759,,,,,,,,,0,0,0,0,0,0,0,0,0,68,68,68,,,,,,,,,,,,,,,,,,,,,,,,,,,,,,,,,,,,,,,,,,,,,,,,,,,,,,,,,,,,,,,,,,,,,,,,,,,,,,,1.79,527.7527890999336,None,space,1,0.35131050006020814,529.6442796000047,None,529.6442796000047,None,529.6442796000047,None,,,,,,,,,,,P017,fencog,1,Pre,2021_Oct_28_1045,Go No-Go Task,2021.1.4,118.77923442635712,
,"Rule: When you see a yellow image, do not press 'spacebar'.",Images/Fearful/AM04AFS.jpg,Fear,Blue,Images/Blue.jpg,space,ParentConditions/YellowBlueBlue_v1.xlsx,BlueBlueYellow,Conditions/Version_1/YellowHappyStop.xlsx,no,PASS,0.7155710730323807,,,,,,,,,0,0,0,0,0,0,0,0,0,69,69,69,,,,,,,,,,,,,,,,,,,,,,,,,,,,,,,,,,,,,,,,,,,,,,,,,,,,,,,,,,,,,,,,,,,,,,,,,,,,,,,1.75,530.0437562000006,None,space,1,0.2931871999753639,531.9020546999527,None,531.9020546999527,None,531.9020546999527,None,,,,,,,,,,,P017,fencog,1,Pre,2021_Oct_28_1045,Go No-Go Task,2021.1.4,118.77923442635712,
,"Rule: When you see a yellow image, do not press 'spacebar'.",Images/Fearful/AF02AFS.jpg,Fear,Blue,Images/Blue.jpg,space,ParentConditions/YellowBlueBlue_v1.xlsx,BlueBlueYellow,Conditions/Version_1/YellowHappyStop.xlsx,no,PASS,0.9864792225255055,,,,,,,,,0,0,0,0,0,0,0,0,0,70,70,70,,,,,,,,,,,,,,,,,,,,,,,,,,,,,,,,,,,,,,,,,,,,,,,,,,,,,,,,,,,,,,,,,,,,,,,,,,,,,,,1.85,532.300637899898,None,space,1,0.3523921000305563,534.2679668999044,None,534.2679668999044,None,534.2679668999044,None,,,,,,,,,,,P017,fencog,1,Pre,2021_Oct_28_1045,Go No-Go Task,2021.1.4,118.77923442635712,
,"Rule: When you see a yellow image, do not press 'spacebar'.",Images/Fearful/AM09AFS.jpg,Fear,Blue,Images/Blue.jpg,space,ParentConditions/YellowBlueBlue_v1.xlsx,BlueBlueYellow,Conditions/Version_1/YellowHappyStop.xlsx,no,PASS,0.8390326237024166,,,,,,,,,0,0,0,0,0,0,0,0,0,71,71,71,,,,,,,,,,,,,,,,,,,,,,,,,,,,,,,,,,,,,,,,,,,,,,,,,,,,,,,,,,,,,,,,,,,,,,,,,,,,,,,1.95,534.6587669999572,None,space,1,0.29452319990377873,536.7171697999584,None,536.7171697999584,None,536.7171697999584,None,,,,,,,,,,,P017,fencog,1,Pre,2021_Oct_28_1045,Go No-Go Task,2021.1.4,118.77923442635712,
,"Rule: When you see a yellow image, do not press 'spacebar'.",Images/Fearful/BF05_FO.jpg,Fear,Blue,Images/Blue.jpg,space,ParentConditions/YellowBlueBlue_v1.xlsx,BlueBlueYellow,Conditions/Version_1/YellowHappyStop.xlsx,no,PASS,0.691917879610661,,,,,,,,,0,0,0,0,0,0,0,0,0,72,72,72,,,,,,,,,,,,,,,,,,,,,,,,,,,,,,,,,,,,,,,,,,,,,,,,,,,,,,,,,,,,,,,,,,,,,,,,,,,,,,,1.94,537.1162999999942,None,space,1,0.3495230000698939,539.1581466000061,None,539.1581466000061,None,539.1581466000061,None,,,,,,,,,,,P017,fencog,1,Pre,2021_Oct_28_1045,Go No-Go Task,2021.1.4,118.77923442635712,
,"Rule: When you see a yellow image, do not press 'spacebar'.",Images/Fearful/AF22AFS.jpg,Fear,Blue,Images/Blue.jpg,space,ParentConditions/YellowBlueBlue_v1.xlsx,BlueBlueYellow,Conditions/Version_1/YellowHappyStop.xlsx,no,PASS,0.03529836358299465,,,,,,,,,0,0,0,0,0,0,0,0,0,73,73,73,,,,,,,,,,,,,,,,,,,,,,,,,,,,,,,,,,,,,,,,,,,,,,,,,,,,,,,,,,,,,,,,,,,,,,,,,,,,,,,1.74,539.5579370999476,None,space,1,0.3089052999857813,541.3991623999318,None,541.3991623999318,None,541.3991623999318,None,,,,,,,,,,,P017,fencog,1,Pre,2021_Oct_28_1045,Go No-Go Task,2021.1.4,118.77923442635712,
,"Rule: When you see a yellow image, do not press 'spacebar'.",Images/Happy/BF18_HO.jpg,Happy,Yellow,Images/Yellow.jpg,None,ParentConditions/YellowBlueBlue_v1.xlsx,BlueBlueYellow,Conditions/Version_1/YellowHappyStop.xlsx,yes,PASS,0.4232691792902379,,,,,,,,,0,0,0,0,0,0,0,0,0,74,74,74,,,,,,,,,,,,,,,,,,,,,,,,,,,,,,,,,,,,,,,,,,,,,,,,,,,,,,,,,,,,,,,,,,,,,,,,,,,,,,,1.89,541.798024199903,None,None,1,,543.7902567998972,None,543.7902567998972,None,543.7902567998972,None,,,,,,,,,,,P017,fencog,1,Pre,2021_Oct_28_1045,Go No-Go Task,2021.1.4,118.77923442635712,
,"Rule: When you see a yellow image, do not press 'spacebar'.",Images/Fearful/WM12_FO.jpg,Fear,Blue,Images/Blue.jpg,space,ParentConditions/YellowBlueBlue_v1.xlsx,BlueBlueYellow,Conditions/Version_1/YellowHappyStop.xlsx,no,PASS,0.34671640176200413,,,,,,,,,0,0,0,0,0,0,0,0,0,75,75,75,,,,,,,,,,,,,,,,,,,,,,,,,,,,,,,,,,,,,,,,,,,,,,,,,,,,,,,,,,,,,,,,,,,,,,,,,,,,,,,1.77,544.1916118999943,None,space,1,0.35636729991529137,546.0645197998965,None,546.0645197998965,None,546.0645197998965,None,,,,,,,,,,,P017,fencog,1,Pre,2021_Oct_28_1045,Go No-Go Task,2021.1.4,118.77923442635712,
,"Rule: When you see a yellow image, do not press 'spacebar'.",Images/Fearful/BF07_FO.jpg,Fear,Blue,Images/Blue.jpg,space,ParentConditions/YellowBlueBlue_v1.xlsx,BlueBlueYellow,Conditions/Version_1/YellowHappyStop.xlsx,no,PASS,0.2992945798396267,,,,,,,,,0,0,0,0,0,0,0,0,0,76,76,76,,,,,,,,,,,,,,,,,,,,,,,,,,,,,,,,,,,,,,,,,,,,,,,,,,,,,,,,,,,,,,,,,,,,,,,,,,,,,,,1.62,546.4637113999343,None,space,1,0.3190060000633821,548.1971168000018,None,548.1971168000018,None,548.1971168000018,None,,,,,,,,,,,P017,fencog,1,Pre,2021_Oct_28_1045,Go No-Go Task,2021.1.4,118.77923442635712,
,"Rule: When you see a yellow image, do not press 'spacebar'.",Images/Fearful/HF10_FO.jpg,Fear,Blue,Images/Blue.jpg,space,ParentConditions/YellowBlueBlue_v1.xlsx,BlueBlueYellow,Conditions/Version_1/YellowHappyStop.xlsx,no,PASS,0.06506977473557796,,,,,,,,,0,0,0,0,0,0,0,0,0,77,77,77,,,,,,,,,,,,,,,,,,,,,,,,,,,,,,,,,,,,,,,,,,,,,,,,,,,,,,,,,,,,,,,,,,,,,,,,,,,,,,,1.92,548.5952246999368,None,space,1,0.21458479994907975,550.6212704000063,None,550.6212704000063,None,550.6212704000063,None,,,,,,,,,,,P017,fencog,1,Pre,2021_Oct_28_1045,Go No-Go Task,2021.1.4,118.77923442635712,
,"Rule: When you see a yellow image, do not press 'spacebar'.",Images/Fearful/AM10AFS.jpg,Fear,Blue,Images/Blue.jpg,space,ParentConditions/YellowBlueBlue_v1.xlsx,BlueBlueYellow,Conditions/Version_1/YellowHappyStop.xlsx,no,PASS,0.4391085826227009,,,,,,,,,0,0,0,0,0,0,0,0,0,78,78,78,,,,,,,,,,,,,,,,,,,,,,,,,,,,,,,,,,,,,,,,,,,,,,,,,,,,,,,,,,,,,,,,,,,,,,,,,,,,,,,1.39,551.0279721999541,None,space,1,0.2513170999009162,552.5375494000036,None,552.5375494000036,None,552.5375494000036,None,,,,,,,,,,,P017,fencog,1,Pre,2021_Oct_28_1045,Go No-Go Task,2021.1.4,118.77923442635712,
,"Rule: When you see a yellow image, do not press 'spacebar'.",Images/Happy/AM23HAS.jpg,Happy,Yellow,Images/Yellow.jpg,None,ParentConditions/YellowBlueBlue_v1.xlsx,BlueBlueYellow,Conditions/Version_1/YellowHappyStop.xlsx,yes,PASS,0.8296456455429673,,,,,,,,,0,0,0,0,0,0,0,0,0,79,79,79,,,,,,,,,,,,,,,,,,,,,,,,,,,,,,,,,,,,,,,,,,,,,,,,,,,,,,,,,,,,,,,,,,,,,,,,,,,,,,,1.31,552.9329857999692,None,space,0,0.20271179999690503,554.345280499896,None,554.345280499896,None,554.345280499896,None,,,,,,,,,,,P017,fencog,1,Pre,2021_Oct_28_1045,Go No-Go Task,2021.1.4,118.77923442635712,
,"Rule: When you see blue image, do not press 'spacebar'.",Images/Fearful/HM06_FC.jpg,Fear,Blue,Images/Blue.jpg,None,ParentConditions/YellowBlueBlue_v1.xlsx,BlueBlueYellow,Conditions/Version_1/BlueFearStop.xlsx,yes,PASS,0.7729813006314565,,,,,,,,,0,0,0,0,0,1,1,1,0,0,0,0,,,,,,,,,,,,,,,,,,,,,,,,,,,,,,,,,,,,,,,,,,,,,,,,,,,,,,,,,,,,,,,,,572.0820505999727,None,575.0717330999905,None,space,1.3721228999784216,575.0717330999905,None,572.0820505999727,None,572.0820505999727,None,572.0820505999727,None,1.3,576.4964622999541,None,None,1,,577.9049926999724,None,577.9049926999724,None,577.9049926999724,None,554.7561342999106,None,space,16.815380300045945,555.2444403999252,None,554.7561342999106,None,554.7561342999106,None,P017,fencog,1,Pre,2021_Oct_28_1045,Go No-Go Task,2021.1.4,118.77923442635712,
,"Rule: When you see blue image, do not press 'spacebar'.",Images/Happy/AF07HAS.jpg,Happy,Yellow,Images/Yellow.jpg,space,ParentConditions/YellowBlueBlue_v1.xlsx,BlueBlueYellow,Conditions/Version_1/BlueFearStop.xlsx,no,PASS,0.4924453653062516,,,,,,,,,0,0,0,0,0,1,1,1,0,1,1,1,,,,,,,,,,,,,,,,,,,,,,,,,,,,,,,,,,,,,,,,,,,,,,,,,,,,,,,,,,,,,,,,,,,,,,,,,,,,,,,1.58,578.3041330999695,None,space,1,0.2397286999039352,579.996087999898,None,579.996087999898,None,579.996087999898,None,,,,,,,,,,,P017,fencog,1,Pre,2021_Oct_28_1045,Go No-Go Task,2021.1.4,118.77923442635712,
,"Rule: When you see blue image, do not press 'spacebar'.",Images/Happy/AF28HAS.jpg,Happy,Yellow,Images/Yellow.jpg,space,ParentConditions/YellowBlueBlue_v1.xlsx,BlueBlueYellow,Conditions/Version_1/BlueFearStop.xlsx,no,PASS,0.8943473655540664,,,,,,,,,0,0,0,0,0,1,1,1,0,2,2,2,,,,,,,,,,,,,,,,,,,,,,,,,,,,,,,,,,,,,,,,,,,,,,,,,,,,,,,,,,,,,,,,,,,,,,,,,,,,,,,1.85,580.3936637999723,None,None,0,,582.3536341999425,None,582.3536341999425,None,582.3536341999425,None,,,,,,,,,,,P017,fencog,1,Pre,2021_Oct_28_1045,Go No-Go Task,2021.1.4,118.77923442635712,
,"Rule: When you see blue image, do not press 'spacebar'.",Images/Happy/AF22HAS.jpg,Happy,Yellow,Images/Yellow.jpg,space,ParentConditions/YellowBlueBlue_v1.xlsx,BlueBlueYellow,Conditions/Version_1/BlueFearStop.xlsx,no,PASS,0.5892765061873407,,,,,,,,,0,0,0,0,0,1,1,1,0,3,3,3,,,,,,,,,,,,,,,,,,,,,,,,,,,,,,,,,,,,,,,,,,,,,,,,,,,,,,,,,,,,,,,,,,,,,,,,,,,,,,,1.63,582.7527170999674,None,space,1,0.2768405000679195,584.4863339998992,None,584.4863339998992,None,584.4863339998992,None,,,,,,,,,,,P017,fencog,1,Pre,2021_Oct_28_1045,Go No-Go Task,2021.1.4,118.77923442635712,
,"Rule: When you see blue image, do not press 'spacebar'.",Images/Fearful/AF27AFS.jpg,Fear,Blue,Images/Blue.jpg,None,ParentConditions/YellowBlueBlue_v1.xlsx,BlueBlueYellow,Conditions/Version_1/BlueFearStop.xlsx,yes,PASS,0.41428581318896585,,,,,,,,,0,0,0,0,0,1,1,1,0,4,4,4,,,,,,,,,,,,,,,,,,,,,,,,,,,,,,,,,,,,,,,,,,,,,,,,,,,,,,,,,,,,,,,,,,,,,,,,,,,,,,,1.8,584.8850919998949,None,None,1,,586.7853032998974,None,586.7853032998974,None,586.7853032998974,None,,,,,,,,,,,P017,fencog,1,Pre,2021_Oct_28_1045,Go No-Go Task,2021.1.4,118.77923442635712,
,"Rule: When you see blue image, do not press 'spacebar'.",Images/Happy/AM24HAS.jpg,Happy,Yellow,Images/Yellow.jpg,space,ParentConditions/YellowBlueBlue_v1.xlsx,BlueBlueYellow,Conditions/Version_1/BlueFearStop.xlsx,no,PASS,0.8126867400025187,,,,,,,,,0,0,0,0,0,1,1,1,0,5,5,5,,,,,,,,,,,,,,,,,,,,,,,,,,,,,,,,,,,,,,,,,,,,,,,,,,,,,,,,,,,,,,,,,,,,,,,,,,,,,,,1.29,587.1852171999635,None,space,1,0.2670892000896856,588.5769425999606,None,588.5769425999606,None,588.5769425999606,None,,,,,,,,,,,P017,fencog,1,Pre,2021_Oct_28_1045,Go No-Go Task,2021.1.4,118.77923442635712,
,"Rule: When you see blue image, do not press 'spacebar'.",Images/Fearful/AF26AFS.jpg,Fear,Blue,Images/Blue.jpg,None,ParentConditions/YellowBlueBlue_v1.xlsx,BlueBlueYellow,Conditions/Version_1/BlueFearStop.xlsx,yes,PASS,0.7771539142714355,,,,,,,,,0,0,0,0,0,1,1,1,0,6,6,6,,,,,,,,,,,,,,,,,,,,,,,,,,,,,,,,,,,,,,,,,,,,,,,,,,,,,,,,,,,,,,,,,,,,,,,,,,,,,,,1.92,588.9788791999454,None,None,1,,591.00112479995,None,591.00112479995,None,591.00112479995,None,,,,,,,,,,,P017,fencog,1,Pre,2021_Oct_28_1045,Go No-Go Task,2021.1.4,118.77923442635712,
,"Rule: When you see blue image, do not press 'spacebar'.",Images/Happy/WM11_HC.jpg,Happy,Yellow,Images/Yellow.jpg,space,ParentConditions/YellowBlueBlue_v1.xlsx,BlueBlueYellow,Conditions/Version_1/BlueFearStop.xlsx,no,PASS,0.612727142386838,,,,,,,,,0,0,0,0,0,1,1,1,0,7,7,7,,,,,,,,,,,,,,,,,,,,,,,,,,,,,,,,,,,,,,,,,,,,,,,,,,,,,,,,,,,,,,,,,,,,,,,,,,,,,,,1.25,591.4017459999304,None,space,1,0.26077029993757606,592.758984999964,None,592.758984999964,None,592.758984999964,None,,,,,,,,,,,P017,fencog,1,Pre,2021_Oct_28_1045,Go No-Go Task,2021.1.4,118.77923442635712,
,"Rule: When you see blue image, do not press 'spacebar'.",Images/Happy/BM03_HO.jpg,Happy,Yellow,Images/Yellow.jpg,space,ParentConditions/YellowBlueBlue_v1.xlsx,BlueBlueYellow,Conditions/Version_1/BlueFearStop.xlsx,no,PASS,0.7313165030586903,,,,,,,,,0,0,0,0,0,1,1,1,0,8,8,8,,,,,,,,,,,,,,,,,,,,,,,,,,,,,,,,,,,,,,,,,,,,,,,,,,,,,,,,,,,,,,,,,,,,,,,,,,,,,,,1.27,593.1588831999106,None,space,1,0.3112713999580592,594.5334736999357,None,594.5334736999357,None,594.5334736999357,None,,,,,,,,,,,P017,fencog,1,Pre,2021_Oct_28_1045,Go No-Go Task,2021.1.4,118.77923442635712,
,"Rule: When you see blue image, do not press 'spacebar'.",Images/Happy/BF18_HO.jpg,Happy,Yellow,Images/Yellow.jpg,space,ParentConditions/YellowBlueBlue_v1.xlsx,BlueBlueYellow,Conditions/Version_1/BlueFearStop.xlsx,no,PASS,0.5715935528670182,,,,,,,,,0,0,0,0,0,1,1,1,0,9,9,9,,,,,,,,,,,,,,,,,,,,,,,,,,,,,,,,,,,,,,,,,,,,,,,,,,,,,,,,,,,,,,,,,,,,,,,,,,,,,,,1.38,594.9336412999546,None,space,1,0.37174279999453574,596.4161511999555,None,596.4161511999555,None,596.4161511999555,None,,,,,,,,,,,P017,fencog,1,Pre,2021_Oct_28_1045,Go No-Go Task,2021.1.4,118.77923442635712,
,"Rule: When you see blue image, do not press 'spacebar'.",Images/Happy/AM10HAS.jpg,Happy,Yellow,Images/Yellow.jpg,space,ParentConditions/YellowBlueBlue_v1.xlsx,BlueBlueYellow,Conditions/Version_1/BlueFearStop.xlsx,no,PASS,0.4742386996589605,,,,,,,,,0,0,0,0,0,1,1,1,0,10,10,10,,,,,,,,,,,,,,,,,,,,,,,,,,,,,,,,,,,,,,,,,,,,,,,,,,,,,,,,,,,,,,,,,,,,,,,,,,,,,,,1.52,596.8153828999493,None,space,1,0.2594264999497682,598.4322193999542,None,598.4322193999542,None,598.4322193999542,None,,,,,,,,,,,P017,fencog,1,Pre,2021_Oct_28_1045,Go No-Go Task,2021.1.4,118.77923442635712,
,"Rule: When you see blue image, do not press 'spacebar'.",Images/Happy/AM09HAS.jpg,Happy,Yellow,Images/Yellow.jpg,space,ParentConditions/YellowBlueBlue_v1.xlsx,BlueBlueYellow,Conditions/Version_1/BlueFearStop.xlsx,no,PASS,0.5791375189576048,,,,,,,,,0,0,0,0,0,1,1,1,0,11,11,11,,,,,,,,,,,,,,,,,,,,,,,,,,,,,,,,,,,,,,,,,,,,,,,,,,,,,,,,,,,,,,,,,,,,,,,,,,,,,,,1.95,598.8330769999884,None,space,1,0.23482699994929135,600.8897508999798,None,600.8897508999798,None,600.8897508999798,None,,,,,,,,,,,P017,fencog,1,Pre,2021_Oct_28_1045,Go No-Go Task,2021.1.4,118.77923442635712,
,"Rule: When you see blue image, do not press 'spacebar'.",Images/Happy/AM16HAS.jpg,Happy,Yellow,Images/Yellow.jpg,space,ParentConditions/YellowBlueBlue_v1.xlsx,BlueBlueYellow,Conditions/Version_1/BlueFearStop.xlsx,no,PASS,0.06851146054747248,,,,,,,,,0,0,0,0,0,1,1,1,0,12,12,12,,,,,,,,,,,,,,,,,,,,,,,,,,,,,,,,,,,,,,,,,,,,,,,,,,,,,,,,,,,,,,,,,,,,,,,,,,,,,,,1.78,601.2899270999478,None,space,1,0.3522135999519378,603.1725714999484,None,603.1725714999484,None,603.1725714999484,None,,,,,,,,,,,P017,fencog,1,Pre,2021_Oct_28_1045,Go No-Go Task,2021.1.4,118.77923442635712,
,"Rule: When you see blue image, do not press 'spacebar'.",Images/Happy/AF10_HE.jpg,Happy,Yellow,Images/Yellow.jpg,space,ParentConditions/YellowBlueBlue_v1.xlsx,BlueBlueYellow,Conditions/Version_1/BlueFearStop.xlsx,no,PASS,0.21267371658214962,,,,,,,,,0,0,0,0,0,1,1,1,0,13,13,13,,,,,,,,,,,,,,,,,,,,,,,,,,,,,,,,,,,,,,,,,,,,,,,,,,,,,,,,,,,,,,,,,,,,,,,,,,,,,,,1.43,603.5759034999646,None,space,1,0.2439490999095142,605.1136348999571,None,605.1136348999571,None,605.1136348999571,None,,,,,,,,,,,P017,fencog,1,Pre,2021_Oct_28_1045,Go No-Go Task,2021.1.4,118.77923442635712,
,"Rule: When you see blue image, do not press 'spacebar'.",Images/Happy/AF27HAS.jpg,Happy,Yellow,Images/Yellow.jpg,space,ParentConditions/YellowBlueBlue_v1.xlsx,BlueBlueYellow,Conditions/Version_1/BlueFearStop.xlsx,no,PASS,0.8109673156723475,,,,,,,,,0,0,0,0,0,1,1,1,0,14,14,14,,,,,,,,,,,,,,,,,,,,,,,,,,,,,,,,,,,,,,,,,,,,,,,,,,,,,,,,,,,,,,,,,,,,,,,,,,,,,,,1.59,605.5129453999689,None,space,1,0.32708760001696646,607.2046864998993,None,607.2046864998993,None,607.2046864998993,None,,,,,,,,,,,P017,fencog,1,Pre,2021_Oct_28_1045,Go No-Go Task,2021.1.4,118.77923442635712,
,"Rule: When you see blue image, do not press 'spacebar'.",Images/Happy/BF10_HO.jpg,Happy,Yellow,Images/Yellow.jpg,space,ParentConditions/YellowBlueBlue_v1.xlsx,BlueBlueYellow,Conditions/Version_1/BlueFearStop.xlsx,no,PASS,0.35707259862702334,,,,,,,,,0,0,0,0,0,1,1,1,0,15,15,15,,,,,,,,,,,,,,,,,,,,,,,,,,,,,,,,,,,,,,,,,,,,,,,,,,,,,,,,,,,,,,,,,,,,,,,,,,,,,,,1.75,607.6121980999596,None,space,1,0.36562950001098216,609.462358299992,None,609.462358299992,None,609.462358299992,None,,,,,,,,,,,P017,fencog,1,Pre,2021_Oct_28_1045,Go No-Go Task,2021.1.4,118.77923442635712,
,"Rule: When you see blue image, do not press 'spacebar'.",Images/Happy/BF14_HO.jpg,Happy,Yellow,Images/Yellow.jpg,space,ParentConditions/YellowBlueBlue_v1.xlsx,BlueBlueYellow,Conditions/Version_1/BlueFearStop.xlsx,no,PASS,0.41712793219483124,,,,,,,,,0,0,0,0,0,1,1,1,0,16,16,16,,,,,,,,,,,,,,,,,,,,,,,,,,,,,,,,,,,,,,,,,,,,,,,,,,,,,,,,,,,,,,,,,,,,,,,,,,,,,,,1.66,609.8729986998951,None,space,1,0.2968239000765607,611.6367162999231,None,611.6367162999231,None,611.6367162999231,None,,,,,,,,,,,P017,fencog,1,Pre,2021_Oct_28_1045,Go No-Go Task,2021.1.4,118.77923442635712,
,"Rule: When you see blue image, do not press 'spacebar'.",Images/Fearful/BM08_FC.jpg,Fear,Blue,Images/Blue.jpg,None,ParentConditions/YellowBlueBlue_v1.xlsx,BlueBlueYellow,Conditions/Version_1/BlueFearStop.xlsx,yes,PASS,0.2777606849347436,,,,,,,,,0,0,0,0,0,1,1,1,0,17,17,17,,,,,,,,,,,,,,,,,,,,,,,,,,,,,,,,,,,,,,,,,,,,,,,,,,,,,,,,,,,,,,,,,,,,,,,,,,,,,,,1.31,612.0355896999827,None,space,0,0.2712868000380695,613.4526382999029,None,613.4526382999029,None,613.4526382999029,None,,,,,,,,,,,P017,fencog,1,Pre,2021_Oct_28_1045,Go No-Go Task,2021.1.4,118.77923442635712,
,"Rule: When you see blue image, do not press 'spacebar'.",Images/Happy/AM01HAS.jpg,Happy,Yellow,Images/Yellow.jpg,space,ParentConditions/YellowBlueBlue_v1.xlsx,BlueBlueYellow,Conditions/Version_1/BlueFearStop.xlsx,no,PASS,0.43160138117116176,,,,,,,,,0,0,0,0,0,1,1,1,0,18,18,18,,,,,,,,,,,,,,,,,,,,,,,,,,,,,,,,,,,,,,,,,,,,,,,,,,,,,,,,,,,,,,,,,,,,,,,,,,,,,,,1.21,613.8518328999635,None,space,1,0.31618179997894913,615.1689499999629,None,615.1689499999629,None,615.1689499999629,None,,,,,,,,,,,P017,fencog,1,Pre,2021_Oct_28_1045,Go No-Go Task,2021.1.4,118.77923442635712,
,"Rule: When you see blue image, do not press 'spacebar'.",Images/Happy/AF11HAS.jpg,Happy,Yellow,Images/Yellow.jpg,space,ParentConditions/YellowBlueBlue_v1.xlsx,BlueBlueYellow,Conditions/Version_1/BlueFearStop.xlsx,no,PASS,0.9696898199968184,,,,,,,,,0,0,0,0,0,1,1,1,0,19,19,19,,,,,,,,,,,,,,,,,,,,,,,,,,,,,,,,,,,,,,,,,,,,,,,,,,,,,,,,,,,,,,,,,,,,,,,,,,,,,,,1.47,615.5692758999066,None,space,1,0.2770124999806285,617.1430423998972,None,617.1430423998972,None,617.1430423998972,None,,,,,,,,,,,P017,fencog,1,Pre,2021_Oct_28_1045,Go No-Go Task,2021.1.4,118.77923442635712,
,"Rule: When you see blue image, do not press 'spacebar'.",Images/Happy/BM01_HO.jpg,Happy,Yellow,Images/Yellow.jpg,space,ParentConditions/YellowBlueBlue_v1.xlsx,BlueBlueYellow,Conditions/Version_1/BlueFearStop.xlsx,no,PASS,0.40182091251260654,,,,,,,,,0,0,0,0,0,1,1,1,0,20,20,20,,,,,,,,,,,,,,,,,,,,,,,,,,,,,,,,,,,,,,,,,,,,,,,,,,,,,,,,,,,,,,,,,,,,,,,,,,,,,,,1.93,617.5480021999683,None,space,1,0.3552063999231905,619.5927678999724,None,619.5927678999724,None,619.5927678999724,None,,,,,,,,,,,P017,fencog,1,Pre,2021_Oct_28_1045,Go No-Go Task,2021.1.4,118.77923442635712,
,"Rule: When you see blue image, do not press 'spacebar'.",Images/Happy/AF07_HO.jpg,Happy,Yellow,Images/Yellow.jpg,space,ParentConditions/YellowBlueBlue_v1.xlsx,BlueBlueYellow,Conditions/Version_1/BlueFearStop.xlsx,no,PASS,0.304860645067783,,,,,,,,,0,0,0,0,0,1,1,1,0,21,21,21,,,,,,,,,,,,,,,,,,,,,,,,,,,,,,,,,,,,,,,,,,,,,,,,,,,,,,,,,,,,,,,,,,,,,,,,,,,,,,,1.44,619.9979388999054,None,space,1,0.3019272000528872,621.5500912999269,None,621.5500912999269,None,621.5500912999269,None,,,,,,,,,,,P017,fencog,1,Pre,2021_Oct_28_1045,Go No-Go Task,2021.1.4,118.77923442635712,
,"Rule: When you see blue image, do not press 'spacebar'.",Images/Happy/HM06_HO.jpg,Happy,Yellow,Images/Yellow.jpg,space,ParentConditions/YellowBlueBlue_v1.xlsx,BlueBlueYellow,Conditions/Version_1/BlueFearStop.xlsx,no,PASS,0.3928744637511502,,,,,,,,,0,0,0,0,0,1,1,1,0,22,22,22,,,,,,,,,,,,,,,,,,,,,,,,,,,,,,,,,,,,,,,,,,,,,,,,,,,,,,,,,,,,,,,,,,,,,,,,,,,,,,,1.83,621.9493024999974,None,space,1,0.30465810000896454,623.8913440000033,None,623.8913440000033,None,623.8913440000033,None,,,,,,,,,,,P017,fencog,1,Pre,2021_Oct_28_1045,Go No-Go Task,2021.1.4,118.77923442635712,
,"Rule: When you see blue image, do not press 'spacebar'.",Images/Fearful/AM09_FO.jpg,Fear,Blue,Images/Blue.jpg,None,ParentConditions/YellowBlueBlue_v1.xlsx,BlueBlueYellow,Conditions/Version_1/BlueFearStop.xlsx,yes,PASS,0.17130222782280535,,,,,,,,,0,0,0,0,0,1,1,1,0,23,23,23,,,,,,,,,,,,,,,,,,,,,,,,,,,,,,,,,,,,,,,,,,,,,,,,,,,,,,,,,,,,,,,,,,,,,,,,,,,,,,,1.37,624.2903404999524,None,None,1,,625.7657943998929,None,625.7657943998929,None,625.7657943998929,None,,,,,,,,,,,P017,fencog,1,Pre,2021_Oct_28_1045,Go No-Go Task,2021.1.4,118.77923442635712,
,"Rule: When you see blue image, do not press 'spacebar'.",Images/Happy/AF09HAS.jpg,Happy,Yellow,Images/Yellow.jpg,space,ParentConditions/YellowBlueBlue_v1.xlsx,BlueBlueYellow,Conditions/Version_1/BlueFearStop.xlsx,no,PASS,0.32050850835393896,,,,,,,,,0,0,0,0,0,1,1,1,0,24,24,24,,,,,,,,,,,,,,,,,,,,,,,,,,,,,,,,,,,,,,,,,,,,,,,,,,,,,,,,,,,,,,,,,,,,,,,,,,,,,,,1.33,626.1671698999126,None,space,1,0.27744500001426786,627.5981707999017,None,627.5981707999017,None,627.5981707999017,None,,,,,,,,,,,P017,fencog,1,Pre,2021_Oct_28_1045,Go No-Go Task,2021.1.4,118.77923442635712,
,"Rule: When you see blue image, do not press 'spacebar'.",Images/Happy/AM04HAS.jpg,Happy,Yellow,Images/Yellow.jpg,space,ParentConditions/YellowBlueBlue_v1.xlsx,BlueBlueYellow,Conditions/Version_1/BlueFearStop.xlsx,no,PASS,0.17004201555218557,,,,,,,,,0,0,0,0,0,1,1,1,0,25,25,25,,,,,,,,,,,,,,,,,,,,,,,,,,,,,,,,,,,,,,,,,,,,,,,,,,,,,,,,,,,,,,,,,,,,,,,,,,,,,,,1.94,627.9972525999183,None,space,1,0.3568424000404775,630.039591299952,None,630.039591299952,None,630.039591299952,None,,,,,,,,,,,P017,fencog,1,Pre,2021_Oct_28_1045,Go No-Go Task,2021.1.4,118.77923442635712,
,"Rule: When you see blue image, do not press 'spacebar'.",Images/Happy/BF07_HO.jpg,Happy,Yellow,Images/Yellow.jpg,space,ParentConditions/YellowBlueBlue_v1.xlsx,BlueBlueYellow,Conditions/Version_1/BlueFearStop.xlsx,no,PASS,0.9775255982448644,,,,,,,,,0,0,0,0,0,1,1,1,0,26,26,26,,,,,,,,,,,,,,,,,,,,,,,,,,,,,,,,,,,,,,,,,,,,,,,,,,,,,,,,,,,,,,,,,,,,,,,,,,,,,,,1.68,630.4385551000014,None,space,1,0.2610405000159517,632.2305356999859,None,632.2305356999859,None,632.2305356999859,None,,,,,,,,,,,P017,fencog,1,Pre,2021_Oct_28_1045,Go No-Go Task,2021.1.4,118.77923442635712,
,"Rule: When you see blue image, do not press 'spacebar'.",Images/Happy/AF02HAS.jpg,Happy,Yellow,Images/Yellow.jpg,space,ParentConditions/YellowBlueBlue_v1.xlsx,BlueBlueYellow,Conditions/Version_1/BlueFearStop.xlsx,no,PASS,0.9926707513295598,,,,,,,,,0,0,0,0,0,1,1,1,0,27,27,27,,,,,,,,,,,,,,,,,,,,,,,,,,,,,,,,,,,,,,,,,,,,,,,,,,,,,,,,,,,,,,,,,,,,,,,,,,,,,,,1.46,632.6345209999708,None,space,1,0.374953499995172,634.1965801999904,None,634.1965801999904,None,634.1965801999904,None,,,,,,,,,,,P017,fencog,1,Pre,2021_Oct_28_1045,Go No-Go Task,2021.1.4,118.77923442635712,
,"Rule: When you see blue image, do not press 'spacebar'.",Images/Happy/AM30HAS.jpg,Happy,Yellow,Images/Yellow.jpg,space,ParentConditions/YellowBlueBlue_v1.xlsx,BlueBlueYellow,Conditions/Version_1/BlueFearStop.xlsx,no,PASS,0.6844901636445411,,,,,,,,,0,0,0,0,0,1,1,1,0,28,28,28,,,,,,,,,,,,,,,,,,,,,,,,,,,,,,,,,,,,,,,,,,,,,,,,,,,,,,,,,,,,,,,,,,,,,,,,,,,,,,,1.88,634.5981019999599,None,space,1,0.3040995999472216,636.5793436999666,None,636.5793436999666,None,636.5793436999666,None,,,,,,,,,,,P017,fencog,1,Pre,2021_Oct_28_1045,Go No-Go Task,2021.1.4,118.77923442635712,
,"Rule: When you see blue image, do not press 'spacebar'.",Images/Happy/BF05_HO.jpg,Happy,Yellow,Images/Yellow.jpg,space,ParentConditions/YellowBlueBlue_v1.xlsx,BlueBlueYellow,Conditions/Version_1/BlueFearStop.xlsx,no,PASS,0.010815687417666808,,,,,,,,,0,0,0,0,0,1,1,1,0,29,29,29,,,,,,,,,,,,,,,,,,,,,,,,,,,,,,,,,,,,,,,,,,,,,,,,,,,,,,,,,,,,,,,,,,,,,,,,,,,,,,,1.49,636.9783008999657,None,space,1,0.29067110002506524,638.5704167999793,None,638.5704167999793,None,638.5704167999793,None,,,,,,,,,,,P017,fencog,1,Pre,2021_Oct_28_1045,Go No-Go Task,2021.1.4,118.77923442635712,
,"Rule: When you see blue image, do not press 'spacebar'.",Images/Fearful/AF25AFS.jpg,Fear,Blue,Images/Blue.jpg,None,ParentConditions/YellowBlueBlue_v1.xlsx,BlueBlueYellow,Conditions/Version_1/BlueFearStop.xlsx,yes,PASS,0.35816317389786545,,,,,,,,,0,0,0,0,0,1,1,1,0,30,30,30,,,,,,,,,,,,,,,,,,,,,,,,,,,,,,,,,,,,,,,,,,,,,,,,,,,,,,,,,,,,,,,,,,,,,,,,,,,,,,,1.45,638.9746125999372,None,None,1,,640.5363490999443,None,640.5363490999443,None,640.5363490999443,None,,,,,,,,,,,P017,fencog,1,Pre,2021_Oct_28_1045,Go No-Go Task,2021.1.4,118.77923442635712,
,"Rule: When you see blue image, do not press 'spacebar'.",Images/Happy/BF09_HO.jpg,Happy,Yellow,Images/Yellow.jpg,space,ParentConditions/YellowBlueBlue_v1.xlsx,BlueBlueYellow,Conditions/Version_1/BlueFearStop.xlsx,no,PASS,0.3783419276063734,,,,,,,,,0,0,0,0,0,1,1,1,0,31,31,31,,,,,,,,,,,,,,,,,,,,,,,,,,,,,,,,,,,,,,,,,,,,,,,,,,,,,,,,,,,,,,,,,,,,,,,,,,,,,,,1.74,640.9352418999188,None,space,1,0.258630899945274,642.777317399974,None,642.777317399974,None,642.777317399974,None,,,,,,,,,,,P017,fencog,1,Pre,2021_Oct_28_1045,Go No-Go Task,2021.1.4,118.77923442635712,
,"Rule: When you see blue image, do not press 'spacebar'.",Images/Happy/AM09_HE.jpg,Happy,Yellow,Images/Yellow.jpg,space,ParentConditions/YellowBlueBlue_v1.xlsx,BlueBlueYellow,Conditions/Version_1/BlueFearStop.xlsx,no,PASS,0.21016465424314756,,,,,,,,,0,0,0,0,0,1,1,1,0,32,32,32,,,,,,,,,,,,,,,,,,,,,,,,,,,,,,,,,,,,,,,,,,,,,,,,,,,,,,,,,,,,,,,,,,,,,,,,,,,,,,,1.82,643.1766932999017,None,space,1,0.29421910003293306,645.101782499929,None,645.101782499929,None,645.101782499929,None,,,,,,,,,,,P017,fencog,1,Pre,2021_Oct_28_1045,Go No-Go Task,2021.1.4,118.77923442635712,
,"Rule: When you see blue image, do not press 'spacebar'.",Images/Fearful/BF14_FO.jpg,Fear,Blue,Images/Blue.jpg,None,ParentConditions/YellowBlueBlue_v1.xlsx,BlueBlueYellow,Conditions/Version_1/BlueFearStop.xlsx,yes,PASS,0.9618360969741386,,,,,,,,,0,0,0,0,0,1,1,1,0,33,33,33,,,,,,,,,,,,,,,,,,,,,,,,,,,,,,,,,,,,,,,,,,,,,,,,,,,,,,,,,,,,,,,,,,,,,,,,,,,,,,,1.39,645.5010564998956,None,space,0,0.31485770002473146,646.9927790999645,None,646.9927790999645,None,646.9927790999645,None,,,,,,,,,,,P017,fencog,1,Pre,2021_Oct_28_1045,Go No-Go Task,2021.1.4,118.77923442635712,
,"Rule: When you see blue image, do not press 'spacebar'.",Images/Fearful/HF05_FC.jpg,Fear,Blue,Images/Blue.jpg,None,ParentConditions/YellowBlueBlue_v1.xlsx,BlueBlueYellow,Conditions/Version_1/BlueFearStop.xlsx,yes,PASS,0.005236598035567086,,,,,,,,,0,0,0,0,0,1,1,1,0,34,34,34,,,,,,,,,,,,,,,,,,,,,,,,,,,,,,,,,,,,,,,,,,,,,,,,,,,,,,,,,,,,,,,,,,,,,,,,,,,,,,,1.36,647.4042382999323,None,None,1,,648.8756498999428,None,648.8756498999428,None,648.8756498999428,None,,,,,,,,,,,P017,fencog,1,Pre,2021_Oct_28_1045,Go No-Go Task,2021.1.4,118.77923442635712,
,"Rule: When you see blue image, do not press 'spacebar'.",Images/Happy/AM23HAS.jpg,Happy,Yellow,Images/Yellow.jpg,space,ParentConditions/YellowBlueBlue_v1.xlsx,BlueBlueYellow,Conditions/Version_1/BlueFearStop.xlsx,no,PASS,0.13077339503157293,,,,,,,,,0,0,0,0,0,1,1,1,0,35,35,35,,,,,,,,,,,,,,,,,,,,,,,,,,,,,,,,,,,,,,,,,,,,,,,,,,,,,,,,,,,,,,,,,,,,,,,,,,,,,,,1.6,649.2771098999074,None,space,1,0.30876459996216,650.9832120999927,None,650.9832120999927,None,650.9832120999927,None,,,,,,,,,,,P017,fencog,1,Pre,2021_Oct_28_1045,Go No-Go Task,2021.1.4,118.77923442635712,
,"Rule: When you see blue image, do not press 'spacebar'.",Images/Happy/AM03_HO.jpg,Happy,Yellow,Images/Yellow.jpg,space,ParentConditions/YellowBlueBlue_v1.xlsx,BlueBlueYellow,Conditions/Version_1/BlueFearStop.xlsx,no,PASS,0.29520703840296547,,,,,,,,,0,0,0,0,0,1,1,1,0,36,36,36,,,,,,,,,,,,,,,,,,,,,,,,,,,,,,,,,,,,,,,,,,,,,,,,,,,,,,,,,,,,,,,,,,,,,,,,,,,,,,,1.61,651.3843639999395,None,space,1,0.3135304000461474,653.0993620998925,None,653.0993620998925,None,653.0993620998925,None,,,,,,,,,,,P017,fencog,1,Pre,2021_Oct_28_1045,Go No-Go Task,2021.1.4,118.77923442635712,
,"Rule: When you see blue image, do not press 'spacebar'.",Images/Happy/AF25HAS.jpg,Happy,Yellow,Images/Yellow.jpg,space,ParentConditions/YellowBlueBlue_v1.xlsx,BlueBlueYellow,Conditions/Version_1/BlueFearStop.xlsx,no,PASS,0.3205802973983102,,,,,,,,,0,0,0,0,0,1,1,1,0,37,37,37,,,,,,,,,,,,,,,,,,,,,,,,,,,,,,,,,,,,,,,,,,,,,,,,,,,,,,,,,,,,,,,,,,,,,,,,,,,,,,,1.87,653.4982864999911,None,space,1,0.3146136000286788,655.473688099999,None,655.473688099999,None,655.473688099999,None,,,,,,,,,,,P017,fencog,1,Pre,2021_Oct_28_1045,Go No-Go Task,2021.1.4,118.77923442635712,
,"Rule: When you see blue image, do not press 'spacebar'.",Images/Happy/BM08_HO.jpg,Happy,Yellow,Images/Yellow.jpg,space,ParentConditions/YellowBlueBlue_v1.xlsx,BlueBlueYellow,Conditions/Version_1/BlueFearStop.xlsx,no,PASS,0.9250231228335681,,,,,,,,,0,0,0,0,0,1,1,1,0,38,38,38,,,,,,,,,,,,,,,,,,,,,,,,,,,,,,,,,,,,,,,,,,,,,,,,,,,,,,,,,,,,,,,,,,,,,,,,,,,,,,,1.99,655.8738433999242,None,space,1,0.34263880003709346,657.9729328999529,None,657.9729328999529,None,657.9729328999529,None,,,,,,,,,,,P017,fencog,1,Pre,2021_Oct_28_1045,Go No-Go Task,2021.1.4,118.77923442635712,
,"Rule: When you see blue image, do not press 'spacebar'.",Images/Happy/AF32HAS.jpg,Happy,Yellow,Images/Yellow.jpg,space,ParentConditions/YellowBlueBlue_v1.xlsx,BlueBlueYellow,Conditions/Version_1/BlueFearStop.xlsx,no,PASS,0.73804934699979,,,,,,,,,0,0,0,0,0,1,1,1,0,39,39,39,,,,,,,,,,,,,,,,,,,,,,,,,,,,,,,,,,,,,,,,,,,,,,,,,,,,,,,,,,,,,,,,,,,,,,,,,,,,,,,1.71,658.3717000999022,None,space,1,0.3667996999574825,660.1889822999947,None,660.1889822999947,None,660.1889822999947,None,,,,,,,,,,,P017,fencog,1,Pre,2021_Oct_28_1045,Go No-Go Task,2021.1.4,118.77923442635712,
,"Rule: When you see blue image, do not press 'spacebar'.",Images/Happy/AF23HAS.jpg,Happy,Yellow,Images/Yellow.jpg,space,ParentConditions/YellowBlueBlue_v1.xlsx,BlueBlueYellow,Conditions/Version_1/BlueFearStop.xlsx,no,PASS,0.9000246195519893,,,,,,,,,0,0,0,0,0,1,1,1,0,40,40,40,,,,,,,,,,,,,,,,,,,,,,,,,,,,,,,,,,,,,,,,,,,,,,,,,,,,,,,,,,,,,,,,,,,,,,,,,,,,,,,1.26,660.5879714000039,None,None,0,,661.9549855999649,None,661.9549855999649,None,661.9549855999649,None,,,,,,,,,,,P017,fencog,1,Pre,2021_Oct_28_1045,Go No-Go Task,2021.1.4,118.77923442635712,
,"Rule: When you see blue image, do not press 'spacebar'.",Images/Happy/AM32HAS.jpg,Happy,Yellow,Images/Yellow.jpg,space,ParentConditions/YellowBlueBlue_v1.xlsx,BlueBlueYellow,Conditions/Version_1/BlueFearStop.xlsx,no,PASS,0.738989629625258,,,,,,,,,0,0,0,0,0,1,1,1,0,41,41,41,,,,,,,,,,,,,,,,,,,,,,,,,,,,,,,,,,,,,,,,,,,,,,,,,,,,,,,,,,,,,,,,,,,,,,,,,,,,,,,2,662.3603520999895,None,space,1,0.31674040004145354,664.4710690999636,None,664.4710690999636,None,664.4710690999636,None,,,,,,,,,,,P017,fencog,1,Pre,2021_Oct_28_1045,Go No-Go Task,2021.1.4,118.77923442635712,
,"Rule: When you see blue image, do not press 'spacebar'.",Images/Fearful/AM30AFS.jpg,Fear,Blue,Images/Blue.jpg,None,ParentConditions/YellowBlueBlue_v1.xlsx,BlueBlueYellow,Conditions/Version_1/BlueFearStop.xlsx,yes,PASS,0.33529906039128465,,,,,,,,,0,0,0,0,0,1,1,1,0,42,42,42,,,,,,,,,,,,,,,,,,,,,,,,,,,,,,,,,,,,,,,,,,,,,,,,,,,,,,,,,,,,,,,,,,,,,,,,,,,,,,,1.57,664.8676870999625,None,None,1,,666.5457197999349,None,666.5457197999349,None,666.5457197999349,None,,,,,,,,,,,P017,fencog,1,Pre,2021_Oct_28_1045,Go No-Go Task,2021.1.4,118.77923442635712,
,"Rule: When you see blue image, do not press 'spacebar'.",Images/Happy/BM02_HO.jpg,Happy,Yellow,Images/Yellow.jpg,space,ParentConditions/YellowBlueBlue_v1.xlsx,BlueBlueYellow,Conditions/Version_1/BlueFearStop.xlsx,no,PASS,0.711648218321579,,,,,,,,,0,0,0,0,0,1,1,1,0,43,43,43,,,,,,,,,,,,,,,,,,,,,,,,,,,,,,,,,,,,,,,,,,,,,,,,,,,,,,,,,,,,,,,,,,,,,,,,,,,,,,,1.35,666.957286199904,None,space,1,0.36927929997909814,668.4114641000051,None,668.4114641000051,None,668.4114641000051,None,,,,,,,,,,,P017,fencog,1,Pre,2021_Oct_28_1045,Go No-Go Task,2021.1.4,118.77923442635712,
,"Rule: When you see blue image, do not press 'spacebar'.",Images/Happy/AM10_HO.jpg,Happy,Yellow,Images/Yellow.jpg,space,ParentConditions/YellowBlueBlue_v1.xlsx,BlueBlueYellow,Conditions/Version_1/BlueFearStop.xlsx,no,PASS,0.7811025651589869,,,,,,,,,0,0,0,0,0,1,1,1,0,44,44,44,,,,,,,,,,,,,,,,,,,,,,,,,,,,,,,,,,,,,,,,,,,,,,,,,,,,,,,,,,,,,,,,,,,,,,,,,,,,,,,1.54,668.8093648999929,None,space,1,0.3272763000568375,670.4525477999123,None,670.4525477999123,None,670.4525477999123,None,,,,,,,,,,,P017,fencog,1,Pre,2021_Oct_28_1045,Go No-Go Task,2021.1.4,118.77923442635712,
,"Rule: When you see blue image, do not press 'spacebar'.",Images/Fearful/AM10_FO.jpg,Fear,Blue,Images/Blue.jpg,None,ParentConditions/YellowBlueBlue_v1.xlsx,BlueBlueYellow,Conditions/Version_1/BlueFearStop.xlsx,yes,PASS,0.14747063444404174,,,,,,,,,0,0,0,0,0,1,1,1,0,45,45,45,,,,,,,,,,,,,,,,,,,,,,,,,,,,,,,,,,,,,,,,,,,,,,,,,,,,,,,,,,,,,,,,,,,,,,,,,,,,,,,1.69,670.8577555998927,None,None,1,,672.6518558999524,None,672.6518558999524,None,672.6518558999524,None,,,,,,,,,,,P017,fencog,1,Pre,2021_Oct_28_1045,Go No-Go Task,2021.1.4,118.77923442635712,
,"Rule: When you see blue image, do not press 'spacebar'.",Images/Happy/AF19HAS.jpg,Happy,Yellow,Images/Yellow.jpg,space,ParentConditions/YellowBlueBlue_v1.xlsx,BlueBlueYellow,Conditions/Version_1/BlueFearStop.xlsx,no,PASS,0.5734484599929517,,,,,,,,,0,0,0,0,0,1,1,1,0,46,46,46,,,,,,,,,,,,,,,,,,,,,,,,,,,,,,,,,,,,,,,,,,,,,,,,,,,,,,,,,,,,,,,,,,,,,,,,,,,,,,,1.77,673.051715199952,None,space,1,0.3734886000165716,674.9262255999492,None,674.9262255999492,None,674.9262255999492,None,,,,,,,,,,,P017,fencog,1,Pre,2021_Oct_28_1045,Go No-Go Task,2021.1.4,118.77923442635712,
,"Rule: When you see blue image, do not press 'spacebar'.",Images/Fearful/HF09_FC.jpg,Fear,Blue,Images/Blue.jpg,None,ParentConditions/YellowBlueBlue_v1.xlsx,BlueBlueYellow,Conditions/Version_1/BlueFearStop.xlsx,yes,PASS,0.19935802832005745,,,,,,,,,0,0,0,0,0,1,1,1,0,47,47,47,,,,,,,,,,,,,,,,,,,,,,,,,,,,,,,,,,,,,,,,,,,,,,,,,,,,,,,,,,,,,,,,,,,,,,,,,,,,,,,1.22,675.3260414999677,None,None,1,,676.6506500999676,None,676.6506500999676,None,676.6506500999676,None,,,,,,,,,,,P017,fencog,1,Pre,2021_Oct_28_1045,Go No-Go Task,2021.1.4,118.77923442635712,
,"Rule: When you see blue image, do not press 'spacebar'.",Images/Fearful/AM22AFS.jpg,Fear,Blue,Images/Blue.jpg,None,ParentConditions/YellowBlueBlue_v1.xlsx,BlueBlueYellow,Conditions/Version_1/BlueFearStop.xlsx,yes,PASS,0.17276378175067786,,,,,,,,,0,0,0,0,0,1,1,1,0,48,48,48,,,,,,,,,,,,,,,,,,,,,,,,,,,,,,,,,,,,,,,,,,,,,,,,,,,,,,,,,,,,,,,,,,,,,,,,,,,,,,,1.67,677.049626699998,None,None,1,,678.8251304998994,None,678.8251304998994,None,678.8251304998994,None,,,,,,,,,,,P017,fencog,1,Pre,2021_Oct_28_1045,Go No-Go Task,2021.1.4,118.77923442635712,
,"Rule: When you see blue image, do not press 'spacebar'.",Images/Happy/AM06_HC.jpg,Happy,Yellow,Images/Yellow.jpg,space,ParentConditions/YellowBlueBlue_v1.xlsx,BlueBlueYellow,Conditions/Version_1/BlueFearStop.xlsx,no,PASS,0.06320185727949179,,,,,,,,,0,0,0,0,0,1,1,1,0,49,49,49,,,,,,,,,,,,,,,,,,,,,,,,,,,,,,,,,,,,,,,,,,,,,,,,,,,,,,,,,,,,,,,,,,,,,,,,,,,,,,,1.23,679.2289595999755,None,space,1,0.2858292000601068,680.5662160000065,None,680.5662160000065,None,680.5662160000065,None,,,,,,,,,,,P017,fencog,1,Pre,2021_Oct_28_1045,Go No-Go Task,2021.1.4,118.77923442635712,
,"Rule: When you see blue image, do not press 'spacebar'.",Images/Fearful/AM32AFS.jpg,Fear,Blue,Images/Blue.jpg,None,ParentConditions/YellowBlueBlue_v1.xlsx,BlueBlueYellow,Conditions/Version_1/BlueFearStop.xlsx,yes,PASS,0.03468314974069586,,,,,,,,,0,0,0,0,0,1,1,1,0,50,50,50,,,,,,,,,,,,,,,,,,,,,,,,,,,,,,,,,,,,,,,,,,,,,,,,,,,,,,,,,,,,,,,,,,,,,,,,,,,,,,,1.32,680.9651329999324,None,None,1,,682.3906525999773,None,682.3906525999773,None,682.3906525999773,None,,,,,,,,,,,P017,fencog,1,Pre,2021_Oct_28_1045,Go No-Go Task,2021.1.4,118.77923442635712,
,"Rule: When you see blue image, do not press 'spacebar'.",Images/Happy/WF11_HE.jpg,Happy,Yellow,Images/Yellow.jpg,space,ParentConditions/YellowBlueBlue_v1.xlsx,BlueBlueYellow,Conditions/Version_1/BlueFearStop.xlsx,no,PASS,0.5138011133022752,,,,,,,,,0,0,0,0,0,1,1,1,0,51,51,51,,,,,,,,,,,,,,,,,,,,,,,,,,,,,,,,,,,,,,,,,,,,,,,,,,,,,,,,,,,,,,,,,,,,,,,,,,,,,,,1.41,682.7898185999366,None,space,1,0.37754349992610514,684.3066424999852,None,684.3066424999852,None,684.3066424999852,None,,,,,,,,,,,P017,fencog,1,Pre,2021_Oct_28_1045,Go No-Go Task,2021.1.4,118.77923442635712,
,"Rule: When you see blue image, do not press 'spacebar'.",Images/Fearful/AF28AFS.jpg,Fear,Blue,Images/Blue.jpg,None,ParentConditions/YellowBlueBlue_v1.xlsx,BlueBlueYellow,Conditions/Version_1/BlueFearStop.xlsx,yes,PASS,0.30204493442130675,,,,,,,,,0,0,0,0,0,1,1,1,0,52,52,52,,,,,,,,,,,,,,,,,,,,,,,,,,,,,,,,,,,,,,,,,,,,,,,,,,,,,,,,,,,,,,,,,,,,,,,,,,,,,,,1.55,684.7057105998974,None,None,1,,686.3560736000072,None,686.3560736000072,None,686.3560736000072,None,,,,,,,,,,,P017,fencog,1,Pre,2021_Oct_28_1045,Go No-Go Task,2021.1.4,118.77923442635712,
,"Rule: When you see blue image, do not press 'spacebar'.",Images/Happy/HF04_HE.jpg,Happy,Yellow,Images/Yellow.jpg,space,ParentConditions/YellowBlueBlue_v1.xlsx,BlueBlueYellow,Conditions/Version_1/BlueFearStop.xlsx,no,PASS,0.05385370360405073,,,,,,,,,0,0,0,0,0,1,1,1,0,53,53,53,,,,,,,,,,,,,,,,,,,,,,,,,,,,,,,,,,,,,,,,,,,,,,,,,,,,,,,,,,,,,,,,,,,,,,,,,,,,,,,1.24,686.758991099894,None,space,1,0.28203050000593066,688.1054032999091,None,688.1054032999091,None,688.1054032999091,None,,,,,,,,,,,P017,fencog,1,Pre,2021_Oct_28_1045,Go No-Go Task,2021.1.4,118.77923442635712,
,"Rule: When you see blue image, do not press 'spacebar'.",Images/Happy/AM13HAS.jpg,Happy,Yellow,Images/Yellow.jpg,space,ParentConditions/YellowBlueBlue_v1.xlsx,BlueBlueYellow,Conditions/Version_1/BlueFearStop.xlsx,no,PASS,0.9978120552242631,,,,,,,,,0,0,0,0,0,1,1,1,0,54,54,54,,,,,,,,,,,,,,,,,,,,,,,,,,,,,,,,,,,,,,,,,,,,,,,,,,,,,,,,,,,,,,,,,,,,,,,,,,,,,,,1.91,688.5058227999834,None,space,1,0.26598350005224347,690.5216306999791,None,690.5216306999791,None,690.5216306999791,None,,,,,,,,,,,P017,fencog,1,Pre,2021_Oct_28_1045,Go No-Go Task,2021.1.4,118.77923442635712,
,"Rule: When you see blue image, do not press 'spacebar'.",Images/Happy/HF10_HE.jpg,Happy,Yellow,Images/Yellow.jpg,space,ParentConditions/YellowBlueBlue_v1.xlsx,BlueBlueYellow,Conditions/Version_1/BlueFearStop.xlsx,no,PASS,0.7658265452728541,,,,,,,,,0,0,0,0,0,1,1,1,0,55,55,55,,,,,,,,,,,,,,,,,,,,,,,,,,,,,,,,,,,,,,,,,,,,,,,,,,,,,,,,,,,,,,,,,,,,,,,,,,,,,,,1.73,690.9212847999297,None,space,1,0.27420759992673993,692.7543698999798,None,692.7543698999798,None,692.7543698999798,None,,,,,,,,,,,P017,fencog,1,Pre,2021_Oct_28_1045,Go No-Go Task,2021.1.4,118.77923442635712,
,"Rule: When you see blue image, do not press 'spacebar'.",Images/Happy/AM04_HE.jpg,Happy,Yellow,Images/Yellow.jpg,space,ParentConditions/YellowBlueBlue_v1.xlsx,BlueBlueYellow,Conditions/Version_1/BlueFearStop.xlsx,no,PASS,0.8987539961300183,,,,,,,,,0,0,0,0,0,1,1,1,0,56,56,56,,,,,,,,,,,,,,,,,,,,,,,,,,,,,,,,,,,,,,,,,,,,,,,,,,,,,,,,,,,,,,,,,,,,,,,,,,,,,,,1.81,693.1592311999993,None,space,1,0.30885050003416836,695.0702536999015,None,695.0702536999015,None,695.0702536999015,None,,,,,,,,,,,P017,fencog,1,Pre,2021_Oct_28_1045,Go No-Go Task,2021.1.4,118.77923442635712,
