CondFileP,Instructions,FaceE,Express,ColourT,ColourF,CorrectAnsP,MasterCondFile,BlockOrder,CondFile,ColCheck,Triplicate_check,SORT_BY_SMALLEST,EPracticeOuterLoop.thisRepN,EPracticeOuterLoop.thisTrialN,EPracticeOuterLoop.thisN,EPracticeOuterLoop.thisIndex,EPracticeInnerLoop.thisRepN,EPracticeInnerLoop.thisTrialN,EPracticeInnerLoop.thisN,EPracticeInnerLoop.thisIndex,MasterLoop.thisRepN,MasterLoop.thisTrialN,MasterLoop.thisN,MasterLoop.thisIndex,OuterLoop.thisRepN,OuterLoop.thisTrialN,OuterLoop.thisN,OuterLoop.thisIndex,InnerLoop.thisRepN,InnerLoop.thisTrialN,InnerLoop.thisN,InnerLoop.thisIndex,text_13.started,text_13.stopped,key_resp_10.keys,key_resp_10.rt,key_resp_10.started,key_resp_10.stopped,text4.started,text4.stopped,EmotionTaskInstructions1.keys,EmotionTaskInstructions1.rt,EmotionTaskInstructions1.started,EmotionTaskInstructions1.stopped,text_4.started,text_4.stopped,key_resp_5.keys,key_resp_5.rt,key_resp_5.started,key_resp_5.stopped,Text_14.started,Text_14.stopped,key_resp_9.keys,key_resp_9.rt,key_resp_9.started,key_resp_9.stopped,text_5.started,text_5.stopped,text_6.started,text_6.stopped,key_resp_7.keys,key_resp_7.rt,key_resp_7.started,key_resp_7.stopped,text_10.started,text_10.stopped,text_11.started,text_11.stopped,text_12.started,text_12.stopped,ISIjitterPractice,EPracticeISIMarker.started,EPracticeISIMarker.stopped,Pract.keys,Pract.corr,Pract.rt,Pract.started,Pract.stopped,PracticeFace.started,PracticeFace.stopped,ColourPractice.started,ColourPractice.stopped,text_7.started,text_7.stopped,EndOfPractice.started,EndOfPractice.stopped,key_resp_8.keys,key_resp_8.rt,key_resp_8.started,key_resp_8.stopped,text_8.started,text_8.stopped,key_resp_6.keys,key_resp_6.rt,key_resp_6.started,key_resp_6.stopped,text_2.started,text_2.stopped,text_3.started,text_3.stopped,key_resp_3.keys,key_resp_3.rt,key_resp_3.started,key_resp_3.stopped,TaskBlock.started,TaskBlock.stopped,BlockNo1.started,BlockNo1.stopped,OfBlock.started,OfBlock.stopped,ISIjitter,ISImarker.started,ISImarker.stopped,key_resp.keys,key_resp.corr,key_resp.rt,key_resp.started,key_resp.stopped,FaceSet.started,FaceSet.stopped,Colour.started,Colour.stopped,EndBlockText.started,EndBlockText.stopped,key_resp_4.keys,key_resp_4.rt,key_resp_4.started,key_resp_4.stopped,BreakText2.started,BreakText2.stopped,PressToContinue.started,PressToContinue.stopped,participant,Study Name,Task Version (required to run),PRE/POST,date,expName,psychopyVersion,frameRate,
,,,,,,,,,,,,,,,,,,,,,,,,,,,,,,,,,20.475390300009167,None,space,3.0782810999953654,21.46823399999994,None,,,,,,,,,,,,,,,,,,,,,,,,,,,,,,,,,,,,,,,,,,,,,,,,,,,,,,,,,,,,,,,,,,,,,,,,,,,,,,,,,,,,,,,,,,,,,,,P018,fencog,2,Pre,2021_Oct_29_1136,Go No-Go Task,2021.1.4,119.94520904417038,
,,,,,,,,,,,,,,,,,,,,,,,,,,,,,,,,,,,,,,,26.270228200010024,None,space,13.663170999992872,26.270228200010024,None,,,,,,,,,,,,,,,,,,,,,,,,,,,,,,,,,,,,,,,,,,,,,,,,,,,,,,,,,,,,,,,,,,,,,,,,,,,,,,,,,,,,,,,,,P018,fencog,2,Pre,2021_Oct_29_1136,Go No-Go Task,2021.1.4,119.94520904417038,
,,,,,,,,,,,,,,,,,,,,,,,,,,,,,,,,,,,,,,,,,,,,,40.013305400003446,None,space,15.230436900004861,40.013305400003446,None,,,,,,,,,,,,,,,,,,,,,,,,,,,,,,,,,,,,,,,,,,,,,,,,,,,,,,,,,,,,,,,,,,,,,,,,,,,,,,,,,,,P018,fencog,2,Pre,2021_Oct_29_1136,Go No-Go Task,2021.1.4,119.94520904417038,
,,,,,,,,,,,,,,,,,,,,,,,,,,,,,,,,,,,,,,,,,,,,,,,,,,,55.25908899999922,None,space,14.575375400003395,55.25908899999922,None,,,,,,,,,,,,,,,,,,,,,,,,,,,,,,,,,,,,,,,,,,,,,,,,,,,,,,,,,,,,,,,,,,,,,,,,,,,,,P018,fencog,2,Pre,2021_Oct_29_1136,Go No-Go Task,2021.1.4,119.94520904417038,
EPracticeConditions/BlueEyes.csv,"Rule: When you see a blue image, do not press 'spacebar'.",Images/Happy/HF04_HE.jpg,Happy,Yellow,Images/Yellow.jpg,space,,,,,,,0,0,0,0,0,0,0,4,,,,,,,,,,,,,,,,,,,,,,,,,,,,,,,,,,,,,69.96420030000445,None,72.95292700000573,None,space,6.999618700006977,72.95292700000573,None,69.96420030000445,None,69.96420030000445,None,69.96420030000445,None,1.8,80.0884800000058,None,space,1,0.3009892999980366,82.07064340000215,None,82.07064340000215,None,82.07064340000215,None,83.56995280001138,None,,,,,,,,,,,,,,,,,,,,,,,,,,,,,,,,,,,,,,,,,,,,,,,,,P018,fencog,2,Pre,2021_Oct_29_1136,Go No-Go Task,2021.1.4,119.94520904417038,
EPracticeConditions/BlueEyes.csv,"Rule: When you see a blue image, do not press 'spacebar'.",Images/Fearful/AF01_FO.jpg,Fear,Blue,Images/Blue.jpg,None,,,,,,,0,0,0,0,0,1,1,1,,,,,,,,,,,,,,,,,,,,,,,,,,,,,,,,,,,,,,,,,,,,,,,,,,,1.3,84.94042920001084,None,None,1,,86.35826220001036,None,86.35826220001036,None,86.35826220001036,None,87.24515100001008,None,,,,,,,,,,,,,,,,,,,,,,,,,,,,,,,,,,,,,,,,,,,,,,,,,P018,fencog,2,Pre,2021_Oct_29_1136,Go No-Go Task,2021.1.4,119.94520904417038,
EPracticeConditions/BlueEyes.csv,"Rule: When you see a blue image, do not press 'spacebar'.",Images/Fearful/HM09_FC.jpg,Fear,Blue,Images/Blue.jpg,None,,,,,,,0,0,0,0,0,2,2,0,,,,,,,,,,,,,,,,,,,,,,,,,,,,,,,,,,,,,,,,,,,,,,,,,,,1.5,89.25178089999827,None,None,1,,90.87348270000075,None,90.87348270000075,None,90.87348270000075,None,91.75349090000964,None,,,,,,,,,,,,,,,,,,,,,,,,,,,,,,,,,,,,,,,,,,,,,,,,,P018,fencog,2,Pre,2021_Oct_29_1136,Go No-Go Task,2021.1.4,119.94520904417038,
EPracticeConditions/BlueEyes.csv,"Rule: When you see a blue image, do not press 'spacebar'.",Images/Happy/BM08_HO.jpg,Happy,Yellow,Images/Yellow.jpg,space,,,,,,,0,0,0,0,0,3,3,3,,,,,,,,,,,,,,,,,,,,,,,,,,,,,,,,,,,,,,,,,,,,,,,,,,,1.2,93.7599571000028,None,None,0,,95.06386270000075,None,95.06386270000075,None,95.06386270000075,None,95.98751820001053,None,,,,,,,,,,,,,,,,,,,,,,,,,,,,,,,,,,,,,,,,,,,,,,,,,P018,fencog,2,Pre,2021_Oct_29_1136,Go No-Go Task,2021.1.4,119.94520904417038,
EPracticeConditions/BlueEyes.csv,"Rule: When you see a blue image, do not press 'spacebar'.",Images/Happy/BM02_HO.jpg,Happy,Yellow,Images/Yellow.jpg,space,,,,,,,0,0,0,0,0,4,4,2,,,,,,,,,,,,,,,,,,,,,,,,,,,,,,,,,,,,,,,,,,,,,,,,,,,1.9,97.9759902000078,None,space,1,0.34060429999954067,99.98742289999791,None,99.98742289999791,None,99.98742289999791,None,100.8837091000023,None,,,,,,,,,,,,,,,,,,,,,,,,,,,,,,,,,,,,,,,,,,,,,,,,,P018,fencog,2,Pre,2021_Oct_29_1136,Go No-Go Task,2021.1.4,119.94520904417038,
EPracticeConditions/BlueEyes.csv,"Rule: When you see a blue image, do not press 'spacebar'.",Images/Happy/HF09_HE.jpg,Happy,Yellow,Images/Yellow.jpg,space,,,,,,,0,0,0,0,0,5,5,6,,,,,,,,,,,,,,,,,,,,,,,,,,,,,,,,,,,,,,,,,,,,,,,,,,,1.6,102.88824310000928,None,space,1,0.2718499000038719,104.61095970000315,None,104.61095970000315,None,104.61095970000315,None,105.5082728999987,None,,,,,,,,,,,,,,,,,,,,,,,,,,,,,,,,,,,,,,,,,,,,,,,,,P018,fencog,2,Pre,2021_Oct_29_1136,Go No-Go Task,2021.1.4,119.94520904417038,
EPracticeConditions/BlueEyes.csv,"Rule: When you see a blue image, do not press 'spacebar'.",Images/Happy/HF05_HO.jpg,Happy,Yellow,Images/Yellow.jpg,space,,,,,,,0,0,0,0,0,6,6,5,,,,,,,,,,,,,,,,,,,,,,,,,,,,,,,,,,,,,,,,,,,,,,,,,,,1.7,107.50058800000988,None,None,0,,109.31793470001139,None,109.31793470001139,None,109.31793470001139,None,110.20774530000926,None,,,,,,,,,,,,,,,,,,,,,,,,,,,,,,,,,,,,,,,,,,,,,,,,,P018,fencog,2,Pre,2021_Oct_29_1136,Go No-Go Task,2021.1.4,119.94520904417038,
EPracticeConditions/BlueEyes.csv,"Rule: When you see a blue image, do not press 'spacebar'.",Images/Happy/HF10_HE.jpg,Happy,Yellow,Images/Yellow.jpg,space,,,,,,,0,0,0,0,0,7,7,7,,,,,,,,,,,,,,,,,,,,,,,,,,,,,,,,,,,,,,,,,,,,,,,,,,,1.4,112.21140390000073,None,space,1,0.3224904999951832,113.73328970000148,None,113.73328970000148,None,113.73328970000148,None,114.62207070000295,None,,,,,,,,,,,,,,,,,,,,,,,,,,,,,,,,,,,,,,,,,,,,,,,,,P018,fencog,2,Pre,2021_Oct_29_1136,Go No-Go Task,2021.1.4,119.94520904417038,
EPracticeConditions/BlueEyes.csv,"Rule: When you see a blue image, do not press 'spacebar'.",,,,,,,,,,,,0,0,0,0,,,,,,,,,,,,,,,,,,,,,,,,,,,,,,,,,,,,,,,,,,,,,,,,,,,,,,,,,,,,,,,,,,,,,,,,,,,,,,,,,,,,,,,,,,,,,,,,,,,,,,,,,,,,,,,,,,,,,P018,fencog,2,Pre,2021_Oct_29_1136,Go No-Go Task,2021.1.4,119.94520904417038,
EPracticeConditions/YellowEyes.csv,"Rule: When you see a yellow image, do not press 'spacebar'.",Images/Fearful/AM19AFS.jpg,Fear,Blue,Images/Blue.jpg,space,,,,,,,0,1,1,1,0,0,0,4,,,,,,,,,,,,,,,,,,,,,,,,,,,,,,,,,,,,,116.66172040000674,None,119.65598619999946,None,space,1.5145537999924272,119.65598619999946,None,116.66172040000674,None,116.66172040000674,None,116.66172040000674,None,1.6,121.19198920000053,None,None,0,,122.9139783999999,None,122.9139783999999,None,122.9139783999999,None,123.81296629999997,None,,,,,,,,,,,,,,,,,,,,,,,,,,,,,,,,,,,,,,,,,,,,,,,,,P018,fencog,2,Pre,2021_Oct_29_1136,Go No-Go Task,2021.1.4,119.94520904417038,
EPracticeConditions/YellowEyes.csv,"Rule: When you see a yellow image, do not press 'spacebar'.",Images/Happy/AM32HAS.jpg,Happy,Yellow,Images/Yellow.jpg,None,,,,,,,0,1,1,1,0,1,1,0,,,,,,,,,,,,,,,,,,,,,,,,,,,,,,,,,,,,,,,,,,,,,,,,,,,1.3,125.80763039999874,None,space,0,0.32281979999970645,127.21253860001161,None,127.21253860001161,None,127.21253860001161,None,128.1267446999991,None,,,,,,,,,,,,,,,,,,,,,,,,,,,,,,,,,,,,,,,,,,,,,,,,,P018,fencog,2,Pre,2021_Oct_29_1136,Go No-Go Task,2021.1.4,119.94520904417038,
EPracticeConditions/YellowEyes.csv,"Rule: When you see a yellow image, do not press 'spacebar'.",Images/Fearful/AM16AFS.jpg,Fear,Blue,Images/Blue.jpg,space,,,,,,,0,1,1,1,0,2,2,2,,,,,,,,,,,,,,,,,,,,,,,,,,,,,,,,,,,,,,,,,,,,,,,,,,,1.8,130.12385230000655,None,None,0,,132.03616480001074,None,132.03616480001074,None,132.03616480001074,None,132.94251890000305,None,,,,,,,,,,,,,,,,,,,,,,,,,,,,,,,,,,,,,,,,,,,,,,,,,P018,fencog,2,Pre,2021_Oct_29_1136,Go No-Go Task,2021.1.4,119.94520904417038,
EPracticeConditions/YellowEyes.csv,"Rule: When you see a yellow image, do not press 'spacebar'.",Images/Fearful/AM24AFS.jpg,Fear,Blue,Images/Blue.jpg,space,,,,,,,0,1,1,1,0,3,3,7,,,,,,,,,,,,,,,,,,,,,,,,,,,,,,,,,,,,,,,,,,,,,,,,,,,1.7,134.93850200000452,None,space,1,0.35911839999607764,136.75154040000052,None,136.75154040000052,None,136.75154040000052,None,137.6489300000103,None,,,,,,,,,,,,,,,,,,,,,,,,,,,,,,,,,,,,,,,,,,,,,,,,,P018,fencog,2,Pre,2021_Oct_29_1136,Go No-Go Task,2021.1.4,119.94520904417038,
EPracticeConditions/YellowEyes.csv,"Rule: When you see a yellow image, do not press 'spacebar'.",Images/Happy/BF05_HO.jpg,Happy,Yellow,Images/Yellow.jpg,None,,,,,,,0,1,1,1,0,4,4,1,,,,,,,,,,,,,,,,,,,,,,,,,,,,,,,,,,,,,,,,,,,,,,,,,,,1.9,139.65331610001158,None,space,0,0.320047599991085,141.6750383000035,None,141.6750383000035,None,141.6750383000035,None,142.56352710000647,None,,,,,,,,,,,,,,,,,,,,,,,,,,,,,,,,,,,,,,,,,,,,,,,,,P018,fencog,2,Pre,2021_Oct_29_1136,Go No-Go Task,2021.1.4,119.94520904417038,
EPracticeConditions/YellowEyes.csv,"Rule: When you see a yellow image, do not press 'spacebar'.",Images/Fearful/AM17AFS.jpg,Fear,Blue,Images/Blue.jpg,space,,,,,,,0,1,1,1,0,5,5,3,,,,,,,,,,,,,,,,,,,,,,,,,,,,,,,,,,,,,,,,,,,,,,,,,,,1.5,144.57077380000555,None,space,1,0.2619039000128396,146.19029330000922,None,146.19029330000922,None,146.19029330000922,None,147.0780408999999,None,,,,,,,,,,,,,,,,,,,,,,,,,,,,,,,,,,,,,,,,,,,,,,,,,P018,fencog,2,Pre,2021_Oct_29_1136,Go No-Go Task,2021.1.4,119.94520904417038,
EPracticeConditions/YellowEyes.csv,"Rule: When you see a yellow image, do not press 'spacebar'.",Images/Fearful/AM22AFS.jpg,Fear,Blue,Images/Blue.jpg,space,,,,,,,0,1,1,1,0,6,6,5,,,,,,,,,,,,,,,,,,,,,,,,,,,,,,,,,,,,,,,,,,,,,,,,,,,1.4,149.082699400009,None,None,0,,150.6057609999989,None,150.6057609999989,None,150.6057609999989,None,151.49591930001043,None,,,,,,,,,,,,,,,,,,,,,,,,,,,,,,,,,,,,,,,,,,,,,,,,,P018,fencog,2,Pre,2021_Oct_29_1136,Go No-Go Task,2021.1.4,119.94520904417038,
EPracticeConditions/YellowEyes.csv,"Rule: When you see a yellow image, do not press 'spacebar'.",Images/Fearful/AM23AFS.jpg,Fear,Blue,Images/Blue.jpg,space,,,,,,,0,1,1,1,0,7,7,6,,,,,,,,,,,,,,,,,,,,,,,,,,,,,,,,,,,,,,,,,,,,,,,,,,,1.2,153.50063860000228,None,space,1,0.29330550000304356,154.81266440000036,None,154.81266440000036,None,154.81266440000036,None,155.7045816000027,None,,,,,,,,,,,,,,,,,,,,,,,,,,,,,,,,,,,,,,,,,,,,,,,,,P018,fencog,2,Pre,2021_Oct_29_1136,Go No-Go Task,2021.1.4,119.94520904417038,
EPracticeConditions/YellowEyes.csv,"Rule: When you see a yellow image, do not press 'spacebar'.",,,,,,,,,,,,0,1,1,1,,,,,,,,,,,,,,,,,,,,,,,,,,,,,,,,,,,,,,,,,,,,,,,,,,,,,,,,,,,,,,,,,,,,,,,,,,,,,,,,,,,,,,,,,,,,,,,,,,,,,,,,,,,,,,,,,,,,,P018,fencog,2,Pre,2021_Oct_29_1136,Go No-Go Task,2021.1.4,119.94520904417038,
EPracticeConditions/BlueScram.csv,"Rule: When you see a blue image, do not press 'spacebar'.",Images/Scram1/AM04_NC.jpg,Scramble,Yellow,Images/Yellow.jpg,space,,,,,,,0,2,2,2,0,0,0,3,,,,,,,,,,,,,,,,,,,,,,,,,,,,,,,,,,,,,157.735834600011,None,160.72711590000836,None,space,6.66095900000073,160.72711590000836,None,157.735834600011,None,157.735834600011,None,157.735834600011,None,1.8,167.4031771000009,None,space,1,0.3026862999977311,169.3084971000062,None,169.3084971000062,None,169.3084971000062,None,170.21424200000183,None,,,,,,,,,,,,,,,,,,,,,,,,,,,,,,,,,,,,,,,,,,,,,,,,,P018,fencog,2,Pre,2021_Oct_29_1136,Go No-Go Task,2021.1.4,119.94520904417038,
EPracticeConditions/BlueScram.csv,"Rule: When you see a blue image, do not press 'spacebar'.",Images/Scram1/AM13NES.jpg,Scramble,Yellow,Images/Yellow.jpg,space,,,,,,,0,2,2,2,0,1,1,5,,,,,,,,,,,,,,,,,,,,,,,,,,,,,,,,,,,,,,,,,,,,,,,,,,,1.6,172.21823530000984,None,space,1,0.2651302000012947,173.93217850000656,None,173.93217850000656,None,173.93217850000656,None,174.82920150000427,None,,,,,,,,,,,,,,,,,,,,,,,,,,,,,,,,,,,,,,,,,,,,,,,,,P018,fencog,2,Pre,2021_Oct_29_1136,Go No-Go Task,2021.1.4,119.94520904417038,
EPracticeConditions/BlueScram.csv,"Rule: When you see a blue image, do not press 'spacebar'.",Images/Scram1/AM03NES.jpg,Scramble,Yellow,Images/Yellow.jpg,space,,,,,,,0,2,2,2,0,2,2,4,,,,,,,,,,,,,,,,,,,,,,,,,,,,,,,,,,,,,,,,,,,,,,,,,,,1.2,176.83658470000955,None,space,1,0.25052439999126364,178.1559655000019,None,178.1559655000019,None,178.1559655000019,None,179.04501650000748,None,,,,,,,,,,,,,,,,,,,,,,,,,,,,,,,,,,,,,,,,,,,,,,,,,P018,fencog,2,Pre,2021_Oct_29_1136,Go No-Go Task,2021.1.4,119.94520904417038,
EPracticeConditions/BlueScram.csv,"Rule: When you see a blue image, do not press 'spacebar'.",Images/Scram2/AF25NES.jpg,Scramble,Yellow,Images/Yellow.jpg,space,,,,,,,0,2,2,2,0,3,3,7,,,,,,,,,,,,,,,,,,,,,,,,,,,,,,,,,,,,,,,,,,,,,,,,,,,1.9,181.049351499998,None,space,1,0.3544220000039786,183.06272539999918,None,183.06272539999918,None,183.06272539999918,None,183.9681622000062,None,,,,,,,,,,,,,,,,,,,,,,,,,,,,,,,,,,,,,,,,,,,,,,,,,P018,fencog,2,Pre,2021_Oct_29_1136,Go No-Go Task,2021.1.4,119.94520904417038,
EPracticeConditions/BlueScram.csv,"Rule: When you see a blue image, do not press 'spacebar'.",Images/Scram1/BM08_NC.jpg,Scramble,Blue,Images/Blue.jpg,None,,,,,,,0,2,2,2,0,4,4,0,,,,,,,,,,,,,,,,,,,,,,,,,,,,,,,,,,,,,,,,,,,,,,,,,,,1.4,185.96423350000987,None,None,1,,187.47820550001052,None,187.47820550001052,None,187.47820550001052,None,188.37616510000953,None,,,,,,,,,,,,,,,,,,,,,,,,,,,,,,,,,,,,,,,,,,,,,,,,,P018,fencog,2,Pre,2021_Oct_29_1136,Go No-Go Task,2021.1.4,119.94520904417038,
EPracticeConditions/BlueScram.csv,"Rule: When you see a blue image, do not press 'spacebar'.",Images/Scram1/BF18_NC.jpg,Scramble,Blue,Images/Blue.jpg,None,,,,,,,0,2,2,2,0,5,5,1,,,,,,,,,,,,,,,,,,,,,,,,,,,,,,,,,,,,,,,,,,,,,,,,,,,1.5,190.3800110000011,None,space,0,0.24199579999549314,191.9935250999988,None,191.9935250999988,None,191.9935250999988,None,192.89169010000478,None,,,,,,,,,,,,,,,,,,,,,,,,,,,,,,,,,,,,,,,,,,,,,,,,,P018,fencog,2,Pre,2021_Oct_29_1136,Go No-Go Task,2021.1.4,119.94520904417038,
EPracticeConditions/BlueScram.csv,"Rule: When you see a blue image, do not press 'spacebar'.",Images/Scram2/AM03_NC.jpg,Scramble,Yellow,Images/Yellow.jpg,space,,,,,,,0,2,2,2,0,6,6,6,,,,,,,,,,,,,,,,,,,,,,,,,,,,,,,,,,,,,,,,,,,,,,,,,,,1.3,194.89368880000256,None,space,1,0.3222944000008283,196.3089018000028,None,196.3089018000028,None,196.3089018000028,None,197.20519269999932,None,,,,,,,,,,,,,,,,,,,,,,,,,,,,,,,,,,,,,,,,,,,,,,,,,P018,fencog,2,Pre,2021_Oct_29_1136,Go No-Go Task,2021.1.4,119.94520904417038,
EPracticeConditions/BlueScram.csv,"Rule: When you see a blue image, do not press 'spacebar'.",Images/Scram2/AF10_NC.jpg,Scramble,Yellow,Images/Yellow.jpg,space,,,,,,,0,2,2,2,0,7,7,2,,,,,,,,,,,,,,,,,,,,,,,,,,,,,,,,,,,,,,,,,,,,,,,,,,,1.7,199.21181370000704,None,space,1,0.3449028000031831,201.03249920000962,None,201.03249920000962,None,201.03249920000962,None,201.92940870000166,None,,,,,,,,,,,,,,,,,,,,,,,,,,,,,,,,,,,,,,,,,,,,,,,,,P018,fencog,2,Pre,2021_Oct_29_1136,Go No-Go Task,2021.1.4,119.94520904417038,
EPracticeConditions/BlueScram.csv,"Rule: When you see a blue image, do not press 'spacebar'.",,,,,,,,,,,,0,2,2,2,,,,,,,,,,,,,,,,,,,,,,,,,,,,,,,,,,,,,,,,,,,,,,,,,,,,,,,,,,,,,,,,,,,,,,,,,,,,,,,,,,,,,,,,,,,,,,,,,,,,,,,,,,,,,,,,,,,,,P018,fencog,2,Pre,2021_Oct_29_1136,Go No-Go Task,2021.1.4,119.94520904417038,
EPracticeConditions/YellowScram.csv,"Rule: When you see a yellow image, do not press 'spacebar'.",Images/Scram1/AF07NES.jpg,Scramble,Blue,Images/Blue.jpg,space,,,,,,,0,3,3,3,0,0,0,3,,,,,,,,,,,,,,,,,,,,,,,,,,,,,,,,,,,,,203.93723590001173,None,206.93042689999857,None,space,0.23491359999752603,206.93042689999857,None,203.93723590001173,None,203.93723590001173,None,203.93723590001173,None,1.3,207.1840474000055,None,None,0,,208.60510860000795,None,208.60510860000795,None,208.60510860000795,None,209.50461760000326,None,,,,,,,,,,,,,,,,,,,,,,,,,,,,,,,,,,,,,,,,,,,,,,,,,P018,fencog,2,Pre,2021_Oct_29_1136,Go No-Go Task,2021.1.4,119.94520904417038,
EPracticeConditions/YellowScram.csv,"Rule: When you see a yellow image, do not press 'spacebar'.",Images/Scram2/AM03NES.jpg,Scramble,Yellow,Images/Yellow.jpg,None,,,,,,,0,3,3,3,0,1,1,1,,,,,,,,,,,,,,,,,,,,,,,,,,,,,,,,,,,,,,,,,,,,,,,,,,,1.7,211.50047460000496,None,space,0,0.3720603999972809,213.31209410000884,None,213.31209410000884,None,213.31209410000884,None,214.21731890000228,None,,,,,,,,,,,,,,,,,,,,,,,,,,,,,,,,,,,,,,,,,,,,,,,,,P018,fencog,2,Pre,2021_Oct_29_1136,Go No-Go Task,2021.1.4,119.94520904417038,
EPracticeConditions/YellowScram.csv,"Rule: When you see a yellow image, do not press 'spacebar'.",Images/Scram1/AF30NES.JPG,Scramble,Blue,Images/Blue.jpg,space,,,,,,,0,3,3,3,0,2,2,4,,,,,,,,,,,,,,,,,,,,,,,,,,,,,,,,,,,,,,,,,,,,,,,,,,,1.5,216.2120566000085,None,space,1,0.3121040999976685,217.8357723000081,None,217.8357723000081,None,217.8357723000081,None,218.72440089999873,None,,,,,,,,,,,,,,,,,,,,,,,,,,,,,,,,,,,,,,,,,,,,,,,,,P018,fencog,2,Pre,2021_Oct_29_1136,Go No-Go Task,2021.1.4,119.94520904417038,
EPracticeConditions/YellowScram.csv,"Rule: When you see a yellow image, do not press 'spacebar'.",Images/Scram2/HM06_NC.jpg,Scramble,Yellow,Images/Yellow.jpg,None,,,,,,,0,3,3,3,0,3,3,0,,,,,,,,,,,,,,,,,,,,,,,,,,,,,,,,,,,,,,,,,,,,,,,,,,,1.4,220.73036010000214,None,None,1,,222.2429070000071,None,222.2429070000071,None,222.2429070000071,None,223.14380520000122,None,,,,,,,,,,,,,,,,,,,,,,,,,,,,,,,,,,,,,,,,,,,,,,,,,P018,fencog,2,Pre,2021_Oct_29_1136,Go No-Go Task,2021.1.4,119.94520904417038,
EPracticeConditions/YellowScram.csv,"Rule: When you see a yellow image, do not press 'spacebar'.",Images/Scram1/HF04_NC.jpg,Scramble,Blue,Images/Blue.jpg,space,,,,,,,0,3,3,3,0,4,4,2,,,,,,,,,,,,,,,,,,,,,,,,,,,,,,,,,,,,,,,,,,,,,,,,,,,1.6,225.143261300007,None,None,0,,226.85817649999808,None,226.85817649999808,None,226.85817649999808,None,227.76567000000796,None,,,,,,,,,,,,,,,,,,,,,,,,,,,,,,,,,,,,,,,,,,,,,,,,,P018,fencog,2,Pre,2021_Oct_29_1136,Go No-Go Task,2021.1.4,119.94520904417038,
EPracticeConditions/YellowScram.csv,"Rule: When you see a yellow image, do not press 'spacebar'.",Images/Scram1/AF10_NC.jpg,Scramble,Blue,Images/Blue.jpg,space,,,,,,,0,3,3,3,0,5,5,6,,,,,,,,,,,,,,,,,,,,,,,,,,,,,,,,,,,,,,,,,,,,,,,,,,,1.2,229.75793839999824,None,space,1,0.32075530001020525,231.07347420000588,None,231.07347420000588,None,231.07347420000588,None,231.97060990000318,None,,,,,,,,,,,,,,,,,,,,,,,,,,,,,,,,,,,,,,,,,,,,,,,,,P018,fencog,2,Pre,2021_Oct_29_1136,Go No-Go Task,2021.1.4,119.94520904417038,
EPracticeConditions/YellowScram.csv,"Rule: When you see a yellow image, do not press 'spacebar'.",Images/Scram1/BM01_NC.jpg,Scramble,Blue,Images/Blue.jpg,space,,,,,,,0,3,3,3,0,6,6,5,,,,,,,,,,,,,,,,,,,,,,,,,,,,,,,,,,,,,,,,,,,,,,,,,,,1.9,233.97571650000464,None,space,1,0.31976749999739695,235.9970336000115,None,235.9970336000115,None,235.9970336000115,None,236.88621350000903,None,,,,,,,,,,,,,,,,,,,,,,,,,,,,,,,,,,,,,,,,,,,,,,,,,P018,fencog,2,Pre,2021_Oct_29_1136,Go No-Go Task,2021.1.4,119.94520904417038,
EPracticeConditions/YellowScram.csv,"Rule: When you see a yellow image, do not press 'spacebar'.",Images/Scram1/AF24NES.jpg,Scramble,Blue,Images/Blue.jpg,space,,,,,,,0,3,3,3,0,7,7,7,,,,,,,,,,,,,,,,,,,,,,,,,,,,,,,,,,,,,,,,,,,,,,,,,,,1.8,238.89034640000318,None,space,1,0.27652490000764374,240.80401849999907,None,240.80401849999907,None,240.80401849999907,None,241.70141580000927,None,,,,,,,,,,,,,,,,,,,,,,,,,,,,,,,,,,,,,,,,,,,,,,,,,P018,fencog,2,Pre,2021_Oct_29_1136,Go No-Go Task,2021.1.4,119.94520904417038,
EPracticeConditions/YellowScram.csv,"Rule: When you see a yellow image, do not press 'spacebar'.",,,,,,,,,,,,0,3,3,3,,,,,,,,,,,,,,,,,,,,,,,,,,,,,,,,,,,,,,,,,,,,,,,,,,,,,,,,,,,,,,,,,,,,,,,,,,,,,,,,,,,,,,,,,,,,,,,,,,,,,,,,,,,,,,,,,,,,,P018,fencog,2,Pre,2021_Oct_29_1136,Go No-Go Task,2021.1.4,119.94520904417038,
,,,,,,,,,,,,,,,,,,,,,,,,,,,,,,,,,,,,,,,,,,,,,,,,,,,,,,,,,,,,,,,,,,,,,,,,,,,,,,,,,,,,,245.18888290000905,None,space,11.433686800010037,245.6767147000064,None,,,,,,,,,,,,,,,,,,,,,,,,,,,,,,,,,,,,,,,,,,,P018,fencog,2,Pre,2021_Oct_29_1136,Go No-Go Task,2021.1.4,119.94520904417038,
,,,,,,,,,,,,,,,,,,,,,,,,,,,,,,,,,,,,,,,,,,,,,,,,,,,,,,,,,,,,,,,,,,,,,,,,,,,,,,,,,,,,,,,,,,,257.1228165000066,None,space,2.976018599991221,257.1228165000066,None,,,,,,,,,,,,,,,,,,,,,,,,,,,,,,,,,,,,,P018,fencog,2,Pre,2021_Oct_29_1136,Go No-Go Task,2021.1.4,119.94520904417038,
,"Rule: When you see a yellow image, do not press 'spacebar'.",Images/Fearful/BM02_FC.jpg,Fear,Blue,Images/Blue.jpg,space,ParentConditions/YellowBlueBlue_v2.xlsx,BlueBlueYellow,Conditions/Version_2/YellowHappyStop.xlsx,no,PASS,0.16858645908030467,,,,,,,,,0,0,0,0,0,0,0,0,0,0,0,0,,,,,,,,,,,,,,,,,,,,,,,,,,,,,,,,,,,,,,,,,,,,,,,,,,,,,,,,,,,,,,,,,260.2025855000102,None,263.196637800007,None,space,12.640284499997506,263.196637800007,None,260.2025855000102,None,260.2025855000102,None,260.2025855000102,None,1.61,275.89242000000377,None,space,1,0.2682238000124926,277.61846810000134,None,277.61846810000134,None,277.61846810000134,None,,,,,,,,,,,P018,fencog,2,Pre,2021_Oct_29_1136,Go No-Go Task,2021.1.4,119.94520904417038,
,"Rule: When you see a yellow image, do not press 'spacebar'.",Images/Fearful/HF05_FC.jpg,Fear,Blue,Images/Blue.jpg,space,ParentConditions/YellowBlueBlue_v2.xlsx,BlueBlueYellow,Conditions/Version_2/YellowHappyStop.xlsx,no,PASS,0.9484055972569129,,,,,,,,,0,0,0,0,0,0,0,0,0,1,1,1,,,,,,,,,,,,,,,,,,,,,,,,,,,,,,,,,,,,,,,,,,,,,,,,,,,,,,,,,,,,,,,,,,,,,,,,,,,,,,,1.67,278.01644300000044,None,space,1,0.34919199999421835,279.809076000005,None,279.809076000005,None,279.809076000005,None,,,,,,,,,,,P018,fencog,2,Pre,2021_Oct_29_1136,Go No-Go Task,2021.1.4,119.94520904417038,
,"Rule: When you see a yellow image, do not press 'spacebar'.",Images/Happy/AF32HAS.jpg,Happy,Yellow,Images/Yellow.jpg,None,ParentConditions/YellowBlueBlue_v2.xlsx,BlueBlueYellow,Conditions/Version_2/YellowHappyStop.xlsx,yes,PASS,0.508887905761459,,,,,,,,,0,0,0,0,0,0,0,0,0,2,2,2,,,,,,,,,,,,,,,,,,,,,,,,,,,,,,,,,,,,,,,,,,,,,,,,,,,,,,,,,,,,,,,,,,,,,,,,,,,,,,,1.8,280.1979360000114,None,None,1,,282.1083903000108,None,282.1083903000108,None,282.1083903000108,None,,,,,,,,,,,P018,fencog,2,Pre,2021_Oct_29_1136,Go No-Go Task,2021.1.4,119.94520904417038,
,"Rule: When you see a yellow image, do not press 'spacebar'.",Images/Happy/AM32HAS.jpg,Happy,Yellow,Images/Yellow.jpg,None,ParentConditions/YellowBlueBlue_v2.xlsx,BlueBlueYellow,Conditions/Version_2/YellowHappyStop.xlsx,yes,PASS,0.12877007601010582,,,,,,,,,0,0,0,0,0,0,0,0,0,3,3,3,,,,,,,,,,,,,,,,,,,,,,,,,,,,,,,,,,,,,,,,,,,,,,,,,,,,,,,,,,,,,,,,,,,,,,,,,,,,,,,1.39,282.5055946000066,None,None,1,,284.00782379999873,None,284.00782379999873,None,284.00782379999873,None,,,,,,,,,,,P018,fencog,2,Pre,2021_Oct_29_1136,Go No-Go Task,2021.1.4,119.94520904417038,
,"Rule: When you see a yellow image, do not press 'spacebar'.",Images/Fearful/AF07FS.jpg,Fear,Blue,Images/Blue.jpg,space,ParentConditions/YellowBlueBlue_v2.xlsx,BlueBlueYellow,Conditions/Version_2/YellowHappyStop.xlsx,no,PASS,0.4320382618493961,,,,,,,,,0,0,0,0,0,0,0,0,0,4,4,4,,,,,,,,,,,,,,,,,,,,,,,,,,,,,,,,,,,,,,,,,,,,,,,,,,,,,,,,,,,,,,,,,,,,,,,,,,,,,,,1.46,284.40499710000586,None,space,1,0.2550905999960378,285.9822315000056,None,285.9822315000056,None,285.9822315000056,None,,,,,,,,,,,P018,fencog,2,Pre,2021_Oct_29_1136,Go No-Go Task,2021.1.4,119.94520904417038,
,"Rule: When you see a yellow image, do not press 'spacebar'.",Images/Fearful/AM30AFS.jpg,Fear,Blue,Images/Blue.jpg,space,ParentConditions/YellowBlueBlue_v2.xlsx,BlueBlueYellow,Conditions/Version_2/YellowHappyStop.xlsx,no,PASS,0.14164593092902533,,,,,,,,,0,0,0,0,0,0,0,0,0,5,5,5,,,,,,,,,,,,,,,,,,,,,,,,,,,,,,,,,,,,,,,,,,,,,,,,,,,,,,,,,,,,,,,,,,,,,,,,,,,,,,,1.27,286.37191580000217,None,space,1,0.252001199987717,287.7567320000089,None,287.7567320000089,None,287.7567320000089,None,,,,,,,,,,,P018,fencog,2,Pre,2021_Oct_29_1136,Go No-Go Task,2021.1.4,119.94520904417038,
,"Rule: When you see a yellow image, do not press 'spacebar'.",Images/Happy/BM03_HO.jpg,Happy,Yellow,Images/Yellow.jpg,None,ParentConditions/YellowBlueBlue_v2.xlsx,BlueBlueYellow,Conditions/Version_2/YellowHappyStop.xlsx,yes,PASS,0.824528473694533,,,,,,,,,0,0,0,0,0,0,0,0,0,6,6,6,,,,,,,,,,,,,,,,,,,,,,,,,,,,,,,,,,,,,,,,,,,,,,,,,,,,,,,,,,,,,,,,,,,,,,,,,,,,,,,1.84,288.1538060000021,None,None,1,,290.11434810000355,None,290.11434810000355,None,290.11434810000355,None,,,,,,,,,,,P018,fencog,2,Pre,2021_Oct_29_1136,Go No-Go Task,2021.1.4,119.94520904417038,
,"Rule: When you see a yellow image, do not press 'spacebar'.",Images/Fearful/HM06_FC.jpg,Fear,Blue,Images/Blue.jpg,space,ParentConditions/YellowBlueBlue_v2.xlsx,BlueBlueYellow,Conditions/Version_2/YellowHappyStop.xlsx,no,PASS,0.06881493513979675,,,,,,,,,0,0,0,0,0,0,0,0,0,7,7,7,,,,,,,,,,,,,,,,,,,,,,,,,,,,,,,,,,,,,,,,,,,,,,,,,,,,,,,,,,,,,,,,,,,,,,,,,,,,,,,1.72,290.5044840000046,None,space,1,0.2935921000025701,292.3384558000107,None,292.3384558000107,None,292.3384558000107,None,,,,,,,,,,,P018,fencog,2,Pre,2021_Oct_29_1136,Go No-Go Task,2021.1.4,119.94520904417038,
,"Rule: When you see a yellow image, do not press 'spacebar'.",Images/Fearful/AF19AFS.jpg,Fear,Blue,Images/Blue.jpg,space,ParentConditions/YellowBlueBlue_v2.xlsx,BlueBlueYellow,Conditions/Version_2/YellowHappyStop.xlsx,no,PASS,0.6194516353064884,,,,,,,,,0,0,0,0,0,0,0,0,0,8,8,8,,,,,,,,,,,,,,,,,,,,,,,,,,,,,,,,,,,,,,,,,,,,,,,,,,,,,,,,,,,,,,,,,,,,,,,,,,,,,,,1.6,292.74134060001234,None,None,0,,294.4546505000035,None,294.4546505000035,None,294.4546505000035,None,,,,,,,,,,,P018,fencog,2,Pre,2021_Oct_29_1136,Go No-Go Task,2021.1.4,119.94520904417038,
,"Rule: When you see a yellow image, do not press 'spacebar'.",Images/Happy/AF30HAS.jpg,Happy,Yellow,Images/Yellow.jpg,None,ParentConditions/YellowBlueBlue_v2.xlsx,BlueBlueYellow,Conditions/Version_2/YellowHappyStop.xlsx,yes,PASS,0.7783721125891628,,,,,,,,,0,0,0,0,0,0,0,0,0,9,9,9,,,,,,,,,,,,,,,,,,,,,,,,,,,,,,,,,,,,,,,,,,,,,,,,,,,,,,,,,,,,,,,,,,,,,,,,,,,,,,,1.48,294.8592081000097,None,None,1,,296.4625018000079,None,296.4625018000079,None,296.4625018000079,None,,,,,,,,,,,P018,fencog,2,Pre,2021_Oct_29_1136,Go No-Go Task,2021.1.4,119.94520904417038,
,"Rule: When you see a yellow image, do not press 'spacebar'.",Images/Fearful/AF25AFS.jpg,Fear,Blue,Images/Blue.jpg,space,ParentConditions/YellowBlueBlue_v2.xlsx,BlueBlueYellow,Conditions/Version_2/YellowHappyStop.xlsx,no,PASS,0.9528113424204139,,,,,,,,,0,0,0,0,0,0,0,0,0,10,10,10,,,,,,,,,,,,,,,,,,,,,,,,,,,,,,,,,,,,,,,,,,,,,,,,,,,,,,,,,,,,,,,,,,,,,,,,,,,,,,,1.53,296.8581184000068,None,space,1,0.26291659999697004,298.5118538000097,None,298.5118538000097,None,298.5118538000097,None,,,,,,,,,,,P018,fencog,2,Pre,2021_Oct_29_1136,Go No-Go Task,2021.1.4,119.94520904417038,
,"Rule: When you see a yellow image, do not press 'spacebar'.",Images/Fearful/AF30AFS.jpg,Fear,Blue,Images/Blue.jpg,space,ParentConditions/YellowBlueBlue_v2.xlsx,BlueBlueYellow,Conditions/Version_2/YellowHappyStop.xlsx,no,PASS,0.022094815080431318,,,,,,,,,0,0,0,0,0,0,0,0,0,11,11,11,,,,,,,,,,,,,,,,,,,,,,,,,,,,,,,,,,,,,,,,,,,,,,,,,,,,,,,,,,,,,,,,,,,,,,,,,,,,,,,1.38,298.9080183000042,None,space,1,0.2545691999985138,300.39463560000877,None,300.39463560000877,None,300.39463560000877,None,,,,,,,,,,,P018,fencog,2,Pre,2021_Oct_29_1136,Go No-Go Task,2021.1.4,119.94520904417038,
,"Rule: When you see a yellow image, do not press 'spacebar'.",Images/Happy/BF10_HO.jpg,Happy,Yellow,Images/Yellow.jpg,None,ParentConditions/YellowBlueBlue_v2.xlsx,BlueBlueYellow,Conditions/Version_2/YellowHappyStop.xlsx,yes,PASS,0.5001600173303757,,,,,,,,,0,0,0,0,0,0,0,0,0,12,12,12,,,,,,,,,,,,,,,,,,,,,,,,,,,,,,,,,,,,,,,,,,,,,,,,,,,,,,,,,,,,,,,,,,,,,,,,,,,,,,,1.43,300.7962911000068,None,None,1,,302.3357465000008,None,302.3357465000008,None,302.3357465000008,None,,,,,,,,,,,P018,fencog,2,Pre,2021_Oct_29_1136,Go No-Go Task,2021.1.4,119.94520904417038,
,"Rule: When you see a yellow image, do not press 'spacebar'.",Images/Fearful/AM06_FO.jpg,Fear,Blue,Images/Blue.jpg,space,ParentConditions/YellowBlueBlue_v2.xlsx,BlueBlueYellow,Conditions/Version_2/YellowHappyStop.xlsx,no,PASS,0.578262378462087,,,,,,,,,0,0,0,0,0,0,0,0,0,13,13,13,,,,,,,,,,,,,,,,,,,,,,,,,,,,,,,,,,,,,,,,,,,,,,,,,,,,,,,,,,,,,,,,,,,,,,,,,,,,,,,1.75,302.7409264000016,None,space,1,0.273933999997098,304.6016963000002,None,304.6016963000002,None,304.6016963000002,None,,,,,,,,,,,P018,fencog,2,Pre,2021_Oct_29_1136,Go No-Go Task,2021.1.4,119.94520904417038,
,"Rule: When you see a yellow image, do not press 'spacebar'.",Images/Happy/AM24HAS.jpg,Happy,Yellow,Images/Yellow.jpg,None,ParentConditions/YellowBlueBlue_v2.xlsx,BlueBlueYellow,Conditions/Version_2/YellowHappyStop.xlsx,yes,PASS,0.39484184444569004,,,,,,,,,0,0,0,0,0,0,0,0,0,14,14,14,,,,,,,,,,,,,,,,,,,,,,,,,,,,,,,,,,,,,,,,,,,,,,,,,,,,,,,,,,,,,,,,,,,,,,,,,,,,,,,1.36,305.0017497000081,None,None,1,,306.47617330000503,None,306.47617330000503,None,306.47617330000503,None,,,,,,,,,,,P018,fencog,2,Pre,2021_Oct_29_1136,Go No-Go Task,2021.1.4,119.94520904417038,
,"Rule: When you see a yellow image, do not press 'spacebar'.",Images/Fearful/AF21AFS.jpg,Fear,Blue,Images/Blue.jpg,space,ParentConditions/YellowBlueBlue_v2.xlsx,BlueBlueYellow,Conditions/Version_2/YellowHappyStop.xlsx,no,PASS,0.6432231069793333,,,,,,,,,0,0,0,0,0,0,0,0,0,15,15,15,,,,,,,,,,,,,,,,,,,,,,,,,,,,,,,,,,,,,,,,,,,,,,,,,,,,,,,,,,,,,,,,,,,,,,,,,,,,,,,1.32,306.8768385000003,None,space,1,0.21767250000266358,308.30062510000425,None,308.30062510000425,None,308.30062510000425,None,,,,,,,,,,,P018,fencog,2,Pre,2021_Oct_29_1136,Go No-Go Task,2021.1.4,119.94520904417038,
,"Rule: When you see a yellow image, do not press 'spacebar'.",Images/Happy/AM06_HC.jpg,Happy,Yellow,Images/Yellow.jpg,None,ParentConditions/YellowBlueBlue_v2.xlsx,BlueBlueYellow,Conditions/Version_2/YellowHappyStop.xlsx,yes,PASS,0.7943976294198472,,,,,,,,,0,0,0,0,0,0,0,0,0,16,16,16,,,,,,,,,,,,,,,,,,,,,,,,,,,,,,,,,,,,,,,,,,,,,,,,,,,,,,,,,,,,,,,,,,,,,,,,,,,,,,,1.24,308.7022912000102,None,None,1,,310.0498596000107,None,310.0498596000107,None,310.0498596000107,None,,,,,,,,,,,P018,fencog,2,Pre,2021_Oct_29_1136,Go No-Go Task,2021.1.4,119.94520904417038,
,"Rule: When you see a yellow image, do not press 'spacebar'.",Images/Fearful/AF10_FC.jpg,Fear,Blue,Images/Blue.jpg,space,ParentConditions/YellowBlueBlue_v2.xlsx,BlueBlueYellow,Conditions/Version_2/YellowHappyStop.xlsx,no,PASS,0.4387172057805456,,,,,,,,,0,0,0,0,0,0,0,0,0,17,17,17,,,,,,,,,,,,,,,,,,,,,,,,,,,,,,,,,,,,,,,,,,,,,,,,,,,,,,,,,,,,,,,,,,,,,,,,,,,,,,,1.78,310.45817579999857,None,space,1,0.27258799999253824,312.3578389000031,None,312.3578389000031,None,312.3578389000031,None,,,,,,,,,,,P018,fencog,2,Pre,2021_Oct_29_1136,Go No-Go Task,2021.1.4,119.94520904417038,
,"Rule: When you see a yellow image, do not press 'spacebar'.",Images/Fearful/BM03_FC.jpg,Fear,Blue,Images/Blue.jpg,space,ParentConditions/YellowBlueBlue_v2.xlsx,BlueBlueYellow,Conditions/Version_2/YellowHappyStop.xlsx,no,PASS,0.20170262712346598,,,,,,,,,0,0,0,0,0,0,0,0,0,18,18,18,,,,,,,,,,,,,,,,,,,,,,,,,,,,,,,,,,,,,,,,,,,,,,,,,,,,,,,,,,,,,,,,,,,,,,,,,,,,,,,1.37,312.7550091000012,None,None,0,,314.2488624000107,None,314.2488624000107,None,314.2488624000107,None,,,,,,,,,,,P018,fencog,2,Pre,2021_Oct_29_1136,Go No-Go Task,2021.1.4,119.94520904417038,
,"Rule: When you see a yellow image, do not press 'spacebar'.",Images/Fearful/HM09_FC.jpg,Fear,Blue,Images/Blue.jpg,space,ParentConditions/YellowBlueBlue_v2.xlsx,BlueBlueYellow,Conditions/Version_2/YellowHappyStop.xlsx,no,PASS,0.15976906823467862,,,,,,,,,0,0,0,0,0,0,0,0,0,19,19,19,,,,,,,,,,,,,,,,,,,,,,,,,,,,,,,,,,,,,,,,,,,,,,,,,,,,,,,,,,,,,,,,,,,,,,,,,,,,,,,1.54,314.6399445999996,None,space,1,0.32999589999963064,316.2812247000111,None,316.2812247000111,None,316.2812247000111,None,,,,,,,,,,,P018,fencog,2,Pre,2021_Oct_29_1136,Go No-Go Task,2021.1.4,119.94520904417038,
,"Rule: When you see a yellow image, do not press 'spacebar'.",Images/Fearful/AM04_FO.jpg,Fear,Blue,Images/Blue.jpg,space,ParentConditions/YellowBlueBlue_v2.xlsx,BlueBlueYellow,Conditions/Version_2/YellowHappyStop.xlsx,no,PASS,0.7842232797128176,,,,,,,,,0,0,0,0,0,0,0,0,0,20,20,20,,,,,,,,,,,,,,,,,,,,,,,,,,,,,,,,,,,,,,,,,,,,,,,,,,,,,,,,,,,,,,,,,,,,,,,,,,,,,,,1.4,316.6859181000036,None,space,1,0.3516815999901155,318.188994600001,None,318.188994600001,None,318.188994600001,None,,,,,,,,,,,P018,fencog,2,Pre,2021_Oct_29_1136,Go No-Go Task,2021.1.4,119.94520904417038,
,"Rule: When you see a yellow image, do not press 'spacebar'.",Images/Fearful/AF11AFS.jpg,Fear,Blue,Images/Blue.jpg,space,ParentConditions/YellowBlueBlue_v2.xlsx,BlueBlueYellow,Conditions/Version_2/YellowHappyStop.xlsx,no,PASS,0.5758948553509043,,,,,,,,,0,0,0,0,0,0,0,0,0,21,21,21,,,,,,,,,,,,,,,,,,,,,,,,,,,,,,,,,,,,,,,,,,,,,,,,,,,,,,,,,,,,,,,,,,,,,,,,,,,,,,,1.25,318.59440390000236,None,space,1,0.3357451000047149,319.95554910000646,None,319.95554910000646,None,319.95554910000646,None,,,,,,,,,,,P018,fencog,2,Pre,2021_Oct_29_1136,Go No-Go Task,2021.1.4,119.94520904417038,
,"Rule: When you see a yellow image, do not press 'spacebar'.",Images/Fearful/AM10_FO.jpg,Fear,Blue,Images/Blue.jpg,space,ParentConditions/YellowBlueBlue_v2.xlsx,BlueBlueYellow,Conditions/Version_2/YellowHappyStop.xlsx,no,PASS,0.7516560744284169,,,,,,,,,0,0,0,0,0,0,0,0,0,22,22,22,,,,,,,,,,,,,,,,,,,,,,,,,,,,,,,,,,,,,,,,,,,,,,,,,,,,,,,,,,,,,,,,,,,,,,,,,,,,,,,1.34,320.3544210000109,None,space,1,0.322989400010556,321.81328820000635,None,321.81328820000635,None,321.81328820000635,None,,,,,,,,,,,P018,fencog,2,Pre,2021_Oct_29_1136,Go No-Go Task,2021.1.4,119.94520904417038,
,"Rule: When you see a yellow image, do not press 'spacebar'.",Images/Fearful/WF04_FC.jpg,Fear,Blue,Images/Blue.jpg,space,ParentConditions/YellowBlueBlue_v2.xlsx,BlueBlueYellow,Conditions/Version_2/YellowHappyStop.xlsx,no,PASS,0.8626299251261901,,,,,,,,,0,0,0,0,0,0,0,0,0,23,23,23,,,,,,,,,,,,,,,,,,,,,,,,,,,,,,,,,,,,,,,,,,,,,,,,,,,,,,,,,,,,,,,,,,,,,,,,,,,,,,,1.35,322.20370070000354,None,space,1,0.29605430000810884,323.66276530000323,None,323.66276530000323,None,323.66276530000323,None,,,,,,,,,,,P018,fencog,2,Pre,2021_Oct_29_1136,Go No-Go Task,2021.1.4,119.94520904417038,
,"Rule: When you see a yellow image, do not press 'spacebar'.",Images/Fearful/AF28AFS.jpg,Fear,Blue,Images/Blue.jpg,space,ParentConditions/YellowBlueBlue_v2.xlsx,BlueBlueYellow,Conditions/Version_2/YellowHappyStop.xlsx,no,PASS,0.7326117629083128,,,,,,,,,0,0,0,0,0,0,0,0,0,24,24,24,,,,,,,,,,,,,,,,,,,,,,,,,,,,,,,,,,,,,,,,,,,,,,,,,,,,,,,,,,,,,,,,,,,,,,,,,,,,,,,1.96,324.0609429000033,None,space,1,0.3387644999893382,326.13702880000346,None,326.13702880000346,None,326.13702880000346,None,,,,,,,,,,,P018,fencog,2,Pre,2021_Oct_29_1136,Go No-Go Task,2021.1.4,119.94520904417038,
,"Rule: When you see a yellow image, do not press 'spacebar'.",Images/Fearful/WF11_FC.jpg,Fear,Blue,Images/Blue.jpg,space,ParentConditions/YellowBlueBlue_v2.xlsx,BlueBlueYellow,Conditions/Version_2/YellowHappyStop.xlsx,no,PASS,0.32883698788558013,,,,,,,,,0,0,0,0,0,0,0,0,0,25,25,25,,,,,,,,,,,,,,,,,,,,,,,,,,,,,,,,,,,,,,,,,,,,,,,,,,,,,,,,,,,,,,,,,,,,,,,,,,,,,,,1.93,326.53103890000784,None,space,1,0.3227055999886943,328.57795170000463,None,328.57795170000463,None,328.57795170000463,None,,,,,,,,,,,P018,fencog,2,Pre,2021_Oct_29_1136,Go No-Go Task,2021.1.4,119.94520904417038,
,"Rule: When you see a yellow image, do not press 'spacebar'.",Images/Fearful/AM17AFS.jpg,Fear,Blue,Images/Blue.jpg,space,ParentConditions/YellowBlueBlue_v2.xlsx,BlueBlueYellow,Conditions/Version_2/YellowHappyStop.xlsx,no,PASS,0.2011457593950874,,,,,,,,,0,0,0,0,0,0,0,0,0,26,26,26,,,,,,,,,,,,,,,,,,,,,,,,,,,,,,,,,,,,,,,,,,,,,,,,,,,,,,,,,,,,,,,,,,,,,,,,,,,,,,,1.88,328.97393810001086,None,space,1,0.3133864999981597,330.96890020000865,None,330.96890020000865,None,330.96890020000865,None,,,,,,,,,,,P018,fencog,2,Pre,2021_Oct_29_1136,Go No-Go Task,2021.1.4,119.94520904417038,
,"Rule: When you see a yellow image, do not press 'spacebar'.",Images/Happy/AF27HAS.jpg,Happy,Yellow,Images/Yellow.jpg,None,ParentConditions/YellowBlueBlue_v2.xlsx,BlueBlueYellow,Conditions/Version_2/YellowHappyStop.xlsx,yes,PASS,0.03113428438097654,,,,,,,,,0,0,0,0,0,0,0,0,0,27,27,27,,,,,,,,,,,,,,,,,,,,,,,,,,,,,,,,,,,,,,,,,,,,,,,,,,,,,,,,,,,,,,,,,,,,,,,,,,,,,,,1.5,331.3722165000072,None,None,1,,332.98508800000127,None,332.98508800000127,None,332.98508800000127,None,,,,,,,,,,,P018,fencog,2,Pre,2021_Oct_29_1136,Go No-Go Task,2021.1.4,119.94520904417038,
,"Rule: When you see a yellow image, do not press 'spacebar'.",Images/Fearful/BF10_FO.jpg,Fear,Blue,Images/Blue.jpg,space,ParentConditions/YellowBlueBlue_v2.xlsx,BlueBlueYellow,Conditions/Version_2/YellowHappyStop.xlsx,no,PASS,0.8821344053441019,,,,,,,,,0,0,0,0,0,0,0,0,0,28,28,28,,,,,,,,,,,,,,,,,,,,,,,,,,,,,,,,,,,,,,,,,,,,,,,,,,,,,,,,,,,,,,,,,,,,,,,,,,,,,,,1.79,333.38616880000336,None,space,1,0.27770849999797065,335.28431000000273,None,335.28431000000273,None,335.28431000000273,None,,,,,,,,,,,P018,fencog,2,Pre,2021_Oct_29_1136,Go No-Go Task,2021.1.4,119.94520904417038,
,"Rule: When you see a yellow image, do not press 'spacebar'.",Images/Fearful/HF04_FO.jpg,Fear,Blue,Images/Blue.jpg,space,ParentConditions/YellowBlueBlue_v2.xlsx,BlueBlueYellow,Conditions/Version_2/YellowHappyStop.xlsx,no,PASS,0.10236928865186712,,,,,,,,,0,0,0,0,0,0,0,0,0,29,29,29,,,,,,,,,,,,,,,,,,,,,,,,,,,,,,,,,,,,,,,,,,,,,,,,,,,,,,,,,,,,,,,,,,,,,,,,,,,,,,,1.2,335.68906750000315,None,space,1,0.27024830000300426,337.00048630000674,None,337.00048630000674,None,337.00048630000674,None,,,,,,,,,,,P018,fencog,2,Pre,2021_Oct_29_1136,Go No-Go Task,2021.1.4,119.94520904417038,
,"Rule: When you see a yellow image, do not press 'spacebar'.",Images/Happy/AF26HAS.jpg,Happy,Yellow,Images/Yellow.jpg,None,ParentConditions/YellowBlueBlue_v2.xlsx,BlueBlueYellow,Conditions/Version_2/YellowHappyStop.xlsx,yes,PASS,0.3122778532266225,,,,,,,,,0,0,0,0,0,0,0,0,0,30,30,30,,,,,,,,,,,,,,,,,,,,,,,,,,,,,,,,,,,,,,,,,,,,,,,,,,,,,,,,,,,,,,,,,,,,,,,,,,,,,,,1.21,337.39341720000084,None,None,1,,338.7167488000123,None,338.7167488000123,None,338.7167488000123,None,,,,,,,,,,,P018,fencog,2,Pre,2021_Oct_29_1136,Go No-Go Task,2021.1.4,119.94520904417038,
,"Rule: When you see a yellow image, do not press 'spacebar'.",Images/Happy/HF09_HE.jpg,Happy,Yellow,Images/Yellow.jpg,None,ParentConditions/YellowBlueBlue_v2.xlsx,BlueBlueYellow,Conditions/Version_2/YellowHappyStop.xlsx,yes,PASS,0.8889954581367391,,,,,,,,,0,0,0,0,0,0,0,0,0,31,31,31,,,,,,,,,,,,,,,,,,,,,,,,,,,,,,,,,,,,,,,,,,,,,,,,,,,,,,,,,,,,,,,,,,,,,,,,,,,,,,,1.85,339.11447510001017,None,None,1,,341.0743274000124,None,341.0743274000124,None,341.0743274000124,None,,,,,,,,,,,P018,fencog,2,Pre,2021_Oct_29_1136,Go No-Go Task,2021.1.4,119.94520904417038,
,"Rule: When you see a yellow image, do not press 'spacebar'.",Images/Fearful/AM16AFS.jpg,Fear,Blue,Images/Blue.jpg,space,ParentConditions/YellowBlueBlue_v2.xlsx,BlueBlueYellow,Conditions/Version_2/YellowHappyStop.xlsx,no,PASS,0.3485636078399603,,,,,,,,,0,0,0,0,0,0,0,0,0,32,32,32,,,,,,,,,,,,,,,,,,,,,,,,,,,,,,,,,,,,,,,,,,,,,,,,,,,,,,,,,,,,,,,,,,,,,,,,,,,,,,,1.59,341.4788593999983,None,space,1,0.3231035999924643,343.1738178000087,None,343.1738178000087,None,343.1738178000087,None,,,,,,,,,,,P018,fencog,2,Pre,2021_Oct_29_1136,Go No-Go Task,2021.1.4,119.94520904417038,
,"Rule: When you see a yellow image, do not press 'spacebar'.",Images/Fearful/WF05_FO.jpg,Fear,Blue,Images/Blue.jpg,space,ParentConditions/YellowBlueBlue_v2.xlsx,BlueBlueYellow,Conditions/Version_2/YellowHappyStop.xlsx,no,PASS,0.571161037699378,,,,,,,,,0,0,0,0,0,0,0,0,0,33,33,33,,,,,,,,,,,,,,,,,,,,,,,,,,,,,,,,,,,,,,,,,,,,,,,,,,,,,,,,,,,,,,,,,,,,,,,,,,,,,,,1.57,343.57884800000465,None,space,1,0.31029759999364614,345.2563624000031,None,345.2563624000031,None,345.2563624000031,None,,,,,,,,,,,P018,fencog,2,Pre,2021_Oct_29_1136,Go No-Go Task,2021.1.4,119.94520904417038,
,"Rule: When you see a yellow image, do not press 'spacebar'.",Images/Fearful/AM03_FC.jpg,Fear,Blue,Images/Blue.jpg,space,ParentConditions/YellowBlueBlue_v2.xlsx,BlueBlueYellow,Conditions/Version_2/YellowHappyStop.xlsx,no,PASS,0.795310308756252,,,,,,,,,0,0,0,0,0,0,0,0,0,34,34,34,,,,,,,,,,,,,,,,,,,,,,,,,,,,,,,,,,,,,,,,,,,,,,,,,,,,,,,,,,,,,,,,,,,,,,,,,,,,,,,1.44,345.66071660000307,None,space,1,0.38469310000073165,347.21410430000105,None,347.21410430000105,None,347.21410430000105,None,,,,,,,,,,,P018,fencog,2,Pre,2021_Oct_29_1136,Go No-Go Task,2021.1.4,119.94520904417038,
,"Rule: When you see a yellow image, do not press 'spacebar'.",Images/Fearful/AM01AFS.jpg,Fear,Blue,Images/Blue.jpg,space,ParentConditions/YellowBlueBlue_v2.xlsx,BlueBlueYellow,Conditions/Version_2/YellowHappyStop.xlsx,no,PASS,0.0960655228006344,,,,,,,,,0,0,0,0,0,0,0,0,0,35,35,35,,,,,,,,,,,,,,,,,,,,,,,,,,,,,,,,,,,,,,,,,,,,,,,,,,,,,,,,,,,,,,,,,,,,,,,,,,,,,,,1.99,347.61375340000086,None,space,1,0.3399777000013273,349.7216933000018,None,349.7216933000018,None,349.7216933000018,None,,,,,,,,,,,P018,fencog,2,Pre,2021_Oct_29_1136,Go No-Go Task,2021.1.4,119.94520904417038,
,"Rule: When you see a yellow image, do not press 'spacebar'.",Images/Fearful/HM04_FC.jpg,Fear,Blue,Images/Blue.jpg,space,ParentConditions/YellowBlueBlue_v2.xlsx,BlueBlueYellow,Conditions/Version_2/YellowHappyStop.xlsx,no,PASS,0.2671765254267089,,,,,,,,,0,0,0,0,0,0,0,0,0,36,36,36,,,,,,,,,,,,,,,,,,,,,,,,,,,,,,,,,,,,,,,,,,,,,,,,,,,,,,,,,,,,,,,,,,,,,,,,,,,,,,,1.7,350.11434559999907,None,space,1,0.24678129999665543,351.9293811000098,None,351.9293811000098,None,351.9293811000098,None,,,,,,,,,,,P018,fencog,2,Pre,2021_Oct_29_1136,Go No-Go Task,2021.1.4,119.94520904417038,
,"Rule: When you see a yellow image, do not press 'spacebar'.",Images/Fearful/BF18_FC.jpg,Fear,Blue,Images/Blue.jpg,space,ParentConditions/YellowBlueBlue_v2.xlsx,BlueBlueYellow,Conditions/Version_2/YellowHappyStop.xlsx,no,PASS,0.30493199358976686,,,,,,,,,0,0,0,0,0,0,0,0,0,37,37,37,,,,,,,,,,,,,,,,,,,,,,,,,,,,,,,,,,,,,,,,,,,,,,,,,,,,,,,,,,,,,,,,,,,,,,,,,,,,,,,1.41,352.3265870000032,None,space,1,0.2886346000013873,353.85377510001126,None,353.85377510001126,None,353.85377510001126,None,,,,,,,,,,,P018,fencog,2,Pre,2021_Oct_29_1136,Go No-Go Task,2021.1.4,119.94520904417038,
,"Rule: When you see a yellow image, do not press 'spacebar'.",Images/Fearful/AF07_FO.jpg,Fear,Blue,Images/Blue.jpg,space,ParentConditions/YellowBlueBlue_v2.xlsx,BlueBlueYellow,Conditions/Version_2/YellowHappyStop.xlsx,no,PASS,0.06571981152440787,,,,,,,,,0,0,0,0,0,0,0,0,0,38,38,38,,,,,,,,,,,,,,,,,,,,,,,,,,,,,,,,,,,,,,,,,,,,,,,,,,,,,,,,,,,,,,,,,,,,,,,,,,,,,,,1.31,354.243561100011,None,space,1,0.25277329998789355,355.66169490000175,None,355.66169490000175,None,355.66169490000175,None,,,,,,,,,,,P018,fencog,2,Pre,2021_Oct_29_1136,Go No-Go Task,2021.1.4,119.94520904417038,
,"Rule: When you see a yellow image, do not press 'spacebar'.",Images/Fearful/AM24AFS.jpg,Fear,Blue,Images/Blue.jpg,space,ParentConditions/YellowBlueBlue_v2.xlsx,BlueBlueYellow,Conditions/Version_2/YellowHappyStop.xlsx,no,PASS,0.23738601052691555,,,,,,,,,0,0,0,0,0,0,0,0,0,39,39,39,,,,,,,,,,,,,,,,,,,,,,,,,,,,,,,,,,,,,,,,,,,,,,,,,,,,,,,,,,,,,,,,,,,,,,,,,,,,,,,1.71,356.0624686000083,None,space,1,0.2083470999932615,357.88595200001146,None,357.88595200001146,None,357.88595200001146,None,,,,,,,,,,,P018,fencog,2,Pre,2021_Oct_29_1136,Go No-Go Task,2021.1.4,119.94520904417038,
,"Rule: When you see a yellow image, do not press 'spacebar'.",Images/Fearful/AM03AFS.jpg,Fear,Blue,Images/Blue.jpg,space,ParentConditions/YellowBlueBlue_v2.xlsx,BlueBlueYellow,Conditions/Version_2/YellowHappyStop.xlsx,no,PASS,0.9496981002344779,,,,,,,,,0,0,0,0,0,0,0,0,0,40,40,40,,,,,,,,,,,,,,,,,,,,,,,,,,,,,,,,,,,,,,,,,,,,,,,,,,,,,,,,,,,,,,,,,,,,,,,,,,,,,,,1.58,358.2912878000061,None,space,1,0.2826630000054138,359.9937101000105,None,359.9937101000105,None,359.9937101000105,None,,,,,,,,,,,P018,fencog,2,Pre,2021_Oct_29_1136,Go No-Go Task,2021.1.4,119.94520904417038,
,"Rule: When you see a yellow image, do not press 'spacebar'.",Images/Fearful/BM08_FC.jpg,Fear,Blue,Images/Blue.jpg,space,ParentConditions/YellowBlueBlue_v2.xlsx,BlueBlueYellow,Conditions/Version_2/YellowHappyStop.xlsx,no,PASS,0.9731806168242675,,,,,,,,,0,0,0,0,0,0,0,0,0,41,41,41,,,,,,,,,,,,,,,,,,,,,,,,,,,,,,,,,,,,,,,,,,,,,,,,,,,,,,,,,,,,,,,,,,,,,,,,,,,,,,,1.28,360.3914259000012,None,None,0,,361.78485880000517,None,361.78485880000517,None,361.78485880000517,None,,,,,,,,,,,P018,fencog,2,Pre,2021_Oct_29_1136,Go No-Go Task,2021.1.4,119.94520904417038,
,"Rule: When you see a yellow image, do not press 'spacebar'.",Images/Fearful/AF32AFS.jpg,Fear,Blue,Images/Blue.jpg,space,ParentConditions/YellowBlueBlue_v2.xlsx,BlueBlueYellow,Conditions/Version_2/YellowHappyStop.xlsx,no,PASS,0.6516797726115628,,,,,,,,,0,0,0,0,0,0,0,0,0,42,42,42,,,,,,,,,,,,,,,,,,,,,,,,,,,,,,,,,,,,,,,,,,,,,,,,,,,,,,,,,,,,,,,,,,,,,,,,,,,,,,,1.65,362.19017640000675,None,space,1,0.2955766999948537,363.959136999998,None,363.959136999998,None,363.959136999998,None,,,,,,,,,,,P018,fencog,2,Pre,2021_Oct_29_1136,Go No-Go Task,2021.1.4,119.94520904417038,
,"Rule: When you see a yellow image, do not press 'spacebar'.",Images/Fearful/AF26AFS.jpg,Fear,Blue,Images/Blue.jpg,space,ParentConditions/YellowBlueBlue_v2.xlsx,BlueBlueYellow,Conditions/Version_2/YellowHappyStop.xlsx,no,PASS,0.7646464028460872,,,,,,,,,0,0,0,0,0,0,0,0,0,43,43,43,,,,,,,,,,,,,,,,,,,,,,,,,,,,,,,,,,,,,,,,,,,,,,,,,,,,,,,,,,,,,,,,,,,,,,,,,,,,,,,1.3,364.351176199998,None,space,1,0.21470400001271628,365.75863150000805,None,365.75863150000805,None,365.75863150000805,None,,,,,,,,,,,P018,fencog,2,Pre,2021_Oct_29_1136,Go No-Go Task,2021.1.4,119.94520904417038,
,"Rule: When you see a yellow image, do not press 'spacebar'.",Images/Fearful/BF09_FC.jpg,Fear,Blue,Images/Blue.jpg,space,ParentConditions/YellowBlueBlue_v2.xlsx,BlueBlueYellow,Conditions/Version_2/YellowHappyStop.xlsx,no,PASS,0.026085524820318784,,,,,,,,,0,0,0,0,0,0,0,0,0,44,44,44,,,,,,,,,,,,,,,,,,,,,,,,,,,,,,,,,,,,,,,,,,,,,,,,,,,,,,,,,,,,,,,,,,,,,,,,,,,,,,,1.92,366.1654081000015,None,space,1,0.3108977999945637,368.19952059999923,None,368.19952059999923,None,368.19952059999923,None,,,,,,,,,,,P018,fencog,2,Pre,2021_Oct_29_1136,Go No-Go Task,2021.1.4,119.94520904417038,
,"Rule: When you see a yellow image, do not press 'spacebar'.",Images/Fearful/BM01_FO.jpg,Fear,Blue,Images/Blue.jpg,space,ParentConditions/YellowBlueBlue_v2.xlsx,BlueBlueYellow,Conditions/Version_2/YellowHappyStop.xlsx,no,PASS,0.5546632244892579,,,,,,,,,0,0,0,0,0,0,0,0,0,45,45,45,,,,,,,,,,,,,,,,,,,,,,,,,,,,,,,,,,,,,,,,,,,,,,,,,,,,,,,,,,,,,,,,,,,,,,,,,,,,,,,1.94,368.6029169000103,None,space,1,0.2313307000003988,370.6572451000102,None,370.6572451000102,None,370.6572451000102,None,,,,,,,,,,,P018,fencog,2,Pre,2021_Oct_29_1136,Go No-Go Task,2021.1.4,119.94520904417038,
,"Rule: When you see a yellow image, do not press 'spacebar'.",Images/Happy/BF14_HO.jpg,Happy,Yellow,Images/Yellow.jpg,None,ParentConditions/YellowBlueBlue_v2.xlsx,BlueBlueYellow,Conditions/Version_2/YellowHappyStop.xlsx,yes,PASS,0.8128181362801364,,,,,,,,,0,0,0,0,0,0,0,0,0,46,46,46,,,,,,,,,,,,,,,,,,,,,,,,,,,,,,,,,,,,,,,,,,,,,,,,,,,,,,,,,,,,,,,,,,,,,,,,,,,,,,,1.95,371.06249260000186,None,None,1,,373.1231151000102,None,373.1231151000102,None,373.1231151000102,None,,,,,,,,,,,P018,fencog,2,Pre,2021_Oct_29_1136,Go No-Go Task,2021.1.4,119.94520904417038,
,"Rule: When you see a yellow image, do not press 'spacebar'.",Images/Fearful/WM11_FC.jpg,Fear,Blue,Images/Blue.jpg,space,ParentConditions/YellowBlueBlue_v2.xlsx,BlueBlueYellow,Conditions/Version_2/YellowHappyStop.xlsx,no,PASS,0.9251187011996334,,,,,,,,,0,0,0,0,0,0,0,0,0,47,47,47,,,,,,,,,,,,,,,,,,,,,,,,,,,,,,,,,,,,,,,,,,,,,,,,,,,,,,,,,,,,,,,,,,,,,,,,,,,,,,,1.83,373.517431100001,None,space,1,0.19673759999568574,375.4557877000043,None,375.4557877000043,None,375.4557877000043,None,,,,,,,,,,,P018,fencog,2,Pre,2021_Oct_29_1136,Go No-Go Task,2021.1.4,119.94520904417038,
,"Rule: When you see a yellow image, do not press 'spacebar'.",Images/Fearful/AM02_FO.jpg,Fear,Blue,Images/Blue.jpg,space,ParentConditions/YellowBlueBlue_v2.xlsx,BlueBlueYellow,Conditions/Version_2/YellowHappyStop.xlsx,no,PASS,0.0455811702140666,,,,,,,,,0,0,0,0,0,0,0,0,0,48,48,48,,,,,,,,,,,,,,,,,,,,,,,,,,,,,,,,,,,,,,,,,,,,,,,,,,,,,,,,,,,,,,,,,,,,,,,,,,,,,,,1.23,375.8531994000077,None,space,1,0.24864989999332465,377.196938100009,None,377.196938100009,None,377.196938100009,None,,,,,,,,,,,P018,fencog,2,Pre,2021_Oct_29_1136,Go No-Go Task,2021.1.4,119.94520904417038,
,"Rule: When you see a yellow image, do not press 'spacebar'.",Images/Happy/HM09_HO.jpg,Happy,Yellow,Images/Yellow.jpg,None,ParentConditions/YellowBlueBlue_v2.xlsx,BlueBlueYellow,Conditions/Version_2/YellowHappyStop.xlsx,yes,PASS,0.3219974030212036,,,,,,,,,0,0,0,0,0,0,0,0,0,49,49,49,,,,,,,,,,,,,,,,,,,,,,,,,,,,,,,,,,,,,,,,,,,,,,,,,,,,,,,,,,,,,,,,,,,,,,,,,,,,,,,1.87,377.5967117000109,None,space,0,0.2633373999997275,379.57959170000686,None,379.57959170000686,None,379.57959170000686,None,,,,,,,,,,,P018,fencog,2,Pre,2021_Oct_29_1136,Go No-Go Task,2021.1.4,119.94520904417038,
,"Rule: When you see a yellow image, do not press 'spacebar'.",Images/Happy/HF10_HE.jpg,Happy,Yellow,Images/Yellow.jpg,None,ParentConditions/YellowBlueBlue_v2.xlsx,BlueBlueYellow,Conditions/Version_2/YellowHappyStop.xlsx,yes,PASS,0.5613535526914523,,,,,,,,,0,0,0,0,0,0,0,0,0,50,50,50,,,,,,,,,,,,,,,,,,,,,,,,,,,,,,,,,,,,,,,,,,,,,,,,,,,,,,,,,,,,,,,,,,,,,,,,,,,,,,,1.89,379.9779104000045,None,None,1,,381.97044070000993,None,381.97044070000993,None,381.97044070000993,None,,,,,,,,,,,P018,fencog,2,Pre,2021_Oct_29_1136,Go No-Go Task,2021.1.4,119.94520904417038,
,"Rule: When you see a yellow image, do not press 'spacebar'.",Images/Fearful/AF09AFS.jpg,Fear,Blue,Images/Blue.jpg,space,ParentConditions/YellowBlueBlue_v2.xlsx,BlueBlueYellow,Conditions/Version_2/YellowHappyStop.xlsx,no,PASS,0.5511492847876154,,,,,,,,,0,0,0,0,0,0,0,0,0,51,51,51,,,,,,,,,,,,,,,,,,,,,,,,,,,,,,,,,,,,,,,,,,,,,,,,,,,,,,,,,,,,,,,,,,,,,,,,,,,,,,,1.9,382.37753950001206,None,space,1,0.3030633000016678,384.39478200000303,None,384.39478200000303,None,384.39478200000303,None,,,,,,,,,,,P018,fencog,2,Pre,2021_Oct_29_1136,Go No-Go Task,2021.1.4,119.94520904417038,
,"Rule: When you see a yellow image, do not press 'spacebar'.",Images/Fearful/AM23AFS.jpg,Fear,Blue,Images/Blue.jpg,space,ParentConditions/YellowBlueBlue_v2.xlsx,BlueBlueYellow,Conditions/Version_2/YellowHappyStop.xlsx,no,PASS,0.2159972500516506,,,,,,,,,0,0,0,0,0,0,0,0,0,52,52,52,,,,,,,,,,,,,,,,,,,,,,,,,,,,,,,,,,,,,,,,,,,,,,,,,,,,,,,,,,,,,,,,,,,,,,,,,,,,,,,1.68,384.7857115000079,None,space,1,0.2629305000009481,386.57716130001063,None,386.57716130001063,None,386.57716130001063,None,,,,,,,,,,,P018,fencog,2,Pre,2021_Oct_29_1136,Go No-Go Task,2021.1.4,119.94520904417038,
,"Rule: When you see a yellow image, do not press 'spacebar'.",Images/Fearful/AM05AFS.jpg,Fear,Blue,Images/Blue.jpg,space,ParentConditions/YellowBlueBlue_v2.xlsx,BlueBlueYellow,Conditions/Version_2/YellowHappyStop.xlsx,no,PASS,0.18827335330329198,,,,,,,,,0,0,0,0,0,0,0,0,0,53,53,53,,,,,,,,,,,,,,,,,,,,,,,,,,,,,,,,,,,,,,,,,,,,,,,,,,,,,,,,,,,,,,,,,,,,,,,,,,,,,,,1.77,386.9700070000108,None,space,1,0.24993199999153148,388.85177249999833,None,388.85177249999833,None,388.85177249999833,None,,,,,,,,,,,P018,fencog,2,Pre,2021_Oct_29_1136,Go No-Go Task,2021.1.4,119.94520904417038,
,"Rule: When you see a yellow image, do not press 'spacebar'.",Images/Happy/AF28HAS.jpg,Happy,Yellow,Images/Yellow.jpg,None,ParentConditions/YellowBlueBlue_v2.xlsx,BlueBlueYellow,Conditions/Version_2/YellowHappyStop.xlsx,yes,PASS,0.7444008667159328,,,,,,,,,0,0,0,0,0,0,0,0,0,54,54,54,,,,,,,,,,,,,,,,,,,,,,,,,,,,,,,,,,,,,,,,,,,,,,,,,,,,,,,,,,,,,,,,,,,,,,,,,,,,,,,1.26,389.24904660000175,None,space,0,0.27070939999248367,390.6262543000048,None,390.6262543000048,None,390.6262543000048,None,,,,,,,,,,,P018,fencog,2,Pre,2021_Oct_29_1136,Go No-Go Task,2021.1.4,119.94520904417038,
,"Rule: When you see a yellow image, do not press 'spacebar'.",Images/Fearful/BF14_FO.jpg,Fear,Blue,Images/Blue.jpg,space,ParentConditions/YellowBlueBlue_v2.xlsx,BlueBlueYellow,Conditions/Version_2/YellowHappyStop.xlsx,no,PASS,0.036114312510467594,,,,,,,,,0,0,0,0,0,0,0,0,0,55,55,55,,,,,,,,,,,,,,,,,,,,,,,,,,,,,,,,,,,,,,,,,,,,,,,,,,,,,,,,,,,,,,,,,,,,,,,,,,,,,,,2,391.0231372999988,None,None,0,,393.13395519999904,None,393.13395519999904,None,393.13395519999904,None,,,,,,,,,,,P018,fencog,2,Pre,2021_Oct_29_1136,Go No-Go Task,2021.1.4,119.94520904417038,
,"Rule: When you see a yellow image, do not press 'spacebar'.",Images/Happy/AM30HAS.jpg,Happy,Yellow,Images/Yellow.jpg,None,ParentConditions/YellowBlueBlue_v2.xlsx,BlueBlueYellow,Conditions/Version_2/YellowHappyStop.xlsx,yes,PASS,0.9276323490247724,,,,,,,,,0,0,0,0,0,0,0,0,0,56,56,56,,,,,,,,,,,,,,,,,,,,,,,,,,,,,,,,,,,,,,,,,,,,,,,,,,,,,,,,,,,,,,,,,,,,,,,,,,,,,,,1.74,393.5389111000113,None,None,1,,395.3915015000093,None,395.3915015000093,None,395.3915015000093,None,,,,,,,,,,,P018,fencog,2,Pre,2021_Oct_29_1136,Go No-Go Task,2021.1.4,119.94520904417038,
,"Rule: When you see a yellow image, do not press 'spacebar'.",Images/Fearful/AF27AFS.jpg,Fear,Blue,Images/Blue.jpg,space,ParentConditions/YellowBlueBlue_v2.xlsx,BlueBlueYellow,Conditions/Version_2/YellowHappyStop.xlsx,no,PASS,0.9674336643747157,,,,,,,,,0,0,0,0,0,0,0,0,0,57,57,57,,,,,,,,,,,,,,,,,,,,,,,,,,,,,,,,,,,,,,,,,,,,,,,,,,,,,,,,,,,,,,,,,,,,,,,,,,,,,,,1.29,395.7906042000104,None,space,1,0.3371926999971038,397.18265610000526,None,397.18265610000526,None,397.18265610000526,None,,,,,,,,,,,P018,fencog,2,Pre,2021_Oct_29_1136,Go No-Go Task,2021.1.4,119.94520904417038,
,"Rule: When you see a yellow image, do not press 'spacebar'.",Images/Fearful/AM32AFS.jpg,Fear,Blue,Images/Blue.jpg,space,ParentConditions/YellowBlueBlue_v2.xlsx,BlueBlueYellow,Conditions/Version_2/YellowHappyStop.xlsx,no,PASS,0.5429320828851499,,,,,,,,,0,0,0,0,0,0,0,0,0,58,58,58,,,,,,,,,,,,,,,,,,,,,,,,,,,,,,,,,,,,,,,,,,,,,,,,,,,,,,,,,,,,,,,,,,,,,,,,,,,,,,,1.76,397.58817070000805,None,space,1,0.29070499999215826,399.4570257000014,None,399.4570257000014,None,399.4570257000014,None,,,,,,,,,,,P018,fencog,2,Pre,2021_Oct_29_1136,Go No-Go Task,2021.1.4,119.94520904417038,
,"Rule: When you see a yellow image, do not press 'spacebar'.",Images/Fearful/AM09_FO.jpg,Fear,Blue,Images/Blue.jpg,space,ParentConditions/YellowBlueBlue_v2.xlsx,BlueBlueYellow,Conditions/Version_2/YellowHappyStop.xlsx,no,PASS,0.5248989229975377,,,,,,,,,0,0,0,0,0,0,0,0,0,59,59,59,,,,,,,,,,,,,,,,,,,,,,,,,,,,,,,,,,,,,,,,,,,,,,,,,,,,,,,,,,,,,,,,,,,,,,,,,,,,,,,1.86,399.860042100001,None,space,1,0.25137049998738803,401.83969710000383,None,401.83969710000383,None,401.83969710000383,None,,,,,,,,,,,P018,fencog,2,Pre,2021_Oct_29_1136,Go No-Go Task,2021.1.4,119.94520904417038,
,"Rule: When you see a yellow image, do not press 'spacebar'.",Images/Fearful/AF01_FO.jpg,Fear,Blue,Images/Blue.jpg,space,ParentConditions/YellowBlueBlue_v2.xlsx,BlueBlueYellow,Conditions/Version_2/YellowHappyStop.xlsx,no,PASS,0.007145119379767917,,,,,,,,,0,0,0,0,0,0,0,0,0,60,60,60,,,,,,,,,,,,,,,,,,,,,,,,,,,,,,,,,,,,,,,,,,,,,,,,,,,,,,,,,,,,,,,,,,,,,,,,,,,,,,,1.91,402.2286568999989,None,space,1,0.30078630000934936,404.23888160000206,None,404.23888160000206,None,404.23888160000206,None,,,,,,,,,,,P018,fencog,2,Pre,2021_Oct_29_1136,Go No-Go Task,2021.1.4,119.94520904417038,
,"Rule: When you see a yellow image, do not press 'spacebar'.",Images/Happy/AM10_HO.jpg,Happy,Yellow,Images/Yellow.jpg,None,ParentConditions/YellowBlueBlue_v2.xlsx,BlueBlueYellow,Conditions/Version_2/YellowHappyStop.xlsx,yes,PASS,0.8341186478720962,,,,,,,,,0,0,0,0,0,0,0,0,0,61,61,61,,,,,,,,,,,,,,,,,,,,,,,,,,,,,,,,,,,,,,,,,,,,,,,,,,,,,,,,,,,,,,,,,,,,,,,,,,,,,,,1.42,404.6394616000034,None,None,1,,406.1717898000061,None,406.1717898000061,None,406.1717898000061,None,,,,,,,,,,,P018,fencog,2,Pre,2021_Oct_29_1136,Go No-Go Task,2021.1.4,119.94520904417038,
,"Rule: When you see a yellow image, do not press 'spacebar'.",Images/Happy/AM22HAS.jpg,Happy,Yellow,Images/Yellow.jpg,None,ParentConditions/YellowBlueBlue_v2.xlsx,BlueBlueYellow,Conditions/Version_2/YellowHappyStop.xlsx,yes,PASS,0.6172419840647391,,,,,,,,,0,0,0,0,0,0,0,0,0,62,62,62,,,,,,,,,,,,,,,,,,,,,,,,,,,,,,,,,,,,,,,,,,,,,,,,,,,,,,,,,,,,,,,,,,,,,,,,,,,,,,,1.64,406.575024100006,None,None,1,,408.32940950000193,None,408.32940950000193,None,408.32940950000193,None,,,,,,,,,,,P018,fencog,2,Pre,2021_Oct_29_1136,Go No-Go Task,2021.1.4,119.94520904417038,
,"Rule: When you see a yellow image, do not press 'spacebar'.",Images/Fearful/AM22AFS.jpg,Fear,Blue,Images/Blue.jpg,space,ParentConditions/YellowBlueBlue_v2.xlsx,BlueBlueYellow,Conditions/Version_2/YellowHappyStop.xlsx,no,PASS,0.13735844586330215,,,,,,,,,0,0,0,0,0,0,0,0,0,63,63,63,,,,,,,,,,,,,,,,,,,,,,,,,,,,,,,,,,,,,,,,,,,,,,,,,,,,,,,,,,,,,,,,,,,,,,,,,,,,,,,1.51,408.72442389999924,None,space,1,0.2080149999965215,410.33721589999914,None,410.33721589999914,None,410.33721589999914,None,,,,,,,,,,,P018,fencog,2,Pre,2021_Oct_29_1136,Go No-Go Task,2021.1.4,119.94520904417038,
,"Rule: When you see a yellow image, do not press 'spacebar'.",Images/Happy/BM08_HO.jpg,Happy,Yellow,Images/Yellow.jpg,None,ParentConditions/YellowBlueBlue_v2.xlsx,BlueBlueYellow,Conditions/Version_2/YellowHappyStop.xlsx,yes,PASS,0.19822628709829182,,,,,,,,,0,0,0,0,0,0,0,0,0,64,64,64,,,,,,,,,,,,,,,,,,,,,,,,,,,,,,,,,,,,,,,,,,,,,,,,,,,,,,,,,,,,,,,,,,,,,,,,,,,,,,,1.73,410.745645300005,None,space,0,0.22953369999595452,412.5864147000102,None,412.5864147000102,None,412.5864147000102,None,,,,,,,,,,,P018,fencog,2,Pre,2021_Oct_29_1136,Go No-Go Task,2021.1.4,119.94520904417038,
,"Rule: When you see a yellow image, do not press 'spacebar'.",Images/Fearful/AM19AFS.jpg,Fear,Blue,Images/Blue.jpg,space,ParentConditions/YellowBlueBlue_v2.xlsx,BlueBlueYellow,Conditions/Version_2/YellowHappyStop.xlsx,no,PASS,0.9846537447676192,,,,,,,,,0,0,0,0,0,0,0,0,0,65,65,65,,,,,,,,,,,,,,,,,,,,,,,,,,,,,,,,,,,,,,,,,,,,,,,,,,,,,,,,,,,,,,,,,,,,,,,,,,,,,,,1.33,412.9851415000012,None,space,1,0.29073029999563005,414.42765480000526,None,414.42765480000526,None,414.42765480000526,None,,,,,,,,,,,P018,fencog,2,Pre,2021_Oct_29_1136,Go No-Go Task,2021.1.4,119.94520904417038,
,"Rule: When you see a yellow image, do not press 'spacebar'.",Images/Fearful/AF23AFS.jpg,Fear,Blue,Images/Blue.jpg,space,ParentConditions/YellowBlueBlue_v2.xlsx,BlueBlueYellow,Conditions/Version_2/YellowHappyStop.xlsx,no,PASS,0.06538281980323435,,,,,,,,,0,0,0,0,0,0,0,0,0,66,66,66,,,,,,,,,,,,,,,,,,,,,,,,,,,,,,,,,,,,,,,,,,,,,,,,,,,,,,,,,,,,,,,,,,,,,,,,,,,,,,,1.82,414.8284754000051,None,None,0,,416.7518216000026,None,416.7518216000026,None,416.7518216000026,None,,,,,,,,,,,P018,fencog,2,Pre,2021_Oct_29_1136,Go No-Go Task,2021.1.4,119.94520904417038,
,"Rule: When you see a yellow image, do not press 'spacebar'.",Images/Fearful/AM13AFS.jpg,Fear,Blue,Images/Blue.jpg,space,ParentConditions/YellowBlueBlue_v2.xlsx,BlueBlueYellow,Conditions/Version_2/YellowHappyStop.xlsx,no,PASS,0.501942139065686,,,,,,,,,0,0,0,0,0,0,0,0,0,67,67,67,,,,,,,,,,,,,,,,,,,,,,,,,,,,,,,,,,,,,,,,,,,,,,,,,,,,,,,,,,,,,,,,,,,,,,,,,,,,,,,1.62,417.15870470000664,None,space,1,0.26564730000973213,418.89292820000264,None,418.89292820000264,None,418.89292820000264,None,,,,,,,,,,,P018,fencog,2,Pre,2021_Oct_29_1136,Go No-Go Task,2021.1.4,119.94520904417038,
,"Rule: When you see a yellow image, do not press 'spacebar'.",Images/Fearful/HF09_FC.jpg,Fear,Blue,Images/Blue.jpg,space,ParentConditions/YellowBlueBlue_v2.xlsx,BlueBlueYellow,Conditions/Version_2/YellowHappyStop.xlsx,no,PASS,0.5863101312226996,,,,,,,,,0,0,0,0,0,0,0,0,0,68,68,68,,,,,,,,,,,,,,,,,,,,,,,,,,,,,,,,,,,,,,,,,,,,,,,,,,,,,,,,,,,,,,,,,,,,,,,,,,,,,,,1.45,419.29012210000656,None,space,1,0.32254170000669546,420.8506111000024,None,420.8506111000024,None,420.8506111000024,None,,,,,,,,,,,P018,fencog,2,Pre,2021_Oct_29_1136,Go No-Go Task,2021.1.4,119.94520904417038,
,"Rule: When you see a yellow image, do not press 'spacebar'.",Images/Fearful/AM04AFS.jpg,Fear,Blue,Images/Blue.jpg,space,ParentConditions/YellowBlueBlue_v2.xlsx,BlueBlueYellow,Conditions/Version_2/YellowHappyStop.xlsx,no,PASS,0.9464588162199873,,,,,,,,,0,0,0,0,0,0,0,0,0,69,69,69,,,,,,,,,,,,,,,,,,,,,,,,,,,,,,,,,,,,,,,,,,,,,,,,,,,,,,,,,,,,,,,,,,,,,,,,,,,,,,,1.98,421.2538879000058,None,space,1,0.3400958999991417,423.3498910000053,None,423.3498910000053,None,423.3498910000053,None,,,,,,,,,,,P018,fencog,2,Pre,2021_Oct_29_1136,Go No-Go Task,2021.1.4,119.94520904417038,
,"Rule: When you see a yellow image, do not press 'spacebar'.",Images/Fearful/AF02AFS.jpg,Fear,Blue,Images/Blue.jpg,space,ParentConditions/YellowBlueBlue_v2.xlsx,BlueBlueYellow,Conditions/Version_2/YellowHappyStop.xlsx,no,PASS,0.745835010449707,,,,,,,,,0,0,0,0,0,0,0,0,0,70,70,70,,,,,,,,,,,,,,,,,,,,,,,,,,,,,,,,,,,,,,,,,,,,,,,,,,,,,,,,,,,,,,,,,,,,,,,,,,,,,,,1.63,423.7539754000027,None,None,0,,425.50768550000794,None,425.50768550000794,None,425.50768550000794,None,,,,,,,,,,,P018,fencog,2,Pre,2021_Oct_29_1136,Go No-Go Task,2021.1.4,119.94520904417038,
,"Rule: When you see a yellow image, do not press 'spacebar'.",Images/Fearful/AM09AFS.jpg,Fear,Blue,Images/Blue.jpg,space,ParentConditions/YellowBlueBlue_v2.xlsx,BlueBlueYellow,Conditions/Version_2/YellowHappyStop.xlsx,no,PASS,0.8501894993195995,,,,,,,,,0,0,0,0,0,0,0,0,0,71,71,71,,,,,,,,,,,,,,,,,,,,,,,,,,,,,,,,,,,,,,,,,,,,,,,,,,,,,,,,,,,,,,,,,,,,,,,,,,,,,,,1.69,425.89663240000664,None,space,1,0.20580970001174137,427.69866210001055,None,427.69866210001055,None,427.69866210001055,None,,,,,,,,,,,P018,fencog,2,Pre,2021_Oct_29_1136,Go No-Go Task,2021.1.4,119.94520904417038,
,"Rule: When you see a yellow image, do not press 'spacebar'.",Images/Fearful/BF05_FO.jpg,Fear,Blue,Images/Blue.jpg,space,ParentConditions/YellowBlueBlue_v2.xlsx,BlueBlueYellow,Conditions/Version_2/YellowHappyStop.xlsx,no,PASS,0.41552487186891285,,,,,,,,,0,0,0,0,0,0,0,0,0,72,72,72,,,,,,,,,,,,,,,,,,,,,,,,,,,,,,,,,,,,,,,,,,,,,,,,,,,,,,,,,,,,,,,,,,,,,,,,,,,,,,,1.81,428.1014826000028,None,space,1,0.27082639999571256,430.02291890000924,None,430.02291890000924,None,430.02291890000924,None,,,,,,,,,,,P018,fencog,2,Pre,2021_Oct_29_1136,Go No-Go Task,2021.1.4,119.94520904417038,
,"Rule: When you see a yellow image, do not press 'spacebar'.",Images/Fearful/AF22AFS.jpg,Fear,Blue,Images/Blue.jpg,space,ParentConditions/YellowBlueBlue_v2.xlsx,BlueBlueYellow,Conditions/Version_2/YellowHappyStop.xlsx,no,PASS,0.6701019786706065,,,,,,,,,0,0,0,0,0,0,0,0,0,73,73,73,,,,,,,,,,,,,,,,,,,,,,,,,,,,,,,,,,,,,,,,,,,,,,,,,,,,,,,,,,,,,,,,,,,,,,,,,,,,,,,1.97,430.42342500000086,None,space,1,0.18047350000415463,432.5055372000061,None,432.5055372000061,None,432.5055372000061,None,,,,,,,,,,,P018,fencog,2,Pre,2021_Oct_29_1136,Go No-Go Task,2021.1.4,119.94520904417038,
,"Rule: When you see a yellow image, do not press 'spacebar'.",Images/Happy/BF18_HO.jpg,Happy,Yellow,Images/Yellow.jpg,None,ParentConditions/YellowBlueBlue_v2.xlsx,BlueBlueYellow,Conditions/Version_2/YellowHappyStop.xlsx,yes,PASS,0.41437941694275227,,,,,,,,,0,0,0,0,0,0,0,0,0,74,74,74,,,,,,,,,,,,,,,,,,,,,,,,,,,,,,,,,,,,,,,,,,,,,,,,,,,,,,,,,,,,,,,,,,,,,,,,,,,,,,,1.49,432.9067752000119,None,None,1,,434.50504780000483,None,434.50504780000483,None,434.50504780000483,None,,,,,,,,,,,P018,fencog,2,Pre,2021_Oct_29_1136,Go No-Go Task,2021.1.4,119.94520904417038,
,"Rule: When you see a yellow image, do not press 'spacebar'.",Images/Fearful/WM12_FO.jpg,Fear,Blue,Images/Blue.jpg,space,ParentConditions/YellowBlueBlue_v2.xlsx,BlueBlueYellow,Conditions/Version_2/YellowHappyStop.xlsx,no,PASS,0.577397464904033,,,,,,,,,0,0,0,0,0,0,0,0,0,75,75,75,,,,,,,,,,,,,,,,,,,,,,,,,,,,,,,,,,,,,,,,,,,,,,,,,,,,,,,,,,,,,,,,,,,,,,,,,,,,,,,1.52,434.90377889999945,None,space,1,0.29070660000434145,436.5377950000111,None,436.5377950000111,None,436.5377950000111,None,,,,,,,,,,,P018,fencog,2,Pre,2021_Oct_29_1136,Go No-Go Task,2021.1.4,119.94520904417038,
,"Rule: When you see a yellow image, do not press 'spacebar'.",Images/Fearful/BF07_FO.jpg,Fear,Blue,Images/Blue.jpg,space,ParentConditions/YellowBlueBlue_v2.xlsx,BlueBlueYellow,Conditions/Version_2/YellowHappyStop.xlsx,no,PASS,0.3175910009200418,,,,,,,,,0,0,0,0,0,0,0,0,0,76,76,76,,,,,,,,,,,,,,,,,,,,,,,,,,,,,,,,,,,,,,,,,,,,,,,,,,,,,,,,,,,,,,,,,,,,,,,,,,,,,,,1.47,436.94154010000057,None,space,1,0.15368899999884889,438.52040500000294,None,438.52040500000294,None,438.52040500000294,None,,,,,,,,,,,P018,fencog,2,Pre,2021_Oct_29_1136,Go No-Go Task,2021.1.4,119.94520904417038,
,"Rule: When you see a yellow image, do not press 'spacebar'.",Images/Fearful/HF10_FO.jpg,Fear,Blue,Images/Blue.jpg,space,ParentConditions/YellowBlueBlue_v2.xlsx,BlueBlueYellow,Conditions/Version_2/YellowHappyStop.xlsx,no,PASS,0.5511356040110476,,,,,,,,,0,0,0,0,0,0,0,0,0,77,77,77,,,,,,,,,,,,,,,,,,,,,,,,,,,,,,,,,,,,,,,,,,,,,,,,,,,,,,,,,,,,,,,,,,,,,,,,,,,,,,,1.56,438.92359900000156,None,space,1,0.32860239999718033,440.5947969000117,None,440.5947969000117,None,440.5947969000117,None,,,,,,,,,,,P018,fencog,2,Pre,2021_Oct_29_1136,Go No-Go Task,2021.1.4,119.94520904417038,
,"Rule: When you see a yellow image, do not press 'spacebar'.",Images/Fearful/AM10AFS.jpg,Fear,Blue,Images/Blue.jpg,space,ParentConditions/YellowBlueBlue_v2.xlsx,BlueBlueYellow,Conditions/Version_2/YellowHappyStop.xlsx,no,PASS,0.516543326357497,,,,,,,,,0,0,0,0,0,0,0,0,0,78,78,78,,,,,,,,,,,,,,,,,,,,,,,,,,,,,,,,,,,,,,,,,,,,,,,,,,,,,,,,,,,,,,,,,,,,,,,,,,,,,,,1.22,440.9915924000088,None,space,1,0.19831160000467207,442.33568920000107,None,442.33568920000107,None,442.33568920000107,None,,,,,,,,,,,P018,fencog,2,Pre,2021_Oct_29_1136,Go No-Go Task,2021.1.4,119.94520904417038,
,"Rule: When you see a yellow image, do not press 'spacebar'.",Images/Happy/AM23HAS.jpg,Happy,Yellow,Images/Yellow.jpg,None,ParentConditions/YellowBlueBlue_v2.xlsx,BlueBlueYellow,Conditions/Version_2/YellowHappyStop.xlsx,yes,PASS,0.4223687412850129,,,,,,,,,0,0,0,0,0,0,0,0,0,79,79,79,,,,,,,,,,,,,,,,,,,,,,,,,,,,,,,,,,,,,,,,,,,,,,,,,,,,,,,,,,,,,,,,,,,,,,,,,,,,,,,1.66,442.73204510001233,None,space,0,0.16547580000769813,444.5105070999998,None,444.5105070999998,None,444.5105070999998,None,,,,,,,,,,,P018,fencog,2,Pre,2021_Oct_29_1136,Go No-Go Task,2021.1.4,119.94520904417038,
,"Rule: When you see blue image, do not press 'spacebar'.",Images/Fearful/HM06_FC.jpg,Fear,Blue,Images/Blue.jpg,None,ParentConditions/YellowBlueBlue_v2.xlsx,BlueBlueYellow,Conditions/Version_2/BlueFearStop.xlsx,yes,PASS,0.29049104493206235,,,,,,,,,0,0,0,0,0,1,1,1,0,0,0,0,,,,,,,,,,,,,,,,,,,,,,,,,,,,,,,,,,,,,,,,,,,,,,,,,,,,,,,,,,,,,,,,,497.44086320001225,None,500.42642070000875,None,space,3.412596599999233,500.42642070000875,None,497.44086320001225,None,497.44086320001225,None,497.44086320001225,None,1.47,503.8918311000016,None,None,1,,505.4757006,None,505.4757006,None,505.4757006,None,444.93252620000567,None,space,52.00365210000018,445.4177301000018,None,444.93252620000567,None,444.93252620000567,None,P018,fencog,2,Pre,2021_Oct_29_1136,Go No-Go Task,2021.1.4,119.94520904417038,
,"Rule: When you see blue image, do not press 'spacebar'.",Images/Happy/AF07HAS.jpg,Happy,Yellow,Images/Yellow.jpg,space,ParentConditions/YellowBlueBlue_v2.xlsx,BlueBlueYellow,Conditions/Version_2/BlueFearStop.xlsx,no,PASS,0.3060165792014795,,,,,,,,,0,0,0,0,0,1,1,1,0,1,1,1,,,,,,,,,,,,,,,,,,,,,,,,,,,,,,,,,,,,,,,,,,,,,,,,,,,,,,,,,,,,,,,,,,,,,,,,,,,,,,,1.58,505.87614649999887,None,space,1,0.21934920000785496,507.5666512000025,None,507.5666512000025,None,507.5666512000025,None,,,,,,,,,,,P018,fencog,2,Pre,2021_Oct_29_1136,Go No-Go Task,2021.1.4,119.94520904417038,
,"Rule: When you see blue image, do not press 'spacebar'.",Images/Happy/AF28HAS.jpg,Happy,Yellow,Images/Yellow.jpg,space,ParentConditions/YellowBlueBlue_v2.xlsx,BlueBlueYellow,Conditions/Version_2/BlueFearStop.xlsx,no,PASS,0.23458600871698787,,,,,,,,,0,0,0,0,0,1,1,1,0,2,2,2,,,,,,,,,,,,,,,,,,,,,,,,,,,,,,,,,,,,,,,,,,,,,,,,,,,,,,,,,,,,,,,,,,,,,,,,,,,,,,,1.66,507.97173950000433,None,space,1,0.22072579999803565,509.740936400005,None,509.740936400005,None,509.740936400005,None,,,,,,,,,,,P018,fencog,2,Pre,2021_Oct_29_1136,Go No-Go Task,2021.1.4,119.94520904417038,
,"Rule: When you see blue image, do not press 'spacebar'.",Images/Happy/AF22HAS.jpg,Happy,Yellow,Images/Yellow.jpg,space,ParentConditions/YellowBlueBlue_v2.xlsx,BlueBlueYellow,Conditions/Version_2/BlueFearStop.xlsx,no,PASS,0.11899132917260535,,,,,,,,,0,0,0,0,0,1,1,1,0,3,3,3,,,,,,,,,,,,,,,,,,,,,,,,,,,,,,,,,,,,,,,,,,,,,,,,,,,,,,,,,,,,,,,,,,,,,,,,,,,,,,,2,510.1399955000088,None,space,1,0.3188903999980539,512.2402386000031,None,512.2402386000031,None,512.2402386000031,None,,,,,,,,,,,P018,fencog,2,Pre,2021_Oct_29_1136,Go No-Go Task,2021.1.4,119.94520904417038,
,"Rule: When you see blue image, do not press 'spacebar'.",Images/Fearful/AF27AFS.jpg,Fear,Blue,Images/Blue.jpg,None,ParentConditions/YellowBlueBlue_v2.xlsx,BlueBlueYellow,Conditions/Version_2/BlueFearStop.xlsx,yes,PASS,0.3988252776358663,,,,,,,,,0,0,0,0,0,1,1,1,0,4,4,4,,,,,,,,,,,,,,,,,,,,,,,,,,,,,,,,,,,,,,,,,,,,,,,,,,,,,,,,,,,,,,,,,,,,,,,,,,,,,,,1.8,512.649093400003,None,space,0,0.3279039000044577,514.5645561999991,None,514.5645561999991,None,514.5645561999991,None,,,,,,,,,,,P018,fencog,2,Pre,2021_Oct_29_1136,Go No-Go Task,2021.1.4,119.94520904417038,
,"Rule: When you see blue image, do not press 'spacebar'.",Images/Happy/AM24HAS.jpg,Happy,Yellow,Images/Yellow.jpg,space,ParentConditions/YellowBlueBlue_v2.xlsx,BlueBlueYellow,Conditions/Version_2/BlueFearStop.xlsx,no,PASS,0.6540701766357542,,,,,,,,,0,0,0,0,0,1,1,1,0,5,5,5,,,,,,,,,,,,,,,,,,,,,,,,,,,,,,,,,,,,,,,,,,,,,,,,,,,,,,,,,,,,,,,,,,,,,,,,,,,,,,,1.69,514.963516600008,None,None,0,,516.7639811999979,None,516.7639811999979,None,516.7639811999979,None,,,,,,,,,,,P018,fencog,2,Pre,2021_Oct_29_1136,Go No-Go Task,2021.1.4,119.94520904417038,
,"Rule: When you see blue image, do not press 'spacebar'.",Images/Fearful/AF26AFS.jpg,Fear,Blue,Images/Blue.jpg,None,ParentConditions/YellowBlueBlue_v2.xlsx,BlueBlueYellow,Conditions/Version_2/BlueFearStop.xlsx,yes,PASS,0.672416725983861,,,,,,,,,0,0,0,0,0,1,1,1,0,6,6,6,,,,,,,,,,,,,,,,,,,,,,,,,,,,,,,,,,,,,,,,,,,,,,,,,,,,,,,,,,,,,,,,,,,,,,,,,,,,,,,1.96,517.1621962000063,None,None,1,,519.2297535000107,None,519.2297535000107,None,519.2297535000107,None,,,,,,,,,,,P018,fencog,2,Pre,2021_Oct_29_1136,Go No-Go Task,2021.1.4,119.94520904417038,
,"Rule: When you see blue image, do not press 'spacebar'.",Images/Happy/WM11_HC.jpg,Happy,Yellow,Images/Yellow.jpg,space,ParentConditions/YellowBlueBlue_v2.xlsx,BlueBlueYellow,Conditions/Version_2/BlueFearStop.xlsx,no,PASS,0.8722598945732238,,,,,,,,,0,0,0,0,0,1,1,1,0,7,7,7,,,,,,,,,,,,,,,,,,,,,,,,,,,,,,,,,,,,,,,,,,,,,,,,,,,,,,,,,,,,,,,,,,,,,,,,,,,,,,,1.57,519.6365266000066,None,None,0,,521.3208541000058,None,521.3208541000058,None,521.3208541000058,None,,,,,,,,,,,P018,fencog,2,Pre,2021_Oct_29_1136,Go No-Go Task,2021.1.4,119.94520904417038,
,"Rule: When you see blue image, do not press 'spacebar'.",Images/Happy/BM03_HO.jpg,Happy,Yellow,Images/Yellow.jpg,space,ParentConditions/YellowBlueBlue_v2.xlsx,BlueBlueYellow,Conditions/Version_2/BlueFearStop.xlsx,no,PASS,0.281866807892032,,,,,,,,,0,0,0,0,0,1,1,1,0,8,8,8,,,,,,,,,,,,,,,,,,,,,,,,,,,,,,,,,,,,,,,,,,,,,,,,,,,,,,,,,,,,,,,,,,,,,,,,,,,,,,,1.5,521.7170837000012,None,space,1,0.2597255000000587,523.3286994000082,None,523.3286994000082,None,523.3286994000082,None,,,,,,,,,,,P018,fencog,2,Pre,2021_Oct_29_1136,Go No-Go Task,2021.1.4,119.94520904417038,
,"Rule: When you see blue image, do not press 'spacebar'.",Images/Happy/BF18_HO.jpg,Happy,Yellow,Images/Yellow.jpg,space,ParentConditions/YellowBlueBlue_v2.xlsx,BlueBlueYellow,Conditions/Version_2/BlueFearStop.xlsx,no,PASS,0.056262560303186104,,,,,,,,,0,0,0,0,0,1,1,1,0,9,9,9,,,,,,,,,,,,,,,,,,,,,,,,,,,,,,,,,,,,,,,,,,,,,,,,,,,,,,,,,,,,,,,,,,,,,,,,,,,,,,,1.97,523.727418800001,None,space,1,0.2303095000097528,525.8112676000019,None,525.8112676000019,None,525.8112676000019,None,,,,,,,,,,,P018,fencog,2,Pre,2021_Oct_29_1136,Go No-Go Task,2021.1.4,119.94520904417038,
,"Rule: When you see blue image, do not press 'spacebar'.",Images/Happy/AM10HAS.jpg,Happy,Yellow,Images/Yellow.jpg,space,ParentConditions/YellowBlueBlue_v2.xlsx,BlueBlueYellow,Conditions/Version_2/BlueFearStop.xlsx,no,PASS,0.26234858566298536,,,,,,,,,0,0,0,0,0,1,1,1,0,10,10,10,,,,,,,,,,,,,,,,,,,,,,,,,,,,,,,,,,,,,,,,,,,,,,,,,,,,,,,,,,,,,,,,,,,,,,,,,,,,,,,1.23,526.2083941000019,None,space,1,0.2366087999980664,527.5523994000105,None,527.5523994000105,None,527.5523994000105,None,,,,,,,,,,,P018,fencog,2,Pre,2021_Oct_29_1136,Go No-Go Task,2021.1.4,119.94520904417038,
,"Rule: When you see blue image, do not press 'spacebar'.",Images/Happy/AM09HAS.jpg,Happy,Yellow,Images/Yellow.jpg,space,ParentConditions/YellowBlueBlue_v2.xlsx,BlueBlueYellow,Conditions/Version_2/BlueFearStop.xlsx,no,PASS,0.5322853606558464,,,,,,,,,0,0,0,0,0,1,1,1,0,11,11,11,,,,,,,,,,,,,,,,,,,,,,,,,,,,,,,,,,,,,,,,,,,,,,,,,,,,,,,,,,,,,,,,,,,,,,,,,,,,,,,1.79,527.9570311999996,None,space,1,0.2336393000005046,529.8600340999983,None,529.8600340999983,None,529.8600340999983,None,,,,,,,,,,,P018,fencog,2,Pre,2021_Oct_29_1136,Go No-Go Task,2021.1.4,119.94520904417038,
,"Rule: When you see blue image, do not press 'spacebar'.",Images/Happy/AM16HAS.jpg,Happy,Yellow,Images/Yellow.jpg,space,ParentConditions/YellowBlueBlue_v2.xlsx,BlueBlueYellow,Conditions/Version_2/BlueFearStop.xlsx,no,PASS,0.8730560121673133,,,,,,,,,0,0,0,0,0,1,1,1,0,12,12,12,,,,,,,,,,,,,,,,,,,,,,,,,,,,,,,,,,,,,,,,,,,,,,,,,,,,,,,,,,,,,,,,,,,,,,,,,,,,,,,1.29,530.2557564000017,None,space,1,0.3276200000109384,531.6595404000109,None,531.6595404000109,None,531.6595404000109,None,,,,,,,,,,,P018,fencog,2,Pre,2021_Oct_29_1136,Go No-Go Task,2021.1.4,119.94520904417038,
,"Rule: When you see blue image, do not press 'spacebar'.",Images/Happy/AF10_HE.jpg,Happy,Yellow,Images/Yellow.jpg,space,ParentConditions/YellowBlueBlue_v2.xlsx,BlueBlueYellow,Conditions/Version_2/BlueFearStop.xlsx,no,PASS,0.7103342893987146,,,,,,,,,0,0,0,0,0,1,1,1,0,13,13,13,,,,,,,,,,,,,,,,,,,,,,,,,,,,,,,,,,,,,,,,,,,,,,,,,,,,,,,,,,,,,,,,,,,,,,,,,,,,,,,1.67,532.0573943000054,None,space,1,0.30617979999806266,533.8421955000085,None,533.8421955000085,None,533.8421955000085,None,,,,,,,,,,,P018,fencog,2,Pre,2021_Oct_29_1136,Go No-Go Task,2021.1.4,119.94520904417038,
,"Rule: When you see blue image, do not press 'spacebar'.",Images/Happy/AF27HAS.jpg,Happy,Yellow,Images/Yellow.jpg,space,ParentConditions/YellowBlueBlue_v2.xlsx,BlueBlueYellow,Conditions/Version_2/BlueFearStop.xlsx,no,PASS,0.8937289807404983,,,,,,,,,0,0,0,0,0,1,1,1,0,14,14,14,,,,,,,,,,,,,,,,,,,,,,,,,,,,,,,,,,,,,,,,,,,,,,,,,,,,,,,,,,,,,,,,,,,,,,,,,,,,,,,1.99,534.2430657000077,None,space,1,0.2778260999912163,536.3331564000109,None,536.3331564000109,None,536.3331564000109,None,,,,,,,,,,,P018,fencog,2,Pre,2021_Oct_29_1136,Go No-Go Task,2021.1.4,119.94520904417038,
,"Rule: When you see blue image, do not press 'spacebar'.",Images/Happy/BF10_HO.jpg,Happy,Yellow,Images/Yellow.jpg,space,ParentConditions/YellowBlueBlue_v2.xlsx,BlueBlueYellow,Conditions/Version_2/BlueFearStop.xlsx,no,PASS,0.41505973664432705,,,,,,,,,0,0,0,0,0,1,1,1,0,15,15,15,,,,,,,,,,,,,,,,,,,,,,,,,,,,,,,,,,,,,,,,,,,,,,,,,,,,,,,,,,,,,,,,,,,,,,,,,,,,,,,1.21,536.7377357000078,None,space,1,0.24722299999848474,538.0575981000002,None,538.0575981000002,None,538.0575981000002,None,,,,,,,,,,,P018,fencog,2,Pre,2021_Oct_29_1136,Go No-Go Task,2021.1.4,119.94520904417038,
,"Rule: When you see blue image, do not press 'spacebar'.",Images/Happy/BF14_HO.jpg,Happy,Yellow,Images/Yellow.jpg,space,ParentConditions/YellowBlueBlue_v2.xlsx,BlueBlueYellow,Conditions/Version_2/BlueFearStop.xlsx,no,PASS,0.38735807018105894,,,,,,,,,0,0,0,0,0,1,1,1,0,16,16,16,,,,,,,,,,,,,,,,,,,,,,,,,,,,,,,,,,,,,,,,,,,,,,,,,,,,,,,,,,,,,,,,,,,,,,,,,,,,,,,1.62,538.5119465000025,None,space,1,0.18332129999180324,540.2403895000025,None,540.2403895000025,None,540.2403895000025,None,,,,,,,,,,,P018,fencog,2,Pre,2021_Oct_29_1136,Go No-Go Task,2021.1.4,119.94520904417038,
,"Rule: When you see blue image, do not press 'spacebar'.",Images/Fearful/BM08_FC.jpg,Fear,Blue,Images/Blue.jpg,None,ParentConditions/YellowBlueBlue_v2.xlsx,BlueBlueYellow,Conditions/Version_2/BlueFearStop.xlsx,yes,PASS,0.7905879335514261,,,,,,,,,0,0,0,0,0,1,1,1,0,17,17,17,,,,,,,,,,,,,,,,,,,,,,,,,,,,,,,,,,,,,,,,,,,,,,,,,,,,,,,,,,,,,,,,,,,,,,,,,,,,,,,1.59,540.6408077000087,None,None,1,,542.3396528000012,None,542.3396528000012,None,542.3396528000012,None,,,,,,,,,,,P018,fencog,2,Pre,2021_Oct_29_1136,Go No-Go Task,2021.1.4,119.94520904417038,
,"Rule: When you see blue image, do not press 'spacebar'.",Images/Happy/AM01HAS.jpg,Happy,Yellow,Images/Yellow.jpg,space,ParentConditions/YellowBlueBlue_v2.xlsx,BlueBlueYellow,Conditions/Version_2/BlueFearStop.xlsx,no,PASS,0.9589705349559869,,,,,,,,,0,0,0,0,0,1,1,1,0,18,18,18,,,,,,,,,,,,,,,,,,,,,,,,,,,,,,,,,,,,,,,,,,,,,,,,,,,,,,,,,,,,,,,,,,,,,,,,,,,,,,,1.72,542.7433423000039,None,space,1,0.11303819999739062,544.5636377000046,None,544.5636377000046,None,544.5636377000046,None,,,,,,,,,,,P018,fencog,2,Pre,2021_Oct_29_1136,Go No-Go Task,2021.1.4,119.94520904417038,
,"Rule: When you see blue image, do not press 'spacebar'.",Images/Happy/AF11HAS.jpg,Happy,Yellow,Images/Yellow.jpg,space,ParentConditions/YellowBlueBlue_v2.xlsx,BlueBlueYellow,Conditions/Version_2/BlueFearStop.xlsx,no,PASS,0.6358882343202421,,,,,,,,,0,0,0,0,0,1,1,1,0,19,19,19,,,,,,,,,,,,,,,,,,,,,,,,,,,,,,,,,,,,,,,,,,,,,,,,,,,,,,,,,,,,,,,,,,,,,,,,,,,,,,,1.64,544.9684397000092,None,space,1,0.20183550000365358,546.7133986000117,None,546.7133986000117,None,546.7133986000117,None,,,,,,,,,,,P018,fencog,2,Pre,2021_Oct_29_1136,Go No-Go Task,2021.1.4,119.94520904417038,
,"Rule: When you see blue image, do not press 'spacebar'.",Images/Happy/BM01_HO.jpg,Happy,Yellow,Images/Yellow.jpg,space,ParentConditions/YellowBlueBlue_v2.xlsx,BlueBlueYellow,Conditions/Version_2/BlueFearStop.xlsx,no,PASS,0.301040907790301,,,,,,,,,0,0,0,0,0,1,1,1,0,20,20,20,,,,,,,,,,,,,,,,,,,,,,,,,,,,,,,,,,,,,,,,,,,,,,,,,,,,,,,,,,,,,,,,,,,,,,,,,,,,,,,1.4,547.1222138000012,None,space,1,0.23666860000230372,548.6378197000013,None,548.6378197000013,None,548.6378197000013,None,,,,,,,,,,,P018,fencog,2,Pre,2021_Oct_29_1136,Go No-Go Task,2021.1.4,119.94520904417038,
,"Rule: When you see blue image, do not press 'spacebar'.",Images/Happy/AF07_HO.jpg,Happy,Yellow,Images/Yellow.jpg,space,ParentConditions/YellowBlueBlue_v2.xlsx,BlueBlueYellow,Conditions/Version_2/BlueFearStop.xlsx,no,PASS,0.16146803476355298,,,,,,,,,0,0,0,0,0,1,1,1,0,21,21,21,,,,,,,,,,,,,,,,,,,,,,,,,,,,,,,,,,,,,,,,,,,,,,,,,,,,,,,,,,,,,,,,,,,,,,,,,,,,,,,1.82,549.0362214000052,None,space,1,0.1810818000085419,550.9621287000045,None,550.9621287000045,None,550.9621287000045,None,,,,,,,,,,,P018,fencog,2,Pre,2021_Oct_29_1136,Go No-Go Task,2021.1.4,119.94520904417038,
,"Rule: When you see blue image, do not press 'spacebar'.",Images/Happy/HM06_HO.jpg,Happy,Yellow,Images/Yellow.jpg,space,ParentConditions/YellowBlueBlue_v2.xlsx,BlueBlueYellow,Conditions/Version_2/BlueFearStop.xlsx,no,PASS,0.017367743981932304,,,,,,,,,0,0,0,0,0,1,1,1,0,22,22,22,,,,,,,,,,,,,,,,,,,,,,,,,,,,,,,,,,,,,,,,,,,,,,,,,,,,,,,,,,,,,,,,,,,,,,,,,,,,,,,1.34,551.3690554000059,None,space,1,0.28094359999522567,552.8198917000118,None,552.8198917000118,None,552.8198917000118,None,,,,,,,,,,,P018,fencog,2,Pre,2021_Oct_29_1136,Go No-Go Task,2021.1.4,119.94520904417038,
,"Rule: When you see blue image, do not press 'spacebar'.",Images/Fearful/AM09_FO.jpg,Fear,Blue,Images/Blue.jpg,None,ParentConditions/YellowBlueBlue_v2.xlsx,BlueBlueYellow,Conditions/Version_2/BlueFearStop.xlsx,yes,PASS,0.2997278789301355,,,,,,,,,0,0,0,0,0,1,1,1,0,23,23,23,,,,,,,,,,,,,,,,,,,,,,,,,,,,,,,,,,,,,,,,,,,,,,,,,,,,,,,,,,,,,,,,,,,,,,,,,,,,,,,1.2,553.2218793000065,None,None,1,,554.5276513999997,None,554.5276513999997,None,554.5276513999997,None,,,,,,,,,,,P018,fencog,2,Pre,2021_Oct_29_1136,Go No-Go Task,2021.1.4,119.94520904417038,
,"Rule: When you see blue image, do not press 'spacebar'.",Images/Happy/AF09HAS.jpg,Happy,Yellow,Images/Yellow.jpg,space,ParentConditions/YellowBlueBlue_v2.xlsx,BlueBlueYellow,Conditions/Version_2/BlueFearStop.xlsx,no,PASS,0.8273900201130844,,,,,,,,,0,0,0,0,0,1,1,1,0,24,24,24,,,,,,,,,,,,,,,,,,,,,,,,,,,,,,,,,,,,,,,,,,,,,,,,,,,,,,,,,,,,,,,,,,,,,,,,,,,,,,,1.24,554.939005200009,None,space,1,0.20822000000043772,556.2938587000099,None,556.2938587000099,None,556.2938587000099,None,,,,,,,,,,,P018,fencog,2,Pre,2021_Oct_29_1136,Go No-Go Task,2021.1.4,119.94520904417038,
,"Rule: When you see blue image, do not press 'spacebar'.",Images/Happy/AM04HAS.jpg,Happy,Yellow,Images/Yellow.jpg,space,ParentConditions/YellowBlueBlue_v2.xlsx,BlueBlueYellow,Conditions/Version_2/BlueFearStop.xlsx,no,PASS,0.7497236344439144,,,,,,,,,0,0,0,0,0,1,1,1,0,25,25,25,,,,,,,,,,,,,,,,,,,,,,,,,,,,,,,,,,,,,,,,,,,,,,,,,,,,,,,,,,,,,,,,,,,,,,,,,,,,,,,1.36,556.6909627999994,None,space,1,0.17289359999995213,558.1683454000013,None,558.1683454000013,None,558.1683454000013,None,,,,,,,,,,,P018,fencog,2,Pre,2021_Oct_29_1136,Go No-Go Task,2021.1.4,119.94520904417038,
,"Rule: When you see blue image, do not press 'spacebar'.",Images/Happy/BF07_HO.jpg,Happy,Yellow,Images/Yellow.jpg,space,ParentConditions/YellowBlueBlue_v2.xlsx,BlueBlueYellow,Conditions/Version_2/BlueFearStop.xlsx,no,PASS,0.9631973209169931,,,,,,,,,0,0,0,0,0,1,1,1,0,26,26,26,,,,,,,,,,,,,,,,,,,,,,,,,,,,,,,,,,,,,,,,,,,,,,,,,,,,,,,,,,,,,,,,,,,,,,,,,,,,,,,1.35,558.5592949999991,None,space,1,0.2336152000061702,560.0181717000087,None,560.0181717000087,None,560.0181717000087,None,,,,,,,,,,,P018,fencog,2,Pre,2021_Oct_29_1136,Go No-Go Task,2021.1.4,119.94520904417038,
,"Rule: When you see blue image, do not press 'spacebar'.",Images/Happy/AF02HAS.jpg,Happy,Yellow,Images/Yellow.jpg,space,ParentConditions/YellowBlueBlue_v2.xlsx,BlueBlueYellow,Conditions/Version_2/BlueFearStop.xlsx,no,PASS,0.44316288931410874,,,,,,,,,0,0,0,0,0,1,1,1,0,27,27,27,,,,,,,,,,,,,,,,,,,,,,,,,,,,,,,,,,,,,,,,,,,,,,,,,,,,,,,,,,,,,,,,,,,,,,,,,,,,,,,1.37,560.4123917000106,None,space,1,0.2519014999998035,561.9006335000013,None,561.9006335000013,None,561.9006335000013,None,,,,,,,,,,,P018,fencog,2,Pre,2021_Oct_29_1136,Go No-Go Task,2021.1.4,119.94520904417038,
,"Rule: When you see blue image, do not press 'spacebar'.",Images/Happy/AM30HAS.jpg,Happy,Yellow,Images/Yellow.jpg,space,ParentConditions/YellowBlueBlue_v2.xlsx,BlueBlueYellow,Conditions/Version_2/BlueFearStop.xlsx,no,PASS,0.8101164063536405,,,,,,,,,0,0,0,0,0,1,1,1,0,28,28,28,,,,,,,,,,,,,,,,,,,,,,,,,,,,,,,,,,,,,,,,,,,,,,,,,,,,,,,,,,,,,,,,,,,,,,,,,,,,,,,1.91,562.2892204000091,None,space,1,0.22482709999894723,564.3081463999988,None,564.3081463999988,None,564.3081463999988,None,,,,,,,,,,,P018,fencog,2,Pre,2021_Oct_29_1136,Go No-Go Task,2021.1.4,119.94520904417038,
,"Rule: When you see blue image, do not press 'spacebar'.",Images/Happy/BF05_HO.jpg,Happy,Yellow,Images/Yellow.jpg,space,ParentConditions/YellowBlueBlue_v2.xlsx,BlueBlueYellow,Conditions/Version_2/BlueFearStop.xlsx,no,PASS,0.6770609167729968,,,,,,,,,0,0,0,0,0,1,1,1,0,29,29,29,,,,,,,,,,,,,,,,,,,,,,,,,,,,,,,,,,,,,,,,,,,,,,,,,,,,,,,,,,,,,,,,,,,,,,,,,,,,,,,1.68,564.7083975999994,None,space,1,0.26798979999148287,566.4991944000067,None,566.4991944000067,None,566.4991944000067,None,,,,,,,,,,,P018,fencog,2,Pre,2021_Oct_29_1136,Go No-Go Task,2021.1.4,119.94520904417038,
,"Rule: When you see blue image, do not press 'spacebar'.",Images/Fearful/AF25AFS.jpg,Fear,Blue,Images/Blue.jpg,None,ParentConditions/YellowBlueBlue_v2.xlsx,BlueBlueYellow,Conditions/Version_2/BlueFearStop.xlsx,yes,PASS,0.9137328829424104,,,,,,,,,0,0,0,0,0,1,1,1,0,30,30,30,,,,,,,,,,,,,,,,,,,,,,,,,,,,,,,,,,,,,,,,,,,,,,,,,,,,,,,,,,,,,,,,,,,,,,,,,,,,,,,1.73,566.8986378000118,None,None,1,,568.7401034000068,None,568.7401034000068,None,568.7401034000068,None,,,,,,,,,,,P018,fencog,2,Pre,2021_Oct_29_1136,Go No-Go Task,2021.1.4,119.94520904417038,
,"Rule: When you see blue image, do not press 'spacebar'.",Images/Happy/BF09_HO.jpg,Happy,Yellow,Images/Yellow.jpg,space,ParentConditions/YellowBlueBlue_v2.xlsx,BlueBlueYellow,Conditions/Version_2/BlueFearStop.xlsx,no,PASS,0.7233148419047607,,,,,,,,,0,0,0,0,0,1,1,1,0,31,31,31,,,,,,,,,,,,,,,,,,,,,,,,,,,,,,,,,,,,,,,,,,,,,,,,,,,,,,,,,,,,,,,,,,,,,,,,,,,,,,,1.95,569.1394723000121,None,space,1,0.1654837999958545,571.1977970000007,None,571.1977970000007,None,571.1977970000007,None,,,,,,,,,,,P018,fencog,2,Pre,2021_Oct_29_1136,Go No-Go Task,2021.1.4,119.94520904417038,
,"Rule: When you see blue image, do not press 'spacebar'.",Images/Happy/AM09_HE.jpg,Happy,Yellow,Images/Yellow.jpg,space,ParentConditions/YellowBlueBlue_v2.xlsx,BlueBlueYellow,Conditions/Version_2/BlueFearStop.xlsx,no,PASS,0.703399731728546,,,,,,,,,0,0,0,0,0,1,1,1,0,32,32,32,,,,,,,,,,,,,,,,,,,,,,,,,,,,,,,,,,,,,,,,,,,,,,,,,,,,,,,,,,,,,,,,,,,,,,,,,,,,,,,1.93,571.6007251000119,None,space,1,0.19784179999260232,573.6470698000048,None,573.6470698000048,None,573.6470698000048,None,,,,,,,,,,,P018,fencog,2,Pre,2021_Oct_29_1136,Go No-Go Task,2021.1.4,119.94520904417038,
,"Rule: When you see blue image, do not press 'spacebar'.",Images/Fearful/BF14_FO.jpg,Fear,Blue,Images/Blue.jpg,None,ParentConditions/YellowBlueBlue_v2.xlsx,BlueBlueYellow,Conditions/Version_2/BlueFearStop.xlsx,yes,PASS,0.641858343679783,,,,,,,,,0,0,0,0,0,1,1,1,0,33,33,33,,,,,,,,,,,,,,,,,,,,,,,,,,,,,,,,,,,,,,,,,,,,,,,,,,,,,,,,,,,,,,,,,,,,,,,,,,,,,,,1.83,574.0522913000023,None,space,0,0.11246299999766052,575.9964218000096,None,575.9964218000096,None,575.9964218000096,None,,,,,,,,,,,P018,fencog,2,Pre,2021_Oct_29_1136,Go No-Go Task,2021.1.4,119.94520904417038,
,"Rule: When you see blue image, do not press 'spacebar'.",Images/Fearful/HF05_FC.jpg,Fear,Blue,Images/Blue.jpg,None,ParentConditions/YellowBlueBlue_v2.xlsx,BlueBlueYellow,Conditions/Version_2/BlueFearStop.xlsx,yes,PASS,0.11935527908981858,,,,,,,,,0,0,0,0,0,1,1,1,0,34,34,34,,,,,,,,,,,,,,,,,,,,,,,,,,,,,,,,,,,,,,,,,,,,,,,,,,,,,,,,,,,,,,,,,,,,,,,,,,,,,,,1.55,576.3962657000084,None,space,0,0.25816260000283364,578.0624255000002,None,578.0624255000002,None,578.0624255000002,None,,,,,,,,,,,P018,fencog,2,Pre,2021_Oct_29_1136,Go No-Go Task,2021.1.4,119.94520904417038,
,"Rule: When you see blue image, do not press 'spacebar'.",Images/Happy/AM23HAS.jpg,Happy,Yellow,Images/Yellow.jpg,space,ParentConditions/YellowBlueBlue_v2.xlsx,BlueBlueYellow,Conditions/Version_2/BlueFearStop.xlsx,no,PASS,0.4310663721908784,,,,,,,,,0,0,0,0,0,1,1,1,0,35,35,35,,,,,,,,,,,,,,,,,,,,,,,,,,,,,,,,,,,,,,,,,,,,,,,,,,,,,,,,,,,,,,,,,,,,,,,,,,,,,,,1.89,578.4654307000019,None,space,1,0.26341600000159815,580.4700706000003,None,580.4700706000003,None,580.4700706000003,None,,,,,,,,,,,P018,fencog,2,Pre,2021_Oct_29_1136,Go No-Go Task,2021.1.4,119.94520904417038,
,"Rule: When you see blue image, do not press 'spacebar'.",Images/Happy/AM03_HO.jpg,Happy,Yellow,Images/Yellow.jpg,space,ParentConditions/YellowBlueBlue_v2.xlsx,BlueBlueYellow,Conditions/Version_2/BlueFearStop.xlsx,no,PASS,0.027367773514368476,,,,,,,,,0,0,0,0,0,1,1,1,0,36,36,36,,,,,,,,,,,,,,,,,,,,,,,,,,,,,,,,,,,,,,,,,,,,,,,,,,,,,,,,,,,,,,,,,,,,,,,,,,,,,,,1.56,580.8708890999987,None,space,1,0.27304780000122264,582.5527759000106,None,582.5527759000106,None,582.5527759000106,None,,,,,,,,,,,P018,fencog,2,Pre,2021_Oct_29_1136,Go No-Go Task,2021.1.4,119.94520904417038,
,"Rule: When you see blue image, do not press 'spacebar'.",Images/Happy/AF25HAS.jpg,Happy,Yellow,Images/Yellow.jpg,space,ParentConditions/YellowBlueBlue_v2.xlsx,BlueBlueYellow,Conditions/Version_2/BlueFearStop.xlsx,no,PASS,0.04870321560414337,,,,,,,,,0,0,0,0,0,1,1,1,0,37,37,37,,,,,,,,,,,,,,,,,,,,,,,,,,,,,,,,,,,,,,,,,,,,,,,,,,,,,,,,,,,,,,,,,,,,,,,,,,,,,,,1.42,582.9467243000108,None,space,1,0.3200840999925276,584.4771376999997,None,584.4771376999997,None,584.4771376999997,None,,,,,,,,,,,P018,fencog,2,Pre,2021_Oct_29_1136,Go No-Go Task,2021.1.4,119.94520904417038,
,"Rule: When you see blue image, do not press 'spacebar'.",Images/Happy/BM08_HO.jpg,Happy,Yellow,Images/Yellow.jpg,space,ParentConditions/YellowBlueBlue_v2.xlsx,BlueBlueYellow,Conditions/Version_2/BlueFearStop.xlsx,no,PASS,0.026169495354104844,,,,,,,,,0,0,0,0,0,1,1,1,0,38,38,38,,,,,,,,,,,,,,,,,,,,,,,,,,,,,,,,,,,,,,,,,,,,,,,,,,,,,,,,,,,,,,,,,,,,,,,,,,,,,,,1.33,584.8741326000018,None,space,1,0.23520569999527652,586.3183656000037,None,586.3183656000037,None,586.3183656000037,None,,,,,,,,,,,P018,fencog,2,Pre,2021_Oct_29_1136,Go No-Go Task,2021.1.4,119.94520904417038,
,"Rule: When you see blue image, do not press 'spacebar'.",Images/Happy/AF32HAS.jpg,Happy,Yellow,Images/Yellow.jpg,space,ParentConditions/YellowBlueBlue_v2.xlsx,BlueBlueYellow,Conditions/Version_2/BlueFearStop.xlsx,no,PASS,0.007662007482450273,,,,,,,,,0,0,0,0,0,1,1,1,0,39,39,39,,,,,,,,,,,,,,,,,,,,,,,,,,,,,,,,,,,,,,,,,,,,,,,,,,,,,,,,,,,,,,,,,,,,,,,,,,,,,,,1.65,586.7168995000102,None,space,1,0.25859070000296924,588.4760015000065,None,588.4760015000065,None,588.4760015000065,None,,,,,,,,,,,P018,fencog,2,Pre,2021_Oct_29_1136,Go No-Go Task,2021.1.4,119.94520904417038,
,"Rule: When you see blue image, do not press 'spacebar'.",Images/Happy/AF23HAS.jpg,Happy,Yellow,Images/Yellow.jpg,space,ParentConditions/YellowBlueBlue_v2.xlsx,BlueBlueYellow,Conditions/Version_2/BlueFearStop.xlsx,no,PASS,0.13322659163638806,,,,,,,,,0,0,0,0,0,1,1,1,0,40,40,40,,,,,,,,,,,,,,,,,,,,,,,,,,,,,,,,,,,,,,,,,,,,,,,,,,,,,,,,,,,,,,,,,,,,,,,,,,,,,,,1.27,588.8740369000006,None,space,1,0.287956199987093,590.258909199998,None,590.258909199998,None,590.258909199998,None,,,,,,,,,,,P018,fencog,2,Pre,2021_Oct_29_1136,Go No-Go Task,2021.1.4,119.94520904417038,
,"Rule: When you see blue image, do not press 'spacebar'.",Images/Happy/AM32HAS.jpg,Happy,Yellow,Images/Yellow.jpg,space,ParentConditions/YellowBlueBlue_v2.xlsx,BlueBlueYellow,Conditions/Version_2/BlueFearStop.xlsx,no,PASS,0.18790539518346805,,,,,,,,,0,0,0,0,0,1,1,1,0,41,41,41,,,,,,,,,,,,,,,,,,,,,,,,,,,,,,,,,,,,,,,,,,,,,,,,,,,,,,,,,,,,,,,,,,,,,,,,,,,,,,,1.74,590.657684100006,None,space,1,0.2258849000063492,592.508149500005,None,592.508149500005,None,592.508149500005,None,,,,,,,,,,,P018,fencog,2,Pre,2021_Oct_29_1136,Go No-Go Task,2021.1.4,119.94520904417038,
,"Rule: When you see blue image, do not press 'spacebar'.",Images/Fearful/AM30AFS.jpg,Fear,Blue,Images/Blue.jpg,None,ParentConditions/YellowBlueBlue_v2.xlsx,BlueBlueYellow,Conditions/Version_2/BlueFearStop.xlsx,yes,PASS,0.3894428318578558,,,,,,,,,0,0,0,0,0,1,1,1,0,42,42,42,,,,,,,,,,,,,,,,,,,,,,,,,,,,,,,,,,,,,,,,,,,,,,,,,,,,,,,,,,,,,,,,,,,,,,,,,,,,,,,1.3,592.9110352999996,None,None,1,,594.3160675000108,None,594.3160675000108,None,594.3160675000108,None,,,,,,,,,,,P018,fencog,2,Pre,2021_Oct_29_1136,Go No-Go Task,2021.1.4,119.94520904417038,
,"Rule: When you see blue image, do not press 'spacebar'.",Images/Happy/BM02_HO.jpg,Happy,Yellow,Images/Yellow.jpg,space,ParentConditions/YellowBlueBlue_v2.xlsx,BlueBlueYellow,Conditions/Version_2/BlueFearStop.xlsx,no,PASS,0.8000984906086622,,,,,,,,,0,0,0,0,0,1,1,1,0,43,43,43,,,,,,,,,,,,,,,,,,,,,,,,,,,,,,,,,,,,,,,,,,,,,,,,,,,,,,,,,,,,,,,,,,,,,,,,,,,,,,,1.22,594.7243441000028,None,space,1,0.2913130000088131,596.0570791000064,None,596.0570791000064,None,596.0570791000064,None,,,,,,,,,,,P018,fencog,2,Pre,2021_Oct_29_1136,Go No-Go Task,2021.1.4,119.94520904417038,
,"Rule: When you see blue image, do not press 'spacebar'.",Images/Happy/AM10_HO.jpg,Happy,Yellow,Images/Yellow.jpg,space,ParentConditions/YellowBlueBlue_v2.xlsx,BlueBlueYellow,Conditions/Version_2/BlueFearStop.xlsx,no,PASS,0.5717939201397183,,,,,,,,,0,0,0,0,0,1,1,1,0,44,44,44,,,,,,,,,,,,,,,,,,,,,,,,,,,,,,,,,,,,,,,,,,,,,,,,,,,,,,,,,,,,,,,,,,,,,,,,,,,,,,,1.94,596.4538708000036,None,space,1,0.3123043000086909,598.5063474000053,None,598.5063474000053,None,598.5063474000053,None,,,,,,,,,,,P018,fencog,2,Pre,2021_Oct_29_1136,Go No-Go Task,2021.1.4,119.94520904417038,
,"Rule: When you see blue image, do not press 'spacebar'.",Images/Fearful/AM10_FO.jpg,Fear,Blue,Images/Blue.jpg,None,ParentConditions/YellowBlueBlue_v2.xlsx,BlueBlueYellow,Conditions/Version_2/BlueFearStop.xlsx,yes,PASS,0.5269701617606191,,,,,,,,,0,0,0,0,0,1,1,1,0,45,45,45,,,,,,,,,,,,,,,,,,,,,,,,,,,,,,,,,,,,,,,,,,,,,,,,,,,,,,,,,,,,,,,,,,,,,,,,,,,,,,,1.26,598.9047483000031,None,space,0,0.2682434000016656,600.2808848999994,None,600.2808848999994,None,600.2808848999994,None,,,,,,,,,,,P018,fencog,2,Pre,2021_Oct_29_1136,Go No-Go Task,2021.1.4,119.94520904417038,
,"Rule: When you see blue image, do not press 'spacebar'.",Images/Happy/AF19HAS.jpg,Happy,Yellow,Images/Yellow.jpg,space,ParentConditions/YellowBlueBlue_v2.xlsx,BlueBlueYellow,Conditions/Version_2/BlueFearStop.xlsx,no,PASS,0.6170839926730745,,,,,,,,,0,0,0,0,0,1,1,1,0,46,46,46,,,,,,,,,,,,,,,,,,,,,,,,,,,,,,,,,,,,,,,,,,,,,,,,,,,,,,,,,,,,,,,,,,,,,,,,,,,,,,,1.48,600.6813275000022,None,space,1,0.32795060001080856,602.2724366000039,None,602.2724366000039,None,602.2724366000039,None,,,,,,,,,,,P018,fencog,2,Pre,2021_Oct_29_1136,Go No-Go Task,2021.1.4,119.94520904417038,
,"Rule: When you see blue image, do not press 'spacebar'.",Images/Fearful/HF09_FC.jpg,Fear,Blue,Images/Blue.jpg,None,ParentConditions/YellowBlueBlue_v2.xlsx,BlueBlueYellow,Conditions/Version_2/BlueFearStop.xlsx,yes,PASS,0.03424286048079783,,,,,,,,,0,0,0,0,0,1,1,1,0,47,47,47,,,,,,,,,,,,,,,,,,,,,,,,,,,,,,,,,,,,,,,,,,,,,,,,,,,,,,,,,,,,,,,,,,,,,,,,,,,,,,,1.85,602.6669037000102,None,space,0,0.2468483999982709,604.6296986000089,None,604.6296986000089,None,604.6296986000089,None,,,,,,,,,,,P018,fencog,2,Pre,2021_Oct_29_1136,Go No-Go Task,2021.1.4,119.94520904417038,
,"Rule: When you see blue image, do not press 'spacebar'.",Images/Fearful/AM22AFS.jpg,Fear,Blue,Images/Blue.jpg,None,ParentConditions/YellowBlueBlue_v2.xlsx,BlueBlueYellow,Conditions/Version_2/BlueFearStop.xlsx,yes,PASS,0.9945919074829972,,,,,,,,,0,0,0,0,0,1,1,1,0,48,48,48,,,,,,,,,,,,,,,,,,,,,,,,,,,,,,,,,,,,,,,,,,,,,,,,,,,,,,,,,,,,,,,,,,,,,,,,,,,,,,,1.53,605.0286610000039,None,None,1,,606.670760500012,None,606.670760500012,None,606.670760500012,None,,,,,,,,,,,P018,fencog,2,Pre,2021_Oct_29_1136,Go No-Go Task,2021.1.4,119.94520904417038,
,"Rule: When you see blue image, do not press 'spacebar'.",Images/Happy/AM06_HC.jpg,Happy,Yellow,Images/Yellow.jpg,space,ParentConditions/YellowBlueBlue_v2.xlsx,BlueBlueYellow,Conditions/Version_2/BlueFearStop.xlsx,no,PASS,0.15639026645094434,,,,,,,,,0,0,0,0,0,1,1,1,0,49,49,49,,,,,,,,,,,,,,,,,,,,,,,,,,,,,,,,,,,,,,,,,,,,,,,,,,,,,,,,,,,,,,,,,,,,,,,,,,,,,,,1.63,607.0705522000062,None,space,1,0.2627215999964392,608.811758900003,None,608.811758900003,None,608.811758900003,None,,,,,,,,,,,P018,fencog,2,Pre,2021_Oct_29_1136,Go No-Go Task,2021.1.4,119.94520904417038,
,"Rule: When you see blue image, do not press 'spacebar'.",Images/Fearful/AM32AFS.jpg,Fear,Blue,Images/Blue.jpg,None,ParentConditions/YellowBlueBlue_v2.xlsx,BlueBlueYellow,Conditions/Version_2/BlueFearStop.xlsx,yes,PASS,0.6879520753296126,,,,,,,,,0,0,0,0,0,1,1,1,0,50,50,50,,,,,,,,,,,,,,,,,,,,,,,,,,,,,,,,,,,,,,,,,,,,,,,,,,,,,,,,,,,,,,,,,,,,,,,,,,,,,,,1.71,609.2088287000079,None,None,1,,611.0193365000014,None,611.0193365000014,None,611.0193365000014,None,,,,,,,,,,,P018,fencog,2,Pre,2021_Oct_29_1136,Go No-Go Task,2021.1.4,119.94520904417038,
,"Rule: When you see blue image, do not press 'spacebar'.",Images/Happy/WF11_HE.jpg,Happy,Yellow,Images/Yellow.jpg,space,ParentConditions/YellowBlueBlue_v2.xlsx,BlueBlueYellow,Conditions/Version_2/BlueFearStop.xlsx,no,PASS,0.0583479260669304,,,,,,,,,0,0,0,0,0,1,1,1,0,51,51,51,,,,,,,,,,,,,,,,,,,,,,,,,,,,,,,,,,,,,,,,,,,,,,,,,,,,,,,,,,,,,,,,,,,,,,,,,,,,,,,1.31,611.4255210999982,None,space,1,0.26038989999506157,612.8521170000022,None,612.8521170000022,None,612.8521170000022,None,,,,,,,,,,,P018,fencog,2,Pre,2021_Oct_29_1136,Go No-Go Task,2021.1.4,119.94520904417038,
,"Rule: When you see blue image, do not press 'spacebar'.",Images/Fearful/AF28AFS.jpg,Fear,Blue,Images/Blue.jpg,None,ParentConditions/YellowBlueBlue_v2.xlsx,BlueBlueYellow,Conditions/Version_2/BlueFearStop.xlsx,yes,PASS,0.84152709172785,,,,,,,,,0,0,0,0,0,1,1,1,0,52,52,52,,,,,,,,,,,,,,,,,,,,,,,,,,,,,,,,,,,,,,,,,,,,,,,,,,,,,,,,,,,,,,,,,,,,,,,,,,,,,,,1.51,613.2468877000065,None,None,1,,614.8598703000025,None,614.8598703000025,None,614.8598703000025,None,,,,,,,,,,,P018,fencog,2,Pre,2021_Oct_29_1136,Go No-Go Task,2021.1.4,119.94520904417038,
,"Rule: When you see blue image, do not press 'spacebar'.",Images/Happy/HF04_HE.jpg,Happy,Yellow,Images/Yellow.jpg,space,ParentConditions/YellowBlueBlue_v2.xlsx,BlueBlueYellow,Conditions/Version_2/BlueFearStop.xlsx,no,PASS,0.4119172299729392,,,,,,,,,0,0,0,0,0,1,1,1,0,53,53,53,,,,,,,,,,,,,,,,,,,,,,,,,,,,,,,,,,,,,,,,,,,,,,,,,,,,,,,,,,,,,,,,,,,,,,,,,,,,,,,1.41,615.2627290000091,None,space,1,0.21365510000032373,616.7759597000113,None,616.7759597000113,None,616.7759597000113,None,,,,,,,,,,,P018,fencog,2,Pre,2021_Oct_29_1136,Go No-Go Task,2021.1.4,119.94520904417038,
,"Rule: When you see blue image, do not press 'spacebar'.",Images/Happy/AM13HAS.jpg,Happy,Yellow,Images/Yellow.jpg,space,ParentConditions/YellowBlueBlue_v2.xlsx,BlueBlueYellow,Conditions/Version_2/BlueFearStop.xlsx,no,PASS,0.1481016084905541,,,,,,,,,0,0,0,0,0,1,1,1,0,54,54,54,,,,,,,,,,,,,,,,,,,,,,,,,,,,,,,,,,,,,,,,,,,,,,,,,,,,,,,,,,,,,,,,,,,,,,,,,,,,,,,1.7,617.1836870000116,None,space,1,0.3270897999900626,618.9919637999992,None,618.9919637999992,None,618.9919637999992,None,,,,,,,,,,,P018,fencog,2,Pre,2021_Oct_29_1136,Go No-Go Task,2021.1.4,119.94520904417038,
,"Rule: When you see blue image, do not press 'spacebar'.",Images/Happy/HF10_HE.jpg,Happy,Yellow,Images/Yellow.jpg,space,ParentConditions/YellowBlueBlue_v2.xlsx,BlueBlueYellow,Conditions/Version_2/BlueFearStop.xlsx,no,PASS,0.04388835754455167,,,,,,,,,0,0,0,0,0,1,1,1,0,55,55,55,,,,,,,,,,,,,,,,,,,,,,,,,,,,,,,,,,,,,,,,,,,,,,,,,,,,,,,,,,,,,,,,,,,,,,,,,,,,,,,1.49,619.3926331000112,None,space,1,0.3224918999912916,620.9913722000056,None,620.9913722000056,None,620.9913722000056,None,,,,,,,,,,,P018,fencog,2,Pre,2021_Oct_29_1136,Go No-Go Task,2021.1.4,119.94520904417038,
,"Rule: When you see blue image, do not press 'spacebar'.",Images/Happy/AM04_HE.jpg,Happy,Yellow,Images/Yellow.jpg,space,ParentConditions/YellowBlueBlue_v2.xlsx,BlueBlueYellow,Conditions/Version_2/BlueFearStop.xlsx,no,PASS,0.8425689490019698,,,,,,,,,0,0,0,0,0,1,1,1,0,56,56,56,,,,,,,,,,,,,,,,,,,,,,,,,,,,,,,,,,,,,,,,,,,,,,,,,,,,,,,,,,,,,,,,,,,,,,,,,,,,,,,1.87,621.3947795999993,None,space,1,0.31121329999587033,623.365707200006,None,623.365707200006,None,623.365707200006,None,,,,,,,,,,,P018,fencog,2,Pre,2021_Oct_29_1136,Go No-Go Task,2021.1.4,119.94520904417038,
