CondFileP,Instructions,FaceE,Express,ColourT,ColourF,CorrectAnsP,MasterCondFile,BlockOrder,CondFile,ColCheck,Triplicate_check,SORT_BY_SMALLEST,EPracticeOuterLoop.thisRepN,EPracticeOuterLoop.thisTrialN,EPracticeOuterLoop.thisN,EPracticeOuterLoop.thisIndex,EPracticeInnerLoop.thisRepN,EPracticeInnerLoop.thisTrialN,EPracticeInnerLoop.thisN,EPracticeInnerLoop.thisIndex,MasterLoop.thisRepN,MasterLoop.thisTrialN,MasterLoop.thisN,MasterLoop.thisIndex,OuterLoop.thisRepN,OuterLoop.thisTrialN,OuterLoop.thisN,OuterLoop.thisIndex,InnerLoop.thisRepN,InnerLoop.thisTrialN,InnerLoop.thisN,InnerLoop.thisIndex,text_13.started,text_13.stopped,key_resp_10.keys,key_resp_10.rt,key_resp_10.started,key_resp_10.stopped,text4.started,text4.stopped,EmotionTaskInstructions1.keys,EmotionTaskInstructions1.rt,EmotionTaskInstructions1.started,EmotionTaskInstructions1.stopped,text_4.started,text_4.stopped,key_resp_5.keys,key_resp_5.rt,key_resp_5.started,key_resp_5.stopped,Text_14.started,Text_14.stopped,key_resp_9.keys,key_resp_9.rt,key_resp_9.started,key_resp_9.stopped,text_5.started,text_5.stopped,text_6.started,text_6.stopped,key_resp_7.keys,key_resp_7.rt,key_resp_7.started,key_resp_7.stopped,text_10.started,text_10.stopped,text_11.started,text_11.stopped,text_12.started,text_12.stopped,ISIjitterPractice,EPracticeISIMarker.started,EPracticeISIMarker.stopped,Pract.keys,Pract.corr,Pract.started,Pract.stopped,PracticeFace.started,PracticeFace.stopped,ColourPractice.started,ColourPractice.stopped,text_7.started,text_7.stopped,Pract.rt,EndOfPractice.started,EndOfPractice.stopped,key_resp_8.keys,key_resp_8.rt,key_resp_8.started,key_resp_8.stopped,text_8.started,text_8.stopped,key_resp_6.keys,key_resp_6.rt,key_resp_6.started,key_resp_6.stopped,text_2.started,text_2.stopped,text_3.started,text_3.stopped,key_resp_3.keys,key_resp_3.rt,key_resp_3.started,key_resp_3.stopped,TaskBlock.started,TaskBlock.stopped,BlockNo1.started,BlockNo1.stopped,OfBlock.started,OfBlock.stopped,ISIjitter,ISImarker.started,ISImarker.stopped,key_resp.keys,key_resp.corr,key_resp.rt,key_resp.started,key_resp.stopped,FaceSet.started,FaceSet.stopped,Colour.started,Colour.stopped,EndBlockText.started,EndBlockText.stopped,key_resp_4.keys,key_resp_4.rt,key_resp_4.started,key_resp_4.stopped,BreakText2.started,BreakText2.stopped,PressToContinue.started,PressToContinue.stopped,participant,Study Name,Task Version (required to run),PRE/POST,date,expName,psychopyVersion,frameRate,
,,,,,,,,,,,,,,,,,,,,,,,,,,,,,,,,,32.90749699999287,None,space,96.09030149999307,33.897681899994495,None,,,,,,,,,,,,,,,,,,,,,,,,,,,,,,,,,,,,,,,,,,,,,,,,,,,,,,,,,,,,,,,,,,,,,,,,,,,,,,,,,,,,,,,,,,,,,,,P020,fencog,1,Pre,2021_Nov_09_1057,Go No-Go Task,2021.1.4,120.9594991215722,
,,,,,,,,,,,,,,,,,,,,,,,,,,,,,,,,,,,,,,,131.8110988999979,None,space,19.23310689999198,131.8110988999979,None,,,,,,,,,,,,,,,,,,,,,,,,,,,,,,,,,,,,,,,,,,,,,,,,,,,,,,,,,,,,,,,,,,,,,,,,,,,,,,,,,,,,,,,,,P020,fencog,1,Pre,2021_Nov_09_1057,Go No-Go Task,2021.1.4,120.9594991215722,
,,,,,,,,,,,,,,,,,,,,,,,,,,,,,,,,,,,,,,,,,,,,,151.14078119999613,None,space,12.831279700010782,151.14078119999613,None,,,,,,,,,,,,,,,,,,,,,,,,,,,,,,,,,,,,,,,,,,,,,,,,,,,,,,,,,,,,,,,,,,,,,,,,,,,,,,,,,,,P020,fencog,1,Pre,2021_Nov_09_1057,Go No-Go Task,2021.1.4,120.9594991215722,
,,,,,,,,,,,,,,,,,,,,,,,,,,,,,,,,,,,,,,,,,,,,,,,,,,,163.98802229999274,None,space,11.679979299995466,163.98802229999274,None,,,,,,,,,,,,,,,,,,,,,,,,,,,,,,,,,,,,,,,,,,,,,,,,,,,,,,,,,,,,,,,,,,,,,,,,,,,,,P020,fencog,1,Pre,2021_Nov_09_1057,Go No-Go Task,2021.1.4,120.9594991215722,
EPracticeConditions/BlueEyes.csv,"Rule: When you see a blue image, do not press 'spacebar'.",Images/Fearful/AF01_FO.jpg,Fear,Blue,Images/Blue.jpg,None,,,,,,,0,0,0,0,0,0,0,1,,,,,,,,,,,,,,,,,,,,,,,,,,,,,,,,,,,,,175.76895939999667,None,178.7552871999942,None,space,9.85674730000028,178.7552871999942,None,175.76895939999667,None,175.76895939999667,None,175.76895939999667,None,1.9,188.74385689999326,None,None,1,190.813335800005,None,190.813335800005,None,190.813335800005,None,192.3105188000045,None,,,,,,,,,,,,,,,,,,,,,,,,,,,,,,,,,,,,,,,,,,,,,,,,,,P020,fencog,1,Pre,2021_Nov_09_1057,Go No-Go Task,2021.1.4,120.9594991215722,
EPracticeConditions/BlueEyes.csv,"Rule: When you see a blue image, do not press 'spacebar'.",Images/Happy/BM08_HO.jpg,Happy,Yellow,Images/Yellow.jpg,space,,,,,,,0,0,0,0,0,1,1,3,,,,,,,,,,,,,,,,,,,,,,,,,,,,,,,,,,,,,,,,,,,,,,,,,,,1.8,193.69117619999452,None,space,1,195.60909100000572,None,195.60909100000572,None,195.60909100000572,None,196.4939000000013,None,0.30674139999609906,,,,,,,,,,,,,,,,,,,,,,,,,,,,,,,,,,,,,,,,,,,,,,,,,P020,fencog,1,Pre,2021_Nov_09_1057,Go No-Go Task,2021.1.4,120.9594991215722,
EPracticeConditions/BlueEyes.csv,"Rule: When you see a blue image, do not press 'spacebar'.",Images/Happy/BM02_HO.jpg,Happy,Yellow,Images/Yellow.jpg,space,,,,,,,0,0,0,0,0,2,2,2,,,,,,,,,,,,,,,,,,,,,,,,,,,,,,,,,,,,,,,,,,,,,,,,,,,1.7,198.50111260000267,None,space,1,200.31613219999417,None,200.31613219999417,None,200.31613219999417,None,201.20329639999545,None,0.3280841999949189,,,,,,,,,,,,,,,,,,,,,,,,,,,,,,,,,,,,,,,,,,,,,,,,,P020,fencog,1,Pre,2021_Nov_09_1057,Go No-Go Task,2021.1.4,120.9594991215722,
EPracticeConditions/BlueEyes.csv,"Rule: When you see a blue image, do not press 'spacebar'.",Images/Fearful/HM09_FC.jpg,Fear,Blue,Images/Blue.jpg,None,,,,,,,0,0,0,0,0,3,3,0,,,,,,,,,,,,,,,,,,,,,,,,,,,,,,,,,,,,,,,,,,,,,,,,,,,1.3,203.21245360000466,None,None,1,204.63975679999567,None,204.63975679999567,None,204.63975679999567,None,205.5057836999913,None,,,,,,,,,,,,,,,,,,,,,,,,,,,,,,,,,,,,,,,,,,,,,,,,,,P020,fencog,1,Pre,2021_Nov_09_1057,Go No-Go Task,2021.1.4,120.9594991215722,
EPracticeConditions/BlueEyes.csv,"Rule: When you see a blue image, do not press 'spacebar'.",Images/Happy/HF10_HE.jpg,Happy,Yellow,Images/Yellow.jpg,space,,,,,,,0,0,0,0,0,4,4,7,,,,,,,,,,,,,,,,,,,,,,,,,,,,,,,,,,,,,,,,,,,,,,,,,,,1.6,207.51294839999173,None,space,1,209.22180669999216,None,209.22180669999216,None,209.22180669999216,None,210.1173773000046,None,0.30248879999271594,,,,,,,,,,,,,,,,,,,,,,,,,,,,,,,,,,,,,,,,,,,,,,,,,P020,fencog,1,Pre,2021_Nov_09_1057,Go No-Go Task,2021.1.4,120.9594991215722,
EPracticeConditions/BlueEyes.csv,"Rule: When you see a blue image, do not press 'spacebar'.",Images/Happy/HF09_HE.jpg,Happy,Yellow,Images/Yellow.jpg,space,,,,,,,0,0,0,0,0,5,5,6,,,,,,,,,,,,,,,,,,,,,,,,,,,,,,,,,,,,,,,,,,,,,,,,,,,1.4,212.12241820000054,None,space,1,213.6370855999994,None,213.6370855999994,None,213.6370855999994,None,214.53091449999192,None,0.2710163999872748,,,,,,,,,,,,,,,,,,,,,,,,,,,,,,,,,,,,,,,,,,,,,,,,,P020,fencog,1,Pre,2021_Nov_09_1057,Go No-Go Task,2021.1.4,120.9594991215722,
EPracticeConditions/BlueEyes.csv,"Rule: When you see a blue image, do not press 'spacebar'.",Images/Happy/HF05_HO.jpg,Happy,Yellow,Images/Yellow.jpg,space,,,,,,,0,0,0,0,0,6,6,5,,,,,,,,,,,,,,,,,,,,,,,,,,,,,,,,,,,,,,,,,,,,,,,,,,,1.5,216.53660490000038,None,space,1,218.15235519999987,None,218.15235519999987,None,218.15235519999987,None,219.04263169999467,None,0.3321167999965837,,,,,,,,,,,,,,,,,,,,,,,,,,,,,,,,,,,,,,,,,,,,,,,,,P020,fencog,1,Pre,2021_Nov_09_1057,Go No-Go Task,2021.1.4,120.9594991215722,
EPracticeConditions/BlueEyes.csv,"Rule: When you see a blue image, do not press 'spacebar'.",Images/Happy/HF04_HE.jpg,Happy,Yellow,Images/Yellow.jpg,space,,,,,,,0,0,0,0,0,7,7,4,,,,,,,,,,,,,,,,,,,,,,,,,,,,,,,,,,,,,,,,,,,,,,,,,,,1.2,221.0474833000044,None,space,1,222.3596031999914,None,222.3596031999914,None,222.3596031999914,None,223.2649420999951,None,0.35684749999199994,,,,,,,,,,,,,,,,,,,,,,,,,,,,,,,,,,,,,,,,,,,,,,,,,P020,fencog,1,Pre,2021_Nov_09_1057,Go No-Go Task,2021.1.4,120.9594991215722,
EPracticeConditions/BlueEyes.csv,"Rule: When you see a blue image, do not press 'spacebar'.",,,,,,,,,,,,0,0,0,0,,,,,,,,,,,,,,,,,,,,,,,,,,,,,,,,,,,,,,,,,,,,,,,,,,,,,,,,,,,,,,,,,,,,,,,,,,,,,,,,,,,,,,,,,,,,,,,,,,,,,,,,,,,,,,,,,,,,,P020,fencog,1,Pre,2021_Nov_09_1057,Go No-Go Task,2021.1.4,120.9594991215722,
EPracticeConditions/YellowEyes.csv,"Rule: When you see a yellow image, do not press 'spacebar'.",Images/Fearful/AM19AFS.jpg,Fear,Blue,Images/Blue.jpg,space,,,,,,,0,1,1,1,0,0,0,4,,,,,,,,,,,,,,,,,,,,,,,,,,,,,,,,,,,,,225.2900735000003,None,228.2822068999958,None,space,3.481866000001901,228.2822068999958,None,225.2900735000003,None,225.2900735000003,None,225.2900735000003,None,1.5,231.78956010000547,None,None,0,233.39805259999412,None,233.39805259999412,None,233.39805259999412,None,234.32159089999914,None,,,,,,,,,,,,,,,,,,,,,,,,,,,,,,,,,,,,,,,,,,,,,,,,,,P020,fencog,1,Pre,2021_Nov_09_1057,Go No-Go Task,2021.1.4,120.9594991215722,
EPracticeConditions/YellowEyes.csv,"Rule: When you see a yellow image, do not press 'spacebar'.",Images/Happy/BF05_HO.jpg,Happy,Yellow,Images/Yellow.jpg,None,,,,,,,0,1,1,1,0,1,1,1,,,,,,,,,,,,,,,,,,,,,,,,,,,,,,,,,,,,,,,,,,,,,,,,,,,1.4,236.296697400001,None,space,0,237.81336499999452,None,237.81336499999452,None,237.81336499999452,None,238.7088997999963,None,0.35875769999984186,,,,,,,,,,,,,,,,,,,,,,,,,,,,,,,,,,,,,,,,,,,,,,,,,P020,fencog,1,Pre,2021_Nov_09_1057,Go No-Go Task,2021.1.4,120.9594991215722,
EPracticeConditions/YellowEyes.csv,"Rule: When you see a yellow image, do not press 'spacebar'.",Images/Fearful/AM23AFS.jpg,Fear,Blue,Images/Blue.jpg,space,,,,,,,0,1,1,1,0,2,2,6,,,,,,,,,,,,,,,,,,,,,,,,,,,,,,,,,,,,,,,,,,,,,,,,,,,1.2,240.70293830000446,None,space,1,242.01206320000347,None,242.01206320000347,None,242.01206320000347,None,242.91274450000492,None,0.32797119999304414,,,,,,,,,,,,,,,,,,,,,,,,,,,,,,,,,,,,,,,,,,,,,,,,,P020,fencog,1,Pre,2021_Nov_09_1057,Go No-Go Task,2021.1.4,120.9594991215722,
EPracticeConditions/YellowEyes.csv,"Rule: When you see a yellow image, do not press 'spacebar'.",Images/Fearful/AM22AFS.jpg,Fear,Blue,Images/Blue.jpg,space,,,,,,,0,1,1,1,0,3,3,5,,,,,,,,,,,,,,,,,,,,,,,,,,,,,,,,,,,,,,,,,,,,,,,,,,,1.9,244.91411450000305,None,space,1,246.92729720000352,None,246.92729720000352,None,246.92729720000352,None,247.83197420000215,None,0.3571217999997316,,,,,,,,,,,,,,,,,,,,,,,,,,,,,,,,,,,,,,,,,,,,,,,,,P020,fencog,1,Pre,2021_Nov_09_1057,Go No-Go Task,2021.1.4,120.9594991215722,
EPracticeConditions/YellowEyes.csv,"Rule: When you see a yellow image, do not press 'spacebar'.",Images/Fearful/AM17AFS.jpg,Fear,Blue,Images/Blue.jpg,space,,,,,,,0,1,1,1,0,4,4,3,,,,,,,,,,,,,,,,,,,,,,,,,,,,,,,,,,,,,,,,,,,,,,,,,,,1.7,249.83069350000005,None,space,1,251.64268839999568,None,251.64268839999568,None,251.64268839999568,None,252.5396633000055,None,0.3050939000095241,,,,,,,,,,,,,,,,,,,,,,,,,,,,,,,,,,,,,,,,,,,,,,,,,P020,fencog,1,Pre,2021_Nov_09_1057,Go No-Go Task,2021.1.4,120.9594991215722,
EPracticeConditions/YellowEyes.csv,"Rule: When you see a yellow image, do not press 'spacebar'.",Images/Fearful/AM16AFS.jpg,Fear,Blue,Images/Blue.jpg,space,,,,,,,0,1,1,1,0,5,5,2,,,,,,,,,,,,,,,,,,,,,,,,,,,,,,,,,,,,,,,,,,,,,,,,,,,1.3,254.54270009999163,None,space,1,255.96613659999275,None,255.96613659999275,None,255.96613659999275,None,256.8625890999974,None,0.269782799994573,,,,,,,,,,,,,,,,,,,,,,,,,,,,,,,,,,,,,,,,,,,,,,,,,P020,fencog,1,Pre,2021_Nov_09_1057,Go No-Go Task,2021.1.4,120.9594991215722,
EPracticeConditions/YellowEyes.csv,"Rule: When you see a yellow image, do not press 'spacebar'.",Images/Happy/AM32HAS.jpg,Happy,Yellow,Images/Yellow.jpg,None,,,,,,,0,1,1,1,0,6,6,0,,,,,,,,,,,,,,,,,,,,,,,,,,,,,,,,,,,,,,,,,,,,,,,,,,,1.8,258.8578305999981,None,None,1,260.7730556000024,None,260.7730556000024,None,260.7730556000024,None,261.6782349999994,None,,,,,,,,,,,,,,,,,,,,,,,,,,,,,,,,,,,,,,,,,,,,,,,,,,P020,fencog,1,Pre,2021_Nov_09_1057,Go No-Go Task,2021.1.4,120.9594991215722,
EPracticeConditions/YellowEyes.csv,"Rule: When you see a yellow image, do not press 'spacebar'.",Images/Fearful/AM24AFS.jpg,Fear,Blue,Images/Blue.jpg,space,,,,,,,0,1,1,1,0,7,7,7,,,,,,,,,,,,,,,,,,,,,,,,,,,,,,,,,,,,,,,,,,,,,,,,,,,1.6,263.6734929999948,None,space,1,265.38851219999196,None,265.38851219999196,None,265.38851219999196,None,266.2847024999937,None,0.29563429999689106,,,,,,,,,,,,,,,,,,,,,,,,,,,,,,,,,,,,,,,,,,,,,,,,,P020,fencog,1,Pre,2021_Nov_09_1057,Go No-Go Task,2021.1.4,120.9594991215722,
EPracticeConditions/YellowEyes.csv,"Rule: When you see a yellow image, do not press 'spacebar'.",,,,,,,,,,,,0,1,1,1,,,,,,,,,,,,,,,,,,,,,,,,,,,,,,,,,,,,,,,,,,,,,,,,,,,,,,,,,,,,,,,,,,,,,,,,,,,,,,,,,,,,,,,,,,,,,,,,,,,,,,,,,,,,,,,,,,,,,P020,fencog,1,Pre,2021_Nov_09_1057,Go No-Go Task,2021.1.4,120.9594991215722,
EPracticeConditions/BlueScram.csv,"Rule: When you see a blue image, do not press 'spacebar'.",Images/Scram1/BF18_NC.jpg,Scramble,Blue,Images/Blue.jpg,None,,,,,,,0,2,2,2,0,0,0,1,,,,,,,,,,,,,,,,,,,,,,,,,,,,,,,,,,,,,268.30616399999417,None,271.29451079999853,None,space,9.021505400000024,271.29451079999853,None,268.30616399999417,None,268.30616399999417,None,268.30616399999417,None,1.8,280.339395899995,None,None,1,282.2502819999936,None,282.2502819999936,None,282.2502819999936,None,283.1468169,None,,,,,,,,,,,,,,,,,,,,,,,,,,,,,,,,,,,,,,,,,,,,,,,,,,P020,fencog,1,Pre,2021_Nov_09_1057,Go No-Go Task,2021.1.4,120.9594991215722,
EPracticeConditions/BlueScram.csv,"Rule: When you see a blue image, do not press 'spacebar'.",Images/Scram2/AF25NES.jpg,Scramble,Yellow,Images/Yellow.jpg,space,,,,,,,0,2,2,2,0,1,1,7,,,,,,,,,,,,,,,,,,,,,,,,,,,,,,,,,,,,,,,,,,,,,,,,,,,1.2,285.15055510000093,None,space,1,286.4656945000024,None,286.4656945000024,None,286.4656945000024,None,287.36442369999713,None,0.21839880000334233,,,,,,,,,,,,,,,,,,,,,,,,,,,,,,,,,,,,,,,,,,,,,,,,,P020,fencog,1,Pre,2021_Nov_09_1057,Go No-Go Task,2021.1.4,120.9594991215722,
EPracticeConditions/BlueScram.csv,"Rule: When you see a blue image, do not press 'spacebar'.",Images/Scram2/AF10_NC.jpg,Scramble,Yellow,Images/Yellow.jpg,space,,,,,,,0,2,2,2,0,2,2,2,,,,,,,,,,,,,,,,,,,,,,,,,,,,,,,,,,,,,,,,,,,,,,,,,,,1.9,289.3680080000049,None,space,1,291.38920900000085,None,291.38920900000085,None,291.38920900000085,None,292.2772990999947,None,0.2867076999973506,,,,,,,,,,,,,,,,,,,,,,,,,,,,,,,,,,,,,,,,,,,,,,,,,P020,fencog,1,Pre,2021_Nov_09_1057,Go No-Go Task,2021.1.4,120.9594991215722,
EPracticeConditions/BlueScram.csv,"Rule: When you see a blue image, do not press 'spacebar'.",Images/Scram1/AM13NES.jpg,Scramble,Yellow,Images/Yellow.jpg,space,,,,,,,0,2,2,2,0,3,3,5,,,,,,,,,,,,,,,,,,,,,,,,,,,,,,,,,,,,,,,,,,,,,,,,,,,1.6,294.2798597999936,None,space,1,295.9960404000012,None,295.9960404000012,None,295.9960404000012,None,296.89232210000046,None,0.3519856000057189,,,,,,,,,,,,,,,,,,,,,,,,,,,,,,,,,,,,,,,,,,,,,,,,,P020,fencog,1,Pre,2021_Nov_09_1057,Go No-Go Task,2021.1.4,120.9594991215722,
EPracticeConditions/BlueScram.csv,"Rule: When you see a blue image, do not press 'spacebar'.",Images/Scram1/AM04_NC.jpg,Scramble,Yellow,Images/Yellow.jpg,space,,,,,,,0,2,2,2,0,4,4,3,,,,,,,,,,,,,,,,,,,,,,,,,,,,,,,,,,,,,,,,,,,,,,,,,,,1.7,298.899256100005,None,space,1,300.7198037999915,None,300.7198037999915,None,300.7198037999915,None,301.6081042000005,None,0.300212800008012,,,,,,,,,,,,,,,,,,,,,,,,,,,,,,,,,,,,,,,,,,,,,,,,,P020,fencog,1,Pre,2021_Nov_09_1057,Go No-Go Task,2021.1.4,120.9594991215722,
EPracticeConditions/BlueScram.csv,"Rule: When you see a blue image, do not press 'spacebar'.",Images/Scram1/BM08_NC.jpg,Scramble,Blue,Images/Blue.jpg,None,,,,,,,0,2,2,2,0,5,5,0,,,,,,,,,,,,,,,,,,,,,,,,,,,,,,,,,,,,,,,,,,,,,,,,,,,1.3,303.61363409999467,None,space,0,305.0267923999927,None,305.0267923999927,None,305.0267923999927,None,305.9319944000017,None,0.2651091000007,,,,,,,,,,,,,,,,,,,,,,,,,,,,,,,,,,,,,,,,,,,,,,,,,P020,fencog,1,Pre,2021_Nov_09_1057,Go No-Go Task,2021.1.4,120.9594991215722,
EPracticeConditions/BlueScram.csv,"Rule: When you see a blue image, do not press 'spacebar'.",Images/Scram1/AM03NES.jpg,Scramble,Yellow,Images/Yellow.jpg,space,,,,,,,0,2,2,2,0,6,6,4,,,,,,,,,,,,,,,,,,,,,,,,,,,,,,,,,,,,,,,,,,,,,,,,,,,1.4,307.9316477999964,None,space,1,309.45041380000475,None,309.45041380000475,None,309.45041380000475,None,310.34643229999347,None,0.273662499996135,,,,,,,,,,,,,,,,,,,,,,,,,,,,,,,,,,,,,,,,,,,,,,,,,P020,fencog,1,Pre,2021_Nov_09_1057,Go No-Go Task,2021.1.4,120.9594991215722,
EPracticeConditions/BlueScram.csv,"Rule: When you see a blue image, do not press 'spacebar'.",Images/Scram2/AM03_NC.jpg,Scramble,Yellow,Images/Yellow.jpg,space,,,,,,,0,2,2,2,0,7,7,6,,,,,,,,,,,,,,,,,,,,,,,,,,,,,,,,,,,,,,,,,,,,,,,,,,,1.5,312.34387389999756,None,space,1,313.9659019999963,None,313.9659019999963,None,313.9659019999963,None,314.8537401999929,None,0.29494310000154655,,,,,,,,,,,,,,,,,,,,,,,,,,,,,,,,,,,,,,,,,,,,,,,,,P020,fencog,1,Pre,2021_Nov_09_1057,Go No-Go Task,2021.1.4,120.9594991215722,
EPracticeConditions/BlueScram.csv,"Rule: When you see a blue image, do not press 'spacebar'.",,,,,,,,,,,,0,2,2,2,,,,,,,,,,,,,,,,,,,,,,,,,,,,,,,,,,,,,,,,,,,,,,,,,,,,,,,,,,,,,,,,,,,,,,,,,,,,,,,,,,,,,,,,,,,,,,,,,,,,,,,,,,,,,,,,,,,,,P020,fencog,1,Pre,2021_Nov_09_1057,Go No-Go Task,2021.1.4,120.9594991215722,
EPracticeConditions/YellowScram.csv,"Rule: When you see a yellow image, do not press 'spacebar'.",Images/Scram1/AF07NES.jpg,Scramble,Blue,Images/Blue.jpg,space,,,,,,,0,3,3,3,0,0,0,3,,,,,,,,,,,,,,,,,,,,,,,,,,,,,,,,,,,,,316.87780059999204,None,319.863268400004,None,space,1.4525619000050938,319.863268400004,None,316.87780059999204,None,316.87780059999204,None,316.87780059999204,None,1.2,321.33779229999345,None,None,0,322.6466311999975,None,322.6466311999975,None,322.6466311999975,None,323.5460883999913,None,,,,,,,,,,,,,,,,,,,,,,,,,,,,,,,,,,,,,,,,,,,,,,,,,,P020,fencog,1,Pre,2021_Nov_09_1057,Go No-Go Task,2021.1.4,120.9594991215722,
EPracticeConditions/YellowScram.csv,"Rule: When you see a yellow image, do not press 'spacebar'.",Images/Scram1/BM01_NC.jpg,Scramble,Blue,Images/Blue.jpg,space,,,,,,,0,3,3,3,0,1,1,5,,,,,,,,,,,,,,,,,,,,,,,,,,,,,,,,,,,,,,,,,,,,,,,,,,,1.9,325.5478337999957,None,space,1,327.561818400005,None,327.561818400005,None,327.561818400005,None,328.4572652999923,None,0.2980027000012342,,,,,,,,,,,,,,,,,,,,,,,,,,,,,,,,,,,,,,,,,,,,,,,,,P020,fencog,1,Pre,2021_Nov_09_1057,Go No-Go Task,2021.1.4,120.9594991215722,
EPracticeConditions/YellowScram.csv,"Rule: When you see a yellow image, do not press 'spacebar'.",Images/Scram1/AF10_NC.jpg,Scramble,Blue,Images/Blue.jpg,space,,,,,,,0,3,3,3,0,2,2,6,,,,,,,,,,,,,,,,,,,,,,,,,,,,,,,,,,,,,,,,,,,,,,,,,,,1.3,330.4640781000053,None,space,1,331.8771343999979,None,331.8771343999979,None,331.8771343999979,None,332.774459799999,None,0.27101159999438096,,,,,,,,,,,,,,,,,,,,,,,,,,,,,,,,,,,,,,,,,,,,,,,,,P020,fencog,1,Pre,2021_Nov_09_1057,Go No-Go Task,2021.1.4,120.9594991215722,
EPracticeConditions/YellowScram.csv,"Rule: When you see a yellow image, do not press 'spacebar'.",Images/Scram1/AF30NES.JPG,Scramble,Blue,Images/Blue.jpg,space,,,,,,,0,3,3,3,0,3,3,4,,,,,,,,,,,,,,,,,,,,,,,,,,,,,,,,,,,,,,,,,,,,,,,,,,,1.4,334.7776956000016,None,space,1,336.3008206999948,None,336.3008206999948,None,336.3008206999948,None,337.188785499995,None,0.28723549999995157,,,,,,,,,,,,,,,,,,,,,,,,,,,,,,,,,,,,,,,,,,,,,,,,,P020,fencog,1,Pre,2021_Nov_09_1057,Go No-Go Task,2021.1.4,120.9594991215722,
EPracticeConditions/YellowScram.csv,"Rule: When you see a yellow image, do not press 'spacebar'.",Images/Scram1/HF04_NC.jpg,Scramble,Blue,Images/Blue.jpg,space,,,,,,,0,3,3,3,0,4,4,2,,,,,,,,,,,,,,,,,,,,,,,,,,,,,,,,,,,,,,,,,,,,,,,,,,,1.6,339.19178269999975,None,space,1,340.90782839999883,None,340.90782839999883,None,340.90782839999883,None,341.7963940000045,None,0.34423440000682604,,,,,,,,,,,,,,,,,,,,,,,,,,,,,,,,,,,,,,,,,,,,,,,,,P020,fencog,1,Pre,2021_Nov_09_1057,Go No-Go Task,2021.1.4,120.9594991215722,
EPracticeConditions/YellowScram.csv,"Rule: When you see a yellow image, do not press 'spacebar'.",Images/Scram1/AF24NES.jpg,Scramble,Blue,Images/Blue.jpg,space,,,,,,,0,3,3,3,0,5,5,7,,,,,,,,,,,,,,,,,,,,,,,,,,,,,,,,,,,,,,,,,,,,,,,,,,,1.8,343.80629520000366,None,space,1,345.7155786999938,None,345.7155786999938,None,345.7155786999938,None,346.61034849999123,None,0.3125066000065999,,,,,,,,,,,,,,,,,,,,,,,,,,,,,,,,,,,,,,,,,,,,,,,,,P020,fencog,1,Pre,2021_Nov_09_1057,Go No-Go Task,2021.1.4,120.9594991215722,
EPracticeConditions/YellowScram.csv,"Rule: When you see a yellow image, do not press 'spacebar'.",Images/Scram2/HM06_NC.jpg,Scramble,Yellow,Images/Yellow.jpg,None,,,,,,,0,3,3,3,0,6,6,0,,,,,,,,,,,,,,,,,,,,,,,,,,,,,,,,,,,,,,,,,,,,,,,,,,,1.7,348.61583840000094,None,None,1,350.4300474000047,None,350.4300474000047,None,350.4300474000047,None,351.32654219999677,None,,,,,,,,,,,,,,,,,,,,,,,,,,,,,,,,,,,,,,,,,,,,,,,,,,P020,fencog,1,Pre,2021_Nov_09_1057,Go No-Go Task,2021.1.4,120.9594991215722,
EPracticeConditions/YellowScram.csv,"Rule: When you see a yellow image, do not press 'spacebar'.",Images/Scram2/AM03NES.jpg,Scramble,Yellow,Images/Yellow.jpg,None,,,,,,,0,3,3,3,0,7,7,1,,,,,,,,,,,,,,,,,,,,,,,,,,,,,,,,,,,,,,,,,,,,,,,,,,,1.5,353.3314597999997,None,None,1,354.9453487999999,None,354.9453487999999,None,354.9453487999999,None,355.83309149999695,None,,,,,,,,,,,,,,,,,,,,,,,,,,,,,,,,,,,,,,,,,,,,,,,,,,P020,fencog,1,Pre,2021_Nov_09_1057,Go No-Go Task,2021.1.4,120.9594991215722,
EPracticeConditions/YellowScram.csv,"Rule: When you see a yellow image, do not press 'spacebar'.",,,,,,,,,,,,0,3,3,3,,,,,,,,,,,,,,,,,,,,,,,,,,,,,,,,,,,,,,,,,,,,,,,,,,,,,,,,,,,,,,,,,,,,,,,,,,,,,,,,,,,,,,,,,,,,,,,,,,,,,,,,,,,,,,,,,,,,,P020,fencog,1,Pre,2021_Nov_09_1057,Go No-Go Task,2021.1.4,120.9594991215722,
,,,,,,,,,,,,,,,,,,,,,,,,,,,,,,,,,,,,,,,,,,,,,,,,,,,,,,,,,,,,,,,,,,,,,,,,,,,,,,,,,,,,,359.43658320000395,None,space,11.581829799994011,359.9100461999915,None,,,,,,,,,,,,,,,,,,,,,,,,,,,,,,,,,,,,,,,,,,,P020,fencog,1,Pre,2021_Nov_09_1057,Go No-Go Task,2021.1.4,120.9594991215722,
,,,,,,,,,,,,,,,,,,,,,,,,,,,,,,,,,,,,,,,,,,,,,,,,,,,,,,,,,,,,,,,,,,,,,,,,,,,,,,,,,,,,,,,,,,,371.5086792999937,None,space,5.710948699997971,371.5086792999937,None,,,,,,,,,,,,,,,,,,,,,,,,,,,,,,,,,,,,,P020,fencog,1,Pre,2021_Nov_09_1057,Go No-Go Task,2021.1.4,120.9594991215722,
,"Rule: When you see a yellow image, do not press 'spacebar'.",Images/Fearful/BM02_FC.jpg,Fear,Blue,Images/Blue.jpg,space,ParentConditions/YellowBlueBlue_v1.xlsx,BlueBlueYellow,Conditions/Version_1/YellowHappyStop.xlsx,no,PASS,0.44148177898618846,,,,,,,,,0,0,0,0,0,0,0,0,0,0,0,0,,,,,,,,,,,,,,,,,,,,,,,,,,,,,,,,,,,,,,,,,,,,,,,,,,,,,,,,,,,,,,,,,377.30416349999723,None,380.2954754999955,None,space,2.7483324999921024,380.2954754999955,None,377.30416349999723,None,377.30416349999723,None,377.30416349999723,None,1.58,383.1014320999966,None,space,1,0.3214108000101987,384.78623009999865,None,384.78623009999865,None,384.78623009999865,None,,,,,,,,,,,P020,fencog,1,Pre,2021_Nov_09_1057,Go No-Go Task,2021.1.4,120.9594991215722,
,"Rule: When you see a yellow image, do not press 'spacebar'.",Images/Fearful/HF05_FC.jpg,Fear,Blue,Images/Blue.jpg,space,ParentConditions/YellowBlueBlue_v1.xlsx,BlueBlueYellow,Conditions/Version_1/YellowHappyStop.xlsx,no,PASS,0.49496512693563743,,,,,,,,,0,0,0,0,0,0,0,0,0,1,1,1,,,,,,,,,,,,,,,,,,,,,,,,,,,,,,,,,,,,,,,,,,,,,,,,,,,,,,,,,,,,,,,,,,,,,,,,,,,,,,,1.84,385.1859065000026,None,space,1,0.3166538999939803,387.12714640000195,None,387.12714640000195,None,387.12714640000195,None,,,,,,,,,,,P020,fencog,1,Pre,2021_Nov_09_1057,Go No-Go Task,2021.1.4,120.9594991215722,
,"Rule: When you see a yellow image, do not press 'spacebar'.",Images/Happy/AF32HAS.jpg,Happy,Yellow,Images/Yellow.jpg,None,ParentConditions/YellowBlueBlue_v1.xlsx,BlueBlueYellow,Conditions/Version_1/YellowHappyStop.xlsx,yes,PASS,0.3690153910902233,,,,,,,,,0,0,0,0,0,0,0,0,0,2,2,2,,,,,,,,,,,,,,,,,,,,,,,,,,,,,,,,,,,,,,,,,,,,,,,,,,,,,,,,,,,,,,,,,,,,,,,,,,,,,,,1.91,387.52620779999415,None,None,1,,389.54308600000513,None,389.54308600000513,None,389.54308600000513,None,,,,,,,,,,,P020,fencog,1,Pre,2021_Nov_09_1057,Go No-Go Task,2021.1.4,120.9594991215722,
,"Rule: When you see a yellow image, do not press 'spacebar'.",Images/Happy/AM32HAS.jpg,Happy,Yellow,Images/Yellow.jpg,None,ParentConditions/YellowBlueBlue_v1.xlsx,BlueBlueYellow,Conditions/Version_1/YellowHappyStop.xlsx,yes,PASS,0.09240134349582851,,,,,,,,,0,0,0,0,0,0,0,0,0,3,3,3,,,,,,,,,,,,,,,,,,,,,,,,,,,,,,,,,,,,,,,,,,,,,,,,,,,,,,,,,,,,,,,,,,,,,,,,,,,,,,,1.85,389.9428975000046,None,None,1,,391.90092109999387,None,391.90092109999387,None,391.90092109999387,None,,,,,,,,,,,P020,fencog,1,Pre,2021_Nov_09_1057,Go No-Go Task,2021.1.4,120.9594991215722,
,"Rule: When you see a yellow image, do not press 'spacebar'.",Images/Fearful/AF07FS.jpg,Fear,Blue,Images/Blue.jpg,space,ParentConditions/YellowBlueBlue_v1.xlsx,BlueBlueYellow,Conditions/Version_1/YellowHappyStop.xlsx,no,PASS,0.4013300010309635,,,,,,,,,0,0,0,0,0,0,0,0,0,4,4,4,,,,,,,,,,,,,,,,,,,,,,,,,,,,,,,,,,,,,,,,,,,,,,,,,,,,,,,,,,,,,,,,,,,,,,,,,,,,,,,1.82,392.29977979999967,None,space,1,0.13809170000604354,394.2337364999985,None,394.2337364999985,None,394.2337364999985,None,,,,,,,,,,,P020,fencog,1,Pre,2021_Nov_09_1057,Go No-Go Task,2021.1.4,120.9594991215722,
,"Rule: When you see a yellow image, do not press 'spacebar'.",Images/Fearful/AM30AFS.jpg,Fear,Blue,Images/Blue.jpg,space,ParentConditions/YellowBlueBlue_v1.xlsx,BlueBlueYellow,Conditions/Version_1/YellowHappyStop.xlsx,no,PASS,0.5026512951867452,,,,,,,,,0,0,0,0,0,0,0,0,0,5,5,5,,,,,,,,,,,,,,,,,,,,,,,,,,,,,,,,,,,,,,,,,,,,,,,,,,,,,,,,,,,,,,,,,,,,,,,,,,,,,,,1.52,394.63741049999953,None,space,1,0.2817720000020927,396.2663196999929,None,396.2663196999929,None,396.2663196999929,None,,,,,,,,,,,P020,fencog,1,Pre,2021_Nov_09_1057,Go No-Go Task,2021.1.4,120.9594991215722,
,"Rule: When you see a yellow image, do not press 'spacebar'.",Images/Happy/BM03_HO.jpg,Happy,Yellow,Images/Yellow.jpg,None,ParentConditions/YellowBlueBlue_v1.xlsx,BlueBlueYellow,Conditions/Version_1/YellowHappyStop.xlsx,yes,PASS,0.3904556138764915,,,,,,,,,0,0,0,0,0,0,0,0,0,6,6,6,,,,,,,,,,,,,,,,,,,,,,,,,,,,,,,,,,,,,,,,,,,,,,,,,,,,,,,,,,,,,,,,,,,,,,,,,,,,,,,1.55,396.6711060999951,None,None,1,,398.32392640000035,None,398.32392640000035,None,398.32392640000035,None,,,,,,,,,,,P020,fencog,1,Pre,2021_Nov_09_1057,Go No-Go Task,2021.1.4,120.9594991215722,
,"Rule: When you see a yellow image, do not press 'spacebar'.",Images/Fearful/HM06_FC.jpg,Fear,Blue,Images/Blue.jpg,space,ParentConditions/YellowBlueBlue_v1.xlsx,BlueBlueYellow,Conditions/Version_1/YellowHappyStop.xlsx,no,PASS,0.8295870874618959,,,,,,,,,0,0,0,0,0,0,0,0,0,7,7,7,,,,,,,,,,,,,,,,,,,,,,,,,,,,,,,,,,,,,,,,,,,,,,,,,,,,,,,,,,,,,,,,,,,,,,,,,,,,,,,1.73,398.7283157000056,None,space,1,0.3504023999994388,400.5736670000042,None,400.5736670000042,None,400.5736670000042,None,,,,,,,,,,,P020,fencog,1,Pre,2021_Nov_09_1057,Go No-Go Task,2021.1.4,120.9594991215722,
,"Rule: When you see a yellow image, do not press 'spacebar'.",Images/Fearful/AF19AFS.jpg,Fear,Blue,Images/Blue.jpg,space,ParentConditions/YellowBlueBlue_v1.xlsx,BlueBlueYellow,Conditions/Version_1/YellowHappyStop.xlsx,no,PASS,0.31457189280880904,,,,,,,,,0,0,0,0,0,0,0,0,0,8,8,8,,,,,,,,,,,,,,,,,,,,,,,,,,,,,,,,,,,,,,,,,,,,,,,,,,,,,,,,,,,,,,,,,,,,,,,,,,,,,,,1.59,400.9716618999955,None,space,1,0.2994438000023365,402.66423110000324,None,402.66423110000324,None,402.66423110000324,None,,,,,,,,,,,P020,fencog,1,Pre,2021_Nov_09_1057,Go No-Go Task,2021.1.4,120.9594991215722,
,"Rule: When you see a yellow image, do not press 'spacebar'.",Images/Happy/AF30HAS.jpg,Happy,Yellow,Images/Yellow.jpg,None,ParentConditions/YellowBlueBlue_v1.xlsx,BlueBlueYellow,Conditions/Version_1/YellowHappyStop.xlsx,yes,PASS,0.14544836048525234,,,,,,,,,0,0,0,0,0,0,0,0,0,9,9,9,,,,,,,,,,,,,,,,,,,,,,,,,,,,,,,,,,,,,,,,,,,,,,,,,,,,,,,,,,,,,,,,,,,,,,,,,,,,,,,1.9,403.0640077999997,None,None,1,,405.0721896000032,None,405.0721896000032,None,405.0721896000032,None,,,,,,,,,,,P020,fencog,1,Pre,2021_Nov_09_1057,Go No-Go Task,2021.1.4,120.9594991215722,
,"Rule: When you see a yellow image, do not press 'spacebar'.",Images/Fearful/AF25AFS.jpg,Fear,Blue,Images/Blue.jpg,space,ParentConditions/YellowBlueBlue_v1.xlsx,BlueBlueYellow,Conditions/Version_1/YellowHappyStop.xlsx,no,PASS,0.31319631990865415,,,,,,,,,0,0,0,0,0,0,0,0,0,10,10,10,,,,,,,,,,,,,,,,,,,,,,,,,,,,,,,,,,,,,,,,,,,,,,,,,,,,,,,,,,,,,,,,,,,,,,,,,,,,,,,1.27,405.4758918000007,None,space,1,0.28435869999520946,406.86330169999565,None,406.86330169999565,None,406.86330169999565,None,,,,,,,,,,,P020,fencog,1,Pre,2021_Nov_09_1057,Go No-Go Task,2021.1.4,120.9594991215722,
,"Rule: When you see a yellow image, do not press 'spacebar'.",Images/Fearful/AF30AFS.jpg,Fear,Blue,Images/Blue.jpg,space,ParentConditions/YellowBlueBlue_v1.xlsx,BlueBlueYellow,Conditions/Version_1/YellowHappyStop.xlsx,no,PASS,0.9854799433848976,,,,,,,,,0,0,0,0,0,0,0,0,0,11,11,11,,,,,,,,,,,,,,,,,,,,,,,,,,,,,,,,,,,,,,,,,,,,,,,,,,,,,,,,,,,,,,,,,,,,,,,,,,,,,,,1.74,407.2537444000045,None,space,1,0.2517144000012195,409.10434229999373,None,409.10434229999373,None,409.10434229999373,None,,,,,,,,,,,P020,fencog,1,Pre,2021_Nov_09_1057,Go No-Go Task,2021.1.4,120.9594991215722,
,"Rule: When you see a yellow image, do not press 'spacebar'.",Images/Happy/BF10_HO.jpg,Happy,Yellow,Images/Yellow.jpg,None,ParentConditions/YellowBlueBlue_v1.xlsx,BlueBlueYellow,Conditions/Version_1/YellowHappyStop.xlsx,yes,PASS,0.9368187318754497,,,,,,,,,0,0,0,0,0,0,0,0,0,12,12,12,,,,,,,,,,,,,,,,,,,,,,,,,,,,,,,,,,,,,,,,,,,,,,,,,,,,,,,,,,,,,,,,,,,,,,,,,,,,,,,1.81,409.5104658000055,None,None,1,,411.4286890999938,None,411.4286890999938,None,411.4286890999938,None,,,,,,,,,,,P020,fencog,1,Pre,2021_Nov_09_1057,Go No-Go Task,2021.1.4,120.9594991215722,
,"Rule: When you see a yellow image, do not press 'spacebar'.",Images/Fearful/AM06_FO.jpg,Fear,Blue,Images/Blue.jpg,space,ParentConditions/YellowBlueBlue_v1.xlsx,BlueBlueYellow,Conditions/Version_1/YellowHappyStop.xlsx,no,PASS,0.6030700196123316,,,,,,,,,0,0,0,0,0,0,0,0,0,13,13,13,,,,,,,,,,,,,,,,,,,,,,,,,,,,,,,,,,,,,,,,,,,,,,,,,,,,,,,,,,,,,,,,,,,,,,,,,,,,,,,1.51,411.83392289999756,None,space,1,0.2551203000039095,413.4446928999969,None,413.4446928999969,None,413.4446928999969,None,,,,,,,,,,,P020,fencog,1,Pre,2021_Nov_09_1057,Go No-Go Task,2021.1.4,120.9594991215722,
,"Rule: When you see a yellow image, do not press 'spacebar'.",Images/Happy/AM24HAS.jpg,Happy,Yellow,Images/Yellow.jpg,None,ParentConditions/YellowBlueBlue_v1.xlsx,BlueBlueYellow,Conditions/Version_1/YellowHappyStop.xlsx,yes,PASS,0.8401488188278822,,,,,,,,,0,0,0,0,0,0,0,0,0,14,14,14,,,,,,,,,,,,,,,,,,,,,,,,,,,,,,,,,,,,,,,,,,,,,,,,,,,,,,,,,,,,,,,,,,,,,,,,,,,,,,,1.25,413.85030969999207,None,None,1,,415.2024864999985,None,415.2024864999985,None,415.2024864999985,None,,,,,,,,,,,P020,fencog,1,Pre,2021_Nov_09_1057,Go No-Go Task,2021.1.4,120.9594991215722,
,"Rule: When you see a yellow image, do not press 'spacebar'.",Images/Fearful/AF21AFS.jpg,Fear,Blue,Images/Blue.jpg,space,ParentConditions/YellowBlueBlue_v1.xlsx,BlueBlueYellow,Conditions/Version_1/YellowHappyStop.xlsx,no,PASS,0.9561052396726243,,,,,,,,,0,0,0,0,0,0,0,0,0,15,15,15,,,,,,,,,,,,,,,,,,,,,,,,,,,,,,,,,,,,,,,,,,,,,,,,,,,,,,,,,,,,,,,,,,,,,,,,,,,,,,,1.54,415.60923940000066,None,space,1,0.2320937999902526,417.2515760999959,None,417.2515760999959,None,417.2515760999959,None,,,,,,,,,,,P020,fencog,1,Pre,2021_Nov_09_1057,Go No-Go Task,2021.1.4,120.9594991215722,
,"Rule: When you see a yellow image, do not press 'spacebar'.",Images/Happy/AM06_HC.jpg,Happy,Yellow,Images/Yellow.jpg,None,ParentConditions/YellowBlueBlue_v1.xlsx,BlueBlueYellow,Conditions/Version_1/YellowHappyStop.xlsx,yes,PASS,0.36325944609889094,,,,,,,,,0,0,0,0,0,0,0,0,0,16,16,16,,,,,,,,,,,,,,,,,,,,,,,,,,,,,,,,,,,,,,,,,,,,,,,,,,,,,,,,,,,,,,,,,,,,,,,,,,,,,,,1.24,417.65074909999385,None,None,1,,418.9931069000013,None,418.9931069000013,None,418.9931069000013,None,,,,,,,,,,,P020,fencog,1,Pre,2021_Nov_09_1057,Go No-Go Task,2021.1.4,120.9594991215722,
,"Rule: When you see a yellow image, do not press 'spacebar'.",Images/Fearful/AF10_FC.jpg,Fear,Blue,Images/Blue.jpg,space,ParentConditions/YellowBlueBlue_v1.xlsx,BlueBlueYellow,Conditions/Version_1/YellowHappyStop.xlsx,no,PASS,0.09357566512353055,,,,,,,,,0,0,0,0,0,0,0,0,0,17,17,17,,,,,,,,,,,,,,,,,,,,,,,,,,,,,,,,,,,,,,,,,,,,,,,,,,,,,,,,,,,,,,,,,,,,,,,,,,,,,,,1.93,419.3952217000042,None,space,1,0.2902490999986185,421.43381459999364,None,421.43381459999364,None,421.43381459999364,None,,,,,,,,,,,P020,fencog,1,Pre,2021_Nov_09_1057,Go No-Go Task,2021.1.4,120.9594991215722,
,"Rule: When you see a yellow image, do not press 'spacebar'.",Images/Fearful/BM03_FC.jpg,Fear,Blue,Images/Blue.jpg,space,ParentConditions/YellowBlueBlue_v1.xlsx,BlueBlueYellow,Conditions/Version_1/YellowHappyStop.xlsx,no,PASS,0.789884489320339,,,,,,,,,0,0,0,0,0,0,0,0,0,18,18,18,,,,,,,,,,,,,,,,,,,,,,,,,,,,,,,,,,,,,,,,,,,,,,,,,,,,,,,,,,,,,,,,,,,,,,,,,,,,,,,1.65,421.8328063999943,None,space,1,0.30838459999358747,423.5916636000038,None,423.5916636000038,None,423.5916636000038,None,,,,,,,,,,,P020,fencog,1,Pre,2021_Nov_09_1057,Go No-Go Task,2021.1.4,120.9594991215722,
,"Rule: When you see a yellow image, do not press 'spacebar'.",Images/Fearful/HM09_FC.jpg,Fear,Blue,Images/Blue.jpg,space,ParentConditions/YellowBlueBlue_v1.xlsx,BlueBlueYellow,Conditions/Version_1/YellowHappyStop.xlsx,no,PASS,0.8198583361260475,,,,,,,,,0,0,0,0,0,0,0,0,0,19,19,19,,,,,,,,,,,,,,,,,,,,,,,,,,,,,,,,,,,,,,,,,,,,,,,,,,,,,,,,,,,,,,,,,,,,,,,,,,,,,,,1.79,423.9897648000042,None,space,1,0.24089749999984633,425.8910199999955,None,425.8910199999955,None,425.8910199999955,None,,,,,,,,,,,P020,fencog,1,Pre,2021_Nov_09_1057,Go No-Go Task,2021.1.4,120.9594991215722,
,"Rule: When you see a yellow image, do not press 'spacebar'.",Images/Fearful/AM04_FO.jpg,Fear,Blue,Images/Blue.jpg,space,ParentConditions/YellowBlueBlue_v1.xlsx,BlueBlueYellow,Conditions/Version_1/YellowHappyStop.xlsx,no,PASS,0.9595350245966109,,,,,,,,,0,0,0,0,0,0,0,0,0,20,20,20,,,,,,,,,,,,,,,,,,,,,,,,,,,,,,,,,,,,,,,,,,,,,,,,,,,,,,,,,,,,,,,,,,,,,,,,,,,,,,,1.29,426.2855267999985,None,space,1,0.31335019999824,427.6905955999973,None,427.6905955999973,None,427.6905955999973,None,,,,,,,,,,,P020,fencog,1,Pre,2021_Nov_09_1057,Go No-Go Task,2021.1.4,120.9594991215722,
,"Rule: When you see a yellow image, do not press 'spacebar'.",Images/Fearful/AF11AFS.jpg,Fear,Blue,Images/Blue.jpg,space,ParentConditions/YellowBlueBlue_v1.xlsx,BlueBlueYellow,Conditions/Version_1/YellowHappyStop.xlsx,no,PASS,0.7276184017912607,,,,,,,,,0,0,0,0,0,0,0,0,0,21,21,21,,,,,,,,,,,,,,,,,,,,,,,,,,,,,,,,,,,,,,,,,,,,,,,,,,,,,,,,,,,,,,,,,,,,,,,,,,,,,,,1.76,428.09090759999526,None,space,1,0.2550584999989951,429.96489129999827,None,429.96489129999827,None,429.96489129999827,None,,,,,,,,,,,P020,fencog,1,Pre,2021_Nov_09_1057,Go No-Go Task,2021.1.4,120.9594991215722,
,"Rule: When you see a yellow image, do not press 'spacebar'.",Images/Fearful/AM10_FO.jpg,Fear,Blue,Images/Blue.jpg,space,ParentConditions/YellowBlueBlue_v1.xlsx,BlueBlueYellow,Conditions/Version_1/YellowHappyStop.xlsx,no,PASS,0.7995855816230459,,,,,,,,,0,0,0,0,0,0,0,0,0,22,22,22,,,,,,,,,,,,,,,,,,,,,,,,,,,,,,,,,,,,,,,,,,,,,,,,,,,,,,,,,,,,,,,,,,,,,,,,,,,,,,,1.87,430.3699983999977,None,space,1,0.2638286000001244,432.35584400000516,None,432.35584400000516,None,432.35584400000516,None,,,,,,,,,,,P020,fencog,1,Pre,2021_Nov_09_1057,Go No-Go Task,2021.1.4,120.9594991215722,
,"Rule: When you see a yellow image, do not press 'spacebar'.",Images/Fearful/WF04_FC.jpg,Fear,Blue,Images/Blue.jpg,space,ParentConditions/YellowBlueBlue_v1.xlsx,BlueBlueYellow,Conditions/Version_1/YellowHappyStop.xlsx,no,PASS,0.007163238332436372,,,,,,,,,0,0,0,0,0,0,0,0,0,23,23,23,,,,,,,,,,,,,,,,,,,,,,,,,,,,,,,,,,,,,,,,,,,,,,,,,,,,,,,,,,,,,,,,,,,,,,,,,,,,,,,1.6,432.7542162000027,None,space,1,0.25242140000045765,434.4635431999923,None,434.4635431999923,None,434.4635431999923,None,,,,,,,,,,,P020,fencog,1,Pre,2021_Nov_09_1057,Go No-Go Task,2021.1.4,120.9594991215722,
,"Rule: When you see a yellow image, do not press 'spacebar'.",Images/Fearful/AF28AFS.jpg,Fear,Blue,Images/Blue.jpg,space,ParentConditions/YellowBlueBlue_v1.xlsx,BlueBlueYellow,Conditions/Version_1/YellowHappyStop.xlsx,no,PASS,0.6578574406316495,,,,,,,,,0,0,0,0,0,0,0,0,0,24,24,24,,,,,,,,,,,,,,,,,,,,,,,,,,,,,,,,,,,,,,,,,,,,,,,,,,,,,,,,,,,,,,,,,,,,,,,,,,,,,,,1.98,434.8594473999983,None,space,1,0.2815757000062149,436.9461685999995,None,436.9461685999995,None,436.9461685999995,None,,,,,,,,,,,P020,fencog,1,Pre,2021_Nov_09_1057,Go No-Go Task,2021.1.4,120.9594991215722,
,"Rule: When you see a yellow image, do not press 'spacebar'.",Images/Fearful/WF11_FC.jpg,Fear,Blue,Images/Blue.jpg,space,ParentConditions/YellowBlueBlue_v1.xlsx,BlueBlueYellow,Conditions/Version_1/YellowHappyStop.xlsx,no,PASS,0.16001068916200367,,,,,,,,,0,0,0,0,0,0,0,0,0,25,25,25,,,,,,,,,,,,,,,,,,,,,,,,,,,,,,,,,,,,,,,,,,,,,,,,,,,,,,,,,,,,,,,,,,,,,,,,,,,,,,,1.67,437.3511400999996,None,space,1,0.23485239999718033,439.1371014000033,None,439.1371014000033,None,439.1371014000033,None,,,,,,,,,,,P020,fencog,1,Pre,2021_Nov_09_1057,Go No-Go Task,2021.1.4,120.9594991215722,
,"Rule: When you see a yellow image, do not press 'spacebar'.",Images/Fearful/AM17AFS.jpg,Fear,Blue,Images/Blue.jpg,space,ParentConditions/YellowBlueBlue_v1.xlsx,BlueBlueYellow,Conditions/Version_1/YellowHappyStop.xlsx,no,PASS,0.11773651559349041,,,,,,,,,0,0,0,0,0,0,0,0,0,26,26,26,,,,,,,,,,,,,,,,,,,,,,,,,,,,,,,,,,,,,,,,,,,,,,,,,,,,,,,,,,,,,,,,,,,,,,,,,,,,,,,1.39,439.53672370000277,None,space,1,0.28766270000778604,441.0282281999971,None,441.0282281999971,None,441.0282281999971,None,,,,,,,,,,,P020,fencog,1,Pre,2021_Nov_09_1057,Go No-Go Task,2021.1.4,120.9594991215722,
,"Rule: When you see a yellow image, do not press 'spacebar'.",Images/Happy/AF27HAS.jpg,Happy,Yellow,Images/Yellow.jpg,None,ParentConditions/YellowBlueBlue_v1.xlsx,BlueBlueYellow,Conditions/Version_1/YellowHappyStop.xlsx,yes,PASS,0.3141869564869746,,,,,,,,,0,0,0,0,0,0,0,0,0,27,27,27,,,,,,,,,,,,,,,,,,,,,,,,,,,,,,,,,,,,,,,,,,,,,,,,,,,,,,,,,,,,,,,,,,,,,,,,,,,,,,,1.83,441.4271382000006,None,None,1,,443.36922849999974,None,443.36922849999974,None,443.36922849999974,None,,,,,,,,,,,P020,fencog,1,Pre,2021_Nov_09_1057,Go No-Go Task,2021.1.4,120.9594991215722,
,"Rule: When you see a yellow image, do not press 'spacebar'.",Images/Fearful/BF10_FO.jpg,Fear,Blue,Images/Blue.jpg,space,ParentConditions/YellowBlueBlue_v1.xlsx,BlueBlueYellow,Conditions/Version_1/YellowHappyStop.xlsx,no,PASS,0.6473836402289548,,,,,,,,,0,0,0,0,0,0,0,0,0,28,28,28,,,,,,,,,,,,,,,,,,,,,,,,,,,,,,,,,,,,,,,,,,,,,,,,,,,,,,,,,,,,,,,,,,,,,,,,,,,,,,,1.57,443.7630558999954,None,space,1,0.25648489999002777,445.44358490000013,None,445.44358490000013,None,445.44358490000013,None,,,,,,,,,,,P020,fencog,1,Pre,2021_Nov_09_1057,Go No-Go Task,2021.1.4,120.9594991215722,
,"Rule: When you see a yellow image, do not press 'spacebar'.",Images/Fearful/HF04_FO.jpg,Fear,Blue,Images/Blue.jpg,space,ParentConditions/YellowBlueBlue_v1.xlsx,BlueBlueYellow,Conditions/Version_1/YellowHappyStop.xlsx,no,PASS,0.6573655365841123,,,,,,,,,0,0,0,0,0,0,0,0,0,29,29,29,,,,,,,,,,,,,,,,,,,,,,,,,,,,,,,,,,,,,,,,,,,,,,,,,,,,,,,,,,,,,,,,,,,,,,,,,,,,,,,1.47,445.8357324999961,None,space,1,0.27412110001023393,447.41783710000163,None,447.41783710000163,None,447.41783710000163,None,,,,,,,,,,,P020,fencog,1,Pre,2021_Nov_09_1057,Go No-Go Task,2021.1.4,120.9594991215722,
,"Rule: When you see a yellow image, do not press 'spacebar'.",Images/Happy/AF26HAS.jpg,Happy,Yellow,Images/Yellow.jpg,None,ParentConditions/YellowBlueBlue_v1.xlsx,BlueBlueYellow,Conditions/Version_1/YellowHappyStop.xlsx,yes,PASS,0.9634288273569958,,,,,,,,,0,0,0,0,0,0,0,0,0,30,30,30,,,,,,,,,,,,,,,,,,,,,,,,,,,,,,,,,,,,,,,,,,,,,,,,,,,,,,,,,,,,,,,,,,,,,,,,,,,,,,,1.32,447.8186496999988,None,None,1,,449.25934239999333,None,449.25934239999333,None,449.25934239999333,None,,,,,,,,,,,P020,fencog,1,Pre,2021_Nov_09_1057,Go No-Go Task,2021.1.4,120.9594991215722,
,"Rule: When you see a yellow image, do not press 'spacebar'.",Images/Happy/HF09_HE.jpg,Happy,Yellow,Images/Yellow.jpg,None,ParentConditions/YellowBlueBlue_v1.xlsx,BlueBlueYellow,Conditions/Version_1/YellowHappyStop.xlsx,yes,PASS,0.28002812366142005,,,,,,,,,0,0,0,0,0,0,0,0,0,31,31,31,,,,,,,,,,,,,,,,,,,,,,,,,,,,,,,,,,,,,,,,,,,,,,,,,,,,,,,,,,,,,,,,,,,,,,,,,,,,,,,1.96,449.6520210000017,None,None,1,,451.71720440000354,None,451.71720440000354,None,451.71720440000354,None,,,,,,,,,,,P020,fencog,1,Pre,2021_Nov_09_1057,Go No-Go Task,2021.1.4,120.9594991215722,
,"Rule: When you see a yellow image, do not press 'spacebar'.",Images/Fearful/AM16AFS.jpg,Fear,Blue,Images/Blue.jpg,space,ParentConditions/YellowBlueBlue_v1.xlsx,BlueBlueYellow,Conditions/Version_1/YellowHappyStop.xlsx,no,PASS,0.5681414931312986,,,,,,,,,0,0,0,0,0,0,0,0,0,32,32,32,,,,,,,,,,,,,,,,,,,,,,,,,,,,,,,,,,,,,,,,,,,,,,,,,,,,,,,,,,,,,,,,,,,,,,,,,,,,,,,1.26,452.1224605000025,None,space,1,0.2890588000009302,453.482723299996,None,453.482723299996,None,453.482723299996,None,,,,,,,,,,,P020,fencog,1,Pre,2021_Nov_09_1057,Go No-Go Task,2021.1.4,120.9594991215722,
,"Rule: When you see a yellow image, do not press 'spacebar'.",Images/Fearful/WF05_FO.jpg,Fear,Blue,Images/Blue.jpg,space,ParentConditions/YellowBlueBlue_v1.xlsx,BlueBlueYellow,Conditions/Version_1/YellowHappyStop.xlsx,no,PASS,0.23759173368539344,,,,,,,,,0,0,0,0,0,0,0,0,0,33,33,33,,,,,,,,,,,,,,,,,,,,,,,,,,,,,,,,,,,,,,,,,,,,,,,,,,,,,,,,,,,,,,,,,,,,,,,,,,,,,,,1.23,453.884653000001,None,space,1,0.3159220999950776,455.2241647000046,None,455.2241647000046,None,455.2241647000046,None,,,,,,,,,,,P020,fencog,1,Pre,2021_Nov_09_1057,Go No-Go Task,2021.1.4,120.9594991215722,
,"Rule: When you see a yellow image, do not press 'spacebar'.",Images/Fearful/AM03_FC.jpg,Fear,Blue,Images/Blue.jpg,space,ParentConditions/YellowBlueBlue_v1.xlsx,BlueBlueYellow,Conditions/Version_1/YellowHappyStop.xlsx,no,PASS,0.45277772012976447,,,,,,,,,0,0,0,0,0,0,0,0,0,34,34,34,,,,,,,,,,,,,,,,,,,,,,,,,,,,,,,,,,,,,,,,,,,,,,,,,,,,,,,,,,,,,,,,,,,,,,,,,,,,,,,1.33,455.6289012999914,None,space,1,0.2583352000074228,457.0735552999977,None,457.0735552999977,None,457.0735552999977,None,,,,,,,,,,,P020,fencog,1,Pre,2021_Nov_09_1057,Go No-Go Task,2021.1.4,120.9594991215722,
,"Rule: When you see a yellow image, do not press 'spacebar'.",Images/Fearful/AM01AFS.jpg,Fear,Blue,Images/Blue.jpg,space,ParentConditions/YellowBlueBlue_v1.xlsx,BlueBlueYellow,Conditions/Version_1/YellowHappyStop.xlsx,no,PASS,0.4826830931616207,,,,,,,,,0,0,0,0,0,0,0,0,0,35,35,35,,,,,,,,,,,,,,,,,,,,,,,,,,,,,,,,,,,,,,,,,,,,,,,,,,,,,,,,,,,,,,,,,,,,,,,,,,,,,,,1.69,457.4745833999914,None,space,1,0.2504910999996355,459.28119609999703,None,459.28119609999703,None,459.28119609999703,None,,,,,,,,,,,P020,fencog,1,Pre,2021_Nov_09_1057,Go No-Go Task,2021.1.4,120.9594991215722,
,"Rule: When you see a yellow image, do not press 'spacebar'.",Images/Fearful/HM04_FC.jpg,Fear,Blue,Images/Blue.jpg,space,ParentConditions/YellowBlueBlue_v1.xlsx,BlueBlueYellow,Conditions/Version_1/YellowHappyStop.xlsx,no,PASS,0.46069029171054665,,,,,,,,,0,0,0,0,0,0,0,0,0,36,36,36,,,,,,,,,,,,,,,,,,,,,,,,,,,,,,,,,,,,,,,,,,,,,,,,,,,,,,,,,,,,,,,,,,,,,,,,,,,,,,,1.45,459.672980000003,None,space,1,0.2687433999963105,461.239058799998,None,461.239058799998,None,461.239058799998,None,,,,,,,,,,,P020,fencog,1,Pre,2021_Nov_09_1057,Go No-Go Task,2021.1.4,120.9594991215722,
,"Rule: When you see a yellow image, do not press 'spacebar'.",Images/Fearful/BF18_FC.jpg,Fear,Blue,Images/Blue.jpg,space,ParentConditions/YellowBlueBlue_v1.xlsx,BlueBlueYellow,Conditions/Version_1/YellowHappyStop.xlsx,no,PASS,0.633030328468129,,,,,,,,,0,0,0,0,0,0,0,0,0,37,37,37,,,,,,,,,,,,,,,,,,,,,,,,,,,,,,,,,,,,,,,,,,,,,,,,,,,,,,,,,,,,,,,,,,,,,,,,,,,,,,,1.21,461.63606950000394,None,space,1,0.3127623000036692,462.9551172999927,None,462.9551172999927,None,462.9551172999927,None,,,,,,,,,,,P020,fencog,1,Pre,2021_Nov_09_1057,Go No-Go Task,2021.1.4,120.9594991215722,
,"Rule: When you see a yellow image, do not press 'spacebar'.",Images/Fearful/AF07_FO.jpg,Fear,Blue,Images/Blue.jpg,space,ParentConditions/YellowBlueBlue_v1.xlsx,BlueBlueYellow,Conditions/Version_1/YellowHappyStop.xlsx,no,PASS,0.34147832357579266,,,,,,,,,0,0,0,0,0,0,0,0,0,38,38,38,,,,,,,,,,,,,,,,,,,,,,,,,,,,,,,,,,,,,,,,,,,,,,,,,,,,,,,,,,,,,,,,,,,,,,,,,,,,,,,1.44,463.3543359000032,None,space,1,0.275438500000746,464.9045899000048,None,464.9045899000048,None,464.9045899000048,None,,,,,,,,,,,P020,fencog,1,Pre,2021_Nov_09_1057,Go No-Go Task,2021.1.4,120.9594991215722,
,"Rule: When you see a yellow image, do not press 'spacebar'.",Images/Fearful/AM24AFS.jpg,Fear,Blue,Images/Blue.jpg,space,ParentConditions/YellowBlueBlue_v1.xlsx,BlueBlueYellow,Conditions/Version_1/YellowHappyStop.xlsx,no,PASS,0.778148808430259,,,,,,,,,0,0,0,0,0,0,0,0,0,39,39,39,,,,,,,,,,,,,,,,,,,,,,,,,,,,,,,,,,,,,,,,,,,,,,,,,,,,,,,,,,,,,,,,,,,,,,,,,,,,,,,1.78,465.3075519999984,None,space,1,0.2720428000029642,467.20394320000196,None,467.20394320000196,None,467.20394320000196,None,,,,,,,,,,,P020,fencog,1,Pre,2021_Nov_09_1057,Go No-Go Task,2021.1.4,120.9594991215722,
,"Rule: When you see a yellow image, do not press 'spacebar'.",Images/Fearful/AM03AFS.jpg,Fear,Blue,Images/Blue.jpg,space,ParentConditions/YellowBlueBlue_v1.xlsx,BlueBlueYellow,Conditions/Version_1/YellowHappyStop.xlsx,no,PASS,0.23044092834848573,,,,,,,,,0,0,0,0,0,0,0,0,0,40,40,40,,,,,,,,,,,,,,,,,,,,,,,,,,,,,,,,,,,,,,,,,,,,,,,,,,,,,,,,,,,,,,,,,,,,,,,,,,,,,,,1.28,467.60050950000004,None,space,1,0.25691850000293925,468.99509129999205,None,468.99509129999205,None,468.99509129999205,None,,,,,,,,,,,P020,fencog,1,Pre,2021_Nov_09_1057,Go No-Go Task,2021.1.4,120.9594991215722,
,"Rule: When you see a yellow image, do not press 'spacebar'.",Images/Fearful/BM08_FC.jpg,Fear,Blue,Images/Blue.jpg,space,ParentConditions/YellowBlueBlue_v1.xlsx,BlueBlueYellow,Conditions/Version_1/YellowHappyStop.xlsx,no,PASS,0.6548756521259214,,,,,,,,,0,0,0,0,0,0,0,0,0,41,41,41,,,,,,,,,,,,,,,,,,,,,,,,,,,,,,,,,,,,,,,,,,,,,,,,,,,,,,,,,,,,,,,,,,,,,,,,,,,,,,,1.4,469.3935368999955,None,space,1,0.2772067000041716,470.90274779999163,None,470.90274779999163,None,470.90274779999163,None,,,,,,,,,,,P020,fencog,1,Pre,2021_Nov_09_1057,Go No-Go Task,2021.1.4,120.9594991215722,
,"Rule: When you see a yellow image, do not press 'spacebar'.",Images/Fearful/AF32AFS.jpg,Fear,Blue,Images/Blue.jpg,space,ParentConditions/YellowBlueBlue_v1.xlsx,BlueBlueYellow,Conditions/Version_1/YellowHappyStop.xlsx,no,PASS,0.9401650545876452,,,,,,,,,0,0,0,0,0,0,0,0,0,42,42,42,,,,,,,,,,,,,,,,,,,,,,,,,,,,,,,,,,,,,,,,,,,,,,,,,,,,,,,,,,,,,,,,,,,,,,,,,,,,,,,1.61,471.3057931999938,None,space,1,0.3284655000024941,473.027193300004,None,473.027193300004,None,473.027193300004,None,,,,,,,,,,,P020,fencog,1,Pre,2021_Nov_09_1057,Go No-Go Task,2021.1.4,120.9594991215722,
,"Rule: When you see a yellow image, do not press 'spacebar'.",Images/Fearful/AF26AFS.jpg,Fear,Blue,Images/Blue.jpg,space,ParentConditions/YellowBlueBlue_v1.xlsx,BlueBlueYellow,Conditions/Version_1/YellowHappyStop.xlsx,no,PASS,0.5799257276734284,,,,,,,,,0,0,0,0,0,0,0,0,0,43,43,43,,,,,,,,,,,,,,,,,,,,,,,,,,,,,,,,,,,,,,,,,,,,,,,,,,,,,,,,,,,,,,,,,,,,,,,,,,,,,,,1.97,473.42655170000216,None,space,1,0.3658444999891799,475.5180629999959,None,475.5180629999959,None,475.5180629999959,None,,,,,,,,,,,P020,fencog,1,Pre,2021_Nov_09_1057,Go No-Go Task,2021.1.4,120.9594991215722,
,"Rule: When you see a yellow image, do not press 'spacebar'.",Images/Fearful/BF09_FC.jpg,Fear,Blue,Images/Blue.jpg,space,ParentConditions/YellowBlueBlue_v1.xlsx,BlueBlueYellow,Conditions/Version_1/YellowHappyStop.xlsx,no,PASS,0.9512288628250045,,,,,,,,,0,0,0,0,0,0,0,0,0,44,44,44,,,,,,,,,,,,,,,,,,,,,,,,,,,,,,,,,,,,,,,,,,,,,,,,,,,,,,,,,,,,,,,,,,,,,,,,,,,,,,,1.86,475.90518000000156,None,space,1,0.28011190000688657,477.8757770999946,None,477.8757770999946,None,477.8757770999946,None,,,,,,,,,,,P020,fencog,1,Pre,2021_Nov_09_1057,Go No-Go Task,2021.1.4,120.9594991215722,
,"Rule: When you see a yellow image, do not press 'spacebar'.",Images/Fearful/BM01_FO.jpg,Fear,Blue,Images/Blue.jpg,space,ParentConditions/YellowBlueBlue_v1.xlsx,BlueBlueYellow,Conditions/Version_1/YellowHappyStop.xlsx,no,PASS,0.8954287307362916,,,,,,,,,0,0,0,0,0,0,0,0,0,45,45,45,,,,,,,,,,,,,,,,,,,,,,,,,,,,,,,,,,,,,,,,,,,,,,,,,,,,,,,,,,,,,,,,,,,,,,,,,,,,,,,1.94,478.27269369999703,None,space,1,0.31885959999635816,480.3250929999922,None,480.3250929999922,None,480.3250929999922,None,,,,,,,,,,,P020,fencog,1,Pre,2021_Nov_09_1057,Go No-Go Task,2021.1.4,120.9594991215722,
,"Rule: When you see a yellow image, do not press 'spacebar'.",Images/Happy/BF14_HO.jpg,Happy,Yellow,Images/Yellow.jpg,None,ParentConditions/YellowBlueBlue_v1.xlsx,BlueBlueYellow,Conditions/Version_1/YellowHappyStop.xlsx,yes,PASS,0.7234280216409134,,,,,,,,,0,0,0,0,0,0,0,0,0,46,46,46,,,,,,,,,,,,,,,,,,,,,,,,,,,,,,,,,,,,,,,,,,,,,,,,,,,,,,,,,,,,,,,,,,,,,,,,,,,,,,,1.35,480.7264758999954,None,None,1,,482.1826205999969,None,482.1826205999969,None,482.1826205999969,None,,,,,,,,,,,P020,fencog,1,Pre,2021_Nov_09_1057,Go No-Go Task,2021.1.4,120.9594991215722,
,"Rule: When you see a yellow image, do not press 'spacebar'.",Images/Fearful/WM11_FC.jpg,Fear,Blue,Images/Blue.jpg,space,ParentConditions/YellowBlueBlue_v1.xlsx,BlueBlueYellow,Conditions/Version_1/YellowHappyStop.xlsx,no,PASS,0.023552814974996727,,,,,,,,,0,0,0,0,0,0,0,0,0,47,47,47,,,,,,,,,,,,,,,,,,,,,,,,,,,,,,,,,,,,,,,,,,,,,,,,,,,,,,,,,,,,,,,,,,,,,,,,,,,,,,,1.38,482.5822443999932,None,space,1,0.29045529999712016,484.0652117999998,None,484.0652117999998,None,484.0652117999998,None,,,,,,,,,,,P020,fencog,1,Pre,2021_Nov_09_1057,Go No-Go Task,2021.1.4,120.9594991215722,
,"Rule: When you see a yellow image, do not press 'spacebar'.",Images/Fearful/AM02_FO.jpg,Fear,Blue,Images/Blue.jpg,space,ParentConditions/YellowBlueBlue_v1.xlsx,BlueBlueYellow,Conditions/Version_1/YellowHappyStop.xlsx,no,PASS,0.4906088235260202,,,,,,,,,0,0,0,0,0,0,0,0,0,48,48,48,,,,,,,,,,,,,,,,,,,,,,,,,,,,,,,,,,,,,,,,,,,,,,,,,,,,,,,,,,,,,,,,,,,,,,,,,,,,,,,1.53,484.46432279999135,None,space,1,0.29776590000255965,486.09795919999306,None,486.09795919999306,None,486.09795919999306,None,,,,,,,,,,,P020,fencog,1,Pre,2021_Nov_09_1057,Go No-Go Task,2021.1.4,120.9594991215722,
,"Rule: When you see a yellow image, do not press 'spacebar'.",Images/Happy/HM09_HO.jpg,Happy,Yellow,Images/Yellow.jpg,None,ParentConditions/YellowBlueBlue_v1.xlsx,BlueBlueYellow,Conditions/Version_1/YellowHappyStop.xlsx,yes,PASS,0.5172626673634482,,,,,,,,,0,0,0,0,0,0,0,0,0,49,49,49,,,,,,,,,,,,,,,,,,,,,,,,,,,,,,,,,,,,,,,,,,,,,,,,,,,,,,,,,,,,,,,,,,,,,,,,,,,,,,,1.75,486.49752479999734,None,None,1,,488.35570289999305,None,488.35570289999305,None,488.35570289999305,None,,,,,,,,,,,P020,fencog,1,Pre,2021_Nov_09_1057,Go No-Go Task,2021.1.4,120.9594991215722,
,"Rule: When you see a yellow image, do not press 'spacebar'.",Images/Happy/HF10_HE.jpg,Happy,Yellow,Images/Yellow.jpg,None,ParentConditions/YellowBlueBlue_v1.xlsx,BlueBlueYellow,Conditions/Version_1/YellowHappyStop.xlsx,yes,PASS,0.44150167084278924,,,,,,,,,0,0,0,0,0,0,0,0,0,50,50,50,,,,,,,,,,,,,,,,,,,,,,,,,,,,,,,,,,,,,,,,,,,,,,,,,,,,,,,,,,,,,,,,,,,,,,,,,,,,,,,1.34,488.75524430000223,None,None,1,,490.19674620000296,None,490.19674620000296,None,490.19674620000296,None,,,,,,,,,,,P020,fencog,1,Pre,2021_Nov_09_1057,Go No-Go Task,2021.1.4,120.9594991215722,
,"Rule: When you see a yellow image, do not press 'spacebar'.",Images/Fearful/AF09AFS.jpg,Fear,Blue,Images/Blue.jpg,space,ParentConditions/YellowBlueBlue_v1.xlsx,BlueBlueYellow,Conditions/Version_1/YellowHappyStop.xlsx,no,PASS,0.20329731425220043,,,,,,,,,0,0,0,0,0,0,0,0,0,51,51,51,,,,,,,,,,,,,,,,,,,,,,,,,,,,,,,,,,,,,,,,,,,,,,,,,,,,,,,,,,,,,,,,,,,,,,,,,,,,,,,1.48,490.5960816000006,None,space,1,0.3681585000013001,492.17946849999134,None,492.17946849999134,None,492.17946849999134,None,,,,,,,,,,,P020,fencog,1,Pre,2021_Nov_09_1057,Go No-Go Task,2021.1.4,120.9594991215722,
,"Rule: When you see a yellow image, do not press 'spacebar'.",Images/Fearful/AM23AFS.jpg,Fear,Blue,Images/Blue.jpg,space,ParentConditions/YellowBlueBlue_v1.xlsx,BlueBlueYellow,Conditions/Version_1/YellowHappyStop.xlsx,no,PASS,0.9134790301426777,,,,,,,,,0,0,0,0,0,0,0,0,0,52,52,52,,,,,,,,,,,,,,,,,,,,,,,,,,,,,,,,,,,,,,,,,,,,,,,,,,,,,,,,,,,,,,,,,,,,,,,,,,,,,,,1.72,492.57897380000213,None,space,1,0.32771889999276027,494.40380119999463,None,494.40380119999463,None,494.40380119999463,None,,,,,,,,,,,P020,fencog,1,Pre,2021_Nov_09_1057,Go No-Go Task,2021.1.4,120.9594991215722,
,"Rule: When you see a yellow image, do not press 'spacebar'.",Images/Fearful/AM05AFS.jpg,Fear,Blue,Images/Blue.jpg,space,ParentConditions/YellowBlueBlue_v1.xlsx,BlueBlueYellow,Conditions/Version_1/YellowHappyStop.xlsx,no,PASS,0.7369542946293995,,,,,,,,,0,0,0,0,0,0,0,0,0,53,53,53,,,,,,,,,,,,,,,,,,,,,,,,,,,,,,,,,,,,,,,,,,,,,,,,,,,,,,,,,,,,,,,,,,,,,,,,,,,,,,,1.42,494.80349779999233,None,space,1,0.3393980999971973,496.328250999999,None,496.328250999999,None,496.328250999999,None,,,,,,,,,,,P020,fencog,1,Pre,2021_Nov_09_1057,Go No-Go Task,2021.1.4,120.9594991215722,
,"Rule: When you see a yellow image, do not press 'spacebar'.",Images/Happy/AF28HAS.jpg,Happy,Yellow,Images/Yellow.jpg,None,ParentConditions/YellowBlueBlue_v1.xlsx,BlueBlueYellow,Conditions/Version_1/YellowHappyStop.xlsx,yes,PASS,0.27168303726444554,,,,,,,,,0,0,0,0,0,0,0,0,0,54,54,54,,,,,,,,,,,,,,,,,,,,,,,,,,,,,,,,,,,,,,,,,,,,,,,,,,,,,,,,,,,,,,,,,,,,,,,,,,,,,,,1.37,496.7273139000026,None,None,1,,498.20267899999453,None,498.20267899999453,None,498.20267899999453,None,,,,,,,,,,,P020,fencog,1,Pre,2021_Nov_09_1057,Go No-Go Task,2021.1.4,120.9594991215722,
,"Rule: When you see a yellow image, do not press 'spacebar'.",Images/Fearful/BF14_FO.jpg,Fear,Blue,Images/Blue.jpg,space,ParentConditions/YellowBlueBlue_v1.xlsx,BlueBlueYellow,Conditions/Version_1/YellowHappyStop.xlsx,no,PASS,0.6433421649003036,,,,,,,,,0,0,0,0,0,0,0,0,0,55,55,55,,,,,,,,,,,,,,,,,,,,,,,,,,,,,,,,,,,,,,,,,,,,,,,,,,,,,,,,,,,,,,,,,,,,,,,,,,,,,,,1.46,498.60177880000265,None,space,1,0.32287999999243766,500.16876099999354,None,500.16876099999354,None,500.16876099999354,None,,,,,,,,,,,P020,fencog,1,Pre,2021_Nov_09_1057,Go No-Go Task,2021.1.4,120.9594991215722,
,"Rule: When you see a yellow image, do not press 'spacebar'.",Images/Happy/AM30HAS.jpg,Happy,Yellow,Images/Yellow.jpg,None,ParentConditions/YellowBlueBlue_v1.xlsx,BlueBlueYellow,Conditions/Version_1/YellowHappyStop.xlsx,yes,PASS,0.0794505415747715,,,,,,,,,0,0,0,0,0,0,0,0,0,56,56,56,,,,,,,,,,,,,,,,,,,,,,,,,,,,,,,,,,,,,,,,,,,,,,,,,,,,,,,,,,,,,,,,,,,,,,,,,,,,,,,1.56,500.56844499999715,None,None,1,,502.2348542999971,None,502.2348542999971,None,502.2348542999971,None,,,,,,,,,,,P020,fencog,1,Pre,2021_Nov_09_1057,Go No-Go Task,2021.1.4,120.9594991215722,
,"Rule: When you see a yellow image, do not press 'spacebar'.",Images/Fearful/AF27AFS.jpg,Fear,Blue,Images/Blue.jpg,space,ParentConditions/YellowBlueBlue_v1.xlsx,BlueBlueYellow,Conditions/Version_1/YellowHappyStop.xlsx,no,PASS,0.3935834771022866,,,,,,,,,0,0,0,0,0,0,0,0,0,57,57,57,,,,,,,,,,,,,,,,,,,,,,,,,,,,,,,,,,,,,,,,,,,,,,,,,,,,,,,,,,,,,,,,,,,,,,,,,,,,,,,2,502.63390570000047,None,space,1,0.24516039999434724,504.74241389999224,None,504.74241389999224,None,504.74241389999224,None,,,,,,,,,,,P020,fencog,1,Pre,2021_Nov_09_1057,Go No-Go Task,2021.1.4,120.9594991215722,
,"Rule: When you see a yellow image, do not press 'spacebar'.",Images/Fearful/AM32AFS.jpg,Fear,Blue,Images/Blue.jpg,space,ParentConditions/YellowBlueBlue_v1.xlsx,BlueBlueYellow,Conditions/Version_1/YellowHappyStop.xlsx,no,PASS,0.5614458224122035,,,,,,,,,0,0,0,0,0,0,0,0,0,58,58,58,,,,,,,,,,,,,,,,,,,,,,,,,,,,,,,,,,,,,,,,,,,,,,,,,,,,,,,,,,,,,,,,,,,,,,,,,,,,,,,1.89,505.1415132999973,None,space,1,0.35021049999340903,507.1333813999954,None,507.1333813999954,None,507.1333813999954,None,,,,,,,,,,,P020,fencog,1,Pre,2021_Nov_09_1057,Go No-Go Task,2021.1.4,120.9594991215722,
,"Rule: When you see a yellow image, do not press 'spacebar'.",Images/Fearful/AM09_FO.jpg,Fear,Blue,Images/Blue.jpg,space,ParentConditions/YellowBlueBlue_v1.xlsx,BlueBlueYellow,Conditions/Version_1/YellowHappyStop.xlsx,no,PASS,0.3933837419145386,,,,,,,,,0,0,0,0,0,0,0,0,0,59,59,59,,,,,,,,,,,,,,,,,,,,,,,,,,,,,,,,,,,,,,,,,,,,,,,,,,,,,,,,,,,,,,,,,,,,,,,,,,,,,,,1.49,507.53255039999203,None,space,1,0.24705279999761842,509.1245071000012,None,509.1245071000012,None,509.1245071000012,None,,,,,,,,,,,P020,fencog,1,Pre,2021_Nov_09_1057,Go No-Go Task,2021.1.4,120.9594991215722,
,"Rule: When you see a yellow image, do not press 'spacebar'.",Images/Fearful/AF01_FO.jpg,Fear,Blue,Images/Blue.jpg,space,ParentConditions/YellowBlueBlue_v1.xlsx,BlueBlueYellow,Conditions/Version_1/YellowHappyStop.xlsx,no,PASS,0.7419870009427991,,,,,,,,,0,0,0,0,0,0,0,0,0,60,60,60,,,,,,,,,,,,,,,,,,,,,,,,,,,,,,,,,,,,,,,,,,,,,,,,,,,,,,,,,,,,,,,,,,,,,,,,,,,,,,,1.43,509.5236314999929,None,space,1,0.2584059999935562,511.0572424999991,None,511.0572424999991,None,511.0572424999991,None,,,,,,,,,,,P020,fencog,1,Pre,2021_Nov_09_1057,Go No-Go Task,2021.1.4,120.9594991215722,
,"Rule: When you see a yellow image, do not press 'spacebar'.",Images/Happy/AM10_HO.jpg,Happy,Yellow,Images/Yellow.jpg,None,ParentConditions/YellowBlueBlue_v1.xlsx,BlueBlueYellow,Conditions/Version_1/YellowHappyStop.xlsx,yes,PASS,0.7352402085502512,,,,,,,,,0,0,0,0,0,0,0,0,0,61,61,61,,,,,,,,,,,,,,,,,,,,,,,,,,,,,,,,,,,,,,,,,,,,,,,,,,,,,,,,,,,,,,,,,,,,,,,,,,,,,,,1.8,511.4568633000017,None,None,1,,513.3648818999936,None,513.3648818999936,None,513.3648818999936,None,,,,,,,,,,,P020,fencog,1,Pre,2021_Nov_09_1057,Go No-Go Task,2021.1.4,120.9594991215722,
,"Rule: When you see a yellow image, do not press 'spacebar'.",Images/Happy/AM22HAS.jpg,Happy,Yellow,Images/Yellow.jpg,None,ParentConditions/YellowBlueBlue_v1.xlsx,BlueBlueYellow,Conditions/Version_1/YellowHappyStop.xlsx,yes,PASS,0.27838589915801637,,,,,,,,,0,0,0,0,0,0,0,0,0,62,62,62,,,,,,,,,,,,,,,,,,,,,,,,,,,,,,,,,,,,,,,,,,,,,,,,,,,,,,,,,,,,,,,,,,,,,,,,,,,,,,,1.7,513.7639268000057,None,None,1,,515.5642332999996,None,515.5642332999996,None,515.5642332999996,None,,,,,,,,,,,P020,fencog,1,Pre,2021_Nov_09_1057,Go No-Go Task,2021.1.4,120.9594991215722,
,"Rule: When you see a yellow image, do not press 'spacebar'.",Images/Fearful/AM22AFS.jpg,Fear,Blue,Images/Blue.jpg,space,ParentConditions/YellowBlueBlue_v1.xlsx,BlueBlueYellow,Conditions/Version_1/YellowHappyStop.xlsx,no,PASS,0.012398818855924532,,,,,,,,,0,0,0,0,0,0,0,0,0,63,63,63,,,,,,,,,,,,,,,,,,,,,,,,,,,,,,,,,,,,,,,,,,,,,,,,,,,,,,,,,,,,,,,,,,,,,,,,,,,,,,,1.66,515.9637034000043,None,space,1,0.31334329998935573,517.7302452000004,None,517.7302452000004,None,517.7302452000004,None,,,,,,,,,,,P020,fencog,1,Pre,2021_Nov_09_1057,Go No-Go Task,2021.1.4,120.9594991215722,
,"Rule: When you see a yellow image, do not press 'spacebar'.",Images/Happy/BM08_HO.jpg,Happy,Yellow,Images/Yellow.jpg,None,ParentConditions/YellowBlueBlue_v1.xlsx,BlueBlueYellow,Conditions/Version_1/YellowHappyStop.xlsx,yes,PASS,0.25791881247444226,,,,,,,,,0,0,0,0,0,0,0,0,0,64,64,64,,,,,,,,,,,,,,,,,,,,,,,,,,,,,,,,,,,,,,,,,,,,,,,,,,,,,,,,,,,,,,,,,,,,,,,,,,,,,,,1.63,518.1299445000041,None,None,1,,519.8629820999922,None,519.8629820999922,None,519.8629820999922,None,,,,,,,,,,,P020,fencog,1,Pre,2021_Nov_09_1057,Go No-Go Task,2021.1.4,120.9594991215722,
,"Rule: When you see a yellow image, do not press 'spacebar'.",Images/Fearful/AM19AFS.jpg,Fear,Blue,Images/Blue.jpg,space,ParentConditions/YellowBlueBlue_v1.xlsx,BlueBlueYellow,Conditions/Version_1/YellowHappyStop.xlsx,no,PASS,0.4570092371665587,,,,,,,,,0,0,0,0,0,0,0,0,0,65,65,65,,,,,,,,,,,,,,,,,,,,,,,,,,,,,,,,,,,,,,,,,,,,,,,,,,,,,,,,,,,,,,,,,,,,,,,,,,,,,,,1.64,520.262426500005,None,space,1,0.32663029999821447,521.9970186999999,None,521.9970186999999,None,521.9970186999999,None,,,,,,,,,,,P020,fencog,1,Pre,2021_Nov_09_1057,Go No-Go Task,2021.1.4,120.9594991215722,
,"Rule: When you see a yellow image, do not press 'spacebar'.",Images/Fearful/AF23AFS.jpg,Fear,Blue,Images/Blue.jpg,space,ParentConditions/YellowBlueBlue_v1.xlsx,BlueBlueYellow,Conditions/Version_1/YellowHappyStop.xlsx,no,PASS,0.9065930904744121,,,,,,,,,0,0,0,0,0,0,0,0,0,66,66,66,,,,,,,,,,,,,,,,,,,,,,,,,,,,,,,,,,,,,,,,,,,,,,,,,,,,,,,,,,,,,,,,,,,,,,,,,,,,,,,1.62,522.4033493000024,None,space,1,0.2992587999906391,524.1283728999988,None,524.1283728999988,None,524.1283728999988,None,,,,,,,,,,,P020,fencog,1,Pre,2021_Nov_09_1057,Go No-Go Task,2021.1.4,120.9594991215722,
,"Rule: When you see a yellow image, do not press 'spacebar'.",Images/Fearful/AM13AFS.jpg,Fear,Blue,Images/Blue.jpg,space,ParentConditions/YellowBlueBlue_v1.xlsx,BlueBlueYellow,Conditions/Version_1/YellowHappyStop.xlsx,no,PASS,0.672217887403839,,,,,,,,,0,0,0,0,0,0,0,0,0,67,67,67,,,,,,,,,,,,,,,,,,,,,,,,,,,,,,,,,,,,,,,,,,,,,,,,,,,,,,,,,,,,,,,,,,,,,,,,,,,,,,,1.41,524.5289332999964,None,space,1,0.29501950000121724,526.0445112000016,None,526.0445112000016,None,526.0445112000016,None,,,,,,,,,,,P020,fencog,1,Pre,2021_Nov_09_1057,Go No-Go Task,2021.1.4,120.9594991215722,
,"Rule: When you see a yellow image, do not press 'spacebar'.",Images/Fearful/HF09_FC.jpg,Fear,Blue,Images/Blue.jpg,space,ParentConditions/YellowBlueBlue_v1.xlsx,BlueBlueYellow,Conditions/Version_1/YellowHappyStop.xlsx,no,PASS,0.947763278232759,,,,,,,,,0,0,0,0,0,0,0,0,0,68,68,68,,,,,,,,,,,,,,,,,,,,,,,,,,,,,,,,,,,,,,,,,,,,,,,,,,,,,,,,,,,,,,,,,,,,,,,,,,,,,,,1.88,526.4441226000054,None,space,1,0.2804651000042213,528.4270890000043,None,528.4270890000043,None,528.4270890000043,None,,,,,,,,,,,P020,fencog,1,Pre,2021_Nov_09_1057,Go No-Go Task,2021.1.4,120.9594991215722,
,"Rule: When you see a yellow image, do not press 'spacebar'.",Images/Fearful/AM04AFS.jpg,Fear,Blue,Images/Blue.jpg,space,ParentConditions/YellowBlueBlue_v1.xlsx,BlueBlueYellow,Conditions/Version_1/YellowHappyStop.xlsx,no,PASS,0.7155710730323807,,,,,,,,,0,0,0,0,0,0,0,0,0,69,69,69,,,,,,,,,,,,,,,,,,,,,,,,,,,,,,,,,,,,,,,,,,,,,,,,,,,,,,,,,,,,,,,,,,,,,,,,,,,,,,,1.5,528.8265054999938,None,space,1,0.3209035000036238,530.4266668000055,None,530.4266668000055,None,530.4266668000055,None,,,,,,,,,,,P020,fencog,1,Pre,2021_Nov_09_1057,Go No-Go Task,2021.1.4,120.9594991215722,
,"Rule: When you see a yellow image, do not press 'spacebar'.",Images/Fearful/AF02AFS.jpg,Fear,Blue,Images/Blue.jpg,space,ParentConditions/YellowBlueBlue_v1.xlsx,BlueBlueYellow,Conditions/Version_1/YellowHappyStop.xlsx,no,PASS,0.9864792225255055,,,,,,,,,0,0,0,0,0,0,0,0,0,70,70,70,,,,,,,,,,,,,,,,,,,,,,,,,,,,,,,,,,,,,,,,,,,,,,,,,,,,,,,,,,,,,,,,,,,,,,,,,,,,,,,1.77,530.8260764000006,None,space,1,0.25471580000885297,532.7008458999917,None,532.7008458999917,None,532.7008458999917,None,,,,,,,,,,,P020,fencog,1,Pre,2021_Nov_09_1057,Go No-Go Task,2021.1.4,120.9594991215722,
,"Rule: When you see a yellow image, do not press 'spacebar'.",Images/Fearful/AM09AFS.jpg,Fear,Blue,Images/Blue.jpg,space,ParentConditions/YellowBlueBlue_v1.xlsx,BlueBlueYellow,Conditions/Version_1/YellowHappyStop.xlsx,no,PASS,0.8390326237024166,,,,,,,,,0,0,0,0,0,0,0,0,0,71,71,71,,,,,,,,,,,,,,,,,,,,,,,,,,,,,,,,,,,,,,,,,,,,,,,,,,,,,,,,,,,,,,,,,,,,,,,,,,,,,,,1.31,533.0999244999985,None,space,1,0.2386326999985613,534.5169348999916,None,534.5169348999916,None,534.5169348999916,None,,,,,,,,,,,P020,fencog,1,Pre,2021_Nov_09_1057,Go No-Go Task,2021.1.4,120.9594991215722,
,"Rule: When you see a yellow image, do not press 'spacebar'.",Images/Fearful/BF05_FO.jpg,Fear,Blue,Images/Blue.jpg,space,ParentConditions/YellowBlueBlue_v1.xlsx,BlueBlueYellow,Conditions/Version_1/YellowHappyStop.xlsx,no,PASS,0.691917879610661,,,,,,,,,0,0,0,0,0,0,0,0,0,72,72,72,,,,,,,,,,,,,,,,,,,,,,,,,,,,,,,,,,,,,,,,,,,,,,,,,,,,,,,,,,,,,,,,,,,,,,,,,,,,,,,1.36,534.9163650999981,None,space,1,0.26807520000147633,536.3918415999942,None,536.3918415999942,None,536.3918415999942,None,,,,,,,,,,,P020,fencog,1,Pre,2021_Nov_09_1057,Go No-Go Task,2021.1.4,120.9594991215722,
,"Rule: When you see a yellow image, do not press 'spacebar'.",Images/Fearful/AF22AFS.jpg,Fear,Blue,Images/Blue.jpg,space,ParentConditions/YellowBlueBlue_v1.xlsx,BlueBlueYellow,Conditions/Version_1/YellowHappyStop.xlsx,no,PASS,0.03529836358299465,,,,,,,,,0,0,0,0,0,0,0,0,0,73,73,73,,,,,,,,,,,,,,,,,,,,,,,,,,,,,,,,,,,,,,,,,,,,,,,,,,,,,,,,,,,,,,,,,,,,,,,,,,,,,,,1.68,536.7950380999973,None,None,0,,538.5995854999928,None,538.5995854999928,None,538.5995854999928,None,,,,,,,,,,,P020,fencog,1,Pre,2021_Nov_09_1057,Go No-Go Task,2021.1.4,120.9594991215722,
,"Rule: When you see a yellow image, do not press 'spacebar'.",Images/Happy/BF18_HO.jpg,Happy,Yellow,Images/Yellow.jpg,None,ParentConditions/YellowBlueBlue_v1.xlsx,BlueBlueYellow,Conditions/Version_1/YellowHappyStop.xlsx,yes,PASS,0.4232691792902379,,,,,,,,,0,0,0,0,0,0,0,0,0,74,74,74,,,,,,,,,,,,,,,,,,,,,,,,,,,,,,,,,,,,,,,,,,,,,,,,,,,,,,,,,,,,,,,,,,,,,,,,,,,,,,,1.22,538.9907125000027,None,None,1,,540.3239743000013,None,540.3239743000013,None,540.3239743000013,None,,,,,,,,,,,P020,fencog,1,Pre,2021_Nov_09_1057,Go No-Go Task,2021.1.4,120.9594991215722,
,"Rule: When you see a yellow image, do not press 'spacebar'.",Images/Fearful/WM12_FO.jpg,Fear,Blue,Images/Blue.jpg,space,ParentConditions/YellowBlueBlue_v1.xlsx,BlueBlueYellow,Conditions/Version_1/YellowHappyStop.xlsx,no,PASS,0.34671640176200413,,,,,,,,,0,0,0,0,0,0,0,0,0,75,75,75,,,,,,,,,,,,,,,,,,,,,,,,,,,,,,,,,,,,,,,,,,,,,,,,,,,,,,,,,,,,,,,,,,,,,,,,,,,,,,,1.3,540.7213494000025,None,space,1,0.2722287999931723,542.1315962999943,None,542.1315962999943,None,542.1315962999943,None,,,,,,,,,,,P020,fencog,1,Pre,2021_Nov_09_1057,Go No-Go Task,2021.1.4,120.9594991215722,
,"Rule: When you see a yellow image, do not press 'spacebar'.",Images/Fearful/BF07_FO.jpg,Fear,Blue,Images/Blue.jpg,space,ParentConditions/YellowBlueBlue_v1.xlsx,BlueBlueYellow,Conditions/Version_1/YellowHappyStop.xlsx,no,PASS,0.2992945798396267,,,,,,,,,0,0,0,0,0,0,0,0,0,76,76,76,,,,,,,,,,,,,,,,,,,,,,,,,,,,,,,,,,,,,,,,,,,,,,,,,,,,,,,,,,,,,,,,,,,,,,,,,,,,,,,1.95,542.5309430000052,None,None,0,,544.5892999999924,None,544.5892999999924,None,544.5892999999924,None,,,,,,,,,,,P020,fencog,1,Pre,2021_Nov_09_1057,Go No-Go Task,2021.1.4,120.9594991215722,
,"Rule: When you see a yellow image, do not press 'spacebar'.",Images/Fearful/HF10_FO.jpg,Fear,Blue,Images/Blue.jpg,space,ParentConditions/YellowBlueBlue_v1.xlsx,BlueBlueYellow,Conditions/Version_1/YellowHappyStop.xlsx,no,PASS,0.06506977473557796,,,,,,,,,0,0,0,0,0,0,0,0,0,77,77,77,,,,,,,,,,,,,,,,,,,,,,,,,,,,,,,,,,,,,,,,,,,,,,,,,,,,,,,,,,,,,,,,,,,,,,,,,,,,,,,1.71,544.9865208999981,None,space,1,0.24621389999811072,546.8055288000032,None,546.8055288000032,None,546.8055288000032,None,,,,,,,,,,,P020,fencog,1,Pre,2021_Nov_09_1057,Go No-Go Task,2021.1.4,120.9594991215722,
,"Rule: When you see a yellow image, do not press 'spacebar'.",Images/Fearful/AM10AFS.jpg,Fear,Blue,Images/Blue.jpg,space,ParentConditions/YellowBlueBlue_v1.xlsx,BlueBlueYellow,Conditions/Version_1/YellowHappyStop.xlsx,no,PASS,0.4391085826227009,,,,,,,,,0,0,0,0,0,0,0,0,0,78,78,78,,,,,,,,,,,,,,,,,,,,,,,,,,,,,,,,,,,,,,,,,,,,,,,,,,,,,,,,,,,,,,,,,,,,,,,,,,,,,,,1.92,547.2017636999954,None,space,1,0.29350939999858383,549.2463367000018,None,549.2463367000018,None,549.2463367000018,None,,,,,,,,,,,P020,fencog,1,Pre,2021_Nov_09_1057,Go No-Go Task,2021.1.4,120.9594991215722,
,"Rule: When you see a yellow image, do not press 'spacebar'.",Images/Happy/AM23HAS.jpg,Happy,Yellow,Images/Yellow.jpg,None,ParentConditions/YellowBlueBlue_v1.xlsx,BlueBlueYellow,Conditions/Version_1/YellowHappyStop.xlsx,yes,PASS,0.8296456455429673,,,,,,,,,0,0,0,0,0,0,0,0,0,79,79,79,,,,,,,,,,,,,,,,,,,,,,,,,,,,,,,,,,,,,,,,,,,,,,,,,,,,,,,,,,,,,,,,,,,,,,,,,,,,,,,1.2,549.6373593000026,None,None,1,,550.954184599992,None,550.954184599992,None,550.954184599992,None,,,,,,,,,,,P020,fencog,1,Pre,2021_Nov_09_1057,Go No-Go Task,2021.1.4,120.9594991215722,
,"Rule: When you see blue image, do not press 'spacebar'.",Images/Fearful/HM06_FC.jpg,Fear,Blue,Images/Blue.jpg,None,ParentConditions/YellowBlueBlue_v1.xlsx,BlueBlueYellow,Conditions/Version_1/BlueFearStop.xlsx,yes,PASS,0.7729813006314565,,,,,,,,,0,0,0,0,0,1,1,1,0,0,0,0,,,,,,,,,,,,,,,,,,,,,,,,,,,,,,,,,,,,,,,,,,,,,,,,,,,,,,,,,,,,,,,,,584.5489832000021,None,587.5344313999958,None,space,9.781225600003381,587.5344313999958,None,584.5489832000021,None,584.5489832000021,None,584.5489832000021,None,1.75,597.3765664999955,None,None,1,,599.2398239000031,None,599.2398239000031,None,599.2398239000031,None,551.3742575999931,None,space,32.66222659999039,551.8615162999922,None,551.3742575999931,None,551.3742575999931,None,P020,fencog,1,Pre,2021_Nov_09_1057,Go No-Go Task,2021.1.4,120.9594991215722,
,"Rule: When you see blue image, do not press 'spacebar'.",Images/Happy/AF07HAS.jpg,Happy,Yellow,Images/Yellow.jpg,space,ParentConditions/YellowBlueBlue_v1.xlsx,BlueBlueYellow,Conditions/Version_1/BlueFearStop.xlsx,no,PASS,0.4924453653062516,,,,,,,,,0,0,0,0,0,1,1,1,0,1,1,1,,,,,,,,,,,,,,,,,,,,,,,,,,,,,,,,,,,,,,,,,,,,,,,,,,,,,,,,,,,,,,,,,,,,,,,,,,,,,,,2,599.6431141999929,None,space,1,0.23192599999310914,601.7558140000037,None,601.7558140000037,None,601.7558140000037,None,,,,,,,,,,,P020,fencog,1,Pre,2021_Nov_09_1057,Go No-Go Task,2021.1.4,120.9594991215722,
,"Rule: When you see blue image, do not press 'spacebar'.",Images/Happy/AF28HAS.jpg,Happy,Yellow,Images/Yellow.jpg,space,ParentConditions/YellowBlueBlue_v1.xlsx,BlueBlueYellow,Conditions/Version_1/BlueFearStop.xlsx,no,PASS,0.8943473655540664,,,,,,,,,0,0,0,0,0,1,1,1,0,2,2,2,,,,,,,,,,,,,,,,,,,,,,,,,,,,,,,,,,,,,,,,,,,,,,,,,,,,,,,,,,,,,,,,,,,,,,,,,,,,,,,1.31,602.1499623999989,None,space,1,0.27968170000531245,603.571944700001,None,603.571944700001,None,603.571944700001,None,,,,,,,,,,,P020,fencog,1,Pre,2021_Nov_09_1057,Go No-Go Task,2021.1.4,120.9594991215722,
,"Rule: When you see blue image, do not press 'spacebar'.",Images/Happy/AF22HAS.jpg,Happy,Yellow,Images/Yellow.jpg,space,ParentConditions/YellowBlueBlue_v1.xlsx,BlueBlueYellow,Conditions/Version_1/BlueFearStop.xlsx,no,PASS,0.5892765061873407,,,,,,,,,0,0,0,0,0,1,1,1,0,3,3,3,,,,,,,,,,,,,,,,,,,,,,,,,,,,,,,,,,,,,,,,,,,,,,,,,,,,,,,,,,,,,,,,,,,,,,,,,,,,,,,1.33,603.9765027999965,None,space,1,0.2782312000053935,605.4214024999965,None,605.4214024999965,None,605.4214024999965,None,,,,,,,,,,,P020,fencog,1,Pre,2021_Nov_09_1057,Go No-Go Task,2021.1.4,120.9594991215722,
,"Rule: When you see blue image, do not press 'spacebar'.",Images/Fearful/AF27AFS.jpg,Fear,Blue,Images/Blue.jpg,None,ParentConditions/YellowBlueBlue_v1.xlsx,BlueBlueYellow,Conditions/Version_1/BlueFearStop.xlsx,yes,PASS,0.41428581318896585,,,,,,,,,0,0,0,0,0,1,1,1,0,4,4,4,,,,,,,,,,,,,,,,,,,,,,,,,,,,,,,,,,,,,,,,,,,,,,,,,,,,,,,,,,,,,,,,,,,,,,,,,,,,,,,1.68,605.8181976000051,None,None,1,,607.6124006000027,None,607.6124006000027,None,607.6124006000027,None,,,,,,,,,,,P020,fencog,1,Pre,2021_Nov_09_1057,Go No-Go Task,2021.1.4,120.9594991215722,
,"Rule: When you see blue image, do not press 'spacebar'.",Images/Happy/AM24HAS.jpg,Happy,Yellow,Images/Yellow.jpg,space,ParentConditions/YellowBlueBlue_v1.xlsx,BlueBlueYellow,Conditions/Version_1/BlueFearStop.xlsx,no,PASS,0.8126867400025187,,,,,,,,,0,0,0,0,0,1,1,1,0,5,5,5,,,,,,,,,,,,,,,,,,,,,,,,,,,,,,,,,,,,,,,,,,,,,,,,,,,,,,,,,,,,,,,,,,,,,,,,,,,,,,,1.98,608.0131898999971,None,space,1,0.252229100005934,610.1033620999951,None,610.1033620999951,None,610.1033620999951,None,,,,,,,,,,,P020,fencog,1,Pre,2021_Nov_09_1057,Go No-Go Task,2021.1.4,120.9594991215722,
,"Rule: When you see blue image, do not press 'spacebar'.",Images/Fearful/AF26AFS.jpg,Fear,Blue,Images/Blue.jpg,None,ParentConditions/YellowBlueBlue_v1.xlsx,BlueBlueYellow,Conditions/Version_1/BlueFearStop.xlsx,yes,PASS,0.7771539142714355,,,,,,,,,0,0,0,0,0,1,1,1,0,6,6,6,,,,,,,,,,,,,,,,,,,,,,,,,,,,,,,,,,,,,,,,,,,,,,,,,,,,,,,,,,,,,,,,,,,,,,,,,,,,,,,1.85,610.5012579000031,None,None,1,,612.4610085000022,None,612.4610085000022,None,612.4610085000022,None,,,,,,,,,,,P020,fencog,1,Pre,2021_Nov_09_1057,Go No-Go Task,2021.1.4,120.9594991215722,
,"Rule: When you see blue image, do not press 'spacebar'.",Images/Happy/WM11_HC.jpg,Happy,Yellow,Images/Yellow.jpg,space,ParentConditions/YellowBlueBlue_v1.xlsx,BlueBlueYellow,Conditions/Version_1/BlueFearStop.xlsx,no,PASS,0.612727142386838,,,,,,,,,0,0,0,0,0,1,1,1,0,7,7,7,,,,,,,,,,,,,,,,,,,,,,,,,,,,,,,,,,,,,,,,,,,,,,,,,,,,,,,,,,,,,,,,,,,,,,,,,,,,,,,1.46,612.8617233999976,None,space,1,0.28804899999522604,614.4436893999955,None,614.4436893999955,None,614.4436893999955,None,,,,,,,,,,,P020,fencog,1,Pre,2021_Nov_09_1057,Go No-Go Task,2021.1.4,120.9594991215722,
,"Rule: When you see blue image, do not press 'spacebar'.",Images/Happy/BM03_HO.jpg,Happy,Yellow,Images/Yellow.jpg,space,ParentConditions/YellowBlueBlue_v1.xlsx,BlueBlueYellow,Conditions/Version_1/BlueFearStop.xlsx,no,PASS,0.7313165030586903,,,,,,,,,0,0,0,0,0,1,1,1,0,8,8,8,,,,,,,,,,,,,,,,,,,,,,,,,,,,,,,,,,,,,,,,,,,,,,,,,,,,,,,,,,,,,,,,,,,,,,,,,,,,,,,1.53,614.8371979999938,None,space,1,0.2791553999995813,616.4765990000014,None,616.4765990000014,None,616.4765990000014,None,,,,,,,,,,,P020,fencog,1,Pre,2021_Nov_09_1057,Go No-Go Task,2021.1.4,120.9594991215722,
,"Rule: When you see blue image, do not press 'spacebar'.",Images/Happy/BF18_HO.jpg,Happy,Yellow,Images/Yellow.jpg,space,ParentConditions/YellowBlueBlue_v1.xlsx,BlueBlueYellow,Conditions/Version_1/BlueFearStop.xlsx,no,PASS,0.5715935528670182,,,,,,,,,0,0,0,0,0,1,1,1,0,9,9,9,,,,,,,,,,,,,,,,,,,,,,,,,,,,,,,,,,,,,,,,,,,,,,,,,,,,,,,,,,,,,,,,,,,,,,,,,,,,,,,1.23,616.8806699999986,None,space,1,0.29018349999387283,618.2177093999926,None,618.2177093999926,None,618.2177093999926,None,,,,,,,,,,,P020,fencog,1,Pre,2021_Nov_09_1057,Go No-Go Task,2021.1.4,120.9594991215722,
,"Rule: When you see blue image, do not press 'spacebar'.",Images/Happy/AM10HAS.jpg,Happy,Yellow,Images/Yellow.jpg,space,ParentConditions/YellowBlueBlue_v1.xlsx,BlueBlueYellow,Conditions/Version_1/BlueFearStop.xlsx,no,PASS,0.4742386996589605,,,,,,,,,0,0,0,0,0,1,1,1,0,10,10,10,,,,,,,,,,,,,,,,,,,,,,,,,,,,,,,,,,,,,,,,,,,,,,,,,,,,,,,,,,,,,,,,,,,,,,,,,,,,,,,1.93,618.6193357000011,None,space,1,0.2816727000026731,620.6585449999984,None,620.6585449999984,None,620.6585449999984,None,,,,,,,,,,,P020,fencog,1,Pre,2021_Nov_09_1057,Go No-Go Task,2021.1.4,120.9594991215722,
,"Rule: When you see blue image, do not press 'spacebar'.",Images/Happy/AM09HAS.jpg,Happy,Yellow,Images/Yellow.jpg,space,ParentConditions/YellowBlueBlue_v1.xlsx,BlueBlueYellow,Conditions/Version_1/BlueFearStop.xlsx,no,PASS,0.5791375189576048,,,,,,,,,0,0,0,0,0,1,1,1,0,11,11,11,,,,,,,,,,,,,,,,,,,,,,,,,,,,,,,,,,,,,,,,,,,,,,,,,,,,,,,,,,,,,,,,,,,,,,,,,,,,,,,1.84,621.0562231999938,None,space,1,0.3240646999911405,623.0079109999933,None,623.0079109999933,None,623.0079109999933,None,,,,,,,,,,,P020,fencog,1,Pre,2021_Nov_09_1057,Go No-Go Task,2021.1.4,120.9594991215722,
,"Rule: When you see blue image, do not press 'spacebar'.",Images/Happy/AM16HAS.jpg,Happy,Yellow,Images/Yellow.jpg,space,ParentConditions/YellowBlueBlue_v1.xlsx,BlueBlueYellow,Conditions/Version_1/BlueFearStop.xlsx,no,PASS,0.06851146054747248,,,,,,,,,0,0,0,0,0,1,1,1,0,12,12,12,,,,,,,,,,,,,,,,,,,,,,,,,,,,,,,,,,,,,,,,,,,,,,,,,,,,,,,,,,,,,,,,,,,,,,,,,,,,,,,1.89,623.4122512000031,None,space,1,0.2759836000041105,625.4238488999981,None,625.4238488999981,None,625.4238488999981,None,,,,,,,,,,,P020,fencog,1,Pre,2021_Nov_09_1057,Go No-Go Task,2021.1.4,120.9594991215722,
,"Rule: When you see blue image, do not press 'spacebar'.",Images/Happy/AF10_HE.jpg,Happy,Yellow,Images/Yellow.jpg,space,ParentConditions/YellowBlueBlue_v1.xlsx,BlueBlueYellow,Conditions/Version_1/BlueFearStop.xlsx,no,PASS,0.21267371658214962,,,,,,,,,0,0,0,0,0,1,1,1,0,13,13,13,,,,,,,,,,,,,,,,,,,,,,,,,,,,,,,,,,,,,,,,,,,,,,,,,,,,,,,,,,,,,,,,,,,,,,,,,,,,,,,1.66,625.813905499992,None,space,1,0.2537248000007821,627.5980525999912,None,627.5980525999912,None,627.5980525999912,None,,,,,,,,,,,P020,fencog,1,Pre,2021_Nov_09_1057,Go No-Go Task,2021.1.4,120.9594991215722,
,"Rule: When you see blue image, do not press 'spacebar'.",Images/Happy/AF27HAS.jpg,Happy,Yellow,Images/Yellow.jpg,space,ParentConditions/YellowBlueBlue_v1.xlsx,BlueBlueYellow,Conditions/Version_1/BlueFearStop.xlsx,no,PASS,0.8109673156723475,,,,,,,,,0,0,0,0,0,1,1,1,0,14,14,14,,,,,,,,,,,,,,,,,,,,,,,,,,,,,,,,,,,,,,,,,,,,,,,,,,,,,,,,,,,,,,,,,,,,,,,,,,,,,,,1.63,627.9884611000016,None,space,1,0.2810677000088617,629.7224391000054,None,629.7224391000054,None,629.7224391000054,None,,,,,,,,,,,P020,fencog,1,Pre,2021_Nov_09_1057,Go No-Go Task,2021.1.4,120.9594991215722,
,"Rule: When you see blue image, do not press 'spacebar'.",Images/Happy/BF10_HO.jpg,Happy,Yellow,Images/Yellow.jpg,space,ParentConditions/YellowBlueBlue_v1.xlsx,BlueBlueYellow,Conditions/Version_1/BlueFearStop.xlsx,no,PASS,0.35707259862702334,,,,,,,,,0,0,0,0,0,1,1,1,0,15,15,15,,,,,,,,,,,,,,,,,,,,,,,,,,,,,,,,,,,,,,,,,,,,,,,,,,,,,,,,,,,,,,,,,,,,,,,,,,,,,,,1.69,630.1258095999947,None,space,1,0.2576139000011608,631.9302140999935,None,631.9302140999935,None,631.9302140999935,None,,,,,,,,,,,P020,fencog,1,Pre,2021_Nov_09_1057,Go No-Go Task,2021.1.4,120.9594991215722,
,"Rule: When you see blue image, do not press 'spacebar'.",Images/Happy/BF14_HO.jpg,Happy,Yellow,Images/Yellow.jpg,space,ParentConditions/YellowBlueBlue_v1.xlsx,BlueBlueYellow,Conditions/Version_1/BlueFearStop.xlsx,no,PASS,0.41712793219483124,,,,,,,,,0,0,0,0,0,1,1,1,0,16,16,16,,,,,,,,,,,,,,,,,,,,,,,,,,,,,,,,,,,,,,,,,,,,,,,,,,,,,,,,,,,,,,,,,,,,,,,,,,,,,,,1.81,632.3275324999995,None,space,1,0.25398459999996703,634.2377277999913,None,634.2377277999913,None,634.2377277999913,None,,,,,,,,,,,P020,fencog,1,Pre,2021_Nov_09_1057,Go No-Go Task,2021.1.4,120.9594991215722,
,"Rule: When you see blue image, do not press 'spacebar'.",Images/Fearful/BM08_FC.jpg,Fear,Blue,Images/Blue.jpg,None,ParentConditions/YellowBlueBlue_v1.xlsx,BlueBlueYellow,Conditions/Version_1/BlueFearStop.xlsx,yes,PASS,0.2777606849347436,,,,,,,,,0,0,0,0,0,1,1,1,0,17,17,17,,,,,,,,,,,,,,,,,,,,,,,,,,,,,,,,,,,,,,,,,,,,,,,,,,,,,,,,,,,,,,,,,,,,,,,,,,,,,,,1.49,634.6426412000001,None,None,1,,636.2372912999999,None,636.2372912999999,None,636.2372912999999,None,,,,,,,,,,,P020,fencog,1,Pre,2021_Nov_09_1057,Go No-Go Task,2021.1.4,120.9594991215722,
,"Rule: When you see blue image, do not press 'spacebar'.",Images/Happy/AM01HAS.jpg,Happy,Yellow,Images/Yellow.jpg,space,ParentConditions/YellowBlueBlue_v1.xlsx,BlueBlueYellow,Conditions/Version_1/BlueFearStop.xlsx,no,PASS,0.43160138117116176,,,,,,,,,0,0,0,0,0,1,1,1,0,18,18,18,,,,,,,,,,,,,,,,,,,,,,,,,,,,,,,,,,,,,,,,,,,,,,,,,,,,,,,,,,,,,,,,,,,,,,,,,,,,,,,1.76,636.6447421000048,None,space,1,0.2519514000014169,638.5199014999962,None,638.5199014999962,None,638.5199014999962,None,,,,,,,,,,,P020,fencog,1,Pre,2021_Nov_09_1057,Go No-Go Task,2021.1.4,120.9594991215722,
,"Rule: When you see blue image, do not press 'spacebar'.",Images/Happy/AF11HAS.jpg,Happy,Yellow,Images/Yellow.jpg,space,ParentConditions/YellowBlueBlue_v1.xlsx,BlueBlueYellow,Conditions/Version_1/BlueFearStop.xlsx,no,PASS,0.9696898199968184,,,,,,,,,0,0,0,0,0,1,1,1,0,19,19,19,,,,,,,,,,,,,,,,,,,,,,,,,,,,,,,,,,,,,,,,,,,,,,,,,,,,,,,,,,,,,,,,,,,,,,,,,,,,,,,1.36,638.9252694000024,None,space,1,0.2727616000047419,640.4027238999988,None,640.4027238999988,None,640.4027238999988,None,,,,,,,,,,,P020,fencog,1,Pre,2021_Nov_09_1057,Go No-Go Task,2021.1.4,120.9594991215722,
,"Rule: When you see blue image, do not press 'spacebar'.",Images/Happy/BM01_HO.jpg,Happy,Yellow,Images/Yellow.jpg,space,ParentConditions/YellowBlueBlue_v1.xlsx,BlueBlueYellow,Conditions/Version_1/BlueFearStop.xlsx,no,PASS,0.40182091251260654,,,,,,,,,0,0,0,0,0,1,1,1,0,20,20,20,,,,,,,,,,,,,,,,,,,,,,,,,,,,,,,,,,,,,,,,,,,,,,,,,,,,,,,,,,,,,,,,,,,,,,,,,,,,,,,1.32,640.7969561999926,None,space,1,0.2722252999956254,642.2355826999992,None,642.2355826999992,None,642.2355826999992,None,,,,,,,,,,,P020,fencog,1,Pre,2021_Nov_09_1057,Go No-Go Task,2021.1.4,120.9594991215722,
,"Rule: When you see blue image, do not press 'spacebar'.",Images/Happy/AF07_HO.jpg,Happy,Yellow,Images/Yellow.jpg,space,ParentConditions/YellowBlueBlue_v1.xlsx,BlueBlueYellow,Conditions/Version_1/BlueFearStop.xlsx,no,PASS,0.304860645067783,,,,,,,,,0,0,0,0,0,1,1,1,0,21,21,21,,,,,,,,,,,,,,,,,,,,,,,,,,,,,,,,,,,,,,,,,,,,,,,,,,,,,,,,,,,,,,,,,,,,,,,,,,,,,,,1.42,642.6277222999925,None,space,1,0.2502276000013808,644.1695959999925,None,644.1695959999925,None,644.1695959999925,None,,,,,,,,,,,P020,fencog,1,Pre,2021_Nov_09_1057,Go No-Go Task,2021.1.4,120.9594991215722,
,"Rule: When you see blue image, do not press 'spacebar'.",Images/Happy/HM06_HO.jpg,Happy,Yellow,Images/Yellow.jpg,space,ParentConditions/YellowBlueBlue_v1.xlsx,BlueBlueYellow,Conditions/Version_1/BlueFearStop.xlsx,no,PASS,0.3928744637511502,,,,,,,,,0,0,0,0,0,1,1,1,0,22,22,22,,,,,,,,,,,,,,,,,,,,,,,,,,,,,,,,,,,,,,,,,,,,,,,,,,,,,,,,,,,,,,,,,,,,,,,,,,,,,,,1.48,644.5643975999992,None,space,1,0.2601215000031516,646.1676509999961,None,646.1676509999961,None,646.1676509999961,None,,,,,,,,,,,P020,fencog,1,Pre,2021_Nov_09_1057,Go No-Go Task,2021.1.4,120.9594991215722,
,"Rule: When you see blue image, do not press 'spacebar'.",Images/Fearful/AM09_FO.jpg,Fear,Blue,Images/Blue.jpg,None,ParentConditions/YellowBlueBlue_v1.xlsx,BlueBlueYellow,Conditions/Version_1/BlueFearStop.xlsx,yes,PASS,0.17130222782280535,,,,,,,,,0,0,0,0,0,1,1,1,0,23,23,23,,,,,,,,,,,,,,,,,,,,,,,,,,,,,,,,,,,,,,,,,,,,,,,,,,,,,,,,,,,,,,,,,,,,,,,,,,,,,,,1.57,646.5574087999994,None,None,1,,648.2420962000033,None,648.2420962000033,None,648.2420962000033,None,,,,,,,,,,,P020,fencog,1,Pre,2021_Nov_09_1057,Go No-Go Task,2021.1.4,120.9594991215722,
,"Rule: When you see blue image, do not press 'spacebar'.",Images/Happy/AF09HAS.jpg,Happy,Yellow,Images/Yellow.jpg,space,ParentConditions/YellowBlueBlue_v1.xlsx,BlueBlueYellow,Conditions/Version_1/BlueFearStop.xlsx,no,PASS,0.32050850835393896,,,,,,,,,0,0,0,0,0,1,1,1,0,24,24,24,,,,,,,,,,,,,,,,,,,,,,,,,,,,,,,,,,,,,,,,,,,,,,,,,,,,,,,,,,,,,,,,,,,,,,,,,,,,,,,1.83,648.643260900004,None,space,1,0.24466140000731684,650.5912634999986,None,650.5912634999986,None,650.5912634999986,None,,,,,,,,,,,P020,fencog,1,Pre,2021_Nov_09_1057,Go No-Go Task,2021.1.4,120.9594991215722,
,"Rule: When you see blue image, do not press 'spacebar'.",Images/Happy/AM04HAS.jpg,Happy,Yellow,Images/Yellow.jpg,space,ParentConditions/YellowBlueBlue_v1.xlsx,BlueBlueYellow,Conditions/Version_1/BlueFearStop.xlsx,no,PASS,0.17004201555218557,,,,,,,,,0,0,0,0,0,1,1,1,0,25,25,25,,,,,,,,,,,,,,,,,,,,,,,,,,,,,,,,,,,,,,,,,,,,,,,,,,,,,,,,,,,,,,,,,,,,,,,,,,,,,,,1.45,650.9864120999991,None,space,1,0.2863964999996824,652.5493055999978,None,652.5493055999978,None,652.5493055999978,None,,,,,,,,,,,P020,fencog,1,Pre,2021_Nov_09_1057,Go No-Go Task,2021.1.4,120.9594991215722,
,"Rule: When you see blue image, do not press 'spacebar'.",Images/Happy/BF07_HO.jpg,Happy,Yellow,Images/Yellow.jpg,space,ParentConditions/YellowBlueBlue_v1.xlsx,BlueBlueYellow,Conditions/Version_1/BlueFearStop.xlsx,no,PASS,0.9775255982448644,,,,,,,,,0,0,0,0,0,1,1,1,0,26,26,26,,,,,,,,,,,,,,,,,,,,,,,,,,,,,,,,,,,,,,,,,,,,,,,,,,,,,,,,,,,,,,,,,,,,,,,,,,,,,,,1.28,652.9526830999966,None,space,1,0.24741169999470003,654.3486000999983,None,654.3486000999983,None,654.3486000999983,None,,,,,,,,,,,P020,fencog,1,Pre,2021_Nov_09_1057,Go No-Go Task,2021.1.4,120.9594991215722,
,"Rule: When you see blue image, do not press 'spacebar'.",Images/Happy/AF02HAS.jpg,Happy,Yellow,Images/Yellow.jpg,space,ParentConditions/YellowBlueBlue_v1.xlsx,BlueBlueYellow,Conditions/Version_1/BlueFearStop.xlsx,no,PASS,0.9926707513295598,,,,,,,,,0,0,0,0,0,1,1,1,0,27,27,27,,,,,,,,,,,,,,,,,,,,,,,,,,,,,,,,,,,,,,,,,,,,,,,,,,,,,,,,,,,,,,,,,,,,,,,,,,,,,,,1.47,654.7460569999967,None,space,1,0.2798962000088068,656.3398013999977,None,656.3398013999977,None,656.3398013999977,None,,,,,,,,,,,P020,fencog,1,Pre,2021_Nov_09_1057,Go No-Go Task,2021.1.4,120.9594991215722,
,"Rule: When you see blue image, do not press 'spacebar'.",Images/Happy/AM30HAS.jpg,Happy,Yellow,Images/Yellow.jpg,space,ParentConditions/YellowBlueBlue_v1.xlsx,BlueBlueYellow,Conditions/Version_1/BlueFearStop.xlsx,no,PASS,0.6844901636445411,,,,,,,,,0,0,0,0,0,1,1,1,0,28,28,28,,,,,,,,,,,,,,,,,,,,,,,,,,,,,,,,,,,,,,,,,,,,,,,,,,,,,,,,,,,,,,,,,,,,,,,,,,,,,,,1.82,656.7274827999936,None,space,1,0.29984110000077635,658.664037399998,None,658.664037399998,None,658.664037399998,None,,,,,,,,,,,P020,fencog,1,Pre,2021_Nov_09_1057,Go No-Go Task,2021.1.4,120.9594991215722,
,"Rule: When you see blue image, do not press 'spacebar'.",Images/Happy/BF05_HO.jpg,Happy,Yellow,Images/Yellow.jpg,space,ParentConditions/YellowBlueBlue_v1.xlsx,BlueBlueYellow,Conditions/Version_1/BlueFearStop.xlsx,no,PASS,0.010815687417666808,,,,,,,,,0,0,0,0,0,1,1,1,0,29,29,29,,,,,,,,,,,,,,,,,,,,,,,,,,,,,,,,,,,,,,,,,,,,,,,,,,,,,,,,,,,,,,,,,,,,,,,,,,,,,,,1.62,659.0698784999986,None,space,1,0.3191609000059543,660.7967004999955,None,660.7967004999955,None,660.7967004999955,None,,,,,,,,,,,P020,fencog,1,Pre,2021_Nov_09_1057,Go No-Go Task,2021.1.4,120.9594991215722,
,"Rule: When you see blue image, do not press 'spacebar'.",Images/Fearful/AF25AFS.jpg,Fear,Blue,Images/Blue.jpg,None,ParentConditions/YellowBlueBlue_v1.xlsx,BlueBlueYellow,Conditions/Version_1/BlueFearStop.xlsx,yes,PASS,0.35816317389786545,,,,,,,,,0,0,0,0,0,1,1,1,0,30,30,30,,,,,,,,,,,,,,,,,,,,,,,,,,,,,,,,,,,,,,,,,,,,,,,,,,,,,,,,,,,,,,,,,,,,,,,,,,,,,,,1.26,661.2013158000045,None,None,1,,662.5711714999925,None,662.5711714999925,None,662.5711714999925,None,,,,,,,,,,,P020,fencog,1,Pre,2021_Nov_09_1057,Go No-Go Task,2021.1.4,120.9594991215722,
,"Rule: When you see blue image, do not press 'spacebar'.",Images/Happy/BF09_HO.jpg,Happy,Yellow,Images/Yellow.jpg,space,ParentConditions/YellowBlueBlue_v1.xlsx,BlueBlueYellow,Conditions/Version_1/BlueFearStop.xlsx,no,PASS,0.3783419276063734,,,,,,,,,0,0,0,0,0,1,1,1,0,31,31,31,,,,,,,,,,,,,,,,,,,,,,,,,,,,,,,,,,,,,,,,,,,,,,,,,,,,,,,,,,,,,,,,,,,,,,,,,,,,,,,1.3,662.9661286000046,None,space,1,0.3609131000121124,664.3787464999914,None,664.3787464999914,None,664.3787464999914,None,,,,,,,,,,,P020,fencog,1,Pre,2021_Nov_09_1057,Go No-Go Task,2021.1.4,120.9594991215722,
,"Rule: When you see blue image, do not press 'spacebar'.",Images/Happy/AM09_HE.jpg,Happy,Yellow,Images/Yellow.jpg,space,ParentConditions/YellowBlueBlue_v1.xlsx,BlueBlueYellow,Conditions/Version_1/BlueFearStop.xlsx,no,PASS,0.21016465424314756,,,,,,,,,0,0,0,0,0,1,1,1,0,32,32,32,,,,,,,,,,,,,,,,,,,,,,,,,,,,,,,,,,,,,,,,,,,,,,,,,,,,,,,,,,,,,,,,,,,,,,,,,,,,,,,1.2,664.7791585999948,None,space,1,0.23680379999859724,666.0951662000007,None,666.0951662000007,None,666.0951662000007,None,,,,,,,,,,,P020,fencog,1,Pre,2021_Nov_09_1057,Go No-Go Task,2021.1.4,120.9594991215722,
,"Rule: When you see blue image, do not press 'spacebar'.",Images/Fearful/BF14_FO.jpg,Fear,Blue,Images/Blue.jpg,None,ParentConditions/YellowBlueBlue_v1.xlsx,BlueBlueYellow,Conditions/Version_1/BlueFearStop.xlsx,yes,PASS,0.9618360969741386,,,,,,,,,0,0,0,0,0,1,1,1,0,33,33,33,,,,,,,,,,,,,,,,,,,,,,,,,,,,,,,,,,,,,,,,,,,,,,,,,,,,,,,,,,,,,,,,,,,,,,,,,,,,,,,1.8,666.4928236999986,None,None,1,,668.4027974000055,None,668.4027974000055,None,668.4027974000055,None,,,,,,,,,,,P020,fencog,1,Pre,2021_Nov_09_1057,Go No-Go Task,2021.1.4,120.9594991215722,
,"Rule: When you see blue image, do not press 'spacebar'.",Images/Fearful/HF05_FC.jpg,Fear,Blue,Images/Blue.jpg,None,ParentConditions/YellowBlueBlue_v1.xlsx,BlueBlueYellow,Conditions/Version_1/BlueFearStop.xlsx,yes,PASS,0.005236598035567086,,,,,,,,,0,0,0,0,0,1,1,1,0,34,34,34,,,,,,,,,,,,,,,,,,,,,,,,,,,,,,,,,,,,,,,,,,,,,,,,,,,,,,,,,,,,,,,,,,,,,,,,,,,,,,,1.24,668.8068713999965,None,None,1,,670.1523141999933,None,670.1523141999933,None,670.1523141999933,None,,,,,,,,,,,P020,fencog,1,Pre,2021_Nov_09_1057,Go No-Go Task,2021.1.4,120.9594991215722,
,"Rule: When you see blue image, do not press 'spacebar'.",Images/Happy/AM23HAS.jpg,Happy,Yellow,Images/Yellow.jpg,space,ParentConditions/YellowBlueBlue_v1.xlsx,BlueBlueYellow,Conditions/Version_1/BlueFearStop.xlsx,no,PASS,0.13077339503157293,,,,,,,,,0,0,0,0,0,1,1,1,0,35,35,35,,,,,,,,,,,,,,,,,,,,,,,,,,,,,,,,,,,,,,,,,,,,,,,,,,,,,,,,,,,,,,,,,,,,,,,,,,,,,,,1.73,670.5552196999924,None,space,1,0.25067520000447985,672.3931031999964,None,672.3931031999964,None,672.3931031999964,None,,,,,,,,,,,P020,fencog,1,Pre,2021_Nov_09_1057,Go No-Go Task,2021.1.4,120.9594991215722,
,"Rule: When you see blue image, do not press 'spacebar'.",Images/Happy/AM03_HO.jpg,Happy,Yellow,Images/Yellow.jpg,space,ParentConditions/YellowBlueBlue_v1.xlsx,BlueBlueYellow,Conditions/Version_1/BlueFearStop.xlsx,no,PASS,0.29520703840296547,,,,,,,,,0,0,0,0,0,1,1,1,0,36,36,36,,,,,,,,,,,,,,,,,,,,,,,,,,,,,,,,,,,,,,,,,,,,,,,,,,,,,,,,,,,,,,,,,,,,,,,,,,,,,,,1.5,672.7915080999956,None,None,0,,674.401060499993,None,674.401060499993,None,674.401060499993,None,,,,,,,,,,,P020,fencog,1,Pre,2021_Nov_09_1057,Go No-Go Task,2021.1.4,120.9594991215722,
,"Rule: When you see blue image, do not press 'spacebar'.",Images/Happy/AF25HAS.jpg,Happy,Yellow,Images/Yellow.jpg,space,ParentConditions/YellowBlueBlue_v1.xlsx,BlueBlueYellow,Conditions/Version_1/BlueFearStop.xlsx,no,PASS,0.3205802973983102,,,,,,,,,0,0,0,0,0,1,1,1,0,37,37,37,,,,,,,,,,,,,,,,,,,,,,,,,,,,,,,,,,,,,,,,,,,,,,,,,,,,,,,,,,,,,,,,,,,,,,,,,,,,,,,1.9,674.7995977999963,None,space,1,0.2511328999971738,676.8085628999979,None,676.8085628999979,None,676.8085628999979,None,,,,,,,,,,,P020,fencog,1,Pre,2021_Nov_09_1057,Go No-Go Task,2021.1.4,120.9594991215722,
,"Rule: When you see blue image, do not press 'spacebar'.",Images/Happy/BM08_HO.jpg,Happy,Yellow,Images/Yellow.jpg,space,ParentConditions/YellowBlueBlue_v1.xlsx,BlueBlueYellow,Conditions/Version_1/BlueFearStop.xlsx,no,PASS,0.9250231228335681,,,,,,,,,0,0,0,0,0,1,1,1,0,38,38,38,,,,,,,,,,,,,,,,,,,,,,,,,,,,,,,,,,,,,,,,,,,,,,,,,,,,,,,,,,,,,,,,,,,,,,,,,,,,,,,1.72,677.2068547999952,None,space,1,0.25017420000222046,679.0414377999987,None,679.0414377999987,None,679.0414377999987,None,,,,,,,,,,,P020,fencog,1,Pre,2021_Nov_09_1057,Go No-Go Task,2021.1.4,120.9594991215722,
,"Rule: When you see blue image, do not press 'spacebar'.",Images/Happy/AF32HAS.jpg,Happy,Yellow,Images/Yellow.jpg,space,ParentConditions/YellowBlueBlue_v1.xlsx,BlueBlueYellow,Conditions/Version_1/BlueFearStop.xlsx,no,PASS,0.73804934699979,,,,,,,,,0,0,0,0,0,1,1,1,0,39,39,39,,,,,,,,,,,,,,,,,,,,,,,,,,,,,,,,,,,,,,,,,,,,,,,,,,,,,,,,,,,,,,,,,,,,,,,,,,,,,,,1.88,679.4471058000054,None,space,1,0.22738170000957325,681.432407500004,None,681.432407500004,None,681.432407500004,None,,,,,,,,,,,P020,fencog,1,Pre,2021_Nov_09_1057,Go No-Go Task,2021.1.4,120.9594991215722,
,"Rule: When you see blue image, do not press 'spacebar'.",Images/Happy/AF23HAS.jpg,Happy,Yellow,Images/Yellow.jpg,space,ParentConditions/YellowBlueBlue_v1.xlsx,BlueBlueYellow,Conditions/Version_1/BlueFearStop.xlsx,no,PASS,0.9000246195519893,,,,,,,,,0,0,0,0,0,1,1,1,0,40,40,40,,,,,,,,,,,,,,,,,,,,,,,,,,,,,,,,,,,,,,,,,,,,,,,,,,,,,,,,,,,,,,,,,,,,,,,,,,,,,,,1.38,681.8425076999993,None,space,1,0.24003439999069087,683.3317373000027,None,683.3317373000027,None,683.3317373000027,None,,,,,,,,,,,P020,fencog,1,Pre,2021_Nov_09_1057,Go No-Go Task,2021.1.4,120.9594991215722,
,"Rule: When you see blue image, do not press 'spacebar'.",Images/Happy/AM32HAS.jpg,Happy,Yellow,Images/Yellow.jpg,space,ParentConditions/YellowBlueBlue_v1.xlsx,BlueBlueYellow,Conditions/Version_1/BlueFearStop.xlsx,no,PASS,0.738989629625258,,,,,,,,,0,0,0,0,0,1,1,1,0,41,41,41,,,,,,,,,,,,,,,,,,,,,,,,,,,,,,,,,,,,,,,,,,,,,,,,,,,,,,,,,,,,,,,,,,,,,,,,,,,,,,,1.34,683.7329453999992,None,space,1,0.21470689999114256,685.1811283999996,None,685.1811283999996,None,685.1811283999996,None,,,,,,,,,,,P020,fencog,1,Pre,2021_Nov_09_1057,Go No-Go Task,2021.1.4,120.9594991215722,
,"Rule: When you see blue image, do not press 'spacebar'.",Images/Fearful/AM30AFS.jpg,Fear,Blue,Images/Blue.jpg,None,ParentConditions/YellowBlueBlue_v1.xlsx,BlueBlueYellow,Conditions/Version_1/BlueFearStop.xlsx,yes,PASS,0.33529906039128465,,,,,,,,,0,0,0,0,0,1,1,1,0,42,42,42,,,,,,,,,,,,,,,,,,,,,,,,,,,,,,,,,,,,,,,,,,,,,,,,,,,,,,,,,,,,,,,,,,,,,,,,,,,,,,,1.21,685.5748606999987,None,None,1,,686.8885508999956,None,686.8885508999956,None,686.8885508999956,None,,,,,,,,,,,P020,fencog,1,Pre,2021_Nov_09_1057,Go No-Go Task,2021.1.4,120.9594991215722,
,"Rule: When you see blue image, do not press 'spacebar'.",Images/Happy/BM02_HO.jpg,Happy,Yellow,Images/Yellow.jpg,space,ParentConditions/YellowBlueBlue_v1.xlsx,BlueBlueYellow,Conditions/Version_1/BlueFearStop.xlsx,no,PASS,0.711648218321579,,,,,,,,,0,0,0,0,0,1,1,1,0,43,43,43,,,,,,,,,,,,,,,,,,,,,,,,,,,,,,,,,,,,,,,,,,,,,,,,,,,,,,,,,,,,,,,,,,,,,,,,,,,,,,,1.6,687.2919207999948,None,space,1,0.24660450000374112,689.0050383000053,None,689.0050383000053,None,689.0050383000053,None,,,,,,,,,,,P020,fencog,1,Pre,2021_Nov_09_1057,Go No-Go Task,2021.1.4,120.9594991215722,
,"Rule: When you see blue image, do not press 'spacebar'.",Images/Happy/AM10_HO.jpg,Happy,Yellow,Images/Yellow.jpg,space,ParentConditions/YellowBlueBlue_v1.xlsx,BlueBlueYellow,Conditions/Version_1/BlueFearStop.xlsx,no,PASS,0.7811025651589869,,,,,,,,,0,0,0,0,0,1,1,1,0,44,44,44,,,,,,,,,,,,,,,,,,,,,,,,,,,,,,,,,,,,,,,,,,,,,,,,,,,,,,,,,,,,,,,,,,,,,,,,,,,,,,,1.99,689.408090500001,None,space,1,0.23569219998898916,691.5043617000047,None,691.5043617000047,None,691.5043617000047,None,,,,,,,,,,,P020,fencog,1,Pre,2021_Nov_09_1057,Go No-Go Task,2021.1.4,120.9594991215722,
,"Rule: When you see blue image, do not press 'spacebar'.",Images/Fearful/AM10_FO.jpg,Fear,Blue,Images/Blue.jpg,None,ParentConditions/YellowBlueBlue_v1.xlsx,BlueBlueYellow,Conditions/Version_1/BlueFearStop.xlsx,yes,PASS,0.14747063444404174,,,,,,,,,0,0,0,0,0,1,1,1,0,45,45,45,,,,,,,,,,,,,,,,,,,,,,,,,,,,,,,,,,,,,,,,,,,,,,,,,,,,,,,,,,,,,,,,,,,,,,,,,,,,,,,1.65,691.9087516,None,None,1,,693.6620205999934,None,693.6620205999934,None,693.6620205999934,None,,,,,,,,,,,P020,fencog,1,Pre,2021_Nov_09_1057,Go No-Go Task,2021.1.4,120.9594991215722,
,"Rule: When you see blue image, do not press 'spacebar'.",Images/Happy/AF19HAS.jpg,Happy,Yellow,Images/Yellow.jpg,space,ParentConditions/YellowBlueBlue_v1.xlsx,BlueBlueYellow,Conditions/Version_1/BlueFearStop.xlsx,no,PASS,0.5734484599929517,,,,,,,,,0,0,0,0,0,1,1,1,0,46,46,46,,,,,,,,,,,,,,,,,,,,,,,,,,,,,,,,,,,,,,,,,,,,,,,,,,,,,,,,,,,,,,,,,,,,,,,,,,,,,,,1.37,694.0610860000015,None,space,1,0.2589894000120694,695.5447230999998,None,695.5447230999998,None,695.5447230999998,None,,,,,,,,,,,P020,fencog,1,Pre,2021_Nov_09_1057,Go No-Go Task,2021.1.4,120.9594991215722,
,"Rule: When you see blue image, do not press 'spacebar'.",Images/Fearful/HF09_FC.jpg,Fear,Blue,Images/Blue.jpg,None,ParentConditions/YellowBlueBlue_v1.xlsx,BlueBlueYellow,Conditions/Version_1/BlueFearStop.xlsx,yes,PASS,0.19935802832005745,,,,,,,,,0,0,0,0,0,1,1,1,0,47,47,47,,,,,,,,,,,,,,,,,,,,,,,,,,,,,,,,,,,,,,,,,,,,,,,,,,,,,,,,,,,,,,,,,,,,,,,,,,,,,,,1.79,695.9495879000024,None,None,1,,697.8436933000048,None,697.8436933000048,None,697.8436933000048,None,,,,,,,,,,,P020,fencog,1,Pre,2021_Nov_09_1057,Go No-Go Task,2021.1.4,120.9594991215722,
,"Rule: When you see blue image, do not press 'spacebar'.",Images/Fearful/AM22AFS.jpg,Fear,Blue,Images/Blue.jpg,None,ParentConditions/YellowBlueBlue_v1.xlsx,BlueBlueYellow,Conditions/Version_1/BlueFearStop.xlsx,yes,PASS,0.17276378175067786,,,,,,,,,0,0,0,0,0,1,1,1,0,48,48,48,,,,,,,,,,,,,,,,,,,,,,,,,,,,,,,,,,,,,,,,,,,,,,,,,,,,,,,,,,,,,,,,,,,,,,,,,,,,,,,1.67,698.242780200002,None,None,1,,700.0267218999943,None,700.0267218999943,None,700.0267218999943,None,,,,,,,,,,,P020,fencog,1,Pre,2021_Nov_09_1057,Go No-Go Task,2021.1.4,120.9594991215722,
,"Rule: When you see blue image, do not press 'spacebar'.",Images/Happy/AM06_HC.jpg,Happy,Yellow,Images/Yellow.jpg,space,ParentConditions/YellowBlueBlue_v1.xlsx,BlueBlueYellow,Conditions/Version_1/BlueFearStop.xlsx,no,PASS,0.06320185727949179,,,,,,,,,0,0,0,0,0,1,1,1,0,49,49,49,,,,,,,,,,,,,,,,,,,,,,,,,,,,,,,,,,,,,,,,,,,,,,,,,,,,,,,,,,,,,,,,,,,,,,,,,,,,,,,1.92,700.4294242000033,None,space,1,0.3127980999997817,702.4593863000046,None,702.4593863000046,None,702.4593863000046,None,,,,,,,,,,,P020,fencog,1,Pre,2021_Nov_09_1057,Go No-Go Task,2021.1.4,120.9594991215722,
,"Rule: When you see blue image, do not press 'spacebar'.",Images/Fearful/AM32AFS.jpg,Fear,Blue,Images/Blue.jpg,None,ParentConditions/YellowBlueBlue_v1.xlsx,BlueBlueYellow,Conditions/Version_1/BlueFearStop.xlsx,yes,PASS,0.03468314974069586,,,,,,,,,0,0,0,0,0,1,1,1,0,50,50,50,,,,,,,,,,,,,,,,,,,,,,,,,,,,,,,,,,,,,,,,,,,,,,,,,,,,,,,,,,,,,,,,,,,,,,,,,,,,,,,1.27,702.8615905000042,None,None,1,,704.2337605999928,None,704.2337605999928,None,704.2337605999928,None,,,,,,,,,,,P020,fencog,1,Pre,2021_Nov_09_1057,Go No-Go Task,2021.1.4,120.9594991215722,
,"Rule: When you see blue image, do not press 'spacebar'.",Images/Happy/WF11_HE.jpg,Happy,Yellow,Images/Yellow.jpg,space,ParentConditions/YellowBlueBlue_v1.xlsx,BlueBlueYellow,Conditions/Version_1/BlueFearStop.xlsx,no,PASS,0.5138011133022752,,,,,,,,,0,0,0,0,0,1,1,1,0,51,51,51,,,,,,,,,,,,,,,,,,,,,,,,,,,,,,,,,,,,,,,,,,,,,,,,,,,,,,,,,,,,,,,,,,,,,,,,,,,,,,,1.51,704.6361601999961,None,space,1,0.2652124000014737,706.2582712000003,None,706.2582712000003,None,706.2582712000003,None,,,,,,,,,,,P020,fencog,1,Pre,2021_Nov_09_1057,Go No-Go Task,2021.1.4,120.9594991215722,
,"Rule: When you see blue image, do not press 'spacebar'.",Images/Fearful/AF28AFS.jpg,Fear,Blue,Images/Blue.jpg,None,ParentConditions/YellowBlueBlue_v1.xlsx,BlueBlueYellow,Conditions/Version_1/BlueFearStop.xlsx,yes,PASS,0.30204493442130675,,,,,,,,,0,0,0,0,0,1,1,1,0,52,52,52,,,,,,,,,,,,,,,,,,,,,,,,,,,,,,,,,,,,,,,,,,,,,,,,,,,,,,,,,,,,,,,,,,,,,,,,,,,,,,,1.61,706.6557559999928,None,None,1,,708.3659498999914,None,708.3659498999914,None,708.3659498999914,None,,,,,,,,,,,P020,fencog,1,Pre,2021_Nov_09_1057,Go No-Go Task,2021.1.4,120.9594991215722,
,"Rule: When you see blue image, do not press 'spacebar'.",Images/Happy/HF04_HE.jpg,Happy,Yellow,Images/Yellow.jpg,space,ParentConditions/YellowBlueBlue_v1.xlsx,BlueBlueYellow,Conditions/Version_1/BlueFearStop.xlsx,no,PASS,0.05385370360405073,,,,,,,,,0,0,0,0,0,1,1,1,0,53,53,53,,,,,,,,,,,,,,,,,,,,,,,,,,,,,,,,,,,,,,,,,,,,,,,,,,,,,,,,,,,,,,,,,,,,,,,,,,,,,,,1.95,708.7720790000021,None,space,1,0.2600333000009414,710.8236407999939,None,710.8236407999939,None,710.8236407999939,None,,,,,,,,,,,P020,fencog,1,Pre,2021_Nov_09_1057,Go No-Go Task,2021.1.4,120.9594991215722,
,"Rule: When you see blue image, do not press 'spacebar'.",Images/Happy/AM13HAS.jpg,Happy,Yellow,Images/Yellow.jpg,space,ParentConditions/YellowBlueBlue_v1.xlsx,BlueBlueYellow,Conditions/Version_1/BlueFearStop.xlsx,no,PASS,0.9978120552242631,,,,,,,,,0,0,0,0,0,1,1,1,0,54,54,54,,,,,,,,,,,,,,,,,,,,,,,,,,,,,,,,,,,,,,,,,,,,,,,,,,,,,,,,,,,,,,,,,,,,,,,,,,,,,,,1.35,711.2309576999978,None,space,1,0.30575270000554156,712.6897689000034,None,712.6897689000034,None,712.6897689000034,None,,,,,,,,,,,P020,fencog,1,Pre,2021_Nov_09_1057,Go No-Go Task,2021.1.4,120.9594991215722,
,"Rule: When you see blue image, do not press 'spacebar'.",Images/Happy/HF10_HE.jpg,Happy,Yellow,Images/Yellow.jpg,space,ParentConditions/YellowBlueBlue_v1.xlsx,BlueBlueYellow,Conditions/Version_1/BlueFearStop.xlsx,no,PASS,0.7658265452728541,,,,,,,,,0,0,0,0,0,1,1,1,0,55,55,55,,,,,,,,,,,,,,,,,,,,,,,,,,,,,,,,,,,,,,,,,,,,,,,,,,,,,,,,,,,,,,,,,,,,,,,,,,,,,,,1.94,713.0849601999944,None,space,1,0.2647117000014987,715.1389717999991,None,715.1389717999991,None,715.1389717999991,None,,,,,,,,,,,P020,fencog,1,Pre,2021_Nov_09_1057,Go No-Go Task,2021.1.4,120.9594991215722,
,"Rule: When you see blue image, do not press 'spacebar'.",Images/Happy/AM04_HE.jpg,Happy,Yellow,Images/Yellow.jpg,space,ParentConditions/YellowBlueBlue_v1.xlsx,BlueBlueYellow,Conditions/Version_1/BlueFearStop.xlsx,no,PASS,0.8987539961300183,,,,,,,,,0,0,0,0,0,1,1,1,0,56,56,56,,,,,,,,,,,,,,,,,,,,,,,,,,,,,,,,,,,,,,,,,,,,,,,,,,,,,,,,,,,,,,,,,,,,,,,,,,,,,,,1.91,715.5396577999927,None,space,1,0.3201204999932088,717.5715646000026,None,717.5715646000026,None,717.5715646000026,None,,,,,,,,,,,P020,fencog,1,Pre,2021_Nov_09_1057,Go No-Go Task,2021.1.4,120.9594991215722,
