CondFileP,Instructions,FaceE,Express,ColourT,ColourF,CorrectAnsP,MasterCondFile,BlockOrder,CondFile,ColCheck,Triplicate_check,SORT_BY_SMALLEST,EPracticeOuterLoop.thisRepN,EPracticeOuterLoop.thisTrialN,EPracticeOuterLoop.thisN,EPracticeOuterLoop.thisIndex,EPracticeInnerLoop.thisRepN,EPracticeInnerLoop.thisTrialN,EPracticeInnerLoop.thisN,EPracticeInnerLoop.thisIndex,MasterLoop.thisRepN,MasterLoop.thisTrialN,MasterLoop.thisN,MasterLoop.thisIndex,OuterLoop.thisRepN,OuterLoop.thisTrialN,OuterLoop.thisN,OuterLoop.thisIndex,InnerLoop.thisRepN,InnerLoop.thisTrialN,InnerLoop.thisN,InnerLoop.thisIndex,text_13.started,text_13.stopped,key_resp_10.keys,key_resp_10.rt,key_resp_10.started,key_resp_10.stopped,text4.started,text4.stopped,EmotionTaskInstructions1.keys,EmotionTaskInstructions1.rt,EmotionTaskInstructions1.started,EmotionTaskInstructions1.stopped,text_4.started,text_4.stopped,key_resp_5.keys,key_resp_5.rt,key_resp_5.started,key_resp_5.stopped,Text_14.started,Text_14.stopped,key_resp_9.keys,key_resp_9.rt,key_resp_9.started,key_resp_9.stopped,text_5.started,text_5.stopped,text_6.started,text_6.stopped,key_resp_7.keys,key_resp_7.rt,key_resp_7.started,key_resp_7.stopped,text_10.started,text_10.stopped,text_11.started,text_11.stopped,text_12.started,text_12.stopped,ISIjitterPractice,EPracticeISIMarker.started,EPracticeISIMarker.stopped,Pract.keys,Pract.corr,Pract.started,Pract.stopped,PracticeFace.started,PracticeFace.stopped,ColourPractice.started,ColourPractice.stopped,text_7.started,text_7.stopped,Pract.rt,EndOfPractice.started,EndOfPractice.stopped,key_resp_8.keys,key_resp_8.rt,key_resp_8.started,key_resp_8.stopped,text_8.started,text_8.stopped,key_resp_6.keys,key_resp_6.rt,key_resp_6.started,key_resp_6.stopped,text_2.started,text_2.stopped,text_3.started,text_3.stopped,key_resp_3.keys,key_resp_3.rt,key_resp_3.started,key_resp_3.stopped,TaskBlock.started,TaskBlock.stopped,BlockNo1.started,BlockNo1.stopped,OfBlock.started,OfBlock.stopped,ISIjitter,ISImarker.started,ISImarker.stopped,key_resp.keys,key_resp.corr,key_resp.rt,key_resp.started,key_resp.stopped,FaceSet.started,FaceSet.stopped,Colour.started,Colour.stopped,EndBlockText.started,EndBlockText.stopped,key_resp_4.keys,key_resp_4.rt,key_resp_4.started,key_resp_4.stopped,BreakText2.started,BreakText2.stopped,PressToContinue.started,PressToContinue.stopped,participant,Study Name,Task Version (required to run),PRE/POST,date,expName,psychopyVersion,frameRate
,,,,,,,,,,,,,,,,,,,,,,,,,,,,,,,,,42.9137578,None,space,212.2819757,43.9013552,None,,,,,,,,,,,,,,,,,,,,,,,,,,,,,,,,,,,,,,,,,,,,,,,,,,,,,,,,,,,,,,,,,,,,,,,,,,,,,,,,,,,,,,,,,,,,,,,P021,fencog,1,Pre,2021_Dec_10_1240,Go No-Go Task,2021.1.4,120.0202114
,,,,,,,,,,,,,,,,,,,,,,,,,,,,,,,,,,,,,,,257.7278099,None,space,21.4715545,257.7278099,None,,,,,,,,,,,,,,,,,,,,,,,,,,,,,,,,,,,,,,,,,,,,,,,,,,,,,,,,,,,,,,,,,,,,,,,,,,,,,,,,,,,,,,,,,P021,fencog,1,Pre,2021_Dec_10_1240,Go No-Go Task,2021.1.4,120.0202114
,,,,,,,,,,,,,,,,,,,,,,,,,,,,,,,,,,,,,,,,,,,,,279.272077,None,space,11.8393411,279.272077,None,,,,,,,,,,,,,,,,,,,,,,,,,,,,,,,,,,,,,,,,,,,,,,,,,,,,,,,,,,,,,,,,,,,,,,,,,,,,,,,,,,,P021,fencog,1,Pre,2021_Dec_10_1240,Go No-Go Task,2021.1.4,120.0202114
,,,,,,,,,,,,,,,,,,,,,,,,,,,,,,,,,,,,,,,,,,,,,,,,,,,291.1301696,None,space,13.7091762,291.1301696,None,,,,,,,,,,,,,,,,,,,,,,,,,,,,,,,,,,,,,,,,,,,,,,,,,,,,,,,,,,,,,,,,,,,,,,,,,,,,,P021,fencog,1,Pre,2021_Dec_10_1240,Go No-Go Task,2021.1.4,120.0202114
EPracticeConditions/BlueEyes.csv,"Rule: When you see a blue image, do not press 'spacebar'.",Images/Fearful/HM09_FC.jpg,Fear,Blue,Images/Blue.jpg,None,,,,,,,0,0,0,0,0,0,0,0,,,,,,,,,,,,,,,,,,,,,,,,,,,,,,,,,,,,,304.914484,None,307.9063294,None,space,5.2528782,307.9063294,None,304.914484,None,304.914484,None,304.914484,None,1.3,313.2580628,None,None,1,314.7075787,None,314.7075787,None,314.7075787,None,316.1412615,None,,,,,,,,,,,,,,,,,,,,,,,,,,,,,,,,,,,,,,,,,,,,,,,,,,P021,fencog,1,Pre,2021_Dec_10_1240,Go No-Go Task,2021.1.4,120.0202114
EPracticeConditions/BlueEyes.csv,"Rule: When you see a blue image, do not press 'spacebar'.",Images/Happy/HF09_HE.jpg,Happy,Yellow,Images/Yellow.jpg,space,,,,,,,0,0,0,0,0,1,1,6,,,,,,,,,,,,,,,,,,,,,,,,,,,,,,,,,,,,,,,,,,,,,,,,,,,1.7,317.596974,None,None,0,319.4034013,None,319.4034013,None,319.4034013,None,320.3263274,None,,,,,,,,,,,,,,,,,,,,,,,,,,,,,,,,,,,,,,,,,,,,,,,,,,P021,fencog,1,Pre,2021_Dec_10_1240,Go No-Go Task,2021.1.4,120.0202114
EPracticeConditions/BlueEyes.csv,"Rule: When you see a blue image, do not press 'spacebar'.",Images/Happy/HF04_HE.jpg,Happy,Yellow,Images/Yellow.jpg,space,,,,,,,0,0,0,0,0,2,2,4,,,,,,,,,,,,,,,,,,,,,,,,,,,,,,,,,,,,,,,,,,,,,,,,,,,1.2,322.3100495,None,None,0,323.6105744,None,323.6105744,None,323.6105744,None,324.5061551,None,,,,,,,,,,,,,,,,,,,,,,,,,,,,,,,,,,,,,,,,,,,,,,,,,,P021,fencog,1,Pre,2021_Dec_10_1240,Go No-Go Task,2021.1.4,120.0202114
EPracticeConditions/BlueEyes.csv,"Rule: When you see a blue image, do not press 'spacebar'.",Images/Happy/HF10_HE.jpg,Happy,Yellow,Images/Yellow.jpg,space,,,,,,,0,0,0,0,0,3,3,7,,,,,,,,,,,,,,,,,,,,,,,,,,,,,,,,,,,,,,,,,,,,,,,,,,,1.5,326.5092573,None,None,0,328.1091106,None,328.1091106,None,328.1091106,None,329.0053204,None,,,,,,,,,,,,,,,,,,,,,,,,,,,,,,,,,,,,,,,,,,,,,,,,,,P021,fencog,1,Pre,2021_Dec_10_1240,Go No-Go Task,2021.1.4,120.0202114
EPracticeConditions/BlueEyes.csv,"Rule: When you see a blue image, do not press 'spacebar'.",Images/Happy/HF05_HO.jpg,Happy,Yellow,Images/Yellow.jpg,space,,,,,,,0,0,0,0,0,4,4,5,,,,,,,,,,,,,,,,,,,,,,,,,,,,,,,,,,,,,,,,,,,,,,,,,,,1.8,331.0072973,None,space,1,332.924432,None,332.924432,None,332.924432,None,333.8206927,None,0.3548747,,,,,,,,,,,,,,,,,,,,,,,,,,,,,,,,,,,,,,,,,,,,,,,,,P021,fencog,1,Pre,2021_Dec_10_1240,Go No-Go Task,2021.1.4,120.0202114
EPracticeConditions/BlueEyes.csv,"Rule: When you see a blue image, do not press 'spacebar'.",Images/Happy/BM02_HO.jpg,Happy,Yellow,Images/Yellow.jpg,space,,,,,,,0,0,0,0,0,5,5,2,,,,,,,,,,,,,,,,,,,,,,,,,,,,,,,,,,,,,,,,,,,,,,,,,,,1.6,335.8142351,None,space,1,337.5146077,None,337.5146077,None,337.5146077,None,338.4182167,None,0.3808026,,,,,,,,,,,,,,,,,,,,,,,,,,,,,,,,,,,,,,,,,,,,,,,,,P021,fencog,1,Pre,2021_Dec_10_1240,Go No-Go Task,2021.1.4,120.0202114
EPracticeConditions/BlueEyes.csv,"Rule: When you see a blue image, do not press 'spacebar'.",Images/Happy/BM08_HO.jpg,Happy,Yellow,Images/Yellow.jpg,space,,,,,,,0,0,0,0,0,6,6,3,,,,,,,,,,,,,,,,,,,,,,,,,,,,,,,,,,,,,,,,,,,,,,,,,,,1.9,340.4212515,None,space,1,342.4215831,None,342.4215831,None,342.4215831,None,343.3183644,None,0.3455935,,,,,,,,,,,,,,,,,,,,,,,,,,,,,,,,,,,,,,,,,,,,,,,,,P021,fencog,1,Pre,2021_Dec_10_1240,Go No-Go Task,2021.1.4,120.0202114
EPracticeConditions/BlueEyes.csv,"Rule: When you see a blue image, do not press 'spacebar'.",Images/Fearful/AF01_FO.jpg,Fear,Blue,Images/Blue.jpg,None,,,,,,,0,0,0,0,0,7,7,1,,,,,,,,,,,,,,,,,,,,,,,,,,,,,,,,,,,,,,,,,,,,,,,,,,,1.4,345.3211509,None,None,1,346.8285414,None,346.8285414,None,346.8285414,None,347.7220457,None,,,,,,,,,,,,,,,,,,,,,,,,,,,,,,,,,,,,,,,,,,,,,,,,,,P021,fencog,1,Pre,2021_Dec_10_1240,Go No-Go Task,2021.1.4,120.0202114
EPracticeConditions/BlueEyes.csv,"Rule: When you see a blue image, do not press 'spacebar'.",,,,,,,,,,,,0,0,0,0,,,,,,,,,,,,,,,,,,,,,,,,,,,,,,,,,,,,,,,,,,,,,,,,,,,,,,,,,,,,,,,,,,,,,,,,,,,,,,,,,,,,,,,,,,,,,,,,,,,,,,,,,,,,,,,,,,,,,P021,fencog,1,Pre,2021_Dec_10_1240,Go No-Go Task,2021.1.4,120.0202114
EPracticeConditions/YellowEyes.csv,"Rule: When you see a yellow image, do not press 'spacebar'.",Images/Fearful/AM17AFS.jpg,Fear,Blue,Images/Blue.jpg,space,,,,,,,0,1,1,1,0,0,0,3,,,,,,,,,,,,,,,,,,,,,,,,,,,,,,,,,,,,,349.7509194,None,352.7428742,None,space,1.1922084,352.7428742,None,349.7509194,None,349.7509194,None,349.7509194,None,1.6,353.955053,None,None,0,355.667562,None,355.667562,None,355.667562,None,356.557727,None,,,,,,,,,,,,,,,,,,,,,,,,,,,,,,,,,,,,,,,,,,,,,,,,,,P021,fencog,1,Pre,2021_Dec_10_1240,Go No-Go Task,2021.1.4,120.0202114
EPracticeConditions/YellowEyes.csv,"Rule: When you see a yellow image, do not press 'spacebar'.",Images/Fearful/AM22AFS.jpg,Fear,Blue,Images/Blue.jpg,space,,,,,,,0,1,1,1,0,1,1,5,,,,,,,,,,,,,,,,,,,,,,,,,,,,,,,,,,,,,,,,,,,,,,,,,,,1.7,358.5574992,None,space,1,360.3579596,None,360.3579596,None,360.3579596,None,361.2705427,None,0.3535727,,,,,,,,,,,,,,,,,,,,,,,,,,,,,,,,,,,,,,,,,,,,,,,,,P021,fencog,1,Pre,2021_Dec_10_1240,Go No-Go Task,2021.1.4,120.0202114
EPracticeConditions/YellowEyes.csv,"Rule: When you see a yellow image, do not press 'spacebar'.",Images/Fearful/AM19AFS.jpg,Fear,Blue,Images/Blue.jpg,space,,,,,,,0,1,1,1,0,2,2,4,,,,,,,,,,,,,,,,,,,,,,,,,,,,,,,,,,,,,,,,,,,,,,,,,,,1.3,363.2645024,None,space,1,364.6733379,None,364.6733379,None,364.6733379,None,365.5636921,None,0.3416404,,,,,,,,,,,,,,,,,,,,,,,,,,,,,,,,,,,,,,,,,,,,,,,,,P021,fencog,1,Pre,2021_Dec_10_1240,Go No-Go Task,2021.1.4,120.0202114
EPracticeConditions/YellowEyes.csv,"Rule: When you see a yellow image, do not press 'spacebar'.",Images/Happy/AM32HAS.jpg,Happy,Yellow,Images/Yellow.jpg,None,,,,,,,0,1,1,1,0,3,3,0,,,,,,,,,,,,,,,,,,,,,,,,,,,,,,,,,,,,,,,,,,,,,,,,,,,1.5,367.5672153,None,space,0,369.1719923,None,369.1719923,None,369.1719923,None,370.0736954,None,0.2993253,,,,,,,,,,,,,,,,,,,,,,,,,,,,,,,,,,,,,,,,,,,,,,,,,P021,fencog,1,Pre,2021_Dec_10_1240,Go No-Go Task,2021.1.4,120.0202114
EPracticeConditions/YellowEyes.csv,"Rule: When you see a yellow image, do not press 'spacebar'.",Images/Fearful/AM16AFS.jpg,Fear,Blue,Images/Blue.jpg,space,,,,,,,0,1,1,1,0,4,4,2,,,,,,,,,,,,,,,,,,,,,,,,,,,,,,,,,,,,,,,,,,,,,,,,,,,1.2,372.0785875,None,space,1,373.378836,None,373.378836,None,373.378836,None,374.2693142,None,0.3002483,,,,,,,,,,,,,,,,,,,,,,,,,,,,,,,,,,,,,,,,,,,,,,,,,P021,fencog,1,Pre,2021_Dec_10_1240,Go No-Go Task,2021.1.4,120.0202114
EPracticeConditions/YellowEyes.csv,"Rule: When you see a yellow image, do not press 'spacebar'.",Images/Happy/BF05_HO.jpg,Happy,Yellow,Images/Yellow.jpg,None,,,,,,,0,1,1,1,0,5,5,1,,,,,,,,,,,,,,,,,,,,,,,,,,,,,,,,,,,,,,,,,,,,,,,,,,,1.4,376.2706226,None,None,1,377.777771,None,377.777771,None,377.777771,None,378.6701615,None,,,,,,,,,,,,,,,,,,,,,,,,,,,,,,,,,,,,,,,,,,,,,,,,,,P021,fencog,1,Pre,2021_Dec_10_1240,Go No-Go Task,2021.1.4,120.0202114
EPracticeConditions/YellowEyes.csv,"Rule: When you see a yellow image, do not press 'spacebar'.",Images/Fearful/AM23AFS.jpg,Fear,Blue,Images/Blue.jpg,space,,,,,,,0,1,1,1,0,6,6,6,,,,,,,,,,,,,,,,,,,,,,,,,,,,,,,,,,,,,,,,,,,,,,,,,,,1.8,380.6844568,None,space,1,382.5845806,None,382.5845806,None,382.5845806,None,383.4814453,None,0.2783987,,,,,,,,,,,,,,,,,,,,,,,,,,,,,,,,,,,,,,,,,,,,,,,,,P021,fencog,1,Pre,2021_Dec_10_1240,Go No-Go Task,2021.1.4,120.0202114
EPracticeConditions/YellowEyes.csv,"Rule: When you see a yellow image, do not press 'spacebar'.",Images/Fearful/AM24AFS.jpg,Fear,Blue,Images/Blue.jpg,space,,,,,,,0,1,1,1,0,7,7,7,,,,,,,,,,,,,,,,,,,,,,,,,,,,,,,,,,,,,,,,,,,,,,,,,,,1.9,385.4830452,None,space,1,387.4831326,None,387.4831326,None,387.4831326,None,388.3797748,None,0.3479354,,,,,,,,,,,,,,,,,,,,,,,,,,,,,,,,,,,,,,,,,,,,,,,,,P021,fencog,1,Pre,2021_Dec_10_1240,Go No-Go Task,2021.1.4,120.0202114
EPracticeConditions/YellowEyes.csv,"Rule: When you see a yellow image, do not press 'spacebar'.",,,,,,,,,,,,0,1,1,1,,,,,,,,,,,,,,,,,,,,,,,,,,,,,,,,,,,,,,,,,,,,,,,,,,,,,,,,,,,,,,,,,,,,,,,,,,,,,,,,,,,,,,,,,,,,,,,,,,,,,,,,,,,,,,,,,,,,,P021,fencog,1,Pre,2021_Dec_10_1240,Go No-Go Task,2021.1.4,120.0202114
EPracticeConditions/BlueScram.csv,"Rule: When you see a blue image, do not press 'spacebar'.",Images/Scram1/AM04_NC.jpg,Scramble,Yellow,Images/Yellow.jpg,space,,,,,,,0,2,2,2,0,0,0,3,,,,,,,,,,,,,,,,,,,,,,,,,,,,,,,,,,,,,390.3910983,None,393.3808251,None,space,1.4341079,393.3808251,None,390.3910983,None,390.3910983,None,390.3910983,None,1.7,394.8355324,None,None,0,396.6553607,None,396.6553607,None,396.6553607,None,397.5533351,None,,,,,,,,,,,,,,,,,,,,,,,,,,,,,,,,,,,,,,,,,,,,,,,,,,P021,fencog,1,Pre,2021_Dec_10_1240,Go No-Go Task,2021.1.4,120.0202114
EPracticeConditions/BlueScram.csv,"Rule: When you see a blue image, do not press 'spacebar'.",Images/Scram2/AF10_NC.jpg,Scramble,Yellow,Images/Yellow.jpg,space,,,,,,,0,2,2,2,0,1,1,2,,,,,,,,,,,,,,,,,,,,,,,,,,,,,,,,,,,,,,,,,,,,,,,,,,,1.6,399.5452803,None,space,1,401.2624297,None,401.2624297,None,401.2624297,None,402.1443506,None,0.2889214,,,,,,,,,,,,,,,,,,,,,,,,,,,,,,,,,,,,,,,,,,,,,,,,,P021,fencog,1,Pre,2021_Dec_10_1240,Go No-Go Task,2021.1.4,120.0202114
EPracticeConditions/BlueScram.csv,"Rule: When you see a blue image, do not press 'spacebar'.",Images/Scram2/AM03_NC.jpg,Scramble,Yellow,Images/Yellow.jpg,space,,,,,,,0,2,2,2,0,2,2,6,,,,,,,,,,,,,,,,,,,,,,,,,,,,,,,,,,,,,,,,,,,,,,,,,,,1.8,404.1480167,None,space,1,406.0608813,None,406.0608813,None,406.0608813,None,406.9512327,None,0.3141376,,,,,,,,,,,,,,,,,,,,,,,,,,,,,,,,,,,,,,,,,,,,,,,,,P021,fencog,1,Pre,2021_Dec_10_1240,Go No-Go Task,2021.1.4,120.0202114
EPracticeConditions/BlueScram.csv,"Rule: When you see a blue image, do not press 'spacebar'.",Images/Scram2/AF25NES.jpg,Scramble,Yellow,Images/Yellow.jpg,space,,,,,,,0,2,2,2,0,3,3,7,,,,,,,,,,,,,,,,,,,,,,,,,,,,,,,,,,,,,,,,,,,,,,,,,,,1.3,408.9511238,None,space,1,410.3513789,None,410.3513789,None,410.3513789,None,411.2566009,None,0.3360217,,,,,,,,,,,,,,,,,,,,,,,,,,,,,,,,,,,,,,,,,,,,,,,,,P021,fencog,1,Pre,2021_Dec_10_1240,Go No-Go Task,2021.1.4,120.0202114
EPracticeConditions/BlueScram.csv,"Rule: When you see a blue image, do not press 'spacebar'.",Images/Scram1/BF18_NC.jpg,Scramble,Blue,Images/Blue.jpg,None,,,,,,,0,2,2,2,0,4,4,1,,,,,,,,,,,,,,,,,,,,,,,,,,,,,,,,,,,,,,,,,,,,,,,,,,,1.4,413.2578747,None,None,1,414.7583609,None,414.7583609,None,414.7583609,None,415.6600264,None,,,,,,,,,,,,,,,,,,,,,,,,,,,,,,,,,,,,,,,,,,,,,,,,,,P021,fencog,1,Pre,2021_Dec_10_1240,Go No-Go Task,2021.1.4,120.0202114
EPracticeConditions/BlueScram.csv,"Rule: When you see a blue image, do not press 'spacebar'.",Images/Scram1/AM03NES.jpg,Scramble,Yellow,Images/Yellow.jpg,space,,,,,,,0,2,2,2,0,5,5,4,,,,,,,,,,,,,,,,,,,,,,,,,,,,,,,,,,,,,,,,,,,,,,,,,,,1.5,417.6695617,None,space,1,419.2737152,None,419.2737152,None,419.2737152,None,420.1725883,None,0.3173701,,,,,,,,,,,,,,,,,,,,,,,,,,,,,,,,,,,,,,,,,,,,,,,,,P021,fencog,1,Pre,2021_Dec_10_1240,Go No-Go Task,2021.1.4,120.0202114
EPracticeConditions/BlueScram.csv,"Rule: When you see a blue image, do not press 'spacebar'.",Images/Scram1/BM08_NC.jpg,Scramble,Blue,Images/Blue.jpg,None,,,,,,,0,2,2,2,0,6,6,0,,,,,,,,,,,,,,,,,,,,,,,,,,,,,,,,,,,,,,,,,,,,,,,,,,,1.9,422.1753568,None,None,1,424.1805942,None,424.1805942,None,424.1805942,None,425.0822295,None,,,,,,,,,,,,,,,,,,,,,,,,,,,,,,,,,,,,,,,,,,,,,,,,,,P021,fencog,1,Pre,2021_Dec_10_1240,Go No-Go Task,2021.1.4,120.0202114
EPracticeConditions/BlueScram.csv,"Rule: When you see a blue image, do not press 'spacebar'.",Images/Scram1/AM13NES.jpg,Scramble,Yellow,Images/Yellow.jpg,space,,,,,,,0,2,2,2,0,7,7,5,,,,,,,,,,,,,,,,,,,,,,,,,,,,,,,,,,,,,,,,,,,,,,,,,,,1.2,427.0871928,None,space,1,428.3959985,None,428.3959985,None,428.3959985,None,429.2915572,None,0.2830461,,,,,,,,,,,,,,,,,,,,,,,,,,,,,,,,,,,,,,,,,,,,,,,,,P021,fencog,1,Pre,2021_Dec_10_1240,Go No-Go Task,2021.1.4,120.0202114
EPracticeConditions/BlueScram.csv,"Rule: When you see a blue image, do not press 'spacebar'.",,,,,,,,,,,,0,2,2,2,,,,,,,,,,,,,,,,,,,,,,,,,,,,,,,,,,,,,,,,,,,,,,,,,,,,,,,,,,,,,,,,,,,,,,,,,,,,,,,,,,,,,,,,,,,,,,,,,,,,,,,,,,,,,,,,,,,,,P021,fencog,1,Pre,2021_Dec_10_1240,Go No-Go Task,2021.1.4,120.0202114
EPracticeConditions/YellowScram.csv,"Rule: When you see a yellow image, do not press 'spacebar'.",Images/Scram1/HF04_NC.jpg,Scramble,Blue,Images/Blue.jpg,space,,,,,,,0,3,3,3,0,0,0,2,,,,,,,,,,,,,,,,,,,,,,,,,,,,,,,,,,,,,431.3051417,None,434.2937191,None,space,3.1296063,434.2937191,None,431.3051417,None,431.3051417,None,431.3051417,None,1.2,437.4390218,None,space,1,438.7512482,None,438.7512482,None,438.7512482,None,439.6480261,None,0.2799821,,,,,,,,,,,,,,,,,,,,,,,,,,,,,,,,,,,,,,,,,,,,,,,,,P021,fencog,1,Pre,2021_Dec_10_1240,Go No-Go Task,2021.1.4,120.0202114
EPracticeConditions/YellowScram.csv,"Rule: When you see a yellow image, do not press 'spacebar'.",Images/Scram1/AF24NES.jpg,Scramble,Blue,Images/Blue.jpg,space,,,,,,,0,3,3,3,0,1,1,7,,,,,,,,,,,,,,,,,,,,,,,,,,,,,,,,,,,,,,,,,,,,,,,,,,,1.5,441.6494082,None,space,1,443.2498445,None,443.2498445,None,443.2498445,None,444.1452423,None,0.3411033,,,,,,,,,,,,,,,,,,,,,,,,,,,,,,,,,,,,,,,,,,,,,,,,,P021,fencog,1,Pre,2021_Dec_10_1240,Go No-Go Task,2021.1.4,120.0202114
EPracticeConditions/YellowScram.csv,"Rule: When you see a yellow image, do not press 'spacebar'.",Images/Scram2/AM03NES.jpg,Scramble,Yellow,Images/Yellow.jpg,None,,,,,,,0,3,3,3,0,2,2,1,,,,,,,,,,,,,,,,,,,,,,,,,,,,,,,,,,,,,,,,,,,,,,,,,,,1.4,446.1479817,None,None,1,447.6484087,None,447.6484087,None,447.6484087,None,448.5421491,None,,,,,,,,,,,,,,,,,,,,,,,,,,,,,,,,,,,,,,,,,,,,,,,,,,P021,fencog,1,Pre,2021_Dec_10_1240,Go No-Go Task,2021.1.4,120.0202114
EPracticeConditions/YellowScram.csv,"Rule: When you see a yellow image, do not press 'spacebar'.",Images/Scram1/AF07NES.jpg,Scramble,Blue,Images/Blue.jpg,space,,,,,,,0,3,3,3,0,3,3,3,,,,,,,,,,,,,,,,,,,,,,,,,,,,,,,,,,,,,,,,,,,,,,,,,,,1.7,450.5468256,None,space,1,452.34724,None,452.34724,None,452.34724,None,453.2392447,None,0.2999088,,,,,,,,,,,,,,,,,,,,,,,,,,,,,,,,,,,,,,,,,,,,,,,,,P021,fencog,1,Pre,2021_Dec_10_1240,Go No-Go Task,2021.1.4,120.0202114
EPracticeConditions/YellowScram.csv,"Rule: When you see a yellow image, do not press 'spacebar'.",Images/Scram1/BM01_NC.jpg,Scramble,Blue,Images/Blue.jpg,space,,,,,,,0,3,3,3,0,4,4,5,,,,,,,,,,,,,,,,,,,,,,,,,,,,,,,,,,,,,,,,,,,,,,,,,,,1.6,455.2452996,None,space,1,456.9458222,None,456.9458222,None,456.9458222,None,457.8362681,None,0.2850103,,,,,,,,,,,,,,,,,,,,,,,,,,,,,,,,,,,,,,,,,,,,,,,,,P021,fencog,1,Pre,2021_Dec_10_1240,Go No-Go Task,2021.1.4,120.0202114
EPracticeConditions/YellowScram.csv,"Rule: When you see a yellow image, do not press 'spacebar'.",Images/Scram1/AF10_NC.jpg,Scramble,Blue,Images/Blue.jpg,space,,,,,,,0,3,3,3,0,5,5,6,,,,,,,,,,,,,,,,,,,,,,,,,,,,,,,,,,,,,,,,,,,,,,,,,,,1.3,459.841917,None,space,1,461.2528928,None,461.2528928,None,461.2528928,None,462.1433034,None,0.2820163,,,,,,,,,,,,,,,,,,,,,,,,,,,,,,,,,,,,,,,,,,,,,,,,,P021,fencog,1,Pre,2021_Dec_10_1240,Go No-Go Task,2021.1.4,120.0202114
EPracticeConditions/YellowScram.csv,"Rule: When you see a yellow image, do not press 'spacebar'.",Images/Scram2/HM06_NC.jpg,Scramble,Yellow,Images/Yellow.jpg,None,,,,,,,0,3,3,3,0,6,6,0,,,,,,,,,,,,,,,,,,,,,,,,,,,,,,,,,,,,,,,,,,,,,,,,,,,1.8,464.1428128,None,None,1,466.0430878,None,466.0430878,None,466.0430878,None,466.9335907,None,,,,,,,,,,,,,,,,,,,,,,,,,,,,,,,,,,,,,,,,,,,,,,,,,,P021,fencog,1,Pre,2021_Dec_10_1240,Go No-Go Task,2021.1.4,120.0202114
EPracticeConditions/YellowScram.csv,"Rule: When you see a yellow image, do not press 'spacebar'.",Images/Scram1/AF30NES.JPG,Scramble,Blue,Images/Blue.jpg,space,,,,,,,0,3,3,3,0,7,7,4,,,,,,,,,,,,,,,,,,,,,,,,,,,,,,,,,,,,,,,,,,,,,,,,,,,1.9,468.9340256,None,space,1,470.9414624,None,470.9414624,None,470.9414624,None,471.8383447,None,0.281442,,,,,,,,,,,,,,,,,,,,,,,,,,,,,,,,,,,,,,,,,,,,,,,,,P021,fencog,1,Pre,2021_Dec_10_1240,Go No-Go Task,2021.1.4,120.0202114
EPracticeConditions/YellowScram.csv,"Rule: When you see a yellow image, do not press 'spacebar'.",,,,,,,,,,,,0,3,3,3,,,,,,,,,,,,,,,,,,,,,,,,,,,,,,,,,,,,,,,,,,,,,,,,,,,,,,,,,,,,,,,,,,,,,,,,,,,,,,,,,,,,,,,,,,,,,,,,,,,,,,,,,,,,,,,,,,,,,P021,fencog,1,Pre,2021_Dec_10_1240,Go No-Go Task,2021.1.4,120.0202114
,,,,,,,,,,,,,,,,,,,,,,,,,,,,,,,,,,,,,,,,,,,,,,,,,,,,,,,,,,,,,,,,,,,,,,,,,,,,,,,,,,,,,475.2388275,None,space,6.955739,475.7231455,None,,,,,,,,,,,,,,,,,,,,,,,,,,,,,,,,,,,,,,,,,,,P021,fencog,1,Pre,2021_Dec_10_1240,Go No-Go Task,2021.1.4,120.0202114
,,,,,,,,,,,,,,,,,,,,,,,,,,,,,,,,,,,,,,,,,,,,,,,,,,,,,,,,,,,,,,,,,,,,,,,,,,,,,,,,,,,,,,,,,,,482.6882831,None,space,2.7505861,482.6882831,None,,,,,,,,,,,,,,,,,,,,,,,,,,,,,,,,,,,,,P021,fencog,1,Pre,2021_Dec_10_1240,Go No-Go Task,2021.1.4,120.0202114
,"Rule: When you see a yellow image, do not press 'spacebar'.",Images/Fearful/BM02_FC.jpg,Fear,Blue,Images/Blue.jpg,space,ParentConditions/YellowBlueBlue_v1.xlsx,BlueBlueYellow,Conditions/Version_1/YellowHappyStop.xlsx,no,PASS,0.441481779,,,,,,,,,0,0,0,0,0,0,0,0,0,0,0,0,,,,,,,,,,,,,,,,,,,,,,,,,,,,,,,,,,,,,,,,,,,,,,,,,,,,,,,,,,,,,,,,,485.525197,None,488.5116431,None,space,15.2149918,488.5116431,None,485.525197,None,485.525197,None,485.525197,None,1.53,503.7799668,None,space,1,0.2716809,505.4231393,None,505.4231393,None,505.4231393,None,,,,,,,,,,,P021,fencog,1,Pre,2021_Dec_10_1240,Go No-Go Task,2021.1.4,120.0202114
,"Rule: When you see a yellow image, do not press 'spacebar'.",Images/Fearful/HF05_FC.jpg,Fear,Blue,Images/Blue.jpg,space,ParentConditions/YellowBlueBlue_v1.xlsx,BlueBlueYellow,Conditions/Version_1/YellowHappyStop.xlsx,no,PASS,0.494965127,,,,,,,,,0,0,0,0,0,0,0,0,0,1,1,1,,,,,,,,,,,,,,,,,,,,,,,,,,,,,,,,,,,,,,,,,,,,,,,,,,,,,,,,,,,,,,,,,,,,,,,,,,,,,,,1.74,505.8225665,None,space,1,0.2711433,507.66389,None,507.66389,None,507.66389,None,,,,,,,,,,,P021,fencog,1,Pre,2021_Dec_10_1240,Go No-Go Task,2021.1.4,120.0202114
,"Rule: When you see a yellow image, do not press 'spacebar'.",Images/Happy/AF32HAS.jpg,Happy,Yellow,Images/Yellow.jpg,None,ParentConditions/YellowBlueBlue_v1.xlsx,BlueBlueYellow,Conditions/Version_1/YellowHappyStop.xlsx,yes,PASS,0.369015391,,,,,,,,,0,0,0,0,0,0,0,0,0,2,2,2,,,,,,,,,,,,,,,,,,,,,,,,,,,,,,,,,,,,,,,,,,,,,,,,,,,,,,,,,,,,,,,,,,,,,,,,,,,,,,,1.54,508.0650172,None,None,1,,509.7050712,None,509.7050712,None,509.7050712,None,,,,,,,,,,,P021,fencog,1,Pre,2021_Dec_10_1240,Go No-Go Task,2021.1.4,120.0202114
,"Rule: When you see a yellow image, do not press 'spacebar'.",Images/Happy/AM32HAS.jpg,Happy,Yellow,Images/Yellow.jpg,None,ParentConditions/YellowBlueBlue_v1.xlsx,BlueBlueYellow,Conditions/Version_1/YellowHappyStop.xlsx,yes,PASS,0.092401343,,,,,,,,,0,0,0,0,0,0,0,0,0,3,3,3,,,,,,,,,,,,,,,,,,,,,,,,,,,,,,,,,,,,,,,,,,,,,,,,,,,,,,,,,,,,,,,,,,,,,,,,,,,,,,,1.3,510.1116686,None,None,1,,511.51289,None,511.51289,None,511.51289,None,,,,,,,,,,,P021,fencog,1,Pre,2021_Dec_10_1240,Go No-Go Task,2021.1.4,120.0202114
,"Rule: When you see a yellow image, do not press 'spacebar'.",Images/Fearful/AF07FS.jpg,Fear,Blue,Images/Blue.jpg,space,ParentConditions/YellowBlueBlue_v1.xlsx,BlueBlueYellow,Conditions/Version_1/YellowHappyStop.xlsx,no,PASS,0.401330001,,,,,,,,,0,0,0,0,0,0,0,0,0,4,4,4,,,,,,,,,,,,,,,,,,,,,,,,,,,,,,,,,,,,,,,,,,,,,,,,,,,,,,,,,,,,,,,,,,,,,,,,,,,,,,,1.93,511.9128448,None,space,1,0.2693607,513.9455175,None,513.9455175,None,513.9455175,None,,,,,,,,,,,P021,fencog,1,Pre,2021_Dec_10_1240,Go No-Go Task,2021.1.4,120.0202114
,"Rule: When you see a yellow image, do not press 'spacebar'.",Images/Fearful/AM30AFS.jpg,Fear,Blue,Images/Blue.jpg,space,ParentConditions/YellowBlueBlue_v1.xlsx,BlueBlueYellow,Conditions/Version_1/YellowHappyStop.xlsx,no,PASS,0.502651295,,,,,,,,,0,0,0,0,0,0,0,0,0,5,5,5,,,,,,,,,,,,,,,,,,,,,,,,,,,,,,,,,,,,,,,,,,,,,,,,,,,,,,,,,,,,,,,,,,,,,,,,,,,,,,,1.97,514.3470942,None,space,1,0.2831937,516.4196922,None,516.4196922,None,516.4196922,None,,,,,,,,,,,P021,fencog,1,Pre,2021_Dec_10_1240,Go No-Go Task,2021.1.4,120.0202114
,"Rule: When you see a yellow image, do not press 'spacebar'.",Images/Happy/BM03_HO.jpg,Happy,Yellow,Images/Yellow.jpg,None,ParentConditions/YellowBlueBlue_v1.xlsx,BlueBlueYellow,Conditions/Version_1/YellowHappyStop.xlsx,yes,PASS,0.390455614,,,,,,,,,0,0,0,0,0,0,0,0,0,6,6,6,,,,,,,,,,,,,,,,,,,,,,,,,,,,,,,,,,,,,,,,,,,,,,,,,,,,,,,,,,,,,,,,,,,,,,,,,,,,,,,1.72,516.8214312,None,None,1,,518.6440926,None,518.6440926,None,518.6440926,None,,,,,,,,,,,P021,fencog,1,Pre,2021_Dec_10_1240,Go No-Go Task,2021.1.4,120.0202114
,"Rule: When you see a yellow image, do not press 'spacebar'.",Images/Fearful/HM06_FC.jpg,Fear,Blue,Images/Blue.jpg,space,ParentConditions/YellowBlueBlue_v1.xlsx,BlueBlueYellow,Conditions/Version_1/YellowHappyStop.xlsx,no,PASS,0.829587087,,,,,,,,,0,0,0,0,0,0,0,0,0,7,7,7,,,,,,,,,,,,,,,,,,,,,,,,,,,,,,,,,,,,,,,,,,,,,,,,,,,,,,,,,,,,,,,,,,,,,,,,,,,,,,,1.96,519.0445668,None,space,1,0.2646916,521.1100133,None,521.1100133,None,521.1100133,None,,,,,,,,,,,P021,fencog,1,Pre,2021_Dec_10_1240,Go No-Go Task,2021.1.4,120.0202114
,"Rule: When you see a yellow image, do not press 'spacebar'.",Images/Fearful/AF19AFS.jpg,Fear,Blue,Images/Blue.jpg,space,ParentConditions/YellowBlueBlue_v1.xlsx,BlueBlueYellow,Conditions/Version_1/YellowHappyStop.xlsx,no,PASS,0.314571893,,,,,,,,,0,0,0,0,0,0,0,0,0,8,8,8,,,,,,,,,,,,,,,,,,,,,,,,,,,,,,,,,,,,,,,,,,,,,,,,,,,,,,,,,,,,,,,,,,,,,,,,,,,,,,,1.61,521.5104483,None,space,1,0.252855,523.225883,None,523.225883,None,523.225883,None,,,,,,,,,,,P021,fencog,1,Pre,2021_Dec_10_1240,Go No-Go Task,2021.1.4,120.0202114
,"Rule: When you see a yellow image, do not press 'spacebar'.",Images/Happy/AF30HAS.jpg,Happy,Yellow,Images/Yellow.jpg,None,ParentConditions/YellowBlueBlue_v1.xlsx,BlueBlueYellow,Conditions/Version_1/YellowHappyStop.xlsx,yes,PASS,0.14544836,,,,,,,,,0,0,0,0,0,0,0,0,0,9,9,9,,,,,,,,,,,,,,,,,,,,,,,,,,,,,,,,,,,,,,,,,,,,,,,,,,,,,,,,,,,,,,,,,,,,,,,,,,,,,,,1.27,523.6265276,None,None,1,,525.0004681,None,525.0004681,None,525.0004681,None,,,,,,,,,,,P021,fencog,1,Pre,2021_Dec_10_1240,Go No-Go Task,2021.1.4,120.0202114
,"Rule: When you see a yellow image, do not press 'spacebar'.",Images/Fearful/AF25AFS.jpg,Fear,Blue,Images/Blue.jpg,space,ParentConditions/YellowBlueBlue_v1.xlsx,BlueBlueYellow,Conditions/Version_1/YellowHappyStop.xlsx,no,PASS,0.31319632,,,,,,,,,0,0,0,0,0,0,0,0,0,10,10,10,,,,,,,,,,,,,,,,,,,,,,,,,,,,,,,,,,,,,,,,,,,,,,,,,,,,,,,,,,,,,,,,,,,,,,,,,,,,,,,1.41,525.4012074,None,space,1,0.2740279,526.9166239,None,526.9166239,None,526.9166239,None,,,,,,,,,,,P021,fencog,1,Pre,2021_Dec_10_1240,Go No-Go Task,2021.1.4,120.0202114
,"Rule: When you see a yellow image, do not press 'spacebar'.",Images/Fearful/AF30AFS.jpg,Fear,Blue,Images/Blue.jpg,space,ParentConditions/YellowBlueBlue_v1.xlsx,BlueBlueYellow,Conditions/Version_1/YellowHappyStop.xlsx,no,PASS,0.985479943,,,,,,,,,0,0,0,0,0,0,0,0,0,11,11,11,,,,,,,,,,,,,,,,,,,,,,,,,,,,,,,,,,,,,,,,,,,,,,,,,,,,,,,,,,,,,,,,,,,,,,,,,,,,,,,1.9,527.3268834,None,space,1,0.2741388,529.3325646,None,529.3325646,None,529.3325646,None,,,,,,,,,,,P021,fencog,1,Pre,2021_Dec_10_1240,Go No-Go Task,2021.1.4,120.0202114
,"Rule: When you see a yellow image, do not press 'spacebar'.",Images/Happy/BF10_HO.jpg,Happy,Yellow,Images/Yellow.jpg,None,ParentConditions/YellowBlueBlue_v1.xlsx,BlueBlueYellow,Conditions/Version_1/YellowHappyStop.xlsx,yes,PASS,0.936818732,,,,,,,,,0,0,0,0,0,0,0,0,0,12,12,12,,,,,,,,,,,,,,,,,,,,,,,,,,,,,,,,,,,,,,,,,,,,,,,,,,,,,,,,,,,,,,,,,,,,,,,,,,,,,,,1.31,529.7331904,None,None,1,,531.148757,None,531.148757,None,531.148757,None,,,,,,,,,,,P021,fencog,1,Pre,2021_Dec_10_1240,Go No-Go Task,2021.1.4,120.0202114
,"Rule: When you see a yellow image, do not press 'spacebar'.",Images/Fearful/AM06_FO.jpg,Fear,Blue,Images/Blue.jpg,space,ParentConditions/YellowBlueBlue_v1.xlsx,BlueBlueYellow,Conditions/Version_1/YellowHappyStop.xlsx,no,PASS,0.60307002,,,,,,,,,0,0,0,0,0,0,0,0,0,13,13,13,,,,,,,,,,,,,,,,,,,,,,,,,,,,,,,,,,,,,,,,,,,,,,,,,,,,,,,,,,,,,,,,,,,,,,,,,,,,,,,1.46,531.5489827,None,space,1,0.2839503,533.1147516,None,533.1147516,None,533.1147516,None,,,,,,,,,,,P021,fencog,1,Pre,2021_Dec_10_1240,Go No-Go Task,2021.1.4,120.0202114
,"Rule: When you see a yellow image, do not press 'spacebar'.",Images/Happy/AM24HAS.jpg,Happy,Yellow,Images/Yellow.jpg,None,ParentConditions/YellowBlueBlue_v1.xlsx,BlueBlueYellow,Conditions/Version_1/YellowHappyStop.xlsx,yes,PASS,0.840148819,,,,,,,,,0,0,0,0,0,0,0,0,0,14,14,14,,,,,,,,,,,,,,,,,,,,,,,,,,,,,,,,,,,,,,,,,,,,,,,,,,,,,,,,,,,,,,,,,,,,,,,,,,,,,,,1.35,533.5152735,None,None,1,,534.9725591,None,534.9725591,None,534.9725591,None,,,,,,,,,,,P021,fencog,1,Pre,2021_Dec_10_1240,Go No-Go Task,2021.1.4,120.0202114
,"Rule: When you see a yellow image, do not press 'spacebar'.",Images/Fearful/AF21AFS.jpg,Fear,Blue,Images/Blue.jpg,space,ParentConditions/YellowBlueBlue_v1.xlsx,BlueBlueYellow,Conditions/Version_1/YellowHappyStop.xlsx,no,PASS,0.95610524,,,,,,,,,0,0,0,0,0,0,0,0,0,15,15,15,,,,,,,,,,,,,,,,,,,,,,,,,,,,,,,,,,,,,,,,,,,,,,,,,,,,,,,,,,,,,,,,,,,,,,,,,,,,,,,1.25,535.3766315,None,space,1,0.2603368,536.7303818,None,536.7303818,None,536.7303818,None,,,,,,,,,,,P021,fencog,1,Pre,2021_Dec_10_1240,Go No-Go Task,2021.1.4,120.0202114
,"Rule: When you see a yellow image, do not press 'spacebar'.",Images/Happy/AM06_HC.jpg,Happy,Yellow,Images/Yellow.jpg,None,ParentConditions/YellowBlueBlue_v1.xlsx,BlueBlueYellow,Conditions/Version_1/YellowHappyStop.xlsx,yes,PASS,0.363259446,,,,,,,,,0,0,0,0,0,0,0,0,0,16,16,16,,,,,,,,,,,,,,,,,,,,,,,,,,,,,,,,,,,,,,,,,,,,,,,,,,,,,,,,,,,,,,,,,,,,,,,,,,,,,,,1.64,537.1295453,None,None,1,,538.879724,None,538.879724,None,538.879724,None,,,,,,,,,,,P021,fencog,1,Pre,2021_Dec_10_1240,Go No-Go Task,2021.1.4,120.0202114
,"Rule: When you see a yellow image, do not press 'spacebar'.",Images/Fearful/AF10_FC.jpg,Fear,Blue,Images/Blue.jpg,space,ParentConditions/YellowBlueBlue_v1.xlsx,BlueBlueYellow,Conditions/Version_1/YellowHappyStop.xlsx,no,PASS,0.093575665,,,,,,,,,0,0,0,0,0,0,0,0,0,17,17,17,,,,,,,,,,,,,,,,,,,,,,,,,,,,,,,,,,,,,,,,,,,,,,,,,,,,,,,,,,,,,,,,,,,,,,,,,,,,,,,1.77,539.2786838,None,space,1,0.2683548,541.1623762,None,541.1623762,None,541.1623762,None,,,,,,,,,,,P021,fencog,1,Pre,2021_Dec_10_1240,Go No-Go Task,2021.1.4,120.0202114
,"Rule: When you see a yellow image, do not press 'spacebar'.",Images/Fearful/BM03_FC.jpg,Fear,Blue,Images/Blue.jpg,space,ParentConditions/YellowBlueBlue_v1.xlsx,BlueBlueYellow,Conditions/Version_1/YellowHappyStop.xlsx,no,PASS,0.789884489,,,,,,,,,0,0,0,0,0,0,0,0,0,18,18,18,,,,,,,,,,,,,,,,,,,,,,,,,,,,,,,,,,,,,,,,,,,,,,,,,,,,,,,,,,,,,,,,,,,,,,,,,,,,,,,1.78,541.5616361,None,space,1,0.2734978,543.4450659,None,543.4450659,None,543.4450659,None,,,,,,,,,,,P021,fencog,1,Pre,2021_Dec_10_1240,Go No-Go Task,2021.1.4,120.0202114
,"Rule: When you see a yellow image, do not press 'spacebar'.",Images/Fearful/HM09_FC.jpg,Fear,Blue,Images/Blue.jpg,space,ParentConditions/YellowBlueBlue_v1.xlsx,BlueBlueYellow,Conditions/Version_1/YellowHappyStop.xlsx,no,PASS,0.819858336,,,,,,,,,0,0,0,0,0,0,0,0,0,19,19,19,,,,,,,,,,,,,,,,,,,,,,,,,,,,,,,,,,,,,,,,,,,,,,,,,,,,,,,,,,,,,,,,,,,,,,,,,,,,,,,1.26,543.8465248,None,space,1,0.283719,545.2112312,None,545.2112312,None,545.2112312,None,,,,,,,,,,,P021,fencog,1,Pre,2021_Dec_10_1240,Go No-Go Task,2021.1.4,120.0202114
,"Rule: When you see a yellow image, do not press 'spacebar'.",Images/Fearful/AM04_FO.jpg,Fear,Blue,Images/Blue.jpg,space,ParentConditions/YellowBlueBlue_v1.xlsx,BlueBlueYellow,Conditions/Version_1/YellowHappyStop.xlsx,no,PASS,0.959535025,,,,,,,,,0,0,0,0,0,0,0,0,0,20,20,20,,,,,,,,,,,,,,,,,,,,,,,,,,,,,,,,,,,,,,,,,,,,,,,,,,,,,,,,,,,,,,,,,,,,,,,,,,,,,,,1.83,545.6142038,None,space,1,0.3265978,547.5521744,None,547.5521744,None,547.5521744,None,,,,,,,,,,,P021,fencog,1,Pre,2021_Dec_10_1240,Go No-Go Task,2021.1.4,120.0202114
,"Rule: When you see a yellow image, do not press 'spacebar'.",Images/Fearful/AF11AFS.jpg,Fear,Blue,Images/Blue.jpg,space,ParentConditions/YellowBlueBlue_v1.xlsx,BlueBlueYellow,Conditions/Version_1/YellowHappyStop.xlsx,no,PASS,0.727618402,,,,,,,,,0,0,0,0,0,0,0,0,0,21,21,21,,,,,,,,,,,,,,,,,,,,,,,,,,,,,,,,,,,,,,,,,,,,,,,,,,,,,,,,,,,,,,,,,,,,,,,,,,,,,,,1.36,547.9637545,None,space,1,0.3475697,549.4349258,None,549.4349258,None,549.4349258,None,,,,,,,,,,,P021,fencog,1,Pre,2021_Dec_10_1240,Go No-Go Task,2021.1.4,120.0202114
,"Rule: When you see a yellow image, do not press 'spacebar'.",Images/Fearful/AM10_FO.jpg,Fear,Blue,Images/Blue.jpg,space,ParentConditions/YellowBlueBlue_v1.xlsx,BlueBlueYellow,Conditions/Version_1/YellowHappyStop.xlsx,no,PASS,0.799585582,,,,,,,,,0,0,0,0,0,0,0,0,0,22,22,22,,,,,,,,,,,,,,,,,,,,,,,,,,,,,,,,,,,,,,,,,,,,,,,,,,,,,,,,,,,,,,,,,,,,,,,,,,,,,,,1.98,549.8324957,None,space,1,0.3209928,551.9175121,None,551.9175121,None,551.9175121,None,,,,,,,,,,,P021,fencog,1,Pre,2021_Dec_10_1240,Go No-Go Task,2021.1.4,120.0202114
,"Rule: When you see a yellow image, do not press 'spacebar'.",Images/Fearful/WF04_FC.jpg,Fear,Blue,Images/Blue.jpg,space,ParentConditions/YellowBlueBlue_v1.xlsx,BlueBlueYellow,Conditions/Version_1/YellowHappyStop.xlsx,no,PASS,0.007163238,,,,,,,,,0,0,0,0,0,0,0,0,0,23,23,23,,,,,,,,,,,,,,,,,,,,,,,,,,,,,,,,,,,,,,,,,,,,,,,,,,,,,,,,,,,,,,,,,,,,,,,,,,,,,,,1.99,552.3175523,None,space,1,0.3022241,554.4084822,None,554.4084822,None,554.4084822,None,,,,,,,,,,,P021,fencog,1,Pre,2021_Dec_10_1240,Go No-Go Task,2021.1.4,120.0202114
,"Rule: When you see a yellow image, do not press 'spacebar'.",Images/Fearful/AF28AFS.jpg,Fear,Blue,Images/Blue.jpg,space,ParentConditions/YellowBlueBlue_v1.xlsx,BlueBlueYellow,Conditions/Version_1/YellowHappyStop.xlsx,no,PASS,0.657857441,,,,,,,,,0,0,0,0,0,0,0,0,0,24,24,24,,,,,,,,,,,,,,,,,,,,,,,,,,,,,,,,,,,,,,,,,,,,,,,,,,,,,,,,,,,,,,,,,,,,,,,,,,,,,,,1.88,554.815619,None,space,1,0.2626292,556.8160789,None,556.8160789,None,556.8160789,None,,,,,,,,,,,P021,fencog,1,Pre,2021_Dec_10_1240,Go No-Go Task,2021.1.4,120.0202114
,"Rule: When you see a yellow image, do not press 'spacebar'.",Images/Fearful/WF11_FC.jpg,Fear,Blue,Images/Blue.jpg,space,ParentConditions/YellowBlueBlue_v1.xlsx,BlueBlueYellow,Conditions/Version_1/YellowHappyStop.xlsx,no,PASS,0.160010689,,,,,,,,,0,0,0,0,0,0,0,0,0,25,25,25,,,,,,,,,,,,,,,,,,,,,,,,,,,,,,,,,,,,,,,,,,,,,,,,,,,,,,,,,,,,,,,,,,,,,,,,,,,,,,,1.73,557.2067362,None,space,1,0.2699609,559.0487021,None,559.0487021,None,559.0487021,None,,,,,,,,,,,P021,fencog,1,Pre,2021_Dec_10_1240,Go No-Go Task,2021.1.4,120.0202114
,"Rule: When you see a yellow image, do not press 'spacebar'.",Images/Fearful/AM17AFS.jpg,Fear,Blue,Images/Blue.jpg,space,ParentConditions/YellowBlueBlue_v1.xlsx,BlueBlueYellow,Conditions/Version_1/YellowHappyStop.xlsx,no,PASS,0.117736516,,,,,,,,,0,0,0,0,0,0,0,0,0,26,26,26,,,,,,,,,,,,,,,,,,,,,,,,,,,,,,,,,,,,,,,,,,,,,,,,,,,,,,,,,,,,,,,,,,,,,,,,,,,,,,,1.37,559.4538412,None,space,1,0.2591572,560.9314925,None,560.9314925,None,560.9314925,None,,,,,,,,,,,P021,fencog,1,Pre,2021_Dec_10_1240,Go No-Go Task,2021.1.4,120.0202114
,"Rule: When you see a yellow image, do not press 'spacebar'.",Images/Happy/AF27HAS.jpg,Happy,Yellow,Images/Yellow.jpg,None,ParentConditions/YellowBlueBlue_v1.xlsx,BlueBlueYellow,Conditions/Version_1/YellowHappyStop.xlsx,yes,PASS,0.314186956,,,,,,,,,0,0,0,0,0,0,0,0,0,27,27,27,,,,,,,,,,,,,,,,,,,,,,,,,,,,,,,,,,,,,,,,,,,,,,,,,,,,,,,,,,,,,,,,,,,,,,,,,,,,,,,1.87,561.3322267,None,space,0,0.276587,563.3057949,None,563.3057949,None,563.3057949,None,,,,,,,,,,,P021,fencog,1,Pre,2021_Dec_10_1240,Go No-Go Task,2021.1.4,120.0202114
,"Rule: When you see a yellow image, do not press 'spacebar'.",Images/Fearful/BF10_FO.jpg,Fear,Blue,Images/Blue.jpg,space,ParentConditions/YellowBlueBlue_v1.xlsx,BlueBlueYellow,Conditions/Version_1/YellowHappyStop.xlsx,no,PASS,0.64738364,,,,,,,,,0,0,0,0,0,0,0,0,0,28,28,28,,,,,,,,,,,,,,,,,,,,,,,,,,,,,,,,,,,,,,,,,,,,,,,,,,,,,,,,,,,,,,,,,,,,,,,,,,,,,,,1.79,563.7063813,None,space,1,0.3293778,565.5970779,None,565.5970779,None,565.5970779,None,,,,,,,,,,,P021,fencog,1,Pre,2021_Dec_10_1240,Go No-Go Task,2021.1.4,120.0202114
,"Rule: When you see a yellow image, do not press 'spacebar'.",Images/Fearful/HF04_FO.jpg,Fear,Blue,Images/Blue.jpg,space,ParentConditions/YellowBlueBlue_v1.xlsx,BlueBlueYellow,Conditions/Version_1/YellowHappyStop.xlsx,no,PASS,0.657365537,,,,,,,,,0,0,0,0,0,0,0,0,0,29,29,29,,,,,,,,,,,,,,,,,,,,,,,,,,,,,,,,,,,,,,,,,,,,,,,,,,,,,,,,,,,,,,,,,,,,,,,,,,,,,,,1.57,566.0040629,None,space,1,0.3194492,567.6794956,None,567.6794956,None,567.6794956,None,,,,,,,,,,,P021,fencog,1,Pre,2021_Dec_10_1240,Go No-Go Task,2021.1.4,120.0202114
,"Rule: When you see a yellow image, do not press 'spacebar'.",Images/Happy/AF26HAS.jpg,Happy,Yellow,Images/Yellow.jpg,None,ParentConditions/YellowBlueBlue_v1.xlsx,BlueBlueYellow,Conditions/Version_1/YellowHappyStop.xlsx,yes,PASS,0.963428827,,,,,,,,,0,0,0,0,0,0,0,0,0,30,30,30,,,,,,,,,,,,,,,,,,,,,,,,,,,,,,,,,,,,,,,,,,,,,,,,,,,,,,,,,,,,,,,,,,,,,,,,,,,,,,,1.55,568.0897774,None,None,1,,569.7538938,None,569.7538938,None,569.7538938,None,,,,,,,,,,,P021,fencog,1,Pre,2021_Dec_10_1240,Go No-Go Task,2021.1.4,120.0202114
,"Rule: When you see a yellow image, do not press 'spacebar'.",Images/Happy/HF09_HE.jpg,Happy,Yellow,Images/Yellow.jpg,None,ParentConditions/YellowBlueBlue_v1.xlsx,BlueBlueYellow,Conditions/Version_1/YellowHappyStop.xlsx,yes,PASS,0.280028124,,,,,,,,,0,0,0,0,0,0,0,0,0,31,31,31,,,,,,,,,,,,,,,,,,,,,,,,,,,,,,,,,,,,,,,,,,,,,,,,,,,,,,,,,,,,,,,,,,,,,,,,,,,,,,,1.82,570.1513011,None,None,1,,572.0782403,None,572.0782403,None,572.0782403,None,,,,,,,,,,,P021,fencog,1,Pre,2021_Dec_10_1240,Go No-Go Task,2021.1.4,120.0202114
,"Rule: When you see a yellow image, do not press 'spacebar'.",Images/Fearful/AM16AFS.jpg,Fear,Blue,Images/Blue.jpg,space,ParentConditions/YellowBlueBlue_v1.xlsx,BlueBlueYellow,Conditions/Version_1/YellowHappyStop.xlsx,no,PASS,0.568141493,,,,,,,,,0,0,0,0,0,0,0,0,0,32,32,32,,,,,,,,,,,,,,,,,,,,,,,,,,,,,,,,,,,,,,,,,,,,,,,,,,,,,,,,,,,,,,,,,,,,,,,,,,,,,,,1.4,572.4786481,None,space,1,0.3484562,573.9858981,None,573.9858981,None,573.9858981,None,,,,,,,,,,,P021,fencog,1,Pre,2021_Dec_10_1240,Go No-Go Task,2021.1.4,120.0202114
,"Rule: When you see a yellow image, do not press 'spacebar'.",Images/Fearful/WF05_FO.jpg,Fear,Blue,Images/Blue.jpg,space,ParentConditions/YellowBlueBlue_v1.xlsx,BlueBlueYellow,Conditions/Version_1/YellowHappyStop.xlsx,no,PASS,0.237591734,,,,,,,,,0,0,0,0,0,0,0,0,0,33,33,33,,,,,,,,,,,,,,,,,,,,,,,,,,,,,,,,,,,,,,,,,,,,,,,,,,,,,,,,,,,,,,,,,,,,,,,,,,,,,,,1.85,574.3863542,None,space,1,0.3343906,576.3520163,None,576.3520163,None,576.3520163,None,,,,,,,,,,,P021,fencog,1,Pre,2021_Dec_10_1240,Go No-Go Task,2021.1.4,120.0202114
,"Rule: When you see a yellow image, do not press 'spacebar'.",Images/Fearful/AM03_FC.jpg,Fear,Blue,Images/Blue.jpg,space,ParentConditions/YellowBlueBlue_v1.xlsx,BlueBlueYellow,Conditions/Version_1/YellowHappyStop.xlsx,no,PASS,0.45277772,,,,,,,,,0,0,0,0,0,0,0,0,0,34,34,34,,,,,,,,,,,,,,,,,,,,,,,,,,,,,,,,,,,,,,,,,,,,,,,,,,,,,,,,,,,,,,,,,,,,,,,,,,,,,,,1.58,576.7509857,None,space,1,0.2997588,578.4429942,None,578.4429942,None,578.4429942,None,,,,,,,,,,,P021,fencog,1,Pre,2021_Dec_10_1240,Go No-Go Task,2021.1.4,120.0202114
,"Rule: When you see a yellow image, do not press 'spacebar'.",Images/Fearful/AM01AFS.jpg,Fear,Blue,Images/Blue.jpg,space,ParentConditions/YellowBlueBlue_v1.xlsx,BlueBlueYellow,Conditions/Version_1/YellowHappyStop.xlsx,no,PASS,0.482683093,,,,,,,,,0,0,0,0,0,0,0,0,0,35,35,35,,,,,,,,,,,,,,,,,,,,,,,,,,,,,,,,,,,,,,,,,,,,,,,,,,,,,,,,,,,,,,,,,,,,,,,,,,,,,,,1.38,578.8393685,None,space,1,0.3447061,580.3257401,None,580.3257401,None,580.3257401,None,,,,,,,,,,,P021,fencog,1,Pre,2021_Dec_10_1240,Go No-Go Task,2021.1.4,120.0202114
,"Rule: When you see a yellow image, do not press 'spacebar'.",Images/Fearful/HM04_FC.jpg,Fear,Blue,Images/Blue.jpg,space,ParentConditions/YellowBlueBlue_v1.xlsx,BlueBlueYellow,Conditions/Version_1/YellowHappyStop.xlsx,no,PASS,0.460690292,,,,,,,,,0,0,0,0,0,0,0,0,0,36,36,36,,,,,,,,,,,,,,,,,,,,,,,,,,,,,,,,,,,,,,,,,,,,,,,,,,,,,,,,,,,,,,,,,,,,,,,,,,,,,,,1.49,580.7248857,None,space,1,0.305239,582.3251497,None,582.3251497,None,582.3251497,None,,,,,,,,,,,P021,fencog,1,Pre,2021_Dec_10_1240,Go No-Go Task,2021.1.4,120.0202114
,"Rule: When you see a yellow image, do not press 'spacebar'.",Images/Fearful/BF18_FC.jpg,Fear,Blue,Images/Blue.jpg,space,ParentConditions/YellowBlueBlue_v1.xlsx,BlueBlueYellow,Conditions/Version_1/YellowHappyStop.xlsx,no,PASS,0.633030328,,,,,,,,,0,0,0,0,0,0,0,0,0,37,37,37,,,,,,,,,,,,,,,,,,,,,,,,,,,,,,,,,,,,,,,,,,,,,,,,,,,,,,,,,,,,,,,,,,,,,,,,,,,,,,,1.68,582.7241769,None,space,1,0.3224139,584.5161591,None,584.5161591,None,584.5161591,None,,,,,,,,,,,P021,fencog,1,Pre,2021_Dec_10_1240,Go No-Go Task,2021.1.4,120.0202114
,"Rule: When you see a yellow image, do not press 'spacebar'.",Images/Fearful/AF07_FO.jpg,Fear,Blue,Images/Blue.jpg,space,ParentConditions/YellowBlueBlue_v1.xlsx,BlueBlueYellow,Conditions/Version_1/YellowHappyStop.xlsx,no,PASS,0.341478324,,,,,,,,,0,0,0,0,0,0,0,0,0,38,38,38,,,,,,,,,,,,,,,,,,,,,,,,,,,,,,,,,,,,,,,,,,,,,,,,,,,,,,,,,,,,,,,,,,,,,,,,,,,,,,,1.52,584.9160375,None,space,1,0.3059536,586.5405847,None,586.5405847,None,586.5405847,None,,,,,,,,,,,P021,fencog,1,Pre,2021_Dec_10_1240,Go No-Go Task,2021.1.4,120.0202114
,"Rule: When you see a yellow image, do not press 'spacebar'.",Images/Fearful/AM24AFS.jpg,Fear,Blue,Images/Blue.jpg,space,ParentConditions/YellowBlueBlue_v1.xlsx,BlueBlueYellow,Conditions/Version_1/YellowHappyStop.xlsx,no,PASS,0.778148808,,,,,,,,,0,0,0,0,0,0,0,0,0,39,39,39,,,,,,,,,,,,,,,,,,,,,,,,,,,,,,,,,,,,,,,,,,,,,,,,,,,,,,,,,,,,,,,,,,,,,,,,,,,,,,,1.59,586.9402097,None,space,1,0.3029209,588.6315803,None,588.6315803,None,588.6315803,None,,,,,,,,,,,P021,fencog,1,Pre,2021_Dec_10_1240,Go No-Go Task,2021.1.4,120.0202114
,"Rule: When you see a yellow image, do not press 'spacebar'.",Images/Fearful/AM03AFS.jpg,Fear,Blue,Images/Blue.jpg,space,ParentConditions/YellowBlueBlue_v1.xlsx,BlueBlueYellow,Conditions/Version_1/YellowHappyStop.xlsx,no,PASS,0.230440928,,,,,,,,,0,0,0,0,0,0,0,0,0,40,40,40,,,,,,,,,,,,,,,,,,,,,,,,,,,,,,,,,,,,,,,,,,,,,,,,,,,,,,,,,,,,,,,,,,,,,,,,,,,,,,,1.91,589.0324376,None,space,1,0.3027532,591.0558662,None,591.0558662,None,591.0558662,None,,,,,,,,,,,P021,fencog,1,Pre,2021_Dec_10_1240,Go No-Go Task,2021.1.4,120.0202114
,"Rule: When you see a yellow image, do not press 'spacebar'.",Images/Fearful/BM08_FC.jpg,Fear,Blue,Images/Blue.jpg,space,ParentConditions/YellowBlueBlue_v1.xlsx,BlueBlueYellow,Conditions/Version_1/YellowHappyStop.xlsx,no,PASS,0.654875652,,,,,,,,,0,0,0,0,0,0,0,0,0,41,41,41,,,,,,,,,,,,,,,,,,,,,,,,,,,,,,,,,,,,,,,,,,,,,,,,,,,,,,,,,,,,,,,,,,,,,,,,,,,,,,,1.92,591.4548401,None,space,1,0.3105843,593.4802132,None,593.4802132,None,593.4802132,None,,,,,,,,,,,P021,fencog,1,Pre,2021_Dec_10_1240,Go No-Go Task,2021.1.4,120.0202114
,"Rule: When you see a yellow image, do not press 'spacebar'.",Images/Fearful/AF32AFS.jpg,Fear,Blue,Images/Blue.jpg,space,ParentConditions/YellowBlueBlue_v1.xlsx,BlueBlueYellow,Conditions/Version_1/YellowHappyStop.xlsx,no,PASS,0.940165055,,,,,,,,,0,0,0,0,0,0,0,0,0,42,42,42,,,,,,,,,,,,,,,,,,,,,,,,,,,,,,,,,,,,,,,,,,,,,,,,,,,,,,,,,,,,,,,,,,,,,,,,,,,,,,,1.76,593.8793239,None,space,1,0.3002333,595.7461934,None,595.7461934,None,595.7461934,None,,,,,,,,,,,P021,fencog,1,Pre,2021_Dec_10_1240,Go No-Go Task,2021.1.4,120.0202114
,"Rule: When you see a yellow image, do not press 'spacebar'.",Images/Fearful/AF26AFS.jpg,Fear,Blue,Images/Blue.jpg,space,ParentConditions/YellowBlueBlue_v1.xlsx,BlueBlueYellow,Conditions/Version_1/YellowHappyStop.xlsx,no,PASS,0.579925728,,,,,,,,,0,0,0,0,0,0,0,0,0,43,43,43,,,,,,,,,,,,,,,,,,,,,,,,,,,,,,,,,,,,,,,,,,,,,,,,,,,,,,,,,,,,,,,,,,,,,,,,,,,,,,,1.67,596.1452619,None,space,1,0.3095559,597.9371693,None,597.9371693,None,597.9371693,None,,,,,,,,,,,P021,fencog,1,Pre,2021_Dec_10_1240,Go No-Go Task,2021.1.4,120.0202114
,"Rule: When you see a yellow image, do not press 'spacebar'.",Images/Fearful/BF09_FC.jpg,Fear,Blue,Images/Blue.jpg,space,ParentConditions/YellowBlueBlue_v1.xlsx,BlueBlueYellow,Conditions/Version_1/YellowHappyStop.xlsx,no,PASS,0.951228863,,,,,,,,,0,0,0,0,0,0,0,0,0,44,44,44,,,,,,,,,,,,,,,,,,,,,,,,,,,,,,,,,,,,,,,,,,,,,,,,,,,,,,,,,,,,,,,,,,,,,,,,,,,,,,,1.23,598.325655,None,space,1,0.3358003,599.6627185,None,599.6627185,None,599.6627185,None,,,,,,,,,,,P021,fencog,1,Pre,2021_Dec_10_1240,Go No-Go Task,2021.1.4,120.0202114
,"Rule: When you see a yellow image, do not press 'spacebar'.",Images/Fearful/BM01_FO.jpg,Fear,Blue,Images/Blue.jpg,space,ParentConditions/YellowBlueBlue_v1.xlsx,BlueBlueYellow,Conditions/Version_1/YellowHappyStop.xlsx,no,PASS,0.895428731,,,,,,,,,0,0,0,0,0,0,0,0,0,45,45,45,,,,,,,,,,,,,,,,,,,,,,,,,,,,,,,,,,,,,,,,,,,,,,,,,,,,,,,,,,,,,,,,,,,,,,,,,,,,,,,1.33,600.0690775,None,space,1,0.2956917,601.5027576,None,601.5027576,None,601.5027576,None,,,,,,,,,,,P021,fencog,1,Pre,2021_Dec_10_1240,Go No-Go Task,2021.1.4,120.0202114
,"Rule: When you see a yellow image, do not press 'spacebar'.",Images/Happy/BF14_HO.jpg,Happy,Yellow,Images/Yellow.jpg,None,ParentConditions/YellowBlueBlue_v1.xlsx,BlueBlueYellow,Conditions/Version_1/YellowHappyStop.xlsx,yes,PASS,0.723428022,,,,,,,,,0,0,0,0,0,0,0,0,0,46,46,46,,,,,,,,,,,,,,,,,,,,,,,,,,,,,,,,,,,,,,,,,,,,,,,,,,,,,,,,,,,,,,,,,,,,,,,,,,,,,,,1.2,601.9019754,None,None,1,,603.2022073,None,603.2022073,None,603.2022073,None,,,,,,,,,,,P021,fencog,1,Pre,2021_Dec_10_1240,Go No-Go Task,2021.1.4,120.0202114
,"Rule: When you see a yellow image, do not press 'spacebar'.",Images/Fearful/WM11_FC.jpg,Fear,Blue,Images/Blue.jpg,space,ParentConditions/YellowBlueBlue_v1.xlsx,BlueBlueYellow,Conditions/Version_1/YellowHappyStop.xlsx,no,PASS,0.023552815,,,,,,,,,0,0,0,0,0,0,0,0,0,47,47,47,,,,,,,,,,,,,,,,,,,,,,,,,,,,,,,,,,,,,,,,,,,,,,,,,,,,,,,,,,,,,,,,,,,,,,,,,,,,,,,1.24,603.6025579,None,space,1,0.3032454,604.9434067,None,604.9434067,None,604.9434067,None,,,,,,,,,,,P021,fencog,1,Pre,2021_Dec_10_1240,Go No-Go Task,2021.1.4,120.0202114
,"Rule: When you see a yellow image, do not press 'spacebar'.",Images/Fearful/AM02_FO.jpg,Fear,Blue,Images/Blue.jpg,space,ParentConditions/YellowBlueBlue_v1.xlsx,BlueBlueYellow,Conditions/Version_1/YellowHappyStop.xlsx,no,PASS,0.490608824,,,,,,,,,0,0,0,0,0,0,0,0,0,48,48,48,,,,,,,,,,,,,,,,,,,,,,,,,,,,,,,,,,,,,,,,,,,,,,,,,,,,,,,,,,,,,,,,,,,,,,,,,,,,,,,1.69,605.3455397,None,space,1,0.311482,607.1428483,None,607.1428483,None,607.1428483,None,,,,,,,,,,,P021,fencog,1,Pre,2021_Dec_10_1240,Go No-Go Task,2021.1.4,120.0202114
,"Rule: When you see a yellow image, do not press 'spacebar'.",Images/Happy/HM09_HO.jpg,Happy,Yellow,Images/Yellow.jpg,None,ParentConditions/YellowBlueBlue_v1.xlsx,BlueBlueYellow,Conditions/Version_1/YellowHappyStop.xlsx,yes,PASS,0.517262667,,,,,,,,,0,0,0,0,0,0,0,0,0,49,49,49,,,,,,,,,,,,,,,,,,,,,,,,,,,,,,,,,,,,,,,,,,,,,,,,,,,,,,,,,,,,,,,,,,,,,,,,,,,,,,,1.22,607.5437701,None,None,1,,608.8672358,None,608.8672358,None,608.8672358,None,,,,,,,,,,,P021,fencog,1,Pre,2021_Dec_10_1240,Go No-Go Task,2021.1.4,120.0202114
,"Rule: When you see a yellow image, do not press 'spacebar'.",Images/Happy/HF10_HE.jpg,Happy,Yellow,Images/Yellow.jpg,None,ParentConditions/YellowBlueBlue_v1.xlsx,BlueBlueYellow,Conditions/Version_1/YellowHappyStop.xlsx,yes,PASS,0.441501671,,,,,,,,,0,0,0,0,0,0,0,0,0,50,50,50,,,,,,,,,,,,,,,,,,,,,,,,,,,,,,,,,,,,,,,,,,,,,,,,,,,,,,,,,,,,,,,,,,,,,,,,,,,,,,,1.62,609.2669508,None,None,1,,610.9915583,None,610.9915583,None,610.9915583,None,,,,,,,,,,,P021,fencog,1,Pre,2021_Dec_10_1240,Go No-Go Task,2021.1.4,120.0202114
,"Rule: When you see a yellow image, do not press 'spacebar'.",Images/Fearful/AF09AFS.jpg,Fear,Blue,Images/Blue.jpg,space,ParentConditions/YellowBlueBlue_v1.xlsx,BlueBlueYellow,Conditions/Version_1/YellowHappyStop.xlsx,no,PASS,0.203297314,,,,,,,,,0,0,0,0,0,0,0,0,0,51,51,51,,,,,,,,,,,,,,,,,,,,,,,,,,,,,,,,,,,,,,,,,,,,,,,,,,,,,,,,,,,,,,,,,,,,,,,,,,,,,,,1.44,611.396042,None,space,1,0.3216946,612.9408897,None,612.9408897,None,612.9408897,None,,,,,,,,,,,P021,fencog,1,Pre,2021_Dec_10_1240,Go No-Go Task,2021.1.4,120.0202114
,"Rule: When you see a yellow image, do not press 'spacebar'.",Images/Fearful/AM23AFS.jpg,Fear,Blue,Images/Blue.jpg,space,ParentConditions/YellowBlueBlue_v1.xlsx,BlueBlueYellow,Conditions/Version_1/YellowHappyStop.xlsx,no,PASS,0.91347903,,,,,,,,,0,0,0,0,0,0,0,0,0,52,52,52,,,,,,,,,,,,,,,,,,,,,,,,,,,,,,,,,,,,,,,,,,,,,,,,,,,,,,,,,,,,,,,,,,,,,,,,,,,,,,,1.86,613.3449626,None,space,1,0.3310686,615.315378,None,615.315378,None,615.315378,None,,,,,,,,,,,P021,fencog,1,Pre,2021_Dec_10_1240,Go No-Go Task,2021.1.4,120.0202114
,"Rule: When you see a yellow image, do not press 'spacebar'.",Images/Fearful/AM05AFS.jpg,Fear,Blue,Images/Blue.jpg,space,ParentConditions/YellowBlueBlue_v1.xlsx,BlueBlueYellow,Conditions/Version_1/YellowHappyStop.xlsx,no,PASS,0.736954295,,,,,,,,,0,0,0,0,0,0,0,0,0,53,53,53,,,,,,,,,,,,,,,,,,,,,,,,,,,,,,,,,,,,,,,,,,,,,,,,,,,,,,,,,,,,,,,,,,,,,,,,,,,,,,,1.65,615.7142669,None,space,1,0.3658509,617.4645246,None,617.4645246,None,617.4645246,None,,,,,,,,,,,P021,fencog,1,Pre,2021_Dec_10_1240,Go No-Go Task,2021.1.4,120.0202114
,"Rule: When you see a yellow image, do not press 'spacebar'.",Images/Happy/AF28HAS.jpg,Happy,Yellow,Images/Yellow.jpg,None,ParentConditions/YellowBlueBlue_v1.xlsx,BlueBlueYellow,Conditions/Version_1/YellowHappyStop.xlsx,yes,PASS,0.271683037,,,,,,,,,0,0,0,0,0,0,0,0,0,54,54,54,,,,,,,,,,,,,,,,,,,,,,,,,,,,,,,,,,,,,,,,,,,,,,,,,,,,,,,,,,,,,,,,,,,,,,,,,,,,,,,1.81,617.8649515,None,None,1,,619.7807937,None,619.7807937,None,619.7807937,None,,,,,,,,,,,P021,fencog,1,Pre,2021_Dec_10_1240,Go No-Go Task,2021.1.4,120.0202114
,"Rule: When you see a yellow image, do not press 'spacebar'.",Images/Fearful/BF14_FO.jpg,Fear,Blue,Images/Blue.jpg,space,ParentConditions/YellowBlueBlue_v1.xlsx,BlueBlueYellow,Conditions/Version_1/YellowHappyStop.xlsx,no,PASS,0.643342165,,,,,,,,,0,0,0,0,0,0,0,0,0,55,55,55,,,,,,,,,,,,,,,,,,,,,,,,,,,,,,,,,,,,,,,,,,,,,,,,,,,,,,,,,,,,,,,,,,,,,,,,,,,,,,,1.45,620.1874159,None,space,1,0.3239072,621.7384611,None,621.7384611,None,621.7384611,None,,,,,,,,,,,P021,fencog,1,Pre,2021_Dec_10_1240,Go No-Go Task,2021.1.4,120.0202114
,"Rule: When you see a yellow image, do not press 'spacebar'.",Images/Happy/AM30HAS.jpg,Happy,Yellow,Images/Yellow.jpg,None,ParentConditions/YellowBlueBlue_v1.xlsx,BlueBlueYellow,Conditions/Version_1/YellowHappyStop.xlsx,yes,PASS,0.079450542,,,,,,,,,0,0,0,0,0,0,0,0,0,56,56,56,,,,,,,,,,,,,,,,,,,,,,,,,,,,,,,,,,,,,,,,,,,,,,,,,,,,,,,,,,,,,,,,,,,,,,,,,,,,,,,1.89,622.1390717,None,None,1,,624.1293631,None,624.1293631,None,624.1293631,None,,,,,,,,,,,P021,fencog,1,Pre,2021_Dec_10_1240,Go No-Go Task,2021.1.4,120.0202114
,"Rule: When you see a yellow image, do not press 'spacebar'.",Images/Fearful/AF27AFS.jpg,Fear,Blue,Images/Blue.jpg,space,ParentConditions/YellowBlueBlue_v1.xlsx,BlueBlueYellow,Conditions/Version_1/YellowHappyStop.xlsx,no,PASS,0.393583477,,,,,,,,,0,0,0,0,0,0,0,0,0,57,57,57,,,,,,,,,,,,,,,,,,,,,,,,,,,,,,,,,,,,,,,,,,,,,,,,,,,,,,,,,,,,,,,,,,,,,,,,,,,,,,,2,624.5301806,None,space,1,0.2970657,626.6532261,None,626.6532261,None,626.6532261,None,,,,,,,,,,,P021,fencog,1,Pre,2021_Dec_10_1240,Go No-Go Task,2021.1.4,120.0202114
,"Rule: When you see a yellow image, do not press 'spacebar'.",Images/Fearful/AM32AFS.jpg,Fear,Blue,Images/Blue.jpg,space,ParentConditions/YellowBlueBlue_v1.xlsx,BlueBlueYellow,Conditions/Version_1/YellowHappyStop.xlsx,no,PASS,0.561445822,,,,,,,,,0,0,0,0,0,0,0,0,0,58,58,58,,,,,,,,,,,,,,,,,,,,,,,,,,,,,,,,,,,,,,,,,,,,,,,,,,,,,,,,,,,,,,,,,,,,,,,,,,,,,,,1.5,627.0442705,None,space,1,0.3778702,628.6447102,None,628.6447102,None,628.6447102,None,,,,,,,,,,,P021,fencog,1,Pre,2021_Dec_10_1240,Go No-Go Task,2021.1.4,120.0202114
,"Rule: When you see a yellow image, do not press 'spacebar'.",Images/Fearful/AM09_FO.jpg,Fear,Blue,Images/Blue.jpg,space,ParentConditions/YellowBlueBlue_v1.xlsx,BlueBlueYellow,Conditions/Version_1/YellowHappyStop.xlsx,no,PASS,0.393383742,,,,,,,,,0,0,0,0,0,0,0,0,0,59,59,59,,,,,,,,,,,,,,,,,,,,,,,,,,,,,,,,,,,,,,,,,,,,,,,,,,,,,,,,,,,,,,,,,,,,,,,,,,,,,,,1.42,629.0501979,None,space,1,0.3327346,630.5774417,None,630.5774417,None,630.5774417,None,,,,,,,,,,,P021,fencog,1,Pre,2021_Dec_10_1240,Go No-Go Task,2021.1.4,120.0202114
,"Rule: When you see a yellow image, do not press 'spacebar'.",Images/Fearful/AF01_FO.jpg,Fear,Blue,Images/Blue.jpg,space,ParentConditions/YellowBlueBlue_v1.xlsx,BlueBlueYellow,Conditions/Version_1/YellowHappyStop.xlsx,no,PASS,0.741987001,,,,,,,,,0,0,0,0,0,0,0,0,0,60,60,60,,,,,,,,,,,,,,,,,,,,,,,,,,,,,,,,,,,,,,,,,,,,,,,,,,,,,,,,,,,,,,,,,,,,,,,,,,,,,,,1.56,630.9778186,None,space,1,0.2908667,632.6435197,None,632.6435197,None,632.6435197,None,,,,,,,,,,,P021,fencog,1,Pre,2021_Dec_10_1240,Go No-Go Task,2021.1.4,120.0202114
,"Rule: When you see a yellow image, do not press 'spacebar'.",Images/Happy/AM10_HO.jpg,Happy,Yellow,Images/Yellow.jpg,None,ParentConditions/YellowBlueBlue_v1.xlsx,BlueBlueYellow,Conditions/Version_1/YellowHappyStop.xlsx,yes,PASS,0.735240209,,,,,,,,,0,0,0,0,0,0,0,0,0,61,61,61,,,,,,,,,,,,,,,,,,,,,,,,,,,,,,,,,,,,,,,,,,,,,,,,,,,,,,,,,,,,,,,,,,,,,,,,,,,,,,,1.32,633.0445936,None,None,1,,634.4680166,None,634.4680166,None,634.4680166,None,,,,,,,,,,,P021,fencog,1,Pre,2021_Dec_10_1240,Go No-Go Task,2021.1.4,120.0202114
,"Rule: When you see a yellow image, do not press 'spacebar'.",Images/Happy/AM22HAS.jpg,Happy,Yellow,Images/Yellow.jpg,None,ParentConditions/YellowBlueBlue_v1.xlsx,BlueBlueYellow,Conditions/Version_1/YellowHappyStop.xlsx,yes,PASS,0.278385899,,,,,,,,,0,0,0,0,0,0,0,0,0,62,62,62,,,,,,,,,,,,,,,,,,,,,,,,,,,,,,,,,,,,,,,,,,,,,,,,,,,,,,,,,,,,,,,,,,,,,,,,,,,,,,,1.84,634.8723076,None,None,1,,636.8255575,None,636.8255575,None,636.8255575,None,,,,,,,,,,,P021,fencog,1,Pre,2021_Dec_10_1240,Go No-Go Task,2021.1.4,120.0202114
,"Rule: When you see a yellow image, do not press 'spacebar'.",Images/Fearful/AM22AFS.jpg,Fear,Blue,Images/Blue.jpg,space,ParentConditions/YellowBlueBlue_v1.xlsx,BlueBlueYellow,Conditions/Version_1/YellowHappyStop.xlsx,no,PASS,0.012398819,,,,,,,,,0,0,0,0,0,0,0,0,0,63,63,63,,,,,,,,,,,,,,,,,,,,,,,,,,,,,,,,,,,,,,,,,,,,,,,,,,,,,,,,,,,,,,,,,,,,,,,,,,,,,,,1.21,637.2202055,None,None,0,,638.5251959,None,638.5251959,None,638.5251959,None,,,,,,,,,,,P021,fencog,1,Pre,2021_Dec_10_1240,Go No-Go Task,2021.1.4,120.0202114
,"Rule: When you see a yellow image, do not press 'spacebar'.",Images/Happy/BM08_HO.jpg,Happy,Yellow,Images/Yellow.jpg,None,ParentConditions/YellowBlueBlue_v1.xlsx,BlueBlueYellow,Conditions/Version_1/YellowHappyStop.xlsx,yes,PASS,0.257918812,,,,,,,,,0,0,0,0,0,0,0,0,0,64,64,64,,,,,,,,,,,,,,,,,,,,,,,,,,,,,,,,,,,,,,,,,,,,,,,,,,,,,,,,,,,,,,,,,,,,,,,,,,,,,,,1.71,638.9244622,None,None,1,,640.7411688,None,640.7411688,None,640.7411688,None,,,,,,,,,,,P021,fencog,1,Pre,2021_Dec_10_1240,Go No-Go Task,2021.1.4,120.0202114
,"Rule: When you see a yellow image, do not press 'spacebar'.",Images/Fearful/AM19AFS.jpg,Fear,Blue,Images/Blue.jpg,space,ParentConditions/YellowBlueBlue_v1.xlsx,BlueBlueYellow,Conditions/Version_1/YellowHappyStop.xlsx,no,PASS,0.457009237,,,,,,,,,0,0,0,0,0,0,0,0,0,65,65,65,,,,,,,,,,,,,,,,,,,,,,,,,,,,,,,,,,,,,,,,,,,,,,,,,,,,,,,,,,,,,,,,,,,,,,,,,,,,,,,1.43,641.1401386,None,space,1,0.3088484,642.6738536,None,642.6738536,None,642.6738536,None,,,,,,,,,,,P021,fencog,1,Pre,2021_Dec_10_1240,Go No-Go Task,2021.1.4,120.0202114
,"Rule: When you see a yellow image, do not press 'spacebar'.",Images/Fearful/AF23AFS.jpg,Fear,Blue,Images/Blue.jpg,space,ParentConditions/YellowBlueBlue_v1.xlsx,BlueBlueYellow,Conditions/Version_1/YellowHappyStop.xlsx,no,PASS,0.90659309,,,,,,,,,0,0,0,0,0,0,0,0,0,66,66,66,,,,,,,,,,,,,,,,,,,,,,,,,,,,,,,,,,,,,,,,,,,,,,,,,,,,,,,,,,,,,,,,,,,,,,,,,,,,,,,1.7,643.0730436,None,space,1,0.2932739,644.8732057,None,644.8732057,None,644.8732057,None,,,,,,,,,,,P021,fencog,1,Pre,2021_Dec_10_1240,Go No-Go Task,2021.1.4,120.0202114
,"Rule: When you see a yellow image, do not press 'spacebar'.",Images/Fearful/AM13AFS.jpg,Fear,Blue,Images/Blue.jpg,space,ParentConditions/YellowBlueBlue_v1.xlsx,BlueBlueYellow,Conditions/Version_1/YellowHappyStop.xlsx,no,PASS,0.672217887,,,,,,,,,0,0,0,0,0,0,0,0,0,67,67,67,,,,,,,,,,,,,,,,,,,,,,,,,,,,,,,,,,,,,,,,,,,,,,,,,,,,,,,,,,,,,,,,,,,,,,,,,,,,,,,1.29,645.2738637,None,space,1,0.325852,646.664318,None,646.664318,None,646.664318,None,,,,,,,,,,,P021,fencog,1,Pre,2021_Dec_10_1240,Go No-Go Task,2021.1.4,120.0202114
,"Rule: When you see a yellow image, do not press 'spacebar'.",Images/Fearful/HF09_FC.jpg,Fear,Blue,Images/Blue.jpg,space,ParentConditions/YellowBlueBlue_v1.xlsx,BlueBlueYellow,Conditions/Version_1/YellowHappyStop.xlsx,no,PASS,0.947763278,,,,,,,,,0,0,0,0,0,0,0,0,0,68,68,68,,,,,,,,,,,,,,,,,,,,,,,,,,,,,,,,,,,,,,,,,,,,,,,,,,,,,,,,,,,,,,,,,,,,,,,,,,,,,,,1.28,647.0631864,None,space,1,0.2632224,648.4471443,None,648.4471443,None,648.4471443,None,,,,,,,,,,,P021,fencog,1,Pre,2021_Dec_10_1240,Go No-Go Task,2021.1.4,120.0202114
,"Rule: When you see a yellow image, do not press 'spacebar'.",Images/Fearful/AM04AFS.jpg,Fear,Blue,Images/Blue.jpg,space,ParentConditions/YellowBlueBlue_v1.xlsx,BlueBlueYellow,Conditions/Version_1/YellowHappyStop.xlsx,no,PASS,0.715571073,,,,,,,,,0,0,0,0,0,0,0,0,0,69,69,69,,,,,,,,,,,,,,,,,,,,,,,,,,,,,,,,,,,,,,,,,,,,,,,,,,,,,,,,,,,,,,,,,,,,,,,,,,,,,,,1.95,648.8487594,None,space,1,0.3572064,650.9130734,None,650.9130734,None,650.9130734,None,,,,,,,,,,,P021,fencog,1,Pre,2021_Dec_10_1240,Go No-Go Task,2021.1.4,120.0202114
,"Rule: When you see a yellow image, do not press 'spacebar'.",Images/Fearful/AF02AFS.jpg,Fear,Blue,Images/Blue.jpg,space,ParentConditions/YellowBlueBlue_v1.xlsx,BlueBlueYellow,Conditions/Version_1/YellowHappyStop.xlsx,no,PASS,0.986479223,,,,,,,,,0,0,0,0,0,0,0,0,0,70,70,70,,,,,,,,,,,,,,,,,,,,,,,,,,,,,,,,,,,,,,,,,,,,,,,,,,,,,,,,,,,,,,,,,,,,,,,,,,,,,,,1.51,651.312107,None,space,1,0.3092432,652.9291038,None,652.9291038,None,652.9291038,None,,,,,,,,,,,P021,fencog,1,Pre,2021_Dec_10_1240,Go No-Go Task,2021.1.4,120.0202114
,"Rule: When you see a yellow image, do not press 'spacebar'.",Images/Fearful/AM09AFS.jpg,Fear,Blue,Images/Blue.jpg,space,ParentConditions/YellowBlueBlue_v1.xlsx,BlueBlueYellow,Conditions/Version_1/YellowHappyStop.xlsx,no,PASS,0.839032624,,,,,,,,,0,0,0,0,0,0,0,0,0,71,71,71,,,,,,,,,,,,,,,,,,,,,,,,,,,,,,,,,,,,,,,,,,,,,,,,,,,,,,,,,,,,,,,,,,,,,,,,,,,,,,,1.8,653.3291234,None,space,1,0.2895861,655.2367552,None,655.2367552,None,655.2367552,None,,,,,,,,,,,P021,fencog,1,Pre,2021_Dec_10_1240,Go No-Go Task,2021.1.4,120.0202114
,"Rule: When you see a yellow image, do not press 'spacebar'.",Images/Fearful/BF05_FO.jpg,Fear,Blue,Images/Blue.jpg,space,ParentConditions/YellowBlueBlue_v1.xlsx,BlueBlueYellow,Conditions/Version_1/YellowHappyStop.xlsx,no,PASS,0.69191788,,,,,,,,,0,0,0,0,0,0,0,0,0,72,72,72,,,,,,,,,,,,,,,,,,,,,,,,,,,,,,,,,,,,,,,,,,,,,,,,,,,,,,,,,,,,,,,,,,,,,,,,,,,,,,,1.6,655.6371883,None,space,1,0.3658339,657.3445189,None,657.3445189,None,657.3445189,None,,,,,,,,,,,P021,fencog,1,Pre,2021_Dec_10_1240,Go No-Go Task,2021.1.4,120.0202114
,"Rule: When you see a yellow image, do not press 'spacebar'.",Images/Fearful/AF22AFS.jpg,Fear,Blue,Images/Blue.jpg,space,ParentConditions/YellowBlueBlue_v1.xlsx,BlueBlueYellow,Conditions/Version_1/YellowHappyStop.xlsx,no,PASS,0.035298364,,,,,,,,,0,0,0,0,0,0,0,0,0,73,73,73,,,,,,,,,,,,,,,,,,,,,,,,,,,,,,,,,,,,,,,,,,,,,,,,,,,,,,,,,,,,,,,,,,,,,,,,,,,,,,,1.66,657.7449476,None,space,1,0.2402649,659.510529,None,659.510529,None,659.510529,None,,,,,,,,,,,P021,fencog,1,Pre,2021_Dec_10_1240,Go No-Go Task,2021.1.4,120.0202114
,"Rule: When you see a yellow image, do not press 'spacebar'.",Images/Happy/BF18_HO.jpg,Happy,Yellow,Images/Yellow.jpg,None,ParentConditions/YellowBlueBlue_v1.xlsx,BlueBlueYellow,Conditions/Version_1/YellowHappyStop.xlsx,yes,PASS,0.423269179,,,,,,,,,0,0,0,0,0,0,0,0,0,74,74,74,,,,,,,,,,,,,,,,,,,,,,,,,,,,,,,,,,,,,,,,,,,,,,,,,,,,,,,,,,,,,,,,,,,,,,,,,,,,,,,1.94,659.9126817,None,None,1,,661.9597244,None,661.9597244,None,661.9597244,None,,,,,,,,,,,P021,fencog,1,Pre,2021_Dec_10_1240,Go No-Go Task,2021.1.4,120.0202114
,"Rule: When you see a yellow image, do not press 'spacebar'.",Images/Fearful/WM12_FO.jpg,Fear,Blue,Images/Blue.jpg,space,ParentConditions/YellowBlueBlue_v1.xlsx,BlueBlueYellow,Conditions/Version_1/YellowHappyStop.xlsx,no,PASS,0.346716402,,,,,,,,,0,0,0,0,0,0,0,0,0,75,75,75,,,,,,,,,,,,,,,,,,,,,,,,,,,,,,,,,,,,,,,,,,,,,,,,,,,,,,,,,,,,,,,,,,,,,,,,,,,,,,,1.47,662.3602155,None,space,1,0.3035257,663.9506959,None,663.9506959,None,663.9506959,None,,,,,,,,,,,P021,fencog,1,Pre,2021_Dec_10_1240,Go No-Go Task,2021.1.4,120.0202114
,"Rule: When you see a yellow image, do not press 'spacebar'.",Images/Fearful/BF07_FO.jpg,Fear,Blue,Images/Blue.jpg,space,ParentConditions/YellowBlueBlue_v1.xlsx,BlueBlueYellow,Conditions/Version_1/YellowHappyStop.xlsx,no,PASS,0.29929458,,,,,,,,,0,0,0,0,0,0,0,0,0,76,76,76,,,,,,,,,,,,,,,,,,,,,,,,,,,,,,,,,,,,,,,,,,,,,,,,,,,,,,,,,,,,,,,,,,,,,,,,,,,,,,,1.75,664.3400766,None,space,1,0.2944248,666.1918885,None,666.1918885,None,666.1918885,None,,,,,,,,,,,P021,fencog,1,Pre,2021_Dec_10_1240,Go No-Go Task,2021.1.4,120.0202114
,"Rule: When you see a yellow image, do not press 'spacebar'.",Images/Fearful/HF10_FO.jpg,Fear,Blue,Images/Blue.jpg,space,ParentConditions/YellowBlueBlue_v1.xlsx,BlueBlueYellow,Conditions/Version_1/YellowHappyStop.xlsx,no,PASS,0.065069775,,,,,,,,,0,0,0,0,0,0,0,0,0,77,77,77,,,,,,,,,,,,,,,,,,,,,,,,,,,,,,,,,,,,,,,,,,,,,,,,,,,,,,,,,,,,,,,,,,,,,,,,,,,,,,,1.63,666.600174,None,space,1,0.2814619,668.332958,None,668.332958,None,668.332958,None,,,,,,,,,,,P021,fencog,1,Pre,2021_Dec_10_1240,Go No-Go Task,2021.1.4,120.0202114
,"Rule: When you see a yellow image, do not press 'spacebar'.",Images/Fearful/AM10AFS.jpg,Fear,Blue,Images/Blue.jpg,space,ParentConditions/YellowBlueBlue_v1.xlsx,BlueBlueYellow,Conditions/Version_1/YellowHappyStop.xlsx,no,PASS,0.439108583,,,,,,,,,0,0,0,0,0,0,0,0,0,78,78,78,,,,,,,,,,,,,,,,,,,,,,,,,,,,,,,,,,,,,,,,,,,,,,,,,,,,,,,,,,,,,,,,,,,,,,,,,,,,,,,1.34,668.7401788,None,space,1,0.3281372,670.1822046,None,670.1822046,None,670.1822046,None,,,,,,,,,,,P021,fencog,1,Pre,2021_Dec_10_1240,Go No-Go Task,2021.1.4,120.0202114
,"Rule: When you see a yellow image, do not press 'spacebar'.",Images/Happy/AM23HAS.jpg,Happy,Yellow,Images/Yellow.jpg,None,ParentConditions/YellowBlueBlue_v1.xlsx,BlueBlueYellow,Conditions/Version_1/YellowHappyStop.xlsx,yes,PASS,0.829645646,,,,,,,,,0,0,0,0,0,0,0,0,0,79,79,79,,,,,,,,,,,,,,,,,,,,,,,,,,,,,,,,,,,,,,,,,,,,,,,,,,,,,,,,,,,,,,,,,,,,,,,,,,,,,,,1.39,670.5828485,None,None,1,,672.0734686,None,672.0734686,None,672.0734686,None,,,,,,,,,,,P021,fencog,1,Pre,2021_Dec_10_1240,Go No-Go Task,2021.1.4,120.0202114
,"Rule: When you see blue image, do not press 'spacebar'.",Images/Fearful/HM06_FC.jpg,Fear,Blue,Images/Blue.jpg,None,ParentConditions/YellowBlueBlue_v1.xlsx,BlueBlueYellow,Conditions/Version_1/BlueFearStop.xlsx,yes,PASS,0.772981301,,,,,,,,,0,0,0,0,0,1,1,1,0,0,0,0,,,,,,,,,,,,,,,,,,,,,,,,,,,,,,,,,,,,,,,,,,,,,,,,,,,,,,,,,,,,,,,,,716.5186953,None,719.5087962,None,space,9.6332718,719.5087962,None,716.5186953,None,716.5186953,None,716.5186953,None,1.43,729.1969996,None,None,1,,730.7309715,None,730.7309715,None,730.7309715,None,672.4844956,None,space,43.5215509,672.9726382,None,672.4844956,None,672.4844956,None,P021,fencog,1,Pre,2021_Dec_10_1240,Go No-Go Task,2021.1.4,120.0202114
,"Rule: When you see blue image, do not press 'spacebar'.",Images/Happy/AF07HAS.jpg,Happy,Yellow,Images/Yellow.jpg,space,ParentConditions/YellowBlueBlue_v1.xlsx,BlueBlueYellow,Conditions/Version_1/BlueFearStop.xlsx,no,PASS,0.492445365,,,,,,,,,0,0,0,0,0,1,1,1,0,1,1,1,,,,,,,,,,,,,,,,,,,,,,,,,,,,,,,,,,,,,,,,,,,,,,,,,,,,,,,,,,,,,,,,,,,,,,,,,,,,,,,1.78,731.1362475,None,space,1,0.3119718,733.0220438,None,733.0220438,None,733.0220438,None,,,,,,,,,,,P021,fencog,1,Pre,2021_Dec_10_1240,Go No-Go Task,2021.1.4,120.0202114
,"Rule: When you see blue image, do not press 'spacebar'.",Images/Happy/AF28HAS.jpg,Happy,Yellow,Images/Yellow.jpg,space,ParentConditions/YellowBlueBlue_v1.xlsx,BlueBlueYellow,Conditions/Version_1/BlueFearStop.xlsx,no,PASS,0.894347366,,,,,,,,,0,0,0,0,0,1,1,1,0,2,2,2,,,,,,,,,,,,,,,,,,,,,,,,,,,,,,,,,,,,,,,,,,,,,,,,,,,,,,,,,,,,,,,,,,,,,,,,,,,,,,,1.48,733.4224962,None,space,1,0.2972978,735.0047054,None,735.0047054,None,735.0047054,None,,,,,,,,,,,P021,fencog,1,Pre,2021_Dec_10_1240,Go No-Go Task,2021.1.4,120.0202114
,"Rule: When you see blue image, do not press 'spacebar'.",Images/Happy/AF22HAS.jpg,Happy,Yellow,Images/Yellow.jpg,space,ParentConditions/YellowBlueBlue_v1.xlsx,BlueBlueYellow,Conditions/Version_1/BlueFearStop.xlsx,no,PASS,0.589276506,,,,,,,,,0,0,0,0,0,1,1,1,0,3,3,3,,,,,,,,,,,,,,,,,,,,,,,,,,,,,,,,,,,,,,,,,,,,,,,,,,,,,,,,,,,,,,,,,,,,,,,,,,,,,,,1.44,735.4056901,None,space,1,0.2842127,736.9458169,None,736.9458169,None,736.9458169,None,,,,,,,,,,,P021,fencog,1,Pre,2021_Dec_10_1240,Go No-Go Task,2021.1.4,120.0202114
,"Rule: When you see blue image, do not press 'spacebar'.",Images/Fearful/AF27AFS.jpg,Fear,Blue,Images/Blue.jpg,None,ParentConditions/YellowBlueBlue_v1.xlsx,BlueBlueYellow,Conditions/Version_1/BlueFearStop.xlsx,yes,PASS,0.414285813,,,,,,,,,0,0,0,0,0,1,1,1,0,4,4,4,,,,,,,,,,,,,,,,,,,,,,,,,,,,,,,,,,,,,,,,,,,,,,,,,,,,,,,,,,,,,,,,,,,,,,,,,,,,,,,1.26,737.3516574,None,None,1,,738.71184,None,738.71184,None,738.71184,None,,,,,,,,,,,P021,fencog,1,Pre,2021_Dec_10_1240,Go No-Go Task,2021.1.4,120.0202114
,"Rule: When you see blue image, do not press 'spacebar'.",Images/Happy/AM24HAS.jpg,Happy,Yellow,Images/Yellow.jpg,space,ParentConditions/YellowBlueBlue_v1.xlsx,BlueBlueYellow,Conditions/Version_1/BlueFearStop.xlsx,no,PASS,0.81268674,,,,,,,,,0,0,0,0,0,1,1,1,0,5,5,5,,,,,,,,,,,,,,,,,,,,,,,,,,,,,,,,,,,,,,,,,,,,,,,,,,,,,,,,,,,,,,,,,,,,,,,,,,,,,,,1.69,739.112404,None,space,1,0.2791396,740.9030303,None,740.9030303,None,740.9030303,None,,,,,,,,,,,P021,fencog,1,Pre,2021_Dec_10_1240,Go No-Go Task,2021.1.4,120.0202114
,"Rule: When you see blue image, do not press 'spacebar'.",Images/Fearful/AF26AFS.jpg,Fear,Blue,Images/Blue.jpg,None,ParentConditions/YellowBlueBlue_v1.xlsx,BlueBlueYellow,Conditions/Version_1/BlueFearStop.xlsx,yes,PASS,0.777153914,,,,,,,,,0,0,0,0,0,1,1,1,0,6,6,6,,,,,,,,,,,,,,,,,,,,,,,,,,,,,,,,,,,,,,,,,,,,,,,,,,,,,,,,,,,,,,,,,,,,,,,,,,,,,,,1.61,741.3066445,None,None,1,,743.018969,None,743.018969,None,743.018969,None,,,,,,,,,,,P021,fencog,1,Pre,2021_Dec_10_1240,Go No-Go Task,2021.1.4,120.0202114
,"Rule: When you see blue image, do not press 'spacebar'.",Images/Happy/WM11_HC.jpg,Happy,Yellow,Images/Yellow.jpg,space,ParentConditions/YellowBlueBlue_v1.xlsx,BlueBlueYellow,Conditions/Version_1/BlueFearStop.xlsx,no,PASS,0.612727142,,,,,,,,,0,0,0,0,0,1,1,1,0,7,7,7,,,,,,,,,,,,,,,,,,,,,,,,,,,,,,,,,,,,,,,,,,,,,,,,,,,,,,,,,,,,,,,,,,,,,,,,,,,,,,,1.27,743.4283053,None,space,1,0.3482329,744.8018571,None,744.8018571,None,744.8018571,None,,,,,,,,,,,P021,fencog,1,Pre,2021_Dec_10_1240,Go No-Go Task,2021.1.4,120.0202114
,"Rule: When you see blue image, do not press 'spacebar'.",Images/Happy/BM03_HO.jpg,Happy,Yellow,Images/Yellow.jpg,space,ParentConditions/YellowBlueBlue_v1.xlsx,BlueBlueYellow,Conditions/Version_1/BlueFearStop.xlsx,no,PASS,0.731316503,,,,,,,,,0,0,0,0,0,1,1,1,0,8,8,8,,,,,,,,,,,,,,,,,,,,,,,,,,,,,,,,,,,,,,,,,,,,,,,,,,,,,,,,,,,,,,,,,,,,,,,,,,,,,,,1.74,745.2015833,None,space,1,0.3072323,747.042842,None,747.042842,None,747.042842,None,,,,,,,,,,,P021,fencog,1,Pre,2021_Dec_10_1240,Go No-Go Task,2021.1.4,120.0202114
,"Rule: When you see blue image, do not press 'spacebar'.",Images/Happy/BF18_HO.jpg,Happy,Yellow,Images/Yellow.jpg,space,ParentConditions/YellowBlueBlue_v1.xlsx,BlueBlueYellow,Conditions/Version_1/BlueFearStop.xlsx,no,PASS,0.571593553,,,,,,,,,0,0,0,0,0,1,1,1,0,9,9,9,,,,,,,,,,,,,,,,,,,,,,,,,,,,,,,,,,,,,,,,,,,,,,,,,,,,,,,,,,,,,,,,,,,,,,,,,,,,,,,1.93,747.4435153,None,space,1,0.2911803,749.4670717,None,749.4670717,None,749.4670717,None,,,,,,,,,,,P021,fencog,1,Pre,2021_Dec_10_1240,Go No-Go Task,2021.1.4,120.0202114
,"Rule: When you see blue image, do not press 'spacebar'.",Images/Happy/AM10HAS.jpg,Happy,Yellow,Images/Yellow.jpg,space,ParentConditions/YellowBlueBlue_v1.xlsx,BlueBlueYellow,Conditions/Version_1/BlueFearStop.xlsx,no,PASS,0.4742387,,,,,,,,,0,0,0,0,0,1,1,1,0,10,10,10,,,,,,,,,,,,,,,,,,,,,,,,,,,,,,,,,,,,,,,,,,,,,,,,,,,,,,,,,,,,,,,,,,,,,,,,,,,,,,,1.2,749.8729987,None,space,1,0.2871196,751.1748723,None,751.1748723,None,751.1748723,None,,,,,,,,,,,P021,fencog,1,Pre,2021_Dec_10_1240,Go No-Go Task,2021.1.4,120.0202114
,"Rule: When you see blue image, do not press 'spacebar'.",Images/Happy/AM09HAS.jpg,Happy,Yellow,Images/Yellow.jpg,space,ParentConditions/YellowBlueBlue_v1.xlsx,BlueBlueYellow,Conditions/Version_1/BlueFearStop.xlsx,no,PASS,0.579137519,,,,,,,,,0,0,0,0,0,1,1,1,0,11,11,11,,,,,,,,,,,,,,,,,,,,,,,,,,,,,,,,,,,,,,,,,,,,,,,,,,,,,,,,,,,,,,,,,,,,,,,,,,,,,,,1.79,751.5805871,None,space,1,0.2677412,753.4742166,None,753.4742166,None,753.4742166,None,,,,,,,,,,,P021,fencog,1,Pre,2021_Dec_10_1240,Go No-Go Task,2021.1.4,120.0202114
,"Rule: When you see blue image, do not press 'spacebar'.",Images/Happy/AM16HAS.jpg,Happy,Yellow,Images/Yellow.jpg,space,ParentConditions/YellowBlueBlue_v1.xlsx,BlueBlueYellow,Conditions/Version_1/BlueFearStop.xlsx,no,PASS,0.068511461,,,,,,,,,0,0,0,0,0,1,1,1,0,12,12,12,,,,,,,,,,,,,,,,,,,,,,,,,,,,,,,,,,,,,,,,,,,,,,,,,,,,,,,,,,,,,,,,,,,,,,,,,,,,,,,1.71,753.8811827,None,space,1,0.3153766,755.6985915,None,755.6985915,None,755.6985915,None,,,,,,,,,,,P021,fencog,1,Pre,2021_Dec_10_1240,Go No-Go Task,2021.1.4,120.0202114
,"Rule: When you see blue image, do not press 'spacebar'.",Images/Happy/AF10_HE.jpg,Happy,Yellow,Images/Yellow.jpg,space,ParentConditions/YellowBlueBlue_v1.xlsx,BlueBlueYellow,Conditions/Version_1/BlueFearStop.xlsx,no,PASS,0.212673717,,,,,,,,,0,0,0,0,0,1,1,1,0,13,13,13,,,,,,,,,,,,,,,,,,,,,,,,,,,,,,,,,,,,,,,,,,,,,,,,,,,,,,,,,,,,,,,,,,,,,,,,,,,,,,,1.65,756.0990296,None,space,1,0.2698561,757.8562713,None,757.8562713,None,757.8562713,None,,,,,,,,,,,P021,fencog,1,Pre,2021_Dec_10_1240,Go No-Go Task,2021.1.4,120.0202114
,"Rule: When you see blue image, do not press 'spacebar'.",Images/Happy/AF27HAS.jpg,Happy,Yellow,Images/Yellow.jpg,space,ParentConditions/YellowBlueBlue_v1.xlsx,BlueBlueYellow,Conditions/Version_1/BlueFearStop.xlsx,no,PASS,0.810967316,,,,,,,,,0,0,0,0,0,1,1,1,0,14,14,14,,,,,,,,,,,,,,,,,,,,,,,,,,,,,,,,,,,,,,,,,,,,,,,,,,,,,,,,,,,,,,,,,,,,,,,,,,,,,,,1.8,758.2557833,None,space,1,0.2903579,760.1556019,None,760.1556019,None,760.1556019,None,,,,,,,,,,,P021,fencog,1,Pre,2021_Dec_10_1240,Go No-Go Task,2021.1.4,120.0202114
,"Rule: When you see blue image, do not press 'spacebar'.",Images/Happy/BF10_HO.jpg,Happy,Yellow,Images/Yellow.jpg,space,ParentConditions/YellowBlueBlue_v1.xlsx,BlueBlueYellow,Conditions/Version_1/BlueFearStop.xlsx,no,PASS,0.357072599,,,,,,,,,0,0,0,0,0,1,1,1,0,15,15,15,,,,,,,,,,,,,,,,,,,,,,,,,,,,,,,,,,,,,,,,,,,,,,,,,,,,,,,,,,,,,,,,,,,,,,,,,,,,,,,1.54,760.5548152,None,space,1,0.257436,762.196684,None,762.196684,None,762.196684,None,,,,,,,,,,,P021,fencog,1,Pre,2021_Dec_10_1240,Go No-Go Task,2021.1.4,120.0202114
,"Rule: When you see blue image, do not press 'spacebar'.",Images/Happy/BF14_HO.jpg,Happy,Yellow,Images/Yellow.jpg,space,ParentConditions/YellowBlueBlue_v1.xlsx,BlueBlueYellow,Conditions/Version_1/BlueFearStop.xlsx,no,PASS,0.417127932,,,,,,,,,0,0,0,0,0,1,1,1,0,16,16,16,,,,,,,,,,,,,,,,,,,,,,,,,,,,,,,,,,,,,,,,,,,,,,,,,,,,,,,,,,,,,,,,,,,,,,,,,,,,,,,1.86,762.5996565,None,space,1,0.275319,764.562637,None,764.562637,None,764.562637,None,,,,,,,,,,,P021,fencog,1,Pre,2021_Dec_10_1240,Go No-Go Task,2021.1.4,120.0202114
,"Rule: When you see blue image, do not press 'spacebar'.",Images/Fearful/BM08_FC.jpg,Fear,Blue,Images/Blue.jpg,None,ParentConditions/YellowBlueBlue_v1.xlsx,BlueBlueYellow,Conditions/Version_1/BlueFearStop.xlsx,yes,PASS,0.277760685,,,,,,,,,0,0,0,0,0,1,1,1,0,17,17,17,,,,,,,,,,,,,,,,,,,,,,,,,,,,,,,,,,,,,,,,,,,,,,,,,,,,,,,,,,,,,,,,,,,,,,,,,,,,,,,1.56,764.9624205,None,None,1,,766.6287432,None,766.6287432,None,766.6287432,None,,,,,,,,,,,P021,fencog,1,Pre,2021_Dec_10_1240,Go No-Go Task,2021.1.4,120.0202114
,"Rule: When you see blue image, do not press 'spacebar'.",Images/Happy/AM01HAS.jpg,Happy,Yellow,Images/Yellow.jpg,space,ParentConditions/YellowBlueBlue_v1.xlsx,BlueBlueYellow,Conditions/Version_1/BlueFearStop.xlsx,no,PASS,0.431601381,,,,,,,,,0,0,0,0,0,1,1,1,0,18,18,18,,,,,,,,,,,,,,,,,,,,,,,,,,,,,,,,,,,,,,,,,,,,,,,,,,,,,,,,,,,,,,,,,,,,,,,,,,,,,,,1.3,767.0289469,None,space,1,0.2648287,768.4530968,None,768.4530968,None,768.4530968,None,,,,,,,,,,,P021,fencog,1,Pre,2021_Dec_10_1240,Go No-Go Task,2021.1.4,120.0202114
,"Rule: When you see blue image, do not press 'spacebar'.",Images/Happy/AF11HAS.jpg,Happy,Yellow,Images/Yellow.jpg,space,ParentConditions/YellowBlueBlue_v1.xlsx,BlueBlueYellow,Conditions/Version_1/BlueFearStop.xlsx,no,PASS,0.96968982,,,,,,,,,0,0,0,0,0,1,1,1,0,19,19,19,,,,,,,,,,,,,,,,,,,,,,,,,,,,,,,,,,,,,,,,,,,,,,,,,,,,,,,,,,,,,,,,,,,,,,,,,,,,,,,1.72,768.8430833,None,space,1,0.296637,770.6691917,None,770.6691917,None,770.6691917,None,,,,,,,,,,,P021,fencog,1,Pre,2021_Dec_10_1240,Go No-Go Task,2021.1.4,120.0202114
,"Rule: When you see blue image, do not press 'spacebar'.",Images/Happy/BM01_HO.jpg,Happy,Yellow,Images/Yellow.jpg,space,ParentConditions/YellowBlueBlue_v1.xlsx,BlueBlueYellow,Conditions/Version_1/BlueFearStop.xlsx,no,PASS,0.401820913,,,,,,,,,0,0,0,0,0,1,1,1,0,20,20,20,,,,,,,,,,,,,,,,,,,,,,,,,,,,,,,,,,,,,,,,,,,,,,,,,,,,,,,,,,,,,,,,,,,,,,,,,,,,,,,1.31,771.068344,None,space,1,0.2647279,772.4851655,None,772.4851655,None,772.4851655,None,,,,,,,,,,,P021,fencog,1,Pre,2021_Dec_10_1240,Go No-Go Task,2021.1.4,120.0202114
,"Rule: When you see blue image, do not press 'spacebar'.",Images/Happy/AF07_HO.jpg,Happy,Yellow,Images/Yellow.jpg,space,ParentConditions/YellowBlueBlue_v1.xlsx,BlueBlueYellow,Conditions/Version_1/BlueFearStop.xlsx,no,PASS,0.304860645,,,,,,,,,0,0,0,0,0,1,1,1,0,21,21,21,,,,,,,,,,,,,,,,,,,,,,,,,,,,,,,,,,,,,,,,,,,,,,,,,,,,,,,,,,,,,,,,,,,,,,,,,,,,,,,1.36,772.8855394,None,space,1,0.2946583,774.3513667,None,774.3513667,None,774.3513667,None,,,,,,,,,,,P021,fencog,1,Pre,2021_Dec_10_1240,Go No-Go Task,2021.1.4,120.0202114
,"Rule: When you see blue image, do not press 'spacebar'.",Images/Happy/HM06_HO.jpg,Happy,Yellow,Images/Yellow.jpg,space,ParentConditions/YellowBlueBlue_v1.xlsx,BlueBlueYellow,Conditions/Version_1/BlueFearStop.xlsx,no,PASS,0.392874464,,,,,,,,,0,0,0,0,0,1,1,1,0,22,22,22,,,,,,,,,,,,,,,,,,,,,,,,,,,,,,,,,,,,,,,,,,,,,,,,,,,,,,,,,,,,,,,,,,,,,,,,,,,,,,,1.63,774.7517774,None,space,1,0.2741906,776.4838312,None,776.4838312,None,776.4838312,None,,,,,,,,,,,P021,fencog,1,Pre,2021_Dec_10_1240,Go No-Go Task,2021.1.4,120.0202114
,"Rule: When you see blue image, do not press 'spacebar'.",Images/Fearful/AM09_FO.jpg,Fear,Blue,Images/Blue.jpg,None,ParentConditions/YellowBlueBlue_v1.xlsx,BlueBlueYellow,Conditions/Version_1/BlueFearStop.xlsx,yes,PASS,0.171302228,,,,,,,,,0,0,0,0,0,1,1,1,0,23,23,23,,,,,,,,,,,,,,,,,,,,,,,,,,,,,,,,,,,,,,,,,,,,,,,,,,,,,,,,,,,,,,,,,,,,,,,,,,,,,,,1.84,776.8915924,None,None,1,,778.8332342,None,778.8332342,None,778.8332342,None,,,,,,,,,,,P021,fencog,1,Pre,2021_Dec_10_1240,Go No-Go Task,2021.1.4,120.0202114
,"Rule: When you see blue image, do not press 'spacebar'.",Images/Happy/AF09HAS.jpg,Happy,Yellow,Images/Yellow.jpg,space,ParentConditions/YellowBlueBlue_v1.xlsx,BlueBlueYellow,Conditions/Version_1/BlueFearStop.xlsx,no,PASS,0.320508508,,,,,,,,,0,0,0,0,0,1,1,1,0,24,24,24,,,,,,,,,,,,,,,,,,,,,,,,,,,,,,,,,,,,,,,,,,,,,,,,,,,,,,,,,,,,,,,,,,,,,,,,,,,,,,,1.42,779.2337568,None,space,1,0.2964514,780.7577365,None,780.7577365,None,780.7577365,None,,,,,,,,,,,P021,fencog,1,Pre,2021_Dec_10_1240,Go No-Go Task,2021.1.4,120.0202114
,"Rule: When you see blue image, do not press 'spacebar'.",Images/Happy/AM04HAS.jpg,Happy,Yellow,Images/Yellow.jpg,space,ParentConditions/YellowBlueBlue_v1.xlsx,BlueBlueYellow,Conditions/Version_1/BlueFearStop.xlsx,no,PASS,0.170042016,,,,,,,,,0,0,0,0,0,1,1,1,0,25,25,25,,,,,,,,,,,,,,,,,,,,,,,,,,,,,,,,,,,,,,,,,,,,,,,,,,,,,,,,,,,,,,,,,,,,,,,,,,,,,,,1.46,781.157294,None,space,1,0.3538327,782.7239033,None,782.7239033,None,782.7239033,None,,,,,,,,,,,P021,fencog,1,Pre,2021_Dec_10_1240,Go No-Go Task,2021.1.4,120.0202114
,"Rule: When you see blue image, do not press 'spacebar'.",Images/Happy/BF07_HO.jpg,Happy,Yellow,Images/Yellow.jpg,space,ParentConditions/YellowBlueBlue_v1.xlsx,BlueBlueYellow,Conditions/Version_1/BlueFearStop.xlsx,no,PASS,0.977525598,,,,,,,,,0,0,0,0,0,1,1,1,0,26,26,26,,,,,,,,,,,,,,,,,,,,,,,,,,,,,,,,,,,,,,,,,,,,,,,,,,,,,,,,,,,,,,,,,,,,,,,,,,,,,,,1.95,783.1307356,None,space,1,0.2647615,785.1731388,None,785.1731388,None,785.1731388,None,,,,,,,,,,,P021,fencog,1,Pre,2021_Dec_10_1240,Go No-Go Task,2021.1.4,120.0202114
,"Rule: When you see blue image, do not press 'spacebar'.",Images/Happy/AF02HAS.jpg,Happy,Yellow,Images/Yellow.jpg,space,ParentConditions/YellowBlueBlue_v1.xlsx,BlueBlueYellow,Conditions/Version_1/BlueFearStop.xlsx,no,PASS,0.992670751,,,,,,,,,0,0,0,0,0,1,1,1,0,27,27,27,,,,,,,,,,,,,,,,,,,,,,,,,,,,,,,,,,,,,,,,,,,,,,,,,,,,,,,,,,,,,,,,,,,,,,,,,,,,,,,1.25,785.5721092,None,space,1,0.291608,786.9223874,None,786.9223874,None,786.9223874,None,,,,,,,,,,,P021,fencog,1,Pre,2021_Dec_10_1240,Go No-Go Task,2021.1.4,120.0202114
,"Rule: When you see blue image, do not press 'spacebar'.",Images/Happy/AM30HAS.jpg,Happy,Yellow,Images/Yellow.jpg,space,ParentConditions/YellowBlueBlue_v1.xlsx,BlueBlueYellow,Conditions/Version_1/BlueFearStop.xlsx,no,PASS,0.684490164,,,,,,,,,0,0,0,0,0,1,1,1,0,28,28,28,,,,,,,,,,,,,,,,,,,,,,,,,,,,,,,,,,,,,,,,,,,,,,,,,,,,,,,,,,,,,,,,,,,,,,,,,,,,,,,1.49,787.3223919,None,space,1,0.2840299,788.913751,None,788.913751,None,788.913751,None,,,,,,,,,,,P021,fencog,1,Pre,2021_Dec_10_1240,Go No-Go Task,2021.1.4,120.0202114
,"Rule: When you see blue image, do not press 'spacebar'.",Images/Happy/BF05_HO.jpg,Happy,Yellow,Images/Yellow.jpg,space,ParentConditions/YellowBlueBlue_v1.xlsx,BlueBlueYellow,Conditions/Version_1/BlueFearStop.xlsx,no,PASS,0.010815687,,,,,,,,,0,0,0,0,0,1,1,1,0,29,29,29,,,,,,,,,,,,,,,,,,,,,,,,,,,,,,,,,,,,,,,,,,,,,,,,,,,,,,,,,,,,,,,,,,,,,,,,,,,,,,,1.55,789.3125763,None,space,1,0.2507844,790.9630944,None,790.9630944,None,790.9630944,None,,,,,,,,,,,P021,fencog,1,Pre,2021_Dec_10_1240,Go No-Go Task,2021.1.4,120.0202114
,"Rule: When you see blue image, do not press 'spacebar'.",Images/Fearful/AF25AFS.jpg,Fear,Blue,Images/Blue.jpg,None,ParentConditions/YellowBlueBlue_v1.xlsx,BlueBlueYellow,Conditions/Version_1/BlueFearStop.xlsx,yes,PASS,0.358163174,,,,,,,,,0,0,0,0,0,1,1,1,0,30,30,30,,,,,,,,,,,,,,,,,,,,,,,,,,,,,,,,,,,,,,,,,,,,,,,,,,,,,,,,,,,,,,,,,,,,,,,,,,,,,,,1.35,791.3624712,None,None,1,,792.8125951,None,792.8125951,None,792.8125951,None,,,,,,,,,,,P021,fencog,1,Pre,2021_Dec_10_1240,Go No-Go Task,2021.1.4,120.0202114
,"Rule: When you see blue image, do not press 'spacebar'.",Images/Happy/BF09_HO.jpg,Happy,Yellow,Images/Yellow.jpg,space,ParentConditions/YellowBlueBlue_v1.xlsx,BlueBlueYellow,Conditions/Version_1/BlueFearStop.xlsx,no,PASS,0.378341928,,,,,,,,,0,0,0,0,0,1,1,1,0,31,31,31,,,,,,,,,,,,,,,,,,,,,,,,,,,,,,,,,,,,,,,,,,,,,,,,,,,,,,,,,,,,,,,,,,,,,,,,,,,,,,,1.24,793.2116607,None,space,1,0.268447,794.5536757,None,794.5536757,None,794.5536757,None,,,,,,,,,,,P021,fencog,1,Pre,2021_Dec_10_1240,Go No-Go Task,2021.1.4,120.0202114
,"Rule: When you see blue image, do not press 'spacebar'.",Images/Happy/AM09_HE.jpg,Happy,Yellow,Images/Yellow.jpg,space,ParentConditions/YellowBlueBlue_v1.xlsx,BlueBlueYellow,Conditions/Version_1/BlueFearStop.xlsx,no,PASS,0.210164654,,,,,,,,,0,0,0,0,0,1,1,1,0,32,32,32,,,,,,,,,,,,,,,,,,,,,,,,,,,,,,,,,,,,,,,,,,,,,,,,,,,,,,,,,,,,,,,,,,,,,,,,,,,,,,,1.75,794.9613877,None,space,1,0.2824897,796.8114141,None,796.8114141,None,796.8114141,None,,,,,,,,,,,P021,fencog,1,Pre,2021_Dec_10_1240,Go No-Go Task,2021.1.4,120.0202114
,"Rule: When you see blue image, do not press 'spacebar'.",Images/Fearful/BF14_FO.jpg,Fear,Blue,Images/Blue.jpg,None,ParentConditions/YellowBlueBlue_v1.xlsx,BlueBlueYellow,Conditions/Version_1/BlueFearStop.xlsx,yes,PASS,0.961836097,,,,,,,,,0,0,0,0,0,1,1,1,0,33,33,33,,,,,,,,,,,,,,,,,,,,,,,,,,,,,,,,,,,,,,,,,,,,,,,,,,,,,,,,,,,,,,,,,,,,,,,,,,,,,,,1.89,797.2128461,None,space,0,0.3153193,799.2106261,None,799.2106261,None,799.2106261,None,,,,,,,,,,,P021,fencog,1,Pre,2021_Dec_10_1240,Go No-Go Task,2021.1.4,120.0202114
,"Rule: When you see blue image, do not press 'spacebar'.",Images/Fearful/HF05_FC.jpg,Fear,Blue,Images/Blue.jpg,None,ParentConditions/YellowBlueBlue_v1.xlsx,BlueBlueYellow,Conditions/Version_1/BlueFearStop.xlsx,yes,PASS,0.005236598,,,,,,,,,0,0,0,0,0,1,1,1,0,34,34,34,,,,,,,,,,,,,,,,,,,,,,,,,,,,,,,,,,,,,,,,,,,,,,,,,,,,,,,,,,,,,,,,,,,,,,,,,,,,,,,1.5,799.6105898,None,space,0,0.3074899,801.218382,None,801.218382,None,801.218382,None,,,,,,,,,,,P021,fencog,1,Pre,2021_Dec_10_1240,Go No-Go Task,2021.1.4,120.0202114
,"Rule: When you see blue image, do not press 'spacebar'.",Images/Happy/AM23HAS.jpg,Happy,Yellow,Images/Yellow.jpg,space,ParentConditions/YellowBlueBlue_v1.xlsx,BlueBlueYellow,Conditions/Version_1/BlueFearStop.xlsx,no,PASS,0.130773395,,,,,,,,,0,0,0,0,0,1,1,1,0,35,35,35,,,,,,,,,,,,,,,,,,,,,,,,,,,,,,,,,,,,,,,,,,,,,,,,,,,,,,,,,,,,,,,,,,,,,,,,,,,,,,,1.99,801.618494,None,space,1,0.3046912,803.7093091,None,803.7093091,None,803.7093091,None,,,,,,,,,,,P021,fencog,1,Pre,2021_Dec_10_1240,Go No-Go Task,2021.1.4,120.0202114
,"Rule: When you see blue image, do not press 'spacebar'.",Images/Happy/AM03_HO.jpg,Happy,Yellow,Images/Yellow.jpg,space,ParentConditions/YellowBlueBlue_v1.xlsx,BlueBlueYellow,Conditions/Version_1/BlueFearStop.xlsx,no,PASS,0.295207038,,,,,,,,,0,0,0,0,0,1,1,1,0,36,36,36,,,,,,,,,,,,,,,,,,,,,,,,,,,,,,,,,,,,,,,,,,,,,,,,,,,,,,,,,,,,,,,,,,,,,,,,,,,,,,,1.58,804.1103268,None,space,1,0.3259589,805.7920047,None,805.7920047,None,805.7920047,None,,,,,,,,,,,P021,fencog,1,Pre,2021_Dec_10_1240,Go No-Go Task,2021.1.4,120.0202114
,"Rule: When you see blue image, do not press 'spacebar'.",Images/Happy/AF25HAS.jpg,Happy,Yellow,Images/Yellow.jpg,space,ParentConditions/YellowBlueBlue_v1.xlsx,BlueBlueYellow,Conditions/Version_1/BlueFearStop.xlsx,no,PASS,0.320580297,,,,,,,,,0,0,0,0,0,1,1,1,0,37,37,37,,,,,,,,,,,,,,,,,,,,,,,,,,,,,,,,,,,,,,,,,,,,,,,,,,,,,,,,,,,,,,,,,,,,,,,,,,,,,,,1.39,806.1909547,None,space,1,0.3470358,807.6827457,None,807.6827457,None,807.6827457,None,,,,,,,,,,,P021,fencog,1,Pre,2021_Dec_10_1240,Go No-Go Task,2021.1.4,120.0202114
,"Rule: When you see blue image, do not press 'spacebar'.",Images/Happy/BM08_HO.jpg,Happy,Yellow,Images/Yellow.jpg,space,ParentConditions/YellowBlueBlue_v1.xlsx,BlueBlueYellow,Conditions/Version_1/BlueFearStop.xlsx,no,PASS,0.925023123,,,,,,,,,0,0,0,0,0,1,1,1,0,38,38,38,,,,,,,,,,,,,,,,,,,,,,,,,,,,,,,,,,,,,,,,,,,,,,,,,,,,,,,,,,,,,,,,,,,,,,,,,,,,,,,1.4,808.0819945,None,space,1,0.3594665,809.5821783,None,809.5821783,None,809.5821783,None,,,,,,,,,,,P021,fencog,1,Pre,2021_Dec_10_1240,Go No-Go Task,2021.1.4,120.0202114
,"Rule: When you see blue image, do not press 'spacebar'.",Images/Happy/AF32HAS.jpg,Happy,Yellow,Images/Yellow.jpg,space,ParentConditions/YellowBlueBlue_v1.xlsx,BlueBlueYellow,Conditions/Version_1/BlueFearStop.xlsx,no,PASS,0.738049347,,,,,,,,,0,0,0,0,0,1,1,1,0,39,39,39,,,,,,,,,,,,,,,,,,,,,,,,,,,,,,,,,,,,,,,,,,,,,,,,,,,,,,,,,,,,,,,,,,,,,,,,,,,,,,,1.21,809.9812688,None,space,1,0.3555264,811.2982883,None,811.2982883,None,811.2982883,None,,,,,,,,,,,P021,fencog,1,Pre,2021_Dec_10_1240,Go No-Go Task,2021.1.4,120.0202114
,"Rule: When you see blue image, do not press 'spacebar'.",Images/Happy/AF23HAS.jpg,Happy,Yellow,Images/Yellow.jpg,space,ParentConditions/YellowBlueBlue_v1.xlsx,BlueBlueYellow,Conditions/Version_1/BlueFearStop.xlsx,no,PASS,0.90002462,,,,,,,,,0,0,0,0,0,1,1,1,0,40,40,40,,,,,,,,,,,,,,,,,,,,,,,,,,,,,,,,,,,,,,,,,,,,,,,,,,,,,,,,,,,,,,,,,,,,,,,,,,,,,,,1.52,811.6974004,None,None,0,,813.3227209,None,813.3227209,None,813.3227209,None,,,,,,,,,,,P021,fencog,1,Pre,2021_Dec_10_1240,Go No-Go Task,2021.1.4,120.0202114
,"Rule: When you see blue image, do not press 'spacebar'.",Images/Happy/AM32HAS.jpg,Happy,Yellow,Images/Yellow.jpg,space,ParentConditions/YellowBlueBlue_v1.xlsx,BlueBlueYellow,Conditions/Version_1/BlueFearStop.xlsx,no,PASS,0.73898963,,,,,,,,,0,0,0,0,0,1,1,1,0,41,41,41,,,,,,,,,,,,,,,,,,,,,,,,,,,,,,,,,,,,,,,,,,,,,,,,,,,,,,,,,,,,,,,,,,,,,,,,,,,,,,,1.82,813.7218077,None,space,1,0.3826958,815.6470173,None,815.6470173,None,815.6470173,None,,,,,,,,,,,P021,fencog,1,Pre,2021_Dec_10_1240,Go No-Go Task,2021.1.4,120.0202114
,"Rule: When you see blue image, do not press 'spacebar'.",Images/Fearful/AM30AFS.jpg,Fear,Blue,Images/Blue.jpg,None,ParentConditions/YellowBlueBlue_v1.xlsx,BlueBlueYellow,Conditions/Version_1/BlueFearStop.xlsx,yes,PASS,0.33529906,,,,,,,,,0,0,0,0,0,1,1,1,0,42,42,42,,,,,,,,,,,,,,,,,,,,,,,,,,,,,,,,,,,,,,,,,,,,,,,,,,,,,,,,,,,,,,,,,,,,,,,,,,,,,,,1.6,816.0461206,None,None,1,,817.7463921,None,817.7463921,None,817.7463921,None,,,,,,,,,,,P021,fencog,1,Pre,2021_Dec_10_1240,Go No-Go Task,2021.1.4,120.0202114
,"Rule: When you see blue image, do not press 'spacebar'.",Images/Happy/BM02_HO.jpg,Happy,Yellow,Images/Yellow.jpg,space,ParentConditions/YellowBlueBlue_v1.xlsx,BlueBlueYellow,Conditions/Version_1/BlueFearStop.xlsx,no,PASS,0.711648218,,,,,,,,,0,0,0,0,0,1,1,1,0,43,43,43,,,,,,,,,,,,,,,,,,,,,,,,,,,,,,,,,,,,,,,,,,,,,,,,,,,,,,,,,,,,,,,,,,,,,,,,,,,,,,,1.91,818.1454971,None,space,1,0.3554206,820.1623584,None,820.1623584,None,820.1623584,None,,,,,,,,,,,P021,fencog,1,Pre,2021_Dec_10_1240,Go No-Go Task,2021.1.4,120.0202114
,"Rule: When you see blue image, do not press 'spacebar'.",Images/Happy/AM10_HO.jpg,Happy,Yellow,Images/Yellow.jpg,space,ParentConditions/YellowBlueBlue_v1.xlsx,BlueBlueYellow,Conditions/Version_1/BlueFearStop.xlsx,no,PASS,0.781102565,,,,,,,,,0,0,0,0,0,1,1,1,0,44,44,44,,,,,,,,,,,,,,,,,,,,,,,,,,,,,,,,,,,,,,,,,,,,,,,,,,,,,,,,,,,,,,,,,,,,,,,,,,,,,,,1.22,820.5615771,None,space,1,0.3666927,821.8870975,None,821.8870975,None,821.8870975,None,,,,,,,,,,,P021,fencog,1,Pre,2021_Dec_10_1240,Go No-Go Task,2021.1.4,120.0202114
,"Rule: When you see blue image, do not press 'spacebar'.",Images/Fearful/AM10_FO.jpg,Fear,Blue,Images/Blue.jpg,None,ParentConditions/YellowBlueBlue_v1.xlsx,BlueBlueYellow,Conditions/Version_1/BlueFearStop.xlsx,yes,PASS,0.147470634,,,,,,,,,0,0,0,0,0,1,1,1,0,45,45,45,,,,,,,,,,,,,,,,,,,,,,,,,,,,,,,,,,,,,,,,,,,,,,,,,,,,,,,,,,,,,,,,,,,,,,,,,,,,,,,1.51,822.2859249,None,None,1,,823.9029498,None,823.9029498,None,823.9029498,None,,,,,,,,,,,P021,fencog,1,Pre,2021_Dec_10_1240,Go No-Go Task,2021.1.4,120.0202114
,"Rule: When you see blue image, do not press 'spacebar'.",Images/Happy/AF19HAS.jpg,Happy,Yellow,Images/Yellow.jpg,space,ParentConditions/YellowBlueBlue_v1.xlsx,BlueBlueYellow,Conditions/Version_1/BlueFearStop.xlsx,no,PASS,0.57344846,,,,,,,,,0,0,0,0,0,1,1,1,0,46,46,46,,,,,,,,,,,,,,,,,,,,,,,,,,,,,,,,,,,,,,,,,,,,,,,,,,,,,,,,,,,,,,,,,,,,,,,,,,,,,,,1.96,824.3022084,None,space,1,0.3647051,826.3689656,None,826.3689656,None,826.3689656,None,,,,,,,,,,,P021,fencog,1,Pre,2021_Dec_10_1240,Go No-Go Task,2021.1.4,120.0202114
,"Rule: When you see blue image, do not press 'spacebar'.",Images/Fearful/HF09_FC.jpg,Fear,Blue,Images/Blue.jpg,None,ParentConditions/YellowBlueBlue_v1.xlsx,BlueBlueYellow,Conditions/Version_1/BlueFearStop.xlsx,yes,PASS,0.199358028,,,,,,,,,0,0,0,0,0,1,1,1,0,47,47,47,,,,,,,,,,,,,,,,,,,,,,,,,,,,,,,,,,,,,,,,,,,,,,,,,,,,,,,,,,,,,,,,,,,,,,,,,,,,,,,1.64,826.7679785,None,None,1,,828.5098503,None,828.5098503,None,828.5098503,None,,,,,,,,,,,P021,fencog,1,Pre,2021_Dec_10_1240,Go No-Go Task,2021.1.4,120.0202114
,"Rule: When you see blue image, do not press 'spacebar'.",Images/Fearful/AM22AFS.jpg,Fear,Blue,Images/Blue.jpg,None,ParentConditions/YellowBlueBlue_v1.xlsx,BlueBlueYellow,Conditions/Version_1/BlueFearStop.xlsx,yes,PASS,0.172763782,,,,,,,,,0,0,0,0,0,1,1,1,0,48,48,48,,,,,,,,,,,,,,,,,,,,,,,,,,,,,,,,,,,,,,,,,,,,,,,,,,,,,,,,,,,,,,,,,,,,,,,,,,,,,,,1.32,828.9089575,None,None,1,,830.3344979,None,830.3344979,None,830.3344979,None,,,,,,,,,,,P021,fencog,1,Pre,2021_Dec_10_1240,Go No-Go Task,2021.1.4,120.0202114
,"Rule: When you see blue image, do not press 'spacebar'.",Images/Happy/AM06_HC.jpg,Happy,Yellow,Images/Yellow.jpg,space,ParentConditions/YellowBlueBlue_v1.xlsx,BlueBlueYellow,Conditions/Version_1/BlueFearStop.xlsx,no,PASS,0.063201857,,,,,,,,,0,0,0,0,0,1,1,1,0,49,49,49,,,,,,,,,,,,,,,,,,,,,,,,,,,,,,,,,,,,,,,,,,,,,,,,,,,,,,,,,,,,,,,,,,,,,,,,,,,,,,,1.67,830.7334312,None,None,0,,832.5087073,None,832.5087073,None,832.5087073,None,,,,,,,,,,,P021,fencog,1,Pre,2021_Dec_10_1240,Go No-Go Task,2021.1.4,120.0202114
,"Rule: When you see blue image, do not press 'spacebar'.",Images/Fearful/AM32AFS.jpg,Fear,Blue,Images/Blue.jpg,None,ParentConditions/YellowBlueBlue_v1.xlsx,BlueBlueYellow,Conditions/Version_1/BlueFearStop.xlsx,yes,PASS,0.03468315,,,,,,,,,0,0,0,0,0,1,1,1,0,50,50,50,,,,,,,,,,,,,,,,,,,,,,,,,,,,,,,,,,,,,,,,,,,,,,,,,,,,,,,,,,,,,,,,,,,,,,,,,,,,,,,2,832.9077726,None,None,1,,835.0084228,None,835.0084228,None,835.0084228,None,,,,,,,,,,,P021,fencog,1,Pre,2021_Dec_10_1240,Go No-Go Task,2021.1.4,120.0202114
,"Rule: When you see blue image, do not press 'spacebar'.",Images/Happy/WF11_HE.jpg,Happy,Yellow,Images/Yellow.jpg,space,ParentConditions/YellowBlueBlue_v1.xlsx,BlueBlueYellow,Conditions/Version_1/BlueFearStop.xlsx,no,PASS,0.513801113,,,,,,,,,0,0,0,0,0,1,1,1,0,51,51,51,,,,,,,,,,,,,,,,,,,,,,,,,,,,,,,,,,,,,,,,,,,,,,,,,,,,,,,,,,,,,,,,,,,,,,,,,,,,,,,1.34,835.4087147,None,space,1,0.3482759,836.8495141,None,836.8495141,None,836.8495141,None,,,,,,,,,,,P021,fencog,1,Pre,2021_Dec_10_1240,Go No-Go Task,2021.1.4,120.0202114
,"Rule: When you see blue image, do not press 'spacebar'.",Images/Fearful/AF28AFS.jpg,Fear,Blue,Images/Blue.jpg,None,ParentConditions/YellowBlueBlue_v1.xlsx,BlueBlueYellow,Conditions/Version_1/BlueFearStop.xlsx,yes,PASS,0.302044934,,,,,,,,,0,0,0,0,0,1,1,1,0,52,52,52,,,,,,,,,,,,,,,,,,,,,,,,,,,,,,,,,,,,,,,,,,,,,,,,,,,,,,,,,,,,,,,,,,,,,,,,,,,,,,,1.76,837.2498556,None,None,1,,839.1238647,None,839.1238647,None,839.1238647,None,,,,,,,,,,,P021,fencog,1,Pre,2021_Dec_10_1240,Go No-Go Task,2021.1.4,120.0202114
,"Rule: When you see blue image, do not press 'spacebar'.",Images/Happy/HF04_HE.jpg,Happy,Yellow,Images/Yellow.jpg,space,ParentConditions/YellowBlueBlue_v1.xlsx,BlueBlueYellow,Conditions/Version_1/BlueFearStop.xlsx,no,PASS,0.053853704,,,,,,,,,0,0,0,0,0,1,1,1,0,53,53,53,,,,,,,,,,,,,,,,,,,,,,,,,,,,,,,,,,,,,,,,,,,,,,,,,,,,,,,,,,,,,,,,,,,,,,,,,,,,,,,1.28,839.5227229,None,space,1,0.34696,840.9066236,None,840.9066236,None,840.9066236,None,,,,,,,,,,,P021,fencog,1,Pre,2021_Dec_10_1240,Go No-Go Task,2021.1.4,120.0202114
,"Rule: When you see blue image, do not press 'spacebar'.",Images/Happy/AM13HAS.jpg,Happy,Yellow,Images/Yellow.jpg,space,ParentConditions/YellowBlueBlue_v1.xlsx,BlueBlueYellow,Conditions/Version_1/BlueFearStop.xlsx,no,PASS,0.997812055,,,,,,,,,0,0,0,0,0,1,1,1,0,54,54,54,,,,,,,,,,,,,,,,,,,,,,,,,,,,,,,,,,,,,,,,,,,,,,,,,,,,,,,,,,,,,,,,,,,,,,,,,,,,,,,1.38,841.3059602,None,None,0,,842.805757,None,842.805757,None,842.805757,None,,,,,,,,,,,P021,fencog,1,Pre,2021_Dec_10_1240,Go No-Go Task,2021.1.4,120.0202114
,"Rule: When you see blue image, do not press 'spacebar'.",Images/Happy/HF10_HE.jpg,Happy,Yellow,Images/Yellow.jpg,space,ParentConditions/YellowBlueBlue_v1.xlsx,BlueBlueYellow,Conditions/Version_1/BlueFearStop.xlsx,no,PASS,0.765826545,,,,,,,,,0,0,0,0,0,1,1,1,0,55,55,55,,,,,,,,,,,,,,,,,,,,,,,,,,,,,,,,,,,,,,,,,,,,,,,,,,,,,,,,,,,,,,,,,,,,,,,,,,,,,,,1.23,843.202584,None,space,1,0.3791068,844.5387714,None,844.5387714,None,844.5387714,None,,,,,,,,,,,P021,fencog,1,Pre,2021_Dec_10_1240,Go No-Go Task,2021.1.4,120.0202114
,"Rule: When you see blue image, do not press 'spacebar'.",Images/Happy/AM04_HE.jpg,Happy,Yellow,Images/Yellow.jpg,space,ParentConditions/YellowBlueBlue_v1.xlsx,BlueBlueYellow,Conditions/Version_1/BlueFearStop.xlsx,no,PASS,0.898753996,,,,,,,,,0,0,0,0,0,1,1,1,0,56,56,56,,,,,,,,,,,,,,,,,,,,,,,,,,,,,,,,,,,,,,,,,,,,,,,,,,,,,,,,,,,,,,,,,,,,,,,,,,,,,,,1.59,844.9382063,None,None,0,,846.6381853,None,846.6381853,None,846.6381853,None,,,,,,,,,,,P021,fencog,1,Pre,2021_Dec_10_1240,Go No-Go Task,2021.1.4,120.0202114
,"Rule: When you see blue image, do not press 'spacebar'.",Images/Happy/WF04_HC.jpg,Happy,Yellow,Images/Yellow.jpg,space,ParentConditions/YellowBlueBlue_v1.xlsx,BlueBlueYellow,Conditions/Version_1/BlueFearStop.xlsx,no,PASS,0.340922643,,,,,,,,,0,0,0,0,0,1,1,1,0,57,57,57,,,,,,,,,,,,,,,,,,,,,,,,,,,,,,,,,,,,,,,,,,,,,,,,,,,,,,,,,,,,,,,,,,,,,,,,,,,,,,,1.97,847.0371348,None,None,0,,849.1208219,None,849.1208219,None,849.1208219,None,,,,,,,,,,,P021,fencog,1,Pre,2021_Dec_10_1240,Go No-Go Task,2021.1.4,120.0202114
,"Rule: When you see blue image, do not press 'spacebar'.",Images/Happy/AF01_HE.jpg,Happy,Yellow,Images/Yellow.jpg,space,ParentConditions/YellowBlueBlue_v1.xlsx,BlueBlueYellow,Conditions/Version_1/BlueFearStop.xlsx,no,PASS,0.995067399,,,,,,,,,0,0,0,0,0,1,1,1,0,58,58,58,,,,,,,,,,,,,,,,,,,,,,,,,,,,,,,,,,,,,,,,,,,,,,,,,,,,,,,,,,,,,,,,,,,,,,,,,,,,,,,1.87,849.519835,None,space,1,0.3351449,851.4950881,None,851.4950881,None,851.4950881,None,,,,,,,,,,,P021,fencog,1,Pre,2021_Dec_10_1240,Go No-Go Task,2021.1.4,120.0202114
,"Rule: When you see blue image, do not press 'spacebar'.",Images/Happy/HM04_HO.jpg,Happy,Yellow,Images/Yellow.jpg,space,ParentConditions/YellowBlueBlue_v1.xlsx,BlueBlueYellow,Conditions/Version_1/BlueFearStop.xlsx,no,PASS,0.825875437,,,,,,,,,0,0,0,0,0,1,1,1,0,59,59,59,,,,,,,,,,,,,,,,,,,,,,,,,,,,,,,,,,,,,,,,,,,,,,,,,,,,,,,,,,,,,,,,,,,,,,,,,,,,,,,1.73,851.9018733,None,space,1,0.285548,853.7361476,None,853.7361476,None,853.7361476,None,,,,,,,,,,,P021,fencog,1,Pre,2021_Dec_10_1240,Go No-Go Task,2021.1.4,120.0202114
,"Rule: When you see blue image, do not press 'spacebar'.",Images/Happy/AM22HAS.jpg,Happy,Yellow,Images/Yellow.jpg,space,ParentConditions/YellowBlueBlue_v1.xlsx,BlueBlueYellow,Conditions/Version_1/BlueFearStop.xlsx,no,PASS,0.344749657,,,,,,,,,0,0,0,0,0,1,1,1,0,60,60,60,,,,,,,,,,,,,,,,,,,,,,,,,,,,,,,,,,,,,,,,,,,,,,,,,,,,,,,,,,,,,,,,,,,,,,,,,,,,,,,1.9,854.1361151,None,space,1,0.3101144,856.1437256,None,856.1437256,None,856.1437256,None,,,,,,,,,,,P021,fencog,1,Pre,2021_Dec_10_1240,Go No-Go Task,2021.1.4,120.0202114
,"Rule: When you see blue image, do not press 'spacebar'.",Images/Happy/AF26HAS.jpg,Happy,Yellow,Images/Yellow.jpg,space,ParentConditions/YellowBlueBlue_v1.xlsx,BlueBlueYellow,Conditions/Version_1/BlueFearStop.xlsx,no,PASS,0.338984692,,,,,,,,,0,0,0,0,0,1,1,1,0,61,61,61,,,,,,,,,,,,,,,,,,,,,,,,,,,,,,,,,,,,,,,,,,,,,,,,,,,,,,,,,,,,,,,,,,,,,,,,,,,,,,,1.83,856.5430761,None,space,1,0.2974451,858.4763611,None,858.4763611,None,858.4763611,None,,,,,,,,,,,P021,fencog,1,Pre,2021_Dec_10_1240,Go No-Go Task,2021.1.4,120.0202114
,"Rule: When you see blue image, do not press 'spacebar'.",Images/Happy/HF05_HO.jpg,Happy,Yellow,Images/Yellow.jpg,space,ParentConditions/YellowBlueBlue_v1.xlsx,BlueBlueYellow,Conditions/Version_1/BlueFearStop.xlsx,no,PASS,0.334889738,,,,,,,,,0,0,0,0,0,1,1,1,0,62,62,62,,,,,,,,,,,,,,,,,,,,,,,,,,,,,,,,,,,,,,,,,,,,,,,,,,,,,,,,,,,,,,,,,,,,,,,,,,,,,,,1.41,858.9132191,None,space,1,0.2678352,860.4257391,None,860.4257391,None,860.4257391,None,,,,,,,,,,,P021,fencog,1,Pre,2021_Dec_10_1240,Go No-Go Task,2021.1.4,120.0202114
,"Rule: When you see blue image, do not press 'spacebar'.",Images/Happy/AM02_HE.jpg,Happy,Yellow,Images/Yellow.jpg,space,ParentConditions/YellowBlueBlue_v1.xlsx,BlueBlueYellow,Conditions/Version_1/BlueFearStop.xlsx,no,PASS,0.380614974,,,,,,,,,0,0,0,0,0,1,1,1,0,63,63,63,,,,,,,,,,,,,,,,,,,,,,,,,,,,,,,,,,,,,,,,,,,,,,,,,,,,,,,,,,,,,,,,,,,,,,,,,,,,,,,1.53,860.8280489,None,space,1,0.2912778,862.4585789,None,862.4585789,None,862.4585789,None,,,,,,,,,,,P021,fencog,1,Pre,2021_Dec_10_1240,Go No-Go Task,2021.1.4,120.0202114
,"Rule: When you see blue image, do not press 'spacebar'.",Images/Fearful/AF30AFS.jpg,Fear,Blue,Images/Blue.jpg,None,ParentConditions/YellowBlueBlue_v1.xlsx,BlueBlueYellow,Conditions/Version_1/BlueFearStop.xlsx,yes,PASS,0.884817107,,,,,,,,,0,0,0,0,0,1,1,1,0,64,64,64,,,,,,,,,,,,,,,,,,,,,,,,,,,,,,,,,,,,,,,,,,,,,,,,,,,,,,,,,,,,,,,,,,,,,,,,,,,,,,,1.66,862.8653348,None,None,1,,864.6325742,None,864.6325742,None,864.6325742,None,,,,,,,,,,,P021,fencog,1,Pre,2021_Dec_10_1240,Go No-Go Task,2021.1.4,120.0202114
,"Rule: When you see blue image, do not press 'spacebar'.",Images/Happy/WF05_HC.jpg,Happy,Yellow,Images/Yellow.jpg,space,ParentConditions/YellowBlueBlue_v1.xlsx,BlueBlueYellow,Conditions/Version_1/BlueFearStop.xlsx,no,PASS,0.869002763,,,,,,,,,0,0,0,0,0,1,1,1,0,65,65,65,,,,,,,,,,,,,,,,,,,,,,,,,,,,,,,,,,,,,,,,,,,,,,,,,,,,,,,,,,,,,,,,,,,,,,,,,,,,,,,1.88,865.0331834,None,space,1,0.3501833,867.0153678,None,867.0153678,None,867.0153678,None,,,,,,,,,,,P021,fencog,1,Pre,2021_Dec_10_1240,Go No-Go Task,2021.1.4,120.0202114
,"Rule: When you see blue image, do not press 'spacebar'.",Images/Fearful/AF10_FC.jpg,Fear,Blue,Images/Blue.jpg,None,ParentConditions/YellowBlueBlue_v1.xlsx,BlueBlueYellow,Conditions/Version_1/BlueFearStop.xlsx,yes,PASS,0.369712769,,,,,,,,,0,0,0,0,0,1,1,1,0,66,66,66,,,,,,,,,,,,,,,,,,,,,,,,,,,,,,,,,,,,,,,,,,,,,,,,,,,,,,,,,,,,,,,,,,,,,,,,,,,,,,,1.33,867.4157665,None,None,1,,868.8482751,None,868.8482751,None,868.8482751,None,,,,,,,,,,,P021,fencog,1,Pre,2021_Dec_10_1240,Go No-Go Task,2021.1.4,120.0202114
,"Rule: When you see blue image, do not press 'spacebar'.",Images/Happy/AM03HAS.jpg,Happy,Yellow,Images/Yellow.jpg,space,ParentConditions/YellowBlueBlue_v1.xlsx,BlueBlueYellow,Conditions/Version_1/BlueFearStop.xlsx,no,PASS,0.822857339,,,,,,,,,0,0,0,0,0,1,1,1,0,67,67,67,,,,,,,,,,,,,,,,,,,,,,,,,,,,,,,,,,,,,,,,,,,,,,,,,,,,,,,,,,,,,,,,,,,,,,,,,,,,,,,1.47,869.2496077,None,space,1,0.3351395,870.8226806,None,870.8226806,None,870.8226806,None,,,,,,,,,,,P021,fencog,1,Pre,2021_Dec_10_1240,Go No-Go Task,2021.1.4,120.0202114
,"Rule: When you see blue image, do not press 'spacebar'.",Images/Happy/AM17HAS.jpg,Happy,Yellow,Images/Yellow.jpg,space,ParentConditions/YellowBlueBlue_v1.xlsx,BlueBlueYellow,Conditions/Version_1/BlueFearStop.xlsx,no,PASS,0.862423036,,,,,,,,,0,0,0,0,0,1,1,1,0,68,68,68,,,,,,,,,,,,,,,,,,,,,,,,,,,,,,,,,,,,,,,,,,,,,,,,,,,,,,,,,,,,,,,,,,,,,,,,,,,,,,,1.68,871.2217313,None,None,0,,873.0136974,None,873.0136974,None,873.0136974,None,,,,,,,,,,,P021,fencog,1,Pre,2021_Dec_10_1240,Go No-Go Task,2021.1.4,120.0202114
,"Rule: When you see blue image, do not press 'spacebar'.",Images/Happy/AF30HAS.jpg,Happy,Yellow,Images/Yellow.jpg,space,ParentConditions/YellowBlueBlue_v1.xlsx,BlueBlueYellow,Conditions/Version_1/BlueFearStop.xlsx,no,PASS,0.351202581,,,,,,,,,0,0,0,0,0,1,1,1,0,69,69,69,,,,,,,,,,,,,,,,,,,,,,,,,,,,,,,,,,,,,,,,,,,,,,,,,,,,,,,,,,,,,,,,,,,,,,,,,,,,,,,1.57,873.4127098,None,space,1,0.3172906,875.0963567,None,875.0963567,None,875.0963567,None,,,,,,,,,,,P021,fencog,1,Pre,2021_Dec_10_1240,Go No-Go Task,2021.1.4,120.0202114
,"Rule: When you see blue image, do not press 'spacebar'.",Images/Fearful/BF18_FC.jpg,Fear,Blue,Images/Blue.jpg,None,ParentConditions/YellowBlueBlue_v1.xlsx,BlueBlueYellow,Conditions/Version_1/BlueFearStop.xlsx,yes,PASS,0.351106063,,,,,,,,,0,0,0,0,0,1,1,1,0,70,70,70,,,,,,,,,,,,,,,,,,,,,,,,,,,,,,,,,,,,,,,,,,,,,,,,,,,,,,,,,,,,,,,,,,,,,,,,,,,,,,,1.85,875.4953037,None,None,1,,877.4457034,None,877.4457034,None,877.4457034,None,,,,,,,,,,,P021,fencog,1,Pre,2021_Dec_10_1240,Go No-Go Task,2021.1.4,120.0202114
,"Rule: When you see blue image, do not press 'spacebar'.",Images/Fearful/HM09_FC.jpg,Fear,Blue,Images/Blue.jpg,None,ParentConditions/YellowBlueBlue_v1.xlsx,BlueBlueYellow,Conditions/Version_1/BlueFearStop.xlsx,yes,PASS,0.281450445,,,,,,,,,0,0,0,0,0,1,1,1,0,71,71,71,,,,,,,,,,,,,,,,,,,,,,,,,,,,,,,,,,,,,,,,,,,,,,,,,,,,,,,,,,,,,,,,,,,,,,,,,,,,,,,1.98,877.8446186,None,None,1,,879.928165,None,879.928165,None,879.928165,None,,,,,,,,,,,P021,fencog,1,Pre,2021_Dec_10_1240,Go No-Go Task,2021.1.4,120.0202114
,"Rule: When you see blue image, do not press 'spacebar'.",Images/Happy/HF09_HE.jpg,Happy,Yellow,Images/Yellow.jpg,space,ParentConditions/YellowBlueBlue_v1.xlsx,BlueBlueYellow,Conditions/Version_1/BlueFearStop.xlsx,no,PASS,0.967248259,,,,,,,,,0,0,0,0,0,1,1,1,0,72,72,72,,,,,,,,,,,,,,,,,,,,,,,,,,,,,,,,,,,,,,,,,,,,,,,,,,,,,,,,,,,,,,,,,,,,,,,,,,,,,,,1.7,880.3273229,None,space,1,0.2781783,882.1276381,None,882.1276381,None,882.1276381,None,,,,,,,,,,,P021,fencog,1,Pre,2021_Dec_10_1240,Go No-Go Task,2021.1.4,120.0202114
,"Rule: When you see blue image, do not press 'spacebar'.",Images/Happy/AM19HAS.jpg,Happy,Yellow,Images/Yellow.jpg,space,ParentConditions/YellowBlueBlue_v1.xlsx,BlueBlueYellow,Conditions/Version_1/BlueFearStop.xlsx,no,PASS,0.203377841,,,,,,,,,0,0,0,0,0,1,1,1,0,73,73,73,,,,,,,,,,,,,,,,,,,,,,,,,,,,,,,,,,,,,,,,,,,,,,,,,,,,,,,,,,,,,,,,,,,,,,,,,,,,,,,1.37,882.5335004,None,None,0,,884.0103436,None,884.0103436,None,884.0103436,None,,,,,,,,,,,P021,fencog,1,Pre,2021_Dec_10_1240,Go No-Go Task,2021.1.4,120.0202114
