CondFileP,Instructions,FaceE,Express,ColourT,ColourF,CorrectAnsP,MasterCondFile,BlockOrder,CondFile,ColCheck,Triplicate_check,SORT_BY_SMALLEST,EPracticeOuterLoop.thisRepN,EPracticeOuterLoop.thisTrialN,EPracticeOuterLoop.thisN,EPracticeOuterLoop.thisIndex,EPracticeInnerLoop.thisRepN,EPracticeInnerLoop.thisTrialN,EPracticeInnerLoop.thisN,EPracticeInnerLoop.thisIndex,MasterLoop.thisRepN,MasterLoop.thisTrialN,MasterLoop.thisN,MasterLoop.thisIndex,OuterLoop.thisRepN,OuterLoop.thisTrialN,OuterLoop.thisN,OuterLoop.thisIndex,InnerLoop.thisRepN,InnerLoop.thisTrialN,InnerLoop.thisN,InnerLoop.thisIndex,text_13.started,text_13.stopped,key_resp_10.keys,key_resp_10.rt,key_resp_10.started,key_resp_10.stopped,text4.started,text4.stopped,EmotionTaskInstructions1.keys,EmotionTaskInstructions1.rt,EmotionTaskInstructions1.started,EmotionTaskInstructions1.stopped,text_4.started,text_4.stopped,key_resp_5.keys,key_resp_5.rt,key_resp_5.started,key_resp_5.stopped,Text_14.started,Text_14.stopped,key_resp_9.keys,key_resp_9.rt,key_resp_9.started,key_resp_9.stopped,text_5.started,text_5.stopped,text_6.started,text_6.stopped,key_resp_7.keys,key_resp_7.rt,key_resp_7.started,key_resp_7.stopped,text_10.started,text_10.stopped,text_11.started,text_11.stopped,text_12.started,text_12.stopped,ISIjitterPractice,EPracticeISIMarker.started,EPracticeISIMarker.stopped,Pract.keys,Pract.corr,Pract.started,Pract.stopped,PracticeFace.started,PracticeFace.stopped,ColourPractice.started,ColourPractice.stopped,text_7.started,text_7.stopped,Pract.rt,EndOfPractice.started,EndOfPractice.stopped,key_resp_8.keys,key_resp_8.rt,key_resp_8.started,key_resp_8.stopped,text_8.started,text_8.stopped,key_resp_6.keys,key_resp_6.rt,key_resp_6.started,key_resp_6.stopped,text_2.started,text_2.stopped,text_3.started,text_3.stopped,key_resp_3.keys,key_resp_3.rt,key_resp_3.started,key_resp_3.stopped,TaskBlock.started,TaskBlock.stopped,BlockNo1.started,BlockNo1.stopped,OfBlock.started,OfBlock.stopped,ISIjitter,ISImarker.started,ISImarker.stopped,key_resp.keys,key_resp.corr,key_resp.rt,key_resp.started,key_resp.stopped,FaceSet.started,FaceSet.stopped,Colour.started,Colour.stopped,EndBlockText.started,EndBlockText.stopped,key_resp_4.keys,key_resp_4.rt,key_resp_4.started,key_resp_4.stopped,BreakText2.started,BreakText2.stopped,PressToContinue.started,PressToContinue.stopped,participant,Study Name,Task Version (required to run),PRE/POST,date,expName,psychopyVersion,frameRate,
,,,,,,,,,,,,,,,,,,,,,,,,,,,,,,,,,44.38535750005394,None,space,90.74347809981555,45.37375049991533,None,,,,,,,,,,,,,,,,,,,,,,,,,,,,,,,,,,,,,,,,,,,,,,,,,,,,,,,,,,,,,,,,,,,,,,,,,,,,,,,,,,,,,,,,,,,,,,,P022,fencog,1,Pre,2022_Jan_19_1035,Go No-Go Task,2021.1.4,120.06329706946882,
,,,,,,,,,,,,,,,,,,,,,,,,,,,,,,,,,,,,,,,138.39364109979942,None,space,11.938248500227928,138.39364109979942,None,,,,,,,,,,,,,,,,,,,,,,,,,,,,,,,,,,,,,,,,,,,,,,,,,,,,,,,,,,,,,,,,,,,,,,,,,,,,,,,,,,,,,,,,,P022,fencog,1,Pre,2022_Jan_19_1035,Go No-Go Task,2021.1.4,120.06329706946882,
,,,,,,,,,,,,,,,,,,,,,,,,,,,,,,,,,,,,,,,,,,,,,150.40332990000024,None,space,11.044940799940377,150.40332990000024,None,,,,,,,,,,,,,,,,,,,,,,,,,,,,,,,,,,,,,,,,,,,,,,,,,,,,,,,,,,,,,,,,,,,,,,,,,,,,,,,,,,,P022,fencog,1,Pre,2022_Jan_19_1035,Go No-Go Task,2021.1.4,120.06329706946882,
,,,,,,,,,,,,,,,,,,,,,,,,,,,,,,,,,,,,,,,,,,,,,,,,,,,161.45786090008914,None,space,6.842325800098479,161.45786090008914,None,,,,,,,,,,,,,,,,,,,,,,,,,,,,,,,,,,,,,,,,,,,,,,,,,,,,,,,,,,,,,,,,,,,,,,,,,,,,,P022,fencog,1,Pre,2022_Jan_19_1035,Go No-Go Task,2021.1.4,120.06329706946882,
EPracticeConditions/BlueEyes.csv,"Rule: When you see a blue image, do not press 'spacebar'.",Images/Fearful/AF01_FO.jpg,Fear,Blue,Images/Blue.jpg,None,,,,,,,0,0,0,0,0,0,0,1,,,,,,,,,,,,,,,,,,,,,,,,,,,,,,,,,,,,,168.40295469993725,None,171.39489150000736,None,space,15.797395100351423,171.39489150000736,None,168.40295469993725,None,168.40295469993725,None,168.40295469993725,None,1.9,187.3391776001081,None,None,1,189.40904209995642,None,189.40904209995642,None,189.40904209995642,None,190.9112762999721,None,,,,,,,,,,,,,,,,,,,,,,,,,,,,,,,,,,,,,,,,,,,,,,,,,,P022,fencog,1,Pre,2022_Jan_19_1035,Go No-Go Task,2021.1.4,120.06329706946882,
EPracticeConditions/BlueEyes.csv,"Rule: When you see a blue image, do not press 'spacebar'.",Images/Happy/HF05_HO.jpg,Happy,Yellow,Images/Yellow.jpg,space,,,,,,,0,0,0,0,0,1,1,5,,,,,,,,,,,,,,,,,,,,,,,,,,,,,,,,,,,,,,,,,,,,,,,,,,,1.3,192.27755719982088,None,space,1,193.7026215000078,None,193.7026215000078,None,193.7026215000078,None,194.58009609999135,None,0.21808249969035387,,,,,,,,,,,,,,,,,,,,,,,,,,,,,,,,,,,,,,,,,,,,,,,,,P022,fencog,1,Pre,2022_Jan_19_1035,Go No-Go Task,2021.1.4,120.06329706946882,
EPracticeConditions/BlueEyes.csv,"Rule: When you see a blue image, do not press 'spacebar'.",Images/Happy/HF09_HE.jpg,Happy,Yellow,Images/Yellow.jpg,space,,,,,,,0,0,0,0,0,2,2,6,,,,,,,,,,,,,,,,,,,,,,,,,,,,,,,,,,,,,,,,,,,,,,,,,,,1.4,196.5890130000189,None,space,1,198.10440930025652,None,198.10440930025652,None,198.10440930025652,None,198.9949634000659,None,0.33545489981770515,,,,,,,,,,,,,,,,,,,,,,,,,,,,,,,,,,,,,,,,,,,,,,,,,P022,fencog,1,Pre,2022_Jan_19_1035,Go No-Go Task,2021.1.4,120.06329706946882,
EPracticeConditions/BlueEyes.csv,"Rule: When you see a blue image, do not press 'spacebar'.",Images/Happy/BM02_HO.jpg,Happy,Yellow,Images/Yellow.jpg,space,,,,,,,0,0,0,0,0,3,3,2,,,,,,,,,,,,,,,,,,,,,,,,,,,,,,,,,,,,,,,,,,,,,,,,,,,1.7,201.00265449984,None,space,1,202.81933030020446,None,202.81933030020446,None,202.81933030020446,None,203.70280739990994,None,0.3556341999210417,,,,,,,,,,,,,,,,,,,,,,,,,,,,,,,,,,,,,,,,,,,,,,,,,P022,fencog,1,Pre,2022_Jan_19_1035,Go No-Go Task,2021.1.4,120.06329706946882,
EPracticeConditions/BlueEyes.csv,"Rule: When you see a blue image, do not press 'spacebar'.",Images/Happy/BM08_HO.jpg,Happy,Yellow,Images/Yellow.jpg,space,,,,,,,0,0,0,0,0,4,4,3,,,,,,,,,,,,,,,,,,,,,,,,,,,,,,,,,,,,,,,,,,,,,,,,,,,1.5,205.70947110000998,None,space,1,207.30970280012116,None,207.30970280012116,None,207.30970280012116,None,208.2087198002264,None,0.32482080021873116,,,,,,,,,,,,,,,,,,,,,,,,,,,,,,,,,,,,,,,,,,,,,,,,,P022,fencog,1,Pre,2022_Jan_19_1035,Go No-Go Task,2021.1.4,120.06329706946882,
EPracticeConditions/BlueEyes.csv,"Rule: When you see a blue image, do not press 'spacebar'.",Images/Happy/HF04_HE.jpg,Happy,Yellow,Images/Yellow.jpg,space,,,,,,,0,0,0,0,0,5,5,4,,,,,,,,,,,,,,,,,,,,,,,,,,,,,,,,,,,,,,,,,,,,,,,,,,,1.2,210.20877500018105,None,space,1,211.50878049992025,None,211.50878049992025,None,211.50878049992025,None,212.3997165998444,None,0.31850739987567067,,,,,,,,,,,,,,,,,,,,,,,,,,,,,,,,,,,,,,,,,,,,,,,,,P022,fencog,1,Pre,2022_Jan_19_1035,Go No-Go Task,2021.1.4,120.06329706946882,
EPracticeConditions/BlueEyes.csv,"Rule: When you see a blue image, do not press 'spacebar'.",Images/Happy/HF10_HE.jpg,Happy,Yellow,Images/Yellow.jpg,space,,,,,,,0,0,0,0,0,6,6,7,,,,,,,,,,,,,,,,,,,,,,,,,,,,,,,,,,,,,,,,,,,,,,,,,,,1.6,214.40041599981487,None,space,1,216.11554030003026,None,216.11554030003026,None,216.11554030003026,None,217.01446950016543,None,0.3039290001615882,,,,,,,,,,,,,,,,,,,,,,,,,,,,,,,,,,,,,,,,,,,,,,,,,P022,fencog,1,Pre,2022_Jan_19_1035,Go No-Go Task,2021.1.4,120.06329706946882,
EPracticeConditions/BlueEyes.csv,"Rule: When you see a blue image, do not press 'spacebar'.",Images/Fearful/HM09_FC.jpg,Fear,Blue,Images/Blue.jpg,None,,,,,,,0,0,0,0,0,7,7,0,,,,,,,,,,,,,,,,,,,,,,,,,,,,,,,,,,,,,,,,,,,,,,,,,,,1.8,219.01390409981832,None,None,1,220.92246770020574,None,220.92246770020574,None,220.92246770020574,None,221.81838059984148,None,,,,,,,,,,,,,,,,,,,,,,,,,,,,,,,,,,,,,,,,,,,,,,,,,,P022,fencog,1,Pre,2022_Jan_19_1035,Go No-Go Task,2021.1.4,120.06329706946882,
EPracticeConditions/BlueEyes.csv,"Rule: When you see a blue image, do not press 'spacebar'.",,,,,,,,,,,,0,0,0,0,,,,,,,,,,,,,,,,,,,,,,,,,,,,,,,,,,,,,,,,,,,,,,,,,,,,,,,,,,,,,,,,,,,,,,,,,,,,,,,,,,,,,,,,,,,,,,,,,,,,,,,,,,,,,,,,,,,,,P022,fencog,1,Pre,2022_Jan_19_1035,Go No-Go Task,2021.1.4,120.06329706946882,
EPracticeConditions/YellowEyes.csv,"Rule: When you see a yellow image, do not press 'spacebar'.",Images/Fearful/AM22AFS.jpg,Fear,Blue,Images/Blue.jpg,space,,,,,,,0,1,1,1,0,0,0,5,,,,,,,,,,,,,,,,,,,,,,,,,,,,,,,,,,,,,223.84139179997146,None,226.82871859986335,None,space,1.0764473001472652,226.82871859986335,None,223.84139179997146,None,223.84139179997146,None,223.84139179997146,None,1.6,227.93860619980842,None,None,0,229.65344090014696,None,229.65344090014696,None,229.65344090014696,None,230.55403799982741,None,,,,,,,,,,,,,,,,,,,,,,,,,,,,,,,,,,,,,,,,,,,,,,,,,,P022,fencog,1,Pre,2022_Jan_19_1035,Go No-Go Task,2021.1.4,120.06329706946882,
EPracticeConditions/YellowEyes.csv,"Rule: When you see a yellow image, do not press 'spacebar'.",Images/Fearful/AM23AFS.jpg,Fear,Blue,Images/Blue.jpg,space,,,,,,,0,1,1,1,0,1,1,6,,,,,,,,,,,,,,,,,,,,,,,,,,,,,,,,,,,,,,,,,,,,,,,,,,,1.7,232.55148119991645,None,space,1,234.36031690007076,None,234.36031690007076,None,234.36031690007076,None,235.2507035001181,None,0.2119740997441113,,,,,,,,,,,,,,,,,,,,,,,,,,,,,,,,,,,,,,,,,,,,,,,,,P022,fencog,1,Pre,2022_Jan_19_1035,Go No-Go Task,2021.1.4,120.06329706946882,
EPracticeConditions/YellowEyes.csv,"Rule: When you see a yellow image, do not press 'spacebar'.",Images/Happy/BF05_HO.jpg,Happy,Yellow,Images/Yellow.jpg,None,,,,,,,0,1,1,1,0,2,2,1,,,,,,,,,,,,,,,,,,,,,,,,,,,,,,,,,,,,,,,,,,,,,,,,,,,1.9,237.24988960009068,None,space,0,239.25014990009367,None,239.25014990009367,None,239.25014990009367,None,240.1490580001846,None,0.2681419001892209,,,,,,,,,,,,,,,,,,,,,,,,,,,,,,,,,,,,,,,,,,,,,,,,,P022,fencog,1,Pre,2022_Jan_19_1035,Go No-Go Task,2021.1.4,120.06329706946882,
EPracticeConditions/YellowEyes.csv,"Rule: When you see a yellow image, do not press 'spacebar'.",Images/Fearful/AM19AFS.jpg,Fear,Blue,Images/Blue.jpg,space,,,,,,,0,1,1,1,0,3,3,4,,,,,,,,,,,,,,,,,,,,,,,,,,,,,,,,,,,,,,,,,,,,,,,,,,,1.5,242.14860749989748,None,space,1,243.74049729993567,None,243.74049729993567,None,243.74049729993567,None,244.6394683998078,None,0.2998375999741256,,,,,,,,,,,,,,,,,,,,,,,,,,,,,,,,,,,,,,,,,,,,,,,,,P022,fencog,1,Pre,2022_Jan_19_1035,Go No-Go Task,2021.1.4,120.06329706946882,
EPracticeConditions/YellowEyes.csv,"Rule: When you see a yellow image, do not press 'spacebar'.",Images/Fearful/AM17AFS.jpg,Fear,Blue,Images/Blue.jpg,space,,,,,,,0,1,1,1,0,4,4,3,,,,,,,,,,,,,,,,,,,,,,,,,,,,,,,,,,,,,,,,,,,,,,,,,,,1.4,246.6390509000048,None,space,1,248.13949540024623,None,248.13949540024623,None,248.13949540024623,None,249.02992649981752,None,0.3228857000358403,,,,,,,,,,,,,,,,,,,,,,,,,,,,,,,,,,,,,,,,,,,,,,,,,P022,fencog,1,Pre,2022_Jan_19_1035,Go No-Go Task,2021.1.4,120.06329706946882,
EPracticeConditions/YellowEyes.csv,"Rule: When you see a yellow image, do not press 'spacebar'.",Images/Happy/AM32HAS.jpg,Happy,Yellow,Images/Yellow.jpg,None,,,,,,,0,1,1,1,0,5,5,0,,,,,,,,,,,,,,,,,,,,,,,,,,,,,,,,,,,,,,,,,,,,,,,,,,,1.8,251.03594630025327,None,None,1,252.93805400002748,None,252.93805400002748,None,252.93805400002748,None,253.83263790002093,None,,,,,,,,,,,,,,,,,,,,,,,,,,,,,,,,,,,,,,,,,,,,,,,,,,P022,fencog,1,Pre,2022_Jan_19_1035,Go No-Go Task,2021.1.4,120.06329706946882,
EPracticeConditions/YellowEyes.csv,"Rule: When you see a yellow image, do not press 'spacebar'.",Images/Fearful/AM24AFS.jpg,Fear,Blue,Images/Blue.jpg,space,,,,,,,0,1,1,1,0,6,6,7,,,,,,,,,,,,,,,,,,,,,,,,,,,,,,,,,,,,,,,,,,,,,,,,,,,1.2,255.83761209994555,None,space,1,257.1451515001245,None,257.1451515001245,None,257.1451515001245,None,258.04820450022817,None,0.23882280010730028,,,,,,,,,,,,,,,,,,,,,,,,,,,,,,,,,,,,,,,,,,,,,,,,,P022,fencog,1,Pre,2022_Jan_19_1035,Go No-Go Task,2021.1.4,120.06329706946882,
EPracticeConditions/YellowEyes.csv,"Rule: When you see a yellow image, do not press 'spacebar'.",Images/Fearful/AM16AFS.jpg,Fear,Blue,Images/Blue.jpg,space,,,,,,,0,1,1,1,0,7,7,2,,,,,,,,,,,,,,,,,,,,,,,,,,,,,,,,,,,,,,,,,,,,,,,,,,,1.3,260.0517691001296,None,space,1,261.45261360006407,None,261.45261360006407,None,261.45261360006407,None,262.3448890000582,None,0.2321790000423789,,,,,,,,,,,,,,,,,,,,,,,,,,,,,,,,,,,,,,,,,,,,,,,,,P022,fencog,1,Pre,2022_Jan_19_1035,Go No-Go Task,2021.1.4,120.06329706946882,
EPracticeConditions/YellowEyes.csv,"Rule: When you see a yellow image, do not press 'spacebar'.",,,,,,,,,,,,0,1,1,1,,,,,,,,,,,,,,,,,,,,,,,,,,,,,,,,,,,,,,,,,,,,,,,,,,,,,,,,,,,,,,,,,,,,,,,,,,,,,,,,,,,,,,,,,,,,,,,,,,,,,,,,,,,,,,,,,,,,,P022,fencog,1,Pre,2022_Jan_19_1035,Go No-Go Task,2021.1.4,120.06329706946882,
EPracticeConditions/BlueScram.csv,"Rule: When you see a blue image, do not press 'spacebar'.",Images/Scram1/AM04_NC.jpg,Scramble,Yellow,Images/Yellow.jpg,space,,,,,,,0,2,2,2,0,0,0,3,,,,,,,,,,,,,,,,,,,,,,,,,,,,,,,,,,,,,264.361014300026,None,267.34982560016215,None,space,1.3984524998813868,267.34982560016215,None,264.361014300026,None,264.361014300026,None,264.361014300026,None,1.5,268.76601679995656,None,space,1,270.366231800057,None,270.366231800057,None,270.366231800057,None,271.2570711001754,None,0.31639729999005795,,,,,,,,,,,,,,,,,,,,,,,,,,,,,,,,,,,,,,,,,,,,,,,,,P022,fencog,1,Pre,2022_Jan_19_1035,Go No-Go Task,2021.1.4,120.06329706946882,
EPracticeConditions/BlueScram.csv,"Rule: When you see a blue image, do not press 'spacebar'.",Images/Scram2/AM03_NC.jpg,Scramble,Yellow,Images/Yellow.jpg,space,,,,,,,0,2,2,2,0,1,1,6,,,,,,,,,,,,,,,,,,,,,,,,,,,,,,,,,,,,,,,,,,,,,,,,,,,1.8,273.25679850019515,None,space,1,275.1565451999195,None,275.1565451999195,None,275.1565451999195,None,276.04678480001166,None,0.254513300023973,,,,,,,,,,,,,,,,,,,,,,,,,,,,,,,,,,,,,,,,,,,,,,,,,P022,fencog,1,Pre,2022_Jan_19_1035,Go No-Go Task,2021.1.4,120.06329706946882,
EPracticeConditions/BlueScram.csv,"Rule: When you see a blue image, do not press 'spacebar'.",Images/Scram2/AF10_NC.jpg,Scramble,Yellow,Images/Yellow.jpg,space,,,,,,,0,2,2,2,0,2,2,2,,,,,,,,,,,,,,,,,,,,,,,,,,,,,,,,,,,,,,,,,,,,,,,,,,,1.9,278.0557388002053,None,space,1,280.06346340011805,None,280.06346340011805,None,280.06346340011805,None,280.95392540004104,None,0.27714299969375134,,,,,,,,,,,,,,,,,,,,,,,,,,,,,,,,,,,,,,,,,,,,,,,,,P022,fencog,1,Pre,2022_Jan_19_1035,Go No-Go Task,2021.1.4,120.06329706946882,
EPracticeConditions/BlueScram.csv,"Rule: When you see a blue image, do not press 'spacebar'.",Images/Scram1/BF18_NC.jpg,Scramble,Blue,Images/Blue.jpg,None,,,,,,,0,2,2,2,0,3,3,1,,,,,,,,,,,,,,,,,,,,,,,,,,,,,,,,,,,,,,,,,,,,,,,,,,,1.4,282.96077990019694,None,None,1,284.462220299989,None,284.462220299989,None,284.462220299989,None,285.352576199919,None,,,,,,,,,,,,,,,,,,,,,,,,,,,,,,,,,,,,,,,,,,,,,,,,,,P022,fencog,1,Pre,2022_Jan_19_1035,Go No-Go Task,2021.1.4,120.06329706946882,
EPracticeConditions/BlueScram.csv,"Rule: When you see a blue image, do not press 'spacebar'.",Images/Scram1/BM08_NC.jpg,Scramble,Blue,Images/Blue.jpg,None,,,,,,,0,2,2,2,0,4,4,0,,,,,,,,,,,,,,,,,,,,,,,,,,,,,,,,,,,,,,,,,,,,,,,,,,,1.6,287.3527466999367,None,space,0,289.0774175999686,None,289.0774175999686,None,289.0774175999686,None,289.95971750002354,None,0.24894399987533689,,,,,,,,,,,,,,,,,,,,,,,,,,,,,,,,,,,,,,,,,,,,,,,,,P022,fencog,1,Pre,2022_Jan_19_1035,Go No-Go Task,2021.1.4,120.06329706946882,
EPracticeConditions/BlueScram.csv,"Rule: When you see a blue image, do not press 'spacebar'.",Images/Scram1/AM03NES.jpg,Scramble,Yellow,Images/Yellow.jpg,space,,,,,,,0,2,2,2,0,5,5,4,,,,,,,,,,,,,,,,,,,,,,,,,,,,,,,,,,,,,,,,,,,,,,,,,,,1.3,291.9587583998218,None,space,1,293.3591546001844,None,293.3591546001844,None,293.3591546001844,None,294.2497243001126,None,0.2951589999720454,,,,,,,,,,,,,,,,,,,,,,,,,,,,,,,,,,,,,,,,,,,,,,,,,P022,fencog,1,Pre,2022_Jan_19_1035,Go No-Go Task,2021.1.4,120.06329706946882,
EPracticeConditions/BlueScram.csv,"Rule: When you see a blue image, do not press 'spacebar'.",Images/Scram1/AM13NES.jpg,Scramble,Yellow,Images/Yellow.jpg,space,,,,,,,0,2,2,2,0,6,6,5,,,,,,,,,,,,,,,,,,,,,,,,,,,,,,,,,,,,,,,,,,,,,,,,,,,1.2,296.24909059982747,None,space,1,297.5499060000293,None,297.5499060000293,None,297.5499060000293,None,298.4401166001335,None,0.3063921998254955,,,,,,,,,,,,,,,,,,,,,,,,,,,,,,,,,,,,,,,,,,,,,,,,,P022,fencog,1,Pre,2022_Jan_19_1035,Go No-Go Task,2021.1.4,120.06329706946882,
EPracticeConditions/BlueScram.csv,"Rule: When you see a blue image, do not press 'spacebar'.",Images/Scram2/AF25NES.jpg,Scramble,Yellow,Images/Yellow.jpg,space,,,,,,,0,2,2,2,0,7,7,7,,,,,,,,,,,,,,,,,,,,,,,,,,,,,,,,,,,,,,,,,,,,,,,,,,,1.7,300.4395567001775,None,space,1,302.23146970011294,None,302.23146970011294,None,302.23146970011294,None,303.12208299990743,None,0.3777215997688472,,,,,,,,,,,,,,,,,,,,,,,,,,,,,,,,,,,,,,,,,,,,,,,,,P022,fencog,1,Pre,2022_Jan_19_1035,Go No-Go Task,2021.1.4,120.06329706946882,
EPracticeConditions/BlueScram.csv,"Rule: When you see a blue image, do not press 'spacebar'.",,,,,,,,,,,,0,2,2,2,,,,,,,,,,,,,,,,,,,,,,,,,,,,,,,,,,,,,,,,,,,,,,,,,,,,,,,,,,,,,,,,,,,,,,,,,,,,,,,,,,,,,,,,,,,,,,,,,,,,,,,,,,,,,,,,,,,,,P022,fencog,1,Pre,2022_Jan_19_1035,Go No-Go Task,2021.1.4,120.06329706946882,
EPracticeConditions/YellowScram.csv,"Rule: When you see a yellow image, do not press 'spacebar'.",Images/Scram1/AF30NES.JPG,Scramble,Blue,Images/Blue.jpg,space,,,,,,,0,3,3,3,0,0,0,4,,,,,,,,,,,,,,,,,,,,,,,,,,,,,,,,,,,,,305.1299164998345,None,308.1212029000744,None,space,1.13608320010826,308.1212029000744,None,305.1299164998345,None,305.1299164998345,None,305.1299164998345,None,1.5,309.27224319987,None,space,1,310.87927530007437,None,310.87927530007437,None,310.87927530007437,None,311.7699934002012,None,0.32201190013438463,,,,,,,,,,,,,,,,,,,,,,,,,,,,,,,,,,,,,,,,,,,,,,,,,P022,fencog,1,Pre,2022_Jan_19_1035,Go No-Go Task,2021.1.4,120.06329706946882,
EPracticeConditions/YellowScram.csv,"Rule: When you see a yellow image, do not press 'spacebar'.",Images/Scram1/AF07NES.jpg,Scramble,Blue,Images/Blue.jpg,space,,,,,,,0,3,3,3,0,1,1,3,,,,,,,,,,,,,,,,,,,,,,,,,,,,,,,,,,,,,,,,,,,,,,,,,,,1.6,313.77741859992966,None,space,1,315.4780565002002,None,315.4780565002002,None,315.4780565002002,None,316.3752973000519,None,0.2799244998022914,,,,,,,,,,,,,,,,,,,,,,,,,,,,,,,,,,,,,,,,,,,,,,,,,P022,fencog,1,Pre,2022_Jan_19_1035,Go No-Go Task,2021.1.4,120.06329706946882,
EPracticeConditions/YellowScram.csv,"Rule: When you see a yellow image, do not press 'spacebar'.",Images/Scram1/HF04_NC.jpg,Scramble,Blue,Images/Blue.jpg,space,,,,,,,0,3,3,3,0,2,2,2,,,,,,,,,,,,,,,,,,,,,,,,,,,,,,,,,,,,,,,,,,,,,,,,,,,1.3,318.38077539997175,None,space,1,319.7849213001318,None,319.7849213001318,None,319.7849213001318,None,320.6759104998782,None,0.29679960012435913,,,,,,,,,,,,,,,,,,,,,,,,,,,,,,,,,,,,,,,,,,,,,,,,,P022,fencog,1,Pre,2022_Jan_19_1035,Go No-Go Task,2021.1.4,120.06329706946882,
EPracticeConditions/YellowScram.csv,"Rule: When you see a yellow image, do not press 'spacebar'.",Images/Scram1/BM01_NC.jpg,Scramble,Blue,Images/Blue.jpg,space,,,,,,,0,3,3,3,0,3,3,5,,,,,,,,,,,,,,,,,,,,,,,,,,,,,,,,,,,,,,,,,,,,,,,,,,,1.9,322.6777488999069,None,space,1,324.6998835001141,None,324.6998835001141,None,324.6998835001141,None,325.5889424998313,None,0.28130679996684194,,,,,,,,,,,,,,,,,,,,,,,,,,,,,,,,,,,,,,,,,,,,,,,,,P022,fencog,1,Pre,2022_Jan_19_1035,Go No-Go Task,2021.1.4,120.06329706946882,
EPracticeConditions/YellowScram.csv,"Rule: When you see a yellow image, do not press 'spacebar'.",Images/Scram2/HM06_NC.jpg,Scramble,Yellow,Images/Yellow.jpg,None,,,,,,,0,3,3,3,0,4,4,0,,,,,,,,,,,,,,,,,,,,,,,,,,,,,,,,,,,,,,,,,,,,,,,,,,,1.2,327.5902490001172,None,None,1,328.8903025998734,None,328.8903025998734,None,328.8903025998734,None,329.78086999990046,None,,,,,,,,,,,,,,,,,,,,,,,,,,,,,,,,,,,,,,,,,,,,,,,,,,P022,fencog,1,Pre,2022_Jan_19_1035,Go No-Go Task,2021.1.4,120.06329706946882,
EPracticeConditions/YellowScram.csv,"Rule: When you see a yellow image, do not press 'spacebar'.",Images/Scram1/AF10_NC.jpg,Scramble,Blue,Images/Blue.jpg,space,,,,,,,0,3,3,3,0,5,5,6,,,,,,,,,,,,,,,,,,,,,,,,,,,,,,,,,,,,,,,,,,,,,,,,,,,1.8,331.7807287001051,None,None,0,333.68063690001145,None,333.68063690001145,None,333.68063690001145,None,334.57116310019046,None,,,,,,,,,,,,,,,,,,,,,,,,,,,,,,,,,,,,,,,,,,,,,,,,,,P022,fencog,1,Pre,2022_Jan_19_1035,Go No-Go Task,2021.1.4,120.06329706946882,
EPracticeConditions/YellowScram.csv,"Rule: When you see a yellow image, do not press 'spacebar'.",Images/Scram2/AM03NES.jpg,Scramble,Yellow,Images/Yellow.jpg,None,,,,,,,0,3,3,3,0,6,6,1,,,,,,,,,,,,,,,,,,,,,,,,,,,,,,,,,,,,,,,,,,,,,,,,,,,1.7,336.5705208000727,None,None,1,338.36249900003895,None,338.36249900003895,None,338.36249900003895,None,339.2530947001651,None,,,,,,,,,,,,,,,,,,,,,,,,,,,,,,,,,,,,,,,,,,,,,,,,,,P022,fencog,1,Pre,2022_Jan_19_1035,Go No-Go Task,2021.1.4,120.06329706946882,
EPracticeConditions/YellowScram.csv,"Rule: When you see a yellow image, do not press 'spacebar'.",Images/Scram1/AF24NES.jpg,Scramble,Blue,Images/Blue.jpg,space,,,,,,,0,3,3,3,0,7,7,7,,,,,,,,,,,,,,,,,,,,,,,,,,,,,,,,,,,,,,,,,,,,,,,,,,,1.4,341.2527879001573,None,space,1,342.7528535001911,None,342.7528535001911,None,342.7528535001911,None,343.6435242998414,None,0.27481860015541315,,,,,,,,,,,,,,,,,,,,,,,,,,,,,,,,,,,,,,,,,,,,,,,,,P022,fencog,1,Pre,2022_Jan_19_1035,Go No-Go Task,2021.1.4,120.06329706946882,
EPracticeConditions/YellowScram.csv,"Rule: When you see a yellow image, do not press 'spacebar'.",,,,,,,,,,,,0,3,3,3,,,,,,,,,,,,,,,,,,,,,,,,,,,,,,,,,,,,,,,,,,,,,,,,,,,,,,,,,,,,,,,,,,,,,,,,,,,,,,,,,,,,,,,,,,,,,,,,,,,,,,,,,,,,,,,,,,,,,P022,fencog,1,Pre,2022_Jan_19_1035,Go No-Go Task,2021.1.4,120.06329706946882,
,,,,,,,,,,,,,,,,,,,,,,,,,,,,,,,,,,,,,,,,,,,,,,,,,,,,,,,,,,,,,,,,,,,,,,,,,,,,,,,,,,,,,347.64336510002613,None,space,7.5760949002578855,348.1092142001726,None,,,,,,,,,,,,,,,,,,,,,,,,,,,,,,,,,,,,,,,,,,,P022,fencog,1,Pre,2022_Jan_19_1035,Go No-Go Task,2021.1.4,120.06329706946882,
,,,,,,,,,,,,,,,,,,,,,,,,,,,,,,,,,,,,,,,,,,,,,,,,,,,,,,,,,,,,,,,,,,,,,,,,,,,,,,,,,,,,,,,,,,,355.702095199842,None,space,1.2206236999481916,355.702095199842,None,,,,,,,,,,,,,,,,,,,,,,,,,,,,,,,,,,,,,P022,fencog,1,Pre,2022_Jan_19_1035,Go No-Go Task,2021.1.4,120.06329706946882,
,"Rule: When you see a yellow image, do not press 'spacebar'.",Images/Happy/BF09_HO.jpg,Happy,Blue,Images/Blue.jpg,space,ParentConditions/YellowYellowBlue_v1.xlsx,YellowYellowBlue,Conditions/Version_1/YellowFearStop.xlsx,no,PASS,0.8264186213388923,,,,,,,,,0,0,0,1,0,0,0,0,0,0,0,0,,,,,,,,,,,,,,,,,,,,,,,,,,,,,,,,,,,,,,,,,,,,,,,,,,,,,,,,,,,,,,,,,357.01387399993837,None,360.0056209000759,None,space,5.308211600407958,360.0056209000759,None,357.01387399993837,None,357.01387399993837,None,357.01387399993837,None,1.64,365.38140420010313,None,space,1,0.3032887000590563,367.146226500161,None,367.146226500161,None,367.146226500161,None,,,,,,,,,,,P022,fencog,1,Pre,2022_Jan_19_1035,Go No-Go Task,2021.1.4,120.06329706946882,
,"Rule: When you see a yellow image, do not press 'spacebar'.",Images/Happy/AF30HAS.jpg,Happy,Blue,Images/Blue.jpg,space,ParentConditions/YellowYellowBlue_v1.xlsx,YellowYellowBlue,Conditions/Version_1/YellowFearStop.xlsx,no,PASS,0.17577164693776992,,,,,,,,,0,0,0,1,0,0,0,0,0,1,1,1,,,,,,,,,,,,,,,,,,,,,,,,,,,,,,,,,,,,,,,,,,,,,,,,,,,,,,,,,,,,,,,,,,,,,,,,,,,,,,,1.38,367.5366869000718,None,space,1,0.26686100009828806,369.02056189998984,None,369.02056189998984,None,369.02056189998984,None,,,,,,,,,,,P022,fencog,1,Pre,2022_Jan_19_1035,Go No-Go Task,2021.1.4,120.06329706946882,
,"Rule: When you see a yellow image, do not press 'spacebar'.",Images/Happy/AF27HAS.jpg,Happy,Blue,Images/Blue.jpg,space,ParentConditions/YellowYellowBlue_v1.xlsx,YellowYellowBlue,Conditions/Version_1/YellowFearStop.xlsx,no,PASS,0.9530234186227198,,,,,,,,,0,0,0,1,0,0,0,0,0,2,2,2,,,,,,,,,,,,,,,,,,,,,,,,,,,,,,,,,,,,,,,,,,,,,,,,,,,,,,,,,,,,,,,,,,,,,,,,,,,,,,,1.93,369.42248259996995,None,space,1,0.3072231002151966,371.45296500017866,None,371.45296500017866,None,371.45296500017866,None,,,,,,,,,,,P022,fencog,1,Pre,2022_Jan_19_1035,Go No-Go Task,2021.1.4,120.06329706946882,
,"Rule: When you see a yellow image, do not press 'spacebar'.",Images/Happy/AF22HAS.jpg,Happy,Blue,Images/Blue.jpg,space,ParentConditions/YellowYellowBlue_v1.xlsx,YellowYellowBlue,Conditions/Version_1/YellowFearStop.xlsx,no,PASS,0.38244231072686263,,,,,,,,,0,0,0,1,0,0,0,0,0,3,3,3,,,,,,,,,,,,,,,,,,,,,,,,,,,,,,,,,,,,,,,,,,,,,,,,,,,,,,,,,,,,,,,,,,,,,,,,,,,,,,,1.8,371.8528013001196,None,space,1,0.24961729999631643,373.7605365002528,None,373.7605365002528,None,373.7605365002528,None,,,,,,,,,,,P022,fencog,1,Pre,2022_Jan_19_1035,Go No-Go Task,2021.1.4,120.06329706946882,
,"Rule: When you see a yellow image, do not press 'spacebar'.",Images/Happy/WM11_HC.jpg,Happy,Blue,Images/Blue.jpg,space,ParentConditions/YellowYellowBlue_v1.xlsx,YellowYellowBlue,Conditions/Version_1/YellowFearStop.xlsx,no,PASS,0.4646194175443181,,,,,,,,,0,0,0,1,0,0,0,0,0,4,4,4,,,,,,,,,,,,,,,,,,,,,,,,,,,,,,,,,,,,,,,,,,,,,,,,,,,,,,,,,,,,,,,,,,,,,,,,,,,,,,,1.55,374.1598795000464,None,space,1,0.2372094001621008,375.8099262001924,None,375.8099262001924,None,375.8099262001924,None,,,,,,,,,,,P022,fencog,1,Pre,2022_Jan_19_1035,Go No-Go Task,2021.1.4,120.06329706946882,
,"Rule: When you see a yellow image, do not press 'spacebar'.",Images/Happy/BF05_HO.jpg,Happy,Blue,Images/Blue.jpg,space,ParentConditions/YellowYellowBlue_v1.xlsx,YellowYellowBlue,Conditions/Version_1/YellowFearStop.xlsx,no,PASS,0.7872072262972759,,,,,,,,,0,0,0,1,0,0,0,0,0,5,5,5,,,,,,,,,,,,,,,,,,,,,,,,,,,,,,,,,,,,,,,,,,,,,,,,,,,,,,,,,,,,,,,,,,,,,,,,,,,,,,,1.36,376.2133145998232,None,space,1,0.2518871002830565,377.6762466998771,None,377.6762466998771,None,377.6762466998771,None,,,,,,,,,,,P022,fencog,1,Pre,2022_Jan_19_1035,Go No-Go Task,2021.1.4,120.06329706946882,
,"Rule: When you see a yellow image, do not press 'spacebar'.",Images/Fearful/AM01AFS.jpg,Fear,Yellow,Images/Yellow.jpg,None,ParentConditions/YellowYellowBlue_v1.xlsx,YellowYellowBlue,Conditions/Version_1/YellowFearStop.xlsx,yes,PASS,0.04646585469142872,,,,,,,,,0,0,0,1,0,0,0,0,0,6,6,6,,,,,,,,,,,,,,,,,,,,,,,,,,,,,,,,,,,,,,,,,,,,,,,,,,,,,,,,,,,,,,,,,,,,,,,,,,,,,,,1.42,378.07631930010393,None,None,1,,379.60226360009983,None,379.60226360009983,None,379.60226360009983,None,,,,,,,,,,,P022,fencog,1,Pre,2022_Jan_19_1035,Go No-Go Task,2021.1.4,120.06329706946882,
,"Rule: When you see a yellow image, do not press 'spacebar'.",Images/Happy/AF23HAS.jpg,Happy,Blue,Images/Blue.jpg,space,ParentConditions/YellowYellowBlue_v1.xlsx,YellowYellowBlue,Conditions/Version_1/YellowFearStop.xlsx,no,PASS,0.9566897784343521,,,,,,,,,0,0,0,1,0,0,0,0,0,7,7,7,,,,,,,,,,,,,,,,,,,,,,,,,,,,,,,,,,,,,,,,,,,,,,,,,,,,,,,,,,,,,,,,,,,,,,,,,,,,,,,1.86,380.00404219981283,None,space,1,0.2719115000218153,381.9667139002122,None,381.9667139002122,None,381.9667139002122,None,,,,,,,,,,,P022,fencog,1,Pre,2022_Jan_19_1035,Go No-Go Task,2021.1.4,120.06329706946882,
,"Rule: When you see a yellow image, do not press 'spacebar'.",Images/Happy/AM16HAS.jpg,Happy,Blue,Images/Blue.jpg,space,ParentConditions/YellowYellowBlue_v1.xlsx,YellowYellowBlue,Conditions/Version_1/YellowFearStop.xlsx,no,PASS,0.9715962743635901,,,,,,,,,0,0,0,1,0,0,0,0,0,8,8,8,,,,,,,,,,,,,,,,,,,,,,,,,,,,,,,,,,,,,,,,,,,,,,,,,,,,,,,,,,,,,,,,,,,,,,,,,,,,,,,1.73,382.3719067000784,None,space,1,0.2334596998989582,384.2076921002008,None,384.2076921002008,None,384.2076921002008,None,,,,,,,,,,,P022,fencog,1,Pre,2022_Jan_19_1035,Go No-Go Task,2021.1.4,120.06329706946882,
,"Rule: When you see a yellow image, do not press 'spacebar'.",Images/Happy/AM04HAS.jpg,Happy,Blue,Images/Blue.jpg,space,ParentConditions/YellowYellowBlue_v1.xlsx,YellowYellowBlue,Conditions/Version_1/YellowFearStop.xlsx,no,PASS,0.8834532829789966,,,,,,,,,0,0,0,1,0,0,0,0,0,9,9,9,,,,,,,,,,,,,,,,,,,,,,,,,,,,,,,,,,,,,,,,,,,,,,,,,,,,,,,,,,,,,,,,,,,,,,,,,,,,,,,1.74,384.60830850014463,None,space,1,0.3083428996615112,386.4490197999403,None,386.4490197999403,None,386.4490197999403,None,,,,,,,,,,,P022,fencog,1,Pre,2022_Jan_19_1035,Go No-Go Task,2021.1.4,120.06329706946882,
,"Rule: When you see a yellow image, do not press 'spacebar'.",Images/Happy/AF26HAS.jpg,Happy,Blue,Images/Blue.jpg,space,ParentConditions/YellowYellowBlue_v1.xlsx,YellowYellowBlue,Conditions/Version_1/YellowFearStop.xlsx,no,PASS,0.1837512616409066,,,,,,,,,0,0,0,1,0,0,0,0,0,10,10,10,,,,,,,,,,,,,,,,,,,,,,,,,,,,,,,,,,,,,,,,,,,,,,,,,,,,,,,,,,,,,,,,,,,,,,,,,,,,,,,1.67,386.8478606999852,None,space,1,0.22110750013962388,388.6229030000977,None,388.6229030000977,None,388.6229030000977,None,,,,,,,,,,,P022,fencog,1,Pre,2022_Jan_19_1035,Go No-Go Task,2021.1.4,120.06329706946882,
,"Rule: When you see a yellow image, do not press 'spacebar'.",Images/Fearful/AF10_FC.jpg,Fear,Yellow,Images/Yellow.jpg,None,ParentConditions/YellowYellowBlue_v1.xlsx,YellowYellowBlue,Conditions/Version_1/YellowFearStop.xlsx,yes,PASS,0.28017183869067563,,,,,,,,,0,0,0,1,0,0,0,0,0,11,11,11,,,,,,,,,,,,,,,,,,,,,,,,,,,,,,,,,,,,,,,,,,,,,,,,,,,,,,,,,,,,,,,,,,,,,,,,,,,,,,,1.85,389.0219761999324,None,None,1,,390.9723375001922,None,390.9723375001922,None,390.9723375001922,None,,,,,,,,,,,P022,fencog,1,Pre,2022_Jan_19_1035,Go No-Go Task,2021.1.4,120.06329706946882,
,"Rule: When you see a yellow image, do not press 'spacebar'.",Images/Fearful/AM09_FO.jpg,Fear,Yellow,Images/Yellow.jpg,None,ParentConditions/YellowYellowBlue_v1.xlsx,YellowYellowBlue,Conditions/Version_1/YellowFearStop.xlsx,yes,PASS,0.6630139915996167,,,,,,,,,0,0,0,1,0,0,0,0,0,12,12,12,,,,,,,,,,,,,,,,,,,,,,,,,,,,,,,,,,,,,,,,,,,,,,,,,,,,,,,,,,,,,,,,,,,,,,,,,,,,,,,1.46,391.37908879993483,None,None,1,,392.95511189987883,None,392.95511189987883,None,392.95511189987883,None,,,,,,,,,,,P022,fencog,1,Pre,2022_Jan_19_1035,Go No-Go Task,2021.1.4,120.06329706946882,
,"Rule: When you see a yellow image, do not press 'spacebar'.",Images/Happy/HM04_HO.jpg,Happy,Blue,Images/Blue.jpg,space,ParentConditions/YellowYellowBlue_v1.xlsx,YellowYellowBlue,Conditions/Version_1/YellowFearStop.xlsx,no,PASS,0.9402314290963173,,,,,,,,,0,0,0,1,0,0,0,0,0,13,13,13,,,,,,,,,,,,,,,,,,,,,,,,,,,,,,,,,,,,,,,,,,,,,,,,,,,,,,,,,,,,,,,,,,,,,,,,,,,,,,,1.49,393.35396279999986,None,space,1,0.23956790007650852,394.94592599989846,None,394.94592599989846,None,394.94592599989846,None,,,,,,,,,,,P022,fencog,1,Pre,2022_Jan_19_1035,Go No-Go Task,2021.1.4,120.06329706946882,
,"Rule: When you see a yellow image, do not press 'spacebar'.",Images/Fearful/AM04_FO.jpg,Fear,Yellow,Images/Yellow.jpg,None,ParentConditions/YellowYellowBlue_v1.xlsx,YellowYellowBlue,Conditions/Version_1/YellowFearStop.xlsx,yes,PASS,0.3100490082037951,,,,,,,,,0,0,0,1,0,0,0,0,0,14,14,14,,,,,,,,,,,,,,,,,,,,,,,,,,,,,,,,,,,,,,,,,,,,,,,,,,,,,,,,,,,,,,,,,,,,,,,,,,,,,,,1.31,395.345063699875,None,None,1,,396.7706363000907,None,396.7706363000907,None,396.7706363000907,None,,,,,,,,,,,P022,fencog,1,Pre,2022_Jan_19_1035,Go No-Go Task,2021.1.4,120.06329706946882,
,"Rule: When you see a yellow image, do not press 'spacebar'.",Images/Happy/AM13HAS.jpg,Happy,Blue,Images/Blue.jpg,space,ParentConditions/YellowYellowBlue_v1.xlsx,YellowYellowBlue,Conditions/Version_1/YellowFearStop.xlsx,no,PASS,0.44314676907690376,,,,,,,,,0,0,0,1,0,0,0,0,0,15,15,15,,,,,,,,,,,,,,,,,,,,,,,,,,,,,,,,,,,,,,,,,,,,,,,,,,,,,,,,,,,,,,,,,,,,,,,,,,,,,,,1.62,397.1696387999691,None,space,1,0.2274025003425777,398.8945804000832,None,398.8945804000832,None,398.8945804000832,None,,,,,,,,,,,P022,fencog,1,Pre,2022_Jan_19_1035,Go No-Go Task,2021.1.4,120.06329706946882,
,"Rule: When you see a yellow image, do not press 'spacebar'.",Images/Fearful/AF09AFS.jpg,Fear,Yellow,Images/Yellow.jpg,None,ParentConditions/YellowYellowBlue_v1.xlsx,YellowYellowBlue,Conditions/Version_1/YellowFearStop.xlsx,yes,PASS,0.4498025699510172,,,,,,,,,0,0,0,1,0,0,0,0,0,16,16,16,,,,,,,,,,,,,,,,,,,,,,,,,,,,,,,,,,,,,,,,,,,,,,,,,,,,,,,,,,,,,,,,,,,,,,,,,,,,,,,1.92,399.2973152999766,None,None,1,,401.32763360021636,None,401.32763360021636,None,401.32763360021636,None,,,,,,,,,,,P022,fencog,1,Pre,2022_Jan_19_1035,Go No-Go Task,2021.1.4,120.06329706946882,
,"Rule: When you see a yellow image, do not press 'spacebar'.",Images/Fearful/BF05_FO.jpg,Fear,Yellow,Images/Yellow.jpg,None,ParentConditions/YellowYellowBlue_v1.xlsx,YellowYellowBlue,Conditions/Version_1/YellowFearStop.xlsx,yes,PASS,0.9080020582242041,,,,,,,,,0,0,0,1,0,0,0,0,0,17,17,17,,,,,,,,,,,,,,,,,,,,,,,,,,,,,,,,,,,,,,,,,,,,,,,,,,,,,,,,,,,,,,,,,,,,,,,,,,,,,,,1.58,401.72647470002994,None,None,1,,403.4184324000962,None,403.4184324000962,None,403.4184324000962,None,,,,,,,,,,,P022,fencog,1,Pre,2022_Jan_19_1035,Go No-Go Task,2021.1.4,120.06329706946882,
,"Rule: When you see a yellow image, do not press 'spacebar'.",Images/Happy/AM24HAS.jpg,Happy,Blue,Images/Blue.jpg,space,ParentConditions/YellowYellowBlue_v1.xlsx,YellowYellowBlue,Conditions/Version_1/YellowFearStop.xlsx,no,PASS,0.922071682303877,,,,,,,,,0,0,0,1,0,0,0,0,0,18,18,18,,,,,,,,,,,,,,,,,,,,,,,,,,,,,,,,,,,,,,,,,,,,,,,,,,,,,,,,,,,,,,,,,,,,,,,,,,,,,,,1.9,403.81748790014535,None,space,1,0.316673900000751,405.8178941998631,None,405.8178941998631,None,405.8178941998631,None,,,,,,,,,,,P022,fencog,1,Pre,2022_Jan_19_1035,Go No-Go Task,2021.1.4,120.06329706946882,
,"Rule: When you see a yellow image, do not press 'spacebar'.",Images/Fearful/AF11AFS.jpg,Fear,Yellow,Images/Yellow.jpg,None,ParentConditions/YellowYellowBlue_v1.xlsx,YellowYellowBlue,Conditions/Version_1/YellowFearStop.xlsx,yes,PASS,0.9473352640697336,,,,,,,,,0,0,0,1,0,0,0,0,0,19,19,19,,,,,,,,,,,,,,,,,,,,,,,,,,,,,,,,,,,,,,,,,,,,,,,,,,,,,,,,,,,,,,,,,,,,,,,,,,,,,,,1.77,406.21738380007446,None,None,1,,408.1006000000052,None,408.1006000000052,None,408.1006000000052,None,,,,,,,,,,,P022,fencog,1,Pre,2022_Jan_19_1035,Go No-Go Task,2021.1.4,120.06329706946882,
,"Rule: When you see a yellow image, do not press 'spacebar'.",Images/Happy/AF01_HE.jpg,Happy,Blue,Images/Blue.jpg,space,ParentConditions/YellowYellowBlue_v1.xlsx,YellowYellowBlue,Conditions/Version_1/YellowFearStop.xlsx,no,PASS,0.975890070475601,,,,,,,,,0,0,0,1,0,0,0,0,0,20,20,20,,,,,,,,,,,,,,,,,,,,,,,,,,,,,,,,,,,,,,,,,,,,,,,,,,,,,,,,,,,,,,,,,,,,,,,,,,,,,,,1.75,408.49954369990155,None,space,1,0.2278739996254444,410.34990140004084,None,410.34990140004084,None,410.34990140004084,None,,,,,,,,,,,P022,fencog,1,Pre,2022_Jan_19_1035,Go No-Go Task,2021.1.4,120.06329706946882,
,"Rule: When you see a yellow image, do not press 'spacebar'.",Images/Happy/AM10_HO.jpg,Happy,Blue,Images/Blue.jpg,space,ParentConditions/YellowYellowBlue_v1.xlsx,YellowYellowBlue,Conditions/Version_1/YellowFearStop.xlsx,no,PASS,0.06323556568324906,,,,,,,,,0,0,0,1,0,0,0,0,0,21,21,21,,,,,,,,,,,,,,,,,,,,,,,,,,,,,,,,,,,,,,,,,,,,,,,,,,,,,,,,,,,,,,,,,,,,,,,,,,,,,,,1.54,410.75103319995105,None,space,1,0.2528561004437506,412.3909347001463,None,412.3909347001463,None,412.3909347001463,None,,,,,,,,,,,P022,fencog,1,Pre,2022_Jan_19_1035,Go No-Go Task,2021.1.4,120.06329706946882,
,"Rule: When you see a yellow image, do not press 'spacebar'.",Images/Happy/AF09HAS.jpg,Happy,Blue,Images/Blue.jpg,space,ParentConditions/YellowYellowBlue_v1.xlsx,YellowYellowBlue,Conditions/Version_1/YellowFearStop.xlsx,no,PASS,0.6962175902541581,,,,,,,,,0,0,0,1,0,0,0,0,0,22,22,22,,,,,,,,,,,,,,,,,,,,,,,,,,,,,,,,,,,,,,,,,,,,,,,,,,,,,,,,,,,,,,,,,,,,,,,,,,,,,,,1.43,412.79009780008346,None,space,1,0.23438700009137392,414.32372940005735,None,414.32372940005735,None,414.32372940005735,None,,,,,,,,,,,P022,fencog,1,Pre,2022_Jan_19_1035,Go No-Go Task,2021.1.4,120.06329706946882,
,"Rule: When you see a yellow image, do not press 'spacebar'.",Images/Happy/BM02_HO.jpg,Happy,Blue,Images/Blue.jpg,space,ParentConditions/YellowYellowBlue_v1.xlsx,YellowYellowBlue,Conditions/Version_1/YellowFearStop.xlsx,no,PASS,0.39611347700197175,,,,,,,,,0,0,0,1,0,0,0,0,0,23,23,23,,,,,,,,,,,,,,,,,,,,,,,,,,,,,,,,,,,,,,,,,,,,,,,,,,,,,,,,,,,,,,,,,,,,,,,,,,,,,,,1.53,414.72404550015926,None,space,1,0.3135681999847293,416.364784500096,None,416.364784500096,None,416.364784500096,None,,,,,,,,,,,P022,fencog,1,Pre,2022_Jan_19_1035,Go No-Go Task,2021.1.4,120.06329706946882,
,"Rule: When you see a yellow image, do not press 'spacebar'.",Images/Happy/AM09_HE.jpg,Happy,Blue,Images/Blue.jpg,space,ParentConditions/YellowYellowBlue_v1.xlsx,YellowYellowBlue,Conditions/Version_1/YellowFearStop.xlsx,no,PASS,0.07757947711401492,,,,,,,,,0,0,0,1,0,0,0,0,0,24,24,24,,,,,,,,,,,,,,,,,,,,,,,,,,,,,,,,,,,,,,,,,,,,,,,,,,,,,,,,,,,,,,,,,,,,,,,,,,,,,,,1.78,416.7639656998217,None,space,1,0.22724120039492846,418.6474811001681,None,418.6474811001681,None,418.6474811001681,None,,,,,,,,,,,P022,fencog,1,Pre,2022_Jan_19_1035,Go No-Go Task,2021.1.4,120.06329706946882,
,"Rule: When you see a yellow image, do not press 'spacebar'.",Images/Happy/AF10_HE.jpg,Happy,Blue,Images/Blue.jpg,space,ParentConditions/YellowYellowBlue_v1.xlsx,YellowYellowBlue,Conditions/Version_1/YellowFearStop.xlsx,no,PASS,0.0317382475703174,,,,,,,,,0,0,0,1,0,0,0,0,0,25,25,25,,,,,,,,,,,,,,,,,,,,,,,,,,,,,,,,,,,,,,,,,,,,,,,,,,,,,,,,,,,,,,,,,,,,,,,,,,,,,,,1.99,419.04794660024345,None,space,1,0.24514289991930127,421.1382857998833,None,421.1382857998833,None,421.1382857998833,None,,,,,,,,,,,P022,fencog,1,Pre,2022_Jan_19_1035,Go No-Go Task,2021.1.4,120.06329706946882,
,"Rule: When you see a yellow image, do not press 'spacebar'.",Images/Happy/BM01_HO.jpg,Happy,Blue,Images/Blue.jpg,space,ParentConditions/YellowYellowBlue_v1.xlsx,YellowYellowBlue,Conditions/Version_1/YellowFearStop.xlsx,no,PASS,0.5236836345272965,,,,,,,,,0,0,0,1,0,0,0,0,0,26,26,26,,,,,,,,,,,,,,,,,,,,,,,,,,,,,,,,,,,,,,,,,,,,,,,,,,,,,,,,,,,,,,,,,,,,,,,,,,,,,,,1.39,421.5426842998713,None,space,1,0.2620725999586284,423.037780799903,None,423.037780799903,None,423.037780799903,None,,,,,,,,,,,P022,fencog,1,Pre,2022_Jan_19_1035,Go No-Go Task,2021.1.4,120.06329706946882,
,"Rule: When you see a yellow image, do not press 'spacebar'.",Images/Fearful/AF07_FO.jpg,Fear,Yellow,Images/Yellow.jpg,None,ParentConditions/YellowYellowBlue_v1.xlsx,YellowYellowBlue,Conditions/Version_1/YellowFearStop.xlsx,yes,PASS,0.05460409726356086,,,,,,,,,0,0,0,1,0,0,0,0,0,27,27,27,,,,,,,,,,,,,,,,,,,,,,,,,,,,,,,,,,,,,,,,,,,,,,,,,,,,,,,,,,,,,,,,,,,,,,,,,,,,,,,1.94,423.4381110002287,None,None,1,,425.47868400020525,None,425.47868400020525,None,425.47868400020525,None,,,,,,,,,,,P022,fencog,1,Pre,2022_Jan_19_1035,Go No-Go Task,2021.1.4,120.06329706946882,
,"Rule: When you see a yellow image, do not press 'spacebar'.",Images/Happy/BF18_HO.jpg,Happy,Blue,Images/Blue.jpg,space,ParentConditions/YellowYellowBlue_v1.xlsx,YellowYellowBlue,Conditions/Version_1/YellowFearStop.xlsx,no,PASS,0.725547290944351,,,,,,,,,0,0,0,1,0,0,0,0,0,28,28,28,,,,,,,,,,,,,,,,,,,,,,,,,,,,,,,,,,,,,,,,,,,,,,,,,,,,,,,,,,,,,,,,,,,,,,,,,,,,,,,1.47,425.88377590011805,None,space,1,0.34619920002296567,427.46153610013425,None,427.46153610013425,None,427.46153610013425,None,,,,,,,,,,,P022,fencog,1,Pre,2022_Jan_19_1035,Go No-Go Task,2021.1.4,120.06329706946882,
,"Rule: When you see a yellow image, do not press 'spacebar'.",Images/Happy/AM03HAS.jpg,Happy,Blue,Images/Blue.jpg,space,ParentConditions/YellowYellowBlue_v1.xlsx,YellowYellowBlue,Conditions/Version_1/YellowFearStop.xlsx,no,PASS,0.25317968373868693,,,,,,,,,0,0,0,1,0,0,0,0,0,29,29,29,,,,,,,,,,,,,,,,,,,,,,,,,,,,,,,,,,,,,,,,,,,,,,,,,,,,,,,,,,,,,,,,,,,,,,,,,,,,,,,1.24,427.86191859981045,None,space,1,0.26516780024394393,429.21099069993943,None,429.21099069993943,None,429.21099069993943,None,,,,,,,,,,,P022,fencog,1,Pre,2022_Jan_19_1035,Go No-Go Task,2021.1.4,120.06329706946882,
,"Rule: When you see a yellow image, do not press 'spacebar'.",Images/Happy/BF10_HO.jpg,Happy,Blue,Images/Blue.jpg,space,ParentConditions/YellowYellowBlue_v1.xlsx,YellowYellowBlue,Conditions/Version_1/YellowFearStop.xlsx,no,PASS,0.49778397383761497,,,,,,,,,0,0,0,1,0,0,0,0,0,30,30,30,,,,,,,,,,,,,,,,,,,,,,,,,,,,,,,,,,,,,,,,,,,,,,,,,,,,,,,,,,,,,,,,,,,,,,,,,,,,,,,1.32,429.60992129985243,None,space,1,0.25135379983112216,431.03541560005397,None,431.03541560005397,None,431.03541560005397,None,,,,,,,,,,,P022,fencog,1,Pre,2022_Jan_19_1035,Go No-Go Task,2021.1.4,120.06329706946882,
,"Rule: When you see a yellow image, do not press 'spacebar'.",Images/Happy/BF07_HO.jpg,Happy,Blue,Images/Blue.jpg,space,ParentConditions/YellowYellowBlue_v1.xlsx,YellowYellowBlue,Conditions/Version_1/YellowFearStop.xlsx,no,PASS,0.8230931671283865,,,,,,,,,0,0,0,1,0,0,0,0,0,31,31,31,,,,,,,,,,,,,,,,,,,,,,,,,,,,,,,,,,,,,,,,,,,,,,,,,,,,,,,,,,,,,,,,,,,,,,,,,,,,,,,1.3,431.43449090002105,None,space,1,0.24524680012837052,432.8516290001571,None,432.8516290001571,None,432.8516290001571,None,,,,,,,,,,,P022,fencog,1,Pre,2022_Jan_19_1035,Go No-Go Task,2021.1.4,120.06329706946882,
,"Rule: When you see a yellow image, do not press 'spacebar'.",Images/Fearful/BF07_FO.jpg,Fear,Yellow,Images/Yellow.jpg,None,ParentConditions/YellowYellowBlue_v1.xlsx,YellowYellowBlue,Conditions/Version_1/YellowFearStop.xlsx,yes,PASS,0.2119409881246468,,,,,,,,,0,0,0,1,0,0,0,0,0,32,32,32,,,,,,,,,,,,,,,,,,,,,,,,,,,,,,,,,,,,,,,,,,,,,,,,,,,,,,,,,,,,,,,,,,,,,,,,,,,,,,,1.69,433.2458480000496,None,None,1,,435.04251200007275,None,435.04251200007275,None,435.04251200007275,None,,,,,,,,,,,P022,fencog,1,Pre,2022_Jan_19_1035,Go No-Go Task,2021.1.4,120.06329706946882,
,"Rule: When you see a yellow image, do not press 'spacebar'.",Images/Happy/WF04_HC.jpg,Happy,Blue,Images/Blue.jpg,space,ParentConditions/YellowYellowBlue_v1.xlsx,YellowYellowBlue,Conditions/Version_1/YellowFearStop.xlsx,no,PASS,0.26229612863468255,,,,,,,,,0,0,0,1,0,0,0,0,0,33,33,33,,,,,,,,,,,,,,,,,,,,,,,,,,,,,,,,,,,,,,,,,,,,,,,,,,,,,,,,,,,,,,,,,,,,,,,,,,,,,,,2,435.44189349981025,None,space,1,0.2385064996778965,437.5502915000543,None,437.5502915000543,None,437.5502915000543,None,,,,,,,,,,,P022,fencog,1,Pre,2022_Jan_19_1035,Go No-Go Task,2021.1.4,120.06329706946882,
,"Rule: When you see a yellow image, do not press 'spacebar'.",Images/Happy/AM23HAS.jpg,Happy,Blue,Images/Blue.jpg,space,ParentConditions/YellowYellowBlue_v1.xlsx,YellowYellowBlue,Conditions/Version_1/YellowFearStop.xlsx,no,PASS,0.6553077695853636,,,,,,,,,0,0,0,1,0,0,0,0,0,34,34,34,,,,,,,,,,,,,,,,,,,,,,,,,,,,,,,,,,,,,,,,,,,,,,,,,,,,,,,,,,,,,,,,,,,,,,,,,,,,,,,1.81,437.9533978002146,None,space,1,0.34208819968625903,439.8662192998454,None,439.8662192998454,None,439.8662192998454,None,,,,,,,,,,,P022,fencog,1,Pre,2022_Jan_19_1035,Go No-Go Task,2021.1.4,120.06329706946882,
,"Rule: When you see a yellow image, do not press 'spacebar'.",Images/Happy/AM09HAS.jpg,Happy,Blue,Images/Blue.jpg,space,ParentConditions/YellowYellowBlue_v1.xlsx,YellowYellowBlue,Conditions/Version_1/YellowFearStop.xlsx,no,PASS,0.3792451721627529,,,,,,,,,0,0,0,1,0,0,0,0,0,35,35,35,,,,,,,,,,,,,,,,,,,,,,,,,,,,,,,,,,,,,,,,,,,,,,,,,,,,,,,,,,,,,,,,,,,,,,,,,,,,,,,1.35,440.2667640000582,None,space,1,0.22678720019757748,441.7239665002562,None,441.7239665002562,None,441.7239665002562,None,,,,,,,,,,,P022,fencog,1,Pre,2022_Jan_19_1035,Go No-Go Task,2021.1.4,120.06329706946882,
,"Rule: When you see a yellow image, do not press 'spacebar'.",Images/Happy/AM10HAS.jpg,Happy,Blue,Images/Blue.jpg,space,ParentConditions/YellowYellowBlue_v1.xlsx,YellowYellowBlue,Conditions/Version_1/YellowFearStop.xlsx,no,PASS,0.9781550300020249,,,,,,,,,0,0,0,1,0,0,0,0,0,36,36,36,,,,,,,,,,,,,,,,,,,,,,,,,,,,,,,,,,,,,,,,,,,,,,,,,,,,,,,,,,,,,,,,,,,,,,,,,,,,,,,1.68,442.1233051000163,None,space,1,0.2559437002055347,443.90668170014396,None,443.90668170014396,None,443.90668170014396,None,,,,,,,,,,,P022,fencog,1,Pre,2022_Jan_19_1035,Go No-Go Task,2021.1.4,120.06329706946882,
,"Rule: When you see a yellow image, do not press 'spacebar'.",Images/Happy/AF07HAS.jpg,Happy,Blue,Images/Blue.jpg,space,ParentConditions/YellowYellowBlue_v1.xlsx,YellowYellowBlue,Conditions/Version_1/YellowFearStop.xlsx,no,PASS,0.9827710623676732,,,,,,,,,0,0,0,1,0,0,0,0,0,37,37,37,,,,,,,,,,,,,,,,,,,,,,,,,,,,,,,,,,,,,,,,,,,,,,,,,,,,,,,,,,,,,,,,,,,,,,,,,,,,,,,1.56,444.31376660009846,None,space,1,0.24626450007781386,445.9810525001958,None,445.9810525001958,None,445.9810525001958,None,,,,,,,,,,,P022,fencog,1,Pre,2022_Jan_19_1035,Go No-Go Task,2021.1.4,120.06329706946882,
,"Rule: When you see a yellow image, do not press 'spacebar'.",Images/Happy/AM03_HO.jpg,Happy,Blue,Images/Blue.jpg,space,ParentConditions/YellowYellowBlue_v1.xlsx,YellowYellowBlue,Conditions/Version_1/YellowFearStop.xlsx,no,PASS,0.6960883574837642,,,,,,,,,0,0,0,1,0,0,0,0,0,38,38,38,,,,,,,,,,,,,,,,,,,,,,,,,,,,,,,,,,,,,,,,,,,,,,,,,,,,,,,,,,,,,,,,,,,,,,,,,,,,,,,1.71,446.3835852998309,None,space,1,0.25055429991334677,448.1971269999631,None,448.1971269999631,None,448.1971269999631,None,,,,,,,,,,,P022,fencog,1,Pre,2022_Jan_19_1035,Go No-Go Task,2021.1.4,120.06329706946882,
,"Rule: When you see a yellow image, do not press 'spacebar'.",Images/Happy/AM05HAS.jpg,Happy,Blue,Images/Blue.jpg,space,ParentConditions/YellowYellowBlue_v1.xlsx,YellowYellowBlue,Conditions/Version_1/YellowFearStop.xlsx,no,PASS,0.8897547995150092,,,,,,,,,0,0,0,1,0,0,0,0,0,39,39,39,,,,,,,,,,,,,,,,,,,,,,,,,,,,,,,,,,,,,,,,,,,,,,,,,,,,,,,,,,,,,,,,,,,,,,,,,,,,,,,1.51,448.60218719998375,None,space,1,0.19424219988286495,450.22145670000464,None,450.22145670000464,None,450.22145670000464,None,,,,,,,,,,,P022,fencog,1,Pre,2022_Jan_19_1035,Go No-Go Task,2021.1.4,120.06329706946882,
,"Rule: When you see a yellow image, do not press 'spacebar'.",Images/Happy/AF02HAS.jpg,Happy,Blue,Images/Blue.jpg,space,ParentConditions/YellowYellowBlue_v1.xlsx,YellowYellowBlue,Conditions/Version_1/YellowFearStop.xlsx,no,PASS,0.25376599793626176,,,,,,,,,0,0,0,1,0,0,0,0,0,40,40,40,,,,,,,,,,,,,,,,,,,,,,,,,,,,,,,,,,,,,,,,,,,,,,,,,,,,,,,,,,,,,,,,,,,,,,,,,,,,,,,1.23,450.6203458001837,None,space,1,0.23827699990943074,451.97094799997285,None,451.97094799997285,None,451.97094799997285,None,,,,,,,,,,,P022,fencog,1,Pre,2022_Jan_19_1035,Go No-Go Task,2021.1.4,120.06329706946882,
,"Rule: When you see a yellow image, do not press 'spacebar'.",Images/Happy/BM08_HO.jpg,Happy,Blue,Images/Blue.jpg,space,ParentConditions/YellowYellowBlue_v1.xlsx,YellowYellowBlue,Conditions/Version_1/YellowFearStop.xlsx,no,PASS,0.999289280912827,,,,,,,,,0,0,0,1,0,0,0,0,0,41,41,41,,,,,,,,,,,,,,,,,,,,,,,,,,,,,,,,,,,,,,,,,,,,,,,,,,,,,,,,,,,,,,,,,,,,,,,,,,,,,,,1.5,452.36173240002245,None,space,1,0.20331289991736412,453.97030899999663,None,453.97030899999663,None,453.97030899999663,None,,,,,,,,,,,P022,fencog,1,Pre,2022_Jan_19_1035,Go No-Go Task,2021.1.4,120.06329706946882,
,"Rule: When you see a yellow image, do not press 'spacebar'.",Images/Happy/AM22HAS.jpg,Happy,Blue,Images/Blue.jpg,space,ParentConditions/YellowYellowBlue_v1.xlsx,YellowYellowBlue,Conditions/Version_1/YellowFearStop.xlsx,no,PASS,0.3243688929703894,,,,,,,,,0,0,0,1,0,0,0,0,0,42,42,42,,,,,,,,,,,,,,,,,,,,,,,,,,,,,,,,,,,,,,,,,,,,,,,,,,,,,,,,,,,,,,,,,,,,,,,,,,,,,,,1.96,454.36949159996584,None,space,1,0.2487201001495123,456.45287030003965,None,456.45287030003965,None,456.45287030003965,None,,,,,,,,,,,P022,fencog,1,Pre,2022_Jan_19_1035,Go No-Go Task,2021.1.4,120.06329706946882,
,"Rule: When you see a yellow image, do not press 'spacebar'.",Images/Happy/AM30HAS.jpg,Happy,Blue,Images/Blue.jpg,space,ParentConditions/YellowYellowBlue_v1.xlsx,YellowYellowBlue,Conditions/Version_1/YellowFearStop.xlsx,no,PASS,0.6329749014690744,,,,,,,,,0,0,0,1,0,0,0,0,0,43,43,43,,,,,,,,,,,,,,,,,,,,,,,,,,,,,,,,,,,,,,,,,,,,,,,,,,,,,,,,,,,,,,,,,,,,,,,,,,,,,,,1.65,456.8437077999115,None,space,1,0.26415760023519397,458.59408860001713,None,458.59408860001713,None,458.59408860001713,None,,,,,,,,,,,P022,fencog,1,Pre,2022_Jan_19_1035,Go No-Go Task,2021.1.4,120.06329706946882,
,"Rule: When you see a yellow image, do not press 'spacebar'.",Images/Fearful/BF09_FC.jpg,Fear,Yellow,Images/Yellow.jpg,None,ParentConditions/YellowYellowBlue_v1.xlsx,YellowYellowBlue,Conditions/Version_1/YellowFearStop.xlsx,yes,PASS,0.8490666234880494,,,,,,,,,0,0,0,1,0,0,0,0,0,44,44,44,,,,,,,,,,,,,,,,,,,,,,,,,,,,,,,,,,,,,,,,,,,,,,,,,,,,,,,,,,,,,,,,,,,,,,,,,,,,,,,1.22,458.99386439984664,None,space,0,0.22173099964857101,460.3185235001147,None,460.3185235001147,None,460.3185235001147,None,,,,,,,,,,,P022,fencog,1,Pre,2022_Jan_19_1035,Go No-Go Task,2021.1.4,120.06329706946882,
,"Rule: When you see a yellow image, do not press 'spacebar'.",Images/Happy/WM12_HE.jpg,Happy,Blue,Images/Blue.jpg,space,ParentConditions/YellowYellowBlue_v1.xlsx,YellowYellowBlue,Conditions/Version_1/YellowFearStop.xlsx,no,PASS,0.11929099481185879,,,,,,,,,0,0,0,1,0,0,0,0,0,45,45,45,,,,,,,,,,,,,,,,,,,,,,,,,,,,,,,,,,,,,,,,,,,,,,,,,,,,,,,,,,,,,,,,,,,,,,,,,,,,,,,1.27,460.71848550019786,None,space,1,0.2154815997928381,462.09300270024687,None,462.09300270024687,None,462.09300270024687,None,,,,,,,,,,,P022,fencog,1,Pre,2022_Jan_19_1035,Go No-Go Task,2021.1.4,120.06329706946882,
,"Rule: When you see a yellow image, do not press 'spacebar'.",Images/Happy/HF10_HE.jpg,Happy,Blue,Images/Blue.jpg,space,ParentConditions/YellowYellowBlue_v1.xlsx,YellowYellowBlue,Conditions/Version_1/YellowFearStop.xlsx,no,PASS,0.835696516720082,,,,,,,,,0,0,0,1,0,0,0,0,0,46,46,46,,,,,,,,,,,,,,,,,,,,,,,,,,,,,,,,,,,,,,,,,,,,,,,,,,,,,,,,,,,,,,,,,,,,,,,,,,,,,,,1.21,462.4948208001442,None,space,1,0.26400800002738833,463.8175202999264,None,463.8175202999264,None,463.8175202999264,None,,,,,,,,,,,P022,fencog,1,Pre,2022_Jan_19_1035,Go No-Go Task,2021.1.4,120.06329706946882,
,"Rule: When you see a yellow image, do not press 'spacebar'.",Images/Happy/HM09_HO.jpg,Happy,Blue,Images/Blue.jpg,space,ParentConditions/YellowYellowBlue_v1.xlsx,YellowYellowBlue,Conditions/Version_1/YellowFearStop.xlsx,no,PASS,0.80615804446551,,,,,,,,,0,0,0,1,0,0,0,0,0,47,47,47,,,,,,,,,,,,,,,,,,,,,,,,,,,,,,,,,,,,,,,,,,,,,,,,,,,,,,,,,,,,,,,,,,,,,,,,,,,,,,,1.95,464.2164306999184,None,space,1,0.269966300111264,466.27495320001617,None,466.27495320001617,None,466.27495320001617,None,,,,,,,,,,,P022,fencog,1,Pre,2022_Jan_19_1035,Go No-Go Task,2021.1.4,120.06329706946882,
,"Rule: When you see a yellow image, do not press 'spacebar'.",Images/Fearful/AM03_FC.jpg,Fear,Yellow,Images/Yellow.jpg,None,ParentConditions/YellowYellowBlue_v1.xlsx,YellowYellowBlue,Conditions/Version_1/YellowFearStop.xlsx,yes,PASS,0.14846567878901318,,,,,,,,,0,0,0,1,0,0,0,0,0,48,48,48,,,,,,,,,,,,,,,,,,,,,,,,,,,,,,,,,,,,,,,,,,,,,,,,,,,,,,,,,,,,,,,,,,,,,,,,,,,,,,,1.25,466.67403140012175,None,None,1,,468.0244152001105,None,468.0244152001105,None,468.0244152001105,None,,,,,,,,,,,P022,fencog,1,Pre,2022_Jan_19_1035,Go No-Go Task,2021.1.4,120.06329706946882,
,"Rule: When you see a yellow image, do not press 'spacebar'.",Images/Happy/HF04_HE.jpg,Happy,Blue,Images/Blue.jpg,space,ParentConditions/YellowYellowBlue_v1.xlsx,YellowYellowBlue,Conditions/Version_1/YellowFearStop.xlsx,no,PASS,0.49340132442678397,,,,,,,,,0,0,0,1,0,0,0,0,0,49,49,49,,,,,,,,,,,,,,,,,,,,,,,,,,,,,,,,,,,,,,,,,,,,,,,,,,,,,,,,,,,,,,,,,,,,,,,,,,,,,,,1.6,468.4251476000063,None,space,1,0.2838304997421801,470.1321509000845,None,470.1321509000845,None,470.1321509000845,None,,,,,,,,,,,P022,fencog,1,Pre,2022_Jan_19_1035,Go No-Go Task,2021.1.4,120.06329706946882,
,"Rule: When you see a yellow image, do not press 'spacebar'.",Images/Happy/AM17HAS.jpg,Happy,Blue,Images/Blue.jpg,space,ParentConditions/YellowYellowBlue_v1.xlsx,YellowYellowBlue,Conditions/Version_1/YellowFearStop.xlsx,no,PASS,0.47053997269579284,,,,,,,,,0,0,0,1,0,0,0,0,0,50,50,50,,,,,,,,,,,,,,,,,,,,,,,,,,,,,,,,,,,,,,,,,,,,,,,,,,,,,,,,,,,,,,,,,,,,,,,,,,,,,,,1.37,470.53673489997163,None,space,1,0.21577119966968894,472.0232942001894,None,472.0232942001894,None,472.0232942001894,None,,,,,,,,,,,P022,fencog,1,Pre,2022_Jan_19_1035,Go No-Go Task,2021.1.4,120.06329706946882,
,"Rule: When you see a yellow image, do not press 'spacebar'.",Images/Fearful/BM01_FO.jpg,Fear,Yellow,Images/Yellow.jpg,None,ParentConditions/YellowYellowBlue_v1.xlsx,YellowYellowBlue,Conditions/Version_1/YellowFearStop.xlsx,yes,PASS,0.31347174673362443,,,,,,,,,0,0,0,1,0,0,0,0,0,51,51,51,,,,,,,,,,,,,,,,,,,,,,,,,,,,,,,,,,,,,,,,,,,,,,,,,,,,,,,,,,,,,,,,,,,,,,,,,,,,,,,1.84,472.41256730025634,None,None,1,,474.35595959983766,None,474.35595959983766,None,474.35595959983766,None,,,,,,,,,,,P022,fencog,1,Pre,2022_Jan_19_1035,Go No-Go Task,2021.1.4,120.06329706946882,
,"Rule: When you see a yellow image, do not press 'spacebar'.",Images/Happy/HF09_HE.jpg,Happy,Blue,Images/Blue.jpg,space,ParentConditions/YellowYellowBlue_v1.xlsx,YellowYellowBlue,Conditions/Version_1/YellowFearStop.xlsx,no,PASS,0.012739972194723559,,,,,,,,,0,0,0,1,0,0,0,0,0,52,52,52,,,,,,,,,,,,,,,,,,,,,,,,,,,,,,,,,,,,,,,,,,,,,,,,,,,,,,,,,,,,,,,,,,,,,,,,,,,,,,,1.79,474.76167359994724,None,space,1,0.2202904000878334,476.6553461002186,None,476.6553461002186,None,476.6553461002186,None,,,,,,,,,,,P022,fencog,1,Pre,2022_Jan_19_1035,Go No-Go Task,2021.1.4,120.06329706946882,
,"Rule: When you see a yellow image, do not press 'spacebar'.",Images/Happy/WF11_HE.jpg,Happy,Blue,Images/Blue.jpg,space,ParentConditions/YellowYellowBlue_v1.xlsx,YellowYellowBlue,Conditions/Version_1/YellowFearStop.xlsx,no,PASS,0.5128097154267254,,,,,,,,,0,0,0,1,0,0,0,0,0,53,53,53,,,,,,,,,,,,,,,,,,,,,,,,,,,,,,,,,,,,,,,,,,,,,,,,,,,,,,,,,,,,,,,,,,,,,,,,,,,,,,,1.88,477.0553875998594,None,space,1,0.2853322997689247,479.03792189992964,None,479.03792189992964,None,479.03792189992964,None,,,,,,,,,,,P022,fencog,1,Pre,2022_Jan_19_1035,Go No-Go Task,2021.1.4,120.06329706946882,
,"Rule: When you see a yellow image, do not press 'spacebar'.",Images/Fearful/AM04AFS.jpg,Fear,Yellow,Images/Yellow.jpg,None,ParentConditions/YellowYellowBlue_v1.xlsx,YellowYellowBlue,Conditions/Version_1/YellowFearStop.xlsx,yes,PASS,0.4808108011742167,,,,,,,,,0,0,0,1,0,0,0,0,0,54,54,54,,,,,,,,,,,,,,,,,,,,,,,,,,,,,,,,,,,,,,,,,,,,,,,,,,,,,,,,,,,,,,,,,,,,,,,,,,,,,,,1.72,479.4369423999451,None,space,0,0.18915710039436817,481.26225339993834,None,481.26225339993834,None,481.26225339993834,None,,,,,,,,,,,P022,fencog,1,Pre,2022_Jan_19_1035,Go No-Go Task,2021.1.4,120.06329706946882,
,"Rule: When you see a yellow image, do not press 'spacebar'.",Images/Happy/AF19HAS.jpg,Happy,Blue,Images/Blue.jpg,space,ParentConditions/YellowYellowBlue_v1.xlsx,YellowYellowBlue,Conditions/Version_1/YellowFearStop.xlsx,no,PASS,0.3252147007245795,,,,,,,,,0,0,0,1,0,0,0,0,0,55,55,55,,,,,,,,,,,,,,,,,,,,,,,,,,,,,,,,,,,,,,,,,,,,,,,,,,,,,,,,,,,,,,,,,,,,,,,,,,,,,,,1.59,481.6678216001019,None,space,1,0.21779230004176497,483.36171150021255,None,483.36171150021255,None,483.36171150021255,None,,,,,,,,,,,P022,fencog,1,Pre,2022_Jan_19_1035,Go No-Go Task,2021.1.4,120.06329706946882,
,"Rule: When you see a yellow image, do not press 'spacebar'.",Images/Happy/HM06_HO.jpg,Happy,Blue,Images/Blue.jpg,space,ParentConditions/YellowYellowBlue_v1.xlsx,YellowYellowBlue,Conditions/Version_1/YellowFearStop.xlsx,no,PASS,0.3282337486862341,,,,,,,,,0,0,0,1,0,0,0,0,0,56,56,56,,,,,,,,,,,,,,,,,,,,,,,,,,,,,,,,,,,,,,,,,,,,,,,,,,,,,,,,,,,,,,,,,,,,,,,,,,,,,,,1.61,483.76054449984804,None,space,1,0.23052260000258684,485.47769330022857,None,485.47769330022857,None,485.47769330022857,None,,,,,,,,,,,P022,fencog,1,Pre,2022_Jan_19_1035,Go No-Go Task,2021.1.4,120.06329706946882,
,"Rule: When you see a yellow image, do not press 'spacebar'.",Images/Happy/HF05_HO.jpg,Happy,Blue,Images/Blue.jpg,space,ParentConditions/YellowYellowBlue_v1.xlsx,YellowYellowBlue,Conditions/Version_1/YellowFearStop.xlsx,no,PASS,0.5833391709234322,,,,,,,,,0,0,0,1,0,0,0,0,0,57,57,57,,,,,,,,,,,,,,,,,,,,,,,,,,,,,,,,,,,,,,,,,,,,,,,,,,,,,,,,,,,,,,,,,,,,,,,,,,,,,,,1.63,485.882088100072,None,space,1,0.23466970026493073,487.61875389982015,None,487.61875389982015,None,487.61875389982015,None,,,,,,,,,,,P022,fencog,1,Pre,2022_Jan_19_1035,Go No-Go Task,2021.1.4,120.06329706946882,
,"Rule: When you see a yellow image, do not press 'spacebar'.",Images/Fearful/AF01_FO.jpg,Fear,Yellow,Images/Yellow.jpg,None,ParentConditions/YellowYellowBlue_v1.xlsx,YellowYellowBlue,Conditions/Version_1/YellowFearStop.xlsx,yes,PASS,0.3034900725746609,,,,,,,,,0,0,0,1,0,0,0,0,0,58,58,58,,,,,,,,,,,,,,,,,,,,,,,,,,,,,,,,,,,,,,,,,,,,,,,,,,,,,,,,,,,,,,,,,,,,,,,,,,,,,,,1.48,488.019433000125,None,None,1,,489.60150869982317,None,489.60150869982317,None,489.60150869982317,None,,,,,,,,,,,P022,fencog,1,Pre,2022_Jan_19_1035,Go No-Go Task,2021.1.4,120.06329706946882,
,"Rule: When you see a yellow image, do not press 'spacebar'.",Images/Happy/AF21HAS.jpg,Happy,Blue,Images/Blue.jpg,space,ParentConditions/YellowYellowBlue_v1.xlsx,YellowYellowBlue,Conditions/Version_1/YellowFearStop.xlsx,no,PASS,0.9799702127391234,,,,,,,,,0,0,0,1,0,0,0,0,0,59,59,59,,,,,,,,,,,,,,,,,,,,,,,,,,,,,,,,,,,,,,,,,,,,,,,,,,,,,,,,,,,,,,,,,,,,,,,,,,,,,,,1.7,490.001298900228,None,space,1,0.29154919972643256,491.81744190026075,None,491.81744190026075,None,491.81744190026075,None,,,,,,,,,,,P022,fencog,1,Pre,2022_Jan_19_1035,Go No-Go Task,2021.1.4,120.06329706946882,
,"Rule: When you see a yellow image, do not press 'spacebar'.",Images/Happy/AM06_HC.jpg,Happy,Blue,Images/Blue.jpg,space,ParentConditions/YellowYellowBlue_v1.xlsx,YellowYellowBlue,Conditions/Version_1/YellowFearStop.xlsx,no,PASS,0.29816427390759137,,,,,,,,,0,0,0,1,0,0,0,0,0,60,60,60,,,,,,,,,,,,,,,,,,,,,,,,,,,,,,,,,,,,,,,,,,,,,,,,,,,,,,,,,,,,,,,,,,,,,,,,,,,,,,,1.34,492.21639259997755,None,space,1,0.2898179003968835,493.65867030015215,None,493.65867030015215,None,493.65867030015215,None,,,,,,,,,,,P022,fencog,1,Pre,2022_Jan_19_1035,Go No-Go Task,2021.1.4,120.06329706946882,
,"Rule: When you see a yellow image, do not press 'spacebar'.",Images/Fearful/AF02AFS.jpg,Fear,Yellow,Images/Yellow.jpg,None,ParentConditions/YellowYellowBlue_v1.xlsx,YellowYellowBlue,Conditions/Version_1/YellowFearStop.xlsx,yes,PASS,0.15582520477375605,,,,,,,,,0,0,0,1,0,0,0,0,0,61,61,61,,,,,,,,,,,,,,,,,,,,,,,,,,,,,,,,,,,,,,,,,,,,,,,,,,,,,,,,,,,,,,,,,,,,,,,,,,,,,,,1.97,494.06371869985014,None,None,1,,496.14120580023155,None,496.14120580023155,None,496.14120580023155,None,,,,,,,,,,,P022,fencog,1,Pre,2022_Jan_19_1035,Go No-Go Task,2021.1.4,120.06329706946882,
,"Rule: When you see a yellow image, do not press 'spacebar'.",Images/Happy/AF25HAS.jpg,Happy,Blue,Images/Blue.jpg,space,ParentConditions/YellowYellowBlue_v1.xlsx,YellowYellowBlue,Conditions/Version_1/YellowFearStop.xlsx,no,PASS,0.7963653427272854,,,,,,,,,0,0,0,1,0,0,0,0,0,62,62,62,,,,,,,,,,,,,,,,,,,,,,,,,,,,,,,,,,,,,,,,,,,,,,,,,,,,,,,,,,,,,,,,,,,,,,,,,,,,,,,1.98,496.5479211998172,None,space,1,0.2695348998531699,498.64873219979927,None,498.64873219979927,None,498.64873219979927,None,,,,,,,,,,,P022,fencog,1,Pre,2022_Jan_19_1035,Go No-Go Task,2021.1.4,120.06329706946882,
,"Rule: When you see a yellow image, do not press 'spacebar'.",Images/Happy/AM32HAS.jpg,Happy,Blue,Images/Blue.jpg,space,ParentConditions/YellowYellowBlue_v1.xlsx,YellowYellowBlue,Conditions/Version_1/YellowFearStop.xlsx,no,PASS,0.2823557460482189,,,,,,,,,0,0,0,1,0,0,0,0,0,63,63,63,,,,,,,,,,,,,,,,,,,,,,,,,,,,,,,,,,,,,,,,,,,,,,,,,,,,,,,,,,,,,,,,,,,,,,,,,,,,,,,1.66,499.03945949999616,None,space,1,0.24722870020195842,500.8063170998357,None,500.8063170998357,None,500.8063170998357,None,,,,,,,,,,,P022,fencog,1,Pre,2022_Jan_19_1035,Go No-Go Task,2021.1.4,120.06329706946882,
,"Rule: When you see a yellow image, do not press 'spacebar'.",Images/Fearful/AM02_FO.jpg,Fear,Yellow,Images/Yellow.jpg,None,ParentConditions/YellowYellowBlue_v1.xlsx,YellowYellowBlue,Conditions/Version_1/YellowFearStop.xlsx,yes,PASS,0.8481624514007016,,,,,,,,,0,0,0,1,0,0,0,0,0,64,64,64,,,,,,,,,,,,,,,,,,,,,,,,,,,,,,,,,,,,,,,,,,,,,,,,,,,,,,,,,,,,,,,,,,,,,,,,,,,,,,,1.57,501.2067029001191,None,None,1,,502.88087189989164,None,502.88087189989164,None,502.88087189989164,None,,,,,,,,,,,P022,fencog,1,Pre,2022_Jan_19_1035,Go No-Go Task,2021.1.4,120.06329706946882,
,"Rule: When you see a yellow image, do not press 'spacebar'.",Images/Fearful/BM02_FC.jpg,Fear,Yellow,Images/Yellow.jpg,None,ParentConditions/YellowYellowBlue_v1.xlsx,YellowYellowBlue,Conditions/Version_1/YellowFearStop.xlsx,yes,PASS,0.7033474445186839,,,,,,,,,0,0,0,1,0,0,0,0,0,65,65,65,,,,,,,,,,,,,,,,,,,,,,,,,,,,,,,,,,,,,,,,,,,,,,,,,,,,,,,,,,,,,,,,,,,,,,,,,,,,,,,1.45,503.2797435000539,None,None,1,,504.8302564001642,None,504.8302564001642,None,504.8302564001642,None,,,,,,,,,,,P022,fencog,1,Pre,2022_Jan_19_1035,Go No-Go Task,2021.1.4,120.06329706946882,
,"Rule: When you see a yellow image, do not press 'spacebar'.",Images/Happy/AM04_HE.jpg,Happy,Blue,Images/Blue.jpg,space,ParentConditions/YellowYellowBlue_v1.xlsx,YellowYellowBlue,Conditions/Version_1/YellowFearStop.xlsx,no,PASS,0.1954454647057855,,,,,,,,,0,0,0,1,0,0,0,0,0,66,66,66,,,,,,,,,,,,,,,,,,,,,,,,,,,,,,,,,,,,,,,,,,,,,,,,,,,,,,,,,,,,,,,,,,,,,,,,,,,,,,,1.28,505.23054340016097,None,space,1,0.2454481003805995,506.61320840008557,None,506.61320840008557,None,506.61320840008557,None,,,,,,,,,,,P022,fencog,1,Pre,2022_Jan_19_1035,Go No-Go Task,2021.1.4,120.06329706946882,
,"Rule: When you see a yellow image, do not press 'spacebar'.",Images/Fearful/AM05AFS.jpg,Fear,Yellow,Images/Yellow.jpg,None,ParentConditions/YellowYellowBlue_v1.xlsx,YellowYellowBlue,Conditions/Version_1/YellowFearStop.xlsx,yes,PASS,0.6459336406761428,,,,,,,,,0,0,0,1,0,0,0,0,0,67,67,67,,,,,,,,,,,,,,,,,,,,,,,,,,,,,,,,,,,,,,,,,,,,,,,,,,,,,,,,,,,,,,,,,,,,,,,,,,,,,,,1.33,507.01211469992995,None,None,1,,508.44590440019965,None,508.44590440019965,None,508.44590440019965,None,,,,,,,,,,,P022,fencog,1,Pre,2022_Jan_19_1035,Go No-Go Task,2021.1.4,120.06329706946882,
,"Rule: When you see a yellow image, do not press 'spacebar'.",Images/Happy/AF28HAS.jpg,Happy,Blue,Images/Blue.jpg,space,ParentConditions/YellowYellowBlue_v1.xlsx,YellowYellowBlue,Conditions/Version_1/YellowFearStop.xlsx,no,PASS,0.16840775809852682,,,,,,,,,0,0,0,1,0,0,0,0,0,68,68,68,,,,,,,,,,,,,,,,,,,,,,,,,,,,,,,,,,,,,,,,,,,,,,,,,,,,,,,,,,,,,,,,,,,,,,,,,,,,,,,1.4,508.8451570002362,None,space,1,0.26322649978101254,510.35367979994044,None,510.35367979994044,None,510.35367979994044,None,,,,,,,,,,,P022,fencog,1,Pre,2022_Jan_19_1035,Go No-Go Task,2021.1.4,120.06329706946882,
,"Rule: When you see a yellow image, do not press 'spacebar'.",Images/Happy/AF07_HO.jpg,Happy,Blue,Images/Blue.jpg,space,ParentConditions/YellowYellowBlue_v1.xlsx,YellowYellowBlue,Conditions/Version_1/YellowFearStop.xlsx,no,PASS,0.8921854253161821,,,,,,,,,0,0,0,1,0,0,0,0,0,69,69,69,,,,,,,,,,,,,,,,,,,,,,,,,,,,,,,,,,,,,,,,,,,,,,,,,,,,,,,,,,,,,,,,,,,,,,,,,,,,,,,1.52,510.75278089987114,None,space,1,0.2878562002442777,512.3781102001667,None,512.3781102001667,None,512.3781102001667,None,,,,,,,,,,,P022,fencog,1,Pre,2022_Jan_19_1035,Go No-Go Task,2021.1.4,120.06329706946882,
,"Rule: When you see a yellow image, do not press 'spacebar'.",Images/Happy/BF14_HO.jpg,Happy,Blue,Images/Blue.jpg,space,ParentConditions/YellowYellowBlue_v1.xlsx,YellowYellowBlue,Conditions/Version_1/YellowFearStop.xlsx,no,PASS,0.11340023271387378,,,,,,,,,0,0,0,1,0,0,0,0,0,70,70,70,,,,,,,,,,,,,,,,,,,,,,,,,,,,,,,,,,,,,,,,,,,,,,,,,,,,,,,,,,,,,,,,,,,,,,,,,,,,,,,1.2,512.7846250999719,None,space,1,0.27934829983860254,514.0857804999687,None,514.0857804999687,None,514.0857804999687,None,,,,,,,,,,,P022,fencog,1,Pre,2022_Jan_19_1035,Go No-Go Task,2021.1.4,120.06329706946882,
,"Rule: When you see a yellow image, do not press 'spacebar'.",Images/Fearful/AF07FS.jpg,Fear,Yellow,Images/Yellow.jpg,None,ParentConditions/YellowYellowBlue_v1.xlsx,YellowYellowBlue,Conditions/Version_1/YellowFearStop.xlsx,yes,PASS,0.01772114652951917,,,,,,,,,0,0,0,1,0,0,0,0,0,71,71,71,,,,,,,,,,,,,,,,,,,,,,,,,,,,,,,,,,,,,,,,,,,,,,,,,,,,,,,,,,,,,,,,,,,,,,,,,,,,,,,1.26,514.4861591998488,None,None,1,,515.8520897999406,None,515.8520897999406,None,515.8520897999406,None,,,,,,,,,,,P022,fencog,1,Pre,2022_Jan_19_1035,Go No-Go Task,2021.1.4,120.06329706946882,
,"Rule: When you see a yellow image, do not press 'spacebar'.",Images/Happy/AF32HAS.jpg,Happy,Blue,Images/Blue.jpg,space,ParentConditions/YellowYellowBlue_v1.xlsx,YellowYellowBlue,Conditions/Version_1/YellowFearStop.xlsx,no,PASS,0.351428612146247,,,,,,,,,0,0,0,1,0,0,0,0,0,72,72,72,,,,,,,,,,,,,,,,,,,,,,,,,,,,,,,,,,,,,,,,,,,,,,,,,,,,,,,,,,,,,,,,,,,,,,,,,,,,,,,1.82,516.2625029999763,None,space,1,0.23340070014819503,518.1848098002374,None,518.1848098002374,None,518.1848098002374,None,,,,,,,,,,,P022,fencog,1,Pre,2022_Jan_19_1035,Go No-Go Task,2021.1.4,120.06329706946882,
,"Rule: When you see a yellow image, do not press 'spacebar'.",Images/Happy/AF11HAS.jpg,Happy,Blue,Images/Blue.jpg,space,ParentConditions/YellowYellowBlue_v1.xlsx,YellowYellowBlue,Conditions/Version_1/YellowFearStop.xlsx,no,PASS,0.5437174345826498,,,,,,,,,0,0,0,1,0,0,0,0,0,73,73,73,,,,,,,,,,,,,,,,,,,,,,,,,,,,,,,,,,,,,,,,,,,,,,,,,,,,,,,,,,,,,,,,,,,,,,,,,,,,,,,1.89,518.5848979000002,None,space,1,0.24683950003236532,520.5923644001596,None,520.5923644001596,None,520.5923644001596,None,,,,,,,,,,,P022,fencog,1,Pre,2022_Jan_19_1035,Go No-Go Task,2021.1.4,120.06329706946882,
,"Rule: When you see a yellow image, do not press 'spacebar'.",Images/Happy/AM19HAS.jpg,Happy,Blue,Images/Blue.jpg,space,ParentConditions/YellowYellowBlue_v1.xlsx,YellowYellowBlue,Conditions/Version_1/YellowFearStop.xlsx,no,PASS,0.4048546584074827,,,,,,,,,0,0,0,1,0,0,0,0,0,74,74,74,,,,,,,,,,,,,,,,,,,,,,,,,,,,,,,,,,,,,,,,,,,,,,,,,,,,,,,,,,,,,,,,,,,,,,,,,,,,,,,1.87,520.9829878997989,None,space,1,0.2653500000014901,522.9581527998671,None,522.9581527998671,None,522.9581527998671,None,,,,,,,,,,,P022,fencog,1,Pre,2022_Jan_19_1035,Go No-Go Task,2021.1.4,120.06329706946882,
,"Rule: When you see a yellow image, do not press 'spacebar'.",Images/Happy/AM01HAS.jpg,Happy,Blue,Images/Blue.jpg,space,ParentConditions/YellowYellowBlue_v1.xlsx,YellowYellowBlue,Conditions/Version_1/YellowFearStop.xlsx,no,PASS,0.668098744931977,,,,,,,,,0,0,0,1,0,0,0,0,0,75,75,75,,,,,,,,,,,,,,,,,,,,,,,,,,,,,,,,,,,,,,,,,,,,,,,,,,,,,,,,,,,,,,,,,,,,,,,,,,,,,,,1.29,523.3579040002078,None,space,1,0.2538195000961423,524.7656934000552,None,524.7656934000552,None,524.7656934000552,None,,,,,,,,,,,P022,fencog,1,Pre,2022_Jan_19_1035,Go No-Go Task,2021.1.4,120.06329706946882,
,"Rule: When you see a yellow image, do not press 'spacebar'.",Images/Happy/WF05_HC.jpg,Happy,Blue,Images/Blue.jpg,space,ParentConditions/YellowYellowBlue_v1.xlsx,YellowYellowBlue,Conditions/Version_1/YellowFearStop.xlsx,no,PASS,0.3346503168901146,,,,,,,,,0,0,0,1,0,0,0,0,0,76,76,76,,,,,,,,,,,,,,,,,,,,,,,,,,,,,,,,,,,,,,,,,,,,,,,,,,,,,,,,,,,,,,,,,,,,,,,,,,,,,,,1.41,525.1580443000421,None,space,1,0.22736090002581477,526.6738228998147,None,526.6738228998147,None,526.6738228998147,None,,,,,,,,,,,P022,fencog,1,Pre,2022_Jan_19_1035,Go No-Go Task,2021.1.4,120.06329706946882,
,"Rule: When you see a yellow image, do not press 'spacebar'.",Images/Happy/BM03_HO.jpg,Happy,Blue,Images/Blue.jpg,space,ParentConditions/YellowYellowBlue_v1.xlsx,YellowYellowBlue,Conditions/Version_1/YellowFearStop.xlsx,no,PASS,0.8309182769230548,,,,,,,,,0,0,0,1,0,0,0,0,0,77,77,77,,,,,,,,,,,,,,,,,,,,,,,,,,,,,,,,,,,,,,,,,,,,,,,,,,,,,,,,,,,,,,,,,,,,,,,,,,,,,,,1.76,527.079485999886,None,space,1,0.2344026998616755,528.9398265001364,None,528.9398265001364,None,528.9398265001364,None,,,,,,,,,,,P022,fencog,1,Pre,2022_Jan_19_1035,Go No-Go Task,2021.1.4,120.06329706946882,
,"Rule: When you see a yellow image, do not press 'spacebar'.",Images/Happy/AM02_HE.jpg,Happy,Blue,Images/Blue.jpg,space,ParentConditions/YellowYellowBlue_v1.xlsx,YellowYellowBlue,Conditions/Version_1/YellowFearStop.xlsx,no,PASS,0.732833616031058,,,,,,,,,0,0,0,1,0,0,0,0,0,78,78,78,,,,,,,,,,,,,,,,,,,,,,,,,,,,,,,,,,,,,,,,,,,,,,,,,,,,,,,,,,,,,,,,,,,,,,,,,,,,,,,1.44,529.3396633001976,None,space,1,0.23897970002144575,530.8810242000036,None,530.8810242000036,None,530.8810242000036,None,,,,,,,,,,,P022,fencog,1,Pre,2022_Jan_19_1035,Go No-Go Task,2021.1.4,120.06329706946882,
,"Rule: When you see a yellow image, do not press 'spacebar'.",Images/Fearful/AM06_FO.jpg,Fear,Yellow,Images/Yellow.jpg,None,ParentConditions/YellowYellowBlue_v1.xlsx,YellowYellowBlue,Conditions/Version_1/YellowFearStop.xlsx,yes,PASS,0.2239834878173258,,,,,,,,,0,0,0,1,0,0,0,0,0,79,79,79,,,,,,,,,,,,,,,,,,,,,,,,,,,,,,,,,,,,,,,,,,,,,,,,,,,,,,,,,,,,,,,,,,,,,,,,,,,,,,,1.91,531.2859614999034,None,None,1,,533.296794900205,None,533.296794900205,None,533.296794900205,None,,,,,,,,,,,P022,fencog,1,Pre,2022_Jan_19_1035,Go No-Go Task,2021.1.4,120.06329706946882,
,"Rule: When you see a yellow image, do not press 'spacebar'.",Images/Scram2/HM09_NC.jpg,Scramble,Blue,Images/Blue.jpg,space,ParentConditions/YellowYellowBlue_v1.xlsx,YellowYellowBlue,Conditions/Version_1/YellowScramStop.xlsx,no,PASS,0.16546209529303746,,,,,,,,,0,0,0,1,0,1,1,1,0,0,0,0,,,,,,,,,,,,,,,,,,,,,,,,,,,,,,,,,,,,,,,,,,,,,,,,,,,,,,,,,,,,,,,,,563.6653439998627,None,566.6531763002276,None,space,7.556398299988359,566.6531763002276,None,563.6653439998627,None,563.6653439998627,None,563.6653439998627,None,1.58,574.2692617001012,None,space,1,0.3719167001545429,575.9509386001155,None,575.9509386001155,None,575.9509386001155,None,533.7099105999805,None,space,29.43934050016105,534.204380699899,None,533.7099105999805,None,533.7099105999805,None,P022,fencog,1,Pre,2022_Jan_19_1035,Go No-Go Task,2021.1.4,120.06329706946882,
,"Rule: When you see a yellow image, do not press 'spacebar'.",Images/Scram2/HM06_NC.jpg,Scramble,Blue,Images/Blue.jpg,space,ParentConditions/YellowYellowBlue_v1.xlsx,YellowYellowBlue,Conditions/Version_1/YellowScramStop.xlsx,no,PASS,0.8979675286244925,,,,,,,,,0,0,0,1,0,1,1,1,0,1,1,1,,,,,,,,,,,,,,,,,,,,,,,,,,,,,,,,,,,,,,,,,,,,,,,,,,,,,,,,,,,,,,,,,,,,,,,,,,,,,,,1.48,576.352846399881,None,space,1,0.19617929961532354,577.9337267000228,None,577.9337267000228,None,577.9337267000228,None,,,,,,,,,,,P022,fencog,1,Pre,2022_Jan_19_1035,Go No-Go Task,2021.1.4,120.06329706946882,
,"Rule: When you see a yellow image, do not press 'spacebar'.",Images/Scram1/AM31NES.jpg,Scramble,Blue,Images/Blue.jpg,space,ParentConditions/YellowYellowBlue_v1.xlsx,YellowYellowBlue,Conditions/Version_1/YellowScramStop.xlsx,no,PASS,0.9231879679928262,,,,,,,,,0,0,0,1,0,1,1,1,0,2,2,2,,,,,,,,,,,,,,,,,,,,,,,,,,,,,,,,,,,,,,,,,,,,,,,,,,,,,,,,,,,,,,,,,,,,,,,,,,,,,,,1.2,578.3349708002061,None,space,1,0.2525949999690056,579.6415562001057,None,579.6415562001057,None,579.6415562001057,None,,,,,,,,,,,P022,fencog,1,Pre,2022_Jan_19_1035,Go No-Go Task,2021.1.4,120.06329706946882,
,"Rule: When you see a yellow image, do not press 'spacebar'.",Images/Scram2/AM03NES.jpg,Scramble,Yellow,Images/Yellow.jpg,None,ParentConditions/YellowYellowBlue_v1.xlsx,YellowYellowBlue,Conditions/Version_1/YellowScramStop.xlsx,yes,PASS,0.5123844621609239,,,,,,,,,0,0,0,1,0,1,1,1,0,3,3,3,,,,,,,,,,,,,,,,,,,,,,,,,,,,,,,,,,,,,,,,,,,,,,,,,,,,,,,,,,,,,,,,,,,,,,,,,,,,,,,1.72,580.0482609998435,None,None,1,,581.8826005998999,None,581.8826005998999,None,581.8826005998999,None,,,,,,,,,,,P022,fencog,1,Pre,2022_Jan_19_1035,Go No-Go Task,2021.1.4,120.06329706946882,
,"Rule: When you see a yellow image, do not press 'spacebar'.",Images/Scram2/BM01_NC.jpg,Scramble,Blue,Images/Blue.jpg,space,ParentConditions/YellowYellowBlue_v1.xlsx,YellowYellowBlue,Conditions/Version_1/YellowScramStop.xlsx,no,PASS,0.9647622626448304,,,,,,,,,0,0,0,1,0,1,1,1,0,4,4,4,,,,,,,,,,,,,,,,,,,,,,,,,,,,,,,,,,,,,,,,,,,,,,,,,,,,,,,,,,,,,,,,,,,,,,,,,,,,,,,1.93,582.2815805999562,None,space,1,0.2375135002657771,584.3235196000896,None,584.3235196000896,None,584.3235196000896,None,,,,,,,,,,,P022,fencog,1,Pre,2022_Jan_19_1035,Go No-Go Task,2021.1.4,120.06329706946882,
,"Rule: When you see a yellow image, do not press 'spacebar'.",Images/Scram1/HM09_NC.jpg,Scramble,Blue,Images/Blue.jpg,space,ParentConditions/YellowYellowBlue_v1.xlsx,YellowYellowBlue,Conditions/Version_1/YellowScramStop.xlsx,no,PASS,0.0006879251870249847,,,,,,,,,0,0,0,1,0,1,1,1,0,5,5,5,,,,,,,,,,,,,,,,,,,,,,,,,,,,,,,,,,,,,,,,,,,,,,,,,,,,,,,,,,,,,,,,,,,,,,,,,,,,,,,1.62,584.722498900257,None,space,1,0.25923279998824,586.447839200031,None,586.447839200031,None,586.447839200031,None,,,,,,,,,,,P022,fencog,1,Pre,2022_Jan_19_1035,Go No-Go Task,2021.1.4,120.06329706946882,
,"Rule: When you see a yellow image, do not press 'spacebar'.",Images/Scram2/BF07_NC.jpg,Scramble,Blue,Images/Blue.jpg,space,ParentConditions/YellowYellowBlue_v1.xlsx,YellowYellowBlue,Conditions/Version_1/YellowScramStop.xlsx,no,PASS,0.9958823679259557,,,,,,,,,0,0,0,1,0,1,1,1,0,6,6,6,,,,,,,,,,,,,,,,,,,,,,,,,,,,,,,,,,,,,,,,,,,,,,,,,,,,,,,,,,,,,,,,,,,,,,,,,,,,,,,1.42,586.8554266998544,None,space,1,0.22091929987072945,588.380688500125,None,588.380688500125,None,588.380688500125,None,,,,,,,,,,,P022,fencog,1,Pre,2022_Jan_19_1035,Go No-Go Task,2021.1.4,120.06329706946882,
,"Rule: When you see a yellow image, do not press 'spacebar'.",Images/Scram1/BF14_NC.jpg,Scramble,Blue,Images/Blue.jpg,space,ParentConditions/YellowYellowBlue_v1.xlsx,YellowYellowBlue,Conditions/Version_1/YellowScramStop.xlsx,no,PASS,0.23975965807979494,,,,,,,,,0,0,0,1,0,1,1,1,0,7,7,7,,,,,,,,,,,,,,,,,,,,,,,,,,,,,,,,,,,,,,,,,,,,,,,,,,,,,,,,,,,,,,,,,,,,,,,,,,,,,,,1.5,588.7804069002159,None,space,1,0.2530466001480818,590.3884776001796,None,590.3884776001796,None,590.3884776001796,None,,,,,,,,,,,P022,fencog,1,Pre,2022_Jan_19_1035,Go No-Go Task,2021.1.4,120.06329706946882,
,"Rule: When you see a yellow image, do not press 'spacebar'.",Images/Scram2/AF10_NC.jpg,Scramble,Blue,Images/Blue.jpg,space,ParentConditions/YellowYellowBlue_v1.xlsx,YellowYellowBlue,Conditions/Version_1/YellowScramStop.xlsx,no,PASS,0.23192838167496266,,,,,,,,,0,0,0,1,0,1,1,1,0,8,8,8,,,,,,,,,,,,,,,,,,,,,,,,,,,,,,,,,,,,,,,,,,,,,,,,,,,,,,,,,,,,,,,,,,,,,,,,,,,,,,,1.24,590.7873582001776,None,space,1,0.21756260003894567,592.1295364000835,None,592.1295364000835,None,592.1295364000835,None,,,,,,,,,,,P022,fencog,1,Pre,2022_Jan_19_1035,Go No-Go Task,2021.1.4,120.06329706946882,
,"Rule: When you see a yellow image, do not press 'spacebar'.",Images/Scram2/AF01_NC.jpg,Scramble,Blue,Images/Blue.jpg,space,ParentConditions/YellowYellowBlue_v1.xlsx,YellowYellowBlue,Conditions/Version_1/YellowScramStop.xlsx,no,PASS,0.030564678936407685,,,,,,,,,0,0,0,1,0,1,1,1,0,9,9,9,,,,,,,,,,,,,,,,,,,,,,,,,,,,,,,,,,,,,,,,,,,,,,,,,,,,,,,,,,,,,,,,,,,,,,,,,,,,,,,1.83,592.5285923001356,None,space,1,0.28870460018515587,594.4621283998713,None,594.4621283998713,None,594.4621283998713,None,,,,,,,,,,,P022,fencog,1,Pre,2022_Jan_19_1035,Go No-Go Task,2021.1.4,120.06329706946882,
,"Rule: When you see a yellow image, do not press 'spacebar'.",Images/Scram2/AF24NES.jpg,Scramble,Blue,Images/Blue.jpg,space,ParentConditions/YellowYellowBlue_v1.xlsx,YellowYellowBlue,Conditions/Version_1/YellowScramStop.xlsx,no,PASS,0.3257124610951796,,,,,,,,,0,0,0,1,0,1,1,1,0,10,10,10,,,,,,,,,,,,,,,,,,,,,,,,,,,,,,,,,,,,,,,,,,,,,,,,,,,,,,,,,,,,,,,,,,,,,,,,,,,,,,,1.68,594.8670041002333,None,space,1,0.21368909999728203,596.6531533999369,None,596.6531533999369,None,596.6531533999369,None,,,,,,,,,,,P022,fencog,1,Pre,2022_Jan_19_1035,Go No-Go Task,2021.1.4,120.06329706946882,
,"Rule: When you see a yellow image, do not press 'spacebar'.",Images/Scram2/BF14_NC.jpg,Scramble,Blue,Images/Blue.jpg,space,ParentConditions/YellowYellowBlue_v1.xlsx,YellowYellowBlue,Conditions/Version_1/YellowScramStop.xlsx,no,PASS,0.7452625323265352,,,,,,,,,0,0,0,1,0,1,1,1,0,11,11,11,,,,,,,,,,,,,,,,,,,,,,,,,,,,,,,,,,,,,,,,,,,,,,,,,,,,,,,,,,,,,,,,,,,,,,,,,,,,,,,1.27,597.0530019002035,None,space,1,0.22336179995909333,598.4273176998831,None,598.4273176998831,None,598.4273176998831,None,,,,,,,,,,,P022,fencog,1,Pre,2022_Jan_19_1035,Go No-Go Task,2021.1.4,120.06329706946882,
,"Rule: When you see a yellow image, do not press 'spacebar'.",Images/Scram1/AM13NES.jpg,Scramble,Blue,Images/Blue.jpg,space,ParentConditions/YellowYellowBlue_v1.xlsx,YellowYellowBlue,Conditions/Version_1/YellowScramStop.xlsx,no,PASS,0.49399354825257,,,,,,,,,0,0,0,1,0,1,1,1,0,12,12,12,,,,,,,,,,,,,,,,,,,,,,,,,,,,,,,,,,,,,,,,,,,,,,,,,,,,,,,,,,,,,,,,,,,,,,,,,,,,,,,1.36,598.8279336998239,None,space,1,0.2218838999979198,600.2939041000791,None,600.2939041000791,None,600.2939041000791,None,,,,,,,,,,,P022,fencog,1,Pre,2022_Jan_19_1035,Go No-Go Task,2021.1.4,120.06329706946882,
,"Rule: When you see a yellow image, do not press 'spacebar'.",Images/Scram1/HM04_NC.jpg,Scramble,Blue,Images/Blue.jpg,space,ParentConditions/YellowYellowBlue_v1.xlsx,YellowYellowBlue,Conditions/Version_1/YellowScramStop.xlsx,no,PASS,0.18467466618813977,,,,,,,,,0,0,0,1,0,1,1,1,0,13,13,13,,,,,,,,,,,,,,,,,,,,,,,,,,,,,,,,,,,,,,,,,,,,,,,,,,,,,,,,,,,,,,,,,,,,,,,,,,,,,,,1.26,600.6939869998023,None,space,1,0.2871979000046849,602.0599116999656,None,602.0599116999656,None,602.0599116999656,None,,,,,,,,,,,P022,fencog,1,Pre,2022_Jan_19_1035,Go No-Go Task,2021.1.4,120.06329706946882,
,"Rule: When you see a yellow image, do not press 'spacebar'.",Images/Scram1/AM03NES.jpg,Scramble,Blue,Images/Blue.jpg,space,ParentConditions/YellowYellowBlue_v1.xlsx,YellowYellowBlue,Conditions/Version_1/YellowScramStop.xlsx,no,PASS,0.036392655954534225,,,,,,,,,0,0,0,1,0,1,1,1,0,14,14,14,,,,,,,,,,,,,,,,,,,,,,,,,,,,,,,,,,,,,,,,,,,,,,,,,,,,,,,,,,,,,,,,,,,,,,,,,,,,,,,1.35,602.4590090001002,None,space,1,0.18899269960820675,603.9258759999648,None,603.9258759999648,None,603.9258759999648,None,,,,,,,,,,,P022,fencog,1,Pre,2022_Jan_19_1035,Go No-Go Task,2021.1.4,120.06329706946882,
,"Rule: When you see a yellow image, do not press 'spacebar'.",Images/Scram1/AM22NES.jpg,Scramble,Blue,Images/Blue.jpg,space,ParentConditions/YellowYellowBlue_v1.xlsx,YellowYellowBlue,Conditions/Version_1/YellowScramStop.xlsx,no,PASS,0.46426586463932284,,,,,,,,,0,0,0,1,0,1,1,1,0,15,15,15,,,,,,,,,,,,,,,,,,,,,,,,,,,,,,,,,,,,,,,,,,,,,,,,,,,,,,,,,,,,,,,,,,,,,,,,,,,,,,,1.99,604.3219249001704,None,space,1,0.3081419998779893,606.4169756001793,None,606.4169756001793,None,606.4169756001793,None,,,,,,,,,,,P022,fencog,1,Pre,2022_Jan_19_1035,Go No-Go Task,2021.1.4,120.06329706946882,
,"Rule: When you see a yellow image, do not press 'spacebar'.",Images/Scram2/AM17NES.jpg,Scramble,Yellow,Images/Yellow.jpg,None,ParentConditions/YellowYellowBlue_v1.xlsx,YellowYellowBlue,Conditions/Version_1/YellowScramStop.xlsx,yes,PASS,0.9679079792094736,,,,,,,,,0,0,0,1,0,1,1,1,0,16,16,16,,,,,,,,,,,,,,,,,,,,,,,,,,,,,,,,,,,,,,,,,,,,,,,,,,,,,,,,,,,,,,,,,,,,,,,,,,,,,,,1.85,606.8227396002039,None,None,1,,608.7746346001513,None,608.7746346001513,None,608.7746346001513,None,,,,,,,,,,,P022,fencog,1,Pre,2022_Jan_19_1035,Go No-Go Task,2021.1.4,120.06329706946882,
,"Rule: When you see a yellow image, do not press 'spacebar'.",Images/Scram1/AM10NES.jpg,Scramble,Blue,Images/Blue.jpg,space,ParentConditions/YellowYellowBlue_v1.xlsx,YellowYellowBlue,Conditions/Version_1/YellowScramStop.xlsx,no,PASS,0.60606204058038,,,,,,,,,0,0,0,1,0,1,1,1,0,17,17,17,,,,,,,,,,,,,,,,,,,,,,,,,,,,,,,,,,,,,,,,,,,,,,,,,,,,,,,,,,,,,,,,,,,,,,,,,,,,,,,1.47,609.1819628002122,None,space,1,0.20631169993430376,610.7573107001372,None,610.7573107001372,None,610.7573107001372,None,,,,,,,,,,,P022,fencog,1,Pre,2022_Jan_19_1035,Go No-Go Task,2021.1.4,120.06329706946882,
,"Rule: When you see a yellow image, do not press 'spacebar'.",Images/Scram2/AM03_NC.jpg,Scramble,Yellow,Images/Yellow.jpg,None,ParentConditions/YellowYellowBlue_v1.xlsx,YellowYellowBlue,Conditions/Version_1/YellowScramStop.xlsx,yes,PASS,0.375029210281841,,,,,,,,,0,0,0,1,0,1,1,1,0,18,18,18,,,,,,,,,,,,,,,,,,,,,,,,,,,,,,,,,,,,,,,,,,,,,,,,,,,,,,,,,,,,,,,,,,,,,,,,,,,,,,,1.91,611.1658848002553,None,None,1,,613.1817054999992,None,613.1817054999992,None,613.1817054999992,None,,,,,,,,,,,P022,fencog,1,Pre,2022_Jan_19_1035,Go No-Go Task,2021.1.4,120.06329706946882,
,"Rule: When you see a yellow image, do not press 'spacebar'.",Images/Scram1/HF09_NC.jpg,Scramble,Blue,Images/Blue.jpg,space,ParentConditions/YellowYellowBlue_v1.xlsx,YellowYellowBlue,Conditions/Version_1/YellowScramStop.xlsx,no,PASS,0.5505947352432977,,,,,,,,,0,0,0,1,0,1,1,1,0,19,19,19,,,,,,,,,,,,,,,,,,,,,,,,,,,,,,,,,,,,,,,,,,,,,,,,,,,,,,,,,,,,,,,,,,,,,,,,,,,,,,,1.63,613.5805684998631,None,space,1,0.2187652001157403,615.3143898998387,None,615.3143898998387,None,615.3143898998387,None,,,,,,,,,,,P022,fencog,1,Pre,2022_Jan_19_1035,Go No-Go Task,2021.1.4,120.06329706946882,
,"Rule: When you see a yellow image, do not press 'spacebar'.",Images/Scram1/BM08_NC.jpg,Scramble,Blue,Images/Blue.jpg,space,ParentConditions/YellowYellowBlue_v1.xlsx,YellowYellowBlue,Conditions/Version_1/YellowScramStop.xlsx,no,PASS,0.1123919377407171,,,,,,,,,0,0,0,1,0,1,1,1,0,20,20,20,,,,,,,,,,,,,,,,,,,,,,,,,,,,,,,,,,,,,,,,,,,,,,,,,,,,,,,,,,,,,,,,,,,,,,,,,,,,,,,1.8,615.714560800232,None,space,1,0.18967709969729185,617.621911900118,None,617.621911900118,None,617.621911900118,None,,,,,,,,,,,P022,fencog,1,Pre,2022_Jan_19_1035,Go No-Go Task,2021.1.4,120.06329706946882,
,"Rule: When you see a yellow image, do not press 'spacebar'.",Images/Scram1/AF32NES.jpg,Scramble,Blue,Images/Blue.jpg,space,ParentConditions/YellowYellowBlue_v1.xlsx,YellowYellowBlue,Conditions/Version_1/YellowScramStop.xlsx,no,PASS,0.6647641829322217,,,,,,,,,0,0,0,1,0,1,1,1,0,21,21,21,,,,,,,,,,,,,,,,,,,,,,,,,,,,,,,,,,,,,,,,,,,,,,,,,,,,,,,,,,,,,,,,,,,,,,,,,,,,,,,1.39,618.02737110015,None,space,1,0.2374633001163602,619.5215108999982,None,619.5215108999982,None,619.5215108999982,None,,,,,,,,,,,P022,fencog,1,Pre,2022_Jan_19_1035,Go No-Go Task,2021.1.4,120.06329706946882,
,"Rule: When you see a yellow image, do not press 'spacebar'.",Images/Scram2/AM06_NC.jpg,Scramble,Yellow,Images/Yellow.jpg,None,ParentConditions/YellowYellowBlue_v1.xlsx,YellowYellowBlue,Conditions/Version_1/YellowScramStop.xlsx,yes,PASS,0.3634874867374246,,,,,,,,,0,0,0,1,0,1,1,1,0,22,22,22,,,,,,,,,,,,,,,,,,,,,,,,,,,,,,,,,,,,,,,,,,,,,,,,,,,,,,,,,,,,,,,,,,,,,,,,,,,,,,,1.73,619.9279541000724,None,space,0,0.21509100031107664,621.7623422998004,None,621.7623422998004,None,621.7623422998004,None,,,,,,,,,,,P022,fencog,1,Pre,2022_Jan_19_1035,Go No-Go Task,2021.1.4,120.06329706946882,
,"Rule: When you see a yellow image, do not press 'spacebar'.",Images/Scram1/AM06_NC.jpg,Scramble,Blue,Images/Blue.jpg,space,ParentConditions/YellowYellowBlue_v1.xlsx,YellowYellowBlue,Conditions/Version_1/YellowScramStop.xlsx,no,PASS,0.9155941996303448,,,,,,,,,0,0,0,1,0,1,1,1,0,23,23,23,,,,,,,,,,,,,,,,,,,,,,,,,,,,,,,,,,,,,,,,,,,,,,,,,,,,,,,,,,,,,,,,,,,,,,,,,,,,,,,1.25,622.1666884999722,None,space,1,0.3784101000055671,623.5202044998296,None,623.5202044998296,None,623.5202044998296,None,,,,,,,,,,,P022,fencog,1,Pre,2022_Jan_19_1035,Go No-Go Task,2021.1.4,120.06329706946882,
,"Rule: When you see a yellow image, do not press 'spacebar'.",Images/Scram2/AM02_NC.jpg,Scramble,Yellow,Images/Yellow.jpg,None,ParentConditions/YellowYellowBlue_v1.xlsx,YellowYellowBlue,Conditions/Version_1/YellowScramStop.xlsx,yes,PASS,0.40349662212467063,,,,,,,,,0,0,0,1,0,1,1,1,0,24,24,24,,,,,,,,,,,,,,,,,,,,,,,,,,,,,,,,,,,,,,,,,,,,,,,,,,,,,,,,,,,,,,,,,,,,,,,,,,,,,,,1.21,623.9188871001825,None,None,1,,625.2360175000504,None,625.2360175000504,None,625.2360175000504,None,,,,,,,,,,,P022,fencog,1,Pre,2022_Jan_19_1035,Go No-Go Task,2021.1.4,120.06329706946882,
,"Rule: When you see a yellow image, do not press 'spacebar'.",Images/Scram2/HF05_NC.jpg,Scramble,Blue,Images/Blue.jpg,space,ParentConditions/YellowYellowBlue_v1.xlsx,YellowYellowBlue,Conditions/Version_1/YellowScramStop.xlsx,no,PASS,0.921711635827277,,,,,,,,,0,0,0,1,0,1,1,1,0,25,25,25,,,,,,,,,,,,,,,,,,,,,,,,,,,,,,,,,,,,,,,,,,,,,,,,,,,,,,,,,,,,,,,,,,,,,,,,,,,,,,,1.64,625.6381486002356,None,space,1,0.1796453003771603,627.3941717999987,None,627.3941717999987,None,627.3941717999987,None,,,,,,,,,,,P022,fencog,1,Pre,2022_Jan_19_1035,Go No-Go Task,2021.1.4,120.06329706946882,
,"Rule: When you see a yellow image, do not press 'spacebar'.",Images/Scram2/AF32NES.jpg,Scramble,Yellow,Images/Yellow.jpg,None,ParentConditions/YellowYellowBlue_v1.xlsx,YellowYellowBlue,Conditions/Version_1/YellowScramStop.xlsx,yes,PASS,0.017466824187156504,,,,,,,,,0,0,0,1,0,1,1,1,0,26,26,26,,,,,,,,,,,,,,,,,,,,,,,,,,,,,,,,,,,,,,,,,,,,,,,,,,,,,,,,,,,,,,,,,,,,,,,,,,,,,,,1.56,627.7930442001671,None,None,1,,629.4601622000337,None,629.4601622000337,None,629.4601622000337,None,,,,,,,,,,,P022,fencog,1,Pre,2022_Jan_19_1035,Go No-Go Task,2021.1.4,120.06329706946882,
,"Rule: When you see a yellow image, do not press 'spacebar'.",Images/Scram2/HM04_NC.jpg,Scramble,Blue,Images/Blue.jpg,space,ParentConditions/YellowYellowBlue_v1.xlsx,YellowYellowBlue,Conditions/Version_1/YellowScramStop.xlsx,no,PASS,0.5736341227927889,,,,,,,,,0,0,0,1,0,1,1,1,0,27,27,27,,,,,,,,,,,,,,,,,,,,,,,,,,,,,,,,,,,,,,,,,,,,,,,,,,,,,,,,,,,,,,,,,,,,,,,,,,,,,,,1.37,629.8592089000158,None,space,1,0.20851629972457886,631.3345114998519,None,631.3345114998519,None,631.3345114998519,None,,,,,,,,,,,P022,fencog,1,Pre,2022_Jan_19_1035,Go No-Go Task,2021.1.4,120.06329706946882,
,"Rule: When you see a yellow image, do not press 'spacebar'.",Images/Scram2/AF25NES.jpg,Scramble,Blue,Images/Blue.jpg,space,ParentConditions/YellowYellowBlue_v1.xlsx,YellowYellowBlue,Conditions/Version_1/YellowScramStop.xlsx,no,PASS,0.4815009065668029,,,,,,,,,0,0,0,1,0,1,1,1,0,28,28,28,,,,,,,,,,,,,,,,,,,,,,,,,,,,,,,,,,,,,,,,,,,,,,,,,,,,,,,,,,,,,,,,,,,,,,,,,,,,,,,1.3,631.7341191000305,None,space,1,0.2601679996587336,633.1339071001858,None,633.1339071001858,None,633.1339071001858,None,,,,,,,,,,,P022,fencog,1,Pre,2022_Jan_19_1035,Go No-Go Task,2021.1.4,120.06329706946882,
,"Rule: When you see a yellow image, do not press 'spacebar'.",Images/Scram1/AF34NES.jpg,Scramble,Blue,Images/Blue.jpg,space,ParentConditions/YellowYellowBlue_v1.xlsx,YellowYellowBlue,Conditions/Version_1/YellowScramStop.xlsx,no,PASS,0.16322109337010782,,,,,,,,,0,0,0,1,0,1,1,1,0,29,29,29,,,,,,,,,,,,,,,,,,,,,,,,,,,,,,,,,,,,,,,,,,,,,,,,,,,,,,,,,,,,,,,,,,,,,,,,,,,,,,,1.6,633.5332642002031,None,space,1,0.2212563999928534,635.2332529998384,None,635.2332529998384,None,635.2332529998384,None,,,,,,,,,,,P022,fencog,1,Pre,2022_Jan_19_1035,Go No-Go Task,2021.1.4,120.06329706946882,
,"Rule: When you see a yellow image, do not press 'spacebar'.",Images/Scram2/AF11NES.jpg,Scramble,Blue,Images/Blue.jpg,space,ParentConditions/YellowYellowBlue_v1.xlsx,YellowYellowBlue,Conditions/Version_1/YellowScramStop.xlsx,no,PASS,0.863906943339551,,,,,,,,,0,0,0,1,0,1,1,1,0,30,30,30,,,,,,,,,,,,,,,,,,,,,,,,,,,,,,,,,,,,,,,,,,,,,,,,,,,,,,,,,,,,,,,,,,,,,,,,,,,,,,,1.95,635.632226599846,None,space,1,0.2911126003600657,637.682317700237,None,637.682317700237,None,637.682317700237,None,,,,,,,,,,,P022,fencog,1,Pre,2022_Jan_19_1035,Go No-Go Task,2021.1.4,120.06329706946882,
,"Rule: When you see a yellow image, do not press 'spacebar'.",Images/Scram2/AF34NES.jpg,Scramble,Yellow,Images/Yellow.jpg,None,ParentConditions/YellowYellowBlue_v1.xlsx,YellowYellowBlue,Conditions/Version_1/YellowScramStop.xlsx,yes,PASS,0.06159009202316168,,,,,,,,,0,0,0,1,0,1,1,1,0,31,31,31,,,,,,,,,,,,,,,,,,,,,,,,,,,,,,,,,,,,,,,,,,,,,,,,,,,,,,,,,,,,,,,,,,,,,,,,,,,,,,,1.54,638.0813355999999,None,None,1,,639.7150842999108,None,639.7150842999108,None,639.7150842999108,None,,,,,,,,,,,P022,fencog,1,Pre,2022_Jan_19_1035,Go No-Go Task,2021.1.4,120.06329706946882,
,"Rule: When you see a yellow image, do not press 'spacebar'.",Images/Scram1/AM02_NC.jpg,Scramble,Blue,Images/Blue.jpg,space,ParentConditions/YellowYellowBlue_v1.xlsx,YellowYellowBlue,Conditions/Version_1/YellowScramStop.xlsx,no,PASS,0.7758508003758968,,,,,,,,,0,0,0,1,0,1,1,1,0,32,32,32,,,,,,,,,,,,,,,,,,,,,,,,,,,,,,,,,,,,,,,,,,,,,,,,,,,,,,,,,,,,,,,,,,,,,,,,,,,,,,,1.32,640.11425470002,None,space,1,0.2260774001479149,641.5395035999827,None,641.5395035999827,None,641.5395035999827,None,,,,,,,,,,,P022,fencog,1,Pre,2022_Jan_19_1035,Go No-Go Task,2021.1.4,120.06329706946882,
,"Rule: When you see a yellow image, do not press 'spacebar'.",Images/Scram2/AM13NES.jpg,Scramble,Yellow,Images/Yellow.jpg,None,ParentConditions/YellowYellowBlue_v1.xlsx,YellowYellowBlue,Conditions/Version_1/YellowScramStop.xlsx,yes,PASS,0.6726515097084437,,,,,,,,,0,0,0,1,0,1,1,1,0,33,33,33,,,,,,,,,,,,,,,,,,,,,,,,,,,,,,,,,,,,,,,,,,,,,,,,,,,,,,,,,,,,,,,,,,,,,,,,,,,,,,,1.82,641.9386411998421,None,space,0,0.2423673002049327,643.8637954001315,None,643.8637954001315,None,643.8637954001315,None,,,,,,,,,,,P022,fencog,1,Pre,2022_Jan_19_1035,Go No-Go Task,2021.1.4,120.06329706946882,
,"Rule: When you see a yellow image, do not press 'spacebar'.",Images/Scram1/AM03_NC.jpg,Scramble,Blue,Images/Blue.jpg,space,ParentConditions/YellowYellowBlue_v1.xlsx,YellowYellowBlue,Conditions/Version_1/YellowScramStop.xlsx,no,PASS,0.060310837369876635,,,,,,,,,0,0,0,1,0,1,1,1,0,34,34,34,,,,,,,,,,,,,,,,,,,,,,,,,,,,,,,,,,,,,,,,,,,,,,,,,,,,,,,,,,,,,,,,,,,,,,,,,,,,,,,1.75,644.2640539002605,None,space,1,0.2498397002927959,646.1215198999271,None,646.1215198999271,None,646.1215198999271,None,,,,,,,,,,,P022,fencog,1,Pre,2022_Jan_19_1035,Go No-Go Task,2021.1.4,120.06329706946882,
,"Rule: When you see a yellow image, do not press 'spacebar'.",Images/Scram1/AF33NES.jpg,Scramble,Blue,Images/Blue.jpg,space,ParentConditions/YellowYellowBlue_v1.xlsx,YellowYellowBlue,Conditions/Version_1/YellowScramStop.xlsx,no,PASS,0.9883395332949252,,,,,,,,,0,0,0,1,0,1,1,1,0,35,35,35,,,,,,,,,,,,,,,,,,,,,,,,,,,,,,,,,,,,,,,,,,,,,,,,,,,,,,,,,,,,,,,,,,,,,,,,,,,,,,,1.84,646.5205981000327,None,space,1,0.23402119986712933,648.4711291999556,None,648.4711291999556,None,648.4711291999556,None,,,,,,,,,,,P022,fencog,1,Pre,2022_Jan_19_1035,Go No-Go Task,2021.1.4,120.06329706946882,
,"Rule: When you see a yellow image, do not press 'spacebar'.",Images/Scram1/BF10_NC.jpg,Scramble,Blue,Images/Blue.jpg,space,ParentConditions/YellowYellowBlue_v1.xlsx,YellowYellowBlue,Conditions/Version_1/YellowScramStop.xlsx,no,PASS,0.832283926857634,,,,,,,,,0,0,0,1,0,1,1,1,0,36,36,36,,,,,,,,,,,,,,,,,,,,,,,,,,,,,,,,,,,,,,,,,,,,,,,,,,,,,,,,,,,,,,,,,,,,,,,,,,,,,,,1.79,648.8701931000687,None,space,1,0.23867480037733912,650.7703761998564,None,650.7703761998564,None,650.7703761998564,None,,,,,,,,,,,P022,fencog,1,Pre,2022_Jan_19_1035,Go No-Go Task,2021.1.4,120.06329706946882,
,"Rule: When you see a yellow image, do not press 'spacebar'.",Images/Scram1/AF07_NC.jpg,Scramble,Blue,Images/Blue.jpg,space,ParentConditions/YellowYellowBlue_v1.xlsx,YellowYellowBlue,Conditions/Version_1/YellowScramStop.xlsx,no,PASS,0.9763895949527831,,,,,,,,,0,0,0,1,0,1,1,1,0,37,37,37,,,,,,,,,,,,,,,,,,,,,,,,,,,,,,,,,,,,,,,,,,,,,,,,,,,,,,,,,,,,,,,,,,,,,,,,,,,,,,,1.65,651.1626077000983,None,space,1,0.22879380034282804,652.9362400998361,None,652.9362400998361,None,652.9362400998361,None,,,,,,,,,,,P022,fencog,1,Pre,2022_Jan_19_1035,Go No-Go Task,2021.1.4,120.06329706946882,
,"Rule: When you see a yellow image, do not press 'spacebar'.",Images/Scram2/AM23NES.jpg,Scramble,Yellow,Images/Yellow.jpg,None,ParentConditions/YellowYellowBlue_v1.xlsx,YellowYellowBlue,Conditions/Version_1/YellowScramStop.xlsx,yes,PASS,0.6002481140469051,,,,,,,,,0,0,0,1,0,1,1,1,0,38,38,38,,,,,,,,,,,,,,,,,,,,,,,,,,,,,,,,,,,,,,,,,,,,,,,,,,,,,,,,,,,,,,,,,,,,,,,,,,,,,,,1.23,653.3272420000285,None,None,1,,654.6610989002511,None,654.6610989002511,None,654.6610989002511,None,,,,,,,,,,,P022,fencog,1,Pre,2022_Jan_19_1035,Go No-Go Task,2021.1.4,120.06329706946882,
,"Rule: When you see a yellow image, do not press 'spacebar'.",Images/Scram1/AF24NES.jpg,Scramble,Blue,Images/Blue.jpg,space,ParentConditions/YellowYellowBlue_v1.xlsx,YellowYellowBlue,Conditions/Version_1/YellowScramStop.xlsx,no,PASS,0.1129494583795736,,,,,,,,,0,0,0,1,0,1,1,1,0,39,39,39,,,,,,,,,,,,,,,,,,,,,,,,,,,,,,,,,,,,,,,,,,,,,,,,,,,,,,,,,,,,,,,,,,,,,,,,,,,,,,,1.74,655.0601789001375,None,space,1,0.24466720037162304,656.9020512001589,None,656.9020512001589,None,656.9020512001589,None,,,,,,,,,,,P022,fencog,1,Pre,2022_Jan_19_1035,Go No-Go Task,2021.1.4,120.06329706946882,
,"Rule: When you see a yellow image, do not press 'spacebar'.",Images/Scram2/AF33NES.jpg,Scramble,Yellow,Images/Yellow.jpg,None,ParentConditions/YellowYellowBlue_v1.xlsx,YellowYellowBlue,Conditions/Version_1/YellowScramStop.xlsx,yes,PASS,0.8037537420652296,,,,,,,,,0,0,0,1,0,1,1,1,0,40,40,40,,,,,,,,,,,,,,,,,,,,,,,,,,,,,,,,,,,,,,,,,,,,,,,,,,,,,,,,,,,,,,,,,,,,,,,,,,,,,,,1.41,657.3058918998577,None,None,1,,658.8182644001208,None,658.8182644001208,None,658.8182644001208,None,,,,,,,,,,,P022,fencog,1,Pre,2022_Jan_19_1035,Go No-Go Task,2021.1.4,120.06329706946882,
,"Rule: When you see a yellow image, do not press 'spacebar'.",Images/Scram1/AF25NES.jpg,Scramble,Blue,Images/Blue.jpg,space,ParentConditions/YellowYellowBlue_v1.xlsx,YellowYellowBlue,Conditions/Version_1/YellowScramStop.xlsx,no,PASS,0.14378736257712743,,,,,,,,,0,0,0,1,0,1,1,1,0,41,41,41,,,,,,,,,,,,,,,,,,,,,,,,,,,,,,,,,,,,,,,,,,,,,,,,,,,,,,,,,,,,,,,,,,,,,,,,,,,,,,,1.9,659.2182737002149,None,space,1,0.2268507000990212,661.2257856000215,None,661.2257856000215,None,661.2257856000215,None,,,,,,,,,,,P022,fencog,1,Pre,2022_Jan_19_1035,Go No-Go Task,2021.1.4,120.06329706946882,
,"Rule: When you see a yellow image, do not press 'spacebar'.",Images/Scram2/AM10NES.jpg,Scramble,Yellow,Images/Yellow.jpg,None,ParentConditions/YellowYellowBlue_v1.xlsx,YellowYellowBlue,Conditions/Version_1/YellowScramStop.xlsx,yes,PASS,0.5820319295028303,,,,,,,,,0,0,0,1,0,1,1,1,0,42,42,42,,,,,,,,,,,,,,,,,,,,,,,,,,,,,,,,,,,,,,,,,,,,,,,,,,,,,,,,,,,,,,,,,,,,,,,,,,,,,,,1.67,661.6311483001336,None,None,1,,663.4085372998379,None,663.4085372998379,None,663.4085372998379,None,,,,,,,,,,,P022,fencog,1,Pre,2022_Jan_19_1035,Go No-Go Task,2021.1.4,120.06329706946882,
,"Rule: When you see a yellow image, do not press 'spacebar'.",Images/Scram2/BF10_NC.jpg,Scramble,Blue,Images/Blue.jpg,space,ParentConditions/YellowYellowBlue_v1.xlsx,YellowYellowBlue,Conditions/Version_1/YellowScramStop.xlsx,no,PASS,0.2078164907866934,,,,,,,,,0,0,0,1,0,1,1,1,0,43,43,43,,,,,,,,,,,,,,,,,,,,,,,,,,,,,,,,,,,,,,,,,,,,,,,,,,,,,,,,,,,,,,,,,,,,,,,,,,,,,,,1.87,663.808533700183,None,space,1,0.2584703997708857,665.7910898001865,None,665.7910898001865,None,665.7910898001865,None,,,,,,,,,,,P022,fencog,1,Pre,2022_Jan_19_1035,Go No-Go Task,2021.1.4,120.06329706946882,
,"Rule: When you see a yellow image, do not press 'spacebar'.",Images/Scram1/BF18_NC.jpg,Scramble,Blue,Images/Blue.jpg,space,ParentConditions/YellowYellowBlue_v1.xlsx,YellowYellowBlue,Conditions/Version_1/YellowScramStop.xlsx,no,PASS,0.3689261099445472,,,,,,,,,0,0,0,1,0,1,1,1,0,44,44,44,,,,,,,,,,,,,,,,,,,,,,,,,,,,,,,,,,,,,,,,,,,,,,,,,,,,,,,,,,,,,,,,,,,,,,,,,,,,,,,1.34,666.1901564998552,None,space,1,0.2199160000309348,667.6321693002246,None,667.6321693002246,None,667.6321693002246,None,,,,,,,,,,,P022,fencog,1,Pre,2022_Jan_19_1035,Go No-Go Task,2021.1.4,120.06329706946882,
,"Rule: When you see a yellow image, do not press 'spacebar'.",Images/Scram2/HF09_NC.jpg,Scramble,Blue,Images/Blue.jpg,space,ParentConditions/YellowYellowBlue_v1.xlsx,YellowYellowBlue,Conditions/Version_1/YellowScramStop.xlsx,no,PASS,0.286178806367275,,,,,,,,,0,0,0,1,0,1,1,1,0,45,45,45,,,,,,,,,,,,,,,,,,,,,,,,,,,,,,,,,,,,,,,,,,,,,,,,,,,,,,,,,,,,,,,,,,,,,,,,,,,,,,,1.94,668.0328389001079,None,space,1,0.26774869998916984,670.0730468998663,None,670.0730468998663,None,670.0730468998663,None,,,,,,,,,,,P022,fencog,1,Pre,2022_Jan_19_1035,Go No-Go Task,2021.1.4,120.06329706946882,
,"Rule: When you see a yellow image, do not press 'spacebar'.",Images/Scram1/BF05_NC.jpg,Scramble,Blue,Images/Blue.jpg,space,ParentConditions/YellowYellowBlue_v1.xlsx,YellowYellowBlue,Conditions/Version_1/YellowScramStop.xlsx,no,PASS,0.7692637816145413,,,,,,,,,0,0,0,1,0,1,1,1,0,46,46,46,,,,,,,,,,,,,,,,,,,,,,,,,,,,,,,,,,,,,,,,,,,,,,,,,,,,,,,,,,,,,,,,,,,,,,,,,,,,,,,1.29,670.4799719001167,None,space,1,0.2662837002426386,671.8726475001313,None,671.8726475001313,None,671.8726475001313,None,,,,,,,,,,,P022,fencog,1,Pre,2022_Jan_19_1035,Go No-Go Task,2021.1.4,120.06329706946882,
,"Rule: When you see a yellow image, do not press 'spacebar'.",Images/Scram1/AM17NES.jpg,Scramble,Blue,Images/Blue.jpg,space,ParentConditions/YellowYellowBlue_v1.xlsx,YellowYellowBlue,Conditions/Version_1/YellowScramStop.xlsx,no,PASS,0.7553300637440975,,,,,,,,,0,0,0,1,0,1,1,1,0,47,47,47,,,,,,,,,,,,,,,,,,,,,,,,,,,,,,,,,,,,,,,,,,,,,,,,,,,,,,,,,,,,,,,,,,,,,,,,,,,,,,,1.22,672.273456600029,None,space,1,0.2755869999527931,673.5970927998424,None,673.5970927998424,None,673.5970927998424,None,,,,,,,,,,,P022,fencog,1,Pre,2022_Jan_19_1035,Go No-Go Task,2021.1.4,120.06329706946882,
,"Rule: When you see a yellow image, do not press 'spacebar'.",Images/Scram2/AM09_NC.jpg,Scramble,Yellow,Images/Yellow.jpg,None,ParentConditions/YellowYellowBlue_v1.xlsx,YellowYellowBlue,Conditions/Version_1/YellowScramStop.xlsx,yes,PASS,0.984865364539922,,,,,,,,,0,0,0,1,0,1,1,1,0,48,48,48,,,,,,,,,,,,,,,,,,,,,,,,,,,,,,,,,,,,,,,,,,,,,,,,,,,,,,,,,,,,,,,,,,,,,,,,,,,,,,,1.53,673.9976805998012,None,space,0,0.2371722999960184,675.6297995001078,None,675.6297995001078,None,675.6297995001078,None,,,,,,,,,,,P022,fencog,1,Pre,2022_Jan_19_1035,Go No-Go Task,2021.1.4,120.06329706946882,
,"Rule: When you see a yellow image, do not press 'spacebar'.",Images/Scram2/AF09NES.jpg,Scramble,Blue,Images/Blue.jpg,space,ParentConditions/YellowYellowBlue_v1.xlsx,YellowYellowBlue,Conditions/Version_1/YellowScramStop.xlsx,no,PASS,0.2099853615180053,,,,,,,,,0,0,0,1,0,1,1,1,0,49,49,49,,,,,,,,,,,,,,,,,,,,,,,,,,,,,,,,,,,,,,,,,,,,,,,,,,,,,,,,,,,,,,,,,,,,,,,,,,,,,,,1.92,676.0301079000346,None,space,1,0.24286159966140985,678.0706474999897,None,678.0706474999897,None,678.0706474999897,None,,,,,,,,,,,P022,fencog,1,Pre,2022_Jan_19_1035,Go No-Go Task,2021.1.4,120.06329706946882,
,"Rule: When you see a yellow image, do not press 'spacebar'.",Images/Scram2/AM04_NC.jpg,Scramble,Yellow,Images/Yellow.jpg,None,ParentConditions/YellowYellowBlue_v1.xlsx,YellowYellowBlue,Conditions/Version_1/YellowScramStop.xlsx,yes,PASS,0.8595632143536898,,,,,,,,,0,0,0,1,0,1,1,1,0,50,50,50,,,,,,,,,,,,,,,,,,,,,,,,,,,,,,,,,,,,,,,,,,,,,,,,,,,,,,,,,,,,,,,,,,,,,,,,,,,,,,,2,678.4613785999827,None,None,1,,680.5617939000949,None,680.5617939000949,None,680.5617939000949,None,,,,,,,,,,,P022,fencog,1,Pre,2022_Jan_19_1035,Go No-Go Task,2021.1.4,120.06329706946882,
,"Rule: When you see a yellow image, do not press 'spacebar'.",Images/Scram2/BF05_NC.jpg,Scramble,Yellow,Images/Yellow.jpg,None,ParentConditions/YellowYellowBlue_v1.xlsx,YellowYellowBlue,Conditions/Version_1/YellowScramStop.xlsx,yes,PASS,0.9038892448018151,,,,,,,,,0,0,0,1,0,1,1,1,0,51,51,51,,,,,,,,,,,,,,,,,,,,,,,,,,,,,,,,,,,,,,,,,,,,,,,,,,,,,,,,,,,,,,,,,,,,,,,,,,,,,,,1.81,680.9609447000548,None,None,1,,682.8774307002313,None,682.8774307002313,None,682.8774307002313,None,,,,,,,,,,,P022,fencog,1,Pre,2022_Jan_19_1035,Go No-Go Task,2021.1.4,120.06329706946882,
,"Rule: When you see a yellow image, do not press 'spacebar'.",Images/Scram1/HM06_NC.jpg,Scramble,Blue,Images/Blue.jpg,space,ParentConditions/YellowYellowBlue_v1.xlsx,YellowYellowBlue,Conditions/Version_1/YellowScramStop.xlsx,no,PASS,0.7183076447823791,,,,,,,,,0,0,0,1,0,1,1,1,0,52,52,52,,,,,,,,,,,,,,,,,,,,,,,,,,,,,,,,,,,,,,,,,,,,,,,,,,,,,,,,,,,,,,,,,,,,,,,,,,,,,,,1.43,683.2786435000598,None,space,1,0.27222330030053854,684.8103217999451,None,684.8103217999451,None,684.8103217999451,None,,,,,,,,,,,P022,fencog,1,Pre,2022_Jan_19_1035,Go No-Go Task,2021.1.4,120.06329706946882,
,"Rule: When you see a yellow image, do not press 'spacebar'.",Images/Scram2/AF07NES.jpg,Scramble,Blue,Images/Blue.jpg,space,ParentConditions/YellowYellowBlue_v1.xlsx,YellowYellowBlue,Conditions/Version_1/YellowScramStop.xlsx,no,PASS,0.8685827011476244,,,,,,,,,0,0,0,1,0,1,1,1,0,53,53,53,,,,,,,,,,,,,,,,,,,,,,,,,,,,,,,,,,,,,,,,,,,,,,,,,,,,,,,,,,,,,,,,,,,,,,,,,,,,,,,1.55,685.2103106002323,None,None,0,,686.8847634000704,None,686.8847634000704,None,686.8847634000704,None,,,,,,,,,,,P022,fencog,1,Pre,2022_Jan_19_1035,Go No-Go Task,2021.1.4,120.06329706946882,
,"Rule: When you see a yellow image, do not press 'spacebar'.",Images/Scram1/BM01_NC.jpg,Scramble,Blue,Images/Blue.jpg,space,ParentConditions/YellowYellowBlue_v1.xlsx,YellowYellowBlue,Conditions/Version_1/YellowScramStop.xlsx,no,PASS,0.7516161036696042,,,,,,,,,0,0,0,1,0,1,1,1,0,54,54,54,,,,,,,,,,,,,,,,,,,,,,,,,,,,,,,,,,,,,,,,,,,,,,,,,,,,,,,,,,,,,,,,,,,,,,,,,,,,,,,1.51,687.2754846001044,None,space,1,0.36056539975106716,688.8925789999776,None,688.8925789999776,None,688.8925789999776,None,,,,,,,,,,,P022,fencog,1,Pre,2022_Jan_19_1035,Go No-Go Task,2021.1.4,120.06329706946882,
