CondFileP,Instructions,FaceE,Express,ColourT,ColourF,CorrectAnsP,MasterCondFile,BlockOrder,CondFile,ColCheck,Triplicate_check,SORT_BY_SMALLEST,EPracticeOuterLoop.thisRepN,EPracticeOuterLoop.thisTrialN,EPracticeOuterLoop.thisN,EPracticeOuterLoop.thisIndex,EPracticeInnerLoop.thisRepN,EPracticeInnerLoop.thisTrialN,EPracticeInnerLoop.thisN,EPracticeInnerLoop.thisIndex,MasterLoop.thisRepN,MasterLoop.thisTrialN,MasterLoop.thisN,MasterLoop.thisIndex,OuterLoop.thisRepN,OuterLoop.thisTrialN,OuterLoop.thisN,OuterLoop.thisIndex,InnerLoop.thisRepN,InnerLoop.thisTrialN,InnerLoop.thisN,InnerLoop.thisIndex,text_13.started,text_13.stopped,key_resp_10.keys,key_resp_10.rt,key_resp_10.started,key_resp_10.stopped,text4.started,text4.stopped,EmotionTaskInstructions1.keys,EmotionTaskInstructions1.rt,EmotionTaskInstructions1.started,EmotionTaskInstructions1.stopped,text_4.started,text_4.stopped,key_resp_5.keys,key_resp_5.rt,key_resp_5.started,key_resp_5.stopped,Text_14.started,Text_14.stopped,key_resp_9.keys,key_resp_9.rt,key_resp_9.started,key_resp_9.stopped,text_5.started,text_5.stopped,text_6.started,text_6.stopped,key_resp_7.keys,key_resp_7.rt,key_resp_7.started,key_resp_7.stopped,text_10.started,text_10.stopped,text_11.started,text_11.stopped,text_12.started,text_12.stopped,ISIjitterPractice,EPracticeISIMarker.started,EPracticeISIMarker.stopped,Pract.keys,Pract.corr,Pract.started,Pract.stopped,PracticeFace.started,PracticeFace.stopped,ColourPractice.started,ColourPractice.stopped,text_7.started,text_7.stopped,Pract.rt,EndOfPractice.started,EndOfPractice.stopped,key_resp_8.keys,key_resp_8.rt,key_resp_8.started,key_resp_8.stopped,text_8.started,text_8.stopped,key_resp_6.keys,key_resp_6.rt,key_resp_6.started,key_resp_6.stopped,text_2.started,text_2.stopped,text_3.started,text_3.stopped,key_resp_3.keys,key_resp_3.rt,key_resp_3.started,key_resp_3.stopped,TaskBlock.started,TaskBlock.stopped,BlockNo1.started,BlockNo1.stopped,OfBlock.started,OfBlock.stopped,ISIjitter,ISImarker.started,ISImarker.stopped,key_resp.keys,key_resp.corr,key_resp.rt,key_resp.started,key_resp.stopped,FaceSet.started,FaceSet.stopped,Colour.started,Colour.stopped,EndBlockText.started,EndBlockText.stopped,key_resp_4.keys,key_resp_4.rt,key_resp_4.started,key_resp_4.stopped,BreakText2.started,BreakText2.stopped,PressToContinue.started,PressToContinue.stopped,participant,Study Name,Task Version (required to run),PRE/POST,date,expName,psychopyVersion,frameRate,
,,,,,,,,,,,,,,,,,,,,,,,,,,,,,,,,,23.943881400162354,None,space,135.00972550013103,24.938574600033462,None,,,,,,,,,,,,,,,,,,,,,,,,,,,,,,,,,,,,,,,,,,,,,,,,,,,,,,,,,,,,,,,,,,,,,,,,,,,,,,,,,,,,,,,,,,,,,,,P023,fencog,2,Pre,2022_Feb_08_1040,Go No-Go Task,2021.1.4,119.8029478382724,
,,,,,,,,,,,,,,,,,,,,,,,,,,,,,,,,,,,,,,,161.5351400000509,None,space,9.12505039991811,161.5351400000509,None,,,,,,,,,,,,,,,,,,,,,,,,,,,,,,,,,,,,,,,,,,,,,,,,,,,,,,,,,,,,,,,,,,,,,,,,,,,,,,,,,,,,,,,,,P023,fencog,2,Pre,2022_Feb_08_1040,Go No-Go Task,2021.1.4,119.8029478382724,
,,,,,,,,,,,,,,,,,,,,,,,,,,,,,,,,,,,,,,,,,,,,,170.7264950000681,None,space,9.165804099990055,170.7264950000681,None,,,,,,,,,,,,,,,,,,,,,,,,,,,,,,,,,,,,,,,,,,,,,,,,,,,,,,,,,,,,,,,,,,,,,,,,,,,,,,,,,,,P023,fencog,2,Pre,2022_Feb_08_1040,Go No-Go Task,2021.1.4,119.8029478382724,
,,,,,,,,,,,,,,,,,,,,,,,,,,,,,,,,,,,,,,,,,,,,,,,,,,,179.90472540003248,None,space,17.93159639998339,179.90472540003248,None,,,,,,,,,,,,,,,,,,,,,,,,,,,,,,,,,,,,,,,,,,,,,,,,,,,,,,,,,,,,,,,,,,,,,,,,,,,,,P023,fencog,2,Pre,2022_Feb_08_1040,Go No-Go Task,2021.1.4,119.8029478382724,
EPracticeConditions/BlueEyes.csv,"Rule: When you see a blue image, do not press 'spacebar'.",Images/Happy/HF05_HO.jpg,Happy,Yellow,Images/Yellow.jpg,space,,,,,,,0,0,0,0,0,0,0,5,,,,,,,,,,,,,,,,,,,,,,,,,,,,,,,,,,,,,197.92155630001798,None,200.91207960015163,None,space,3.4202233999967575,200.91207960015163,None,197.92155630001798,None,197.92155630001798,None,197.92155630001798,None,1.2,204.4533263000194,None,None,0,205.79913830012083,None,205.79913830012083,None,205.79913830012083,None,207.3382500000298,None,,,,,,,,,,,,,,,,,,,,,,,,,,,,,,,,,,,,,,,,,,,,,,,,,,P023,fencog,2,Pre,2022_Feb_08_1040,Go No-Go Task,2021.1.4,119.8029478382724,
EPracticeConditions/BlueEyes.csv,"Rule: When you see a blue image, do not press 'spacebar'.",Images/Happy/BM02_HO.jpg,Happy,Yellow,Images/Yellow.jpg,space,,,,,,,0,0,0,0,0,1,1,2,,,,,,,,,,,,,,,,,,,,,,,,,,,,,,,,,,,,,,,,,,,,,,,,,,,1.7,208.69476049998775,None,space,1,210.50130110001191,None,210.50130110001191,None,210.50130110001191,None,211.40072840009816,None,0.3271696998272091,,,,,,,,,,,,,,,,,,,,,,,,,,,,,,,,,,,,,,,,,,,,,,,,,P023,fencog,2,Pre,2022_Feb_08_1040,Go No-Go Task,2021.1.4,119.8029478382724,
EPracticeConditions/BlueEyes.csv,"Rule: When you see a blue image, do not press 'spacebar'.",Images/Fearful/HM09_FC.jpg,Fear,Blue,Images/Blue.jpg,None,,,,,,,0,0,0,0,0,2,2,0,,,,,,,,,,,,,,,,,,,,,,,,,,,,,,,,,,,,,,,,,,,,,,,,,,,1.8,213.40795919997618,None,None,1,215.33322550007142,None,215.33322550007142,None,215.33322550007142,None,216.2101942000445,None,,,,,,,,,,,,,,,,,,,,,,,,,,,,,,,,,,,,,,,,,,,,,,,,,,P023,fencog,2,Pre,2022_Feb_08_1040,Go No-Go Task,2021.1.4,119.8029478382724,
EPracticeConditions/BlueEyes.csv,"Rule: When you see a blue image, do not press 'spacebar'.",Images/Happy/BM08_HO.jpg,Happy,Yellow,Images/Yellow.jpg,space,,,,,,,0,0,0,0,0,3,3,3,,,,,,,,,,,,,,,,,,,,,,,,,,,,,,,,,,,,,,,,,,,,,,,,,,,1.4,218.21493800007738,None,space,1,219.71526540000923,None,219.71526540000923,None,219.71526540000923,None,220.6057953001,None,0.28890829998999834,,,,,,,,,,,,,,,,,,,,,,,,,,,,,,,,,,,,,,,,,,,,,,,,,P023,fencog,2,Pre,2022_Feb_08_1040,Go No-Go Task,2021.1.4,119.8029478382724,
EPracticeConditions/BlueEyes.csv,"Rule: When you see a blue image, do not press 'spacebar'.",Images/Fearful/AF01_FO.jpg,Fear,Blue,Images/Blue.jpg,None,,,,,,,0,0,0,0,0,4,4,1,,,,,,,,,,,,,,,,,,,,,,,,,,,,,,,,,,,,,,,,,,,,,,,,,,,1.6,222.60613620001823,None,None,1,224.31399850011803,None,224.31399850011803,None,224.31399850011803,None,225.2094760001637,None,,,,,,,,,,,,,,,,,,,,,,,,,,,,,,,,,,,,,,,,,,,,,,,,,,P023,fencog,2,Pre,2022_Feb_08_1040,Go No-Go Task,2021.1.4,119.8029478382724,
EPracticeConditions/BlueEyes.csv,"Rule: When you see a blue image, do not press 'spacebar'.",Images/Happy/HF10_HE.jpg,Happy,Yellow,Images/Yellow.jpg,space,,,,,,,0,0,0,0,0,5,5,7,,,,,,,,,,,,,,,,,,,,,,,,,,,,,,,,,,,,,,,,,,,,,,,,,,,1.5,227.21267080004327,None,space,1,228.8127536000684,None,228.8127536000684,None,228.8127536000684,None,229.71160929999314,None,0.21554050012491643,,,,,,,,,,,,,,,,,,,,,,,,,,,,,,,,,,,,,,,,,,,,,,,,,P023,fencog,2,Pre,2022_Feb_08_1040,Go No-Go Task,2021.1.4,119.8029478382724,
EPracticeConditions/BlueEyes.csv,"Rule: When you see a blue image, do not press 'spacebar'.",Images/Happy/HF04_HE.jpg,Happy,Yellow,Images/Yellow.jpg,space,,,,,,,0,0,0,0,0,6,6,4,,,,,,,,,,,,,,,,,,,,,,,,,,,,,,,,,,,,,,,,,,,,,,,,,,,1.3,231.71390300011262,None,space,1,233.11972269997932,None,233.11972269997932,None,233.11972269997932,None,234.01042139995843,None,0.356587499845773,,,,,,,,,,,,,,,,,,,,,,,,,,,,,,,,,,,,,,,,,,,,,,,,,P023,fencog,2,Pre,2022_Feb_08_1040,Go No-Go Task,2021.1.4,119.8029478382724,
EPracticeConditions/BlueEyes.csv,"Rule: When you see a blue image, do not press 'spacebar'.",Images/Happy/HF09_HE.jpg,Happy,Yellow,Images/Yellow.jpg,space,,,,,,,0,0,0,0,0,7,7,6,,,,,,,,,,,,,,,,,,,,,,,,,,,,,,,,,,,,,,,,,,,,,,,,,,,1.9,236.01013160008006,None,space,1,238.0182074001059,None,238.0182074001059,None,238.0182074001059,None,238.9084673000034,None,0.2659853999502957,,,,,,,,,,,,,,,,,,,,,,,,,,,,,,,,,,,,,,,,,,,,,,,,,P023,fencog,2,Pre,2022_Feb_08_1040,Go No-Go Task,2021.1.4,119.8029478382724,
EPracticeConditions/BlueEyes.csv,"Rule: When you see a blue image, do not press 'spacebar'.",,,,,,,,,,,,0,0,0,0,,,,,,,,,,,,,,,,,,,,,,,,,,,,,,,,,,,,,,,,,,,,,,,,,,,,,,,,,,,,,,,,,,,,,,,,,,,,,,,,,,,,,,,,,,,,,,,,,,,,,,,,,,,,,,,,,,,,,P023,fencog,2,Pre,2022_Feb_08_1040,Go No-Go Task,2021.1.4,119.8029478382724,
EPracticeConditions/YellowEyes.csv,"Rule: When you see a yellow image, do not press 'spacebar'.",Images/Fearful/AM24AFS.jpg,Fear,Blue,Images/Blue.jpg,space,,,,,,,0,1,1,1,0,0,0,7,,,,,,,,,,,,,,,,,,,,,,,,,,,,,,,,,,,,,240.93163390015252,None,243.9260136000812,None,space,0.9262198000214994,243.9260136000812,None,240.93163390015252,None,240.93163390015252,None,240.93163390015252,None,1.8,244.87213140004314,None,None,0,246.77394530014135,None,246.77394530014135,None,246.77394530014135,None,247.68358319997787,None,,,,,,,,,,,,,,,,,,,,,,,,,,,,,,,,,,,,,,,,,,,,,,,,,,P023,fencog,2,Pre,2022_Feb_08_1040,Go No-Go Task,2021.1.4,119.8029478382724,
EPracticeConditions/YellowEyes.csv,"Rule: When you see a yellow image, do not press 'spacebar'.",Images/Fearful/AM23AFS.jpg,Fear,Blue,Images/Blue.jpg,space,,,,,,,0,1,1,1,0,1,1,6,,,,,,,,,,,,,,,,,,,,,,,,,,,,,,,,,,,,,,,,,,,,,,,,,,,1.9,249.68180170003325,None,None,0,251.6889776000753,None,251.6889776000753,None,251.6889776000753,None,252.5796016000677,None,,,,,,,,,,,,,,,,,,,,,,,,,,,,,,,,,,,,,,,,,,,,,,,,,,P023,fencog,2,Pre,2022_Feb_08_1040,Go No-Go Task,2021.1.4,119.8029478382724,
EPracticeConditions/YellowEyes.csv,"Rule: When you see a yellow image, do not press 'spacebar'.",Images/Fearful/AM22AFS.jpg,Fear,Blue,Images/Blue.jpg,space,,,,,,,0,1,1,1,0,2,2,5,,,,,,,,,,,,,,,,,,,,,,,,,,,,,,,,,,,,,,,,,,,,,,,,,,,1.3,254.5857661999762,None,space,1,255.98792410013266,None,255.98792410013266,None,255.98792410013266,None,256.8884893001523,None,0.3603574999142438,,,,,,,,,,,,,,,,,,,,,,,,,,,,,,,,,,,,,,,,,,,,,,,,,P023,fencog,2,Pre,2022_Feb_08_1040,Go No-Go Task,2021.1.4,119.8029478382724,
EPracticeConditions/YellowEyes.csv,"Rule: When you see a yellow image, do not press 'spacebar'.",Images/Fearful/AM16AFS.jpg,Fear,Blue,Images/Blue.jpg,space,,,,,,,0,1,1,1,0,3,3,2,,,,,,,,,,,,,,,,,,,,,,,,,,,,,,,,,,,,,,,,,,,,,,,,,,,1.6,258.89445580006577,None,None,0,260.59561610012315,None,260.59561610012315,None,260.59561610012315,None,261.49592260015197,None,,,,,,,,,,,,,,,,,,,,,,,,,,,,,,,,,,,,,,,,,,,,,,,,,,P023,fencog,2,Pre,2022_Feb_08_1040,Go No-Go Task,2021.1.4,119.8029478382724,
EPracticeConditions/YellowEyes.csv,"Rule: When you see a yellow image, do not press 'spacebar'.",Images/Happy/AM32HAS.jpg,Happy,Yellow,Images/Yellow.jpg,None,,,,,,,0,1,1,1,0,4,4,0,,,,,,,,,,,,,,,,,,,,,,,,,,,,,,,,,,,,,,,,,,,,,,,,,,,1.4,263.5015922000166,None,None,1,265.0018587000668,None,265.0018587000668,None,265.0018587000668,None,265.90451230015606,None,,,,,,,,,,,,,,,,,,,,,,,,,,,,,,,,,,,,,,,,,,,,,,,,,,P023,fencog,2,Pre,2022_Feb_08_1040,Go No-Go Task,2021.1.4,119.8029478382724,
EPracticeConditions/YellowEyes.csv,"Rule: When you see a yellow image, do not press 'spacebar'.",Images/Happy/BF05_HO.jpg,Happy,Yellow,Images/Yellow.jpg,None,,,,,,,0,1,1,1,0,5,5,1,,,,,,,,,,,,,,,,,,,,,,,,,,,,,,,,,,,,,,,,,,,,,,,,,,,1.2,267.90864600008354,None,None,1,269.2091924000997,None,269.2091924000997,None,269.2091924000997,None,270.1070698001422,None,,,,,,,,,,,,,,,,,,,,,,,,,,,,,,,,,,,,,,,,,,,,,,,,,,P023,fencog,2,Pre,2022_Feb_08_1040,Go No-Go Task,2021.1.4,119.8029478382724,
EPracticeConditions/YellowEyes.csv,"Rule: When you see a yellow image, do not press 'spacebar'.",Images/Fearful/AM17AFS.jpg,Fear,Blue,Images/Blue.jpg,space,,,,,,,0,1,1,1,0,6,6,3,,,,,,,,,,,,,,,,,,,,,,,,,,,,,,,,,,,,,,,,,,,,,,,,,,,1.5,272.10885299998336,None,space,1,273.7159064000007,None,273.7159064000007,None,273.7159064000007,None,274.6129483000841,None,0.1444469999987632,,,,,,,,,,,,,,,,,,,,,,,,,,,,,,,,,,,,,,,,,,,,,,,,,P023,fencog,2,Pre,2022_Feb_08_1040,Go No-Go Task,2021.1.4,119.8029478382724,
EPracticeConditions/YellowEyes.csv,"Rule: When you see a yellow image, do not press 'spacebar'.",Images/Fearful/AM19AFS.jpg,Fear,Blue,Images/Blue.jpg,space,,,,,,,0,1,1,1,0,7,7,4,,,,,,,,,,,,,,,,,,,,,,,,,,,,,,,,,,,,,,,,,,,,,,,,,,,1.7,276.61842310009524,None,space,1,278.42304460005835,None,278.42304460005835,None,278.42304460005835,None,279.31346960016526,None,0.27729219989851117,,,,,,,,,,,,,,,,,,,,,,,,,,,,,,,,,,,,,,,,,,,,,,,,,P023,fencog,2,Pre,2022_Feb_08_1040,Go No-Go Task,2021.1.4,119.8029478382724,
EPracticeConditions/YellowEyes.csv,"Rule: When you see a yellow image, do not press 'spacebar'.",,,,,,,,,,,,0,1,1,1,,,,,,,,,,,,,,,,,,,,,,,,,,,,,,,,,,,,,,,,,,,,,,,,,,,,,,,,,,,,,,,,,,,,,,,,,,,,,,,,,,,,,,,,,,,,,,,,,,,,,,,,,,,,,,,,,,,,,P023,fencog,2,Pre,2022_Feb_08_1040,Go No-Go Task,2021.1.4,119.8029478382724,
EPracticeConditions/BlueScram.csv,"Rule: When you see a blue image, do not press 'spacebar'.",Images/Scram1/AM04_NC.jpg,Scramble,Yellow,Images/Yellow.jpg,space,,,,,,,0,2,2,2,0,0,0,3,,,,,,,,,,,,,,,,,,,,,,,,,,,,,,,,,,,,,281.3262970999349,None,284.32060790015385,None,space,2.427772199967876,284.32060790015385,None,281.3262970999349,None,281.3262970999349,None,281.3262970999349,None,1.9,286.7717718000058,None,space,1,288.7950377999805,None,288.7950377999805,None,288.7950377999805,None,289.6772106999997,None,0.2493688000831753,,,,,,,,,,,,,,,,,,,,,,,,,,,,,,,,,,,,,,,,,,,,,,,,,P023,fencog,2,Pre,2022_Feb_08_1040,Go No-Go Task,2021.1.4,119.8029478382724,
EPracticeConditions/BlueScram.csv,"Rule: When you see a blue image, do not press 'spacebar'.",Images/Scram2/AF25NES.jpg,Scramble,Yellow,Images/Yellow.jpg,space,,,,,,,0,2,2,2,0,1,1,7,,,,,,,,,,,,,,,,,,,,,,,,,,,,,,,,,,,,,,,,,,,,,,,,,,,1.5,291.6772320000455,None,space,1,293.2853302001022,None,293.2853302001022,None,293.2853302001022,None,294.1783553001005,None,0.3189127999357879,,,,,,,,,,,,,,,,,,,,,,,,,,,,,,,,,,,,,,,,,,,,,,,,,P023,fencog,2,Pre,2022_Feb_08_1040,Go No-Go Task,2021.1.4,119.8029478382724,
EPracticeConditions/BlueScram.csv,"Rule: When you see a blue image, do not press 'spacebar'.",Images/Scram2/AM03_NC.jpg,Scramble,Yellow,Images/Yellow.jpg,space,,,,,,,0,2,2,2,0,2,2,6,,,,,,,,,,,,,,,,,,,,,,,,,,,,,,,,,,,,,,,,,,,,,,,,,,,1.2,296.18506680009887,None,space,1,297.4924361000303,None,297.4924361000303,None,297.4924361000303,None,298.38290970004164,None,0.35994850005954504,,,,,,,,,,,,,,,,,,,,,,,,,,,,,,,,,,,,,,,,,,,,,,,,,P023,fencog,2,Pre,2022_Feb_08_1040,Go No-Go Task,2021.1.4,119.8029478382724,
EPracticeConditions/BlueScram.csv,"Rule: When you see a blue image, do not press 'spacebar'.",Images/Scram1/AM13NES.jpg,Scramble,Yellow,Images/Yellow.jpg,space,,,,,,,0,2,2,2,0,3,3,5,,,,,,,,,,,,,,,,,,,,,,,,,,,,,,,,,,,,,,,,,,,,,,,,,,,1.4,300.39350190013647,None,space,1,301.9157535000704,None,301.9157535000704,None,301.9157535000704,None,302.7983218000736,None,0.3526254000607878,,,,,,,,,,,,,,,,,,,,,,,,,,,,,,,,,,,,,,,,,,,,,,,,,P023,fencog,2,Pre,2022_Feb_08_1040,Go No-Go Task,2021.1.4,119.8029478382724,
EPracticeConditions/BlueScram.csv,"Rule: When you see a blue image, do not press 'spacebar'.",Images/Scram1/BF18_NC.jpg,Scramble,Blue,Images/Blue.jpg,None,,,,,,,0,2,2,2,0,4,4,1,,,,,,,,,,,,,,,,,,,,,,,,,,,,,,,,,,,,,,,,,,,,,,,,,,,1.7,304.798393700039,None,None,1,306.60638580005616,None,306.60638580005616,None,306.60638580005616,None,307.5017480000388,None,,,,,,,,,,,,,,,,,,,,,,,,,,,,,,,,,,,,,,,,,,,,,,,,,,P023,fencog,2,Pre,2022_Feb_08_1040,Go No-Go Task,2021.1.4,119.8029478382724,
EPracticeConditions/BlueScram.csv,"Rule: When you see a blue image, do not press 'spacebar'.",Images/Scram1/BM08_NC.jpg,Scramble,Blue,Images/Blue.jpg,None,,,,,,,0,2,2,2,0,5,5,0,,,,,,,,,,,,,,,,,,,,,,,,,,,,,,,,,,,,,,,,,,,,,,,,,,,1.6,309.50885660015047,None,space,0,311.2133708000183,None,311.2133708000183,None,311.2133708000183,None,312.1187018000055,None,0.2309705000370741,,,,,,,,,,,,,,,,,,,,,,,,,,,,,,,,,,,,,,,,,,,,,,,,,P023,fencog,2,Pre,2022_Feb_08_1040,Go No-Go Task,2021.1.4,119.8029478382724,
EPracticeConditions/BlueScram.csv,"Rule: When you see a blue image, do not press 'spacebar'.",Images/Scram1/AM03NES.jpg,Scramble,Yellow,Images/Yellow.jpg,space,,,,,,,0,2,2,2,0,6,6,4,,,,,,,,,,,,,,,,,,,,,,,,,,,,,,,,,,,,,,,,,,,,,,,,,,,1.8,314.12132539995946,None,space,1,316.02870610007085,None,316.02870610007085,None,316.02870610007085,None,316.93407980003394,None,0.31946190004236996,,,,,,,,,,,,,,,,,,,,,,,,,,,,,,,,,,,,,,,,,,,,,,,,,P023,fencog,2,Pre,2022_Feb_08_1040,Go No-Go Task,2021.1.4,119.8029478382724,
EPracticeConditions/BlueScram.csv,"Rule: When you see a blue image, do not press 'spacebar'.",Images/Scram2/AF10_NC.jpg,Scramble,Yellow,Images/Yellow.jpg,space,,,,,,,0,2,2,2,0,7,7,2,,,,,,,,,,,,,,,,,,,,,,,,,,,,,,,,,,,,,,,,,,,,,,,,,,,1.3,318.93536880007014,None,space,1,320.3441202000249,None,320.3441202000249,None,320.3441202000249,None,321.2488524001092,None,0.3642859000246972,,,,,,,,,,,,,,,,,,,,,,,,,,,,,,,,,,,,,,,,,,,,,,,,,P023,fencog,2,Pre,2022_Feb_08_1040,Go No-Go Task,2021.1.4,119.8029478382724,
EPracticeConditions/BlueScram.csv,"Rule: When you see a blue image, do not press 'spacebar'.",,,,,,,,,,,,0,2,2,2,,,,,,,,,,,,,,,,,,,,,,,,,,,,,,,,,,,,,,,,,,,,,,,,,,,,,,,,,,,,,,,,,,,,,,,,,,,,,,,,,,,,,,,,,,,,,,,,,,,,,,,,,,,,,,,,,,,,,P023,fencog,2,Pre,2022_Feb_08_1040,Go No-Go Task,2021.1.4,119.8029478382724,
EPracticeConditions/YellowScram.csv,"Rule: When you see a yellow image, do not press 'spacebar'.",Images/Scram1/AF24NES.jpg,Scramble,Blue,Images/Blue.jpg,space,,,,,,,0,3,3,3,0,0,0,7,,,,,,,,,,,,,,,,,,,,,,,,,,,,,,,,,,,,,323.2521214000881,None,326.23324970016256,None,space,1.6829099000897259,326.23324970016256,None,323.2521214000881,None,323.2521214000881,None,323.2521214000881,None,1.7,327.9401149000041,None,space,1,329.757855999982,None,329.757855999982,None,329.757855999982,None,330.63990620011464,None,0.3185296000447124,,,,,,,,,,,,,,,,,,,,,,,,,,,,,,,,,,,,,,,,,,,,,,,,,P023,fencog,2,Pre,2022_Feb_08_1040,Go No-Go Task,2021.1.4,119.8029478382724,
EPracticeConditions/YellowScram.csv,"Rule: When you see a yellow image, do not press 'spacebar'.",Images/Scram1/AF10_NC.jpg,Scramble,Blue,Images/Blue.jpg,space,,,,,,,0,3,3,3,0,1,1,6,,,,,,,,,,,,,,,,,,,,,,,,,,,,,,,,,,,,,,,,,,,,,,,,,,,1.4,332.64094670000486,None,space,1,334.1480777000543,None,334.1480777000543,None,334.1480777000543,None,335.038903699955,None,0.29628399992361665,,,,,,,,,,,,,,,,,,,,,,,,,,,,,,,,,,,,,,,,,,,,,,,,,P023,fencog,2,Pre,2022_Feb_08_1040,Go No-Go Task,2021.1.4,119.8029478382724,
EPracticeConditions/YellowScram.csv,"Rule: When you see a yellow image, do not press 'spacebar'.",Images/Scram2/AM03NES.jpg,Scramble,Yellow,Images/Yellow.jpg,None,,,,,,,0,3,3,3,0,2,2,1,,,,,,,,,,,,,,,,,,,,,,,,,,,,,,,,,,,,,,,,,,,,,,,,,,,1.6,337.04736259998754,None,None,1,338.76356330001727,None,338.76356330001727,None,338.76356330001727,None,339.65400910004973,None,,,,,,,,,,,,,,,,,,,,,,,,,,,,,,,,,,,,,,,,,,,,,,,,,,P023,fencog,2,Pre,2022_Feb_08_1040,Go No-Go Task,2021.1.4,119.8029478382724,
EPracticeConditions/YellowScram.csv,"Rule: When you see a yellow image, do not press 'spacebar'.",Images/Scram1/AF30NES.JPG,Scramble,Blue,Images/Blue.jpg,space,,,,,,,0,3,3,3,0,3,3,4,,,,,,,,,,,,,,,,,,,,,,,,,,,,,,,,,,,,,,,,,,,,,,,,,,,1.5,341.65755050000735,None,space,1,343.2622231999412,None,343.2622231999412,None,343.2622231999412,None,344.1556373001076,None,0.3341301998589188,,,,,,,,,,,,,,,,,,,,,,,,,,,,,,,,,,,,,,,,,,,,,,,,,P023,fencog,2,Pre,2022_Feb_08_1040,Go No-Go Task,2021.1.4,119.8029478382724,
EPracticeConditions/YellowScram.csv,"Rule: When you see a yellow image, do not press 'spacebar'.",Images/Scram1/AF07NES.jpg,Scramble,Blue,Images/Blue.jpg,space,,,,,,,0,3,3,3,0,4,4,3,,,,,,,,,,,,,,,,,,,,,,,,,,,,,,,,,,,,,,,,,,,,,,,,,,,1.3,346.16911300015636,None,space,1,347.5693115000613,None,347.5693115000613,None,347.5693115000613,None,348.45963339996524,None,0.2990311998873949,,,,,,,,,,,,,,,,,,,,,,,,,,,,,,,,,,,,,,,,,,,,,,,,,P023,fencog,2,Pre,2022_Feb_08_1040,Go No-Go Task,2021.1.4,119.8029478382724,
EPracticeConditions/YellowScram.csv,"Rule: When you see a yellow image, do not press 'spacebar'.",Images/Scram2/HM06_NC.jpg,Scramble,Yellow,Images/Yellow.jpg,None,,,,,,,0,3,3,3,0,5,5,0,,,,,,,,,,,,,,,,,,,,,,,,,,,,,,,,,,,,,,,,,,,,,,,,,,,1.2,350.45992420008406,None,None,1,351.75976649997756,None,351.75976649997756,None,351.75976649997756,None,352.65861329995096,None,,,,,,,,,,,,,,,,,,,,,,,,,,,,,,,,,,,,,,,,,,,,,,,,,,P023,fencog,2,Pre,2022_Feb_08_1040,Go No-Go Task,2021.1.4,119.8029478382724,
EPracticeConditions/YellowScram.csv,"Rule: When you see a yellow image, do not press 'spacebar'.",Images/Scram1/BM01_NC.jpg,Scramble,Blue,Images/Blue.jpg,space,,,,,,,0,3,3,3,0,6,6,5,,,,,,,,,,,,,,,,,,,,,,,,,,,,,,,,,,,,,,,,,,,,,,,,,,,1.8,354.6659455001354,None,None,0,356.57482949993573,None,356.57482949993573,None,356.57482949993573,None,357.4738078999799,None,,,,,,,,,,,,,,,,,,,,,,,,,,,,,,,,,,,,,,,,,,,,,,,,,,P023,fencog,2,Pre,2022_Feb_08_1040,Go No-Go Task,2021.1.4,119.8029478382724,
EPracticeConditions/YellowScram.csv,"Rule: When you see a yellow image, do not press 'spacebar'.",Images/Scram1/HF04_NC.jpg,Scramble,Blue,Images/Blue.jpg,space,,,,,,,0,3,3,3,0,7,7,2,,,,,,,,,,,,,,,,,,,,,,,,,,,,,,,,,,,,,,,,,,,,,,,,,,,1.9,359.47289470001124,None,space,1,361.49018410011195,None,361.49018410011195,None,361.49018410011195,None,362.3723647000734,None,0.29805999994277954,,,,,,,,,,,,,,,,,,,,,,,,,,,,,,,,,,,,,,,,,,,,,,,,,P023,fencog,2,Pre,2022_Feb_08_1040,Go No-Go Task,2021.1.4,119.8029478382724,
EPracticeConditions/YellowScram.csv,"Rule: When you see a yellow image, do not press 'spacebar'.",,,,,,,,,,,,0,3,3,3,,,,,,,,,,,,,,,,,,,,,,,,,,,,,,,,,,,,,,,,,,,,,,,,,,,,,,,,,,,,,,,,,,,,,,,,,,,,,,,,,,,,,,,,,,,,,,,,,,,,,,,,,,,,,,,,,,,,,P023,fencog,2,Pre,2022_Feb_08_1040,Go No-Go Task,2021.1.4,119.8029478382724,
,,,,,,,,,,,,,,,,,,,,,,,,,,,,,,,,,,,,,,,,,,,,,,,,,,,,,,,,,,,,,,,,,,,,,,,,,,,,,,,,,,,,,365.8036015999969,None,space,7.068197500193492,366.2798935000319,None,,,,,,,,,,,,,,,,,,,,,,,,,,,,,,,,,,,,,,,,,,,P023,fencog,2,Pre,2022_Feb_08_1040,Go No-Go Task,2021.1.4,119.8029478382724,
,,,,,,,,,,,,,,,,,,,,,,,,,,,,,,,,,,,,,,,,,,,,,,,,,,,,,,,,,,,,,,,,,,,,,,,,,,,,,,,,,,,,,,,,,,,373.3621954000555,None,space,1.545873099938035,373.3621954000555,None,,,,,,,,,,,,,,,,,,,,,,,,,,,,,,,,,,,,,P023,fencog,2,Pre,2022_Feb_08_1040,Go No-Go Task,2021.1.4,119.8029478382724,
,"Rule: When you see a yellow image, do not press 'spacebar'.",Images/Fearful/BM02_FC.jpg,Fear,Blue,Images/Blue.jpg,space,ParentConditions/YellowBlueBlue_v2.xlsx,BlueBlueYellow,Conditions/Version_2/YellowHappyStop.xlsx,no,PASS,0.16858645908030467,,,,,,,,,0,0,0,0,0,0,0,0,0,0,0,0,,,,,,,,,,,,,,,,,,,,,,,,,,,,,,,,,,,,,,,,,,,,,,,,,,,,,,,,,,,,,,,,,374.9858365999535,None,377.9760445000138,None,space,3.4760160001460463,377.9760445000138,None,374.9858365999535,None,374.9858365999535,None,374.9858365999535,None,1.85,381.50217909994535,None,space,1,0.2972748999018222,383.4589035999961,None,383.4589035999961,None,383.4589035999961,None,,,,,,,,,,,P023,fencog,2,Pre,2022_Feb_08_1040,Go No-Go Task,2021.1.4,119.8029478382724,
,"Rule: When you see a yellow image, do not press 'spacebar'.",Images/Fearful/HF05_FC.jpg,Fear,Blue,Images/Blue.jpg,space,ParentConditions/YellowBlueBlue_v2.xlsx,BlueBlueYellow,Conditions/Version_2/YellowHappyStop.xlsx,no,PASS,0.9484055972569129,,,,,,,,,0,0,0,0,0,0,0,0,0,1,1,1,,,,,,,,,,,,,,,,,,,,,,,,,,,,,,,,,,,,,,,,,,,,,,,,,,,,,,,,,,,,,,,,,,,,,,,,,,,,,,,1.35,383.8577644000761,None,space,1,0.3043607999570668,385.30779180000536,None,385.30779180000536,None,385.30779180000536,None,,,,,,,,,,,P023,fencog,2,Pre,2022_Feb_08_1040,Go No-Go Task,2021.1.4,119.8029478382724,
,"Rule: When you see a yellow image, do not press 'spacebar'.",Images/Happy/AF32HAS.jpg,Happy,Yellow,Images/Yellow.jpg,None,ParentConditions/YellowBlueBlue_v2.xlsx,BlueBlueYellow,Conditions/Version_2/YellowHappyStop.xlsx,yes,PASS,0.508887905761459,,,,,,,,,0,0,0,0,0,0,0,0,0,2,2,2,,,,,,,,,,,,,,,,,,,,,,,,,,,,,,,,,,,,,,,,,,,,,,,,,,,,,,,,,,,,,,,,,,,,,,,,,,,,,,,1.76,385.70791310002096,None,None,1,,387.57397409994155,None,387.57397409994155,None,387.57397409994155,None,,,,,,,,,,,P023,fencog,2,Pre,2022_Feb_08_1040,Go No-Go Task,2021.1.4,119.8029478382724,
,"Rule: When you see a yellow image, do not press 'spacebar'.",Images/Happy/AM32HAS.jpg,Happy,Yellow,Images/Yellow.jpg,None,ParentConditions/YellowBlueBlue_v2.xlsx,BlueBlueYellow,Conditions/Version_2/YellowHappyStop.xlsx,yes,PASS,0.12877007601010582,,,,,,,,,0,0,0,0,0,0,0,0,0,3,3,3,,,,,,,,,,,,,,,,,,,,,,,,,,,,,,,,,,,,,,,,,,,,,,,,,,,,,,,,,,,,,,,,,,,,,,,,,,,,,,,1.71,387.97351459995843,None,None,1,,389.790319400141,None,389.790319400141,None,389.790319400141,None,,,,,,,,,,,P023,fencog,2,Pre,2022_Feb_08_1040,Go No-Go Task,2021.1.4,119.8029478382724,
,"Rule: When you see a yellow image, do not press 'spacebar'.",Images/Fearful/AF07FS.jpg,Fear,Blue,Images/Blue.jpg,space,ParentConditions/YellowBlueBlue_v2.xlsx,BlueBlueYellow,Conditions/Version_2/YellowHappyStop.xlsx,no,PASS,0.4320382618493961,,,,,,,,,0,0,0,0,0,0,0,0,0,4,4,4,,,,,,,,,,,,,,,,,,,,,,,,,,,,,,,,,,,,,,,,,,,,,,,,,,,,,,,,,,,,,,,,,,,,,,,,,,,,,,,1.67,390.1925073999446,None,space,1,0.2879772000014782,391.9642179000657,None,391.9642179000657,None,391.9642179000657,None,,,,,,,,,,,P023,fencog,2,Pre,2022_Feb_08_1040,Go No-Go Task,2021.1.4,119.8029478382724,
,"Rule: When you see a yellow image, do not press 'spacebar'.",Images/Fearful/AM30AFS.jpg,Fear,Blue,Images/Blue.jpg,space,ParentConditions/YellowBlueBlue_v2.xlsx,BlueBlueYellow,Conditions/Version_2/YellowHappyStop.xlsx,no,PASS,0.14164593092902533,,,,,,,,,0,0,0,0,0,0,0,0,0,5,5,5,,,,,,,,,,,,,,,,,,,,,,,,,,,,,,,,,,,,,,,,,,,,,,,,,,,,,,,,,,,,,,,,,,,,,,,,,,,,,,,1.42,392.3634137001354,None,space,1,0.2755020000040531,393.88867230014876,None,393.88867230014876,None,393.88867230014876,None,,,,,,,,,,,P023,fencog,2,Pre,2022_Feb_08_1040,Go No-Go Task,2021.1.4,119.8029478382724,
,"Rule: When you see a yellow image, do not press 'spacebar'.",Images/Happy/BM03_HO.jpg,Happy,Yellow,Images/Yellow.jpg,None,ParentConditions/YellowBlueBlue_v2.xlsx,BlueBlueYellow,Conditions/Version_2/YellowHappyStop.xlsx,yes,PASS,0.824528473694533,,,,,,,,,0,0,0,0,0,0,0,0,0,6,6,6,,,,,,,,,,,,,,,,,,,,,,,,,,,,,,,,,,,,,,,,,,,,,,,,,,,,,,,,,,,,,,,,,,,,,,,,,,,,,,,1.2,394.2877378000412,None,None,1,,395.58811150002293,None,395.58811150002293,None,395.58811150002293,None,,,,,,,,,,,P023,fencog,2,Pre,2022_Feb_08_1040,Go No-Go Task,2021.1.4,119.8029478382724,
,"Rule: When you see a yellow image, do not press 'spacebar'.",Images/Fearful/HM06_FC.jpg,Fear,Blue,Images/Blue.jpg,space,ParentConditions/YellowBlueBlue_v2.xlsx,BlueBlueYellow,Conditions/Version_2/YellowHappyStop.xlsx,no,PASS,0.06881493513979675,,,,,,,,,0,0,0,0,0,0,0,0,0,7,7,7,,,,,,,,,,,,,,,,,,,,,,,,,,,,,,,,,,,,,,,,,,,,,,,,,,,,,,,,,,,,,,,,,,,,,,,,,,,,,,,1.25,395.98714330000803,None,space,1,0.2751503000035882,397.32933979993686,None,397.32933979993686,None,397.32933979993686,None,,,,,,,,,,,P023,fencog,2,Pre,2022_Feb_08_1040,Go No-Go Task,2021.1.4,119.8029478382724,
,"Rule: When you see a yellow image, do not press 'spacebar'.",Images/Fearful/AF19AFS.jpg,Fear,Blue,Images/Blue.jpg,space,ParentConditions/YellowBlueBlue_v2.xlsx,BlueBlueYellow,Conditions/Version_2/YellowHappyStop.xlsx,no,PASS,0.6194516353064884,,,,,,,,,0,0,0,0,0,0,0,0,0,8,8,8,,,,,,,,,,,,,,,,,,,,,,,,,,,,,,,,,,,,,,,,,,,,,,,,,,,,,,,,,,,,,,,,,,,,,,,,,,,,,,,1.97,397.7283516000025,None,space,1,0.32858880003914237,399.8035414000042,None,399.8035414000042,None,399.8035414000042,None,,,,,,,,,,,P023,fencog,2,Pre,2022_Feb_08_1040,Go No-Go Task,2021.1.4,119.8029478382724,
,"Rule: When you see a yellow image, do not press 'spacebar'.",Images/Happy/AF30HAS.jpg,Happy,Yellow,Images/Yellow.jpg,None,ParentConditions/YellowBlueBlue_v2.xlsx,BlueBlueYellow,Conditions/Version_2/YellowHappyStop.xlsx,yes,PASS,0.7783721125891628,,,,,,,,,0,0,0,0,0,0,0,0,0,9,9,9,,,,,,,,,,,,,,,,,,,,,,,,,,,,,,,,,,,,,,,,,,,,,,,,,,,,,,,,,,,,,,,,,,,,,,,,,,,,,,,1.37,400.2026482000947,None,None,1,,401.67790450016037,None,401.67790450016037,None,401.67790450016037,None,,,,,,,,,,,P023,fencog,2,Pre,2022_Feb_08_1040,Go No-Go Task,2021.1.4,119.8029478382724,
,"Rule: When you see a yellow image, do not press 'spacebar'.",Images/Fearful/AF25AFS.jpg,Fear,Blue,Images/Blue.jpg,space,ParentConditions/YellowBlueBlue_v2.xlsx,BlueBlueYellow,Conditions/Version_2/YellowHappyStop.xlsx,no,PASS,0.9528113424204139,,,,,,,,,0,0,0,0,0,0,0,0,0,10,10,10,,,,,,,,,,,,,,,,,,,,,,,,,,,,,,,,,,,,,,,,,,,,,,,,,,,,,,,,,,,,,,,,,,,,,,,,,,,,,,,1.55,402.0771530000493,None,space,1,0.26109550008550286,403.7190413000062,None,403.7190413000062,None,403.7190413000062,None,,,,,,,,,,,P023,fencog,2,Pre,2022_Feb_08_1040,Go No-Go Task,2021.1.4,119.8029478382724,
,"Rule: When you see a yellow image, do not press 'spacebar'.",Images/Fearful/AF30AFS.jpg,Fear,Blue,Images/Blue.jpg,space,ParentConditions/YellowBlueBlue_v2.xlsx,BlueBlueYellow,Conditions/Version_2/YellowHappyStop.xlsx,no,PASS,0.022094815080431318,,,,,,,,,0,0,0,0,0,0,0,0,0,11,11,11,,,,,,,,,,,,,,,,,,,,,,,,,,,,,,,,,,,,,,,,,,,,,,,,,,,,,,,,,,,,,,,,,,,,,,,,,,,,,,,1.5,404.11839099996723,None,None,0,,405.71843939996324,None,405.71843939996324,None,405.71843939996324,None,,,,,,,,,,,P023,fencog,2,Pre,2022_Feb_08_1040,Go No-Go Task,2021.1.4,119.8029478382724,
,"Rule: When you see a yellow image, do not press 'spacebar'.",Images/Happy/BF10_HO.jpg,Happy,Yellow,Images/Yellow.jpg,None,ParentConditions/YellowBlueBlue_v2.xlsx,BlueBlueYellow,Conditions/Version_2/YellowHappyStop.xlsx,yes,PASS,0.5001600173303757,,,,,,,,,0,0,0,0,0,0,0,0,0,12,12,12,,,,,,,,,,,,,,,,,,,,,,,,,,,,,,,,,,,,,,,,,,,,,,,,,,,,,,,,,,,,,,,,,,,,,,,,,,,,,,,1.48,406.1175748000387,None,None,1,,407.7011800999753,None,407.7011800999753,None,407.7011800999753,None,,,,,,,,,,,P023,fencog,2,Pre,2022_Feb_08_1040,Go No-Go Task,2021.1.4,119.8029478382724,
,"Rule: When you see a yellow image, do not press 'spacebar'.",Images/Fearful/AM06_FO.jpg,Fear,Blue,Images/Blue.jpg,space,ParentConditions/YellowBlueBlue_v2.xlsx,BlueBlueYellow,Conditions/Version_2/YellowHappyStop.xlsx,no,PASS,0.578262378462087,,,,,,,,,0,0,0,0,0,0,0,0,0,13,13,13,,,,,,,,,,,,,,,,,,,,,,,,,,,,,,,,,,,,,,,,,,,,,,,,,,,,,,,,,,,,,,,,,,,,,,,,,,,,,,,1.94,408.100260599982,None,space,1,0.31822359981015325,410.1338913999498,None,410.1338913999498,None,410.1338913999498,None,,,,,,,,,,,P023,fencog,2,Pre,2022_Feb_08_1040,Go No-Go Task,2021.1.4,119.8029478382724,
,"Rule: When you see a yellow image, do not press 'spacebar'.",Images/Happy/AM24HAS.jpg,Happy,Yellow,Images/Yellow.jpg,None,ParentConditions/YellowBlueBlue_v2.xlsx,BlueBlueYellow,Conditions/Version_2/YellowHappyStop.xlsx,yes,PASS,0.39484184444569004,,,,,,,,,0,0,0,0,0,0,0,0,0,14,14,14,,,,,,,,,,,,,,,,,,,,,,,,,,,,,,,,,,,,,,,,,,,,,,,,,,,,,,,,,,,,,,,,,,,,,,,,,,,,,,,1.95,410.53286230005324,None,None,1,,412.57480069994926,None,412.57480069994926,None,412.57480069994926,None,,,,,,,,,,,P023,fencog,2,Pre,2022_Feb_08_1040,Go No-Go Task,2021.1.4,119.8029478382724,
,"Rule: When you see a yellow image, do not press 'spacebar'.",Images/Fearful/AF21AFS.jpg,Fear,Blue,Images/Blue.jpg,space,ParentConditions/YellowBlueBlue_v2.xlsx,BlueBlueYellow,Conditions/Version_2/YellowHappyStop.xlsx,no,PASS,0.6432231069793333,,,,,,,,,0,0,0,0,0,0,0,0,0,15,15,15,,,,,,,,,,,,,,,,,,,,,,,,,,,,,,,,,,,,,,,,,,,,,,,,,,,,,,,,,,,,,,,,,,,,,,,,,,,,,,,1.83,412.97388330008835,None,space,1,0.23278689989820123,414.90744570014067,None,414.90744570014067,None,414.90744570014067,None,,,,,,,,,,,P023,fencog,2,Pre,2022_Feb_08_1040,Go No-Go Task,2021.1.4,119.8029478382724,
,"Rule: When you see a yellow image, do not press 'spacebar'.",Images/Happy/AM06_HC.jpg,Happy,Yellow,Images/Yellow.jpg,None,ParentConditions/YellowBlueBlue_v2.xlsx,BlueBlueYellow,Conditions/Version_2/YellowHappyStop.xlsx,yes,PASS,0.7943976294198472,,,,,,,,,0,0,0,0,0,0,0,0,0,16,16,16,,,,,,,,,,,,,,,,,,,,,,,,,,,,,,,,,,,,,,,,,,,,,,,,,,,,,,,,,,,,,,,,,,,,,,,,,,,,,,,1.53,415.30656359996647,None,None,1,,416.94016709993593,None,416.94016709993593,None,416.94016709993593,None,,,,,,,,,,,P023,fencog,2,Pre,2022_Feb_08_1040,Go No-Go Task,2021.1.4,119.8029478382724,
,"Rule: When you see a yellow image, do not press 'spacebar'.",Images/Fearful/AF10_FC.jpg,Fear,Blue,Images/Blue.jpg,space,ParentConditions/YellowBlueBlue_v2.xlsx,BlueBlueYellow,Conditions/Version_2/YellowHappyStop.xlsx,no,PASS,0.4387172057805456,,,,,,,,,0,0,0,0,0,0,0,0,0,17,17,17,,,,,,,,,,,,,,,,,,,,,,,,,,,,,,,,,,,,,,,,,,,,,,,,,,,,,,,,,,,,,,,,,,,,,,,,,,,,,,,1.81,417.33925740001723,None,space,1,0.26834270008839667,419.2478102000896,None,419.2478102000896,None,419.2478102000896,None,,,,,,,,,,,P023,fencog,2,Pre,2022_Feb_08_1040,Go No-Go Task,2021.1.4,119.8029478382724,
,"Rule: When you see a yellow image, do not press 'spacebar'.",Images/Fearful/BM03_FC.jpg,Fear,Blue,Images/Blue.jpg,space,ParentConditions/YellowBlueBlue_v2.xlsx,BlueBlueYellow,Conditions/Version_2/YellowHappyStop.xlsx,no,PASS,0.20170262712346598,,,,,,,,,0,0,0,0,0,0,0,0,0,18,18,18,,,,,,,,,,,,,,,,,,,,,,,,,,,,,,,,,,,,,,,,,,,,,,,,,,,,,,,,,,,,,,,,,,,,,,,,,,,,,,,1.74,419.6469221999869,None,space,1,0.2911696000955999,421.4889193000272,None,421.4889193000272,None,421.4889193000272,None,,,,,,,,,,,P023,fencog,2,Pre,2022_Feb_08_1040,Go No-Go Task,2021.1.4,119.8029478382724,
,"Rule: When you see a yellow image, do not press 'spacebar'.",Images/Fearful/HM09_FC.jpg,Fear,Blue,Images/Blue.jpg,space,ParentConditions/YellowBlueBlue_v2.xlsx,BlueBlueYellow,Conditions/Version_2/YellowHappyStop.xlsx,no,PASS,0.15976906823467862,,,,,,,,,0,0,0,0,0,0,0,0,0,19,19,19,,,,,,,,,,,,,,,,,,,,,,,,,,,,,,,,,,,,,,,,,,,,,,,,,,,,,,,,,,,,,,,,,,,,,,,,,,,,,,,1.54,421.88787470012903,None,space,1,0.290308500174433,423.5298421001062,None,423.5298421001062,None,423.5298421001062,None,,,,,,,,,,,P023,fencog,2,Pre,2022_Feb_08_1040,Go No-Go Task,2021.1.4,119.8029478382724,
,"Rule: When you see a yellow image, do not press 'spacebar'.",Images/Fearful/AM04_FO.jpg,Fear,Blue,Images/Blue.jpg,space,ParentConditions/YellowBlueBlue_v2.xlsx,BlueBlueYellow,Conditions/Version_2/YellowHappyStop.xlsx,no,PASS,0.7842232797128176,,,,,,,,,0,0,0,0,0,0,0,0,0,20,20,20,,,,,,,,,,,,,,,,,,,,,,,,,,,,,,,,,,,,,,,,,,,,,,,,,,,,,,,,,,,,,,,,,,,,,,,,,,,,,,,1.66,423.9289184999652,None,space,1,0.33220970002003014,425.6959663000889,None,425.6959663000889,None,425.6959663000889,None,,,,,,,,,,,P023,fencog,2,Pre,2022_Feb_08_1040,Go No-Go Task,2021.1.4,119.8029478382724,
,"Rule: When you see a yellow image, do not press 'spacebar'.",Images/Fearful/AF11AFS.jpg,Fear,Blue,Images/Blue.jpg,space,ParentConditions/YellowBlueBlue_v2.xlsx,BlueBlueYellow,Conditions/Version_2/YellowHappyStop.xlsx,no,PASS,0.5758948553509043,,,,,,,,,0,0,0,0,0,0,0,0,0,21,21,21,,,,,,,,,,,,,,,,,,,,,,,,,,,,,,,,,,,,,,,,,,,,,,,,,,,,,,,,,,,,,,,,,,,,,,,,,,,,,,,1.34,426.0950931000989,None,space,1,0.2910818001255393,427.5370493000373,None,427.5370493000373,None,427.5370493000373,None,,,,,,,,,,,P023,fencog,2,Pre,2022_Feb_08_1040,Go No-Go Task,2021.1.4,119.8029478382724,
,"Rule: When you see a yellow image, do not press 'spacebar'.",Images/Fearful/AM10_FO.jpg,Fear,Blue,Images/Blue.jpg,space,ParentConditions/YellowBlueBlue_v2.xlsx,BlueBlueYellow,Conditions/Version_2/YellowHappyStop.xlsx,no,PASS,0.7516560744284169,,,,,,,,,0,0,0,0,0,0,0,0,0,22,22,22,,,,,,,,,,,,,,,,,,,,,,,,,,,,,,,,,,,,,,,,,,,,,,,,,,,,,,,,,,,,,,,,,,,,,,,,,,,,,,,1.31,427.936052700039,None,space,1,0.2909659000579268,429.3531400000211,None,429.3531400000211,None,429.3531400000211,None,,,,,,,,,,,P023,fencog,2,Pre,2022_Feb_08_1040,Go No-Go Task,2021.1.4,119.8029478382724,
,"Rule: When you see a yellow image, do not press 'spacebar'.",Images/Fearful/WF04_FC.jpg,Fear,Blue,Images/Blue.jpg,space,ParentConditions/YellowBlueBlue_v2.xlsx,BlueBlueYellow,Conditions/Version_2/YellowHappyStop.xlsx,no,PASS,0.8626299251261901,,,,,,,,,0,0,0,0,0,0,0,0,0,23,23,23,,,,,,,,,,,,,,,,,,,,,,,,,,,,,,,,,,,,,,,,,,,,,,,,,,,,,,,,,,,,,,,,,,,,,,,,,,,,,,,1.24,429.7522279000841,None,space,1,0.2931993999518454,431.09488960006274,None,431.09488960006274,None,431.09488960006274,None,,,,,,,,,,,P023,fencog,2,Pre,2022_Feb_08_1040,Go No-Go Task,2021.1.4,119.8029478382724,
,"Rule: When you see a yellow image, do not press 'spacebar'.",Images/Fearful/AF28AFS.jpg,Fear,Blue,Images/Blue.jpg,space,ParentConditions/YellowBlueBlue_v2.xlsx,BlueBlueYellow,Conditions/Version_2/YellowHappyStop.xlsx,no,PASS,0.7326117629083128,,,,,,,,,0,0,0,0,0,0,0,0,0,24,24,24,,,,,,,,,,,,,,,,,,,,,,,,,,,,,,,,,,,,,,,,,,,,,,,,,,,,,,,,,,,,,,,,,,,,,,,,,,,,,,,1.61,431.4933770999778,None,space,1,0.369797500083223,433.21035569999367,None,433.21035569999367,None,433.21035569999367,None,,,,,,,,,,,P023,fencog,2,Pre,2022_Feb_08_1040,Go No-Go Task,2021.1.4,119.8029478382724,
,"Rule: When you see a yellow image, do not press 'spacebar'.",Images/Fearful/WF11_FC.jpg,Fear,Blue,Images/Blue.jpg,space,ParentConditions/YellowBlueBlue_v2.xlsx,BlueBlueYellow,Conditions/Version_2/YellowHappyStop.xlsx,no,PASS,0.32883698788558013,,,,,,,,,0,0,0,0,0,0,0,0,0,25,25,25,,,,,,,,,,,,,,,,,,,,,,,,,,,,,,,,,,,,,,,,,,,,,,,,,,,,,,,,,,,,,,,,,,,,,,,,,,,,,,,1.59,433.6093878999818,None,space,1,0.34259619982913136,435.30147300008684,None,435.30147300008684,None,435.30147300008684,None,,,,,,,,,,,P023,fencog,2,Pre,2022_Feb_08_1040,Go No-Go Task,2021.1.4,119.8029478382724,
,"Rule: When you see a yellow image, do not press 'spacebar'.",Images/Fearful/AM17AFS.jpg,Fear,Blue,Images/Blue.jpg,space,ParentConditions/YellowBlueBlue_v2.xlsx,BlueBlueYellow,Conditions/Version_2/YellowHappyStop.xlsx,no,PASS,0.2011457593950874,,,,,,,,,0,0,0,0,0,0,0,0,0,26,26,26,,,,,,,,,,,,,,,,,,,,,,,,,,,,,,,,,,,,,,,,,,,,,,,,,,,,,,,,,,,,,,,,,,,,,,,,,,,,,,,1.68,435.70048280013725,None,space,1,0.32821650011464953,437.47582300007343,None,437.47582300007343,None,437.47582300007343,None,,,,,,,,,,,P023,fencog,2,Pre,2022_Feb_08_1040,Go No-Go Task,2021.1.4,119.8029478382724,
,"Rule: When you see a yellow image, do not press 'spacebar'.",Images/Happy/AF27HAS.jpg,Happy,Yellow,Images/Yellow.jpg,None,ParentConditions/YellowBlueBlue_v2.xlsx,BlueBlueYellow,Conditions/Version_2/YellowHappyStop.xlsx,yes,PASS,0.03113428438097654,,,,,,,,,0,0,0,0,0,0,0,0,0,27,27,27,,,,,,,,,,,,,,,,,,,,,,,,,,,,,,,,,,,,,,,,,,,,,,,,,,,,,,,,,,,,,,,,,,,,,,,,,,,,,,,1.63,437.87565469997935,None,None,1,,439.60853120009415,None,439.60853120009415,None,439.60853120009415,None,,,,,,,,,,,P023,fencog,2,Pre,2022_Feb_08_1040,Go No-Go Task,2021.1.4,119.8029478382724,
,"Rule: When you see a yellow image, do not press 'spacebar'.",Images/Fearful/BF10_FO.jpg,Fear,Blue,Images/Blue.jpg,space,ParentConditions/YellowBlueBlue_v2.xlsx,BlueBlueYellow,Conditions/Version_2/YellowHappyStop.xlsx,no,PASS,0.8821344053441019,,,,,,,,,0,0,0,0,0,0,0,0,0,28,28,28,,,,,,,,,,,,,,,,,,,,,,,,,,,,,,,,,,,,,,,,,,,,,,,,,,,,,,,,,,,,,,,,,,,,,,,,,,,,,,,1.43,440.00750910001807,None,space,1,0.270601199939847,441.5414744000882,None,441.5414744000882,None,441.5414744000882,None,,,,,,,,,,,P023,fencog,2,Pre,2022_Feb_08_1040,Go No-Go Task,2021.1.4,119.8029478382724,
,"Rule: When you see a yellow image, do not press 'spacebar'.",Images/Fearful/HF04_FO.jpg,Fear,Blue,Images/Blue.jpg,space,ParentConditions/YellowBlueBlue_v2.xlsx,BlueBlueYellow,Conditions/Version_2/YellowHappyStop.xlsx,no,PASS,0.10236928865186712,,,,,,,,,0,0,0,0,0,0,0,0,0,29,29,29,,,,,,,,,,,,,,,,,,,,,,,,,,,,,,,,,,,,,,,,,,,,,,,,,,,,,,,,,,,,,,,,,,,,,,,,,,,,,,,1.91,441.9409747000318,None,space,1,0.29461240000091493,443.965503500076,None,443.965503500076,None,443.965503500076,None,,,,,,,,,,,P023,fencog,2,Pre,2022_Feb_08_1040,Go No-Go Task,2021.1.4,119.8029478382724,
,"Rule: When you see a yellow image, do not press 'spacebar'.",Images/Happy/AF26HAS.jpg,Happy,Yellow,Images/Yellow.jpg,None,ParentConditions/YellowBlueBlue_v2.xlsx,BlueBlueYellow,Conditions/Version_2/YellowHappyStop.xlsx,yes,PASS,0.3122778532266225,,,,,,,,,0,0,0,0,0,0,0,0,0,30,30,30,,,,,,,,,,,,,,,,,,,,,,,,,,,,,,,,,,,,,,,,,,,,,,,,,,,,,,,,,,,,,,,,,,,,,,,,,,,,,,,1.27,444.36460400000215,None,None,1,,445.74013950000517,None,445.74013950000517,None,445.74013950000517,None,,,,,,,,,,,P023,fencog,2,Pre,2022_Feb_08_1040,Go No-Go Task,2021.1.4,119.8029478382724,
,"Rule: When you see a yellow image, do not press 'spacebar'.",Images/Happy/HF09_HE.jpg,Happy,Yellow,Images/Yellow.jpg,None,ParentConditions/YellowBlueBlue_v2.xlsx,BlueBlueYellow,Conditions/Version_2/YellowHappyStop.xlsx,yes,PASS,0.8889954581367391,,,,,,,,,0,0,0,0,0,0,0,0,0,31,31,31,,,,,,,,,,,,,,,,,,,,,,,,,,,,,,,,,,,,,,,,,,,,,,,,,,,,,,,,,,,,,,,,,,,,,,,,,,,,,,,1.78,446.14021890005097,None,None,1,,448.02273029997014,None,448.02273029997014,None,448.02273029997014,None,,,,,,,,,,,P023,fencog,2,Pre,2022_Feb_08_1040,Go No-Go Task,2021.1.4,119.8029478382724,
,"Rule: When you see a yellow image, do not press 'spacebar'.",Images/Fearful/AM16AFS.jpg,Fear,Blue,Images/Blue.jpg,space,ParentConditions/YellowBlueBlue_v2.xlsx,BlueBlueYellow,Conditions/Version_2/YellowHappyStop.xlsx,no,PASS,0.3485636078399603,,,,,,,,,0,0,0,0,0,0,0,0,0,32,32,32,,,,,,,,,,,,,,,,,,,,,,,,,,,,,,,,,,,,,,,,,,,,,,,,,,,,,,,,,,,,,,,,,,,,,,,,,,,,,,,1.51,448.42170589999296,None,space,1,0.34173159999772906,450.0304066000972,None,450.0304066000972,None,450.0304066000972,None,,,,,,,,,,,P023,fencog,2,Pre,2022_Feb_08_1040,Go No-Go Task,2021.1.4,119.8029478382724,
,"Rule: When you see a yellow image, do not press 'spacebar'.",Images/Fearful/WF05_FO.jpg,Fear,Blue,Images/Blue.jpg,space,ParentConditions/YellowBlueBlue_v2.xlsx,BlueBlueYellow,Conditions/Version_2/YellowHappyStop.xlsx,no,PASS,0.571161037699378,,,,,,,,,0,0,0,0,0,0,0,0,0,33,33,33,,,,,,,,,,,,,,,,,,,,,,,,,,,,,,,,,,,,,,,,,,,,,,,,,,,,,,,,,,,,,,,,,,,,,,,,,,,,,,,1.57,450.4296330001671,None,space,1,0.2833534001838416,452.104799099965,None,452.104799099965,None,452.104799099965,None,,,,,,,,,,,P023,fencog,2,Pre,2022_Feb_08_1040,Go No-Go Task,2021.1.4,119.8029478382724,
,"Rule: When you see a yellow image, do not press 'spacebar'.",Images/Fearful/AM03_FC.jpg,Fear,Blue,Images/Blue.jpg,space,ParentConditions/YellowBlueBlue_v2.xlsx,BlueBlueYellow,Conditions/Version_2/YellowHappyStop.xlsx,no,PASS,0.795310308756252,,,,,,,,,0,0,0,0,0,0,0,0,0,34,34,34,,,,,,,,,,,,,,,,,,,,,,,,,,,,,,,,,,,,,,,,,,,,,,,,,,,,,,,,,,,,,,,,,,,,,,,,,,,,,,,1.93,452.503870600136,None,space,1,0.25718099996447563,454.5791259999387,None,454.5791259999387,None,454.5791259999387,None,,,,,,,,,,,P023,fencog,2,Pre,2022_Feb_08_1040,Go No-Go Task,2021.1.4,119.8029478382724,
,"Rule: When you see a yellow image, do not press 'spacebar'.",Images/Fearful/AM01AFS.jpg,Fear,Blue,Images/Blue.jpg,space,ParentConditions/YellowBlueBlue_v2.xlsx,BlueBlueYellow,Conditions/Version_2/YellowHappyStop.xlsx,no,PASS,0.0960655228006344,,,,,,,,,0,0,0,0,0,0,0,0,0,35,35,35,,,,,,,,,,,,,,,,,,,,,,,,,,,,,,,,,,,,,,,,,,,,,,,,,,,,,,,,,,,,,,,,,,,,,,,,,,,,,,,1.39,454.94479240011424,None,space,1,0.2953083999454975,456.43679820001125,None,456.43679820001125,None,456.43679820001125,None,,,,,,,,,,,P023,fencog,2,Pre,2022_Feb_08_1040,Go No-Go Task,2021.1.4,119.8029478382724,
,"Rule: When you see a yellow image, do not press 'spacebar'.",Images/Fearful/HM04_FC.jpg,Fear,Blue,Images/Blue.jpg,space,ParentConditions/YellowBlueBlue_v2.xlsx,BlueBlueYellow,Conditions/Version_2/YellowHappyStop.xlsx,no,PASS,0.2671765254267089,,,,,,,,,0,0,0,0,0,0,0,0,0,36,36,36,,,,,,,,,,,,,,,,,,,,,,,,,,,,,,,,,,,,,,,,,,,,,,,,,,,,,,,,,,,,,,,,,,,,,,,,,,,,,,,1.92,456.83591130003333,None,space,1,0.26299370010383427,458.8610827999655,None,458.8610827999655,None,458.8610827999655,None,,,,,,,,,,,P023,fencog,2,Pre,2022_Feb_08_1040,Go No-Go Task,2021.1.4,119.8029478382724,
,"Rule: When you see a yellow image, do not press 'spacebar'.",Images/Fearful/BF18_FC.jpg,Fear,Blue,Images/Blue.jpg,space,ParentConditions/YellowBlueBlue_v2.xlsx,BlueBlueYellow,Conditions/Version_2/YellowHappyStop.xlsx,no,PASS,0.30493199358976686,,,,,,,,,0,0,0,0,0,0,0,0,0,37,37,37,,,,,,,,,,,,,,,,,,,,,,,,,,,,,,,,,,,,,,,,,,,,,,,,,,,,,,,,,,,,,,,,,,,,,,,,,,,,,,,1.33,459.2604680999648,None,space,1,0.27018440002575517,460.69392869994044,None,460.69392869994044,None,460.69392869994044,None,,,,,,,,,,,P023,fencog,2,Pre,2022_Feb_08_1040,Go No-Go Task,2021.1.4,119.8029478382724,
,"Rule: When you see a yellow image, do not press 'spacebar'.",Images/Fearful/AF07_FO.jpg,Fear,Blue,Images/Blue.jpg,space,ParentConditions/YellowBlueBlue_v2.xlsx,BlueBlueYellow,Conditions/Version_2/YellowHappyStop.xlsx,no,PASS,0.06571981152440787,,,,,,,,,0,0,0,0,0,0,0,0,0,38,38,38,,,,,,,,,,,,,,,,,,,,,,,,,,,,,,,,,,,,,,,,,,,,,,,,,,,,,,,,,,,,,,,,,,,,,,,,,,,,,,,1.21,461.09315020008944,None,space,1,0.26613290002569556,462.41008369997144,None,462.41008369997144,None,462.41008369997144,None,,,,,,,,,,,P023,fencog,2,Pre,2022_Feb_08_1040,Go No-Go Task,2021.1.4,119.8029478382724,
,"Rule: When you see a yellow image, do not press 'spacebar'.",Images/Fearful/AM24AFS.jpg,Fear,Blue,Images/Blue.jpg,space,ParentConditions/YellowBlueBlue_v2.xlsx,BlueBlueYellow,Conditions/Version_2/YellowHappyStop.xlsx,no,PASS,0.23738601052691555,,,,,,,,,0,0,0,0,0,0,0,0,0,39,39,39,,,,,,,,,,,,,,,,,,,,,,,,,,,,,,,,,,,,,,,,,,,,,,,,,,,,,,,,,,,,,,,,,,,,,,,,,,,,,,,1.29,462.80917110014707,None,space,1,0.26682669995352626,464.2011845000088,None,464.2011845000088,None,464.2011845000088,None,,,,,,,,,,,P023,fencog,2,Pre,2022_Feb_08_1040,Go No-Go Task,2021.1.4,119.8029478382724,
,"Rule: When you see a yellow image, do not press 'spacebar'.",Images/Fearful/AM03AFS.jpg,Fear,Blue,Images/Blue.jpg,space,ParentConditions/YellowBlueBlue_v2.xlsx,BlueBlueYellow,Conditions/Version_2/YellowHappyStop.xlsx,no,PASS,0.9496981002344779,,,,,,,,,0,0,0,0,0,0,0,0,0,40,40,40,,,,,,,,,,,,,,,,,,,,,,,,,,,,,,,,,,,,,,,,,,,,,,,,,,,,,,,,,,,,,,,,,,,,,,,,,,,,,,,1.56,464.60025890008546,None,space,1,0.3527279000263661,466.26733760000207,None,466.26733760000207,None,466.26733760000207,None,,,,,,,,,,,P023,fencog,2,Pre,2022_Feb_08_1040,Go No-Go Task,2021.1.4,119.8029478382724,
,"Rule: When you see a yellow image, do not press 'spacebar'.",Images/Fearful/BM08_FC.jpg,Fear,Blue,Images/Blue.jpg,space,ParentConditions/YellowBlueBlue_v2.xlsx,BlueBlueYellow,Conditions/Version_2/YellowHappyStop.xlsx,no,PASS,0.9731806168242675,,,,,,,,,0,0,0,0,0,0,0,0,0,41,41,41,,,,,,,,,,,,,,,,,,,,,,,,,,,,,,,,,,,,,,,,,,,,,,,,,,,,,,,,,,,,,,,,,,,,,,,,,,,,,,,1.79,466.666734599974,None,space,1,0.3498505998868495,468.5587480000686,None,468.5587480000686,None,468.5587480000686,None,,,,,,,,,,,P023,fencog,2,Pre,2022_Feb_08_1040,Go No-Go Task,2021.1.4,119.8029478382724,
,"Rule: When you see a yellow image, do not press 'spacebar'.",Images/Fearful/AF32AFS.jpg,Fear,Blue,Images/Blue.jpg,space,ParentConditions/YellowBlueBlue_v2.xlsx,BlueBlueYellow,Conditions/Version_2/YellowHappyStop.xlsx,no,PASS,0.6516797726115628,,,,,,,,,0,0,0,0,0,0,0,0,0,42,42,42,,,,,,,,,,,,,,,,,,,,,,,,,,,,,,,,,,,,,,,,,,,,,,,,,,,,,,,,,,,,,,,,,,,,,,,,,,,,,,,1.89,468.9666440000292,None,space,1,0.2941024999599904,470.9580538000446,None,470.9580538000446,None,470.9580538000446,None,,,,,,,,,,,P023,fencog,2,Pre,2022_Feb_08_1040,Go No-Go Task,2021.1.4,119.8029478382724,
,"Rule: When you see a yellow image, do not press 'spacebar'.",Images/Fearful/AF26AFS.jpg,Fear,Blue,Images/Blue.jpg,space,ParentConditions/YellowBlueBlue_v2.xlsx,BlueBlueYellow,Conditions/Version_2/YellowHappyStop.xlsx,no,PASS,0.7646464028460872,,,,,,,,,0,0,0,0,0,0,0,0,0,43,43,43,,,,,,,,,,,,,,,,,,,,,,,,,,,,,,,,,,,,,,,,,,,,,,,,,,,,,,,,,,,,,,,,,,,,,,,,,,,,,,,1.65,471.3583744999487,None,space,1,0.30411210004240274,473.1162954000756,None,473.1162954000756,None,473.1162954000756,None,,,,,,,,,,,P023,fencog,2,Pre,2022_Feb_08_1040,Go No-Go Task,2021.1.4,119.8029478382724,
,"Rule: When you see a yellow image, do not press 'spacebar'.",Images/Fearful/BF09_FC.jpg,Fear,Blue,Images/Blue.jpg,space,ParentConditions/YellowBlueBlue_v2.xlsx,BlueBlueYellow,Conditions/Version_2/YellowHappyStop.xlsx,no,PASS,0.026085524820318784,,,,,,,,,0,0,0,0,0,0,0,0,0,44,44,44,,,,,,,,,,,,,,,,,,,,,,,,,,,,,,,,,,,,,,,,,,,,,,,,,,,,,,,,,,,,,,,,,,,,,,,,,,,,,,,1.22,473.52288469998166,None,space,1,0.29322630004025996,474.84828640008345,None,474.84828640008345,None,474.84828640008345,None,,,,,,,,,,,P023,fencog,2,Pre,2022_Feb_08_1040,Go No-Go Task,2021.1.4,119.8029478382724,
,"Rule: When you see a yellow image, do not press 'spacebar'.",Images/Fearful/BM01_FO.jpg,Fear,Blue,Images/Blue.jpg,space,ParentConditions/YellowBlueBlue_v2.xlsx,BlueBlueYellow,Conditions/Version_2/YellowHappyStop.xlsx,no,PASS,0.5546632244892579,,,,,,,,,0,0,0,0,0,0,0,0,0,45,45,45,,,,,,,,,,,,,,,,,,,,,,,,,,,,,,,,,,,,,,,,,,,,,,,,,,,,,,,,,,,,,,,,,,,,,,,,,,,,,,,1.52,475.25208700005896,None,space,1,0.283274499932304,476.87293680012226,None,476.87293680012226,None,476.87293680012226,None,,,,,,,,,,,P023,fencog,2,Pre,2022_Feb_08_1040,Go No-Go Task,2021.1.4,119.8029478382724,
,"Rule: When you see a yellow image, do not press 'spacebar'.",Images/Happy/BF14_HO.jpg,Happy,Yellow,Images/Yellow.jpg,None,ParentConditions/YellowBlueBlue_v2.xlsx,BlueBlueYellow,Conditions/Version_2/YellowHappyStop.xlsx,yes,PASS,0.8128181362801364,,,,,,,,,0,0,0,0,0,0,0,0,0,46,46,46,,,,,,,,,,,,,,,,,,,,,,,,,,,,,,,,,,,,,,,,,,,,,,,,,,,,,,,,,,,,,,,,,,,,,,,,,,,,,,,1.26,477.2735462000128,None,None,1,,478.6389812999405,None,478.6389812999405,None,478.6389812999405,None,,,,,,,,,,,P023,fencog,2,Pre,2022_Feb_08_1040,Go No-Go Task,2021.1.4,119.8029478382724,
,"Rule: When you see a yellow image, do not press 'spacebar'.",Images/Fearful/WM11_FC.jpg,Fear,Blue,Images/Blue.jpg,space,ParentConditions/YellowBlueBlue_v2.xlsx,BlueBlueYellow,Conditions/Version_2/YellowHappyStop.xlsx,no,PASS,0.9251187011996334,,,,,,,,,0,0,0,0,0,0,0,0,0,47,47,47,,,,,,,,,,,,,,,,,,,,,,,,,,,,,,,,,,,,,,,,,,,,,,,,,,,,,,,,,,,,,,,,,,,,,,,,,,,,,,,1.4,479.03859440004453,None,space,1,0.24134289985522628,480.5468379999511,None,480.5468379999511,None,480.5468379999511,None,,,,,,,,,,,P023,fencog,2,Pre,2022_Feb_08_1040,Go No-Go Task,2021.1.4,119.8029478382724,
,"Rule: When you see a yellow image, do not press 'spacebar'.",Images/Fearful/AM02_FO.jpg,Fear,Blue,Images/Blue.jpg,space,ParentConditions/YellowBlueBlue_v2.xlsx,BlueBlueYellow,Conditions/Version_2/YellowHappyStop.xlsx,no,PASS,0.0455811702140666,,,,,,,,,0,0,0,0,0,0,0,0,0,48,48,48,,,,,,,,,,,,,,,,,,,,,,,,,,,,,,,,,,,,,,,,,,,,,,,,,,,,,,,,,,,,,,,,,,,,,,,,,,,,,,,1.32,480.9454830000177,None,space,1,0.12080159992910922,482.3713020000141,None,482.3713020000141,None,482.3713020000141,None,,,,,,,,,,,P023,fencog,2,Pre,2022_Feb_08_1040,Go No-Go Task,2021.1.4,119.8029478382724,
,"Rule: When you see a yellow image, do not press 'spacebar'.",Images/Happy/HM09_HO.jpg,Happy,Yellow,Images/Yellow.jpg,None,ParentConditions/YellowBlueBlue_v2.xlsx,BlueBlueYellow,Conditions/Version_2/YellowHappyStop.xlsx,yes,PASS,0.3219974030212036,,,,,,,,,0,0,0,0,0,0,0,0,0,49,49,49,,,,,,,,,,,,,,,,,,,,,,,,,,,,,,,,,,,,,,,,,,,,,,,,,,,,,,,,,,,,,,,,,,,,,,,,,,,,,,,1.23,482.77740469994023,None,None,1,,484.11248370003887,None,484.11248370003887,None,484.11248370003887,None,,,,,,,,,,,P023,fencog,2,Pre,2022_Feb_08_1040,Go No-Go Task,2021.1.4,119.8029478382724,
,"Rule: When you see a yellow image, do not press 'spacebar'.",Images/Happy/HF10_HE.jpg,Happy,Yellow,Images/Yellow.jpg,None,ParentConditions/YellowBlueBlue_v2.xlsx,BlueBlueYellow,Conditions/Version_2/YellowHappyStop.xlsx,yes,PASS,0.5613535526914523,,,,,,,,,0,0,0,0,0,0,0,0,0,50,50,50,,,,,,,,,,,,,,,,,,,,,,,,,,,,,,,,,,,,,,,,,,,,,,,,,,,,,,,,,,,,,,,,,,,,,,,,,,,,,,,1.62,484.51166920014657,None,None,1,,486.2368950000964,None,486.2368950000964,None,486.2368950000964,None,,,,,,,,,,,P023,fencog,2,Pre,2022_Feb_08_1040,Go No-Go Task,2021.1.4,119.8029478382724,
,"Rule: When you see a yellow image, do not press 'spacebar'.",Images/Fearful/AF09AFS.jpg,Fear,Blue,Images/Blue.jpg,space,ParentConditions/YellowBlueBlue_v2.xlsx,BlueBlueYellow,Conditions/Version_2/YellowHappyStop.xlsx,no,PASS,0.5511492847876154,,,,,,,,,0,0,0,0,0,0,0,0,0,51,51,51,,,,,,,,,,,,,,,,,,,,,,,,,,,,,,,,,,,,,,,,,,,,,,,,,,,,,,,,,,,,,,,,,,,,,,,,,,,,,,,1.6,486.6360852001235,None,space,1,0.2521490000654012,488.33602040004916,None,488.33602040004916,None,488.33602040004916,None,,,,,,,,,,,P023,fencog,2,Pre,2022_Feb_08_1040,Go No-Go Task,2021.1.4,119.8029478382724,
,"Rule: When you see a yellow image, do not press 'spacebar'.",Images/Fearful/AM23AFS.jpg,Fear,Blue,Images/Blue.jpg,space,ParentConditions/YellowBlueBlue_v2.xlsx,BlueBlueYellow,Conditions/Version_2/YellowHappyStop.xlsx,no,PASS,0.2159972500516506,,,,,,,,,0,0,0,0,0,0,0,0,0,52,52,52,,,,,,,,,,,,,,,,,,,,,,,,,,,,,,,,,,,,,,,,,,,,,,,,,,,,,,,,,,,,,,,,,,,,,,,,,,,,,,,1.87,488.74122440000065,None,space,1,0.2847560001537204,490.7353995000012,None,490.7353995000012,None,490.7353995000012,None,,,,,,,,,,,P023,fencog,2,Pre,2022_Feb_08_1040,Go No-Go Task,2021.1.4,119.8029478382724,
,"Rule: When you see a yellow image, do not press 'spacebar'.",Images/Fearful/AM05AFS.jpg,Fear,Blue,Images/Blue.jpg,space,ParentConditions/YellowBlueBlue_v2.xlsx,BlueBlueYellow,Conditions/Version_2/YellowHappyStop.xlsx,no,PASS,0.18827335330329198,,,,,,,,,0,0,0,0,0,0,0,0,0,53,53,53,,,,,,,,,,,,,,,,,,,,,,,,,,,,,,,,,,,,,,,,,,,,,,,,,,,,,,,,,,,,,,,,,,,,,,,,,,,,,,,1.41,491.12640190008096,None,space,1,0.26534669985994697,492.6431551000569,None,492.6431551000569,None,492.6431551000569,None,,,,,,,,,,,P023,fencog,2,Pre,2022_Feb_08_1040,Go No-Go Task,2021.1.4,119.8029478382724,
,"Rule: When you see a yellow image, do not press 'spacebar'.",Images/Happy/AF28HAS.jpg,Happy,Yellow,Images/Yellow.jpg,None,ParentConditions/YellowBlueBlue_v2.xlsx,BlueBlueYellow,Conditions/Version_2/YellowHappyStop.xlsx,yes,PASS,0.7444008667159328,,,,,,,,,0,0,0,0,0,0,0,0,0,54,54,54,,,,,,,,,,,,,,,,,,,,,,,,,,,,,,,,,,,,,,,,,,,,,,,,,,,,,,,,,,,,,,,,,,,,,,,,,,,,,,,2,493.0458192001097,None,None,1,,495.15079800016247,None,495.15079800016247,None,495.15079800016247,None,,,,,,,,,,,P023,fencog,2,Pre,2022_Feb_08_1040,Go No-Go Task,2021.1.4,119.8029478382724,
,"Rule: When you see a yellow image, do not press 'spacebar'.",Images/Fearful/BF14_FO.jpg,Fear,Blue,Images/Blue.jpg,space,ParentConditions/YellowBlueBlue_v2.xlsx,BlueBlueYellow,Conditions/Version_2/YellowHappyStop.xlsx,no,PASS,0.036114312510467594,,,,,,,,,0,0,0,0,0,0,0,0,0,55,55,55,,,,,,,,,,,,,,,,,,,,,,,,,,,,,,,,,,,,,,,,,,,,,,,,,,,,,,,,,,,,,,,,,,,,,,,,,,,,,,,1.96,495.5502623000648,None,space,1,0.2354184000287205,497.6168897000607,None,497.6168897000607,None,497.6168897000607,None,,,,,,,,,,,P023,fencog,2,Pre,2022_Feb_08_1040,Go No-Go Task,2021.1.4,119.8029478382724,
,"Rule: When you see a yellow image, do not press 'spacebar'.",Images/Happy/AM30HAS.jpg,Happy,Yellow,Images/Yellow.jpg,None,ParentConditions/YellowBlueBlue_v2.xlsx,BlueBlueYellow,Conditions/Version_2/YellowHappyStop.xlsx,yes,PASS,0.9276323490247724,,,,,,,,,0,0,0,0,0,0,0,0,0,56,56,56,,,,,,,,,,,,,,,,,,,,,,,,,,,,,,,,,,,,,,,,,,,,,,,,,,,,,,,,,,,,,,,,,,,,,,,,,,,,,,,1.44,498.0169999001082,None,None,1,,499.55775219993666,None,499.55775219993666,None,499.55775219993666,None,,,,,,,,,,,P023,fencog,2,Pre,2022_Feb_08_1040,Go No-Go Task,2021.1.4,119.8029478382724,
,"Rule: When you see a yellow image, do not press 'spacebar'.",Images/Fearful/AF27AFS.jpg,Fear,Blue,Images/Blue.jpg,space,ParentConditions/YellowBlueBlue_v2.xlsx,BlueBlueYellow,Conditions/Version_2/YellowHappyStop.xlsx,no,PASS,0.9674336643747157,,,,,,,,,0,0,0,0,0,0,0,0,0,57,57,57,,,,,,,,,,,,,,,,,,,,,,,,,,,,,,,,,,,,,,,,,,,,,,,,,,,,,,,,,,,,,,,,,,,,,,,,,,,,,,,1.72,499.9569068001583,None,space,1,0.24658959987573326,501.78204650012776,None,501.78204650012776,None,501.78204650012776,None,,,,,,,,,,,P023,fencog,2,Pre,2022_Feb_08_1040,Go No-Go Task,2021.1.4,119.8029478382724,
,"Rule: When you see a yellow image, do not press 'spacebar'.",Images/Fearful/AM32AFS.jpg,Fear,Blue,Images/Blue.jpg,space,ParentConditions/YellowBlueBlue_v2.xlsx,BlueBlueYellow,Conditions/Version_2/YellowHappyStop.xlsx,no,PASS,0.5429320828851499,,,,,,,,,0,0,0,0,0,0,0,0,0,58,58,58,,,,,,,,,,,,,,,,,,,,,,,,,,,,,,,,,,,,,,,,,,,,,,,,,,,,,,,,,,,,,,,,,,,,,,,,,,,,,,,1.99,502.1813895001542,None,space,1,0.2753806000109762,504.27277510007843,None,504.27277510007843,None,504.27277510007843,None,,,,,,,,,,,P023,fencog,2,Pre,2022_Feb_08_1040,Go No-Go Task,2021.1.4,119.8029478382724,
,"Rule: When you see a yellow image, do not press 'spacebar'.",Images/Fearful/AM09_FO.jpg,Fear,Blue,Images/Blue.jpg,space,ParentConditions/YellowBlueBlue_v2.xlsx,BlueBlueYellow,Conditions/Version_2/YellowHappyStop.xlsx,no,PASS,0.5248989229975377,,,,,,,,,0,0,0,0,0,0,0,0,0,59,59,59,,,,,,,,,,,,,,,,,,,,,,,,,,,,,,,,,,,,,,,,,,,,,,,,,,,,,,,,,,,,,,,,,,,,,,,,,,,,,,,1.45,504.67211450007744,None,space,1,0.24585899990051985,506.22252160008065,None,506.22252160008065,None,506.22252160008065,None,,,,,,,,,,,P023,fencog,2,Pre,2022_Feb_08_1040,Go No-Go Task,2021.1.4,119.8029478382724,
,"Rule: When you see a yellow image, do not press 'spacebar'.",Images/Fearful/AF01_FO.jpg,Fear,Blue,Images/Blue.jpg,space,ParentConditions/YellowBlueBlue_v2.xlsx,BlueBlueYellow,Conditions/Version_2/YellowHappyStop.xlsx,no,PASS,0.007145119379767917,,,,,,,,,0,0,0,0,0,0,0,0,0,60,60,60,,,,,,,,,,,,,,,,,,,,,,,,,,,,,,,,,,,,,,,,,,,,,,,,,,,,,,,,,,,,,,,,,,,,,,,,,,,,,,,1.82,506.62810180010274,None,space,1,0.3767758999019861,508.5635488999542,None,508.5635488999542,None,508.5635488999542,None,,,,,,,,,,,P023,fencog,2,Pre,2022_Feb_08_1040,Go No-Go Task,2021.1.4,119.8029478382724,
,"Rule: When you see a yellow image, do not press 'spacebar'.",Images/Happy/AM10_HO.jpg,Happy,Yellow,Images/Yellow.jpg,None,ParentConditions/YellowBlueBlue_v2.xlsx,BlueBlueYellow,Conditions/Version_2/YellowHappyStop.xlsx,yes,PASS,0.8341186478720962,,,,,,,,,0,0,0,0,0,0,0,0,0,61,61,61,,,,,,,,,,,,,,,,,,,,,,,,,,,,,,,,,,,,,,,,,,,,,,,,,,,,,,,,,,,,,,,,,,,,,,,,,,,,,,,1.7,508.96266830014065,None,None,1,,510.7626916000154,None,510.7626916000154,None,510.7626916000154,None,,,,,,,,,,,P023,fencog,2,Pre,2022_Feb_08_1040,Go No-Go Task,2021.1.4,119.8029478382724,
,"Rule: When you see a yellow image, do not press 'spacebar'.",Images/Happy/AM22HAS.jpg,Happy,Yellow,Images/Yellow.jpg,None,ParentConditions/YellowBlueBlue_v2.xlsx,BlueBlueYellow,Conditions/Version_2/YellowHappyStop.xlsx,yes,PASS,0.6172419840647391,,,,,,,,,0,0,0,0,0,0,0,0,0,62,62,62,,,,,,,,,,,,,,,,,,,,,,,,,,,,,,,,,,,,,,,,,,,,,,,,,,,,,,,,,,,,,,,,,,,,,,,,,,,,,,,1.47,511.16754040005617,None,None,1,,512.7454079000745,None,512.7454079000745,None,512.7454079000745,None,,,,,,,,,,,P023,fencog,2,Pre,2022_Feb_08_1040,Go No-Go Task,2021.1.4,119.8029478382724,
,"Rule: When you see a yellow image, do not press 'spacebar'.",Images/Fearful/AM22AFS.jpg,Fear,Blue,Images/Blue.jpg,space,ParentConditions/YellowBlueBlue_v2.xlsx,BlueBlueYellow,Conditions/Version_2/YellowHappyStop.xlsx,no,PASS,0.13735844586330215,,,,,,,,,0,0,0,0,0,0,0,0,0,63,63,63,,,,,,,,,,,,,,,,,,,,,,,,,,,,,,,,,,,,,,,,,,,,,,,,,,,,,,,,,,,,,,,,,,,,,,,,,,,,,,,1.9,513.1462008999661,None,space,1,0.33112669992260635,515.1530220999848,None,515.1530220999848,None,515.1530220999848,None,,,,,,,,,,,P023,fencog,2,Pre,2022_Feb_08_1040,Go No-Go Task,2021.1.4,119.8029478382724,
,"Rule: When you see a yellow image, do not press 'spacebar'.",Images/Happy/BM08_HO.jpg,Happy,Yellow,Images/Yellow.jpg,None,ParentConditions/YellowBlueBlue_v2.xlsx,BlueBlueYellow,Conditions/Version_2/YellowHappyStop.xlsx,yes,PASS,0.19822628709829182,,,,,,,,,0,0,0,0,0,0,0,0,0,64,64,64,,,,,,,,,,,,,,,,,,,,,,,,,,,,,,,,,,,,,,,,,,,,,,,,,,,,,,,,,,,,,,,,,,,,,,,,,,,,,,,1.86,515.552816499956,None,space,0,0.22114409995265305,517.519018900115,None,517.519018900115,None,517.519018900115,None,,,,,,,,,,,P023,fencog,2,Pre,2022_Feb_08_1040,Go No-Go Task,2021.1.4,119.8029478382724,
,"Rule: When you see a yellow image, do not press 'spacebar'.",Images/Fearful/AM19AFS.jpg,Fear,Blue,Images/Blue.jpg,space,ParentConditions/YellowBlueBlue_v2.xlsx,BlueBlueYellow,Conditions/Version_2/YellowHappyStop.xlsx,no,PASS,0.9846537447676192,,,,,,,,,0,0,0,0,0,0,0,0,0,65,65,65,,,,,,,,,,,,,,,,,,,,,,,,,,,,,,,,,,,,,,,,,,,,,,,,,,,,,,,,,,,,,,,,,,,,,,,,,,,,,,,1.73,517.9195272000507,None,space,1,0.30852869991213083,519.7516129000578,None,519.7516129000578,None,519.7516129000578,None,,,,,,,,,,,P023,fencog,2,Pre,2022_Feb_08_1040,Go No-Go Task,2021.1.4,119.8029478382724,
,"Rule: When you see a yellow image, do not press 'spacebar'.",Images/Fearful/AF23AFS.jpg,Fear,Blue,Images/Blue.jpg,space,ParentConditions/YellowBlueBlue_v2.xlsx,BlueBlueYellow,Conditions/Version_2/YellowHappyStop.xlsx,no,PASS,0.06538281980323435,,,,,,,,,0,0,0,0,0,0,0,0,0,66,66,66,,,,,,,,,,,,,,,,,,,,,,,,,,,,,,,,,,,,,,,,,,,,,,,,,,,,,,,,,,,,,,,,,,,,,,,,,,,,,,,1.28,520.1508532001171,None,space,1,0.30127949989400804,521.5511662999634,None,521.5511662999634,None,521.5511662999634,None,,,,,,,,,,,P023,fencog,2,Pre,2022_Feb_08_1040,Go No-Go Task,2021.1.4,119.8029478382724,
,"Rule: When you see a yellow image, do not press 'spacebar'.",Images/Fearful/AM13AFS.jpg,Fear,Blue,Images/Blue.jpg,space,ParentConditions/YellowBlueBlue_v2.xlsx,BlueBlueYellow,Conditions/Version_2/YellowHappyStop.xlsx,no,PASS,0.501942139065686,,,,,,,,,0,0,0,0,0,0,0,0,0,67,67,67,,,,,,,,,,,,,,,,,,,,,,,,,,,,,,,,,,,,,,,,,,,,,,,,,,,,,,,,,,,,,,,,,,,,,,,,,,,,,,,1.46,521.9384540000465,None,space,1,0.3034421999473125,523.500769100152,None,523.500769100152,None,523.500769100152,None,,,,,,,,,,,P023,fencog,2,Pre,2022_Feb_08_1040,Go No-Go Task,2021.1.4,119.8029478382724,
,"Rule: When you see a yellow image, do not press 'spacebar'.",Images/Fearful/HF09_FC.jpg,Fear,Blue,Images/Blue.jpg,space,ParentConditions/YellowBlueBlue_v2.xlsx,BlueBlueYellow,Conditions/Version_2/YellowHappyStop.xlsx,no,PASS,0.5863101312226996,,,,,,,,,0,0,0,0,0,0,0,0,0,68,68,68,,,,,,,,,,,,,,,,,,,,,,,,,,,,,,,,,,,,,,,,,,,,,,,,,,,,,,,,,,,,,,,,,,,,,,,,,,,,,,,1.75,523.9000820000656,None,space,1,0.19850599998608232,525.7500871000811,None,525.7500871000811,None,525.7500871000811,None,,,,,,,,,,,P023,fencog,2,Pre,2022_Feb_08_1040,Go No-Go Task,2021.1.4,119.8029478382724,
,"Rule: When you see a yellow image, do not press 'spacebar'.",Images/Fearful/AM04AFS.jpg,Fear,Blue,Images/Blue.jpg,space,ParentConditions/YellowBlueBlue_v2.xlsx,BlueBlueYellow,Conditions/Version_2/YellowHappyStop.xlsx,no,PASS,0.9464588162199873,,,,,,,,,0,0,0,0,0,0,0,0,0,69,69,69,,,,,,,,,,,,,,,,,,,,,,,,,,,,,,,,,,,,,,,,,,,,,,,,,,,,,,,,,,,,,,,,,,,,,,,,,,,,,,,1.77,526.1551799001172,None,space,1,0.23560690018348396,528.0327721999492,None,528.0327721999492,None,528.0327721999492,None,,,,,,,,,,,P023,fencog,2,Pre,2022_Feb_08_1040,Go No-Go Task,2021.1.4,119.8029478382724,
,"Rule: When you see a yellow image, do not press 'spacebar'.",Images/Fearful/AF02AFS.jpg,Fear,Blue,Images/Blue.jpg,space,ParentConditions/YellowBlueBlue_v2.xlsx,BlueBlueYellow,Conditions/Version_2/YellowHappyStop.xlsx,no,PASS,0.745835010449707,,,,,,,,,0,0,0,0,0,0,0,0,0,70,70,70,,,,,,,,,,,,,,,,,,,,,,,,,,,,,,,,,,,,,,,,,,,,,,,,,,,,,,,,,,,,,,,,,,,,,,,,,,,,,,,1.8,528.4327891001012,None,space,1,0.35210390016436577,530.3402958000079,None,530.3402958000079,None,530.3402958000079,None,,,,,,,,,,,P023,fencog,2,Pre,2022_Feb_08_1040,Go No-Go Task,2021.1.4,119.8029478382724,
,"Rule: When you see a yellow image, do not press 'spacebar'.",Images/Fearful/AM09AFS.jpg,Fear,Blue,Images/Blue.jpg,space,ParentConditions/YellowBlueBlue_v2.xlsx,BlueBlueYellow,Conditions/Version_2/YellowHappyStop.xlsx,no,PASS,0.8501894993195995,,,,,,,,,0,0,0,0,0,0,0,0,0,71,71,71,,,,,,,,,,,,,,,,,,,,,,,,,,,,,,,,,,,,,,,,,,,,,,,,,,,,,,,,,,,,,,,,,,,,,,,,,,,,,,,1.38,530.7405374001246,None,space,1,0.2852098001167178,532.2231652000919,None,532.2231652000919,None,532.2231652000919,None,,,,,,,,,,,P023,fencog,2,Pre,2022_Feb_08_1040,Go No-Go Task,2021.1.4,119.8029478382724,
,"Rule: When you see a yellow image, do not press 'spacebar'.",Images/Fearful/BF05_FO.jpg,Fear,Blue,Images/Blue.jpg,space,ParentConditions/YellowBlueBlue_v2.xlsx,BlueBlueYellow,Conditions/Version_2/YellowHappyStop.xlsx,no,PASS,0.41552487186891285,,,,,,,,,0,0,0,0,0,0,0,0,0,72,72,72,,,,,,,,,,,,,,,,,,,,,,,,,,,,,,,,,,,,,,,,,,,,,,,,,,,,,,,,,,,,,,,,,,,,,,,,,,,,,,,1.64,532.6227410000283,None,space,1,0.2961970998439938,534.364099000115,None,534.364099000115,None,534.364099000115,None,,,,,,,,,,,P023,fencog,2,Pre,2022_Feb_08_1040,Go No-Go Task,2021.1.4,119.8029478382724,
,"Rule: When you see a yellow image, do not press 'spacebar'.",Images/Fearful/AF22AFS.jpg,Fear,Blue,Images/Blue.jpg,space,ParentConditions/YellowBlueBlue_v2.xlsx,BlueBlueYellow,Conditions/Version_2/YellowHappyStop.xlsx,no,PASS,0.6701019786706065,,,,,,,,,0,0,0,0,0,0,0,0,0,73,73,73,,,,,,,,,,,,,,,,,,,,,,,,,,,,,,,,,,,,,,,,,,,,,,,,,,,,,,,,,,,,,,,,,,,,,,,,,,,,,,,1.36,534.7632757001556,None,space,1,0.22980410000309348,536.2303975999821,None,536.2303975999821,None,536.2303975999821,None,,,,,,,,,,,P023,fencog,2,Pre,2022_Feb_08_1040,Go No-Go Task,2021.1.4,119.8029478382724,
,"Rule: When you see a yellow image, do not press 'spacebar'.",Images/Happy/BF18_HO.jpg,Happy,Yellow,Images/Yellow.jpg,None,ParentConditions/YellowBlueBlue_v2.xlsx,BlueBlueYellow,Conditions/Version_2/YellowHappyStop.xlsx,yes,PASS,0.41437941694275227,,,,,,,,,0,0,0,0,0,0,0,0,0,74,74,74,,,,,,,,,,,,,,,,,,,,,,,,,,,,,,,,,,,,,,,,,,,,,,,,,,,,,,,,,,,,,,,,,,,,,,,,,,,,,,,1.69,536.6304602001328,None,space,0,0.23862519999966025,538.4214570999611,None,538.4214570999611,None,538.4214570999611,None,,,,,,,,,,,P023,fencog,2,Pre,2022_Feb_08_1040,Go No-Go Task,2021.1.4,119.8029478382724,
,"Rule: When you see a yellow image, do not press 'spacebar'.",Images/Fearful/WM12_FO.jpg,Fear,Blue,Images/Blue.jpg,space,ParentConditions/YellowBlueBlue_v2.xlsx,BlueBlueYellow,Conditions/Version_2/YellowHappyStop.xlsx,no,PASS,0.577397464904033,,,,,,,,,0,0,0,0,0,0,0,0,0,75,75,75,,,,,,,,,,,,,,,,,,,,,,,,,,,,,,,,,,,,,,,,,,,,,,,,,,,,,,,,,,,,,,,,,,,,,,,,,,,,,,,1.98,538.8218521000817,None,space,1,0.18843499990180135,540.9041015999392,None,540.9041015999392,None,540.9041015999392,None,,,,,,,,,,,P023,fencog,2,Pre,2022_Feb_08_1040,Go No-Go Task,2021.1.4,119.8029478382724,
,"Rule: When you see a yellow image, do not press 'spacebar'.",Images/Fearful/BF07_FO.jpg,Fear,Blue,Images/Blue.jpg,space,ParentConditions/YellowBlueBlue_v2.xlsx,BlueBlueYellow,Conditions/Version_2/YellowHappyStop.xlsx,no,PASS,0.3175910009200418,,,,,,,,,0,0,0,0,0,0,0,0,0,76,76,76,,,,,,,,,,,,,,,,,,,,,,,,,,,,,,,,,,,,,,,,,,,,,,,,,,,,,,,,,,,,,,,,,,,,,,,,,,,,,,,1.58,541.3027246000711,None,space,1,0.289939499925822,542.9865771001205,None,542.9865771001205,None,542.9865771001205,None,,,,,,,,,,,P023,fencog,2,Pre,2022_Feb_08_1040,Go No-Go Task,2021.1.4,119.8029478382724,
,"Rule: When you see a yellow image, do not press 'spacebar'.",Images/Fearful/HF10_FO.jpg,Fear,Blue,Images/Blue.jpg,space,ParentConditions/YellowBlueBlue_v2.xlsx,BlueBlueYellow,Conditions/Version_2/YellowHappyStop.xlsx,no,PASS,0.5511356040110476,,,,,,,,,0,0,0,0,0,0,0,0,0,77,77,77,,,,,,,,,,,,,,,,,,,,,,,,,,,,,,,,,,,,,,,,,,,,,,,,,,,,,,,,,,,,,,,,,,,,,,,,,,,,,,,1.88,543.392466600053,None,space,1,0.36267610010690987,545.3774653000291,None,545.3774653000291,None,545.3774653000291,None,,,,,,,,,,,P023,fencog,2,Pre,2022_Feb_08_1040,Go No-Go Task,2021.1.4,119.8029478382724,
,"Rule: When you see a yellow image, do not press 'spacebar'.",Images/Fearful/AM10AFS.jpg,Fear,Blue,Images/Blue.jpg,space,ParentConditions/YellowBlueBlue_v2.xlsx,BlueBlueYellow,Conditions/Version_2/YellowHappyStop.xlsx,no,PASS,0.516543326357497,,,,,,,,,0,0,0,0,0,0,0,0,0,78,78,78,,,,,,,,,,,,,,,,,,,,,,,,,,,,,,,,,,,,,,,,,,,,,,,,,,,,,,,,,,,,,,,,,,,,,,,,,,,,,,,1.49,545.7763710999861,None,space,1,0.2995488999877125,547.3687279999722,None,547.3687279999722,None,547.3687279999722,None,,,,,,,,,,,P023,fencog,2,Pre,2022_Feb_08_1040,Go No-Go Task,2021.1.4,119.8029478382724,
,"Rule: When you see a yellow image, do not press 'spacebar'.",Images/Happy/AM23HAS.jpg,Happy,Yellow,Images/Yellow.jpg,None,ParentConditions/YellowBlueBlue_v2.xlsx,BlueBlueYellow,Conditions/Version_2/YellowHappyStop.xlsx,yes,PASS,0.4223687412850129,,,,,,,,,0,0,0,0,0,0,0,0,0,79,79,79,,,,,,,,,,,,,,,,,,,,,,,,,,,,,,,,,,,,,,,,,,,,,,,,,,,,,,,,,,,,,,,,,,,,,,,,,,,,,,,1.3,547.7678561999928,None,None,1,,549.1684497001115,None,549.1684497001115,None,549.1684497001115,None,,,,,,,,,,,P023,fencog,2,Pre,2022_Feb_08_1040,Go No-Go Task,2021.1.4,119.8029478382724,
,"Rule: When you see blue image, do not press 'spacebar'.",Images/Fearful/HM06_FC.jpg,Fear,Blue,Images/Blue.jpg,None,ParentConditions/YellowBlueBlue_v2.xlsx,BlueBlueYellow,Conditions/Version_2/BlueFearStop.xlsx,yes,PASS,0.29049104493206235,,,,,,,,,0,0,0,0,0,1,1,1,0,0,0,0,,,,,,,,,,,,,,,,,,,,,,,,,,,,,,,,,,,,,,,,,,,,,,,,,,,,,,,,,,,,,,,,,569.8352349000052,None,572.8191216001287,None,space,3.241092700045556,572.8191216001287,None,569.8352349000052,None,569.8352349000052,None,569.8352349000052,None,1.54,576.1144048999995,None,None,1,,577.7597505999729,None,577.7597505999729,None,577.7597505999729,None,549.5900880999397,None,space,19.728306399891153,550.0838167001493,None,549.5900880999397,None,549.5900880999397,None,P023,fencog,2,Pre,2022_Feb_08_1040,Go No-Go Task,2021.1.4,119.8029478382724,
,"Rule: When you see blue image, do not press 'spacebar'.",Images/Happy/AF07HAS.jpg,Happy,Yellow,Images/Yellow.jpg,space,ParentConditions/YellowBlueBlue_v2.xlsx,BlueBlueYellow,Conditions/Version_2/BlueFearStop.xlsx,no,PASS,0.3060165792014795,,,,,,,,,0,0,0,0,0,1,1,1,0,1,1,1,,,,,,,,,,,,,,,,,,,,,,,,,,,,,,,,,,,,,,,,,,,,,,,,,,,,,,,,,,,,,,,,,,,,,,,,,,,,,,,1.8,578.1599532000255,None,space,1,0.27282469999045134,580.0674622999504,None,580.0674622999504,None,580.0674622999504,None,,,,,,,,,,,P023,fencog,2,Pre,2022_Feb_08_1040,Go No-Go Task,2021.1.4,119.8029478382724,
,"Rule: When you see blue image, do not press 'spacebar'.",Images/Happy/AF28HAS.jpg,Happy,Yellow,Images/Yellow.jpg,space,ParentConditions/YellowBlueBlue_v2.xlsx,BlueBlueYellow,Conditions/Version_2/BlueFearStop.xlsx,no,PASS,0.23458600871698787,,,,,,,,,0,0,0,0,0,1,1,1,0,2,2,2,,,,,,,,,,,,,,,,,,,,,,,,,,,,,,,,,,,,,,,,,,,,,,,,,,,,,,,,,,,,,,,,,,,,,,,,,,,,,,,1.72,580.4677820000798,None,space,1,0.23246559989638627,582.2916179001331,None,582.2916179001331,None,582.2916179001331,None,,,,,,,,,,,P023,fencog,2,Pre,2022_Feb_08_1040,Go No-Go Task,2021.1.4,119.8029478382724,
,"Rule: When you see blue image, do not press 'spacebar'.",Images/Happy/AF22HAS.jpg,Happy,Yellow,Images/Yellow.jpg,space,ParentConditions/YellowBlueBlue_v2.xlsx,BlueBlueYellow,Conditions/Version_2/BlueFearStop.xlsx,no,PASS,0.11899132917260535,,,,,,,,,0,0,0,0,0,1,1,1,0,3,3,3,,,,,,,,,,,,,,,,,,,,,,,,,,,,,,,,,,,,,,,,,,,,,,,,,,,,,,,,,,,,,,,,,,,,,,,,,,,,,,,1.99,582.6907077999786,None,space,1,0.2373468999285251,584.7909552999772,None,584.7909552999772,None,584.7909552999772,None,,,,,,,,,,,P023,fencog,2,Pre,2022_Feb_08_1040,Go No-Go Task,2021.1.4,119.8029478382724,
,"Rule: When you see blue image, do not press 'spacebar'.",Images/Fearful/AF27AFS.jpg,Fear,Blue,Images/Blue.jpg,None,ParentConditions/YellowBlueBlue_v2.xlsx,BlueBlueYellow,Conditions/Version_2/BlueFearStop.xlsx,yes,PASS,0.3988252776358663,,,,,,,,,0,0,0,0,0,1,1,1,0,4,4,4,,,,,,,,,,,,,,,,,,,,,,,,,,,,,,,,,,,,,,,,,,,,,,,,,,,,,,,,,,,,,,,,,,,,,,,,,,,,,,,1.78,585.190135900164,None,space,0,0.25079840002581477,587.0733560000081,None,587.0733560000081,None,587.0733560000081,None,,,,,,,,,,,P023,fencog,2,Pre,2022_Feb_08_1040,Go No-Go Task,2021.1.4,119.8029478382724,
,"Rule: When you see blue image, do not press 'spacebar'.",Images/Happy/AM24HAS.jpg,Happy,Yellow,Images/Yellow.jpg,space,ParentConditions/YellowBlueBlue_v2.xlsx,BlueBlueYellow,Conditions/Version_2/BlueFearStop.xlsx,no,PASS,0.6540701766357542,,,,,,,,,0,0,0,0,0,1,1,1,0,5,5,5,,,,,,,,,,,,,,,,,,,,,,,,,,,,,,,,,,,,,,,,,,,,,,,,,,,,,,,,,,,,,,,,,,,,,,,,,,,,,,,1.31,587.4737968000118,None,None,0,,588.88985710009,None,588.88985710009,None,588.88985710009,None,,,,,,,,,,,P023,fencog,2,Pre,2022_Feb_08_1040,Go No-Go Task,2021.1.4,119.8029478382724,
,"Rule: When you see blue image, do not press 'spacebar'.",Images/Fearful/AF26AFS.jpg,Fear,Blue,Images/Blue.jpg,None,ParentConditions/YellowBlueBlue_v2.xlsx,BlueBlueYellow,Conditions/Version_2/BlueFearStop.xlsx,yes,PASS,0.672416725983861,,,,,,,,,0,0,0,0,0,1,1,1,0,6,6,6,,,,,,,,,,,,,,,,,,,,,,,,,,,,,,,,,,,,,,,,,,,,,,,,,,,,,,,,,,,,,,,,,,,,,,,,,,,,,,,1.26,589.288548800163,None,None,1,,590.6560380000155,None,590.6560380000155,None,590.6560380000155,None,,,,,,,,,,,P023,fencog,2,Pre,2022_Feb_08_1040,Go No-Go Task,2021.1.4,119.8029478382724,
,"Rule: When you see blue image, do not press 'spacebar'.",Images/Happy/WM11_HC.jpg,Happy,Yellow,Images/Yellow.jpg,space,ParentConditions/YellowBlueBlue_v2.xlsx,BlueBlueYellow,Conditions/Version_2/BlueFearStop.xlsx,no,PASS,0.8722598945732238,,,,,,,,,0,0,0,0,0,1,1,1,0,7,7,7,,,,,,,,,,,,,,,,,,,,,,,,,,,,,,,,,,,,,,,,,,,,,,,,,,,,,,,,,,,,,,,,,,,,,,,,,,,,,,,1.76,591.0563421000261,None,space,1,0.290111199952662,592.9219770000782,None,592.9219770000782,None,592.9219770000782,None,,,,,,,,,,,P023,fencog,2,Pre,2022_Feb_08_1040,Go No-Go Task,2021.1.4,119.8029478382724,
,"Rule: When you see blue image, do not press 'spacebar'.",Images/Happy/BM03_HO.jpg,Happy,Yellow,Images/Yellow.jpg,space,ParentConditions/YellowBlueBlue_v2.xlsx,BlueBlueYellow,Conditions/Version_2/BlueFearStop.xlsx,no,PASS,0.281866807892032,,,,,,,,,0,0,0,0,0,1,1,1,0,8,8,8,,,,,,,,,,,,,,,,,,,,,,,,,,,,,,,,,,,,,,,,,,,,,,,,,,,,,,,,,,,,,,,,,,,,,,,,,,,,,,,1.7,593.3220271000173,None,space,1,0.25840819999575615,595.1296792000066,None,595.1296792000066,None,595.1296792000066,None,,,,,,,,,,,P023,fencog,2,Pre,2022_Feb_08_1040,Go No-Go Task,2021.1.4,119.8029478382724,
,"Rule: When you see blue image, do not press 'spacebar'.",Images/Happy/BF18_HO.jpg,Happy,Yellow,Images/Yellow.jpg,space,ParentConditions/YellowBlueBlue_v2.xlsx,BlueBlueYellow,Conditions/Version_2/BlueFearStop.xlsx,no,PASS,0.056262560303186104,,,,,,,,,0,0,0,0,0,1,1,1,0,9,9,9,,,,,,,,,,,,,,,,,,,,,,,,,,,,,,,,,,,,,,,,,,,,,,,,,,,,,,,,,,,,,,,,,,,,,,,,,,,,,,,1.48,595.5299996000249,None,space,1,0.25166979990899563,597.1125107000116,None,597.1125107000116,None,597.1125107000116,None,,,,,,,,,,,P023,fencog,2,Pre,2022_Feb_08_1040,Go No-Go Task,2021.1.4,119.8029478382724,
,"Rule: When you see blue image, do not press 'spacebar'.",Images/Happy/AM10HAS.jpg,Happy,Yellow,Images/Yellow.jpg,space,ParentConditions/YellowBlueBlue_v2.xlsx,BlueBlueYellow,Conditions/Version_2/BlueFearStop.xlsx,no,PASS,0.26234858566298536,,,,,,,,,0,0,0,0,0,1,1,1,0,10,10,10,,,,,,,,,,,,,,,,,,,,,,,,,,,,,,,,,,,,,,,,,,,,,,,,,,,,,,,,,,,,,,,,,,,,,,,,,,,,,,,1.81,597.5126887001097,None,space,1,0.3437662001233548,599.4368025001604,None,599.4368025001604,None,599.4368025001604,None,,,,,,,,,,,P023,fencog,2,Pre,2022_Feb_08_1040,Go No-Go Task,2021.1.4,119.8029478382724,
,"Rule: When you see blue image, do not press 'spacebar'.",Images/Happy/AM09HAS.jpg,Happy,Yellow,Images/Yellow.jpg,space,ParentConditions/YellowBlueBlue_v2.xlsx,BlueBlueYellow,Conditions/Version_2/BlueFearStop.xlsx,no,PASS,0.5322853606558464,,,,,,,,,0,0,0,0,0,1,1,1,0,11,11,11,,,,,,,,,,,,,,,,,,,,,,,,,,,,,,,,,,,,,,,,,,,,,,,,,,,,,,,,,,,,,,,,,,,,,,,,,,,,,,,1.92,599.8407304999419,None,space,1,0.2394705000333488,601.8606300000101,None,601.8606300000101,None,601.8606300000101,None,,,,,,,,,,,P023,fencog,2,Pre,2022_Feb_08_1040,Go No-Go Task,2021.1.4,119.8029478382724,
,"Rule: When you see blue image, do not press 'spacebar'.",Images/Happy/AM16HAS.jpg,Happy,Yellow,Images/Yellow.jpg,space,ParentConditions/YellowBlueBlue_v2.xlsx,BlueBlueYellow,Conditions/Version_2/BlueFearStop.xlsx,no,PASS,0.8730560121673133,,,,,,,,,0,0,0,0,0,1,1,1,0,12,12,12,,,,,,,,,,,,,,,,,,,,,,,,,,,,,,,,,,,,,,,,,,,,,,,,,,,,,,,,,,,,,,,,,,,,,,,,,,,,,,,1.75,602.2598576000892,None,space,1,0.36623300006613135,604.1100467001088,None,604.1100467001088,None,604.1100467001088,None,,,,,,,,,,,P023,fencog,2,Pre,2022_Feb_08_1040,Go No-Go Task,2021.1.4,119.8029478382724,
,"Rule: When you see blue image, do not press 'spacebar'.",Images/Happy/AF10_HE.jpg,Happy,Yellow,Images/Yellow.jpg,space,ParentConditions/YellowBlueBlue_v2.xlsx,BlueBlueYellow,Conditions/Version_2/BlueFearStop.xlsx,no,PASS,0.7103342893987146,,,,,,,,,0,0,0,0,0,1,1,1,0,13,13,13,,,,,,,,,,,,,,,,,,,,,,,,,,,,,,,,,,,,,,,,,,,,,,,,,,,,,,,,,,,,,,,,,,,,,,,,,,,,,,,1.65,604.5095188999549,None,space,1,0.2887937999330461,606.2596016000025,None,606.2596016000025,None,606.2596016000025,None,,,,,,,,,,,P023,fencog,2,Pre,2022_Feb_08_1040,Go No-Go Task,2021.1.4,119.8029478382724,
,"Rule: When you see blue image, do not press 'spacebar'.",Images/Happy/AF27HAS.jpg,Happy,Yellow,Images/Yellow.jpg,space,ParentConditions/YellowBlueBlue_v2.xlsx,BlueBlueYellow,Conditions/Version_2/BlueFearStop.xlsx,no,PASS,0.8937289807404983,,,,,,,,,0,0,0,0,0,1,1,1,0,14,14,14,,,,,,,,,,,,,,,,,,,,,,,,,,,,,,,,,,,,,,,,,,,,,,,,,,,,,,,,,,,,,,,,,,,,,,,,,,,,,,,2,606.6588797001168,None,space,1,0.23710269993171096,608.751056500012,None,608.751056500012,None,608.751056500012,None,,,,,,,,,,,P023,fencog,2,Pre,2022_Feb_08_1040,Go No-Go Task,2021.1.4,119.8029478382724,
,"Rule: When you see blue image, do not press 'spacebar'.",Images/Happy/BF10_HO.jpg,Happy,Yellow,Images/Yellow.jpg,space,ParentConditions/YellowBlueBlue_v2.xlsx,BlueBlueYellow,Conditions/Version_2/BlueFearStop.xlsx,no,PASS,0.41505973664432705,,,,,,,,,0,0,0,0,0,1,1,1,0,15,15,15,,,,,,,,,,,,,,,,,,,,,,,,,,,,,,,,,,,,,,,,,,,,,,,,,,,,,,,,,,,,,,,,,,,,,,,,,,,,,,,1.61,609.196357200155,None,space,1,0.28827719995751977,610.900071100099,None,610.900071100099,None,610.900071100099,None,,,,,,,,,,,P023,fencog,2,Pre,2022_Feb_08_1040,Go No-Go Task,2021.1.4,119.8029478382724,
,"Rule: When you see blue image, do not press 'spacebar'.",Images/Happy/BF14_HO.jpg,Happy,Yellow,Images/Yellow.jpg,space,ParentConditions/YellowBlueBlue_v2.xlsx,BlueBlueYellow,Conditions/Version_2/BlueFearStop.xlsx,no,PASS,0.38735807018105894,,,,,,,,,0,0,0,0,0,1,1,1,0,16,16,16,,,,,,,,,,,,,,,,,,,,,,,,,,,,,,,,,,,,,,,,,,,,,,,,,,,,,,,,,,,,,,,,,,,,,,,,,,,,,,,1.46,611.2996690000873,None,space,1,0.25021570012904704,612.8659167001024,None,612.8659167001024,None,612.8659167001024,None,,,,,,,,,,,P023,fencog,2,Pre,2022_Feb_08_1040,Go No-Go Task,2021.1.4,119.8029478382724,
,"Rule: When you see blue image, do not press 'spacebar'.",Images/Fearful/BM08_FC.jpg,Fear,Blue,Images/Blue.jpg,None,ParentConditions/YellowBlueBlue_v2.xlsx,BlueBlueYellow,Conditions/Version_2/BlueFearStop.xlsx,yes,PASS,0.7905879335514261,,,,,,,,,0,0,0,0,0,1,1,1,0,17,17,17,,,,,,,,,,,,,,,,,,,,,,,,,,,,,,,,,,,,,,,,,,,,,,,,,,,,,,,,,,,,,,,,,,,,,,,,,,,,,,,1.83,613.2719723000191,None,None,1,,615.2071225000545,None,615.2071225000545,None,615.2071225000545,None,,,,,,,,,,,P023,fencog,2,Pre,2022_Feb_08_1040,Go No-Go Task,2021.1.4,119.8029478382724,
,"Rule: When you see blue image, do not press 'spacebar'.",Images/Happy/AM01HAS.jpg,Happy,Yellow,Images/Yellow.jpg,space,ParentConditions/YellowBlueBlue_v2.xlsx,BlueBlueYellow,Conditions/Version_2/BlueFearStop.xlsx,no,PASS,0.9589705349559869,,,,,,,,,0,0,0,0,0,1,1,1,0,18,18,18,,,,,,,,,,,,,,,,,,,,,,,,,,,,,,,,,,,,,,,,,,,,,,,,,,,,,,,,,,,,,,,,,,,,,,,,,,,,,,,1.28,615.6063832000364,None,space,1,0.2783151001203805,616.9898793001194,None,616.9898793001194,None,616.9898793001194,None,,,,,,,,,,,P023,fencog,2,Pre,2022_Feb_08_1040,Go No-Go Task,2021.1.4,119.8029478382724,
,"Rule: When you see blue image, do not press 'spacebar'.",Images/Happy/AF11HAS.jpg,Happy,Yellow,Images/Yellow.jpg,space,ParentConditions/YellowBlueBlue_v2.xlsx,BlueBlueYellow,Conditions/Version_2/BlueFearStop.xlsx,no,PASS,0.6358882343202421,,,,,,,,,0,0,0,0,0,1,1,1,0,19,19,19,,,,,,,,,,,,,,,,,,,,,,,,,,,,,,,,,,,,,,,,,,,,,,,,,,,,,,,,,,,,,,,,,,,,,,,,,,,,,,,1.57,617.3901414000429,None,space,1,0.2519821000751108,619.0642607000191,None,619.0642607000191,None,619.0642607000191,None,,,,,,,,,,,P023,fencog,2,Pre,2022_Feb_08_1040,Go No-Go Task,2021.1.4,119.8029478382724,
,"Rule: When you see blue image, do not press 'spacebar'.",Images/Happy/BM01_HO.jpg,Happy,Yellow,Images/Yellow.jpg,space,ParentConditions/YellowBlueBlue_v2.xlsx,BlueBlueYellow,Conditions/Version_2/BlueFearStop.xlsx,no,PASS,0.301040907790301,,,,,,,,,0,0,0,0,0,1,1,1,0,20,20,20,,,,,,,,,,,,,,,,,,,,,,,,,,,,,,,,,,,,,,,,,,,,,,,,,,,,,,,,,,,,,,,,,,,,,,,,,,,,,,,1.38,619.4646577001549,None,space,1,0.24900870001874864,620.9470620001666,None,620.9470620001666,None,620.9470620001666,None,,,,,,,,,,,P023,fencog,2,Pre,2022_Feb_08_1040,Go No-Go Task,2021.1.4,119.8029478382724,
,"Rule: When you see blue image, do not press 'spacebar'.",Images/Happy/AF07_HO.jpg,Happy,Yellow,Images/Yellow.jpg,space,ParentConditions/YellowBlueBlue_v2.xlsx,BlueBlueYellow,Conditions/Version_2/BlueFearStop.xlsx,no,PASS,0.16146803476355298,,,,,,,,,0,0,0,0,0,1,1,1,0,21,21,21,,,,,,,,,,,,,,,,,,,,,,,,,,,,,,,,,,,,,,,,,,,,,,,,,,,,,,,,,,,,,,,,,,,,,,,,,,,,,,,1.64,621.3471542999614,None,space,1,0.15642950008623302,623.0880891999695,None,623.0880891999695,None,623.0880891999695,None,,,,,,,,,,,P023,fencog,2,Pre,2022_Feb_08_1040,Go No-Go Task,2021.1.4,119.8029478382724,
,"Rule: When you see blue image, do not press 'spacebar'.",Images/Happy/HM06_HO.jpg,Happy,Yellow,Images/Yellow.jpg,space,ParentConditions/YellowBlueBlue_v2.xlsx,BlueBlueYellow,Conditions/Version_2/BlueFearStop.xlsx,no,PASS,0.017367743981932304,,,,,,,,,0,0,0,0,0,1,1,1,0,22,22,22,,,,,,,,,,,,,,,,,,,,,,,,,,,,,,,,,,,,,,,,,,,,,,,,,,,,,,,,,,,,,,,,,,,,,,,,,,,,,,,1.43,623.4891358001623,None,space,1,0.23242529993876815,625.0121881000232,None,625.0121881000232,None,625.0121881000232,None,,,,,,,,,,,P023,fencog,2,Pre,2022_Feb_08_1040,Go No-Go Task,2021.1.4,119.8029478382724,
,"Rule: When you see blue image, do not press 'spacebar'.",Images/Fearful/AM09_FO.jpg,Fear,Blue,Images/Blue.jpg,None,ParentConditions/YellowBlueBlue_v2.xlsx,BlueBlueYellow,Conditions/Version_2/BlueFearStop.xlsx,yes,PASS,0.2997278789301355,,,,,,,,,0,0,0,0,0,1,1,1,0,23,23,23,,,,,,,,,,,,,,,,,,,,,,,,,,,,,,,,,,,,,,,,,,,,,,,,,,,,,,,,,,,,,,,,,,,,,,,,,,,,,,,1.97,625.4120829999447,None,None,1,,627.4867767000105,None,627.4867767000105,None,627.4867767000105,None,,,,,,,,,,,P023,fencog,2,Pre,2022_Feb_08_1040,Go No-Go Task,2021.1.4,119.8029478382724,
,"Rule: When you see blue image, do not press 'spacebar'.",Images/Happy/AF09HAS.jpg,Happy,Yellow,Images/Yellow.jpg,space,ParentConditions/YellowBlueBlue_v2.xlsx,BlueBlueYellow,Conditions/Version_2/BlueFearStop.xlsx,no,PASS,0.8273900201130844,,,,,,,,,0,0,0,0,0,1,1,1,0,24,24,24,,,,,,,,,,,,,,,,,,,,,,,,,,,,,,,,,,,,,,,,,,,,,,,,,,,,,,,,,,,,,,,,,,,,,,,,,,,,,,,1.55,627.8910817001015,None,space,1,0.2275953001808375,629.5445114001632,None,629.5445114001632,None,629.5445114001632,None,,,,,,,,,,,P023,fencog,2,Pre,2022_Feb_08_1040,Go No-Go Task,2021.1.4,119.8029478382724,
,"Rule: When you see blue image, do not press 'spacebar'.",Images/Happy/AM04HAS.jpg,Happy,Yellow,Images/Yellow.jpg,space,ParentConditions/YellowBlueBlue_v2.xlsx,BlueBlueYellow,Conditions/Version_2/BlueFearStop.xlsx,no,PASS,0.7497236344439144,,,,,,,,,0,0,0,0,0,1,1,1,0,25,25,25,,,,,,,,,,,,,,,,,,,,,,,,,,,,,,,,,,,,,,,,,,,,,,,,,,,,,,,,,,,,,,,,,,,,,,,,,,,,,,,1.49,629.9432574000675,None,space,1,0.2374026000034064,631.5354423001409,None,631.5354423001409,None,631.5354423001409,None,,,,,,,,,,,P023,fencog,2,Pre,2022_Feb_08_1040,Go No-Go Task,2021.1.4,119.8029478382724,
,"Rule: When you see blue image, do not press 'spacebar'.",Images/Happy/BF07_HO.jpg,Happy,Yellow,Images/Yellow.jpg,space,ParentConditions/YellowBlueBlue_v2.xlsx,BlueBlueYellow,Conditions/Version_2/BlueFearStop.xlsx,no,PASS,0.9631973209169931,,,,,,,,,0,0,0,0,0,1,1,1,0,26,26,26,,,,,,,,,,,,,,,,,,,,,,,,,,,,,,,,,,,,,,,,,,,,,,,,,,,,,,,,,,,,,,,,,,,,,,,,,,,,,,,1.47,631.9353372999467,None,space,1,0.22226169984787703,633.5182109000161,None,633.5182109000161,None,633.5182109000161,None,,,,,,,,,,,P023,fencog,2,Pre,2022_Feb_08_1040,Go No-Go Task,2021.1.4,119.8029478382724,
,"Rule: When you see blue image, do not press 'spacebar'.",Images/Happy/AF02HAS.jpg,Happy,Yellow,Images/Yellow.jpg,space,ParentConditions/YellowBlueBlue_v2.xlsx,BlueBlueYellow,Conditions/Version_2/BlueFearStop.xlsx,no,PASS,0.44316288931410874,,,,,,,,,0,0,0,0,0,1,1,1,0,27,27,27,,,,,,,,,,,,,,,,,,,,,,,,,,,,,,,,,,,,,,,,,,,,,,,,,,,,,,,,,,,,,,,,,,,,,,,,,,,,,,,1.79,633.9171881999355,None,space,1,0.27478140010498464,635.8093977000099,None,635.8093977000099,None,635.8093977000099,None,,,,,,,,,,,P023,fencog,2,Pre,2022_Feb_08_1040,Go No-Go Task,2021.1.4,119.8029478382724,
,"Rule: When you see blue image, do not press 'spacebar'.",Images/Happy/AM30HAS.jpg,Happy,Yellow,Images/Yellow.jpg,space,ParentConditions/YellowBlueBlue_v2.xlsx,BlueBlueYellow,Conditions/Version_2/BlueFearStop.xlsx,no,PASS,0.8101164063536405,,,,,,,,,0,0,0,0,0,1,1,1,0,28,28,28,,,,,,,,,,,,,,,,,,,,,,,,,,,,,,,,,,,,,,,,,,,,,,,,,,,,,,,,,,,,,,,,,,,,,,,,,,,,,,,1.53,636.2107087001204,None,space,1,0.2664517001248896,637.8420448999386,None,637.8420448999386,None,637.8420448999386,None,,,,,,,,,,,P023,fencog,2,Pre,2022_Feb_08_1040,Go No-Go Task,2021.1.4,119.8029478382724,
,"Rule: When you see blue image, do not press 'spacebar'.",Images/Happy/BF05_HO.jpg,Happy,Yellow,Images/Yellow.jpg,space,ParentConditions/YellowBlueBlue_v2.xlsx,BlueBlueYellow,Conditions/Version_2/BlueFearStop.xlsx,no,PASS,0.6770609167729968,,,,,,,,,0,0,0,0,0,1,1,1,0,29,29,29,,,,,,,,,,,,,,,,,,,,,,,,,,,,,,,,,,,,,,,,,,,,,,,,,,,,,,,,,,,,,,,,,,,,,,,,,,,,,,,1.87,638.242945099948,None,space,1,0.35593710001558065,640.2163712000474,None,640.2163712000474,None,640.2163712000474,None,,,,,,,,,,,P023,fencog,2,Pre,2022_Feb_08_1040,Go No-Go Task,2021.1.4,119.8029478382724,
,"Rule: When you see blue image, do not press 'spacebar'.",Images/Fearful/AF25AFS.jpg,Fear,Blue,Images/Blue.jpg,None,ParentConditions/YellowBlueBlue_v2.xlsx,BlueBlueYellow,Conditions/Version_2/BlueFearStop.xlsx,yes,PASS,0.9137328829424104,,,,,,,,,0,0,0,0,0,1,1,1,0,30,30,30,,,,,,,,,,,,,,,,,,,,,,,,,,,,,,,,,,,,,,,,,,,,,,,,,,,,,,,,,,,,,,,,,,,,,,,,,,,,,,,1.71,640.616541299969,None,None,1,,642.4321240000427,None,642.4321240000427,None,642.4321240000427,None,,,,,,,,,,,P023,fencog,2,Pre,2022_Feb_08_1040,Go No-Go Task,2021.1.4,119.8029478382724,
,"Rule: When you see blue image, do not press 'spacebar'.",Images/Happy/BF09_HO.jpg,Happy,Yellow,Images/Yellow.jpg,space,ParentConditions/YellowBlueBlue_v2.xlsx,BlueBlueYellow,Conditions/Version_2/BlueFearStop.xlsx,no,PASS,0.7233148419047607,,,,,,,,,0,0,0,0,0,1,1,1,0,31,31,31,,,,,,,,,,,,,,,,,,,,,,,,,,,,,,,,,,,,,,,,,,,,,,,,,,,,,,,,,,,,,,,,,,,,,,,,,,,,,,,1.2,642.8325722999871,None,space,1,0.31187770003452897,644.1403085000347,None,644.1403085000347,None,644.1403085000347,None,,,,,,,,,,,P023,fencog,2,Pre,2022_Feb_08_1040,Go No-Go Task,2021.1.4,119.8029478382724,
,"Rule: When you see blue image, do not press 'spacebar'.",Images/Happy/AM09_HE.jpg,Happy,Yellow,Images/Yellow.jpg,space,ParentConditions/YellowBlueBlue_v2.xlsx,BlueBlueYellow,Conditions/Version_2/BlueFearStop.xlsx,no,PASS,0.703399731728546,,,,,,,,,0,0,0,0,0,1,1,1,0,32,32,32,,,,,,,,,,,,,,,,,,,,,,,,,,,,,,,,,,,,,,,,,,,,,,,,,,,,,,,,,,,,,,,,,,,,,,,,,,,,,,,1.88,644.5404650000855,None,space,1,0.3283921000547707,646.5237348999362,None,646.5237348999362,None,646.5237348999362,None,,,,,,,,,,,P023,fencog,2,Pre,2022_Feb_08_1040,Go No-Go Task,2021.1.4,119.8029478382724,
,"Rule: When you see blue image, do not press 'spacebar'.",Images/Fearful/BF14_FO.jpg,Fear,Blue,Images/Blue.jpg,None,ParentConditions/YellowBlueBlue_v2.xlsx,BlueBlueYellow,Conditions/Version_2/BlueFearStop.xlsx,yes,PASS,0.641858343679783,,,,,,,,,0,0,0,0,0,1,1,1,0,33,33,33,,,,,,,,,,,,,,,,,,,,,,,,,,,,,,,,,,,,,,,,,,,,,,,,,,,,,,,,,,,,,,,,,,,,,,,,,,,,,,,1.68,646.9300601000432,None,space,0,0.23433810006827116,648.71393060009,None,648.71393060009,None,648.71393060009,None,,,,,,,,,,,P023,fencog,2,Pre,2022_Feb_08_1040,Go No-Go Task,2021.1.4,119.8029478382724,
,"Rule: When you see blue image, do not press 'spacebar'.",Images/Fearful/HF05_FC.jpg,Fear,Blue,Images/Blue.jpg,None,ParentConditions/YellowBlueBlue_v2.xlsx,BlueBlueYellow,Conditions/Version_2/BlueFearStop.xlsx,yes,PASS,0.11935527908981858,,,,,,,,,0,0,0,0,0,1,1,1,0,34,34,34,,,,,,,,,,,,,,,,,,,,,,,,,,,,,,,,,,,,,,,,,,,,,,,,,,,,,,,,,,,,,,,,,,,,,,,,,,,,,,,1.22,649.1131458000746,None,space,0,0.310273100156337,650.4384155999869,None,650.4384155999869,None,650.4384155999869,None,,,,,,,,,,,P023,fencog,2,Pre,2022_Feb_08_1040,Go No-Go Task,2021.1.4,119.8029478382724,
,"Rule: When you see blue image, do not press 'spacebar'.",Images/Happy/AM23HAS.jpg,Happy,Yellow,Images/Yellow.jpg,space,ParentConditions/YellowBlueBlue_v2.xlsx,BlueBlueYellow,Conditions/Version_2/BlueFearStop.xlsx,no,PASS,0.4310663721908784,,,,,,,,,0,0,0,0,0,1,1,1,0,35,35,35,,,,,,,,,,,,,,,,,,,,,,,,,,,,,,,,,,,,,,,,,,,,,,,,,,,,,,,,,,,,,,,,,,,,,,,,,,,,,,,1.33,650.8415153999813,None,space,1,0.2851622998714447,652.2711281001102,None,652.2711281001102,None,652.2711281001102,None,,,,,,,,,,,P023,fencog,2,Pre,2022_Feb_08_1040,Go No-Go Task,2021.1.4,119.8029478382724,
,"Rule: When you see blue image, do not press 'spacebar'.",Images/Happy/AM03_HO.jpg,Happy,Yellow,Images/Yellow.jpg,space,ParentConditions/YellowBlueBlue_v2.xlsx,BlueBlueYellow,Conditions/Version_2/BlueFearStop.xlsx,no,PASS,0.027367773514368476,,,,,,,,,0,0,0,0,0,1,1,1,0,36,36,36,,,,,,,,,,,,,,,,,,,,,,,,,,,,,,,,,,,,,,,,,,,,,,,,,,,,,,,,,,,,,,,,,,,,,,,,,,,,,,,1.27,652.6803067000583,None,space,1,0.2940251000691205,654.0623159999959,None,654.0623159999959,None,654.0623159999959,None,,,,,,,,,,,P023,fencog,2,Pre,2022_Feb_08_1040,Go No-Go Task,2021.1.4,119.8029478382724,
,"Rule: When you see blue image, do not press 'spacebar'.",Images/Happy/AF25HAS.jpg,Happy,Yellow,Images/Yellow.jpg,space,ParentConditions/YellowBlueBlue_v2.xlsx,BlueBlueYellow,Conditions/Version_2/BlueFearStop.xlsx,no,PASS,0.04870321560414337,,,,,,,,,0,0,0,0,0,1,1,1,0,37,37,37,,,,,,,,,,,,,,,,,,,,,,,,,,,,,,,,,,,,,,,,,,,,,,,,,,,,,,,,,,,,,,,,,,,,,,,,,,,,,,,1.21,654.4613920000847,None,space,1,0.32178799994289875,655.7785110000987,None,655.7785110000987,None,655.7785110000987,None,,,,,,,,,,,P023,fencog,2,Pre,2022_Feb_08_1040,Go No-Go Task,2021.1.4,119.8029478382724,
,"Rule: When you see blue image, do not press 'spacebar'.",Images/Happy/BM08_HO.jpg,Happy,Yellow,Images/Yellow.jpg,space,ParentConditions/YellowBlueBlue_v2.xlsx,BlueBlueYellow,Conditions/Version_2/BlueFearStop.xlsx,no,PASS,0.026169495354104844,,,,,,,,,0,0,0,0,0,1,1,1,0,38,38,38,,,,,,,,,,,,,,,,,,,,,,,,,,,,,,,,,,,,,,,,,,,,,,,,,,,,,,,,,,,,,,,,,,,,,,,,,,,,,,,1.51,656.1779355001636,None,space,1,0.31365810008719563,657.7944626000244,None,657.7944626000244,None,657.7944626000244,None,,,,,,,,,,,P023,fencog,2,Pre,2022_Feb_08_1040,Go No-Go Task,2021.1.4,119.8029478382724,
,"Rule: When you see blue image, do not press 'spacebar'.",Images/Happy/AF32HAS.jpg,Happy,Yellow,Images/Yellow.jpg,space,ParentConditions/YellowBlueBlue_v2.xlsx,BlueBlueYellow,Conditions/Version_2/BlueFearStop.xlsx,no,PASS,0.007662007482450273,,,,,,,,,0,0,0,0,0,1,1,1,0,39,39,39,,,,,,,,,,,,,,,,,,,,,,,,,,,,,,,,,,,,,,,,,,,,,,,,,,,,,,,,,,,,,,,,,,,,,,,,,,,,,,,1.52,658.1943787999917,None,space,1,0.37729479977861047,659.8189447000623,None,659.8189447000623,None,659.8189447000623,None,,,,,,,,,,,P023,fencog,2,Pre,2022_Feb_08_1040,Go No-Go Task,2021.1.4,119.8029478382724,
,"Rule: When you see blue image, do not press 'spacebar'.",Images/Happy/AF23HAS.jpg,Happy,Yellow,Images/Yellow.jpg,space,ParentConditions/YellowBlueBlue_v2.xlsx,BlueBlueYellow,Conditions/Version_2/BlueFearStop.xlsx,no,PASS,0.13322659163638806,,,,,,,,,0,0,0,0,0,1,1,1,0,40,40,40,,,,,,,,,,,,,,,,,,,,,,,,,,,,,,,,,,,,,,,,,,,,,,,,,,,,,,,,,,,,,,,,,,,,,,,,,,,,,,,1.5,660.2179223001003,None,space,1,0.2898023999296129,661.8184205000289,None,661.8184205000289,None,661.8184205000289,None,,,,,,,,,,,P023,fencog,2,Pre,2022_Feb_08_1040,Go No-Go Task,2021.1.4,119.8029478382724,
,"Rule: When you see blue image, do not press 'spacebar'.",Images/Happy/AM32HAS.jpg,Happy,Yellow,Images/Yellow.jpg,space,ParentConditions/YellowBlueBlue_v2.xlsx,BlueBlueYellow,Conditions/Version_2/BlueFearStop.xlsx,no,PASS,0.18790539518346805,,,,,,,,,0,0,0,0,0,1,1,1,0,41,41,41,,,,,,,,,,,,,,,,,,,,,,,,,,,,,,,,,,,,,,,,,,,,,,,,,,,,,,,,,,,,,,,,,,,,,,,,,,,,,,,1.59,662.2182269999757,None,space,1,0.327138900058344,663.9092703999486,None,663.9092703999486,None,663.9092703999486,None,,,,,,,,,,,P023,fencog,2,Pre,2022_Feb_08_1040,Go No-Go Task,2021.1.4,119.8029478382724,
,"Rule: When you see blue image, do not press 'spacebar'.",Images/Fearful/AM30AFS.jpg,Fear,Blue,Images/Blue.jpg,None,ParentConditions/YellowBlueBlue_v2.xlsx,BlueBlueYellow,Conditions/Version_2/BlueFearStop.xlsx,yes,PASS,0.3894428318578558,,,,,,,,,0,0,0,0,0,1,1,1,0,42,42,42,,,,,,,,,,,,,,,,,,,,,,,,,,,,,,,,,,,,,,,,,,,,,,,,,,,,,,,,,,,,,,,,,,,,,,,,,,,,,,,1.58,664.3110231000464,None,None,1,,665.992176100146,None,665.992176100146,None,665.992176100146,None,,,,,,,,,,,P023,fencog,2,Pre,2022_Feb_08_1040,Go No-Go Task,2021.1.4,119.8029478382724,
,"Rule: When you see blue image, do not press 'spacebar'.",Images/Happy/BM02_HO.jpg,Happy,Yellow,Images/Yellow.jpg,space,ParentConditions/YellowBlueBlue_v2.xlsx,BlueBlueYellow,Conditions/Version_2/BlueFearStop.xlsx,no,PASS,0.8000984906086622,,,,,,,,,0,0,0,0,0,1,1,1,0,43,43,43,,,,,,,,,,,,,,,,,,,,,,,,,,,,,,,,,,,,,,,,,,,,,,,,,,,,,,,,,,,,,,,,,,,,,,,,,,,,,,,1.63,666.3922562999651,None,space,1,0.255367900012061,668.1247866000049,None,668.1247866000049,None,668.1247866000049,None,,,,,,,,,,,P023,fencog,2,Pre,2022_Feb_08_1040,Go No-Go Task,2021.1.4,119.8029478382724,
,"Rule: When you see blue image, do not press 'spacebar'.",Images/Happy/AM10_HO.jpg,Happy,Yellow,Images/Yellow.jpg,space,ParentConditions/YellowBlueBlue_v2.xlsx,BlueBlueYellow,Conditions/Version_2/BlueFearStop.xlsx,no,PASS,0.5717939201397183,,,,,,,,,0,0,0,0,0,1,1,1,0,44,44,44,,,,,,,,,,,,,,,,,,,,,,,,,,,,,,,,,,,,,,,,,,,,,,,,,,,,,,,,,,,,,,,,,,,,,,,,,,,,,,,1.41,668.5247295999434,None,space,1,0.2913848999887705,670.0408771000803,None,670.0408771000803,None,670.0408771000803,None,,,,,,,,,,,P023,fencog,2,Pre,2022_Feb_08_1040,Go No-Go Task,2021.1.4,119.8029478382724,
,"Rule: When you see blue image, do not press 'spacebar'.",Images/Fearful/AM10_FO.jpg,Fear,Blue,Images/Blue.jpg,None,ParentConditions/YellowBlueBlue_v2.xlsx,BlueBlueYellow,Conditions/Version_2/BlueFearStop.xlsx,yes,PASS,0.5269701617606191,,,,,,,,,0,0,0,0,0,1,1,1,0,45,45,45,,,,,,,,,,,,,,,,,,,,,,,,,,,,,,,,,,,,,,,,,,,,,,,,,,,,,,,,,,,,,,,,,,,,,,,,,,,,,,,1.29,670.4482106000651,None,None,1,,671.8404051000252,None,671.8404051000252,None,671.8404051000252,None,,,,,,,,,,,P023,fencog,2,Pre,2022_Feb_08_1040,Go No-Go Task,2021.1.4,119.8029478382724,
,"Rule: When you see blue image, do not press 'spacebar'.",Images/Happy/AF19HAS.jpg,Happy,Yellow,Images/Yellow.jpg,space,ParentConditions/YellowBlueBlue_v2.xlsx,BlueBlueYellow,Conditions/Version_2/BlueFearStop.xlsx,no,PASS,0.6170839926730745,,,,,,,,,0,0,0,0,0,1,1,1,0,46,46,46,,,,,,,,,,,,,,,,,,,,,,,,,,,,,,,,,,,,,,,,,,,,,,,,,,,,,,,,,,,,,,,,,,,,,,,,,,,,,,,1.96,672.2395703999791,None,space,1,0.3376649001147598,674.3064240000676,None,674.3064240000676,None,674.3064240000676,None,,,,,,,,,,,P023,fencog,2,Pre,2022_Feb_08_1040,Go No-Go Task,2021.1.4,119.8029478382724,
,"Rule: When you see blue image, do not press 'spacebar'.",Images/Fearful/HF09_FC.jpg,Fear,Blue,Images/Blue.jpg,None,ParentConditions/YellowBlueBlue_v2.xlsx,BlueBlueYellow,Conditions/Version_2/BlueFearStop.xlsx,yes,PASS,0.03424286048079783,,,,,,,,,0,0,0,0,0,1,1,1,0,47,47,47,,,,,,,,,,,,,,,,,,,,,,,,,,,,,,,,,,,,,,,,,,,,,,,,,,,,,,,,,,,,,,,,,,,,,,,,,,,,,,,1.3,674.7067116999533,None,None,1,,676.1143414999824,None,676.1143414999824,None,676.1143414999824,None,,,,,,,,,,,P023,fencog,2,Pre,2022_Feb_08_1040,Go No-Go Task,2021.1.4,119.8029478382724,
,"Rule: When you see blue image, do not press 'spacebar'.",Images/Fearful/AM22AFS.jpg,Fear,Blue,Images/Blue.jpg,None,ParentConditions/YellowBlueBlue_v2.xlsx,BlueBlueYellow,Conditions/Version_2/BlueFearStop.xlsx,yes,PASS,0.9945919074829972,,,,,,,,,0,0,0,0,0,1,1,1,0,48,48,48,,,,,,,,,,,,,,,,,,,,,,,,,,,,,,,,,,,,,,,,,,,,,,,,,,,,,,,,,,,,,,,,,,,,,,,,,,,,,,,1.36,676.5148160001263,None,space,0,0.26379760005511343,677.980283500161,None,677.980283500161,None,677.980283500161,None,,,,,,,,,,,P023,fencog,2,Pre,2022_Feb_08_1040,Go No-Go Task,2021.1.4,119.8029478382724,
,"Rule: When you see blue image, do not press 'spacebar'.",Images/Happy/AM06_HC.jpg,Happy,Yellow,Images/Yellow.jpg,space,ParentConditions/YellowBlueBlue_v2.xlsx,BlueBlueYellow,Conditions/Version_2/BlueFearStop.xlsx,no,PASS,0.15639026645094434,,,,,,,,,0,0,0,0,0,1,1,1,0,49,49,49,,,,,,,,,,,,,,,,,,,,,,,,,,,,,,,,,,,,,,,,,,,,,,,,,,,,,,,,,,,,,,,,,,,,,,,,,,,,,,,1.6,678.3793125001248,None,space,1,0.29238860006444156,680.0797323000152,None,680.0797323000152,None,680.0797323000152,None,,,,,,,,,,,P023,fencog,2,Pre,2022_Feb_08_1040,Go No-Go Task,2021.1.4,119.8029478382724,
,"Rule: When you see blue image, do not press 'spacebar'.",Images/Fearful/AM32AFS.jpg,Fear,Blue,Images/Blue.jpg,None,ParentConditions/YellowBlueBlue_v2.xlsx,BlueBlueYellow,Conditions/Version_2/BlueFearStop.xlsx,yes,PASS,0.6879520753296126,,,,,,,,,0,0,0,0,0,1,1,1,0,50,50,50,,,,,,,,,,,,,,,,,,,,,,,,,,,,,,,,,,,,,,,,,,,,,,,,,,,,,,,,,,,,,,,,,,,,,,,,,,,,,,,1.73,680.4808921001386,None,None,1,,682.312327099964,None,682.312327099964,None,682.312327099964,None,,,,,,,,,,,P023,fencog,2,Pre,2022_Feb_08_1040,Go No-Go Task,2021.1.4,119.8029478382724,
,"Rule: When you see blue image, do not press 'spacebar'.",Images/Happy/WF11_HE.jpg,Happy,Yellow,Images/Yellow.jpg,space,ParentConditions/YellowBlueBlue_v2.xlsx,BlueBlueYellow,Conditions/Version_2/BlueFearStop.xlsx,no,PASS,0.0583479260669304,,,,,,,,,0,0,0,0,0,1,1,1,0,51,51,51,,,,,,,,,,,,,,,,,,,,,,,,,,,,,,,,,,,,,,,,,,,,,,,,,,,,,,,,,,,,,,,,,,,,,,,,,,,,,,,1.82,682.7130366000347,None,space,1,0.31153920013457537,684.6365193000529,None,684.6365193000529,None,684.6365193000529,None,,,,,,,,,,,P023,fencog,2,Pre,2022_Feb_08_1040,Go No-Go Task,2021.1.4,119.8029478382724,
,"Rule: When you see blue image, do not press 'spacebar'.",Images/Fearful/AF28AFS.jpg,Fear,Blue,Images/Blue.jpg,None,ParentConditions/YellowBlueBlue_v2.xlsx,BlueBlueYellow,Conditions/Version_2/BlueFearStop.xlsx,yes,PASS,0.84152709172785,,,,,,,,,0,0,0,0,0,1,1,1,0,52,52,52,,,,,,,,,,,,,,,,,,,,,,,,,,,,,,,,,,,,,,,,,,,,,,,,,,,,,,,,,,,,,,,,,,,,,,,,,,,,,,,1.98,685.0356424001511,None,None,1,,687.1190514999907,None,687.1190514999907,None,687.1190514999907,None,,,,,,,,,,,P023,fencog,2,Pre,2022_Feb_08_1040,Go No-Go Task,2021.1.4,119.8029478382724,
,"Rule: When you see blue image, do not press 'spacebar'.",Images/Happy/HF04_HE.jpg,Happy,Yellow,Images/Yellow.jpg,space,ParentConditions/YellowBlueBlue_v2.xlsx,BlueBlueYellow,Conditions/Version_2/BlueFearStop.xlsx,no,PASS,0.4119172299729392,,,,,,,,,0,0,0,0,0,1,1,1,0,53,53,53,,,,,,,,,,,,,,,,,,,,,,,,,,,,,,,,,,,,,,,,,,,,,,,,,,,,,,,,,,,,,,,,,,,,,,,,,,,,,,,1.84,687.519830300007,None,space,1,0.2798026001546532,689.4685458000749,None,689.4685458000749,None,689.4685458000749,None,,,,,,,,,,,P023,fencog,2,Pre,2022_Feb_08_1040,Go No-Go Task,2021.1.4,119.8029478382724,
,"Rule: When you see blue image, do not press 'spacebar'.",Images/Happy/AM13HAS.jpg,Happy,Yellow,Images/Yellow.jpg,space,ParentConditions/YellowBlueBlue_v2.xlsx,BlueBlueYellow,Conditions/Version_2/BlueFearStop.xlsx,no,PASS,0.1481016084905541,,,,,,,,,0,0,0,0,0,1,1,1,0,54,54,54,,,,,,,,,,,,,,,,,,,,,,,,,,,,,,,,,,,,,,,,,,,,,,,,,,,,,,,,,,,,,,,,,,,,,,,,,,,,,,,1.23,689.8674608999863,None,None,0,,691.2011707001366,None,691.2011707001366,None,691.2011707001366,None,,,,,,,,,,,P023,fencog,2,Pre,2022_Feb_08_1040,Go No-Go Task,2021.1.4,119.8029478382724,
,"Rule: When you see blue image, do not press 'spacebar'.",Images/Happy/HF10_HE.jpg,Happy,Yellow,Images/Yellow.jpg,space,ParentConditions/YellowBlueBlue_v2.xlsx,BlueBlueYellow,Conditions/Version_2/BlueFearStop.xlsx,no,PASS,0.04388835754455167,,,,,,,,,0,0,0,0,0,1,1,1,0,55,55,55,,,,,,,,,,,,,,,,,,,,,,,,,,,,,,,,,,,,,,,,,,,,,,,,,,,,,,,,,,,,,,,,,,,,,,,,,,,,,,,1.94,691.6022419999354,None,space,1,0.32209220016375184,693.6419637999497,None,693.6419637999497,None,693.6419637999497,None,,,,,,,,,,,P023,fencog,2,Pre,2022_Feb_08_1040,Go No-Go Task,2021.1.4,119.8029478382724,
,"Rule: When you see blue image, do not press 'spacebar'.",Images/Happy/AM04_HE.jpg,Happy,Yellow,Images/Yellow.jpg,space,ParentConditions/YellowBlueBlue_v2.xlsx,BlueBlueYellow,Conditions/Version_2/BlueFearStop.xlsx,no,PASS,0.8425689490019698,,,,,,,,,0,0,0,0,0,1,1,1,0,56,56,56,,,,,,,,,,,,,,,,,,,,,,,,,,,,,,,,,,,,,,,,,,,,,,,,,,,,,,,,,,,,,,,,,,,,,,,,,,,,,,,1.86,694.0426958000753,None,space,1,0.33922330010682344,696.0249817001168,None,696.0249817001168,None,696.0249817001168,None,,,,,,,,,,,P023,fencog,2,Pre,2022_Feb_08_1040,Go No-Go Task,2021.1.4,119.8029478382724,
