CondFileP,Instructions,FaceE,Express,ColourT,ColourF,CorrectAnsP,MasterCondFile,BlockOrder,CondFile,ColCheck,Triplicate_check,SORT_BY_SMALLEST,EPracticeOuterLoop.thisRepN,EPracticeOuterLoop.thisTrialN,EPracticeOuterLoop.thisN,EPracticeOuterLoop.thisIndex,EPracticeInnerLoop.thisRepN,EPracticeInnerLoop.thisTrialN,EPracticeInnerLoop.thisN,EPracticeInnerLoop.thisIndex,MasterLoop.thisRepN,MasterLoop.thisTrialN,MasterLoop.thisN,MasterLoop.thisIndex,OuterLoop.thisRepN,OuterLoop.thisTrialN,OuterLoop.thisN,OuterLoop.thisIndex,InnerLoop.thisRepN,InnerLoop.thisTrialN,InnerLoop.thisN,InnerLoop.thisIndex,text_13.started,text_13.stopped,key_resp_10.keys,key_resp_10.rt,key_resp_10.started,key_resp_10.stopped,text4.started,text4.stopped,EmotionTaskInstructions1.keys,EmotionTaskInstructions1.rt,EmotionTaskInstructions1.started,EmotionTaskInstructions1.stopped,text_4.started,text_4.stopped,key_resp_5.keys,key_resp_5.rt,key_resp_5.started,key_resp_5.stopped,Text_14.started,Text_14.stopped,key_resp_9.keys,key_resp_9.rt,key_resp_9.started,key_resp_9.stopped,text_5.started,text_5.stopped,text_6.started,text_6.stopped,key_resp_7.keys,key_resp_7.rt,key_resp_7.started,key_resp_7.stopped,text_10.started,text_10.stopped,text_11.started,text_11.stopped,text_12.started,text_12.stopped,ISIjitterPractice,EPracticeISIMarker.started,EPracticeISIMarker.stopped,Pract.keys,Pract.corr,Pract.started,Pract.stopped,PracticeFace.started,PracticeFace.stopped,ColourPractice.started,ColourPractice.stopped,text_7.started,text_7.stopped,Pract.rt,EndOfPractice.started,EndOfPractice.stopped,key_resp_8.keys,key_resp_8.rt,key_resp_8.started,key_resp_8.stopped,text_8.started,text_8.stopped,key_resp_6.keys,key_resp_6.rt,key_resp_6.started,key_resp_6.stopped,text_2.started,text_2.stopped,text_3.started,text_3.stopped,key_resp_3.keys,key_resp_3.rt,key_resp_3.started,key_resp_3.stopped,TaskBlock.started,TaskBlock.stopped,BlockNo1.started,BlockNo1.stopped,OfBlock.started,OfBlock.stopped,ISIjitter,ISImarker.started,ISImarker.stopped,key_resp.keys,key_resp.corr,key_resp.rt,key_resp.started,key_resp.stopped,FaceSet.started,FaceSet.stopped,Colour.started,Colour.stopped,EndBlockText.started,EndBlockText.stopped,key_resp_4.keys,key_resp_4.rt,key_resp_4.started,key_resp_4.stopped,BreakText2.started,BreakText2.stopped,PressToContinue.started,PressToContinue.stopped,participant,Study Name,Task Version (required to run),PRE/POST,date,expName,psychopyVersion,frameRate,
,,,,,,,,,,,,,,,,,,,,,,,,,,,,,,,,,22.830998899997212,None,space,100.80001089998404,23.8252000999928,None,,,,,,,,,,,,,,,,,,,,,,,,,,,,,,,,,,,,,,,,,,,,,,,,,,,,,,,,,,,,,,,,,,,,,,,,,,,,,,,,,,,,,,,,,,,,,,,P024,FENCOG,2,Pre,2022_Feb_11_1052,Go No-Go Task,2021.1.4,120.00955276328463,
,,,,,,,,,,,,,,,,,,,,,,,,,,,,,,,,,,,,,,,126.2111525000073,None,space,4.750082799990196,126.2111525000073,None,,,,,,,,,,,,,,,,,,,,,,,,,,,,,,,,,,,,,,,,,,,,,,,,,,,,,,,,,,,,,,,,,,,,,,,,,,,,,,,,,,,,,,,,,P024,FENCOG,2,Pre,2022_Feb_11_1052,Go No-Go Task,2021.1.4,120.00955276328463,
,,,,,,,,,,,,,,,,,,,,,,,,,,,,,,,,,,,,,,,,,,,,,131.0229943000013,None,space,2.418288199987728,131.0229943000013,None,,,,,,,,,,,,,,,,,,,,,,,,,,,,,,,,,,,,,,,,,,,,,,,,,,,,,,,,,,,,,,,,,,,,,,,,,,,,,,,,,,,P024,FENCOG,2,Pre,2022_Feb_11_1052,Go No-Go Task,2021.1.4,120.00955276328463,
,,,,,,,,,,,,,,,,,,,,,,,,,,,,,,,,,,,,,,,,,,,,,,,,,,,133.45912320000934,None,space,1.7341307000024244,133.45912320000934,None,,,,,,,,,,,,,,,,,,,,,,,,,,,,,,,,,,,,,,,,,,,,,,,,,,,,,,,,,,,,,,,,,,,,,,,,,,,,,P024,FENCOG,2,Pre,2022_Feb_11_1052,Go No-Go Task,2021.1.4,120.00955276328463,
EPracticeConditions/BlueEyes.csv,"Rule: When you see a blue image, do not press 'spacebar'.",Images/Happy/HF10_HE.jpg,Happy,Yellow,Images/Yellow.jpg,space,,,,,,,0,0,0,0,0,0,0,7,,,,,,,,,,,,,,,,,,,,,,,,,,,,,,,,,,,,,135.26533120000386,None,138.2496731999854,None,space,0.8876778000267223,138.2496731999854,None,135.26533120000386,None,135.26533120000386,None,135.26533120000386,None,1.9,139.26058209998882,None,None,0,141.30284449999453,None,141.30284449999453,None,141.30284449999453,None,142.86216600000625,None,,,,,,,,,,,,,,,,,,,,,,,,,,,,,,,,,,,,,,,,,,,,,,,,,,P024,FENCOG,2,Pre,2022_Feb_11_1052,Go No-Go Task,2021.1.4,120.00955276328463,
EPracticeConditions/BlueEyes.csv,"Rule: When you see a blue image, do not press 'spacebar'.",Images/Happy/HF05_HO.jpg,Happy,Yellow,Images/Yellow.jpg,space,,,,,,,0,0,0,0,0,1,1,5,,,,,,,,,,,,,,,,,,,,,,,,,,,,,,,,,,,,,,,,,,,,,,,,,,,1.7,144.20214070001384,None,space,1,146.01492970000254,None,146.01492970000254,None,146.01492970000254,None,146.91594489998533,None,0.2665311000018846,,,,,,,,,,,,,,,,,,,,,,,,,,,,,,,,,,,,,,,,,,,,,,,,,P024,FENCOG,2,Pre,2022_Feb_11_1052,Go No-Go Task,2021.1.4,120.00955276328463,
EPracticeConditions/BlueEyes.csv,"Rule: When you see a blue image, do not press 'spacebar'.",Images/Fearful/AF01_FO.jpg,Fear,Blue,Images/Blue.jpg,None,,,,,,,0,0,0,0,0,2,2,1,,,,,,,,,,,,,,,,,,,,,,,,,,,,,,,,,,,,,,,,,,,,,,,,,,,1.8,148.91323780000675,None,space,0,150.81347699998878,None,150.81347699998878,None,150.81347699998878,None,151.71239120000973,None,0.24415549999685027,,,,,,,,,,,,,,,,,,,,,,,,,,,,,,,,,,,,,,,,,,,,,,,,,P024,FENCOG,2,Pre,2022_Feb_11_1052,Go No-Go Task,2021.1.4,120.00955276328463,
EPracticeConditions/BlueEyes.csv,"Rule: When you see a blue image, do not press 'spacebar'.",Images/Happy/HF09_HE.jpg,Happy,Yellow,Images/Yellow.jpg,space,,,,,,,0,0,0,0,0,3,3,6,,,,,,,,,,,,,,,,,,,,,,,,,,,,,,,,,,,,,,,,,,,,,,,,,,,1.5,153.7120697000064,None,space,1,155.31214620001265,None,155.31214620001265,None,155.31214620001265,None,156.2142434999987,None,0.32926790000055917,,,,,,,,,,,,,,,,,,,,,,,,,,,,,,,,,,,,,,,,,,,,,,,,,P024,FENCOG,2,Pre,2022_Feb_11_1052,Go No-Go Task,2021.1.4,120.00955276328463,
EPracticeConditions/BlueEyes.csv,"Rule: When you see a blue image, do not press 'spacebar'.",Images/Happy/HF04_HE.jpg,Happy,Yellow,Images/Yellow.jpg,space,,,,,,,0,0,0,0,0,4,4,4,,,,,,,,,,,,,,,,,,,,,,,,,,,,,,,,,,,,,,,,,,,,,,,,,,,1.6,158.21878220001236,None,None,0,159.91911240000627,None,159.91911240000627,None,159.91911240000627,None,160.82100960001117,None,,,,,,,,,,,,,,,,,,,,,,,,,,,,,,,,,,,,,,,,,,,,,,,,,,P024,FENCOG,2,Pre,2022_Feb_11_1052,Go No-Go Task,2021.1.4,120.00955276328463,
EPracticeConditions/BlueEyes.csv,"Rule: When you see a blue image, do not press 'spacebar'.",Images/Fearful/HM09_FC.jpg,Fear,Blue,Images/Blue.jpg,None,,,,,,,0,0,0,0,0,5,5,0,,,,,,,,,,,,,,,,,,,,,,,,,,,,,,,,,,,,,,,,,,,,,,,,,,,1.3,162.82577359999414,None,space,0,164.22619809999014,None,164.22619809999014,None,164.22619809999014,None,165.12594749999698,None,0.21583020000252873,,,,,,,,,,,,,,,,,,,,,,,,,,,,,,,,,,,,,,,,,,,,,,,,,P024,FENCOG,2,Pre,2022_Feb_11_1052,Go No-Go Task,2021.1.4,120.00955276328463,
EPracticeConditions/BlueEyes.csv,"Rule: When you see a blue image, do not press 'spacebar'.",Images/Happy/BM02_HO.jpg,Happy,Yellow,Images/Yellow.jpg,space,,,,,,,0,0,0,0,0,6,6,2,,,,,,,,,,,,,,,,,,,,,,,,,,,,,,,,,,,,,,,,,,,,,,,,,,,1.2,167.13291250000475,None,None,0,168.4416678000125,None,168.4416678000125,None,168.4416678000125,None,169.34212929999921,None,,,,,,,,,,,,,,,,,,,,,,,,,,,,,,,,,,,,,,,,,,,,,,,,,,P024,FENCOG,2,Pre,2022_Feb_11_1052,Go No-Go Task,2021.1.4,120.00955276328463,
EPracticeConditions/BlueEyes.csv,"Rule: When you see a blue image, do not press 'spacebar'.",Images/Happy/BM08_HO.jpg,Happy,Yellow,Images/Yellow.jpg,space,,,,,,,0,0,0,0,0,7,7,3,,,,,,,,,,,,,,,,,,,,,,,,,,,,,,,,,,,,,,,,,,,,,,,,,,,1.4,171.33971140001086,None,space,1,172.84040849999292,None,172.84040849999292,None,172.84040849999292,None,173.74060910000117,None,0.329117999994196,,,,,,,,,,,,,,,,,,,,,,,,,,,,,,,,,,,,,,,,,,,,,,,,,P024,FENCOG,2,Pre,2022_Feb_11_1052,Go No-Go Task,2021.1.4,120.00955276328463,
EPracticeConditions/BlueEyes.csv,"Rule: When you see a blue image, do not press 'spacebar'.",,,,,,,,,,,,0,0,0,0,,,,,,,,,,,,,,,,,,,,,,,,,,,,,,,,,,,,,,,,,,,,,,,,,,,,,,,,,,,,,,,,,,,,,,,,,,,,,,,,,,,,,,,,,,,,,,,,,,,,,,,,,,,,,,,,,,,,,P024,FENCOG,2,Pre,2022_Feb_11_1052,Go No-Go Task,2021.1.4,120.00955276328463,
EPracticeConditions/YellowEyes.csv,"Rule: When you see a yellow image, do not press 'spacebar'.",Images/Fearful/AM17AFS.jpg,Fear,Blue,Images/Blue.jpg,space,,,,,,,0,1,1,1,0,0,0,3,,,,,,,,,,,,,,,,,,,,,,,,,,,,,,,,,,,,,175.76620000001276,None,178.7547157999943,None,space,0.5507543999992777,178.7547157999943,None,175.76620000001276,None,175.76620000001276,None,175.76620000001276,None,1.9,179.3296158000012,None,space,1,181.32948419998866,None,181.32948419998866,None,181.32948419998866,None,182.22082039999077,None,0.26393580000149086,,,,,,,,,,,,,,,,,,,,,,,,,,,,,,,,,,,,,,,,,,,,,,,,,P024,FENCOG,2,Pre,2022_Feb_11_1052,Go No-Go Task,2021.1.4,120.00955276328463,
EPracticeConditions/YellowEyes.csv,"Rule: When you see a yellow image, do not press 'spacebar'.",Images/Happy/BF05_HO.jpg,Happy,Yellow,Images/Yellow.jpg,None,,,,,,,0,1,1,1,0,1,1,1,,,,,,,,,,,,,,,,,,,,,,,,,,,,,,,,,,,,,,,,,,,,,,,,,,,1.5,184.22762210000656,None,None,1,185.82804849999957,None,185.82804849999957,None,185.82804849999957,None,186.72088460001396,None,,,,,,,,,,,,,,,,,,,,,,,,,,,,,,,,,,,,,,,,,,,,,,,,,,P024,FENCOG,2,Pre,2022_Feb_11_1052,Go No-Go Task,2021.1.4,120.00955276328463,
EPracticeConditions/YellowEyes.csv,"Rule: When you see a yellow image, do not press 'spacebar'.",Images/Fearful/AM16AFS.jpg,Fear,Blue,Images/Blue.jpg,space,,,,,,,0,1,1,1,0,2,2,2,,,,,,,,,,,,,,,,,,,,,,,,,,,,,,,,,,,,,,,,,,,,,,,,,,,1.6,188.72638619999634,None,space,1,190.42686050001066,None,190.42686050001066,None,190.42686050001066,None,191.3202799000137,None,0.2624156999809202,,,,,,,,,,,,,,,,,,,,,,,,,,,,,,,,,,,,,,,,,,,,,,,,,P024,FENCOG,2,Pre,2022_Feb_11_1052,Go No-Go Task,2021.1.4,120.00955276328463,
EPracticeConditions/YellowEyes.csv,"Rule: When you see a yellow image, do not press 'spacebar'.",Images/Happy/AM32HAS.jpg,Happy,Yellow,Images/Yellow.jpg,None,,,,,,,0,1,1,1,0,3,3,0,,,,,,,,,,,,,,,,,,,,,,,,,,,,,,,,,,,,,,,,,,,,,,,,,,,1.7,193.32598719999078,None,None,1,195.133799800009,None,195.133799800009,None,195.133799800009,None,196.02861909999046,None,,,,,,,,,,,,,,,,,,,,,,,,,,,,,,,,,,,,,,,,,,,,,,,,,,P024,FENCOG,2,Pre,2022_Feb_11_1052,Go No-Go Task,2021.1.4,120.00955276328463,
EPracticeConditions/YellowEyes.csv,"Rule: When you see a yellow image, do not press 'spacebar'.",Images/Fearful/AM22AFS.jpg,Fear,Blue,Images/Blue.jpg,space,,,,,,,0,1,1,1,0,4,4,5,,,,,,,,,,,,,,,,,,,,,,,,,,,,,,,,,,,,,,,,,,,,,,,,,,,1.2,198.03190080000786,None,None,0,199.3324799000111,None,199.3324799000111,None,199.3324799000111,None,200.23126090000733,None,,,,,,,,,,,,,,,,,,,,,,,,,,,,,,,,,,,,,,,,,,,,,,,,,,P024,FENCOG,2,Pre,2022_Feb_11_1052,Go No-Go Task,2021.1.4,120.00955276328463,
EPracticeConditions/YellowEyes.csv,"Rule: When you see a yellow image, do not press 'spacebar'.",Images/Fearful/AM23AFS.jpg,Fear,Blue,Images/Blue.jpg,space,,,,,,,0,1,1,1,0,5,5,6,,,,,,,,,,,,,,,,,,,,,,,,,,,,,,,,,,,,,,,,,,,,,,,,,,,1.3,202.23200499999803,None,space,1,203.6479057999968,None,203.6479057999968,None,203.6479057999968,None,204.54240949999075,None,0.36163589998614043,,,,,,,,,,,,,,,,,,,,,,,,,,,,,,,,,,,,,,,,,,,,,,,,,P024,FENCOG,2,Pre,2022_Feb_11_1052,Go No-Go Task,2021.1.4,120.00955276328463,
EPracticeConditions/YellowEyes.csv,"Rule: When you see a yellow image, do not press 'spacebar'.",Images/Fearful/AM19AFS.jpg,Fear,Blue,Images/Blue.jpg,space,,,,,,,0,1,1,1,0,6,6,4,,,,,,,,,,,,,,,,,,,,,,,,,,,,,,,,,,,,,,,,,,,,,,,,,,,1.4,206.54628579999553,None,None,0,208.04666250001173,None,208.04666250001173,None,208.04666250001173,None,208.95070449999184,None,,,,,,,,,,,,,,,,,,,,,,,,,,,,,,,,,,,,,,,,,,,,,,,,,,P024,FENCOG,2,Pre,2022_Feb_11_1052,Go No-Go Task,2021.1.4,120.00955276328463,
EPracticeConditions/YellowEyes.csv,"Rule: When you see a yellow image, do not press 'spacebar'.",Images/Fearful/AM24AFS.jpg,Fear,Blue,Images/Blue.jpg,space,,,,,,,0,1,1,1,0,7,7,7,,,,,,,,,,,,,,,,,,,,,,,,,,,,,,,,,,,,,,,,,,,,,,,,,,,1.8,210.9531774999923,None,space,1,212.85355530001107,None,212.85355530001107,None,212.85355530001107,None,213.75246839999454,None,0.25190060000750236,,,,,,,,,,,,,,,,,,,,,,,,,,,,,,,,,,,,,,,,,,,,,,,,,P024,FENCOG,2,Pre,2022_Feb_11_1052,Go No-Go Task,2021.1.4,120.00955276328463,
EPracticeConditions/YellowEyes.csv,"Rule: When you see a yellow image, do not press 'spacebar'.",,,,,,,,,,,,0,1,1,1,,,,,,,,,,,,,,,,,,,,,,,,,,,,,,,,,,,,,,,,,,,,,,,,,,,,,,,,,,,,,,,,,,,,,,,,,,,,,,,,,,,,,,,,,,,,,,,,,,,,,,,,,,,,,,,,,,,,,P024,FENCOG,2,Pre,2022_Feb_11_1052,Go No-Go Task,2021.1.4,120.00955276328463,
EPracticeConditions/BlueScram.csv,"Rule: When you see a blue image, do not press 'spacebar'.",Images/Scram1/AM04_NC.jpg,Scramble,Yellow,Images/Yellow.jpg,space,,,,,,,0,2,2,2,0,0,0,3,,,,,,,,,,,,,,,,,,,,,,,,,,,,,,,,,,,,,215.76290359999985,None,218.75108310001087,None,space,0.7223915999929886,218.75108310001087,None,215.76290359999985,None,215.76290359999985,None,215.76290359999985,None,1.4,219.48788840000634,None,space,1,220.9928050999879,None,220.9928050999879,None,220.9928050999879,None,221.88321420000284,None,0.26466839999193326,,,,,,,,,,,,,,,,,,,,,,,,,,,,,,,,,,,,,,,,,,,,,,,,,P024,FENCOG,2,Pre,2022_Feb_11_1052,Go No-Go Task,2021.1.4,120.00955276328463,
EPracticeConditions/BlueScram.csv,"Rule: When you see a blue image, do not press 'spacebar'.",Images/Scram2/AM03_NC.jpg,Scramble,Yellow,Images/Yellow.jpg,space,,,,,,,0,2,2,2,0,1,1,6,,,,,,,,,,,,,,,,,,,,,,,,,,,,,,,,,,,,,,,,,,,,,,,,,,,1.2,223.88376500000595,None,space,1,225.1916712000093,None,225.1916712000093,None,225.1916712000093,None,226.08213389999582,None,0.2260050000040792,,,,,,,,,,,,,,,,,,,,,,,,,,,,,,,,,,,,,,,,,,,,,,,,,P024,FENCOG,2,Pre,2022_Feb_11_1052,Go No-Go Task,2021.1.4,120.00955276328463,
EPracticeConditions/BlueScram.csv,"Rule: When you see a blue image, do not press 'spacebar'.",Images/Scram2/AF25NES.jpg,Scramble,Yellow,Images/Yellow.jpg,space,,,,,,,0,2,2,2,0,2,2,7,,,,,,,,,,,,,,,,,,,,,,,,,,,,,,,,,,,,,,,,,,,,,,,,,,,1.9,228.0830386999878,None,space,1,230.0900571999955,None,230.0900571999955,None,230.0900571999955,None,230.98302439998952,None,0.32743029997800477,,,,,,,,,,,,,,,,,,,,,,,,,,,,,,,,,,,,,,,,,,,,,,,,,P024,FENCOG,2,Pre,2022_Feb_11_1052,Go No-Go Task,2021.1.4,120.00955276328463,
EPracticeConditions/BlueScram.csv,"Rule: When you see a blue image, do not press 'spacebar'.",Images/Scram1/AM03NES.jpg,Scramble,Yellow,Images/Yellow.jpg,space,,,,,,,0,2,2,2,0,3,3,4,,,,,,,,,,,,,,,,,,,,,,,,,,,,,,,,,,,,,,,,,,,,,,,,,,,1.8,232.98964210000122,None,space,1,234.89708140000585,None,234.89708140000585,None,234.89708140000585,None,235.79587699999684,None,0.34429439998348244,,,,,,,,,,,,,,,,,,,,,,,,,,,,,,,,,,,,,,,,,,,,,,,,,P024,FENCOG,2,Pre,2022_Feb_11_1052,Go No-Go Task,2021.1.4,120.00955276328463,
EPracticeConditions/BlueScram.csv,"Rule: When you see a blue image, do not press 'spacebar'.",Images/Scram1/BM08_NC.jpg,Scramble,Blue,Images/Blue.jpg,None,,,,,,,0,2,2,2,0,4,4,0,,,,,,,,,,,,,,,,,,,,,,,,,,,,,,,,,,,,,,,,,,,,,,,,,,,1.6,237.79613279999467,None,None,1,239.50408079999033,None,239.50408079999033,None,239.50408079999033,None,240.39598410000326,None,,,,,,,,,,,,,,,,,,,,,,,,,,,,,,,,,,,,,,,,,,,,,,,,,,P024,FENCOG,2,Pre,2022_Feb_11_1052,Go No-Go Task,2021.1.4,120.00955276328463,
EPracticeConditions/BlueScram.csv,"Rule: When you see a blue image, do not press 'spacebar'.",Images/Scram1/AM13NES.jpg,Scramble,Yellow,Images/Yellow.jpg,space,,,,,,,0,2,2,2,0,5,5,5,,,,,,,,,,,,,,,,,,,,,,,,,,,,,,,,,,,,,,,,,,,,,,,,,,,1.3,242.40537120000226,None,space,1,243.81092530000024,None,243.81092530000024,None,243.81092530000024,None,244.70121669999207,None,0.3586389000120107,,,,,,,,,,,,,,,,,,,,,,,,,,,,,,,,,,,,,,,,,,,,,,,,,P024,FENCOG,2,Pre,2022_Feb_11_1052,Go No-Go Task,2021.1.4,120.00955276328463,
EPracticeConditions/BlueScram.csv,"Rule: When you see a blue image, do not press 'spacebar'.",Images/Scram1/BF18_NC.jpg,Scramble,Blue,Images/Blue.jpg,None,,,,,,,0,2,2,2,0,6,6,1,,,,,,,,,,,,,,,,,,,,,,,,,,,,,,,,,,,,,,,,,,,,,,,,,,,1.7,246.70099350000964,None,space,0,248.5014133999939,None,248.5014133999939,None,248.5014133999939,None,249.40278470001067,None,0.3240327000094112,,,,,,,,,,,,,,,,,,,,,,,,,,,,,,,,,,,,,,,,,,,,,,,,,P024,FENCOG,2,Pre,2022_Feb_11_1052,Go No-Go Task,2021.1.4,120.00955276328463,
EPracticeConditions/BlueScram.csv,"Rule: When you see a blue image, do not press 'spacebar'.",Images/Scram2/AF10_NC.jpg,Scramble,Yellow,Images/Yellow.jpg,space,,,,,,,0,2,2,2,0,7,7,2,,,,,,,,,,,,,,,,,,,,,,,,,,,,,,,,,,,,,,,,,,,,,,,,,,,1.5,251.4080791999877,None,None,0,253.00828690000344,None,253.00828690000344,None,253.00828690000344,None,253.90927589999046,None,,,,,,,,,,,,,,,,,,,,,,,,,,,,,,,,,,,,,,,,,,,,,,,,,,P024,FENCOG,2,Pre,2022_Feb_11_1052,Go No-Go Task,2021.1.4,120.00955276328463,
EPracticeConditions/BlueScram.csv,"Rule: When you see a blue image, do not press 'spacebar'.",,,,,,,,,,,,0,2,2,2,,,,,,,,,,,,,,,,,,,,,,,,,,,,,,,,,,,,,,,,,,,,,,,,,,,,,,,,,,,,,,,,,,,,,,,,,,,,,,,,,,,,,,,,,,,,,,,,,,,,,,,,,,,,,,,,,,,,,P024,FENCOG,2,Pre,2022_Feb_11_1052,Go No-Go Task,2021.1.4,120.00955276328463,
EPracticeConditions/YellowScram.csv,"Rule: When you see a yellow image, do not press 'spacebar'.",Images/Scram1/AF10_NC.jpg,Scramble,Blue,Images/Blue.jpg,space,,,,,,,0,3,3,3,0,0,0,6,,,,,,,,,,,,,,,,,,,,,,,,,,,,,,,,,,,,,255.9241747999913,None,258.91425639999215,None,space,0.7110802000097465,258.91425639999215,None,255.9241747999913,None,255.9241747999913,None,255.9241747999913,None,1.5,259.63998869998613,None,None,0,261.2483416000032,None,261.2483416000032,None,261.2483416000032,None,262.1552190000075,None,,,,,,,,,,,,,,,,,,,,,,,,,,,,,,,,,,,,,,,,,,,,,,,,,,P024,FENCOG,2,Pre,2022_Feb_11_1052,Go No-Go Task,2021.1.4,120.00955276328463,
EPracticeConditions/YellowScram.csv,"Rule: When you see a yellow image, do not press 'spacebar'.",Images/Scram1/AF07NES.jpg,Scramble,Blue,Images/Blue.jpg,space,,,,,,,0,3,3,3,0,1,1,3,,,,,,,,,,,,,,,,,,,,,,,,,,,,,,,,,,,,,,,,,,,,,,,,,,,1.2,264.1543535999954,None,space,1,265.4715242999955,None,265.4715242999955,None,265.4715242999955,None,266.353231599991,None,0.3139266000071075,,,,,,,,,,,,,,,,,,,,,,,,,,,,,,,,,,,,,,,,,,,,,,,,,P024,FENCOG,2,Pre,2022_Feb_11_1052,Go No-Go Task,2021.1.4,120.00955276328463,
EPracticeConditions/YellowScram.csv,"Rule: When you see a yellow image, do not press 'spacebar'.",Images/Scram1/BM01_NC.jpg,Scramble,Blue,Images/Blue.jpg,space,,,,,,,0,3,3,3,0,2,2,5,,,,,,,,,,,,,,,,,,,,,,,,,,,,,,,,,,,,,,,,,,,,,,,,,,,1.6,268.352968399995,None,space,1,270.05343150001136,None,270.05343150001136,None,270.05343150001136,None,270.96124679999775,None,0.35607860001618974,,,,,,,,,,,,,,,,,,,,,,,,,,,,,,,,,,,,,,,,,,,,,,,,,P024,FENCOG,2,Pre,2022_Feb_11_1052,Go No-Go Task,2021.1.4,120.00955276328463,
EPracticeConditions/YellowScram.csv,"Rule: When you see a yellow image, do not press 'spacebar'.",Images/Scram1/AF30NES.JPG,Scramble,Blue,Images/Blue.jpg,space,,,,,,,0,3,3,3,0,3,3,4,,,,,,,,,,,,,,,,,,,,,,,,,,,,,,,,,,,,,,,,,,,,,,,,,,,1.4,272.9600997999951,None,space,1,274.46047940000426,None,274.46047940000426,None,274.46047940000426,None,275.3537623999873,None,0.37294780000229366,,,,,,,,,,,,,,,,,,,,,,,,,,,,,,,,,,,,,,,,,,,,,,,,,P024,FENCOG,2,Pre,2022_Feb_11_1052,Go No-Go Task,2021.1.4,120.00955276328463,
EPracticeConditions/YellowScram.csv,"Rule: When you see a yellow image, do not press 'spacebar'.",Images/Scram1/HF04_NC.jpg,Scramble,Blue,Images/Blue.jpg,space,,,,,,,0,3,3,3,0,4,4,2,,,,,,,,,,,,,,,,,,,,,,,,,,,,,,,,,,,,,,,,,,,,,,,,,,,1.7,277.3595248000056,None,space,1,279.1757028000138,None,279.1757028000138,None,279.1757028000138,None,280.06628249998903,None,0.3136936000082642,,,,,,,,,,,,,,,,,,,,,,,,,,,,,,,,,,,,,,,,,,,,,,,,,P024,FENCOG,2,Pre,2022_Feb_11_1052,Go No-Go Task,2021.1.4,120.00955276328463,
EPracticeConditions/YellowScram.csv,"Rule: When you see a yellow image, do not press 'spacebar'.",Images/Scram2/AM03NES.jpg,Scramble,Yellow,Images/Yellow.jpg,None,,,,,,,0,3,3,3,0,5,5,1,,,,,,,,,,,,,,,,,,,,,,,,,,,,,,,,,,,,,,,,,,,,,,,,,,,1.9,282.06683170000906,None,space,0,284.07413640001323,None,284.07413640001323,None,284.07413640001323,None,284.964839399996,None,0.2712026999797672,,,,,,,,,,,,,,,,,,,,,,,,,,,,,,,,,,,,,,,,,,,,,,,,,P024,FENCOG,2,Pre,2022_Feb_11_1052,Go No-Go Task,2021.1.4,120.00955276328463,
EPracticeConditions/YellowScram.csv,"Rule: When you see a yellow image, do not press 'spacebar'.",Images/Scram2/HM06_NC.jpg,Scramble,Yellow,Images/Yellow.jpg,None,,,,,,,0,3,3,3,0,6,6,0,,,,,,,,,,,,,,,,,,,,,,,,,,,,,,,,,,,,,,,,,,,,,,,,,,,1.8,286.9641183000058,None,None,1,288.864560099988,None,288.864560099988,None,288.864560099988,None,289.768058799993,None,,,,,,,,,,,,,,,,,,,,,,,,,,,,,,,,,,,,,,,,,,,,,,,,,,P024,FENCOG,2,Pre,2022_Feb_11_1052,Go No-Go Task,2021.1.4,120.00955276328463,
EPracticeConditions/YellowScram.csv,"Rule: When you see a yellow image, do not press 'spacebar'.",Images/Scram1/AF24NES.jpg,Scramble,Blue,Images/Blue.jpg,space,,,,,,,0,3,3,3,0,7,7,7,,,,,,,,,,,,,,,,,,,,,,,,,,,,,,,,,,,,,,,,,,,,,,,,,,,1.3,291.7712484000076,None,space,1,293.16291049998836,None,293.16291049998836,None,293.16291049998836,None,294.0594861000136,None,0.3503301999880932,,,,,,,,,,,,,,,,,,,,,,,,,,,,,,,,,,,,,,,,,,,,,,,,,P024,FENCOG,2,Pre,2022_Feb_11_1052,Go No-Go Task,2021.1.4,120.00955276328463,
EPracticeConditions/YellowScram.csv,"Rule: When you see a yellow image, do not press 'spacebar'.",,,,,,,,,,,,0,3,3,3,,,,,,,,,,,,,,,,,,,,,,,,,,,,,,,,,,,,,,,,,,,,,,,,,,,,,,,,,,,,,,,,,,,,,,,,,,,,,,,,,,,,,,,,,,,,,,,,,,,,,,,,,,,,,,,,,,,,,P024,FENCOG,2,Pre,2022_Feb_11_1052,Go No-Go Task,2021.1.4,120.00955276328463,
,,,,,,,,,,,,,,,,,,,,,,,,,,,,,,,,,,,,,,,,,,,,,,,,,,,,,,,,,,,,,,,,,,,,,,,,,,,,,,,,,,,,,297.4238189999887,None,space,4.978424300003098,297.90306680000504,None,,,,,,,,,,,,,,,,,,,,,,,,,,,,,,,,,,,,,,,,,,,P024,FENCOG,2,Pre,2022_Feb_11_1052,Go No-Go Task,2021.1.4,120.00955276328463,
,,,,,,,,,,,,,,,,,,,,,,,,,,,,,,,,,,,,,,,,,,,,,,,,,,,,,,,,,,,,,,,,,,,,,,,,,,,,,,,,,,,,,,,,,,,302.8946744000132,None,space,1.330748299980769,302.8946744000132,None,,,,,,,,,,,,,,,,,,,,,,,,,,,,,,,,,,,,,P024,FENCOG,2,Pre,2022_Feb_11_1052,Go No-Go Task,2021.1.4,120.00955276328463,
,"Rule: When you see a yellow image, do not press 'spacebar'.",Images/Happy/BF09_HO.jpg,Happy,Blue,Images/Blue.jpg,space,ParentConditions/YellowYellowBlue_v2.xlsx,YellowYellowBlue,Conditions/Version_2/YellowFearStop.xlsx,no,PASS,0.2009685743777515,,,,,,,,,0,0,0,1,0,0,0,0,0,0,0,0,,,,,,,,,,,,,,,,,,,,,,,,,,,,,,,,,,,,,,,,,,,,,,,,,,,,,,,,,,,,,,,,,304.30680890000076,None,307.3004449,None,space,0.13279450000845827,307.3004449,None,304.30680890000076,None,304.30680890000076,None,304.30680890000076,None,1.55,307.4878286999883,None,space,1,0.3475985999975819,309.14178969999193,None,309.14178969999193,None,309.14178969999193,None,,,,,,,,,,,P024,FENCOG,2,Pre,2022_Feb_11_1052,Go No-Go Task,2021.1.4,120.00955276328463,
,"Rule: When you see a yellow image, do not press 'spacebar'.",Images/Happy/AF30HAS.jpg,Happy,Blue,Images/Blue.jpg,space,ParentConditions/YellowYellowBlue_v2.xlsx,YellowYellowBlue,Conditions/Version_2/YellowFearStop.xlsx,no,PASS,0.9679561444510932,,,,,,,,,0,0,0,1,0,0,0,0,0,1,1,1,,,,,,,,,,,,,,,,,,,,,,,,,,,,,,,,,,,,,,,,,,,,,,,,,,,,,,,,,,,,,,,,,,,,,,,,,,,,,,,1.62,309.54311759999837,None,space,1,0.3032874000200536,311.2661895999918,None,311.2661895999918,None,311.2661895999918,None,,,,,,,,,,,P024,FENCOG,2,Pre,2022_Feb_11_1052,Go No-Go Task,2021.1.4,120.00955276328463,
,"Rule: When you see a yellow image, do not press 'spacebar'.",Images/Happy/AF27HAS.jpg,Happy,Blue,Images/Blue.jpg,space,ParentConditions/YellowYellowBlue_v2.xlsx,YellowYellowBlue,Conditions/Version_2/YellowFearStop.xlsx,no,PASS,0.024466481670397555,,,,,,,,,0,0,0,1,0,0,0,0,0,2,2,2,,,,,,,,,,,,,,,,,,,,,,,,,,,,,,,,,,,,,,,,,,,,,,,,,,,,,,,,,,,,,,,,,,,,,,,,,,,,,,,1.45,311.6673393000092,None,space,1,0.21629919999395497,313.23308020000695,None,313.23308020000695,None,313.23308020000695,None,,,,,,,,,,,P024,FENCOG,2,Pre,2022_Feb_11_1052,Go No-Go Task,2021.1.4,120.00955276328463,
,"Rule: When you see a yellow image, do not press 'spacebar'.",Images/Happy/AF22HAS.jpg,Happy,Blue,Images/Blue.jpg,space,ParentConditions/YellowYellowBlue_v2.xlsx,YellowYellowBlue,Conditions/Version_2/YellowFearStop.xlsx,no,PASS,0.900419425166189,,,,,,,,,0,0,0,1,0,0,0,0,0,3,3,3,,,,,,,,,,,,,,,,,,,,,,,,,,,,,,,,,,,,,,,,,,,,,,,,,,,,,,,,,,,,,,,,,,,,,,,,,,,,,,,1.74,313.6313711999974,None,space,1,0.31999280001036823,315.4734409000084,None,315.4734409000084,None,315.4734409000084,None,,,,,,,,,,,P024,FENCOG,2,Pre,2022_Feb_11_1052,Go No-Go Task,2021.1.4,120.00955276328463,
,"Rule: When you see a yellow image, do not press 'spacebar'.",Images/Happy/WM11_HC.jpg,Happy,Blue,Images/Blue.jpg,space,ParentConditions/YellowYellowBlue_v2.xlsx,YellowYellowBlue,Conditions/Version_2/YellowFearStop.xlsx,no,PASS,0.5042081063795358,,,,,,,,,0,0,0,1,0,0,0,0,0,4,4,4,,,,,,,,,,,,,,,,,,,,,,,,,,,,,,,,,,,,,,,,,,,,,,,,,,,,,,,,,,,,,,,,,,,,,,,,,,,,,,,1.63,315.8736471000011,None,space,1,0.27521449999767356,317.606060399994,None,317.606060399994,None,317.606060399994,None,,,,,,,,,,,P024,FENCOG,2,Pre,2022_Feb_11_1052,Go No-Go Task,2021.1.4,120.00955276328463,
,"Rule: When you see a yellow image, do not press 'spacebar'.",Images/Happy/BF05_HO.jpg,Happy,Blue,Images/Blue.jpg,space,ParentConditions/YellowYellowBlue_v2.xlsx,YellowYellowBlue,Conditions/Version_2/YellowFearStop.xlsx,no,PASS,0.6687720633168746,,,,,,,,,0,0,0,1,0,0,0,0,0,5,5,5,,,,,,,,,,,,,,,,,,,,,,,,,,,,,,,,,,,,,,,,,,,,,,,,,,,,,,,,,,,,,,,,,,,,,,,,,,,,,,,1.54,318.0052094999992,None,space,1,0.34638790000462905,319.64714610000374,None,319.64714610000374,None,319.64714610000374,None,,,,,,,,,,,P024,FENCOG,2,Pre,2022_Feb_11_1052,Go No-Go Task,2021.1.4,120.00955276328463,
,"Rule: When you see a yellow image, do not press 'spacebar'.",Images/Fearful/AM01AFS.jpg,Fear,Yellow,Images/Yellow.jpg,None,ParentConditions/YellowYellowBlue_v2.xlsx,YellowYellowBlue,Conditions/Version_2/YellowFearStop.xlsx,yes,PASS,0.008120847249678764,,,,,,,,,0,0,0,1,0,0,0,0,0,6,6,6,,,,,,,,,,,,,,,,,,,,,,,,,,,,,,,,,,,,,,,,,,,,,,,,,,,,,,,,,,,,,,,,,,,,,,,,,,,,,,,1.94,320.04611649998697,None,None,1,,322.08796010000515,None,322.08796010000515,None,322.08796010000515,None,,,,,,,,,,,P024,FENCOG,2,Pre,2022_Feb_11_1052,Go No-Go Task,2021.1.4,120.00955276328463,
,"Rule: When you see a yellow image, do not press 'spacebar'.",Images/Happy/AF23HAS.jpg,Happy,Blue,Images/Blue.jpg,space,ParentConditions/YellowYellowBlue_v2.xlsx,YellowYellowBlue,Conditions/Version_2/YellowFearStop.xlsx,no,PASS,0.07023198870971747,,,,,,,,,0,0,0,1,0,0,0,0,0,7,7,7,,,,,,,,,,,,,,,,,,,,,,,,,,,,,,,,,,,,,,,,,,,,,,,,,,,,,,,,,,,,,,,,,,,,,,,,,,,,,,,1.58,322.48720770000364,None,space,1,0.20683790001203306,324.1707258000097,None,324.1707258000097,None,324.1707258000097,None,,,,,,,,,,,P024,FENCOG,2,Pre,2022_Feb_11_1052,Go No-Go Task,2021.1.4,120.00955276328463,
,"Rule: When you see a yellow image, do not press 'spacebar'.",Images/Happy/AM16HAS.jpg,Happy,Blue,Images/Blue.jpg,space,ParentConditions/YellowYellowBlue_v2.xlsx,YellowYellowBlue,Conditions/Version_2/YellowFearStop.xlsx,no,PASS,0.031804034281165405,,,,,,,,,0,0,0,1,0,0,0,0,0,8,8,8,,,,,,,,,,,,,,,,,,,,,,,,,,,,,,,,,,,,,,,,,,,,,,,,,,,,,,,,,,,,,,,,,,,,,,,,,,,,,,,1.2,324.57187590000103,None,space,1,0.21900149999419227,325.878624200006,None,325.878624200006,None,325.878624200006,None,,,,,,,,,,,P024,FENCOG,2,Pre,2022_Feb_11_1052,Go No-Go Task,2021.1.4,120.00955276328463,
,"Rule: When you see a yellow image, do not press 'spacebar'.",Images/Happy/AM04HAS.jpg,Happy,Blue,Images/Blue.jpg,space,ParentConditions/YellowYellowBlue_v2.xlsx,YellowYellowBlue,Conditions/Version_2/YellowFearStop.xlsx,no,PASS,0.0002121348500070397,,,,,,,,,0,0,0,1,0,0,0,0,0,9,9,9,,,,,,,,,,,,,,,,,,,,,,,,,,,,,,,,,,,,,,,,,,,,,,,,,,,,,,,,,,,,,,,,,,,,,,,,,,,,,,,1.57,326.2788903999899,None,space,1,0.2885390999726951,327.9528556999867,None,327.9528556999867,None,327.9528556999867,None,,,,,,,,,,,P024,FENCOG,2,Pre,2022_Feb_11_1052,Go No-Go Task,2021.1.4,120.00955276328463,
,"Rule: When you see a yellow image, do not press 'spacebar'.",Images/Happy/AF26HAS.jpg,Happy,Blue,Images/Blue.jpg,space,ParentConditions/YellowYellowBlue_v2.xlsx,YellowYellowBlue,Conditions/Version_2/YellowFearStop.xlsx,no,PASS,0.408079602030768,,,,,,,,,0,0,0,1,0,0,0,0,0,10,10,10,,,,,,,,,,,,,,,,,,,,,,,,,,,,,,,,,,,,,,,,,,,,,,,,,,,,,,,,,,,,,,,,,,,,,,,,,,,,,,,1.97,328.35339360000216,None,space,1,0.38204190001124516,330.4273351999873,None,330.4273351999873,None,330.4273351999873,None,,,,,,,,,,,P024,FENCOG,2,Pre,2022_Feb_11_1052,Go No-Go Task,2021.1.4,120.00955276328463,
,"Rule: When you see a yellow image, do not press 'spacebar'.",Images/Fearful/AF10_FC.jpg,Fear,Yellow,Images/Yellow.jpg,None,ParentConditions/YellowYellowBlue_v2.xlsx,YellowYellowBlue,Conditions/Version_2/YellowFearStop.xlsx,yes,PASS,0.43118367877877073,,,,,,,,,0,0,0,1,0,0,0,0,0,11,11,11,,,,,,,,,,,,,,,,,,,,,,,,,,,,,,,,,,,,,,,,,,,,,,,,,,,,,,,,,,,,,,,,,,,,,,,,,,,,,,,1.76,330.8269503999909,None,space,0,0.3240287999797147,332.6933063000033,None,332.6933063000033,None,332.6933063000033,None,,,,,,,,,,,P024,FENCOG,2,Pre,2022_Feb_11_1052,Go No-Go Task,2021.1.4,120.00955276328463,
,"Rule: When you see a yellow image, do not press 'spacebar'.",Images/Fearful/AM09_FO.jpg,Fear,Yellow,Images/Yellow.jpg,None,ParentConditions/YellowYellowBlue_v2.xlsx,YellowYellowBlue,Conditions/Version_2/YellowFearStop.xlsx,yes,PASS,0.25324381257324213,,,,,,,,,0,0,0,1,0,0,0,0,0,12,12,12,,,,,,,,,,,,,,,,,,,,,,,,,,,,,,,,,,,,,,,,,,,,,,,,,,,,,,,,,,,,,,,,,,,,,,,,,,,,,,,1.34,333.0936539999966,None,space,0,0.23532839998370036,334.53445340000326,None,334.53445340000326,None,334.53445340000326,None,,,,,,,,,,,P024,FENCOG,2,Pre,2022_Feb_11_1052,Go No-Go Task,2021.1.4,120.00955276328463,
,"Rule: When you see a yellow image, do not press 'spacebar'.",Images/Happy/HM04_HO.jpg,Happy,Blue,Images/Blue.jpg,space,ParentConditions/YellowYellowBlue_v2.xlsx,YellowYellowBlue,Conditions/Version_2/YellowFearStop.xlsx,no,PASS,0.4072425132028237,,,,,,,,,0,0,0,1,0,0,0,0,0,13,13,13,,,,,,,,,,,,,,,,,,,,,,,,,,,,,,,,,,,,,,,,,,,,,,,,,,,,,,,,,,,,,,,,,,,,,,,,,,,,,,,1.37,334.93364689999726,None,space,1,0.3606791000056546,336.40883709999616,None,336.40883709999616,None,336.40883709999616,None,,,,,,,,,,,P024,FENCOG,2,Pre,2022_Feb_11_1052,Go No-Go Task,2021.1.4,120.00955276328463,
,"Rule: When you see a yellow image, do not press 'spacebar'.",Images/Fearful/AM04_FO.jpg,Fear,Yellow,Images/Yellow.jpg,None,ParentConditions/YellowYellowBlue_v2.xlsx,YellowYellowBlue,Conditions/Version_2/YellowFearStop.xlsx,yes,PASS,0.7288256558461894,,,,,,,,,0,0,0,1,0,0,0,0,0,14,14,14,,,,,,,,,,,,,,,,,,,,,,,,,,,,,,,,,,,,,,,,,,,,,,,,,,,,,,,,,,,,,,,,,,,,,,,,,,,,,,,1.64,336.8092112999875,None,None,1,,338.54969009998604,None,338.54969009998604,None,338.54969009998604,None,,,,,,,,,,,P024,FENCOG,2,Pre,2022_Feb_11_1052,Go No-Go Task,2021.1.4,120.00955276328463,
,"Rule: When you see a yellow image, do not press 'spacebar'.",Images/Happy/AM13HAS.jpg,Happy,Blue,Images/Blue.jpg,space,ParentConditions/YellowYellowBlue_v2.xlsx,YellowYellowBlue,Conditions/Version_2/YellowFearStop.xlsx,no,PASS,0.9405484517370288,,,,,,,,,0,0,0,1,0,0,0,0,0,15,15,15,,,,,,,,,,,,,,,,,,,,,,,,,,,,,,,,,,,,,,,,,,,,,,,,,,,,,,,,,,,,,,,,,,,,,,,,,,,,,,,1.44,338.94900849999976,None,space,1,0.23869549998198636,340.4910264000064,None,340.4910264000064,None,340.4910264000064,None,,,,,,,,,,,P024,FENCOG,2,Pre,2022_Feb_11_1052,Go No-Go Task,2021.1.4,120.00955276328463,
,"Rule: When you see a yellow image, do not press 'spacebar'.",Images/Fearful/AF09AFS.jpg,Fear,Yellow,Images/Yellow.jpg,None,ParentConditions/YellowYellowBlue_v2.xlsx,YellowYellowBlue,Conditions/Version_2/YellowFearStop.xlsx,yes,PASS,0.6464881792541419,,,,,,,,,0,0,0,1,0,0,0,0,0,16,16,16,,,,,,,,,,,,,,,,,,,,,,,,,,,,,,,,,,,,,,,,,,,,,,,,,,,,,,,,,,,,,,,,,,,,,,,,,,,,,,,1.25,340.8906617999892,None,None,1,,342.2405138000031,None,342.2405138000031,None,342.2405138000031,None,,,,,,,,,,,P024,FENCOG,2,Pre,2022_Feb_11_1052,Go No-Go Task,2021.1.4,120.00955276328463,
,"Rule: When you see a yellow image, do not press 'spacebar'.",Images/Fearful/BF05_FO.jpg,Fear,Yellow,Images/Yellow.jpg,None,ParentConditions/YellowYellowBlue_v2.xlsx,YellowYellowBlue,Conditions/Version_2/YellowFearStop.xlsx,yes,PASS,0.37509261462312704,,,,,,,,,0,0,0,1,0,0,0,0,0,17,17,17,,,,,,,,,,,,,,,,,,,,,,,,,,,,,,,,,,,,,,,,,,,,,,,,,,,,,,,,,,,,,,,,,,,,,,,,,,,,,,,1.31,342.6396105999884,None,None,1,,344.0564473000122,None,344.0564473000122,None,344.0564473000122,None,,,,,,,,,,,P024,FENCOG,2,Pre,2022_Feb_11_1052,Go No-Go Task,2021.1.4,120.00955276328463,
,"Rule: When you see a yellow image, do not press 'spacebar'.",Images/Happy/AM24HAS.jpg,Happy,Blue,Images/Blue.jpg,space,ParentConditions/YellowYellowBlue_v2.xlsx,YellowYellowBlue,Conditions/Version_2/YellowFearStop.xlsx,no,PASS,0.016158036932588105,,,,,,,,,0,0,0,1,0,0,0,0,0,18,18,18,,,,,,,,,,,,,,,,,,,,,,,,,,,,,,,,,,,,,,,,,,,,,,,,,,,,,,,,,,,,,,,,,,,,,,,,,,,,,,,1.7,344.4600892000017,None,space,1,0.24865769999451004,346.27271349998773,None,346.27271349998773,None,346.27271349998773,None,,,,,,,,,,,P024,FENCOG,2,Pre,2022_Feb_11_1052,Go No-Go Task,2021.1.4,120.00955276328463,
,"Rule: When you see a yellow image, do not press 'spacebar'.",Images/Fearful/AF11AFS.jpg,Fear,Yellow,Images/Yellow.jpg,None,ParentConditions/YellowYellowBlue_v2.xlsx,YellowYellowBlue,Conditions/Version_2/YellowFearStop.xlsx,yes,PASS,0.3371554357894605,,,,,,,,,0,0,0,1,0,0,0,0,0,19,19,19,,,,,,,,,,,,,,,,,,,,,,,,,,,,,,,,,,,,,,,,,,,,,,,,,,,,,,,,,,,,,,,,,,,,,,,,,,,,,,,1.33,346.6717642000003,None,None,1,,348.1054554999864,None,348.1054554999864,None,348.1054554999864,None,,,,,,,,,,,P024,FENCOG,2,Pre,2022_Feb_11_1052,Go No-Go Task,2021.1.4,120.00955276328463,
,"Rule: When you see a yellow image, do not press 'spacebar'.",Images/Happy/AF01_HE.jpg,Happy,Blue,Images/Blue.jpg,space,ParentConditions/YellowYellowBlue_v2.xlsx,YellowYellowBlue,Conditions/Version_2/YellowFearStop.xlsx,no,PASS,0.09770872574206646,,,,,,,,,0,0,0,1,0,0,0,0,0,20,20,20,,,,,,,,,,,,,,,,,,,,,,,,,,,,,,,,,,,,,,,,,,,,,,,,,,,,,,,,,,,,,,,,,,,,,,,,,,,,,,,1.51,348.5057506999874,None,None,0,,350.1215408999997,None,350.1215408999997,None,350.1215408999997,None,,,,,,,,,,,P024,FENCOG,2,Pre,2022_Feb_11_1052,Go No-Go Task,2021.1.4,120.00955276328463,
,"Rule: When you see a yellow image, do not press 'spacebar'.",Images/Happy/AM10_HO.jpg,Happy,Blue,Images/Blue.jpg,space,ParentConditions/YellowYellowBlue_v2.xlsx,YellowYellowBlue,Conditions/Version_2/YellowFearStop.xlsx,no,PASS,0.35803186882916893,,,,,,,,,0,0,0,1,0,0,0,0,0,21,21,21,,,,,,,,,,,,,,,,,,,,,,,,,,,,,,,,,,,,,,,,,,,,,,,,,,,,,,,,,,,,,,,,,,,,,,,,,,,,,,,1.77,350.5229645000072,None,space,1,0.2937800000072457,352.39548480001395,None,352.39548480001395,None,352.39548480001395,None,,,,,,,,,,,P024,FENCOG,2,Pre,2022_Feb_11_1052,Go No-Go Task,2021.1.4,120.00955276328463,
,"Rule: When you see a yellow image, do not press 'spacebar'.",Images/Happy/AF09HAS.jpg,Happy,Blue,Images/Blue.jpg,space,ParentConditions/YellowYellowBlue_v2.xlsx,YellowYellowBlue,Conditions/Version_2/YellowFearStop.xlsx,no,PASS,0.20902890792548556,,,,,,,,,0,0,0,1,0,0,0,0,0,22,22,22,,,,,,,,,,,,,,,,,,,,,,,,,,,,,,,,,,,,,,,,,,,,,,,,,,,,,,,,,,,,,,,,,,,,,,,,,,,,,,,1.24,352.79486150000594,None,space,1,0.2806167000089772,354.1369527000061,None,354.1369527000061,None,354.1369527000061,None,,,,,,,,,,,P024,FENCOG,2,Pre,2022_Feb_11_1052,Go No-Go Task,2021.1.4,120.00955276328463,
,"Rule: When you see a yellow image, do not press 'spacebar'.",Images/Happy/BM02_HO.jpg,Happy,Blue,Images/Blue.jpg,space,ParentConditions/YellowYellowBlue_v2.xlsx,YellowYellowBlue,Conditions/Version_2/YellowFearStop.xlsx,no,PASS,0.6732741052769042,,,,,,,,,0,0,0,1,0,0,0,0,0,23,23,23,,,,,,,,,,,,,,,,,,,,,,,,,,,,,,,,,,,,,,,,,,,,,,,,,,,,,,,,,,,,,,,,,,,,,,,,,,,,,,,1.42,354.53668180000386,None,space,1,0.23606620001373813,356.0615124999895,None,356.0615124999895,None,356.0615124999895,None,,,,,,,,,,,P024,FENCOG,2,Pre,2022_Feb_11_1052,Go No-Go Task,2021.1.4,120.00955276328463,
,"Rule: When you see a yellow image, do not press 'spacebar'.",Images/Happy/AM09_HE.jpg,Happy,Blue,Images/Blue.jpg,space,ParentConditions/YellowYellowBlue_v2.xlsx,YellowYellowBlue,Conditions/Version_2/YellowFearStop.xlsx,no,PASS,0.6065078221259242,,,,,,,,,0,0,0,1,0,0,0,0,0,24,24,24,,,,,,,,,,,,,,,,,,,,,,,,,,,,,,,,,,,,,,,,,,,,,,,,,,,,,,,,,,,,,,,,,,,,,,,,,,,,,,,1.82,356.46208090000437,None,space,1,0.23985420001554303,358.3855476999888,None,358.3855476999888,None,358.3855476999888,None,,,,,,,,,,,P024,FENCOG,2,Pre,2022_Feb_11_1052,Go No-Go Task,2021.1.4,120.00955276328463,
,"Rule: When you see a yellow image, do not press 'spacebar'.",Images/Happy/AF10_HE.jpg,Happy,Blue,Images/Blue.jpg,space,ParentConditions/YellowYellowBlue_v2.xlsx,YellowYellowBlue,Conditions/Version_2/YellowFearStop.xlsx,no,PASS,0.6869968801100608,,,,,,,,,0,0,0,1,0,0,0,0,0,25,25,25,,,,,,,,,,,,,,,,,,,,,,,,,,,,,,,,,,,,,,,,,,,,,,,,,,,,,,,,,,,,,,,,,,,,,,,,,,,,,,,1.78,358.78604850001284,None,None,0,,360.66822270001285,None,360.66822270001285,None,360.66822270001285,None,,,,,,,,,,,P024,FENCOG,2,Pre,2022_Feb_11_1052,Go No-Go Task,2021.1.4,120.00955276328463,
,"Rule: When you see a yellow image, do not press 'spacebar'.",Images/Happy/BM01_HO.jpg,Happy,Blue,Images/Blue.jpg,space,ParentConditions/YellowYellowBlue_v2.xlsx,YellowYellowBlue,Conditions/Version_2/YellowFearStop.xlsx,no,PASS,0.5538207000686074,,,,,,,,,0,0,0,1,0,0,0,0,0,26,26,26,,,,,,,,,,,,,,,,,,,,,,,,,,,,,,,,,,,,,,,,,,,,,,,,,,,,,,,,,,,,,,,,,,,,,,,,,,,,,,,1.83,361.06876309998916,None,space,1,0.2086948000069242,363.0009887999913,None,363.0009887999913,None,363.0009887999913,None,,,,,,,,,,,P024,FENCOG,2,Pre,2022_Feb_11_1052,Go No-Go Task,2021.1.4,120.00955276328463,
,"Rule: When you see a yellow image, do not press 'spacebar'.",Images/Fearful/AF07_FO.jpg,Fear,Yellow,Images/Yellow.jpg,None,ParentConditions/YellowYellowBlue_v2.xlsx,YellowYellowBlue,Conditions/Version_2/YellowFearStop.xlsx,yes,PASS,0.5689879324899989,,,,,,,,,0,0,0,1,0,0,0,0,0,27,27,27,,,,,,,,,,,,,,,,,,,,,,,,,,,,,,,,,,,,,,,,,,,,,,,,,,,,,,,,,,,,,,,,,,,,,,,,,,,,,,,1.61,363.40146289998665,None,None,1,,365.1171112000011,None,365.1171112000011,None,365.1171112000011,None,,,,,,,,,,,P024,FENCOG,2,Pre,2022_Feb_11_1052,Go No-Go Task,2021.1.4,120.00955276328463,
,"Rule: When you see a yellow image, do not press 'spacebar'.",Images/Happy/BF18_HO.jpg,Happy,Blue,Images/Blue.jpg,space,ParentConditions/YellowYellowBlue_v2.xlsx,YellowYellowBlue,Conditions/Version_2/YellowFearStop.xlsx,no,PASS,0.2528908254284902,,,,,,,,,0,0,0,1,0,0,0,0,0,28,28,28,,,,,,,,,,,,,,,,,,,,,,,,,,,,,,,,,,,,,,,,,,,,,,,,,,,,,,,,,,,,,,,,,,,,,,,,,,,,,,,1.91,365.51751149998745,None,space,1,0.2201000000059139,367.54130240000086,None,367.54130240000086,None,367.54130240000086,None,,,,,,,,,,,P024,FENCOG,2,Pre,2022_Feb_11_1052,Go No-Go Task,2021.1.4,120.00955276328463,
,"Rule: When you see a yellow image, do not press 'spacebar'.",Images/Happy/AM03HAS.jpg,Happy,Blue,Images/Blue.jpg,space,ParentConditions/YellowYellowBlue_v2.xlsx,YellowYellowBlue,Conditions/Version_2/YellowFearStop.xlsx,no,PASS,0.6129705520501836,,,,,,,,,0,0,0,1,0,0,0,0,0,29,29,29,,,,,,,,,,,,,,,,,,,,,,,,,,,,,,,,,,,,,,,,,,,,,,,,,,,,,,,,,,,,,,,,,,,,,,,,,,,,,,,1.27,367.94021780000185,None,space,1,0.25341130001470447,369.3241502000019,None,369.3241502000019,None,369.3241502000019,None,,,,,,,,,,,P024,FENCOG,2,Pre,2022_Feb_11_1052,Go No-Go Task,2021.1.4,120.00955276328463,
,"Rule: When you see a yellow image, do not press 'spacebar'.",Images/Happy/BF10_HO.jpg,Happy,Blue,Images/Blue.jpg,space,ParentConditions/YellowYellowBlue_v2.xlsx,YellowYellowBlue,Conditions/Version_2/YellowFearStop.xlsx,no,PASS,0.6633214650414543,,,,,,,,,0,0,0,1,0,0,0,0,0,30,30,30,,,,,,,,,,,,,,,,,,,,,,,,,,,,,,,,,,,,,,,,,,,,,,,,,,,,,,,,,,,,,,,,,,,,,,,,,,,,,,,1.69,369.723278999998,None,space,1,0.22221179999178275,371.5232621000032,None,371.5232621000032,None,371.5232621000032,None,,,,,,,,,,,P024,FENCOG,2,Pre,2022_Feb_11_1052,Go No-Go Task,2021.1.4,120.00955276328463,
,"Rule: When you see a yellow image, do not press 'spacebar'.",Images/Happy/BF07_HO.jpg,Happy,Blue,Images/Blue.jpg,space,ParentConditions/YellowYellowBlue_v2.xlsx,YellowYellowBlue,Conditions/Version_2/YellowFearStop.xlsx,no,PASS,0.38343441764823294,,,,,,,,,0,0,0,1,0,0,0,0,0,31,31,31,,,,,,,,,,,,,,,,,,,,,,,,,,,,,,,,,,,,,,,,,,,,,,,,,,,,,,,,,,,,,,,,,,,,,,,,,,,,,,,1.99,371.92299200000707,None,space,1,0.2590845999948215,374.0144225000113,None,374.0144225000113,None,374.0144225000113,None,,,,,,,,,,,P024,FENCOG,2,Pre,2022_Feb_11_1052,Go No-Go Task,2021.1.4,120.00955276328463,
,"Rule: When you see a yellow image, do not press 'spacebar'.",Images/Fearful/BF07_FO.jpg,Fear,Yellow,Images/Yellow.jpg,None,ParentConditions/YellowYellowBlue_v2.xlsx,YellowYellowBlue,Conditions/Version_2/YellowFearStop.xlsx,yes,PASS,0.00831620462665883,,,,,,,,,0,0,0,1,0,0,0,0,0,32,32,32,,,,,,,,,,,,,,,,,,,,,,,,,,,,,,,,,,,,,,,,,,,,,,,,,,,,,,,,,,,,,,,,,,,,,,,,,,,,,,,1.71,374.4138161999872,None,space,0,0.21934589999727905,376.23041660001036,None,376.23041660001036,None,376.23041660001036,None,,,,,,,,,,,P024,FENCOG,2,Pre,2022_Feb_11_1052,Go No-Go Task,2021.1.4,120.00955276328463,
,"Rule: When you see a yellow image, do not press 'spacebar'.",Images/Happy/WF04_HC.jpg,Happy,Blue,Images/Blue.jpg,space,ParentConditions/YellowYellowBlue_v2.xlsx,YellowYellowBlue,Conditions/Version_2/YellowFearStop.xlsx,no,PASS,0.6777495076385776,,,,,,,,,0,0,0,1,0,0,0,0,0,33,33,33,,,,,,,,,,,,,,,,,,,,,,,,,,,,,,,,,,,,,,,,,,,,,,,,,,,,,,,,,,,,,,,,,,,,,,,,,,,,,,,1.52,376.6310075999936,None,space,1,0.25046980002662167,378.263077599986,None,378.263077599986,None,378.263077599986,None,,,,,,,,,,,P024,FENCOG,2,Pre,2022_Feb_11_1052,Go No-Go Task,2021.1.4,120.00955276328463,
,"Rule: When you see a yellow image, do not press 'spacebar'.",Images/Happy/AM23HAS.jpg,Happy,Blue,Images/Blue.jpg,space,ParentConditions/YellowYellowBlue_v2.xlsx,YellowYellowBlue,Conditions/Version_2/YellowFearStop.xlsx,no,PASS,0.04303712392230152,,,,,,,,,0,0,0,1,0,0,0,0,0,34,34,34,,,,,,,,,,,,,,,,,,,,,,,,,,,,,,,,,,,,,,,,,,,,,,,,,,,,,,,,,,,,,,,,,,,,,,,,,,,,,,,1.49,378.66195559999323,None,space,1,0.2589956000156235,380.2543401999865,None,380.2543401999865,None,380.2543401999865,None,,,,,,,,,,,P024,FENCOG,2,Pre,2022_Feb_11_1052,Go No-Go Task,2021.1.4,120.00955276328463,
,"Rule: When you see a yellow image, do not press 'spacebar'.",Images/Happy/AM09HAS.jpg,Happy,Blue,Images/Blue.jpg,space,ParentConditions/YellowYellowBlue_v2.xlsx,YellowYellowBlue,Conditions/Version_2/YellowFearStop.xlsx,no,PASS,0.09574836161041034,,,,,,,,,0,0,0,1,0,0,0,0,0,35,35,35,,,,,,,,,,,,,,,,,,,,,,,,,,,,,,,,,,,,,,,,,,,,,,,,,,,,,,,,,,,,,,,,,,,,,,,,,,,,,,,1.59,380.65479170001345,None,space,1,0.28029970001080073,382.3452796000056,None,382.3452796000056,None,382.3452796000056,None,,,,,,,,,,,P024,FENCOG,2,Pre,2022_Feb_11_1052,Go No-Go Task,2021.1.4,120.00955276328463,
,"Rule: When you see a yellow image, do not press 'spacebar'.",Images/Happy/AM10HAS.jpg,Happy,Blue,Images/Blue.jpg,space,ParentConditions/YellowYellowBlue_v2.xlsx,YellowYellowBlue,Conditions/Version_2/YellowFearStop.xlsx,no,PASS,0.1630912911655703,,,,,,,,,0,0,0,1,0,0,0,0,0,36,36,36,,,,,,,,,,,,,,,,,,,,,,,,,,,,,,,,,,,,,,,,,,,,,,,,,,,,,,,,,,,,,,,,,,,,,,,,,,,,,,,1.47,382.7455703000014,None,space,1,0.289624900004128,384.3198337999929,None,384.3198337999929,None,384.3198337999929,None,,,,,,,,,,,P024,FENCOG,2,Pre,2022_Feb_11_1052,Go No-Go Task,2021.1.4,120.00955276328463,
,"Rule: When you see a yellow image, do not press 'spacebar'.",Images/Happy/AF07HAS.jpg,Happy,Blue,Images/Blue.jpg,space,ParentConditions/YellowYellowBlue_v2.xlsx,YellowYellowBlue,Conditions/Version_2/YellowFearStop.xlsx,no,PASS,0.34867471869559996,,,,,,,,,0,0,0,1,0,0,0,0,0,37,37,37,,,,,,,,,,,,,,,,,,,,,,,,,,,,,,,,,,,,,,,,,,,,,,,,,,,,,,,,,,,,,,,,,,,,,,,,,,,,,,,1.38,384.72021430000314,None,space,1,0.3270710000069812,386.2024337000039,None,386.2024337000039,None,386.2024337000039,None,,,,,,,,,,,P024,FENCOG,2,Pre,2022_Feb_11_1052,Go No-Go Task,2021.1.4,120.00955276328463,
,"Rule: When you see a yellow image, do not press 'spacebar'.",Images/Happy/AM03_HO.jpg,Happy,Blue,Images/Blue.jpg,space,ParentConditions/YellowYellowBlue_v2.xlsx,YellowYellowBlue,Conditions/Version_2/YellowFearStop.xlsx,no,PASS,0.8852047943617631,,,,,,,,,0,0,0,1,0,0,0,0,0,38,38,38,,,,,,,,,,,,,,,,,,,,,,,,,,,,,,,,,,,,,,,,,,,,,,,,,,,,,,,,,,,,,,,,,,,,,,,,,,,,,,,1.98,386.6029976000136,None,space,1,0.2845210999948904,388.6851546000107,None,388.6851546000107,None,388.6851546000107,None,,,,,,,,,,,P024,FENCOG,2,Pre,2022_Feb_11_1052,Go No-Go Task,2021.1.4,120.00955276328463,
,"Rule: When you see a yellow image, do not press 'spacebar'.",Images/Happy/AM05HAS.jpg,Happy,Blue,Images/Blue.jpg,space,ParentConditions/YellowYellowBlue_v2.xlsx,YellowYellowBlue,Conditions/Version_2/YellowFearStop.xlsx,no,PASS,0.25496798119470154,,,,,,,,,0,0,0,1,0,0,0,0,0,39,39,39,,,,,,,,,,,,,,,,,,,,,,,,,,,,,,,,,,,,,,,,,,,,,,,,,,,,,,,,,,,,,,,,,,,,,,,,,,,,,,,1.35,389.08450349999475,None,space,1,0.26696129998890683,390.5344882000063,None,390.5344882000063,None,390.5344882000063,None,,,,,,,,,,,P024,FENCOG,2,Pre,2022_Feb_11_1052,Go No-Go Task,2021.1.4,120.00955276328463,
,"Rule: When you see a yellow image, do not press 'spacebar'.",Images/Happy/AF02HAS.jpg,Happy,Blue,Images/Blue.jpg,space,ParentConditions/YellowYellowBlue_v2.xlsx,YellowYellowBlue,Conditions/Version_2/YellowFearStop.xlsx,no,PASS,0.4518610007497229,,,,,,,,,0,0,0,1,0,0,0,0,0,40,40,40,,,,,,,,,,,,,,,,,,,,,,,,,,,,,,,,,,,,,,,,,,,,,,,,,,,,,,,,,,,,,,,,,,,,,,,,,,,,,,,1.88,390.93500940001104,None,space,1,0.2603656999999657,392.9173143999942,None,392.9173143999942,None,392.9173143999942,None,,,,,,,,,,,P024,FENCOG,2,Pre,2022_Feb_11_1052,Go No-Go Task,2021.1.4,120.00955276328463,
,"Rule: When you see a yellow image, do not press 'spacebar'.",Images/Happy/BM08_HO.jpg,Happy,Blue,Images/Blue.jpg,space,ParentConditions/YellowYellowBlue_v2.xlsx,YellowYellowBlue,Conditions/Version_2/YellowFearStop.xlsx,no,PASS,0.6109180265070229,,,,,,,,,0,0,0,1,0,0,0,0,0,41,41,41,,,,,,,,,,,,,,,,,,,,,,,,,,,,,,,,,,,,,,,,,,,,,,,,,,,,,,,,,,,,,,,,,,,,,,,,,,,,,,,1.43,393.3171183000086,None,space,1,0.2722469999862369,394.8499802000006,None,394.8499802000006,None,394.8499802000006,None,,,,,,,,,,,P024,FENCOG,2,Pre,2022_Feb_11_1052,Go No-Go Task,2021.1.4,120.00955276328463,
,"Rule: When you see a yellow image, do not press 'spacebar'.",Images/Happy/AM22HAS.jpg,Happy,Blue,Images/Blue.jpg,space,ParentConditions/YellowYellowBlue_v2.xlsx,YellowYellowBlue,Conditions/Version_2/YellowFearStop.xlsx,no,PASS,0.358808559720486,,,,,,,,,0,0,0,1,0,0,0,0,0,42,42,42,,,,,,,,,,,,,,,,,,,,,,,,,,,,,,,,,,,,,,,,,,,,,,,,,,,,,,,,,,,,,,,,,,,,,,,,,,,,,,,1.96,395.24924179998925,None,space,1,0.25359420001041144,397.31583800000953,None,397.31583800000953,None,397.31583800000953,None,,,,,,,,,,,P024,FENCOG,2,Pre,2022_Feb_11_1052,Go No-Go Task,2021.1.4,120.00955276328463,
,"Rule: When you see a yellow image, do not press 'spacebar'.",Images/Happy/AM30HAS.jpg,Happy,Blue,Images/Blue.jpg,space,ParentConditions/YellowYellowBlue_v2.xlsx,YellowYellowBlue,Conditions/Version_2/YellowFearStop.xlsx,no,PASS,0.02897569025915847,,,,,,,,,0,0,0,1,0,0,0,0,0,43,43,43,,,,,,,,,,,,,,,,,,,,,,,,,,,,,,,,,,,,,,,,,,,,,,,,,,,,,,,,,,,,,,,,,,,,,,,,,,,,,,,1.23,397.71528989999206,None,space,1,0.24083239998435602,399.0487407000037,None,399.0487407000037,None,399.0487407000037,None,,,,,,,,,,,P024,FENCOG,2,Pre,2022_Feb_11_1052,Go No-Go Task,2021.1.4,120.00955276328463,
,"Rule: When you see a yellow image, do not press 'spacebar'.",Images/Fearful/BF09_FC.jpg,Fear,Yellow,Images/Yellow.jpg,None,ParentConditions/YellowYellowBlue_v2.xlsx,YellowYellowBlue,Conditions/Version_2/YellowFearStop.xlsx,yes,PASS,0.33656912313274023,,,,,,,,,0,0,0,1,0,0,0,0,0,44,44,44,,,,,,,,,,,,,,,,,,,,,,,,,,,,,,,,,,,,,,,,,,,,,,,,,,,,,,,,,,,,,,,,,,,,,,,,,,,,,,,1.29,399.4489969999995,None,space,0,0.28160980000393465,400.8399412999861,None,400.8399412999861,None,400.8399412999861,None,,,,,,,,,,,P024,FENCOG,2,Pre,2022_Feb_11_1052,Go No-Go Task,2021.1.4,120.00955276328463,
,"Rule: When you see a yellow image, do not press 'spacebar'.",Images/Happy/WM12_HE.jpg,Happy,Blue,Images/Blue.jpg,space,ParentConditions/YellowYellowBlue_v2.xlsx,YellowYellowBlue,Conditions/Version_2/YellowFearStop.xlsx,no,PASS,0.7601850991054155,,,,,,,,,0,0,0,1,0,0,0,0,0,45,45,45,,,,,,,,,,,,,,,,,,,,,,,,,,,,,,,,,,,,,,,,,,,,,,,,,,,,,,,,,,,,,,,,,,,,,,,,,,,,,,,1.79,401.2397462000081,None,space,1,0.32718239998212084,403.13087839999935,None,403.13087839999935,None,403.13087839999935,None,,,,,,,,,,,P024,FENCOG,2,Pre,2022_Feb_11_1052,Go No-Go Task,2021.1.4,120.00955276328463,
,"Rule: When you see a yellow image, do not press 'spacebar'.",Images/Happy/HF10_HE.jpg,Happy,Blue,Images/Blue.jpg,space,ParentConditions/YellowYellowBlue_v2.xlsx,YellowYellowBlue,Conditions/Version_2/YellowFearStop.xlsx,no,PASS,0.6650727272929988,,,,,,,,,0,0,0,1,0,0,0,0,0,46,46,46,,,,,,,,,,,,,,,,,,,,,,,,,,,,,,,,,,,,,,,,,,,,,,,,,,,,,,,,,,,,,,,,,,,,,,,,,,,,,,,1.6,403.5300831999921,None,space,1,0.28311230000690557,405.2303508000041,None,405.2303508000041,None,405.2303508000041,None,,,,,,,,,,,P024,FENCOG,2,Pre,2022_Feb_11_1052,Go No-Go Task,2021.1.4,120.00955276328463,
,"Rule: When you see a yellow image, do not press 'spacebar'.",Images/Happy/HM09_HO.jpg,Happy,Blue,Images/Blue.jpg,space,ParentConditions/YellowYellowBlue_v2.xlsx,YellowYellowBlue,Conditions/Version_2/YellowFearStop.xlsx,no,PASS,0.7196619298468737,,,,,,,,,0,0,0,1,0,0,0,0,0,47,47,47,,,,,,,,,,,,,,,,,,,,,,,,,,,,,,,,,,,,,,,,,,,,,,,,,,,,,,,,,,,,,,,,,,,,,,,,,,,,,,,1.73,405.6293846000044,None,space,1,0.2418560000078287,407.47152570000617,None,407.47152570000617,None,407.47152570000617,None,,,,,,,,,,,P024,FENCOG,2,Pre,2022_Feb_11_1052,Go No-Go Task,2021.1.4,120.00955276328463,
,"Rule: When you see a yellow image, do not press 'spacebar'.",Images/Fearful/AM03_FC.jpg,Fear,Yellow,Images/Yellow.jpg,None,ParentConditions/YellowYellowBlue_v2.xlsx,YellowYellowBlue,Conditions/Version_2/YellowFearStop.xlsx,yes,PASS,0.9021154613913315,,,,,,,,,0,0,0,1,0,0,0,0,0,48,48,48,,,,,,,,,,,,,,,,,,,,,,,,,,,,,,,,,,,,,,,,,,,,,,,,,,,,,,,,,,,,,,,,,,,,,,,,,,,,,,,1.84,407.8702188000025,None,None,1,,409.81227269998635,None,409.81227269998635,None,409.81227269998635,None,,,,,,,,,,,P024,FENCOG,2,Pre,2022_Feb_11_1052,Go No-Go Task,2021.1.4,120.00955276328463,
,"Rule: When you see a yellow image, do not press 'spacebar'.",Images/Happy/HF04_HE.jpg,Happy,Blue,Images/Blue.jpg,space,ParentConditions/YellowYellowBlue_v2.xlsx,YellowYellowBlue,Conditions/Version_2/YellowFearStop.xlsx,no,PASS,0.6828282636628492,,,,,,,,,0,0,0,1,0,0,0,0,0,49,49,49,,,,,,,,,,,,,,,,,,,,,,,,,,,,,,,,,,,,,,,,,,,,,,,,,,,,,,,,,,,,,,,,,,,,,,,,,,,,,,,2,410.21212209999794,None,space,1,0.24986159999389201,412.3197543999995,None,412.3197543999995,None,412.3197543999995,None,,,,,,,,,,,P024,FENCOG,2,Pre,2022_Feb_11_1052,Go No-Go Task,2021.1.4,120.00955276328463,
,"Rule: When you see a yellow image, do not press 'spacebar'.",Images/Happy/AM17HAS.jpg,Happy,Blue,Images/Blue.jpg,space,ParentConditions/YellowYellowBlue_v2.xlsx,YellowYellowBlue,Conditions/Version_2/YellowFearStop.xlsx,no,PASS,0.7726840133197573,,,,,,,,,0,0,0,1,0,0,0,0,0,50,50,50,,,,,,,,,,,,,,,,,,,,,,,,,,,,,,,,,,,,,,,,,,,,,,,,,,,,,,,,,,,,,,,,,,,,,,,,,,,,,,,1.26,412.71922460000496,None,space,1,0.339460399991367,414.0859699000139,None,414.0859699000139,None,414.0859699000139,None,,,,,,,,,,,P024,FENCOG,2,Pre,2022_Feb_11_1052,Go No-Go Task,2021.1.4,120.00955276328463,
,"Rule: When you see a yellow image, do not press 'spacebar'.",Images/Fearful/BM01_FO.jpg,Fear,Yellow,Images/Yellow.jpg,None,ParentConditions/YellowYellowBlue_v2.xlsx,YellowYellowBlue,Conditions/Version_2/YellowFearStop.xlsx,yes,PASS,0.029850228609631824,,,,,,,,,0,0,0,1,0,0,0,0,0,51,51,51,,,,,,,,,,,,,,,,,,,,,,,,,,,,,,,,,,,,,,,,,,,,,,,,,,,,,,,,,,,,,,,,,,,,,,,,,,,,,,,1.4,414.48564319999423,None,None,1,,415.98552180000115,None,415.98552180000115,None,415.98552180000115,None,,,,,,,,,,,P024,FENCOG,2,Pre,2022_Feb_11_1052,Go No-Go Task,2021.1.4,120.00955276328463,
,"Rule: When you see a yellow image, do not press 'spacebar'.",Images/Happy/HF09_HE.jpg,Happy,Blue,Images/Blue.jpg,space,ParentConditions/YellowYellowBlue_v2.xlsx,YellowYellowBlue,Conditions/Version_2/YellowFearStop.xlsx,no,PASS,0.5416297044271999,,,,,,,,,0,0,0,1,0,0,0,0,0,52,52,52,,,,,,,,,,,,,,,,,,,,,,,,,,,,,,,,,,,,,,,,,,,,,,,,,,,,,,,,,,,,,,,,,,,,,,,,,,,,,,,1.9,416.3853747000103,None,space,1,0.3283594000095036,418.39315190000343,None,418.39315190000343,None,418.39315190000343,None,,,,,,,,,,,P024,FENCOG,2,Pre,2022_Feb_11_1052,Go No-Go Task,2021.1.4,120.00955276328463,
,"Rule: When you see a yellow image, do not press 'spacebar'.",Images/Happy/WF11_HE.jpg,Happy,Blue,Images/Blue.jpg,space,ParentConditions/YellowYellowBlue_v2.xlsx,YellowYellowBlue,Conditions/Version_2/YellowFearStop.xlsx,no,PASS,0.3923399468002319,,,,,,,,,0,0,0,1,0,0,0,0,0,53,53,53,,,,,,,,,,,,,,,,,,,,,,,,,,,,,,,,,,,,,,,,,,,,,,,,,,,,,,,,,,,,,,,,,,,,,,,,,,,,,,,1.5,418.79311200001393,None,space,1,0.25659979999181814,420.400876300002,None,420.400876300002,None,420.400876300002,None,,,,,,,,,,,P024,FENCOG,2,Pre,2022_Feb_11_1052,Go No-Go Task,2021.1.4,120.00955276328463,
,"Rule: When you see a yellow image, do not press 'spacebar'.",Images/Fearful/AM04AFS.jpg,Fear,Yellow,Images/Yellow.jpg,None,ParentConditions/YellowYellowBlue_v2.xlsx,YellowYellowBlue,Conditions/Version_2/YellowFearStop.xlsx,yes,PASS,0.7106263735051498,,,,,,,,,0,0,0,1,0,0,0,0,0,54,54,54,,,,,,,,,,,,,,,,,,,,,,,,,,,,,,,,,,,,,,,,,,,,,,,,,,,,,,,,,,,,,,,,,,,,,,,,,,,,,,,1.3,420.80116510001244,None,None,1,,422.2086094999977,None,422.2086094999977,None,422.2086094999977,None,,,,,,,,,,,P024,FENCOG,2,Pre,2022_Feb_11_1052,Go No-Go Task,2021.1.4,120.00955276328463,
,"Rule: When you see a yellow image, do not press 'spacebar'.",Images/Happy/AF19HAS.jpg,Happy,Blue,Images/Blue.jpg,space,ParentConditions/YellowYellowBlue_v2.xlsx,YellowYellowBlue,Conditions/Version_2/YellowFearStop.xlsx,no,PASS,0.3419128984214137,,,,,,,,,0,0,0,1,0,0,0,0,0,55,55,55,,,,,,,,,,,,,,,,,,,,,,,,,,,,,,,,,,,,,,,,,,,,,,,,,,,,,,,,,,,,,,,,,,,,,,,,,,,,,,,1.66,422.60911300001317,None,space,1,0.2586334999941755,424.3747953000129,None,424.3747953000129,None,424.3747953000129,None,,,,,,,,,,,P024,FENCOG,2,Pre,2022_Feb_11_1052,Go No-Go Task,2021.1.4,120.00955276328463,
,"Rule: When you see a yellow image, do not press 'spacebar'.",Images/Happy/HM06_HO.jpg,Happy,Blue,Images/Blue.jpg,space,ParentConditions/YellowYellowBlue_v2.xlsx,YellowYellowBlue,Conditions/Version_2/YellowFearStop.xlsx,no,PASS,0.8215154078276994,,,,,,,,,0,0,0,1,0,0,0,0,0,56,56,56,,,,,,,,,,,,,,,,,,,,,,,,,,,,,,,,,,,,,,,,,,,,,,,,,,,,,,,,,,,,,,,,,,,,,,,,,,,,,,,1.72,424.7737618999963,None,space,1,0.2664713000121992,426.59910089999903,None,426.59910089999903,None,426.59910089999903,None,,,,,,,,,,,P024,FENCOG,2,Pre,2022_Feb_11_1052,Go No-Go Task,2021.1.4,120.00955276328463,
,"Rule: When you see a yellow image, do not press 'spacebar'.",Images/Happy/HF05_HO.jpg,Happy,Blue,Images/Blue.jpg,space,ParentConditions/YellowYellowBlue_v2.xlsx,YellowYellowBlue,Conditions/Version_2/YellowFearStop.xlsx,no,PASS,0.4418945189155604,,,,,,,,,0,0,0,1,0,0,0,0,0,57,57,57,,,,,,,,,,,,,,,,,,,,,,,,,,,,,,,,,,,,,,,,,,,,,,,,,,,,,,,,,,,,,,,,,,,,,,,,,,,,,,,1.93,426.99943739999435,None,space,1,0.24956159997964278,429.0399552999879,None,429.0399552999879,None,429.0399552999879,None,,,,,,,,,,,P024,FENCOG,2,Pre,2022_Feb_11_1052,Go No-Go Task,2021.1.4,120.00955276328463,
,"Rule: When you see a yellow image, do not press 'spacebar'.",Images/Fearful/AF01_FO.jpg,Fear,Yellow,Images/Yellow.jpg,None,ParentConditions/YellowYellowBlue_v2.xlsx,YellowYellowBlue,Conditions/Version_2/YellowFearStop.xlsx,yes,PASS,0.9630260753042453,,,,,,,,,0,0,0,1,0,0,0,0,0,58,58,58,,,,,,,,,,,,,,,,,,,,,,,,,,,,,,,,,,,,,,,,,,,,,,,,,,,,,,,,,,,,,,,,,,,,,,,,,,,,,,,1.36,429.4389959000109,None,space,0,0.2393356000247877,430.9061576999957,None,430.9061576999957,None,430.9061576999957,None,,,,,,,,,,,P024,FENCOG,2,Pre,2022_Feb_11_1052,Go No-Go Task,2021.1.4,120.00955276328463,
,"Rule: When you see a yellow image, do not press 'spacebar'.",Images/Happy/AF21HAS.jpg,Happy,Blue,Images/Blue.jpg,space,ParentConditions/YellowYellowBlue_v2.xlsx,YellowYellowBlue,Conditions/Version_2/YellowFearStop.xlsx,no,PASS,0.5410977161582079,,,,,,,,,0,0,0,1,0,0,0,0,0,59,59,59,,,,,,,,,,,,,,,,,,,,,,,,,,,,,,,,,,,,,,,,,,,,,,,,,,,,,,,,,,,,,,,,,,,,,,,,,,,,,,,1.39,431.30635279999115,None,space,1,0.32431919997907244,432.79720110000926,None,432.79720110000926,None,432.79720110000926,None,,,,,,,,,,,P024,FENCOG,2,Pre,2022_Feb_11_1052,Go No-Go Task,2021.1.4,120.00955276328463,
,"Rule: When you see a yellow image, do not press 'spacebar'.",Images/Happy/AM06_HC.jpg,Happy,Blue,Images/Blue.jpg,space,ParentConditions/YellowYellowBlue_v2.xlsx,YellowYellowBlue,Conditions/Version_2/YellowFearStop.xlsx,no,PASS,0.8195458073624309,,,,,,,,,0,0,0,1,0,0,0,0,0,60,60,60,,,,,,,,,,,,,,,,,,,,,,,,,,,,,,,,,,,,,,,,,,,,,,,,,,,,,,,,,,,,,,,,,,,,,,,,,,,,,,,1.85,433.1974014999869,None,space,1,0.37483960000099614,435.1547910000081,None,435.1547910000081,None,435.1547910000081,None,,,,,,,,,,,P024,FENCOG,2,Pre,2022_Feb_11_1052,Go No-Go Task,2021.1.4,120.00955276328463,
,"Rule: When you see a yellow image, do not press 'spacebar'.",Images/Fearful/AF02AFS.jpg,Fear,Yellow,Images/Yellow.jpg,None,ParentConditions/YellowYellowBlue_v2.xlsx,YellowYellowBlue,Conditions/Version_2/YellowFearStop.xlsx,yes,PASS,0.43475605439224807,,,,,,,,,0,0,0,1,0,0,0,0,0,61,61,61,,,,,,,,,,,,,,,,,,,,,,,,,,,,,,,,,,,,,,,,,,,,,,,,,,,,,,,,,,,,,,,,,,,,,,,,,,,,,,,1.8,435.554438799998,None,space,0,0.24307060000137426,437.46246800001245,None,437.46246800001245,None,437.46246800001245,None,,,,,,,,,,,P024,FENCOG,2,Pre,2022_Feb_11_1052,Go No-Go Task,2021.1.4,120.00955276328463,
,"Rule: When you see a yellow image, do not press 'spacebar'.",Images/Happy/AF25HAS.jpg,Happy,Blue,Images/Blue.jpg,space,ParentConditions/YellowYellowBlue_v2.xlsx,YellowYellowBlue,Conditions/Version_2/YellowFearStop.xlsx,no,PASS,0.35344562160834636,,,,,,,,,0,0,0,1,0,0,0,0,0,62,62,62,,,,,,,,,,,,,,,,,,,,,,,,,,,,,,,,,,,,,,,,,,,,,,,,,,,,,,,,,,,,,,,,,,,,,,,,,,,,,,,1.67,437.86302680001245,None,space,1,0.2525794999965001,439.6368794000009,None,439.6368794000009,None,439.6368794000009,None,,,,,,,,,,,P024,FENCOG,2,Pre,2022_Feb_11_1052,Go No-Go Task,2021.1.4,120.00955276328463,
,"Rule: When you see a yellow image, do not press 'spacebar'.",Images/Happy/AM32HAS.jpg,Happy,Blue,Images/Blue.jpg,space,ParentConditions/YellowYellowBlue_v2.xlsx,YellowYellowBlue,Conditions/Version_2/YellowFearStop.xlsx,no,PASS,0.10846156836896592,,,,,,,,,0,0,0,1,0,0,0,0,0,63,63,63,,,,,,,,,,,,,,,,,,,,,,,,,,,,,,,,,,,,,,,,,,,,,,,,,,,,,,,,,,,,,,,,,,,,,,,,,,,,,,,1.48,440.0373180999886,None,space,1,0.3424257000151556,441.61958080000477,None,441.61958080000477,None,441.61958080000477,None,,,,,,,,,,,P024,FENCOG,2,Pre,2022_Feb_11_1052,Go No-Go Task,2021.1.4,120.00955276328463,
,"Rule: When you see a yellow image, do not press 'spacebar'.",Images/Fearful/AM02_FO.jpg,Fear,Yellow,Images/Yellow.jpg,None,ParentConditions/YellowYellowBlue_v2.xlsx,YellowYellowBlue,Conditions/Version_2/YellowFearStop.xlsx,yes,PASS,0.093492050295921,,,,,,,,,0,0,0,1,0,0,0,0,0,64,64,64,,,,,,,,,,,,,,,,,,,,,,,,,,,,,,,,,,,,,,,,,,,,,,,,,,,,,,,,,,,,,,,,,,,,,,,,,,,,,,,1.53,442.02578249998624,None,None,1,,443.66907050000736,None,443.66907050000736,None,443.66907050000736,None,,,,,,,,,,,P024,FENCOG,2,Pre,2022_Feb_11_1052,Go No-Go Task,2021.1.4,120.00955276328463,
,"Rule: When you see a yellow image, do not press 'spacebar'.",Images/Fearful/BM02_FC.jpg,Fear,Yellow,Images/Yellow.jpg,None,ParentConditions/YellowYellowBlue_v2.xlsx,YellowYellowBlue,Conditions/Version_2/YellowFearStop.xlsx,yes,PASS,0.8390777988560751,,,,,,,,,0,0,0,1,0,0,0,0,0,65,65,65,,,,,,,,,,,,,,,,,,,,,,,,,,,,,,,,,,,,,,,,,,,,,,,,,,,,,,,,,,,,,,,,,,,,,,,,,,,,,,,1.92,444.06789529998787,None,None,1,,446.09327740001027,None,446.09327740001027,None,446.09327740001027,None,,,,,,,,,,,P024,FENCOG,2,Pre,2022_Feb_11_1052,Go No-Go Task,2021.1.4,120.00955276328463,
,"Rule: When you see a yellow image, do not press 'spacebar'.",Images/Happy/AM04_HE.jpg,Happy,Blue,Images/Blue.jpg,space,ParentConditions/YellowYellowBlue_v2.xlsx,YellowYellowBlue,Conditions/Version_2/YellowFearStop.xlsx,no,PASS,0.268677407796428,,,,,,,,,0,0,0,1,0,0,0,0,0,66,66,66,,,,,,,,,,,,,,,,,,,,,,,,,,,,,,,,,,,,,,,,,,,,,,,,,,,,,,,,,,,,,,,,,,,,,,,,,,,,,,,1.32,446.4924546999973,None,space,1,0.25995740000507794,447.91737790001207,None,447.91737790001207,None,447.91737790001207,None,,,,,,,,,,,P024,FENCOG,2,Pre,2022_Feb_11_1052,Go No-Go Task,2021.1.4,120.00955276328463,
,"Rule: When you see a yellow image, do not press 'spacebar'.",Images/Fearful/AM05AFS.jpg,Fear,Yellow,Images/Yellow.jpg,None,ParentConditions/YellowYellowBlue_v2.xlsx,YellowYellowBlue,Conditions/Version_2/YellowFearStop.xlsx,yes,PASS,0.6951263252071049,,,,,,,,,0,0,0,1,0,0,0,0,0,67,67,67,,,,,,,,,,,,,,,,,,,,,,,,,,,,,,,,,,,,,,,,,,,,,,,,,,,,,,,,,,,,,,,,,,,,,,,,,,,,,,,1.21,448.320066699991,None,None,1,,449.63385089999065,None,449.63385089999065,None,449.63385089999065,None,,,,,,,,,,,P024,FENCOG,2,Pre,2022_Feb_11_1052,Go No-Go Task,2021.1.4,120.00955276328463,
,"Rule: When you see a yellow image, do not press 'spacebar'.",Images/Happy/AF28HAS.jpg,Happy,Blue,Images/Blue.jpg,space,ParentConditions/YellowYellowBlue_v2.xlsx,YellowYellowBlue,Conditions/Version_2/YellowFearStop.xlsx,no,PASS,0.25032705960911217,,,,,,,,,0,0,0,1,0,0,0,0,0,68,68,68,,,,,,,,,,,,,,,,,,,,,,,,,,,,,,,,,,,,,,,,,,,,,,,,,,,,,,,,,,,,,,,,,,,,,,,,,,,,,,,1.89,450.03260070001124,None,space,1,0.27245800002128817,452.0249590000021,None,452.0249590000021,None,452.0249590000021,None,,,,,,,,,,,P024,FENCOG,2,Pre,2022_Feb_11_1052,Go No-Go Task,2021.1.4,120.00955276328463,
,"Rule: When you see a yellow image, do not press 'spacebar'.",Images/Happy/AF07_HO.jpg,Happy,Blue,Images/Blue.jpg,space,ParentConditions/YellowYellowBlue_v2.xlsx,YellowYellowBlue,Conditions/Version_2/YellowFearStop.xlsx,no,PASS,0.293841477080362,,,,,,,,,0,0,0,1,0,0,0,0,0,69,69,69,,,,,,,,,,,,,,,,,,,,,,,,,,,,,,,,,,,,,,,,,,,,,,,,,,,,,,,,,,,,,,,,,,,,,,,,,,,,,,,1.87,452.4250938000041,None,space,1,0.2983028999879025,454.39920029998757,None,454.39920029998757,None,454.39920029998757,None,,,,,,,,,,,P024,FENCOG,2,Pre,2022_Feb_11_1052,Go No-Go Task,2021.1.4,120.00955276328463,
,"Rule: When you see a yellow image, do not press 'spacebar'.",Images/Happy/BF14_HO.jpg,Happy,Blue,Images/Blue.jpg,space,ParentConditions/YellowYellowBlue_v2.xlsx,YellowYellowBlue,Conditions/Version_2/YellowFearStop.xlsx,no,PASS,0.40422519447396765,,,,,,,,,0,0,0,1,0,0,0,0,0,70,70,70,,,,,,,,,,,,,,,,,,,,,,,,,,,,,,,,,,,,,,,,,,,,,,,,,,,,,,,,,,,,,,,,,,,,,,,,,,,,,,,1.68,454.79934420000063,None,space,1,0.23578459999407642,456.58191440001247,None,456.58191440001247,None,456.58191440001247,None,,,,,,,,,,,P024,FENCOG,2,Pre,2022_Feb_11_1052,Go No-Go Task,2021.1.4,120.00955276328463,
,"Rule: When you see a yellow image, do not press 'spacebar'.",Images/Fearful/AF07FS.jpg,Fear,Yellow,Images/Yellow.jpg,None,ParentConditions/YellowYellowBlue_v2.xlsx,YellowYellowBlue,Conditions/Version_2/YellowFearStop.xlsx,yes,PASS,0.7059954464635801,,,,,,,,,0,0,0,1,0,0,0,0,0,71,71,71,,,,,,,,,,,,,,,,,,,,,,,,,,,,,,,,,,,,,,,,,,,,,,,,,,,,,,,,,,,,,,,,,,,,,,,,,,,,,,,1.95,456.98273039999185,None,space,0,0.2345287000061944,459.0395046999911,None,459.0395046999911,None,459.0395046999911,None,,,,,,,,,,,P024,FENCOG,2,Pre,2022_Feb_11_1052,Go No-Go Task,2021.1.4,120.00955276328463,
,"Rule: When you see a yellow image, do not press 'spacebar'.",Images/Happy/AF32HAS.jpg,Happy,Blue,Images/Blue.jpg,space,ParentConditions/YellowYellowBlue_v2.xlsx,YellowYellowBlue,Conditions/Version_2/YellowFearStop.xlsx,no,PASS,0.6505932127186488,,,,,,,,,0,0,0,1,0,0,0,0,0,72,72,72,,,,,,,,,,,,,,,,,,,,,,,,,,,,,,,,,,,,,,,,,,,,,,,,,,,,,,,,,,,,,,,,,,,,,,,,,,,,,,,1.41,459.44382519999635,None,space,1,0.27108099998440593,460.95538249998935,None,460.95538249998935,None,460.95538249998935,None,,,,,,,,,,,P024,FENCOG,2,Pre,2022_Feb_11_1052,Go No-Go Task,2021.1.4,120.00955276328463,
,"Rule: When you see a yellow image, do not press 'spacebar'.",Images/Happy/AF11HAS.jpg,Happy,Blue,Images/Blue.jpg,space,ParentConditions/YellowYellowBlue_v2.xlsx,YellowYellowBlue,Conditions/Version_2/YellowFearStop.xlsx,no,PASS,0.22413936824153813,,,,,,,,,0,0,0,1,0,0,0,0,0,73,73,73,,,,,,,,,,,,,,,,,,,,,,,,,,,,,,,,,,,,,,,,,,,,,,,,,,,,,,,,,,,,,,,,,,,,,,,,,,,,,,,1.28,461.3562799000065,None,space,1,0.2631312000157777,462.73841069999617,None,462.73841069999617,None,462.73841069999617,None,,,,,,,,,,,P024,FENCOG,2,Pre,2022_Feb_11_1052,Go No-Go Task,2021.1.4,120.00955276328463,
,"Rule: When you see a yellow image, do not press 'spacebar'.",Images/Happy/AM19HAS.jpg,Happy,Blue,Images/Blue.jpg,space,ParentConditions/YellowYellowBlue_v2.xlsx,YellowYellowBlue,Conditions/Version_2/YellowFearStop.xlsx,no,PASS,0.5367328627339492,,,,,,,,,0,0,0,1,0,0,0,0,0,74,74,74,,,,,,,,,,,,,,,,,,,,,,,,,,,,,,,,,,,,,,,,,,,,,,,,,,,,,,,,,,,,,,,,,,,,,,,,,,,,,,,1.22,463.1385383000015,None,space,1,0.24264139999286272,464.46296939998865,None,464.46296939998865,None,464.46296939998865,None,,,,,,,,,,,P024,FENCOG,2,Pre,2022_Feb_11_1052,Go No-Go Task,2021.1.4,120.00955276328463,
,"Rule: When you see a yellow image, do not press 'spacebar'.",Images/Happy/AM01HAS.jpg,Happy,Blue,Images/Blue.jpg,space,ParentConditions/YellowYellowBlue_v2.xlsx,YellowYellowBlue,Conditions/Version_2/YellowFearStop.xlsx,no,PASS,0.4512238869721793,,,,,,,,,0,0,0,1,0,0,0,0,0,75,75,75,,,,,,,,,,,,,,,,,,,,,,,,,,,,,,,,,,,,,,,,,,,,,,,,,,,,,,,,,,,,,,,,,,,,,,,,,,,,,,,1.65,464.86315280001145,None,space,1,0.28549670000211336,466.620559700008,None,466.620559700008,None,466.620559700008,None,,,,,,,,,,,P024,FENCOG,2,Pre,2022_Feb_11_1052,Go No-Go Task,2021.1.4,120.00955276328463,
,"Rule: When you see a yellow image, do not press 'spacebar'.",Images/Happy/WF05_HC.jpg,Happy,Blue,Images/Blue.jpg,space,ParentConditions/YellowYellowBlue_v2.xlsx,YellowYellowBlue,Conditions/Version_2/YellowFearStop.xlsx,no,PASS,0.7681499259335962,,,,,,,,,0,0,0,1,0,0,0,0,0,76,76,76,,,,,,,,,,,,,,,,,,,,,,,,,,,,,,,,,,,,,,,,,,,,,,,,,,,,,,,,,,,,,,,,,,,,,,,,,,,,,,,1.81,467.0238651999971,None,space,1,0.35310239999671467,468.9365136999986,None,468.9365136999986,None,468.9365136999986,None,,,,,,,,,,,P024,FENCOG,2,Pre,2022_Feb_11_1052,Go No-Go Task,2021.1.4,120.00955276328463,
,"Rule: When you see a yellow image, do not press 'spacebar'.",Images/Happy/BM03_HO.jpg,Happy,Blue,Images/Blue.jpg,space,ParentConditions/YellowYellowBlue_v2.xlsx,YellowYellowBlue,Conditions/Version_2/YellowFearStop.xlsx,no,PASS,0.5824047138137685,,,,,,,,,0,0,0,1,0,0,0,0,0,77,77,77,,,,,,,,,,,,,,,,,,,,,,,,,,,,,,,,,,,,,,,,,,,,,,,,,,,,,,,,,,,,,,,,,,,,,,,,,,,,,,,1.86,469.33677409999655,None,space,1,0.31542060000356287,471.30260689998977,None,471.30260689998977,None,471.30260689998977,None,,,,,,,,,,,P024,FENCOG,2,Pre,2022_Feb_11_1052,Go No-Go Task,2021.1.4,120.00955276328463,
,"Rule: When you see a yellow image, do not press 'spacebar'.",Images/Happy/AM02_HE.jpg,Happy,Blue,Images/Blue.jpg,space,ParentConditions/YellowYellowBlue_v2.xlsx,YellowYellowBlue,Conditions/Version_2/YellowFearStop.xlsx,no,PASS,0.8791068347561973,,,,,,,,,0,0,0,1,0,0,0,0,0,78,78,78,,,,,,,,,,,,,,,,,,,,,,,,,,,,,,,,,,,,,,,,,,,,,,,,,,,,,,,,,,,,,,,,,,,,,,,,,,,,,,,1.56,471.70441199999186,None,space,1,0.2489767000079155,473.3686297000095,None,473.3686297000095,None,473.3686297000095,None,,,,,,,,,,,P024,FENCOG,2,Pre,2022_Feb_11_1052,Go No-Go Task,2021.1.4,120.00955276328463,
,"Rule: When you see a yellow image, do not press 'spacebar'.",Images/Fearful/AM06_FO.jpg,Fear,Yellow,Images/Yellow.jpg,None,ParentConditions/YellowYellowBlue_v2.xlsx,YellowYellowBlue,Conditions/Version_2/YellowFearStop.xlsx,yes,PASS,0.40627235988994603,,,,,,,,,0,0,0,1,0,0,0,0,0,79,79,79,,,,,,,,,,,,,,,,,,,,,,,,,,,,,,,,,,,,,,,,,,,,,,,,,,,,,,,,,,,,,,,,,,,,,,,,,,,,,,,1.75,473.7681472999975,None,space,0,0.2551926000160165,475.626334200002,None,475.626334200002,None,475.626334200002,None,,,,,,,,,,,P024,FENCOG,2,Pre,2022_Feb_11_1052,Go No-Go Task,2021.1.4,120.00955276328463,
,"Rule: When you see a yellow image, do not press 'spacebar'.",Images/Scram2/HM09_NC.jpg,Scramble,Blue,Images/Blue.jpg,space,ParentConditions/YellowYellowBlue_v2.xlsx,YellowYellowBlue,Conditions/Version_2/YellowScramStop.xlsx,no,PASS,0.46719820189093064,,,,,,,,,0,0,0,1,0,1,1,1,0,0,0,0,,,,,,,,,,,,,,,,,,,,,,,,,,,,,,,,,,,,,,,,,,,,,,,,,,,,,,,,,,,,,,,,,478.43124340000213,None,481.42400080000516,None,space,7.9052724999783095,481.42400080000516,None,478.43124340000213,None,478.43124340000213,None,478.43124340000213,None,1.2,489.3774149999954,None,None,0,,490.67991579999216,None,490.67991579999216,None,490.67991579999216,None,476.03995879998547,None,space,1.8839166999969166,476.52539639998577,None,476.03995879998547,None,476.03995879998547,None,P024,FENCOG,2,Pre,2022_Feb_11_1052,Go No-Go Task,2021.1.4,120.00955276328463,
,"Rule: When you see a yellow image, do not press 'spacebar'.",Images/Scram2/HM06_NC.jpg,Scramble,Blue,Images/Blue.jpg,space,ParentConditions/YellowYellowBlue_v2.xlsx,YellowYellowBlue,Conditions/Version_2/YellowScramStop.xlsx,no,PASS,0.564231421897386,,,,,,,,,0,0,0,1,0,1,1,1,0,1,1,1,,,,,,,,,,,,,,,,,,,,,,,,,,,,,,,,,,,,,,,,,,,,,,,,,,,,,,,,,,,,,,,,,,,,,,,,,,,,,,,1.61,491.0814190999954,None,space,1,0.33391929999925196,492.7878400000045,None,492.7878400000045,None,492.7878400000045,None,,,,,,,,,,,P024,FENCOG,2,Pre,2022_Feb_11_1052,Go No-Go Task,2021.1.4,120.00955276328463,
,"Rule: When you see a yellow image, do not press 'spacebar'.",Images/Scram1/AM31NES.jpg,Scramble,Blue,Images/Blue.jpg,space,ParentConditions/YellowYellowBlue_v2.xlsx,YellowYellowBlue,Conditions/Version_2/YellowScramStop.xlsx,no,PASS,0.846238330522312,,,,,,,,,0,0,0,1,0,1,1,1,0,2,2,2,,,,,,,,,,,,,,,,,,,,,,,,,,,,,,,,,,,,,,,,,,,,,,,,,,,,,,,,,,,,,,,,,,,,,,,,,,,,,,,1.75,493.1941616999975,None,space,1,0.24394829999073409,495.04558770000585,None,495.04558770000585,None,495.04558770000585,None,,,,,,,,,,,P024,FENCOG,2,Pre,2022_Feb_11_1052,Go No-Go Task,2021.1.4,120.00955276328463,
,"Rule: When you see a yellow image, do not press 'spacebar'.",Images/Scram2/AM03NES.jpg,Scramble,Yellow,Images/Yellow.jpg,None,ParentConditions/YellowYellowBlue_v2.xlsx,YellowYellowBlue,Conditions/Version_2/YellowScramStop.xlsx,yes,PASS,0.3566483684653988,,,,,,,,,0,0,0,1,0,1,1,1,0,3,3,3,,,,,,,,,,,,,,,,,,,,,,,,,,,,,,,,,,,,,,,,,,,,,,,,,,,,,,,,,,,,,,,,,,,,,,,,,,,,,,,1.33,495.45665619999636,None,space,0,0.2188398000143934,496.88664879999124,None,496.88664879999124,None,496.88664879999124,None,,,,,,,,,,,P024,FENCOG,2,Pre,2022_Feb_11_1052,Go No-Go Task,2021.1.4,120.00955276328463,
,"Rule: When you see a yellow image, do not press 'spacebar'.",Images/Scram2/BM01_NC.jpg,Scramble,Blue,Images/Blue.jpg,space,ParentConditions/YellowYellowBlue_v2.xlsx,YellowYellowBlue,Conditions/Version_2/YellowScramStop.xlsx,no,PASS,0.6300515820310504,,,,,,,,,0,0,0,1,0,1,1,1,0,4,4,4,,,,,,,,,,,,,,,,,,,,,,,,,,,,,,,,,,,,,,,,,,,,,,,,,,,,,,,,,,,,,,,,,,,,,,,,,,,,,,,1.6,497.2868451999966,None,space,1,0.2626262999838218,499.00282649998553,None,499.00282649998553,None,499.00282649998553,None,,,,,,,,,,,P024,FENCOG,2,Pre,2022_Feb_11_1052,Go No-Go Task,2021.1.4,120.00955276328463,
,"Rule: When you see a yellow image, do not press 'spacebar'.",Images/Scram1/HM09_NC.jpg,Scramble,Blue,Images/Blue.jpg,space,ParentConditions/YellowYellowBlue_v2.xlsx,YellowYellowBlue,Conditions/Version_2/YellowScramStop.xlsx,no,PASS,0.9681952009545239,,,,,,,,,0,0,0,1,0,1,1,1,0,5,5,5,,,,,,,,,,,,,,,,,,,,,,,,,,,,,,,,,,,,,,,,,,,,,,,,,,,,,,,,,,,,,,,,,,,,,,,,,,,,,,,1.29,499.401856499986,None,space,1,0.2957048999960534,500.7937605000043,None,500.7937605000043,None,500.7937605000043,None,,,,,,,,,,,P024,FENCOG,2,Pre,2022_Feb_11_1052,Go No-Go Task,2021.1.4,120.00955276328463,
,"Rule: When you see a yellow image, do not press 'spacebar'.",Images/Scram2/BF07_NC.jpg,Scramble,Blue,Images/Blue.jpg,space,ParentConditions/YellowYellowBlue_v2.xlsx,YellowYellowBlue,Conditions/Version_2/YellowScramStop.xlsx,no,PASS,0.21646267744166114,,,,,,,,,0,0,0,1,0,1,1,1,0,6,6,6,,,,,,,,,,,,,,,,,,,,,,,,,,,,,,,,,,,,,,,,,,,,,,,,,,,,,,,,,,,,,,,,,,,,,,,,,,,,,,,1.41,501.1942887000041,None,space,1,0.28396929998416454,502.7096288999892,None,502.7096288999892,None,502.7096288999892,None,,,,,,,,,,,P024,FENCOG,2,Pre,2022_Feb_11_1052,Go No-Go Task,2021.1.4,120.00955276328463,
,"Rule: When you see a yellow image, do not press 'spacebar'.",Images/Scram1/BF14_NC.jpg,Scramble,Blue,Images/Blue.jpg,space,ParentConditions/YellowYellowBlue_v2.xlsx,YellowYellowBlue,Conditions/Version_2/YellowScramStop.xlsx,no,PASS,0.9846643703258401,,,,,,,,,0,0,0,1,0,1,1,1,0,7,7,7,,,,,,,,,,,,,,,,,,,,,,,,,,,,,,,,,,,,,,,,,,,,,,,,,,,,,,,,,,,,,,,,,,,,,,,,,,,,,,,1.73,503.1093288999982,None,space,1,0.33878409999306314,504.942604699987,None,504.942604699987,None,504.942604699987,None,,,,,,,,,,,P024,FENCOG,2,Pre,2022_Feb_11_1052,Go No-Go Task,2021.1.4,120.00955276328463,
,"Rule: When you see a yellow image, do not press 'spacebar'.",Images/Scram2/AF10_NC.jpg,Scramble,Blue,Images/Blue.jpg,space,ParentConditions/YellowYellowBlue_v2.xlsx,YellowYellowBlue,Conditions/Version_2/YellowScramStop.xlsx,no,PASS,0.2443614348279377,,,,,,,,,0,0,0,1,0,1,1,1,0,8,8,8,,,,,,,,,,,,,,,,,,,,,,,,,,,,,,,,,,,,,,,,,,,,,,,,,,,,,,,,,,,,,,,,,,,,,,,,,,,,,,,1.3,505.3420613000053,None,space,1,0.2752725000027567,506.7419657999999,None,506.7419657999999,None,506.7419657999999,None,,,,,,,,,,,P024,FENCOG,2,Pre,2022_Feb_11_1052,Go No-Go Task,2021.1.4,120.00955276328463,
,"Rule: When you see a yellow image, do not press 'spacebar'.",Images/Scram2/AF01_NC.jpg,Scramble,Blue,Images/Blue.jpg,space,ParentConditions/YellowYellowBlue_v2.xlsx,YellowYellowBlue,Conditions/Version_2/YellowScramStop.xlsx,no,PASS,0.5418077894665677,,,,,,,,,0,0,0,1,0,1,1,1,0,9,9,9,,,,,,,,,,,,,,,,,,,,,,,,,,,,,,,,,,,,,,,,,,,,,,,,,,,,,,,,,,,,,,,,,,,,,,,,,,,,,,,1.36,507.14387649999117,None,space,1,0.24963589999242686,508.60786829999415,None,508.60786829999415,None,508.60786829999415,None,,,,,,,,,,,P024,FENCOG,2,Pre,2022_Feb_11_1052,Go No-Go Task,2021.1.4,120.00955276328463,
,"Rule: When you see a yellow image, do not press 'spacebar'.",Images/Scram2/AF24NES.jpg,Scramble,Blue,Images/Blue.jpg,space,ParentConditions/YellowYellowBlue_v2.xlsx,YellowYellowBlue,Conditions/Version_2/YellowScramStop.xlsx,no,PASS,0.5679342954932528,,,,,,,,,0,0,0,1,0,1,1,1,0,10,10,10,,,,,,,,,,,,,,,,,,,,,,,,,,,,,,,,,,,,,,,,,,,,,,,,,,,,,,,,,,,,,,,,,,,,,,,,,,,,,,,1.87,509.0087216999964,None,space,1,0.3068795000144746,510.9827226999914,None,510.9827226999914,None,510.9827226999914,None,,,,,,,,,,,P024,FENCOG,2,Pre,2022_Feb_11_1052,Go No-Go Task,2021.1.4,120.00955276328463,
,"Rule: When you see a yellow image, do not press 'spacebar'.",Images/Scram2/BF14_NC.jpg,Scramble,Blue,Images/Blue.jpg,space,ParentConditions/YellowYellowBlue_v2.xlsx,YellowYellowBlue,Conditions/Version_2/YellowScramStop.xlsx,no,PASS,0.8825179199303765,,,,,,,,,0,0,0,1,0,1,1,1,0,11,11,11,,,,,,,,,,,,,,,,,,,,,,,,,,,,,,,,,,,,,,,,,,,,,,,,,,,,,,,,,,,,,,,,,,,,,,,,,,,,,,,1.32,511.3828211000073,None,space,1,0.2343076000106521,512.815288599988,None,512.815288599988,None,512.815288599988,None,,,,,,,,,,,P024,FENCOG,2,Pre,2022_Feb_11_1052,Go No-Go Task,2021.1.4,120.00955276328463,
,"Rule: When you see a yellow image, do not press 'spacebar'.",Images/Scram1/AM13NES.jpg,Scramble,Blue,Images/Blue.jpg,space,ParentConditions/YellowYellowBlue_v2.xlsx,YellowYellowBlue,Conditions/Version_2/YellowScramStop.xlsx,no,PASS,0.21043647733489834,,,,,,,,,0,0,0,1,0,1,1,1,0,12,12,12,,,,,,,,,,,,,,,,,,,,,,,,,,,,,,,,,,,,,,,,,,,,,,,,,,,,,,,,,,,,,,,,,,,,,,,,,,,,,,,1.45,513.2159342000086,None,space,1,0.2045018000062555,514.7729255000013,None,514.7729255000013,None,514.7729255000013,None,,,,,,,,,,,P024,FENCOG,2,Pre,2022_Feb_11_1052,Go No-Go Task,2021.1.4,120.00955276328463,
,"Rule: When you see a yellow image, do not press 'spacebar'.",Images/Scram1/HM04_NC.jpg,Scramble,Blue,Images/Blue.jpg,space,ParentConditions/YellowYellowBlue_v2.xlsx,YellowYellowBlue,Conditions/Version_2/YellowScramStop.xlsx,no,PASS,0.048118244636673246,,,,,,,,,0,0,0,1,0,1,1,1,0,13,13,13,,,,,,,,,,,,,,,,,,,,,,,,,,,,,,,,,,,,,,,,,,,,,,,,,,,,,,,,,,,,,,,,,,,,,,,,,,,,,,,1.78,515.1734218999918,None,space,1,0.23464319997583516,517.0555964999949,None,517.0555964999949,None,517.0555964999949,None,,,,,,,,,,,P024,FENCOG,2,Pre,2022_Feb_11_1052,Go No-Go Task,2021.1.4,120.00955276328463,
,"Rule: When you see a yellow image, do not press 'spacebar'.",Images/Scram1/AM03NES.jpg,Scramble,Blue,Images/Blue.jpg,space,ParentConditions/YellowYellowBlue_v2.xlsx,YellowYellowBlue,Conditions/Version_2/YellowScramStop.xlsx,no,PASS,0.5072407620323995,,,,,,,,,0,0,0,1,0,1,1,1,0,14,14,14,,,,,,,,,,,,,,,,,,,,,,,,,,,,,,,,,,,,,,,,,,,,,,,,,,,,,,,,,,,,,,,,,,,,,,,,,,,,,,,1.85,517.4561280999915,None,space,1,0.252141799981473,519.4132736999891,None,519.4132736999891,None,519.4132736999891,None,,,,,,,,,,,P024,FENCOG,2,Pre,2022_Feb_11_1052,Go No-Go Task,2021.1.4,120.00955276328463,
,"Rule: When you see a yellow image, do not press 'spacebar'.",Images/Scram1/AM22NES.jpg,Scramble,Blue,Images/Blue.jpg,space,ParentConditions/YellowYellowBlue_v2.xlsx,YellowYellowBlue,Conditions/Version_2/YellowScramStop.xlsx,no,PASS,0.8332736468200919,,,,,,,,,0,0,0,1,0,1,1,1,0,15,15,15,,,,,,,,,,,,,,,,,,,,,,,,,,,,,,,,,,,,,,,,,,,,,,,,,,,,,,,,,,,,,,,,,,,,,,,,,,,,,,,1.49,519.8526306000131,None,space,1,0.17147199998726137,521.4461324999866,None,521.4461324999866,None,521.4461324999866,None,,,,,,,,,,,P024,FENCOG,2,Pre,2022_Feb_11_1052,Go No-Go Task,2021.1.4,120.00955276328463,
,"Rule: When you see a yellow image, do not press 'spacebar'.",Images/Scram2/AM17NES.jpg,Scramble,Yellow,Images/Yellow.jpg,None,ParentConditions/YellowYellowBlue_v2.xlsx,YellowYellowBlue,Conditions/Version_2/YellowScramStop.xlsx,yes,PASS,0.5524440306249002,,,,,,,,,0,0,0,1,0,1,1,1,0,16,16,16,,,,,,,,,,,,,,,,,,,,,,,,,,,,,,,,,,,,,,,,,,,,,,,,,,,,,,,,,,,,,,,,,,,,,,,,,,,,,,,1.68,521.8465629999992,None,space,0,0.21329630000400357,523.6287837999989,None,523.6287837999989,None,523.6287837999989,None,,,,,,,,,,,P024,FENCOG,2,Pre,2022_Feb_11_1052,Go No-Go Task,2021.1.4,120.00955276328463,
,"Rule: When you see a yellow image, do not press 'spacebar'.",Images/Scram1/AM10NES.jpg,Scramble,Blue,Images/Blue.jpg,space,ParentConditions/YellowYellowBlue_v2.xlsx,YellowYellowBlue,Conditions/Version_2/YellowScramStop.xlsx,no,PASS,0.13699730503466545,,,,,,,,,0,0,0,1,0,1,1,1,0,17,17,17,,,,,,,,,,,,,,,,,,,,,,,,,,,,,,,,,,,,,,,,,,,,,,,,,,,,,,,,,,,,,,,,,,,,,,,,,,,,,,,1.27,524.0339124999882,None,space,1,0.20578759998898022,525.4116607999895,None,525.4116607999895,None,525.4116607999895,None,,,,,,,,,,,P024,FENCOG,2,Pre,2022_Feb_11_1052,Go No-Go Task,2021.1.4,120.00955276328463,
,"Rule: When you see a yellow image, do not press 'spacebar'.",Images/Scram2/AM03_NC.jpg,Scramble,Yellow,Images/Yellow.jpg,None,ParentConditions/YellowYellowBlue_v2.xlsx,YellowYellowBlue,Conditions/Version_2/YellowScramStop.xlsx,yes,PASS,0.2886954903206703,,,,,,,,,0,0,0,1,0,1,1,1,0,18,18,18,,,,,,,,,,,,,,,,,,,,,,,,,,,,,,,,,,,,,,,,,,,,,,,,,,,,,,,,,,,,,,,,,,,,,,,,,,,,,,,1.88,525.8107605999976,None,space,0,0.23115450001205318,527.7942956000043,None,527.7942956000043,None,527.7942956000043,None,,,,,,,,,,,P024,FENCOG,2,Pre,2022_Feb_11_1052,Go No-Go Task,2021.1.4,120.00955276328463,
,"Rule: When you see a yellow image, do not press 'spacebar'.",Images/Scram1/HF09_NC.jpg,Scramble,Blue,Images/Blue.jpg,space,ParentConditions/YellowYellowBlue_v2.xlsx,YellowYellowBlue,Conditions/Version_2/YellowScramStop.xlsx,no,PASS,0.5210471780653185,,,,,,,,,0,0,0,1,0,1,1,1,0,19,19,19,,,,,,,,,,,,,,,,,,,,,,,,,,,,,,,,,,,,,,,,,,,,,,,,,,,,,,,,,,,,,,,,,,,,,,,,,,,,,,,1.55,528.1955726000015,None,None,0,,529.8519949000038,None,529.8519949000038,None,529.8519949000038,None,,,,,,,,,,,P024,FENCOG,2,Pre,2022_Feb_11_1052,Go No-Go Task,2021.1.4,120.00955276328463,
,"Rule: When you see a yellow image, do not press 'spacebar'.",Images/Scram1/BM08_NC.jpg,Scramble,Blue,Images/Blue.jpg,space,ParentConditions/YellowYellowBlue_v2.xlsx,YellowYellowBlue,Conditions/Version_2/YellowScramStop.xlsx,no,PASS,0.7192207106921986,,,,,,,,,0,0,0,1,0,1,1,1,0,20,20,20,,,,,,,,,,,,,,,,,,,,,,,,,,,,,,,,,,,,,,,,,,,,,,,,,,,,,,,,,,,,,,,,,,,,,,,,,,,,,,,1.81,530.2525777000119,None,space,1,0.24991410001530312,532.1678314000019,None,532.1678314000019,None,532.1678314000019,None,,,,,,,,,,,P024,FENCOG,2,Pre,2022_Feb_11_1052,Go No-Go Task,2021.1.4,120.00955276328463,
,"Rule: When you see a yellow image, do not press 'spacebar'.",Images/Scram1/AF32NES.jpg,Scramble,Blue,Images/Blue.jpg,space,ParentConditions/YellowYellowBlue_v2.xlsx,YellowYellowBlue,Conditions/Version_2/YellowScramStop.xlsx,no,PASS,0.3856706921106089,,,,,,,,,0,0,0,1,0,1,1,1,0,21,21,21,,,,,,,,,,,,,,,,,,,,,,,,,,,,,,,,,,,,,,,,,,,,,,,,,,,,,,,,,,,,,,,,,,,,,,,,,,,,,,,1.76,532.5684888999967,None,space,1,0.25549969999701716,534.4339746999904,None,534.4339746999904,None,534.4339746999904,None,,,,,,,,,,,P024,FENCOG,2,Pre,2022_Feb_11_1052,Go No-Go Task,2021.1.4,120.00955276328463,
,"Rule: When you see a yellow image, do not press 'spacebar'.",Images/Scram2/AM06_NC.jpg,Scramble,Yellow,Images/Yellow.jpg,None,ParentConditions/YellowYellowBlue_v2.xlsx,YellowYellowBlue,Conditions/Version_2/YellowScramStop.xlsx,yes,PASS,0.593844606938259,,,,,,,,,0,0,0,1,0,1,1,1,0,22,22,22,,,,,,,,,,,,,,,,,,,,,,,,,,,,,,,,,,,,,,,,,,,,,,,,,,,,,,,,,,,,,,,,,,,,,,,,,,,,,,,1.26,534.8344619999989,None,None,1,,536.2001212000032,None,536.2001212000032,None,536.2001212000032,None,,,,,,,,,,,P024,FENCOG,2,Pre,2022_Feb_11_1052,Go No-Go Task,2021.1.4,120.00955276328463,
,"Rule: When you see a yellow image, do not press 'spacebar'.",Images/Scram1/AM06_NC.jpg,Scramble,Blue,Images/Blue.jpg,space,ParentConditions/YellowYellowBlue_v2.xlsx,YellowYellowBlue,Conditions/Version_2/YellowScramStop.xlsx,no,PASS,0.5597751985943138,,,,,,,,,0,0,0,1,0,1,1,1,0,23,23,23,,,,,,,,,,,,,,,,,,,,,,,,,,,,,,,,,,,,,,,,,,,,,,,,,,,,,,,,,,,,,,,,,,,,,,,,,,,,,,,1.39,536.6006387000089,None,space,1,0.23787780001293868,538.0995503999875,None,538.0995503999875,None,538.0995503999875,None,,,,,,,,,,,P024,FENCOG,2,Pre,2022_Feb_11_1052,Go No-Go Task,2021.1.4,120.00955276328463,
,"Rule: When you see a yellow image, do not press 'spacebar'.",Images/Scram2/AM02_NC.jpg,Scramble,Yellow,Images/Yellow.jpg,None,ParentConditions/YellowYellowBlue_v2.xlsx,YellowYellowBlue,Conditions/Version_2/YellowScramStop.xlsx,yes,PASS,0.21014535444537008,,,,,,,,,0,0,0,1,0,1,1,1,0,24,24,24,,,,,,,,,,,,,,,,,,,,,,,,,,,,,,,,,,,,,,,,,,,,,,,,,,,,,,,,,,,,,,,,,,,,,,,,,,,,,,,1.46,538.4984433999925,None,None,1,,540.0656802000012,None,540.0656802000012,None,540.0656802000012,None,,,,,,,,,,,P024,FENCOG,2,Pre,2022_Feb_11_1052,Go No-Go Task,2021.1.4,120.00955276328463,
,"Rule: When you see a yellow image, do not press 'spacebar'.",Images/Scram2/HF05_NC.jpg,Scramble,Blue,Images/Blue.jpg,space,ParentConditions/YellowYellowBlue_v2.xlsx,YellowYellowBlue,Conditions/Version_2/YellowScramStop.xlsx,no,PASS,0.0025091428399978133,,,,,,,,,0,0,0,1,0,1,1,1,0,25,25,25,,,,,,,,,,,,,,,,,,,,,,,,,,,,,,,,,,,,,,,,,,,,,,,,,,,,,,,,,,,,,,,,,,,,,,,,,,,,,,,1.5,540.4659718000039,None,space,1,0.24039089999860153,542.0731660999882,None,542.0731660999882,None,542.0731660999882,None,,,,,,,,,,,P024,FENCOG,2,Pre,2022_Feb_11_1052,Go No-Go Task,2021.1.4,120.00955276328463,
,"Rule: When you see a yellow image, do not press 'spacebar'.",Images/Scram2/AF32NES.jpg,Scramble,Yellow,Images/Yellow.jpg,None,ParentConditions/YellowYellowBlue_v2.xlsx,YellowYellowBlue,Conditions/Version_2/YellowScramStop.xlsx,yes,PASS,0.5621638043526047,,,,,,,,,0,0,0,1,0,1,1,1,0,26,26,26,,,,,,,,,,,,,,,,,,,,,,,,,,,,,,,,,,,,,,,,,,,,,,,,,,,,,,,,,,,,,,,,,,,,,,,,,,,,,,,1.97,542.4739178000018,None,None,1,,544.5476297000132,None,544.5476297000132,None,544.5476297000132,None,,,,,,,,,,,P024,FENCOG,2,Pre,2022_Feb_11_1052,Go No-Go Task,2021.1.4,120.00955276328463,
,"Rule: When you see a yellow image, do not press 'spacebar'.",Images/Scram2/HM04_NC.jpg,Scramble,Blue,Images/Blue.jpg,space,ParentConditions/YellowYellowBlue_v2.xlsx,YellowYellowBlue,Conditions/Version_2/YellowScramStop.xlsx,no,PASS,0.3656961779732233,,,,,,,,,0,0,0,1,0,1,1,1,0,27,27,27,,,,,,,,,,,,,,,,,,,,,,,,,,,,,,,,,,,,,,,,,,,,,,,,,,,,,,,,,,,,,,,,,,,,,,,,,,,,,,,1.43,544.9478845999984,None,space,1,0.264985899993917,546.488734100014,None,546.488734100014,None,546.488734100014,None,,,,,,,,,,,P024,FENCOG,2,Pre,2022_Feb_11_1052,Go No-Go Task,2021.1.4,120.00955276328463,
,"Rule: When you see a yellow image, do not press 'spacebar'.",Images/Scram2/AF25NES.jpg,Scramble,Blue,Images/Blue.jpg,space,ParentConditions/YellowYellowBlue_v2.xlsx,YellowYellowBlue,Conditions/Version_2/YellowScramStop.xlsx,no,PASS,0.24296732370581886,,,,,,,,,0,0,0,1,0,1,1,1,0,28,28,28,,,,,,,,,,,,,,,,,,,,,,,,,,,,,,,,,,,,,,,,,,,,,,,,,,,,,,,,,,,,,,,,,,,,,,,,,,,,,,,1.31,546.8878457999963,None,space,1,0.3686988000117708,548.3049619999947,None,548.3049619999947,None,548.3049619999947,None,,,,,,,,,,,P024,FENCOG,2,Pre,2022_Feb_11_1052,Go No-Go Task,2021.1.4,120.00955276328463,
,"Rule: When you see a yellow image, do not press 'spacebar'.",Images/Scram1/AF34NES.jpg,Scramble,Blue,Images/Blue.jpg,space,ParentConditions/YellowYellowBlue_v2.xlsx,YellowYellowBlue,Conditions/Version_2/YellowScramStop.xlsx,no,PASS,0.2947970947694444,,,,,,,,,0,0,0,1,0,1,1,1,0,29,29,29,,,,,,,,,,,,,,,,,,,,,,,,,,,,,,,,,,,,,,,,,,,,,,,,,,,,,,,,,,,,,,,,,,,,,,,,,,,,,,,1.93,548.7040472000081,None,space,1,0.34398490001331083,550.7376112999918,None,550.7376112999918,None,550.7376112999918,None,,,,,,,,,,,P024,FENCOG,2,Pre,2022_Feb_11_1052,Go No-Go Task,2021.1.4,120.00955276328463,
,"Rule: When you see a yellow image, do not press 'spacebar'.",Images/Scram2/AF11NES.jpg,Scramble,Blue,Images/Blue.jpg,space,ParentConditions/YellowYellowBlue_v2.xlsx,YellowYellowBlue,Conditions/Version_2/YellowScramStop.xlsx,no,PASS,0.06112693600308039,,,,,,,,,0,0,0,1,0,1,1,1,0,30,30,30,,,,,,,,,,,,,,,,,,,,,,,,,,,,,,,,,,,,,,,,,,,,,,,,,,,,,,,,,,,,,,,,,,,,,,,,,,,,,,,1.48,551.1374751999974,None,space,1,0.2250898999918718,552.7202630999964,None,552.7202630999964,None,552.7202630999964,None,,,,,,,,,,,P024,FENCOG,2,Pre,2022_Feb_11_1052,Go No-Go Task,2021.1.4,120.00955276328463,
,"Rule: When you see a yellow image, do not press 'spacebar'.",Images/Scram2/AF34NES.jpg,Scramble,Yellow,Images/Yellow.jpg,None,ParentConditions/YellowYellowBlue_v2.xlsx,YellowYellowBlue,Conditions/Version_2/YellowScramStop.xlsx,yes,PASS,0.36837427021744795,,,,,,,,,0,0,0,1,0,1,1,1,0,31,31,31,,,,,,,,,,,,,,,,,,,,,,,,,,,,,,,,,,,,,,,,,,,,,,,,,,,,,,,,,,,,,,,,,,,,,,,,,,,,,,,1.51,553.1199058000057,None,space,0,0.2816136000037659,554.7363602000114,None,554.7363602000114,None,554.7363602000114,None,,,,,,,,,,,P024,FENCOG,2,Pre,2022_Feb_11_1052,Go No-Go Task,2021.1.4,120.00955276328463,
,"Rule: When you see a yellow image, do not press 'spacebar'.",Images/Scram1/AM02_NC.jpg,Scramble,Blue,Images/Blue.jpg,space,ParentConditions/YellowYellowBlue_v2.xlsx,YellowYellowBlue,Conditions/Version_2/YellowScramStop.xlsx,no,PASS,0.7004017432139685,,,,,,,,,0,0,0,1,0,1,1,1,0,32,32,32,,,,,,,,,,,,,,,,,,,,,,,,,,,,,,,,,,,,,,,,,,,,,,,,,,,,,,,,,,,,,,,,,,,,,,,,,,,,,,,1.67,555.1378444999864,None,space,1,0.23473859997466207,556.9107198000129,None,556.9107198000129,None,556.9107198000129,None,,,,,,,,,,,P024,FENCOG,2,Pre,2022_Feb_11_1052,Go No-Go Task,2021.1.4,120.00955276328463,
,"Rule: When you see a yellow image, do not press 'spacebar'.",Images/Scram2/AM13NES.jpg,Scramble,Yellow,Images/Yellow.jpg,None,ParentConditions/YellowYellowBlue_v2.xlsx,YellowYellowBlue,Conditions/Version_2/YellowScramStop.xlsx,yes,PASS,0.7037668434542473,,,,,,,,,0,0,0,1,0,1,1,1,0,33,33,33,,,,,,,,,,,,,,,,,,,,,,,,,,,,,,,,,,,,,,,,,,,,,,,,,,,,,,,,,,,,,,,,,,,,,,,,,,,,,,,2,557.3130007,None,None,1,,559.4183473000012,None,559.4183473000012,None,559.4183473000012,None,,,,,,,,,,,P024,FENCOG,2,Pre,2022_Feb_11_1052,Go No-Go Task,2021.1.4,120.00955276328463,
,"Rule: When you see a yellow image, do not press 'spacebar'.",Images/Scram1/AM03_NC.jpg,Scramble,Blue,Images/Blue.jpg,space,ParentConditions/YellowYellowBlue_v2.xlsx,YellowYellowBlue,Conditions/Version_2/YellowScramStop.xlsx,no,PASS,0.13984736132192788,,,,,,,,,0,0,0,1,0,1,1,1,0,34,34,34,,,,,,,,,,,,,,,,,,,,,,,,,,,,,,,,,,,,,,,,,,,,,,,,,,,,,,,,,,,,,,,,,,,,,,,,,,,,,,,1.37,559.8178517000051,None,space,1,0.26893330001621507,561.2927042999945,None,561.2927042999945,None,561.2927042999945,None,,,,,,,,,,,P024,FENCOG,2,Pre,2022_Feb_11_1052,Go No-Go Task,2021.1.4,120.00955276328463,
,"Rule: When you see a yellow image, do not press 'spacebar'.",Images/Scram1/AF33NES.jpg,Scramble,Blue,Images/Blue.jpg,space,ParentConditions/YellowYellowBlue_v2.xlsx,YellowYellowBlue,Conditions/Version_2/YellowScramStop.xlsx,no,PASS,0.7479968675198729,,,,,,,,,0,0,0,1,0,1,1,1,0,35,35,35,,,,,,,,,,,,,,,,,,,,,,,,,,,,,,,,,,,,,,,,,,,,,,,,,,,,,,,,,,,,,,,,,,,,,,,,,,,,,,,1.54,561.6938953000063,None,space,1,0.27588689999538474,563.3338517000084,None,563.3338517000084,None,563.3338517000084,None,,,,,,,,,,,P024,FENCOG,2,Pre,2022_Feb_11_1052,Go No-Go Task,2021.1.4,120.00955276328463,
,"Rule: When you see a yellow image, do not press 'spacebar'.",Images/Scram1/BF10_NC.jpg,Scramble,Blue,Images/Blue.jpg,space,ParentConditions/YellowYellowBlue_v2.xlsx,YellowYellowBlue,Conditions/Version_2/YellowScramStop.xlsx,no,PASS,0.5225639267337787,,,,,,,,,0,0,0,1,0,1,1,1,0,36,36,36,,,,,,,,,,,,,,,,,,,,,,,,,,,,,,,,,,,,,,,,,,,,,,,,,,,,,,,,,,,,,,,,,,,,,,,,,,,,,,,1.72,563.7346426000004,None,space,1,0.292544199997792,565.5581549000053,None,565.5581549000053,None,565.5581549000053,None,,,,,,,,,,,P024,FENCOG,2,Pre,2022_Feb_11_1052,Go No-Go Task,2021.1.4,120.00955276328463,
,"Rule: When you see a yellow image, do not press 'spacebar'.",Images/Scram1/AF07_NC.jpg,Scramble,Blue,Images/Blue.jpg,space,ParentConditions/YellowYellowBlue_v2.xlsx,YellowYellowBlue,Conditions/Version_2/YellowScramStop.xlsx,no,PASS,0.5221002530466395,,,,,,,,,0,0,0,1,0,1,1,1,0,37,37,37,,,,,,,,,,,,,,,,,,,,,,,,,,,,,,,,,,,,,,,,,,,,,,,,,,,,,,,,,,,,,,,,,,,,,,,,,,,,,,,1.65,565.9632309000008,None,space,1,0.24570410000160336,567.7157928000088,None,567.7157928000088,None,567.7157928000088,None,,,,,,,,,,,P024,FENCOG,2,Pre,2022_Feb_11_1052,Go No-Go Task,2021.1.4,120.00955276328463,
,"Rule: When you see a yellow image, do not press 'spacebar'.",Images/Scram2/AM23NES.jpg,Scramble,Yellow,Images/Yellow.jpg,None,ParentConditions/YellowYellowBlue_v2.xlsx,YellowYellowBlue,Conditions/Version_2/YellowScramStop.xlsx,yes,PASS,0.18195499113806335,,,,,,,,,0,0,0,1,0,1,1,1,0,38,38,38,,,,,,,,,,,,,,,,,,,,,,,,,,,,,,,,,,,,,,,,,,,,,,,,,,,,,,,,,,,,,,,,,,,,,,,,,,,,,,,1.8,568.1147122000111,None,space,0,0.2745334999926854,570.0150751000037,None,570.0150751000037,None,570.0150751000037,None,,,,,,,,,,,P024,FENCOG,2,Pre,2022_Feb_11_1052,Go No-Go Task,2021.1.4,120.00955276328463,
,"Rule: When you see a yellow image, do not press 'spacebar'.",Images/Scram1/AF24NES.jpg,Scramble,Blue,Images/Blue.jpg,space,ParentConditions/YellowYellowBlue_v2.xlsx,YellowYellowBlue,Conditions/Version_2/YellowScramStop.xlsx,no,PASS,0.6640389388315467,,,,,,,,,0,0,0,1,0,1,1,1,0,39,39,39,,,,,,,,,,,,,,,,,,,,,,,,,,,,,,,,,,,,,,,,,,,,,,,,,,,,,,,,,,,,,,,,,,,,,,,,,,,,,,,1.71,570.4140759999864,None,space,1,0.2347177999909036,572.2229334999865,None,572.2229334999865,None,572.2229334999865,None,,,,,,,,,,,P024,FENCOG,2,Pre,2022_Feb_11_1052,Go No-Go Task,2021.1.4,120.00955276328463,
,"Rule: When you see a yellow image, do not press 'spacebar'.",Images/Scram2/AF33NES.jpg,Scramble,Yellow,Images/Yellow.jpg,None,ParentConditions/YellowYellowBlue_v2.xlsx,YellowYellowBlue,Conditions/Version_2/YellowScramStop.xlsx,yes,PASS,0.6203826022283658,,,,,,,,,0,0,0,1,0,1,1,1,0,40,40,40,,,,,,,,,,,,,,,,,,,,,,,,,,,,,,,,,,,,,,,,,,,,,,,,,,,,,,,,,,,,,,,,,,,,,,,,,,,,,,,1.74,572.6227383000078,None,None,1,,574.4638535999984,None,574.4638535999984,None,574.4638535999984,None,,,,,,,,,,,P024,FENCOG,2,Pre,2022_Feb_11_1052,Go No-Go Task,2021.1.4,120.00955276328463,
,"Rule: When you see a yellow image, do not press 'spacebar'.",Images/Scram1/AF25NES.jpg,Scramble,Blue,Images/Blue.jpg,space,ParentConditions/YellowYellowBlue_v2.xlsx,YellowYellowBlue,Conditions/Version_2/YellowScramStop.xlsx,no,PASS,0.05141546475857928,,,,,,,,,0,0,0,1,0,1,1,1,0,41,41,41,,,,,,,,,,,,,,,,,,,,,,,,,,,,,,,,,,,,,,,,,,,,,,,,,,,,,,,,,,,,,,,,,,,,,,,,,,,,,,,1.24,574.8637681000109,None,None,0,,576.2049509999924,None,576.2049509999924,None,576.2049509999924,None,,,,,,,,,,,P024,FENCOG,2,Pre,2022_Feb_11_1052,Go No-Go Task,2021.1.4,120.00955276328463,
,"Rule: When you see a yellow image, do not press 'spacebar'.",Images/Scram2/AM10NES.jpg,Scramble,Yellow,Images/Yellow.jpg,None,ParentConditions/YellowYellowBlue_v2.xlsx,YellowYellowBlue,Conditions/Version_2/YellowScramStop.xlsx,yes,PASS,0.1267743006232639,,,,,,,,,0,0,0,1,0,1,1,1,0,42,42,42,,,,,,,,,,,,,,,,,,,,,,,,,,,,,,,,,,,,,,,,,,,,,,,,,,,,,,,,,,,,,,,,,,,,,,,,,,,,,,,1.79,576.6052459999919,None,None,1,,578.4960247999988,None,578.4960247999988,None,578.4960247999988,None,,,,,,,,,,,P024,FENCOG,2,Pre,2022_Feb_11_1052,Go No-Go Task,2021.1.4,120.00955276328463,
,"Rule: When you see a yellow image, do not press 'spacebar'.",Images/Scram2/BF10_NC.jpg,Scramble,Blue,Images/Blue.jpg,space,ParentConditions/YellowYellowBlue_v2.xlsx,YellowYellowBlue,Conditions/Version_2/YellowScramStop.xlsx,no,PASS,0.22016560502147287,,,,,,,,,0,0,0,1,0,1,1,1,0,43,43,43,,,,,,,,,,,,,,,,,,,,,,,,,,,,,,,,,,,,,,,,,,,,,,,,,,,,,,,,,,,,,,,,,,,,,,,,,,,,,,,1.69,578.8952309000015,None,space,1,0.2743942000088282,580.6870775999851,None,580.6870775999851,None,580.6870775999851,None,,,,,,,,,,,P024,FENCOG,2,Pre,2022_Feb_11_1052,Go No-Go Task,2021.1.4,120.00955276328463,
,"Rule: When you see a yellow image, do not press 'spacebar'.",Images/Scram1/BF18_NC.jpg,Scramble,Blue,Images/Blue.jpg,space,ParentConditions/YellowYellowBlue_v2.xlsx,YellowYellowBlue,Conditions/Version_2/YellowScramStop.xlsx,no,PASS,0.11487631985977975,,,,,,,,,0,0,0,1,0,1,1,1,0,44,44,44,,,,,,,,,,,,,,,,,,,,,,,,,,,,,,,,,,,,,,,,,,,,,,,,,,,,,,,,,,,,,,,,,,,,,,,,,,,,,,,1.59,581.0868166,None,space,1,0.311453000002075,582.7781176999852,None,582.7781176999852,None,582.7781176999852,None,,,,,,,,,,,P024,FENCOG,2,Pre,2022_Feb_11_1052,Go No-Go Task,2021.1.4,120.00955276328463,
,"Rule: When you see a yellow image, do not press 'spacebar'.",Images/Scram2/HF09_NC.jpg,Scramble,Blue,Images/Blue.jpg,space,ParentConditions/YellowYellowBlue_v2.xlsx,YellowYellowBlue,Conditions/Version_2/YellowScramStop.xlsx,no,PASS,0.20475492045840804,,,,,,,,,0,0,0,1,0,1,1,1,0,45,45,45,,,,,,,,,,,,,,,,,,,,,,,,,,,,,,,,,,,,,,,,,,,,,,,,,,,,,,,,,,,,,,,,,,,,,,,,,,,,,,,1.94,583.1783450999937,None,None,0,,585.2272655999986,None,585.2272655999986,None,585.2272655999986,None,,,,,,,,,,,P024,FENCOG,2,Pre,2022_Feb_11_1052,Go No-Go Task,2021.1.4,120.00955276328463,
,"Rule: When you see a yellow image, do not press 'spacebar'.",Images/Scram1/BF05_NC.jpg,Scramble,Blue,Images/Blue.jpg,space,ParentConditions/YellowYellowBlue_v2.xlsx,YellowYellowBlue,Conditions/Version_2/YellowScramStop.xlsx,no,PASS,0.6685497116677461,,,,,,,,,0,0,0,1,0,1,1,1,0,46,46,46,,,,,,,,,,,,,,,,,,,,,,,,,,,,,,,,,,,,,,,,,,,,,,,,,,,,,,,,,,,,,,,,,,,,,,,,,,,,,,,1.38,585.6264165999892,None,space,1,0.23584819998359308,587.1097968000104,None,587.1097968000104,None,587.1097968000104,None,,,,,,,,,,,P024,FENCOG,2,Pre,2022_Feb_11_1052,Go No-Go Task,2021.1.4,120.00955276328463,
,"Rule: When you see a yellow image, do not press 'spacebar'.",Images/Scram1/AM17NES.jpg,Scramble,Blue,Images/Blue.jpg,space,ParentConditions/YellowYellowBlue_v2.xlsx,YellowYellowBlue,Conditions/Version_2/YellowScramStop.xlsx,no,PASS,0.5575549831069895,,,,,,,,,0,0,0,1,0,1,1,1,0,47,47,47,,,,,,,,,,,,,,,,,,,,,,,,,,,,,,,,,,,,,,,,,,,,,,,,,,,,,,,,,,,,,,,,,,,,,,,,,,,,,,,1.35,587.5115609999921,None,space,1,0.2973136000218801,588.9762621000118,None,588.9762621000118,None,588.9762621000118,None,,,,,,,,,,,P024,FENCOG,2,Pre,2022_Feb_11_1052,Go No-Go Task,2021.1.4,120.00955276328463,
,"Rule: When you see a yellow image, do not press 'spacebar'.",Images/Scram2/AM09_NC.jpg,Scramble,Yellow,Images/Yellow.jpg,None,ParentConditions/YellowYellowBlue_v2.xlsx,YellowYellowBlue,Conditions/Version_2/YellowScramStop.xlsx,yes,PASS,0.08490473937246712,,,,,,,,,0,0,0,1,0,1,1,1,0,48,48,48,,,,,,,,,,,,,,,,,,,,,,,,,,,,,,,,,,,,,,,,,,,,,,,,,,,,,,,,,,,,,,,,,,,,,,,,,,,,,,,1.25,589.3752836000058,None,space,0,0.25996480000321753,590.7255796999962,None,590.7255796999962,None,590.7255796999962,None,,,,,,,,,,,P024,FENCOG,2,Pre,2022_Feb_11_1052,Go No-Go Task,2021.1.4,120.00955276328463,
,"Rule: When you see a yellow image, do not press 'spacebar'.",Images/Scram2/AF09NES.jpg,Scramble,Blue,Images/Blue.jpg,space,ParentConditions/YellowYellowBlue_v2.xlsx,YellowYellowBlue,Conditions/Version_2/YellowScramStop.xlsx,no,PASS,0.8511922023884788,,,,,,,,,0,0,0,1,0,1,1,1,0,49,49,49,,,,,,,,,,,,,,,,,,,,,,,,,,,,,,,,,,,,,,,,,,,,,,,,,,,,,,,,,,,,,,,,,,,,,,,,,,,,,,,1.92,591.1260255000088,None,space,1,0.22736109999823384,593.1500284000067,None,593.1500284000067,None,593.1500284000067,None,,,,,,,,,,,P024,FENCOG,2,Pre,2022_Feb_11_1052,Go No-Go Task,2021.1.4,120.00955276328463,
,"Rule: When you see a yellow image, do not press 'spacebar'.",Images/Scram2/AM04_NC.jpg,Scramble,Yellow,Images/Yellow.jpg,None,ParentConditions/YellowYellowBlue_v2.xlsx,YellowYellowBlue,Conditions/Version_2/YellowScramStop.xlsx,yes,PASS,0.9711738915701108,,,,,,,,,0,0,0,1,0,1,1,1,0,50,50,50,,,,,,,,,,,,,,,,,,,,,,,,,,,,,,,,,,,,,,,,,,,,,,,,,,,,,,,,,,,,,,,,,,,,,,,,,,,,,,,1.21,593.5502065999899,None,space,0,0.18343279999680817,594.8741544999939,None,594.8741544999939,None,594.8741544999939,None,,,,,,,,,,,P024,FENCOG,2,Pre,2022_Feb_11_1052,Go No-Go Task,2021.1.4,120.00955276328463,
,"Rule: When you see a yellow image, do not press 'spacebar'.",Images/Scram2/BF05_NC.jpg,Scramble,Yellow,Images/Yellow.jpg,None,ParentConditions/YellowYellowBlue_v2.xlsx,YellowYellowBlue,Conditions/Version_2/YellowScramStop.xlsx,yes,PASS,0.3684660889098009,,,,,,,,,0,0,0,1,0,1,1,1,0,51,51,51,,,,,,,,,,,,,,,,,,,,,,,,,,,,,,,,,,,,,,,,,,,,,,,,,,,,,,,,,,,,,,,,,,,,,,,,,,,,,,,1.57,595.2735561000009,None,None,1,,596.9489116999903,None,596.9489116999903,None,596.9489116999903,None,,,,,,,,,,,P024,FENCOG,2,Pre,2022_Feb_11_1052,Go No-Go Task,2021.1.4,120.00955276328463,
,"Rule: When you see a yellow image, do not press 'spacebar'.",Images/Scram1/HM06_NC.jpg,Scramble,Blue,Images/Blue.jpg,space,ParentConditions/YellowYellowBlue_v2.xlsx,YellowYellowBlue,Conditions/Version_2/YellowScramStop.xlsx,no,PASS,0.5754528995111275,,,,,,,,,0,0,0,1,0,1,1,1,0,52,52,52,,,,,,,,,,,,,,,,,,,,,,,,,,,,,,,,,,,,,,,,,,,,,,,,,,,,,,,,,,,,,,,,,,,,,,,,,,,,,,,1.77,597.3494019999926,None,space,1,0.2982913999876473,599.2232990000048,None,599.2232990000048,None,599.2232990000048,None,,,,,,,,,,,P024,FENCOG,2,Pre,2022_Feb_11_1052,Go No-Go Task,2021.1.4,120.00955276328463,
,"Rule: When you see a yellow image, do not press 'spacebar'.",Images/Scram2/AF07NES.jpg,Scramble,Blue,Images/Blue.jpg,space,ParentConditions/YellowYellowBlue_v2.xlsx,YellowYellowBlue,Conditions/Version_2/YellowScramStop.xlsx,no,PASS,0.5077779466511061,,,,,,,,,0,0,0,1,0,1,1,1,0,53,53,53,,,,,,,,,,,,,,,,,,,,,,,,,,,,,,,,,,,,,,,,,,,,,,,,,,,,,,,,,,,,,,,,,,,,,,,,,,,,,,,1.63,599.6331856999896,None,space,1,0.32541689998470247,601.3643093999999,None,601.3643093999999,None,601.3643093999999,None,,,,,,,,,,,P024,FENCOG,2,Pre,2022_Feb_11_1052,Go No-Go Task,2021.1.4,120.00955276328463,
,"Rule: When you see a yellow image, do not press 'spacebar'.",Images/Scram1/BM01_NC.jpg,Scramble,Blue,Images/Blue.jpg,space,ParentConditions/YellowYellowBlue_v2.xlsx,YellowYellowBlue,Conditions/Version_2/YellowScramStop.xlsx,no,PASS,0.6162286290631079,,,,,,,,,0,0,0,1,0,1,1,1,0,54,54,54,,,,,,,,,,,,,,,,,,,,,,,,,,,,,,,,,,,,,,,,,,,,,,,,,,,,,,,,,,,,,,,,,,,,,,,,,,,,,,,1.44,601.7644209999999,None,space,1,0.32782120001502335,603.3054562000034,None,603.3054562000034,None,603.3054562000034,None,,,,,,,,,,,P024,FENCOG,2,Pre,2022_Feb_11_1052,Go No-Go Task,2021.1.4,120.00955276328463,
