CondFileP,Instructions,FaceE,Express,ColourT,ColourF,CorrectAnsP,MasterCondFile,BlockOrder,CondFile,ColCheck,Triplicate_check,SORT_BY_SMALLEST,EPracticeOuterLoop.thisRepN,EPracticeOuterLoop.thisTrialN,EPracticeOuterLoop.thisN,EPracticeOuterLoop.thisIndex,EPracticeInnerLoop.thisRepN,EPracticeInnerLoop.thisTrialN,EPracticeInnerLoop.thisN,EPracticeInnerLoop.thisIndex,MasterLoop.thisRepN,MasterLoop.thisTrialN,MasterLoop.thisN,MasterLoop.thisIndex,OuterLoop.thisRepN,OuterLoop.thisTrialN,OuterLoop.thisN,OuterLoop.thisIndex,InnerLoop.thisRepN,InnerLoop.thisTrialN,InnerLoop.thisN,InnerLoop.thisIndex,text_13.started,text_13.stopped,key_resp_10.keys,key_resp_10.rt,key_resp_10.started,key_resp_10.stopped,text4.started,text4.stopped,EmotionTaskInstructions1.keys,EmotionTaskInstructions1.rt,EmotionTaskInstructions1.started,EmotionTaskInstructions1.stopped,text_4.started,text_4.stopped,key_resp_5.keys,key_resp_5.rt,key_resp_5.started,key_resp_5.stopped,Text_14.started,Text_14.stopped,key_resp_9.keys,key_resp_9.rt,key_resp_9.started,key_resp_9.stopped,text_5.started,text_5.stopped,text_6.started,text_6.stopped,key_resp_7.keys,key_resp_7.rt,key_resp_7.started,key_resp_7.stopped,text_10.started,text_10.stopped,text_11.started,text_11.stopped,text_12.started,text_12.stopped,ISIjitterPractice,EPracticeISIMarker.started,EPracticeISIMarker.stopped,Pract.keys,Pract.corr,Pract.started,Pract.stopped,PracticeFace.started,PracticeFace.stopped,ColourPractice.started,ColourPractice.stopped,text_7.started,text_7.stopped,Pract.rt,EndOfPractice.started,EndOfPractice.stopped,key_resp_8.keys,key_resp_8.rt,key_resp_8.started,key_resp_8.stopped,text_8.started,text_8.stopped,key_resp_6.keys,key_resp_6.rt,key_resp_6.started,key_resp_6.stopped,text_2.started,text_2.stopped,text_3.started,text_3.stopped,key_resp_3.keys,key_resp_3.rt,key_resp_3.started,key_resp_3.stopped,TaskBlock.started,TaskBlock.stopped,BlockNo1.started,BlockNo1.stopped,OfBlock.started,OfBlock.stopped,ISIjitter,ISImarker.started,ISImarker.stopped,key_resp.keys,key_resp.corr,key_resp.started,key_resp.stopped,FaceSet.started,FaceSet.stopped,Colour.started,Colour.stopped,key_resp.rt,EndBlockText.started,EndBlockText.stopped,key_resp_4.keys,key_resp_4.rt,key_resp_4.started,key_resp_4.stopped,BreakText2.started,BreakText2.stopped,PressToContinue.started,PressToContinue.stopped,participant,Study Name,Task Version (required to run),PRE/POST,date,expName,psychopyVersion,frameRate,
,,,,,,,,,,,,,,,,,,,,,,,,,,,,,,,,,44.49779029993806,None,space,5.7070436999201775,45.49184279993642,None,,,,,,,,,,,,,,,,,,,,,,,,,,,,,,,,,,,,,,,,,,,,,,,,,,,,,,,,,,,,,,,,,,,,,,,,,,,,,,,,,,,,,,,,,,,,,,,P025,fencog,1,Pre,2022_Feb_15_1030,Go No-Go Task,2021.1.4,119.96952773138607,
,,,,,,,,,,,,,,,,,,,,,,,,,,,,,,,,,,,,,,,52.7200391999213,None,space,6.599146399996243,52.7200391999213,None,,,,,,,,,,,,,,,,,,,,,,,,,,,,,,,,,,,,,,,,,,,,,,,,,,,,,,,,,,,,,,,,,,,,,,,,,,,,,,,,,,,,,,,,,P025,fencog,1,Pre,2022_Feb_15_1030,Go No-Go Task,2021.1.4,119.96952773138607,
,,,,,,,,,,,,,,,,,,,,,,,,,,,,,,,,,,,,,,,,,,,,,59.383661999949254,None,space,4.239125699969009,59.383661999949254,None,,,,,,,,,,,,,,,,,,,,,,,,,,,,,,,,,,,,,,,,,,,,,,,,,,,,,,,,,,,,,,,,,,,,,,,,,,,,,,,,,,,P025,fencog,1,Pre,2022_Feb_15_1030,Go No-Go Task,2021.1.4,119.96952773138607,
,,,,,,,,,,,,,,,,,,,,,,,,,,,,,,,,,,,,,,,,,,,,,,,,,,,63.63735719991382,None,space,23.80954919999931,63.63735719991382,None,,,,,,,,,,,,,,,,,,,,,,,,,,,,,,,,,,,,,,,,,,,,,,,,,,,,,,,,,,,,,,,,,,,,,,,,,,,,,P025,fencog,1,Pre,2022_Feb_15_1030,Go No-Go Task,2021.1.4,119.96952773138607,
EPracticeConditions/BlueEyes.csv,"Rule: When you see a blue image, do not press 'spacebar'.",Images/Happy/HF09_HE.jpg,Happy,Yellow,Images/Yellow.jpg,space,,,,,,,0,0,0,0,0,0,0,6,,,,,,,,,,,,,,,,,,,,,,,,,,,,,,,,,,,,,87.52669389999937,None,90.51205469993874,None,space,1.0388832000317052,90.51205469993874,None,87.52669389999937,None,87.52669389999937,None,87.52669389999937,None,1.6,91.67644940002356,None,None,0,93.40008499997202,None,93.40008499997202,None,93.40008499997202,None,94.98180760000832,None,,,,,,,,,,,,,,,,,,,,,,,,,,,,,,,,,,,,,,,,,,,,,,,,,,P025,fencog,1,Pre,2022_Feb_15_1030,Go No-Go Task,2021.1.4,119.96952773138607,
EPracticeConditions/BlueEyes.csv,"Rule: When you see a blue image, do not press 'spacebar'.",Images/Fearful/HM09_FC.jpg,Fear,Blue,Images/Blue.jpg,None,,,,,,,0,0,0,0,0,1,1,0,,,,,,,,,,,,,,,,,,,,,,,,,,,,,,,,,,,,,,,,,,,,,,,,,,,1.4,96.31082909996621,None,None,1,97.81881339999381,None,97.81881339999381,None,97.81881339999381,None,98.71790449996479,None,,,,,,,,,,,,,,,,,,,,,,,,,,,,,,,,,,,,,,,,,,,,,,,,,,P025,fencog,1,Pre,2022_Feb_15_1030,Go No-Go Task,2021.1.4,119.96952773138607,
EPracticeConditions/BlueEyes.csv,"Rule: When you see a blue image, do not press 'spacebar'.",Images/Happy/HF10_HE.jpg,Happy,Yellow,Images/Yellow.jpg,space,,,,,,,0,0,0,0,0,2,2,7,,,,,,,,,,,,,,,,,,,,,,,,,,,,,,,,,,,,,,,,,,,,,,,,,,,1.9,100.7171440999955,None,None,0,102.71771929995157,None,102.71771929995157,None,102.71771929995157,None,103.6162997999927,None,,,,,,,,,,,,,,,,,,,,,,,,,,,,,,,,,,,,,,,,,,,,,,,,,,P025,fencog,1,Pre,2022_Feb_15_1030,Go No-Go Task,2021.1.4,119.96952773138607,
EPracticeConditions/BlueEyes.csv,"Rule: When you see a blue image, do not press 'spacebar'.",Images/Happy/HF04_HE.jpg,Happy,Yellow,Images/Yellow.jpg,space,,,,,,,0,0,0,0,0,3,3,4,,,,,,,,,,,,,,,,,,,,,,,,,,,,,,,,,,,,,,,,,,,,,,,,,,,1.8,105.61574549996294,None,None,0,107.5163061999483,None,107.5163061999483,None,107.5163061999483,None,108.40655949991196,None,,,,,,,,,,,,,,,,,,,,,,,,,,,,,,,,,,,,,,,,,,,,,,,,,,P025,fencog,1,Pre,2022_Feb_15_1030,Go No-Go Task,2021.1.4,119.96952773138607,
EPracticeConditions/BlueEyes.csv,"Rule: When you see a blue image, do not press 'spacebar'.",Images/Happy/BM08_HO.jpg,Happy,Yellow,Images/Yellow.jpg,space,,,,,,,0,0,0,0,0,4,4,3,,,,,,,,,,,,,,,,,,,,,,,,,,,,,,,,,,,,,,,,,,,,,,,,,,,1.5,110.40604059991892,None,space,1,112.00641089992132,None,112.00641089992132,None,112.00641089992132,None,112.89686679991428,None,0.26443369989283383,,,,,,,,,,,,,,,,,,,,,,,,,,,,,,,,,,,,,,,,,,,,,,,,,P025,fencog,1,Pre,2022_Feb_15_1030,Go No-Go Task,2021.1.4,119.96952773138607,
EPracticeConditions/BlueEyes.csv,"Rule: When you see a blue image, do not press 'spacebar'.",Images/Happy/HF05_HO.jpg,Happy,Yellow,Images/Yellow.jpg,space,,,,,,,0,0,0,0,0,5,5,5,,,,,,,,,,,,,,,,,,,,,,,,,,,,,,,,,,,,,,,,,,,,,,,,,,,1.7,114.89643630001228,None,space,1,116.69666060002055,None,116.69666060002055,None,116.69666060002055,None,117.58714169997256,None,0.37436449993401766,,,,,,,,,,,,,,,,,,,,,,,,,,,,,,,,,,,,,,,,,,,,,,,,,P025,fencog,1,Pre,2022_Feb_15_1030,Go No-Go Task,2021.1.4,119.96952773138607,
EPracticeConditions/BlueEyes.csv,"Rule: When you see a blue image, do not press 'spacebar'.",Images/Fearful/AF01_FO.jpg,Fear,Blue,Images/Blue.jpg,None,,,,,,,0,0,0,0,0,6,6,1,,,,,,,,,,,,,,,,,,,,,,,,,,,,,,,,,,,,,,,,,,,,,,,,,,,1.3,119.58661210001446,None,None,1,120.9870139999548,None,120.9870139999548,None,120.9870139999548,None,121.87752779992297,None,,,,,,,,,,,,,,,,,,,,,,,,,,,,,,,,,,,,,,,,,,,,,,,,,,P025,fencog,1,Pre,2022_Feb_15_1030,Go No-Go Task,2021.1.4,119.96952773138607,
EPracticeConditions/BlueEyes.csv,"Rule: When you see a blue image, do not press 'spacebar'.",Images/Happy/BM02_HO.jpg,Happy,Yellow,Images/Yellow.jpg,space,,,,,,,0,0,0,0,0,7,7,2,,,,,,,,,,,,,,,,,,,,,,,,,,,,,,,,,,,,,,,,,,,,,,,,,,,1.2,123.87762699997984,None,None,0,125.1773684999207,None,125.1773684999207,None,125.1773684999207,None,126.07638370001223,None,,,,,,,,,,,,,,,,,,,,,,,,,,,,,,,,,,,,,,,,,,,,,,,,,,P025,fencog,1,Pre,2022_Feb_15_1030,Go No-Go Task,2021.1.4,119.96952773138607,
EPracticeConditions/BlueEyes.csv,"Rule: When you see a blue image, do not press 'spacebar'.",,,,,,,,,,,,0,0,0,0,,,,,,,,,,,,,,,,,,,,,,,,,,,,,,,,,,,,,,,,,,,,,,,,,,,,,,,,,,,,,,,,,,,,,,,,,,,,,,,,,,,,,,,,,,,,,,,,,,,,,,,,,,,,,,,,,,,,,P025,fencog,1,Pre,2022_Feb_15_1030,Go No-Go Task,2021.1.4,119.96952773138607,
EPracticeConditions/YellowEyes.csv,"Rule: When you see a yellow image, do not press 'spacebar'.",Images/Fearful/AM23AFS.jpg,Fear,Blue,Images/Blue.jpg,space,,,,,,,0,1,1,1,0,0,0,6,,,,,,,,,,,,,,,,,,,,,,,,,,,,,,,,,,,,,128.0929005999351,None,131.08344219997525,None,space,0.8755196999991313,131.08344219997525,None,128.0929005999351,None,128.0929005999351,None,128.0929005999351,None,1.7,131.97507879999466,None,space,1,133.7748410999775,None,133.7748410999775,None,133.7748410999775,None,134.66542849992402,None,0.32010020001325756,,,,,,,,,,,,,,,,,,,,,,,,,,,,,,,,,,,,,,,,,,,,,,,,,P025,fencog,1,Pre,2022_Feb_15_1030,Go No-Go Task,2021.1.4,119.96952773138607,
EPracticeConditions/YellowEyes.csv,"Rule: When you see a yellow image, do not press 'spacebar'.",Images/Fearful/AM24AFS.jpg,Fear,Blue,Images/Blue.jpg,space,,,,,,,0,1,1,1,0,1,1,7,,,,,,,,,,,,,,,,,,,,,,,,,,,,,,,,,,,,,,,,,,,,,,,,,,,1.5,136.66493199998513,None,space,1,138.25694250001106,None,138.25694250001106,None,138.25694250001106,None,139.14747909992002,None,0.3180976000148803,,,,,,,,,,,,,,,,,,,,,,,,,,,,,,,,,,,,,,,,,,,,,,,,,P025,fencog,1,Pre,2022_Feb_15_1030,Go No-Go Task,2021.1.4,119.96952773138607,
EPracticeConditions/YellowEyes.csv,"Rule: When you see a yellow image, do not press 'spacebar'.",Images/Fearful/AM19AFS.jpg,Fear,Blue,Images/Blue.jpg,space,,,,,,,0,1,1,1,0,2,2,4,,,,,,,,,,,,,,,,,,,,,,,,,,,,,,,,,,,,,,,,,,,,,,,,,,,1.4,141.14693179994356,None,space,1,142.6472884999821,None,142.6472884999821,None,142.6472884999821,None,143.53782049997244,None,0.27959499997086823,,,,,,,,,,,,,,,,,,,,,,,,,,,,,,,,,,,,,,,,,,,,,,,,,P025,fencog,1,Pre,2022_Feb_15_1030,Go No-Go Task,2021.1.4,119.96952773138607,
EPracticeConditions/YellowEyes.csv,"Rule: When you see a yellow image, do not press 'spacebar'.",Images/Happy/BF05_HO.jpg,Happy,Yellow,Images/Yellow.jpg,None,,,,,,,0,1,1,1,0,3,3,1,,,,,,,,,,,,,,,,,,,,,,,,,,,,,,,,,,,,,,,,,,,,,,,,,,,1.9,145.53736590000335,None,None,1,147.53753039997537,None,147.53753039997537,None,147.53753039997537,None,148.42803459998686,None,,,,,,,,,,,,,,,,,,,,,,,,,,,,,,,,,,,,,,,,,,,,,,,,,,P025,fencog,1,Pre,2022_Feb_15_1030,Go No-Go Task,2021.1.4,119.96952773138607,
EPracticeConditions/YellowEyes.csv,"Rule: When you see a yellow image, do not press 'spacebar'.",Images/Fearful/AM22AFS.jpg,Fear,Blue,Images/Blue.jpg,space,,,,,,,0,1,1,1,0,4,4,5,,,,,,,,,,,,,,,,,,,,,,,,,,,,,,,,,,,,,,,,,,,,,,,,,,,1.8,150.42752669996116,None,None,0,152.32778249995317,None,152.32778249995317,None,152.32778249995317,None,153.22674189996906,None,,,,,,,,,,,,,,,,,,,,,,,,,,,,,,,,,,,,,,,,,,,,,,,,,,P025,fencog,1,Pre,2022_Feb_15_1030,Go No-Go Task,2021.1.4,119.96952773138607,
EPracticeConditions/YellowEyes.csv,"Rule: When you see a yellow image, do not press 'spacebar'.",Images/Fearful/AM16AFS.jpg,Fear,Blue,Images/Blue.jpg,space,,,,,,,0,1,1,1,0,5,5,2,,,,,,,,,,,,,,,,,,,,,,,,,,,,,,,,,,,,,,,,,,,,,,,,,,,1.6,155.22639289998915,None,space,1,156.92652370000724,None,156.92652370000724,None,156.92652370000724,None,157.81701509992126,None,0.31259360001422465,,,,,,,,,,,,,,,,,,,,,,,,,,,,,,,,,,,,,,,,,,,,,,,,,P025,fencog,1,Pre,2022_Feb_15_1030,Go No-Go Task,2021.1.4,119.96952773138607,
EPracticeConditions/YellowEyes.csv,"Rule: When you see a yellow image, do not press 'spacebar'.",Images/Fearful/AM17AFS.jpg,Fear,Blue,Images/Blue.jpg,space,,,,,,,0,1,1,1,0,6,6,3,,,,,,,,,,,,,,,,,,,,,,,,,,,,,,,,,,,,,,,,,,,,,,,,,,,1.3,159.8164708999684,None,space,1,161.21685989992693,None,161.21685989992693,None,161.21685989992693,None,162.10739559994545,None,0.28606790001504123,,,,,,,,,,,,,,,,,,,,,,,,,,,,,,,,,,,,,,,,,,,,,,,,,P025,fencog,1,Pre,2022_Feb_15_1030,Go No-Go Task,2021.1.4,119.96952773138607,
EPracticeConditions/YellowEyes.csv,"Rule: When you see a yellow image, do not press 'spacebar'.",Images/Happy/AM32HAS.jpg,Happy,Yellow,Images/Yellow.jpg,None,,,,,,,0,1,1,1,0,7,7,0,,,,,,,,,,,,,,,,,,,,,,,,,,,,,,,,,,,,,,,,,,,,,,,,,,,1.2,164.10687010001857,None,space,0,165.4072566999821,None,165.4072566999821,None,165.4072566999821,None,166.30616289994214,None,0.3515788000077009,,,,,,,,,,,,,,,,,,,,,,,,,,,,,,,,,,,,,,,,,,,,,,,,,P025,fencog,1,Pre,2022_Feb_15_1030,Go No-Go Task,2021.1.4,119.96952773138607,
EPracticeConditions/YellowEyes.csv,"Rule: When you see a yellow image, do not press 'spacebar'.",,,,,,,,,,,,0,1,1,1,,,,,,,,,,,,,,,,,,,,,,,,,,,,,,,,,,,,,,,,,,,,,,,,,,,,,,,,,,,,,,,,,,,,,,,,,,,,,,,,,,,,,,,,,,,,,,,,,,,,,,,,,,,,,,,,,,,,,P025,fencog,1,Pre,2022_Feb_15_1030,Go No-Go Task,2021.1.4,119.96952773138607,
EPracticeConditions/BlueScram.csv,"Rule: When you see a blue image, do not press 'spacebar'.",Images/Scram2/AF25NES.jpg,Scramble,Yellow,Images/Yellow.jpg,space,,,,,,,0,2,2,2,0,0,0,7,,,,,,,,,,,,,,,,,,,,,,,,,,,,,,,,,,,,,168.32657709997147,None,171.31330379995052,None,space,0.8775931000709534,171.31330379995052,None,168.32657709997147,None,168.32657709997147,None,168.32657709997147,None,1.4,172.21130139997695,None,None,0,173.71353079995606,None,173.71353079995606,None,173.71353079995606,None,174.6121497999411,None,,,,,,,,,,,,,,,,,,,,,,,,,,,,,,,,,,,,,,,,,,,,,,,,,,P025,fencog,1,Pre,2022_Feb_15_1030,Go No-Go Task,2021.1.4,119.96952773138607,
EPracticeConditions/BlueScram.csv,"Rule: When you see a blue image, do not press 'spacebar'.",Images/Scram1/AM04_NC.jpg,Scramble,Yellow,Images/Yellow.jpg,space,,,,,,,0,2,2,2,0,1,1,3,,,,,,,,,,,,,,,,,,,,,,,,,,,,,,,,,,,,,,,,,,,,,,,,,,,1.6,176.6115365999285,None,space,1,178.30349069996737,None,178.30349069996737,None,178.30349069996737,None,179.202380899922,None,0.3354701000498608,,,,,,,,,,,,,,,,,,,,,,,,,,,,,,,,,,,,,,,,,,,,,,,,,P025,fencog,1,Pre,2022_Feb_15_1030,Go No-Go Task,2021.1.4,119.96952773138607,
EPracticeConditions/BlueScram.csv,"Rule: When you see a blue image, do not press 'spacebar'.",Images/Scram2/AF10_NC.jpg,Scramble,Yellow,Images/Yellow.jpg,space,,,,,,,0,2,2,2,0,2,2,2,,,,,,,,,,,,,,,,,,,,,,,,,,,,,,,,,,,,,,,,,,,,,,,,,,,1.3,181.20183049992193,None,space,1,182.60219759994652,None,182.60219759994652,None,182.60219759994652,None,183.4927222999977,None,0.2927359000314027,,,,,,,,,,,,,,,,,,,,,,,,,,,,,,,,,,,,,,,,,,,,,,,,,P025,fencog,1,Pre,2022_Feb_15_1030,Go No-Go Task,2021.1.4,119.96952773138607,
EPracticeConditions/BlueScram.csv,"Rule: When you see a blue image, do not press 'spacebar'.",Images/Scram1/AM03NES.jpg,Scramble,Yellow,Images/Yellow.jpg,space,,,,,,,0,2,2,2,0,3,3,4,,,,,,,,,,,,,,,,,,,,,,,,,,,,,,,,,,,,,,,,,,,,,,,,,,,1.2,185.4921843999764,None,space,1,186.78420839994214,None,186.78420839994214,None,186.78420839994214,None,187.67483459995128,None,0.3026870000176132,,,,,,,,,,,,,,,,,,,,,,,,,,,,,,,,,,,,,,,,,,,,,,,,,P025,fencog,1,Pre,2022_Feb_15_1030,Go No-Go Task,2021.1.4,119.96952773138607,
EPracticeConditions/BlueScram.csv,"Rule: When you see a blue image, do not press 'spacebar'.",Images/Scram1/BM08_NC.jpg,Scramble,Blue,Images/Blue.jpg,None,,,,,,,0,2,2,2,0,4,4,0,,,,,,,,,,,,,,,,,,,,,,,,,,,,,,,,,,,,,,,,,,,,,,,,,,,1.5,189.6743294999469,None,None,1,191.26630999997724,None,191.26630999997724,None,191.26630999997724,None,192.15686039999127,None,,,,,,,,,,,,,,,,,,,,,,,,,,,,,,,,,,,,,,,,,,,,,,,,,,P025,fencog,1,Pre,2022_Feb_15_1030,Go No-Go Task,2021.1.4,119.96952773138607,
EPracticeConditions/BlueScram.csv,"Rule: When you see a blue image, do not press 'spacebar'.",Images/Scram1/BF18_NC.jpg,Scramble,Blue,Images/Blue.jpg,None,,,,,,,0,2,2,2,0,5,5,1,,,,,,,,,,,,,,,,,,,,,,,,,,,,,,,,,,,,,,,,,,,,,,,,,,,1.8,194.15630239993334,None,None,1,196.04823299997952,None,196.04823299997952,None,196.04823299997952,None,196.93881580000743,None,,,,,,,,,,,,,,,,,,,,,,,,,,,,,,,,,,,,,,,,,,,,,,,,,,P025,fencog,1,Pre,2022_Feb_15_1030,Go No-Go Task,2021.1.4,119.96952773138607,
EPracticeConditions/BlueScram.csv,"Rule: When you see a blue image, do not press 'spacebar'.",Images/Scram1/AM13NES.jpg,Scramble,Yellow,Images/Yellow.jpg,space,,,,,,,0,2,2,2,0,6,6,5,,,,,,,,,,,,,,,,,,,,,,,,,,,,,,,,,,,,,,,,,,,,,,,,,,,1.9,198.9382450999692,None,space,1,200.93851489992812,None,200.93851489992812,None,200.93851489992812,None,201.8291021999903,None,0.3724919001106173,,,,,,,,,,,,,,,,,,,,,,,,,,,,,,,,,,,,,,,,,,,,,,,,,P025,fencog,1,Pre,2022_Feb_15_1030,Go No-Go Task,2021.1.4,119.96952773138607,
EPracticeConditions/BlueScram.csv,"Rule: When you see a blue image, do not press 'spacebar'.",Images/Scram2/AM03_NC.jpg,Scramble,Yellow,Images/Yellow.jpg,space,,,,,,,0,2,2,2,0,7,7,6,,,,,,,,,,,,,,,,,,,,,,,,,,,,,,,,,,,,,,,,,,,,,,,,,,,1.7,203.82853199995589,None,space,1,205.62873969995417,None,205.62873969995417,None,205.62873969995417,None,206.51930399995763,None,0.33835780003573745,,,,,,,,,,,,,,,,,,,,,,,,,,,,,,,,,,,,,,,,,,,,,,,,,P025,fencog,1,Pre,2022_Feb_15_1030,Go No-Go Task,2021.1.4,119.96952773138607,
EPracticeConditions/BlueScram.csv,"Rule: When you see a blue image, do not press 'spacebar'.",,,,,,,,,,,,0,2,2,2,,,,,,,,,,,,,,,,,,,,,,,,,,,,,,,,,,,,,,,,,,,,,,,,,,,,,,,,,,,,,,,,,,,,,,,,,,,,,,,,,,,,,,,,,,,,,,,,,,,,,,,,,,,,,,,,,,,,,P025,fencog,1,Pre,2022_Feb_15_1030,Go No-Go Task,2021.1.4,119.96952773138607,
EPracticeConditions/YellowScram.csv,"Rule: When you see a yellow image, do not press 'spacebar'.",Images/Scram1/AF24NES.jpg,Scramble,Blue,Images/Blue.jpg,space,,,,,,,0,3,3,3,0,0,0,7,,,,,,,,,,,,,,,,,,,,,,,,,,,,,,,,,,,,,208.52734959998634,None,211.5180273000151,None,space,0.49692940001841635,211.5180273000151,None,208.52734959998634,None,208.52734959998634,None,208.52734959998634,None,1.8,212.03727759991307,None,space,1,213.9430480999872,None,213.9430480999872,None,213.9430480999872,None,214.83353319996968,None,0.2879271999699995,,,,,,,,,,,,,,,,,,,,,,,,,,,,,,,,,,,,,,,,,,,,,,,,,P025,fencog,1,Pre,2022_Feb_15_1030,Go No-Go Task,2021.1.4,119.96952773138607,
EPracticeConditions/YellowScram.csv,"Rule: When you see a yellow image, do not press 'spacebar'.",Images/Scram1/AF30NES.JPG,Scramble,Blue,Images/Blue.jpg,space,,,,,,,0,3,3,3,0,1,1,4,,,,,,,,,,,,,,,,,,,,,,,,,,,,,,,,,,,,,,,,,,,,,,,,,,,1.7,216.833017500001,None,space,1,218.63324340002146,None,218.63324340002146,None,218.63324340002146,None,219.5240850999253,None,0.3017928999615833,,,,,,,,,,,,,,,,,,,,,,,,,,,,,,,,,,,,,,,,,,,,,,,,,P025,fencog,1,Pre,2022_Feb_15_1030,Go No-Go Task,2021.1.4,119.96952773138607,
EPracticeConditions/YellowScram.csv,"Rule: When you see a yellow image, do not press 'spacebar'.",Images/Scram2/AM03NES.jpg,Scramble,Yellow,Images/Yellow.jpg,None,,,,,,,0,3,3,3,0,2,2,1,,,,,,,,,,,,,,,,,,,,,,,,,,,,,,,,,,,,,,,,,,,,,,,,,,,1.5,221.5232569000218,None,None,1,223.12367569992784,None,223.12367569992784,None,223.12367569992784,None,224.0140922999708,None,,,,,,,,,,,,,,,,,,,,,,,,,,,,,,,,,,,,,,,,,,,,,,,,,,P025,fencog,1,Pre,2022_Feb_15_1030,Go No-Go Task,2021.1.4,119.96952773138607,
EPracticeConditions/YellowScram.csv,"Rule: When you see a yellow image, do not press 'spacebar'.",Images/Scram1/BM01_NC.jpg,Scramble,Blue,Images/Blue.jpg,space,,,,,,,0,3,3,3,0,3,3,5,,,,,,,,,,,,,,,,,,,,,,,,,,,,,,,,,,,,,,,,,,,,,,,,,,,1.3,226.0138870999217,None,space,1,227.40577299997676,None,227.40577299997676,None,227.40577299997676,None,228.29624279995915,None,0.32924310001544654,,,,,,,,,,,,,,,,,,,,,,,,,,,,,,,,,,,,,,,,,,,,,,,,,P025,fencog,1,Pre,2022_Feb_15_1030,Go No-Go Task,2021.1.4,119.96952773138607,
EPracticeConditions/YellowScram.csv,"Rule: When you see a yellow image, do not press 'spacebar'.",Images/Scram2/HM06_NC.jpg,Scramble,Yellow,Images/Yellow.jpg,None,,,,,,,0,3,3,3,0,4,4,0,,,,,,,,,,,,,,,,,,,,,,,,,,,,,,,,,,,,,,,,,,,,,,,,,,,1.9,230.2957154000178,None,None,1,232.28765489999205,None,232.28765489999205,None,232.28765489999205,None,233.1781705999747,None,,,,,,,,,,,,,,,,,,,,,,,,,,,,,,,,,,,,,,,,,,,,,,,,,,P025,fencog,1,Pre,2022_Feb_15_1030,Go No-Go Task,2021.1.4,119.96952773138607,
EPracticeConditions/YellowScram.csv,"Rule: When you see a yellow image, do not press 'spacebar'.",Images/Scram1/AF07NES.jpg,Scramble,Blue,Images/Blue.jpg,space,,,,,,,0,3,3,3,0,5,5,3,,,,,,,,,,,,,,,,,,,,,,,,,,,,,,,,,,,,,,,,,,,,,,,,,,,1.2,235.1776176999556,None,space,1,236.46972449996974,None,236.46972449996974,None,236.46972449996974,None,237.36028379993513,None,0.32933800003957003,,,,,,,,,,,,,,,,,,,,,,,,,,,,,,,,,,,,,,,,,,,,,,,,,P025,fencog,1,Pre,2022_Feb_15_1030,Go No-Go Task,2021.1.4,119.96952773138607,
EPracticeConditions/YellowScram.csv,"Rule: When you see a yellow image, do not press 'spacebar'.",Images/Scram1/HF04_NC.jpg,Scramble,Blue,Images/Blue.jpg,space,,,,,,,0,3,3,3,0,6,6,2,,,,,,,,,,,,,,,,,,,,,,,,,,,,,,,,,,,,,,,,,,,,,,,,,,,1.4,239.36010659998283,None,None,0,240.8519699999597,None,240.8519699999597,None,240.8519699999597,None,241.7507026999956,None,,,,,,,,,,,,,,,,,,,,,,,,,,,,,,,,,,,,,,,,,,,,,,,,,,P025,fencog,1,Pre,2022_Feb_15_1030,Go No-Go Task,2021.1.4,119.96952773138607,
EPracticeConditions/YellowScram.csv,"Rule: When you see a yellow image, do not press 'spacebar'.",Images/Scram1/AF10_NC.jpg,Scramble,Blue,Images/Blue.jpg,space,,,,,,,0,3,3,3,0,7,7,6,,,,,,,,,,,,,,,,,,,,,,,,,,,,,,,,,,,,,,,,,,,,,,,,,,,1.6,243.75008649996016,None,space,1,245.44212319992948,None,245.44212319992948,None,245.44212319992948,None,246.3409537000116,None,0.3249791000271216,,,,,,,,,,,,,,,,,,,,,,,,,,,,,,,,,,,,,,,,,,,,,,,,,P025,fencog,1,Pre,2022_Feb_15_1030,Go No-Go Task,2021.1.4,119.96952773138607,
EPracticeConditions/YellowScram.csv,"Rule: When you see a yellow image, do not press 'spacebar'.",,,,,,,,,,,,0,3,3,3,,,,,,,,,,,,,,,,,,,,,,,,,,,,,,,,,,,,,,,,,,,,,,,,,,,,,,,,,,,,,,,,,,,,,,,,,,,,,,,,,,,,,,,,,,,,,,,,,,,,,,,,,,,,,,,,,,,,,P025,fencog,1,Pre,2022_Feb_15_1030,Go No-Go Task,2021.1.4,119.96952773138607,
,,,,,,,,,,,,,,,,,,,,,,,,,,,,,,,,,,,,,,,,,,,,,,,,,,,,,,,,,,,,,,,,,,,,,,,,,,,,,,,,,,,,,249.8137803999707,None,space,2.54086940002162,250.2902541999938,None,,,,,,,,,,,,,,,,,,,,,,,,,,,,,,,,,,,,,,,,,,,P025,fencog,1,Pre,2022_Feb_15_1030,Go No-Go Task,2021.1.4,119.96952773138607,
,,,,,,,,,,,,,,,,,,,,,,,,,,,,,,,,,,,,,,,,,,,,,,,,,,,,,,,,,,,,,,,,,,,,,,,,,,,,,,,,,,,,,,,,,,,252.84481299994513,None,space,1.5222480999073014,252.84481299994513,None,,,,,,,,,,,,,,,,,,,,,,,,,,,,,,,,,,,,,P025,fencog,1,Pre,2022_Feb_15_1030,Go No-Go Task,2021.1.4,119.96952773138607,
,"Rule: When you see a yellow image, do not press 'spacebar'.",Images/Fearful/BM02_FC.jpg,Fear,Blue,Images/Blue.jpg,space,ParentConditions/YellowBlueBlue_v1.xlsx,BlueBlueYellow,Conditions/Version_1/YellowHappyStop.xlsx,no,PASS,0.44148177898618846,,,,,,,,,0,0,0,0,0,0,0,0,0,0,0,0,,,,,,,,,,,,,,,,,,,,,,,,,,,,,,,,,,,,,,,,,,,,,,,,,,,,,,,,,,,,,,,,,254.44556409993675,None,257.4379669999471,None,space,4.945365899940953,257.4379669999471,None,254.44556409993675,None,254.44556409993675,None,254.44556409993675,None,1.42,262.4302538000047,None,None,0,263.94503659999464,None,263.94503659999464,None,263.94503659999464,None,,,,,,,,,,,,P025,fencog,1,Pre,2022_Feb_15_1030,Go No-Go Task,2021.1.4,119.96952773138607,
,"Rule: When you see a yellow image, do not press 'spacebar'.",Images/Fearful/HF05_FC.jpg,Fear,Blue,Images/Blue.jpg,space,ParentConditions/YellowBlueBlue_v1.xlsx,BlueBlueYellow,Conditions/Version_1/YellowHappyStop.xlsx,no,PASS,0.49496512693563743,,,,,,,,,0,0,0,0,0,0,0,0,0,1,1,1,,,,,,,,,,,,,,,,,,,,,,,,,,,,,,,,,,,,,,,,,,,,,,,,,,,,,,,,,,,,,,,,,,,,,,,,,,,,,,,1.91,264.34464579995256,None,space,1,266.36107520002406,None,266.36107520002406,None,266.36107520002406,None,0.24587789992801845,,,,,,,,,,,P025,fencog,1,Pre,2022_Feb_15_1030,Go No-Go Task,2021.1.4,119.96952773138607,
,"Rule: When you see a yellow image, do not press 'spacebar'.",Images/Happy/AF32HAS.jpg,Happy,Yellow,Images/Yellow.jpg,None,ParentConditions/YellowBlueBlue_v1.xlsx,BlueBlueYellow,Conditions/Version_1/YellowHappyStop.xlsx,yes,PASS,0.3690153910902233,,,,,,,,,0,0,0,0,0,0,0,0,0,2,2,2,,,,,,,,,,,,,,,,,,,,,,,,,,,,,,,,,,,,,,,,,,,,,,,,,,,,,,,,,,,,,,,,,,,,,,,,,,,,,,,1.48,266.76015869993716,None,None,1,268.3436752000125,None,268.3436752000125,None,268.3436752000125,None,,,,,,,,,,,,P025,fencog,1,Pre,2022_Feb_15_1030,Go No-Go Task,2021.1.4,119.96952773138607,
,"Rule: When you see a yellow image, do not press 'spacebar'.",Images/Happy/AM32HAS.jpg,Happy,Yellow,Images/Yellow.jpg,None,ParentConditions/YellowBlueBlue_v1.xlsx,BlueBlueYellow,Conditions/Version_1/YellowHappyStop.xlsx,yes,PASS,0.09240134349582851,,,,,,,,,0,0,0,0,0,0,0,0,0,3,3,3,,,,,,,,,,,,,,,,,,,,,,,,,,,,,,,,,,,,,,,,,,,,,,,,,,,,,,,,,,,,,,,,,,,,,,,,,,,,,,,1.66,268.7427271999186,None,space,0,270.5096734999679,None,270.5096734999679,None,270.5096734999679,None,0.3613512000301853,,,,,,,,,,,P025,fencog,1,Pre,2022_Feb_15_1030,Go No-Go Task,2021.1.4,119.96952773138607,
,"Rule: When you see a yellow image, do not press 'spacebar'.",Images/Fearful/AF07FS.jpg,Fear,Blue,Images/Blue.jpg,space,ParentConditions/YellowBlueBlue_v1.xlsx,BlueBlueYellow,Conditions/Version_1/YellowHappyStop.xlsx,no,PASS,0.4013300010309635,,,,,,,,,0,0,0,0,0,0,0,0,0,4,4,4,,,,,,,,,,,,,,,,,,,,,,,,,,,,,,,,,,,,,,,,,,,,,,,,,,,,,,,,,,,,,,,,,,,,,,,,,,,,,,,1.36,270.90876060002483,None,space,1,272.3674914999865,None,272.3674914999865,None,272.3674914999865,None,0.311534299980849,,,,,,,,,,,P025,fencog,1,Pre,2022_Feb_15_1030,Go No-Go Task,2021.1.4,119.96952773138607,
,"Rule: When you see a yellow image, do not press 'spacebar'.",Images/Fearful/AM30AFS.jpg,Fear,Blue,Images/Blue.jpg,space,ParentConditions/YellowBlueBlue_v1.xlsx,BlueBlueYellow,Conditions/Version_1/YellowHappyStop.xlsx,no,PASS,0.5026512951867452,,,,,,,,,0,0,0,0,0,0,0,0,0,5,5,5,,,,,,,,,,,,,,,,,,,,,,,,,,,,,,,,,,,,,,,,,,,,,,,,,,,,,,,,,,,,,,,,,,,,,,,,,,,,,,,1.43,272.76654520002194,None,space,1,274.2919072000077,None,274.2919072000077,None,274.2919072000077,None,0.33920509996823967,,,,,,,,,,,P025,fencog,1,Pre,2022_Feb_15_1030,Go No-Go Task,2021.1.4,119.96952773138607,
,"Rule: When you see a yellow image, do not press 'spacebar'.",Images/Happy/BM03_HO.jpg,Happy,Yellow,Images/Yellow.jpg,None,ParentConditions/YellowBlueBlue_v1.xlsx,BlueBlueYellow,Conditions/Version_1/YellowHappyStop.xlsx,yes,PASS,0.3904556138764915,,,,,,,,,0,0,0,0,0,0,0,0,0,6,6,6,,,,,,,,,,,,,,,,,,,,,,,,,,,,,,,,,,,,,,,,,,,,,,,,,,,,,,,,,,,,,,,,,,,,,,,,,,,,,,,1.89,274.69099549995735,None,None,1,276.68295659997966,None,276.68295659997966,None,276.68295659997966,None,,,,,,,,,,,,P025,fencog,1,Pre,2022_Feb_15_1030,Go No-Go Task,2021.1.4,119.96952773138607,
,"Rule: When you see a yellow image, do not press 'spacebar'.",Images/Fearful/HM06_FC.jpg,Fear,Blue,Images/Blue.jpg,space,ParentConditions/YellowBlueBlue_v1.xlsx,BlueBlueYellow,Conditions/Version_1/YellowHappyStop.xlsx,no,PASS,0.8295870874618959,,,,,,,,,0,0,0,0,0,0,0,0,0,7,7,7,,,,,,,,,,,,,,,,,,,,,,,,,,,,,,,,,,,,,,,,,,,,,,,,,,,,,,,,,,,,,,,,,,,,,,,,,,,,,,,1.33,277.08193689992186,None,space,1,278.50731949997135,None,278.50731949997135,None,278.50731949997135,None,0.2756964999716729,,,,,,,,,,,P025,fencog,1,Pre,2022_Feb_15_1030,Go No-Go Task,2021.1.4,119.96952773138607,
,"Rule: When you see a yellow image, do not press 'spacebar'.",Images/Fearful/AF19AFS.jpg,Fear,Blue,Images/Blue.jpg,space,ParentConditions/YellowBlueBlue_v1.xlsx,BlueBlueYellow,Conditions/Version_1/YellowHappyStop.xlsx,no,PASS,0.31457189280880904,,,,,,,,,0,0,0,0,0,0,0,0,0,8,8,8,,,,,,,,,,,,,,,,,,,,,,,,,,,,,,,,,,,,,,,,,,,,,,,,,,,,,,,,,,,,,,,,,,,,,,,,,,,,,,,1.44,278.9063879000023,None,space,1,280.4401092999615,None,280.4401092999615,None,280.4401092999615,None,0.2790345000103116,,,,,,,,,,,P025,fencog,1,Pre,2022_Feb_15_1030,Go No-Go Task,2021.1.4,119.96952773138607,
,"Rule: When you see a yellow image, do not press 'spacebar'.",Images/Happy/AF30HAS.jpg,Happy,Yellow,Images/Yellow.jpg,None,ParentConditions/YellowBlueBlue_v1.xlsx,BlueBlueYellow,Conditions/Version_1/YellowHappyStop.xlsx,yes,PASS,0.14544836048525234,,,,,,,,,0,0,0,0,0,0,0,0,0,9,9,9,,,,,,,,,,,,,,,,,,,,,,,,,,,,,,,,,,,,,,,,,,,,,,,,,,,,,,,,,,,,,,,,,,,,,,,,,,,,,,,1.51,280.8391820999095,None,None,1,282.44790869997814,None,282.44790869997814,None,282.44790869997814,None,,,,,,,,,,,,P025,fencog,1,Pre,2022_Feb_15_1030,Go No-Go Task,2021.1.4,119.96952773138607,
,"Rule: When you see a yellow image, do not press 'spacebar'.",Images/Fearful/AF25AFS.jpg,Fear,Blue,Images/Blue.jpg,space,ParentConditions/YellowBlueBlue_v1.xlsx,BlueBlueYellow,Conditions/Version_1/YellowHappyStop.xlsx,no,PASS,0.31319631990865415,,,,,,,,,0,0,0,0,0,0,0,0,0,10,10,10,,,,,,,,,,,,,,,,,,,,,,,,,,,,,,,,,,,,,,,,,,,,,,,,,,,,,,,,,,,,,,,,,,,,,,,,,,,,,,,1.45,282.84689909999724,None,space,1,284.39736880001146,None,284.39736880001146,None,284.39736880001146,None,0.24168679991271347,,,,,,,,,,,P025,fencog,1,Pre,2022_Feb_15_1030,Go No-Go Task,2021.1.4,119.96952773138607,
,"Rule: When you see a yellow image, do not press 'spacebar'.",Images/Fearful/AF30AFS.jpg,Fear,Blue,Images/Blue.jpg,space,ParentConditions/YellowBlueBlue_v1.xlsx,BlueBlueYellow,Conditions/Version_1/YellowHappyStop.xlsx,no,PASS,0.9854799433848976,,,,,,,,,0,0,0,0,0,0,0,0,0,11,11,11,,,,,,,,,,,,,,,,,,,,,,,,,,,,,,,,,,,,,,,,,,,,,,,,,,,,,,,,,,,,,,,,,,,,,,,,,,,,,,,1.38,284.796316199936,None,space,1,286.271729299915,None,286.271729299915,None,286.271729299915,None,0.2952928999438882,,,,,,,,,,,P025,fencog,1,Pre,2022_Feb_15_1030,Go No-Go Task,2021.1.4,119.96952773138607,
,"Rule: When you see a yellow image, do not press 'spacebar'.",Images/Happy/BF10_HO.jpg,Happy,Yellow,Images/Yellow.jpg,None,ParentConditions/YellowBlueBlue_v1.xlsx,BlueBlueYellow,Conditions/Version_1/YellowHappyStop.xlsx,yes,PASS,0.9368187318754497,,,,,,,,,0,0,0,0,0,0,0,0,0,12,12,12,,,,,,,,,,,,,,,,,,,,,,,,,,,,,,,,,,,,,,,,,,,,,,,,,,,,,,,,,,,,,,,,,,,,,,,,,,,,,,,1.8,286.6708301999606,None,None,1,288.5709925999399,None,288.5709925999399,None,288.5709925999399,None,,,,,,,,,,,,P025,fencog,1,Pre,2022_Feb_15_1030,Go No-Go Task,2021.1.4,119.96952773138607,
,"Rule: When you see a yellow image, do not press 'spacebar'.",Images/Fearful/AM06_FO.jpg,Fear,Blue,Images/Blue.jpg,space,ParentConditions/YellowBlueBlue_v1.xlsx,BlueBlueYellow,Conditions/Version_1/YellowHappyStop.xlsx,no,PASS,0.6030700196123316,,,,,,,,,0,0,0,0,0,0,0,0,0,13,13,13,,,,,,,,,,,,,,,,,,,,,,,,,,,,,,,,,,,,,,,,,,,,,,,,,,,,,,,,,,,,,,,,,,,,,,,,,,,,,,,1.53,288.9700898999581,None,space,1,290.6038071999792,None,290.6038071999792,None,290.6038071999792,None,0.2912386000389233,,,,,,,,,,,P025,fencog,1,Pre,2022_Feb_15_1030,Go No-Go Task,2021.1.4,119.96952773138607,
,"Rule: When you see a yellow image, do not press 'spacebar'.",Images/Happy/AM24HAS.jpg,Happy,Yellow,Images/Yellow.jpg,None,ParentConditions/YellowBlueBlue_v1.xlsx,BlueBlueYellow,Conditions/Version_1/YellowHappyStop.xlsx,yes,PASS,0.8401488188278822,,,,,,,,,0,0,0,0,0,0,0,0,0,14,14,14,,,,,,,,,,,,,,,,,,,,,,,,,,,,,,,,,,,,,,,,,,,,,,,,,,,,,,,,,,,,,,,,,,,,,,,,,,,,,,,1.39,291.00288729998283,None,None,1,292.49481319996994,None,292.49481319996994,None,292.49481319996994,None,,,,,,,,,,,,P025,fencog,1,Pre,2022_Feb_15_1030,Go No-Go Task,2021.1.4,119.96952773138607,
,"Rule: When you see a yellow image, do not press 'spacebar'.",Images/Fearful/AF21AFS.jpg,Fear,Blue,Images/Blue.jpg,space,ParentConditions/YellowBlueBlue_v1.xlsx,BlueBlueYellow,Conditions/Version_1/YellowHappyStop.xlsx,no,PASS,0.9561052396726243,,,,,,,,,0,0,0,0,0,0,0,0,0,15,15,15,,,,,,,,,,,,,,,,,,,,,,,,,,,,,,,,,,,,,,,,,,,,,,,,,,,,,,,,,,,,,,,,,,,,,,,,,,,,,,,1.26,292.89391969994176,None,space,1,294.2610546000069,None,294.2610546000069,None,294.2610546000069,None,0.2499866000143811,,,,,,,,,,,P025,fencog,1,Pre,2022_Feb_15_1030,Go No-Go Task,2021.1.4,119.96952773138607,
,"Rule: When you see a yellow image, do not press 'spacebar'.",Images/Happy/AM06_HC.jpg,Happy,Yellow,Images/Yellow.jpg,None,ParentConditions/YellowBlueBlue_v1.xlsx,BlueBlueYellow,Conditions/Version_1/YellowHappyStop.xlsx,yes,PASS,0.36325944609889094,,,,,,,,,0,0,0,0,0,0,0,0,0,16,16,16,,,,,,,,,,,,,,,,,,,,,,,,,,,,,,,,,,,,,,,,,,,,,,,,,,,,,,,,,,,,,,,,,,,,,,,,,,,,,,,1.28,294.6606213999912,None,space,0,296.04408919997513,None,296.04408919997513,None,296.04408919997513,None,0.3228970000054687,,,,,,,,,,,P025,fencog,1,Pre,2022_Feb_15_1030,Go No-Go Task,2021.1.4,119.96952773138607,
,"Rule: When you see a yellow image, do not press 'spacebar'.",Images/Fearful/AF10_FC.jpg,Fear,Blue,Images/Blue.jpg,space,ParentConditions/YellowBlueBlue_v1.xlsx,BlueBlueYellow,Conditions/Version_1/YellowHappyStop.xlsx,no,PASS,0.09357566512353055,,,,,,,,,0,0,0,0,0,0,0,0,0,17,17,17,,,,,,,,,,,,,,,,,,,,,,,,,,,,,,,,,,,,,,,,,,,,,,,,,,,,,,,,,,,,,,,,,,,,,,,,,,,,,,,1.75,296.44296209991444,None,space,1,298.29308839992154,None,298.29308839992154,None,298.29308839992154,None,0.3619822000619024,,,,,,,,,,,P025,fencog,1,Pre,2022_Feb_15_1030,Go No-Go Task,2021.1.4,119.96952773138607,
,"Rule: When you see a yellow image, do not press 'spacebar'.",Images/Fearful/BM03_FC.jpg,Fear,Blue,Images/Blue.jpg,space,ParentConditions/YellowBlueBlue_v1.xlsx,BlueBlueYellow,Conditions/Version_1/YellowHappyStop.xlsx,no,PASS,0.789884489320339,,,,,,,,,0,0,0,0,0,0,0,0,0,18,18,18,,,,,,,,,,,,,,,,,,,,,,,,,,,,,,,,,,,,,,,,,,,,,,,,,,,,,,,,,,,,,,,,,,,,,,,,,,,,,,,1.58,298.69234629999846,None,space,1,300.37587719992734,None,300.37587719992734,None,300.37587719992734,None,0.30302640004083514,,,,,,,,,,,P025,fencog,1,Pre,2022_Feb_15_1030,Go No-Go Task,2021.1.4,119.96952773138607,
,"Rule: When you see a yellow image, do not press 'spacebar'.",Images/Fearful/HM09_FC.jpg,Fear,Blue,Images/Blue.jpg,space,ParentConditions/YellowBlueBlue_v1.xlsx,BlueBlueYellow,Conditions/Version_1/YellowHappyStop.xlsx,no,PASS,0.8198583361260475,,,,,,,,,0,0,0,0,0,0,0,0,0,19,19,19,,,,,,,,,,,,,,,,,,,,,,,,,,,,,,,,,,,,,,,,,,,,,,,,,,,,,,,,,,,,,,,,,,,,,,,,,,,,,,,1.72,300.7749681000132,None,None,0,302.60021720000077,None,302.60021720000077,None,302.60021720000077,None,,,,,,,,,,,,P025,fencog,1,Pre,2022_Feb_15_1030,Go No-Go Task,2021.1.4,119.96952773138607,
,"Rule: When you see a yellow image, do not press 'spacebar'.",Images/Fearful/AM04_FO.jpg,Fear,Blue,Images/Blue.jpg,space,ParentConditions/YellowBlueBlue_v1.xlsx,BlueBlueYellow,Conditions/Version_1/YellowHappyStop.xlsx,no,PASS,0.9595350245966109,,,,,,,,,0,0,0,0,0,0,0,0,0,20,20,20,,,,,,,,,,,,,,,,,,,,,,,,,,,,,,,,,,,,,,,,,,,,,,,,,,,,,,,,,,,,,,,,,,,,,,,,,,,,,,,1.47,302.99935639998876,None,space,1,304.5748734999215,None,304.5748734999215,None,304.5748734999215,None,0.28820940002333373,,,,,,,,,,,P025,fencog,1,Pre,2022_Feb_15_1030,Go No-Go Task,2021.1.4,119.96952773138607,
,"Rule: When you see a yellow image, do not press 'spacebar'.",Images/Fearful/AF11AFS.jpg,Fear,Blue,Images/Blue.jpg,space,ParentConditions/YellowBlueBlue_v1.xlsx,BlueBlueYellow,Conditions/Version_1/YellowHappyStop.xlsx,no,PASS,0.7276184017912607,,,,,,,,,0,0,0,0,0,0,0,0,0,21,21,21,,,,,,,,,,,,,,,,,,,,,,,,,,,,,,,,,,,,,,,,,,,,,,,,,,,,,,,,,,,,,,,,,,,,,,,,,,,,,,,1.23,304.97373339999467,None,space,1,306.2992394999601,None,306.2992394999601,None,306.2992394999601,None,0.3637608999852091,,,,,,,,,,,P025,fencog,1,Pre,2022_Feb_15_1030,Go No-Go Task,2021.1.4,119.96952773138607,
,"Rule: When you see a yellow image, do not press 'spacebar'.",Images/Fearful/AM10_FO.jpg,Fear,Blue,Images/Blue.jpg,space,ParentConditions/YellowBlueBlue_v1.xlsx,BlueBlueYellow,Conditions/Version_1/YellowHappyStop.xlsx,no,PASS,0.7995855816230459,,,,,,,,,0,0,0,0,0,0,0,0,0,22,22,22,,,,,,,,,,,,,,,,,,,,,,,,,,,,,,,,,,,,,,,,,,,,,,,,,,,,,,,,,,,,,,,,,,,,,,,,,,,,,,,1.5,306.69823370000813,None,space,1,308.29874669993296,None,308.29874669993296,None,308.29874669993296,None,0.30820790003053844,,,,,,,,,,,P025,fencog,1,Pre,2022_Feb_15_1030,Go No-Go Task,2021.1.4,119.96952773138607,
,"Rule: When you see a yellow image, do not press 'spacebar'.",Images/Fearful/WF04_FC.jpg,Fear,Blue,Images/Blue.jpg,space,ParentConditions/YellowBlueBlue_v1.xlsx,BlueBlueYellow,Conditions/Version_1/YellowHappyStop.xlsx,no,PASS,0.007163238332436372,,,,,,,,,0,0,0,0,0,0,0,0,0,23,23,23,,,,,,,,,,,,,,,,,,,,,,,,,,,,,,,,,,,,,,,,,,,,,,,,,,,,,,,,,,,,,,,,,,,,,,,,,,,,,,,1.79,308.6976360999979,None,space,1,310.58120279992,None,310.58120279992,None,310.58120279992,None,0.32982159999664873,,,,,,,,,,,P025,fencog,1,Pre,2022_Feb_15_1030,Go No-Go Task,2021.1.4,119.96952773138607,
,"Rule: When you see a yellow image, do not press 'spacebar'.",Images/Fearful/AF28AFS.jpg,Fear,Blue,Images/Blue.jpg,space,ParentConditions/YellowBlueBlue_v1.xlsx,BlueBlueYellow,Conditions/Version_1/YellowHappyStop.xlsx,no,PASS,0.6578574406316495,,,,,,,,,0,0,0,0,0,0,0,0,0,24,24,24,,,,,,,,,,,,,,,,,,,,,,,,,,,,,,,,,,,,,,,,,,,,,,,,,,,,,,,,,,,,,,,,,,,,,,,,,,,,,,,1.97,310.98035269998945,None,space,1,313.0472030999372,None,313.0472030999372,None,313.0472030999372,None,0.28783620009198785,,,,,,,,,,,P025,fencog,1,Pre,2022_Feb_15_1030,Go No-Go Task,2021.1.4,119.96952773138607,
,"Rule: When you see a yellow image, do not press 'spacebar'.",Images/Fearful/WF11_FC.jpg,Fear,Blue,Images/Blue.jpg,space,ParentConditions/YellowBlueBlue_v1.xlsx,BlueBlueYellow,Conditions/Version_1/YellowHappyStop.xlsx,no,PASS,0.16001068916200367,,,,,,,,,0,0,0,0,0,0,0,0,0,25,25,25,,,,,,,,,,,,,,,,,,,,,,,,,,,,,,,,,,,,,,,,,,,,,,,,,,,,,,,,,,,,,,,,,,,,,,,,,,,,,,,1.67,313.44626439991407,None,space,1,315.22149079991505,None,315.22149079991505,None,315.22149079991505,None,0.32142129994463176,,,,,,,,,,,P025,fencog,1,Pre,2022_Feb_15_1030,Go No-Go Task,2021.1.4,119.96952773138607,
,"Rule: When you see a yellow image, do not press 'spacebar'.",Images/Fearful/AM17AFS.jpg,Fear,Blue,Images/Blue.jpg,space,ParentConditions/YellowBlueBlue_v1.xlsx,BlueBlueYellow,Conditions/Version_1/YellowHappyStop.xlsx,no,PASS,0.11773651559349041,,,,,,,,,0,0,0,0,0,0,0,0,0,26,26,26,,,,,,,,,,,,,,,,,,,,,,,,,,,,,,,,,,,,,,,,,,,,,,,,,,,,,,,,,,,,,,,,,,,,,,,,,,,,,,,1.35,315.6208235999802,None,None,0,317.07099959999323,None,317.07099959999323,None,317.07099959999323,None,,,,,,,,,,,,P025,fencog,1,Pre,2022_Feb_15_1030,Go No-Go Task,2021.1.4,119.96952773138607,
,"Rule: When you see a yellow image, do not press 'spacebar'.",Images/Happy/AF27HAS.jpg,Happy,Yellow,Images/Yellow.jpg,None,ParentConditions/YellowBlueBlue_v1.xlsx,BlueBlueYellow,Conditions/Version_1/YellowHappyStop.xlsx,yes,PASS,0.3141869564869746,,,,,,,,,0,0,0,0,0,0,0,0,0,27,27,27,,,,,,,,,,,,,,,,,,,,,,,,,,,,,,,,,,,,,,,,,,,,,,,,,,,,,,,,,,,,,,,,,,,,,,,,,,,,,,,1.64,317.47004169994034,None,None,1,319.203926499933,None,319.203926499933,None,319.203926499933,None,,,,,,,,,,,,P025,fencog,1,Pre,2022_Feb_15_1030,Go No-Go Task,2021.1.4,119.96952773138607,
,"Rule: When you see a yellow image, do not press 'spacebar'.",Images/Fearful/BF10_FO.jpg,Fear,Blue,Images/Blue.jpg,space,ParentConditions/YellowBlueBlue_v1.xlsx,BlueBlueYellow,Conditions/Version_1/YellowHappyStop.xlsx,no,PASS,0.6473836402289548,,,,,,,,,0,0,0,0,0,0,0,0,0,28,28,28,,,,,,,,,,,,,,,,,,,,,,,,,,,,,,,,,,,,,,,,,,,,,,,,,,,,,,,,,,,,,,,,,,,,,,,,,,,,,,,1.68,319.60280969995074,None,space,1,321.38647259993013,None,321.38647259993013,None,321.38647259993013,None,0.34853640000801533,,,,,,,,,,,P025,fencog,1,Pre,2022_Feb_15_1030,Go No-Go Task,2021.1.4,119.96952773138607,
,"Rule: When you see a yellow image, do not press 'spacebar'.",Images/Fearful/HF04_FO.jpg,Fear,Blue,Images/Blue.jpg,space,ParentConditions/YellowBlueBlue_v1.xlsx,BlueBlueYellow,Conditions/Version_1/YellowHappyStop.xlsx,no,PASS,0.6573655365841123,,,,,,,,,0,0,0,0,0,0,0,0,0,29,29,29,,,,,,,,,,,,,,,,,,,,,,,,,,,,,,,,,,,,,,,,,,,,,,,,,,,,,,,,,,,,,,,,,,,,,,,,,,,,,,,1.84,321.78550609992817,None,space,1,323.71904579992406,None,323.71904579992406,None,323.71904579992406,None,0.3359763000626117,,,,,,,,,,,P025,fencog,1,Pre,2022_Feb_15_1030,Go No-Go Task,2021.1.4,119.96952773138607,
,"Rule: When you see a yellow image, do not press 'spacebar'.",Images/Happy/AF26HAS.jpg,Happy,Yellow,Images/Yellow.jpg,None,ParentConditions/YellowBlueBlue_v1.xlsx,BlueBlueYellow,Conditions/Version_1/YellowHappyStop.xlsx,yes,PASS,0.9634288273569958,,,,,,,,,0,0,0,0,0,0,0,0,0,30,30,30,,,,,,,,,,,,,,,,,,,,,,,,,,,,,,,,,,,,,,,,,,,,,,,,,,,,,,,,,,,,,,,,,,,,,,,,,,,,,,,1.71,324.1181566999294,None,None,1,325.92673319997266,None,325.92673319997266,None,325.92673319997266,None,,,,,,,,,,,,P025,fencog,1,Pre,2022_Feb_15_1030,Go No-Go Task,2021.1.4,119.96952773138607,
,"Rule: When you see a yellow image, do not press 'spacebar'.",Images/Happy/HF09_HE.jpg,Happy,Yellow,Images/Yellow.jpg,None,ParentConditions/YellowBlueBlue_v1.xlsx,BlueBlueYellow,Conditions/Version_1/YellowHappyStop.xlsx,yes,PASS,0.28002812366142005,,,,,,,,,0,0,0,0,0,0,0,0,0,31,31,31,,,,,,,,,,,,,,,,,,,,,,,,,,,,,,,,,,,,,,,,,,,,,,,,,,,,,,,,,,,,,,,,,,,,,,,,,,,,,,,1.93,326.3258212999208,None,None,1,328.3510085999733,None,328.3510085999733,None,328.3510085999733,None,,,,,,,,,,,,P025,fencog,1,Pre,2022_Feb_15_1030,Go No-Go Task,2021.1.4,119.96952773138607,
,"Rule: When you see a yellow image, do not press 'spacebar'.",Images/Fearful/AM16AFS.jpg,Fear,Blue,Images/Blue.jpg,space,ParentConditions/YellowBlueBlue_v1.xlsx,BlueBlueYellow,Conditions/Version_1/YellowHappyStop.xlsx,no,PASS,0.5681414931312986,,,,,,,,,0,0,0,0,0,0,0,0,0,32,32,32,,,,,,,,,,,,,,,,,,,,,,,,,,,,,,,,,,,,,,,,,,,,,,,,,,,,,,,,,,,,,,,,,,,,,,,,,,,,,,,1.94,328.7501197999809,None,space,1,330.79198290000204,None,330.79198290000204,None,330.79198290000204,None,0.3270008999388665,,,,,,,,,,,P025,fencog,1,Pre,2022_Feb_15_1030,Go No-Go Task,2021.1.4,119.96952773138607,
,"Rule: When you see a yellow image, do not press 'spacebar'.",Images/Fearful/WF05_FO.jpg,Fear,Blue,Images/Blue.jpg,space,ParentConditions/YellowBlueBlue_v1.xlsx,BlueBlueYellow,Conditions/Version_1/YellowHappyStop.xlsx,no,PASS,0.23759173368539344,,,,,,,,,0,0,0,0,0,0,0,0,0,33,33,33,,,,,,,,,,,,,,,,,,,,,,,,,,,,,,,,,,,,,,,,,,,,,,,,,,,,,,,,,,,,,,,,,,,,,,,,,,,,,,,1.32,331.19106410001405,None,space,1,332.6163978999248,None,332.6163978999248,None,332.6163978999248,None,0.32658229989465326,,,,,,,,,,,P025,fencog,1,Pre,2022_Feb_15_1030,Go No-Go Task,2021.1.4,119.96952773138607,
,"Rule: When you see a yellow image, do not press 'spacebar'.",Images/Fearful/AM03_FC.jpg,Fear,Blue,Images/Blue.jpg,space,ParentConditions/YellowBlueBlue_v1.xlsx,BlueBlueYellow,Conditions/Version_1/YellowHappyStop.xlsx,no,PASS,0.45277772012976447,,,,,,,,,0,0,0,0,0,0,0,0,0,34,34,34,,,,,,,,,,,,,,,,,,,,,,,,,,,,,,,,,,,,,,,,,,,,,,,,,,,,,,,,,,,,,,,,,,,,,,,,,,,,,,,1.29,333.0154671999626,None,space,1,334.39926480001304,None,334.39926480001304,None,334.39926480001304,None,0.35977049998473376,,,,,,,,,,,P025,fencog,1,Pre,2022_Feb_15_1030,Go No-Go Task,2021.1.4,119.96952773138607,
,"Rule: When you see a yellow image, do not press 'spacebar'.",Images/Fearful/AM01AFS.jpg,Fear,Blue,Images/Blue.jpg,space,ParentConditions/YellowBlueBlue_v1.xlsx,BlueBlueYellow,Conditions/Version_1/YellowHappyStop.xlsx,no,PASS,0.4826830931616207,,,,,,,,,0,0,0,0,0,0,0,0,0,35,35,35,,,,,,,,,,,,,,,,,,,,,,,,,,,,,,,,,,,,,,,,,,,,,,,,,,,,,,,,,,,,,,,,,,,,,,,,,,,,,,,1.69,334.7983291000128,None,None,0,336.5903683999786,None,336.5903683999786,None,336.5903683999786,None,,,,,,,,,,,,P025,fencog,1,Pre,2022_Feb_15_1030,Go No-Go Task,2021.1.4,119.96952773138607,
,"Rule: When you see a yellow image, do not press 'spacebar'.",Images/Fearful/HM04_FC.jpg,Fear,Blue,Images/Blue.jpg,space,ParentConditions/YellowBlueBlue_v1.xlsx,BlueBlueYellow,Conditions/Version_1/YellowHappyStop.xlsx,no,PASS,0.46069029171054665,,,,,,,,,0,0,0,0,0,0,0,0,0,36,36,36,,,,,,,,,,,,,,,,,,,,,,,,,,,,,,,,,,,,,,,,,,,,,,,,,,,,,,,,,,,,,,,,,,,,,,,,,,,,,,,1.37,336.98930849996395,None,space,1,338.4564047999447,None,338.4564047999447,None,338.4564047999447,None,0.35875140002463013,,,,,,,,,,,P025,fencog,1,Pre,2022_Feb_15_1030,Go No-Go Task,2021.1.4,119.96952773138607,
,"Rule: When you see a yellow image, do not press 'spacebar'.",Images/Fearful/BF18_FC.jpg,Fear,Blue,Images/Blue.jpg,space,ParentConditions/YellowBlueBlue_v1.xlsx,BlueBlueYellow,Conditions/Version_1/YellowHappyStop.xlsx,no,PASS,0.633030328468129,,,,,,,,,0,0,0,0,0,0,0,0,0,37,37,37,,,,,,,,,,,,,,,,,,,,,,,,,,,,,,,,,,,,,,,,,,,,,,,,,,,,,,,,,,,,,,,,,,,,,,,,,,,,,,,1.9,338.8554304999998,None,space,1,340.85566519992426,None,340.85566519992426,None,340.85566519992426,None,0.3354479999979958,,,,,,,,,,,P025,fencog,1,Pre,2022_Feb_15_1030,Go No-Go Task,2021.1.4,119.96952773138607,
,"Rule: When you see a yellow image, do not press 'spacebar'.",Images/Fearful/AF07_FO.jpg,Fear,Blue,Images/Blue.jpg,space,ParentConditions/YellowBlueBlue_v1.xlsx,BlueBlueYellow,Conditions/Version_1/YellowHappyStop.xlsx,no,PASS,0.34147832357579266,,,,,,,,,0,0,0,0,0,0,0,0,0,38,38,38,,,,,,,,,,,,,,,,,,,,,,,,,,,,,,,,,,,,,,,,,,,,,,,,,,,,,,,,,,,,,,,,,,,,,,,,,,,,,,,1.34,341.2547504999675,None,space,1,342.6968083999818,None,342.6968083999818,None,342.6968083999818,None,0.25441769999451935,,,,,,,,,,,P025,fencog,1,Pre,2022_Feb_15_1030,Go No-Go Task,2021.1.4,119.96952773138607,
,"Rule: When you see a yellow image, do not press 'spacebar'.",Images/Fearful/AM24AFS.jpg,Fear,Blue,Images/Blue.jpg,space,ParentConditions/YellowBlueBlue_v1.xlsx,BlueBlueYellow,Conditions/Version_1/YellowHappyStop.xlsx,no,PASS,0.778148808430259,,,,,,,,,0,0,0,0,0,0,0,0,0,39,39,39,,,,,,,,,,,,,,,,,,,,,,,,,,,,,,,,,,,,,,,,,,,,,,,,,,,,,,,,,,,,,,,,,,,,,,,,,,,,,,,1.74,343.09588379994966,None,None,0,344.9377943999134,None,344.9377943999134,None,344.9377943999134,None,,,,,,,,,,,,P025,fencog,1,Pre,2022_Feb_15_1030,Go No-Go Task,2021.1.4,119.96952773138607,
,"Rule: When you see a yellow image, do not press 'spacebar'.",Images/Fearful/AM03AFS.jpg,Fear,Blue,Images/Blue.jpg,space,ParentConditions/YellowBlueBlue_v1.xlsx,BlueBlueYellow,Conditions/Version_1/YellowHappyStop.xlsx,no,PASS,0.23044092834848573,,,,,,,,,0,0,0,0,0,0,0,0,0,40,40,40,,,,,,,,,,,,,,,,,,,,,,,,,,,,,,,,,,,,,,,,,,,,,,,,,,,,,,,,,,,,,,,,,,,,,,,,,,,,,,,1.92,345.3369170000078,None,None,0,347.3538687999826,None,347.3538687999826,None,347.3538687999826,None,,,,,,,,,,,,P025,fencog,1,Pre,2022_Feb_15_1030,Go No-Go Task,2021.1.4,119.96952773138607,
,"Rule: When you see a yellow image, do not press 'spacebar'.",Images/Fearful/BM08_FC.jpg,Fear,Blue,Images/Blue.jpg,space,ParentConditions/YellowBlueBlue_v1.xlsx,BlueBlueYellow,Conditions/Version_1/YellowHappyStop.xlsx,no,PASS,0.6548756521259214,,,,,,,,,0,0,0,0,0,0,0,0,0,41,41,41,,,,,,,,,,,,,,,,,,,,,,,,,,,,,,,,,,,,,,,,,,,,,,,,,,,,,,,,,,,,,,,,,,,,,,,,,,,,,,,1.62,347.7528326999163,None,space,1,349.4781113999197,None,349.4781113999197,None,349.4781113999197,None,0.26498319988604635,,,,,,,,,,,P025,fencog,1,Pre,2022_Feb_15_1030,Go No-Go Task,2021.1.4,119.96952773138607,
,"Rule: When you see a yellow image, do not press 'spacebar'.",Images/Fearful/AF32AFS.jpg,Fear,Blue,Images/Blue.jpg,space,ParentConditions/YellowBlueBlue_v1.xlsx,BlueBlueYellow,Conditions/Version_1/YellowHappyStop.xlsx,no,PASS,0.9401650545876452,,,,,,,,,0,0,0,0,0,0,0,0,0,42,42,42,,,,,,,,,,,,,,,,,,,,,,,,,,,,,,,,,,,,,,,,,,,,,,,,,,,,,,,,,,,,,,,,,,,,,,,,,,,,,,,1.49,349.87725749996025,None,space,1,351.46918989997357,None,351.46918989997357,None,351.46918989997357,None,0.30597800004761666,,,,,,,,,,,P025,fencog,1,Pre,2022_Feb_15_1030,Go No-Go Task,2021.1.4,119.96952773138607,
,"Rule: When you see a yellow image, do not press 'spacebar'.",Images/Fearful/AF26AFS.jpg,Fear,Blue,Images/Blue.jpg,space,ParentConditions/YellowBlueBlue_v1.xlsx,BlueBlueYellow,Conditions/Version_1/YellowHappyStop.xlsx,no,PASS,0.5799257276734284,,,,,,,,,0,0,0,0,0,0,0,0,0,43,43,43,,,,,,,,,,,,,,,,,,,,,,,,,,,,,,,,,,,,,,,,,,,,,,,,,,,,,,,,,,,,,,,,,,,,,,,,,,,,,,,1.2,351.86830249999184,None,space,1,353.168692199979,None,353.168692199979,None,353.168692199979,None,0.35843699995893985,,,,,,,,,,,P025,fencog,1,Pre,2022_Feb_15_1030,Go No-Go Task,2021.1.4,119.96952773138607,
,"Rule: When you see a yellow image, do not press 'spacebar'.",Images/Fearful/BF09_FC.jpg,Fear,Blue,Images/Blue.jpg,space,ParentConditions/YellowBlueBlue_v1.xlsx,BlueBlueYellow,Conditions/Version_1/YellowHappyStop.xlsx,no,PASS,0.9512288628250045,,,,,,,,,0,0,0,0,0,0,0,0,0,44,44,44,,,,,,,,,,,,,,,,,,,,,,,,,,,,,,,,,,,,,,,,,,,,,,,,,,,,,,,,,,,,,,,,,,,,,,,,,,,,,,,1.27,353.5678413999267,None,space,1,354.9431489999406,None,354.9431489999406,None,354.9431489999406,None,0.3359109000302851,,,,,,,,,,,P025,fencog,1,Pre,2022_Feb_15_1030,Go No-Go Task,2021.1.4,119.96952773138607,
,"Rule: When you see a yellow image, do not press 'spacebar'.",Images/Fearful/BM01_FO.jpg,Fear,Blue,Images/Blue.jpg,space,ParentConditions/YellowBlueBlue_v1.xlsx,BlueBlueYellow,Conditions/Version_1/YellowHappyStop.xlsx,no,PASS,0.8954287307362916,,,,,,,,,0,0,0,0,0,0,0,0,0,45,45,45,,,,,,,,,,,,,,,,,,,,,,,,,,,,,,,,,,,,,,,,,,,,,,,,,,,,,,,,,,,,,,,,,,,,,,,,,,,,,,,1.6,355.34227309993,None,space,1,357.0426150999265,None,357.0426150999265,None,357.0426150999265,None,0.3726399999577552,,,,,,,,,,,P025,fencog,1,Pre,2022_Feb_15_1030,Go No-Go Task,2021.1.4,119.96952773138607,
,"Rule: When you see a yellow image, do not press 'spacebar'.",Images/Happy/BF14_HO.jpg,Happy,Yellow,Images/Yellow.jpg,None,ParentConditions/YellowBlueBlue_v1.xlsx,BlueBlueYellow,Conditions/Version_1/YellowHappyStop.xlsx,yes,PASS,0.7234280216409134,,,,,,,,,0,0,0,0,0,0,0,0,0,46,46,46,,,,,,,,,,,,,,,,,,,,,,,,,,,,,,,,,,,,,,,,,,,,,,,,,,,,,,,,,,,,,,,,,,,,,,,,,,,,,,,1.76,357.441640199977,None,None,1,359.3002479999559,None,359.3002479999559,None,359.3002479999559,None,,,,,,,,,,,,P025,fencog,1,Pre,2022_Feb_15_1030,Go No-Go Task,2021.1.4,119.96952773138607,
,"Rule: When you see a yellow image, do not press 'spacebar'.",Images/Fearful/WM11_FC.jpg,Fear,Blue,Images/Blue.jpg,space,ParentConditions/YellowBlueBlue_v1.xlsx,BlueBlueYellow,Conditions/Version_1/YellowHappyStop.xlsx,no,PASS,0.023552814974996727,,,,,,,,,0,0,0,0,0,0,0,0,0,47,47,47,,,,,,,,,,,,,,,,,,,,,,,,,,,,,,,,,,,,,,,,,,,,,,,,,,,,,,,,,,,,,,,,,,,,,,,,,,,,,,,1.57,359.699334600009,None,space,1,361.3747041999595,None,361.3747041999595,None,361.3747041999595,None,0.32035469997208565,,,,,,,,,,,P025,fencog,1,Pre,2022_Feb_15_1030,Go No-Go Task,2021.1.4,119.96952773138607,
,"Rule: When you see a yellow image, do not press 'spacebar'.",Images/Fearful/AM02_FO.jpg,Fear,Blue,Images/Blue.jpg,space,ParentConditions/YellowBlueBlue_v1.xlsx,BlueBlueYellow,Conditions/Version_1/YellowHappyStop.xlsx,no,PASS,0.4906088235260202,,,,,,,,,0,0,0,0,0,0,0,0,0,48,48,48,,,,,,,,,,,,,,,,,,,,,,,,,,,,,,,,,,,,,,,,,,,,,,,,,,,,,,,,,,,,,,,,,,,,,,,,,,,,,,,1.21,361.77709280001,None,space,1,363.0908663999289,None,363.0908663999289,None,363.0908663999289,None,0.2762467000866309,,,,,,,,,,,P025,fencog,1,Pre,2022_Feb_15_1030,Go No-Go Task,2021.1.4,119.96952773138607,
,"Rule: When you see a yellow image, do not press 'spacebar'.",Images/Happy/HM09_HO.jpg,Happy,Yellow,Images/Yellow.jpg,None,ParentConditions/YellowBlueBlue_v1.xlsx,BlueBlueYellow,Conditions/Version_1/YellowHappyStop.xlsx,yes,PASS,0.5172626673634482,,,,,,,,,0,0,0,0,0,0,0,0,0,49,49,49,,,,,,,,,,,,,,,,,,,,,,,,,,,,,,,,,,,,,,,,,,,,,,,,,,,,,,,,,,,,,,,,,,,,,,,,,,,,,,,2,363.4899723000126,None,None,1,365.5817082999274,None,365.5817082999274,None,365.5817082999274,None,,,,,,,,,,,,P025,fencog,1,Pre,2022_Feb_15_1030,Go No-Go Task,2021.1.4,119.96952773138607,
,"Rule: When you see a yellow image, do not press 'spacebar'.",Images/Happy/HF10_HE.jpg,Happy,Yellow,Images/Yellow.jpg,None,ParentConditions/YellowBlueBlue_v1.xlsx,BlueBlueYellow,Conditions/Version_1/YellowHappyStop.xlsx,yes,PASS,0.44150167084278924,,,,,,,,,0,0,0,0,0,0,0,0,0,50,50,50,,,,,,,,,,,,,,,,,,,,,,,,,,,,,,,,,,,,,,,,,,,,,,,,,,,,,,,,,,,,,,,,,,,,,,,,,,,,,,,1.78,365.9808031999273,None,None,1,367.87265809997916,None,367.87265809997916,None,367.87265809997916,None,,,,,,,,,,,,P025,fencog,1,Pre,2022_Feb_15_1030,Go No-Go Task,2021.1.4,119.96952773138607,
,"Rule: When you see a yellow image, do not press 'spacebar'.",Images/Fearful/AF09AFS.jpg,Fear,Blue,Images/Blue.jpg,space,ParentConditions/YellowBlueBlue_v1.xlsx,BlueBlueYellow,Conditions/Version_1/YellowHappyStop.xlsx,no,PASS,0.20329731425220043,,,,,,,,,0,0,0,0,0,0,0,0,0,51,51,51,,,,,,,,,,,,,,,,,,,,,,,,,,,,,,,,,,,,,,,,,,,,,,,,,,,,,,,,,,,,,,,,,,,,,,,,,,,,,,,1.98,368.27178259997163,None,None,0,370.355252499925,None,370.355252499925,None,370.355252499925,None,,,,,,,,,,,,P025,fencog,1,Pre,2022_Feb_15_1030,Go No-Go Task,2021.1.4,119.96952773138607,
,"Rule: When you see a yellow image, do not press 'spacebar'.",Images/Fearful/AM23AFS.jpg,Fear,Blue,Images/Blue.jpg,space,ParentConditions/YellowBlueBlue_v1.xlsx,BlueBlueYellow,Conditions/Version_1/YellowHappyStop.xlsx,no,PASS,0.9134790301426777,,,,,,,,,0,0,0,0,0,0,0,0,0,52,52,52,,,,,,,,,,,,,,,,,,,,,,,,,,,,,,,,,,,,,,,,,,,,,,,,,,,,,,,,,,,,,,,,,,,,,,,,,,,,,,,1.4,370.7543230999727,None,space,1,372.2547477999469,None,372.2547477999469,None,372.2547477999469,None,0.3762540000025183,,,,,,,,,,,P025,fencog,1,Pre,2022_Feb_15_1030,Go No-Go Task,2021.1.4,119.96952773138607,
,"Rule: When you see a yellow image, do not press 'spacebar'.",Images/Fearful/AM05AFS.jpg,Fear,Blue,Images/Blue.jpg,space,ParentConditions/YellowBlueBlue_v1.xlsx,BlueBlueYellow,Conditions/Version_1/YellowHappyStop.xlsx,no,PASS,0.7369542946293995,,,,,,,,,0,0,0,0,0,0,0,0,0,53,53,53,,,,,,,,,,,,,,,,,,,,,,,,,,,,,,,,,,,,,,,,,,,,,,,,,,,,,,,,,,,,,,,,,,,,,,,,,,,,,,,1.31,372.6538424999453,None,space,1,374.071239199955,None,374.071239199955,None,374.071239199955,None,0.37580360006541014,,,,,,,,,,,P025,fencog,1,Pre,2022_Feb_15_1030,Go No-Go Task,2021.1.4,119.96952773138607,
,"Rule: When you see a yellow image, do not press 'spacebar'.",Images/Happy/AF28HAS.jpg,Happy,Yellow,Images/Yellow.jpg,None,ParentConditions/YellowBlueBlue_v1.xlsx,BlueBlueYellow,Conditions/Version_1/YellowHappyStop.xlsx,yes,PASS,0.27168303726444554,,,,,,,,,0,0,0,0,0,0,0,0,0,54,54,54,,,,,,,,,,,,,,,,,,,,,,,,,,,,,,,,,,,,,,,,,,,,,,,,,,,,,,,,,,,,,,,,,,,,,,,,,,,,,,,1.73,374.46993329992983,None,None,1,376.30357609991916,None,376.30357609991916,None,376.30357609991916,None,,,,,,,,,,,,P025,fencog,1,Pre,2022_Feb_15_1030,Go No-Go Task,2021.1.4,119.96952773138607,
,"Rule: When you see a yellow image, do not press 'spacebar'.",Images/Fearful/BF14_FO.jpg,Fear,Blue,Images/Blue.jpg,space,ParentConditions/YellowBlueBlue_v1.xlsx,BlueBlueYellow,Conditions/Version_1/YellowHappyStop.xlsx,no,PASS,0.6433421649003036,,,,,,,,,0,0,0,0,0,0,0,0,0,55,55,55,,,,,,,,,,,,,,,,,,,,,,,,,,,,,,,,,,,,,,,,,,,,,,,,,,,,,,,,,,,,,,,,,,,,,,,,,,,,,,,1.25,376.7034967999207,None,None,0,378.06137459992897,None,378.06137459992897,None,378.06137459992897,None,,,,,,,,,,,,P025,fencog,1,Pre,2022_Feb_15_1030,Go No-Go Task,2021.1.4,119.96952773138607,
,"Rule: When you see a yellow image, do not press 'spacebar'.",Images/Happy/AM30HAS.jpg,Happy,Yellow,Images/Yellow.jpg,None,ParentConditions/YellowBlueBlue_v1.xlsx,BlueBlueYellow,Conditions/Version_1/YellowHappyStop.xlsx,yes,PASS,0.0794505415747715,,,,,,,,,0,0,0,0,0,0,0,0,0,56,56,56,,,,,,,,,,,,,,,,,,,,,,,,,,,,,,,,,,,,,,,,,,,,,,,,,,,,,,,,,,,,,,,,,,,,,,,,,,,,,,,1.88,378.4604086999316,None,None,1,380.4441409999272,None,380.4441409999272,None,380.4441409999272,None,,,,,,,,,,,,P025,fencog,1,Pre,2022_Feb_15_1030,Go No-Go Task,2021.1.4,119.96952773138607,
,"Rule: When you see a yellow image, do not press 'spacebar'.",Images/Fearful/AF27AFS.jpg,Fear,Blue,Images/Blue.jpg,space,ParentConditions/YellowBlueBlue_v1.xlsx,BlueBlueYellow,Conditions/Version_1/YellowHappyStop.xlsx,no,PASS,0.3935834771022866,,,,,,,,,0,0,0,0,0,0,0,0,0,57,57,57,,,,,,,,,,,,,,,,,,,,,,,,,,,,,,,,,,,,,,,,,,,,,,,,,,,,,,,,,,,,,,,,,,,,,,,,,,,,,,,1.59,380.84311599994544,None,space,1,382.53509629995096,None,382.53509629995096,None,382.53509629995096,None,0.3359013000736013,,,,,,,,,,,P025,fencog,1,Pre,2022_Feb_15_1030,Go No-Go Task,2021.1.4,119.96952773138607,
,"Rule: When you see a yellow image, do not press 'spacebar'.",Images/Fearful/AM32AFS.jpg,Fear,Blue,Images/Blue.jpg,space,ParentConditions/YellowBlueBlue_v1.xlsx,BlueBlueYellow,Conditions/Version_1/YellowHappyStop.xlsx,no,PASS,0.5614458224122035,,,,,,,,,0,0,0,0,0,0,0,0,0,58,58,58,,,,,,,,,,,,,,,,,,,,,,,,,,,,,,,,,,,,,,,,,,,,,,,,,,,,,,,,,,,,,,,,,,,,,,,,,,,,,,,1.24,382.93418949993793,None,space,1,384.28454339993186,None,384.28454339993186,None,384.28454339993186,None,0.3626123000867665,,,,,,,,,,,P025,fencog,1,Pre,2022_Feb_15_1030,Go No-Go Task,2021.1.4,119.96952773138607,
,"Rule: When you see a yellow image, do not press 'spacebar'.",Images/Fearful/AM09_FO.jpg,Fear,Blue,Images/Blue.jpg,space,ParentConditions/YellowBlueBlue_v1.xlsx,BlueBlueYellow,Conditions/Version_1/YellowHappyStop.xlsx,no,PASS,0.3933837419145386,,,,,,,,,0,0,0,0,0,0,0,0,0,59,59,59,,,,,,,,,,,,,,,,,,,,,,,,,,,,,,,,,,,,,,,,,,,,,,,,,,,,,,,,,,,,,,,,,,,,,,,,,,,,,,,1.85,384.6836404999485,None,space,1,386.63389329996426,None,386.63389329996426,None,386.63389329996426,None,0.3732878000009805,,,,,,,,,,,P025,fencog,1,Pre,2022_Feb_15_1030,Go No-Go Task,2021.1.4,119.96952773138607,
,"Rule: When you see a yellow image, do not press 'spacebar'.",Images/Fearful/AF01_FO.jpg,Fear,Blue,Images/Blue.jpg,space,ParentConditions/YellowBlueBlue_v1.xlsx,BlueBlueYellow,Conditions/Version_1/YellowHappyStop.xlsx,no,PASS,0.7419870009427991,,,,,,,,,0,0,0,0,0,0,0,0,0,60,60,60,,,,,,,,,,,,,,,,,,,,,,,,,,,,,,,,,,,,,,,,,,,,,,,,,,,,,,,,,,,,,,,,,,,,,,,,,,,,,,,1.7,387.0329559999518,None,None,0,388.8332119999686,None,388.8332119999686,None,388.8332119999686,None,,,,,,,,,,,,P025,fencog,1,Pre,2022_Feb_15_1030,Go No-Go Task,2021.1.4,119.96952773138607,
,"Rule: When you see a yellow image, do not press 'spacebar'.",Images/Happy/AM10_HO.jpg,Happy,Yellow,Images/Yellow.jpg,None,ParentConditions/YellowBlueBlue_v1.xlsx,BlueBlueYellow,Conditions/Version_1/YellowHappyStop.xlsx,yes,PASS,0.7352402085502512,,,,,,,,,0,0,0,0,0,0,0,0,0,61,61,61,,,,,,,,,,,,,,,,,,,,,,,,,,,,,,,,,,,,,,,,,,,,,,,,,,,,,,,,,,,,,,,,,,,,,,,,,,,,,,,1.41,389.23254749993794,None,None,1,390.7493112999946,None,390.7493112999946,None,390.7493112999946,None,,,,,,,,,,,,P025,fencog,1,Pre,2022_Feb_15_1030,Go No-Go Task,2021.1.4,119.96952773138607,
,"Rule: When you see a yellow image, do not press 'spacebar'.",Images/Happy/AM22HAS.jpg,Happy,Yellow,Images/Yellow.jpg,None,ParentConditions/YellowBlueBlue_v1.xlsx,BlueBlueYellow,Conditions/Version_1/YellowHappyStop.xlsx,yes,PASS,0.27838589915801637,,,,,,,,,0,0,0,0,0,0,0,0,0,62,62,62,,,,,,,,,,,,,,,,,,,,,,,,,,,,,,,,,,,,,,,,,,,,,,,,,,,,,,,,,,,,,,,,,,,,,,,,,,,,,,,1.52,391.1484417999163,None,None,1,392.77375399996527,None,392.77375399996527,None,392.77375399996527,None,,,,,,,,,,,,P025,fencog,1,Pre,2022_Feb_15_1030,Go No-Go Task,2021.1.4,119.96952773138607,
,"Rule: When you see a yellow image, do not press 'spacebar'.",Images/Fearful/AM22AFS.jpg,Fear,Blue,Images/Blue.jpg,space,ParentConditions/YellowBlueBlue_v1.xlsx,BlueBlueYellow,Conditions/Version_1/YellowHappyStop.xlsx,no,PASS,0.012398818855924532,,,,,,,,,0,0,0,0,0,0,0,0,0,63,63,63,,,,,,,,,,,,,,,,,,,,,,,,,,,,,,,,,,,,,,,,,,,,,,,,,,,,,,,,,,,,,,,,,,,,,,,,,,,,,,,1.54,393.17282749991864,None,space,1,394.8148046999704,None,394.8148046999704,None,394.8148046999704,None,0.3842555000446737,,,,,,,,,,,P025,fencog,1,Pre,2022_Feb_15_1030,Go No-Go Task,2021.1.4,119.96952773138607,
,"Rule: When you see a yellow image, do not press 'spacebar'.",Images/Happy/BM08_HO.jpg,Happy,Yellow,Images/Yellow.jpg,None,ParentConditions/YellowBlueBlue_v1.xlsx,BlueBlueYellow,Conditions/Version_1/YellowHappyStop.xlsx,yes,PASS,0.25791881247444226,,,,,,,,,0,0,0,0,0,0,0,0,0,64,64,64,,,,,,,,,,,,,,,,,,,,,,,,,,,,,,,,,,,,,,,,,,,,,,,,,,,,,,,,,,,,,,,,,,,,,,,,,,,,,,,1.22,395.21397039992735,None,None,1,396.54801559995394,None,396.54801559995394,None,396.54801559995394,None,,,,,,,,,,,,P025,fencog,1,Pre,2022_Feb_15_1030,Go No-Go Task,2021.1.4,119.96952773138607,
,"Rule: When you see a yellow image, do not press 'spacebar'.",Images/Fearful/AM19AFS.jpg,Fear,Blue,Images/Blue.jpg,space,ParentConditions/YellowBlueBlue_v1.xlsx,BlueBlueYellow,Conditions/Version_1/YellowHappyStop.xlsx,no,PASS,0.4570092371665587,,,,,,,,,0,0,0,0,0,0,0,0,0,65,65,65,,,,,,,,,,,,,,,,,,,,,,,,,,,,,,,,,,,,,,,,,,,,,,,,,,,,,,,,,,,,,,,,,,,,,,,,,,,,,,,1.87,396.94687200000044,None,None,0,398.9306248999201,None,398.9306248999201,None,398.9306248999201,None,,,,,,,,,,,,P025,fencog,1,Pre,2022_Feb_15_1030,Go No-Go Task,2021.1.4,119.96952773138607,
,"Rule: When you see a yellow image, do not press 'spacebar'.",Images/Fearful/AF23AFS.jpg,Fear,Blue,Images/Blue.jpg,space,ParentConditions/YellowBlueBlue_v1.xlsx,BlueBlueYellow,Conditions/Version_1/YellowHappyStop.xlsx,no,PASS,0.9065930904744121,,,,,,,,,0,0,0,0,0,0,0,0,0,66,66,66,,,,,,,,,,,,,,,,,,,,,,,,,,,,,,,,,,,,,,,,,,,,,,,,,,,,,,,,,,,,,,,,,,,,,,,,,,,,,,,1.81,399.32946839998476,None,None,0,401.24663099995814,None,401.24663099995814,None,401.24663099995814,None,,,,,,,,,,,,P025,fencog,1,Pre,2022_Feb_15_1030,Go No-Go Task,2021.1.4,119.96952773138607,
,"Rule: When you see a yellow image, do not press 'spacebar'.",Images/Fearful/AM13AFS.jpg,Fear,Blue,Images/Blue.jpg,space,ParentConditions/YellowBlueBlue_v1.xlsx,BlueBlueYellow,Conditions/Version_1/YellowHappyStop.xlsx,no,PASS,0.672217887403839,,,,,,,,,0,0,0,0,0,0,0,0,0,67,67,67,,,,,,,,,,,,,,,,,,,,,,,,,,,,,,,,,,,,,,,,,,,,,,,,,,,,,,,,,,,,,,,,,,,,,,,,,,,,,,,1.63,401.64727049996145,None,None,0,403.3794316999847,None,403.3794316999847,None,403.3794316999847,None,,,,,,,,,,,,P025,fencog,1,Pre,2022_Feb_15_1030,Go No-Go Task,2021.1.4,119.96952773138607,
,"Rule: When you see a yellow image, do not press 'spacebar'.",Images/Fearful/HF09_FC.jpg,Fear,Blue,Images/Blue.jpg,space,ParentConditions/YellowBlueBlue_v1.xlsx,BlueBlueYellow,Conditions/Version_1/YellowHappyStop.xlsx,no,PASS,0.947763278232759,,,,,,,,,0,0,0,0,0,0,0,0,0,68,68,68,,,,,,,,,,,,,,,,,,,,,,,,,,,,,,,,,,,,,,,,,,,,,,,,,,,,,,,,,,,,,,,,,,,,,,,,,,,,,,,1.99,403.7813350999495,None,None,0,405.88696149992757,None,405.88696149992757,None,405.88696149992757,None,,,,,,,,,,,,P025,fencog,1,Pre,2022_Feb_15_1030,Go No-Go Task,2021.1.4,119.96952773138607,
,"Rule: When you see a yellow image, do not press 'spacebar'.",Images/Fearful/AM04AFS.jpg,Fear,Blue,Images/Blue.jpg,space,ParentConditions/YellowBlueBlue_v1.xlsx,BlueBlueYellow,Conditions/Version_1/YellowHappyStop.xlsx,no,PASS,0.7155710730323807,,,,,,,,,0,0,0,0,0,0,0,0,0,69,69,69,,,,,,,,,,,,,,,,,,,,,,,,,,,,,,,,,,,,,,,,,,,,,,,,,,,,,,,,,,,,,,,,,,,,,,,,,,,,,,,1.3,406.2859598000068,None,space,1,407.68651389994193,None,407.68651389994193,None,407.68651389994193,None,0.27288569998927414,,,,,,,,,,,P025,fencog,1,Pre,2022_Feb_15_1030,Go No-Go Task,2021.1.4,119.96952773138607,
,"Rule: When you see a yellow image, do not press 'spacebar'.",Images/Fearful/AF02AFS.jpg,Fear,Blue,Images/Blue.jpg,space,ParentConditions/YellowBlueBlue_v1.xlsx,BlueBlueYellow,Conditions/Version_1/YellowHappyStop.xlsx,no,PASS,0.9864792225255055,,,,,,,,,0,0,0,0,0,0,0,0,0,70,70,70,,,,,,,,,,,,,,,,,,,,,,,,,,,,,,,,,,,,,,,,,,,,,,,,,,,,,,,,,,,,,,,,,,,,,,,,,,,,,,,1.55,408.0953843999887,None,space,1,409.75243569992017,None,409.75243569992017,None,409.75243569992017,None,0.326955100055784,,,,,,,,,,,P025,fencog,1,Pre,2022_Feb_15_1030,Go No-Go Task,2021.1.4,119.96952773138607,
,"Rule: When you see a yellow image, do not press 'spacebar'.",Images/Fearful/AM09AFS.jpg,Fear,Blue,Images/Blue.jpg,space,ParentConditions/YellowBlueBlue_v1.xlsx,BlueBlueYellow,Conditions/Version_1/YellowHappyStop.xlsx,no,PASS,0.8390326237024166,,,,,,,,,0,0,0,0,0,0,0,0,0,71,71,71,,,,,,,,,,,,,,,,,,,,,,,,,,,,,,,,,,,,,,,,,,,,,,,,,,,,,,,,,,,,,,,,,,,,,,,,,,,,,,,1.77,410.15867019991856,None,space,1,412.0518549999688,None,412.0518549999688,None,412.0518549999688,None,0.3556190999224782,,,,,,,,,,,P025,fencog,1,Pre,2022_Feb_15_1030,Go No-Go Task,2021.1.4,119.96952773138607,
,"Rule: When you see a yellow image, do not press 'spacebar'.",Images/Fearful/BF05_FO.jpg,Fear,Blue,Images/Blue.jpg,space,ParentConditions/YellowBlueBlue_v1.xlsx,BlueBlueYellow,Conditions/Version_1/YellowHappyStop.xlsx,no,PASS,0.691917879610661,,,,,,,,,0,0,0,0,0,0,0,0,0,72,72,72,,,,,,,,,,,,,,,,,,,,,,,,,,,,,,,,,,,,,,,,,,,,,,,,,,,,,,,,,,,,,,,,,,,,,,,,,,,,,,,1.96,412.4464630999137,None,space,1,414.51807270001154,None,414.51807270001154,None,414.51807270001154,None,0.30492280004546046,,,,,,,,,,,P025,fencog,1,Pre,2022_Feb_15_1030,Go No-Go Task,2021.1.4,119.96952773138607,
,"Rule: When you see a yellow image, do not press 'spacebar'.",Images/Fearful/AF22AFS.jpg,Fear,Blue,Images/Blue.jpg,space,ParentConditions/YellowBlueBlue_v1.xlsx,BlueBlueYellow,Conditions/Version_1/YellowHappyStop.xlsx,no,PASS,0.03529836358299465,,,,,,,,,0,0,0,0,0,0,0,0,0,73,73,73,,,,,,,,,,,,,,,,,,,,,,,,,,,,,,,,,,,,,,,,,,,,,,,,,,,,,,,,,,,,,,,,,,,,,,,,,,,,,,,1.83,414.91818699997384,None,space,1,416.8503395000007,None,416.8503395000007,None,416.8503395000007,None,0.3488237001001835,,,,,,,,,,,P025,fencog,1,Pre,2022_Feb_15_1030,Go No-Go Task,2021.1.4,119.96952773138607,
,"Rule: When you see a yellow image, do not press 'spacebar'.",Images/Happy/BF18_HO.jpg,Happy,Yellow,Images/Yellow.jpg,None,ParentConditions/YellowBlueBlue_v1.xlsx,BlueBlueYellow,Conditions/Version_1/YellowHappyStop.xlsx,yes,PASS,0.4232691792902379,,,,,,,,,0,0,0,0,0,0,0,0,0,74,74,74,,,,,,,,,,,,,,,,,,,,,,,,,,,,,,,,,,,,,,,,,,,,,,,,,,,,,,,,,,,,,,,,,,,,,,,,,,,,,,,1.65,417.2501900999341,None,None,1,418.99950979999267,None,418.99950979999267,None,418.99950979999267,None,,,,,,,,,,,,P025,fencog,1,Pre,2022_Feb_15_1030,Go No-Go Task,2021.1.4,119.96952773138607,
,"Rule: When you see a yellow image, do not press 'spacebar'.",Images/Fearful/WM12_FO.jpg,Fear,Blue,Images/Blue.jpg,space,ParentConditions/YellowBlueBlue_v1.xlsx,BlueBlueYellow,Conditions/Version_1/YellowHappyStop.xlsx,no,PASS,0.34671640176200413,,,,,,,,,0,0,0,0,0,0,0,0,0,75,75,75,,,,,,,,,,,,,,,,,,,,,,,,,,,,,,,,,,,,,,,,,,,,,,,,,,,,,,,,,,,,,,,,,,,,,,,,,,,,,,,1.95,419.407951299916,None,space,1,421.46576569997706,None,421.46576569997706,None,421.46576569997706,None,0.3813938000239432,,,,,,,,,,,P025,fencog,1,Pre,2022_Feb_15_1030,Go No-Go Task,2021.1.4,119.96952773138607,
,"Rule: When you see a yellow image, do not press 'spacebar'.",Images/Fearful/BF07_FO.jpg,Fear,Blue,Images/Blue.jpg,space,ParentConditions/YellowBlueBlue_v1.xlsx,BlueBlueYellow,Conditions/Version_1/YellowHappyStop.xlsx,no,PASS,0.2992945798396267,,,,,,,,,0,0,0,0,0,0,0,0,0,76,76,76,,,,,,,,,,,,,,,,,,,,,,,,,,,,,,,,,,,,,,,,,,,,,,,,,,,,,,,,,,,,,,,,,,,,,,,,,,,,,,,1.86,421.8664263000246,None,None,0,423.8316493999446,None,423.8316493999446,None,423.8316493999446,None,,,,,,,,,,,,P025,fencog,1,Pre,2022_Feb_15_1030,Go No-Go Task,2021.1.4,119.96952773138607,
,"Rule: When you see a yellow image, do not press 'spacebar'.",Images/Fearful/HF10_FO.jpg,Fear,Blue,Images/Blue.jpg,space,ParentConditions/YellowBlueBlue_v1.xlsx,BlueBlueYellow,Conditions/Version_1/YellowHappyStop.xlsx,no,PASS,0.06506977473557796,,,,,,,,,0,0,0,0,0,0,0,0,0,77,77,77,,,,,,,,,,,,,,,,,,,,,,,,,,,,,,,,,,,,,,,,,,,,,,,,,,,,,,,,,,,,,,,,,,,,,,,,,,,,,,,1.46,424.23218109994195,None,space,1,425.79775629995856,None,425.79775629995856,None,425.79775629995856,None,0.3773127000313252,,,,,,,,,,,P025,fencog,1,Pre,2022_Feb_15_1030,Go No-Go Task,2021.1.4,119.96952773138607,
,"Rule: When you see a yellow image, do not press 'spacebar'.",Images/Fearful/AM10AFS.jpg,Fear,Blue,Images/Blue.jpg,space,ParentConditions/YellowBlueBlue_v1.xlsx,BlueBlueYellow,Conditions/Version_1/YellowHappyStop.xlsx,no,PASS,0.4391085826227009,,,,,,,,,0,0,0,0,0,0,0,0,0,78,78,78,,,,,,,,,,,,,,,,,,,,,,,,,,,,,,,,,,,,,,,,,,,,,,,,,,,,,,,,,,,,,,,,,,,,,,,,,,,,,,,1.56,426.1977651999332,None,space,1,427.86377349996474,None,427.86377349996474,None,427.86377349996474,None,0.2874931999249384,,,,,,,,,,,P025,fencog,1,Pre,2022_Feb_15_1030,Go No-Go Task,2021.1.4,119.96952773138607,
,"Rule: When you see a yellow image, do not press 'spacebar'.",Images/Happy/AM23HAS.jpg,Happy,Yellow,Images/Yellow.jpg,None,ParentConditions/YellowBlueBlue_v1.xlsx,BlueBlueYellow,Conditions/Version_1/YellowHappyStop.xlsx,yes,PASS,0.8296456455429673,,,,,,,,,0,0,0,0,0,0,0,0,0,79,79,79,,,,,,,,,,,,,,,,,,,,,,,,,,,,,,,,,,,,,,,,,,,,,,,,,,,,,,,,,,,,,,,,,,,,,,,,,,,,,,,1.82,428.26428100001067,None,None,1,430.1881087999791,None,430.1881087999791,None,430.1881087999791,None,,,,,,,,,,,,P025,fencog,1,Pre,2022_Feb_15_1030,Go No-Go Task,2021.1.4,119.96952773138607,
,"Rule: When you see blue image, do not press 'spacebar'.",Images/Fearful/HM06_FC.jpg,Fear,Blue,Images/Blue.jpg,None,ParentConditions/YellowBlueBlue_v1.xlsx,BlueBlueYellow,Conditions/Version_1/BlueFearStop.xlsx,yes,PASS,0.7729813006314565,,,,,,,,,0,0,0,0,0,1,1,1,0,0,0,0,,,,,,,,,,,,,,,,,,,,,,,,,,,,,,,,,,,,,,,,,,,,,,,,,,,,,,,,,,,,,,,,,436.1230944999261,None,439.109914099914,None,space,4.177291600033641,439.109914099914,None,436.1230944999261,None,436.1230944999261,None,436.1230944999261,None,1.39,443.33649329992477,None,None,1,444.8337863999186,None,444.8337863999186,None,444.8337863999186,None,,430.6084831999615,None,space,5.007704999996349,431.09552470000926,None,430.6084831999615,None,430.6084831999615,None,P025,fencog,1,Pre,2022_Feb_15_1030,Go No-Go Task,2021.1.4,119.96952773138607,
,"Rule: When you see blue image, do not press 'spacebar'.",Images/Happy/AF07HAS.jpg,Happy,Yellow,Images/Yellow.jpg,space,ParentConditions/YellowBlueBlue_v1.xlsx,BlueBlueYellow,Conditions/Version_1/BlueFearStop.xlsx,no,PASS,0.4924453653062516,,,,,,,,,0,0,0,0,0,1,1,1,0,1,1,1,,,,,,,,,,,,,,,,,,,,,,,,,,,,,,,,,,,,,,,,,,,,,,,,,,,,,,,,,,,,,,,,,,,,,,,,,,,,,,,1.43,445.2351981999818,None,None,0,446.76656819996424,None,446.76656819996424,None,446.76656819996424,None,,,,,,,,,,,,P025,fencog,1,Pre,2022_Feb_15_1030,Go No-Go Task,2021.1.4,119.96952773138607,
,"Rule: When you see blue image, do not press 'spacebar'.",Images/Happy/AF28HAS.jpg,Happy,Yellow,Images/Yellow.jpg,space,ParentConditions/YellowBlueBlue_v1.xlsx,BlueBlueYellow,Conditions/Version_1/BlueFearStop.xlsx,no,PASS,0.8943473655540664,,,,,,,,,0,0,0,0,0,1,1,1,0,2,2,2,,,,,,,,,,,,,,,,,,,,,,,,,,,,,,,,,,,,,,,,,,,,,,,,,,,,,,,,,,,,,,,,,,,,,,,,,,,,,,,1.86,447.1702679999871,None,None,0,449.1325045999838,None,449.1325045999838,None,449.1325045999838,None,,,,,,,,,,,,P025,fencog,1,Pre,2022_Feb_15_1030,Go No-Go Task,2021.1.4,119.96952773138607,
,"Rule: When you see blue image, do not press 'spacebar'.",Images/Happy/AF22HAS.jpg,Happy,Yellow,Images/Yellow.jpg,space,ParentConditions/YellowBlueBlue_v1.xlsx,BlueBlueYellow,Conditions/Version_1/BlueFearStop.xlsx,no,PASS,0.5892765061873407,,,,,,,,,0,0,0,0,0,1,1,1,0,3,3,3,,,,,,,,,,,,,,,,,,,,,,,,,,,,,,,,,,,,,,,,,,,,,,,,,,,,,,,,,,,,,,,,,,,,,,,,,,,,,,,1.64,449.53720159991644,None,None,0,451.28185449994635,None,451.28185449994635,None,451.28185449994635,None,,,,,,,,,,,,P025,fencog,1,Pre,2022_Feb_15_1030,Go No-Go Task,2021.1.4,119.96952773138607,
,"Rule: When you see blue image, do not press 'spacebar'.",Images/Fearful/AF27AFS.jpg,Fear,Blue,Images/Blue.jpg,None,ParentConditions/YellowBlueBlue_v1.xlsx,BlueBlueYellow,Conditions/Version_1/BlueFearStop.xlsx,yes,PASS,0.41428581318896585,,,,,,,,,0,0,0,0,0,1,1,1,0,4,4,4,,,,,,,,,,,,,,,,,,,,,,,,,,,,,,,,,,,,,,,,,,,,,,,,,,,,,,,,,,,,,,,,,,,,,,,,,,,,,,,1.57,451.68607639998663,None,None,1,453.35627609991934,None,453.35627609991934,None,453.35627609991934,None,,,,,,,,,,,,P025,fencog,1,Pre,2022_Feb_15_1030,Go No-Go Task,2021.1.4,119.96952773138607,
,"Rule: When you see blue image, do not press 'spacebar'.",Images/Happy/AM24HAS.jpg,Happy,Yellow,Images/Yellow.jpg,space,ParentConditions/YellowBlueBlue_v1.xlsx,BlueBlueYellow,Conditions/Version_1/BlueFearStop.xlsx,no,PASS,0.8126867400025187,,,,,,,,,0,0,0,0,0,1,1,1,0,5,5,5,,,,,,,,,,,,,,,,,,,,,,,,,,,,,,,,,,,,,,,,,,,,,,,,,,,,,,,,,,,,,,,,,,,,,,,,,,,,,,,1.9,453.76417619991116,None,None,0,455.7722274999833,None,455.7722274999833,None,455.7722274999833,None,,,,,,,,,,,,P025,fencog,1,Pre,2022_Feb_15_1030,Go No-Go Task,2021.1.4,119.96952773138607,
,"Rule: When you see blue image, do not press 'spacebar'.",Images/Fearful/AF26AFS.jpg,Fear,Blue,Images/Blue.jpg,None,ParentConditions/YellowBlueBlue_v1.xlsx,BlueBlueYellow,Conditions/Version_1/BlueFearStop.xlsx,yes,PASS,0.7771539142714355,,,,,,,,,0,0,0,0,0,1,1,1,0,6,6,6,,,,,,,,,,,,,,,,,,,,,,,,,,,,,,,,,,,,,,,,,,,,,,,,,,,,,,,,,,,,,,,,,,,,,,,,,,,,,,,1.62,456.17453349998686,None,None,1,457.8966650000075,None,457.8966650000075,None,457.8966650000075,None,,,,,,,,,,,,P025,fencog,1,Pre,2022_Feb_15_1030,Go No-Go Task,2021.1.4,119.96952773138607,
,"Rule: When you see blue image, do not press 'spacebar'.",Images/Happy/WM11_HC.jpg,Happy,Yellow,Images/Yellow.jpg,space,ParentConditions/YellowBlueBlue_v1.xlsx,BlueBlueYellow,Conditions/Version_1/BlueFearStop.xlsx,no,PASS,0.612727142386838,,,,,,,,,0,0,0,0,0,1,1,1,0,7,7,7,,,,,,,,,,,,,,,,,,,,,,,,,,,,,,,,,,,,,,,,,,,,,,,,,,,,,,,,,,,,,,,,,,,,,,,,,,,,,,,1.69,458.2993664999958,None,space,1,460.09601420001127,None,460.09601420001127,None,460.09601420001127,None,0.3351374000776559,,,,,,,,,,,P025,fencog,1,Pre,2022_Feb_15_1030,Go No-Go Task,2021.1.4,119.96952773138607,
,"Rule: When you see blue image, do not press 'spacebar'.",Images/Happy/BM03_HO.jpg,Happy,Yellow,Images/Yellow.jpg,space,ParentConditions/YellowBlueBlue_v1.xlsx,BlueBlueYellow,Conditions/Version_1/BlueFearStop.xlsx,no,PASS,0.7313165030586903,,,,,,,,,0,0,0,0,0,1,1,1,0,8,8,8,,,,,,,,,,,,,,,,,,,,,,,,,,,,,,,,,,,,,,,,,,,,,,,,,,,,,,,,,,,,,,,,,,,,,,,,,,,,,,,1.4,460.49651249998715,None,space,1,461.99525849998463,None,461.99525849998463,None,461.99525849998463,None,0.3562699999893084,,,,,,,,,,,P025,fencog,1,Pre,2022_Feb_15_1030,Go No-Go Task,2021.1.4,119.96952773138607,
,"Rule: When you see blue image, do not press 'spacebar'.",Images/Happy/BF18_HO.jpg,Happy,Yellow,Images/Yellow.jpg,space,ParentConditions/YellowBlueBlue_v1.xlsx,BlueBlueYellow,Conditions/Version_1/BlueFearStop.xlsx,no,PASS,0.5715935528670182,,,,,,,,,0,0,0,0,0,1,1,1,0,9,9,9,,,,,,,,,,,,,,,,,,,,,,,,,,,,,,,,,,,,,,,,,,,,,,,,,,,,,,,,,,,,,,,,,,,,,,,,,,,,,,,1.46,462.40447399998084,None,None,0,463.96989159996156,None,463.96989159996156,None,463.96989159996156,None,,,,,,,,,,,,P025,fencog,1,Pre,2022_Feb_15_1030,Go No-Go Task,2021.1.4,119.96952773138607,
,"Rule: When you see blue image, do not press 'spacebar'.",Images/Happy/AM10HAS.jpg,Happy,Yellow,Images/Yellow.jpg,space,ParentConditions/YellowBlueBlue_v1.xlsx,BlueBlueYellow,Conditions/Version_1/BlueFearStop.xlsx,no,PASS,0.4742386996589605,,,,,,,,,0,0,0,0,0,1,1,1,0,10,10,10,,,,,,,,,,,,,,,,,,,,,,,,,,,,,,,,,,,,,,,,,,,,,,,,,,,,,,,,,,,,,,,,,,,,,,,,,,,,,,,1.8,464.3701404000167,None,space,1,466.2858396000229,None,466.2858396000229,None,466.2858396000229,None,0.30528079997748137,,,,,,,,,,,P025,fencog,1,Pre,2022_Feb_15_1030,Go No-Go Task,2021.1.4,119.96952773138607,
,"Rule: When you see blue image, do not press 'spacebar'.",Images/Happy/AM09HAS.jpg,Happy,Yellow,Images/Yellow.jpg,space,ParentConditions/YellowBlueBlue_v1.xlsx,BlueBlueYellow,Conditions/Version_1/BlueFearStop.xlsx,no,PASS,0.5791375189576048,,,,,,,,,0,0,0,0,0,1,1,1,0,11,11,11,,,,,,,,,,,,,,,,,,,,,,,,,,,,,,,,,,,,,,,,,,,,,,,,,,,,,,,,,,,,,,,,,,,,,,,,,,,,,,,1.32,466.68503129994497,None,None,0,468.1102587999776,None,468.1102587999776,None,468.1102587999776,None,,,,,,,,,,,,P025,fencog,1,Pre,2022_Feb_15_1030,Go No-Go Task,2021.1.4,119.96952773138607,
,"Rule: When you see blue image, do not press 'spacebar'.",Images/Happy/AM16HAS.jpg,Happy,Yellow,Images/Yellow.jpg,space,ParentConditions/YellowBlueBlue_v1.xlsx,BlueBlueYellow,Conditions/Version_1/BlueFearStop.xlsx,no,PASS,0.06851146054747248,,,,,,,,,0,0,0,0,0,1,1,1,0,12,12,12,,,,,,,,,,,,,,,,,,,,,,,,,,,,,,,,,,,,,,,,,,,,,,,,,,,,,,,,,,,,,,,,,,,,,,,,,,,,,,,1.71,468.51098859997,None,space,1,470.32624799991027,None,470.32624799991027,None,470.32624799991027,None,0.35303170001134276,,,,,,,,,,,P025,fencog,1,Pre,2022_Feb_15_1030,Go No-Go Task,2021.1.4,119.96952773138607,
,"Rule: When you see blue image, do not press 'spacebar'.",Images/Happy/AF10_HE.jpg,Happy,Yellow,Images/Yellow.jpg,space,ParentConditions/YellowBlueBlue_v1.xlsx,BlueBlueYellow,Conditions/Version_1/BlueFearStop.xlsx,no,PASS,0.21267371658214962,,,,,,,,,0,0,0,0,0,1,1,1,0,13,13,13,,,,,,,,,,,,,,,,,,,,,,,,,,,,,,,,,,,,,,,,,,,,,,,,,,,,,,,,,,,,,,,,,,,,,,,,,,,,,,,1.99,470.7268780999584,None,space,1,472.825596199953,None,472.825596199953,None,472.825596199953,None,0.2376540000550449,,,,,,,,,,,P025,fencog,1,Pre,2022_Feb_15_1030,Go No-Go Task,2021.1.4,119.96952773138607,
,"Rule: When you see blue image, do not press 'spacebar'.",Images/Happy/AF27HAS.jpg,Happy,Yellow,Images/Yellow.jpg,space,ParentConditions/YellowBlueBlue_v1.xlsx,BlueBlueYellow,Conditions/Version_1/BlueFearStop.xlsx,no,PASS,0.8109673156723475,,,,,,,,,0,0,0,0,0,1,1,1,0,14,14,14,,,,,,,,,,,,,,,,,,,,,,,,,,,,,,,,,,,,,,,,,,,,,,,,,,,,,,,,,,,,,,,,,,,,,,,,,,,,,,,1.21,473.2265290999785,None,space,1,474.5417024999624,None,474.5417024999624,None,474.5417024999624,None,0.2338035999564454,,,,,,,,,,,P025,fencog,1,Pre,2022_Feb_15_1030,Go No-Go Task,2021.1.4,119.96952773138607,
,"Rule: When you see blue image, do not press 'spacebar'.",Images/Happy/BF10_HO.jpg,Happy,Yellow,Images/Yellow.jpg,space,ParentConditions/YellowBlueBlue_v1.xlsx,BlueBlueYellow,Conditions/Version_1/BlueFearStop.xlsx,no,PASS,0.35707259862702334,,,,,,,,,0,0,0,0,0,1,1,1,0,15,15,15,,,,,,,,,,,,,,,,,,,,,,,,,,,,,,,,,,,,,,,,,,,,,,,,,,,,,,,,,,,,,,,,,,,,,,,,,,,,,,,1.28,474.950569299981,None,space,1,476.3245192000177,None,476.3245192000177,None,476.3245192000177,None,0.3308174000121653,,,,,,,,,,,P025,fencog,1,Pre,2022_Feb_15_1030,Go No-Go Task,2021.1.4,119.96952773138607,
,"Rule: When you see blue image, do not press 'spacebar'.",Images/Happy/BF14_HO.jpg,Happy,Yellow,Images/Yellow.jpg,space,ParentConditions/YellowBlueBlue_v1.xlsx,BlueBlueYellow,Conditions/Version_1/BlueFearStop.xlsx,no,PASS,0.41712793219483124,,,,,,,,,0,0,0,0,0,1,1,1,0,16,16,16,,,,,,,,,,,,,,,,,,,,,,,,,,,,,,,,,,,,,,,,,,,,,,,,,,,,,,,,,,,,,,,,,,,,,,,,,,,,,,,1.48,476.7274610999739,None,space,1,478.2989244000055,None,478.2989244000055,None,478.2989244000055,None,0.34028890007175505,,,,,,,,,,,P025,fencog,1,Pre,2022_Feb_15_1030,Go No-Go Task,2021.1.4,119.96952773138607,
,"Rule: When you see blue image, do not press 'spacebar'.",Images/Fearful/BM08_FC.jpg,Fear,Blue,Images/Blue.jpg,None,ParentConditions/YellowBlueBlue_v1.xlsx,BlueBlueYellow,Conditions/Version_1/BlueFearStop.xlsx,yes,PASS,0.2777606849347436,,,,,,,,,0,0,0,0,0,1,1,1,0,17,17,17,,,,,,,,,,,,,,,,,,,,,,,,,,,,,,,,,,,,,,,,,,,,,,,,,,,,,,,,,,,,,,,,,,,,,,,,,,,,,,,1.36,478.699425800005,None,None,1,480.16510510002263,None,480.16510510002263,None,480.16510510002263,None,,,,,,,,,,,,P025,fencog,1,Pre,2022_Feb_15_1030,Go No-Go Task,2021.1.4,119.96952773138607,
,"Rule: When you see blue image, do not press 'spacebar'.",Images/Happy/AM01HAS.jpg,Happy,Yellow,Images/Yellow.jpg,space,ParentConditions/YellowBlueBlue_v1.xlsx,BlueBlueYellow,Conditions/Version_1/BlueFearStop.xlsx,no,PASS,0.43160138117116176,,,,,,,,,0,0,0,0,0,1,1,1,0,18,18,18,,,,,,,,,,,,,,,,,,,,,,,,,,,,,,,,,,,,,,,,,,,,,,,,,,,,,,,,,,,,,,,,,,,,,,,,,,,,,,,1.82,480.56565629993565,None,space,1,482.4894118999364,None,482.4894118999364,None,482.4894118999364,None,0.34990749997086823,,,,,,,,,,,P025,fencog,1,Pre,2022_Feb_15_1030,Go No-Go Task,2021.1.4,119.96952773138607,
,"Rule: When you see blue image, do not press 'spacebar'.",Images/Happy/AF11HAS.jpg,Happy,Yellow,Images/Yellow.jpg,space,ParentConditions/YellowBlueBlue_v1.xlsx,BlueBlueYellow,Conditions/Version_1/BlueFearStop.xlsx,no,PASS,0.9696898199968184,,,,,,,,,0,0,0,0,0,1,1,1,0,19,19,19,,,,,,,,,,,,,,,,,,,,,,,,,,,,,,,,,,,,,,,,,,,,,,,,,,,,,,,,,,,,,,,,,,,,,,,,,,,,,,,1.63,482.8909048999194,None,space,1,484.6304133000085,None,484.6304133000085,None,484.6304133000085,None,0.3209969000890851,,,,,,,,,,,P025,fencog,1,Pre,2022_Feb_15_1030,Go No-Go Task,2021.1.4,119.96952773138607,
,"Rule: When you see blue image, do not press 'spacebar'.",Images/Happy/BM01_HO.jpg,Happy,Yellow,Images/Yellow.jpg,space,ParentConditions/YellowBlueBlue_v1.xlsx,BlueBlueYellow,Conditions/Version_1/BlueFearStop.xlsx,no,PASS,0.40182091251260654,,,,,,,,,0,0,0,0,0,1,1,1,0,20,20,20,,,,,,,,,,,,,,,,,,,,,,,,,,,,,,,,,,,,,,,,,,,,,,,,,,,,,,,,,,,,,,,,,,,,,,,,,,,,,,,1.55,485.0294335000217,None,space,1,486.6881434000097,None,486.6881434000097,None,486.6881434000097,None,0.37523220002185553,,,,,,,,,,,P025,fencog,1,Pre,2022_Feb_15_1030,Go No-Go Task,2021.1.4,119.96952773138607,
,"Rule: When you see blue image, do not press 'spacebar'.",Images/Happy/AF07_HO.jpg,Happy,Yellow,Images/Yellow.jpg,space,ParentConditions/YellowBlueBlue_v1.xlsx,BlueBlueYellow,Conditions/Version_1/BlueFearStop.xlsx,no,PASS,0.304860645067783,,,,,,,,,0,0,0,0,0,1,1,1,0,21,21,21,,,,,,,,,,,,,,,,,,,,,,,,,,,,,,,,,,,,,,,,,,,,,,,,,,,,,,,,,,,,,,,,,,,,,,,,,,,,,,,1.73,487.0871697999537,None,space,1,488.920766599942,None,488.920766599942,None,488.920766599942,None,0.34254570002667606,,,,,,,,,,,P025,fencog,1,Pre,2022_Feb_15_1030,Go No-Go Task,2021.1.4,119.96952773138607,
,"Rule: When you see blue image, do not press 'spacebar'.",Images/Happy/HM06_HO.jpg,Happy,Yellow,Images/Yellow.jpg,space,ParentConditions/YellowBlueBlue_v1.xlsx,BlueBlueYellow,Conditions/Version_1/BlueFearStop.xlsx,no,PASS,0.3928744637511502,,,,,,,,,0,0,0,0,0,1,1,1,0,22,22,22,,,,,,,,,,,,,,,,,,,,,,,,,,,,,,,,,,,,,,,,,,,,,,,,,,,,,,,,,,,,,,,,,,,,,,,,,,,,,,,1.87,489.3217528000241,None,space,1,491.2951991999289,None,491.2951991999289,None,491.2951991999289,None,0.32840259990189224,,,,,,,,,,,P025,fencog,1,Pre,2022_Feb_15_1030,Go No-Go Task,2021.1.4,119.96952773138607,
,"Rule: When you see blue image, do not press 'spacebar'.",Images/Fearful/AM09_FO.jpg,Fear,Blue,Images/Blue.jpg,None,ParentConditions/YellowBlueBlue_v1.xlsx,BlueBlueYellow,Conditions/Version_1/BlueFearStop.xlsx,yes,PASS,0.17130222782280535,,,,,,,,,0,0,0,0,0,1,1,1,0,23,23,23,,,,,,,,,,,,,,,,,,,,,,,,,,,,,,,,,,,,,,,,,,,,,,,,,,,,,,,,,,,,,,,,,,,,,,,,,,,,,,,1.41,491.6959004999371,None,None,1,493.2112021999201,None,493.2112021999201,None,493.2112021999201,None,,,,,,,,,,,,P025,fencog,1,Pre,2022_Feb_15_1030,Go No-Go Task,2021.1.4,119.96952773138607,
,"Rule: When you see blue image, do not press 'spacebar'.",Images/Happy/AF09HAS.jpg,Happy,Yellow,Images/Yellow.jpg,space,ParentConditions/YellowBlueBlue_v1.xlsx,BlueBlueYellow,Conditions/Version_1/BlueFearStop.xlsx,no,PASS,0.32050850835393896,,,,,,,,,0,0,0,0,0,1,1,1,0,24,24,24,,,,,,,,,,,,,,,,,,,,,,,,,,,,,,,,,,,,,,,,,,,,,,,,,,,,,,,,,,,,,,,,,,,,,,,,,,,,,,,1.61,493.6120917999651,None,space,1,495.3273342999164,None,495.3273342999164,None,495.3273342999164,None,0.3600190000142902,,,,,,,,,,,P025,fencog,1,Pre,2022_Feb_15_1030,Go No-Go Task,2021.1.4,119.96952773138607,
,"Rule: When you see blue image, do not press 'spacebar'.",Images/Happy/AM04HAS.jpg,Happy,Yellow,Images/Yellow.jpg,space,ParentConditions/YellowBlueBlue_v1.xlsx,BlueBlueYellow,Conditions/Version_1/BlueFearStop.xlsx,no,PASS,0.17004201555218557,,,,,,,,,0,0,0,0,0,1,1,1,0,25,25,25,,,,,,,,,,,,,,,,,,,,,,,,,,,,,,,,,,,,,,,,,,,,,,,,,,,,,,,,,,,,,,,,,,,,,,,,,,,,,,,1.34,495.72815629991237,None,None,0,497.1683749000076,None,497.1683749000076,None,497.1683749000076,None,,,,,,,,,,,,P025,fencog,1,Pre,2022_Feb_15_1030,Go No-Go Task,2021.1.4,119.96952773138607,
,"Rule: When you see blue image, do not press 'spacebar'.",Images/Happy/BF07_HO.jpg,Happy,Yellow,Images/Yellow.jpg,space,ParentConditions/YellowBlueBlue_v1.xlsx,BlueBlueYellow,Conditions/Version_1/BlueFearStop.xlsx,no,PASS,0.9775255982448644,,,,,,,,,0,0,0,0,0,1,1,1,0,26,26,26,,,,,,,,,,,,,,,,,,,,,,,,,,,,,,,,,,,,,,,,,,,,,,,,,,,,,,,,,,,,,,,,,,,,,,,,,,,,,,,1.59,497.57148669997696,None,space,1,499.26780929998495,None,499.26780929998495,None,499.26780929998495,None,0.3315410999348387,,,,,,,,,,,P025,fencog,1,Pre,2022_Feb_15_1030,Go No-Go Task,2021.1.4,119.96952773138607,
,"Rule: When you see blue image, do not press 'spacebar'.",Images/Happy/AF02HAS.jpg,Happy,Yellow,Images/Yellow.jpg,space,ParentConditions/YellowBlueBlue_v1.xlsx,BlueBlueYellow,Conditions/Version_1/BlueFearStop.xlsx,no,PASS,0.9926707513295598,,,,,,,,,0,0,0,0,0,1,1,1,0,27,27,27,,,,,,,,,,,,,,,,,,,,,,,,,,,,,,,,,,,,,,,,,,,,,,,,,,,,,,,,,,,,,,,,,,,,,,,,,,,,,,,1.74,499.6688454999821,None,None,0,501.5088255999144,None,501.5088255999144,None,501.5088255999144,None,,,,,,,,,,,,P025,fencog,1,Pre,2022_Feb_15_1030,Go No-Go Task,2021.1.4,119.96952773138607,
,"Rule: When you see blue image, do not press 'spacebar'.",Images/Happy/AM30HAS.jpg,Happy,Yellow,Images/Yellow.jpg,space,ParentConditions/YellowBlueBlue_v1.xlsx,BlueBlueYellow,Conditions/Version_1/BlueFearStop.xlsx,no,PASS,0.6844901636445411,,,,,,,,,0,0,0,0,0,1,1,1,0,28,28,28,,,,,,,,,,,,,,,,,,,,,,,,,,,,,,,,,,,,,,,,,,,,,,,,,,,,,,,,,,,,,,,,,,,,,,,,,,,,,,,1.92,501.9076773999259,None,space,1,503.92442409996875,None,503.92442409996875,None,503.92442409996875,None,0.37874670000746846,,,,,,,,,,,P025,fencog,1,Pre,2022_Feb_15_1030,Go No-Go Task,2021.1.4,119.96952773138607,
,"Rule: When you see blue image, do not press 'spacebar'.",Images/Happy/BF05_HO.jpg,Happy,Yellow,Images/Yellow.jpg,space,ParentConditions/YellowBlueBlue_v1.xlsx,BlueBlueYellow,Conditions/Version_1/BlueFearStop.xlsx,no,PASS,0.010815687417666808,,,,,,,,,0,0,0,0,0,1,1,1,0,29,29,29,,,,,,,,,,,,,,,,,,,,,,,,,,,,,,,,,,,,,,,,,,,,,,,,,,,,,,,,,,,,,,,,,,,,,,,,,,,,,,,1.31,504.3345102999592,None,space,1,505.74913279991597,None,505.74913279991597,None,505.74913279991597,None,0.31414239993318915,,,,,,,,,,,P025,fencog,1,Pre,2022_Feb_15_1030,Go No-Go Task,2021.1.4,119.96952773138607,
,"Rule: When you see blue image, do not press 'spacebar'.",Images/Fearful/AF25AFS.jpg,Fear,Blue,Images/Blue.jpg,None,ParentConditions/YellowBlueBlue_v1.xlsx,BlueBlueYellow,Conditions/Version_1/BlueFearStop.xlsx,yes,PASS,0.35816317389786545,,,,,,,,,0,0,0,0,0,1,1,1,0,30,30,30,,,,,,,,,,,,,,,,,,,,,,,,,,,,,,,,,,,,,,,,,,,,,,,,,,,,,,,,,,,,,,,,,,,,,,,,,,,,,,,1.66,506.1483714999631,None,None,1,507.9236286999658,None,507.9236286999658,None,507.9236286999658,None,,,,,,,,,,,,P025,fencog,1,Pre,2022_Feb_15_1030,Go No-Go Task,2021.1.4,119.96952773138607,
,"Rule: When you see blue image, do not press 'spacebar'.",Images/Happy/BF09_HO.jpg,Happy,Yellow,Images/Yellow.jpg,space,ParentConditions/YellowBlueBlue_v1.xlsx,BlueBlueYellow,Conditions/Version_1/BlueFearStop.xlsx,no,PASS,0.3783419276063734,,,,,,,,,0,0,0,0,0,1,1,1,0,31,31,31,,,,,,,,,,,,,,,,,,,,,,,,,,,,,,,,,,,,,,,,,,,,,,,,,,,,,,,,,,,,,,,,,,,,,,,,,,,,,,,1.98,508.3225106999744,None,space,1,510.4061826999532,None,510.4061826999532,None,510.4061826999532,None,0.3690484999679029,,,,,,,,,,,P025,fencog,1,Pre,2022_Feb_15_1030,Go No-Go Task,2021.1.4,119.96952773138607,
,"Rule: When you see blue image, do not press 'spacebar'.",Images/Happy/AM09_HE.jpg,Happy,Yellow,Images/Yellow.jpg,space,ParentConditions/YellowBlueBlue_v1.xlsx,BlueBlueYellow,Conditions/Version_1/BlueFearStop.xlsx,no,PASS,0.21016465424314756,,,,,,,,,0,0,0,0,0,1,1,1,0,32,32,32,,,,,,,,,,,,,,,,,,,,,,,,,,,,,,,,,,,,,,,,,,,,,,,,,,,,,,,,,,,,,,,,,,,,,,,,,,,,,,,1.44,510.80683090002276,None,space,1,512.3551855999976,None,512.3551855999976,None,512.3551855999976,None,0.37215509999077767,,,,,,,,,,,P025,fencog,1,Pre,2022_Feb_15_1030,Go No-Go Task,2021.1.4,119.96952773138607,
,"Rule: When you see blue image, do not press 'spacebar'.",Images/Fearful/BF14_FO.jpg,Fear,Blue,Images/Blue.jpg,None,ParentConditions/YellowBlueBlue_v1.xlsx,BlueBlueYellow,Conditions/Version_1/BlueFearStop.xlsx,yes,PASS,0.9618360969741386,,,,,,,,,0,0,0,0,0,1,1,1,0,33,33,33,,,,,,,,,,,,,,,,,,,,,,,,,,,,,,,,,,,,,,,,,,,,,,,,,,,,,,,,,,,,,,,,,,,,,,,,,,,,,,,2,512.7547420000192,None,None,1,514.8548689999152,None,514.8548689999152,None,514.8548689999152,None,,,,,,,,,,,,P025,fencog,1,Pre,2022_Feb_15_1030,Go No-Go Task,2021.1.4,119.96952773138607,
,"Rule: When you see blue image, do not press 'spacebar'.",Images/Fearful/HF05_FC.jpg,Fear,Blue,Images/Blue.jpg,None,ParentConditions/YellowBlueBlue_v1.xlsx,BlueBlueYellow,Conditions/Version_1/BlueFearStop.xlsx,yes,PASS,0.005236598035567086,,,,,,,,,0,0,0,0,0,1,1,1,0,34,34,34,,,,,,,,,,,,,,,,,,,,,,,,,,,,,,,,,,,,,,,,,,,,,,,,,,,,,,,,,,,,,,,,,,,,,,,,,,,,,,,1.65,515.2540606999537,None,None,1,516.9958834999707,None,516.9958834999707,None,516.9958834999707,None,,,,,,,,,,,,P025,fencog,1,Pre,2022_Feb_15_1030,Go No-Go Task,2021.1.4,119.96952773138607,
,"Rule: When you see blue image, do not press 'spacebar'.",Images/Happy/AM23HAS.jpg,Happy,Yellow,Images/Yellow.jpg,space,ParentConditions/YellowBlueBlue_v1.xlsx,BlueBlueYellow,Conditions/Version_1/BlueFearStop.xlsx,no,PASS,0.13077339503157293,,,,,,,,,0,0,0,0,0,1,1,1,0,35,35,35,,,,,,,,,,,,,,,,,,,,,,,,,,,,,,,,,,,,,,,,,,,,,,,,,,,,,,,,,,,,,,,,,,,,,,,,,,,,,,,1.81,517.3953558999347,None,space,1,519.3035647999495,None,519.3035647999495,None,519.3035647999495,None,0.3115819999948144,,,,,,,,,,,P025,fencog,1,Pre,2022_Feb_15_1030,Go No-Go Task,2021.1.4,119.96952773138607,
,"Rule: When you see blue image, do not press 'spacebar'.",Images/Happy/AM03_HO.jpg,Happy,Yellow,Images/Yellow.jpg,space,ParentConditions/YellowBlueBlue_v1.xlsx,BlueBlueYellow,Conditions/Version_1/BlueFearStop.xlsx,no,PASS,0.29520703840296547,,,,,,,,,0,0,0,0,0,1,1,1,0,36,36,36,,,,,,,,,,,,,,,,,,,,,,,,,,,,,,,,,,,,,,,,,,,,,,,,,,,,,,,,,,,,,,,,,,,,,,,,,,,,,,,1.53,519.7040913000237,None,space,1,521.3362837999593,None,521.3362837999593,None,521.3362837999593,None,0.30302400002256036,,,,,,,,,,,P025,fencog,1,Pre,2022_Feb_15_1030,Go No-Go Task,2021.1.4,119.96952773138607,
,"Rule: When you see blue image, do not press 'spacebar'.",Images/Happy/AF25HAS.jpg,Happy,Yellow,Images/Yellow.jpg,space,ParentConditions/YellowBlueBlue_v1.xlsx,BlueBlueYellow,Conditions/Version_1/BlueFearStop.xlsx,no,PASS,0.3205802973983102,,,,,,,,,0,0,0,0,0,1,1,1,0,37,37,37,,,,,,,,,,,,,,,,,,,,,,,,,,,,,,,,,,,,,,,,,,,,,,,,,,,,,,,,,,,,,,,,,,,,,,,,,,,,,,,1.37,521.7379188999766,None,space,1,523.2106773999985,None,523.2106773999985,None,523.2106773999985,None,0.348632299923338,,,,,,,,,,,P025,fencog,1,Pre,2022_Feb_15_1030,Go No-Go Task,2021.1.4,119.96952773138607,
,"Rule: When you see blue image, do not press 'spacebar'.",Images/Happy/BM08_HO.jpg,Happy,Yellow,Images/Yellow.jpg,space,ParentConditions/YellowBlueBlue_v1.xlsx,BlueBlueYellow,Conditions/Version_1/BlueFearStop.xlsx,no,PASS,0.9250231228335681,,,,,,,,,0,0,0,0,0,1,1,1,0,38,38,38,,,,,,,,,,,,,,,,,,,,,,,,,,,,,,,,,,,,,,,,,,,,,,,,,,,,,,,,,,,,,,,,,,,,,,,,,,,,,,,1.2,523.6127668999834,None,space,1,524.9185541999759,None,524.9185541999759,None,524.9185541999759,None,0.3685522999148816,,,,,,,,,,,P025,fencog,1,Pre,2022_Feb_15_1030,Go No-Go Task,2021.1.4,119.96952773138607,
,"Rule: When you see blue image, do not press 'spacebar'.",Images/Happy/AF32HAS.jpg,Happy,Yellow,Images/Yellow.jpg,space,ParentConditions/YellowBlueBlue_v1.xlsx,BlueBlueYellow,Conditions/Version_1/BlueFearStop.xlsx,no,PASS,0.73804934699979,,,,,,,,,0,0,0,0,0,1,1,1,0,39,39,39,,,,,,,,,,,,,,,,,,,,,,,,,,,,,,,,,,,,,,,,,,,,,,,,,,,,,,,,,,,,,,,,,,,,,,,,,,,,,,,1.33,525.3172868000111,None,space,1,526.7512793999631,None,526.7512793999631,None,526.7512793999631,None,0.38381379994098097,,,,,,,,,,,P025,fencog,1,Pre,2022_Feb_15_1030,Go No-Go Task,2021.1.4,119.96952773138607,
,"Rule: When you see blue image, do not press 'spacebar'.",Images/Happy/AF23HAS.jpg,Happy,Yellow,Images/Yellow.jpg,space,ParentConditions/YellowBlueBlue_v1.xlsx,BlueBlueYellow,Conditions/Version_1/BlueFearStop.xlsx,no,PASS,0.9000246195519893,,,,,,,,,0,0,0,0,0,1,1,1,0,40,40,40,,,,,,,,,,,,,,,,,,,,,,,,,,,,,,,,,,,,,,,,,,,,,,,,,,,,,,,,,,,,,,,,,,,,,,,,,,,,,,,1.78,527.1625653000083,None,space,1,529.0423293999629,None,529.0423293999629,None,529.0423293999629,None,0.3410130999982357,,,,,,,,,,,P025,fencog,1,Pre,2022_Feb_15_1030,Go No-Go Task,2021.1.4,119.96952773138607,
,"Rule: When you see blue image, do not press 'spacebar'.",Images/Happy/AM32HAS.jpg,Happy,Yellow,Images/Yellow.jpg,space,ParentConditions/YellowBlueBlue_v1.xlsx,BlueBlueYellow,Conditions/Version_1/BlueFearStop.xlsx,no,PASS,0.738989629625258,,,,,,,,,0,0,0,0,0,1,1,1,0,41,41,41,,,,,,,,,,,,,,,,,,,,,,,,,,,,,,,,,,,,,,,,,,,,,,,,,,,,,,,,,,,,,,,,,,,,,,,,,,,,,,,1.27,529.4429861999815,None,space,1,530.8168632999295,None,530.8168632999295,None,530.8168632999295,None,0.382696200045757,,,,,,,,,,,P025,fencog,1,Pre,2022_Feb_15_1030,Go No-Go Task,2021.1.4,119.96952773138607,
,"Rule: When you see blue image, do not press 'spacebar'.",Images/Fearful/AM30AFS.jpg,Fear,Blue,Images/Blue.jpg,None,ParentConditions/YellowBlueBlue_v1.xlsx,BlueBlueYellow,Conditions/Version_1/BlueFearStop.xlsx,yes,PASS,0.33529906039128465,,,,,,,,,0,0,0,0,0,1,1,1,0,42,42,42,,,,,,,,,,,,,,,,,,,,,,,,,,,,,,,,,,,,,,,,,,,,,,,,,,,,,,,,,,,,,,,,,,,,,,,,,,,,,,,1.91,531.2220451999456,None,None,1,533.2327767999377,None,533.2327767999377,None,533.2327767999377,None,,,,,,,,,,,,P025,fencog,1,Pre,2022_Feb_15_1030,Go No-Go Task,2021.1.4,119.96952773138607,
,"Rule: When you see blue image, do not press 'spacebar'.",Images/Happy/BM02_HO.jpg,Happy,Yellow,Images/Yellow.jpg,space,ParentConditions/YellowBlueBlue_v1.xlsx,BlueBlueYellow,Conditions/Version_1/BlueFearStop.xlsx,no,PASS,0.711648218321579,,,,,,,,,0,0,0,0,0,1,1,1,0,43,43,43,,,,,,,,,,,,,,,,,,,,,,,,,,,,,,,,,,,,,,,,,,,,,,,,,,,,,,,,,,,,,,,,,,,,,,,,,,,,,,,1.89,533.6341797999339,None,space,1,535.6321239999961,None,535.6321239999961,None,535.6321239999961,None,0.3751831999979913,,,,,,,,,,,P025,fencog,1,Pre,2022_Feb_15_1030,Go No-Go Task,2021.1.4,119.96952773138607,
,"Rule: When you see blue image, do not press 'spacebar'.",Images/Happy/AM10_HO.jpg,Happy,Yellow,Images/Yellow.jpg,space,ParentConditions/YellowBlueBlue_v1.xlsx,BlueBlueYellow,Conditions/Version_1/BlueFearStop.xlsx,no,PASS,0.7811025651589869,,,,,,,,,0,0,0,0,0,1,1,1,0,44,44,44,,,,,,,,,,,,,,,,,,,,,,,,,,,,,,,,,,,,,,,,,,,,,,,,,,,,,,,,,,,,,,,,,,,,,,,,,,,,,,,1.22,536.0329604999861,None,space,1,537.3567092999583,None,537.3567092999583,None,537.3567092999583,None,0.3069009000901133,,,,,,,,,,,P025,fencog,1,Pre,2022_Feb_15_1030,Go No-Go Task,2021.1.4,119.96952773138607,
,"Rule: When you see blue image, do not press 'spacebar'.",Images/Fearful/AM10_FO.jpg,Fear,Blue,Images/Blue.jpg,None,ParentConditions/YellowBlueBlue_v1.xlsx,BlueBlueYellow,Conditions/Version_1/BlueFearStop.xlsx,yes,PASS,0.14747063444404174,,,,,,,,,0,0,0,0,0,1,1,1,0,45,45,45,,,,,,,,,,,,,,,,,,,,,,,,,,,,,,,,,,,,,,,,,,,,,,,,,,,,,,,,,,,,,,,,,,,,,,,,,,,,,,,1.49,537.7569499999518,None,None,1,539.3559646999929,None,539.3559646999929,None,539.3559646999929,None,,,,,,,,,,,,P025,fencog,1,Pre,2022_Feb_15_1030,Go No-Go Task,2021.1.4,119.96952773138607,
,"Rule: When you see blue image, do not press 'spacebar'.",Images/Happy/AF19HAS.jpg,Happy,Yellow,Images/Yellow.jpg,space,ParentConditions/YellowBlueBlue_v1.xlsx,BlueBlueYellow,Conditions/Version_1/BlueFearStop.xlsx,no,PASS,0.5734484599929517,,,,,,,,,0,0,0,0,0,1,1,1,0,46,46,46,,,,,,,,,,,,,,,,,,,,,,,,,,,,,,,,,,,,,,,,,,,,,,,,,,,,,,,,,,,,,,,,,,,,,,,,,,,,,,,1.85,539.7556476999307,None,space,1,541.7133964999812,None,541.7133964999812,None,541.7133964999812,None,0.3498568000504747,,,,,,,,,,,P025,fencog,1,Pre,2022_Feb_15_1030,Go No-Go Task,2021.1.4,119.96952773138607,
,"Rule: When you see blue image, do not press 'spacebar'.",Images/Fearful/HF09_FC.jpg,Fear,Blue,Images/Blue.jpg,None,ParentConditions/YellowBlueBlue_v1.xlsx,BlueBlueYellow,Conditions/Version_1/BlueFearStop.xlsx,yes,PASS,0.19935802832005745,,,,,,,,,0,0,0,0,0,1,1,1,0,47,47,47,,,,,,,,,,,,,,,,,,,,,,,,,,,,,,,,,,,,,,,,,,,,,,,,,,,,,,,,,,,,,,,,,,,,,,,,,,,,,,,1.6,542.1576658999547,None,None,1,543.8547618999146,None,543.8547618999146,None,543.8547618999146,None,,,,,,,,,,,,P025,fencog,1,Pre,2022_Feb_15_1030,Go No-Go Task,2021.1.4,119.96952773138607,
,"Rule: When you see blue image, do not press 'spacebar'.",Images/Fearful/AM22AFS.jpg,Fear,Blue,Images/Blue.jpg,None,ParentConditions/YellowBlueBlue_v1.xlsx,BlueBlueYellow,Conditions/Version_1/BlueFearStop.xlsx,yes,PASS,0.17276378175067786,,,,,,,,,0,0,0,0,0,1,1,1,0,48,48,48,,,,,,,,,,,,,,,,,,,,,,,,,,,,,,,,,,,,,,,,,,,,,,,,,,,,,,,,,,,,,,,,,,,,,,,,,,,,,,,1.47,544.2555144999642,None,None,1,545.8207532999804,None,545.8207532999804,None,545.8207532999804,None,,,,,,,,,,,,P025,fencog,1,Pre,2022_Feb_15_1030,Go No-Go Task,2021.1.4,119.96952773138607,
,"Rule: When you see blue image, do not press 'spacebar'.",Images/Happy/AM06_HC.jpg,Happy,Yellow,Images/Yellow.jpg,space,ParentConditions/YellowBlueBlue_v1.xlsx,BlueBlueYellow,Conditions/Version_1/BlueFearStop.xlsx,no,PASS,0.06320185727949179,,,,,,,,,0,0,0,0,0,1,1,1,0,49,49,49,,,,,,,,,,,,,,,,,,,,,,,,,,,,,,,,,,,,,,,,,,,,,,,,,,,,,,,,,,,,,,,,,,,,,,,,,,,,,,,1.24,546.2202668999089,None,space,1,547.5536093999399,None,547.5536093999399,None,547.5536093999399,None,0.38164909998886287,,,,,,,,,,,P025,fencog,1,Pre,2022_Feb_15_1030,Go No-Go Task,2021.1.4,119.96952773138607,
,"Rule: When you see blue image, do not press 'spacebar'.",Images/Fearful/AM32AFS.jpg,Fear,Blue,Images/Blue.jpg,None,ParentConditions/YellowBlueBlue_v1.xlsx,BlueBlueYellow,Conditions/Version_1/BlueFearStop.xlsx,yes,PASS,0.03468314974069586,,,,,,,,,0,0,0,0,0,1,1,1,0,50,50,50,,,,,,,,,,,,,,,,,,,,,,,,,,,,,,,,,,,,,,,,,,,,,,,,,,,,,,,,,,,,,,,,,,,,,,,,,,,,,,,1.72,547.9586083999602,None,None,1,549.786294199992,None,549.786294199992,None,549.786294199992,None,,,,,,,,,,,,P025,fencog,1,Pre,2022_Feb_15_1030,Go No-Go Task,2021.1.4,119.96952773138607,
,"Rule: When you see blue image, do not press 'spacebar'.",Images/Happy/WF11_HE.jpg,Happy,Yellow,Images/Yellow.jpg,space,ParentConditions/YellowBlueBlue_v1.xlsx,BlueBlueYellow,Conditions/Version_1/BlueFearStop.xlsx,no,PASS,0.5138011133022752,,,,,,,,,0,0,0,0,0,1,1,1,0,51,51,51,,,,,,,,,,,,,,,,,,,,,,,,,,,,,,,,,,,,,,,,,,,,,,,,,,,,,,,,,,,,,,,,,,,,,,,,,,,,,,,1.75,550.1873122999677,None,None,0,552.0439154999331,None,552.0439154999331,None,552.0439154999331,None,,,,,,,,,,,,P025,fencog,1,Pre,2022_Feb_15_1030,Go No-Go Task,2021.1.4,119.96952773138607,
,"Rule: When you see blue image, do not press 'spacebar'.",Images/Fearful/AF28AFS.jpg,Fear,Blue,Images/Blue.jpg,None,ParentConditions/YellowBlueBlue_v1.xlsx,BlueBlueYellow,Conditions/Version_1/BlueFearStop.xlsx,yes,PASS,0.30204493442130675,,,,,,,,,0,0,0,0,0,1,1,1,0,52,52,52,,,,,,,,,,,,,,,,,,,,,,,,,,,,,,,,,,,,,,,,,,,,,,,,,,,,,,,,,,,,,,,,,,,,,,,,,,,,,,,1.97,552.4445772999898,None,None,1,554.5181456999853,None,554.5181456999853,None,554.5181456999853,None,,,,,,,,,,,,P025,fencog,1,Pre,2022_Feb_15_1030,Go No-Go Task,2021.1.4,119.96952773138607,
,"Rule: When you see blue image, do not press 'spacebar'.",Images/Happy/HF04_HE.jpg,Happy,Yellow,Images/Yellow.jpg,space,ParentConditions/YellowBlueBlue_v1.xlsx,BlueBlueYellow,Conditions/Version_1/BlueFearStop.xlsx,no,PASS,0.05385370360405073,,,,,,,,,0,0,0,0,0,1,1,1,0,53,53,53,,,,,,,,,,,,,,,,,,,,,,,,,,,,,,,,,,,,,,,,,,,,,,,,,,,,,,,,,,,,,,,,,,,,,,,,,,,,,,,1.83,554.9210256999359,None,None,0,556.8508389999624,None,556.8508389999624,None,556.8508389999624,None,,,,,,,,,,,,P025,fencog,1,Pre,2022_Feb_15_1030,Go No-Go Task,2021.1.4,119.96952773138607,
,"Rule: When you see blue image, do not press 'spacebar'.",Images/Happy/AM13HAS.jpg,Happy,Yellow,Images/Yellow.jpg,space,ParentConditions/YellowBlueBlue_v1.xlsx,BlueBlueYellow,Conditions/Version_1/BlueFearStop.xlsx,no,PASS,0.9978120552242631,,,,,,,,,0,0,0,0,0,1,1,1,0,54,54,54,,,,,,,,,,,,,,,,,,,,,,,,,,,,,,,,,,,,,,,,,,,,,,,,,,,,,,,,,,,,,,,,,,,,,,,,,,,,,,,1.23,557.251595199923,None,space,1,558.5919652999146,None,558.5919652999146,None,558.5919652999146,None,0.28733840002678335,,,,,,,,,,,P025,fencog,1,Pre,2022_Feb_15_1030,Go No-Go Task,2021.1.4,119.96952773138607,
,"Rule: When you see blue image, do not press 'spacebar'.",Images/Happy/HF10_HE.jpg,Happy,Yellow,Images/Yellow.jpg,space,ParentConditions/YellowBlueBlue_v1.xlsx,BlueBlueYellow,Conditions/Version_1/BlueFearStop.xlsx,no,PASS,0.7658265452728541,,,,,,,,,0,0,0,0,0,1,1,1,0,55,55,55,,,,,,,,,,,,,,,,,,,,,,,,,,,,,,,,,,,,,,,,,,,,,,,,,,,,,,,,,,,,,,,,,,,,,,,,,,,,,,,1.45,558.9908501999453,None,space,1,560.5329895999748,None,560.5329895999748,None,560.5329895999748,None,0.2743694999953732,,,,,,,,,,,P025,fencog,1,Pre,2022_Feb_15_1030,Go No-Go Task,2021.1.4,119.96952773138607,
,"Rule: When you see blue image, do not press 'spacebar'.",Images/Happy/AM04_HE.jpg,Happy,Yellow,Images/Yellow.jpg,space,ParentConditions/YellowBlueBlue_v1.xlsx,BlueBlueYellow,Conditions/Version_1/BlueFearStop.xlsx,no,PASS,0.8987539961300183,,,,,,,,,0,0,0,0,0,1,1,1,0,56,56,56,,,,,,,,,,,,,,,,,,,,,,,,,,,,,,,,,,,,,,,,,,,,,,,,,,,,,,,,,,,,,,,,,,,,,,,,,,,,,,,1.42,560.9330986000132,None,space,1,562.4575175999198,None,562.4575175999198,None,562.4575175999198,None,0.3259055999806151,,,,,,,,,,,P025,fencog,1,Pre,2022_Feb_15_1030,Go No-Go Task,2021.1.4,119.96952773138607,
,"Rule: When you see blue image, do not press 'spacebar'.",Images/Happy/WF04_HC.jpg,Happy,Yellow,Images/Yellow.jpg,space,ParentConditions/YellowBlueBlue_v1.xlsx,BlueBlueYellow,Conditions/Version_1/BlueFearStop.xlsx,no,PASS,0.34092264300642594,,,,,,,,,0,0,0,0,0,1,1,1,0,57,57,57,,,,,,,,,,,,,,,,,,,,,,,,,,,,,,,,,,,,,,,,,,,,,,,,,,,,,,,,,,,,,,,,,,,,,,,,,,,,,,,1.51,562.8584972999524,None,space,1,564.473640399985,None,564.473640399985,None,564.473640399985,None,0.33349220000673085,,,,,,,,,,,P025,fencog,1,Pre,2022_Feb_15_1030,Go No-Go Task,2021.1.4,119.96952773138607,
