CondFileP,Instructions,FaceE,Express,ColourT,ColourF,CorrectAnsP,MasterCondFile,BlockOrder,CondFile,ColCheck,Triplicate_check,SORT_BY_SMALLEST,EPracticeOuterLoop.thisRepN,EPracticeOuterLoop.thisTrialN,EPracticeOuterLoop.thisN,EPracticeOuterLoop.thisIndex,EPracticeInnerLoop.thisRepN,EPracticeInnerLoop.thisTrialN,EPracticeInnerLoop.thisN,EPracticeInnerLoop.thisIndex,MasterLoop.thisRepN,MasterLoop.thisTrialN,MasterLoop.thisN,MasterLoop.thisIndex,OuterLoop.thisRepN,OuterLoop.thisTrialN,OuterLoop.thisN,OuterLoop.thisIndex,InnerLoop.thisRepN,InnerLoop.thisTrialN,InnerLoop.thisN,InnerLoop.thisIndex,text_13.started,text_13.stopped,key_resp_10.keys,key_resp_10.rt,key_resp_10.started,key_resp_10.stopped,text4.started,text4.stopped,EmotionTaskInstructions1.keys,EmotionTaskInstructions1.rt,EmotionTaskInstructions1.started,EmotionTaskInstructions1.stopped,text_4.started,text_4.stopped,key_resp_5.keys,key_resp_5.rt,key_resp_5.started,key_resp_5.stopped,Text_14.started,Text_14.stopped,key_resp_9.keys,key_resp_9.rt,key_resp_9.started,key_resp_9.stopped,text_5.started,text_5.stopped,text_6.started,text_6.stopped,key_resp_7.keys,key_resp_7.rt,key_resp_7.started,key_resp_7.stopped,text_10.started,text_10.stopped,text_11.started,text_11.stopped,text_12.started,text_12.stopped,ISIjitterPractice,EPracticeISIMarker.started,EPracticeISIMarker.stopped,Pract.keys,Pract.corr,Pract.started,Pract.stopped,PracticeFace.started,PracticeFace.stopped,ColourPractice.started,ColourPractice.stopped,text_7.started,text_7.stopped,Pract.rt,EndOfPractice.started,EndOfPractice.stopped,key_resp_8.keys,key_resp_8.rt,key_resp_8.started,key_resp_8.stopped,text_8.started,text_8.stopped,key_resp_6.keys,key_resp_6.rt,key_resp_6.started,key_resp_6.stopped,text_2.started,text_2.stopped,text_3.started,text_3.stopped,key_resp_3.keys,key_resp_3.rt,key_resp_3.started,key_resp_3.stopped,TaskBlock.started,TaskBlock.stopped,BlockNo1.started,BlockNo1.stopped,OfBlock.started,OfBlock.stopped,ISIjitter,ISImarker.started,ISImarker.stopped,key_resp.keys,key_resp.corr,key_resp.rt,key_resp.started,key_resp.stopped,FaceSet.started,FaceSet.stopped,Colour.started,Colour.stopped,EndBlockText.started,EndBlockText.stopped,key_resp_4.keys,key_resp_4.rt,key_resp_4.started,key_resp_4.stopped,BreakText2.started,BreakText2.stopped,PressToContinue.started,PressToContinue.stopped,participant,Study Name,Task Version (required to run),PRE/POST,date,expName,psychopyVersion,frameRate,
,,,,,,,,,,,,,,,,,,,,,,,,,,,,,,,,,23.799726799999917,None,space,88.01526420000005,24.79041869999992,None,,,,,,,,,,,,,,,,,,,,,,,,,,,,,,,,,,,,,,,,,,,,,,,,,,,,,,,,,,,,,,,,,,,,,,,,,,,,,,,,,,,,,,,,,,,,,,,P026,FENCOG,1,Pre,2022_Feb_23_1049,Go No-Go Task,2021.1.4,120.03994929526479,
,,,,,,,,,,,,,,,,,,,,,,,,,,,,,,,,,,,,,,,114.3112923000001,None,space,48.15880129999982,114.3112923000001,None,,,,,,,,,,,,,,,,,,,,,,,,,,,,,,,,,,,,,,,,,,,,,,,,,,,,,,,,,,,,,,,,,,,,,,,,,,,,,,,,,,,,,,,,,P026,FENCOG,1,Pre,2022_Feb_23_1049,Go No-Go Task,2021.1.4,120.03994929526479,
,,,,,,,,,,,,,,,,,,,,,,,,,,,,,,,,,,,,,,,,,,,,,162.5571470000002,None,space,7.800458400000025,162.5571470000002,None,,,,,,,,,,,,,,,,,,,,,,,,,,,,,,,,,,,,,,,,,,,,,,,,,,,,,,,,,,,,,,,,,,,,,,,,,,,,,,,,,,,P026,FENCOG,1,Pre,2022_Feb_23_1049,Go No-Go Task,2021.1.4,120.03994929526479,
,,,,,,,,,,,,,,,,,,,,,,,,,,,,,,,,,,,,,,,,,,,,,,,,,,,170.37333409999997,None,space,4.70411520000016,170.37333409999997,None,,,,,,,,,,,,,,,,,,,,,,,,,,,,,,,,,,,,,,,,,,,,,,,,,,,,,,,,,,,,,,,,,,,,,,,,,,,,,P026,FENCOG,1,Pre,2022_Feb_23_1049,Go No-Go Task,2021.1.4,120.03994929526479,
EPracticeConditions/BlueEyes.csv,"Rule: When you see a blue image, do not press 'spacebar'.",Images/Happy/HF04_HE.jpg,Happy,Yellow,Images/Yellow.jpg,space,,,,,,,0,0,0,0,0,0,0,4,,,,,,,,,,,,,,,,,,,,,,,,,,,,,,,,,,,,,175.1547597000001,None,178.1453451,None,space,3.348227699999825,178.1453451,None,175.1547597000001,None,175.1547597000001,None,175.1547597000001,None,1.4,181.61670419999996,None,None,0,183.16998100000023,None,183.16998100000023,None,183.16998100000023,None,184.6992204999999,None,,,,,,,,,,,,,,,,,,,,,,,,,,,,,,,,,,,,,,,,,,,,,,,,,,P026,FENCOG,1,Pre,2022_Feb_23_1049,Go No-Go Task,2021.1.4,120.03994929526479,
EPracticeConditions/BlueEyes.csv,"Rule: When you see a blue image, do not press 'spacebar'.",Images/Happy/HF05_HO.jpg,Happy,Yellow,Images/Yellow.jpg,space,,,,,,,0,0,0,0,0,1,1,5,,,,,,,,,,,,,,,,,,,,,,,,,,,,,,,,,,,,,,,,,,,,,,,,,,,1.7,186.0543669000001,None,None,0,187.85973760000002,None,187.85973760000002,None,187.85973760000002,None,188.75268010000013,None,,,,,,,,,,,,,,,,,,,,,,,,,,,,,,,,,,,,,,,,,,,,,,,,,,P026,FENCOG,1,Pre,2022_Feb_23_1049,Go No-Go Task,2021.1.4,120.03994929526479,
EPracticeConditions/BlueEyes.csv,"Rule: When you see a blue image, do not press 'spacebar'.",Images/Happy/HF09_HE.jpg,Happy,Yellow,Images/Yellow.jpg,space,,,,,,,0,0,0,0,0,2,2,6,,,,,,,,,,,,,,,,,,,,,,,,,,,,,,,,,,,,,,,,,,,,,,,,,,,1.9,190.75825740000005,None,space,1,192.76667139999995,None,192.76667139999995,None,192.76667139999995,None,193.66917630000012,None,0.33489389999976993,,,,,,,,,,,,,,,,,,,,,,,,,,,,,,,,,,,,,,,,,,,,,,,,,P026,FENCOG,1,Pre,2022_Feb_23_1049,Go No-Go Task,2021.1.4,120.03994929526479,
EPracticeConditions/BlueEyes.csv,"Rule: When you see a blue image, do not press 'spacebar'.",Images/Happy/BM08_HO.jpg,Happy,Yellow,Images/Yellow.jpg,space,,,,,,,0,0,0,0,0,3,3,3,,,,,,,,,,,,,,,,,,,,,,,,,,,,,,,,,,,,,,,,,,,,,,,,,,,1.5,195.66494480000006,None,space,1,197.26536340000007,None,197.26536340000007,None,197.26536340000007,None,198.1608503,None,0.2522876000002725,,,,,,,,,,,,,,,,,,,,,,,,,,,,,,,,,,,,,,,,,,,,,,,,,P026,FENCOG,1,Pre,2022_Feb_23_1049,Go No-Go Task,2021.1.4,120.03994929526479,
EPracticeConditions/BlueEyes.csv,"Rule: When you see a blue image, do not press 'spacebar'.",Images/Fearful/AF01_FO.jpg,Fear,Blue,Images/Blue.jpg,None,,,,,,,0,0,0,0,0,4,4,1,,,,,,,,,,,,,,,,,,,,,,,,,,,,,,,,,,,,,,,,,,,,,,,,,,,1.6,200.16641589999995,None,None,1,201.88895509999998,None,201.88895509999998,None,201.88895509999998,None,202.7767292000001,None,,,,,,,,,,,,,,,,,,,,,,,,,,,,,,,,,,,,,,,,,,,,,,,,,,P026,FENCOG,1,Pre,2022_Feb_23_1049,Go No-Go Task,2021.1.4,120.03994929526479,
EPracticeConditions/BlueEyes.csv,"Rule: When you see a blue image, do not press 'spacebar'.",Images/Fearful/HM09_FC.jpg,Fear,Blue,Images/Blue.jpg,None,,,,,,,0,0,0,0,0,5,5,0,,,,,,,,,,,,,,,,,,,,,,,,,,,,,,,,,,,,,,,,,,,,,,,,,,,1.3,204.7788634000001,None,space,0,206.17941929999984,None,206.17941929999984,None,206.17941929999984,None,207.08387160000007,None,0.2821729000002051,,,,,,,,,,,,,,,,,,,,,,,,,,,,,,,,,,,,,,,,,,,,,,,,,P026,FENCOG,1,Pre,2022_Feb_23_1049,Go No-Go Task,2021.1.4,120.03994929526479,
EPracticeConditions/BlueEyes.csv,"Rule: When you see a blue image, do not press 'spacebar'.",Images/Happy/BM02_HO.jpg,Happy,Yellow,Images/Yellow.jpg,space,,,,,,,0,0,0,0,0,6,6,2,,,,,,,,,,,,,,,,,,,,,,,,,,,,,,,,,,,,,,,,,,,,,,,,,,,1.2,209.08595889999992,None,space,1,210.3864970000002,None,210.3864970000002,None,210.3864970000002,None,211.29012209999996,None,0.3473167000001922,,,,,,,,,,,,,,,,,,,,,,,,,,,,,,,,,,,,,,,,,,,,,,,,,P026,FENCOG,1,Pre,2022_Feb_23_1049,Go No-Go Task,2021.1.4,120.03994929526479,
EPracticeConditions/BlueEyes.csv,"Rule: When you see a blue image, do not press 'spacebar'.",Images/Happy/HF10_HE.jpg,Happy,Yellow,Images/Yellow.jpg,space,,,,,,,0,0,0,0,0,7,7,7,,,,,,,,,,,,,,,,,,,,,,,,,,,,,,,,,,,,,,,,,,,,,,,,,,,1.8,213.2930345000002,None,space,1,215.20167079999987,None,215.20167079999987,None,215.20167079999987,None,216.0976235999999,None,0.3640513000000283,,,,,,,,,,,,,,,,,,,,,,,,,,,,,,,,,,,,,,,,,,,,,,,,,P026,FENCOG,1,Pre,2022_Feb_23_1049,Go No-Go Task,2021.1.4,120.03994929526479,
EPracticeConditions/BlueEyes.csv,"Rule: When you see a blue image, do not press 'spacebar'.",,,,,,,,,,,,0,0,0,0,,,,,,,,,,,,,,,,,,,,,,,,,,,,,,,,,,,,,,,,,,,,,,,,,,,,,,,,,,,,,,,,,,,,,,,,,,,,,,,,,,,,,,,,,,,,,,,,,,,,,,,,,,,,,,,,,,,,,P026,FENCOG,1,Pre,2022_Feb_23_1049,Go No-Go Task,2021.1.4,120.03994929526479,
EPracticeConditions/YellowEyes.csv,"Rule: When you see a yellow image, do not press 'spacebar'.",Images/Happy/BF05_HO.jpg,Happy,Yellow,Images/Yellow.jpg,None,,,,,,,0,1,1,1,0,0,0,1,,,,,,,,,,,,,,,,,,,,,,,,,,,,,,,,,,,,,218.1171185999999,None,221.10766500000022,None,space,1.057821000000331,221.10766500000022,None,218.1171185999999,None,218.1171185999999,None,218.1171185999999,None,1.9,222.18089590000022,None,None,1,224.19076870000004,None,224.19076870000004,None,224.19076870000004,None,225.08666460000018,None,,,,,,,,,,,,,,,,,,,,,,,,,,,,,,,,,,,,,,,,,,,,,,,,,,P026,FENCOG,1,Pre,2022_Feb_23_1049,Go No-Go Task,2021.1.4,120.03994929526479,
EPracticeConditions/YellowEyes.csv,"Rule: When you see a yellow image, do not press 'spacebar'.",Images/Fearful/AM16AFS.jpg,Fear,Blue,Images/Blue.jpg,space,,,,,,,0,1,1,1,0,1,1,2,,,,,,,,,,,,,,,,,,,,,,,,,,,,,,,,,,,,,,,,,,,,,,,,,,,1.6,227.08893109999985,None,space,1,228.78944290000004,None,228.78944290000004,None,228.78944290000004,None,229.6840479,None,0.35217899999997826,,,,,,,,,,,,,,,,,,,,,,,,,,,,,,,,,,,,,,,,,,,,,,,,,P026,FENCOG,1,Pre,2022_Feb_23_1049,Go No-Go Task,2021.1.4,120.03994929526479,
EPracticeConditions/YellowEyes.csv,"Rule: When you see a yellow image, do not press 'spacebar'.",Images/Fearful/AM19AFS.jpg,Fear,Blue,Images/Blue.jpg,space,,,,,,,0,1,1,1,0,2,2,4,,,,,,,,,,,,,,,,,,,,,,,,,,,,,,,,,,,,,,,,,,,,,,,,,,,1.2,231.6889775000002,None,None,0,232.9964735000001,None,232.9964735000001,None,232.9964735000001,None,233.8994070000001,None,,,,,,,,,,,,,,,,,,,,,,,,,,,,,,,,,,,,,,,,,,,,,,,,,,P026,FENCOG,1,Pre,2022_Feb_23_1049,Go No-Go Task,2021.1.4,120.03994929526479,
EPracticeConditions/YellowEyes.csv,"Rule: When you see a yellow image, do not press 'spacebar'.",Images/Fearful/AM22AFS.jpg,Fear,Blue,Images/Blue.jpg,space,,,,,,,0,1,1,1,0,3,3,5,,,,,,,,,,,,,,,,,,,,,,,,,,,,,,,,,,,,,,,,,,,,,,,,,,,1.4,235.90304870000023,None,space,1,237.40358249999986,None,237.40358249999986,None,237.40358249999986,None,238.30401920000008,None,0.37023139999973864,,,,,,,,,,,,,,,,,,,,,,,,,,,,,,,,,,,,,,,,,,,,,,,,,P026,FENCOG,1,Pre,2022_Feb_23_1049,Go No-Go Task,2021.1.4,120.03994929526479,
EPracticeConditions/YellowEyes.csv,"Rule: When you see a yellow image, do not press 'spacebar'.",Images/Fearful/AM24AFS.jpg,Fear,Blue,Images/Blue.jpg,space,,,,,,,0,1,1,1,0,4,4,7,,,,,,,,,,,,,,,,,,,,,,,,,,,,,,,,,,,,,,,,,,,,,,,,,,,1.8,240.30986980000011,None,space,1,242.2187695,None,242.2187695,None,242.2187695,None,243.11547739999992,None,0.3550519999998869,,,,,,,,,,,,,,,,,,,,,,,,,,,,,,,,,,,,,,,,,,,,,,,,,P026,FENCOG,1,Pre,2022_Feb_23_1049,Go No-Go Task,2021.1.4,120.03994929526479,
EPracticeConditions/YellowEyes.csv,"Rule: When you see a yellow image, do not press 'spacebar'.",Images/Fearful/AM23AFS.jpg,Fear,Blue,Images/Blue.jpg,space,,,,,,,0,1,1,1,0,5,5,6,,,,,,,,,,,,,,,,,,,,,,,,,,,,,,,,,,,,,,,,,,,,,,,,,,,1.3,245.11681049999993,None,space,1,246.5175784999999,None,246.5175784999999,None,246.5175784999999,None,247.42200979999984,None,0.336256599999615,,,,,,,,,,,,,,,,,,,,,,,,,,,,,,,,,,,,,,,,,,,,,,,,,P026,FENCOG,1,Pre,2022_Feb_23_1049,Go No-Go Task,2021.1.4,120.03994929526479,
EPracticeConditions/YellowEyes.csv,"Rule: When you see a yellow image, do not press 'spacebar'.",Images/Fearful/AM17AFS.jpg,Fear,Blue,Images/Blue.jpg,space,,,,,,,0,1,1,1,0,6,6,3,,,,,,,,,,,,,,,,,,,,,,,,,,,,,,,,,,,,,,,,,,,,,,,,,,,1.5,249.42593360000023,None,space,1,251.03283709999982,None,251.03283709999982,None,251.03283709999982,None,251.9313751000002,None,0.36482939999996233,,,,,,,,,,,,,,,,,,,,,,,,,,,,,,,,,,,,,,,,,,,,,,,,,P026,FENCOG,1,Pre,2022_Feb_23_1049,Go No-Go Task,2021.1.4,120.03994929526479,
EPracticeConditions/YellowEyes.csv,"Rule: When you see a yellow image, do not press 'spacebar'.",Images/Happy/AM32HAS.jpg,Happy,Yellow,Images/Yellow.jpg,None,,,,,,,0,1,1,1,0,7,7,0,,,,,,,,,,,,,,,,,,,,,,,,,,,,,,,,,,,,,,,,,,,,,,,,,,,1.7,253.9309506000002,None,None,1,255.7314945999999,None,255.7314945999999,None,255.7314945999999,None,256.6288001999999,None,,,,,,,,,,,,,,,,,,,,,,,,,,,,,,,,,,,,,,,,,,,,,,,,,,P026,FENCOG,1,Pre,2022_Feb_23_1049,Go No-Go Task,2021.1.4,120.03994929526479,
EPracticeConditions/YellowEyes.csv,"Rule: When you see a yellow image, do not press 'spacebar'.",,,,,,,,,,,,0,1,1,1,,,,,,,,,,,,,,,,,,,,,,,,,,,,,,,,,,,,,,,,,,,,,,,,,,,,,,,,,,,,,,,,,,,,,,,,,,,,,,,,,,,,,,,,,,,,,,,,,,,,,,,,,,,,,,,,,,,,,P026,FENCOG,1,Pre,2022_Feb_23_1049,Go No-Go Task,2021.1.4,120.03994929526479,
EPracticeConditions/BlueScram.csv,"Rule: When you see a blue image, do not press 'spacebar'.",Images/Scram1/BM08_NC.jpg,Scramble,Blue,Images/Blue.jpg,None,,,,,,,0,2,2,2,0,0,0,0,,,,,,,,,,,,,,,,,,,,,,,,,,,,,,,,,,,,,258.63987770000017,None,261.6291241000001,None,space,0.536442900000111,261.6291241000001,None,258.63987770000017,None,258.63987770000017,None,258.63987770000017,None,1.9,262.1820154999998,None,None,1,264.1785513000002,None,264.1785513000002,None,264.1785513000002,None,265.06942349999986,None,,,,,,,,,,,,,,,,,,,,,,,,,,,,,,,,,,,,,,,,,,,,,,,,,,P026,FENCOG,1,Pre,2022_Feb_23_1049,Go No-Go Task,2021.1.4,120.03994929526479,
EPracticeConditions/BlueScram.csv,"Rule: When you see a blue image, do not press 'spacebar'.",Images/Scram2/AM03_NC.jpg,Scramble,Yellow,Images/Yellow.jpg,space,,,,,,,0,2,2,2,0,1,1,6,,,,,,,,,,,,,,,,,,,,,,,,,,,,,,,,,,,,,,,,,,,,,,,,,,,1.4,267.0684874000001,None,None,0,268.5688846999999,None,268.5688846999999,None,268.5688846999999,None,269.4678879999999,None,,,,,,,,,,,,,,,,,,,,,,,,,,,,,,,,,,,,,,,,,,,,,,,,,,P026,FENCOG,1,Pre,2022_Feb_23_1049,Go No-Go Task,2021.1.4,120.03994929526479,
EPracticeConditions/BlueScram.csv,"Rule: When you see a blue image, do not press 'spacebar'.",Images/Scram1/AM13NES.jpg,Scramble,Yellow,Images/Yellow.jpg,space,,,,,,,0,2,2,2,0,2,2,5,,,,,,,,,,,,,,,,,,,,,,,,,,,,,,,,,,,,,,,,,,,,,,,,,,,1.5,271.4674791,None,space,1,273.05921190000004,None,273.05921190000004,None,273.05921190000004,None,273.9497746999998,None,0.30628770000021177,,,,,,,,,,,,,,,,,,,,,,,,,,,,,,,,,,,,,,,,,,,,,,,,,P026,FENCOG,1,Pre,2022_Feb_23_1049,Go No-Go Task,2021.1.4,120.03994929526479,
EPracticeConditions/BlueScram.csv,"Rule: When you see a blue image, do not press 'spacebar'.",Images/Scram2/AF25NES.jpg,Scramble,Yellow,Images/Yellow.jpg,space,,,,,,,0,2,2,2,0,3,3,7,,,,,,,,,,,,,,,,,,,,,,,,,,,,,,,,,,,,,,,,,,,,,,,,,,,1.3,275.94940280000014,None,space,1,277.34137020000003,None,277.34137020000003,None,277.34137020000003,None,278.23185260000014,None,0.28012310000030993,,,,,,,,,,,,,,,,,,,,,,,,,,,,,,,,,,,,,,,,,,,,,,,,,P026,FENCOG,1,Pre,2022_Feb_23_1049,Go No-Go Task,2021.1.4,120.03994929526479,
EPracticeConditions/BlueScram.csv,"Rule: When you see a blue image, do not press 'spacebar'.",Images/Scram2/AF10_NC.jpg,Scramble,Yellow,Images/Yellow.jpg,space,,,,,,,0,2,2,2,0,4,4,2,,,,,,,,,,,,,,,,,,,,,,,,,,,,,,,,,,,,,,,,,,,,,,,,,,,1.8,280.2312595000001,None,space,1,282.1315769,None,282.1315769,None,282.1315769,None,283.0221057000001,None,0.30609729999969204,,,,,,,,,,,,,,,,,,,,,,,,,,,,,,,,,,,,,,,,,,,,,,,,,P026,FENCOG,1,Pre,2022_Feb_23_1049,Go No-Go Task,2021.1.4,120.03994929526479,
EPracticeConditions/BlueScram.csv,"Rule: When you see a blue image, do not press 'spacebar'.",Images/Scram1/AM04_NC.jpg,Scramble,Yellow,Images/Yellow.jpg,space,,,,,,,0,2,2,2,0,5,5,3,,,,,,,,,,,,,,,,,,,,,,,,,,,,,,,,,,,,,,,,,,,,,,,,,,,1.7,285.0216345000001,None,space,1,286.82184519999987,None,286.82184519999987,None,286.82184519999987,None,287.7123680000002,None,0.32760240000015983,,,,,,,,,,,,,,,,,,,,,,,,,,,,,,,,,,,,,,,,,,,,,,,,,P026,FENCOG,1,Pre,2022_Feb_23_1049,Go No-Go Task,2021.1.4,120.03994929526479,
EPracticeConditions/BlueScram.csv,"Rule: When you see a blue image, do not press 'spacebar'.",Images/Scram1/AM03NES.jpg,Scramble,Yellow,Images/Yellow.jpg,space,,,,,,,0,2,2,2,0,6,6,4,,,,,,,,,,,,,,,,,,,,,,,,,,,,,,,,,,,,,,,,,,,,,,,,,,,1.6,289.7118800999999,None,space,1,291.4124865000001,None,291.4124865000001,None,291.4124865000001,None,292.3027976000001,None,0.31297159999985524,,,,,,,,,,,,,,,,,,,,,,,,,,,,,,,,,,,,,,,,,,,,,,,,,P026,FENCOG,1,Pre,2022_Feb_23_1049,Go No-Go Task,2021.1.4,120.03994929526479,
EPracticeConditions/BlueScram.csv,"Rule: When you see a blue image, do not press 'spacebar'.",Images/Scram1/BF18_NC.jpg,Scramble,Blue,Images/Blue.jpg,None,,,,,,,0,2,2,2,0,7,7,1,,,,,,,,,,,,,,,,,,,,,,,,,,,,,,,,,,,,,,,,,,,,,,,,,,,1.2,294.3021289999999,None,None,1,295.6026806000002,None,295.6026806000002,None,295.6026806000002,None,296.49332960000015,None,,,,,,,,,,,,,,,,,,,,,,,,,,,,,,,,,,,,,,,,,,,,,,,,,,P026,FENCOG,1,Pre,2022_Feb_23_1049,Go No-Go Task,2021.1.4,120.03994929526479,
EPracticeConditions/BlueScram.csv,"Rule: When you see a blue image, do not press 'spacebar'.",,,,,,,,,,,,0,2,2,2,,,,,,,,,,,,,,,,,,,,,,,,,,,,,,,,,,,,,,,,,,,,,,,,,,,,,,,,,,,,,,,,,,,,,,,,,,,,,,,,,,,,,,,,,,,,,,,,,,,,,,,,,,,,,,,,,,,,,P026,FENCOG,1,Pre,2022_Feb_23_1049,Go No-Go Task,2021.1.4,120.03994929526479,
EPracticeConditions/YellowScram.csv,"Rule: When you see a yellow image, do not press 'spacebar'.",Images/Scram1/AF30NES.JPG,Scramble,Blue,Images/Blue.jpg,space,,,,,,,0,3,3,3,0,0,0,4,,,,,,,,,,,,,,,,,,,,,,,,,,,,,,,,,,,,,298.501669,None,301.4920113999999,None,space,0.3775915999999597,301.4920113999999,None,298.501669,None,298.501669,None,298.501669,None,1.2,301.8868008000002,None,None,0,303.1920298000002,None,303.1920298000002,None,303.1920298000002,None,304.0825763,None,,,,,,,,,,,,,,,,,,,,,,,,,,,,,,,,,,,,,,,,,,,,,,,,,,P026,FENCOG,1,Pre,2022_Feb_23_1049,Go No-Go Task,2021.1.4,120.03994929526479,
EPracticeConditions/YellowScram.csv,"Rule: When you see a yellow image, do not press 'spacebar'.",Images/Scram1/AF07NES.jpg,Scramble,Blue,Images/Blue.jpg,space,,,,,,,0,3,3,3,0,1,1,3,,,,,,,,,,,,,,,,,,,,,,,,,,,,,,,,,,,,,,,,,,,,,,,,,,,1.5,306.08207830000015,None,space,1,307.68235789999994,None,307.68235789999994,None,307.68235789999994,None,308.5814588999999,None,0.34716090000029,,,,,,,,,,,,,,,,,,,,,,,,,,,,,,,,,,,,,,,,,,,,,,,,,P026,FENCOG,1,Pre,2022_Feb_23_1049,Go No-Go Task,2021.1.4,120.03994929526479,
EPracticeConditions/YellowScram.csv,"Rule: When you see a yellow image, do not press 'spacebar'.",Images/Scram1/AF24NES.jpg,Scramble,Blue,Images/Blue.jpg,space,,,,,,,0,3,3,3,0,2,2,7,,,,,,,,,,,,,,,,,,,,,,,,,,,,,,,,,,,,,,,,,,,,,,,,,,,1.9,310.58107840000025,None,None,0,312.5814004000001,None,312.5814004000001,None,312.5814004000001,None,313.4880079000002,None,,,,,,,,,,,,,,,,,,,,,,,,,,,,,,,,,,,,,,,,,,,,,,,,,,P026,FENCOG,1,Pre,2022_Feb_23_1049,Go No-Go Task,2021.1.4,120.03994929526479,
EPracticeConditions/YellowScram.csv,"Rule: When you see a yellow image, do not press 'spacebar'.",Images/Scram1/AF10_NC.jpg,Scramble,Blue,Images/Blue.jpg,space,,,,,,,0,3,3,3,0,3,3,6,,,,,,,,,,,,,,,,,,,,,,,,,,,,,,,,,,,,,,,,,,,,,,,,,,,1.6,315.48798039999997,None,space,1,317.1884161999999,None,317.1884161999999,None,317.1884161999999,None,318.0949788999999,None,0.30564749999984997,,,,,,,,,,,,,,,,,,,,,,,,,,,,,,,,,,,,,,,,,,,,,,,,,P026,FENCOG,1,Pre,2022_Feb_23_1049,Go No-Go Task,2021.1.4,120.03994929526479,
EPracticeConditions/YellowScram.csv,"Rule: When you see a yellow image, do not press 'spacebar'.",Images/Scram2/HM06_NC.jpg,Scramble,Yellow,Images/Yellow.jpg,None,,,,,,,0,3,3,3,0,4,4,0,,,,,,,,,,,,,,,,,,,,,,,,,,,,,,,,,,,,,,,,,,,,,,,,,,,1.7,320.09506620000025,None,None,1,321.8953133000002,None,321.8953133000002,None,321.8953133000002,None,322.79200939999987,None,,,,,,,,,,,,,,,,,,,,,,,,,,,,,,,,,,,,,,,,,,,,,,,,,,P026,FENCOG,1,Pre,2022_Feb_23_1049,Go No-Go Task,2021.1.4,120.03994929526479,
EPracticeConditions/YellowScram.csv,"Rule: When you see a yellow image, do not press 'spacebar'.",Images/Scram1/BM01_NC.jpg,Scramble,Blue,Images/Blue.jpg,space,,,,,,,0,3,3,3,0,5,5,5,,,,,,,,,,,,,,,,,,,,,,,,,,,,,,,,,,,,,,,,,,,,,,,,,,,1.3,324.794216,None,space,1,326.19398780000006,None,326.19398780000006,None,326.19398780000006,None,327.08475490000023,None,0.2837681999999404,,,,,,,,,,,,,,,,,,,,,,,,,,,,,,,,,,,,,,,,,,,,,,,,,P026,FENCOG,1,Pre,2022_Feb_23_1049,Go No-Go Task,2021.1.4,120.03994929526479,
EPracticeConditions/YellowScram.csv,"Rule: When you see a yellow image, do not press 'spacebar'.",Images/Scram2/AM03NES.jpg,Scramble,Yellow,Images/Yellow.jpg,None,,,,,,,0,3,3,3,0,6,6,1,,,,,,,,,,,,,,,,,,,,,,,,,,,,,,,,,,,,,,,,,,,,,,,,,,,1.4,329.0839718,None,None,1,330.58448169999997,None,330.58448169999997,None,330.58448169999997,None,331.4805994000001,None,,,,,,,,,,,,,,,,,,,,,,,,,,,,,,,,,,,,,,,,,,,,,,,,,,P026,FENCOG,1,Pre,2022_Feb_23_1049,Go No-Go Task,2021.1.4,120.03994929526479,
EPracticeConditions/YellowScram.csv,"Rule: When you see a yellow image, do not press 'spacebar'.",Images/Scram1/HF04_NC.jpg,Scramble,Blue,Images/Blue.jpg,space,,,,,,,0,3,3,3,0,7,7,2,,,,,,,,,,,,,,,,,,,,,,,,,,,,,,,,,,,,,,,,,,,,,,,,,,,1.8,333.4827644999998,None,space,1,335.3830596,None,335.3830596,None,335.3830596,None,336.27353770000013,None,0.3188729999997122,,,,,,,,,,,,,,,,,,,,,,,,,,,,,,,,,,,,,,,,,,,,,,,,,P026,FENCOG,1,Pre,2022_Feb_23_1049,Go No-Go Task,2021.1.4,120.03994929526479,
EPracticeConditions/YellowScram.csv,"Rule: When you see a yellow image, do not press 'spacebar'.",,,,,,,,,,,,0,3,3,3,,,,,,,,,,,,,,,,,,,,,,,,,,,,,,,,,,,,,,,,,,,,,,,,,,,,,,,,,,,,,,,,,,,,,,,,,,,,,,,,,,,,,,,,,,,,,,,,,,,,,,,,,,,,,,,,,,,,,P026,FENCOG,1,Pre,2022_Feb_23_1049,Go No-Go Task,2021.1.4,120.03994929526479,
,,,,,,,,,,,,,,,,,,,,,,,,,,,,,,,,,,,,,,,,,,,,,,,,,,,,,,,,,,,,,,,,,,,,,,,,,,,,,,,,,,,,,339.64631940000004,None,space,3.2749816000000465,340.1227514999998,None,,,,,,,,,,,,,,,,,,,,,,,,,,,,,,,,,,,,,,,,,,,P026,FENCOG,1,Pre,2022_Feb_23_1049,Go No-Go Task,2021.1.4,120.03994929526479,
,,,,,,,,,,,,,,,,,,,,,,,,,,,,,,,,,,,,,,,,,,,,,,,,,,,,,,,,,,,,,,,,,,,,,,,,,,,,,,,,,,,,,,,,,,,343.4092978000001,None,space,3.124464900000021,343.4092978000001,None,,,,,,,,,,,,,,,,,,,,,,,,,,,,,,,,,,,,,P026,FENCOG,1,Pre,2022_Feb_23_1049,Go No-Go Task,2021.1.4,120.03994929526479,
,"Rule: When you see a yellow image, do not press 'spacebar'.",Images/Happy/BF09_HO.jpg,Happy,Blue,Images/Blue.jpg,space,ParentConditions/YellowYellowBlue_v1.xlsx,YellowYellowBlue,Conditions/Version_1/YellowFearStop.xlsx,no,PASS,0.8264186213388923,,,,,,,,,0,0,0,1,0,0,0,0,0,0,0,0,,,,,,,,,,,,,,,,,,,,,,,,,,,,,,,,,,,,,,,,,,,,,,,,,,,,,,,,,,,,,,,,,346.62010140000007,None,349.6115668,None,space,2.842129600000135,349.6115668,None,346.62010140000007,None,346.62010140000007,None,346.62010140000007,None,1.8,352.50572720000014,None,space,1,0.32314210000004095,354.4107381000001,None,354.4107381000001,None,354.4107381000001,None,,,,,,,,,,,P026,FENCOG,1,Pre,2022_Feb_23_1049,Go No-Go Task,2021.1.4,120.03994929526479,
,"Rule: When you see a yellow image, do not press 'spacebar'.",Images/Happy/AF30HAS.jpg,Happy,Blue,Images/Blue.jpg,space,ParentConditions/YellowYellowBlue_v1.xlsx,YellowYellowBlue,Conditions/Version_1/YellowFearStop.xlsx,no,PASS,0.17577164693776992,,,,,,,,,0,0,0,1,0,0,0,0,0,1,1,1,,,,,,,,,,,,,,,,,,,,,,,,,,,,,,,,,,,,,,,,,,,,,,,,,,,,,,,,,,,,,,,,,,,,,,,,,,,,,,,1.48,354.81105249999996,None,space,1,0.32407800000009956,356.4018016000002,None,356.4018016000002,None,356.4018016000002,None,,,,,,,,,,,P026,FENCOG,1,Pre,2022_Feb_23_1049,Go No-Go Task,2021.1.4,120.03994929526479,
,"Rule: When you see a yellow image, do not press 'spacebar'.",Images/Happy/AF27HAS.jpg,Happy,Blue,Images/Blue.jpg,space,ParentConditions/YellowYellowBlue_v1.xlsx,YellowYellowBlue,Conditions/Version_1/YellowFearStop.xlsx,no,PASS,0.9530234186227198,,,,,,,,,0,0,0,1,0,0,0,0,0,2,2,2,,,,,,,,,,,,,,,,,,,,,,,,,,,,,,,,,,,,,,,,,,,,,,,,,,,,,,,,,,,,,,,,,,,,,,,,,,,,,,,1.6,356.79834659999983,None,space,1,0.29676840000001903,358.5011919000001,None,358.5011919000001,None,358.5011919000001,None,,,,,,,,,,,P026,FENCOG,1,Pre,2022_Feb_23_1049,Go No-Go Task,2021.1.4,120.03994929526479,
,"Rule: When you see a yellow image, do not press 'spacebar'.",Images/Happy/AF22HAS.jpg,Happy,Blue,Images/Blue.jpg,space,ParentConditions/YellowYellowBlue_v1.xlsx,YellowYellowBlue,Conditions/Version_1/YellowFearStop.xlsx,no,PASS,0.38244231072686263,,,,,,,,,0,0,0,1,0,0,0,0,0,3,3,3,,,,,,,,,,,,,,,,,,,,,,,,,,,,,,,,,,,,,,,,,,,,,,,,,,,,,,,,,,,,,,,,,,,,,,,,,,,,,,,1.94,358.9063437000002,None,space,1,0.31996680000020206,360.95011439999985,None,360.95011439999985,None,360.95011439999985,None,,,,,,,,,,,P026,FENCOG,1,Pre,2022_Feb_23_1049,Go No-Go Task,2021.1.4,120.03994929526479,
,"Rule: When you see a yellow image, do not press 'spacebar'.",Images/Happy/WM11_HC.jpg,Happy,Blue,Images/Blue.jpg,space,ParentConditions/YellowYellowBlue_v1.xlsx,YellowYellowBlue,Conditions/Version_1/YellowFearStop.xlsx,no,PASS,0.4646194175443181,,,,,,,,,0,0,0,1,0,0,0,0,0,4,4,4,,,,,,,,,,,,,,,,,,,,,,,,,,,,,,,,,,,,,,,,,,,,,,,,,,,,,,,,,,,,,,,,,,,,,,,,,,,,,,,1.63,361.3531663000001,None,space,1,0.3225318999998308,363.08320800000024,None,363.08320800000024,None,363.08320800000024,None,,,,,,,,,,,P026,FENCOG,1,Pre,2022_Feb_23_1049,Go No-Go Task,2021.1.4,120.03994929526479,
,"Rule: When you see a yellow image, do not press 'spacebar'.",Images/Happy/BF05_HO.jpg,Happy,Blue,Images/Blue.jpg,space,ParentConditions/YellowYellowBlue_v1.xlsx,YellowYellowBlue,Conditions/Version_1/YellowFearStop.xlsx,no,PASS,0.7872072262972759,,,,,,,,,0,0,0,1,0,0,0,0,0,5,5,5,,,,,,,,,,,,,,,,,,,,,,,,,,,,,,,,,,,,,,,,,,,,,,,,,,,,,,,,,,,,,,,,,,,,,,,,,,,,,,,1.46,363.4837060000002,None,space,1,0.3564019999998891,365.0492683,None,365.0492683,None,365.0492683,None,,,,,,,,,,,P026,FENCOG,1,Pre,2022_Feb_23_1049,Go No-Go Task,2021.1.4,120.03994929526479,
,"Rule: When you see a yellow image, do not press 'spacebar'.",Images/Fearful/AM01AFS.jpg,Fear,Yellow,Images/Yellow.jpg,None,ParentConditions/YellowYellowBlue_v1.xlsx,YellowYellowBlue,Conditions/Version_1/YellowFearStop.xlsx,yes,PASS,0.04646585469142872,,,,,,,,,0,0,0,1,0,0,0,0,0,6,6,6,,,,,,,,,,,,,,,,,,,,,,,,,,,,,,,,,,,,,,,,,,,,,,,,,,,,,,,,,,,,,,,,,,,,,,,,,,,,,,,1.34,365.4499767,None,None,1,,366.89866940000024,None,366.89866940000024,None,366.89866940000024,None,,,,,,,,,,,P026,FENCOG,1,Pre,2022_Feb_23_1049,Go No-Go Task,2021.1.4,120.03994929526479,
,"Rule: When you see a yellow image, do not press 'spacebar'.",Images/Happy/AF23HAS.jpg,Happy,Blue,Images/Blue.jpg,space,ParentConditions/YellowYellowBlue_v1.xlsx,YellowYellowBlue,Conditions/Version_1/YellowFearStop.xlsx,no,PASS,0.9566897784343521,,,,,,,,,0,0,0,1,0,0,0,0,0,7,7,7,,,,,,,,,,,,,,,,,,,,,,,,,,,,,,,,,,,,,,,,,,,,,,,,,,,,,,,,,,,,,,,,,,,,,,,,,,,,,,,1.71,367.2976635000002,None,space,1,0.3071301999998468,369.1146854000001,None,369.1146854000001,None,369.1146854000001,None,,,,,,,,,,,P026,FENCOG,1,Pre,2022_Feb_23_1049,Go No-Go Task,2021.1.4,120.03994929526479,
,"Rule: When you see a yellow image, do not press 'spacebar'.",Images/Happy/AM16HAS.jpg,Happy,Blue,Images/Blue.jpg,space,ParentConditions/YellowYellowBlue_v1.xlsx,YellowYellowBlue,Conditions/Version_1/YellowFearStop.xlsx,no,PASS,0.9715962743635901,,,,,,,,,0,0,0,1,0,0,0,0,0,8,8,8,,,,,,,,,,,,,,,,,,,,,,,,,,,,,,,,,,,,,,,,,,,,,,,,,,,,,,,,,,,,,,,,,,,,,,,,,,,,,,,1.74,369.5153707000002,None,space,1,0.28197899999986475,371.35570600000005,None,371.35570600000005,None,371.35570600000005,None,,,,,,,,,,,P026,FENCOG,1,Pre,2022_Feb_23_1049,Go No-Go Task,2021.1.4,120.03994929526479,
,"Rule: When you see a yellow image, do not press 'spacebar'.",Images/Happy/AM04HAS.jpg,Happy,Blue,Images/Blue.jpg,space,ParentConditions/YellowYellowBlue_v1.xlsx,YellowYellowBlue,Conditions/Version_1/YellowFearStop.xlsx,no,PASS,0.8834532829789966,,,,,,,,,0,0,0,1,0,0,0,0,0,9,9,9,,,,,,,,,,,,,,,,,,,,,,,,,,,,,,,,,,,,,,,,,,,,,,,,,,,,,,,,,,,,,,,,,,,,,,,,,,,,,,,1.51,371.7554090000001,None,space,1,0.3695068000001811,373.38026330000025,None,373.38026330000025,None,373.38026330000025,None,,,,,,,,,,,P026,FENCOG,1,Pre,2022_Feb_23_1049,Go No-Go Task,2021.1.4,120.03994929526479,
,"Rule: When you see a yellow image, do not press 'spacebar'.",Images/Happy/AF26HAS.jpg,Happy,Blue,Images/Blue.jpg,space,ParentConditions/YellowYellowBlue_v1.xlsx,YellowYellowBlue,Conditions/Version_1/YellowFearStop.xlsx,no,PASS,0.1837512616409066,,,,,,,,,0,0,0,1,0,0,0,0,0,10,10,10,,,,,,,,,,,,,,,,,,,,,,,,,,,,,,,,,,,,,,,,,,,,,,,,,,,,,,,,,,,,,,,,,,,,,,,,,,,,,,,1.85,373.78151360000015,None,space,1,0.3079529999999977,375.73773080000024,None,375.73773080000024,None,375.73773080000024,None,,,,,,,,,,,P026,FENCOG,1,Pre,2022_Feb_23_1049,Go No-Go Task,2021.1.4,120.03994929526479,
,"Rule: When you see a yellow image, do not press 'spacebar'.",Images/Fearful/AF10_FC.jpg,Fear,Yellow,Images/Yellow.jpg,None,ParentConditions/YellowYellowBlue_v1.xlsx,YellowYellowBlue,Conditions/Version_1/YellowFearStop.xlsx,yes,PASS,0.28017183869067563,,,,,,,,,0,0,0,1,0,0,0,0,0,11,11,11,,,,,,,,,,,,,,,,,,,,,,,,,,,,,,,,,,,,,,,,,,,,,,,,,,,,,,,,,,,,,,,,,,,,,,,,,,,,,,,1.61,376.14827420000006,None,None,1,,377.8621403999998,None,377.8621403999998,None,377.8621403999998,None,,,,,,,,,,,P026,FENCOG,1,Pre,2022_Feb_23_1049,Go No-Go Task,2021.1.4,120.03994929526479,
,"Rule: When you see a yellow image, do not press 'spacebar'.",Images/Fearful/AM09_FO.jpg,Fear,Yellow,Images/Yellow.jpg,None,ParentConditions/YellowYellowBlue_v1.xlsx,YellowYellowBlue,Conditions/Version_1/YellowFearStop.xlsx,yes,PASS,0.6630139915996167,,,,,,,,,0,0,0,1,0,0,0,0,0,12,12,12,,,,,,,,,,,,,,,,,,,,,,,,,,,,,,,,,,,,,,,,,,,,,,,,,,,,,,,,,,,,,,,,,,,,,,,,,,,,,,,1.64,378.2635686000001,None,space,0,0.2736347999998543,380.02815829999986,None,380.02815829999986,None,380.02815829999986,None,,,,,,,,,,,P026,FENCOG,1,Pre,2022_Feb_23_1049,Go No-Go Task,2021.1.4,120.03994929526479,
,"Rule: When you see a yellow image, do not press 'spacebar'.",Images/Happy/HM04_HO.jpg,Happy,Blue,Images/Blue.jpg,space,ParentConditions/YellowYellowBlue_v1.xlsx,YellowYellowBlue,Conditions/Version_1/YellowFearStop.xlsx,no,PASS,0.9402314290963173,,,,,,,,,0,0,0,1,0,0,0,0,0,13,13,13,,,,,,,,,,,,,,,,,,,,,,,,,,,,,,,,,,,,,,,,,,,,,,,,,,,,,,,,,,,,,,,,,,,,,,,,,,,,,,,1.36,380.41869870000005,None,space,1,0.29504980000001524,381.9027133000002,None,381.9027133000002,None,381.9027133000002,None,,,,,,,,,,,P026,FENCOG,1,Pre,2022_Feb_23_1049,Go No-Go Task,2021.1.4,120.03994929526479,
,"Rule: When you see a yellow image, do not press 'spacebar'.",Images/Fearful/AM04_FO.jpg,Fear,Yellow,Images/Yellow.jpg,None,ParentConditions/YellowYellowBlue_v1.xlsx,YellowYellowBlue,Conditions/Version_1/YellowFearStop.xlsx,yes,PASS,0.3100490082037951,,,,,,,,,0,0,0,1,0,0,0,0,0,14,14,14,,,,,,,,,,,,,,,,,,,,,,,,,,,,,,,,,,,,,,,,,,,,,,,,,,,,,,,,,,,,,,,,,,,,,,,,,,,,,,,1.95,382.2932552999998,None,None,1,,384.34360470000024,None,384.34360470000024,None,384.34360470000024,None,,,,,,,,,,,P026,FENCOG,1,Pre,2022_Feb_23_1049,Go No-Go Task,2021.1.4,120.03994929526479,
,"Rule: When you see a yellow image, do not press 'spacebar'.",Images/Happy/AM13HAS.jpg,Happy,Blue,Images/Blue.jpg,space,ParentConditions/YellowYellowBlue_v1.xlsx,YellowYellowBlue,Conditions/Version_1/YellowFearStop.xlsx,no,PASS,0.44314676907690376,,,,,,,,,0,0,0,1,0,0,0,0,0,15,15,15,,,,,,,,,,,,,,,,,,,,,,,,,,,,,,,,,,,,,,,,,,,,,,,,,,,,,,,,,,,,,,,,,,,,,,,,,,,,,,,1.27,384.74621390000016,None,space,1,0.2877548999999817,386.1180081,None,386.1180081,None,386.1180081,None,,,,,,,,,,,P026,FENCOG,1,Pre,2022_Feb_23_1049,Go No-Go Task,2021.1.4,120.03994929526479,
,"Rule: When you see a yellow image, do not press 'spacebar'.",Images/Fearful/AF09AFS.jpg,Fear,Yellow,Images/Yellow.jpg,None,ParentConditions/YellowYellowBlue_v1.xlsx,YellowYellowBlue,Conditions/Version_1/YellowFearStop.xlsx,yes,PASS,0.4498025699510172,,,,,,,,,0,0,0,1,0,0,0,0,0,16,16,16,,,,,,,,,,,,,,,,,,,,,,,,,,,,,,,,,,,,,,,,,,,,,,,,,,,,,,,,,,,,,,,,,,,,,,,,,,,,,,,1.42,386.5185113,None,None,1,,388.05086430000006,None,388.05086430000006,None,388.05086430000006,None,,,,,,,,,,,P026,FENCOG,1,Pre,2022_Feb_23_1049,Go No-Go Task,2021.1.4,120.03994929526479,
,"Rule: When you see a yellow image, do not press 'spacebar'.",Images/Fearful/BF05_FO.jpg,Fear,Yellow,Images/Yellow.jpg,None,ParentConditions/YellowYellowBlue_v1.xlsx,YellowYellowBlue,Conditions/Version_1/YellowFearStop.xlsx,yes,PASS,0.9080020582242041,,,,,,,,,0,0,0,1,0,0,0,0,0,17,17,17,,,,,,,,,,,,,,,,,,,,,,,,,,,,,,,,,,,,,,,,,,,,,,,,,,,,,,,,,,,,,,,,,,,,,,,,,,,,,,,1.29,388.4498068999999,None,None,1,,389.8419302,None,389.8419302,None,389.8419302,None,,,,,,,,,,,P026,FENCOG,1,Pre,2022_Feb_23_1049,Go No-Go Task,2021.1.4,120.03994929526479,
,"Rule: When you see a yellow image, do not press 'spacebar'.",Images/Happy/AM24HAS.jpg,Happy,Blue,Images/Blue.jpg,space,ParentConditions/YellowYellowBlue_v1.xlsx,YellowYellowBlue,Conditions/Version_1/YellowFearStop.xlsx,no,PASS,0.922071682303877,,,,,,,,,0,0,0,1,0,0,0,0,0,18,18,18,,,,,,,,,,,,,,,,,,,,,,,,,,,,,,,,,,,,,,,,,,,,,,,,,,,,,,,,,,,,,,,,,,,,,,,,,,,,,,,1.23,390.2482225000001,None,space,1,0.3826870999996572,391.58307649999983,None,391.58307649999983,None,391.58307649999983,None,,,,,,,,,,,P026,FENCOG,1,Pre,2022_Feb_23_1049,Go No-Go Task,2021.1.4,120.03994929526479,
,"Rule: When you see a yellow image, do not press 'spacebar'.",Images/Fearful/AF11AFS.jpg,Fear,Yellow,Images/Yellow.jpg,None,ParentConditions/YellowYellowBlue_v1.xlsx,YellowYellowBlue,Conditions/Version_1/YellowFearStop.xlsx,yes,PASS,0.9473352640697336,,,,,,,,,0,0,0,1,0,0,0,0,0,19,19,19,,,,,,,,,,,,,,,,,,,,,,,,,,,,,,,,,,,,,,,,,,,,,,,,,,,,,,,,,,,,,,,,,,,,,,,,,,,,,,,1.82,391.98561429999995,None,None,1,,393.90747769999984,None,393.90747769999984,None,393.90747769999984,None,,,,,,,,,,,P026,FENCOG,1,Pre,2022_Feb_23_1049,Go No-Go Task,2021.1.4,120.03994929526479,
,"Rule: When you see a yellow image, do not press 'spacebar'.",Images/Happy/AF01_HE.jpg,Happy,Blue,Images/Blue.jpg,space,ParentConditions/YellowYellowBlue_v1.xlsx,YellowYellowBlue,Conditions/Version_1/YellowFearStop.xlsx,no,PASS,0.975890070475601,,,,,,,,,0,0,0,1,0,0,0,0,0,20,20,20,,,,,,,,,,,,,,,,,,,,,,,,,,,,,,,,,,,,,,,,,,,,,,,,,,,,,,,,,,,,,,,,,,,,,,,,,,,,,,,1.9,394.3137623,None,space,1,0.3548415999998724,396.31502620000015,None,396.31502620000015,None,396.31502620000015,None,,,,,,,,,,,P026,FENCOG,1,Pre,2022_Feb_23_1049,Go No-Go Task,2021.1.4,120.03994929526479,
,"Rule: When you see a yellow image, do not press 'spacebar'.",Images/Happy/AM10_HO.jpg,Happy,Blue,Images/Blue.jpg,space,ParentConditions/YellowYellowBlue_v1.xlsx,YellowYellowBlue,Conditions/Version_1/YellowFearStop.xlsx,no,PASS,0.06323556568324906,,,,,,,,,0,0,0,1,0,0,0,0,0,21,21,21,,,,,,,,,,,,,,,,,,,,,,,,,,,,,,,,,,,,,,,,,,,,,,,,,,,,,,,,,,,,,,,,,,,,,,,,,,,,,,,1.91,396.7140581000001,None,space,1,0.3225998000002619,398.7311265999999,None,398.7311265999999,None,398.7311265999999,None,,,,,,,,,,,P026,FENCOG,1,Pre,2022_Feb_23_1049,Go No-Go Task,2021.1.4,120.03994929526479,
,"Rule: When you see a yellow image, do not press 'spacebar'.",Images/Happy/AF09HAS.jpg,Happy,Blue,Images/Blue.jpg,space,ParentConditions/YellowYellowBlue_v1.xlsx,YellowYellowBlue,Conditions/Version_1/YellowFearStop.xlsx,no,PASS,0.6962175902541581,,,,,,,,,0,0,0,1,0,0,0,0,0,22,22,22,,,,,,,,,,,,,,,,,,,,,,,,,,,,,,,,,,,,,,,,,,,,,,,,,,,,,,,,,,,,,,,,,,,,,,,,,,,,,,,1.76,399.1316082000001,None,space,1,0.32900710000012623,400.9969122,None,400.9969122,None,400.9969122,None,,,,,,,,,,,P026,FENCOG,1,Pre,2022_Feb_23_1049,Go No-Go Task,2021.1.4,120.03994929526479,
,"Rule: When you see a yellow image, do not press 'spacebar'.",Images/Happy/BM02_HO.jpg,Happy,Blue,Images/Blue.jpg,space,ParentConditions/YellowYellowBlue_v1.xlsx,YellowYellowBlue,Conditions/Version_1/YellowFearStop.xlsx,no,PASS,0.39611347700197175,,,,,,,,,0,0,0,1,0,0,0,0,0,23,23,23,,,,,,,,,,,,,,,,,,,,,,,,,,,,,,,,,,,,,,,,,,,,,,,,,,,,,,,,,,,,,,,,,,,,,,,,,,,,,,,1.98,401.39762429999996,None,space,1,0.3504198999999062,403.4712794999998,None,403.4712794999998,None,403.4712794999998,None,,,,,,,,,,,P026,FENCOG,1,Pre,2022_Feb_23_1049,Go No-Go Task,2021.1.4,120.03994929526479,
,"Rule: When you see a yellow image, do not press 'spacebar'.",Images/Happy/AM09_HE.jpg,Happy,Blue,Images/Blue.jpg,space,ParentConditions/YellowYellowBlue_v1.xlsx,YellowYellowBlue,Conditions/Version_1/YellowFearStop.xlsx,no,PASS,0.07757947711401492,,,,,,,,,0,0,0,1,0,0,0,0,0,24,24,24,,,,,,,,,,,,,,,,,,,,,,,,,,,,,,,,,,,,,,,,,,,,,,,,,,,,,,,,,,,,,,,,,,,,,,,,,,,,,,,1.58,403.87055269999996,None,space,1,0.33977039999990666,405.55398450000007,None,405.55398450000007,None,405.55398450000007,None,,,,,,,,,,,P026,FENCOG,1,Pre,2022_Feb_23_1049,Go No-Go Task,2021.1.4,120.03994929526479,
,"Rule: When you see a yellow image, do not press 'spacebar'.",Images/Happy/AF10_HE.jpg,Happy,Blue,Images/Blue.jpg,space,ParentConditions/YellowYellowBlue_v1.xlsx,YellowYellowBlue,Conditions/Version_1/YellowFearStop.xlsx,no,PASS,0.0317382475703174,,,,,,,,,0,0,0,1,0,0,0,0,0,25,25,25,,,,,,,,,,,,,,,,,,,,,,,,,,,,,,,,,,,,,,,,,,,,,,,,,,,,,,,,,,,,,,,,,,,,,,,,,,,,,,,1.55,405.9549257000001,None,space,1,0.2902414000000135,407.61170370000013,None,407.61170370000013,None,407.61170370000013,None,,,,,,,,,,,P026,FENCOG,1,Pre,2022_Feb_23_1049,Go No-Go Task,2021.1.4,120.03994929526479,
,"Rule: When you see a yellow image, do not press 'spacebar'.",Images/Happy/BM01_HO.jpg,Happy,Blue,Images/Blue.jpg,space,ParentConditions/YellowYellowBlue_v1.xlsx,YellowYellowBlue,Conditions/Version_1/YellowFearStop.xlsx,no,PASS,0.5236836345272965,,,,,,,,,0,0,0,1,0,0,0,0,0,26,26,26,,,,,,,,,,,,,,,,,,,,,,,,,,,,,,,,,,,,,,,,,,,,,,,,,,,,,,,,,,,,,,,,,,,,,,,,,,,,,,,1.79,408.02013650000004,None,space,1,0.35097140000016225,409.91104280000013,None,409.91104280000013,None,409.91104280000013,None,,,,,,,,,,,P026,FENCOG,1,Pre,2022_Feb_23_1049,Go No-Go Task,2021.1.4,120.03994929526479,
,"Rule: When you see a yellow image, do not press 'spacebar'.",Images/Fearful/AF07_FO.jpg,Fear,Yellow,Images/Yellow.jpg,None,ParentConditions/YellowYellowBlue_v1.xlsx,YellowYellowBlue,Conditions/Version_1/YellowFearStop.xlsx,yes,PASS,0.05460409726356086,,,,,,,,,0,0,0,1,0,0,0,0,0,27,27,27,,,,,,,,,,,,,,,,,,,,,,,,,,,,,,,,,,,,,,,,,,,,,,,,,,,,,,,,,,,,,,,,,,,,,,,,,,,,,,,1.43,410.3197772000001,None,space,0,0.29755640000030326,411.8522482999999,None,411.8522482999999,None,411.8522482999999,None,,,,,,,,,,,P026,FENCOG,1,Pre,2022_Feb_23_1049,Go No-Go Task,2021.1.4,120.03994929526479,
,"Rule: When you see a yellow image, do not press 'spacebar'.",Images/Happy/BF18_HO.jpg,Happy,Blue,Images/Blue.jpg,space,ParentConditions/YellowYellowBlue_v1.xlsx,YellowYellowBlue,Conditions/Version_1/YellowFearStop.xlsx,no,PASS,0.725547290944351,,,,,,,,,0,0,0,1,0,0,0,0,0,28,28,28,,,,,,,,,,,,,,,,,,,,,,,,,,,,,,,,,,,,,,,,,,,,,,,,,,,,,,,,,,,,,,,,,,,,,,,,,,,,,,,1.45,412.2618011000002,None,space,1,0.31548839999959455,413.8182138999998,None,413.8182138999998,None,413.8182138999998,None,,,,,,,,,,,P026,FENCOG,1,Pre,2022_Feb_23_1049,Go No-Go Task,2021.1.4,120.03994929526479,
,"Rule: When you see a yellow image, do not press 'spacebar'.",Images/Happy/AM03HAS.jpg,Happy,Blue,Images/Blue.jpg,space,ParentConditions/YellowYellowBlue_v1.xlsx,YellowYellowBlue,Conditions/Version_1/YellowFearStop.xlsx,no,PASS,0.25317968373868693,,,,,,,,,0,0,0,1,0,0,0,0,0,29,29,29,,,,,,,,,,,,,,,,,,,,,,,,,,,,,,,,,,,,,,,,,,,,,,,,,,,,,,,,,,,,,,,,,,,,,,,,,,,,,,,1.83,414.2201822999998,None,space,1,0.2627757999998721,416.1508818,None,416.1508818,None,416.1508818,None,,,,,,,,,,,P026,FENCOG,1,Pre,2022_Feb_23_1049,Go No-Go Task,2021.1.4,120.03994929526479,
,"Rule: When you see a yellow image, do not press 'spacebar'.",Images/Happy/BF10_HO.jpg,Happy,Blue,Images/Blue.jpg,space,ParentConditions/YellowYellowBlue_v1.xlsx,YellowYellowBlue,Conditions/Version_1/YellowFearStop.xlsx,no,PASS,0.49778397383761497,,,,,,,,,0,0,0,1,0,0,0,0,0,30,30,30,,,,,,,,,,,,,,,,,,,,,,,,,,,,,,,,,,,,,,,,,,,,,,,,,,,,,,,,,,,,,,,,,,,,,,,,,,,,,,,1.25,416.55010319999997,None,space,1,0.2972353000000112,417.9003497000001,None,417.9003497000001,None,417.9003497000001,None,,,,,,,,,,,P026,FENCOG,1,Pre,2022_Feb_23_1049,Go No-Go Task,2021.1.4,120.03994929526479,
,"Rule: When you see a yellow image, do not press 'spacebar'.",Images/Happy/BF07_HO.jpg,Happy,Blue,Images/Blue.jpg,space,ParentConditions/YellowYellowBlue_v1.xlsx,YellowYellowBlue,Conditions/Version_1/YellowFearStop.xlsx,no,PASS,0.8230931671283865,,,,,,,,,0,0,0,1,0,0,0,0,0,31,31,31,,,,,,,,,,,,,,,,,,,,,,,,,,,,,,,,,,,,,,,,,,,,,,,,,,,,,,,,,,,,,,,,,,,,,,,,,,,,,,,1.89,418.30185700000015,None,space,1,0.36161959999981264,420.3080871999998,None,420.3080871999998,None,420.3080871999998,None,,,,,,,,,,,P026,FENCOG,1,Pre,2022_Feb_23_1049,Go No-Go Task,2021.1.4,120.03994929526479,
,"Rule: When you see a yellow image, do not press 'spacebar'.",Images/Fearful/BF07_FO.jpg,Fear,Yellow,Images/Yellow.jpg,None,ParentConditions/YellowYellowBlue_v1.xlsx,YellowYellowBlue,Conditions/Version_1/YellowFearStop.xlsx,yes,PASS,0.2119409881246468,,,,,,,,,0,0,0,1,0,0,0,0,0,32,32,32,,,,,,,,,,,,,,,,,,,,,,,,,,,,,,,,,,,,,,,,,,,,,,,,,,,,,,,,,,,,,,,,,,,,,,,,,,,,,,,1.4,420.7071146999999,None,None,1,,422.2074347,None,422.2074347,None,422.2074347,None,,,,,,,,,,,P026,FENCOG,1,Pre,2022_Feb_23_1049,Go No-Go Task,2021.1.4,120.03994929526479,
,"Rule: When you see a yellow image, do not press 'spacebar'.",Images/Happy/WF04_HC.jpg,Happy,Blue,Images/Blue.jpg,space,ParentConditions/YellowYellowBlue_v1.xlsx,YellowYellowBlue,Conditions/Version_1/YellowFearStop.xlsx,no,PASS,0.26229612863468255,,,,,,,,,0,0,0,1,0,0,0,0,0,33,33,33,,,,,,,,,,,,,,,,,,,,,,,,,,,,,,,,,,,,,,,,,,,,,,,,,,,,,,,,,,,,,,,,,,,,,,,,,,,,,,,1.41,422.60780309999996,None,space,1,0.2901451000002453,424.12356609999983,None,424.12356609999983,None,424.12356609999983,None,,,,,,,,,,,P026,FENCOG,1,Pre,2022_Feb_23_1049,Go No-Go Task,2021.1.4,120.03994929526479,
,"Rule: When you see a yellow image, do not press 'spacebar'.",Images/Happy/AM23HAS.jpg,Happy,Blue,Images/Blue.jpg,space,ParentConditions/YellowYellowBlue_v1.xlsx,YellowYellowBlue,Conditions/Version_1/YellowFearStop.xlsx,no,PASS,0.6553077695853636,,,,,,,,,0,0,0,1,0,0,0,0,0,34,34,34,,,,,,,,,,,,,,,,,,,,,,,,,,,,,,,,,,,,,,,,,,,,,,,,,,,,,,,,,,,,,,,,,,,,,,,,,,,,,,,1.56,424.5267609,None,space,1,0.3680702999999994,426.1895839000001,None,426.1895839000001,None,426.1895839000001,None,,,,,,,,,,,P026,FENCOG,1,Pre,2022_Feb_23_1049,Go No-Go Task,2021.1.4,120.03994929526479,
,"Rule: When you see a yellow image, do not press 'spacebar'.",Images/Happy/AM09HAS.jpg,Happy,Blue,Images/Blue.jpg,space,ParentConditions/YellowYellowBlue_v1.xlsx,YellowYellowBlue,Conditions/Version_1/YellowFearStop.xlsx,no,PASS,0.3792451721627529,,,,,,,,,0,0,0,1,0,0,0,0,0,35,35,35,,,,,,,,,,,,,,,,,,,,,,,,,,,,,,,,,,,,,,,,,,,,,,,,,,,,,,,,,,,,,,,,,,,,,,,,,,,,,,,1.97,426.5902093000002,None,space,1,0.3578973999997288,428.66389970000023,None,428.66389970000023,None,428.66389970000023,None,,,,,,,,,,,P026,FENCOG,1,Pre,2022_Feb_23_1049,Go No-Go Task,2021.1.4,120.03994929526479,
,"Rule: When you see a yellow image, do not press 'spacebar'.",Images/Happy/AM10HAS.jpg,Happy,Blue,Images/Blue.jpg,space,ParentConditions/YellowYellowBlue_v1.xlsx,YellowYellowBlue,Conditions/Version_1/YellowFearStop.xlsx,no,PASS,0.9781550300020249,,,,,,,,,0,0,0,1,0,0,0,0,0,36,36,36,,,,,,,,,,,,,,,,,,,,,,,,,,,,,,,,,,,,,,,,,,,,,,,,,,,,,,,,,,,,,,,,,,,,,,,,,,,,,,,1.31,429.0647642000001,None,space,1,0.3718057000000954,430.4819725,None,430.4819725,None,430.4819725,None,,,,,,,,,,,P026,FENCOG,1,Pre,2022_Feb_23_1049,Go No-Go Task,2021.1.4,120.03994929526479,
,"Rule: When you see a yellow image, do not press 'spacebar'.",Images/Happy/AF07HAS.jpg,Happy,Blue,Images/Blue.jpg,space,ParentConditions/YellowYellowBlue_v1.xlsx,YellowYellowBlue,Conditions/Version_1/YellowFearStop.xlsx,no,PASS,0.9827710623676732,,,,,,,,,0,0,0,1,0,0,0,0,0,37,37,37,,,,,,,,,,,,,,,,,,,,,,,,,,,,,,,,,,,,,,,,,,,,,,,,,,,,,,,,,,,,,,,,,,,,,,,,,,,,,,,1.35,430.88728400000014,None,None,0,,432.3544496000002,None,432.3544496000002,None,432.3544496000002,None,,,,,,,,,,,P026,FENCOG,1,Pre,2022_Feb_23_1049,Go No-Go Task,2021.1.4,120.03994929526479,
,"Rule: When you see a yellow image, do not press 'spacebar'.",Images/Happy/AM03_HO.jpg,Happy,Blue,Images/Blue.jpg,space,ParentConditions/YellowYellowBlue_v1.xlsx,YellowYellowBlue,Conditions/Version_1/YellowFearStop.xlsx,no,PASS,0.6960883574837642,,,,,,,,,0,0,0,1,0,0,0,0,0,38,38,38,,,,,,,,,,,,,,,,,,,,,,,,,,,,,,,,,,,,,,,,,,,,,,,,,,,,,,,,,,,,,,,,,,,,,,,,,,,,,,,1.54,432.7459360999999,None,space,1,0.3541448999999375,434.3955100999999,None,434.3955100999999,None,434.3955100999999,None,,,,,,,,,,,P026,FENCOG,1,Pre,2022_Feb_23_1049,Go No-Go Task,2021.1.4,120.03994929526479,
,"Rule: When you see a yellow image, do not press 'spacebar'.",Images/Happy/AM05HAS.jpg,Happy,Blue,Images/Blue.jpg,space,ParentConditions/YellowYellowBlue_v1.xlsx,YellowYellowBlue,Conditions/Version_1/YellowFearStop.xlsx,no,PASS,0.8897547995150092,,,,,,,,,0,0,0,1,0,0,0,0,0,39,39,39,,,,,,,,,,,,,,,,,,,,,,,,,,,,,,,,,,,,,,,,,,,,,,,,,,,,,,,,,,,,,,,,,,,,,,,,,,,,,,,1.49,434.7943545999999,None,space,1,0.30719619999990755,436.38661479999996,None,436.38661479999996,None,436.38661479999996,None,,,,,,,,,,,P026,FENCOG,1,Pre,2022_Feb_23_1049,Go No-Go Task,2021.1.4,120.03994929526479,
,"Rule: When you see a yellow image, do not press 'spacebar'.",Images/Happy/AF02HAS.jpg,Happy,Blue,Images/Blue.jpg,space,ParentConditions/YellowYellowBlue_v1.xlsx,YellowYellowBlue,Conditions/Version_1/YellowFearStop.xlsx,no,PASS,0.25376599793626176,,,,,,,,,0,0,0,1,0,0,0,0,0,40,40,40,,,,,,,,,,,,,,,,,,,,,,,,,,,,,,,,,,,,,,,,,,,,,,,,,,,,,,,,,,,,,,,,,,,,,,,,,,,,,,,1.32,436.7894137999999,None,space,1,0.37025149999999485,438.21936170000004,None,438.21936170000004,None,438.21936170000004,None,,,,,,,,,,,P026,FENCOG,1,Pre,2022_Feb_23_1049,Go No-Go Task,2021.1.4,120.03994929526479,
,"Rule: When you see a yellow image, do not press 'spacebar'.",Images/Happy/BM08_HO.jpg,Happy,Blue,Images/Blue.jpg,space,ParentConditions/YellowYellowBlue_v1.xlsx,YellowYellowBlue,Conditions/Version_1/YellowFearStop.xlsx,no,PASS,0.999289280912827,,,,,,,,,0,0,0,1,0,0,0,0,0,41,41,41,,,,,,,,,,,,,,,,,,,,,,,,,,,,,,,,,,,,,,,,,,,,,,,,,,,,,,,,,,,,,,,,,,,,,,,,,,,,,,,1.37,438.61852539999995,None,space,1,0.3118534999998701,440.0938471000002,None,440.0938471000002,None,440.0938471000002,None,,,,,,,,,,,P026,FENCOG,1,Pre,2022_Feb_23_1049,Go No-Go Task,2021.1.4,120.03994929526479,
,"Rule: When you see a yellow image, do not press 'spacebar'.",Images/Happy/AM22HAS.jpg,Happy,Blue,Images/Blue.jpg,space,ParentConditions/YellowYellowBlue_v1.xlsx,YellowYellowBlue,Conditions/Version_1/YellowFearStop.xlsx,no,PASS,0.3243688929703894,,,,,,,,,0,0,0,1,0,0,0,0,0,42,42,42,,,,,,,,,,,,,,,,,,,,,,,,,,,,,,,,,,,,,,,,,,,,,,,,,,,,,,,,,,,,,,,,,,,,,,,,,,,,,,,1.2,440.49430259999986,None,space,1,0.37234330000001137,441.8016418999998,None,441.8016418999998,None,441.8016418999998,None,,,,,,,,,,,P026,FENCOG,1,Pre,2022_Feb_23_1049,Go No-Go Task,2021.1.4,120.03994929526479,
,"Rule: When you see a yellow image, do not press 'spacebar'.",Images/Happy/AM30HAS.jpg,Happy,Blue,Images/Blue.jpg,space,ParentConditions/YellowYellowBlue_v1.xlsx,YellowYellowBlue,Conditions/Version_1/YellowFearStop.xlsx,no,PASS,0.6329749014690744,,,,,,,,,0,0,0,1,0,0,0,0,0,43,43,43,,,,,,,,,,,,,,,,,,,,,,,,,,,,,,,,,,,,,,,,,,,,,,,,,,,,,,,,,,,,,,,,,,,,,,,,,,,,,,,1.96,442.2067106000002,None,space,1,0.2904315000000679,444.2673428999999,None,444.2673428999999,None,444.2673428999999,None,,,,,,,,,,,P026,FENCOG,1,Pre,2022_Feb_23_1049,Go No-Go Task,2021.1.4,120.03994929526479,
,"Rule: When you see a yellow image, do not press 'spacebar'.",Images/Fearful/BF09_FC.jpg,Fear,Yellow,Images/Yellow.jpg,None,ParentConditions/YellowYellowBlue_v1.xlsx,YellowYellowBlue,Conditions/Version_1/YellowFearStop.xlsx,yes,PASS,0.8490666234880494,,,,,,,,,0,0,0,1,0,0,0,0,0,44,44,44,,,,,,,,,,,,,,,,,,,,,,,,,,,,,,,,,,,,,,,,,,,,,,,,,,,,,,,,,,,,,,,,,,,,,,,,,,,,,,,1.52,444.6682979999998,None,None,1,,446.29209030000015,None,446.29209030000015,None,446.29209030000015,None,,,,,,,,,,,P026,FENCOG,1,Pre,2022_Feb_23_1049,Go No-Go Task,2021.1.4,120.03994929526479,
,"Rule: When you see a yellow image, do not press 'spacebar'.",Images/Happy/WM12_HE.jpg,Happy,Blue,Images/Blue.jpg,space,ParentConditions/YellowYellowBlue_v1.xlsx,YellowYellowBlue,Conditions/Version_1/YellowFearStop.xlsx,no,PASS,0.11929099481185879,,,,,,,,,0,0,0,1,0,0,0,0,0,45,45,45,,,,,,,,,,,,,,,,,,,,,,,,,,,,,,,,,,,,,,,,,,,,,,,,,,,,,,,,,,,,,,,,,,,,,,,,,,,,,,,1.59,446.6930272000002,None,space,1,0.2710048999997525,448.38307199999986,None,448.38307199999986,None,448.38307199999986,None,,,,,,,,,,,P026,FENCOG,1,Pre,2022_Feb_23_1049,Go No-Go Task,2021.1.4,120.03994929526479,
,"Rule: When you see a yellow image, do not press 'spacebar'.",Images/Happy/HF10_HE.jpg,Happy,Blue,Images/Blue.jpg,space,ParentConditions/YellowYellowBlue_v1.xlsx,YellowYellowBlue,Conditions/Version_1/YellowFearStop.xlsx,no,PASS,0.835696516720082,,,,,,,,,0,0,0,1,0,0,0,0,0,46,46,46,,,,,,,,,,,,,,,,,,,,,,,,,,,,,,,,,,,,,,,,,,,,,,,,,,,,,,,,,,,,,,,,,,,,,,,,,,,,,,,1.62,448.78476590000014,None,space,1,0.28226219999987734,450.50753139999983,None,450.50753139999983,None,450.50753139999983,None,,,,,,,,,,,P026,FENCOG,1,Pre,2022_Feb_23_1049,Go No-Go Task,2021.1.4,120.03994929526479,
,"Rule: When you see a yellow image, do not press 'spacebar'.",Images/Happy/HM09_HO.jpg,Happy,Blue,Images/Blue.jpg,space,ParentConditions/YellowYellowBlue_v1.xlsx,YellowYellowBlue,Conditions/Version_1/YellowFearStop.xlsx,no,PASS,0.80615804446551,,,,,,,,,0,0,0,1,0,0,0,0,0,47,47,47,,,,,,,,,,,,,,,,,,,,,,,,,,,,,,,,,,,,,,,,,,,,,,,,,,,,,,,,,,,,,,,,,,,,,,,,,,,,,,,1.33,450.90757150000013,None,space,1,0.32176540000000386,452.34020570000007,None,452.34020570000007,None,452.34020570000007,None,,,,,,,,,,,P026,FENCOG,1,Pre,2022_Feb_23_1049,Go No-Go Task,2021.1.4,120.03994929526479,
,"Rule: When you see a yellow image, do not press 'spacebar'.",Images/Fearful/AM03_FC.jpg,Fear,Yellow,Images/Yellow.jpg,None,ParentConditions/YellowYellowBlue_v1.xlsx,YellowYellowBlue,Conditions/Version_1/YellowFearStop.xlsx,yes,PASS,0.14846567878901318,,,,,,,,,0,0,0,1,0,0,0,0,0,48,48,48,,,,,,,,,,,,,,,,,,,,,,,,,,,,,,,,,,,,,,,,,,,,,,,,,,,,,,,,,,,,,,,,,,,,,,,,,,,,,,,1.93,452.7411576000002,None,None,1,,454.7728257000001,None,454.7728257000001,None,454.7728257000001,None,,,,,,,,,,,P026,FENCOG,1,Pre,2022_Feb_23_1049,Go No-Go Task,2021.1.4,120.03994929526479,
,"Rule: When you see a yellow image, do not press 'spacebar'.",Images/Happy/HF04_HE.jpg,Happy,Blue,Images/Blue.jpg,space,ParentConditions/YellowYellowBlue_v1.xlsx,YellowYellowBlue,Conditions/Version_1/YellowFearStop.xlsx,no,PASS,0.49340132442678397,,,,,,,,,0,0,0,1,0,0,0,0,0,49,49,49,,,,,,,,,,,,,,,,,,,,,,,,,,,,,,,,,,,,,,,,,,,,,,,,,,,,,,,,,,,,,,,,,,,,,,,,,,,,,,,1.57,455.1736502000001,None,space,1,0.26265849999981583,456.84731609999994,None,456.84731609999994,None,456.84731609999994,None,,,,,,,,,,,P026,FENCOG,1,Pre,2022_Feb_23_1049,Go No-Go Task,2021.1.4,120.03994929526479,
,"Rule: When you see a yellow image, do not press 'spacebar'.",Images/Happy/AM17HAS.jpg,Happy,Blue,Images/Blue.jpg,space,ParentConditions/YellowYellowBlue_v1.xlsx,YellowYellowBlue,Conditions/Version_1/YellowFearStop.xlsx,no,PASS,0.47053997269579284,,,,,,,,,0,0,0,1,0,0,0,0,0,50,50,50,,,,,,,,,,,,,,,,,,,,,,,,,,,,,,,,,,,,,,,,,,,,,,,,,,,,,,,,,,,,,,,,,,,,,,,,,,,,,,,1.21,457.24742279999987,None,space,1,0.3385920000000624,458.56343519999996,None,458.56343519999996,None,458.56343519999996,None,,,,,,,,,,,P026,FENCOG,1,Pre,2022_Feb_23_1049,Go No-Go Task,2021.1.4,120.03994929526479,
,"Rule: When you see a yellow image, do not press 'spacebar'.",Images/Fearful/BM01_FO.jpg,Fear,Yellow,Images/Yellow.jpg,None,ParentConditions/YellowYellowBlue_v1.xlsx,YellowYellowBlue,Conditions/Version_1/YellowFearStop.xlsx,yes,PASS,0.31347174673362443,,,,,,,,,0,0,0,1,0,0,0,0,0,51,51,51,,,,,,,,,,,,,,,,,,,,,,,,,,,,,,,,,,,,,,,,,,,,,,,,,,,,,,,,,,,,,,,,,,,,,,,,,,,,,,,1.73,458.96932979999997,None,None,1,,460.8127455000001,None,460.8127455000001,None,460.8127455000001,None,,,,,,,,,,,P026,FENCOG,1,Pre,2022_Feb_23_1049,Go No-Go Task,2021.1.4,120.03994929526479,
,"Rule: When you see a yellow image, do not press 'spacebar'.",Images/Happy/HF09_HE.jpg,Happy,Blue,Images/Blue.jpg,space,ParentConditions/YellowYellowBlue_v1.xlsx,YellowYellowBlue,Conditions/Version_1/YellowFearStop.xlsx,no,PASS,0.012739972194723559,,,,,,,,,0,0,0,1,0,0,0,0,0,52,52,52,,,,,,,,,,,,,,,,,,,,,,,,,,,,,,,,,,,,,,,,,,,,,,,,,,,,,,,,,,,,,,,,,,,,,,,,,,,,,,,1.53,461.21215270000016,None,space,1,0.2886068000002524,462.84539389999986,None,462.84539389999986,None,462.84539389999986,None,,,,,,,,,,,P026,FENCOG,1,Pre,2022_Feb_23_1049,Go No-Go Task,2021.1.4,120.03994929526479,
,"Rule: When you see a yellow image, do not press 'spacebar'.",Images/Happy/WF11_HE.jpg,Happy,Blue,Images/Blue.jpg,space,ParentConditions/YellowYellowBlue_v1.xlsx,YellowYellowBlue,Conditions/Version_1/YellowFearStop.xlsx,no,PASS,0.5128097154267254,,,,,,,,,0,0,0,1,0,0,0,0,0,53,53,53,,,,,,,,,,,,,,,,,,,,,,,,,,,,,,,,,,,,,,,,,,,,,,,,,,,,,,,,,,,,,,,,,,,,,,,,,,,,,,,1.75,463.25474240000017,None,space,1,0.35048109999979715,465.11145999999985,None,465.11145999999985,None,465.11145999999985,None,,,,,,,,,,,P026,FENCOG,1,Pre,2022_Feb_23_1049,Go No-Go Task,2021.1.4,120.03994929526479,
,"Rule: When you see a yellow image, do not press 'spacebar'.",Images/Fearful/AM04AFS.jpg,Fear,Yellow,Images/Yellow.jpg,None,ParentConditions/YellowYellowBlue_v1.xlsx,YellowYellowBlue,Conditions/Version_1/YellowFearStop.xlsx,yes,PASS,0.4808108011742167,,,,,,,,,0,0,0,1,0,0,0,0,0,54,54,54,,,,,,,,,,,,,,,,,,,,,,,,,,,,,,,,,,,,,,,,,,,,,,,,,,,,,,,,,,,,,,,,,,,,,,,,,,,,,,,1.26,465.52138630000013,None,None,1,,466.8858637000001,None,466.8858637000001,None,466.8858637000001,None,,,,,,,,,,,P026,FENCOG,1,Pre,2022_Feb_23_1049,Go No-Go Task,2021.1.4,120.03994929526479,
,"Rule: When you see a yellow image, do not press 'spacebar'.",Images/Happy/AF19HAS.jpg,Happy,Blue,Images/Blue.jpg,space,ParentConditions/YellowYellowBlue_v1.xlsx,YellowYellowBlue,Conditions/Version_1/YellowFearStop.xlsx,no,PASS,0.3252147007245795,,,,,,,,,0,0,0,1,0,0,0,0,0,55,55,55,,,,,,,,,,,,,,,,,,,,,,,,,,,,,,,,,,,,,,,,,,,,,,,,,,,,,,,,,,,,,,,,,,,,,,,,,,,,,,,1.28,467.2868240999999,None,space,1,0.28130719999990106,468.6688004,None,468.6688004,None,468.6688004,None,,,,,,,,,,,P026,FENCOG,1,Pre,2022_Feb_23_1049,Go No-Go Task,2021.1.4,120.03994929526479,
,"Rule: When you see a yellow image, do not press 'spacebar'.",Images/Happy/HM06_HO.jpg,Happy,Blue,Images/Blue.jpg,space,ParentConditions/YellowYellowBlue_v1.xlsx,YellowYellowBlue,Conditions/Version_1/YellowFearStop.xlsx,no,PASS,0.3282337486862341,,,,,,,,,0,0,0,1,0,0,0,0,0,56,56,56,,,,,,,,,,,,,,,,,,,,,,,,,,,,,,,,,,,,,,,,,,,,,,,,,,,,,,,,,,,,,,,,,,,,,,,,,,,,,,,1.78,469.0677407999999,None,space,1,0.29405929999984437,470.9598118000001,None,470.9598118000001,None,470.9598118000001,None,,,,,,,,,,,P026,FENCOG,1,Pre,2022_Feb_23_1049,Go No-Go Task,2021.1.4,120.03994929526479,
,"Rule: When you see a yellow image, do not press 'spacebar'.",Images/Happy/HF05_HO.jpg,Happy,Blue,Images/Blue.jpg,space,ParentConditions/YellowYellowBlue_v1.xlsx,YellowYellowBlue,Conditions/Version_1/YellowFearStop.xlsx,no,PASS,0.5833391709234322,,,,,,,,,0,0,0,1,0,0,0,0,0,57,57,57,,,,,,,,,,,,,,,,,,,,,,,,,,,,,,,,,,,,,,,,,,,,,,,,,,,,,,,,,,,,,,,,,,,,,,,,,,,,,,,1.92,471.3586726000001,None,space,1,0.3019273999998404,473.3838911999999,None,473.3838911999999,None,473.3838911999999,None,,,,,,,,,,,P026,FENCOG,1,Pre,2022_Feb_23_1049,Go No-Go Task,2021.1.4,120.03994929526479,
,"Rule: When you see a yellow image, do not press 'spacebar'.",Images/Fearful/AF01_FO.jpg,Fear,Yellow,Images/Yellow.jpg,None,ParentConditions/YellowYellowBlue_v1.xlsx,YellowYellowBlue,Conditions/Version_1/YellowFearStop.xlsx,yes,PASS,0.3034900725746609,,,,,,,,,0,0,0,1,0,0,0,0,0,58,58,58,,,,,,,,,,,,,,,,,,,,,,,,,,,,,,,,,,,,,,,,,,,,,,,,,,,,,,,,,,,,,,,,,,,,,,,,,,,,,,,1.77,473.7868893000002,None,None,1,,475.6584799999998,None,475.6584799999998,None,475.6584799999998,None,,,,,,,,,,,P026,FENCOG,1,Pre,2022_Feb_23_1049,Go No-Go Task,2021.1.4,120.03994929526479,
,"Rule: When you see a yellow image, do not press 'spacebar'.",Images/Happy/AF21HAS.jpg,Happy,Blue,Images/Blue.jpg,space,ParentConditions/YellowYellowBlue_v1.xlsx,YellowYellowBlue,Conditions/Version_1/YellowFearStop.xlsx,no,PASS,0.9799702127391234,,,,,,,,,0,0,0,1,0,0,0,0,0,59,59,59,,,,,,,,,,,,,,,,,,,,,,,,,,,,,,,,,,,,,,,,,,,,,,,,,,,,,,,,,,,,,,,,,,,,,,,,,,,,,,,1.99,476.0588159000001,None,space,1,0.2719571999996333,478.15770780000025,None,478.15770780000025,None,478.15770780000025,None,,,,,,,,,,,P026,FENCOG,1,Pre,2022_Feb_23_1049,Go No-Go Task,2021.1.4,120.03994929526479,
,"Rule: When you see a yellow image, do not press 'spacebar'.",Images/Happy/AM06_HC.jpg,Happy,Blue,Images/Blue.jpg,space,ParentConditions/YellowYellowBlue_v1.xlsx,YellowYellowBlue,Conditions/Version_1/YellowFearStop.xlsx,no,PASS,0.29816427390759137,,,,,,,,,0,0,0,1,0,0,0,0,0,60,60,60,,,,,,,,,,,,,,,,,,,,,,,,,,,,,,,,,,,,,,,,,,,,,,,,,,,,,,,,,,,,,,,,,,,,,,,,,,,,,,,1.3,478.5606814,None,None,0,,479.96543469999983,None,479.96543469999983,None,479.96543469999983,None,,,,,,,,,,,P026,FENCOG,1,Pre,2022_Feb_23_1049,Go No-Go Task,2021.1.4,120.03994929526479,
,"Rule: When you see a yellow image, do not press 'spacebar'.",Images/Fearful/AF02AFS.jpg,Fear,Yellow,Images/Yellow.jpg,None,ParentConditions/YellowYellowBlue_v1.xlsx,YellowYellowBlue,Conditions/Version_1/YellowFearStop.xlsx,yes,PASS,0.15582520477375605,,,,,,,,,0,0,0,1,0,0,0,0,0,61,61,61,,,,,,,,,,,,,,,,,,,,,,,,,,,,,,,,,,,,,,,,,,,,,,,,,,,,,,,,,,,,,,,,,,,,,,,,,,,,,,,1.47,480.3662038,None,None,1,,481.94020449999994,None,481.94020449999994,None,481.94020449999994,None,,,,,,,,,,,P026,FENCOG,1,Pre,2022_Feb_23_1049,Go No-Go Task,2021.1.4,120.03994929526479,
,"Rule: When you see a yellow image, do not press 'spacebar'.",Images/Happy/AF25HAS.jpg,Happy,Blue,Images/Blue.jpg,space,ParentConditions/YellowYellowBlue_v1.xlsx,YellowYellowBlue,Conditions/Version_1/YellowFearStop.xlsx,no,PASS,0.7963653427272854,,,,,,,,,0,0,0,1,0,0,0,0,0,62,62,62,,,,,,,,,,,,,,,,,,,,,,,,,,,,,,,,,,,,,,,,,,,,,,,,,,,,,,,,,,,,,,,,,,,,,,,,,,,,,,,1.69,482.3390643,None,space,1,0.2831527000003007,484.1308725000001,None,484.1308725000001,None,484.1308725000001,None,,,,,,,,,,,P026,FENCOG,1,Pre,2022_Feb_23_1049,Go No-Go Task,2021.1.4,120.03994929526479,
,"Rule: When you see a yellow image, do not press 'spacebar'.",Images/Happy/AM32HAS.jpg,Happy,Blue,Images/Blue.jpg,space,ParentConditions/YellowYellowBlue_v1.xlsx,YellowYellowBlue,Conditions/Version_1/YellowFearStop.xlsx,no,PASS,0.2823557460482189,,,,,,,,,0,0,0,1,0,0,0,0,0,63,63,63,,,,,,,,,,,,,,,,,,,,,,,,,,,,,,,,,,,,,,,,,,,,,,,,,,,,,,,,,,,,,,,,,,,,,,,,,,,,,,,1.68,484.5317415000002,None,space,1,0.3721381000000292,486.3135672000001,None,486.3135672000001,None,486.3135672000001,None,,,,,,,,,,,P026,FENCOG,1,Pre,2022_Feb_23_1049,Go No-Go Task,2021.1.4,120.03994929526479,
,"Rule: When you see a yellow image, do not press 'spacebar'.",Images/Fearful/AM02_FO.jpg,Fear,Yellow,Images/Yellow.jpg,None,ParentConditions/YellowYellowBlue_v1.xlsx,YellowYellowBlue,Conditions/Version_1/YellowFearStop.xlsx,yes,PASS,0.8481624514007016,,,,,,,,,0,0,0,1,0,0,0,0,0,64,64,64,,,,,,,,,,,,,,,,,,,,,,,,,,,,,,,,,,,,,,,,,,,,,,,,,,,,,,,,,,,,,,,,,,,,,,,,,,,,,,,1.81,486.7154625999999,None,None,1,,488.6380889999998,None,488.6380889999998,None,488.6380889999998,None,,,,,,,,,,,P026,FENCOG,1,Pre,2022_Feb_23_1049,Go No-Go Task,2021.1.4,120.03994929526479,
,"Rule: When you see a yellow image, do not press 'spacebar'.",Images/Fearful/BM02_FC.jpg,Fear,Yellow,Images/Yellow.jpg,None,ParentConditions/YellowYellowBlue_v1.xlsx,YellowYellowBlue,Conditions/Version_1/YellowFearStop.xlsx,yes,PASS,0.7033474445186839,,,,,,,,,0,0,0,1,0,0,0,0,0,65,65,65,,,,,,,,,,,,,,,,,,,,,,,,,,,,,,,,,,,,,,,,,,,,,,,,,,,,,,,,,,,,,,,,,,,,,,,,,,,,,,,1.24,489.0369208999998,None,space,0,0.2987383999998201,490.3790901,None,490.3790901,None,490.3790901,None,,,,,,,,,,,P026,FENCOG,1,Pre,2022_Feb_23_1049,Go No-Go Task,2021.1.4,120.03994929526479,
,"Rule: When you see a yellow image, do not press 'spacebar'.",Images/Happy/AM04_HE.jpg,Happy,Blue,Images/Blue.jpg,space,ParentConditions/YellowYellowBlue_v1.xlsx,YellowYellowBlue,Conditions/Version_1/YellowFearStop.xlsx,no,PASS,0.1954454647057855,,,,,,,,,0,0,0,1,0,0,0,0,0,66,66,66,,,,,,,,,,,,,,,,,,,,,,,,,,,,,,,,,,,,,,,,,,,,,,,,,,,,,,,,,,,,,,,,,,,,,,,,,,,,,,,1.65,490.7797468000001,None,space,1,0.3009925999999723,492.5367152000001,None,492.5367152000001,None,492.5367152000001,None,,,,,,,,,,,P026,FENCOG,1,Pre,2022_Feb_23_1049,Go No-Go Task,2021.1.4,120.03994929526479,
,"Rule: When you see a yellow image, do not press 'spacebar'.",Images/Fearful/AM05AFS.jpg,Fear,Yellow,Images/Yellow.jpg,None,ParentConditions/YellowYellowBlue_v1.xlsx,YellowYellowBlue,Conditions/Version_1/YellowFearStop.xlsx,yes,PASS,0.6459336406761428,,,,,,,,,0,0,0,1,0,0,0,0,0,67,67,67,,,,,,,,,,,,,,,,,,,,,,,,,,,,,,,,,,,,,,,,,,,,,,,,,,,,,,,,,,,,,,,,,,,,,,,,,,,,,,,1.84,492.93877670000006,None,None,1,,494.9028372,None,494.9028372,None,494.9028372,None,,,,,,,,,,,P026,FENCOG,1,Pre,2022_Feb_23_1049,Go No-Go Task,2021.1.4,120.03994929526479,
,"Rule: When you see a yellow image, do not press 'spacebar'.",Images/Happy/AF28HAS.jpg,Happy,Blue,Images/Blue.jpg,space,ParentConditions/YellowYellowBlue_v1.xlsx,YellowYellowBlue,Conditions/Version_1/YellowFearStop.xlsx,no,PASS,0.16840775809852682,,,,,,,,,0,0,0,1,0,0,0,0,0,68,68,68,,,,,,,,,,,,,,,,,,,,,,,,,,,,,,,,,,,,,,,,,,,,,,,,,,,,,,,,,,,,,,,,,,,,,,,,,,,,,,,1.86,495.2932100999999,None,space,1,0.3372605999998086,497.2604448999998,None,497.2604448999998,None,497.2604448999998,None,,,,,,,,,,,P026,FENCOG,1,Pre,2022_Feb_23_1049,Go No-Go Task,2021.1.4,120.03994929526479,
,"Rule: When you see a yellow image, do not press 'spacebar'.",Images/Happy/AF07_HO.jpg,Happy,Blue,Images/Blue.jpg,space,ParentConditions/YellowYellowBlue_v1.xlsx,YellowYellowBlue,Conditions/Version_1/YellowFearStop.xlsx,no,PASS,0.8921854253161821,,,,,,,,,0,0,0,1,0,0,0,0,0,69,69,69,,,,,,,,,,,,,,,,,,,,,,,,,,,,,,,,,,,,,,,,,,,,,,,,,,,,,,,,,,,,,,,,,,,,,,,,,,,,,,,2,497.66602990000024,None,space,1,0.32554030000028433,499.7762617000001,None,499.7762617000001,None,499.7762617000001,None,,,,,,,,,,,P026,FENCOG,1,Pre,2022_Feb_23_1049,Go No-Go Task,2021.1.4,120.03994929526479,
,"Rule: When you see a yellow image, do not press 'spacebar'.",Images/Happy/BF14_HO.jpg,Happy,Blue,Images/Blue.jpg,space,ParentConditions/YellowYellowBlue_v1.xlsx,YellowYellowBlue,Conditions/Version_1/YellowFearStop.xlsx,no,PASS,0.11340023271387378,,,,,,,,,0,0,0,1,0,0,0,0,0,70,70,70,,,,,,,,,,,,,,,,,,,,,,,,,,,,,,,,,,,,,,,,,,,,,,,,,,,,,,,,,,,,,,,,,,,,,,,,,,,,,,,1.66,500.1752270999998,None,space,1,0.3115026999998918,501.94240190000005,None,501.94240190000005,None,501.94240190000005,None,,,,,,,,,,,P026,FENCOG,1,Pre,2022_Feb_23_1049,Go No-Go Task,2021.1.4,120.03994929526479,
,"Rule: When you see a yellow image, do not press 'spacebar'.",Images/Fearful/AF07FS.jpg,Fear,Yellow,Images/Yellow.jpg,None,ParentConditions/YellowYellowBlue_v1.xlsx,YellowYellowBlue,Conditions/Version_1/YellowFearStop.xlsx,yes,PASS,0.01772114652951917,,,,,,,,,0,0,0,1,0,0,0,0,0,71,71,71,,,,,,,,,,,,,,,,,,,,,,,,,,,,,,,,,,,,,,,,,,,,,,,,,,,,,,,,,,,,,,,,,,,,,,,,,,,,,,,1.44,502.3515734,None,None,1,,503.8916892999998,None,503.8916892999998,None,503.8916892999998,None,,,,,,,,,,,P026,FENCOG,1,Pre,2022_Feb_23_1049,Go No-Go Task,2021.1.4,120.03994929526479,
,"Rule: When you see a yellow image, do not press 'spacebar'.",Images/Happy/AF32HAS.jpg,Happy,Blue,Images/Blue.jpg,space,ParentConditions/YellowYellowBlue_v1.xlsx,YellowYellowBlue,Conditions/Version_1/YellowFearStop.xlsx,no,PASS,0.351428612146247,,,,,,,,,0,0,0,1,0,0,0,0,0,72,72,72,,,,,,,,,,,,,,,,,,,,,,,,,,,,,,,,,,,,,,,,,,,,,,,,,,,,,,,,,,,,,,,,,,,,,,,,,,,,,,,1.39,504.2920873999999,None,space,1,0.2789118000000599,505.7829300000001,None,505.7829300000001,None,505.7829300000001,None,,,,,,,,,,,P026,FENCOG,1,Pre,2022_Feb_23_1049,Go No-Go Task,2021.1.4,120.03994929526479,
,"Rule: When you see a yellow image, do not press 'spacebar'.",Images/Happy/AF11HAS.jpg,Happy,Blue,Images/Blue.jpg,space,ParentConditions/YellowYellowBlue_v1.xlsx,YellowYellowBlue,Conditions/Version_1/YellowFearStop.xlsx,no,PASS,0.5437174345826498,,,,,,,,,0,0,0,1,0,0,0,0,0,73,73,73,,,,,,,,,,,,,,,,,,,,,,,,,,,,,,,,,,,,,,,,,,,,,,,,,,,,,,,,,,,,,,,,,,,,,,,,,,,,,,,1.38,506.1899457000002,None,space,1,0.2998090000000957,507.6739721000001,None,507.6739721000001,None,507.6739721000001,None,,,,,,,,,,,P026,FENCOG,1,Pre,2022_Feb_23_1049,Go No-Go Task,2021.1.4,120.03994929526479,
,"Rule: When you see a yellow image, do not press 'spacebar'.",Images/Happy/AM19HAS.jpg,Happy,Blue,Images/Blue.jpg,space,ParentConditions/YellowYellowBlue_v1.xlsx,YellowYellowBlue,Conditions/Version_1/YellowFearStop.xlsx,no,PASS,0.4048546584074827,,,,,,,,,0,0,0,1,0,0,0,0,0,74,74,74,,,,,,,,,,,,,,,,,,,,,,,,,,,,,,,,,,,,,,,,,,,,,,,,,,,,,,,,,,,,,,,,,,,,,,,,,,,,,,,1.87,508.0747729000002,None,space,1,0.31725550000010116,510.0564885000001,None,510.0564885000001,None,510.0564885000001,None,,,,,,,,,,,P026,FENCOG,1,Pre,2022_Feb_23_1049,Go No-Go Task,2021.1.4,120.03994929526479,
,"Rule: When you see a yellow image, do not press 'spacebar'.",Images/Happy/AM01HAS.jpg,Happy,Blue,Images/Blue.jpg,space,ParentConditions/YellowYellowBlue_v1.xlsx,YellowYellowBlue,Conditions/Version_1/YellowFearStop.xlsx,no,PASS,0.668098744931977,,,,,,,,,0,0,0,1,0,0,0,0,0,75,75,75,,,,,,,,,,,,,,,,,,,,,,,,,,,,,,,,,,,,,,,,,,,,,,,,,,,,,,,,,,,,,,,,,,,,,,,,,,,,,,,1.67,510.45338419999985,None,space,1,0.3510380000002442,512.2309100999998,None,512.2309100999998,None,512.2309100999998,None,,,,,,,,,,,P026,FENCOG,1,Pre,2022_Feb_23_1049,Go No-Go Task,2021.1.4,120.03994929526479,
,"Rule: When you see a yellow image, do not press 'spacebar'.",Images/Happy/WF05_HC.jpg,Happy,Blue,Images/Blue.jpg,space,ParentConditions/YellowYellowBlue_v1.xlsx,YellowYellowBlue,Conditions/Version_1/YellowFearStop.xlsx,no,PASS,0.3346503168901146,,,,,,,,,0,0,0,1,0,0,0,0,0,76,76,76,,,,,,,,,,,,,,,,,,,,,,,,,,,,,,,,,,,,,,,,,,,,,,,,,,,,,,,,,,,,,,,,,,,,,,,,,,,,,,,1.5,512.63849,None,space,1,0.3030530999999428,514.2388423999998,None,514.2388423999998,None,514.2388423999998,None,,,,,,,,,,,P026,FENCOG,1,Pre,2022_Feb_23_1049,Go No-Go Task,2021.1.4,120.03994929526479,
,"Rule: When you see a yellow image, do not press 'spacebar'.",Images/Happy/BM03_HO.jpg,Happy,Blue,Images/Blue.jpg,space,ParentConditions/YellowYellowBlue_v1.xlsx,YellowYellowBlue,Conditions/Version_1/YellowFearStop.xlsx,no,PASS,0.8309182769230548,,,,,,,,,0,0,0,1,0,0,0,0,0,77,77,77,,,,,,,,,,,,,,,,,,,,,,,,,,,,,,,,,,,,,,,,,,,,,,,,,,,,,,,,,,,,,,,,,,,,,,,,,,,,,,,1.88,514.6435039,None,space,1,0.28015559999994366,516.6296255,None,516.6296255,None,516.6296255,None,,,,,,,,,,,P026,FENCOG,1,Pre,2022_Feb_23_1049,Go No-Go Task,2021.1.4,120.03994929526479,
,"Rule: When you see a yellow image, do not press 'spacebar'.",Images/Happy/AM02_HE.jpg,Happy,Blue,Images/Blue.jpg,space,ParentConditions/YellowYellowBlue_v1.xlsx,YellowYellowBlue,Conditions/Version_1/YellowFearStop.xlsx,no,PASS,0.732833616031058,,,,,,,,,0,0,0,1,0,0,0,0,0,78,78,78,,,,,,,,,,,,,,,,,,,,,,,,,,,,,,,,,,,,,,,,,,,,,,,,,,,,,,,,,,,,,,,,,,,,,,,,,,,,,,,1.7,517.0386520999998,None,space,1,0.3202907999998388,518.8456604999999,None,518.8456604999999,None,518.8456604999999,None,,,,,,,,,,,P026,FENCOG,1,Pre,2022_Feb_23_1049,Go No-Go Task,2021.1.4,120.03994929526479,
,"Rule: When you see a yellow image, do not press 'spacebar'.",Images/Fearful/AM06_FO.jpg,Fear,Yellow,Images/Yellow.jpg,None,ParentConditions/YellowYellowBlue_v1.xlsx,YellowYellowBlue,Conditions/Version_1/YellowFearStop.xlsx,yes,PASS,0.2239834878173258,,,,,,,,,0,0,0,1,0,0,0,0,0,79,79,79,,,,,,,,,,,,,,,,,,,,,,,,,,,,,,,,,,,,,,,,,,,,,,,,,,,,,,,,,,,,,,,,,,,,,,,,,,,,,,,1.22,519.2466623000003,None,None,1,,520.5702193999998,None,520.5702193999998,None,520.5702193999998,None,,,,,,,,,,,P026,FENCOG,1,Pre,2022_Feb_23_1049,Go No-Go Task,2021.1.4,120.03994929526479,
,"Rule: When you see a yellow image, do not press 'spacebar'.",Images/Scram2/HM09_NC.jpg,Scramble,Blue,Images/Blue.jpg,space,ParentConditions/YellowYellowBlue_v1.xlsx,YellowYellowBlue,Conditions/Version_1/YellowScramStop.xlsx,no,PASS,0.16546209529303746,,,,,,,,,0,0,0,1,0,1,1,1,0,0,0,0,,,,,,,,,,,,,,,,,,,,,,,,,,,,,,,,,,,,,,,,,,,,,,,,,,,,,,,,,,,,,,,,,537.387712,None,540.3904623000001,None,space,2.367358299999978,540.3904623000001,None,537.387712,None,537.387712,None,537.387712,None,1.36,542.8059108,None,None,0,,544.2799209000002,None,544.2799209000002,None,544.2799209000002,None,520.9787005000001,None,space,15.896482500000275,521.4693193,None,520.9787005000001,None,520.9787005000001,None,P026,FENCOG,1,Pre,2022_Feb_23_1049,Go No-Go Task,2021.1.4,120.03994929526479,
,"Rule: When you see a yellow image, do not press 'spacebar'.",Images/Scram2/HM06_NC.jpg,Scramble,Blue,Images/Blue.jpg,space,ParentConditions/YellowYellowBlue_v1.xlsx,YellowYellowBlue,Conditions/Version_1/YellowScramStop.xlsx,no,PASS,0.8979675286244925,,,,,,,,,0,0,0,1,0,1,1,1,0,1,1,1,,,,,,,,,,,,,,,,,,,,,,,,,,,,,,,,,,,,,,,,,,,,,,,,,,,,,,,,,,,,,,,,,,,,,,,,,,,,,,,1.51,544.6810610999999,None,space,1,0.28569470000002184,546.2959327000001,None,546.2959327000001,None,546.2959327000001,None,,,,,,,,,,,P026,FENCOG,1,Pre,2022_Feb_23_1049,Go No-Go Task,2021.1.4,120.03994929526479,
,"Rule: When you see a yellow image, do not press 'spacebar'.",Images/Scram1/AM31NES.jpg,Scramble,Blue,Images/Blue.jpg,space,ParentConditions/YellowYellowBlue_v1.xlsx,YellowYellowBlue,Conditions/Version_1/YellowScramStop.xlsx,no,PASS,0.9231879679928262,,,,,,,,,0,0,0,1,0,1,1,1,0,2,2,2,,,,,,,,,,,,,,,,,,,,,,,,,,,,,,,,,,,,,,,,,,,,,,,,,,,,,,,,,,,,,,,,,,,,,,,,,,,,,,,1.66,546.6950911000001,None,space,1,0.2636430000002292,548.4619878000001,None,548.4619878000001,None,548.4619878000001,None,,,,,,,,,,,P026,FENCOG,1,Pre,2022_Feb_23_1049,Go No-Go Task,2021.1.4,120.03994929526479,
,"Rule: When you see a yellow image, do not press 'spacebar'.",Images/Scram2/AM03NES.jpg,Scramble,Yellow,Images/Yellow.jpg,None,ParentConditions/YellowYellowBlue_v1.xlsx,YellowYellowBlue,Conditions/Version_1/YellowScramStop.xlsx,yes,PASS,0.5123844621609239,,,,,,,,,0,0,0,1,0,1,1,1,0,3,3,3,,,,,,,,,,,,,,,,,,,,,,,,,,,,,,,,,,,,,,,,,,,,,,,,,,,,,,,,,,,,,,,,,,,,,,,,,,,,,,,1.41,548.8612592000002,None,None,1,,550.3864056999998,None,550.3864056999998,None,550.3864056999998,None,,,,,,,,,,,P026,FENCOG,1,Pre,2022_Feb_23_1049,Go No-Go Task,2021.1.4,120.03994929526479,
,"Rule: When you see a yellow image, do not press 'spacebar'.",Images/Scram2/BM01_NC.jpg,Scramble,Blue,Images/Blue.jpg,space,ParentConditions/YellowYellowBlue_v1.xlsx,YellowYellowBlue,Conditions/Version_1/YellowScramStop.xlsx,no,PASS,0.9647622626448304,,,,,,,,,0,0,0,1,0,1,1,1,0,4,4,4,,,,,,,,,,,,,,,,,,,,,,,,,,,,,,,,,,,,,,,,,,,,,,,,,,,,,,,,,,,,,,,,,,,,,,,,,,,,,,,1.3,550.7853066,None,None,0,,552.1859160000001,None,552.1859160000001,None,552.1859160000001,None,,,,,,,,,,,P026,FENCOG,1,Pre,2022_Feb_23_1049,Go No-Go Task,2021.1.4,120.03994929526479,
,"Rule: When you see a yellow image, do not press 'spacebar'.",Images/Scram1/HM09_NC.jpg,Scramble,Blue,Images/Blue.jpg,space,ParentConditions/YellowYellowBlue_v1.xlsx,YellowYellowBlue,Conditions/Version_1/YellowScramStop.xlsx,no,PASS,0.0006879251870249847,,,,,,,,,0,0,0,1,0,1,1,1,0,5,5,5,,,,,,,,,,,,,,,,,,,,,,,,,,,,,,,,,,,,,,,,,,,,,,,,,,,,,,,,,,,,,,,,,,,,,,,,,,,,,,,1.59,552.5909853,None,space,1,0.37665100000003804,554.2851598,None,554.2851598,None,554.2851598,None,,,,,,,,,,,P026,FENCOG,1,Pre,2022_Feb_23_1049,Go No-Go Task,2021.1.4,120.03994929526479,
,"Rule: When you see a yellow image, do not press 'spacebar'.",Images/Scram2/BF07_NC.jpg,Scramble,Blue,Images/Blue.jpg,space,ParentConditions/YellowYellowBlue_v1.xlsx,YellowYellowBlue,Conditions/Version_1/YellowScramStop.xlsx,no,PASS,0.9958823679259557,,,,,,,,,0,0,0,1,0,1,1,1,0,6,6,6,,,,,,,,,,,,,,,,,,,,,,,,,,,,,,,,,,,,,,,,,,,,,,,,,,,,,,,,,,,,,,,,,,,,,,,,,,,,,,,1.62,554.6861185999999,None,space,1,0.2837862999999743,556.4180106000001,None,556.4180106000001,None,556.4180106000001,None,,,,,,,,,,,P026,FENCOG,1,Pre,2022_Feb_23_1049,Go No-Go Task,2021.1.4,120.03994929526479,
,"Rule: When you see a yellow image, do not press 'spacebar'.",Images/Scram1/BF14_NC.jpg,Scramble,Blue,Images/Blue.jpg,space,ParentConditions/YellowYellowBlue_v1.xlsx,YellowYellowBlue,Conditions/Version_1/YellowScramStop.xlsx,no,PASS,0.23975965807979494,,,,,,,,,0,0,0,1,0,1,1,1,0,7,7,7,,,,,,,,,,,,,,,,,,,,,,,,,,,,,,,,,,,,,,,,,,,,,,,,,,,,,,,,,,,,,,,,,,,,,,,,,,,,,,,1.65,556.816908,None,None,0,,558.5673213000002,None,558.5673213000002,None,558.5673213000002,None,,,,,,,,,,,P026,FENCOG,1,Pre,2022_Feb_23_1049,Go No-Go Task,2021.1.4,120.03994929526479,
,"Rule: When you see a yellow image, do not press 'spacebar'.",Images/Scram2/AF10_NC.jpg,Scramble,Blue,Images/Blue.jpg,space,ParentConditions/YellowYellowBlue_v1.xlsx,YellowYellowBlue,Conditions/Version_1/YellowScramStop.xlsx,no,PASS,0.23192838167496266,,,,,,,,,0,0,0,1,0,1,1,1,0,8,8,8,,,,,,,,,,,,,,,,,,,,,,,,,,,,,,,,,,,,,,,,,,,,,,,,,,,,,,,,,,,,,,,,,,,,,,,,,,,,,,,1.35,558.9680639000001,None,space,1,0.29265680000025895,560.4250920000002,None,560.4250920000002,None,560.4250920000002,None,,,,,,,,,,,P026,FENCOG,1,Pre,2022_Feb_23_1049,Go No-Go Task,2021.1.4,120.03994929526479,
,"Rule: When you see a yellow image, do not press 'spacebar'.",Images/Scram2/AF01_NC.jpg,Scramble,Blue,Images/Blue.jpg,space,ParentConditions/YellowYellowBlue_v1.xlsx,YellowYellowBlue,Conditions/Version_1/YellowScramStop.xlsx,no,PASS,0.030564678936407685,,,,,,,,,0,0,0,1,0,1,1,1,0,9,9,9,,,,,,,,,,,,,,,,,,,,,,,,,,,,,,,,,,,,,,,,,,,,,,,,,,,,,,,,,,,,,,,,,,,,,,,,,,,,,,,1.45,560.8304667,None,space,1,0.31140080000022863,562.3827755999998,None,562.3827755999998,None,562.3827755999998,None,,,,,,,,,,,P026,FENCOG,1,Pre,2022_Feb_23_1049,Go No-Go Task,2021.1.4,120.03994929526479,
,"Rule: When you see a yellow image, do not press 'spacebar'.",Images/Scram2/AF24NES.jpg,Scramble,Blue,Images/Blue.jpg,space,ParentConditions/YellowYellowBlue_v1.xlsx,YellowYellowBlue,Conditions/Version_1/YellowScramStop.xlsx,no,PASS,0.3257124610951796,,,,,,,,,0,0,0,1,0,1,1,1,0,10,10,10,,,,,,,,,,,,,,,,,,,,,,,,,,,,,,,,,,,,,,,,,,,,,,,,,,,,,,,,,,,,,,,,,,,,,,,,,,,,,,,1.58,562.7863333000003,None,space,1,0.27577300000029936,564.4739817000002,None,564.4739817000002,None,564.4739817000002,None,,,,,,,,,,,P026,FENCOG,1,Pre,2022_Feb_23_1049,Go No-Go Task,2021.1.4,120.03994929526479,
,"Rule: When you see a yellow image, do not press 'spacebar'.",Images/Scram2/BF14_NC.jpg,Scramble,Blue,Images/Blue.jpg,space,ParentConditions/YellowYellowBlue_v1.xlsx,YellowYellowBlue,Conditions/Version_1/YellowScramStop.xlsx,no,PASS,0.7452625323265352,,,,,,,,,0,0,0,1,0,1,1,1,0,11,11,11,,,,,,,,,,,,,,,,,,,,,,,,,,,,,,,,,,,,,,,,,,,,,,,,,,,,,,,,,,,,,,,,,,,,,,,,,,,,,,,1.73,564.8740922,None,space,1,0.22690030000012484,566.7148631000002,None,566.7148631000002,None,566.7148631000002,None,,,,,,,,,,,P026,FENCOG,1,Pre,2022_Feb_23_1049,Go No-Go Task,2021.1.4,120.03994929526479,
,"Rule: When you see a yellow image, do not press 'spacebar'.",Images/Scram1/AM13NES.jpg,Scramble,Blue,Images/Blue.jpg,space,ParentConditions/YellowYellowBlue_v1.xlsx,YellowYellowBlue,Conditions/Version_1/YellowScramStop.xlsx,no,PASS,0.49399354825257,,,,,,,,,0,0,0,1,0,1,1,1,0,12,12,12,,,,,,,,,,,,,,,,,,,,,,,,,,,,,,,,,,,,,,,,,,,,,,,,,,,,,,,,,,,,,,,,,,,,,,,,,,,,,,,1.68,567.1137973000002,None,space,1,0.31623279999985243,568.8975321999999,None,568.8975321999999,None,568.8975321999999,None,,,,,,,,,,,P026,FENCOG,1,Pre,2022_Feb_23_1049,Go No-Go Task,2021.1.4,120.03994929526479,
,"Rule: When you see a yellow image, do not press 'spacebar'.",Images/Scram1/HM04_NC.jpg,Scramble,Blue,Images/Blue.jpg,space,ParentConditions/YellowYellowBlue_v1.xlsx,YellowYellowBlue,Conditions/Version_1/YellowScramStop.xlsx,no,PASS,0.18467466618813977,,,,,,,,,0,0,0,1,0,1,1,1,0,13,13,13,,,,,,,,,,,,,,,,,,,,,,,,,,,,,,,,,,,,,,,,,,,,,,,,,,,,,,,,,,,,,,,,,,,,,,,,,,,,,,,1.84,569.2969420000002,None,space,1,0.26271889999998166,571.2469908,None,571.2469908,None,571.2469908,None,,,,,,,,,,,P026,FENCOG,1,Pre,2022_Feb_23_1049,Go No-Go Task,2021.1.4,120.03994929526479,
,"Rule: When you see a yellow image, do not press 'spacebar'.",Images/Scram1/AM03NES.jpg,Scramble,Blue,Images/Blue.jpg,space,ParentConditions/YellowYellowBlue_v1.xlsx,YellowYellowBlue,Conditions/Version_1/YellowScramStop.xlsx,no,PASS,0.036392655954534225,,,,,,,,,0,0,0,1,0,1,1,1,0,14,14,14,,,,,,,,,,,,,,,,,,,,,,,,,,,,,,,,,,,,,,,,,,,,,,,,,,,,,,,,,,,,,,,,,,,,,,,,,,,,,,,1.69,571.6466925000002,None,space,1,0.26395880000018224,573.4379132000001,None,573.4379132000001,None,573.4379132000001,None,,,,,,,,,,,P026,FENCOG,1,Pre,2022_Feb_23_1049,Go No-Go Task,2021.1.4,120.03994929526479,
,"Rule: When you see a yellow image, do not press 'spacebar'.",Images/Scram1/AM22NES.jpg,Scramble,Blue,Images/Blue.jpg,space,ParentConditions/YellowYellowBlue_v1.xlsx,YellowYellowBlue,Conditions/Version_1/YellowScramStop.xlsx,no,PASS,0.46426586463932284,,,,,,,,,0,0,0,1,0,1,1,1,0,15,15,15,,,,,,,,,,,,,,,,,,,,,,,,,,,,,,,,,,,,,,,,,,,,,,,,,,,,,,,,,,,,,,,,,,,,,,,,,,,,,,,1.53,573.8451330999999,None,space,1,0.27071920000025784,575.4790568999999,None,575.4790568999999,None,575.4790568999999,None,,,,,,,,,,,P026,FENCOG,1,Pre,2022_Feb_23_1049,Go No-Go Task,2021.1.4,120.03994929526479,
,"Rule: When you see a yellow image, do not press 'spacebar'.",Images/Scram2/AM17NES.jpg,Scramble,Yellow,Images/Yellow.jpg,None,ParentConditions/YellowYellowBlue_v1.xlsx,YellowYellowBlue,Conditions/Version_1/YellowScramStop.xlsx,yes,PASS,0.9679079792094736,,,,,,,,,0,0,0,1,0,1,1,1,0,16,16,16,,,,,,,,,,,,,,,,,,,,,,,,,,,,,,,,,,,,,,,,,,,,,,,,,,,,,,,,,,,,,,,,,,,,,,,,,,,,,,,1.55,575.8783636000001,None,space,0,0.2534262999997736,577.5284137000001,None,577.5284137000001,None,577.5284137000001,None,,,,,,,,,,,P026,FENCOG,1,Pre,2022_Feb_23_1049,Go No-Go Task,2021.1.4,120.03994929526479,
,"Rule: When you see a yellow image, do not press 'spacebar'.",Images/Scram1/AM10NES.jpg,Scramble,Blue,Images/Blue.jpg,space,ParentConditions/YellowYellowBlue_v1.xlsx,YellowYellowBlue,Conditions/Version_1/YellowScramStop.xlsx,no,PASS,0.60606204058038,,,,,,,,,0,0,0,1,0,1,1,1,0,17,17,17,,,,,,,,,,,,,,,,,,,,,,,,,,,,,,,,,,,,,,,,,,,,,,,,,,,,,,,,,,,,,,,,,,,,,,,,,,,,,,,1.67,577.9328530999999,None,space,1,0.318938899999921,579.7027372,None,579.7027372,None,579.7027372,None,,,,,,,,,,,P026,FENCOG,1,Pre,2022_Feb_23_1049,Go No-Go Task,2021.1.4,120.03994929526479,
,"Rule: When you see a yellow image, do not press 'spacebar'.",Images/Scram2/AM03_NC.jpg,Scramble,Yellow,Images/Yellow.jpg,None,ParentConditions/YellowYellowBlue_v1.xlsx,YellowYellowBlue,Conditions/Version_1/YellowScramStop.xlsx,yes,PASS,0.375029210281841,,,,,,,,,0,0,0,1,0,1,1,1,0,18,18,18,,,,,,,,,,,,,,,,,,,,,,,,,,,,,,,,,,,,,,,,,,,,,,,,,,,,,,,,,,,,,,,,,,,,,,,,,,,,,,,1.33,580.1044502000002,None,None,1,,581.5356285999999,None,581.5356285999999,None,581.5356285999999,None,,,,,,,,,,,P026,FENCOG,1,Pre,2022_Feb_23_1049,Go No-Go Task,2021.1.4,120.03994929526479,
,"Rule: When you see a yellow image, do not press 'spacebar'.",Images/Scram1/HF09_NC.jpg,Scramble,Blue,Images/Blue.jpg,space,ParentConditions/YellowYellowBlue_v1.xlsx,YellowYellowBlue,Conditions/Version_1/YellowScramStop.xlsx,no,PASS,0.5505947352432977,,,,,,,,,0,0,0,1,0,1,1,1,0,19,19,19,,,,,,,,,,,,,,,,,,,,,,,,,,,,,,,,,,,,,,,,,,,,,,,,,,,,,,,,,,,,,,,,,,,,,,,,,,,,,,,1.37,581.9361191,None,space,1,0.2999790999997458,583.4099778000002,None,583.4099778000002,None,583.4099778000002,None,,,,,,,,,,,P026,FENCOG,1,Pre,2022_Feb_23_1049,Go No-Go Task,2021.1.4,120.03994929526479,
,"Rule: When you see a yellow image, do not press 'spacebar'.",Images/Scram1/BM08_NC.jpg,Scramble,Blue,Images/Blue.jpg,space,ParentConditions/YellowYellowBlue_v1.xlsx,YellowYellowBlue,Conditions/Version_1/YellowScramStop.xlsx,no,PASS,0.1123919377407171,,,,,,,,,0,0,0,1,0,1,1,1,0,20,20,20,,,,,,,,,,,,,,,,,,,,,,,,,,,,,,,,,,,,,,,,,,,,,,,,,,,,,,,,,,,,,,,,,,,,,,,,,,,,,,,1.22,583.8122945000002,None,space,1,0.2795218000001114,585.1344803,None,585.1344803,None,585.1344803,None,,,,,,,,,,,P026,FENCOG,1,Pre,2022_Feb_23_1049,Go No-Go Task,2021.1.4,120.03994929526479,
,"Rule: When you see a yellow image, do not press 'spacebar'.",Images/Scram1/AF32NES.jpg,Scramble,Blue,Images/Blue.jpg,space,ParentConditions/YellowYellowBlue_v1.xlsx,YellowYellowBlue,Conditions/Version_1/YellowScramStop.xlsx,no,PASS,0.6647641829322217,,,,,,,,,0,0,0,1,0,1,1,1,0,21,21,21,,,,,,,,,,,,,,,,,,,,,,,,,,,,,,,,,,,,,,,,,,,,,,,,,,,,,,,,,,,,,,,,,,,,,,,,,,,,,,,1.21,585.5401425000002,None,space,1,0.29845380000006116,586.8673136,None,586.8673136,None,586.8673136,None,,,,,,,,,,,P026,FENCOG,1,Pre,2022_Feb_23_1049,Go No-Go Task,2021.1.4,120.03994929526479,
,"Rule: When you see a yellow image, do not press 'spacebar'.",Images/Scram2/AM06_NC.jpg,Scramble,Yellow,Images/Yellow.jpg,None,ParentConditions/YellowYellowBlue_v1.xlsx,YellowYellowBlue,Conditions/Version_1/YellowScramStop.xlsx,yes,PASS,0.3634874867374246,,,,,,,,,0,0,0,1,0,1,1,1,0,22,22,22,,,,,,,,,,,,,,,,,,,,,,,,,,,,,,,,,,,,,,,,,,,,,,,,,,,,,,,,,,,,,,,,,,,,,,,,,,,,,,,1.71,587.2581081999999,None,None,1,,589.0749815000001,None,589.0749815000001,None,589.0749815000001,None,,,,,,,,,,,P026,FENCOG,1,Pre,2022_Feb_23_1049,Go No-Go Task,2021.1.4,120.03994929526479,
,"Rule: When you see a yellow image, do not press 'spacebar'.",Images/Scram1/AM06_NC.jpg,Scramble,Blue,Images/Blue.jpg,space,ParentConditions/YellowYellowBlue_v1.xlsx,YellowYellowBlue,Conditions/Version_1/YellowScramStop.xlsx,no,PASS,0.9155941996303448,,,,,,,,,0,0,0,1,0,1,1,1,0,23,23,23,,,,,,,,,,,,,,,,,,,,,,,,,,,,,,,,,,,,,,,,,,,,,,,,,,,,,,,,,,,,,,,,,,,,,,,,,,,,,,,1.52,589.4758869,None,space,1,0.30665030000000115,591.0991142999999,None,591.0991142999999,None,591.0991142999999,None,,,,,,,,,,,P026,FENCOG,1,Pre,2022_Feb_23_1049,Go No-Go Task,2021.1.4,120.03994929526479,
,"Rule: When you see a yellow image, do not press 'spacebar'.",Images/Scram2/AM02_NC.jpg,Scramble,Yellow,Images/Yellow.jpg,None,ParentConditions/YellowYellowBlue_v1.xlsx,YellowYellowBlue,Conditions/Version_1/YellowScramStop.xlsx,yes,PASS,0.40349662212467063,,,,,,,,,0,0,0,1,0,1,1,1,0,24,24,24,,,,,,,,,,,,,,,,,,,,,,,,,,,,,,,,,,,,,,,,,,,,,,,,,,,,,,,,,,,,,,,,,,,,,,,,,,,,,,,1.88,591.4999040999999,None,None,1,,593.4820498000001,None,593.4820498000001,None,593.4820498000001,None,,,,,,,,,,,P026,FENCOG,1,Pre,2022_Feb_23_1049,Go No-Go Task,2021.1.4,120.03994929526479,
,"Rule: When you see a yellow image, do not press 'spacebar'.",Images/Scram2/HF05_NC.jpg,Scramble,Blue,Images/Blue.jpg,space,ParentConditions/YellowYellowBlue_v1.xlsx,YellowYellowBlue,Conditions/Version_1/YellowScramStop.xlsx,no,PASS,0.921711635827277,,,,,,,,,0,0,0,1,0,1,1,1,0,25,25,25,,,,,,,,,,,,,,,,,,,,,,,,,,,,,,,,,,,,,,,,,,,,,,,,,,,,,,,,,,,,,,,,,,,,,,,,,,,,,,,1.8,593.8809170000002,None,space,1,0.2720150999998623,595.7897641000002,None,595.7897641000002,None,595.7897641000002,None,,,,,,,,,,,P026,FENCOG,1,Pre,2022_Feb_23_1049,Go No-Go Task,2021.1.4,120.03994929526479,
,"Rule: When you see a yellow image, do not press 'spacebar'.",Images/Scram2/AF32NES.jpg,Scramble,Yellow,Images/Yellow.jpg,None,ParentConditions/YellowYellowBlue_v1.xlsx,YellowYellowBlue,Conditions/Version_1/YellowScramStop.xlsx,yes,PASS,0.017466824187156504,,,,,,,,,0,0,0,1,0,1,1,1,0,26,26,26,,,,,,,,,,,,,,,,,,,,,,,,,,,,,,,,,,,,,,,,,,,,,,,,,,,,,,,,,,,,,,,,,,,,,,,,,,,,,,,1.78,596.1886581000001,None,None,1,,598.0806711000002,None,598.0806711000002,None,598.0806711000002,None,,,,,,,,,,,P026,FENCOG,1,Pre,2022_Feb_23_1049,Go No-Go Task,2021.1.4,120.03994929526479,
,"Rule: When you see a yellow image, do not press 'spacebar'.",Images/Scram2/HM04_NC.jpg,Scramble,Blue,Images/Blue.jpg,space,ParentConditions/YellowYellowBlue_v1.xlsx,YellowYellowBlue,Conditions/Version_1/YellowScramStop.xlsx,no,PASS,0.5736341227927889,,,,,,,,,0,0,0,1,0,1,1,1,0,27,27,27,,,,,,,,,,,,,,,,,,,,,,,,,,,,,,,,,,,,,,,,,,,,,,,,,,,,,,,,,,,,,,,,,,,,,,,,,,,,,,,1.49,598.4844774000001,None,space,1,0.2617937999998503,600.0801589999999,None,600.0801589999999,None,600.0801589999999,None,,,,,,,,,,,P026,FENCOG,1,Pre,2022_Feb_23_1049,Go No-Go Task,2021.1.4,120.03994929526479,
,"Rule: When you see a yellow image, do not press 'spacebar'.",Images/Scram2/AF25NES.jpg,Scramble,Blue,Images/Blue.jpg,space,ParentConditions/YellowYellowBlue_v1.xlsx,YellowYellowBlue,Conditions/Version_1/YellowScramStop.xlsx,no,PASS,0.4815009065668029,,,,,,,,,0,0,0,1,0,1,1,1,0,28,28,28,,,,,,,,,,,,,,,,,,,,,,,,,,,,,,,,,,,,,,,,,,,,,,,,,,,,,,,,,,,,,,,,,,,,,,,,,,,,,,,1.5,600.4820440999999,None,space,1,0.2783243999997467,602.0794945,None,602.0794945,None,602.0794945,None,,,,,,,,,,,P026,FENCOG,1,Pre,2022_Feb_23_1049,Go No-Go Task,2021.1.4,120.03994929526479,
,"Rule: When you see a yellow image, do not press 'spacebar'.",Images/Scram1/AF34NES.jpg,Scramble,Blue,Images/Blue.jpg,space,ParentConditions/YellowYellowBlue_v1.xlsx,YellowYellowBlue,Conditions/Version_1/YellowScramStop.xlsx,no,PASS,0.16322109337010782,,,,,,,,,0,0,0,1,0,1,1,1,0,29,29,29,,,,,,,,,,,,,,,,,,,,,,,,,,,,,,,,,,,,,,,,,,,,,,,,,,,,,,,,,,,,,,,,,,,,,,,,,,,,,,,1.74,602.4801757000002,None,space,1,0.33336819999976797,604.3204939,None,604.3204939,None,604.3204939,None,,,,,,,,,,,P026,FENCOG,1,Pre,2022_Feb_23_1049,Go No-Go Task,2021.1.4,120.03994929526479,
,"Rule: When you see a yellow image, do not press 'spacebar'.",Images/Scram2/AF11NES.jpg,Scramble,Blue,Images/Blue.jpg,space,ParentConditions/YellowYellowBlue_v1.xlsx,YellowYellowBlue,Conditions/Version_1/YellowScramStop.xlsx,no,PASS,0.863906943339551,,,,,,,,,0,0,0,1,0,1,1,1,0,30,30,30,,,,,,,,,,,,,,,,,,,,,,,,,,,,,,,,,,,,,,,,,,,,,,,,,,,,,,,,,,,,,,,,,,,,,,,,,,,,,,,1.23,604.7208378000003,None,space,1,0.2963482000000113,606.0533653999998,None,606.0533653999998,None,606.0533653999998,None,,,,,,,,,,,P026,FENCOG,1,Pre,2022_Feb_23_1049,Go No-Go Task,2021.1.4,120.03994929526479,
,"Rule: When you see a yellow image, do not press 'spacebar'.",Images/Scram2/AF34NES.jpg,Scramble,Yellow,Images/Yellow.jpg,None,ParentConditions/YellowYellowBlue_v1.xlsx,YellowYellowBlue,Conditions/Version_1/YellowScramStop.xlsx,yes,PASS,0.06159009202316168,,,,,,,,,0,0,0,1,0,1,1,1,0,31,31,31,,,,,,,,,,,,,,,,,,,,,,,,,,,,,,,,,,,,,,,,,,,,,,,,,,,,,,,,,,,,,,,,,,,,,,,,,,,,,,,1.27,606.4544054999999,None,None,1,,607.827822,None,607.827822,None,607.827822,None,,,,,,,,,,,P026,FENCOG,1,Pre,2022_Feb_23_1049,Go No-Go Task,2021.1.4,120.03994929526479,
,"Rule: When you see a yellow image, do not press 'spacebar'.",Images/Scram1/AM02_NC.jpg,Scramble,Blue,Images/Blue.jpg,space,ParentConditions/YellowYellowBlue_v1.xlsx,YellowYellowBlue,Conditions/Version_1/YellowScramStop.xlsx,no,PASS,0.7758508003758968,,,,,,,,,0,0,0,1,0,1,1,1,0,32,32,32,,,,,,,,,,,,,,,,,,,,,,,,,,,,,,,,,,,,,,,,,,,,,,,,,,,,,,,,,,,,,,,,,,,,,,,,,,,,,,,1.38,608.233888,None,space,1,0.26286839999966105,609.7188887999998,None,609.7188887999998,None,609.7188887999998,None,,,,,,,,,,,P026,FENCOG,1,Pre,2022_Feb_23_1049,Go No-Go Task,2021.1.4,120.03994929526479,
,"Rule: When you see a yellow image, do not press 'spacebar'.",Images/Scram2/AM13NES.jpg,Scramble,Yellow,Images/Yellow.jpg,None,ParentConditions/YellowYellowBlue_v1.xlsx,YellowYellowBlue,Conditions/Version_1/YellowScramStop.xlsx,yes,PASS,0.6726515097084437,,,,,,,,,0,0,0,1,0,1,1,1,0,33,33,33,,,,,,,,,,,,,,,,,,,,,,,,,,,,,,,,,,,,,,,,,,,,,,,,,,,,,,,,,,,,,,,,,,,,,,,,,,,,,,,1.91,610.1207222,None,None,1,,612.1348684000002,None,612.1348684000002,None,612.1348684000002,None,,,,,,,,,,,P026,FENCOG,1,Pre,2022_Feb_23_1049,Go No-Go Task,2021.1.4,120.03994929526479,
,"Rule: When you see a yellow image, do not press 'spacebar'.",Images/Scram1/AM03_NC.jpg,Scramble,Blue,Images/Blue.jpg,space,ParentConditions/YellowYellowBlue_v1.xlsx,YellowYellowBlue,Conditions/Version_1/YellowScramStop.xlsx,no,PASS,0.060310837369876635,,,,,,,,,0,0,0,1,0,1,1,1,0,34,34,34,,,,,,,,,,,,,,,,,,,,,,,,,,,,,,,,,,,,,,,,,,,,,,,,,,,,,,,,,,,,,,,,,,,,,,,,,,,,,,,1.95,612.5359228,None,space,1,0.25353750000022046,614.5924911,None,614.5924911,None,614.5924911,None,,,,,,,,,,,P026,FENCOG,1,Pre,2022_Feb_23_1049,Go No-Go Task,2021.1.4,120.03994929526479,
,"Rule: When you see a yellow image, do not press 'spacebar'.",Images/Scram1/AF33NES.jpg,Scramble,Blue,Images/Blue.jpg,space,ParentConditions/YellowYellowBlue_v1.xlsx,YellowYellowBlue,Conditions/Version_1/YellowScramStop.xlsx,no,PASS,0.9883395332949252,,,,,,,,,0,0,0,1,0,1,1,1,0,35,35,35,,,,,,,,,,,,,,,,,,,,,,,,,,,,,,,,,,,,,,,,,,,,,,,,,,,,,,,,,,,,,,,,,,,,,,,,,,,,,,,1.7,614.9917796000002,None,space,1,0.3499971999999616,616.7919393,None,616.7919393,None,616.7919393,None,,,,,,,,,,,P026,FENCOG,1,Pre,2022_Feb_23_1049,Go No-Go Task,2021.1.4,120.03994929526479,
,"Rule: When you see a yellow image, do not press 'spacebar'.",Images/Scram1/BF10_NC.jpg,Scramble,Blue,Images/Blue.jpg,space,ParentConditions/YellowYellowBlue_v1.xlsx,YellowYellowBlue,Conditions/Version_1/YellowScramStop.xlsx,no,PASS,0.832283926857634,,,,,,,,,0,0,0,1,0,1,1,1,0,36,36,36,,,,,,,,,,,,,,,,,,,,,,,,,,,,,,,,,,,,,,,,,,,,,,,,,,,,,,,,,,,,,,,,,,,,,,,,,,,,,,,1.2,617.190675,None,space,1,0.2746868999997787,618.4913282999999,None,618.4913282999999,None,618.4913282999999,None,,,,,,,,,,,P026,FENCOG,1,Pre,2022_Feb_23_1049,Go No-Go Task,2021.1.4,120.03994929526479,
,"Rule: When you see a yellow image, do not press 'spacebar'.",Images/Scram1/AF07_NC.jpg,Scramble,Blue,Images/Blue.jpg,space,ParentConditions/YellowYellowBlue_v1.xlsx,YellowYellowBlue,Conditions/Version_1/YellowScramStop.xlsx,no,PASS,0.9763895949527831,,,,,,,,,0,0,0,1,0,1,1,1,0,37,37,37,,,,,,,,,,,,,,,,,,,,,,,,,,,,,,,,,,,,,,,,,,,,,,,,,,,,,,,,,,,,,,,,,,,,,,,,,,,,,,,1.72,618.8927762999999,None,space,1,0.28241879999995945,620.7156711,None,620.7156711,None,620.7156711,None,,,,,,,,,,,P026,FENCOG,1,Pre,2022_Feb_23_1049,Go No-Go Task,2021.1.4,120.03994929526479,
,"Rule: When you see a yellow image, do not press 'spacebar'.",Images/Scram2/AM23NES.jpg,Scramble,Yellow,Images/Yellow.jpg,None,ParentConditions/YellowYellowBlue_v1.xlsx,YellowYellowBlue,Conditions/Version_1/YellowScramStop.xlsx,yes,PASS,0.6002481140469051,,,,,,,,,0,0,0,1,0,1,1,1,0,38,38,38,,,,,,,,,,,,,,,,,,,,,,,,,,,,,,,,,,,,,,,,,,,,,,,,,,,,,,,,,,,,,,,,,,,,,,,,,,,,,,,1.4,621.1185661000002,None,None,1,,622.6234981,None,622.6234981,None,622.6234981,None,,,,,,,,,,,P026,FENCOG,1,Pre,2022_Feb_23_1049,Go No-Go Task,2021.1.4,120.03994929526479,
,"Rule: When you see a yellow image, do not press 'spacebar'.",Images/Scram1/AF24NES.jpg,Scramble,Blue,Images/Blue.jpg,space,ParentConditions/YellowYellowBlue_v1.xlsx,YellowYellowBlue,Conditions/Version_1/YellowScramStop.xlsx,no,PASS,0.1129494583795736,,,,,,,,,0,0,0,1,0,1,1,1,0,39,39,39,,,,,,,,,,,,,,,,,,,,,,,,,,,,,,,,,,,,,,,,,,,,,,,,,,,,,,,,,,,,,,,,,,,,,,,,,,,,,,,1.42,623.0258276000002,None,space,1,0.25051170000006096,624.5395185,None,624.5395185,None,624.5395185,None,,,,,,,,,,,P026,FENCOG,1,Pre,2022_Feb_23_1049,Go No-Go Task,2021.1.4,120.03994929526479,
,"Rule: When you see a yellow image, do not press 'spacebar'.",Images/Scram2/AF33NES.jpg,Scramble,Yellow,Images/Yellow.jpg,None,ParentConditions/YellowYellowBlue_v1.xlsx,YellowYellowBlue,Conditions/Version_1/YellowScramStop.xlsx,yes,PASS,0.8037537420652296,,,,,,,,,0,0,0,1,0,1,1,1,0,40,40,40,,,,,,,,,,,,,,,,,,,,,,,,,,,,,,,,,,,,,,,,,,,,,,,,,,,,,,,,,,,,,,,,,,,,,,,,,,,,,,,1.25,624.9399486,None,None,1,,626.2971186000002,None,626.2971186000002,None,626.2971186000002,None,,,,,,,,,,,P026,FENCOG,1,Pre,2022_Feb_23_1049,Go No-Go Task,2021.1.4,120.03994929526479,
,"Rule: When you see a yellow image, do not press 'spacebar'.",Images/Scram1/AF25NES.jpg,Scramble,Blue,Images/Blue.jpg,space,ParentConditions/YellowYellowBlue_v1.xlsx,YellowYellowBlue,Conditions/Version_1/YellowScramStop.xlsx,no,PASS,0.14378736257712743,,,,,,,,,0,0,0,1,0,1,1,1,0,41,41,41,,,,,,,,,,,,,,,,,,,,,,,,,,,,,,,,,,,,,,,,,,,,,,,,,,,,,,,,,,,,,,,,,,,,,,,,,,,,,,,1.31,626.6983874,None,space,1,0.2682035000002543,628.1216704999999,None,628.1216704999999,None,628.1216704999999,None,,,,,,,,,,,P026,FENCOG,1,Pre,2022_Feb_23_1049,Go No-Go Task,2021.1.4,120.03994929526479,
,"Rule: When you see a yellow image, do not press 'spacebar'.",Images/Scram2/AM10NES.jpg,Scramble,Yellow,Images/Yellow.jpg,None,ParentConditions/YellowYellowBlue_v1.xlsx,YellowYellowBlue,Conditions/Version_1/YellowScramStop.xlsx,yes,PASS,0.5820319295028303,,,,,,,,,0,0,0,1,0,1,1,1,0,42,42,42,,,,,,,,,,,,,,,,,,,,,,,,,,,,,,,,,,,,,,,,,,,,,,,,,,,,,,,,,,,,,,,,,,,,,,,,,,,,,,,1.34,628.5221472000001,None,None,1,,629.9629858999999,None,629.9629858999999,None,629.9629858999999,None,,,,,,,,,,,P026,FENCOG,1,Pre,2022_Feb_23_1049,Go No-Go Task,2021.1.4,120.03994929526479,
,"Rule: When you see a yellow image, do not press 'spacebar'.",Images/Scram2/BF10_NC.jpg,Scramble,Blue,Images/Blue.jpg,space,ParentConditions/YellowYellowBlue_v1.xlsx,YellowYellowBlue,Conditions/Version_1/YellowScramStop.xlsx,no,PASS,0.2078164907866934,,,,,,,,,0,0,0,1,0,1,1,1,0,43,43,43,,,,,,,,,,,,,,,,,,,,,,,,,,,,,,,,,,,,,,,,,,,,,,,,,,,,,,,,,,,,,,,,,,,,,,,,,,,,,,,1.82,630.3618778000002,None,space,1,0.3109386999999515,632.2873290999999,None,632.2873290999999,None,632.2873290999999,None,,,,,,,,,,,P026,FENCOG,1,Pre,2022_Feb_23_1049,Go No-Go Task,2021.1.4,120.03994929526479,
,"Rule: When you see a yellow image, do not press 'spacebar'.",Images/Scram1/BF18_NC.jpg,Scramble,Blue,Images/Blue.jpg,space,ParentConditions/YellowYellowBlue_v1.xlsx,YellowYellowBlue,Conditions/Version_1/YellowScramStop.xlsx,no,PASS,0.3689261099445472,,,,,,,,,0,0,0,1,0,1,1,1,0,44,44,44,,,,,,,,,,,,,,,,,,,,,,,,,,,,,,,,,,,,,,,,,,,,,,,,,,,,,,,,,,,,,,,,,,,,,,,,,,,,,,,1.39,632.6939742000002,None,space,1,0.2752801999999974,634.1783935000001,None,634.1783935000001,None,634.1783935000001,None,,,,,,,,,,,P026,FENCOG,1,Pre,2022_Feb_23_1049,Go No-Go Task,2021.1.4,120.03994929526479,
,"Rule: When you see a yellow image, do not press 'spacebar'.",Images/Scram2/HF09_NC.jpg,Scramble,Blue,Images/Blue.jpg,space,ParentConditions/YellowYellowBlue_v1.xlsx,YellowYellowBlue,Conditions/Version_1/YellowScramStop.xlsx,no,PASS,0.286178806367275,,,,,,,,,0,0,0,1,0,1,1,1,0,45,45,45,,,,,,,,,,,,,,,,,,,,,,,,,,,,,,,,,,,,,,,,,,,,,,,,,,,,,,,,,,,,,,,,,,,,,,,,,,,,,,,1.46,634.5807686,None,space,1,0.2536638999999923,636.1444708000001,None,636.1444708000001,None,636.1444708000001,None,,,,,,,,,,,P026,FENCOG,1,Pre,2022_Feb_23_1049,Go No-Go Task,2021.1.4,120.03994929526479,
,"Rule: When you see a yellow image, do not press 'spacebar'.",Images/Scram1/BF05_NC.jpg,Scramble,Blue,Images/Blue.jpg,space,ParentConditions/YellowYellowBlue_v1.xlsx,YellowYellowBlue,Conditions/Version_1/YellowScramStop.xlsx,no,PASS,0.7692637816145413,,,,,,,,,0,0,0,1,0,1,1,1,0,46,46,46,,,,,,,,,,,,,,,,,,,,,,,,,,,,,,,,,,,,,,,,,,,,,,,,,,,,,,,,,,,,,,,,,,,,,,,,,,,,,,,1.83,636.5476870999998,None,space,1,0.26427749999993466,638.4855570000002,None,638.4855570000002,None,638.4855570000002,None,,,,,,,,,,,P026,FENCOG,1,Pre,2022_Feb_23_1049,Go No-Go Task,2021.1.4,120.03994929526479,
,"Rule: When you see a yellow image, do not press 'spacebar'.",Images/Scram1/AM17NES.jpg,Scramble,Blue,Images/Blue.jpg,space,ParentConditions/YellowYellowBlue_v1.xlsx,YellowYellowBlue,Conditions/Version_1/YellowScramStop.xlsx,no,PASS,0.7553300637440975,,,,,,,,,0,0,0,1,0,1,1,1,0,47,47,47,,,,,,,,,,,,,,,,,,,,,,,,,,,,,,,,,,,,,,,,,,,,,,,,,,,,,,,,,,,,,,,,,,,,,,,,,,,,,,,1.29,638.8863875999998,None,space,1,0.2970715999999811,640.2766130000002,None,640.2766130000002,None,640.2766130000002,None,,,,,,,,,,,P026,FENCOG,1,Pre,2022_Feb_23_1049,Go No-Go Task,2021.1.4,120.03994929526479,
,"Rule: When you see a yellow image, do not press 'spacebar'.",Images/Scram2/AM09_NC.jpg,Scramble,Yellow,Images/Yellow.jpg,None,ParentConditions/YellowYellowBlue_v1.xlsx,YellowYellowBlue,Conditions/Version_1/YellowScramStop.xlsx,yes,PASS,0.984865364539922,,,,,,,,,0,0,0,1,0,1,1,1,0,48,48,48,,,,,,,,,,,,,,,,,,,,,,,,,,,,,,,,,,,,,,,,,,,,,,,,,,,,,,,,,,,,,,,,,,,,,,,,,,,,,,,1.99,640.6771452999999,None,space,0,0.20629330000019763,642.7758694000001,None,642.7758694000001,None,642.7758694000001,None,,,,,,,,,,,P026,FENCOG,1,Pre,2022_Feb_23_1049,Go No-Go Task,2021.1.4,120.03994929526479,
,"Rule: When you see a yellow image, do not press 'spacebar'.",Images/Scram2/AF09NES.jpg,Scramble,Blue,Images/Blue.jpg,space,ParentConditions/YellowYellowBlue_v1.xlsx,YellowYellowBlue,Conditions/Version_1/YellowScramStop.xlsx,no,PASS,0.2099853615180053,,,,,,,,,0,0,0,1,0,1,1,1,0,49,49,49,,,,,,,,,,,,,,,,,,,,,,,,,,,,,,,,,,,,,,,,,,,,,,,,,,,,,,,,,,,,,,,,,,,,,,,,,,,,,,,1.75,643.1788032000002,None,space,1,0.2763098999998874,645.0335191000001,None,645.0335191000001,None,645.0335191000001,None,,,,,,,,,,,P026,FENCOG,1,Pre,2022_Feb_23_1049,Go No-Go Task,2021.1.4,120.03994929526479,
,"Rule: When you see a yellow image, do not press 'spacebar'.",Images/Scram2/AM04_NC.jpg,Scramble,Yellow,Images/Yellow.jpg,None,ParentConditions/YellowYellowBlue_v1.xlsx,YellowYellowBlue,Conditions/Version_1/YellowScramStop.xlsx,yes,PASS,0.8595632143536898,,,,,,,,,0,0,0,1,0,1,1,1,0,50,50,50,,,,,,,,,,,,,,,,,,,,,,,,,,,,,,,,,,,,,,,,,,,,,,,,,,,,,,,,,,,,,,,,,,,,,,,,,,,,,,,1.63,645.4362899,None,None,1,,647.1662278000001,None,647.1662278000001,None,647.1662278000001,None,,,,,,,,,,,P026,FENCOG,1,Pre,2022_Feb_23_1049,Go No-Go Task,2021.1.4,120.03994929526479,
,"Rule: When you see a yellow image, do not press 'spacebar'.",Images/Scram2/BF05_NC.jpg,Scramble,Yellow,Images/Yellow.jpg,None,ParentConditions/YellowYellowBlue_v1.xlsx,YellowYellowBlue,Conditions/Version_1/YellowScramStop.xlsx,yes,PASS,0.9038892448018151,,,,,,,,,0,0,0,1,0,1,1,1,0,51,51,51,,,,,,,,,,,,,,,,,,,,,,,,,,,,,,,,,,,,,,,,,,,,,,,,,,,,,,,,,,,,,,,,,,,,,,,,,,,,,,,1.92,647.5671116999999,None,None,1,,649.5905153000001,None,649.5905153000001,None,649.5905153000001,None,,,,,,,,,,,P026,FENCOG,1,Pre,2022_Feb_23_1049,Go No-Go Task,2021.1.4,120.03994929526479,
,"Rule: When you see a yellow image, do not press 'spacebar'.",Images/Scram1/HM06_NC.jpg,Scramble,Blue,Images/Blue.jpg,space,ParentConditions/YellowYellowBlue_v1.xlsx,YellowYellowBlue,Conditions/Version_1/YellowScramStop.xlsx,no,PASS,0.7183076447823791,,,,,,,,,0,0,0,1,0,1,1,1,0,52,52,52,,,,,,,,,,,,,,,,,,,,,,,,,,,,,,,,,,,,,,,,,,,,,,,,,,,,,,,,,,,,,,,,,,,,,,,,,,,,,,,1.26,649.9970353000001,None,space,1,0.27282989999957863,651.3650559999999,None,651.3650559999999,None,651.3650559999999,None,,,,,,,,,,,P026,FENCOG,1,Pre,2022_Feb_23_1049,Go No-Go Task,2021.1.4,120.03994929526479,
,"Rule: When you see a yellow image, do not press 'spacebar'.",Images/Scram2/AF07NES.jpg,Scramble,Blue,Images/Blue.jpg,space,ParentConditions/YellowYellowBlue_v1.xlsx,YellowYellowBlue,Conditions/Version_1/YellowScramStop.xlsx,no,PASS,0.8685827011476244,,,,,,,,,0,0,0,1,0,1,1,1,0,53,53,53,,,,,,,,,,,,,,,,,,,,,,,,,,,,,,,,,,,,,,,,,,,,,,,,,,,,,,,,,,,,,,,,,,,,,,,,,,,,,,,1.32,651.7679784,None,space,1,0.28052119999983915,653.1894500999999,None,653.1894500999999,None,653.1894500999999,None,,,,,,,,,,,P026,FENCOG,1,Pre,2022_Feb_23_1049,Go No-Go Task,2021.1.4,120.03994929526479,
,"Rule: When you see a yellow image, do not press 'spacebar'.",Images/Scram1/BM01_NC.jpg,Scramble,Blue,Images/Blue.jpg,space,ParentConditions/YellowYellowBlue_v1.xlsx,YellowYellowBlue,Conditions/Version_1/YellowScramStop.xlsx,no,PASS,0.7516161036696042,,,,,,,,,0,0,0,1,0,1,1,1,0,54,54,54,,,,,,,,,,,,,,,,,,,,,,,,,,,,,,,,,,,,,,,,,,,,,,,,,,,,,,,,,,,,,,,,,,,,,,,,,,,,,,,1.64,653.5893155000001,None,space,1,0.28294210000012754,655.3388822,None,655.3388822,None,655.3388822,None,,,,,,,,,,,P026,FENCOG,1,Pre,2022_Feb_23_1049,Go No-Go Task,2021.1.4,120.03994929526479,
,"Rule: When you see a yellow image, do not press 'spacebar'.",Images/Scram2/AF07_NC.jpg,Scramble,Blue,Images/Blue.jpg,space,ParentConditions/YellowYellowBlue_v1.xlsx,YellowYellowBlue,Conditions/Version_1/YellowScramStop.xlsx,no,PASS,0.609812891298236,,,,,,,,,0,0,0,1,0,1,1,1,0,55,55,55,,,,,,,,,,,,,,,,,,,,,,,,,,,,,,,,,,,,,,,,,,,,,,,,,,,,,,,,,,,,,,,,,,,,,,,,,,,,,,,1.61,655.7389716999999,None,space,1,0.2468536999999742,657.4549312000001,None,657.4549312000001,None,657.4549312000001,None,,,,,,,,,,,P026,FENCOG,1,Pre,2022_Feb_23_1049,Go No-Go Task,2021.1.4,120.03994929526479,
,"Rule: When you see a yellow image, do not press 'spacebar'.",Images/Scram1/AF10_NC.jpg,Scramble,Blue,Images/Blue.jpg,space,ParentConditions/YellowYellowBlue_v1.xlsx,YellowYellowBlue,Conditions/Version_1/YellowScramStop.xlsx,no,PASS,0.9805128032945232,,,,,,,,,0,0,0,1,0,1,1,1,0,56,56,56,,,,,,,,,,,,,,,,,,,,,,,,,,,,,,,,,,,,,,,,,,,,,,,,,,,,,,,,,,,,,,,,,,,,,,,,,,,,,,,1.28,657.8556811000001,None,space,1,0.2803736000000754,659.2376965000001,None,659.2376965000001,None,659.2376965000001,None,,,,,,,,,,,P026,FENCOG,1,Pre,2022_Feb_23_1049,Go No-Go Task,2021.1.4,120.03994929526479,
