CondFileP,Instructions,FaceE,Express,ColourT,ColourF,CorrectAnsP,MasterCondFile,BlockOrder,CondFile,ColCheck,Triplicate_check,SORT_BY_SMALLEST,EPracticeOuterLoop.thisRepN,EPracticeOuterLoop.thisTrialN,EPracticeOuterLoop.thisN,EPracticeOuterLoop.thisIndex,EPracticeInnerLoop.thisRepN,EPracticeInnerLoop.thisTrialN,EPracticeInnerLoop.thisN,EPracticeInnerLoop.thisIndex,MasterLoop.thisRepN,MasterLoop.thisTrialN,MasterLoop.thisN,MasterLoop.thisIndex,OuterLoop.thisRepN,OuterLoop.thisTrialN,OuterLoop.thisN,OuterLoop.thisIndex,InnerLoop.thisRepN,InnerLoop.thisTrialN,InnerLoop.thisN,InnerLoop.thisIndex,text_13.started,text_13.stopped,key_resp_10.keys,key_resp_10.rt,key_resp_10.started,key_resp_10.stopped,text4.started,text4.stopped,EmotionTaskInstructions1.keys,EmotionTaskInstructions1.rt,EmotionTaskInstructions1.started,EmotionTaskInstructions1.stopped,text_4.started,text_4.stopped,key_resp_5.keys,key_resp_5.rt,key_resp_5.started,key_resp_5.stopped,Text_14.started,Text_14.stopped,key_resp_9.keys,key_resp_9.rt,key_resp_9.started,key_resp_9.stopped,text_5.started,text_5.stopped,text_6.started,text_6.stopped,key_resp_7.keys,key_resp_7.rt,key_resp_7.started,key_resp_7.stopped,text_10.started,text_10.stopped,text_11.started,text_11.stopped,text_12.started,text_12.stopped,ISIjitterPractice,EPracticeISIMarker.started,EPracticeISIMarker.stopped,Pract.keys,Pract.corr,Pract.started,Pract.stopped,PracticeFace.started,PracticeFace.stopped,ColourPractice.started,ColourPractice.stopped,text_7.started,text_7.stopped,Pract.rt,EndOfPractice.started,EndOfPractice.stopped,key_resp_8.keys,key_resp_8.rt,key_resp_8.started,key_resp_8.stopped,text_8.started,text_8.stopped,key_resp_6.keys,key_resp_6.rt,key_resp_6.started,key_resp_6.stopped,text_2.started,text_2.stopped,text_3.started,text_3.stopped,key_resp_3.keys,key_resp_3.rt,key_resp_3.started,key_resp_3.stopped,TaskBlock.started,TaskBlock.stopped,BlockNo1.started,BlockNo1.stopped,OfBlock.started,OfBlock.stopped,ISIjitter,ISImarker.started,ISImarker.stopped,key_resp.keys,key_resp.corr,key_resp.rt,key_resp.started,key_resp.stopped,FaceSet.started,FaceSet.stopped,Colour.started,Colour.stopped,EndBlockText.started,EndBlockText.stopped,key_resp_4.keys,key_resp_4.rt,key_resp_4.started,key_resp_4.stopped,BreakText2.started,BreakText2.stopped,PressToContinue.started,PressToContinue.stopped,participant,Study Name,Task Version (required to run),PRE/POST,date,expName,psychopyVersion,frameRate,
,,,,,,,,,,,,,,,,,,,,,,,,,,,,,,,,,78.29110480000963,None,space,53.45148649998009,79.28294469998218,None,,,,,,,,,,,,,,,,,,,,,,,,,,,,,,,,,,,,,,,,,,,,,,,,,,,,,,,,,,,,,,,,,,,,,,,,,,,,,,,,,,,,,,,,,,,,,,,P027,FEN,2,Pre,2022_Feb_28_1036,Go No-Go Task,2021.1.4,120.31942405804713,
,,,,,,,,,,,,,,,,,,,,,,,,,,,,,,,,,,,,,,,134.23016410000855,None,space,14.048185500025284,134.23016410000855,None,,,,,,,,,,,,,,,,,,,,,,,,,,,,,,,,,,,,,,,,,,,,,,,,,,,,,,,,,,,,,,,,,,,,,,,,,,,,,,,,,,,,,,,,,P027,FEN,2,Pre,2022_Feb_28_1036,Go No-Go Task,2021.1.4,120.31942405804713,
,,,,,,,,,,,,,,,,,,,,,,,,,,,,,,,,,,,,,,,,,,,,,148.34465909999562,None,space,8.901716799999122,148.34465909999562,None,,,,,,,,,,,,,,,,,,,,,,,,,,,,,,,,,,,,,,,,,,,,,,,,,,,,,,,,,,,,,,,,,,,,,,,,,,,,,,,,,,,P027,FEN,2,Pre,2022_Feb_28_1036,Go No-Go Task,2021.1.4,120.31942405804713,
,,,,,,,,,,,,,,,,,,,,,,,,,,,,,,,,,,,,,,,,,,,,,,,,,,,157.2635472000111,None,space,5.263261699990835,157.2635472000111,None,,,,,,,,,,,,,,,,,,,,,,,,,,,,,,,,,,,,,,,,,,,,,,,,,,,,,,,,,,,,,,,,,,,,,,,,,,,,,P027,FEN,2,Pre,2022_Feb_28_1036,Go No-Go Task,2021.1.4,120.31942405804713,
EPracticeConditions/BlueEyes.csv,"Rule: When you see a blue image, do not press 'spacebar'.",Images/Happy/HF10_HE.jpg,Happy,Yellow,Images/Yellow.jpg,space,,,,,,,0,0,0,0,0,0,0,7,,,,,,,,,,,,,,,,,,,,,,,,,,,,,,,,,,,,,162.60914570000023,None,165.59976479999023,None,space,2.030610100016929,165.59976479999023,None,162.60914570000023,None,162.60914570000023,None,162.60914570000023,None,1.6,167.7515727999853,None,None,0,169.4987505999743,None,169.4987505999743,None,169.4987505999743,None,171.05236349999905,None,,,,,,,,,,,,,,,,,,,,,,,,,,,,,,,,,,,,,,,,,,,,,,,,,,P027,FEN,2,Pre,2022_Feb_28_1036,Go No-Go Task,2021.1.4,120.31942405804713,
EPracticeConditions/BlueEyes.csv,"Rule: When you see a blue image, do not press 'spacebar'.",Images/Happy/HF05_HO.jpg,Happy,Yellow,Images/Yellow.jpg,space,,,,,,,0,0,0,0,0,1,1,5,,,,,,,,,,,,,,,,,,,,,,,,,,,,,,,,,,,,,,,,,,,,,,,,,,,1.2,172.39454100001603,None,None,0,173.69787069997983,None,173.69787069997983,None,173.69787069997983,None,174.59518010000465,None,,,,,,,,,,,,,,,,,,,,,,,,,,,,,,,,,,,,,,,,,,,,,,,,,,P027,FEN,2,Pre,2022_Feb_28_1036,Go No-Go Task,2021.1.4,120.31942405804713,
EPracticeConditions/BlueEyes.csv,"Rule: When you see a blue image, do not press 'spacebar'.",Images/Happy/HF09_HE.jpg,Happy,Yellow,Images/Yellow.jpg,space,,,,,,,0,0,0,0,0,2,2,6,,,,,,,,,,,,,,,,,,,,,,,,,,,,,,,,,,,,,,,,,,,,,,,,,,,1.8,176.59600279998267,None,None,0,178.49643040000228,None,178.49643040000228,None,178.49643040000228,None,179.39369050000096,None,,,,,,,,,,,,,,,,,,,,,,,,,,,,,,,,,,,,,,,,,,,,,,,,,,P027,FEN,2,Pre,2022_Feb_28_1036,Go No-Go Task,2021.1.4,120.31942405804713,
EPracticeConditions/BlueEyes.csv,"Rule: When you see a blue image, do not press 'spacebar'.",Images/Happy/HF04_HE.jpg,Happy,Yellow,Images/Yellow.jpg,space,,,,,,,0,0,0,0,0,3,3,4,,,,,,,,,,,,,,,,,,,,,,,,,,,,,,,,,,,,,,,,,,,,,,,,,,,1.5,181.3948258999735,None,space,1,182.99482670001453,None,182.99482670001453,None,182.99482670001453,None,183.89961700001732,None,0.2355480999685824,,,,,,,,,,,,,,,,,,,,,,,,,,,,,,,,,,,,,,,,,,,,,,,,,P027,FEN,2,Pre,2022_Feb_28_1036,Go No-Go Task,2021.1.4,120.31942405804713,
EPracticeConditions/BlueEyes.csv,"Rule: When you see a blue image, do not press 'spacebar'.",Images/Happy/BM08_HO.jpg,Happy,Yellow,Images/Yellow.jpg,space,,,,,,,0,0,0,0,0,4,4,3,,,,,,,,,,,,,,,,,,,,,,,,,,,,,,,,,,,,,,,,,,,,,,,,,,,1.4,185.9018105000141,None,space,1,187.41030649997992,None,187.41030649997992,None,187.41030649997992,None,188.30066130001796,None,0.25238089996855706,,,,,,,,,,,,,,,,,,,,,,,,,,,,,,,,,,,,,,,,,,,,,,,,,P027,FEN,2,Pre,2022_Feb_28_1036,Go No-Go Task,2021.1.4,120.31942405804713,
EPracticeConditions/BlueEyes.csv,"Rule: When you see a blue image, do not press 'spacebar'.",Images/Fearful/AF01_FO.jpg,Fear,Blue,Images/Blue.jpg,None,,,,,,,0,0,0,0,0,5,5,1,,,,,,,,,,,,,,,,,,,,,,,,,,,,,,,,,,,,,,,,,,,,,,,,,,,1.9,190.3000766999903,None,None,1,192.3003126999829,None,192.3003126999829,None,192.3003126999829,None,193.1909464999917,None,,,,,,,,,,,,,,,,,,,,,,,,,,,,,,,,,,,,,,,,,,,,,,,,,,P027,FEN,2,Pre,2022_Feb_28_1036,Go No-Go Task,2021.1.4,120.31942405804713,
EPracticeConditions/BlueEyes.csv,"Rule: When you see a blue image, do not press 'spacebar'.",Images/Happy/BM02_HO.jpg,Happy,Yellow,Images/Yellow.jpg,space,,,,,,,0,0,0,0,0,6,6,2,,,,,,,,,,,,,,,,,,,,,,,,,,,,,,,,,,,,,,,,,,,,,,,,,,,1.3,195.19034169998486,None,space,1,196.5911039999919,None,196.5911039999919,None,196.5911039999919,None,197.48714709997876,None,0.3511900999583304,,,,,,,,,,,,,,,,,,,,,,,,,,,,,,,,,,,,,,,,,,,,,,,,,P027,FEN,2,Pre,2022_Feb_28_1036,Go No-Go Task,2021.1.4,120.31942405804713,
EPracticeConditions/BlueEyes.csv,"Rule: When you see a blue image, do not press 'spacebar'.",Images/Fearful/HM09_FC.jpg,Fear,Blue,Images/Blue.jpg,None,,,,,,,0,0,0,0,0,7,7,0,,,,,,,,,,,,,,,,,,,,,,,,,,,,,,,,,,,,,,,,,,,,,,,,,,,1.7,199.49037299997872,None,None,1,201.28936100000283,None,201.28936100000283,None,201.28936100000283,None,202.19165039999643,None,,,,,,,,,,,,,,,,,,,,,,,,,,,,,,,,,,,,,,,,,,,,,,,,,,P027,FEN,2,Pre,2022_Feb_28_1036,Go No-Go Task,2021.1.4,120.31942405804713,
EPracticeConditions/BlueEyes.csv,"Rule: When you see a blue image, do not press 'spacebar'.",,,,,,,,,,,,0,0,0,0,,,,,,,,,,,,,,,,,,,,,,,,,,,,,,,,,,,,,,,,,,,,,,,,,,,,,,,,,,,,,,,,,,,,,,,,,,,,,,,,,,,,,,,,,,,,,,,,,,,,,,,,,,,,,,,,,,,,,P027,FEN,2,Pre,2022_Feb_28_1036,Go No-Go Task,2021.1.4,120.31942405804713,
EPracticeConditions/YellowEyes.csv,"Rule: When you see a yellow image, do not press 'spacebar'.",Images/Happy/BF05_HO.jpg,Happy,Yellow,Images/Yellow.jpg,None,,,,,,,0,1,1,1,0,0,0,1,,,,,,,,,,,,,,,,,,,,,,,,,,,,,,,,,,,,,204.21761310001602,None,207.2124654999934,None,space,1.5298603000119328,207.2124654999934,None,204.21761310001602,None,204.21761310001602,None,204.21761310001602,None,1.5,208.7636838000035,None,space,0,210.38715510000475,None,210.38715510000475,None,210.38715510000475,None,211.2837029999937,None,0.3552124999696389,,,,,,,,,,,,,,,,,,,,,,,,,,,,,,,,,,,,,,,,,,,,,,,,,P027,FEN,2,Pre,2022_Feb_28_1036,Go No-Go Task,2021.1.4,120.31942405804713,
EPracticeConditions/YellowEyes.csv,"Rule: When you see a yellow image, do not press 'spacebar'.",Images/Fearful/AM23AFS.jpg,Fear,Blue,Images/Blue.jpg,space,,,,,,,0,1,1,1,0,1,1,6,,,,,,,,,,,,,,,,,,,,,,,,,,,,,,,,,,,,,,,,,,,,,,,,,,,1.8,213.27698109997436,None,space,1,215.17732809996232,None,215.17732809996232,None,215.17732809996232,None,216.09088619996328,None,0.29325809999136254,,,,,,,,,,,,,,,,,,,,,,,,,,,,,,,,,,,,,,,,,,,,,,,,,P027,FEN,2,Pre,2022_Feb_28_1036,Go No-Go Task,2021.1.4,120.31942405804713,
EPracticeConditions/YellowEyes.csv,"Rule: When you see a yellow image, do not press 'spacebar'.",Images/Fearful/AM16AFS.jpg,Fear,Blue,Images/Blue.jpg,space,,,,,,,0,1,1,1,0,2,2,2,,,,,,,,,,,,,,,,,,,,,,,,,,,,,,,,,,,,,,,,,,,,,,,,,,,1.9,218.08390610001516,None,None,0,220.08422019996215,None,220.08422019996215,None,220.08422019996215,None,220.989208999963,None,,,,,,,,,,,,,,,,,,,,,,,,,,,,,,,,,,,,,,,,,,,,,,,,,,P027,FEN,2,Pre,2022_Feb_28_1036,Go No-Go Task,2021.1.4,120.31942405804713,
EPracticeConditions/YellowEyes.csv,"Rule: When you see a yellow image, do not press 'spacebar'.",Images/Fearful/AM17AFS.jpg,Fear,Blue,Images/Blue.jpg,space,,,,,,,0,1,1,1,0,3,3,3,,,,,,,,,,,,,,,,,,,,,,,,,,,,,,,,,,,,,,,,,,,,,,,,,,,1.4,222.990750500001,None,space,1,224.491352299985,None,224.491352299985,None,224.491352299985,None,225.3949998000171,None,0.3391794999479316,,,,,,,,,,,,,,,,,,,,,,,,,,,,,,,,,,,,,,,,,,,,,,,,,P027,FEN,2,Pre,2022_Feb_28_1036,Go No-Go Task,2021.1.4,120.31942405804713,
EPracticeConditions/YellowEyes.csv,"Rule: When you see a yellow image, do not press 'spacebar'.",Images/Happy/AM32HAS.jpg,Happy,Yellow,Images/Yellow.jpg,None,,,,,,,0,1,1,1,0,4,4,0,,,,,,,,,,,,,,,,,,,,,,,,,,,,,,,,,,,,,,,,,,,,,,,,,,,1.6,227.39772920001997,None,None,1,229.09833269997034,None,229.09833269997034,None,229.09833269997034,None,229.99502590001794,None,,,,,,,,,,,,,,,,,,,,,,,,,,,,,,,,,,,,,,,,,,,,,,,,,,P027,FEN,2,Pre,2022_Feb_28_1036,Go No-Go Task,2021.1.4,120.31942405804713,
EPracticeConditions/YellowEyes.csv,"Rule: When you see a yellow image, do not press 'spacebar'.",Images/Fearful/AM24AFS.jpg,Fear,Blue,Images/Blue.jpg,space,,,,,,,0,1,1,1,0,5,5,7,,,,,,,,,,,,,,,,,,,,,,,,,,,,,,,,,,,,,,,,,,,,,,,,,,,1.2,232.00000499997986,None,space,1,233.30539920000592,None,233.30539920000592,None,233.30539920000592,None,234.196068499994,None,0.33299490000354126,,,,,,,,,,,,,,,,,,,,,,,,,,,,,,,,,,,,,,,,,,,,,,,,,P027,FEN,2,Pre,2022_Feb_28_1036,Go No-Go Task,2021.1.4,120.31942405804713,
EPracticeConditions/YellowEyes.csv,"Rule: When you see a yellow image, do not press 'spacebar'.",Images/Fearful/AM19AFS.jpg,Fear,Blue,Images/Blue.jpg,space,,,,,,,0,1,1,1,0,6,6,4,,,,,,,,,,,,,,,,,,,,,,,,,,,,,,,,,,,,,,,,,,,,,,,,,,,1.3,236.19517550000455,None,None,0,237.59574119996978,None,237.59574119996978,None,237.59574119996978,None,238.50121919997036,None,,,,,,,,,,,,,,,,,,,,,,,,,,,,,,,,,,,,,,,,,,,,,,,,,,P027,FEN,2,Pre,2022_Feb_28_1036,Go No-Go Task,2021.1.4,120.31942405804713,
EPracticeConditions/YellowEyes.csv,"Rule: When you see a yellow image, do not press 'spacebar'.",Images/Fearful/AM22AFS.jpg,Fear,Blue,Images/Blue.jpg,space,,,,,,,0,1,1,1,0,7,7,5,,,,,,,,,,,,,,,,,,,,,,,,,,,,,,,,,,,,,,,,,,,,,,,,,,,1.7,240.50235480000265,None,space,1,242.3027406000183,None,242.3027406000183,None,242.3027406000183,None,243.20951700001024,None,0.2719566999585368,,,,,,,,,,,,,,,,,,,,,,,,,,,,,,,,,,,,,,,,,,,,,,,,,P027,FEN,2,Pre,2022_Feb_28_1036,Go No-Go Task,2021.1.4,120.31942405804713,
EPracticeConditions/YellowEyes.csv,"Rule: When you see a yellow image, do not press 'spacebar'.",,,,,,,,,,,,0,1,1,1,,,,,,,,,,,,,,,,,,,,,,,,,,,,,,,,,,,,,,,,,,,,,,,,,,,,,,,,,,,,,,,,,,,,,,,,,,,,,,,,,,,,,,,,,,,,,,,,,,,,,,,,,,,,,,,,,,,,,P027,FEN,2,Pre,2022_Feb_28_1036,Go No-Go Task,2021.1.4,120.31942405804713,
EPracticeConditions/BlueScram.csv,"Rule: When you see a blue image, do not press 'spacebar'.",Images/Scram2/AF25NES.jpg,Scramble,Yellow,Images/Yellow.jpg,space,,,,,,,0,2,2,2,0,0,0,7,,,,,,,,,,,,,,,,,,,,,,,,,,,,,,,,,,,,,245.22164840000914,None,248.2086144000059,None,space,0.21373489999677986,248.2086144000059,None,245.22164840000914,None,245.22164840000914,None,245.22164840000914,None,1.6,248.44135649997042,None,space,1,250.1420410000137,None,250.1420410000137,None,250.1420410000137,None,251.03515279997373,None,0.32057799998437986,,,,,,,,,,,,,,,,,,,,,,,,,,,,,,,,,,,,,,,,,,,,,,,,,P027,FEN,2,Pre,2022_Feb_28_1036,Go No-Go Task,2021.1.4,120.31942405804713,
EPracticeConditions/BlueScram.csv,"Rule: When you see a blue image, do not press 'spacebar'.",Images/Scram2/AF10_NC.jpg,Scramble,Yellow,Images/Yellow.jpg,space,,,,,,,0,2,2,2,0,1,1,2,,,,,,,,,,,,,,,,,,,,,,,,,,,,,,,,,,,,,,,,,,,,,,,,,,,1.7,253.04470129997935,None,space,1,254.8573965000105,None,254.8573965000105,None,254.8573965000105,None,255.75426359998528,None,0.24539210001239553,,,,,,,,,,,,,,,,,,,,,,,,,,,,,,,,,,,,,,,,,,,,,,,,,P027,FEN,2,Pre,2022_Feb_28_1036,Go No-Go Task,2021.1.4,120.31942405804713,
EPracticeConditions/BlueScram.csv,"Rule: When you see a blue image, do not press 'spacebar'.",Images/Scram1/AM03NES.jpg,Scramble,Yellow,Images/Yellow.jpg,space,,,,,,,0,2,2,2,0,2,2,4,,,,,,,,,,,,,,,,,,,,,,,,,,,,,,,,,,,,,,,,,,,,,,,,,,,1.2,257.7555435000104,None,space,1,259.0560936999973,None,259.0560936999973,None,259.0560936999973,None,259.952448099968,None,0.2782806000323035,,,,,,,,,,,,,,,,,,,,,,,,,,,,,,,,,,,,,,,,,,,,,,,,,P027,FEN,2,Pre,2022_Feb_28_1036,Go No-Go Task,2021.1.4,120.31942405804713,
EPracticeConditions/BlueScram.csv,"Rule: When you see a blue image, do not press 'spacebar'.",Images/Scram1/BM08_NC.jpg,Scramble,Blue,Images/Blue.jpg,None,,,,,,,0,2,2,2,0,3,3,0,,,,,,,,,,,,,,,,,,,,,,,,,,,,,,,,,,,,,,,,,,,,,,,,,,,1.5,261.9540350000025,None,None,1,263.5548514999682,None,263.5548514999682,None,263.5548514999682,None,264.44589350000024,None,,,,,,,,,,,,,,,,,,,,,,,,,,,,,,,,,,,,,,,,,,,,,,,,,,P027,FEN,2,Pre,2022_Feb_28_1036,Go No-Go Task,2021.1.4,120.31942405804713,
EPracticeConditions/BlueScram.csv,"Rule: When you see a blue image, do not press 'spacebar'.",Images/Scram1/BF18_NC.jpg,Scramble,Blue,Images/Blue.jpg,None,,,,,,,0,2,2,2,0,4,4,1,,,,,,,,,,,,,,,,,,,,,,,,,,,,,,,,,,,,,,,,,,,,,,,,,,,1.4,266.45419439999387,None,space,0,267.9618027000106,None,267.9618027000106,None,267.9618027000106,None,268.862886399962,None,0.30850789998658,,,,,,,,,,,,,,,,,,,,,,,,,,,,,,,,,,,,,,,,,,,,,,,,,P027,FEN,2,Pre,2022_Feb_28_1036,Go No-Go Task,2021.1.4,120.31942405804713,
EPracticeConditions/BlueScram.csv,"Rule: When you see a blue image, do not press 'spacebar'.",Images/Scram1/AM04_NC.jpg,Scramble,Yellow,Images/Yellow.jpg,space,,,,,,,0,2,2,2,0,5,5,3,,,,,,,,,,,,,,,,,,,,,,,,,,,,,,,,,,,,,,,,,,,,,,,,,,,1.8,270.86840209999355,None,space,1,272.7687998000183,None,272.7687998000183,None,272.7687998000183,None,273.663175099995,None,0.30967270000837743,,,,,,,,,,,,,,,,,,,,,,,,,,,,,,,,,,,,,,,,,,,,,,,,,P027,FEN,2,Pre,2022_Feb_28_1036,Go No-Go Task,2021.1.4,120.31942405804713,
EPracticeConditions/BlueScram.csv,"Rule: When you see a blue image, do not press 'spacebar'.",Images/Scram1/AM13NES.jpg,Scramble,Yellow,Images/Yellow.jpg,space,,,,,,,0,2,2,2,0,6,6,5,,,,,,,,,,,,,,,,,,,,,,,,,,,,,,,,,,,,,,,,,,,,,,,,,,,1.3,275.66864849999547,None,None,0,277.07585269998526,None,277.07585269998526,None,277.07585269998526,None,277.98152600001777,None,,,,,,,,,,,,,,,,,,,,,,,,,,,,,,,,,,,,,,,,,,,,,,,,,,P027,FEN,2,Pre,2022_Feb_28_1036,Go No-Go Task,2021.1.4,120.31942405804713,
EPracticeConditions/BlueScram.csv,"Rule: When you see a blue image, do not press 'spacebar'.",Images/Scram2/AM03_NC.jpg,Scramble,Yellow,Images/Yellow.jpg,space,,,,,,,0,2,2,2,0,7,7,6,,,,,,,,,,,,,,,,,,,,,,,,,,,,,,,,,,,,,,,,,,,,,,,,,,,1.9,279.98242299997946,None,space,1,281.9827562000137,None,281.9827562000137,None,281.9827562000137,None,282.89087299996754,None,0.35200469999108464,,,,,,,,,,,,,,,,,,,,,,,,,,,,,,,,,,,,,,,,,,,,,,,,,P027,FEN,2,Pre,2022_Feb_28_1036,Go No-Go Task,2021.1.4,120.31942405804713,
EPracticeConditions/BlueScram.csv,"Rule: When you see a blue image, do not press 'spacebar'.",,,,,,,,,,,,0,2,2,2,,,,,,,,,,,,,,,,,,,,,,,,,,,,,,,,,,,,,,,,,,,,,,,,,,,,,,,,,,,,,,,,,,,,,,,,,,,,,,,,,,,,,,,,,,,,,,,,,,,,,,,,,,,,,,,,,,,,,P027,FEN,2,Pre,2022_Feb_28_1036,Go No-Go Task,2021.1.4,120.31942405804713,
EPracticeConditions/YellowScram.csv,"Rule: When you see a yellow image, do not press 'spacebar'.",Images/Scram1/AF10_NC.jpg,Scramble,Blue,Images/Blue.jpg,space,,,,,,,0,3,3,3,0,0,0,6,,,,,,,,,,,,,,,,,,,,,,,,,,,,,,,,,,,,,284.90296739997575,None,287.88841869996395,None,space,0.4458879999583587,287.88841869996395,None,284.90296739997575,None,284.90296739997575,None,284.90296739997575,None,1.9,288.35370410000905,None,None,0,290.3552856000024,None,290.3552856000024,None,290.3552856000024,None,291.26175559998956,None,,,,,,,,,,,,,,,,,,,,,,,,,,,,,,,,,,,,,,,,,,,,,,,,,,P027,FEN,2,Pre,2022_Feb_28_1036,Go No-Go Task,2021.1.4,120.31942405804713,
EPracticeConditions/YellowScram.csv,"Rule: When you see a yellow image, do not press 'spacebar'.",Images/Scram1/AF07NES.jpg,Scramble,Blue,Images/Blue.jpg,space,,,,,,,0,3,3,3,0,1,1,3,,,,,,,,,,,,,,,,,,,,,,,,,,,,,,,,,,,,,,,,,,,,,,,,,,,1.2,293.2620377999847,None,space,1,294.5622236999916,None,294.5622236999916,None,294.5622236999916,None,295.4673124999972,None,0.3803798999870196,,,,,,,,,,,,,,,,,,,,,,,,,,,,,,,,,,,,,,,,,,,,,,,,,P027,FEN,2,Pre,2022_Feb_28_1036,Go No-Go Task,2021.1.4,120.31942405804713,
EPracticeConditions/YellowScram.csv,"Rule: When you see a yellow image, do not press 'spacebar'.",Images/Scram1/BM01_NC.jpg,Scramble,Blue,Images/Blue.jpg,space,,,,,,,0,3,3,3,0,2,2,5,,,,,,,,,,,,,,,,,,,,,,,,,,,,,,,,,,,,,,,,,,,,,,,,,,,1.7,297.46905879996484,None,space,1,299.26928319997387,None,299.26928319997387,None,299.26928319997387,None,300.17050279997056,None,0.28921509999781847,,,,,,,,,,,,,,,,,,,,,,,,,,,,,,,,,,,,,,,,,,,,,,,,,P027,FEN,2,Pre,2022_Feb_28_1036,Go No-Go Task,2021.1.4,120.31942405804713,
EPracticeConditions/YellowScram.csv,"Rule: When you see a yellow image, do not press 'spacebar'.",Images/Scram1/AF30NES.JPG,Scramble,Blue,Images/Blue.jpg,space,,,,,,,0,3,3,3,0,3,3,4,,,,,,,,,,,,,,,,,,,,,,,,,,,,,,,,,,,,,,,,,,,,,,,,,,,1.4,302.1759202000103,None,None,0,303.6759092999855,None,303.6759092999855,None,303.6759092999855,None,304.56823219999205,None,,,,,,,,,,,,,,,,,,,,,,,,,,,,,,,,,,,,,,,,,,,,,,,,,,P027,FEN,2,Pre,2022_Feb_28_1036,Go No-Go Task,2021.1.4,120.31942405804713,
EPracticeConditions/YellowScram.csv,"Rule: When you see a yellow image, do not press 'spacebar'.",Images/Scram2/HM06_NC.jpg,Scramble,Yellow,Images/Yellow.jpg,None,,,,,,,0,3,3,3,0,4,4,0,,,,,,,,,,,,,,,,,,,,,,,,,,,,,,,,,,,,,,,,,,,,,,,,,,,1.3,306.57427109999117,None,None,1,307.9752856999985,None,307.9752856999985,None,307.9752856999985,None,308.8652100000181,None,,,,,,,,,,,,,,,,,,,,,,,,,,,,,,,,,,,,,,,,,,,,,,,,,,P027,FEN,2,Pre,2022_Feb_28_1036,Go No-Go Task,2021.1.4,120.31942405804713,
EPracticeConditions/YellowScram.csv,"Rule: When you see a yellow image, do not press 'spacebar'.",Images/Scram1/AF24NES.jpg,Scramble,Blue,Images/Blue.jpg,space,,,,,,,0,3,3,3,0,5,5,7,,,,,,,,,,,,,,,,,,,,,,,,,,,,,,,,,,,,,,,,,,,,,,,,,,,1.5,310.86465960001806,None,space,1,312.46494609996444,None,312.46494609996444,None,312.46494609996444,None,313.35549579997314,None,0.23743460001423955,,,,,,,,,,,,,,,,,,,,,,,,,,,,,,,,,,,,,,,,,,,,,,,,,P027,FEN,2,Pre,2022_Feb_28_1036,Go No-Go Task,2021.1.4,120.31942405804713,
EPracticeConditions/YellowScram.csv,"Rule: When you see a yellow image, do not press 'spacebar'.",Images/Scram1/HF04_NC.jpg,Scramble,Blue,Images/Blue.jpg,space,,,,,,,0,3,3,3,0,6,6,2,,,,,,,,,,,,,,,,,,,,,,,,,,,,,,,,,,,,,,,,,,,,,,,,,,,1.6,315.3550432000193,None,None,0,317.04698019998614,None,317.04698019998614,None,317.04698019998614,None,317.9459235999966,None,,,,,,,,,,,,,,,,,,,,,,,,,,,,,,,,,,,,,,,,,,,,,,,,,,P027,FEN,2,Pre,2022_Feb_28_1036,Go No-Go Task,2021.1.4,120.31942405804713,
EPracticeConditions/YellowScram.csv,"Rule: When you see a yellow image, do not press 'spacebar'.",Images/Scram2/AM03NES.jpg,Scramble,Yellow,Images/Yellow.jpg,None,,,,,,,0,3,3,3,0,7,7,1,,,,,,,,,,,,,,,,,,,,,,,,,,,,,,,,,,,,,,,,,,,,,,,,,,,1.8,319.9491295000189,None,None,1,321.854344899999,None,321.854344899999,None,321.854344899999,None,322.7528632999747,None,,,,,,,,,,,,,,,,,,,,,,,,,,,,,,,,,,,,,,,,,,,,,,,,,,P027,FEN,2,Pre,2022_Feb_28_1036,Go No-Go Task,2021.1.4,120.31942405804713,
EPracticeConditions/YellowScram.csv,"Rule: When you see a yellow image, do not press 'spacebar'.",,,,,,,,,,,,0,3,3,3,,,,,,,,,,,,,,,,,,,,,,,,,,,,,,,,,,,,,,,,,,,,,,,,,,,,,,,,,,,,,,,,,,,,,,,,,,,,,,,,,,,,,,,,,,,,,,,,,,,,,,,,,,,,,,,,,,,,,P027,FEN,2,Pre,2022_Feb_28_1036,Go No-Go Task,2021.1.4,120.31942405804713,
,,,,,,,,,,,,,,,,,,,,,,,,,,,,,,,,,,,,,,,,,,,,,,,,,,,,,,,,,,,,,,,,,,,,,,,,,,,,,,,,,,,,,326.1416967000114,None,space,9.731455100001767,326.61913349997485,None,,,,,,,,,,,,,,,,,,,,,,,,,,,,,,,,,,,,,,,,,,,P027,FEN,2,Pre,2022_Feb_28_1036,Go No-Go Task,2021.1.4,120.31942405804713,
,,,,,,,,,,,,,,,,,,,,,,,,,,,,,,,,,,,,,,,,,,,,,,,,,,,,,,,,,,,,,,,,,,,,,,,,,,,,,,,,,,,,,,,,,,,336.3595297000138,None,space,2.207078100007493,336.3595297000138,None,,,,,,,,,,,,,,,,,,,,,,,,,,,,,,,,,,,,,P027,FEN,2,Pre,2022_Feb_28_1036,Go No-Go Task,2021.1.4,120.31942405804713,
,"Rule: When you see a yellow image, do not press 'spacebar'.",Images/Fearful/BM02_FC.jpg,Fear,Blue,Images/Blue.jpg,space,ParentConditions/YellowBlueBlue_v2.xlsx,BlueBlueYellow,Conditions/Version_2/YellowHappyStop.xlsx,no,PASS,0.16858645908030467,,,,,,,,,0,0,0,0,0,0,0,0,0,0,0,0,,,,,,,,,,,,,,,,,,,,,,,,,,,,,,,,,,,,,,,,,,,,,,,,,,,,,,,,,,,,,,,,,338.64209799998207,None,341.63118989998475,None,space,1.1831104999873787,341.63118989998475,None,338.64209799998207,None,338.64209799998207,None,338.64209799998207,None,1.76,342.8596395999775,None,space,1,0.2600626000203192,344.7227109000087,None,344.7227109000087,None,344.7227109000087,None,,,,,,,,,,,P027,FEN,2,Pre,2022_Feb_28_1036,Go No-Go Task,2021.1.4,120.31942405804713,
,"Rule: When you see a yellow image, do not press 'spacebar'.",Images/Fearful/HF05_FC.jpg,Fear,Blue,Images/Blue.jpg,space,ParentConditions/YellowBlueBlue_v2.xlsx,BlueBlueYellow,Conditions/Version_2/YellowHappyStop.xlsx,no,PASS,0.9484055972569129,,,,,,,,,0,0,0,0,0,0,0,0,0,1,1,1,,,,,,,,,,,,,,,,,,,,,,,,,,,,,,,,,,,,,,,,,,,,,,,,,,,,,,,,,,,,,,,,,,,,,,,,,,,,,,,1.71,345.1261900999816,None,space,1,0.2995060999528505,346.94693979999283,None,346.94693979999283,None,346.94693979999283,None,,,,,,,,,,,P027,FEN,2,Pre,2022_Feb_28_1036,Go No-Go Task,2021.1.4,120.31942405804713,
,"Rule: When you see a yellow image, do not press 'spacebar'.",Images/Happy/AF32HAS.jpg,Happy,Yellow,Images/Yellow.jpg,None,ParentConditions/YellowBlueBlue_v2.xlsx,BlueBlueYellow,Conditions/Version_2/YellowHappyStop.xlsx,yes,PASS,0.508887905761459,,,,,,,,,0,0,0,0,0,0,0,0,0,2,2,2,,,,,,,,,,,,,,,,,,,,,,,,,,,,,,,,,,,,,,,,,,,,,,,,,,,,,,,,,,,,,,,,,,,,,,,,,,,,,,,1.87,347.34576200001175,None,None,1,,349.3212304000044,None,349.3212304000044,None,349.3212304000044,None,,,,,,,,,,,P027,FEN,2,Pre,2022_Feb_28_1036,Go No-Go Task,2021.1.4,120.31942405804713,
,"Rule: When you see a yellow image, do not press 'spacebar'.",Images/Happy/AM32HAS.jpg,Happy,Yellow,Images/Yellow.jpg,None,ParentConditions/YellowBlueBlue_v2.xlsx,BlueBlueYellow,Conditions/Version_2/YellowHappyStop.xlsx,yes,PASS,0.12877007601010582,,,,,,,,,0,0,0,0,0,0,0,0,0,3,3,3,,,,,,,,,,,,,,,,,,,,,,,,,,,,,,,,,,,,,,,,,,,,,,,,,,,,,,,,,,,,,,,,,,,,,,,,,,,,,,,1.82,349.72215390001656,None,None,1,,351.6455426000175,None,351.6455426000175,None,351.6455426000175,None,,,,,,,,,,,P027,FEN,2,Pre,2022_Feb_28_1036,Go No-Go Task,2021.1.4,120.31942405804713,
,"Rule: When you see a yellow image, do not press 'spacebar'.",Images/Fearful/AF07FS.jpg,Fear,Blue,Images/Blue.jpg,space,ParentConditions/YellowBlueBlue_v2.xlsx,BlueBlueYellow,Conditions/Version_2/YellowHappyStop.xlsx,no,PASS,0.4320382618493961,,,,,,,,,0,0,0,0,0,0,0,0,0,4,4,4,,,,,,,,,,,,,,,,,,,,,,,,,,,,,,,,,,,,,,,,,,,,,,,,,,,,,,,,,,,,,,,,,,,,,,,,,,,,,,,1.24,352.04627509997226,None,space,1,0.29176670004380867,353.38668830000097,None,353.38668830000097,None,353.38668830000097,None,,,,,,,,,,,P027,FEN,2,Pre,2022_Feb_28_1036,Go No-Go Task,2021.1.4,120.31942405804713,
,"Rule: When you see a yellow image, do not press 'spacebar'.",Images/Fearful/AM30AFS.jpg,Fear,Blue,Images/Blue.jpg,space,ParentConditions/YellowBlueBlue_v2.xlsx,BlueBlueYellow,Conditions/Version_2/YellowHappyStop.xlsx,no,PASS,0.14164593092902533,,,,,,,,,0,0,0,0,0,0,0,0,0,5,5,5,,,,,,,,,,,,,,,,,,,,,,,,,,,,,,,,,,,,,,,,,,,,,,,,,,,,,,,,,,,,,,,,,,,,,,,,,,,,,,,1.61,353.787660699978,None,space,1,0.28003520000493154,355.5027193999849,None,355.5027193999849,None,355.5027193999849,None,,,,,,,,,,,P027,FEN,2,Pre,2022_Feb_28_1036,Go No-Go Task,2021.1.4,120.31942405804713,
,"Rule: When you see a yellow image, do not press 'spacebar'.",Images/Happy/BM03_HO.jpg,Happy,Yellow,Images/Yellow.jpg,None,ParentConditions/YellowBlueBlue_v2.xlsx,BlueBlueYellow,Conditions/Version_2/YellowHappyStop.xlsx,yes,PASS,0.824528473694533,,,,,,,,,0,0,0,0,0,0,0,0,0,6,6,6,,,,,,,,,,,,,,,,,,,,,,,,,,,,,,,,,,,,,,,,,,,,,,,,,,,,,,,,,,,,,,,,,,,,,,,,,,,,,,,1.62,355.9058445999981,None,None,1,,357.63538829999743,None,357.63538829999743,None,357.63538829999743,None,,,,,,,,,,,P027,FEN,2,Pre,2022_Feb_28_1036,Go No-Go Task,2021.1.4,120.31942405804713,
,"Rule: When you see a yellow image, do not press 'spacebar'.",Images/Fearful/HM06_FC.jpg,Fear,Blue,Images/Blue.jpg,space,ParentConditions/YellowBlueBlue_v2.xlsx,BlueBlueYellow,Conditions/Version_2/YellowHappyStop.xlsx,no,PASS,0.06881493513979675,,,,,,,,,0,0,0,0,0,0,0,0,0,7,7,7,,,,,,,,,,,,,,,,,,,,,,,,,,,,,,,,,,,,,,,,,,,,,,,,,,,,,,,,,,,,,,,,,,,,,,,,,,,,,,,1.3,358.03427409997676,None,space,1,0.26773510000202805,359.4348571000155,None,359.4348571000155,None,359.4348571000155,None,,,,,,,,,,,P027,FEN,2,Pre,2022_Feb_28_1036,Go No-Go Task,2021.1.4,120.31942405804713,
,"Rule: When you see a yellow image, do not press 'spacebar'.",Images/Fearful/AF19AFS.jpg,Fear,Blue,Images/Blue.jpg,space,ParentConditions/YellowBlueBlue_v2.xlsx,BlueBlueYellow,Conditions/Version_2/YellowHappyStop.xlsx,no,PASS,0.6194516353064884,,,,,,,,,0,0,0,0,0,0,0,0,0,8,8,8,,,,,,,,,,,,,,,,,,,,,,,,,,,,,,,,,,,,,,,,,,,,,,,,,,,,,,,,,,,,,,,,,,,,,,,,,,,,,,,1.85,359.8354498000117,None,space,1,0.33403259998885915,361.7925174999982,None,361.7925174999982,None,361.7925174999982,None,,,,,,,,,,,P027,FEN,2,Pre,2022_Feb_28_1036,Go No-Go Task,2021.1.4,120.31942405804713,
,"Rule: When you see a yellow image, do not press 'spacebar'.",Images/Happy/AF30HAS.jpg,Happy,Yellow,Images/Yellow.jpg,None,ParentConditions/YellowBlueBlue_v2.xlsx,BlueBlueYellow,Conditions/Version_2/YellowHappyStop.xlsx,yes,PASS,0.7783721125891628,,,,,,,,,0,0,0,0,0,0,0,0,0,9,9,9,,,,,,,,,,,,,,,,,,,,,,,,,,,,,,,,,,,,,,,,,,,,,,,,,,,,,,,,,,,,,,,,,,,,,,,,,,,,,,,1.72,362.19500319997314,None,None,1,,364.01687419996597,None,364.01687419996597,None,364.01687419996597,None,,,,,,,,,,,P027,FEN,2,Pre,2022_Feb_28_1036,Go No-Go Task,2021.1.4,120.31942405804713,
,"Rule: When you see a yellow image, do not press 'spacebar'.",Images/Fearful/AF25AFS.jpg,Fear,Blue,Images/Blue.jpg,space,ParentConditions/YellowBlueBlue_v2.xlsx,BlueBlueYellow,Conditions/Version_2/YellowHappyStop.xlsx,no,PASS,0.9528113424204139,,,,,,,,,0,0,0,0,0,0,0,0,0,10,10,10,,,,,,,,,,,,,,,,,,,,,,,,,,,,,,,,,,,,,,,,,,,,,,,,,,,,,,,,,,,,,,,,,,,,,,,,,,,,,,,1.36,364.4155611000024,None,space,1,0.31547129998216406,365.8829772999743,None,365.8829772999743,None,365.8829772999743,None,,,,,,,,,,,P027,FEN,2,Pre,2022_Feb_28_1036,Go No-Go Task,2021.1.4,120.31942405804713,
,"Rule: When you see a yellow image, do not press 'spacebar'.",Images/Fearful/AF30AFS.jpg,Fear,Blue,Images/Blue.jpg,space,ParentConditions/YellowBlueBlue_v2.xlsx,BlueBlueYellow,Conditions/Version_2/YellowHappyStop.xlsx,no,PASS,0.022094815080431318,,,,,,,,,0,0,0,0,0,0,0,0,0,11,11,11,,,,,,,,,,,,,,,,,,,,,,,,,,,,,,,,,,,,,,,,,,,,,,,,,,,,,,,,,,,,,,,,,,,,,,,,,,,,,,,1.25,366.2834230000153,None,space,1,0.3176926000160165,367.64081579999765,None,367.64081579999765,None,367.64081579999765,None,,,,,,,,,,,P027,FEN,2,Pre,2022_Feb_28_1036,Go No-Go Task,2021.1.4,120.31942405804713,
,"Rule: When you see a yellow image, do not press 'spacebar'.",Images/Happy/BF10_HO.jpg,Happy,Yellow,Images/Yellow.jpg,None,ParentConditions/YellowBlueBlue_v2.xlsx,BlueBlueYellow,Conditions/Version_2/YellowHappyStop.xlsx,yes,PASS,0.5001600173303757,,,,,,,,,0,0,0,0,0,0,0,0,0,12,12,12,,,,,,,,,,,,,,,,,,,,,,,,,,,,,,,,,,,,,,,,,,,,,,,,,,,,,,,,,,,,,,,,,,,,,,,,,,,,,,,1.74,368.04417969996575,None,None,1,,369.890118899988,None,369.890118899988,None,369.890118899988,None,,,,,,,,,,,P027,FEN,2,Pre,2022_Feb_28_1036,Go No-Go Task,2021.1.4,120.31942405804713,
,"Rule: When you see a yellow image, do not press 'spacebar'.",Images/Fearful/AM06_FO.jpg,Fear,Blue,Images/Blue.jpg,space,ParentConditions/YellowBlueBlue_v2.xlsx,BlueBlueYellow,Conditions/Version_2/YellowHappyStop.xlsx,no,PASS,0.578262378462087,,,,,,,,,0,0,0,0,0,0,0,0,0,13,13,13,,,,,,,,,,,,,,,,,,,,,,,,,,,,,,,,,,,,,,,,,,,,,,,,,,,,,,,,,,,,,,,,,,,,,,,,,,,,,,,1.38,370.29081139998743,None,space,1,0.353770199988503,371.7729551999946,None,371.7729551999946,None,371.7729551999946,None,,,,,,,,,,,P027,FEN,2,Pre,2022_Feb_28_1036,Go No-Go Task,2021.1.4,120.31942405804713,
,"Rule: When you see a yellow image, do not press 'spacebar'.",Images/Happy/AM24HAS.jpg,Happy,Yellow,Images/Yellow.jpg,None,ParentConditions/YellowBlueBlue_v2.xlsx,BlueBlueYellow,Conditions/Version_2/YellowHappyStop.xlsx,yes,PASS,0.39484184444569004,,,,,,,,,0,0,0,0,0,0,0,0,0,14,14,14,,,,,,,,,,,,,,,,,,,,,,,,,,,,,,,,,,,,,,,,,,,,,,,,,,,,,,,,,,,,,,,,,,,,,,,,,,,,,,,1.58,372.178196199995,None,None,1,,373.85568129998865,None,373.85568129998865,None,373.85568129998865,None,,,,,,,,,,,P027,FEN,2,Pre,2022_Feb_28_1036,Go No-Go Task,2021.1.4,120.31942405804713,
,"Rule: When you see a yellow image, do not press 'spacebar'.",Images/Fearful/AF21AFS.jpg,Fear,Blue,Images/Blue.jpg,space,ParentConditions/YellowBlueBlue_v2.xlsx,BlueBlueYellow,Conditions/Version_2/YellowHappyStop.xlsx,no,PASS,0.6432231069793333,,,,,,,,,0,0,0,0,0,0,0,0,0,15,15,15,,,,,,,,,,,,,,,,,,,,,,,,,,,,,,,,,,,,,,,,,,,,,,,,,,,,,,,,,,,,,,,,,,,,,,,,,,,,,,,1.21,374.25622589996783,None,space,1,0.2829761999892071,375.57179020001786,None,375.57179020001786,None,375.57179020001786,None,,,,,,,,,,,P027,FEN,2,Pre,2022_Feb_28_1036,Go No-Go Task,2021.1.4,120.31942405804713,
,"Rule: When you see a yellow image, do not press 'spacebar'.",Images/Happy/AM06_HC.jpg,Happy,Yellow,Images/Yellow.jpg,None,ParentConditions/YellowBlueBlue_v2.xlsx,BlueBlueYellow,Conditions/Version_2/YellowHappyStop.xlsx,yes,PASS,0.7943976294198472,,,,,,,,,0,0,0,0,0,0,0,0,0,16,16,16,,,,,,,,,,,,,,,,,,,,,,,,,,,,,,,,,,,,,,,,,,,,,,,,,,,,,,,,,,,,,,,,,,,,,,,,,,,,,,,1.99,375.9719478000188,None,None,1,,378.0628909000079,None,378.0628909000079,None,378.0628909000079,None,,,,,,,,,,,P027,FEN,2,Pre,2022_Feb_28_1036,Go No-Go Task,2021.1.4,120.31942405804713,
,"Rule: When you see a yellow image, do not press 'spacebar'.",Images/Fearful/AF10_FC.jpg,Fear,Blue,Images/Blue.jpg,space,ParentConditions/YellowBlueBlue_v2.xlsx,BlueBlueYellow,Conditions/Version_2/YellowHappyStop.xlsx,no,PASS,0.4387172057805456,,,,,,,,,0,0,0,0,0,0,0,0,0,17,17,17,,,,,,,,,,,,,,,,,,,,,,,,,,,,,,,,,,,,,,,,,,,,,,,,,,,,,,,,,,,,,,,,,,,,,,,,,,,,,,,1.5,378.4727245999966,None,space,1,0.29518160002771765,380.0872282999917,None,380.0872282999917,None,380.0872282999917,None,,,,,,,,,,,P027,FEN,2,Pre,2022_Feb_28_1036,Go No-Go Task,2021.1.4,120.31942405804713,
,"Rule: When you see a yellow image, do not press 'spacebar'.",Images/Fearful/BM03_FC.jpg,Fear,Blue,Images/Blue.jpg,space,ParentConditions/YellowBlueBlue_v2.xlsx,BlueBlueYellow,Conditions/Version_2/YellowHappyStop.xlsx,no,PASS,0.20170262712346598,,,,,,,,,0,0,0,0,0,0,0,0,0,18,18,18,,,,,,,,,,,,,,,,,,,,,,,,,,,,,,,,,,,,,,,,,,,,,,,,,,,,,,,,,,,,,,,,,,,,,,,,,,,,,,,1.26,380.4920115999994,None,space,1,0.3770990999764763,381.8532579999883,None,381.8532579999883,None,381.8532579999883,None,,,,,,,,,,,P027,FEN,2,Pre,2022_Feb_28_1036,Go No-Go Task,2021.1.4,120.31942405804713,
,"Rule: When you see a yellow image, do not press 'spacebar'.",Images/Fearful/HM09_FC.jpg,Fear,Blue,Images/Blue.jpg,space,ParentConditions/YellowBlueBlue_v2.xlsx,BlueBlueYellow,Conditions/Version_2/YellowHappyStop.xlsx,no,PASS,0.15976906823467862,,,,,,,,,0,0,0,0,0,0,0,0,0,19,19,19,,,,,,,,,,,,,,,,,,,,,,,,,,,,,,,,,,,,,,,,,,,,,,,,,,,,,,,,,,,,,,,,,,,,,,,,,,,,,,,1.41,382.2536058999831,None,space,1,0.34921210003085434,383.7694535999908,None,383.7694535999908,None,383.7694535999908,None,,,,,,,,,,,P027,FEN,2,Pre,2022_Feb_28_1036,Go No-Go Task,2021.1.4,120.31942405804713,
,"Rule: When you see a yellow image, do not press 'spacebar'.",Images/Fearful/AM04_FO.jpg,Fear,Blue,Images/Blue.jpg,space,ParentConditions/YellowBlueBlue_v2.xlsx,BlueBlueYellow,Conditions/Version_2/YellowHappyStop.xlsx,no,PASS,0.7842232797128176,,,,,,,,,0,0,0,0,0,0,0,0,0,20,20,20,,,,,,,,,,,,,,,,,,,,,,,,,,,,,,,,,,,,,,,,,,,,,,,,,,,,,,,,,,,,,,,,,,,,,,,,,,,,,,,1.47,384.1718020999688,None,None,0,,385.74371929996414,None,385.74371929996414,None,385.74371929996414,None,,,,,,,,,,,P027,FEN,2,Pre,2022_Feb_28_1036,Go No-Go Task,2021.1.4,120.31942405804713,
,"Rule: When you see a yellow image, do not press 'spacebar'.",Images/Fearful/AF11AFS.jpg,Fear,Blue,Images/Blue.jpg,space,ParentConditions/YellowBlueBlue_v2.xlsx,BlueBlueYellow,Conditions/Version_2/YellowHappyStop.xlsx,no,PASS,0.5758948553509043,,,,,,,,,0,0,0,0,0,0,0,0,0,21,21,21,,,,,,,,,,,,,,,,,,,,,,,,,,,,,,,,,,,,,,,,,,,,,,,,,,,,,,,,,,,,,,,,,,,,,,,,,,,,,,,1.51,386.1444926999975,None,space,1,0.3827159999636933,387.7596737999702,None,387.7596737999702,None,387.7596737999702,None,,,,,,,,,,,P027,FEN,2,Pre,2022_Feb_28_1036,Go No-Go Task,2021.1.4,120.31942405804713,
,"Rule: When you see a yellow image, do not press 'spacebar'.",Images/Fearful/AM10_FO.jpg,Fear,Blue,Images/Blue.jpg,space,ParentConditions/YellowBlueBlue_v2.xlsx,BlueBlueYellow,Conditions/Version_2/YellowHappyStop.xlsx,no,PASS,0.7516560744284169,,,,,,,,,0,0,0,0,0,0,0,0,0,22,22,22,,,,,,,,,,,,,,,,,,,,,,,,,,,,,,,,,,,,,,,,,,,,,,,,,,,,,,,,,,,,,,,,,,,,,,,,,,,,,,,1.92,388.1591464999947,None,space,1,0.3267375999712385,390.1838170000119,None,390.1838170000119,None,390.1838170000119,None,,,,,,,,,,,P027,FEN,2,Pre,2022_Feb_28_1036,Go No-Go Task,2021.1.4,120.31942405804713,
,"Rule: When you see a yellow image, do not press 'spacebar'.",Images/Fearful/WF04_FC.jpg,Fear,Blue,Images/Blue.jpg,space,ParentConditions/YellowBlueBlue_v2.xlsx,BlueBlueYellow,Conditions/Version_2/YellowHappyStop.xlsx,no,PASS,0.8626299251261901,,,,,,,,,0,0,0,0,0,0,0,0,0,23,23,23,,,,,,,,,,,,,,,,,,,,,,,,,,,,,,,,,,,,,,,,,,,,,,,,,,,,,,,,,,,,,,,,,,,,,,,,,,,,,,,1.83,390.58709210000234,None,space,1,0.2815746999694966,392.51684190001106,None,392.51684190001106,None,392.51684190001106,None,,,,,,,,,,,P027,FEN,2,Pre,2022_Feb_28_1036,Go No-Go Task,2021.1.4,120.31942405804713,
,"Rule: When you see a yellow image, do not press 'spacebar'.",Images/Fearful/AF28AFS.jpg,Fear,Blue,Images/Blue.jpg,space,ParentConditions/YellowBlueBlue_v2.xlsx,BlueBlueYellow,Conditions/Version_2/YellowHappyStop.xlsx,no,PASS,0.7326117629083128,,,,,,,,,0,0,0,0,0,0,0,0,0,24,24,24,,,,,,,,,,,,,,,,,,,,,,,,,,,,,,,,,,,,,,,,,,,,,,,,,,,,,,,,,,,,,,,,,,,,,,,,,,,,,,,1.81,392.91550479998114,None,space,1,0.31772649998310953,394.8330103000044,None,394.8330103000044,None,394.8330103000044,None,,,,,,,,,,,P027,FEN,2,Pre,2022_Feb_28_1036,Go No-Go Task,2021.1.4,120.31942405804713,
,"Rule: When you see a yellow image, do not press 'spacebar'.",Images/Fearful/WF11_FC.jpg,Fear,Blue,Images/Blue.jpg,space,ParentConditions/YellowBlueBlue_v2.xlsx,BlueBlueYellow,Conditions/Version_2/YellowHappyStop.xlsx,no,PASS,0.32883698788558013,,,,,,,,,0,0,0,0,0,0,0,0,0,25,25,25,,,,,,,,,,,,,,,,,,,,,,,,,,,,,,,,,,,,,,,,,,,,,,,,,,,,,,,,,,,,,,,,,,,,,,,,,,,,,,,1.94,395.2335049000103,None,space,1,0.29239229997619987,397.2738589000073,None,397.2738589000073,None,397.2738589000073,None,,,,,,,,,,,P027,FEN,2,Pre,2022_Feb_28_1036,Go No-Go Task,2021.1.4,120.31942405804713,
,"Rule: When you see a yellow image, do not press 'spacebar'.",Images/Fearful/AM17AFS.jpg,Fear,Blue,Images/Blue.jpg,space,ParentConditions/YellowBlueBlue_v2.xlsx,BlueBlueYellow,Conditions/Version_2/YellowHappyStop.xlsx,no,PASS,0.2011457593950874,,,,,,,,,0,0,0,0,0,0,0,0,0,26,26,26,,,,,,,,,,,,,,,,,,,,,,,,,,,,,,,,,,,,,,,,,,,,,,,,,,,,,,,,,,,,,,,,,,,,,,,,,,,,,,,1.27,397.67255809996277,None,space,1,0.2866667999769561,399.0479836000013,None,399.0479836000013,None,399.0479836000013,None,,,,,,,,,,,P027,FEN,2,Pre,2022_Feb_28_1036,Go No-Go Task,2021.1.4,120.31942405804713,
,"Rule: When you see a yellow image, do not press 'spacebar'.",Images/Happy/AF27HAS.jpg,Happy,Yellow,Images/Yellow.jpg,None,ParentConditions/YellowBlueBlue_v2.xlsx,BlueBlueYellow,Conditions/Version_2/YellowHappyStop.xlsx,yes,PASS,0.03113428438097654,,,,,,,,,0,0,0,0,0,0,0,0,0,27,27,27,,,,,,,,,,,,,,,,,,,,,,,,,,,,,,,,,,,,,,,,,,,,,,,,,,,,,,,,,,,,,,,,,,,,,,,,,,,,,,,1.88,399.447384900006,None,None,1,,401.4309164999868,None,401.4309164999868,None,401.4309164999868,None,,,,,,,,,,,P027,FEN,2,Pre,2022_Feb_28_1036,Go No-Go Task,2021.1.4,120.31942405804713,
,"Rule: When you see a yellow image, do not press 'spacebar'.",Images/Fearful/BF10_FO.jpg,Fear,Blue,Images/Blue.jpg,space,ParentConditions/YellowBlueBlue_v2.xlsx,BlueBlueYellow,Conditions/Version_2/YellowHappyStop.xlsx,no,PASS,0.8821344053441019,,,,,,,,,0,0,0,0,0,0,0,0,0,28,28,28,,,,,,,,,,,,,,,,,,,,,,,,,,,,,,,,,,,,,,,,,,,,,,,,,,,,,,,,,,,,,,,,,,,,,,,,,,,,,,,1.69,401.83039000001736,None,space,1,0.33671280002454296,403.6219143999624,None,403.6219143999624,None,403.6219143999624,None,,,,,,,,,,,P027,FEN,2,Pre,2022_Feb_28_1036,Go No-Go Task,2021.1.4,120.31942405804713,
,"Rule: When you see a yellow image, do not press 'spacebar'.",Images/Fearful/HF04_FO.jpg,Fear,Blue,Images/Blue.jpg,space,ParentConditions/YellowBlueBlue_v2.xlsx,BlueBlueYellow,Conditions/Version_2/YellowHappyStop.xlsx,no,PASS,0.10236928865186712,,,,,,,,,0,0,0,0,0,0,0,0,0,29,29,29,,,,,,,,,,,,,,,,,,,,,,,,,,,,,,,,,,,,,,,,,,,,,,,,,,,,,,,,,,,,,,,,,,,,,,,,,,,,,,,1.6,404.02257709996775,None,space,1,0.380768800037913,405.7296723999898,None,405.7296723999898,None,405.7296723999898,None,,,,,,,,,,,P027,FEN,2,Pre,2022_Feb_28_1036,Go No-Go Task,2021.1.4,120.31942405804713,
,"Rule: When you see a yellow image, do not press 'spacebar'.",Images/Happy/AF26HAS.jpg,Happy,Yellow,Images/Yellow.jpg,None,ParentConditions/YellowBlueBlue_v2.xlsx,BlueBlueYellow,Conditions/Version_2/YellowHappyStop.xlsx,yes,PASS,0.3122778532266225,,,,,,,,,0,0,0,0,0,0,0,0,0,30,30,30,,,,,,,,,,,,,,,,,,,,,,,,,,,,,,,,,,,,,,,,,,,,,,,,,,,,,,,,,,,,,,,,,,,,,,,,,,,,,,,1.42,406.1313703999622,None,None,1,,407.6540367999696,None,407.6540367999696,None,407.6540367999696,None,,,,,,,,,,,P027,FEN,2,Pre,2022_Feb_28_1036,Go No-Go Task,2021.1.4,120.31942405804713,
,"Rule: When you see a yellow image, do not press 'spacebar'.",Images/Happy/HF09_HE.jpg,Happy,Yellow,Images/Yellow.jpg,None,ParentConditions/YellowBlueBlue_v2.xlsx,BlueBlueYellow,Conditions/Version_2/YellowHappyStop.xlsx,yes,PASS,0.8889954581367391,,,,,,,,,0,0,0,0,0,0,0,0,0,31,31,31,,,,,,,,,,,,,,,,,,,,,,,,,,,,,,,,,,,,,,,,,,,,,,,,,,,,,,,,,,,,,,,,,,,,,,,,,,,,,,,1.9,408.05304159998195,None,None,1,,410.0530853999662,None,410.0530853999662,None,410.0530853999662,None,,,,,,,,,,,P027,FEN,2,Pre,2022_Feb_28_1036,Go No-Go Task,2021.1.4,120.31942405804713,
,"Rule: When you see a yellow image, do not press 'spacebar'.",Images/Fearful/AM16AFS.jpg,Fear,Blue,Images/Blue.jpg,space,ParentConditions/YellowBlueBlue_v2.xlsx,BlueBlueYellow,Conditions/Version_2/YellowHappyStop.xlsx,no,PASS,0.3485636078399603,,,,,,,,,0,0,0,0,0,0,0,0,0,32,32,32,,,,,,,,,,,,,,,,,,,,,,,,,,,,,,,,,,,,,,,,,,,,,,,,,,,,,,,,,,,,,,,,,,,,,,,,,,,,,,,1.32,410.45891849999316,None,space,1,0.3525247999932617,411.88605209998786,None,411.88605209998786,None,411.88605209998786,None,,,,,,,,,,,P027,FEN,2,Pre,2022_Feb_28_1036,Go No-Go Task,2021.1.4,120.31942405804713,
,"Rule: When you see a yellow image, do not press 'spacebar'.",Images/Fearful/WF05_FO.jpg,Fear,Blue,Images/Blue.jpg,space,ParentConditions/YellowBlueBlue_v2.xlsx,BlueBlueYellow,Conditions/Version_2/YellowHappyStop.xlsx,no,PASS,0.571161037699378,,,,,,,,,0,0,0,0,0,0,0,0,0,33,33,33,,,,,,,,,,,,,,,,,,,,,,,,,,,,,,,,,,,,,,,,,,,,,,,,,,,,,,,,,,,,,,,,,,,,,,,,,,,,,,,1.86,412.289899699972,None,space,1,0.36247950000688434,414.25206610001624,None,414.25206610001624,None,414.25206610001624,None,,,,,,,,,,,P027,FEN,2,Pre,2022_Feb_28_1036,Go No-Go Task,2021.1.4,120.31942405804713,
,"Rule: When you see a yellow image, do not press 'spacebar'.",Images/Fearful/AM03_FC.jpg,Fear,Blue,Images/Blue.jpg,space,ParentConditions/YellowBlueBlue_v2.xlsx,BlueBlueYellow,Conditions/Version_2/YellowHappyStop.xlsx,no,PASS,0.795310308756252,,,,,,,,,0,0,0,0,0,0,0,0,0,34,34,34,,,,,,,,,,,,,,,,,,,,,,,,,,,,,,,,,,,,,,,,,,,,,,,,,,,,,,,,,,,,,,,,,,,,,,,,,,,,,,,1.54,414.6531305999961,None,space,1,0.25732809997862205,416.29323070001556,None,416.29323070001556,None,416.29323070001556,None,,,,,,,,,,,P027,FEN,2,Pre,2022_Feb_28_1036,Go No-Go Task,2021.1.4,120.31942405804713,
,"Rule: When you see a yellow image, do not press 'spacebar'.",Images/Fearful/AM01AFS.jpg,Fear,Blue,Images/Blue.jpg,space,ParentConditions/YellowBlueBlue_v2.xlsx,BlueBlueYellow,Conditions/Version_2/YellowHappyStop.xlsx,no,PASS,0.0960655228006344,,,,,,,,,0,0,0,0,0,0,0,0,0,35,35,35,,,,,,,,,,,,,,,,,,,,,,,,,,,,,,,,,,,,,,,,,,,,,,,,,,,,,,,,,,,,,,,,,,,,,,,,,,,,,,,1.68,416.6937414999702,None,space,1,0.242511700023897,418.4758823000011,None,418.4758823000011,None,418.4758823000011,None,,,,,,,,,,,P027,FEN,2,Pre,2022_Feb_28_1036,Go No-Go Task,2021.1.4,120.31942405804713,
,"Rule: When you see a yellow image, do not press 'spacebar'.",Images/Fearful/HM04_FC.jpg,Fear,Blue,Images/Blue.jpg,space,ParentConditions/YellowBlueBlue_v2.xlsx,BlueBlueYellow,Conditions/Version_2/YellowHappyStop.xlsx,no,PASS,0.2671765254267089,,,,,,,,,0,0,0,0,0,0,0,0,0,36,36,36,,,,,,,,,,,,,,,,,,,,,,,,,,,,,,,,,,,,,,,,,,,,,,,,,,,,,,,,,,,,,,,,,,,,,,,,,,,,,,,1.53,418.87624740001047,None,space,1,0.3141561999800615,420.50857279996853,None,420.50857279996853,None,420.50857279996853,None,,,,,,,,,,,P027,FEN,2,Pre,2022_Feb_28_1036,Go No-Go Task,2021.1.4,120.31942405804713,
,"Rule: When you see a yellow image, do not press 'spacebar'.",Images/Fearful/BF18_FC.jpg,Fear,Blue,Images/Blue.jpg,space,ParentConditions/YellowBlueBlue_v2.xlsx,BlueBlueYellow,Conditions/Version_2/YellowHappyStop.xlsx,no,PASS,0.30493199358976686,,,,,,,,,0,0,0,0,0,0,0,0,0,37,37,37,,,,,,,,,,,,,,,,,,,,,,,,,,,,,,,,,,,,,,,,,,,,,,,,,,,,,,,,,,,,,,,,,,,,,,,,,,,,,,,1.59,420.9119105999707,None,space,1,0.31861909996951,422.60800439998275,None,422.60800439998275,None,422.60800439998275,None,,,,,,,,,,,P027,FEN,2,Pre,2022_Feb_28_1036,Go No-Go Task,2021.1.4,120.31942405804713,
,"Rule: When you see a yellow image, do not press 'spacebar'.",Images/Fearful/AF07_FO.jpg,Fear,Blue,Images/Blue.jpg,space,ParentConditions/YellowBlueBlue_v2.xlsx,BlueBlueYellow,Conditions/Version_2/YellowHappyStop.xlsx,no,PASS,0.06571981152440787,,,,,,,,,0,0,0,0,0,0,0,0,0,38,38,38,,,,,,,,,,,,,,,,,,,,,,,,,,,,,,,,,,,,,,,,,,,,,,,,,,,,,,,,,,,,,,,,,,,,,,,,,,,,,,,1.48,423.0077444000053,None,space,1,0.3196584000252187,424.5907417999697,None,424.5907417999697,None,424.5907417999697,None,,,,,,,,,,,P027,FEN,2,Pre,2022_Feb_28_1036,Go No-Go Task,2021.1.4,120.31942405804713,
,"Rule: When you see a yellow image, do not press 'spacebar'.",Images/Fearful/AM24AFS.jpg,Fear,Blue,Images/Blue.jpg,space,ParentConditions/YellowBlueBlue_v2.xlsx,BlueBlueYellow,Conditions/Version_2/YellowHappyStop.xlsx,no,PASS,0.23738601052691555,,,,,,,,,0,0,0,0,0,0,0,0,0,39,39,39,,,,,,,,,,,,,,,,,,,,,,,,,,,,,,,,,,,,,,,,,,,,,,,,,,,,,,,,,,,,,,,,,,,,,,,,,,,,,,,1.78,424.98939619999146,None,space,1,0.2771815999876708,426.8733661000151,None,426.8733661000151,None,426.8733661000151,None,,,,,,,,,,,P027,FEN,2,Pre,2022_Feb_28_1036,Go No-Go Task,2021.1.4,120.31942405804713,
,"Rule: When you see a yellow image, do not press 'spacebar'.",Images/Fearful/AM03AFS.jpg,Fear,Blue,Images/Blue.jpg,space,ParentConditions/YellowBlueBlue_v2.xlsx,BlueBlueYellow,Conditions/Version_2/YellowHappyStop.xlsx,no,PASS,0.9496981002344779,,,,,,,,,0,0,0,0,0,0,0,0,0,40,40,40,,,,,,,,,,,,,,,,,,,,,,,,,,,,,,,,,,,,,,,,,,,,,,,,,,,,,,,,,,,,,,,,,,,,,,,,,,,,,,,1.35,427.2761934999726,None,space,1,0.28350389999104664,428.73119949997636,None,428.73119949997636,None,428.73119949997636,None,,,,,,,,,,,P027,FEN,2,Pre,2022_Feb_28_1036,Go No-Go Task,2021.1.4,120.31942405804713,
,"Rule: When you see a yellow image, do not press 'spacebar'.",Images/Fearful/BM08_FC.jpg,Fear,Blue,Images/Blue.jpg,space,ParentConditions/YellowBlueBlue_v2.xlsx,BlueBlueYellow,Conditions/Version_2/YellowHappyStop.xlsx,no,PASS,0.9731806168242675,,,,,,,,,0,0,0,0,0,0,0,0,0,41,41,41,,,,,,,,,,,,,,,,,,,,,,,,,,,,,,,,,,,,,,,,,,,,,,,,,,,,,,,,,,,,,,,,,,,,,,,,,,,,,,,1.93,429.1321729000192,None,space,1,0.2826964000123553,431.16379409999354,None,431.16379409999354,None,431.16379409999354,None,,,,,,,,,,,P027,FEN,2,Pre,2022_Feb_28_1036,Go No-Go Task,2021.1.4,120.31942405804713,
,"Rule: When you see a yellow image, do not press 'spacebar'.",Images/Fearful/AF32AFS.jpg,Fear,Blue,Images/Blue.jpg,space,ParentConditions/YellowBlueBlue_v2.xlsx,BlueBlueYellow,Conditions/Version_2/YellowHappyStop.xlsx,no,PASS,0.6516797726115628,,,,,,,,,0,0,0,0,0,0,0,0,0,42,42,42,,,,,,,,,,,,,,,,,,,,,,,,,,,,,,,,,,,,,,,,,,,,,,,,,,,,,,,,,,,,,,,,,,,,,,,,,,,,,,,1.49,431.56453889998375,None,space,1,0.2996210000128485,433.15487339999527,None,433.15487339999527,None,433.15487339999527,None,,,,,,,,,,,P027,FEN,2,Pre,2022_Feb_28_1036,Go No-Go Task,2021.1.4,120.31942405804713,
,"Rule: When you see a yellow image, do not press 'spacebar'.",Images/Fearful/AF26AFS.jpg,Fear,Blue,Images/Blue.jpg,space,ParentConditions/YellowBlueBlue_v2.xlsx,BlueBlueYellow,Conditions/Version_2/YellowHappyStop.xlsx,no,PASS,0.7646464028460872,,,,,,,,,0,0,0,0,0,0,0,0,0,43,43,43,,,,,,,,,,,,,,,,,,,,,,,,,,,,,,,,,,,,,,,,,,,,,,,,,,,,,,,,,,,,,,,,,,,,,,,,,,,,,,,1.97,433.55500300001586,None,space,1,0.28152570000384003,435.6290627999697,None,435.6290627999697,None,435.6290627999697,None,,,,,,,,,,,P027,FEN,2,Pre,2022_Feb_28_1036,Go No-Go Task,2021.1.4,120.31942405804713,
,"Rule: When you see a yellow image, do not press 'spacebar'.",Images/Fearful/BF09_FC.jpg,Fear,Blue,Images/Blue.jpg,space,ParentConditions/YellowBlueBlue_v2.xlsx,BlueBlueYellow,Conditions/Version_2/YellowHappyStop.xlsx,no,PASS,0.026085524820318784,,,,,,,,,0,0,0,0,0,0,0,0,0,44,44,44,,,,,,,,,,,,,,,,,,,,,,,,,,,,,,,,,,,,,,,,,,,,,,,,,,,,,,,,,,,,,,,,,,,,,,,,,,,,,,,1.7,436.02922919997945,None,space,1,0.3530278000398539,437.8374548999709,None,437.8374548999709,None,437.8374548999709,None,,,,,,,,,,,P027,FEN,2,Pre,2022_Feb_28_1036,Go No-Go Task,2021.1.4,120.31942405804713,
,"Rule: When you see a yellow image, do not press 'spacebar'.",Images/Fearful/BM01_FO.jpg,Fear,Blue,Images/Blue.jpg,space,ParentConditions/YellowBlueBlue_v2.xlsx,BlueBlueYellow,Conditions/Version_2/YellowHappyStop.xlsx,no,PASS,0.5546632244892579,,,,,,,,,0,0,0,0,0,0,0,0,0,45,45,45,,,,,,,,,,,,,,,,,,,,,,,,,,,,,,,,,,,,,,,,,,,,,,,,,,,,,,,,,,,,,,,,,,,,,,,,,,,,,,,1.66,438.237674199976,None,space,1,0.2759106000303291,440.0028220000095,None,440.0028220000095,None,440.0028220000095,None,,,,,,,,,,,P027,FEN,2,Pre,2022_Feb_28_1036,Go No-Go Task,2021.1.4,120.31942405804713,
,"Rule: When you see a yellow image, do not press 'spacebar'.",Images/Happy/BF14_HO.jpg,Happy,Yellow,Images/Yellow.jpg,None,ParentConditions/YellowBlueBlue_v2.xlsx,BlueBlueYellow,Conditions/Version_2/YellowHappyStop.xlsx,yes,PASS,0.8128181362801364,,,,,,,,,0,0,0,0,0,0,0,0,0,46,46,46,,,,,,,,,,,,,,,,,,,,,,,,,,,,,,,,,,,,,,,,,,,,,,,,,,,,,,,,,,,,,,,,,,,,,,,,,,,,,,,1.34,440.40433609997854,None,None,1,,441.8523371000192,None,441.8523371000192,None,441.8523371000192,None,,,,,,,,,,,P027,FEN,2,Pre,2022_Feb_28_1036,Go No-Go Task,2021.1.4,120.31942405804713,
,"Rule: When you see a yellow image, do not press 'spacebar'.",Images/Fearful/WM11_FC.jpg,Fear,Blue,Images/Blue.jpg,space,ParentConditions/YellowBlueBlue_v2.xlsx,BlueBlueYellow,Conditions/Version_2/YellowHappyStop.xlsx,no,PASS,0.9251187011996334,,,,,,,,,0,0,0,0,0,0,0,0,0,47,47,47,,,,,,,,,,,,,,,,,,,,,,,,,,,,,,,,,,,,,,,,,,,,,,,,,,,,,,,,,,,,,,,,,,,,,,,,,,,,,,,1.22,442.2517730999971,None,space,1,0.35775560000911355,443.57677949999925,None,443.57677949999925,None,443.57677949999925,None,,,,,,,,,,,P027,FEN,2,Pre,2022_Feb_28_1036,Go No-Go Task,2021.1.4,120.31942405804713,
,"Rule: When you see a yellow image, do not press 'spacebar'.",Images/Fearful/AM02_FO.jpg,Fear,Blue,Images/Blue.jpg,space,ParentConditions/YellowBlueBlue_v2.xlsx,BlueBlueYellow,Conditions/Version_2/YellowHappyStop.xlsx,no,PASS,0.0455811702140666,,,,,,,,,0,0,0,0,0,0,0,0,0,48,48,48,,,,,,,,,,,,,,,,,,,,,,,,,,,,,,,,,,,,,,,,,,,,,,,,,,,,,,,,,,,,,,,,,,,,,,,,,,,,,,,1.77,443.97877039999,None,space,1,0.3234948000172153,445.85112199996365,None,445.85112199996365,None,445.85112199996365,None,,,,,,,,,,,P027,FEN,2,Pre,2022_Feb_28_1036,Go No-Go Task,2021.1.4,120.31942405804713,
,"Rule: When you see a yellow image, do not press 'spacebar'.",Images/Happy/HM09_HO.jpg,Happy,Yellow,Images/Yellow.jpg,None,ParentConditions/YellowBlueBlue_v2.xlsx,BlueBlueYellow,Conditions/Version_2/YellowHappyStop.xlsx,yes,PASS,0.3219974030212036,,,,,,,,,0,0,0,0,0,0,0,0,0,49,49,49,,,,,,,,,,,,,,,,,,,,,,,,,,,,,,,,,,,,,,,,,,,,,,,,,,,,,,,,,,,,,,,,,,,,,,,,,,,,,,,1.65,446.2517541999696,None,None,1,,448.00893319997704,None,448.00893319997704,None,448.00893319997704,None,,,,,,,,,,,P027,FEN,2,Pre,2022_Feb_28_1036,Go No-Go Task,2021.1.4,120.31942405804713,
,"Rule: When you see a yellow image, do not press 'spacebar'.",Images/Happy/HF10_HE.jpg,Happy,Yellow,Images/Yellow.jpg,None,ParentConditions/YellowBlueBlue_v2.xlsx,BlueBlueYellow,Conditions/Version_2/YellowHappyStop.xlsx,yes,PASS,0.5613535526914523,,,,,,,,,0,0,0,0,0,0,0,0,0,50,50,50,,,,,,,,,,,,,,,,,,,,,,,,,,,,,,,,,,,,,,,,,,,,,,,,,,,,,,,,,,,,,,,,,,,,,,,,,,,,,,,1.44,448.4098229999654,None,None,1,,449.9497901999857,None,449.9497901999857,None,449.9497901999857,None,,,,,,,,,,,P027,FEN,2,Pre,2022_Feb_28_1036,Go No-Go Task,2021.1.4,120.31942405804713,
,"Rule: When you see a yellow image, do not press 'spacebar'.",Images/Fearful/AF09AFS.jpg,Fear,Blue,Images/Blue.jpg,space,ParentConditions/YellowBlueBlue_v2.xlsx,BlueBlueYellow,Conditions/Version_2/YellowHappyStop.xlsx,no,PASS,0.5511492847876154,,,,,,,,,0,0,0,0,0,0,0,0,0,51,51,51,,,,,,,,,,,,,,,,,,,,,,,,,,,,,,,,,,,,,,,,,,,,,,,,,,,,,,,,,,,,,,,,,,,,,,,,,,,,,,,1.2,450.3490695999935,None,space,1,0.3092764000175521,451.64944359997753,None,451.64944359997753,None,451.64944359997753,None,,,,,,,,,,,P027,FEN,2,Pre,2022_Feb_28_1036,Go No-Go Task,2021.1.4,120.31942405804713,
,"Rule: When you see a yellow image, do not press 'spacebar'.",Images/Fearful/AM23AFS.jpg,Fear,Blue,Images/Blue.jpg,space,ParentConditions/YellowBlueBlue_v2.xlsx,BlueBlueYellow,Conditions/Version_2/YellowHappyStop.xlsx,no,PASS,0.2159972500516506,,,,,,,,,0,0,0,0,0,0,0,0,0,52,52,52,,,,,,,,,,,,,,,,,,,,,,,,,,,,,,,,,,,,,,,,,,,,,,,,,,,,,,,,,,,,,,,,,,,,,,,,,,,,,,,1.89,452.04964869999094,None,space,1,0.31002660002559423,454.04033009998966,None,454.04033009998966,None,454.04033009998966,None,,,,,,,,,,,P027,FEN,2,Pre,2022_Feb_28_1036,Go No-Go Task,2021.1.4,120.31942405804713,
,"Rule: When you see a yellow image, do not press 'spacebar'.",Images/Fearful/AM05AFS.jpg,Fear,Blue,Images/Blue.jpg,space,ParentConditions/YellowBlueBlue_v2.xlsx,BlueBlueYellow,Conditions/Version_2/YellowHappyStop.xlsx,no,PASS,0.18827335330329198,,,,,,,,,0,0,0,0,0,0,0,0,0,53,53,53,,,,,,,,,,,,,,,,,,,,,,,,,,,,,,,,,,,,,,,,,,,,,,,,,,,,,,,,,,,,,,,,,,,,,,,,,,,,,,,1.96,454.4412311000051,None,space,1,0.37248890002956614,456.49805220001144,None,456.49805220001144,None,456.49805220001144,None,,,,,,,,,,,P027,FEN,2,Pre,2022_Feb_28_1036,Go No-Go Task,2021.1.4,120.31942405804713,
,"Rule: When you see a yellow image, do not press 'spacebar'.",Images/Happy/AF28HAS.jpg,Happy,Yellow,Images/Yellow.jpg,None,ParentConditions/YellowBlueBlue_v2.xlsx,BlueBlueYellow,Conditions/Version_2/YellowHappyStop.xlsx,yes,PASS,0.7444008667159328,,,,,,,,,0,0,0,0,0,0,0,0,0,54,54,54,,,,,,,,,,,,,,,,,,,,,,,,,,,,,,,,,,,,,,,,,,,,,,,,,,,,,,,,,,,,,,,,,,,,,,,,,,,,,,,1.37,456.9025981000159,None,None,1,,458.38071050000144,None,458.38071050000144,None,458.38071050000144,None,,,,,,,,,,,P027,FEN,2,Pre,2022_Feb_28_1036,Go No-Go Task,2021.1.4,120.31942405804713,
,"Rule: When you see a yellow image, do not press 'spacebar'.",Images/Fearful/BF14_FO.jpg,Fear,Blue,Images/Blue.jpg,space,ParentConditions/YellowBlueBlue_v2.xlsx,BlueBlueYellow,Conditions/Version_2/YellowHappyStop.xlsx,no,PASS,0.036114312510467594,,,,,,,,,0,0,0,0,0,0,0,0,0,55,55,55,,,,,,,,,,,,,,,,,,,,,,,,,,,,,,,,,,,,,,,,,,,,,,,,,,,,,,,,,,,,,,,,,,,,,,,,,,,,,,,1.28,458.78016889997525,None,space,1,0.3149995999992825,460.16358789999504,None,460.16358789999504,None,460.16358789999504,None,,,,,,,,,,,P027,FEN,2,Pre,2022_Feb_28_1036,Go No-Go Task,2021.1.4,120.31942405804713,
,"Rule: When you see a yellow image, do not press 'spacebar'.",Images/Happy/AM30HAS.jpg,Happy,Yellow,Images/Yellow.jpg,None,ParentConditions/YellowBlueBlue_v2.xlsx,BlueBlueYellow,Conditions/Version_2/YellowHappyStop.xlsx,yes,PASS,0.9276323490247724,,,,,,,,,0,0,0,0,0,0,0,0,0,56,56,56,,,,,,,,,,,,,,,,,,,,,,,,,,,,,,,,,,,,,,,,,,,,,,,,,,,,,,,,,,,,,,,,,,,,,,,,,,,,,,,1.79,460.56381219998,None,None,1,,462.4546214999864,None,462.4546214999864,None,462.4546214999864,None,,,,,,,,,,,P027,FEN,2,Pre,2022_Feb_28_1036,Go No-Go Task,2021.1.4,120.31942405804713,
,"Rule: When you see a yellow image, do not press 'spacebar'.",Images/Fearful/AF27AFS.jpg,Fear,Blue,Images/Blue.jpg,space,ParentConditions/YellowBlueBlue_v2.xlsx,BlueBlueYellow,Conditions/Version_2/YellowHappyStop.xlsx,no,PASS,0.9674336643747157,,,,,,,,,0,0,0,0,0,0,0,0,0,57,57,57,,,,,,,,,,,,,,,,,,,,,,,,,,,,,,,,,,,,,,,,,,,,,,,,,,,,,,,,,,,,,,,,,,,,,,,,,,,,,,,1.45,462.85537760000443,None,space,1,0.23432089999550954,464.4123186999932,None,464.4123186999932,None,464.4123186999932,None,,,,,,,,,,,P027,FEN,2,Pre,2022_Feb_28_1036,Go No-Go Task,2021.1.4,120.31942405804713,
,"Rule: When you see a yellow image, do not press 'spacebar'.",Images/Fearful/AM32AFS.jpg,Fear,Blue,Images/Blue.jpg,space,ParentConditions/YellowBlueBlue_v2.xlsx,BlueBlueYellow,Conditions/Version_2/YellowHappyStop.xlsx,no,PASS,0.5429320828851499,,,,,,,,,0,0,0,0,0,0,0,0,0,58,58,58,,,,,,,,,,,,,,,,,,,,,,,,,,,,,,,,,,,,,,,,,,,,,,,,,,,,,,,,,,,,,,,,,,,,,,,,,,,,,,,1.23,464.81272960000206,None,space,1,0.3734624999924563,466.1451322999783,None,466.1451322999783,None,466.1451322999783,None,,,,,,,,,,,P027,FEN,2,Pre,2022_Feb_28_1036,Go No-Go Task,2021.1.4,120.31942405804713,
,"Rule: When you see a yellow image, do not press 'spacebar'.",Images/Fearful/AM09_FO.jpg,Fear,Blue,Images/Blue.jpg,space,ParentConditions/YellowBlueBlue_v2.xlsx,BlueBlueYellow,Conditions/Version_2/YellowHappyStop.xlsx,no,PASS,0.5248989229975377,,,,,,,,,0,0,0,0,0,0,0,0,0,59,59,59,,,,,,,,,,,,,,,,,,,,,,,,,,,,,,,,,,,,,,,,,,,,,,,,,,,,,,,,,,,,,,,,,,,,,,,,,,,,,,,1.98,466.5459409999894,None,space,1,0.298807899991516,468.6277745999978,None,468.6277745999978,None,468.6277745999978,None,,,,,,,,,,,P027,FEN,2,Pre,2022_Feb_28_1036,Go No-Go Task,2021.1.4,120.31942405804713,
,"Rule: When you see a yellow image, do not press 'spacebar'.",Images/Fearful/AF01_FO.jpg,Fear,Blue,Images/Blue.jpg,space,ParentConditions/YellowBlueBlue_v2.xlsx,BlueBlueYellow,Conditions/Version_2/YellowHappyStop.xlsx,no,PASS,0.007145119379767917,,,,,,,,,0,0,0,0,0,0,0,0,0,60,60,60,,,,,,,,,,,,,,,,,,,,,,,,,,,,,,,,,,,,,,,,,,,,,,,,,,,,,,,,,,,,,,,,,,,,,,,,,,,,,,,2,469.0285764000146,None,space,1,0.28736170002957806,471.13537510001333,None,471.13537510001333,None,471.13537510001333,None,,,,,,,,,,,P027,FEN,2,Pre,2022_Feb_28_1036,Go No-Go Task,2021.1.4,120.31942405804713,
,"Rule: When you see a yellow image, do not press 'spacebar'.",Images/Happy/AM10_HO.jpg,Happy,Yellow,Images/Yellow.jpg,None,ParentConditions/YellowBlueBlue_v2.xlsx,BlueBlueYellow,Conditions/Version_2/YellowHappyStop.xlsx,yes,PASS,0.8341186478720962,,,,,,,,,0,0,0,0,0,0,0,0,0,61,61,61,,,,,,,,,,,,,,,,,,,,,,,,,,,,,,,,,,,,,,,,,,,,,,,,,,,,,,,,,,,,,,,,,,,,,,,,,,,,,,,1.84,471.54134639998665,None,None,1,,473.4846941999858,None,473.4846941999858,None,473.4846941999858,None,,,,,,,,,,,P027,FEN,2,Pre,2022_Feb_28_1036,Go No-Go Task,2021.1.4,120.31942405804713,
,"Rule: When you see a yellow image, do not press 'spacebar'.",Images/Happy/AM22HAS.jpg,Happy,Yellow,Images/Yellow.jpg,None,ParentConditions/YellowBlueBlue_v2.xlsx,BlueBlueYellow,Conditions/Version_2/YellowHappyStop.xlsx,yes,PASS,0.6172419840647391,,,,,,,,,0,0,0,0,0,0,0,0,0,62,62,62,,,,,,,,,,,,,,,,,,,,,,,,,,,,,,,,,,,,,,,,,,,,,,,,,,,,,,,,,,,,,,,,,,,,,,,,,,,,,,,1.73,473.8838012999622,None,None,1,,475.71731129998807,None,475.71731129998807,None,475.71731129998807,None,,,,,,,,,,,P027,FEN,2,Pre,2022_Feb_28_1036,Go No-Go Task,2021.1.4,120.31942405804713,
,"Rule: When you see a yellow image, do not press 'spacebar'.",Images/Fearful/AM22AFS.jpg,Fear,Blue,Images/Blue.jpg,space,ParentConditions/YellowBlueBlue_v2.xlsx,BlueBlueYellow,Conditions/Version_2/YellowHappyStop.xlsx,no,PASS,0.13735844586330215,,,,,,,,,0,0,0,0,0,0,0,0,0,63,63,63,,,,,,,,,,,,,,,,,,,,,,,,,,,,,,,,,,,,,,,,,,,,,,,,,,,,,,,,,,,,,,,,,,,,,,,,,,,,,,,1.67,476.1190746999928,None,space,1,0.22723050002241507,477.89130039996235,None,477.89130039996235,None,477.89130039996235,None,,,,,,,,,,,P027,FEN,2,Pre,2022_Feb_28_1036,Go No-Go Task,2021.1.4,120.31942405804713,
,"Rule: When you see a yellow image, do not press 'spacebar'.",Images/Happy/BM08_HO.jpg,Happy,Yellow,Images/Yellow.jpg,None,ParentConditions/YellowBlueBlue_v2.xlsx,BlueBlueYellow,Conditions/Version_2/YellowHappyStop.xlsx,yes,PASS,0.19822628709829182,,,,,,,,,0,0,0,0,0,0,0,0,0,64,64,64,,,,,,,,,,,,,,,,,,,,,,,,,,,,,,,,,,,,,,,,,,,,,,,,,,,,,,,,,,,,,,,,,,,,,,,,,,,,,,,1.52,478.29108639998594,None,None,1,,479.91607269999804,None,479.91607269999804,None,479.91607269999804,None,,,,,,,,,,,P027,FEN,2,Pre,2022_Feb_28_1036,Go No-Go Task,2021.1.4,120.31942405804713,
,"Rule: When you see a yellow image, do not press 'spacebar'.",Images/Fearful/AM19AFS.jpg,Fear,Blue,Images/Blue.jpg,space,ParentConditions/YellowBlueBlue_v2.xlsx,BlueBlueYellow,Conditions/Version_2/YellowHappyStop.xlsx,no,PASS,0.9846537447676192,,,,,,,,,0,0,0,0,0,0,0,0,0,65,65,65,,,,,,,,,,,,,,,,,,,,,,,,,,,,,,,,,,,,,,,,,,,,,,,,,,,,,,,,,,,,,,,,,,,,,,,,,,,,,,,1.8,480.31532960000914,None,space,1,0.2553141000098549,482.21550409996416,None,482.21550409996416,None,482.21550409996416,None,,,,,,,,,,,P027,FEN,2,Pre,2022_Feb_28_1036,Go No-Go Task,2021.1.4,120.31942405804713,
,"Rule: When you see a yellow image, do not press 'spacebar'.",Images/Fearful/AF23AFS.jpg,Fear,Blue,Images/Blue.jpg,space,ParentConditions/YellowBlueBlue_v2.xlsx,BlueBlueYellow,Conditions/Version_2/YellowHappyStop.xlsx,no,PASS,0.06538281980323435,,,,,,,,,0,0,0,0,0,0,0,0,0,66,66,66,,,,,,,,,,,,,,,,,,,,,,,,,,,,,,,,,,,,,,,,,,,,,,,,,,,,,,,,,,,,,,,,,,,,,,,,,,,,,,,1.33,482.6184283000184,None,space,1,0.32611399999586865,484.05655899998965,None,484.05655899998965,None,484.05655899998965,None,,,,,,,,,,,P027,FEN,2,Pre,2022_Feb_28_1036,Go No-Go Task,2021.1.4,120.31942405804713,
,"Rule: When you see a yellow image, do not press 'spacebar'.",Images/Fearful/AM13AFS.jpg,Fear,Blue,Images/Blue.jpg,space,ParentConditions/YellowBlueBlue_v2.xlsx,BlueBlueYellow,Conditions/Version_2/YellowHappyStop.xlsx,no,PASS,0.501942139065686,,,,,,,,,0,0,0,0,0,0,0,0,0,67,67,67,,,,,,,,,,,,,,,,,,,,,,,,,,,,,,,,,,,,,,,,,,,,,,,,,,,,,,,,,,,,,,,,,,,,,,,,,,,,,,,1.29,484.45701509999344,None,space,1,0.2388360000331886,485.84766759997,None,485.84766759997,None,485.84766759997,None,,,,,,,,,,,P027,FEN,2,Pre,2022_Feb_28_1036,Go No-Go Task,2021.1.4,120.31942405804713,
,"Rule: When you see a yellow image, do not press 'spacebar'.",Images/Fearful/HF09_FC.jpg,Fear,Blue,Images/Blue.jpg,space,ParentConditions/YellowBlueBlue_v2.xlsx,BlueBlueYellow,Conditions/Version_2/YellowHappyStop.xlsx,no,PASS,0.5863101312226996,,,,,,,,,0,0,0,0,0,0,0,0,0,68,68,68,,,,,,,,,,,,,,,,,,,,,,,,,,,,,,,,,,,,,,,,,,,,,,,,,,,,,,,,,,,,,,,,,,,,,,,,,,,,,,,1.43,486.24752079998143,None,space,1,0.2822976000024937,487.78008739999495,None,487.78008739999495,None,487.78008739999495,None,,,,,,,,,,,P027,FEN,2,Pre,2022_Feb_28_1036,Go No-Go Task,2021.1.4,120.31942405804713,
,"Rule: When you see a yellow image, do not press 'spacebar'.",Images/Fearful/AM04AFS.jpg,Fear,Blue,Images/Blue.jpg,space,ParentConditions/YellowBlueBlue_v2.xlsx,BlueBlueYellow,Conditions/Version_2/YellowHappyStop.xlsx,no,PASS,0.9464588162199873,,,,,,,,,0,0,0,0,0,0,0,0,0,69,69,69,,,,,,,,,,,,,,,,,,,,,,,,,,,,,,,,,,,,,,,,,,,,,,,,,,,,,,,,,,,,,,,,,,,,,,,,,,,,,,,1.57,488.1792681000079,None,space,1,0.256049899966456,489.8544935999671,None,489.8544935999671,None,489.8544935999671,None,,,,,,,,,,,P027,FEN,2,Pre,2022_Feb_28_1036,Go No-Go Task,2021.1.4,120.31942405804713,
,"Rule: When you see a yellow image, do not press 'spacebar'.",Images/Fearful/AF02AFS.jpg,Fear,Blue,Images/Blue.jpg,space,ParentConditions/YellowBlueBlue_v2.xlsx,BlueBlueYellow,Conditions/Version_2/YellowHappyStop.xlsx,no,PASS,0.745835010449707,,,,,,,,,0,0,0,0,0,0,0,0,0,70,70,70,,,,,,,,,,,,,,,,,,,,,,,,,,,,,,,,,,,,,,,,,,,,,,,,,,,,,,,,,,,,,,,,,,,,,,,,,,,,,,,1.39,490.25358169997344,None,space,1,0.22868920001201332,491.74560259998543,None,491.74560259998543,None,491.74560259998543,None,,,,,,,,,,,P027,FEN,2,Pre,2022_Feb_28_1036,Go No-Go Task,2021.1.4,120.31942405804713,
,"Rule: When you see a yellow image, do not press 'spacebar'.",Images/Fearful/AM09AFS.jpg,Fear,Blue,Images/Blue.jpg,space,ParentConditions/YellowBlueBlue_v2.xlsx,BlueBlueYellow,Conditions/Version_2/YellowHappyStop.xlsx,no,PASS,0.8501894993195995,,,,,,,,,0,0,0,0,0,0,0,0,0,71,71,71,,,,,,,,,,,,,,,,,,,,,,,,,,,,,,,,,,,,,,,,,,,,,,,,,,,,,,,,,,,,,,,,,,,,,,,,,,,,,,,1.31,492.14469980000285,None,space,1,0.22062129998812452,493.56178220000584,None,493.56178220000584,None,493.56178220000584,None,,,,,,,,,,,P027,FEN,2,Pre,2022_Feb_28_1036,Go No-Go Task,2021.1.4,120.31942405804713,
,"Rule: When you see a yellow image, do not press 'spacebar'.",Images/Fearful/BF05_FO.jpg,Fear,Blue,Images/Blue.jpg,space,ParentConditions/YellowBlueBlue_v2.xlsx,BlueBlueYellow,Conditions/Version_2/YellowHappyStop.xlsx,no,PASS,0.41552487186891285,,,,,,,,,0,0,0,0,0,0,0,0,0,72,72,72,,,,,,,,,,,,,,,,,,,,,,,,,,,,,,,,,,,,,,,,,,,,,,,,,,,,,,,,,,,,,,,,,,,,,,,,,,,,,,,1.55,493.96080699999584,None,space,1,0.2752332999953069,495.61106739996467,None,495.61106739996467,None,495.61106739996467,None,,,,,,,,,,,P027,FEN,2,Pre,2022_Feb_28_1036,Go No-Go Task,2021.1.4,120.31942405804713,
,"Rule: When you see a yellow image, do not press 'spacebar'.",Images/Fearful/AF22AFS.jpg,Fear,Blue,Images/Blue.jpg,space,ParentConditions/YellowBlueBlue_v2.xlsx,BlueBlueYellow,Conditions/Version_2/YellowHappyStop.xlsx,no,PASS,0.6701019786706065,,,,,,,,,0,0,0,0,0,0,0,0,0,73,73,73,,,,,,,,,,,,,,,,,,,,,,,,,,,,,,,,,,,,,,,,,,,,,,,,,,,,,,,,,,,,,,,,,,,,,,,,,,,,,,,1.95,496.01024879998295,None,space,1,0.2659697000053711,498.0603799999808,None,498.0603799999808,None,498.0603799999808,None,,,,,,,,,,,P027,FEN,2,Pre,2022_Feb_28_1036,Go No-Go Task,2021.1.4,120.31942405804713,
,"Rule: When you see a yellow image, do not press 'spacebar'.",Images/Happy/BF18_HO.jpg,Happy,Yellow,Images/Yellow.jpg,None,ParentConditions/YellowBlueBlue_v2.xlsx,BlueBlueYellow,Conditions/Version_2/YellowHappyStop.xlsx,yes,PASS,0.41437941694275227,,,,,,,,,0,0,0,0,0,0,0,0,0,74,74,74,,,,,,,,,,,,,,,,,,,,,,,,,,,,,,,,,,,,,,,,,,,,,,,,,,,,,,,,,,,,,,,,,,,,,,,,,,,,,,,1.75,498.45943990000524,None,None,1,,500.30976049997844,None,500.30976049997844,None,500.30976049997844,None,,,,,,,,,,,P027,FEN,2,Pre,2022_Feb_28_1036,Go No-Go Task,2021.1.4,120.31942405804713,
,"Rule: When you see a yellow image, do not press 'spacebar'.",Images/Fearful/WM12_FO.jpg,Fear,Blue,Images/Blue.jpg,space,ParentConditions/YellowBlueBlue_v2.xlsx,BlueBlueYellow,Conditions/Version_2/YellowHappyStop.xlsx,no,PASS,0.577397464904033,,,,,,,,,0,0,0,0,0,0,0,0,0,75,75,75,,,,,,,,,,,,,,,,,,,,,,,,,,,,,,,,,,,,,,,,,,,,,,,,,,,,,,,,,,,,,,,,,,,,,,,,,,,,,,,1.64,500.7088715999853,None,space,1,0.2918214999954216,502.4508014000021,None,502.4508014000021,None,502.4508014000021,None,,,,,,,,,,,P027,FEN,2,Pre,2022_Feb_28_1036,Go No-Go Task,2021.1.4,120.31942405804713,
,"Rule: When you see a yellow image, do not press 'spacebar'.",Images/Fearful/BF07_FO.jpg,Fear,Blue,Images/Blue.jpg,space,ParentConditions/YellowBlueBlue_v2.xlsx,BlueBlueYellow,Conditions/Version_2/YellowHappyStop.xlsx,no,PASS,0.3175910009200418,,,,,,,,,0,0,0,0,0,0,0,0,0,76,76,76,,,,,,,,,,,,,,,,,,,,,,,,,,,,,,,,,,,,,,,,,,,,,,,,,,,,,,,,,,,,,,,,,,,,,,,,,,,,,,,1.56,502.84989179996774,None,space,1,0.25003180000931025,504.5168408000027,None,504.5168408000027,None,504.5168408000027,None,,,,,,,,,,,P027,FEN,2,Pre,2022_Feb_28_1036,Go No-Go Task,2021.1.4,120.31942405804713,
,"Rule: When you see a yellow image, do not press 'spacebar'.",Images/Fearful/HF10_FO.jpg,Fear,Blue,Images/Blue.jpg,space,ParentConditions/YellowBlueBlue_v2.xlsx,BlueBlueYellow,Conditions/Version_2/YellowHappyStop.xlsx,no,PASS,0.5511356040110476,,,,,,,,,0,0,0,0,0,0,0,0,0,77,77,77,,,,,,,,,,,,,,,,,,,,,,,,,,,,,,,,,,,,,,,,,,,,,,,,,,,,,,,,,,,,,,,,,,,,,,,,,,,,,,,1.63,504.91590630001156,None,space,1,0.2842325000092387,506.65015870000934,None,506.65015870000934,None,506.65015870000934,None,,,,,,,,,,,P027,FEN,2,Pre,2022_Feb_28_1036,Go No-Go Task,2021.1.4,120.31942405804713,
,"Rule: When you see a yellow image, do not press 'spacebar'.",Images/Fearful/AM10AFS.jpg,Fear,Blue,Images/Blue.jpg,space,ParentConditions/YellowBlueBlue_v2.xlsx,BlueBlueYellow,Conditions/Version_2/YellowHappyStop.xlsx,no,PASS,0.516543326357497,,,,,,,,,0,0,0,0,0,0,0,0,0,78,78,78,,,,,,,,,,,,,,,,,,,,,,,,,,,,,,,,,,,,,,,,,,,,,,,,,,,,,,,,,,,,,,,,,,,,,,,,,,,,,,,1.91,507.0486599999713,None,space,1,0.3650371999829076,509.0654824000085,None,509.0654824000085,None,509.0654824000085,None,,,,,,,,,,,P027,FEN,2,Pre,2022_Feb_28_1036,Go No-Go Task,2021.1.4,120.31942405804713,
,"Rule: When you see a yellow image, do not press 'spacebar'.",Images/Happy/AM23HAS.jpg,Happy,Yellow,Images/Yellow.jpg,None,ParentConditions/YellowBlueBlue_v2.xlsx,BlueBlueYellow,Conditions/Version_2/YellowHappyStop.xlsx,yes,PASS,0.4223687412850129,,,,,,,,,0,0,0,0,0,0,0,0,0,79,79,79,,,,,,,,,,,,,,,,,,,,,,,,,,,,,,,,,,,,,,,,,,,,,,,,,,,,,,,,,,,,,,,,,,,,,,,,,,,,,,,1.46,509.4645847000065,None,None,1,,511.03157230000943,None,511.03157230000943,None,511.03157230000943,None,,,,,,,,,,,P027,FEN,2,Pre,2022_Feb_28_1036,Go No-Go Task,2021.1.4,120.31942405804713,
,"Rule: When you see blue image, do not press 'spacebar'.",Images/Fearful/HM06_FC.jpg,Fear,Blue,Images/Blue.jpg,None,ParentConditions/YellowBlueBlue_v2.xlsx,BlueBlueYellow,Conditions/Version_2/BlueFearStop.xlsx,yes,PASS,0.29049104493206235,,,,,,,,,0,0,0,0,0,1,1,1,0,0,0,0,,,,,,,,,,,,,,,,,,,,,,,,,,,,,,,,,,,,,,,,,,,,,,,,,,,,,,,,,,,,,,,,,534.4655104000121,None,537.4565610999707,None,space,0.31781939999200404,537.4565610999707,None,534.4655104000121,None,534.4655104000121,None,534.4655104000121,None,1.66,537.8238713999745,None,None,1,,539.5899266999913,None,539.5899266999913,None,539.5899266999913,None,511.4389087000163,None,space,22.51543229998788,511.93087749998085,None,511.4389087000163,None,511.4389087000163,None,P027,FEN,2,Pre,2022_Feb_28_1036,Go No-Go Task,2021.1.4,120.31942405804713,
,"Rule: When you see blue image, do not press 'spacebar'.",Images/Happy/AF07HAS.jpg,Happy,Yellow,Images/Yellow.jpg,space,ParentConditions/YellowBlueBlue_v2.xlsx,BlueBlueYellow,Conditions/Version_2/BlueFearStop.xlsx,no,PASS,0.3060165792014795,,,,,,,,,0,0,0,0,0,1,1,1,0,1,1,1,,,,,,,,,,,,,,,,,,,,,,,,,,,,,,,,,,,,,,,,,,,,,,,,,,,,,,,,,,,,,,,,,,,,,,,,,,,,,,,1.9,539.9894846999669,None,space,1,0.24921620002714917,541.9891978999949,None,541.9891978999949,None,541.9891978999949,None,,,,,,,,,,,P027,FEN,2,Pre,2022_Feb_28_1036,Go No-Go Task,2021.1.4,120.31942405804713,
,"Rule: When you see blue image, do not press 'spacebar'.",Images/Happy/AF28HAS.jpg,Happy,Yellow,Images/Yellow.jpg,space,ParentConditions/YellowBlueBlue_v2.xlsx,BlueBlueYellow,Conditions/Version_2/BlueFearStop.xlsx,no,PASS,0.23458600871698787,,,,,,,,,0,0,0,0,0,1,1,1,0,2,2,2,,,,,,,,,,,,,,,,,,,,,,,,,,,,,,,,,,,,,,,,,,,,,,,,,,,,,,,,,,,,,,,,,,,,,,,,,,,,,,,1.49,542.3882179000066,None,space,1,0.2662476999685168,543.9802510999725,None,543.9802510999725,None,543.9802510999725,None,,,,,,,,,,,P027,FEN,2,Pre,2022_Feb_28_1036,Go No-Go Task,2021.1.4,120.31942405804713,
,"Rule: When you see blue image, do not press 'spacebar'.",Images/Happy/AF22HAS.jpg,Happy,Yellow,Images/Yellow.jpg,space,ParentConditions/YellowBlueBlue_v2.xlsx,BlueBlueYellow,Conditions/Version_2/BlueFearStop.xlsx,no,PASS,0.11899132917260535,,,,,,,,,0,0,0,0,0,1,1,1,0,3,3,3,,,,,,,,,,,,,,,,,,,,,,,,,,,,,,,,,,,,,,,,,,,,,,,,,,,,,,,,,,,,,,,,,,,,,,,,,,,,,,,1.33,544.3793292000191,None,space,1,0.2573186999652535,545.8130201000022,None,545.8130201000022,None,545.8130201000022,None,,,,,,,,,,,P027,FEN,2,Pre,2022_Feb_28_1036,Go No-Go Task,2021.1.4,120.31942405804713,
,"Rule: When you see blue image, do not press 'spacebar'.",Images/Fearful/AF27AFS.jpg,Fear,Blue,Images/Blue.jpg,None,ParentConditions/YellowBlueBlue_v2.xlsx,BlueBlueYellow,Conditions/Version_2/BlueFearStop.xlsx,yes,PASS,0.3988252776358663,,,,,,,,,0,0,0,0,0,1,1,1,0,4,4,4,,,,,,,,,,,,,,,,,,,,,,,,,,,,,,,,,,,,,,,,,,,,,,,,,,,,,,,,,,,,,,,,,,,,,,,,,,,,,,,1.51,546.2123386000167,None,None,1,,547.8290999999736,None,547.8290999999736,None,547.8290999999736,None,,,,,,,,,,,P027,FEN,2,Pre,2022_Feb_28_1036,Go No-Go Task,2021.1.4,120.31942405804713,
,"Rule: When you see blue image, do not press 'spacebar'.",Images/Happy/AM24HAS.jpg,Happy,Yellow,Images/Yellow.jpg,space,ParentConditions/YellowBlueBlue_v2.xlsx,BlueBlueYellow,Conditions/Version_2/BlueFearStop.xlsx,no,PASS,0.6540701766357542,,,,,,,,,0,0,0,0,0,1,1,1,0,5,5,5,,,,,,,,,,,,,,,,,,,,,,,,,,,,,,,,,,,,,,,,,,,,,,,,,,,,,,,,,,,,,,,,,,,,,,,,,,,,,,,1.71,548.2282477999688,None,space,1,0.2571903999778442,550.0455576999811,None,550.0455576999811,None,550.0455576999811,None,,,,,,,,,,,P027,FEN,2,Pre,2022_Feb_28_1036,Go No-Go Task,2021.1.4,120.31942405804713,
,"Rule: When you see blue image, do not press 'spacebar'.",Images/Fearful/AF26AFS.jpg,Fear,Blue,Images/Blue.jpg,None,ParentConditions/YellowBlueBlue_v2.xlsx,BlueBlueYellow,Conditions/Version_2/BlueFearStop.xlsx,yes,PASS,0.672416725983861,,,,,,,,,0,0,0,0,0,1,1,1,0,6,6,6,,,,,,,,,,,,,,,,,,,,,,,,,,,,,,,,,,,,,,,,,,,,,,,,,,,,,,,,,,,,,,,,,,,,,,,,,,,,,,,1.3,550.4448275999748,None,None,1,,551.8449359000078,None,551.8449359000078,None,551.8449359000078,None,,,,,,,,,,,P027,FEN,2,Pre,2022_Feb_28_1036,Go No-Go Task,2021.1.4,120.31942405804713,
,"Rule: When you see blue image, do not press 'spacebar'.",Images/Happy/WM11_HC.jpg,Happy,Yellow,Images/Yellow.jpg,space,ParentConditions/YellowBlueBlue_v2.xlsx,BlueBlueYellow,Conditions/Version_2/BlueFearStop.xlsx,no,PASS,0.8722598945732238,,,,,,,,,0,0,0,0,0,1,1,1,0,7,7,7,,,,,,,,,,,,,,,,,,,,,,,,,,,,,,,,,,,,,,,,,,,,,,,,,,,,,,,,,,,,,,,,,,,,,,,,,,,,,,,1.27,552.2456357000046,None,space,1,0.2514001000090502,553.619407399965,None,553.619407399965,None,553.619407399965,None,,,,,,,,,,,P027,FEN,2,Pre,2022_Feb_28_1036,Go No-Go Task,2021.1.4,120.31942405804713,
,"Rule: When you see blue image, do not press 'spacebar'.",Images/Happy/BM03_HO.jpg,Happy,Yellow,Images/Yellow.jpg,space,ParentConditions/YellowBlueBlue_v2.xlsx,BlueBlueYellow,Conditions/Version_2/BlueFearStop.xlsx,no,PASS,0.281866807892032,,,,,,,,,0,0,0,0,0,1,1,1,0,8,8,8,,,,,,,,,,,,,,,,,,,,,,,,,,,,,,,,,,,,,,,,,,,,,,,,,,,,,,,,,,,,,,,,,,,,,,,,,,,,,,,1.21,554.0276386999758,None,space,1,0.3187933000153862,555.3439209999633,None,555.3439209999633,None,555.3439209999633,None,,,,,,,,,,,P027,FEN,2,Pre,2022_Feb_28_1036,Go No-Go Task,2021.1.4,120.31942405804713,
,"Rule: When you see blue image, do not press 'spacebar'.",Images/Happy/BF18_HO.jpg,Happy,Yellow,Images/Yellow.jpg,space,ParentConditions/YellowBlueBlue_v2.xlsx,BlueBlueYellow,Conditions/Version_2/BlueFearStop.xlsx,no,PASS,0.056262560303186104,,,,,,,,,0,0,0,0,0,1,1,1,0,9,9,9,,,,,,,,,,,,,,,,,,,,,,,,,,,,,,,,,,,,,,,,,,,,,,,,,,,,,,,,,,,,,,,,,,,,,,,,,,,,,,,1.47,555.7478187999805,None,space,1,0.28032130002975464,557.3182608999778,None,557.3182608999778,None,557.3182608999778,None,,,,,,,,,,,P027,FEN,2,Pre,2022_Feb_28_1036,Go No-Go Task,2021.1.4,120.31942405804713,
,"Rule: When you see blue image, do not press 'spacebar'.",Images/Happy/AM10HAS.jpg,Happy,Yellow,Images/Yellow.jpg,space,ParentConditions/YellowBlueBlue_v2.xlsx,BlueBlueYellow,Conditions/Version_2/BlueFearStop.xlsx,no,PASS,0.26234858566298536,,,,,,,,,0,0,0,0,0,1,1,1,0,10,10,10,,,,,,,,,,,,,,,,,,,,,,,,,,,,,,,,,,,,,,,,,,,,,,,,,,,,,,,,,,,,,,,,,,,,,,,,,,,,,,,1.39,557.7180974999792,None,space,1,0.28514330001780763,559.2094367999816,None,559.2094367999816,None,559.2094367999816,None,,,,,,,,,,,P027,FEN,2,Pre,2022_Feb_28_1036,Go No-Go Task,2021.1.4,120.31942405804713,
,"Rule: When you see blue image, do not press 'spacebar'.",Images/Happy/AM09HAS.jpg,Happy,Yellow,Images/Yellow.jpg,space,ParentConditions/YellowBlueBlue_v2.xlsx,BlueBlueYellow,Conditions/Version_2/BlueFearStop.xlsx,no,PASS,0.5322853606558464,,,,,,,,,0,0,0,0,0,1,1,1,0,11,11,11,,,,,,,,,,,,,,,,,,,,,,,,,,,,,,,,,,,,,,,,,,,,,,,,,,,,,,,,,,,,,,,,,,,,,,,,,,,,,,,1.41,559.6102026000153,None,space,1,0.29678420000709593,561.1339237999637,None,561.1339237999637,None,561.1339237999637,None,,,,,,,,,,,P027,FEN,2,Pre,2022_Feb_28_1036,Go No-Go Task,2021.1.4,120.31942405804713,
,"Rule: When you see blue image, do not press 'spacebar'.",Images/Happy/AM16HAS.jpg,Happy,Yellow,Images/Yellow.jpg,space,ParentConditions/YellowBlueBlue_v2.xlsx,BlueBlueYellow,Conditions/Version_2/BlueFearStop.xlsx,no,PASS,0.8730560121673133,,,,,,,,,0,0,0,0,0,1,1,1,0,12,12,12,,,,,,,,,,,,,,,,,,,,,,,,,,,,,,,,,,,,,,,,,,,,,,,,,,,,,,,,,,,,,,,,,,,,,,,,,,,,,,,1.56,561.5328528999817,None,space,1,0.27839160000439733,563.1999812999857,None,563.1999812999857,None,563.1999812999857,None,,,,,,,,,,,P027,FEN,2,Pre,2022_Feb_28_1036,Go No-Go Task,2021.1.4,120.31942405804713,
,"Rule: When you see blue image, do not press 'spacebar'.",Images/Happy/AF10_HE.jpg,Happy,Yellow,Images/Yellow.jpg,space,ParentConditions/YellowBlueBlue_v2.xlsx,BlueBlueYellow,Conditions/Version_2/BlueFearStop.xlsx,no,PASS,0.7103342893987146,,,,,,,,,0,0,0,0,0,1,1,1,0,13,13,13,,,,,,,,,,,,,,,,,,,,,,,,,,,,,,,,,,,,,,,,,,,,,,,,,,,,,,,,,,,,,,,,,,,,,,,,,,,,,,,1.31,563.6008659999934,None,space,1,0.2385832000290975,565.0160458000028,None,565.0160458000028,None,565.0160458000028,None,,,,,,,,,,,P027,FEN,2,Pre,2022_Feb_28_1036,Go No-Go Task,2021.1.4,120.31942405804713,
,"Rule: When you see blue image, do not press 'spacebar'.",Images/Happy/AF27HAS.jpg,Happy,Yellow,Images/Yellow.jpg,space,ParentConditions/YellowBlueBlue_v2.xlsx,BlueBlueYellow,Conditions/Version_2/BlueFearStop.xlsx,no,PASS,0.8937289807404983,,,,,,,,,0,0,0,0,0,1,1,1,0,14,14,14,,,,,,,,,,,,,,,,,,,,,,,,,,,,,,,,,,,,,,,,,,,,,,,,,,,,,,,,,,,,,,,,,,,,,,,,,,,,,,,1.37,565.4169725999818,None,space,1,0.33988919999683276,566.8904561999952,None,566.8904561999952,None,566.8904561999952,None,,,,,,,,,,,P027,FEN,2,Pre,2022_Feb_28_1036,Go No-Go Task,2021.1.4,120.31942405804713,
,"Rule: When you see blue image, do not press 'spacebar'.",Images/Happy/BF10_HO.jpg,Happy,Yellow,Images/Yellow.jpg,space,ParentConditions/YellowBlueBlue_v2.xlsx,BlueBlueYellow,Conditions/Version_2/BlueFearStop.xlsx,no,PASS,0.41505973664432705,,,,,,,,,0,0,0,0,0,1,1,1,0,15,15,15,,,,,,,,,,,,,,,,,,,,,,,,,,,,,,,,,,,,,,,,,,,,,,,,,,,,,,,,,,,,,,,,,,,,,,,,,,,,,,,1.55,567.324892500008,None,space,1,0.24894960003439337,568.9813994999859,None,568.9813994999859,None,568.9813994999859,None,,,,,,,,,,,P027,FEN,2,Pre,2022_Feb_28_1036,Go No-Go Task,2021.1.4,120.31942405804713,
,"Rule: When you see blue image, do not press 'spacebar'.",Images/Happy/BF14_HO.jpg,Happy,Yellow,Images/Yellow.jpg,space,ParentConditions/YellowBlueBlue_v2.xlsx,BlueBlueYellow,Conditions/Version_2/BlueFearStop.xlsx,no,PASS,0.38735807018105894,,,,,,,,,0,0,0,0,0,1,1,1,0,16,16,16,,,,,,,,,,,,,,,,,,,,,,,,,,,,,,,,,,,,,,,,,,,,,,,,,,,,,,,,,,,,,,,,,,,,,,,,,,,,,,,1.69,569.3818652000045,None,space,1,0.2579365000128746,571.1725790000055,None,571.1725790000055,None,571.1725790000055,None,,,,,,,,,,,P027,FEN,2,Pre,2022_Feb_28_1036,Go No-Go Task,2021.1.4,120.31942405804713,
,"Rule: When you see blue image, do not press 'spacebar'.",Images/Fearful/BM08_FC.jpg,Fear,Blue,Images/Blue.jpg,None,ParentConditions/YellowBlueBlue_v2.xlsx,BlueBlueYellow,Conditions/Version_2/BlueFearStop.xlsx,yes,PASS,0.7905879335514261,,,,,,,,,0,0,0,0,0,1,1,1,0,17,17,17,,,,,,,,,,,,,,,,,,,,,,,,,,,,,,,,,,,,,,,,,,,,,,,,,,,,,,,,,,,,,,,,,,,,,,,,,,,,,,,1.45,571.573642399977,None,space,0,0.25214960001176223,573.1304033999913,None,573.1304033999913,None,573.1304033999913,None,,,,,,,,,,,P027,FEN,2,Pre,2022_Feb_28_1036,Go No-Go Task,2021.1.4,120.31942405804713,
,"Rule: When you see blue image, do not press 'spacebar'.",Images/Happy/AM01HAS.jpg,Happy,Yellow,Images/Yellow.jpg,space,ParentConditions/YellowBlueBlue_v2.xlsx,BlueBlueYellow,Conditions/Version_2/BlueFearStop.xlsx,no,PASS,0.9589705349559869,,,,,,,,,0,0,0,0,0,1,1,1,0,18,18,18,,,,,,,,,,,,,,,,,,,,,,,,,,,,,,,,,,,,,,,,,,,,,,,,,,,,,,,,,,,,,,,,,,,,,,,,,,,,,,,1.85,573.5310494999867,None,None,0,,575.4879952999763,None,575.4879952999763,None,575.4879952999763,None,,,,,,,,,,,P027,FEN,2,Pre,2022_Feb_28_1036,Go No-Go Task,2021.1.4,120.31942405804713,
,"Rule: When you see blue image, do not press 'spacebar'.",Images/Happy/AF11HAS.jpg,Happy,Yellow,Images/Yellow.jpg,space,ParentConditions/YellowBlueBlue_v2.xlsx,BlueBlueYellow,Conditions/Version_2/BlueFearStop.xlsx,no,PASS,0.6358882343202421,,,,,,,,,0,0,0,0,0,1,1,1,0,19,19,19,,,,,,,,,,,,,,,,,,,,,,,,,,,,,,,,,,,,,,,,,,,,,,,,,,,,,,,,,,,,,,,,,,,,,,,,,,,,,,,1.26,575.8866388999741,None,space,1,0.2804294000379741,577.2542067000177,None,577.2542067000177,None,577.2542067000177,None,,,,,,,,,,,P027,FEN,2,Pre,2022_Feb_28_1036,Go No-Go Task,2021.1.4,120.31942405804713,
,"Rule: When you see blue image, do not press 'spacebar'.",Images/Happy/BM01_HO.jpg,Happy,Yellow,Images/Yellow.jpg,space,ParentConditions/YellowBlueBlue_v2.xlsx,BlueBlueYellow,Conditions/Version_2/BlueFearStop.xlsx,no,PASS,0.301040907790301,,,,,,,,,0,0,0,0,0,1,1,1,0,20,20,20,,,,,,,,,,,,,,,,,,,,,,,,,,,,,,,,,,,,,,,,,,,,,,,,,,,,,,,,,,,,,,,,,,,,,,,,,,,,,,,1.61,577.6532587999827,None,space,1,0.33238380000693724,579.370182499988,None,579.370182499988,None,579.370182499988,None,,,,,,,,,,,P027,FEN,2,Pre,2022_Feb_28_1036,Go No-Go Task,2021.1.4,120.31942405804713,
,"Rule: When you see blue image, do not press 'spacebar'.",Images/Happy/AF07_HO.jpg,Happy,Yellow,Images/Yellow.jpg,space,ParentConditions/YellowBlueBlue_v2.xlsx,BlueBlueYellow,Conditions/Version_2/BlueFearStop.xlsx,no,PASS,0.16146803476355298,,,,,,,,,0,0,0,0,0,1,1,1,0,21,21,21,,,,,,,,,,,,,,,,,,,,,,,,,,,,,,,,,,,,,,,,,,,,,,,,,,,,,,,,,,,,,,,,,,,,,,,,,,,,,,,1.91,579.7706283999723,None,space,1,0.23651079996488988,581.786065399996,None,581.786065399996,None,581.786065399996,None,,,,,,,,,,,P027,FEN,2,Pre,2022_Feb_28_1036,Go No-Go Task,2021.1.4,120.31942405804713,
,"Rule: When you see blue image, do not press 'spacebar'.",Images/Happy/HM06_HO.jpg,Happy,Yellow,Images/Yellow.jpg,space,ParentConditions/YellowBlueBlue_v2.xlsx,BlueBlueYellow,Conditions/Version_2/BlueFearStop.xlsx,no,PASS,0.017367743981932304,,,,,,,,,0,0,0,0,0,1,1,1,0,22,22,22,,,,,,,,,,,,,,,,,,,,,,,,,,,,,,,,,,,,,,,,,,,,,,,,,,,,,,,,,,,,,,,,,,,,,,,,,,,,,,,1.86,582.1864541000105,None,space,1,0.30258560000220314,584.1519985999912,None,584.1519985999912,None,584.1519985999912,None,,,,,,,,,,,P027,FEN,2,Pre,2022_Feb_28_1036,Go No-Go Task,2021.1.4,120.31942405804713,
,"Rule: When you see blue image, do not press 'spacebar'.",Images/Fearful/AM09_FO.jpg,Fear,Blue,Images/Blue.jpg,None,ParentConditions/YellowBlueBlue_v2.xlsx,BlueBlueYellow,Conditions/Version_2/BlueFearStop.xlsx,yes,PASS,0.2997278789301355,,,,,,,,,0,0,0,0,0,1,1,1,0,23,23,23,,,,,,,,,,,,,,,,,,,,,,,,,,,,,,,,,,,,,,,,,,,,,,,,,,,,,,,,,,,,,,,,,,,,,,,,,,,,,,,1.22,584.551119700016,None,None,1,,585.8766022999771,None,585.8766022999771,None,585.8766022999771,None,,,,,,,,,,,P027,FEN,2,Pre,2022_Feb_28_1036,Go No-Go Task,2021.1.4,120.31942405804713,
,"Rule: When you see blue image, do not press 'spacebar'.",Images/Happy/AF09HAS.jpg,Happy,Yellow,Images/Yellow.jpg,space,ParentConditions/YellowBlueBlue_v2.xlsx,BlueBlueYellow,Conditions/Version_2/BlueFearStop.xlsx,no,PASS,0.8273900201130844,,,,,,,,,0,0,0,0,0,1,1,1,0,24,24,24,,,,,,,,,,,,,,,,,,,,,,,,,,,,,,,,,,,,,,,,,,,,,,,,,,,,,,,,,,,,,,,,,,,,,,,,,,,,,,,1.98,586.2774079999654,None,space,1,0.29543320002267137,588.3592053999892,None,588.3592053999892,None,588.3592053999892,None,,,,,,,,,,,P027,FEN,2,Pre,2022_Feb_28_1036,Go No-Go Task,2021.1.4,120.31942405804713,
,"Rule: When you see blue image, do not press 'spacebar'.",Images/Happy/AM04HAS.jpg,Happy,Yellow,Images/Yellow.jpg,space,ParentConditions/YellowBlueBlue_v2.xlsx,BlueBlueYellow,Conditions/Version_2/BlueFearStop.xlsx,no,PASS,0.7497236344439144,,,,,,,,,0,0,0,0,0,1,1,1,0,25,25,25,,,,,,,,,,,,,,,,,,,,,,,,,,,,,,,,,,,,,,,,,,,,,,,,,,,,,,,,,,,,,,,,,,,,,,,,,,,,,,,1.72,588.7602710999781,None,None,0,,590.5835961999837,None,590.5835961999837,None,590.5835961999837,None,,,,,,,,,,,P027,FEN,2,Pre,2022_Feb_28_1036,Go No-Go Task,2021.1.4,120.31942405804713,
,"Rule: When you see blue image, do not press 'spacebar'.",Images/Happy/BF07_HO.jpg,Happy,Yellow,Images/Yellow.jpg,space,ParentConditions/YellowBlueBlue_v2.xlsx,BlueBlueYellow,Conditions/Version_2/BlueFearStop.xlsx,no,PASS,0.9631973209169931,,,,,,,,,0,0,0,0,0,1,1,1,0,26,26,26,,,,,,,,,,,,,,,,,,,,,,,,,,,,,,,,,,,,,,,,,,,,,,,,,,,,,,,,,,,,,,,,,,,,,,,,,,,,,,,1.87,590.9842701000161,None,space,1,0.29668929998297244,592.9578331999946,None,592.9578331999946,None,592.9578331999946,None,,,,,,,,,,,P027,FEN,2,Pre,2022_Feb_28_1036,Go No-Go Task,2021.1.4,120.31942405804713,
,"Rule: When you see blue image, do not press 'spacebar'.",Images/Happy/AF02HAS.jpg,Happy,Yellow,Images/Yellow.jpg,space,ParentConditions/YellowBlueBlue_v2.xlsx,BlueBlueYellow,Conditions/Version_2/BlueFearStop.xlsx,no,PASS,0.44316288931410874,,,,,,,,,0,0,0,0,0,1,1,1,0,27,27,27,,,,,,,,,,,,,,,,,,,,,,,,,,,,,,,,,,,,,,,,,,,,,,,,,,,,,,,,,,,,,,,,,,,,,,,,,,,,,,,1.95,593.3593821999966,None,space,1,0.3350569000467658,595.4155469000107,None,595.4155469000107,None,595.4155469000107,None,,,,,,,,,,,P027,FEN,2,Pre,2022_Feb_28_1036,Go No-Go Task,2021.1.4,120.31942405804713,
,"Rule: When you see blue image, do not press 'spacebar'.",Images/Happy/AM30HAS.jpg,Happy,Yellow,Images/Yellow.jpg,space,ParentConditions/YellowBlueBlue_v2.xlsx,BlueBlueYellow,Conditions/Version_2/BlueFearStop.xlsx,no,PASS,0.8101164063536405,,,,,,,,,0,0,0,0,0,1,1,1,0,28,28,28,,,,,,,,,,,,,,,,,,,,,,,,,,,,,,,,,,,,,,,,,,,,,,,,,,,,,,,,,,,,,,,,,,,,,,,,,,,,,,,1.25,595.8148627000046,None,space,1,0.2574960999772884,597.1649301999714,None,597.1649301999714,None,597.1649301999714,None,,,,,,,,,,,P027,FEN,2,Pre,2022_Feb_28_1036,Go No-Go Task,2021.1.4,120.31942405804713,
,"Rule: When you see blue image, do not press 'spacebar'.",Images/Happy/BF05_HO.jpg,Happy,Yellow,Images/Yellow.jpg,space,ParentConditions/YellowBlueBlue_v2.xlsx,BlueBlueYellow,Conditions/Version_2/BlueFearStop.xlsx,no,PASS,0.6770609167729968,,,,,,,,,0,0,0,0,0,1,1,1,0,29,29,29,,,,,,,,,,,,,,,,,,,,,,,,,,,,,,,,,,,,,,,,,,,,,,,,,,,,,,,,,,,,,,,,,,,,,,,,,,,,,,,1.38,597.5666486999835,None,space,1,0.13471060001756996,599.0561447999789,None,599.0561447999789,None,599.0561447999789,None,,,,,,,,,,,P027,FEN,2,Pre,2022_Feb_28_1036,Go No-Go Task,2021.1.4,120.31942405804713,
,"Rule: When you see blue image, do not press 'spacebar'.",Images/Fearful/AF25AFS.jpg,Fear,Blue,Images/Blue.jpg,None,ParentConditions/YellowBlueBlue_v2.xlsx,BlueBlueYellow,Conditions/Version_2/BlueFearStop.xlsx,yes,PASS,0.9137328829424104,,,,,,,,,0,0,0,0,0,1,1,1,0,30,30,30,,,,,,,,,,,,,,,,,,,,,,,,,,,,,,,,,,,,,,,,,,,,,,,,,,,,,,,,,,,,,,,,,,,,,,,,,,,,,,,1.48,599.4549906000029,None,None,1,,601.0304676999804,None,601.0304676999804,None,601.0304676999804,None,,,,,,,,,,,P027,FEN,2,Pre,2022_Feb_28_1036,Go No-Go Task,2021.1.4,120.31942405804713,
,"Rule: When you see blue image, do not press 'spacebar'.",Images/Happy/BF09_HO.jpg,Happy,Yellow,Images/Yellow.jpg,space,ParentConditions/YellowBlueBlue_v2.xlsx,BlueBlueYellow,Conditions/Version_2/BlueFearStop.xlsx,no,PASS,0.7233148419047607,,,,,,,,,0,0,0,0,0,1,1,1,0,31,31,31,,,,,,,,,,,,,,,,,,,,,,,,,,,,,,,,,,,,,,,,,,,,,,,,,,,,,,,,,,,,,,,,,,,,,,,,,,,,,,,1.52,601.4310517999693,None,space,1,0.16001509997295216,603.0548517999705,None,603.0548517999705,None,603.0548517999705,None,,,,,,,,,,,P027,FEN,2,Pre,2022_Feb_28_1036,Go No-Go Task,2021.1.4,120.31942405804713,
,"Rule: When you see blue image, do not press 'spacebar'.",Images/Happy/AM09_HE.jpg,Happy,Yellow,Images/Yellow.jpg,space,ParentConditions/YellowBlueBlue_v2.xlsx,BlueBlueYellow,Conditions/Version_2/BlueFearStop.xlsx,no,PASS,0.703399731728546,,,,,,,,,0,0,0,0,0,1,1,1,0,32,32,32,,,,,,,,,,,,,,,,,,,,,,,,,,,,,,,,,,,,,,,,,,,,,,,,,,,,,,,,,,,,,,,,,,,,,,,,,,,,,,,1.99,603.4542408999987,None,space,1,0.28482340002665296,605.5458944999846,None,605.5458944999846,None,605.5458944999846,None,,,,,,,,,,,P027,FEN,2,Pre,2022_Feb_28_1036,Go No-Go Task,2021.1.4,120.31942405804713,
,"Rule: When you see blue image, do not press 'spacebar'.",Images/Fearful/BF14_FO.jpg,Fear,Blue,Images/Blue.jpg,None,ParentConditions/YellowBlueBlue_v2.xlsx,BlueBlueYellow,Conditions/Version_2/BlueFearStop.xlsx,yes,PASS,0.641858343679783,,,,,,,,,0,0,0,0,0,1,1,1,0,33,33,33,,,,,,,,,,,,,,,,,,,,,,,,,,,,,,,,,,,,,,,,,,,,,,,,,,,,,,,,,,,,,,,,,,,,,,,,,,,,,,,1.97,605.945237100008,None,space,0,0.2905517999897711,608.0201190999942,None,608.0201190999942,None,608.0201190999942,None,,,,,,,,,,,P027,FEN,2,Pre,2022_Feb_28_1036,Go No-Go Task,2021.1.4,120.31942405804713,
,"Rule: When you see blue image, do not press 'spacebar'.",Images/Fearful/HF05_FC.jpg,Fear,Blue,Images/Blue.jpg,None,ParentConditions/YellowBlueBlue_v2.xlsx,BlueBlueYellow,Conditions/Version_2/BlueFearStop.xlsx,yes,PASS,0.11935527908981858,,,,,,,,,0,0,0,0,0,1,1,1,0,34,34,34,,,,,,,,,,,,,,,,,,,,,,,,,,,,,,,,,,,,,,,,,,,,,,,,,,,,,,,,,,,,,,,,,,,,,,,,,,,,,,,1.93,608.4232339999871,None,space,0,0.2578745000064373,610.4527990999632,None,610.4527990999632,None,610.4527990999632,None,,,,,,,,,,,P027,FEN,2,Pre,2022_Feb_28_1036,Go No-Go Task,2021.1.4,120.31942405804713,
,"Rule: When you see blue image, do not press 'spacebar'.",Images/Happy/AM23HAS.jpg,Happy,Yellow,Images/Yellow.jpg,space,ParentConditions/YellowBlueBlue_v2.xlsx,BlueBlueYellow,Conditions/Version_2/BlueFearStop.xlsx,no,PASS,0.4310663721908784,,,,,,,,,0,0,0,0,0,1,1,1,0,35,35,35,,,,,,,,,,,,,,,,,,,,,,,,,,,,,,,,,,,,,,,,,,,,,,,,,,,,,,,,,,,,,,,,,,,,,,,,,,,,,,,1.54,610.8529441999854,None,space,1,0.30518490000395104,612.4937658999697,None,612.4937658999697,None,612.4937658999697,None,,,,,,,,,,,P027,FEN,2,Pre,2022_Feb_28_1036,Go No-Go Task,2021.1.4,120.31942405804713,
,"Rule: When you see blue image, do not press 'spacebar'.",Images/Happy/AM03_HO.jpg,Happy,Yellow,Images/Yellow.jpg,space,ParentConditions/YellowBlueBlue_v2.xlsx,BlueBlueYellow,Conditions/Version_2/BlueFearStop.xlsx,no,PASS,0.027367773514368476,,,,,,,,,0,0,0,0,0,1,1,1,0,36,36,36,,,,,,,,,,,,,,,,,,,,,,,,,,,,,,,,,,,,,,,,,,,,,,,,,,,,,,,,,,,,,,,,,,,,,,,,,,,,,,,1.84,612.8930193000124,None,space,1,0.32382379996124655,614.8347734999843,None,614.8347734999843,None,614.8347734999843,None,,,,,,,,,,,P027,FEN,2,Pre,2022_Feb_28_1036,Go No-Go Task,2021.1.4,120.31942405804713,
,"Rule: When you see blue image, do not press 'spacebar'.",Images/Happy/AF25HAS.jpg,Happy,Yellow,Images/Yellow.jpg,space,ParentConditions/YellowBlueBlue_v2.xlsx,BlueBlueYellow,Conditions/Version_2/BlueFearStop.xlsx,no,PASS,0.04870321560414337,,,,,,,,,0,0,0,0,0,1,1,1,0,37,37,37,,,,,,,,,,,,,,,,,,,,,,,,,,,,,,,,,,,,,,,,,,,,,,,,,,,,,,,,,,,,,,,,,,,,,,,,,,,,,,,1.64,615.240271000017,None,space,1,0.30249640002148226,616.9841682999977,None,616.9841682999977,None,616.9841682999977,None,,,,,,,,,,,P027,FEN,2,Pre,2022_Feb_28_1036,Go No-Go Task,2021.1.4,120.31942405804713,
,"Rule: When you see blue image, do not press 'spacebar'.",Images/Happy/BM08_HO.jpg,Happy,Yellow,Images/Yellow.jpg,space,ParentConditions/YellowBlueBlue_v2.xlsx,BlueBlueYellow,Conditions/Version_2/BlueFearStop.xlsx,no,PASS,0.026169495354104844,,,,,,,,,0,0,0,0,0,1,1,1,0,38,38,38,,,,,,,,,,,,,,,,,,,,,,,,,,,,,,,,,,,,,,,,,,,,,,,,,,,,,,,,,,,,,,,,,,,,,,,,,,,,,,,1.24,617.3844063999713,None,space,1,0.2892501999740489,618.7252990999841,None,618.7252990999841,None,618.7252990999841,None,,,,,,,,,,,P027,FEN,2,Pre,2022_Feb_28_1036,Go No-Go Task,2021.1.4,120.31942405804713,
,"Rule: When you see blue image, do not press 'spacebar'.",Images/Happy/AF32HAS.jpg,Happy,Yellow,Images/Yellow.jpg,space,ParentConditions/YellowBlueBlue_v2.xlsx,BlueBlueYellow,Conditions/Version_2/BlueFearStop.xlsx,no,PASS,0.007662007482450273,,,,,,,,,0,0,0,0,0,1,1,1,0,39,39,39,,,,,,,,,,,,,,,,,,,,,,,,,,,,,,,,,,,,,,,,,,,,,,,,,,,,,,,,,,,,,,,,,,,,,,,,,,,,,,,1.42,619.126254200004,None,space,1,0.33290300000226125,620.6497777000186,None,620.6497777000186,None,620.6497777000186,None,,,,,,,,,,,P027,FEN,2,Pre,2022_Feb_28_1036,Go No-Go Task,2021.1.4,120.31942405804713,
,"Rule: When you see blue image, do not press 'spacebar'.",Images/Happy/AF23HAS.jpg,Happy,Yellow,Images/Yellow.jpg,space,ParentConditions/YellowBlueBlue_v2.xlsx,BlueBlueYellow,Conditions/Version_2/BlueFearStop.xlsx,no,PASS,0.13322659163638806,,,,,,,,,0,0,0,0,0,1,1,1,0,40,40,40,,,,,,,,,,,,,,,,,,,,,,,,,,,,,,,,,,,,,,,,,,,,,,,,,,,,,,,,,,,,,,,,,,,,,,,,,,,,,,,1.29,621.0503672999912,None,space,1,0.3095043000066653,622.440870099992,None,622.440870099992,None,622.440870099992,None,,,,,,,,,,,P027,FEN,2,Pre,2022_Feb_28_1036,Go No-Go Task,2021.1.4,120.31942405804713,
,"Rule: When you see blue image, do not press 'spacebar'.",Images/Happy/AM32HAS.jpg,Happy,Yellow,Images/Yellow.jpg,space,ParentConditions/YellowBlueBlue_v2.xlsx,BlueBlueYellow,Conditions/Version_2/BlueFearStop.xlsx,no,PASS,0.18790539518346805,,,,,,,,,0,0,0,0,0,1,1,1,0,41,41,41,,,,,,,,,,,,,,,,,,,,,,,,,,,,,,,,,,,,,,,,,,,,,,,,,,,,,,,,,,,,,,,,,,,,,,,,,,,,,,,1.36,622.8394920999999,None,space,1,0.2759160000132397,624.2986120000132,None,624.2986120000132,None,624.2986120000132,None,,,,,,,,,,,P027,FEN,2,Pre,2022_Feb_28_1036,Go No-Go Task,2021.1.4,120.31942405804713,
,"Rule: When you see blue image, do not press 'spacebar'.",Images/Fearful/AM30AFS.jpg,Fear,Blue,Images/Blue.jpg,None,ParentConditions/YellowBlueBlue_v2.xlsx,BlueBlueYellow,Conditions/Version_2/BlueFearStop.xlsx,yes,PASS,0.3894428318578558,,,,,,,,,0,0,0,0,0,1,1,1,0,42,42,42,,,,,,,,,,,,,,,,,,,,,,,,,,,,,,,,,,,,,,,,,,,,,,,,,,,,,,,,,,,,,,,,,,,,,,,,,,,,,,,1.96,624.7075876999879,None,None,1,,626.7729114000103,None,626.7729114000103,None,626.7729114000103,None,,,,,,,,,,,P027,FEN,2,Pre,2022_Feb_28_1036,Go No-Go Task,2021.1.4,120.31942405804713,
,"Rule: When you see blue image, do not press 'spacebar'.",Images/Happy/BM02_HO.jpg,Happy,Yellow,Images/Yellow.jpg,space,ParentConditions/YellowBlueBlue_v2.xlsx,BlueBlueYellow,Conditions/Version_2/BlueFearStop.xlsx,no,PASS,0.8000984906086622,,,,,,,,,0,0,0,0,0,1,1,1,0,43,43,43,,,,,,,,,,,,,,,,,,,,,,,,,,,,,,,,,,,,,,,,,,,,,,,,,,,,,,,,,,,,,,,,,,,,,,,,,,,,,,,1.34,627.1736964000156,None,space,1,0.30443259997991845,628.614025799965,None,628.614025799965,None,628.614025799965,None,,,,,,,,,,,P027,FEN,2,Pre,2022_Feb_28_1036,Go No-Go Task,2021.1.4,120.31942405804713,
,"Rule: When you see blue image, do not press 'spacebar'.",Images/Happy/AM10_HO.jpg,Happy,Yellow,Images/Yellow.jpg,space,ParentConditions/YellowBlueBlue_v2.xlsx,BlueBlueYellow,Conditions/Version_2/BlueFearStop.xlsx,no,PASS,0.5717939201397183,,,,,,,,,0,0,0,0,0,1,1,1,0,44,44,44,,,,,,,,,,,,,,,,,,,,,,,,,,,,,,,,,,,,,,,,,,,,,,,,,,,,,,,,,,,,,,,,,,,,,,,,,,,,,,,1.44,629.0149271999835,None,space,1,0.2913626999943517,630.5551743999822,None,630.5551743999822,None,630.5551743999822,None,,,,,,,,,,,P027,FEN,2,Pre,2022_Feb_28_1036,Go No-Go Task,2021.1.4,120.31942405804713,
,"Rule: When you see blue image, do not press 'spacebar'.",Images/Fearful/AM10_FO.jpg,Fear,Blue,Images/Blue.jpg,None,ParentConditions/YellowBlueBlue_v2.xlsx,BlueBlueYellow,Conditions/Version_2/BlueFearStop.xlsx,yes,PASS,0.5269701617606191,,,,,,,,,0,0,0,0,0,1,1,1,0,45,45,45,,,,,,,,,,,,,,,,,,,,,,,,,,,,,,,,,,,,,,,,,,,,,,,,,,,,,,,,,,,,,,,,,,,,,,,,,,,,,,,1.94,630.9541773999808,None,None,1,,632.9960809000186,None,632.9960809000186,None,632.9960809000186,None,,,,,,,,,,,P027,FEN,2,Pre,2022_Feb_28_1036,Go No-Go Task,2021.1.4,120.31942405804713,
,"Rule: When you see blue image, do not press 'spacebar'.",Images/Happy/AF19HAS.jpg,Happy,Yellow,Images/Yellow.jpg,space,ParentConditions/YellowBlueBlue_v2.xlsx,BlueBlueYellow,Conditions/Version_2/BlueFearStop.xlsx,no,PASS,0.6170839926730745,,,,,,,,,0,0,0,0,0,1,1,1,0,46,46,46,,,,,,,,,,,,,,,,,,,,,,,,,,,,,,,,,,,,,,,,,,,,,,,,,,,,,,,,,,,,,,,,,,,,,,,,,,,,,,,1.57,633.3962277999963,None,None,0,,635.0704177999869,None,635.0704177999869,None,635.0704177999869,None,,,,,,,,,,,P027,FEN,2,Pre,2022_Feb_28_1036,Go No-Go Task,2021.1.4,120.31942405804713,
,"Rule: When you see blue image, do not press 'spacebar'.",Images/Fearful/HF09_FC.jpg,Fear,Blue,Images/Blue.jpg,None,ParentConditions/YellowBlueBlue_v2.xlsx,BlueBlueYellow,Conditions/Version_2/BlueFearStop.xlsx,yes,PASS,0.03424286048079783,,,,,,,,,0,0,0,0,0,1,1,1,0,47,47,47,,,,,,,,,,,,,,,,,,,,,,,,,,,,,,,,,,,,,,,,,,,,,,,,,,,,,,,,,,,,,,,,,,,,,,,,,,,,,,,1.46,635.4709771000198,None,None,1,,637.0365387999918,None,637.0365387999918,None,637.0365387999918,None,,,,,,,,,,,P027,FEN,2,Pre,2022_Feb_28_1036,Go No-Go Task,2021.1.4,120.31942405804713,
,"Rule: When you see blue image, do not press 'spacebar'.",Images/Fearful/AM22AFS.jpg,Fear,Blue,Images/Blue.jpg,None,ParentConditions/YellowBlueBlue_v2.xlsx,BlueBlueYellow,Conditions/Version_2/BlueFearStop.xlsx,yes,PASS,0.9945919074829972,,,,,,,,,0,0,0,0,0,1,1,1,0,48,48,48,,,,,,,,,,,,,,,,,,,,,,,,,,,,,,,,,,,,,,,,,,,,,,,,,,,,,,,,,,,,,,,,,,,,,,,,,,,,,,,1.83,637.4373015000019,None,None,1,,639.369197699998,None,639.369197699998,None,639.369197699998,None,,,,,,,,,,,P027,FEN,2,Pre,2022_Feb_28_1036,Go No-Go Task,2021.1.4,120.31942405804713,
,"Rule: When you see blue image, do not press 'spacebar'.",Images/Happy/AM06_HC.jpg,Happy,Yellow,Images/Yellow.jpg,space,ParentConditions/YellowBlueBlue_v2.xlsx,BlueBlueYellow,Conditions/Version_2/BlueFearStop.xlsx,no,PASS,0.15639026645094434,,,,,,,,,0,0,0,0,0,1,1,1,0,49,49,49,,,,,,,,,,,,,,,,,,,,,,,,,,,,,,,,,,,,,,,,,,,,,,,,,,,,,,,,,,,,,,,,,,,,,,,,,,,,,,,1.62,639.7714522000169,None,None,0,,641.493570199993,None,641.493570199993,None,641.493570199993,None,,,,,,,,,,,P027,FEN,2,Pre,2022_Feb_28_1036,Go No-Go Task,2021.1.4,120.31942405804713,
,"Rule: When you see blue image, do not press 'spacebar'.",Images/Fearful/AM32AFS.jpg,Fear,Blue,Images/Blue.jpg,None,ParentConditions/YellowBlueBlue_v2.xlsx,BlueBlueYellow,Conditions/Version_2/BlueFearStop.xlsx,yes,PASS,0.6879520753296126,,,,,,,,,0,0,0,0,0,1,1,1,0,50,50,50,,,,,,,,,,,,,,,,,,,,,,,,,,,,,,,,,,,,,,,,,,,,,,,,,,,,,,,,,,,,,,,,,,,,,,,,,,,,,,,1.82,641.8939881999977,None,None,1,,643.8179027999868,None,643.8179027999868,None,643.8179027999868,None,,,,,,,,,,,P027,FEN,2,Pre,2022_Feb_28_1036,Go No-Go Task,2021.1.4,120.31942405804713,
,"Rule: When you see blue image, do not press 'spacebar'.",Images/Happy/WF11_HE.jpg,Happy,Yellow,Images/Yellow.jpg,space,ParentConditions/YellowBlueBlue_v2.xlsx,BlueBlueYellow,Conditions/Version_2/BlueFearStop.xlsx,no,PASS,0.0583479260669304,,,,,,,,,0,0,0,0,0,1,1,1,0,51,51,51,,,,,,,,,,,,,,,,,,,,,,,,,,,,,,,,,,,,,,,,,,,,,,,,,,,,,,,,,,,,,,,,,,,,,,,,,,,,,,,1.4,644.2191449999809,None,space,1,0.24872559995856136,645.7257088000188,None,645.7257088000188,None,645.7257088000188,None,,,,,,,,,,,P027,FEN,2,Pre,2022_Feb_28_1036,Go No-Go Task,2021.1.4,120.31942405804713,
,"Rule: When you see blue image, do not press 'spacebar'.",Images/Fearful/AF28AFS.jpg,Fear,Blue,Images/Blue.jpg,None,ParentConditions/YellowBlueBlue_v2.xlsx,BlueBlueYellow,Conditions/Version_2/BlueFearStop.xlsx,yes,PASS,0.84152709172785,,,,,,,,,0,0,0,0,0,1,1,1,0,52,52,52,,,,,,,,,,,,,,,,,,,,,,,,,,,,,,,,,,,,,,,,,,,,,,,,,,,,,,,,,,,,,,,,,,,,,,,,,,,,,,,1.43,646.1264060999965,None,None,1,,647.6584381000139,None,647.6584381000139,None,647.6584381000139,None,,,,,,,,,,,P027,FEN,2,Pre,2022_Feb_28_1036,Go No-Go Task,2021.1.4,120.31942405804713,
,"Rule: When you see blue image, do not press 'spacebar'.",Images/Happy/HF04_HE.jpg,Happy,Yellow,Images/Yellow.jpg,space,ParentConditions/YellowBlueBlue_v2.xlsx,BlueBlueYellow,Conditions/Version_2/BlueFearStop.xlsx,no,PASS,0.4119172299729392,,,,,,,,,0,0,0,0,0,1,1,1,0,53,53,53,,,,,,,,,,,,,,,,,,,,,,,,,,,,,,,,,,,,,,,,,,,,,,,,,,,,,,,,,,,,,,,,,,,,,,,,,,,,,,,1.58,648.05765719997,None,space,1,0.27361350000137463,649.7411778999958,None,649.7411778999958,None,649.7411778999958,None,,,,,,,,,,,P027,FEN,2,Pre,2022_Feb_28_1036,Go No-Go Task,2021.1.4,120.31942405804713,
,"Rule: When you see blue image, do not press 'spacebar'.",Images/Happy/AM13HAS.jpg,Happy,Yellow,Images/Yellow.jpg,space,ParentConditions/YellowBlueBlue_v2.xlsx,BlueBlueYellow,Conditions/Version_2/BlueFearStop.xlsx,no,PASS,0.1481016084905541,,,,,,,,,0,0,0,0,0,1,1,1,0,54,54,54,,,,,,,,,,,,,,,,,,,,,,,,,,,,,,,,,,,,,,,,,,,,,,,,,,,,,,,,,,,,,,,,,,,,,,,,,,,,,,,1.23,650.1416042000055,None,space,1,0.2845472000190057,651.4740799000137,None,651.4740799000137,None,651.4740799000137,None,,,,,,,,,,,P027,FEN,2,Pre,2022_Feb_28_1036,Go No-Go Task,2021.1.4,120.31942405804713,
,"Rule: When you see blue image, do not press 'spacebar'.",Images/Happy/HF10_HE.jpg,Happy,Yellow,Images/Yellow.jpg,space,ParentConditions/YellowBlueBlue_v2.xlsx,BlueBlueYellow,Conditions/Version_2/BlueFearStop.xlsx,no,PASS,0.04388835754455167,,,,,,,,,0,0,0,0,0,1,1,1,0,55,55,55,,,,,,,,,,,,,,,,,,,,,,,,,,,,,,,,,,,,,,,,,,,,,,,,,,,,,,,,,,,,,,,,,,,,,,,,,,,,,,,1.88,651.8752761000069,None,space,1,0.3339726999984123,653.8566185999662,None,653.8566185999662,None,653.8566185999662,None,,,,,,,,,,,P027,FEN,2,Pre,2022_Feb_28_1036,Go No-Go Task,2021.1.4,120.31942405804713,
,"Rule: When you see blue image, do not press 'spacebar'.",Images/Happy/AM04_HE.jpg,Happy,Yellow,Images/Yellow.jpg,space,ParentConditions/YellowBlueBlue_v2.xlsx,BlueBlueYellow,Conditions/Version_2/BlueFearStop.xlsx,no,PASS,0.8425689490019698,,,,,,,,,0,0,0,0,0,1,1,1,0,56,56,56,,,,,,,,,,,,,,,,,,,,,,,,,,,,,,,,,,,,,,,,,,,,,,,,,,,,,,,,,,,,,,,,,,,,,,,,,,,,,,,1.7,654.2570120000164,None,space,1,0.24634729995159432,656.064341099991,None,656.064341099991,None,656.064341099991,None,,,,,,,,,,,P027,FEN,2,Pre,2022_Feb_28_1036,Go No-Go Task,2021.1.4,120.31942405804713,
,"Rule: When you see blue image, do not press 'spacebar'.",Images/Happy/WF04_HC.jpg,Happy,Yellow,Images/Yellow.jpg,space,ParentConditions/YellowBlueBlue_v2.xlsx,BlueBlueYellow,Conditions/Version_2/BlueFearStop.xlsx,no,PASS,0.9132846307792184,,,,,,,,,0,0,0,0,0,1,1,1,0,57,57,57,,,,,,,,,,,,,,,,,,,,,,,,,,,,,,,,,,,,,,,,,,,,,,,,,,,,,,,,,,,,,,,,,,,,,,,,,,,,,,,1.6,656.4647500999854,None,space,1,0.2985313999815844,658.1720447000116,None,658.1720447000116,None,658.1720447000116,None,,,,,,,,,,,P027,FEN,2,Pre,2022_Feb_28_1036,Go No-Go Task,2021.1.4,120.31942405804713,
