CondFileP,Instructions,FaceE,Express,ColourT,ColourF,CorrectAnsP,MasterCondFile,BlockOrder,CondFile,ColCheck,Triplicate_check,SORT_BY_SMALLEST,EPracticeOuterLoop.thisRepN,EPracticeOuterLoop.thisTrialN,EPracticeOuterLoop.thisN,EPracticeOuterLoop.thisIndex,EPracticeInnerLoop.thisRepN,EPracticeInnerLoop.thisTrialN,EPracticeInnerLoop.thisN,EPracticeInnerLoop.thisIndex,MasterLoop.thisRepN,MasterLoop.thisTrialN,MasterLoop.thisN,MasterLoop.thisIndex,OuterLoop.thisRepN,OuterLoop.thisTrialN,OuterLoop.thisN,OuterLoop.thisIndex,InnerLoop.thisRepN,InnerLoop.thisTrialN,InnerLoop.thisN,InnerLoop.thisIndex,text_13.started,text_13.stopped,key_resp_10.keys,key_resp_10.rt,key_resp_10.started,key_resp_10.stopped,text4.started,text4.stopped,EmotionTaskInstructions1.keys,EmotionTaskInstructions1.rt,EmotionTaskInstructions1.started,EmotionTaskInstructions1.stopped,text_4.started,text_4.stopped,key_resp_5.keys,key_resp_5.rt,key_resp_5.started,key_resp_5.stopped,Text_14.started,Text_14.stopped,key_resp_9.keys,key_resp_9.rt,key_resp_9.started,key_resp_9.stopped,text_5.started,text_5.stopped,text_6.started,text_6.stopped,key_resp_7.keys,key_resp_7.rt,key_resp_7.started,key_resp_7.stopped,text_10.started,text_10.stopped,text_11.started,text_11.stopped,text_12.started,text_12.stopped,ISIjitterPractice,EPracticeISIMarker.started,EPracticeISIMarker.stopped,Pract.keys,Pract.corr,Pract.rt,Pract.started,Pract.stopped,PracticeFace.started,PracticeFace.stopped,ColourPractice.started,ColourPractice.stopped,text_7.started,text_7.stopped,EndOfPractice.started,EndOfPractice.stopped,key_resp_8.keys,key_resp_8.rt,key_resp_8.started,key_resp_8.stopped,text_8.started,text_8.stopped,key_resp_6.keys,key_resp_6.rt,key_resp_6.started,key_resp_6.stopped,text_2.started,text_2.stopped,text_3.started,text_3.stopped,key_resp_3.keys,key_resp_3.rt,key_resp_3.started,key_resp_3.stopped,TaskBlock.started,TaskBlock.stopped,BlockNo1.started,BlockNo1.stopped,OfBlock.started,OfBlock.stopped,ISIjitter,ISImarker.started,ISImarker.stopped,key_resp.keys,key_resp.corr,key_resp.rt,key_resp.started,key_resp.stopped,FaceSet.started,FaceSet.stopped,Colour.started,Colour.stopped,EndBlockText.started,EndBlockText.stopped,key_resp_4.keys,key_resp_4.rt,key_resp_4.started,key_resp_4.stopped,BreakText2.started,BreakText2.stopped,PressToContinue.started,PressToContinue.stopped,participant,Study Name,Task Version (required to run),PRE/POST,date,expName,psychopyVersion,frameRate
,,,,,,,,,,,,,,,,,,,,,,,,,,,,,,,,,30.9337527,None,space,4.3044249,31.9225969,None,,,,,,,,,,,,,,,,,,,,,,,,,,,,,,,,,,,,,,,,,,,,,,,,,,,,,,,,,,,,,,,,,,,,,,,,,,,,,,,,,,,,,,,,,,,,,,,P027,fencog,1,Post,2022_Mar_07_1206,Go No-Go Task,2021.1.4,120.5193903
,,,,,,,,,,,,,,,,,,,,,,,,,,,,,,,,,,,,,,,37.7430894,None,space,52.2925028,37.7430894,None,,,,,,,,,,,,,,,,,,,,,,,,,,,,,,,,,,,,,,,,,,,,,,,,,,,,,,,,,,,,,,,,,,,,,,,,,,,,,,,,,,,,,,,,,P027,fencog,1,Post,2022_Mar_07_1206,Go No-Go Task,2021.1.4,120.5193903
,,,,,,,,,,,,,,,,,,,,,,,,,,,,,,,,,,,,,,,,,,,,,90.1022962,None,space,5.3486517,90.1022962,None,,,,,,,,,,,,,,,,,,,,,,,,,,,,,,,,,,,,,,,,,,,,,,,,,,,,,,,,,,,,,,,,,,,,,,,,,,,,,,,,,,,P027,fencog,1,Post,2022_Mar_07_1206,Go No-Go Task,2021.1.4,120.5193903
,,,,,,,,,,,,,,,,,,,,,,,,,,,,,,,,,,,,,,,,,,,,,,,,,,,95.4633092,None,space,2.1476285,95.4633092,None,,,,,,,,,,,,,,,,,,,,,,,,,,,,,,,,,,,,,,,,,,,,,,,,,,,,,,,,,,,,,,,,,,,,,,,,,,,,,P027,fencog,1,Post,2022_Mar_07_1206,Go No-Go Task,2021.1.4,120.5193903
EPracticeConditions/BlueEyes.csv,"Rule: When you see a blue image, do not press 'spacebar'.",Images/Happy/HF10_HE.jpg,Happy,Yellow,Images/Yellow.jpg,space,,,,,,,0,0,0,0,0,0,0,7,,,,,,,,,,,,,,,,,,,,,,,,,,,,,,,,,,,,,97.6866142,None,100.6773096,None,space,0.3815566,100.6773096,None,97.6866142,None,97.6866142,None,97.6866142,None,1.4,101.1928443,None,space,1,0.2027296,102.7281621,None,102.7281621,None,102.7281621,None,104.1837524,None,,,,,,,,,,,,,,,,,,,,,,,,,,,,,,,,,,,,,,,,,,,,,,,,,P027,fencog,1,Post,2022_Mar_07_1206,Go No-Go Task,2021.1.4,120.5193903
EPracticeConditions/BlueEyes.csv,"Rule: When you see a blue image, do not press 'spacebar'.",Images/Happy/BM08_HO.jpg,Happy,Yellow,Images/Yellow.jpg,space,,,,,,,0,0,0,0,0,1,1,3,,,,,,,,,,,,,,,,,,,,,,,,,,,,,,,,,,,,,,,,,,,,,,,,,,,1.3,105.6247462,None,space,1,0.3133575,107.0258129,None,107.0258129,None,107.0258129,None,107.9165803,None,,,,,,,,,,,,,,,,,,,,,,,,,,,,,,,,,,,,,,,,,,,,,,,,,P027,fencog,1,Post,2022_Mar_07_1206,Go No-Go Task,2021.1.4,120.5193903
EPracticeConditions/BlueEyes.csv,"Rule: When you see a blue image, do not press 'spacebar'.",Images/Happy/HF04_HE.jpg,Happy,Yellow,Images/Yellow.jpg,space,,,,,,,0,0,0,0,0,2,2,4,,,,,,,,,,,,,,,,,,,,,,,,,,,,,,,,,,,,,,,,,,,,,,,,,,,1.7,109.922177,None,space,1,0.2939449,111.7330871,None,111.7330871,None,111.7330871,None,112.6292102,None,,,,,,,,,,,,,,,,,,,,,,,,,,,,,,,,,,,,,,,,,,,,,,,,,P027,fencog,1,Post,2022_Mar_07_1206,Go No-Go Task,2021.1.4,120.5193903
EPracticeConditions/BlueEyes.csv,"Rule: When you see a blue image, do not press 'spacebar'.",Images/Happy/BM02_HO.jpg,Happy,Yellow,Images/Yellow.jpg,space,,,,,,,0,0,0,0,0,3,3,2,,,,,,,,,,,,,,,,,,,,,,,,,,,,,,,,,,,,,,,,,,,,,,,,,,,1.5,114.6314256,None,space,1,0.3790663,116.2399398,None,116.2399398,None,116.2399398,None,117.1363827,None,,,,,,,,,,,,,,,,,,,,,,,,,,,,,,,,,,,,,,,,,,,,,,,,,P027,fencog,1,Post,2022_Mar_07_1206,Go No-Go Task,2021.1.4,120.5193903
EPracticeConditions/BlueEyes.csv,"Rule: When you see a blue image, do not press 'spacebar'.",Images/Fearful/AF01_FO.jpg,Fear,Blue,Images/Blue.jpg,None,,,,,,,0,0,0,0,0,4,4,1,,,,,,,,,,,,,,,,,,,,,,,,,,,,,,,,,,,,,,,,,,,,,,,,,,,1.9,119.1400519,None,None,1,,121.1554022,None,121.1554022,None,121.1554022,None,122.0520381,None,,,,,,,,,,,,,,,,,,,,,,,,,,,,,,,,,,,,,,,,,,,,,,,,,P027,fencog,1,Post,2022_Mar_07_1206,Go No-Go Task,2021.1.4,120.5193903
EPracticeConditions/BlueEyes.csv,"Rule: When you see a blue image, do not press 'spacebar'.",Images/Happy/HF09_HE.jpg,Happy,Yellow,Images/Yellow.jpg,space,,,,,,,0,0,0,0,0,5,5,6,,,,,,,,,,,,,,,,,,,,,,,,,,,,,,,,,,,,,,,,,,,,,,,,,,,1.8,124.0535641,None,space,1,0.3207849,125.9623464,None,125.9623464,None,125.9623464,None,126.8597282,None,,,,,,,,,,,,,,,,,,,,,,,,,,,,,,,,,,,,,,,,,,,,,,,,,P027,fencog,1,Post,2022_Mar_07_1206,Go No-Go Task,2021.1.4,120.5193903
EPracticeConditions/BlueEyes.csv,"Rule: When you see a blue image, do not press 'spacebar'.",Images/Fearful/HM09_FC.jpg,Fear,Blue,Images/Blue.jpg,None,,,,,,,0,0,0,0,0,6,6,0,,,,,,,,,,,,,,,,,,,,,,,,,,,,,,,,,,,,,,,,,,,,,,,,,,,1.6,128.8604919,None,None,1,,130.5608186,None,130.5608186,None,130.5608186,None,131.4566279,None,,,,,,,,,,,,,,,,,,,,,,,,,,,,,,,,,,,,,,,,,,,,,,,,,P027,fencog,1,Post,2022_Mar_07_1206,Go No-Go Task,2021.1.4,120.5193903
EPracticeConditions/BlueEyes.csv,"Rule: When you see a blue image, do not press 'spacebar'.",Images/Happy/HF05_HO.jpg,Happy,Yellow,Images/Yellow.jpg,space,,,,,,,0,0,0,0,0,7,7,5,,,,,,,,,,,,,,,,,,,,,,,,,,,,,,,,,,,,,,,,,,,,,,,,,,,1.2,133.4593632,None,space,1,0.3724741,134.7591555,None,134.7591555,None,134.7591555,None,135.658835,None,,,,,,,,,,,,,,,,,,,,,,,,,,,,,,,,,,,,,,,,,,,,,,,,,P027,fencog,1,Post,2022_Mar_07_1206,Go No-Go Task,2021.1.4,120.5193903
EPracticeConditions/BlueEyes.csv,"Rule: When you see a blue image, do not press 'spacebar'.",,,,,,,,,,,,0,0,0,0,,,,,,,,,,,,,,,,,,,,,,,,,,,,,,,,,,,,,,,,,,,,,,,,,,,,,,,,,,,,,,,,,,,,,,,,,,,,,,,,,,,,,,,,,,,,,,,,,,,,,,,,,,,,,,,,,,,,,P027,fencog,1,Post,2022_Mar_07_1206,Go No-Go Task,2021.1.4,120.5193903
EPracticeConditions/YellowEyes.csv,"Rule: When you see a yellow image, do not press 'spacebar'.",Images/Fearful/AM23AFS.jpg,Fear,Blue,Images/Blue.jpg,space,,,,,,,0,1,1,1,0,0,0,6,,,,,,,,,,,,,,,,,,,,,,,,,,,,,,,,,,,,,137.6790227,None,140.6741027,None,space,0.2971933,140.6741027,None,137.6790227,None,137.6790227,None,137.6790227,None,1.7,140.9926918,None,space,1,0.3472108,142.8156302,None,142.8156302,None,142.8156302,None,143.6978269,None,,,,,,,,,,,,,,,,,,,,,,,,,,,,,,,,,,,,,,,,,,,,,,,,,P027,fencog,1,Post,2022_Mar_07_1206,Go No-Go Task,2021.1.4,120.5193903
EPracticeConditions/YellowEyes.csv,"Rule: When you see a yellow image, do not press 'spacebar'.",Images/Fearful/AM24AFS.jpg,Fear,Blue,Images/Blue.jpg,space,,,,,,,0,1,1,1,0,1,1,7,,,,,,,,,,,,,,,,,,,,,,,,,,,,,,,,,,,,,,,,,,,,,,,,,,,1.9,145.699719,None,space,1,0.2730143,147.705876,None,147.705876,None,147.705876,None,148.6006332,None,,,,,,,,,,,,,,,,,,,,,,,,,,,,,,,,,,,,,,,,,,,,,,,,,P027,fencog,1,Post,2022_Mar_07_1206,Go No-Go Task,2021.1.4,120.5193903
EPracticeConditions/YellowEyes.csv,"Rule: When you see a yellow image, do not press 'spacebar'.",Images/Fearful/AM16AFS.jpg,Fear,Blue,Images/Blue.jpg,space,,,,,,,0,1,1,1,0,2,2,2,,,,,,,,,,,,,,,,,,,,,,,,,,,,,,,,,,,,,,,,,,,,,,,,,,,1.5,150.6041477,None,None,0,,152.2043463,None,152.2043463,None,152.2043463,None,153.1041515,None,,,,,,,,,,,,,,,,,,,,,,,,,,,,,,,,,,,,,,,,,,,,,,,,,P027,fencog,1,Post,2022_Mar_07_1206,Go No-Go Task,2021.1.4,120.5193903
EPracticeConditions/YellowEyes.csv,"Rule: When you see a yellow image, do not press 'spacebar'.",Images/Fearful/AM17AFS.jpg,Fear,Blue,Images/Blue.jpg,space,,,,,,,0,1,1,1,0,3,3,3,,,,,,,,,,,,,,,,,,,,,,,,,,,,,,,,,,,,,,,,,,,,,,,,,,,1.4,155.1109913,None,None,0,,156.61156,None,156.61156,None,156.61156,None,157.5075503,None,,,,,,,,,,,,,,,,,,,,,,,,,,,,,,,,,,,,,,,,,,,,,,,,,P027,fencog,1,Post,2022_Mar_07_1206,Go No-Go Task,2021.1.4,120.5193903
EPracticeConditions/YellowEyes.csv,"Rule: When you see a yellow image, do not press 'spacebar'.",Images/Fearful/AM19AFS.jpg,Fear,Blue,Images/Blue.jpg,space,,,,,,,0,1,1,1,0,4,4,4,,,,,,,,,,,,,,,,,,,,,,,,,,,,,,,,,,,,,,,,,,,,,,,,,,,1.2,159.5102957,None,None,0,,160.8186175,None,160.8186175,None,160.8186175,None,161.716822,None,,,,,,,,,,,,,,,,,,,,,,,,,,,,,,,,,,,,,,,,,,,,,,,,,P027,fencog,1,Post,2022_Mar_07_1206,Go No-Go Task,2021.1.4,120.5193903
EPracticeConditions/YellowEyes.csv,"Rule: When you see a yellow image, do not press 'spacebar'.",Images/Happy/BF05_HO.jpg,Happy,Yellow,Images/Yellow.jpg,None,,,,,,,0,1,1,1,0,5,5,1,,,,,,,,,,,,,,,,,,,,,,,,,,,,,,,,,,,,,,,,,,,,,,,,,,,1.6,163.7167178,None,None,1,,165.4256687,None,165.4256687,None,165.4256687,None,166.3240747,None,,,,,,,,,,,,,,,,,,,,,,,,,,,,,,,,,,,,,,,,,,,,,,,,,P027,fencog,1,Post,2022_Mar_07_1206,Go No-Go Task,2021.1.4,120.5193903
EPracticeConditions/YellowEyes.csv,"Rule: When you see a yellow image, do not press 'spacebar'.",Images/Fearful/AM22AFS.jpg,Fear,Blue,Images/Blue.jpg,space,,,,,,,0,1,1,1,0,6,6,5,,,,,,,,,,,,,,,,,,,,,,,,,,,,,,,,,,,,,,,,,,,,,,,,,,,1.3,168.3238506,None,space,1,0.31892,169.7244008,None,169.7244008,None,169.7244008,None,170.6295932,None,,,,,,,,,,,,,,,,,,,,,,,,,,,,,,,,,,,,,,,,,,,,,,,,,P027,fencog,1,Post,2022_Mar_07_1206,Go No-Go Task,2021.1.4,120.5193903
EPracticeConditions/YellowEyes.csv,"Rule: When you see a yellow image, do not press 'spacebar'.",Images/Happy/AM32HAS.jpg,Happy,Yellow,Images/Yellow.jpg,None,,,,,,,0,1,1,1,0,7,7,0,,,,,,,,,,,,,,,,,,,,,,,,,,,,,,,,,,,,,,,,,,,,,,,,,,,1.8,172.630852,None,None,1,,174.5313104,None,174.5313104,None,174.5313104,None,175.4281751,None,,,,,,,,,,,,,,,,,,,,,,,,,,,,,,,,,,,,,,,,,,,,,,,,,P027,fencog,1,Post,2022_Mar_07_1206,Go No-Go Task,2021.1.4,120.5193903
EPracticeConditions/YellowEyes.csv,"Rule: When you see a yellow image, do not press 'spacebar'.",,,,,,,,,,,,0,1,1,1,,,,,,,,,,,,,,,,,,,,,,,,,,,,,,,,,,,,,,,,,,,,,,,,,,,,,,,,,,,,,,,,,,,,,,,,,,,,,,,,,,,,,,,,,,,,,,,,,,,,,,,,,,,,,,,,,,,,,P027,fencog,1,Post,2022_Mar_07_1206,Go No-Go Task,2021.1.4,120.5193903
EPracticeConditions/BlueScram.csv,"Rule: When you see a blue image, do not press 'spacebar'.",Images/Scram2/AF10_NC.jpg,Scramble,Yellow,Images/Yellow.jpg,space,,,,,,,0,2,2,2,0,0,0,2,,,,,,,,,,,,,,,,,,,,,,,,,,,,,,,,,,,,,177.4412874,None,180.4287857,None,space,0.5261412,180.4287857,None,177.4412874,None,177.4412874,None,177.4412874,None,1.8,180.9772806,None,None,0,,182.8785616,None,182.8785616,None,182.8785616,None,183.7773588,None,,,,,,,,,,,,,,,,,,,,,,,,,,,,,,,,,,,,,,,,,,,,,,,,,P027,fencog,1,Post,2022_Mar_07_1206,Go No-Go Task,2021.1.4,120.5193903
EPracticeConditions/BlueScram.csv,"Rule: When you see a blue image, do not press 'spacebar'.",Images/Scram1/AM03NES.jpg,Scramble,Yellow,Images/Yellow.jpg,space,,,,,,,0,2,2,2,0,1,1,4,,,,,,,,,,,,,,,,,,,,,,,,,,,,,,,,,,,,,,,,,,,,,,,,,,,1.7,185.778372,None,space,1,0.2568102,187.5940765,None,187.5940765,None,187.5940765,None,188.4995484,None,,,,,,,,,,,,,,,,,,,,,,,,,,,,,,,,,,,,,,,,,,,,,,,,,P027,fencog,1,Post,2022_Mar_07_1206,Go No-Go Task,2021.1.4,120.5193903
EPracticeConditions/BlueScram.csv,"Rule: When you see a blue image, do not press 'spacebar'.",Images/Scram1/BM08_NC.jpg,Scramble,Blue,Images/Blue.jpg,None,,,,,,,0,2,2,2,0,2,2,0,,,,,,,,,,,,,,,,,,,,,,,,,,,,,,,,,,,,,,,,,,,,,,,,,,,1.3,190.4923124,None,None,1,,191.9094692,None,191.9094692,None,191.9094692,None,192.7916332,None,,,,,,,,,,,,,,,,,,,,,,,,,,,,,,,,,,,,,,,,,,,,,,,,,P027,fencog,1,Post,2022_Mar_07_1206,Go No-Go Task,2021.1.4,120.5193903
EPracticeConditions/BlueScram.csv,"Rule: When you see a blue image, do not press 'spacebar'.",Images/Scram1/BF18_NC.jpg,Scramble,Blue,Images/Blue.jpg,None,,,,,,,0,2,2,2,0,3,3,1,,,,,,,,,,,,,,,,,,,,,,,,,,,,,,,,,,,,,,,,,,,,,,,,,,,1.6,194.7914826,None,None,1,,196.4914046,None,196.4914046,None,196.4914046,None,197.3882298,None,,,,,,,,,,,,,,,,,,,,,,,,,,,,,,,,,,,,,,,,,,,,,,,,,P027,fencog,1,Post,2022_Mar_07_1206,Go No-Go Task,2021.1.4,120.5193903
EPracticeConditions/BlueScram.csv,"Rule: When you see a blue image, do not press 'spacebar'.",Images/Scram1/AM04_NC.jpg,Scramble,Yellow,Images/Yellow.jpg,space,,,,,,,0,2,2,2,0,4,4,3,,,,,,,,,,,,,,,,,,,,,,,,,,,,,,,,,,,,,,,,,,,,,,,,,,,1.2,199.3937455,None,space,1,0.2649837,200.6985979,None,200.6985979,None,200.6985979,None,201.6037628,None,,,,,,,,,,,,,,,,,,,,,,,,,,,,,,,,,,,,,,,,,,,,,,,,,P027,fencog,1,Post,2022_Mar_07_1206,Go No-Go Task,2021.1.4,120.5193903
EPracticeConditions/BlueScram.csv,"Rule: When you see a blue image, do not press 'spacebar'.",Images/Scram1/AM13NES.jpg,Scramble,Yellow,Images/Yellow.jpg,space,,,,,,,0,2,2,2,0,5,5,5,,,,,,,,,,,,,,,,,,,,,,,,,,,,,,,,,,,,,,,,,,,,,,,,,,,1.4,203.6085748,None,None,0,,205.1139431,None,205.1139431,None,205.1139431,None,206.0204982,None,,,,,,,,,,,,,,,,,,,,,,,,,,,,,,,,,,,,,,,,,,,,,,,,,P027,fencog,1,Post,2022_Mar_07_1206,Go No-Go Task,2021.1.4,120.5193903
EPracticeConditions/BlueScram.csv,"Rule: When you see a blue image, do not press 'spacebar'.",Images/Scram2/AF25NES.jpg,Scramble,Yellow,Images/Yellow.jpg,space,,,,,,,0,2,2,2,0,6,6,7,,,,,,,,,,,,,,,,,,,,,,,,,,,,,,,,,,,,,,,,,,,,,,,,,,,1.9,208.0203804,None,space,1,0.3180874,210.0208186,None,210.0208186,None,210.0208186,None,210.9268837,None,,,,,,,,,,,,,,,,,,,,,,,,,,,,,,,,,,,,,,,,,,,,,,,,,P027,fencog,1,Post,2022_Mar_07_1206,Go No-Go Task,2021.1.4,120.5193903
EPracticeConditions/BlueScram.csv,"Rule: When you see a blue image, do not press 'spacebar'.",Images/Scram2/AM03_NC.jpg,Scramble,Yellow,Images/Yellow.jpg,space,,,,,,,0,2,2,2,0,7,7,6,,,,,,,,,,,,,,,,,,,,,,,,,,,,,,,,,,,,,,,,,,,,,,,,,,,1.5,212.9271993,None,space,1,0.3387614,214.527827,None,214.527827,None,214.527827,None,215.4245389,None,,,,,,,,,,,,,,,,,,,,,,,,,,,,,,,,,,,,,,,,,,,,,,,,,P027,fencog,1,Post,2022_Mar_07_1206,Go No-Go Task,2021.1.4,120.5193903
EPracticeConditions/BlueScram.csv,"Rule: When you see a blue image, do not press 'spacebar'.",,,,,,,,,,,,0,2,2,2,,,,,,,,,,,,,,,,,,,,,,,,,,,,,,,,,,,,,,,,,,,,,,,,,,,,,,,,,,,,,,,,,,,,,,,,,,,,,,,,,,,,,,,,,,,,,,,,,,,,,,,,,,,,,,,,,,,,,P027,fencog,1,Post,2022_Mar_07_1206,Go No-Go Task,2021.1.4,120.5193903
EPracticeConditions/YellowScram.csv,"Rule: When you see a yellow image, do not press 'spacebar'.",Images/Scram2/HM06_NC.jpg,Scramble,Yellow,Images/Yellow.jpg,None,,,,,,,0,3,3,3,0,0,0,0,,,,,,,,,,,,,,,,,,,,,,,,,,,,,,,,,,,,,217.4363426,None,220.4254911,None,space,0.2653405,220.4254911,None,217.4363426,None,217.4363426,None,217.4363426,None,1.2,220.7094987,None,None,1,,222.008962,None,222.008962,None,222.008962,None,222.9077684,None,,,,,,,,,,,,,,,,,,,,,,,,,,,,,,,,,,,,,,,,,,,,,,,,,P027,fencog,1,Post,2022_Mar_07_1206,Go No-Go Task,2021.1.4,120.5193903
EPracticeConditions/YellowScram.csv,"Rule: When you see a yellow image, do not press 'spacebar'.",Images/Scram1/HF04_NC.jpg,Scramble,Blue,Images/Blue.jpg,space,,,,,,,0,3,3,3,0,1,1,2,,,,,,,,,,,,,,,,,,,,,,,,,,,,,,,,,,,,,,,,,,,,,,,,,,,1.8,224.9125875,None,space,1,0.3792966,226.8154194,None,226.8154194,None,226.8154194,None,227.7063951,None,,,,,,,,,,,,,,,,,,,,,,,,,,,,,,,,,,,,,,,,,,,,,,,,,P027,fencog,1,Post,2022_Mar_07_1206,Go No-Go Task,2021.1.4,120.5193903
EPracticeConditions/YellowScram.csv,"Rule: When you see a yellow image, do not press 'spacebar'.",Images/Scram1/BM01_NC.jpg,Scramble,Blue,Images/Blue.jpg,space,,,,,,,0,3,3,3,0,2,2,5,,,,,,,,,,,,,,,,,,,,,,,,,,,,,,,,,,,,,,,,,,,,,,,,,,,1.4,229.7060669,None,space,1,0.3326744,231.2061949,None,231.2061949,None,231.2061949,None,232.1013813,None,,,,,,,,,,,,,,,,,,,,,,,,,,,,,,,,,,,,,,,,,,,,,,,,,P027,fencog,1,Post,2022_Mar_07_1206,Go No-Go Task,2021.1.4,120.5193903
EPracticeConditions/YellowScram.csv,"Rule: When you see a yellow image, do not press 'spacebar'.",Images/Scram2/AM03NES.jpg,Scramble,Yellow,Images/Yellow.jpg,None,,,,,,,0,3,3,3,0,3,3,1,,,,,,,,,,,,,,,,,,,,,,,,,,,,,,,,,,,,,,,,,,,,,,,,,,,1.7,234.1044639,None,None,1,,235.9048591,None,235.9048591,None,235.9048591,None,236.8008034,None,,,,,,,,,,,,,,,,,,,,,,,,,,,,,,,,,,,,,,,,,,,,,,,,,P027,fencog,1,Post,2022_Mar_07_1206,Go No-Go Task,2021.1.4,120.5193903
EPracticeConditions/YellowScram.csv,"Rule: When you see a yellow image, do not press 'spacebar'.",Images/Scram1/AF07NES.jpg,Scramble,Blue,Images/Blue.jpg,space,,,,,,,0,3,3,3,0,4,4,3,,,,,,,,,,,,,,,,,,,,,,,,,,,,,,,,,,,,,,,,,,,,,,,,,,,1.9,238.8032066,None,space,1,0.2711293,240.8117802,None,240.8117802,None,240.8117802,None,241.7002493,None,,,,,,,,,,,,,,,,,,,,,,,,,,,,,,,,,,,,,,,,,,,,,,,,,P027,fencog,1,Post,2022_Mar_07_1206,Go No-Go Task,2021.1.4,120.5193903
EPracticeConditions/YellowScram.csv,"Rule: When you see a yellow image, do not press 'spacebar'.",Images/Scram1/AF10_NC.jpg,Scramble,Blue,Images/Blue.jpg,space,,,,,,,0,3,3,3,0,5,5,6,,,,,,,,,,,,,,,,,,,,,,,,,,,,,,,,,,,,,,,,,,,,,,,,,,,1.3,243.7026355,None,space,1,0.3565261,245.1104499,None,245.1104499,None,245.1104499,None,246.0009977,None,,,,,,,,,,,,,,,,,,,,,,,,,,,,,,,,,,,,,,,,,,,,,,,,,P027,fencog,1,Post,2022_Mar_07_1206,Go No-Go Task,2021.1.4,120.5193903
EPracticeConditions/YellowScram.csv,"Rule: When you see a yellow image, do not press 'spacebar'.",Images/Scram1/AF30NES.JPG,Scramble,Blue,Images/Blue.jpg,space,,,,,,,0,3,3,3,0,6,6,4,,,,,,,,,,,,,,,,,,,,,,,,,,,,,,,,,,,,,,,,,,,,,,,,,,,1.6,248.0015469,None,None,0,,249.7087687,None,249.7087687,None,249.7087687,None,250.6156699,None,,,,,,,,,,,,,,,,,,,,,,,,,,,,,,,,,,,,,,,,,,,,,,,,,P027,fencog,1,Post,2022_Mar_07_1206,Go No-Go Task,2021.1.4,120.5193903
EPracticeConditions/YellowScram.csv,"Rule: When you see a yellow image, do not press 'spacebar'.",Images/Scram1/AF24NES.jpg,Scramble,Blue,Images/Blue.jpg,space,,,,,,,0,3,3,3,0,7,7,7,,,,,,,,,,,,,,,,,,,,,,,,,,,,,,,,,,,,,,,,,,,,,,,,,,,1.5,252.6155345,None,None,0,,254.2243948,None,254.2243948,None,254.2243948,None,255.1221101,None,,,,,,,,,,,,,,,,,,,,,,,,,,,,,,,,,,,,,,,,,,,,,,,,,P027,fencog,1,Post,2022_Mar_07_1206,Go No-Go Task,2021.1.4,120.5193903
EPracticeConditions/YellowScram.csv,"Rule: When you see a yellow image, do not press 'spacebar'.",,,,,,,,,,,,0,3,3,3,,,,,,,,,,,,,,,,,,,,,,,,,,,,,,,,,,,,,,,,,,,,,,,,,,,,,,,,,,,,,,,,,,,,,,,,,,,,,,,,,,,,,,,,,,,,,,,,,,,,,,,,,,,,,,,,,,,,,P027,fencog,1,Post,2022_Mar_07_1206,Go No-Go Task,2021.1.4,120.5193903
,,,,,,,,,,,,,,,,,,,,,,,,,,,,,,,,,,,,,,,,,,,,,,,,,,,,,,,,,,,,,,,,,,,,,,,,,,,,,,,,,,,,,258.5190447,None,space,2.4291174,258.9975528,None,,,,,,,,,,,,,,,,,,,,,,,,,,,,,,,,,,,,,,,,,,,P027,fencog,1,Post,2022_Mar_07_1206,Go No-Go Task,2021.1.4,120.5193903
,,,,,,,,,,,,,,,,,,,,,,,,,,,,,,,,,,,,,,,,,,,,,,,,,,,,,,,,,,,,,,,,,,,,,,,,,,,,,,,,,,,,,,,,,,,261.4395021,None,space,1.0837805,261.4395021,None,,,,,,,,,,,,,,,,,,,,,,,,,,,,,,,,,,,,,P027,fencog,1,Post,2022_Mar_07_1206,Go No-Go Task,2021.1.4,120.5193903
,"Rule: When you see a yellow image, do not press 'spacebar'.",Images/Happy/BF09_HO.jpg,Happy,Blue,Images/Blue.jpg,space,ParentConditions/YellowYellowBlue_v1.xlsx,YellowYellowBlue,Conditions/Version_1/YellowFearStop.xlsx,no,PASS,0.826418621,,,,,,,,,0,0,0,1,0,0,0,0,0,0,0,0,,,,,,,,,,,,,,,,,,,,,,,,,,,,,,,,,,,,,,,,,,,,,,,,,,,,,,,,,,,,,,,,,262.6233628,None,265.6119348,None,space,0.3429794,265.6119348,None,262.6233628,None,262.6233628,None,262.6233628,None,1.51,266.0034214,None,space,1,0.3102513,267.6205021,None,267.6205021,None,267.6205021,None,,,,,,,,,,,P027,fencog,1,Post,2022_Mar_07_1206,Go No-Go Task,2021.1.4,120.5193903
,"Rule: When you see a yellow image, do not press 'spacebar'.",Images/Happy/AF30HAS.jpg,Happy,Blue,Images/Blue.jpg,space,ParentConditions/YellowYellowBlue_v1.xlsx,YellowYellowBlue,Conditions/Version_1/YellowFearStop.xlsx,no,PASS,0.175771647,,,,,,,,,0,0,0,1,0,0,0,0,0,1,1,1,,,,,,,,,,,,,,,,,,,,,,,,,,,,,,,,,,,,,,,,,,,,,,,,,,,,,,,,,,,,,,,,,,,,,,,,,,,,,,,1.99,268.0245086,None,space,1,0.2991149,270.1196708,None,270.1196708,None,270.1196708,None,,,,,,,,,,,P027,fencog,1,Post,2022_Mar_07_1206,Go No-Go Task,2021.1.4,120.5193903
,"Rule: When you see a yellow image, do not press 'spacebar'.",Images/Happy/AF27HAS.jpg,Happy,Blue,Images/Blue.jpg,space,ParentConditions/YellowYellowBlue_v1.xlsx,YellowYellowBlue,Conditions/Version_1/YellowFearStop.xlsx,no,PASS,0.953023419,,,,,,,,,0,0,0,1,0,0,0,0,0,2,2,2,,,,,,,,,,,,,,,,,,,,,,,,,,,,,,,,,,,,,,,,,,,,,,,,,,,,,,,,,,,,,,,,,,,,,,,,,,,,,,,1.56,270.5216186,None,space,1,0.2651033,272.1857514,None,272.1857514,None,272.1857514,None,,,,,,,,,,,P027,fencog,1,Post,2022_Mar_07_1206,Go No-Go Task,2021.1.4,120.5193903
,"Rule: When you see a yellow image, do not press 'spacebar'.",Images/Happy/AF22HAS.jpg,Happy,Blue,Images/Blue.jpg,space,ParentConditions/YellowYellowBlue_v1.xlsx,YellowYellowBlue,Conditions/Version_1/YellowFearStop.xlsx,no,PASS,0.382442311,,,,,,,,,0,0,0,1,0,0,0,0,0,3,3,3,,,,,,,,,,,,,,,,,,,,,,,,,,,,,,,,,,,,,,,,,,,,,,,,,,,,,,,,,,,,,,,,,,,,,,,,,,,,,,,1.58,272.5877902,None,space,1,0.2067101,274.268447,None,274.268447,None,274.268447,None,,,,,,,,,,,P027,fencog,1,Post,2022_Mar_07_1206,Go No-Go Task,2021.1.4,120.5193903
,"Rule: When you see a yellow image, do not press 'spacebar'.",Images/Happy/WM11_HC.jpg,Happy,Blue,Images/Blue.jpg,space,ParentConditions/YellowYellowBlue_v1.xlsx,YellowYellowBlue,Conditions/Version_1/YellowFearStop.xlsx,no,PASS,0.464619418,,,,,,,,,0,0,0,1,0,0,0,0,0,4,4,4,,,,,,,,,,,,,,,,,,,,,,,,,,,,,,,,,,,,,,,,,,,,,,,,,,,,,,,,,,,,,,,,,,,,,,,,,,,,,,,1.36,274.6694962,None,space,1,0.2526951,276.1345818,None,276.1345818,None,276.1345818,None,,,,,,,,,,,P027,fencog,1,Post,2022_Mar_07_1206,Go No-Go Task,2021.1.4,120.5193903
,"Rule: When you see a yellow image, do not press 'spacebar'.",Images/Happy/BF05_HO.jpg,Happy,Blue,Images/Blue.jpg,space,ParentConditions/YellowYellowBlue_v1.xlsx,YellowYellowBlue,Conditions/Version_1/YellowFearStop.xlsx,no,PASS,0.787207226,,,,,,,,,0,0,0,1,0,0,0,0,0,5,5,5,,,,,,,,,,,,,,,,,,,,,,,,,,,,,,,,,,,,,,,,,,,,,,,,,,,,,,,,,,,,,,,,,,,,,,,,,,,,,,,1.4,276.5411472,None,space,1,0.2886316,278.0423977,None,278.0423977,None,278.0423977,None,,,,,,,,,,,P027,fencog,1,Post,2022_Mar_07_1206,Go No-Go Task,2021.1.4,120.5193903
,"Rule: When you see a yellow image, do not press 'spacebar'.",Images/Fearful/AM01AFS.jpg,Fear,Yellow,Images/Yellow.jpg,None,ParentConditions/YellowYellowBlue_v1.xlsx,YellowYellowBlue,Conditions/Version_1/YellowFearStop.xlsx,yes,PASS,0.046465855,,,,,,,,,0,0,0,1,0,0,0,0,0,6,6,6,,,,,,,,,,,,,,,,,,,,,,,,,,,,,,,,,,,,,,,,,,,,,,,,,,,,,,,,,,,,,,,,,,,,,,,,,,,,,,,1.64,278.4427404,None,None,1,,280.1833673,None,280.1833673,None,280.1833673,None,,,,,,,,,,,P027,fencog,1,Post,2022_Mar_07_1206,Go No-Go Task,2021.1.4,120.5193903
,"Rule: When you see a yellow image, do not press 'spacebar'.",Images/Happy/AF23HAS.jpg,Happy,Blue,Images/Blue.jpg,space,ParentConditions/YellowYellowBlue_v1.xlsx,YellowYellowBlue,Conditions/Version_1/YellowFearStop.xlsx,no,PASS,0.956689778,,,,,,,,,0,0,0,1,0,0,0,0,0,7,7,7,,,,,,,,,,,,,,,,,,,,,,,,,,,,,,,,,,,,,,,,,,,,,,,,,,,,,,,,,,,,,,,,,,,,,,,,,,,,,,,1.31,280.5891432,None,space,1,0.2673976,281.9995802,None,281.9995802,None,281.9995802,None,,,,,,,,,,,P027,fencog,1,Post,2022_Mar_07_1206,Go No-Go Task,2021.1.4,120.5193903
,"Rule: When you see a yellow image, do not press 'spacebar'.",Images/Happy/AM16HAS.jpg,Happy,Blue,Images/Blue.jpg,space,ParentConditions/YellowYellowBlue_v1.xlsx,YellowYellowBlue,Conditions/Version_1/YellowFearStop.xlsx,no,PASS,0.971596274,,,,,,,,,0,0,0,1,0,0,0,0,0,8,8,8,,,,,,,,,,,,,,,,,,,,,,,,,,,,,,,,,,,,,,,,,,,,,,,,,,,,,,,,,,,,,,,,,,,,,,,,,,,,,,,1.2,282.4047711,None,space,1,0.2880378,283.7072414,None,283.7072414,None,283.7072414,None,,,,,,,,,,,P027,fencog,1,Post,2022_Mar_07_1206,Go No-Go Task,2021.1.4,120.5193903
,"Rule: When you see a yellow image, do not press 'spacebar'.",Images/Happy/AM04HAS.jpg,Happy,Blue,Images/Blue.jpg,space,ParentConditions/YellowYellowBlue_v1.xlsx,YellowYellowBlue,Conditions/Version_1/YellowFearStop.xlsx,no,PASS,0.883453283,,,,,,,,,0,0,0,1,0,0,0,0,0,9,9,9,,,,,,,,,,,,,,,,,,,,,,,,,,,,,,,,,,,,,,,,,,,,,,,,,,,,,,,,,,,,,,,,,,,,,,,,,,,,,,,1.46,284.1192817,None,space,1,0.3606752,285.6825325,None,285.6825325,None,285.6825325,None,,,,,,,,,,,P027,fencog,1,Post,2022_Mar_07_1206,Go No-Go Task,2021.1.4,120.5193903
,"Rule: When you see a yellow image, do not press 'spacebar'.",Images/Happy/AF26HAS.jpg,Happy,Blue,Images/Blue.jpg,space,ParentConditions/YellowYellowBlue_v1.xlsx,YellowYellowBlue,Conditions/Version_1/YellowFearStop.xlsx,no,PASS,0.183751262,,,,,,,,,0,0,0,1,0,0,0,0,0,10,10,10,,,,,,,,,,,,,,,,,,,,,,,,,,,,,,,,,,,,,,,,,,,,,,,,,,,,,,,,,,,,,,,,,,,,,,,,,,,,,,,1.53,286.0903825,None,space,1,0.319964,287.7228511,None,287.7228511,None,287.7228511,None,,,,,,,,,,,P027,fencog,1,Post,2022_Mar_07_1206,Go No-Go Task,2021.1.4,120.5193903
,"Rule: When you see a yellow image, do not press 'spacebar'.",Images/Fearful/AF10_FC.jpg,Fear,Yellow,Images/Yellow.jpg,None,ParentConditions/YellowYellowBlue_v1.xlsx,YellowYellowBlue,Conditions/Version_1/YellowFearStop.xlsx,yes,PASS,0.280171839,,,,,,,,,0,0,0,1,0,0,0,0,0,11,11,11,,,,,,,,,,,,,,,,,,,,,,,,,,,,,,,,,,,,,,,,,,,,,,,,,,,,,,,,,,,,,,,,,,,,,,,,,,,,,,,1.34,288.1232187,None,None,1,,289.5640165,None,289.5640165,None,289.5640165,None,,,,,,,,,,,P027,fencog,1,Post,2022_Mar_07_1206,Go No-Go Task,2021.1.4,120.5193903
,"Rule: When you see a yellow image, do not press 'spacebar'.",Images/Fearful/AM09_FO.jpg,Fear,Yellow,Images/Yellow.jpg,None,ParentConditions/YellowYellowBlue_v1.xlsx,YellowYellowBlue,Conditions/Version_1/YellowFearStop.xlsx,yes,PASS,0.663013992,,,,,,,,,0,0,0,1,0,0,0,0,0,12,12,12,,,,,,,,,,,,,,,,,,,,,,,,,,,,,,,,,,,,,,,,,,,,,,,,,,,,,,,,,,,,,,,,,,,,,,,,,,,,,,,1.23,289.9691696,None,None,1,,291.3217979,None,291.3217979,None,291.3217979,None,,,,,,,,,,,P027,fencog,1,Post,2022_Mar_07_1206,Go No-Go Task,2021.1.4,120.5193903
,"Rule: When you see a yellow image, do not press 'spacebar'.",Images/Happy/HM04_HO.jpg,Happy,Blue,Images/Blue.jpg,space,ParentConditions/YellowYellowBlue_v1.xlsx,YellowYellowBlue,Conditions/Version_1/YellowFearStop.xlsx,no,PASS,0.940231429,,,,,,,,,0,0,0,1,0,0,0,0,0,13,13,13,,,,,,,,,,,,,,,,,,,,,,,,,,,,,,,,,,,,,,,,,,,,,,,,,,,,,,,,,,,,,,,,,,,,,,,,,,,,,,,1.45,291.7125035,None,space,1,0.3637691,293.262957,None,293.262957,None,293.262957,None,,,,,,,,,,,P027,fencog,1,Post,2022_Mar_07_1206,Go No-Go Task,2021.1.4,120.5193903
,"Rule: When you see a yellow image, do not press 'spacebar'.",Images/Fearful/AM04_FO.jpg,Fear,Yellow,Images/Yellow.jpg,None,ParentConditions/YellowYellowBlue_v1.xlsx,YellowYellowBlue,Conditions/Version_1/YellowFearStop.xlsx,yes,PASS,0.310049008,,,,,,,,,0,0,0,1,0,0,0,0,0,14,14,14,,,,,,,,,,,,,,,,,,,,,,,,,,,,,,,,,,,,,,,,,,,,,,,,,,,,,,,,,,,,,,,,,,,,,,,,,,,,,,,1.43,293.6629701,None,None,1,,295.1954814,None,295.1954814,None,295.1954814,None,,,,,,,,,,,P027,fencog,1,Post,2022_Mar_07_1206,Go No-Go Task,2021.1.4,120.5193903
,"Rule: When you see a yellow image, do not press 'spacebar'.",Images/Happy/AM13HAS.jpg,Happy,Blue,Images/Blue.jpg,space,ParentConditions/YellowYellowBlue_v1.xlsx,YellowYellowBlue,Conditions/Version_1/YellowFearStop.xlsx,no,PASS,0.443146769,,,,,,,,,0,0,0,1,0,0,0,0,0,15,15,15,,,,,,,,,,,,,,,,,,,,,,,,,,,,,,,,,,,,,,,,,,,,,,,,,,,,,,,,,,,,,,,,,,,,,,,,,,,,,,,1.89,295.6035782,None,space,1,0.2878346,297.5948993,None,297.5948993,None,297.5948993,None,,,,,,,,,,,P027,fencog,1,Post,2022_Mar_07_1206,Go No-Go Task,2021.1.4,120.5193903
,"Rule: When you see a yellow image, do not press 'spacebar'.",Images/Fearful/AF09AFS.jpg,Fear,Yellow,Images/Yellow.jpg,None,ParentConditions/YellowYellowBlue_v1.xlsx,YellowYellowBlue,Conditions/Version_1/YellowFearStop.xlsx,yes,PASS,0.44980257,,,,,,,,,0,0,0,1,0,0,0,0,0,16,16,16,,,,,,,,,,,,,,,,,,,,,,,,,,,,,,,,,,,,,,,,,,,,,,,,,,,,,,,,,,,,,,,,,,,,,,,,,,,,,,,1.87,297.9954339,None,None,1,,299.9694635,None,299.9694635,None,299.9694635,None,,,,,,,,,,,P027,fencog,1,Post,2022_Mar_07_1206,Go No-Go Task,2021.1.4,120.5193903
,"Rule: When you see a yellow image, do not press 'spacebar'.",Images/Fearful/BF05_FO.jpg,Fear,Yellow,Images/Yellow.jpg,None,ParentConditions/YellowYellowBlue_v1.xlsx,YellowYellowBlue,Conditions/Version_1/YellowFearStop.xlsx,yes,PASS,0.908002058,,,,,,,,,0,0,0,1,0,0,0,0,0,17,17,17,,,,,,,,,,,,,,,,,,,,,,,,,,,,,,,,,,,,,,,,,,,,,,,,,,,,,,,,,,,,,,,,,,,,,,,,,,,,,,,1.71,300.3710229,None,space,0,0.2898466,302.1850049,None,302.1850049,None,302.1850049,None,,,,,,,,,,,P027,fencog,1,Post,2022_Mar_07_1206,Go No-Go Task,2021.1.4,120.5193903
,"Rule: When you see a yellow image, do not press 'spacebar'.",Images/Happy/AM24HAS.jpg,Happy,Blue,Images/Blue.jpg,space,ParentConditions/YellowYellowBlue_v1.xlsx,YellowYellowBlue,Conditions/Version_1/YellowFearStop.xlsx,no,PASS,0.922071682,,,,,,,,,0,0,0,1,0,0,0,0,0,18,18,18,,,,,,,,,,,,,,,,,,,,,,,,,,,,,,,,,,,,,,,,,,,,,,,,,,,,,,,,,,,,,,,,,,,,,,,,,,,,,,,1.21,302.5894981,None,space,1,0.2695016,303.9097399,None,303.9097399,None,303.9097399,None,,,,,,,,,,,P027,fencog,1,Post,2022_Mar_07_1206,Go No-Go Task,2021.1.4,120.5193903
,"Rule: When you see a yellow image, do not press 'spacebar'.",Images/Fearful/AF11AFS.jpg,Fear,Yellow,Images/Yellow.jpg,None,ParentConditions/YellowYellowBlue_v1.xlsx,YellowYellowBlue,Conditions/Version_1/YellowFearStop.xlsx,yes,PASS,0.947335264,,,,,,,,,0,0,0,1,0,0,0,0,0,19,19,19,,,,,,,,,,,,,,,,,,,,,,,,,,,,,,,,,,,,,,,,,,,,,,,,,,,,,,,,,,,,,,,,,,,,,,,,,,,,,,,1.76,304.3071687,None,None,1,,306.1673178,None,306.1673178,None,306.1673178,None,,,,,,,,,,,P027,fencog,1,Post,2022_Mar_07_1206,Go No-Go Task,2021.1.4,120.5193903
,"Rule: When you see a yellow image, do not press 'spacebar'.",Images/Happy/AF01_HE.jpg,Happy,Blue,Images/Blue.jpg,space,ParentConditions/YellowYellowBlue_v1.xlsx,YellowYellowBlue,Conditions/Version_1/YellowFearStop.xlsx,no,PASS,0.97589007,,,,,,,,,0,0,0,1,0,0,0,0,0,20,20,20,,,,,,,,,,,,,,,,,,,,,,,,,,,,,,,,,,,,,,,,,,,,,,,,,,,,,,,,,,,,,,,,,,,,,,,,,,,,,,,1.75,306.5660963,None,space,1,0.2901747,308.4167643,None,308.4167643,None,308.4167643,None,,,,,,,,,,,P027,fencog,1,Post,2022_Mar_07_1206,Go No-Go Task,2021.1.4,120.5193903
,"Rule: When you see a yellow image, do not press 'spacebar'.",Images/Happy/AM10_HO.jpg,Happy,Blue,Images/Blue.jpg,space,ParentConditions/YellowYellowBlue_v1.xlsx,YellowYellowBlue,Conditions/Version_1/YellowFearStop.xlsx,no,PASS,0.063235566,,,,,,,,,0,0,0,1,0,0,0,0,0,21,21,21,,,,,,,,,,,,,,,,,,,,,,,,,,,,,,,,,,,,,,,,,,,,,,,,,,,,,,,,,,,,,,,,,,,,,,,,,,,,,,,2,308.8213842,None,space,1,0.3192082,310.9243338,None,310.9243338,None,310.9243338,None,,,,,,,,,,,P027,fencog,1,Post,2022_Mar_07_1206,Go No-Go Task,2021.1.4,120.5193903
,"Rule: When you see a yellow image, do not press 'spacebar'.",Images/Happy/AF09HAS.jpg,Happy,Blue,Images/Blue.jpg,space,ParentConditions/YellowYellowBlue_v1.xlsx,YellowYellowBlue,Conditions/Version_1/YellowFearStop.xlsx,no,PASS,0.69621759,,,,,,,,,0,0,0,1,0,0,0,0,0,22,22,22,,,,,,,,,,,,,,,,,,,,,,,,,,,,,,,,,,,,,,,,,,,,,,,,,,,,,,,,,,,,,,,,,,,,,,,,,,,,,,,1.32,311.33263,None,space,1,0.3013347,312.7654639,None,312.7654639,None,312.7654639,None,,,,,,,,,,,P027,fencog,1,Post,2022_Mar_07_1206,Go No-Go Task,2021.1.4,120.5193903
,"Rule: When you see a yellow image, do not press 'spacebar'.",Images/Happy/BM02_HO.jpg,Happy,Blue,Images/Blue.jpg,space,ParentConditions/YellowYellowBlue_v1.xlsx,YellowYellowBlue,Conditions/Version_1/YellowFearStop.xlsx,no,PASS,0.396113477,,,,,,,,,0,0,0,1,0,0,0,0,0,23,23,23,,,,,,,,,,,,,,,,,,,,,,,,,,,,,,,,,,,,,,,,,,,,,,,,,,,,,,,,,,,,,,,,,,,,,,,,,,,,,,,1.62,313.1643835,None,space,1,0.3056381,314.8898353,None,314.8898353,None,314.8898353,None,,,,,,,,,,,P027,fencog,1,Post,2022_Mar_07_1206,Go No-Go Task,2021.1.4,120.5193903
,"Rule: When you see a yellow image, do not press 'spacebar'.",Images/Happy/AM09_HE.jpg,Happy,Blue,Images/Blue.jpg,space,ParentConditions/YellowYellowBlue_v1.xlsx,YellowYellowBlue,Conditions/Version_1/YellowFearStop.xlsx,no,PASS,0.077579477,,,,,,,,,0,0,0,1,0,0,0,0,0,24,24,24,,,,,,,,,,,,,,,,,,,,,,,,,,,,,,,,,,,,,,,,,,,,,,,,,,,,,,,,,,,,,,,,,,,,,,,,,,,,,,,1.24,315.2908607,None,space,1,0.3079449,316.6310112,None,316.6310112,None,316.6310112,None,,,,,,,,,,,P027,fencog,1,Post,2022_Mar_07_1206,Go No-Go Task,2021.1.4,120.5193903
,"Rule: When you see a yellow image, do not press 'spacebar'.",Images/Happy/AF10_HE.jpg,Happy,Blue,Images/Blue.jpg,space,ParentConditions/YellowYellowBlue_v1.xlsx,YellowYellowBlue,Conditions/Version_1/YellowFearStop.xlsx,no,PASS,0.031738248,,,,,,,,,0,0,0,1,0,0,0,0,0,25,25,25,,,,,,,,,,,,,,,,,,,,,,,,,,,,,,,,,,,,,,,,,,,,,,,,,,,,,,,,,,,,,,,,,,,,,,,,,,,,,,,1.95,317.0345887,None,space,1,0.3464038,319.0885434,None,319.0885434,None,319.0885434,None,,,,,,,,,,,P027,fencog,1,Post,2022_Mar_07_1206,Go No-Go Task,2021.1.4,120.5193903
,"Rule: When you see a yellow image, do not press 'spacebar'.",Images/Happy/BM01_HO.jpg,Happy,Blue,Images/Blue.jpg,space,ParentConditions/YellowYellowBlue_v1.xlsx,YellowYellowBlue,Conditions/Version_1/YellowFearStop.xlsx,no,PASS,0.523683635,,,,,,,,,0,0,0,1,0,0,0,0,0,26,26,26,,,,,,,,,,,,,,,,,,,,,,,,,,,,,,,,,,,,,,,,,,,,,,,,,,,,,,,,,,,,,,,,,,,,,,,,,,,,,,,1.72,319.4954735,None,space,1,0.3612948,321.3296487,None,321.3296487,None,321.3296487,None,,,,,,,,,,,P027,fencog,1,Post,2022_Mar_07_1206,Go No-Go Task,2021.1.4,120.5193903
,"Rule: When you see a yellow image, do not press 'spacebar'.",Images/Fearful/AF07_FO.jpg,Fear,Yellow,Images/Yellow.jpg,None,ParentConditions/YellowYellowBlue_v1.xlsx,YellowYellowBlue,Conditions/Version_1/YellowFearStop.xlsx,yes,PASS,0.054604097,,,,,,,,,0,0,0,1,0,0,0,0,0,27,27,27,,,,,,,,,,,,,,,,,,,,,,,,,,,,,,,,,,,,,,,,,,,,,,,,,,,,,,,,,,,,,,,,,,,,,,,,,,,,,,,1.61,321.728482,None,None,1,,323.4539367,None,323.4539367,None,323.4539367,None,,,,,,,,,,,P027,fencog,1,Post,2022_Mar_07_1206,Go No-Go Task,2021.1.4,120.5193903
,"Rule: When you see a yellow image, do not press 'spacebar'.",Images/Happy/BF18_HO.jpg,Happy,Blue,Images/Blue.jpg,space,ParentConditions/YellowYellowBlue_v1.xlsx,YellowYellowBlue,Conditions/Version_1/YellowFearStop.xlsx,no,PASS,0.725547291,,,,,,,,,0,0,0,1,0,0,0,0,0,28,28,28,,,,,,,,,,,,,,,,,,,,,,,,,,,,,,,,,,,,,,,,,,,,,,,,,,,,,,,,,,,,,,,,,,,,,,,,,,,,,,,1.73,323.8545518,None,space,1,0.3723497,325.6864689,None,325.6864689,None,325.6864689,None,,,,,,,,,,,P027,fencog,1,Post,2022_Mar_07_1206,Go No-Go Task,2021.1.4,120.5193903
,"Rule: When you see a yellow image, do not press 'spacebar'.",Images/Happy/AM03HAS.jpg,Happy,Blue,Images/Blue.jpg,space,ParentConditions/YellowYellowBlue_v1.xlsx,YellowYellowBlue,Conditions/Version_1/YellowFearStop.xlsx,no,PASS,0.253179684,,,,,,,,,0,0,0,1,0,0,0,0,0,29,29,29,,,,,,,,,,,,,,,,,,,,,,,,,,,,,,,,,,,,,,,,,,,,,,,,,,,,,,,,,,,,,,,,,,,,,,,,,,,,,,,1.78,326.0880831,None,space,1,0.3220702,327.9689457,None,327.9689457,None,327.9689457,None,,,,,,,,,,,P027,fencog,1,Post,2022_Mar_07_1206,Go No-Go Task,2021.1.4,120.5193903
,"Rule: When you see a yellow image, do not press 'spacebar'.",Images/Happy/BF10_HO.jpg,Happy,Blue,Images/Blue.jpg,space,ParentConditions/YellowYellowBlue_v1.xlsx,YellowYellowBlue,Conditions/Version_1/YellowFearStop.xlsx,no,PASS,0.497783974,,,,,,,,,0,0,0,1,0,0,0,0,0,30,30,30,,,,,,,,,,,,,,,,,,,,,,,,,,,,,,,,,,,,,,,,,,,,,,,,,,,,,,,,,,,,,,,,,,,,,,,,,,,,,,,1.92,328.3700082,None,space,1,0.2809273,330.3936668,None,330.3936668,None,330.3936668,None,,,,,,,,,,,P027,fencog,1,Post,2022_Mar_07_1206,Go No-Go Task,2021.1.4,120.5193903
,"Rule: When you see a yellow image, do not press 'spacebar'.",Images/Happy/BF07_HO.jpg,Happy,Blue,Images/Blue.jpg,space,ParentConditions/YellowYellowBlue_v1.xlsx,YellowYellowBlue,Conditions/Version_1/YellowFearStop.xlsx,no,PASS,0.823093167,,,,,,,,,0,0,0,1,0,0,0,0,0,31,31,31,,,,,,,,,,,,,,,,,,,,,,,,,,,,,,,,,,,,,,,,,,,,,,,,,,,,,,,,,,,,,,,,,,,,,,,,,,,,,,,1.44,330.794001,None,space,1,0.3005551,332.334687,None,332.334687,None,332.334687,None,,,,,,,,,,,P027,fencog,1,Post,2022_Mar_07_1206,Go No-Go Task,2021.1.4,120.5193903
,"Rule: When you see a yellow image, do not press 'spacebar'.",Images/Fearful/BF07_FO.jpg,Fear,Yellow,Images/Yellow.jpg,None,ParentConditions/YellowYellowBlue_v1.xlsx,YellowYellowBlue,Conditions/Version_1/YellowFearStop.xlsx,yes,PASS,0.211940988,,,,,,,,,0,0,0,1,0,0,0,0,0,32,32,32,,,,,,,,,,,,,,,,,,,,,,,,,,,,,,,,,,,,,,,,,,,,,,,,,,,,,,,,,,,,,,,,,,,,,,,,,,,,,,,1.96,332.7347696,None,None,1,,334.8089145,None,334.8089145,None,334.8089145,None,,,,,,,,,,,P027,fencog,1,Post,2022_Mar_07_1206,Go No-Go Task,2021.1.4,120.5193903
,"Rule: When you see a yellow image, do not press 'spacebar'.",Images/Happy/WF04_HC.jpg,Happy,Blue,Images/Blue.jpg,space,ParentConditions/YellowYellowBlue_v1.xlsx,YellowYellowBlue,Conditions/Version_1/YellowFearStop.xlsx,no,PASS,0.262296129,,,,,,,,,0,0,0,1,0,0,0,0,0,33,33,33,,,,,,,,,,,,,,,,,,,,,,,,,,,,,,,,,,,,,,,,,,,,,,,,,,,,,,,,,,,,,,,,,,,,,,,,,,,,,,,1.57,335.2079043,None,space,1,0.2873822,336.8832969,None,336.8832969,None,336.8832969,None,,,,,,,,,,,P027,fencog,1,Post,2022_Mar_07_1206,Go No-Go Task,2021.1.4,120.5193903
,"Rule: When you see a yellow image, do not press 'spacebar'.",Images/Happy/AM23HAS.jpg,Happy,Blue,Images/Blue.jpg,space,ParentConditions/YellowYellowBlue_v1.xlsx,YellowYellowBlue,Conditions/Version_1/YellowFearStop.xlsx,no,PASS,0.65530777,,,,,,,,,0,0,0,1,0,0,0,0,0,34,34,34,,,,,,,,,,,,,,,,,,,,,,,,,,,,,,,,,,,,,,,,,,,,,,,,,,,,,,,,,,,,,,,,,,,,,,,,,,,,,,,1.27,337.2920529,None,space,1,0.2887891,338.6661555,None,338.6661555,None,338.6661555,None,,,,,,,,,,,P027,fencog,1,Post,2022_Mar_07_1206,Go No-Go Task,2021.1.4,120.5193903
,"Rule: When you see a yellow image, do not press 'spacebar'.",Images/Happy/AM09HAS.jpg,Happy,Blue,Images/Blue.jpg,space,ParentConditions/YellowYellowBlue_v1.xlsx,YellowYellowBlue,Conditions/Version_1/YellowFearStop.xlsx,no,PASS,0.379245172,,,,,,,,,0,0,0,1,0,0,0,0,0,35,35,35,,,,,,,,,,,,,,,,,,,,,,,,,,,,,,,,,,,,,,,,,,,,,,,,,,,,,,,,,,,,,,,,,,,,,,,,,,,,,,,1.6,339.0663509,None,space,1,0.2924863,340.7822922,None,340.7822922,None,340.7822922,None,,,,,,,,,,,P027,fencog,1,Post,2022_Mar_07_1206,Go No-Go Task,2021.1.4,120.5193903
,"Rule: When you see a yellow image, do not press 'spacebar'.",Images/Happy/AM10HAS.jpg,Happy,Blue,Images/Blue.jpg,space,ParentConditions/YellowYellowBlue_v1.xlsx,YellowYellowBlue,Conditions/Version_1/YellowFearStop.xlsx,no,PASS,0.97815503,,,,,,,,,0,0,0,1,0,0,0,0,0,36,36,36,,,,,,,,,,,,,,,,,,,,,,,,,,,,,,,,,,,,,,,,,,,,,,,,,,,,,,,,,,,,,,,,,,,,,,,,,,,,,,,1.22,341.1866003,None,space,1,0.2955812,342.5233028,None,342.5233028,None,342.5233028,None,,,,,,,,,,,P027,fencog,1,Post,2022_Mar_07_1206,Go No-Go Task,2021.1.4,120.5193903
,"Rule: When you see a yellow image, do not press 'spacebar'.",Images/Happy/AF07HAS.jpg,Happy,Blue,Images/Blue.jpg,space,ParentConditions/YellowYellowBlue_v1.xlsx,YellowYellowBlue,Conditions/Version_1/YellowFearStop.xlsx,no,PASS,0.982771062,,,,,,,,,0,0,0,1,0,0,0,0,0,37,37,37,,,,,,,,,,,,,,,,,,,,,,,,,,,,,,,,,,,,,,,,,,,,,,,,,,,,,,,,,,,,,,,,,,,,,,,,,,,,,,,1.39,342.9140008,None,space,1,0.3087928,344.4144275,None,344.4144275,None,344.4144275,None,,,,,,,,,,,P027,fencog,1,Post,2022_Mar_07_1206,Go No-Go Task,2021.1.4,120.5193903
,"Rule: When you see a yellow image, do not press 'spacebar'.",Images/Happy/AM03_HO.jpg,Happy,Blue,Images/Blue.jpg,space,ParentConditions/YellowYellowBlue_v1.xlsx,YellowYellowBlue,Conditions/Version_1/YellowFearStop.xlsx,no,PASS,0.696088357,,,,,,,,,0,0,0,1,0,0,0,0,0,38,38,38,,,,,,,,,,,,,,,,,,,,,,,,,,,,,,,,,,,,,,,,,,,,,,,,,,,,,,,,,,,,,,,,,,,,,,,,,,,,,,,1.93,344.8120755,None,space,1,0.3078136,346.8470921,None,346.8470921,None,346.8470921,None,,,,,,,,,,,P027,fencog,1,Post,2022_Mar_07_1206,Go No-Go Task,2021.1.4,120.5193903
,"Rule: When you see a yellow image, do not press 'spacebar'.",Images/Happy/AM05HAS.jpg,Happy,Blue,Images/Blue.jpg,space,ParentConditions/YellowYellowBlue_v1.xlsx,YellowYellowBlue,Conditions/Version_1/YellowFearStop.xlsx,no,PASS,0.8897548,,,,,,,,,0,0,0,1,0,0,0,0,0,39,39,39,,,,,,,,,,,,,,,,,,,,,,,,,,,,,,,,,,,,,,,,,,,,,,,,,,,,,,,,,,,,,,,,,,,,,,,,,,,,,,,1.69,347.2477355,None,space,1,0.3090036,349.0380748,None,349.0380748,None,349.0380748,None,,,,,,,,,,,P027,fencog,1,Post,2022_Mar_07_1206,Go No-Go Task,2021.1.4,120.5193903
,"Rule: When you see a yellow image, do not press 'spacebar'.",Images/Happy/AF02HAS.jpg,Happy,Blue,Images/Blue.jpg,space,ParentConditions/YellowYellowBlue_v1.xlsx,YellowYellowBlue,Conditions/Version_1/YellowFearStop.xlsx,no,PASS,0.253765998,,,,,,,,,0,0,0,1,0,0,0,0,0,40,40,40,,,,,,,,,,,,,,,,,,,,,,,,,,,,,,,,,,,,,,,,,,,,,,,,,,,,,,,,,,,,,,,,,,,,,,,,,,,,,,,1.66,349.4370657,None,space,1,0.3100532,351.2208125,None,351.2208125,None,351.2208125,None,,,,,,,,,,,P027,fencog,1,Post,2022_Mar_07_1206,Go No-Go Task,2021.1.4,120.5193903
,"Rule: When you see a yellow image, do not press 'spacebar'.",Images/Happy/BM08_HO.jpg,Happy,Blue,Images/Blue.jpg,space,ParentConditions/YellowYellowBlue_v1.xlsx,YellowYellowBlue,Conditions/Version_1/YellowFearStop.xlsx,no,PASS,0.999289281,,,,,,,,,0,0,0,1,0,0,0,0,0,41,41,41,,,,,,,,,,,,,,,,,,,,,,,,,,,,,,,,,,,,,,,,,,,,,,,,,,,,,,,,,,,,,,,,,,,,,,,,,,,,,,,1.37,351.6122767,None,space,1,0.2763573,353.08692,None,353.08692,None,353.08692,None,,,,,,,,,,,P027,fencog,1,Post,2022_Mar_07_1206,Go No-Go Task,2021.1.4,120.5193903
,"Rule: When you see a yellow image, do not press 'spacebar'.",Images/Happy/AM22HAS.jpg,Happy,Blue,Images/Blue.jpg,space,ParentConditions/YellowYellowBlue_v1.xlsx,YellowYellowBlue,Conditions/Version_1/YellowFearStop.xlsx,no,PASS,0.324368893,,,,,,,,,0,0,0,1,0,0,0,0,0,42,42,42,,,,,,,,,,,,,,,,,,,,,,,,,,,,,,,,,,,,,,,,,,,,,,,,,,,,,,,,,,,,,,,,,,,,,,,,,,,,,,,1.3,353.4860537,None,space,1,0.2921739,354.894571,None,354.894571,None,354.894571,None,,,,,,,,,,,P027,fencog,1,Post,2022_Mar_07_1206,Go No-Go Task,2021.1.4,120.5193903
,"Rule: When you see a yellow image, do not press 'spacebar'.",Images/Happy/AM30HAS.jpg,Happy,Blue,Images/Blue.jpg,space,ParentConditions/YellowYellowBlue_v1.xlsx,YellowYellowBlue,Conditions/Version_1/YellowFearStop.xlsx,no,PASS,0.632974901,,,,,,,,,0,0,0,1,0,0,0,0,0,43,43,43,,,,,,,,,,,,,,,,,,,,,,,,,,,,,,,,,,,,,,,,,,,,,,,,,,,,,,,,,,,,,,,,,,,,,,,,,,,,,,,1.94,355.2936102,None,space,1,0.3472327,357.3356869,None,357.3356869,None,357.3356869,None,,,,,,,,,,,P027,fencog,1,Post,2022_Mar_07_1206,Go No-Go Task,2021.1.4,120.5193903
,"Rule: When you see a yellow image, do not press 'spacebar'.",Images/Fearful/BF09_FC.jpg,Fear,Yellow,Images/Yellow.jpg,None,ParentConditions/YellowYellowBlue_v1.xlsx,YellowYellowBlue,Conditions/Version_1/YellowFearStop.xlsx,yes,PASS,0.849066623,,,,,,,,,0,0,0,1,0,0,0,0,0,44,44,44,,,,,,,,,,,,,,,,,,,,,,,,,,,,,,,,,,,,,,,,,,,,,,,,,,,,,,,,,,,,,,,,,,,,,,,,,,,,,,,1.91,357.7376072,None,None,1,,359.7515683,None,359.7515683,None,359.7515683,None,,,,,,,,,,,P027,fencog,1,Post,2022_Mar_07_1206,Go No-Go Task,2021.1.4,120.5193903
,"Rule: When you see a yellow image, do not press 'spacebar'.",Images/Happy/WM12_HE.jpg,Happy,Blue,Images/Blue.jpg,space,ParentConditions/YellowYellowBlue_v1.xlsx,YellowYellowBlue,Conditions/Version_1/YellowFearStop.xlsx,no,PASS,0.119290995,,,,,,,,,0,0,0,1,0,0,0,0,0,45,45,45,,,,,,,,,,,,,,,,,,,,,,,,,,,,,,,,,,,,,,,,,,,,,,,,,,,,,,,,,,,,,,,,,,,,,,,,,,,,,,,1.77,360.1503481,None,space,1,0.3047022,362.0342671,None,362.0342671,None,362.0342671,None,,,,,,,,,,,P027,fencog,1,Post,2022_Mar_07_1206,Go No-Go Task,2021.1.4,120.5193903
,"Rule: When you see a yellow image, do not press 'spacebar'.",Images/Happy/HF10_HE.jpg,Happy,Blue,Images/Blue.jpg,space,ParentConditions/YellowYellowBlue_v1.xlsx,YellowYellowBlue,Conditions/Version_1/YellowFearStop.xlsx,no,PASS,0.835696517,,,,,,,,,0,0,0,1,0,0,0,0,0,46,46,46,,,,,,,,,,,,,,,,,,,,,,,,,,,,,,,,,,,,,,,,,,,,,,,,,,,,,,,,,,,,,,,,,,,,,,,,,,,,,,,1.35,362.4331874,None,space,1,0.2870349,363.8837242,None,363.8837242,None,363.8837242,None,,,,,,,,,,,P027,fencog,1,Post,2022_Mar_07_1206,Go No-Go Task,2021.1.4,120.5193903
,"Rule: When you see a yellow image, do not press 'spacebar'.",Images/Happy/HM09_HO.jpg,Happy,Blue,Images/Blue.jpg,space,ParentConditions/YellowYellowBlue_v1.xlsx,YellowYellowBlue,Conditions/Version_1/YellowFearStop.xlsx,no,PASS,0.806158044,,,,,,,,,0,0,0,1,0,0,0,0,0,47,47,47,,,,,,,,,,,,,,,,,,,,,,,,,,,,,,,,,,,,,,,,,,,,,,,,,,,,,,,,,,,,,,,,,,,,,,,,,,,,,,,1.68,364.2829574,None,space,1,0.2806118,366.0663521,None,366.0663521,None,366.0663521,None,,,,,,,,,,,P027,fencog,1,Post,2022_Mar_07_1206,Go No-Go Task,2021.1.4,120.5193903
,"Rule: When you see a yellow image, do not press 'spacebar'.",Images/Fearful/AM03_FC.jpg,Fear,Yellow,Images/Yellow.jpg,None,ParentConditions/YellowYellowBlue_v1.xlsx,YellowYellowBlue,Conditions/Version_1/YellowFearStop.xlsx,yes,PASS,0.148465679,,,,,,,,,0,0,0,1,0,0,0,0,0,48,48,48,,,,,,,,,,,,,,,,,,,,,,,,,,,,,,,,,,,,,,,,,,,,,,,,,,,,,,,,,,,,,,,,,,,,,,,,,,,,,,,1.7,366.4687671,None,space,0,0.3367438,368.2740529,None,368.2740529,None,368.2740529,None,,,,,,,,,,,P027,fencog,1,Post,2022_Mar_07_1206,Go No-Go Task,2021.1.4,120.5193903
,"Rule: When you see a yellow image, do not press 'spacebar'.",Images/Happy/HF04_HE.jpg,Happy,Blue,Images/Blue.jpg,space,ParentConditions/YellowYellowBlue_v1.xlsx,YellowYellowBlue,Conditions/Version_1/YellowFearStop.xlsx,no,PASS,0.493401324,,,,,,,,,0,0,0,1,0,0,0,0,0,49,49,49,,,,,,,,,,,,,,,,,,,,,,,,,,,,,,,,,,,,,,,,,,,,,,,,,,,,,,,,,,,,,,,,,,,,,,,,,,,,,,,1.84,368.67319,None,space,1,0.2915827,370.6152448,None,370.6152448,None,370.6152448,None,,,,,,,,,,,P027,fencog,1,Post,2022_Mar_07_1206,Go No-Go Task,2021.1.4,120.5193903
,"Rule: When you see a yellow image, do not press 'spacebar'.",Images/Happy/AM17HAS.jpg,Happy,Blue,Images/Blue.jpg,space,ParentConditions/YellowYellowBlue_v1.xlsx,YellowYellowBlue,Conditions/Version_1/YellowFearStop.xlsx,no,PASS,0.470539973,,,,,,,,,0,0,0,1,0,0,0,0,0,50,50,50,,,,,,,,,,,,,,,,,,,,,,,,,,,,,,,,,,,,,,,,,,,,,,,,,,,,,,,,,,,,,,,,,,,,,,,,,,,,,,,1.65,371.0223309,None,space,1,0.3659135,372.7808906,None,372.7808906,None,372.7808906,None,,,,,,,,,,,P027,fencog,1,Post,2022_Mar_07_1206,Go No-Go Task,2021.1.4,120.5193903
,"Rule: When you see a yellow image, do not press 'spacebar'.",Images/Fearful/BM01_FO.jpg,Fear,Yellow,Images/Yellow.jpg,None,ParentConditions/YellowYellowBlue_v1.xlsx,YellowYellowBlue,Conditions/Version_1/YellowFearStop.xlsx,yes,PASS,0.313471747,,,,,,,,,0,0,0,1,0,0,0,0,0,51,51,51,,,,,,,,,,,,,,,,,,,,,,,,,,,,,,,,,,,,,,,,,,,,,,,,,,,,,,,,,,,,,,,,,,,,,,,,,,,,,,,1.81,373.1801378,None,None,1,,375.097018,None,375.097018,None,375.097018,None,,,,,,,,,,,P027,fencog,1,Post,2022_Mar_07_1206,Go No-Go Task,2021.1.4,120.5193903
,"Rule: When you see a yellow image, do not press 'spacebar'.",Images/Happy/HF09_HE.jpg,Happy,Blue,Images/Blue.jpg,space,ParentConditions/YellowYellowBlue_v1.xlsx,YellowYellowBlue,Conditions/Version_1/YellowFearStop.xlsx,no,PASS,0.012739972,,,,,,,,,0,0,0,1,0,0,0,0,0,52,52,52,,,,,,,,,,,,,,,,,,,,,,,,,,,,,,,,,,,,,,,,,,,,,,,,,,,,,,,,,,,,,,,,,,,,,,,,,,,,,,,1.41,375.4973879,None,space,1,0.3106393,377.0130967,None,377.0130967,None,377.0130967,None,,,,,,,,,,,P027,fencog,1,Post,2022_Mar_07_1206,Go No-Go Task,2021.1.4,120.5193903
,"Rule: When you see a yellow image, do not press 'spacebar'.",Images/Happy/WF11_HE.jpg,Happy,Blue,Images/Blue.jpg,space,ParentConditions/YellowYellowBlue_v1.xlsx,YellowYellowBlue,Conditions/Version_1/YellowFearStop.xlsx,no,PASS,0.512809715,,,,,,,,,0,0,0,1,0,0,0,0,0,53,53,53,,,,,,,,,,,,,,,,,,,,,,,,,,,,,,,,,,,,,,,,,,,,,,,,,,,,,,,,,,,,,,,,,,,,,,,,,,,,,,,1.63,377.4221325,None,space,1,0.3045726,379.1542565,None,379.1542565,None,379.1542565,None,,,,,,,,,,,P027,fencog,1,Post,2022_Mar_07_1206,Go No-Go Task,2021.1.4,120.5193903
,"Rule: When you see a yellow image, do not press 'spacebar'.",Images/Fearful/AM04AFS.jpg,Fear,Yellow,Images/Yellow.jpg,None,ParentConditions/YellowYellowBlue_v1.xlsx,YellowYellowBlue,Conditions/Version_1/YellowFearStop.xlsx,yes,PASS,0.480810801,,,,,,,,,0,0,0,1,0,0,0,0,0,54,54,54,,,,,,,,,,,,,,,,,,,,,,,,,,,,,,,,,,,,,,,,,,,,,,,,,,,,,,,,,,,,,,,,,,,,,,,,,,,,,,,1.29,379.5544193,None,None,1,,380.9453583,None,380.9453583,None,380.9453583,None,,,,,,,,,,,P027,fencog,1,Post,2022_Mar_07_1206,Go No-Go Task,2021.1.4,120.5193903
,"Rule: When you see a yellow image, do not press 'spacebar'.",Images/Happy/AF19HAS.jpg,Happy,Blue,Images/Blue.jpg,space,ParentConditions/YellowYellowBlue_v1.xlsx,YellowYellowBlue,Conditions/Version_1/YellowFearStop.xlsx,no,PASS,0.325214701,,,,,,,,,0,0,0,1,0,0,0,0,0,55,55,55,,,,,,,,,,,,,,,,,,,,,,,,,,,,,,,,,,,,,,,,,,,,,,,,,,,,,,,,,,,,,,,,,,,,,,,,,,,,,,,1.5,381.3445269,None,space,1,0.2981281,382.9447963,None,382.9447963,None,382.9447963,None,,,,,,,,,,,P027,fencog,1,Post,2022_Mar_07_1206,Go No-Go Task,2021.1.4,120.5193903
,"Rule: When you see a yellow image, do not press 'spacebar'.",Images/Happy/HM06_HO.jpg,Happy,Blue,Images/Blue.jpg,space,ParentConditions/YellowYellowBlue_v1.xlsx,YellowYellowBlue,Conditions/Version_1/YellowFearStop.xlsx,no,PASS,0.328233749,,,,,,,,,0,0,0,1,0,0,0,0,0,56,56,56,,,,,,,,,,,,,,,,,,,,,,,,,,,,,,,,,,,,,,,,,,,,,,,,,,,,,,,,,,,,,,,,,,,,,,,,,,,,,,,1.26,383.3460878,None,space,1,0.3239862,384.7109088,None,384.7109088,None,384.7109088,None,,,,,,,,,,,P027,fencog,1,Post,2022_Mar_07_1206,Go No-Go Task,2021.1.4,120.5193903
,"Rule: When you see a yellow image, do not press 'spacebar'.",Images/Happy/HF05_HO.jpg,Happy,Blue,Images/Blue.jpg,space,ParentConditions/YellowYellowBlue_v1.xlsx,YellowYellowBlue,Conditions/Version_1/YellowFearStop.xlsx,no,PASS,0.583339171,,,,,,,,,0,0,0,1,0,0,0,0,0,57,57,57,,,,,,,,,,,,,,,,,,,,,,,,,,,,,,,,,,,,,,,,,,,,,,,,,,,,,,,,,,,,,,,,,,,,,,,,,,,,,,,1.8,385.1098794,None,space,1,0.3042943,387.0185739,None,387.0185739,None,387.0185739,None,,,,,,,,,,,P027,fencog,1,Post,2022_Mar_07_1206,Go No-Go Task,2021.1.4,120.5193903
,"Rule: When you see a yellow image, do not press 'spacebar'.",Images/Fearful/AF01_FO.jpg,Fear,Yellow,Images/Yellow.jpg,None,ParentConditions/YellowYellowBlue_v1.xlsx,YellowYellowBlue,Conditions/Version_1/YellowFearStop.xlsx,yes,PASS,0.303490073,,,,,,,,,0,0,0,1,0,0,0,0,0,58,58,58,,,,,,,,,,,,,,,,,,,,,,,,,,,,,,,,,,,,,,,,,,,,,,,,,,,,,,,,,,,,,,,,,,,,,,,,,,,,,,,1.33,387.4176931,None,None,1,,388.8597229,None,388.8597229,None,388.8597229,None,,,,,,,,,,,P027,fencog,1,Post,2022_Mar_07_1206,Go No-Go Task,2021.1.4,120.5193903
,"Rule: When you see a yellow image, do not press 'spacebar'.",Images/Happy/AF21HAS.jpg,Happy,Blue,Images/Blue.jpg,space,ParentConditions/YellowYellowBlue_v1.xlsx,YellowYellowBlue,Conditions/Version_1/YellowFearStop.xlsx,no,PASS,0.979970213,,,,,,,,,0,0,0,1,0,0,0,0,0,59,59,59,,,,,,,,,,,,,,,,,,,,,,,,,,,,,,,,,,,,,,,,,,,,,,,,,,,,,,,,,,,,,,,,,,,,,,,,,,,,,,,1.47,389.258541,None,space,1,0.2805493,390.8340599,None,390.8340599,None,390.8340599,None,,,,,,,,,,,P027,fencog,1,Post,2022_Mar_07_1206,Go No-Go Task,2021.1.4,120.5193903
,"Rule: When you see a yellow image, do not press 'spacebar'.",Images/Happy/AM06_HC.jpg,Happy,Blue,Images/Blue.jpg,space,ParentConditions/YellowYellowBlue_v1.xlsx,YellowYellowBlue,Conditions/Version_1/YellowFearStop.xlsx,no,PASS,0.298164274,,,,,,,,,0,0,0,1,0,0,0,0,0,60,60,60,,,,,,,,,,,,,,,,,,,,,,,,,,,,,,,,,,,,,,,,,,,,,,,,,,,,,,,,,,,,,,,,,,,,,,,,,,,,,,,1.28,391.2340934,None,None,0,,392.6252196,None,392.6252196,None,392.6252196,None,,,,,,,,,,,P027,fencog,1,Post,2022_Mar_07_1206,Go No-Go Task,2021.1.4,120.5193903
,"Rule: When you see a yellow image, do not press 'spacebar'.",Images/Fearful/AF02AFS.jpg,Fear,Yellow,Images/Yellow.jpg,None,ParentConditions/YellowYellowBlue_v1.xlsx,YellowYellowBlue,Conditions/Version_1/YellowFearStop.xlsx,yes,PASS,0.155825205,,,,,,,,,0,0,0,1,0,0,0,0,0,61,61,61,,,,,,,,,,,,,,,,,,,,,,,,,,,,,,,,,,,,,,,,,,,,,,,,,,,,,,,,,,,,,,,,,,,,,,,,,,,,,,,1.97,393.0242864,None,None,1,,395.099469,None,395.099469,None,395.099469,None,,,,,,,,,,,P027,fencog,1,Post,2022_Mar_07_1206,Go No-Go Task,2021.1.4,120.5193903
,"Rule: When you see a yellow image, do not press 'spacebar'.",Images/Happy/AF25HAS.jpg,Happy,Blue,Images/Blue.jpg,space,ParentConditions/YellowYellowBlue_v1.xlsx,YellowYellowBlue,Conditions/Version_1/YellowFearStop.xlsx,no,PASS,0.796365343,,,,,,,,,0,0,0,1,0,0,0,0,0,62,62,62,,,,,,,,,,,,,,,,,,,,,,,,,,,,,,,,,,,,,,,,,,,,,,,,,,,,,,,,,,,,,,,,,,,,,,,,,,,,,,,1.74,395.5006155,None,space,1,0.3744714,397.3405058,None,397.3405058,None,397.3405058,None,,,,,,,,,,,P027,fencog,1,Post,2022_Mar_07_1206,Go No-Go Task,2021.1.4,120.5193903
,"Rule: When you see a yellow image, do not press 'spacebar'.",Images/Happy/AM32HAS.jpg,Happy,Blue,Images/Blue.jpg,space,ParentConditions/YellowYellowBlue_v1.xlsx,YellowYellowBlue,Conditions/Version_1/YellowFearStop.xlsx,no,PASS,0.282355746,,,,,,,,,0,0,0,1,0,0,0,0,0,63,63,63,,,,,,,,,,,,,,,,,,,,,,,,,,,,,,,,,,,,,,,,,,,,,,,,,,,,,,,,,,,,,,,,,,,,,,,,,,,,,,,1.59,397.7431339,None,space,1,0.2991843,399.4399264,None,399.4399264,None,399.4399264,None,,,,,,,,,,,P027,fencog,1,Post,2022_Mar_07_1206,Go No-Go Task,2021.1.4,120.5193903
,"Rule: When you see a yellow image, do not press 'spacebar'.",Images/Fearful/AM02_FO.jpg,Fear,Yellow,Images/Yellow.jpg,None,ParentConditions/YellowYellowBlue_v1.xlsx,YellowYellowBlue,Conditions/Version_1/YellowFearStop.xlsx,yes,PASS,0.848162451,,,,,,,,,0,0,0,1,0,0,0,0,0,64,64,64,,,,,,,,,,,,,,,,,,,,,,,,,,,,,,,,,,,,,,,,,,,,,,,,,,,,,,,,,,,,,,,,,,,,,,,,,,,,,,,1.49,399.8389962,None,None,1,,401.4392986,None,401.4392986,None,401.4392986,None,,,,,,,,,,,P027,fencog,1,Post,2022_Mar_07_1206,Go No-Go Task,2021.1.4,120.5193903
,"Rule: When you see a yellow image, do not press 'spacebar'.",Images/Fearful/BM02_FC.jpg,Fear,Yellow,Images/Yellow.jpg,None,ParentConditions/YellowYellowBlue_v1.xlsx,YellowYellowBlue,Conditions/Version_1/YellowFearStop.xlsx,yes,PASS,0.703347445,,,,,,,,,0,0,0,1,0,0,0,0,0,65,65,65,,,,,,,,,,,,,,,,,,,,,,,,,,,,,,,,,,,,,,,,,,,,,,,,,,,,,,,,,,,,,,,,,,,,,,,,,,,,,,,1.55,401.8381899,None,None,1,,403.4971561,None,403.4971561,None,403.4971561,None,,,,,,,,,,,P027,fencog,1,Post,2022_Mar_07_1206,Go No-Go Task,2021.1.4,120.5193903
,"Rule: When you see a yellow image, do not press 'spacebar'.",Images/Happy/AM04_HE.jpg,Happy,Blue,Images/Blue.jpg,space,ParentConditions/YellowYellowBlue_v1.xlsx,YellowYellowBlue,Conditions/Version_1/YellowFearStop.xlsx,no,PASS,0.195445465,,,,,,,,,0,0,0,1,0,0,0,0,0,66,66,66,,,,,,,,,,,,,,,,,,,,,,,,,,,,,,,,,,,,,,,,,,,,,,,,,,,,,,,,,,,,,,,,,,,,,,,,,,,,,,,1.88,403.8952651,None,space,1,0.2992453,405.8796423,None,405.8796423,None,405.8796423,None,,,,,,,,,,,P027,fencog,1,Post,2022_Mar_07_1206,Go No-Go Task,2021.1.4,120.5193903
,"Rule: When you see a yellow image, do not press 'spacebar'.",Images/Fearful/AM05AFS.jpg,Fear,Yellow,Images/Yellow.jpg,None,ParentConditions/YellowYellowBlue_v1.xlsx,YellowYellowBlue,Conditions/Version_1/YellowFearStop.xlsx,yes,PASS,0.645933641,,,,,,,,,0,0,0,1,0,0,0,0,0,67,67,67,,,,,,,,,,,,,,,,,,,,,,,,,,,,,,,,,,,,,,,,,,,,,,,,,,,,,,,,,,,,,,,,,,,,,,,,,,,,,,,1.67,406.2803564,None,None,1,,408.0539964,None,408.0539964,None,408.0539964,None,,,,,,,,,,,P027,fencog,1,Post,2022_Mar_07_1206,Go No-Go Task,2021.1.4,120.5193903
,"Rule: When you see a yellow image, do not press 'spacebar'.",Images/Happy/AF28HAS.jpg,Happy,Blue,Images/Blue.jpg,space,ParentConditions/YellowYellowBlue_v1.xlsx,YellowYellowBlue,Conditions/Version_1/YellowFearStop.xlsx,no,PASS,0.168407758,,,,,,,,,0,0,0,1,0,0,0,0,0,68,68,68,,,,,,,,,,,,,,,,,,,,,,,,,,,,,,,,,,,,,,,,,,,,,,,,,,,,,,,,,,,,,,,,,,,,,,,,,,,,,,,1.79,408.4527204,None,space,1,0.3372881,410.3616354,None,410.3616354,None,410.3616354,None,,,,,,,,,,,P027,fencog,1,Post,2022_Mar_07_1206,Go No-Go Task,2021.1.4,120.5193903
,"Rule: When you see a yellow image, do not press 'spacebar'.",Images/Happy/AF07_HO.jpg,Happy,Blue,Images/Blue.jpg,space,ParentConditions/YellowYellowBlue_v1.xlsx,YellowYellowBlue,Conditions/Version_1/YellowFearStop.xlsx,no,PASS,0.892185425,,,,,,,,,0,0,0,1,0,0,0,0,0,69,69,69,,,,,,,,,,,,,,,,,,,,,,,,,,,,,,,,,,,,,,,,,,,,,,,,,,,,,,,,,,,,,,,,,,,,,,,,,,,,,,,1.54,410.7576275,None,None,0,,412.4027251,None,412.4027251,None,412.4027251,None,,,,,,,,,,,P027,fencog,1,Post,2022_Mar_07_1206,Go No-Go Task,2021.1.4,120.5193903
,"Rule: When you see a yellow image, do not press 'spacebar'.",Images/Happy/BF14_HO.jpg,Happy,Blue,Images/Blue.jpg,space,ParentConditions/YellowYellowBlue_v1.xlsx,YellowYellowBlue,Conditions/Version_1/YellowFearStop.xlsx,no,PASS,0.113400233,,,,,,,,,0,0,0,1,0,0,0,0,0,70,70,70,,,,,,,,,,,,,,,,,,,,,,,,,,,,,,,,,,,,,,,,,,,,,,,,,,,,,,,,,,,,,,,,,,,,,,,,,,,,,,,1.83,412.8046626,None,space,1,0.3638076,414.7353276,None,414.7353276,None,414.7353276,None,,,,,,,,,,,P027,fencog,1,Post,2022_Mar_07_1206,Go No-Go Task,2021.1.4,120.5193903
,"Rule: When you see a yellow image, do not press 'spacebar'.",Images/Fearful/AF07FS.jpg,Fear,Yellow,Images/Yellow.jpg,None,ParentConditions/YellowYellowBlue_v1.xlsx,YellowYellowBlue,Conditions/Version_1/YellowFearStop.xlsx,yes,PASS,0.017721147,,,,,,,,,0,0,0,1,0,0,0,0,0,71,71,71,,,,,,,,,,,,,,,,,,,,,,,,,,,,,,,,,,,,,,,,,,,,,,,,,,,,,,,,,,,,,,,,,,,,,,,,,,,,,,,1.85,415.1359003,None,None,1,,417.1013228,None,417.1013228,None,417.1013228,None,,,,,,,,,,,P027,fencog,1,Post,2022_Mar_07_1206,Go No-Go Task,2021.1.4,120.5193903
,"Rule: When you see a yellow image, do not press 'spacebar'.",Images/Happy/AF32HAS.jpg,Happy,Blue,Images/Blue.jpg,space,ParentConditions/YellowYellowBlue_v1.xlsx,YellowYellowBlue,Conditions/Version_1/YellowFearStop.xlsx,no,PASS,0.351428612,,,,,,,,,0,0,0,1,0,0,0,0,0,72,72,72,,,,,,,,,,,,,,,,,,,,,,,,,,,,,,,,,,,,,,,,,,,,,,,,,,,,,,,,,,,,,,,,,,,,,,,,,,,,,,,1.38,417.502757,None,None,0,,418.984123,None,418.984123,None,418.984123,None,,,,,,,,,,,P027,fencog,1,Post,2022_Mar_07_1206,Go No-Go Task,2021.1.4,120.5193903
,"Rule: When you see a yellow image, do not press 'spacebar'.",Images/Happy/AF11HAS.jpg,Happy,Blue,Images/Blue.jpg,space,ParentConditions/YellowYellowBlue_v1.xlsx,YellowYellowBlue,Conditions/Version_1/YellowFearStop.xlsx,no,PASS,0.543717435,,,,,,,,,0,0,0,1,0,0,0,0,0,73,73,73,,,,,,,,,,,,,,,,,,,,,,,,,,,,,,,,,,,,,,,,,,,,,,,,,,,,,,,,,,,,,,,,,,,,,,,,,,,,,,,1.25,419.3936287,None,space,1,0.3004906,420.7502969,None,420.7502969,None,420.7502969,None,,,,,,,,,,,P027,fencog,1,Post,2022_Mar_07_1206,Go No-Go Task,2021.1.4,120.5193903
,"Rule: When you see a yellow image, do not press 'spacebar'.",Images/Happy/AM19HAS.jpg,Happy,Blue,Images/Blue.jpg,space,ParentConditions/YellowYellowBlue_v1.xlsx,YellowYellowBlue,Conditions/Version_1/YellowFearStop.xlsx,no,PASS,0.404854658,,,,,,,,,0,0,0,1,0,0,0,0,0,74,74,74,,,,,,,,,,,,,,,,,,,,,,,,,,,,,,,,,,,,,,,,,,,,,,,,,,,,,,,,,,,,,,,,,,,,,,,,,,,,,,,1.82,421.1527557,None,space,1,0.3603959,423.0829266,None,423.0829266,None,423.0829266,None,,,,,,,,,,,P027,fencog,1,Post,2022_Mar_07_1206,Go No-Go Task,2021.1.4,120.5193903
,"Rule: When you see a yellow image, do not press 'spacebar'.",Images/Happy/AM01HAS.jpg,Happy,Blue,Images/Blue.jpg,space,ParentConditions/YellowYellowBlue_v1.xlsx,YellowYellowBlue,Conditions/Version_1/YellowFearStop.xlsx,no,PASS,0.668098745,,,,,,,,,0,0,0,1,0,0,0,0,0,75,75,75,,,,,,,,,,,,,,,,,,,,,,,,,,,,,,,,,,,,,,,,,,,,,,,,,,,,,,,,,,,,,,,,,,,,,,,,,,,,,,,1.98,423.4799037,None,space,1,0.2933459,425.5738897,None,425.5738897,None,425.5738897,None,,,,,,,,,,,P027,fencog,1,Post,2022_Mar_07_1206,Go No-Go Task,2021.1.4,120.5193903
,"Rule: When you see a yellow image, do not press 'spacebar'.",Images/Happy/WF05_HC.jpg,Happy,Blue,Images/Blue.jpg,space,ParentConditions/YellowYellowBlue_v1.xlsx,YellowYellowBlue,Conditions/Version_1/YellowFearStop.xlsx,no,PASS,0.334650317,,,,,,,,,0,0,0,1,0,0,0,0,0,76,76,76,,,,,,,,,,,,,,,,,,,,,,,,,,,,,,,,,,,,,,,,,,,,,,,,,,,,,,,,,,,,,,,,,,,,,,,,,,,,,,,1.9,425.970595,None,space,1,0.3021778,427.9814325,None,427.9814325,None,427.9814325,None,,,,,,,,,,,P027,fencog,1,Post,2022_Mar_07_1206,Go No-Go Task,2021.1.4,120.5193903
,"Rule: When you see a yellow image, do not press 'spacebar'.",Images/Happy/BM03_HO.jpg,Happy,Blue,Images/Blue.jpg,space,ParentConditions/YellowYellowBlue_v1.xlsx,YellowYellowBlue,Conditions/Version_1/YellowFearStop.xlsx,no,PASS,0.830918277,,,,,,,,,0,0,0,1,0,0,0,0,0,77,77,77,,,,,,,,,,,,,,,,,,,,,,,,,,,,,,,,,,,,,,,,,,,,,,,,,,,,,,,,,,,,,,,,,,,,,,,,,,,,,,,1.52,428.3840066,None,space,1,0.3168285,430.0058935,None,430.0058935,None,430.0058935,None,,,,,,,,,,,P027,fencog,1,Post,2022_Mar_07_1206,Go No-Go Task,2021.1.4,120.5193903
,"Rule: When you see a yellow image, do not press 'spacebar'.",Images/Happy/AM02_HE.jpg,Happy,Blue,Images/Blue.jpg,space,ParentConditions/YellowYellowBlue_v1.xlsx,YellowYellowBlue,Conditions/Version_1/YellowFearStop.xlsx,no,PASS,0.732833616,,,,,,,,,0,0,0,1,0,0,0,0,0,78,78,78,,,,,,,,,,,,,,,,,,,,,,,,,,,,,,,,,,,,,,,,,,,,,,,,,,,,,,,,,,,,,,,,,,,,,,,,,,,,,,,1.48,430.4156943,None,space,1,0.2939966,431.9970284,None,431.9970284,None,431.9970284,None,,,,,,,,,,,P027,fencog,1,Post,2022_Mar_07_1206,Go No-Go Task,2021.1.4,120.5193903
,"Rule: When you see a yellow image, do not press 'spacebar'.",Images/Fearful/AM06_FO.jpg,Fear,Yellow,Images/Yellow.jpg,None,ParentConditions/YellowYellowBlue_v1.xlsx,YellowYellowBlue,Conditions/Version_1/YellowFearStop.xlsx,yes,PASS,0.223983488,,,,,,,,,0,0,0,1,0,0,0,0,0,79,79,79,,,,,,,,,,,,,,,,,,,,,,,,,,,,,,,,,,,,,,,,,,,,,,,,,,,,,,,,,,,,,,,,,,,,,,,,,,,,,,,1.86,432.3969884,None,None,1,,434.3626656,None,434.3626656,None,434.3626656,None,,,,,,,,,,,P027,fencog,1,Post,2022_Mar_07_1206,Go No-Go Task,2021.1.4,120.5193903
,"Rule: When you see a yellow image, do not press 'spacebar'.",Images/Scram2/HM09_NC.jpg,Scramble,Blue,Images/Blue.jpg,space,ParentConditions/YellowYellowBlue_v1.xlsx,YellowYellowBlue,Conditions/Version_1/YellowScramStop.xlsx,no,PASS,0.165462095,,,,,,,,,0,0,0,1,0,1,1,1,0,0,0,0,,,,,,,,,,,,,,,,,,,,,,,,,,,,,,,,,,,,,,,,,,,,,,,,,,,,,,,,,,,,,,,,,435.8021657,None,438.7943393,None,space,3.4402859,438.7943393,None,435.8021657,None,435.8021657,None,435.8021657,None,1.48,442.2832373,None,None,0,,443.8767538,None,443.8767538,None,443.8767538,None,434.7906773,None,space,0.507983,435.2787519,None,434.7906773,None,434.7906773,None,P027,fencog,1,Post,2022_Mar_07_1206,Go No-Go Task,2021.1.4,120.5193903
,"Rule: When you see a yellow image, do not press 'spacebar'.",Images/Scram2/HM06_NC.jpg,Scramble,Blue,Images/Blue.jpg,space,ParentConditions/YellowYellowBlue_v1.xlsx,YellowYellowBlue,Conditions/Version_1/YellowScramStop.xlsx,no,PASS,0.897967529,,,,,,,,,0,0,0,1,0,1,1,1,0,1,1,1,,,,,,,,,,,,,,,,,,,,,,,,,,,,,,,,,,,,,,,,,,,,,,,,,,,,,,,,,,,,,,,,,,,,,,,,,,,,,,,1.75,444.2819496,None,None,0,,446.1351561,None,446.1351561,None,446.1351561,None,,,,,,,,,,,P027,fencog,1,Post,2022_Mar_07_1206,Go No-Go Task,2021.1.4,120.5193903
,"Rule: When you see a yellow image, do not press 'spacebar'.",Images/Scram1/AM31NES.jpg,Scramble,Blue,Images/Blue.jpg,space,ParentConditions/YellowYellowBlue_v1.xlsx,YellowYellowBlue,Conditions/Version_1/YellowScramStop.xlsx,no,PASS,0.923187968,,,,,,,,,0,0,0,1,0,1,1,1,0,2,2,2,,,,,,,,,,,,,,,,,,,,,,,,,,,,,,,,,,,,,,,,,,,,,,,,,,,,,,,,,,,,,,,,,,,,,,,,,,,,,,,1.37,446.535612,None,space,1,0.3542485,448.0087559,None,448.0087559,None,448.0087559,None,,,,,,,,,,,P027,fencog,1,Post,2022_Mar_07_1206,Go No-Go Task,2021.1.4,120.5193903
,"Rule: When you see a yellow image, do not press 'spacebar'.",Images/Scram2/AM03NES.jpg,Scramble,Yellow,Images/Yellow.jpg,None,ParentConditions/YellowYellowBlue_v1.xlsx,YellowYellowBlue,Conditions/Version_1/YellowScramStop.xlsx,yes,PASS,0.512384462,,,,,,,,,0,0,0,1,0,1,1,1,0,3,3,3,,,,,,,,,,,,,,,,,,,,,,,,,,,,,,,,,,,,,,,,,,,,,,,,,,,,,,,,,,,,,,,,,,,,,,,,,,,,,,,1.62,448.4089137,None,None,1,,450.1332451,None,450.1332451,None,450.1332451,None,,,,,,,,,,,P027,fencog,1,Post,2022_Mar_07_1206,Go No-Go Task,2021.1.4,120.5193903
,"Rule: When you see a yellow image, do not press 'spacebar'.",Images/Scram2/BM01_NC.jpg,Scramble,Blue,Images/Blue.jpg,space,ParentConditions/YellowYellowBlue_v1.xlsx,YellowYellowBlue,Conditions/Version_1/YellowScramStop.xlsx,no,PASS,0.964762263,,,,,,,,,0,0,0,1,0,1,1,1,0,4,4,4,,,,,,,,,,,,,,,,,,,,,,,,,,,,,,,,,,,,,,,,,,,,,,,,,,,,,,,,,,,,,,,,,,,,,,,,,,,,,,,1.29,450.5341532,None,space,1,0.3502627,451.9327348,None,451.9327348,None,451.9327348,None,,,,,,,,,,,P027,fencog,1,Post,2022_Mar_07_1206,Go No-Go Task,2021.1.4,120.5193903
,"Rule: When you see a yellow image, do not press 'spacebar'.",Images/Scram1/HM09_NC.jpg,Scramble,Blue,Images/Blue.jpg,space,ParentConditions/YellowYellowBlue_v1.xlsx,YellowYellowBlue,Conditions/Version_1/YellowScramStop.xlsx,no,PASS,0.000687925,,,,,,,,,0,0,0,1,0,1,1,1,0,5,5,5,,,,,,,,,,,,,,,,,,,,,,,,,,,,,,,,,,,,,,,,,,,,,,,,,,,,,,,,,,,,,,,,,,,,,,,,,,,,,,,1.74,452.336858,None,space,1,0.2678738,454.1987368,None,454.1987368,None,454.1987368,None,,,,,,,,,,,P027,fencog,1,Post,2022_Mar_07_1206,Go No-Go Task,2021.1.4,120.5193903
,"Rule: When you see a yellow image, do not press 'spacebar'.",Images/Scram2/BF07_NC.jpg,Scramble,Blue,Images/Blue.jpg,space,ParentConditions/YellowYellowBlue_v1.xlsx,YellowYellowBlue,Conditions/Version_1/YellowScramStop.xlsx,no,PASS,0.995882368,,,,,,,,,0,0,0,1,0,1,1,1,0,6,6,6,,,,,,,,,,,,,,,,,,,,,,,,,,,,,,,,,,,,,,,,,,,,,,,,,,,,,,,,,,,,,,,,,,,,,,,,,,,,,,,1.58,454.585405,None,space,1,0.3458795,456.2731167,None,456.2731167,None,456.2731167,None,,,,,,,,,,,P027,fencog,1,Post,2022_Mar_07_1206,Go No-Go Task,2021.1.4,120.5193903
,"Rule: When you see a yellow image, do not press 'spacebar'.",Images/Scram1/BF14_NC.jpg,Scramble,Blue,Images/Blue.jpg,space,ParentConditions/YellowYellowBlue_v1.xlsx,YellowYellowBlue,Conditions/Version_1/YellowScramStop.xlsx,no,PASS,0.239759658,,,,,,,,,0,0,0,1,0,1,1,1,0,7,7,7,,,,,,,,,,,,,,,,,,,,,,,,,,,,,,,,,,,,,,,,,,,,,,,,,,,,,,,,,,,,,,,,,,,,,,,,,,,,,,,1.53,456.6735427,None,space,1,0.2649523,458.3058618,None,458.3058618,None,458.3058618,None,,,,,,,,,,,P027,fencog,1,Post,2022_Mar_07_1206,Go No-Go Task,2021.1.4,120.5193903
,"Rule: When you see a yellow image, do not press 'spacebar'.",Images/Scram2/AF10_NC.jpg,Scramble,Blue,Images/Blue.jpg,space,ParentConditions/YellowYellowBlue_v1.xlsx,YellowYellowBlue,Conditions/Version_1/YellowScramStop.xlsx,no,PASS,0.231928382,,,,,,,,,0,0,0,1,0,1,1,1,0,8,8,8,,,,,,,,,,,,,,,,,,,,,,,,,,,,,,,,,,,,,,,,,,,,,,,,,,,,,,,,,,,,,,,,,,,,,,,,,,,,,,,1.39,458.7136149,None,space,1,0.269602,460.205339,None,460.205339,None,460.205339,None,,,,,,,,,,,P027,fencog,1,Post,2022_Mar_07_1206,Go No-Go Task,2021.1.4,120.5193903
,"Rule: When you see a yellow image, do not press 'spacebar'.",Images/Scram2/AF01_NC.jpg,Scramble,Blue,Images/Blue.jpg,space,ParentConditions/YellowYellowBlue_v1.xlsx,YellowYellowBlue,Conditions/Version_1/YellowScramStop.xlsx,no,PASS,0.030564679,,,,,,,,,0,0,0,1,0,1,1,1,0,9,9,9,,,,,,,,,,,,,,,,,,,,,,,,,,,,,,,,,,,,,,,,,,,,,,,,,,,,,,,,,,,,,,,,,,,,,,,,,,,,,,,1.32,460.6072066,None,space,1,0.2613365,462.0294979,None,462.0294979,None,462.0294979,None,,,,,,,,,,,P027,fencog,1,Post,2022_Mar_07_1206,Go No-Go Task,2021.1.4,120.5193903
,"Rule: When you see a yellow image, do not press 'spacebar'.",Images/Scram2/AF24NES.jpg,Scramble,Blue,Images/Blue.jpg,space,ParentConditions/YellowYellowBlue_v1.xlsx,YellowYellowBlue,Conditions/Version_1/YellowScramStop.xlsx,no,PASS,0.325712461,,,,,,,,,0,0,0,1,0,1,1,1,0,10,10,10,,,,,,,,,,,,,,,,,,,,,,,,,,,,,,,,,,,,,,,,,,,,,,,,,,,,,,,,,,,,,,,,,,,,,,,,,,,,,,,1.54,462.4314974,None,space,1,0.2752183,464.0875664,None,464.0875664,None,464.0875664,None,,,,,,,,,,,P027,fencog,1,Post,2022_Mar_07_1206,Go No-Go Task,2021.1.4,120.5193903
,"Rule: When you see a yellow image, do not press 'spacebar'.",Images/Scram2/BF14_NC.jpg,Scramble,Blue,Images/Blue.jpg,space,ParentConditions/YellowYellowBlue_v1.xlsx,YellowYellowBlue,Conditions/Version_1/YellowScramStop.xlsx,no,PASS,0.745262532,,,,,,,,,0,0,0,1,0,1,1,1,0,11,11,11,,,,,,,,,,,,,,,,,,,,,,,,,,,,,,,,,,,,,,,,,,,,,,,,,,,,,,,,,,,,,,,,,,,,,,,,,,,,,,,1.73,464.4866443,None,space,1,0.3869002,466.3202525,None,466.3202525,None,466.3202525,None,,,,,,,,,,,P027,fencog,1,Post,2022_Mar_07_1206,Go No-Go Task,2021.1.4,120.5193903
,"Rule: When you see a yellow image, do not press 'spacebar'.",Images/Scram1/AM13NES.jpg,Scramble,Blue,Images/Blue.jpg,space,ParentConditions/YellowYellowBlue_v1.xlsx,YellowYellowBlue,Conditions/Version_1/YellowScramStop.xlsx,no,PASS,0.493993548,,,,,,,,,0,0,0,1,0,1,1,1,0,12,12,12,,,,,,,,,,,,,,,,,,,,,,,,,,,,,,,,,,,,,,,,,,,,,,,,,,,,,,,,,,,,,,,,,,,,,,,,,,,,,,,1.97,466.7233118,None,space,1,0.336403,468.8023656,None,468.8023656,None,468.8023656,None,,,,,,,,,,,P027,fencog,1,Post,2022_Mar_07_1206,Go No-Go Task,2021.1.4,120.5193903
,"Rule: When you see a yellow image, do not press 'spacebar'.",Images/Scram1/HM04_NC.jpg,Scramble,Blue,Images/Blue.jpg,space,ParentConditions/YellowYellowBlue_v1.xlsx,YellowYellowBlue,Conditions/Version_1/YellowScramStop.xlsx,no,PASS,0.184674666,,,,,,,,,0,0,0,1,0,1,1,1,0,13,13,13,,,,,,,,,,,,,,,,,,,,,,,,,,,,,,,,,,,,,,,,,,,,,,,,,,,,,,,,,,,,,,,,,,,,,,,,,,,,,,,1.34,469.2016207,None,space,1,0.2308391,470.6439414,None,470.6439414,None,470.6439414,None,,,,,,,,,,,P027,fencog,1,Post,2022_Mar_07_1206,Go No-Go Task,2021.1.4,120.5193903
,"Rule: When you see a yellow image, do not press 'spacebar'.",Images/Scram1/AM03NES.jpg,Scramble,Blue,Images/Blue.jpg,space,ParentConditions/YellowYellowBlue_v1.xlsx,YellowYellowBlue,Conditions/Version_1/YellowScramStop.xlsx,no,PASS,0.036392656,,,,,,,,,0,0,0,1,0,1,1,1,0,14,14,14,,,,,,,,,,,,,,,,,,,,,,,,,,,,,,,,,,,,,,,,,,,,,,,,,,,,,,,,,,,,,,,,,,,,,,,,,,,,,,,1.68,471.044268,None,space,1,0.24023,472.8265627,None,472.8265627,None,472.8265627,None,,,,,,,,,,,P027,fencog,1,Post,2022_Mar_07_1206,Go No-Go Task,2021.1.4,120.5193903
,"Rule: When you see a yellow image, do not press 'spacebar'.",Images/Scram1/AM22NES.jpg,Scramble,Blue,Images/Blue.jpg,space,ParentConditions/YellowYellowBlue_v1.xlsx,YellowYellowBlue,Conditions/Version_1/YellowScramStop.xlsx,no,PASS,0.464265865,,,,,,,,,0,0,0,1,0,1,1,1,0,15,15,15,,,,,,,,,,,,,,,,,,,,,,,,,,,,,,,,,,,,,,,,,,,,,,,,,,,,,,,,,,,,,,,,,,,,,,,,,,,,,,,1.41,473.2373426,None,space,1,0.2198925,474.7509774,None,474.7509774,None,474.7509774,None,,,,,,,,,,,P027,fencog,1,Post,2022_Mar_07_1206,Go No-Go Task,2021.1.4,120.5193903
,"Rule: When you see a yellow image, do not press 'spacebar'.",Images/Scram2/AM17NES.jpg,Scramble,Yellow,Images/Yellow.jpg,None,ParentConditions/YellowYellowBlue_v1.xlsx,YellowYellowBlue,Conditions/Version_1/YellowScramStop.xlsx,yes,PASS,0.967907979,,,,,,,,,0,0,0,1,0,1,1,1,0,16,16,16,,,,,,,,,,,,,,,,,,,,,,,,,,,,,,,,,,,,,,,,,,,,,,,,,,,,,,,,,,,,,,,,,,,,,,,,,,,,,,,1.24,475.1502925,None,None,1,,476.4922349,None,476.4922349,None,476.4922349,None,,,,,,,,,,,P027,fencog,1,Post,2022_Mar_07_1206,Go No-Go Task,2021.1.4,120.5193903
,"Rule: When you see a yellow image, do not press 'spacebar'.",Images/Scram1/AM10NES.jpg,Scramble,Blue,Images/Blue.jpg,space,ParentConditions/YellowYellowBlue_v1.xlsx,YellowYellowBlue,Conditions/Version_1/YellowScramStop.xlsx,no,PASS,0.606062041,,,,,,,,,0,0,0,1,0,1,1,1,0,17,17,17,,,,,,,,,,,,,,,,,,,,,,,,,,,,,,,,,,,,,,,,,,,,,,,,,,,,,,,,,,,,,,,,,,,,,,,,,,,,,,,1.51,476.8926918,None,space,1,0.2224528,478.5082417,None,478.5082417,None,478.5082417,None,,,,,,,,,,,P027,fencog,1,Post,2022_Mar_07_1206,Go No-Go Task,2021.1.4,120.5193903
,"Rule: When you see a yellow image, do not press 'spacebar'.",Images/Scram2/AM03_NC.jpg,Scramble,Yellow,Images/Yellow.jpg,None,ParentConditions/YellowYellowBlue_v1.xlsx,YellowYellowBlue,Conditions/Version_1/YellowScramStop.xlsx,yes,PASS,0.37502921,,,,,,,,,0,0,0,1,0,1,1,1,0,18,18,18,,,,,,,,,,,,,,,,,,,,,,,,,,,,,,,,,,,,,,,,,,,,,,,,,,,,,,,,,,,,,,,,,,,,,,,,,,,,,,,1.55,478.9108282,None,None,1,,480.574198,None,480.574198,None,480.574198,None,,,,,,,,,,,P027,fencog,1,Post,2022_Mar_07_1206,Go No-Go Task,2021.1.4,120.5193903
,"Rule: When you see a yellow image, do not press 'spacebar'.",Images/Scram1/HF09_NC.jpg,Scramble,Blue,Images/Blue.jpg,space,ParentConditions/YellowYellowBlue_v1.xlsx,YellowYellowBlue,Conditions/Version_1/YellowScramStop.xlsx,no,PASS,0.550594735,,,,,,,,,0,0,0,1,0,1,1,1,0,19,19,19,,,,,,,,,,,,,,,,,,,,,,,,,,,,,,,,,,,,,,,,,,,,,,,,,,,,,,,,,,,,,,,,,,,,,,,,,,,,,,,1.47,480.9731711,None,space,1,0.2619484,482.5487085,None,482.5487085,None,482.5487085,None,,,,,,,,,,,P027,fencog,1,Post,2022_Mar_07_1206,Go No-Go Task,2021.1.4,120.5193903
,"Rule: When you see a yellow image, do not press 'spacebar'.",Images/Scram1/BM08_NC.jpg,Scramble,Blue,Images/Blue.jpg,space,ParentConditions/YellowYellowBlue_v1.xlsx,YellowYellowBlue,Conditions/Version_1/YellowScramStop.xlsx,no,PASS,0.112391938,,,,,,,,,0,0,0,1,0,1,1,1,0,20,20,20,,,,,,,,,,,,,,,,,,,,,,,,,,,,,,,,,,,,,,,,,,,,,,,,,,,,,,,,,,,,,,,,,,,,,,,,,,,,,,,1.93,482.9550065,None,space,1,0.3254578,484.9896427,None,484.9896427,None,484.9896427,None,,,,,,,,,,,P027,fencog,1,Post,2022_Mar_07_1206,Go No-Go Task,2021.1.4,120.5193903
,"Rule: When you see a yellow image, do not press 'spacebar'.",Images/Scram1/AF32NES.jpg,Scramble,Blue,Images/Blue.jpg,space,ParentConditions/YellowYellowBlue_v1.xlsx,YellowYellowBlue,Conditions/Version_1/YellowScramStop.xlsx,no,PASS,0.664764183,,,,,,,,,0,0,0,1,0,1,1,1,0,21,21,21,,,,,,,,,,,,,,,,,,,,,,,,,,,,,,,,,,,,,,,,,,,,,,,,,,,,,,,,,,,,,,,,,,,,,,,,,,,,,,,1.7,485.3914542,None,space,1,0.317144,487.2055745,None,487.2055745,None,487.2055745,None,,,,,,,,,,,P027,fencog,1,Post,2022_Mar_07_1206,Go No-Go Task,2021.1.4,120.5193903
,"Rule: When you see a yellow image, do not press 'spacebar'.",Images/Scram2/AM06_NC.jpg,Scramble,Yellow,Images/Yellow.jpg,None,ParentConditions/YellowYellowBlue_v1.xlsx,YellowYellowBlue,Conditions/Version_1/YellowScramStop.xlsx,yes,PASS,0.363487487,,,,,,,,,0,0,0,1,0,1,1,1,0,22,22,22,,,,,,,,,,,,,,,,,,,,,,,,,,,,,,,,,,,,,,,,,,,,,,,,,,,,,,,,,,,,,,,,,,,,,,,,,,,,,,,1.96,487.604802,None,None,1,,489.6716192,None,489.6716192,None,489.6716192,None,,,,,,,,,,,P027,fencog,1,Post,2022_Mar_07_1206,Go No-Go Task,2021.1.4,120.5193903
,"Rule: When you see a yellow image, do not press 'spacebar'.",Images/Scram1/AM06_NC.jpg,Scramble,Blue,Images/Blue.jpg,space,ParentConditions/YellowYellowBlue_v1.xlsx,YellowYellowBlue,Conditions/Version_1/YellowScramStop.xlsx,no,PASS,0.9155942,,,,,,,,,0,0,0,1,0,1,1,1,0,23,23,23,,,,,,,,,,,,,,,,,,,,,,,,,,,,,,,,,,,,,,,,,,,,,,,,,,,,,,,,,,,,,,,,,,,,,,,,,,,,,,,1.27,490.0743486,None,space,1,0.3323557,491.4544319,None,491.4544319,None,491.4544319,None,,,,,,,,,,,P027,fencog,1,Post,2022_Mar_07_1206,Go No-Go Task,2021.1.4,120.5193903
,"Rule: When you see a yellow image, do not press 'spacebar'.",Images/Scram2/AM02_NC.jpg,Scramble,Yellow,Images/Yellow.jpg,None,ParentConditions/YellowYellowBlue_v1.xlsx,YellowYellowBlue,Conditions/Version_1/YellowScramStop.xlsx,yes,PASS,0.403496622,,,,,,,,,0,0,0,1,0,1,1,1,0,24,24,24,,,,,,,,,,,,,,,,,,,,,,,,,,,,,,,,,,,,,,,,,,,,,,,,,,,,,,,,,,,,,,,,,,,,,,,,,,,,,,,1.25,491.8533236,None,None,1,,493.2038851,None,493.2038851,None,493.2038851,None,,,,,,,,,,,P027,fencog,1,Post,2022_Mar_07_1206,Go No-Go Task,2021.1.4,120.5193903
,"Rule: When you see a yellow image, do not press 'spacebar'.",Images/Scram2/HF05_NC.jpg,Scramble,Blue,Images/Blue.jpg,space,ParentConditions/YellowYellowBlue_v1.xlsx,YellowYellowBlue,Conditions/Version_1/YellowScramStop.xlsx,no,PASS,0.921711636,,,,,,,,,0,0,0,1,0,1,1,1,0,25,25,25,,,,,,,,,,,,,,,,,,,,,,,,,,,,,,,,,,,,,,,,,,,,,,,,,,,,,,,,,,,,,,,,,,,,,,,,,,,,,,,1.83,493.6031091,None,space,1,0.3388047,495.5365171,None,495.5365171,None,495.5365171,None,,,,,,,,,,,P027,fencog,1,Post,2022_Mar_07_1206,Go No-Go Task,2021.1.4,120.5193903
,"Rule: When you see a yellow image, do not press 'spacebar'.",Images/Scram2/AF32NES.jpg,Scramble,Yellow,Images/Yellow.jpg,None,ParentConditions/YellowYellowBlue_v1.xlsx,YellowYellowBlue,Conditions/Version_1/YellowScramStop.xlsx,yes,PASS,0.017466824,,,,,,,,,0,0,0,1,0,1,1,1,0,26,26,26,,,,,,,,,,,,,,,,,,,,,,,,,,,,,,,,,,,,,,,,,,,,,,,,,,,,,,,,,,,,,,,,,,,,,,,,,,,,,,,1.5,495.9412056,None,space,0,0.3307401,497.5442811,None,497.5442811,None,497.5442811,None,,,,,,,,,,,P027,fencog,1,Post,2022_Mar_07_1206,Go No-Go Task,2021.1.4,120.5193903
,"Rule: When you see a yellow image, do not press 'spacebar'.",Images/Scram2/HM04_NC.jpg,Scramble,Blue,Images/Blue.jpg,space,ParentConditions/YellowYellowBlue_v1.xlsx,YellowYellowBlue,Conditions/Version_1/YellowScramStop.xlsx,no,PASS,0.573634123,,,,,,,,,0,0,0,1,0,1,1,1,0,27,27,27,,,,,,,,,,,,,,,,,,,,,,,,,,,,,,,,,,,,,,,,,,,,,,,,,,,,,,,,,,,,,,,,,,,,,,,,,,,,,,,1.95,497.9551597,None,space,1,0.256606,500.0101836,None,500.0101836,None,500.0101836,None,,,,,,,,,,,P027,fencog,1,Post,2022_Mar_07_1206,Go No-Go Task,2021.1.4,120.5193903
,"Rule: When you see a yellow image, do not press 'spacebar'.",Images/Scram2/AF25NES.jpg,Scramble,Blue,Images/Blue.jpg,space,ParentConditions/YellowYellowBlue_v1.xlsx,YellowYellowBlue,Conditions/Version_1/YellowScramStop.xlsx,no,PASS,0.481500907,,,,,,,,,0,0,0,1,0,1,1,1,0,28,28,28,,,,,,,,,,,,,,,,,,,,,,,,,,,,,,,,,,,,,,,,,,,,,,,,,,,,,,,,,,,,,,,,,,,,,,,,,,,,,,,1.35,500.4099975,None,space,1,0.3511741,501.8680263,None,501.8680263,None,501.8680263,None,,,,,,,,,,,P027,fencog,1,Post,2022_Mar_07_1206,Go No-Go Task,2021.1.4,120.5193903
,"Rule: When you see a yellow image, do not press 'spacebar'.",Images/Scram1/AF34NES.jpg,Scramble,Blue,Images/Blue.jpg,space,ParentConditions/YellowYellowBlue_v1.xlsx,YellowYellowBlue,Conditions/Version_1/YellowScramStop.xlsx,no,PASS,0.163221093,,,,,,,,,0,0,0,1,0,1,1,1,0,29,29,29,,,,,,,,,,,,,,,,,,,,,,,,,,,,,,,,,,,,,,,,,,,,,,,,,,,,,,,,,,,,,,,,,,,,,,,,,,,,,,,1.63,502.2785139,None,space,1,0.3458574,504.0089944,None,504.0089944,None,504.0089944,None,,,,,,,,,,,P027,fencog,1,Post,2022_Mar_07_1206,Go No-Go Task,2021.1.4,120.5193903
,"Rule: When you see a yellow image, do not press 'spacebar'.",Images/Scram2/AF11NES.jpg,Scramble,Blue,Images/Blue.jpg,space,ParentConditions/YellowYellowBlue_v1.xlsx,YellowYellowBlue,Conditions/Version_1/YellowScramStop.xlsx,no,PASS,0.863906943,,,,,,,,,0,0,0,1,0,1,1,1,0,30,30,30,,,,,,,,,,,,,,,,,,,,,,,,,,,,,,,,,,,,,,,,,,,,,,,,,,,,,,,,,,,,,,,,,,,,,,,,,,,,,,,1.42,504.4093429,None,space,1,0.2608283,505.9418728,None,505.9418728,None,505.9418728,None,,,,,,,,,,,P027,fencog,1,Post,2022_Mar_07_1206,Go No-Go Task,2021.1.4,120.5193903
,"Rule: When you see a yellow image, do not press 'spacebar'.",Images/Scram2/AF34NES.jpg,Scramble,Yellow,Images/Yellow.jpg,None,ParentConditions/YellowYellowBlue_v1.xlsx,YellowYellowBlue,Conditions/Version_1/YellowScramStop.xlsx,yes,PASS,0.061590092,,,,,,,,,0,0,0,1,0,1,1,1,0,31,31,31,,,,,,,,,,,,,,,,,,,,,,,,,,,,,,,,,,,,,,,,,,,,,,,,,,,,,,,,,,,,,,,,,,,,,,,,,,,,,,,1.52,506.3390344,None,None,1,,507.9828327,None,507.9828327,None,507.9828327,None,,,,,,,,,,,P027,fencog,1,Post,2022_Mar_07_1206,Go No-Go Task,2021.1.4,120.5193903
,"Rule: When you see a yellow image, do not press 'spacebar'.",Images/Scram1/AM02_NC.jpg,Scramble,Blue,Images/Blue.jpg,space,ParentConditions/YellowYellowBlue_v1.xlsx,YellowYellowBlue,Conditions/Version_1/YellowScramStop.xlsx,no,PASS,0.7758508,,,,,,,,,0,0,0,1,0,1,1,1,0,32,32,32,,,,,,,,,,,,,,,,,,,,,,,,,,,,,,,,,,,,,,,,,,,,,,,,,,,,,,,,,,,,,,,,,,,,,,,,,,,,,,,1.71,508.3735716,None,space,1,0.2687615,510.1905446,None,510.1905446,None,510.1905446,None,,,,,,,,,,,P027,fencog,1,Post,2022_Mar_07_1206,Go No-Go Task,2021.1.4,120.5193903
,"Rule: When you see a yellow image, do not press 'spacebar'.",Images/Scram2/AM13NES.jpg,Scramble,Yellow,Images/Yellow.jpg,None,ParentConditions/YellowYellowBlue_v1.xlsx,YellowYellowBlue,Conditions/Version_1/YellowScramStop.xlsx,yes,PASS,0.67265151,,,,,,,,,0,0,0,1,0,1,1,1,0,33,33,33,,,,,,,,,,,,,,,,,,,,,,,,,,,,,,,,,,,,,,,,,,,,,,,,,,,,,,,,,,,,,,,,,,,,,,,,,,,,,,,1.82,510.5916859,None,None,1,,512.5148481,None,512.5148481,None,512.5148481,None,,,,,,,,,,,P027,fencog,1,Post,2022_Mar_07_1206,Go No-Go Task,2021.1.4,120.5193903
,"Rule: When you see a yellow image, do not press 'spacebar'.",Images/Scram1/AM03_NC.jpg,Scramble,Blue,Images/Blue.jpg,space,ParentConditions/YellowYellowBlue_v1.xlsx,YellowYellowBlue,Conditions/Version_1/YellowScramStop.xlsx,no,PASS,0.060310837,,,,,,,,,0,0,0,1,0,1,1,1,0,34,34,34,,,,,,,,,,,,,,,,,,,,,,,,,,,,,,,,,,,,,,,,,,,,,,,,,,,,,,,,,,,,,,,,,,,,,,,,,,,,,,,1.87,512.9248975,None,space,1,0.2971099,514.9058818,None,514.9058818,None,514.9058818,None,,,,,,,,,,,P027,fencog,1,Post,2022_Mar_07_1206,Go No-Go Task,2021.1.4,120.5193903
,"Rule: When you see a yellow image, do not press 'spacebar'.",Images/Scram1/AF33NES.jpg,Scramble,Blue,Images/Blue.jpg,space,ParentConditions/YellowYellowBlue_v1.xlsx,YellowYellowBlue,Conditions/Version_1/YellowScramStop.xlsx,no,PASS,0.988339533,,,,,,,,,0,0,0,1,0,1,1,1,0,35,35,35,,,,,,,,,,,,,,,,,,,,,,,,,,,,,,,,,,,,,,,,,,,,,,,,,,,,,,,,,,,,,,,,,,,,,,,,,,,,,,,1.6,515.3048585,None,space,1,0.3087583,517.0218421,None,517.0218421,None,517.0218421,None,,,,,,,,,,,P027,fencog,1,Post,2022_Mar_07_1206,Go No-Go Task,2021.1.4,120.5193903
,"Rule: When you see a yellow image, do not press 'spacebar'.",Images/Scram1/BF10_NC.jpg,Scramble,Blue,Images/Blue.jpg,space,ParentConditions/YellowYellowBlue_v1.xlsx,YellowYellowBlue,Conditions/Version_1/YellowScramStop.xlsx,no,PASS,0.832283927,,,,,,,,,0,0,0,1,0,1,1,1,0,36,36,36,,,,,,,,,,,,,,,,,,,,,,,,,,,,,,,,,,,,,,,,,,,,,,,,,,,,,,,,,,,,,,,,,,,,,,,,,,,,,,,1.3,517.4134775,None,None,0,,518.8213384,None,518.8213384,None,518.8213384,None,,,,,,,,,,,P027,fencog,1,Post,2022_Mar_07_1206,Go No-Go Task,2021.1.4,120.5193903
,"Rule: When you see a yellow image, do not press 'spacebar'.",Images/Scram1/AF07_NC.jpg,Scramble,Blue,Images/Blue.jpg,space,ParentConditions/YellowYellowBlue_v1.xlsx,YellowYellowBlue,Conditions/Version_1/YellowScramStop.xlsx,no,PASS,0.976389595,,,,,,,,,0,0,0,1,0,1,1,1,0,37,37,37,,,,,,,,,,,,,,,,,,,,,,,,,,,,,,,,,,,,,,,,,,,,,,,,,,,,,,,,,,,,,,,,,,,,,,,,,,,,,,,1.31,519.2319513,None,space,1,0.3167194,520.645949,None,520.645949,None,520.645949,None,,,,,,,,,,,P027,fencog,1,Post,2022_Mar_07_1206,Go No-Go Task,2021.1.4,120.5193903
,"Rule: When you see a yellow image, do not press 'spacebar'.",Images/Scram2/AM23NES.jpg,Scramble,Yellow,Images/Yellow.jpg,None,ParentConditions/YellowYellowBlue_v1.xlsx,YellowYellowBlue,Conditions/Version_1/YellowScramStop.xlsx,yes,PASS,0.600248114,,,,,,,,,0,0,0,1,0,1,1,1,0,38,38,38,,,,,,,,,,,,,,,,,,,,,,,,,,,,,,,,,,,,,,,,,,,,,,,,,,,,,,,,,,,,,,,,,,,,,,,,,,,,,,,1.57,521.0465371,None,space,0,0.3785699,522.7286464,None,522.7286464,None,522.7286464,None,,,,,,,,,,,P027,fencog,1,Post,2022_Mar_07_1206,Go No-Go Task,2021.1.4,120.5193903
,"Rule: When you see a yellow image, do not press 'spacebar'.",Images/Scram1/AF24NES.jpg,Scramble,Blue,Images/Blue.jpg,space,ParentConditions/YellowYellowBlue_v1.xlsx,YellowYellowBlue,Conditions/Version_1/YellowScramStop.xlsx,no,PASS,0.112949458,,,,,,,,,0,0,0,1,0,1,1,1,0,39,39,39,,,,,,,,,,,,,,,,,,,,,,,,,,,,,,,,,,,,,,,,,,,,,,,,,,,,,,,,,,,,,,,,,,,,,,,,,,,,,,,1.59,523.1269152,None,space,1,0.3034992,524.8196427,None,524.8196427,None,524.8196427,None,,,,,,,,,,,P027,fencog,1,Post,2022_Mar_07_1206,Go No-Go Task,2021.1.4,120.5193903
,"Rule: When you see a yellow image, do not press 'spacebar'.",Images/Scram2/AF33NES.jpg,Scramble,Yellow,Images/Yellow.jpg,None,ParentConditions/YellowYellowBlue_v1.xlsx,YellowYellowBlue,Conditions/Version_1/YellowScramStop.xlsx,yes,PASS,0.803753742,,,,,,,,,0,0,0,1,0,1,1,1,0,40,40,40,,,,,,,,,,,,,,,,,,,,,,,,,,,,,,,,,,,,,,,,,,,,,,,,,,,,,,,,,,,,,,,,,,,,,,,,,,,,,,,1.92,525.2280025,None,None,1,,527.2521449,None,527.2521449,None,527.2521449,None,,,,,,,,,,,P027,fencog,1,Post,2022_Mar_07_1206,Go No-Go Task,2021.1.4,120.5193903
,"Rule: When you see a yellow image, do not press 'spacebar'.",Images/Scram1/AF25NES.jpg,Scramble,Blue,Images/Blue.jpg,space,ParentConditions/YellowYellowBlue_v1.xlsx,YellowYellowBlue,Conditions/Version_1/YellowScramStop.xlsx,no,PASS,0.143787363,,,,,,,,,0,0,0,1,0,1,1,1,0,41,41,41,,,,,,,,,,,,,,,,,,,,,,,,,,,,,,,,,,,,,,,,,,,,,,,,,,,,,,,,,,,,,,,,,,,,,,,,,,,,,,,1.84,527.6526744,None,None,0,,529.5928721,None,529.5928721,None,529.5928721,None,,,,,,,,,,,P027,fencog,1,Post,2022_Mar_07_1206,Go No-Go Task,2021.1.4,120.5193903
,"Rule: When you see a yellow image, do not press 'spacebar'.",Images/Scram2/AM10NES.jpg,Scramble,Yellow,Images/Yellow.jpg,None,ParentConditions/YellowYellowBlue_v1.xlsx,YellowYellowBlue,Conditions/Version_1/YellowScramStop.xlsx,yes,PASS,0.58203193,,,,,,,,,0,0,0,1,0,1,1,1,0,42,42,42,,,,,,,,,,,,,,,,,,,,,,,,,,,,,,,,,,,,,,,,,,,,,,,,,,,,,,,,,,,,,,,,,,,,,,,,,,,,,,,1.91,529.993713,None,None,1,,532.0091222,None,532.0091222,None,532.0091222,None,,,,,,,,,,,P027,fencog,1,Post,2022_Mar_07_1206,Go No-Go Task,2021.1.4,120.5193903
,"Rule: When you see a yellow image, do not press 'spacebar'.",Images/Scram2/BF10_NC.jpg,Scramble,Blue,Images/Blue.jpg,space,ParentConditions/YellowYellowBlue_v1.xlsx,YellowYellowBlue,Conditions/Version_1/YellowScramStop.xlsx,no,PASS,0.207816491,,,,,,,,,0,0,0,1,0,1,1,1,0,43,43,43,,,,,,,,,,,,,,,,,,,,,,,,,,,,,,,,,,,,,,,,,,,,,,,,,,,,,,,,,,,,,,,,,,,,,,,,,,,,,,,1.38,532.4105729,None,space,1,0.3827252,533.8918926,None,533.8918926,None,533.8918926,None,,,,,,,,,,,P027,fencog,1,Post,2022_Mar_07_1206,Go No-Go Task,2021.1.4,120.5193903
,"Rule: When you see a yellow image, do not press 'spacebar'.",Images/Scram1/BF18_NC.jpg,Scramble,Blue,Images/Blue.jpg,space,ParentConditions/YellowYellowBlue_v1.xlsx,YellowYellowBlue,Conditions/Version_1/YellowScramStop.xlsx,no,PASS,0.36892611,,,,,,,,,0,0,0,1,0,1,1,1,0,44,44,44,,,,,,,,,,,,,,,,,,,,,,,,,,,,,,,,,,,,,,,,,,,,,,,,,,,,,,,,,,,,,,,,,,,,,,,,,,,,,,,1.9,534.290811,None,space,1,0.3439932,536.2828594,None,536.2828594,None,536.2828594,None,,,,,,,,,,,P027,fencog,1,Post,2022_Mar_07_1206,Go No-Go Task,2021.1.4,120.5193903
,"Rule: When you see a yellow image, do not press 'spacebar'.",Images/Scram2/HF09_NC.jpg,Scramble,Blue,Images/Blue.jpg,space,ParentConditions/YellowYellowBlue_v1.xlsx,YellowYellowBlue,Conditions/Version_1/YellowScramStop.xlsx,no,PASS,0.286178806,,,,,,,,,0,0,0,1,0,1,1,1,0,45,45,45,,,,,,,,,,,,,,,,,,,,,,,,,,,,,,,,,,,,,,,,,,,,,,,,,,,,,,,,,,,,,,,,,,,,,,,,,,,,,,,1.86,536.6835379,None,space,1,0.3297284,538.6571261,None,538.6571261,None,538.6571261,None,,,,,,,,,,,P027,fencog,1,Post,2022_Mar_07_1206,Go No-Go Task,2021.1.4,120.5193903
,"Rule: When you see a yellow image, do not press 'spacebar'.",Images/Scram1/BF05_NC.jpg,Scramble,Blue,Images/Blue.jpg,space,ParentConditions/YellowYellowBlue_v1.xlsx,YellowYellowBlue,Conditions/Version_1/YellowScramStop.xlsx,no,PASS,0.769263782,,,,,,,,,0,0,0,1,0,1,1,1,0,46,46,46,,,,,,,,,,,,,,,,,,,,,,,,,,,,,,,,,,,,,,,,,,,,,,,,,,,,,,,,,,,,,,,,,,,,,,,,,,,,,,,1.26,539.0556599,None,space,1,0.3315086,540.4316059,None,540.4316059,None,540.4316059,None,,,,,,,,,,,P027,fencog,1,Post,2022_Mar_07_1206,Go No-Go Task,2021.1.4,120.5193903
,"Rule: When you see a yellow image, do not press 'spacebar'.",Images/Scram1/AM17NES.jpg,Scramble,Blue,Images/Blue.jpg,space,ParentConditions/YellowYellowBlue_v1.xlsx,YellowYellowBlue,Conditions/Version_1/YellowScramStop.xlsx,no,PASS,0.755330064,,,,,,,,,0,0,0,1,0,1,1,1,0,47,47,47,,,,,,,,,,,,,,,,,,,,,,,,,,,,,,,,,,,,,,,,,,,,,,,,,,,,,,,,,,,,,,,,,,,,,,,,,,,,,,,1.2,540.8368174,None,space,1,0.2873046,542.1395624,None,542.1395624,None,542.1395624,None,,,,,,,,,,,P027,fencog,1,Post,2022_Mar_07_1206,Go No-Go Task,2021.1.4,120.5193903
,"Rule: When you see a yellow image, do not press 'spacebar'.",Images/Scram2/AM09_NC.jpg,Scramble,Yellow,Images/Yellow.jpg,None,ParentConditions/YellowYellowBlue_v1.xlsx,YellowYellowBlue,Conditions/Version_1/YellowScramStop.xlsx,yes,PASS,0.984865365,,,,,,,,,0,0,0,1,0,1,1,1,0,48,48,48,,,,,,,,,,,,,,,,,,,,,,,,,,,,,,,,,,,,,,,,,,,,,,,,,,,,,,,,,,,,,,,,,,,,,,,,,,,,,,,1.72,542.5385099,None,None,1,,544.3721095,None,544.3721095,None,544.3721095,None,,,,,,,,,,,P027,fencog,1,Post,2022_Mar_07_1206,Go No-Go Task,2021.1.4,120.5193903
,"Rule: When you see a yellow image, do not press 'spacebar'.",Images/Scram2/AF09NES.jpg,Scramble,Blue,Images/Blue.jpg,space,ParentConditions/YellowYellowBlue_v1.xlsx,YellowYellowBlue,Conditions/Version_1/YellowScramStop.xlsx,no,PASS,0.209985362,,,,,,,,,0,0,0,1,0,1,1,1,0,49,49,49,,,,,,,,,,,,,,,,,,,,,,,,,,,,,,,,,,,,,,,,,,,,,,,,,,,,,,,,,,,,,,,,,,,,,,,,,,,,,,,1.66,544.7725962,None,space,1,0.2644609,546.5382715,None,546.5382715,None,546.5382715,None,,,,,,,,,,,P027,fencog,1,Post,2022_Mar_07_1206,Go No-Go Task,2021.1.4,120.5193903
,"Rule: When you see a yellow image, do not press 'spacebar'.",Images/Scram2/AM04_NC.jpg,Scramble,Yellow,Images/Yellow.jpg,None,ParentConditions/YellowYellowBlue_v1.xlsx,YellowYellowBlue,Conditions/Version_1/YellowScramStop.xlsx,yes,PASS,0.859563214,,,,,,,,,0,0,0,1,0,1,1,1,0,50,50,50,,,,,,,,,,,,,,,,,,,,,,,,,,,,,,,,,,,,,,,,,,,,,,,,,,,,,,,,,,,,,,,,,,,,,,,,,,,,,,,1.88,546.9385144,None,None,1,,548.9207781,None,548.9207781,None,548.9207781,None,,,,,,,,,,,P027,fencog,1,Post,2022_Mar_07_1206,Go No-Go Task,2021.1.4,120.5193903
,"Rule: When you see a yellow image, do not press 'spacebar'.",Images/Scram2/BF05_NC.jpg,Scramble,Yellow,Images/Yellow.jpg,None,ParentConditions/YellowYellowBlue_v1.xlsx,YellowYellowBlue,Conditions/Version_1/YellowScramStop.xlsx,yes,PASS,0.903889245,,,,,,,,,0,0,0,1,0,1,1,1,0,51,51,51,,,,,,,,,,,,,,,,,,,,,,,,,,,,,,,,,,,,,,,,,,,,,,,,,,,,,,,,,,,,,,,,,,,,,,,,,,,,,,,1.43,549.3294651,None,space,0,0.3488372,550.8619277,None,550.8619277,None,550.8619277,None,,,,,,,,,,,P027,fencog,1,Post,2022_Mar_07_1206,Go No-Go Task,2021.1.4,120.5193903
,"Rule: When you see a yellow image, do not press 'spacebar'.",Images/Scram1/HM06_NC.jpg,Scramble,Blue,Images/Blue.jpg,space,ParentConditions/YellowYellowBlue_v1.xlsx,YellowYellowBlue,Conditions/Version_1/YellowScramStop.xlsx,no,PASS,0.718307645,,,,,,,,,0,0,0,1,0,1,1,1,0,52,52,52,,,,,,,,,,,,,,,,,,,,,,,,,,,,,,,,,,,,,,,,,,,,,,,,,,,,,,,,,,,,,,,,,,,,,,,,,,,,,,,1.81,551.2628092,None,space,1,0.3052272,553.1779176,None,553.1779176,None,553.1779176,None,,,,,,,,,,,P027,fencog,1,Post,2022_Mar_07_1206,Go No-Go Task,2021.1.4,120.5193903
,"Rule: When you see a yellow image, do not press 'spacebar'.",Images/Scram2/AF07NES.jpg,Scramble,Blue,Images/Blue.jpg,space,ParentConditions/YellowYellowBlue_v1.xlsx,YellowYellowBlue,Conditions/Version_1/YellowScramStop.xlsx,no,PASS,0.868582701,,,,,,,,,0,0,0,1,0,1,1,1,0,53,53,53,,,,,,,,,,,,,,,,,,,,,,,,,,,,,,,,,,,,,,,,,,,,,,,,,,,,,,,,,,,,,,,,,,,,,,,,,,,,,,,1.85,553.5780914,None,space,1,0.371114,555.5354777,None,555.5354777,None,555.5354777,None,,,,,,,,,,,P027,fencog,1,Post,2022_Mar_07_1206,Go No-Go Task,2021.1.4,120.5193903
,"Rule: When you see a yellow image, do not press 'spacebar'.",Images/Scram1/BM01_NC.jpg,Scramble,Blue,Images/Blue.jpg,space,ParentConditions/YellowYellowBlue_v1.xlsx,YellowYellowBlue,Conditions/Version_1/YellowScramStop.xlsx,no,PASS,0.751616104,,,,,,,,,0,0,0,1,0,1,1,1,0,54,54,54,,,,,,,,,,,,,,,,,,,,,,,,,,,,,,,,,,,,,,,,,,,,,,,,,,,,,,,,,,,,,,,,,,,,,,,,,,,,,,,1.49,555.9345195,None,space,1,0.3083089,557.5266217,None,557.5266217,None,557.5266217,None,,,,,,,,,,,P027,fencog,1,Post,2022_Mar_07_1206,Go No-Go Task,2021.1.4,120.5193903
,"Rule: When you see a yellow image, do not press 'spacebar'.",Images/Scram2/AF07_NC.jpg,Scramble,Blue,Images/Blue.jpg,space,ParentConditions/YellowYellowBlue_v1.xlsx,YellowYellowBlue,Conditions/Version_1/YellowScramStop.xlsx,no,PASS,0.609812891,,,,,,,,,0,0,0,1,0,1,1,1,0,55,55,55,,,,,,,,,,,,,,,,,,,,,,,,,,,,,,,,,,,,,,,,,,,,,,,,,,,,,,,,,,,,,,,,,,,,,,,,,,,,,,,1.36,557.937723,None,space,1,0.3615625,559.4010384,None,559.4010384,None,559.4010384,None,,,,,,,,,,,P027,fencog,1,Post,2022_Mar_07_1206,Go No-Go Task,2021.1.4,120.5193903
,"Rule: When you see a yellow image, do not press 'spacebar'.",Images/Scram1/AF10_NC.jpg,Scramble,Blue,Images/Blue.jpg,space,ParentConditions/YellowYellowBlue_v1.xlsx,YellowYellowBlue,Conditions/Version_1/YellowScramStop.xlsx,no,PASS,0.980512803,,,,,,,,,0,0,0,1,0,1,1,1,0,56,56,56,,,,,,,,,,,,,,,,,,,,,,,,,,,,,,,,,,,,,,,,,,,,,,,,,,,,,,,,,,,,,,,,,,,,,,,,,,,,,,,1.44,559.7997784,None,space,1,0.3169277,561.3417488,None,561.3417488,None,561.3417488,None,,,,,,,,,,,P027,fencog,1,Post,2022_Mar_07_1206,Go No-Go Task,2021.1.4,120.5193903
,"Rule: When you see a yellow image, do not press 'spacebar'.",Images/Scram1/AM09NES.jpg,Scramble,Blue,Images/Blue.jpg,space,ParentConditions/YellowYellowBlue_v1.xlsx,YellowYellowBlue,Conditions/Version_1/YellowScramStop.xlsx,no,PASS,0.711317095,,,,,,,,,0,0,0,1,0,1,1,1,0,57,57,57,,,,,,,,,,,,,,,,,,,,,,,,,,,,,,,,,,,,,,,,,,,,,,,,,,,,,,,,,,,,,,,,,,,,,,,,,,,,,,,1.21,561.7409195,None,space,1,0.2808878,563.0579504,None,563.0579504,None,563.0579504,None,,,,,,,,,,,P027,fencog,1,Post,2022_Mar_07_1206,Go No-Go Task,2021.1.4,120.5193903
,"Rule: When you see a yellow image, do not press 'spacebar'.",Images/Scram1/AF01_NC.jpg,Scramble,Blue,Images/Blue.jpg,space,ParentConditions/YellowYellowBlue_v1.xlsx,YellowYellowBlue,Conditions/Version_1/YellowScramStop.xlsx,no,PASS,0.081952385,,,,,,,,,0,0,0,1,0,1,1,1,0,58,58,58,,,,,,,,,,,,,,,,,,,,,,,,,,,,,,,,,,,,,,,,,,,,,,,,,,,,,,,,,,,,,,,,,,,,,,,,,,,,,,,1.64,563.4570362,None,space,1,0.2840485,565.190573,None,565.190573,None,565.190573,None,,,,,,,,,,,P027,fencog,1,Post,2022_Mar_07_1206,Go No-Go Task,2021.1.4,120.5193903
,"Rule: When you see a yellow image, do not press 'spacebar'.",Images/Scram1/AM09_NC.jpg,Scramble,Blue,Images/Blue.jpg,space,ParentConditions/YellowYellowBlue_v1.xlsx,YellowYellowBlue,Conditions/Version_1/YellowScramStop.xlsx,no,PASS,0.689970999,,,,,,,,,0,0,0,1,0,1,1,1,0,59,59,59,,,,,,,,,,,,,,,,,,,,,,,,,,,,,,,,,,,,,,,,,,,,,,,,,,,,,,,,,,,,,,,,,,,,,,,,,,,,,,,1.76,565.5897165,None,space,1,0.2900061,567.4566502,None,567.4566502,None,567.4566502,None,,,,,,,,,,,P027,fencog,1,Post,2022_Mar_07_1206,Go No-Go Task,2021.1.4,120.5193903
,"Rule: When you see a yellow image, do not press 'spacebar'.",Images/Scram1/AF11NES.jpg,Scramble,Blue,Images/Blue.jpg,space,ParentConditions/YellowYellowBlue_v1.xlsx,YellowYellowBlue,Conditions/Version_1/YellowScramStop.xlsx,no,PASS,0.557754436,,,,,,,,,0,0,0,1,0,1,1,1,0,60,60,60,,,,,,,,,,,,,,,,,,,,,,,,,,,,,,,,,,,,,,,,,,,,,,,,,,,,,,,,,,,,,,,,,,,,,,,,,,,,,,,1.78,567.8557259,None,space,1,0.2954595,569.7392632,None,569.7392632,None,569.7392632,None,,,,,,,,,,,P027,fencog,1,Post,2022_Mar_07_1206,Go No-Go Task,2021.1.4,120.5193903
,"Rule: When you see a yellow image, do not press 'spacebar'.",Images/Scram1/BF07_NC.jpg,Scramble,Blue,Images/Blue.jpg,space,ParentConditions/YellowYellowBlue_v1.xlsx,YellowYellowBlue,Conditions/Version_1/YellowScramStop.xlsx,no,PASS,0.170581625,,,,,,,,,0,0,0,1,0,1,1,1,0,61,61,61,,,,,,,,,,,,,,,,,,,,,,,,,,,,,,,,,,,,,,,,,,,,,,,,,,,,,,,,,,,,,,,,,,,,,,,,,,,,,,,1.89,570.1383725,None,space,1,0.3044836,572.1302946,None,572.1302946,None,572.1302946,None,,,,,,,,,,,P027,fencog,1,Post,2022_Mar_07_1206,Go No-Go Task,2021.1.4,120.5193903
,"Rule: When you see a yellow image, do not press 'spacebar'.",Images/Scram2/AM34NES.JPG,Scramble,Yellow,Images/Yellow.jpg,None,ParentConditions/YellowYellowBlue_v1.xlsx,YellowYellowBlue,Conditions/Version_1/YellowScramStop.xlsx,yes,PASS,0.200965001,,,,,,,,,0,0,0,1,0,1,1,1,0,62,62,62,,,,,,,,,,,,,,,,,,,,,,,,,,,,,,,,,,,,,,,,,,,,,,,,,,,,,,,,,,,,,,,,,,,,,,,,,,,,,,,1.23,572.5294113,None,None,1,,573.863039,None,573.863039,None,573.863039,None,,,,,,,,,,,P027,fencog,1,Post,2022_Mar_07_1206,Go No-Go Task,2021.1.4,120.5193903
,"Rule: When you see a yellow image, do not press 'spacebar'.",Images/Scram1/AM04_NC.jpg,Scramble,Blue,Images/Blue.jpg,space,ParentConditions/YellowYellowBlue_v1.xlsx,YellowYellowBlue,Conditions/Version_1/YellowScramStop.xlsx,no,PASS,0.492065699,,,,,,,,,0,0,0,1,0,1,1,1,0,63,63,63,,,,,,,,,,,,,,,,,,,,,,,,,,,,,,,,,,,,,,,,,,,,,,,,,,,,,,,,,,,,,,,,,,,,,,,,,,,,,,,1.28,574.2622165,None,space,1,0.2915076,575.6791774,None,575.6791774,None,575.6791774,None,,,,,,,,,,,P027,fencog,1,Post,2022_Mar_07_1206,Go No-Go Task,2021.1.4,120.5193903
,"Rule: When you see a yellow image, do not press 'spacebar'.",Images/Scram1/AM23NES.jpg,Scramble,Blue,Images/Blue.jpg,space,ParentConditions/YellowYellowBlue_v1.xlsx,YellowYellowBlue,Conditions/Version_1/YellowScramStop.xlsx,no,PASS,0.209094486,,,,,,,,,0,0,0,1,0,1,1,1,0,64,64,64,,,,,,,,,,,,,,,,,,,,,,,,,,,,,,,,,,,,,,,,,,,,,,,,,,,,,,,,,,,,,,,,,,,,,,,,,,,,,,,1.99,576.0533097,None,space,1,0.3773548,578.1455054,None,578.1455054,None,578.1455054,None,,,,,,,,,,,P027,fencog,1,Post,2022_Mar_07_1206,Go No-Go Task,2021.1.4,120.5193903
,"Rule: When you see a yellow image, do not press 'spacebar'.",Images/Scram2/HF10_NO.jpg,Scramble,Blue,Images/Blue.jpg,space,ParentConditions/YellowYellowBlue_v1.xlsx,YellowYellowBlue,Conditions/Version_1/YellowScramStop.xlsx,no,PASS,0.913200347,,,,,,,,,0,0,0,1,0,1,1,1,0,65,65,65,,,,,,,,,,,,,,,,,,,,,,,,,,,,,,,,,,,,,,,,,,,,,,,,,,,,,,,,,,,,,,,,,,,,,,,,,,,,,,,1.69,578.5528673,None,space,1,0.2501154,580.3616867,None,580.3616867,None,580.3616867,None,,,,,,,,,,,P027,fencog,1,Post,2022_Mar_07_1206,Go No-Go Task,2021.1.4,120.5193903
,"Rule: When you see a yellow image, do not press 'spacebar'.",Images/Scram1/AF07NES.jpg,Scramble,Blue,Images/Blue.jpg,space,ParentConditions/YellowYellowBlue_v1.xlsx,YellowYellowBlue,Conditions/Version_1/YellowScramStop.xlsx,no,PASS,0.45060309,,,,,,,,,0,0,0,1,0,1,1,1,0,66,66,66,,,,,,,,,,,,,,,,,,,,,,,,,,,,,,,,,,,,,,,,,,,,,,,,,,,,,,,,,,,,,,,,,,,,,,,,,,,,,,,1.45,580.7575533,None,space,1,0.2758537,582.3110193,None,582.3110193,None,582.3110193,None,,,,,,,,,,,P027,fencog,1,Post,2022_Mar_07_1206,Go No-Go Task,2021.1.4,120.5193903
,"Rule: When you see a yellow image, do not press 'spacebar'.",Images/Scram2/AM09NES.jpg,Scramble,Yellow,Images/Yellow.jpg,None,ParentConditions/YellowYellowBlue_v1.xlsx,YellowYellowBlue,Conditions/Version_1/YellowScramStop.xlsx,yes,PASS,0.565509457,,,,,,,,,0,0,0,1,0,1,1,1,0,67,67,67,,,,,,,,,,,,,,,,,,,,,,,,,,,,,,,,,,,,,,,,,,,,,,,,,,,,,,,,,,,,,,,,,,,,,,,,,,,,,,,1.56,582.7131493,None,None,1,,584.3853161,None,584.3853161,None,584.3853161,None,,,,,,,,,,,P027,fencog,1,Post,2022_Mar_07_1206,Go No-Go Task,2021.1.4,120.5193903
,"Rule: When you see a yellow image, do not press 'spacebar'.",Images/Scram2/BM08_NC.jpg,Scramble,Blue,Images/Blue.jpg,space,ParentConditions/YellowYellowBlue_v1.xlsx,YellowYellowBlue,Conditions/Version_1/YellowScramStop.xlsx,no,PASS,0.479096971,,,,,,,,,0,0,0,1,0,1,1,1,0,68,68,68,,,,,,,,,,,,,,,,,,,,,,,,,,,,,,,,,,,,,,,,,,,,,,,,,,,,,,,,,,,,,,,,,,,,,,,,,,,,,,,1.94,584.7880532,None,space,1,0.2879099,586.842905,None,586.842905,None,586.842905,None,,,,,,,,,,,P027,fencog,1,Post,2022_Mar_07_1206,Go No-Go Task,2021.1.4,120.5193903
,"Rule: When you see a yellow image, do not press 'spacebar'.",Images/Scram2/AF30NES.JPG,Scramble,Yellow,Images/Yellow.jpg,None,ParentConditions/YellowYellowBlue_v1.xlsx,YellowYellowBlue,Conditions/Version_1/YellowScramStop.xlsx,yes,PASS,0.810500571,,,,,,,,,0,0,0,1,0,1,1,1,0,69,69,69,,,,,,,,,,,,,,,,,,,,,,,,,,,,,,,,,,,,,,,,,,,,,,,,,,,,,,,,,,,,,,,,,,,,,,,,,,,,,,,1.22,587.2418136,None,None,1,,588.5674855,None,588.5674855,None,588.5674855,None,,,,,,,,,,,P027,fencog,1,Post,2022_Mar_07_1206,Go No-Go Task,2021.1.4,120.5193903
,"Rule: When you see a yellow image, do not press 'spacebar'.",Images/Scram1/AM34NES.JPG,Scramble,Blue,Images/Blue.jpg,space,ParentConditions/YellowYellowBlue_v1.xlsx,YellowYellowBlue,Conditions/Version_1/YellowScramStop.xlsx,no,PASS,0.918912105,,,,,,,,,0,0,0,1,0,1,1,1,0,70,70,70,,,,,,,,,,,,,,,,,,,,,,,,,,,,,,,,,,,,,,,,,,,,,,,,,,,,,,,,,,,,,,,,,,,,,,,,,,,,,,,1.4,588.9682469,None,space,1,0.2401292,590.4751702,None,590.4751702,None,590.4751702,None,,,,,,,,,,,P027,fencog,1,Post,2022_Mar_07_1206,Go No-Go Task,2021.1.4,120.5193903
