CondFileP,Instructions,FaceE,Express,ColourT,ColourF,CorrectAnsP,MasterCondFile,BlockOrder,CondFile,ColCheck,Triplicate_check,SORT_BY_SMALLEST,EPracticeOuterLoop.thisRepN,EPracticeOuterLoop.thisTrialN,EPracticeOuterLoop.thisN,EPracticeOuterLoop.thisIndex,EPracticeInnerLoop.thisRepN,EPracticeInnerLoop.thisTrialN,EPracticeInnerLoop.thisN,EPracticeInnerLoop.thisIndex,MasterLoop.thisRepN,MasterLoop.thisTrialN,MasterLoop.thisN,MasterLoop.thisIndex,OuterLoop.thisRepN,OuterLoop.thisTrialN,OuterLoop.thisN,OuterLoop.thisIndex,InnerLoop.thisRepN,InnerLoop.thisTrialN,InnerLoop.thisN,InnerLoop.thisIndex,text_13.started,text_13.stopped,key_resp_10.keys,key_resp_10.rt,key_resp_10.started,key_resp_10.stopped,text4.started,text4.stopped,EmotionTaskInstructions1.keys,EmotionTaskInstructions1.rt,EmotionTaskInstructions1.started,EmotionTaskInstructions1.stopped,text_4.started,text_4.stopped,key_resp_5.keys,key_resp_5.rt,key_resp_5.started,key_resp_5.stopped,Text_14.started,Text_14.stopped,key_resp_9.keys,key_resp_9.rt,key_resp_9.started,key_resp_9.stopped,text_5.started,text_5.stopped,text_6.started,text_6.stopped,key_resp_7.keys,key_resp_7.rt,key_resp_7.started,key_resp_7.stopped,text_10.started,text_10.stopped,text_11.started,text_11.stopped,text_12.started,text_12.stopped,ISIjitterPractice,EPracticeISIMarker.started,EPracticeISIMarker.stopped,Pract.keys,Pract.corr,Pract.started,Pract.stopped,PracticeFace.started,PracticeFace.stopped,ColourPractice.started,ColourPractice.stopped,text_7.started,text_7.stopped,Pract.rt,EndOfPractice.started,EndOfPractice.stopped,key_resp_8.keys,key_resp_8.rt,key_resp_8.started,key_resp_8.stopped,text_8.started,text_8.stopped,key_resp_6.keys,key_resp_6.rt,key_resp_6.started,key_resp_6.stopped,text_2.started,text_2.stopped,text_3.started,text_3.stopped,key_resp_3.keys,key_resp_3.rt,key_resp_3.started,key_resp_3.stopped,TaskBlock.started,TaskBlock.stopped,BlockNo1.started,BlockNo1.stopped,OfBlock.started,OfBlock.stopped,ISIjitter,ISImarker.started,ISImarker.stopped,key_resp.keys,key_resp.corr,key_resp.rt,key_resp.started,key_resp.stopped,FaceSet.started,FaceSet.stopped,Colour.started,Colour.stopped,EndBlockText.started,EndBlockText.stopped,key_resp_4.keys,key_resp_4.rt,key_resp_4.started,key_resp_4.stopped,BreakText2.started,BreakText2.stopped,PressToContinue.started,PressToContinue.stopped,participant,Study Name,Task Version (required to run),PRE/POST,date,expName,psychopyVersion,frameRate,
,,,,,,,,,,,,,,,,,,,,,,,,,,,,,,,,,29.688637599989306,None,space,116.26391709997552,30.67880759999389,None,,,,,,,,,,,,,,,,,,,,,,,,,,,,,,,,,,,,,,,,,,,,,,,,,,,,,,,,,,,,,,,,,,,,,,,,,,,,,,,,,,,,,,,,,,,,,,,P028,fencog,1,Pre,2022_Mar_08_1031,Go No-Go Task,2021.1.4,119.51143725302569,
,,,,,,,,,,,,,,,,,,,,,,,,,,,,,,,,,,,,,,,148.66729549999582,None,space,7.715859199990518,148.66729549999582,None,,,,,,,,,,,,,,,,,,,,,,,,,,,,,,,,,,,,,,,,,,,,,,,,,,,,,,,,,,,,,,,,,,,,,,,,,,,,,,,,,,,,,,,,,P028,fencog,1,Pre,2022_Mar_08_1031,Go No-Go Task,2021.1.4,119.51143725302569,
,,,,,,,,,,,,,,,,,,,,,,,,,,,,,,,,,,,,,,,,,,,,,156.4713585000136,None,space,11.791171499993652,156.4713585000136,None,,,,,,,,,,,,,,,,,,,,,,,,,,,,,,,,,,,,,,,,,,,,,,,,,,,,,,,,,,,,,,,,,,,,,,,,,,,,,,,,,,,P028,fencog,1,Pre,2022_Mar_08_1031,Go No-Go Task,2021.1.4,119.51143725302569,
,,,,,,,,,,,,,,,,,,,,,,,,,,,,,,,,,,,,,,,,,,,,,,,,,,,168.2809680000064,None,space,8.82960630004527,168.2809680000064,None,,,,,,,,,,,,,,,,,,,,,,,,,,,,,,,,,,,,,,,,,,,,,,,,,,,,,,,,,,,,,,,,,,,,,,,,,,,,,P028,fencog,1,Pre,2022_Mar_08_1031,Go No-Go Task,2021.1.4,119.51143725302569,
EPracticeConditions/BlueEyes.csv,"Rule: When you see a blue image, do not press 'spacebar'.",Images/Happy/HF04_HE.jpg,Happy,Yellow,Images/Yellow.jpg,space,,,,,,,0,0,0,0,0,0,0,4,,,,,,,,,,,,,,,,,,,,,,,,,,,,,,,,,,,,,177.21314760000678,None,180.20959749998292,None,space,3.4766105999588035,180.20959749998292,None,177.21314760000678,None,177.21314760000678,None,177.21314760000678,None,1.5,183.81288570002653,None,None,0,185.47345320001477,None,185.47345320001477,None,185.47345320001477,None,187.14328540000133,None,,,,,,,,,,,,,,,,,,,,,,,,,,,,,,,,,,,,,,,,,,,,,,,,,,P028,fencog,1,Pre,2022_Mar_08_1031,Go No-Go Task,2021.1.4,119.51143725302569,
EPracticeConditions/BlueEyes.csv,"Rule: When you see a blue image, do not press 'spacebar'.",Images/Fearful/HM09_FC.jpg,Fear,Blue,Images/Blue.jpg,None,,,,,,,0,0,0,0,0,1,1,0,,,,,,,,,,,,,,,,,,,,,,,,,,,,,,,,,,,,,,,,,,,,,,,,,,,1.2,188.35625860001892,None,None,1,189.6576430000132,None,189.6576430000132,None,189.6576430000132,None,190.58000509999692,None,,,,,,,,,,,,,,,,,,,,,,,,,,,,,,,,,,,,,,,,,,,,,,,,,,P028,fencog,1,Pre,2022_Mar_08_1031,Go No-Go Task,2021.1.4,119.51143725302569,
EPracticeConditions/BlueEyes.csv,"Rule: When you see a blue image, do not press 'spacebar'.",Images/Happy/BM08_HO.jpg,Happy,Yellow,Images/Yellow.jpg,space,,,,,,,0,0,0,0,0,2,2,3,,,,,,,,,,,,,,,,,,,,,,,,,,,,,,,,,,,,,,,,,,,,,,,,,,,1.9,192.56904149998445,None,space,1,194.58120259997668,None,194.58120259997668,None,194.58120259997668,None,195.4857377000153,None,0.38557320000836626,,,,,,,,,,,,,,,,,,,,,,,,,,,,,,,,,,,,,,,,,,,,,,,,,P028,fencog,1,Pre,2022_Mar_08_1031,Go No-Go Task,2021.1.4,119.51143725302569,
EPracticeConditions/BlueEyes.csv,"Rule: When you see a blue image, do not press 'spacebar'.",Images/Happy/BM02_HO.jpg,Happy,Yellow,Images/Yellow.jpg,space,,,,,,,0,0,0,0,0,3,3,2,,,,,,,,,,,,,,,,,,,,,,,,,,,,,,,,,,,,,,,,,,,,,,,,,,,1.4,197.48335960000986,None,space,1,199.00489570002537,None,199.00489570002537,None,199.00489570002537,None,199.89259950001724,None,0.2737512000021525,,,,,,,,,,,,,,,,,,,,,,,,,,,,,,,,,,,,,,,,,,,,,,,,,P028,fencog,1,Pre,2022_Mar_08_1031,Go No-Go Task,2021.1.4,119.51143725302569,
EPracticeConditions/BlueEyes.csv,"Rule: When you see a blue image, do not press 'spacebar'.",Images/Fearful/AF01_FO.jpg,Fear,Blue,Images/Blue.jpg,None,,,,,,,0,0,0,0,0,4,4,1,,,,,,,,,,,,,,,,,,,,,,,,,,,,,,,,,,,,,,,,,,,,,,,,,,,1.6,201.89711479999823,None,None,1,203.61189040000318,None,203.61189040000318,None,203.61189040000318,None,204.507820800005,None,,,,,,,,,,,,,,,,,,,,,,,,,,,,,,,,,,,,,,,,,,,,,,,,,,P028,fencog,1,Pre,2022_Mar_08_1031,Go No-Go Task,2021.1.4,119.51143725302569,
EPracticeConditions/BlueEyes.csv,"Rule: When you see a blue image, do not press 'spacebar'.",Images/Happy/HF10_HE.jpg,Happy,Yellow,Images/Yellow.jpg,space,,,,,,,0,0,0,0,0,5,5,7,,,,,,,,,,,,,,,,,,,,,,,,,,,,,,,,,,,,,,,,,,,,,,,,,,,1.3,206.51269100001082,None,space,1,207.9272749000229,None,207.9272749000229,None,207.9272749000229,None,208.82401350000873,None,0.27952059998642653,,,,,,,,,,,,,,,,,,,,,,,,,,,,,,,,,,,,,,,,,,,,,,,,,P028,fencog,1,Pre,2022_Mar_08_1031,Go No-Go Task,2021.1.4,119.51143725302569,
EPracticeConditions/BlueEyes.csv,"Rule: When you see a blue image, do not press 'spacebar'.",Images/Happy/HF09_HE.jpg,Happy,Yellow,Images/Yellow.jpg,space,,,,,,,0,0,0,0,0,6,6,6,,,,,,,,,,,,,,,,,,,,,,,,,,,,,,,,,,,,,,,,,,,,,,,,,,,1.7,210.82966510002734,None,space,1,212.6424754000036,None,212.6424754000036,None,212.6424754000036,None,213.53831700002775,None,0.2837709000450559,,,,,,,,,,,,,,,,,,,,,,,,,,,,,,,,,,,,,,,,,,,,,,,,,P028,fencog,1,Pre,2022_Mar_08_1031,Go No-Go Task,2021.1.4,119.51143725302569,
EPracticeConditions/BlueEyes.csv,"Rule: When you see a blue image, do not press 'spacebar'.",Images/Happy/HF05_HO.jpg,Happy,Yellow,Images/Yellow.jpg,space,,,,,,,0,0,0,0,0,7,7,5,,,,,,,,,,,,,,,,,,,,,,,,,,,,,,,,,,,,,,,,,,,,,,,,,,,1.8,215.54270579997683,None,space,1,217.45781890000217,None,217.45781890000217,None,217.45781890000217,None,218.35510230000364,None,0.2850235000369139,,,,,,,,,,,,,,,,,,,,,,,,,,,,,,,,,,,,,,,,,,,,,,,,,P028,fencog,1,Pre,2022_Mar_08_1031,Go No-Go Task,2021.1.4,119.51143725302569,
EPracticeConditions/BlueEyes.csv,"Rule: When you see a blue image, do not press 'spacebar'.",,,,,,,,,,,,0,0,0,0,,,,,,,,,,,,,,,,,,,,,,,,,,,,,,,,,,,,,,,,,,,,,,,,,,,,,,,,,,,,,,,,,,,,,,,,,,,,,,,,,,,,,,,,,,,,,,,,,,,,,,,,,,,,,,,,,,,,,P028,fencog,1,Pre,2022_Mar_08_1031,Go No-Go Task,2021.1.4,119.51143725302569,
EPracticeConditions/YellowEyes.csv,"Rule: When you see a yellow image, do not press 'spacebar'.",Images/Fearful/AM17AFS.jpg,Fear,Blue,Images/Blue.jpg,space,,,,,,,0,1,1,1,0,0,0,3,,,,,,,,,,,,,,,,,,,,,,,,,,,,,,,,,,,,,220.39123539999127,None,223.38034309999784,None,space,1.2098229000112042,223.38034309999784,None,220.39123539999127,None,220.39123539999127,None,220.39123539999127,None,1.4,224.60848480003187,None,None,0,226.12181679997593,None,226.12181679997593,None,226.12181679997593,None,227.03647400002228,None,,,,,,,,,,,,,,,,,,,,,,,,,,,,,,,,,,,,,,,,,,,,,,,,,,P028,fencog,1,Pre,2022_Mar_08_1031,Go No-Go Task,2021.1.4,119.51143725302569,
EPracticeConditions/YellowEyes.csv,"Rule: When you see a yellow image, do not press 'spacebar'.",Images/Fearful/AM19AFS.jpg,Fear,Blue,Images/Blue.jpg,space,,,,,,,0,1,1,1,0,1,1,4,,,,,,,,,,,,,,,,,,,,,,,,,,,,,,,,,,,,,,,,,,,,,,,,,,,1.9,229.02333380002528,None,None,0,231.0371076000156,None,231.0371076000156,None,231.0371076000156,None,231.9354187999852,None,,,,,,,,,,,,,,,,,,,,,,,,,,,,,,,,,,,,,,,,,,,,,,,,,,P028,fencog,1,Pre,2022_Mar_08_1031,Go No-Go Task,2021.1.4,119.51143725302569,
EPracticeConditions/YellowEyes.csv,"Rule: When you see a yellow image, do not press 'spacebar'.",Images/Fearful/AM24AFS.jpg,Fear,Blue,Images/Blue.jpg,space,,,,,,,0,1,1,1,0,2,2,7,,,,,,,,,,,,,,,,,,,,,,,,,,,,,,,,,,,,,,,,,,,,,,,,,,,1.6,233.94185200001812,None,space,1,235.6524101999821,None,235.6524101999821,None,235.6524101999821,None,236.5488276000251,None,0.30611429997952655,,,,,,,,,,,,,,,,,,,,,,,,,,,,,,,,,,,,,,,,,,,,,,,,,P028,fencog,1,Pre,2022_Mar_08_1031,Go No-Go Task,2021.1.4,119.51143725302569,
EPracticeConditions/YellowEyes.csv,"Rule: When you see a yellow image, do not press 'spacebar'.",Images/Happy/BF05_HO.jpg,Happy,Yellow,Images/Yellow.jpg,None,,,,,,,0,1,1,1,0,3,3,1,,,,,,,,,,,,,,,,,,,,,,,,,,,,,,,,,,,,,,,,,,,,,,,,,,,1.8,238.55565729999216,None,None,1,240.46767119999276,None,240.46767119999276,None,240.46767119999276,None,241.36502580001252,None,,,,,,,,,,,,,,,,,,,,,,,,,,,,,,,,,,,,,,,,,,,,,,,,,,P028,fencog,1,Pre,2022_Mar_08_1031,Go No-Go Task,2021.1.4,119.51143725302569,
EPracticeConditions/YellowEyes.csv,"Rule: When you see a yellow image, do not press 'spacebar'.",Images/Happy/AM32HAS.jpg,Happy,Yellow,Images/Yellow.jpg,None,,,,,,,0,1,1,1,0,4,4,0,,,,,,,,,,,,,,,,,,,,,,,,,,,,,,,,,,,,,,,,,,,,,,,,,,,1.2,243.3711907999823,None,space,0,244.68301019998034,None,244.68301019998034,None,244.68301019998034,None,245.58864329999778,None,0.2117051999666728,,,,,,,,,,,,,,,,,,,,,,,,,,,,,,,,,,,,,,,,,,,,,,,,,P028,fencog,1,Pre,2022_Mar_08_1031,Go No-Go Task,2021.1.4,119.51143725302569,
EPracticeConditions/YellowEyes.csv,"Rule: When you see a yellow image, do not press 'spacebar'.",Images/Fearful/AM22AFS.jpg,Fear,Blue,Images/Blue.jpg,space,,,,,,,0,1,1,1,0,5,5,5,,,,,,,,,,,,,,,,,,,,,,,,,,,,,,,,,,,,,,,,,,,,,,,,,,,1.5,247.58391849999316,None,space,1,249.1984055999783,None,249.1984055999783,None,249.1984055999783,None,250.0957496999763,None,0.23225070000626147,,,,,,,,,,,,,,,,,,,,,,,,,,,,,,,,,,,,,,,,,,,,,,,,,P028,fencog,1,Pre,2022_Mar_08_1031,Go No-Go Task,2021.1.4,119.51143725302569,
EPracticeConditions/YellowEyes.csv,"Rule: When you see a yellow image, do not press 'spacebar'.",Images/Fearful/AM16AFS.jpg,Fear,Blue,Images/Blue.jpg,space,,,,,,,0,1,1,1,0,6,6,2,,,,,,,,,,,,,,,,,,,,,,,,,,,,,,,,,,,,,,,,,,,,,,,,,,,1.7,252.10144020000007,None,space,1,253.90537739999127,None,253.90537739999127,None,253.90537739999127,None,254.81039559998317,None,0.3567198000382632,,,,,,,,,,,,,,,,,,,,,,,,,,,,,,,,,,,,,,,,,,,,,,,,,P028,fencog,1,Pre,2022_Mar_08_1031,Go No-Go Task,2021.1.4,119.51143725302569,
EPracticeConditions/YellowEyes.csv,"Rule: When you see a yellow image, do not press 'spacebar'.",Images/Fearful/AM23AFS.jpg,Fear,Blue,Images/Blue.jpg,space,,,,,,,0,1,1,1,0,7,7,6,,,,,,,,,,,,,,,,,,,,,,,,,,,,,,,,,,,,,,,,,,,,,,,,,,,1.3,256.81418440002017,None,space,1,258.22910380002577,None,258.22910380002577,None,258.22910380002577,None,259.1259297999786,None,0.2571891999687068,,,,,,,,,,,,,,,,,,,,,,,,,,,,,,,,,,,,,,,,,,,,,,,,,P028,fencog,1,Pre,2022_Mar_08_1031,Go No-Go Task,2021.1.4,119.51143725302569,
EPracticeConditions/YellowEyes.csv,"Rule: When you see a yellow image, do not press 'spacebar'.",,,,,,,,,,,,0,1,1,1,,,,,,,,,,,,,,,,,,,,,,,,,,,,,,,,,,,,,,,,,,,,,,,,,,,,,,,,,,,,,,,,,,,,,,,,,,,,,,,,,,,,,,,,,,,,,,,,,,,,,,,,,,,,,,,,,,,,,P028,fencog,1,Pre,2022_Mar_08_1031,Go No-Go Task,2021.1.4,119.51143725302569,
EPracticeConditions/BlueScram.csv,"Rule: When you see a blue image, do not press 'spacebar'.",Images/Scram1/BM08_NC.jpg,Scramble,Blue,Images/Blue.jpg,None,,,,,,,0,2,2,2,0,0,0,0,,,,,,,,,,,,,,,,,,,,,,,,,,,,,,,,,,,,,261.151744999981,None,264.1349955999758,None,space,1.447456800029613,264.1349955999758,None,261.151744999981,None,261.151744999981,None,261.151744999981,None,1.7,265.6004455999937,None,None,1,267.4096790999756,None,267.4096790999756,None,267.4096790999756,None,268.313672600023,None,,,,,,,,,,,,,,,,,,,,,,,,,,,,,,,,,,,,,,,,,,,,,,,,,,P028,fencog,1,Pre,2022_Mar_08_1031,Go No-Go Task,2021.1.4,119.51143725302569,
EPracticeConditions/BlueScram.csv,"Rule: When you see a blue image, do not press 'spacebar'.",Images/Scram2/AM03_NC.jpg,Scramble,Yellow,Images/Yellow.jpg,space,,,,,,,0,2,2,2,0,1,1,6,,,,,,,,,,,,,,,,,,,,,,,,,,,,,,,,,,,,,,,,,,,,,,,,,,,1.2,270.3111042000237,None,space,1,271.6250649000285,None,271.6250649000285,None,271.6250649000285,None,272.5228207000182,None,0.2538630000199191,,,,,,,,,,,,,,,,,,,,,,,,,,,,,,,,,,,,,,,,,,,,,,,,,P028,fencog,1,Pre,2022_Mar_08_1031,Go No-Go Task,2021.1.4,119.51143725302569,
EPracticeConditions/BlueScram.csv,"Rule: When you see a blue image, do not press 'spacebar'.",Images/Scram2/AF10_NC.jpg,Scramble,Yellow,Images/Yellow.jpg,space,,,,,,,0,2,2,2,0,2,2,2,,,,,,,,,,,,,,,,,,,,,,,,,,,,,,,,,,,,,,,,,,,,,,,,,,,1.9,274.52538150001783,None,space,1,276.5403403000091,None,276.5403403000091,None,276.5403403000091,None,277.4457029000041,None,0.23419049999210984,,,,,,,,,,,,,,,,,,,,,,,,,,,,,,,,,,,,,,,,,,,,,,,,,P028,fencog,1,Pre,2022_Mar_08_1031,Go No-Go Task,2021.1.4,119.51143725302569,
EPracticeConditions/BlueScram.csv,"Rule: When you see a blue image, do not press 'spacebar'.",Images/Scram1/BF18_NC.jpg,Scramble,Blue,Images/Blue.jpg,None,,,,,,,0,2,2,2,0,3,3,1,,,,,,,,,,,,,,,,,,,,,,,,,,,,,,,,,,,,,,,,,,,,,,,,,,,1.5,279.44089750002604,None,None,1,281.05568889999995,None,281.05568889999995,None,281.05568889999995,None,281.9516759000253,None,,,,,,,,,,,,,,,,,,,,,,,,,,,,,,,,,,,,,,,,,,,,,,,,,,P028,fencog,1,Pre,2022_Mar_08_1031,Go No-Go Task,2021.1.4,119.51143725302569,
EPracticeConditions/BlueScram.csv,"Rule: When you see a blue image, do not press 'spacebar'.",Images/Scram1/AM13NES.jpg,Scramble,Yellow,Images/Yellow.jpg,space,,,,,,,0,2,2,2,0,4,4,5,,,,,,,,,,,,,,,,,,,,,,,,,,,,,,,,,,,,,,,,,,,,,,,,,,,1.3,283.955926500028,None,space,1,285.37155109999003,None,285.37155109999003,None,285.37155109999003,None,286.2547695999965,None,0.17151779995765537,,,,,,,,,,,,,,,,,,,,,,,,,,,,,,,,,,,,,,,,,,,,,,,,,P028,fencog,1,Pre,2022_Mar_08_1031,Go No-Go Task,2021.1.4,119.51143725302569,
EPracticeConditions/BlueScram.csv,"Rule: When you see a blue image, do not press 'spacebar'.",Images/Scram2/AF25NES.jpg,Scramble,Yellow,Images/Yellow.jpg,space,,,,,,,0,2,2,2,0,5,5,7,,,,,,,,,,,,,,,,,,,,,,,,,,,,,,,,,,,,,,,,,,,,,,,,,,,1.4,288.2662422999856,None,space,1,289.7781394000049,None,289.7781394000049,None,289.7781394000049,None,290.674914000032,None,0.33243529999163,,,,,,,,,,,,,,,,,,,,,,,,,,,,,,,,,,,,,,,,,,,,,,,,,P028,fencog,1,Pre,2022_Mar_08_1031,Go No-Go Task,2021.1.4,119.51143725302569,
EPracticeConditions/BlueScram.csv,"Rule: When you see a blue image, do not press 'spacebar'.",Images/Scram1/AM03NES.jpg,Scramble,Yellow,Images/Yellow.jpg,space,,,,,,,0,2,2,2,0,6,6,4,,,,,,,,,,,,,,,,,,,,,,,,,,,,,,,,,,,,,,,,,,,,,,,,,,,1.6,292.67950600001495,None,None,0,294.3934354999801,None,294.3934354999801,None,294.3934354999801,None,295.2999530999805,None,,,,,,,,,,,,,,,,,,,,,,,,,,,,,,,,,,,,,,,,,,,,,,,,,,P028,fencog,1,Pre,2022_Mar_08_1031,Go No-Go Task,2021.1.4,119.51143725302569,
EPracticeConditions/BlueScram.csv,"Rule: When you see a blue image, do not press 'spacebar'.",Images/Scram1/AM04_NC.jpg,Scramble,Yellow,Images/Yellow.jpg,space,,,,,,,0,2,2,2,0,7,7,3,,,,,,,,,,,,,,,,,,,,,,,,,,,,,,,,,,,,,,,,,,,,,,,,,,,1.8,297.29433599999174,None,space,1,299.20868229999905,None,299.20868229999905,None,299.20868229999905,None,300.10576619999483,None,0.3177570999832824,,,,,,,,,,,,,,,,,,,,,,,,,,,,,,,,,,,,,,,,,,,,,,,,,P028,fencog,1,Pre,2022_Mar_08_1031,Go No-Go Task,2021.1.4,119.51143725302569,
EPracticeConditions/BlueScram.csv,"Rule: When you see a blue image, do not press 'spacebar'.",,,,,,,,,,,,0,2,2,2,,,,,,,,,,,,,,,,,,,,,,,,,,,,,,,,,,,,,,,,,,,,,,,,,,,,,,,,,,,,,,,,,,,,,,,,,,,,,,,,,,,,,,,,,,,,,,,,,,,,,,,,,,,,,,,,,,,,,P028,fencog,1,Pre,2022_Mar_08_1031,Go No-Go Task,2021.1.4,119.51143725302569,
EPracticeConditions/YellowScram.csv,"Rule: When you see a yellow image, do not press 'spacebar'.",Images/Scram1/AF07NES.jpg,Scramble,Blue,Images/Blue.jpg,space,,,,,,,0,3,3,3,0,0,0,3,,,,,,,,,,,,,,,,,,,,,,,,,,,,,,,,,,,,,302.1297513000318,None,305.11461849999614,None,space,0.6434972999850288,305.11461849999614,None,302.1297513000318,None,302.1297513000318,None,302.1297513000318,None,1.6,305.77516010002,None,space,1,307.4894959999947,None,307.4894959999947,None,307.4894959999947,None,308.3863170000259,None,0.3009225000278093,,,,,,,,,,,,,,,,,,,,,,,,,,,,,,,,,,,,,,,,,,,,,,,,,P028,fencog,1,Pre,2022_Mar_08_1031,Go No-Go Task,2021.1.4,119.51143725302569,
EPracticeConditions/YellowScram.csv,"Rule: When you see a yellow image, do not press 'spacebar'.",Images/Scram1/HF04_NC.jpg,Scramble,Blue,Images/Blue.jpg,space,,,,,,,0,3,3,3,0,1,1,2,,,,,,,,,,,,,,,,,,,,,,,,,,,,,,,,,,,,,,,,,,,,,,,,,,,1.2,310.39253200002713,None,space,1,311.7049681000062,None,311.7049681000062,None,311.7049681000062,None,312.60125010000775,None,0.22960119997151196,,,,,,,,,,,,,,,,,,,,,,,,,,,,,,,,,,,,,,,,,,,,,,,,,P028,fencog,1,Pre,2022_Mar_08_1031,Go No-Go Task,2021.1.4,119.51143725302569,
EPracticeConditions/YellowScram.csv,"Rule: When you see a yellow image, do not press 'spacebar'.",Images/Scram1/AF24NES.jpg,Scramble,Blue,Images/Blue.jpg,space,,,,,,,0,3,3,3,0,2,2,7,,,,,,,,,,,,,,,,,,,,,,,,,,,,,,,,,,,,,,,,,,,,,,,,,,,1.3,314.6031898999936,None,space,1,316.0120509000262,None,316.0120509000262,None,316.0120509000262,None,316.9082436999888,None,0.3463979999651201,,,,,,,,,,,,,,,,,,,,,,,,,,,,,,,,,,,,,,,,,,,,,,,,,P028,fencog,1,Pre,2022_Mar_08_1031,Go No-Go Task,2021.1.4,119.51143725302569,
EPracticeConditions/YellowScram.csv,"Rule: When you see a yellow image, do not press 'spacebar'.",Images/Scram2/HM06_NC.jpg,Scramble,Yellow,Images/Yellow.jpg,None,,,,,,,0,3,3,3,0,3,3,0,,,,,,,,,,,,,,,,,,,,,,,,,,,,,,,,,,,,,,,,,,,,,,,,,,,1.8,318.91198480001185,None,None,1,320.8273012000136,None,320.8273012000136,None,320.8273012000136,None,321.7234331999789,None,,,,,,,,,,,,,,,,,,,,,,,,,,,,,,,,,,,,,,,,,,,,,,,,,,P028,fencog,1,Pre,2022_Mar_08_1031,Go No-Go Task,2021.1.4,119.51143725302569,
EPracticeConditions/YellowScram.csv,"Rule: When you see a yellow image, do not press 'spacebar'.",Images/Scram1/AF10_NC.jpg,Scramble,Blue,Images/Blue.jpg,space,,,,,,,0,3,3,3,0,4,4,6,,,,,,,,,,,,,,,,,,,,,,,,,,,,,,,,,,,,,,,,,,,,,,,,,,,1.5,323.7302180000115,None,space,1,325.33421870000893,None,325.33421870000893,None,325.33421870000893,None,326.24021040002117,None,0.3121369000291452,,,,,,,,,,,,,,,,,,,,,,,,,,,,,,,,,,,,,,,,,,,,,,,,,P028,fencog,1,Pre,2022_Mar_08_1031,Go No-Go Task,2021.1.4,119.51143725302569,
EPracticeConditions/YellowScram.csv,"Rule: When you see a yellow image, do not press 'spacebar'.",Images/Scram2/AM03NES.jpg,Scramble,Yellow,Images/Yellow.jpg,None,,,,,,,0,3,3,3,0,5,5,1,,,,,,,,,,,,,,,,,,,,,,,,,,,,,,,,,,,,,,,,,,,,,,,,,,,1.4,328.2440157000092,None,space,0,329.7580259999959,None,329.7580259999959,None,329.7580259999959,None,330.6546182000311,None,0.24051580001832917,,,,,,,,,,,,,,,,,,,,,,,,,,,,,,,,,,,,,,,,,,,,,,,,,P028,fencog,1,Pre,2022_Mar_08_1031,Go No-Go Task,2021.1.4,119.51143725302569,
EPracticeConditions/YellowScram.csv,"Rule: When you see a yellow image, do not press 'spacebar'.",Images/Scram1/BM01_NC.jpg,Scramble,Blue,Images/Blue.jpg,space,,,,,,,0,3,3,3,0,6,6,5,,,,,,,,,,,,,,,,,,,,,,,,,,,,,,,,,,,,,,,,,,,,,,,,,,,1.9,332.66280549997464,None,space,1,334.6732270999928,None,334.6732270999928,None,334.6732270999928,None,335.56366440001875,None,0.26129799999762326,,,,,,,,,,,,,,,,,,,,,,,,,,,,,,,,,,,,,,,,,,,,,,,,,P028,fencog,1,Pre,2022_Mar_08_1031,Go No-Go Task,2021.1.4,119.51143725302569,
EPracticeConditions/YellowScram.csv,"Rule: When you see a yellow image, do not press 'spacebar'.",Images/Scram1/AF30NES.JPG,Scramble,Blue,Images/Blue.jpg,space,,,,,,,0,3,3,3,0,7,7,4,,,,,,,,,,,,,,,,,,,,,,,,,,,,,,,,,,,,,,,,,,,,,,,,,,,1.7,337.571025000012,None,space,1,339.38013150001643,None,339.38013150001643,None,339.38013150001643,None,340.2702301000245,None,0.37828070000978187,,,,,,,,,,,,,,,,,,,,,,,,,,,,,,,,,,,,,,,,,,,,,,,,,P028,fencog,1,Pre,2022_Mar_08_1031,Go No-Go Task,2021.1.4,119.51143725302569,
EPracticeConditions/YellowScram.csv,"Rule: When you see a yellow image, do not press 'spacebar'.",,,,,,,,,,,,0,3,3,3,,,,,,,,,,,,,,,,,,,,,,,,,,,,,,,,,,,,,,,,,,,,,,,,,,,,,,,,,,,,,,,,,,,,,,,,,,,,,,,,,,,,,,,,,,,,,,,,,,,,,,,,,,,,,,,,,,,,,P028,fencog,1,Pre,2022_Mar_08_1031,Go No-Go Task,2021.1.4,119.51143725302569,
,,,,,,,,,,,,,,,,,,,,,,,,,,,,,,,,,,,,,,,,,,,,,,,,,,,,,,,,,,,,,,,,,,,,,,,,,,,,,,,,,,,,,343.77302110003075,None,space,18.44113320001634,344.2534636000055,None,,,,,,,,,,,,,,,,,,,,,,,,,,,,,,,,,,,,,,,,,,,P028,fencog,1,Pre,2022_Mar_08_1031,Go No-Go Task,2021.1.4,119.51143725302569,
,,,,,,,,,,,,,,,,,,,,,,,,,,,,,,,,,,,,,,,,,,,,,,,,,,,,,,,,,,,,,,,,,,,,,,,,,,,,,,,,,,,,,,,,,,,362.7155866000103,None,space,2.410872200038284,362.7155866000103,None,,,,,,,,,,,,,,,,,,,,,,,,,,,,,,,,,,,,,P028,fencog,1,Pre,2022_Mar_08_1031,Go No-Go Task,2021.1.4,119.51143725302569,
,"Rule: When you see a yellow image, do not press 'spacebar'.",Images/Fearful/BM02_FC.jpg,Fear,Blue,Images/Blue.jpg,space,ParentConditions/YellowBlueBlue_v1.xlsx,BlueBlueYellow,Conditions/Version_1/YellowHappyStop.xlsx,no,PASS,0.44148177898618846,,,,,,,,,0,0,0,0,0,0,0,0,0,0,0,0,,,,,,,,,,,,,,,,,,,,,,,,,,,,,,,,,,,,,,,,,,,,,,,,,,,,,,,,,,,,,,,,,365.22530729998834,None,368.21245759999147,None,space,2.4974807999678887,368.21245759999147,None,365.22530729998834,None,365.22530729998834,None,365.22530729998834,None,1.57,370.7720375999925,None,space,1,0.3288252000347711,372.4458113000146,None,372.4458113000146,None,372.4458113000146,None,,,,,,,,,,,P028,fencog,1,Pre,2022_Mar_08_1031,Go No-Go Task,2021.1.4,119.51143725302569,
,"Rule: When you see a yellow image, do not press 'spacebar'.",Images/Fearful/HF05_FC.jpg,Fear,Blue,Images/Blue.jpg,space,ParentConditions/YellowBlueBlue_v1.xlsx,BlueBlueYellow,Conditions/Version_1/YellowHappyStop.xlsx,no,PASS,0.49496512693563743,,,,,,,,,0,0,0,0,0,0,0,0,0,1,1,1,,,,,,,,,,,,,,,,,,,,,,,,,,,,,,,,,,,,,,,,,,,,,,,,,,,,,,,,,,,,,,,,,,,,,,,,,,,,,,,1.2,372.8549406999955,None,space,1,0.27668319997610524,374.1697798999958,None,374.1697798999958,None,374.1697798999958,None,,,,,,,,,,,P028,fencog,1,Pre,2022_Mar_08_1031,Go No-Go Task,2021.1.4,119.51143725302569,
,"Rule: When you see a yellow image, do not press 'spacebar'.",Images/Happy/AF32HAS.jpg,Happy,Yellow,Images/Yellow.jpg,None,ParentConditions/YellowBlueBlue_v1.xlsx,BlueBlueYellow,Conditions/Version_1/YellowHappyStop.xlsx,yes,PASS,0.3690153910902233,,,,,,,,,0,0,0,0,0,0,0,0,0,2,2,2,,,,,,,,,,,,,,,,,,,,,,,,,,,,,,,,,,,,,,,,,,,,,,,,,,,,,,,,,,,,,,,,,,,,,,,,,,,,,,,1.61,374.5662419000291,None,None,1,,376.27746940002544,None,376.27746940002544,None,376.27746940002544,None,,,,,,,,,,,P028,fencog,1,Pre,2022_Mar_08_1031,Go No-Go Task,2021.1.4,119.51143725302569,
,"Rule: When you see a yellow image, do not press 'spacebar'.",Images/Happy/AM32HAS.jpg,Happy,Yellow,Images/Yellow.jpg,None,ParentConditions/YellowBlueBlue_v1.xlsx,BlueBlueYellow,Conditions/Version_1/YellowHappyStop.xlsx,yes,PASS,0.09240134349582851,,,,,,,,,0,0,0,0,0,0,0,0,0,3,3,3,,,,,,,,,,,,,,,,,,,,,,,,,,,,,,,,,,,,,,,,,,,,,,,,,,,,,,,,,,,,,,,,,,,,,,,,,,,,,,,1.65,376.6853546000202,None,space,0,0.2589956999872811,378.44352279999293,None,378.44352279999293,None,378.44352279999293,None,,,,,,,,,,,P028,fencog,1,Pre,2022_Mar_08_1031,Go No-Go Task,2021.1.4,119.51143725302569,
,"Rule: When you see a yellow image, do not press 'spacebar'.",Images/Fearful/AF07FS.jpg,Fear,Blue,Images/Blue.jpg,space,ParentConditions/YellowBlueBlue_v1.xlsx,BlueBlueYellow,Conditions/Version_1/YellowHappyStop.xlsx,no,PASS,0.4013300010309635,,,,,,,,,0,0,0,0,0,0,0,0,0,4,4,4,,,,,,,,,,,,,,,,,,,,,,,,,,,,,,,,,,,,,,,,,,,,,,,,,,,,,,,,,,,,,,,,,,,,,,,,,,,,,,,1.74,378.84115049999673,None,space,1,0.30579249997390434,380.6928271999932,None,380.6928271999932,None,380.6928271999932,None,,,,,,,,,,,P028,fencog,1,Pre,2022_Mar_08_1031,Go No-Go Task,2021.1.4,119.51143725302569,
,"Rule: When you see a yellow image, do not press 'spacebar'.",Images/Fearful/AM30AFS.jpg,Fear,Blue,Images/Blue.jpg,space,ParentConditions/YellowBlueBlue_v1.xlsx,BlueBlueYellow,Conditions/Version_1/YellowHappyStop.xlsx,no,PASS,0.5026512951867452,,,,,,,,,0,0,0,0,0,0,0,0,0,5,5,5,,,,,,,,,,,,,,,,,,,,,,,,,,,,,,,,,,,,,,,,,,,,,,,,,,,,,,,,,,,,,,,,,,,,,,,,,,,,,,,1.99,381.09093539998867,None,space,1,0.3510085999732837,383.1921301999828,None,383.1921301999828,None,383.1921301999828,None,,,,,,,,,,,P028,fencog,1,Pre,2022_Mar_08_1031,Go No-Go Task,2021.1.4,119.51143725302569,
,"Rule: When you see a yellow image, do not press 'spacebar'.",Images/Happy/BM03_HO.jpg,Happy,Yellow,Images/Yellow.jpg,None,ParentConditions/YellowBlueBlue_v1.xlsx,BlueBlueYellow,Conditions/Version_1/YellowHappyStop.xlsx,yes,PASS,0.3904556138764915,,,,,,,,,0,0,0,0,0,0,0,0,0,6,6,6,,,,,,,,,,,,,,,,,,,,,,,,,,,,,,,,,,,,,,,,,,,,,,,,,,,,,,,,,,,,,,,,,,,,,,,,,,,,,,,1.8,383.5913516000146,None,space,0,0.3222420000238344,385.4997488000081,None,385.4997488000081,None,385.4997488000081,None,,,,,,,,,,,P028,fencog,1,Pre,2022_Mar_08_1031,Go No-Go Task,2021.1.4,119.51143725302569,
,"Rule: When you see a yellow image, do not press 'spacebar'.",Images/Fearful/HM06_FC.jpg,Fear,Blue,Images/Blue.jpg,space,ParentConditions/YellowBlueBlue_v1.xlsx,BlueBlueYellow,Conditions/Version_1/YellowHappyStop.xlsx,no,PASS,0.8295870874618959,,,,,,,,,0,0,0,0,0,0,0,0,0,7,7,7,,,,,,,,,,,,,,,,,,,,,,,,,,,,,,,,,,,,,,,,,,,,,,,,,,,,,,,,,,,,,,,,,,,,,,,,,,,,,,,1.41,385.90533159999177,None,space,1,0.37433710001641884,387.4242106000311,None,387.4242106000311,None,387.4242106000311,None,,,,,,,,,,,P028,fencog,1,Pre,2022_Mar_08_1031,Go No-Go Task,2021.1.4,119.51143725302569,
,"Rule: When you see a yellow image, do not press 'spacebar'.",Images/Fearful/AF19AFS.jpg,Fear,Blue,Images/Blue.jpg,space,ParentConditions/YellowBlueBlue_v1.xlsx,BlueBlueYellow,Conditions/Version_1/YellowHappyStop.xlsx,no,PASS,0.31457189280880904,,,,,,,,,0,0,0,0,0,0,0,0,0,8,8,8,,,,,,,,,,,,,,,,,,,,,,,,,,,,,,,,,,,,,,,,,,,,,,,,,,,,,,,,,,,,,,,,,,,,,,,,,,,,,,,1.49,387.82703590003075,None,space,1,0.3265326999826357,389.4320143000223,None,389.4320143000223,None,389.4320143000223,None,,,,,,,,,,,P028,fencog,1,Pre,2022_Mar_08_1031,Go No-Go Task,2021.1.4,119.51143725302569,
,"Rule: When you see a yellow image, do not press 'spacebar'.",Images/Happy/AF30HAS.jpg,Happy,Yellow,Images/Yellow.jpg,None,ParentConditions/YellowBlueBlue_v1.xlsx,BlueBlueYellow,Conditions/Version_1/YellowHappyStop.xlsx,yes,PASS,0.14544836048525234,,,,,,,,,0,0,0,0,0,0,0,0,0,9,9,9,,,,,,,,,,,,,,,,,,,,,,,,,,,,,,,,,,,,,,,,,,,,,,,,,,,,,,,,,,,,,,,,,,,,,,,,,,,,,,,1.62,389.8323652999825,None,None,1,,391.5647542999941,None,391.5647542999941,None,391.5647542999941,None,,,,,,,,,,,P028,fencog,1,Pre,2022_Mar_08_1031,Go No-Go Task,2021.1.4,119.51143725302569,
,"Rule: When you see a yellow image, do not press 'spacebar'.",Images/Fearful/AF25AFS.jpg,Fear,Blue,Images/Blue.jpg,space,ParentConditions/YellowBlueBlue_v1.xlsx,BlueBlueYellow,Conditions/Version_1/YellowHappyStop.xlsx,no,PASS,0.31319631990865415,,,,,,,,,0,0,0,0,0,0,0,0,0,10,10,10,,,,,,,,,,,,,,,,,,,,,,,,,,,,,,,,,,,,,,,,,,,,,,,,,,,,,,,,,,,,,,,,,,,,,,,,,,,,,,,1.31,391.9678087999928,None,space,1,0.3450791999930516,393.39745779999066,None,393.39745779999066,None,393.39745779999066,None,,,,,,,,,,,P028,fencog,1,Pre,2022_Mar_08_1031,Go No-Go Task,2021.1.4,119.51143725302569,
,"Rule: When you see a yellow image, do not press 'spacebar'.",Images/Fearful/AF30AFS.jpg,Fear,Blue,Images/Blue.jpg,space,ParentConditions/YellowBlueBlue_v1.xlsx,BlueBlueYellow,Conditions/Version_1/YellowHappyStop.xlsx,no,PASS,0.9854799433848976,,,,,,,,,0,0,0,0,0,0,0,0,0,11,11,11,,,,,,,,,,,,,,,,,,,,,,,,,,,,,,,,,,,,,,,,,,,,,,,,,,,,,,,,,,,,,,,,,,,,,,,,,,,,,,,1.42,393.7933477999759,None,None,0,,395.3302298000199,None,395.3302298000199,None,395.3302298000199,None,,,,,,,,,,,P028,fencog,1,Pre,2022_Mar_08_1031,Go No-Go Task,2021.1.4,119.51143725302569,
,"Rule: When you see a yellow image, do not press 'spacebar'.",Images/Happy/BF10_HO.jpg,Happy,Yellow,Images/Yellow.jpg,None,ParentConditions/YellowBlueBlue_v1.xlsx,BlueBlueYellow,Conditions/Version_1/YellowHappyStop.xlsx,yes,PASS,0.9368187318754497,,,,,,,,,0,0,0,0,0,0,0,0,0,12,12,12,,,,,,,,,,,,,,,,,,,,,,,,,,,,,,,,,,,,,,,,,,,,,,,,,,,,,,,,,,,,,,,,,,,,,,,,,,,,,,,1.82,395.72078350000083,None,None,1,,397.65474430000177,None,397.65474430000177,None,397.65474430000177,None,,,,,,,,,,,P028,fencog,1,Pre,2022_Mar_08_1031,Go No-Go Task,2021.1.4,119.51143725302569,
,"Rule: When you see a yellow image, do not press 'spacebar'.",Images/Fearful/AM06_FO.jpg,Fear,Blue,Images/Blue.jpg,space,ParentConditions/YellowBlueBlue_v1.xlsx,BlueBlueYellow,Conditions/Version_1/YellowHappyStop.xlsx,no,PASS,0.6030700196123316,,,,,,,,,0,0,0,0,0,0,0,0,0,13,13,13,,,,,,,,,,,,,,,,,,,,,,,,,,,,,,,,,,,,,,,,,,,,,,,,,,,,,,,,,,,,,,,,,,,,,,,,,,,,,,,1.92,398.0532387000276,None,space,1,0.23951769998529926,400.0871958999778,None,400.0871958999778,None,400.0871958999778,None,,,,,,,,,,,P028,fencog,1,Pre,2022_Mar_08_1031,Go No-Go Task,2021.1.4,119.51143725302569,
,"Rule: When you see a yellow image, do not press 'spacebar'.",Images/Happy/AM24HAS.jpg,Happy,Yellow,Images/Yellow.jpg,None,ParentConditions/YellowBlueBlue_v1.xlsx,BlueBlueYellow,Conditions/Version_1/YellowHappyStop.xlsx,yes,PASS,0.8401488188278822,,,,,,,,,0,0,0,0,0,0,0,0,0,14,14,14,,,,,,,,,,,,,,,,,,,,,,,,,,,,,,,,,,,,,,,,,,,,,,,,,,,,,,,,,,,,,,,,,,,,,,,,,,,,,,,1.87,400.484972700011,None,None,1,,402.4698779999744,None,402.4698779999744,None,402.4698779999744,None,,,,,,,,,,,P028,fencog,1,Pre,2022_Mar_08_1031,Go No-Go Task,2021.1.4,119.51143725302569,
,"Rule: When you see a yellow image, do not press 'spacebar'.",Images/Fearful/AF21AFS.jpg,Fear,Blue,Images/Blue.jpg,space,ParentConditions/YellowBlueBlue_v1.xlsx,BlueBlueYellow,Conditions/Version_1/YellowHappyStop.xlsx,no,PASS,0.9561052396726243,,,,,,,,,0,0,0,0,0,0,0,0,0,15,15,15,,,,,,,,,,,,,,,,,,,,,,,,,,,,,,,,,,,,,,,,,,,,,,,,,,,,,,,,,,,,,,,,,,,,,,,,,,,,,,,1.29,402.86744170001475,None,space,1,0.2493928999756463,404.2692328999983,None,404.2692328999983,None,404.2692328999983,None,,,,,,,,,,,P028,fencog,1,Pre,2022_Mar_08_1031,Go No-Go Task,2021.1.4,119.51143725302569,
,"Rule: When you see a yellow image, do not press 'spacebar'.",Images/Happy/AM06_HC.jpg,Happy,Yellow,Images/Yellow.jpg,None,ParentConditions/YellowBlueBlue_v1.xlsx,BlueBlueYellow,Conditions/Version_1/YellowHappyStop.xlsx,yes,PASS,0.36325944609889094,,,,,,,,,0,0,0,0,0,0,0,0,0,16,16,16,,,,,,,,,,,,,,,,,,,,,,,,,,,,,,,,,,,,,,,,,,,,,,,,,,,,,,,,,,,,,,,,,,,,,,,,,,,,,,,1.26,404.6699611999793,None,space,0,0.37103330000536516,406.03537789999973,None,406.03537789999973,None,406.03537789999973,None,,,,,,,,,,,P028,fencog,1,Pre,2022_Mar_08_1031,Go No-Go Task,2021.1.4,119.51143725302569,
,"Rule: When you see a yellow image, do not press 'spacebar'.",Images/Fearful/AF10_FC.jpg,Fear,Blue,Images/Blue.jpg,space,ParentConditions/YellowBlueBlue_v1.xlsx,BlueBlueYellow,Conditions/Version_1/YellowHappyStop.xlsx,no,PASS,0.09357566512353055,,,,,,,,,0,0,0,0,0,0,0,0,0,17,17,17,,,,,,,,,,,,,,,,,,,,,,,,,,,,,,,,,,,,,,,,,,,,,,,,,,,,,,,,,,,,,,,,,,,,,,,,,,,,,,,1.94,406.4417897000094,None,space,1,0.3134334000060335,408.4929897999973,None,408.4929897999973,None,408.4929897999973,None,,,,,,,,,,,P028,fencog,1,Pre,2022_Mar_08_1031,Go No-Go Task,2021.1.4,119.51143725302569,
,"Rule: When you see a yellow image, do not press 'spacebar'.",Images/Fearful/BM03_FC.jpg,Fear,Blue,Images/Blue.jpg,space,ParentConditions/YellowBlueBlue_v1.xlsx,BlueBlueYellow,Conditions/Version_1/YellowHappyStop.xlsx,no,PASS,0.789884489320339,,,,,,,,,0,0,0,0,0,0,0,0,0,18,18,18,,,,,,,,,,,,,,,,,,,,,,,,,,,,,,,,,,,,,,,,,,,,,,,,,,,,,,,,,,,,,,,,,,,,,,,,,,,,,,,1.91,408.8902109999908,None,space,1,0.28200029995059595,410.908955299994,None,410.908955299994,None,410.908955299994,None,,,,,,,,,,,P028,fencog,1,Pre,2022_Mar_08_1031,Go No-Go Task,2021.1.4,119.51143725302569,
,"Rule: When you see a yellow image, do not press 'spacebar'.",Images/Fearful/HM09_FC.jpg,Fear,Blue,Images/Blue.jpg,space,ParentConditions/YellowBlueBlue_v1.xlsx,BlueBlueYellow,Conditions/Version_1/YellowHappyStop.xlsx,no,PASS,0.8198583361260475,,,,,,,,,0,0,0,0,0,0,0,0,0,19,19,19,,,,,,,,,,,,,,,,,,,,,,,,,,,,,,,,,,,,,,,,,,,,,,,,,,,,,,,,,,,,,,,,,,,,,,,,,,,,,,,1.86,411.31428170000436,None,space,1,0.3152634000289254,413.28327130002435,None,413.28327130002435,None,413.28327130002435,None,,,,,,,,,,,P028,fencog,1,Pre,2022_Mar_08_1031,Go No-Go Task,2021.1.4,119.51143725302569,
,"Rule: When you see a yellow image, do not press 'spacebar'.",Images/Fearful/AM04_FO.jpg,Fear,Blue,Images/Blue.jpg,space,ParentConditions/YellowBlueBlue_v1.xlsx,BlueBlueYellow,Conditions/Version_1/YellowHappyStop.xlsx,no,PASS,0.9595350245966109,,,,,,,,,0,0,0,0,0,0,0,0,0,20,20,20,,,,,,,,,,,,,,,,,,,,,,,,,,,,,,,,,,,,,,,,,,,,,,,,,,,,,,,,,,,,,,,,,,,,,,,,,,,,,,,1.22,413.6879900000058,None,None,0,,415.02452189999167,None,415.02452189999167,None,415.02452189999167,None,,,,,,,,,,,P028,fencog,1,Pre,2022_Mar_08_1031,Go No-Go Task,2021.1.4,119.51143725302569,
,"Rule: When you see a yellow image, do not press 'spacebar'.",Images/Fearful/AF11AFS.jpg,Fear,Blue,Images/Blue.jpg,space,ParentConditions/YellowBlueBlue_v1.xlsx,BlueBlueYellow,Conditions/Version_1/YellowHappyStop.xlsx,no,PASS,0.7276184017912607,,,,,,,,,0,0,0,0,0,0,0,0,0,21,21,21,,,,,,,,,,,,,,,,,,,,,,,,,,,,,,,,,,,,,,,,,,,,,,,,,,,,,,,,,,,,,,,,,,,,,,,,,,,,,,,1.81,415.42890780000016,None,space,1,0.34611570002743974,417.3488277000142,None,417.3488277000142,None,417.3488277000142,None,,,,,,,,,,,P028,fencog,1,Pre,2022_Mar_08_1031,Go No-Go Task,2021.1.4,119.51143725302569,
,"Rule: When you see a yellow image, do not press 'spacebar'.",Images/Fearful/AM10_FO.jpg,Fear,Blue,Images/Blue.jpg,space,ParentConditions/YellowBlueBlue_v1.xlsx,BlueBlueYellow,Conditions/Version_1/YellowHappyStop.xlsx,no,PASS,0.7995855816230459,,,,,,,,,0,0,0,0,0,0,0,0,0,22,22,22,,,,,,,,,,,,,,,,,,,,,,,,,,,,,,,,,,,,,,,,,,,,,,,,,,,,,,,,,,,,,,,,,,,,,,,,,,,,,,,1.4,417.7468499999959,None,space,1,0.31827559997327626,419.2564720999799,None,419.2564720999799,None,419.2564720999799,None,,,,,,,,,,,P028,fencog,1,Pre,2022_Mar_08_1031,Go No-Go Task,2021.1.4,119.51143725302569,
,"Rule: When you see a yellow image, do not press 'spacebar'.",Images/Fearful/WF04_FC.jpg,Fear,Blue,Images/Blue.jpg,space,ParentConditions/YellowBlueBlue_v1.xlsx,BlueBlueYellow,Conditions/Version_1/YellowHappyStop.xlsx,no,PASS,0.007163238332436372,,,,,,,,,0,0,0,0,0,0,0,0,0,23,23,23,,,,,,,,,,,,,,,,,,,,,,,,,,,,,,,,,,,,,,,,,,,,,,,,,,,,,,,,,,,,,,,,,,,,,,,,,,,,,,,1.58,419.6597737999982,None,space,1,0.32280540000647306,421.3558931000298,None,421.3558931000298,None,421.3558931000298,None,,,,,,,,,,,P028,fencog,1,Pre,2022_Mar_08_1031,Go No-Go Task,2021.1.4,119.51143725302569,
,"Rule: When you see a yellow image, do not press 'spacebar'.",Images/Fearful/AF28AFS.jpg,Fear,Blue,Images/Blue.jpg,space,ParentConditions/YellowBlueBlue_v1.xlsx,BlueBlueYellow,Conditions/Version_1/YellowHappyStop.xlsx,no,PASS,0.6578574406316495,,,,,,,,,0,0,0,0,0,0,0,0,0,24,24,24,,,,,,,,,,,,,,,,,,,,,,,,,,,,,,,,,,,,,,,,,,,,,,,,,,,,,,,,,,,,,,,,,,,,,,,,,,,,,,,1.48,421.75362360000145,None,space,1,0.33141730003990233,423.3469993000035,None,423.3469993000035,None,423.3469993000035,None,,,,,,,,,,,P028,fencog,1,Pre,2022_Mar_08_1031,Go No-Go Task,2021.1.4,119.51143725302569,
,"Rule: When you see a yellow image, do not press 'spacebar'.",Images/Fearful/WF11_FC.jpg,Fear,Blue,Images/Blue.jpg,space,ParentConditions/YellowBlueBlue_v1.xlsx,BlueBlueYellow,Conditions/Version_1/YellowHappyStop.xlsx,no,PASS,0.16001068916200367,,,,,,,,,0,0,0,0,0,0,0,0,0,25,25,25,,,,,,,,,,,,,,,,,,,,,,,,,,,,,,,,,,,,,,,,,,,,,,,,,,,,,,,,,,,,,,,,,,,,,,,,,,,,,,,1.53,423.7501815999858,None,space,1,0.23407429998042062,425.39634400000796,None,425.39634400000796,None,425.39634400000796,None,,,,,,,,,,,P028,fencog,1,Pre,2022_Mar_08_1031,Go No-Go Task,2021.1.4,119.51143725302569,
,"Rule: When you see a yellow image, do not press 'spacebar'.",Images/Fearful/AM17AFS.jpg,Fear,Blue,Images/Blue.jpg,space,ParentConditions/YellowBlueBlue_v1.xlsx,BlueBlueYellow,Conditions/Version_1/YellowHappyStop.xlsx,no,PASS,0.11773651559349041,,,,,,,,,0,0,0,0,0,0,0,0,0,26,26,26,,,,,,,,,,,,,,,,,,,,,,,,,,,,,,,,,,,,,,,,,,,,,,,,,,,,,,,,,,,,,,,,,,,,,,,,,,,,,,,1.59,425.8008522000164,None,space,1,0.1428468000376597,427.49572800000897,None,427.49572800000897,None,427.49572800000897,None,,,,,,,,,,,P028,fencog,1,Pre,2022_Mar_08_1031,Go No-Go Task,2021.1.4,119.51143725302569,
,"Rule: When you see a yellow image, do not press 'spacebar'.",Images/Happy/AF27HAS.jpg,Happy,Yellow,Images/Yellow.jpg,None,ParentConditions/YellowBlueBlue_v1.xlsx,BlueBlueYellow,Conditions/Version_1/YellowHappyStop.xlsx,yes,PASS,0.3141869564869746,,,,,,,,,0,0,0,0,0,0,0,0,0,27,27,27,,,,,,,,,,,,,,,,,,,,,,,,,,,,,,,,,,,,,,,,,,,,,,,,,,,,,,,,,,,,,,,,,,,,,,,,,,,,,,,1.98,427.9018608999904,None,None,1,,429.99498630000744,None,429.99498630000744,None,429.99498630000744,None,,,,,,,,,,,P028,fencog,1,Pre,2022_Mar_08_1031,Go No-Go Task,2021.1.4,119.51143725302569,
,"Rule: When you see a yellow image, do not press 'spacebar'.",Images/Fearful/BF10_FO.jpg,Fear,Blue,Images/Blue.jpg,space,ParentConditions/YellowBlueBlue_v1.xlsx,BlueBlueYellow,Conditions/Version_1/YellowHappyStop.xlsx,no,PASS,0.6473836402289548,,,,,,,,,0,0,0,0,0,0,0,0,0,28,28,28,,,,,,,,,,,,,,,,,,,,,,,,,,,,,,,,,,,,,,,,,,,,,,,,,,,,,,,,,,,,,,,,,,,,,,,,,,,,,,,1.88,430.3985081000137,None,space,1,0.24433610000414774,432.3855704999878,None,432.3855704999878,None,432.3855704999878,None,,,,,,,,,,,P028,fencog,1,Pre,2022_Mar_08_1031,Go No-Go Task,2021.1.4,119.51143725302569,
,"Rule: When you see a yellow image, do not press 'spacebar'.",Images/Fearful/HF04_FO.jpg,Fear,Blue,Images/Blue.jpg,space,ParentConditions/YellowBlueBlue_v1.xlsx,BlueBlueYellow,Conditions/Version_1/YellowHappyStop.xlsx,no,PASS,0.6573655365841123,,,,,,,,,0,0,0,0,0,0,0,0,0,29,29,29,,,,,,,,,,,,,,,,,,,,,,,,,,,,,,,,,,,,,,,,,,,,,,,,,,,,,,,,,,,,,,,,,,,,,,,,,,,,,,,2,432.7943363999948,None,space,1,0.20066490001045167,434.90181220002705,None,434.90181220002705,None,434.90181220002705,None,,,,,,,,,,,P028,fencog,1,Pre,2022_Mar_08_1031,Go No-Go Task,2021.1.4,119.51143725302569,
,"Rule: When you see a yellow image, do not press 'spacebar'.",Images/Happy/AF26HAS.jpg,Happy,Yellow,Images/Yellow.jpg,None,ParentConditions/YellowBlueBlue_v1.xlsx,BlueBlueYellow,Conditions/Version_1/YellowHappyStop.xlsx,yes,PASS,0.9634288273569958,,,,,,,,,0,0,0,0,0,0,0,0,0,30,30,30,,,,,,,,,,,,,,,,,,,,,,,,,,,,,,,,,,,,,,,,,,,,,,,,,,,,,,,,,,,,,,,,,,,,,,,,,,,,,,,1.64,435.310852900031,None,space,0,0.1790111999725923,437.0595573000028,None,437.0595573000028,None,437.0595573000028,None,,,,,,,,,,,P028,fencog,1,Pre,2022_Mar_08_1031,Go No-Go Task,2021.1.4,119.51143725302569,
,"Rule: When you see a yellow image, do not press 'spacebar'.",Images/Happy/HF09_HE.jpg,Happy,Yellow,Images/Yellow.jpg,None,ParentConditions/YellowBlueBlue_v1.xlsx,BlueBlueYellow,Conditions/Version_1/YellowHappyStop.xlsx,yes,PASS,0.28002812366142005,,,,,,,,,0,0,0,0,0,0,0,0,0,31,31,31,,,,,,,,,,,,,,,,,,,,,,,,,,,,,,,,,,,,,,,,,,,,,,,,,,,,,,,,,,,,,,,,,,,,,,,,,,,,,,,1.43,437.4601828000159,None,None,1,,439.00066560000414,None,439.00066560000414,None,439.00066560000414,None,,,,,,,,,,,P028,fencog,1,Pre,2022_Mar_08_1031,Go No-Go Task,2021.1.4,119.51143725302569,
,"Rule: When you see a yellow image, do not press 'spacebar'.",Images/Fearful/AM16AFS.jpg,Fear,Blue,Images/Blue.jpg,space,ParentConditions/YellowBlueBlue_v1.xlsx,BlueBlueYellow,Conditions/Version_1/YellowHappyStop.xlsx,no,PASS,0.5681414931312986,,,,,,,,,0,0,0,0,0,0,0,0,0,32,32,32,,,,,,,,,,,,,,,,,,,,,,,,,,,,,,,,,,,,,,,,,,,,,,,,,,,,,,,,,,,,,,,,,,,,,,,,,,,,,,,1.63,439.40016770001967,None,None,0,,441.14179540000623,None,441.14179540000623,None,441.14179540000623,None,,,,,,,,,,,P028,fencog,1,Pre,2022_Mar_08_1031,Go No-Go Task,2021.1.4,119.51143725302569,
,"Rule: When you see a yellow image, do not press 'spacebar'.",Images/Fearful/WF05_FO.jpg,Fear,Blue,Images/Blue.jpg,space,ParentConditions/YellowBlueBlue_v1.xlsx,BlueBlueYellow,Conditions/Version_1/YellowHappyStop.xlsx,no,PASS,0.23759173368539344,,,,,,,,,0,0,0,0,0,0,0,0,0,33,33,33,,,,,,,,,,,,,,,,,,,,,,,,,,,,,,,,,,,,,,,,,,,,,,,,,,,,,,,,,,,,,,,,,,,,,,,,,,,,,,,1.33,441.5404164000065,None,space,1,0.36741379997693,442.9828057999839,None,442.9828057999839,None,442.9828057999839,None,,,,,,,,,,,P028,fencog,1,Pre,2022_Mar_08_1031,Go No-Go Task,2021.1.4,119.51143725302569,
,"Rule: When you see a yellow image, do not press 'spacebar'.",Images/Fearful/AM03_FC.jpg,Fear,Blue,Images/Blue.jpg,space,ParentConditions/YellowBlueBlue_v1.xlsx,BlueBlueYellow,Conditions/Version_1/YellowHappyStop.xlsx,no,PASS,0.45277772012976447,,,,,,,,,0,0,0,0,0,0,0,0,0,34,34,34,,,,,,,,,,,,,,,,,,,,,,,,,,,,,,,,,,,,,,,,,,,,,,,,,,,,,,,,,,,,,,,,,,,,,,,,,,,,,,,1.9,443.3770062000258,None,space,1,0.3282560999505222,445.3904493000009,None,445.3904493000009,None,445.3904493000009,None,,,,,,,,,,,P028,fencog,1,Pre,2022_Mar_08_1031,Go No-Go Task,2021.1.4,119.51143725302569,
,"Rule: When you see a yellow image, do not press 'spacebar'.",Images/Fearful/AM01AFS.jpg,Fear,Blue,Images/Blue.jpg,space,ParentConditions/YellowBlueBlue_v1.xlsx,BlueBlueYellow,Conditions/Version_1/YellowHappyStop.xlsx,no,PASS,0.4826830931616207,,,,,,,,,0,0,0,0,0,0,0,0,0,35,35,35,,,,,,,,,,,,,,,,,,,,,,,,,,,,,,,,,,,,,,,,,,,,,,,,,,,,,,,,,,,,,,,,,,,,,,,,,,,,,,,1.47,445.7883180999779,None,space,1,0.34515989996725693,447.3733611999778,None,447.3733611999778,None,447.3733611999778,None,,,,,,,,,,,P028,fencog,1,Pre,2022_Mar_08_1031,Go No-Go Task,2021.1.4,119.51143725302569,
,"Rule: When you see a yellow image, do not press 'spacebar'.",Images/Fearful/HM04_FC.jpg,Fear,Blue,Images/Blue.jpg,space,ParentConditions/YellowBlueBlue_v1.xlsx,BlueBlueYellow,Conditions/Version_1/YellowHappyStop.xlsx,no,PASS,0.46069029171054665,,,,,,,,,0,0,0,0,0,0,0,0,0,36,36,36,,,,,,,,,,,,,,,,,,,,,,,,,,,,,,,,,,,,,,,,,,,,,,,,,,,,,,,,,,,,,,,,,,,,,,,,,,,,,,,1.45,447.7708134999848,None,space,1,0.34741539997048676,449.3310532000032,None,449.3310532000032,None,449.3310532000032,None,,,,,,,,,,,P028,fencog,1,Pre,2022_Mar_08_1031,Go No-Go Task,2021.1.4,119.51143725302569,
,"Rule: When you see a yellow image, do not press 'spacebar'.",Images/Fearful/BF18_FC.jpg,Fear,Blue,Images/Blue.jpg,space,ParentConditions/YellowBlueBlue_v1.xlsx,BlueBlueYellow,Conditions/Version_1/YellowHappyStop.xlsx,no,PASS,0.633030328468129,,,,,,,,,0,0,0,0,0,0,0,0,0,37,37,37,,,,,,,,,,,,,,,,,,,,,,,,,,,,,,,,,,,,,,,,,,,,,,,,,,,,,,,,,,,,,,,,,,,,,,,,,,,,,,,1.84,449.7280509999837,None,space,1,0.2609916999936104,451.68149769998854,None,451.68149769998854,None,451.68149769998854,None,,,,,,,,,,,P028,fencog,1,Pre,2022_Mar_08_1031,Go No-Go Task,2021.1.4,119.51143725302569,
,"Rule: When you see a yellow image, do not press 'spacebar'.",Images/Fearful/AF07_FO.jpg,Fear,Blue,Images/Blue.jpg,space,ParentConditions/YellowBlueBlue_v1.xlsx,BlueBlueYellow,Conditions/Version_1/YellowHappyStop.xlsx,no,PASS,0.34147832357579266,,,,,,,,,0,0,0,0,0,0,0,0,0,38,38,38,,,,,,,,,,,,,,,,,,,,,,,,,,,,,,,,,,,,,,,,,,,,,,,,,,,,,,,,,,,,,,,,,,,,,,,,,,,,,,,1.68,452.0778986000223,None,space,1,0.29557660000864416,453.8633085999754,None,453.8633085999754,None,453.8633085999754,None,,,,,,,,,,,P028,fencog,1,Pre,2022_Mar_08_1031,Go No-Go Task,2021.1.4,119.51143725302569,
,"Rule: When you see a yellow image, do not press 'spacebar'.",Images/Fearful/AM24AFS.jpg,Fear,Blue,Images/Blue.jpg,space,ParentConditions/YellowBlueBlue_v1.xlsx,BlueBlueYellow,Conditions/Version_1/YellowHappyStop.xlsx,no,PASS,0.778148808430259,,,,,,,,,0,0,0,0,0,0,0,0,0,39,39,39,,,,,,,,,,,,,,,,,,,,,,,,,,,,,,,,,,,,,,,,,,,,,,,,,,,,,,,,,,,,,,,,,,,,,,,,,,,,,,,1.44,454.2727396999835,None,None,0,,455.8290292000165,None,455.8290292000165,None,455.8290292000165,None,,,,,,,,,,,P028,fencog,1,Pre,2022_Mar_08_1031,Go No-Go Task,2021.1.4,119.51143725302569,
,"Rule: When you see a yellow image, do not press 'spacebar'.",Images/Fearful/AM03AFS.jpg,Fear,Blue,Images/Blue.jpg,space,ParentConditions/YellowBlueBlue_v1.xlsx,BlueBlueYellow,Conditions/Version_1/YellowHappyStop.xlsx,no,PASS,0.23044092834848573,,,,,,,,,0,0,0,0,0,0,0,0,0,40,40,40,,,,,,,,,,,,,,,,,,,,,,,,,,,,,,,,,,,,,,,,,,,,,,,,,,,,,,,,,,,,,,,,,,,,,,,,,,,,,,,1.75,456.2292634000187,None,space,1,0.37543499999446794,458.09502900001826,None,458.09502900001826,None,458.09502900001826,None,,,,,,,,,,,P028,fencog,1,Pre,2022_Mar_08_1031,Go No-Go Task,2021.1.4,119.51143725302569,
,"Rule: When you see a yellow image, do not press 'spacebar'.",Images/Fearful/BM08_FC.jpg,Fear,Blue,Images/Blue.jpg,space,ParentConditions/YellowBlueBlue_v1.xlsx,BlueBlueYellow,Conditions/Version_1/YellowHappyStop.xlsx,no,PASS,0.6548756521259214,,,,,,,,,0,0,0,0,0,0,0,0,0,41,41,41,,,,,,,,,,,,,,,,,,,,,,,,,,,,,,,,,,,,,,,,,,,,,,,,,,,,,,,,,,,,,,,,,,,,,,,,,,,,,,,1.24,458.5010685999878,None,space,1,0.2336424000095576,459.8528509999742,None,459.8528509999742,None,459.8528509999742,None,,,,,,,,,,,P028,fencog,1,Pre,2022_Mar_08_1031,Go No-Go Task,2021.1.4,119.51143725302569,
,"Rule: When you see a yellow image, do not press 'spacebar'.",Images/Fearful/AF32AFS.jpg,Fear,Blue,Images/Blue.jpg,space,ParentConditions/YellowBlueBlue_v1.xlsx,BlueBlueYellow,Conditions/Version_1/YellowHappyStop.xlsx,no,PASS,0.9401650545876452,,,,,,,,,0,0,0,0,0,0,0,0,0,42,42,42,,,,,,,,,,,,,,,,,,,,,,,,,,,,,,,,,,,,,,,,,,,,,,,,,,,,,,,,,,,,,,,,,,,,,,,,,,,,,,,1.66,460.2596802000189,None,space,1,0.3077711999649182,462.0268238999997,None,462.0268238999997,None,462.0268238999997,None,,,,,,,,,,,P028,fencog,1,Pre,2022_Mar_08_1031,Go No-Go Task,2021.1.4,119.51143725302569,
,"Rule: When you see a yellow image, do not press 'spacebar'.",Images/Fearful/AF26AFS.jpg,Fear,Blue,Images/Blue.jpg,space,ParentConditions/YellowBlueBlue_v1.xlsx,BlueBlueYellow,Conditions/Version_1/YellowHappyStop.xlsx,no,PASS,0.5799257276734284,,,,,,,,,0,0,0,0,0,0,0,0,0,43,43,43,,,,,,,,,,,,,,,,,,,,,,,,,,,,,,,,,,,,,,,,,,,,,,,,,,,,,,,,,,,,,,,,,,,,,,,,,,,,,,,1.52,462.4313343000249,None,space,1,0.27498390001710504,464.05159789999016,None,464.05159789999016,None,464.05159789999016,None,,,,,,,,,,,P028,fencog,1,Pre,2022_Mar_08_1031,Go No-Go Task,2021.1.4,119.51143725302569,
,"Rule: When you see a yellow image, do not press 'spacebar'.",Images/Fearful/BF09_FC.jpg,Fear,Blue,Images/Blue.jpg,space,ParentConditions/YellowBlueBlue_v1.xlsx,BlueBlueYellow,Conditions/Version_1/YellowHappyStop.xlsx,no,PASS,0.9512288628250045,,,,,,,,,0,0,0,0,0,0,0,0,0,44,44,44,,,,,,,,,,,,,,,,,,,,,,,,,,,,,,,,,,,,,,,,,,,,,,,,,,,,,,,,,,,,,,,,,,,,,,,,,,,,,,,1.69,464.45546089997515,None,space,1,0.18801189999794587,466.25099109997973,None,466.25099109997973,None,466.25099109997973,None,,,,,,,,,,,P028,fencog,1,Pre,2022_Mar_08_1031,Go No-Go Task,2021.1.4,119.51143725302569,
,"Rule: When you see a yellow image, do not press 'spacebar'.",Images/Fearful/BM01_FO.jpg,Fear,Blue,Images/Blue.jpg,space,ParentConditions/YellowBlueBlue_v1.xlsx,BlueBlueYellow,Conditions/Version_1/YellowHappyStop.xlsx,no,PASS,0.8954287307362916,,,,,,,,,0,0,0,0,0,0,0,0,0,45,45,45,,,,,,,,,,,,,,,,,,,,,,,,,,,,,,,,,,,,,,,,,,,,,,,,,,,,,,,,,,,,,,,,,,,,,,,,,,,,,,,1.25,466.6549533000216,None,space,1,0.22949150000931695,468.01709650002886,None,468.01709650002886,None,468.01709650002886,None,,,,,,,,,,,P028,fencog,1,Pre,2022_Mar_08_1031,Go No-Go Task,2021.1.4,119.51143725302569,
,"Rule: When you see a yellow image, do not press 'spacebar'.",Images/Happy/BF14_HO.jpg,Happy,Yellow,Images/Yellow.jpg,None,ParentConditions/YellowBlueBlue_v1.xlsx,BlueBlueYellow,Conditions/Version_1/YellowHappyStop.xlsx,yes,PASS,0.7234280216409134,,,,,,,,,0,0,0,0,0,0,0,0,0,46,46,46,,,,,,,,,,,,,,,,,,,,,,,,,,,,,,,,,,,,,,,,,,,,,,,,,,,,,,,,,,,,,,,,,,,,,,,,,,,,,,,1.39,468.42190509999637,None,space,0,0.2256648000329733,469.92488900001626,None,469.92488900001626,None,469.92488900001626,None,,,,,,,,,,,P028,fencog,1,Pre,2022_Mar_08_1031,Go No-Go Task,2021.1.4,119.51143725302569,
,"Rule: When you see a yellow image, do not press 'spacebar'.",Images/Fearful/WM11_FC.jpg,Fear,Blue,Images/Blue.jpg,space,ParentConditions/YellowBlueBlue_v1.xlsx,BlueBlueYellow,Conditions/Version_1/YellowHappyStop.xlsx,no,PASS,0.023552814974996727,,,,,,,,,0,0,0,0,0,0,0,0,0,47,47,47,,,,,,,,,,,,,,,,,,,,,,,,,,,,,,,,,,,,,,,,,,,,,,,,,,,,,,,,,,,,,,,,,,,,,,,,,,,,,,,1.96,470.3236805999768,None,space,1,0.21500460000243038,472.3991326999967,None,472.3991326999967,None,472.3991326999967,None,,,,,,,,,,,P028,fencog,1,Pre,2022_Mar_08_1031,Go No-Go Task,2021.1.4,119.51143725302569,
,"Rule: When you see a yellow image, do not press 'spacebar'.",Images/Fearful/AM02_FO.jpg,Fear,Blue,Images/Blue.jpg,space,ParentConditions/YellowBlueBlue_v1.xlsx,BlueBlueYellow,Conditions/Version_1/YellowHappyStop.xlsx,no,PASS,0.4906088235260202,,,,,,,,,0,0,0,0,0,0,0,0,0,48,48,48,,,,,,,,,,,,,,,,,,,,,,,,,,,,,,,,,,,,,,,,,,,,,,,,,,,,,,,,,,,,,,,,,,,,,,,,,,,,,,,1.32,472.79653900000267,None,space,1,0.26254029996925965,474.23191849997966,None,474.23191849997966,None,474.23191849997966,None,,,,,,,,,,,P028,fencog,1,Pre,2022_Mar_08_1031,Go No-Go Task,2021.1.4,119.51143725302569,
,"Rule: When you see a yellow image, do not press 'spacebar'.",Images/Happy/HM09_HO.jpg,Happy,Yellow,Images/Yellow.jpg,None,ParentConditions/YellowBlueBlue_v1.xlsx,BlueBlueYellow,Conditions/Version_1/YellowHappyStop.xlsx,yes,PASS,0.5172626673634482,,,,,,,,,0,0,0,0,0,0,0,0,0,49,49,49,,,,,,,,,,,,,,,,,,,,,,,,,,,,,,,,,,,,,,,,,,,,,,,,,,,,,,,,,,,,,,,,,,,,,,,,,,,,,,,1.93,474.63110709999455,None,space,0,0.22966200002701953,476.67298460000893,None,476.67298460000893,None,476.67298460000893,None,,,,,,,,,,,P028,fencog,1,Pre,2022_Mar_08_1031,Go No-Go Task,2021.1.4,119.51143725302569,
,"Rule: When you see a yellow image, do not press 'spacebar'.",Images/Happy/HF10_HE.jpg,Happy,Yellow,Images/Yellow.jpg,None,ParentConditions/YellowBlueBlue_v1.xlsx,BlueBlueYellow,Conditions/Version_1/YellowHappyStop.xlsx,yes,PASS,0.44150167084278924,,,,,,,,,0,0,0,0,0,0,0,0,0,50,50,50,,,,,,,,,,,,,,,,,,,,,,,,,,,,,,,,,,,,,,,,,,,,,,,,,,,,,,,,,,,,,,,,,,,,,,,,,,,,,,,1.89,477.0755099999951,None,None,1,,479.08052120002685,None,479.08052120002685,None,479.08052120002685,None,,,,,,,,,,,P028,fencog,1,Pre,2022_Mar_08_1031,Go No-Go Task,2021.1.4,119.51143725302569,
,"Rule: When you see a yellow image, do not press 'spacebar'.",Images/Fearful/AF09AFS.jpg,Fear,Blue,Images/Blue.jpg,space,ParentConditions/YellowBlueBlue_v1.xlsx,BlueBlueYellow,Conditions/Version_1/YellowHappyStop.xlsx,no,PASS,0.20329731425220043,,,,,,,,,0,0,0,0,0,0,0,0,0,51,51,51,,,,,,,,,,,,,,,,,,,,,,,,,,,,,,,,,,,,,,,,,,,,,,,,,,,,,,,,,,,,,,,,,,,,,,,,,,,,,,,1.51,479.4851382999914,None,None,0,,481.1049045000109,None,481.1049045000109,None,481.1049045000109,None,,,,,,,,,,,P028,fencog,1,Pre,2022_Mar_08_1031,Go No-Go Task,2021.1.4,119.51143725302569,
,"Rule: When you see a yellow image, do not press 'spacebar'.",Images/Fearful/AM23AFS.jpg,Fear,Blue,Images/Blue.jpg,space,ParentConditions/YellowBlueBlue_v1.xlsx,BlueBlueYellow,Conditions/Version_1/YellowHappyStop.xlsx,no,PASS,0.9134790301426777,,,,,,,,,0,0,0,0,0,0,0,0,0,52,52,52,,,,,,,,,,,,,,,,,,,,,,,,,,,,,,,,,,,,,,,,,,,,,,,,,,,,,,,,,,,,,,,,,,,,,,,,,,,,,,,1.78,481.5052583999932,None,space,1,0.24213630001759157,483.39635880000424,None,483.39635880000424,None,483.39635880000424,None,,,,,,,,,,,P028,fencog,1,Pre,2022_Mar_08_1031,Go No-Go Task,2021.1.4,119.51143725302569,
,"Rule: When you see a yellow image, do not press 'spacebar'.",Images/Fearful/AM05AFS.jpg,Fear,Blue,Images/Blue.jpg,space,ParentConditions/YellowBlueBlue_v1.xlsx,BlueBlueYellow,Conditions/Version_1/YellowHappyStop.xlsx,no,PASS,0.7369542946293995,,,,,,,,,0,0,0,0,0,0,0,0,0,53,53,53,,,,,,,,,,,,,,,,,,,,,,,,,,,,,,,,,,,,,,,,,,,,,,,,,,,,,,,,,,,,,,,,,,,,,,,,,,,,,,,1.54,483.7967483000248,None,space,1,0.2244217999977991,485.44616490002954,None,485.44616490002954,None,485.44616490002954,None,,,,,,,,,,,P028,fencog,1,Pre,2022_Mar_08_1031,Go No-Go Task,2021.1.4,119.51143725302569,
,"Rule: When you see a yellow image, do not press 'spacebar'.",Images/Happy/AF28HAS.jpg,Happy,Yellow,Images/Yellow.jpg,None,ParentConditions/YellowBlueBlue_v1.xlsx,BlueBlueYellow,Conditions/Version_1/YellowHappyStop.xlsx,yes,PASS,0.27168303726444554,,,,,,,,,0,0,0,0,0,0,0,0,0,54,54,54,,,,,,,,,,,,,,,,,,,,,,,,,,,,,,,,,,,,,,,,,,,,,,,,,,,,,,,,,,,,,,,,,,,,,,,,,,,,,,,1.37,485.8436322999769,None,None,1,,487.32807550003054,None,487.32807550003054,None,487.32807550003054,None,,,,,,,,,,,P028,fencog,1,Pre,2022_Mar_08_1031,Go No-Go Task,2021.1.4,119.51143725302569,
,"Rule: When you see a yellow image, do not press 'spacebar'.",Images/Fearful/BF14_FO.jpg,Fear,Blue,Images/Blue.jpg,space,ParentConditions/YellowBlueBlue_v1.xlsx,BlueBlueYellow,Conditions/Version_1/YellowHappyStop.xlsx,no,PASS,0.6433421649003036,,,,,,,,,0,0,0,0,0,0,0,0,0,55,55,55,,,,,,,,,,,,,,,,,,,,,,,,,,,,,,,,,,,,,,,,,,,,,,,,,,,,,,,,,,,,,,,,,,,,,,,,,,,,,,,1.97,487.72512700001244,None,space,1,0.19590260001132265,489.81072060001316,None,489.81072060001316,None,489.81072060001316,None,,,,,,,,,,,P028,fencog,1,Pre,2022_Mar_08_1031,Go No-Go Task,2021.1.4,119.51143725302569,
,"Rule: When you see a yellow image, do not press 'spacebar'.",Images/Happy/AM30HAS.jpg,Happy,Yellow,Images/Yellow.jpg,None,ParentConditions/YellowBlueBlue_v1.xlsx,BlueBlueYellow,Conditions/Version_1/YellowHappyStop.xlsx,yes,PASS,0.0794505415747715,,,,,,,,,0,0,0,0,0,0,0,0,0,56,56,56,,,,,,,,,,,,,,,,,,,,,,,,,,,,,,,,,,,,,,,,,,,,,,,,,,,,,,,,,,,,,,,,,,,,,,,,,,,,,,,1.3,490.21110890002456,None,space,0,0.23493780003627762,491.6271642000065,None,491.6271642000065,None,491.6271642000065,None,,,,,,,,,,,P028,fencog,1,Pre,2022_Mar_08_1031,Go No-Go Task,2021.1.4,119.51143725302569,
,"Rule: When you see a yellow image, do not press 'spacebar'.",Images/Fearful/AF27AFS.jpg,Fear,Blue,Images/Blue.jpg,space,ParentConditions/YellowBlueBlue_v1.xlsx,BlueBlueYellow,Conditions/Version_1/YellowHappyStop.xlsx,no,PASS,0.3935834771022866,,,,,,,,,0,0,0,0,0,0,0,0,0,57,57,57,,,,,,,,,,,,,,,,,,,,,,,,,,,,,,,,,,,,,,,,,,,,,,,,,,,,,,,,,,,,,,,,,,,,,,,,,,,,,,,1.72,492.0260693000164,None,space,1,0.25102460000198334,493.85948849999113,None,493.85948849999113,None,493.85948849999113,None,,,,,,,,,,,P028,fencog,1,Pre,2022_Mar_08_1031,Go No-Go Task,2021.1.4,119.51143725302569,
,"Rule: When you see a yellow image, do not press 'spacebar'.",Images/Fearful/AM32AFS.jpg,Fear,Blue,Images/Blue.jpg,space,ParentConditions/YellowBlueBlue_v1.xlsx,BlueBlueYellow,Conditions/Version_1/YellowHappyStop.xlsx,no,PASS,0.5614458224122035,,,,,,,,,0,0,0,0,0,0,0,0,0,58,58,58,,,,,,,,,,,,,,,,,,,,,,,,,,,,,,,,,,,,,,,,,,,,,,,,,,,,,,,,,,,,,,,,,,,,,,,,,,,,,,,1.5,494.2646596999839,None,space,1,0.2748853999655694,495.87577759998385,None,495.87577759998385,None,495.87577759998385,None,,,,,,,,,,,P028,fencog,1,Pre,2022_Mar_08_1031,Go No-Go Task,2021.1.4,119.51143725302569,
,"Rule: When you see a yellow image, do not press 'spacebar'.",Images/Fearful/AM09_FO.jpg,Fear,Blue,Images/Blue.jpg,space,ParentConditions/YellowBlueBlue_v1.xlsx,BlueBlueYellow,Conditions/Version_1/YellowHappyStop.xlsx,no,PASS,0.3933837419145386,,,,,,,,,0,0,0,0,0,0,0,0,0,59,59,59,,,,,,,,,,,,,,,,,,,,,,,,,,,,,,,,,,,,,,,,,,,,,,,,,,,,,,,,,,,,,,,,,,,,,,,,,,,,,,,1.77,496.27374779997626,None,None,0,,498.1581631000154,None,498.1581631000154,None,498.1581631000154,None,,,,,,,,,,,P028,fencog,1,Pre,2022_Mar_08_1031,Go No-Go Task,2021.1.4,119.51143725302569,
,"Rule: When you see a yellow image, do not press 'spacebar'.",Images/Fearful/AF01_FO.jpg,Fear,Blue,Images/Blue.jpg,space,ParentConditions/YellowBlueBlue_v1.xlsx,BlueBlueYellow,Conditions/Version_1/YellowHappyStop.xlsx,no,PASS,0.7419870009427991,,,,,,,,,0,0,0,0,0,0,0,0,0,60,60,60,,,,,,,,,,,,,,,,,,,,,,,,,,,,,,,,,,,,,,,,,,,,,,,,,,,,,,,,,,,,,,,,,,,,,,,,,,,,,,,1.6,498.558692599996,None,None,0,,500.2743210999761,None,500.2743210999761,None,500.2743210999761,None,,,,,,,,,,,P028,fencog,1,Pre,2022_Mar_08_1031,Go No-Go Task,2021.1.4,119.51143725302569,
,"Rule: When you see a yellow image, do not press 'spacebar'.",Images/Happy/AM10_HO.jpg,Happy,Yellow,Images/Yellow.jpg,None,ParentConditions/YellowBlueBlue_v1.xlsx,BlueBlueYellow,Conditions/Version_1/YellowHappyStop.xlsx,yes,PASS,0.7352402085502512,,,,,,,,,0,0,0,0,0,0,0,0,0,61,61,61,,,,,,,,,,,,,,,,,,,,,,,,,,,,,,,,,,,,,,,,,,,,,,,,,,,,,,,,,,,,,,,,,,,,,,,,,,,,,,,1.73,500.67125319998013,None,None,1,,502.51529499999015,None,502.51529499999015,None,502.51529499999015,None,,,,,,,,,,,P028,fencog,1,Pre,2022_Mar_08_1031,Go No-Go Task,2021.1.4,119.51143725302569,
,"Rule: When you see a yellow image, do not press 'spacebar'.",Images/Happy/AM22HAS.jpg,Happy,Yellow,Images/Yellow.jpg,None,ParentConditions/YellowBlueBlue_v1.xlsx,BlueBlueYellow,Conditions/Version_1/YellowHappyStop.xlsx,yes,PASS,0.27838589915801637,,,,,,,,,0,0,0,0,0,0,0,0,0,62,62,62,,,,,,,,,,,,,,,,,,,,,,,,,,,,,,,,,,,,,,,,,,,,,,,,,,,,,,,,,,,,,,,,,,,,,,,,,,,,,,,1.34,502.9172906000167,None,space,0,0.20956270000897348,504.37304179999046,None,504.37304179999046,None,504.37304179999046,None,,,,,,,,,,,P028,fencog,1,Pre,2022_Mar_08_1031,Go No-Go Task,2021.1.4,119.51143725302569,
,"Rule: When you see a yellow image, do not press 'spacebar'.",Images/Fearful/AM22AFS.jpg,Fear,Blue,Images/Blue.jpg,space,ParentConditions/YellowBlueBlue_v1.xlsx,BlueBlueYellow,Conditions/Version_1/YellowHappyStop.xlsx,no,PASS,0.012398818855924532,,,,,,,,,0,0,0,0,0,0,0,0,0,63,63,63,,,,,,,,,,,,,,,,,,,,,,,,,,,,,,,,,,,,,,,,,,,,,,,,,,,,,,,,,,,,,,,,,,,,,,,,,,,,,,,1.76,504.7702810000046,None,space,1,0.34336449997499585,506.63914290000685,None,506.63914290000685,None,506.63914290000685,None,,,,,,,,,,,P028,fencog,1,Pre,2022_Mar_08_1031,Go No-Go Task,2021.1.4,119.51143725302569,
,"Rule: When you see a yellow image, do not press 'spacebar'.",Images/Happy/BM08_HO.jpg,Happy,Yellow,Images/Yellow.jpg,None,ParentConditions/YellowBlueBlue_v1.xlsx,BlueBlueYellow,Conditions/Version_1/YellowHappyStop.xlsx,yes,PASS,0.25791881247444226,,,,,,,,,0,0,0,0,0,0,0,0,0,64,64,64,,,,,,,,,,,,,,,,,,,,,,,,,,,,,,,,,,,,,,,,,,,,,,,,,,,,,,,,,,,,,,,,,,,,,,,,,,,,,,,1.85,507.0361974000116,None,None,1,,509.00503860000754,None,509.00503860000754,None,509.00503860000754,None,,,,,,,,,,,P028,fencog,1,Pre,2022_Mar_08_1031,Go No-Go Task,2021.1.4,119.51143725302569,
,"Rule: When you see a yellow image, do not press 'spacebar'.",Images/Fearful/AM19AFS.jpg,Fear,Blue,Images/Blue.jpg,space,ParentConditions/YellowBlueBlue_v1.xlsx,BlueBlueYellow,Conditions/Version_1/YellowHappyStop.xlsx,no,PASS,0.4570092371665587,,,,,,,,,0,0,0,0,0,0,0,0,0,65,65,65,,,,,,,,,,,,,,,,,,,,,,,,,,,,,,,,,,,,,,,,,,,,,,,,,,,,,,,,,,,,,,,,,,,,,,,,,,,,,,,1.28,509.3962333999807,None,space,1,0.31454170000506565,510.7878701000009,None,510.7878701000009,None,510.7878701000009,None,,,,,,,,,,,P028,fencog,1,Pre,2022_Mar_08_1031,Go No-Go Task,2021.1.4,119.51143725302569,
,"Rule: When you see a yellow image, do not press 'spacebar'.",Images/Fearful/AF23AFS.jpg,Fear,Blue,Images/Blue.jpg,space,ParentConditions/YellowBlueBlue_v1.xlsx,BlueBlueYellow,Conditions/Version_1/YellowHappyStop.xlsx,no,PASS,0.9065930904744121,,,,,,,,,0,0,0,0,0,0,0,0,0,66,66,66,,,,,,,,,,,,,,,,,,,,,,,,,,,,,,,,,,,,,,,,,,,,,,,,,,,,,,,,,,,,,,,,,,,,,,,,,,,,,,,1.35,511.189208100026,None,space,1,0.35356739995768294,512.6539403999923,None,512.6539403999923,None,512.6539403999923,None,,,,,,,,,,,P028,fencog,1,Pre,2022_Mar_08_1031,Go No-Go Task,2021.1.4,119.51143725302569,
,"Rule: When you see a yellow image, do not press 'spacebar'.",Images/Fearful/AM13AFS.jpg,Fear,Blue,Images/Blue.jpg,space,ParentConditions/YellowBlueBlue_v1.xlsx,BlueBlueYellow,Conditions/Version_1/YellowHappyStop.xlsx,no,PASS,0.672217887403839,,,,,,,,,0,0,0,0,0,0,0,0,0,67,67,67,,,,,,,,,,,,,,,,,,,,,,,,,,,,,,,,,,,,,,,,,,,,,,,,,,,,,,,,,,,,,,,,,,,,,,,,,,,,,,,1.95,513.0512267000158,None,space,1,0.24700519995531067,515.1115746999858,None,515.1115746999858,None,515.1115746999858,None,,,,,,,,,,,P028,fencog,1,Pre,2022_Mar_08_1031,Go No-Go Task,2021.1.4,119.51143725302569,
,"Rule: When you see a yellow image, do not press 'spacebar'.",Images/Fearful/HF09_FC.jpg,Fear,Blue,Images/Blue.jpg,space,ParentConditions/YellowBlueBlue_v1.xlsx,BlueBlueYellow,Conditions/Version_1/YellowHappyStop.xlsx,no,PASS,0.947763278232759,,,,,,,,,0,0,0,0,0,0,0,0,0,68,68,68,,,,,,,,,,,,,,,,,,,,,,,,,,,,,,,,,,,,,,,,,,,,,,,,,,,,,,,,,,,,,,,,,,,,,,,,,,,,,,,1.38,515.5103704999783,None,space,1,0.3483111999812536,517.0027857000241,None,517.0027857000241,None,517.0027857000241,None,,,,,,,,,,,P028,fencog,1,Pre,2022_Mar_08_1031,Go No-Go Task,2021.1.4,119.51143725302569,
,"Rule: When you see a yellow image, do not press 'spacebar'.",Images/Fearful/AM04AFS.jpg,Fear,Blue,Images/Blue.jpg,space,ParentConditions/YellowBlueBlue_v1.xlsx,BlueBlueYellow,Conditions/Version_1/YellowHappyStop.xlsx,no,PASS,0.7155710730323807,,,,,,,,,0,0,0,0,0,0,0,0,0,69,69,69,,,,,,,,,,,,,,,,,,,,,,,,,,,,,,,,,,,,,,,,,,,,,,,,,,,,,,,,,,,,,,,,,,,,,,,,,,,,,,,1.27,517.3998467000201,None,space,1,0.11714789998950437,518.7772475000238,None,518.7772475000238,None,518.7772475000238,None,,,,,,,,,,,P028,fencog,1,Pre,2022_Mar_08_1031,Go No-Go Task,2021.1.4,119.51143725302569,
,"Rule: When you see a yellow image, do not press 'spacebar'.",Images/Fearful/AF02AFS.jpg,Fear,Blue,Images/Blue.jpg,space,ParentConditions/YellowBlueBlue_v1.xlsx,BlueBlueYellow,Conditions/Version_1/YellowHappyStop.xlsx,no,PASS,0.9864792225255055,,,,,,,,,0,0,0,0,0,0,0,0,0,70,70,70,,,,,,,,,,,,,,,,,,,,,,,,,,,,,,,,,,,,,,,,,,,,,,,,,,,,,,,,,,,,,,,,,,,,,,,,,,,,,,,1.7,519.1838032000232,None,space,1,0.3417444999795407,520.9848180999979,None,520.9848180999979,None,520.9848180999979,None,,,,,,,,,,,P028,fencog,1,Pre,2022_Mar_08_1031,Go No-Go Task,2021.1.4,119.51143725302569,
,"Rule: When you see a yellow image, do not press 'spacebar'.",Images/Fearful/AM09AFS.jpg,Fear,Blue,Images/Blue.jpg,space,ParentConditions/YellowBlueBlue_v1.xlsx,BlueBlueYellow,Conditions/Version_1/YellowHappyStop.xlsx,no,PASS,0.8390326237024166,,,,,,,,,0,0,0,0,0,0,0,0,0,71,71,71,,,,,,,,,,,,,,,,,,,,,,,,,,,,,,,,,,,,,,,,,,,,,,,,,,,,,,,,,,,,,,,,,,,,,,,,,,,,,,,1.56,521.3885235000052,None,None,0,,523.0508628999814,None,523.0508628999814,None,523.0508628999814,None,,,,,,,,,,,P028,fencog,1,Pre,2022_Mar_08_1031,Go No-Go Task,2021.1.4,119.51143725302569,
,"Rule: When you see a yellow image, do not press 'spacebar'.",Images/Fearful/BF05_FO.jpg,Fear,Blue,Images/Blue.jpg,space,ParentConditions/YellowBlueBlue_v1.xlsx,BlueBlueYellow,Conditions/Version_1/YellowHappyStop.xlsx,no,PASS,0.691917879610661,,,,,,,,,0,0,0,0,0,0,0,0,0,72,72,72,,,,,,,,,,,,,,,,,,,,,,,,,,,,,,,,,,,,,,,,,,,,,,,,,,,,,,,,,,,,,,,,,,,,,,,,,,,,,,,1.79,523.4595934000099,None,space,1,0.368030599958729,525.3585550999851,None,525.3585550999851,None,525.3585550999851,None,,,,,,,,,,,P028,fencog,1,Pre,2022_Mar_08_1031,Go No-Go Task,2021.1.4,119.51143725302569,
,"Rule: When you see a yellow image, do not press 'spacebar'.",Images/Fearful/AF22AFS.jpg,Fear,Blue,Images/Blue.jpg,space,ParentConditions/YellowBlueBlue_v1.xlsx,BlueBlueYellow,Conditions/Version_1/YellowHappyStop.xlsx,no,PASS,0.03529836358299465,,,,,,,,,0,0,0,0,0,0,0,0,0,73,73,73,,,,,,,,,,,,,,,,,,,,,,,,,,,,,,,,,,,,,,,,,,,,,,,,,,,,,,,,,,,,,,,,,,,,,,,,,,,,,,,1.71,525.7553954999894,None,space,1,0.28664350003236905,527.5757943000062,None,527.5757943000062,None,527.5757943000062,None,,,,,,,,,,,P028,fencog,1,Pre,2022_Mar_08_1031,Go No-Go Task,2021.1.4,119.51143725302569,
,"Rule: When you see a yellow image, do not press 'spacebar'.",Images/Happy/BF18_HO.jpg,Happy,Yellow,Images/Yellow.jpg,None,ParentConditions/YellowBlueBlue_v1.xlsx,BlueBlueYellow,Conditions/Version_1/YellowHappyStop.xlsx,yes,PASS,0.4232691792902379,,,,,,,,,0,0,0,0,0,0,0,0,0,74,74,74,,,,,,,,,,,,,,,,,,,,,,,,,,,,,,,,,,,,,,,,,,,,,,,,,,,,,,,,,,,,,,,,,,,,,,,,,,,,,,,1.36,527.9723773000296,None,None,1,,529.4323244999978,None,529.4323244999978,None,529.4323244999978,None,,,,,,,,,,,P028,fencog,1,Pre,2022_Mar_08_1031,Go No-Go Task,2021.1.4,119.51143725302569,
,"Rule: When you see a yellow image, do not press 'spacebar'.",Images/Fearful/WM12_FO.jpg,Fear,Blue,Images/Blue.jpg,space,ParentConditions/YellowBlueBlue_v1.xlsx,BlueBlueYellow,Conditions/Version_1/YellowHappyStop.xlsx,no,PASS,0.34671640176200413,,,,,,,,,0,0,0,0,0,0,0,0,0,75,75,75,,,,,,,,,,,,,,,,,,,,,,,,,,,,,,,,,,,,,,,,,,,,,,,,,,,,,,,,,,,,,,,,,,,,,,,,,,,,,,,1.46,529.8376930999802,None,space,1,0.17583810002543032,531.4067245000042,None,531.4067245000042,None,531.4067245000042,None,,,,,,,,,,,P028,fencog,1,Pre,2022_Mar_08_1031,Go No-Go Task,2021.1.4,119.51143725302569,
,"Rule: When you see a yellow image, do not press 'spacebar'.",Images/Fearful/BF07_FO.jpg,Fear,Blue,Images/Blue.jpg,space,ParentConditions/YellowBlueBlue_v1.xlsx,BlueBlueYellow,Conditions/Version_1/YellowHappyStop.xlsx,no,PASS,0.2992945798396267,,,,,,,,,0,0,0,0,0,0,0,0,0,76,76,76,,,,,,,,,,,,,,,,,,,,,,,,,,,,,,,,,,,,,,,,,,,,,,,,,,,,,,,,,,,,,,,,,,,,,,,,,,,,,,,1.23,531.8051035000244,None,space,1,0.28279379999730736,533.1475468000281,None,533.1475468000281,None,533.1475468000281,None,,,,,,,,,,,P028,fencog,1,Pre,2022_Mar_08_1031,Go No-Go Task,2021.1.4,119.51143725302569,
,"Rule: When you see a yellow image, do not press 'spacebar'.",Images/Fearful/HF10_FO.jpg,Fear,Blue,Images/Blue.jpg,space,ParentConditions/YellowBlueBlue_v1.xlsx,BlueBlueYellow,Conditions/Version_1/YellowHappyStop.xlsx,no,PASS,0.06506977473557796,,,,,,,,,0,0,0,0,0,0,0,0,0,77,77,77,,,,,,,,,,,,,,,,,,,,,,,,,,,,,,,,,,,,,,,,,,,,,,,,,,,,,,,,,,,,,,,,,,,,,,,,,,,,,,,1.83,533.5537298999843,None,space,1,0.1648636999889277,535.4972328000003,None,535.4972328000003,None,535.4972328000003,None,,,,,,,,,,,P028,fencog,1,Pre,2022_Mar_08_1031,Go No-Go Task,2021.1.4,119.51143725302569,
,"Rule: When you see a yellow image, do not press 'spacebar'.",Images/Fearful/AM10AFS.jpg,Fear,Blue,Images/Blue.jpg,space,ParentConditions/YellowBlueBlue_v1.xlsx,BlueBlueYellow,Conditions/Version_1/YellowHappyStop.xlsx,no,PASS,0.4391085826227009,,,,,,,,,0,0,0,0,0,0,0,0,0,78,78,78,,,,,,,,,,,,,,,,,,,,,,,,,,,,,,,,,,,,,,,,,,,,,,,,,,,,,,,,,,,,,,,,,,,,,,,,,,,,,,,1.55,535.9017191000166,None,space,1,0.2353385000023991,537.563287500001,None,537.563287500001,None,537.563287500001,None,,,,,,,,,,,P028,fencog,1,Pre,2022_Mar_08_1031,Go No-Go Task,2021.1.4,119.51143725302569,
,"Rule: When you see a yellow image, do not press 'spacebar'.",Images/Happy/AM23HAS.jpg,Happy,Yellow,Images/Yellow.jpg,None,ParentConditions/YellowBlueBlue_v1.xlsx,BlueBlueYellow,Conditions/Version_1/YellowHappyStop.xlsx,yes,PASS,0.8296456455429673,,,,,,,,,0,0,0,0,0,0,0,0,0,79,79,79,,,,,,,,,,,,,,,,,,,,,,,,,,,,,,,,,,,,,,,,,,,,,,,,,,,,,,,,,,,,,,,,,,,,,,,,,,,,,,,1.67,537.9661475000321,None,space,0,0.2925716999452561,539.7459944000002,None,539.7459944000002,None,539.7459944000002,None,,,,,,,,,,,P028,fencog,1,Pre,2022_Mar_08_1031,Go No-Go Task,2021.1.4,119.51143725302569,
,"Rule: When you see blue image, do not press 'spacebar'.",Images/Fearful/HM06_FC.jpg,Fear,Blue,Images/Blue.jpg,None,ParentConditions/YellowBlueBlue_v1.xlsx,BlueBlueYellow,Conditions/Version_1/BlueFearStop.xlsx,yes,PASS,0.7729813006314565,,,,,,,,,0,0,0,0,0,1,1,1,0,0,0,0,,,,,,,,,,,,,,,,,,,,,,,,,,,,,,,,,,,,,,,,,,,,,,,,,,,,,,,,,,,,,,,,,596.5018371000187,None,599.4859820000129,None,space,0.9359924999880604,599.4859820000129,None,596.5018371000187,None,596.5018371000187,None,596.5018371000187,None,1.94,600.4730427999748,None,None,1,,602.5274655999965,None,602.5274655999965,None,602.5274655999965,None,540.1704737999826,None,space,55.82476889999816,540.6533516999916,None,540.1704737999826,None,540.1704737999826,None,P028,fencog,1,Pre,2022_Mar_08_1031,Go No-Go Task,2021.1.4,119.51143725302569,
,"Rule: When you see blue image, do not press 'spacebar'.",Images/Happy/AF07HAS.jpg,Happy,Yellow,Images/Yellow.jpg,space,ParentConditions/YellowBlueBlue_v1.xlsx,BlueBlueYellow,Conditions/Version_1/BlueFearStop.xlsx,no,PASS,0.4924453653062516,,,,,,,,,0,0,0,0,0,1,1,1,0,1,1,1,,,,,,,,,,,,,,,,,,,,,,,,,,,,,,,,,,,,,,,,,,,,,,,,,,,,,,,,,,,,,,,,,,,,,,,,,,,,,,,1.99,602.9311215999769,None,space,1,0.26739250001264736,605.0350225000293,None,605.0350225000293,None,605.0350225000293,None,,,,,,,,,,,P028,fencog,1,Pre,2022_Mar_08_1031,Go No-Go Task,2021.1.4,119.51143725302569,
,"Rule: When you see blue image, do not press 'spacebar'.",Images/Happy/AF28HAS.jpg,Happy,Yellow,Images/Yellow.jpg,space,ParentConditions/YellowBlueBlue_v1.xlsx,BlueBlueYellow,Conditions/Version_1/BlueFearStop.xlsx,no,PASS,0.8943473655540664,,,,,,,,,0,0,0,0,0,1,1,1,0,2,2,2,,,,,,,,,,,,,,,,,,,,,,,,,,,,,,,,,,,,,,,,,,,,,,,,,,,,,,,,,,,,,,,,,,,,,,,,,,,,,,,1.86,605.4369667000137,None,space,1,0.34167539997724816,607.4009878999786,None,607.4009878999786,None,607.4009878999786,None,,,,,,,,,,,P028,fencog,1,Pre,2022_Mar_08_1031,Go No-Go Task,2021.1.4,119.51143725302569,
,"Rule: When you see blue image, do not press 'spacebar'.",Images/Happy/AF22HAS.jpg,Happy,Yellow,Images/Yellow.jpg,space,ParentConditions/YellowBlueBlue_v1.xlsx,BlueBlueYellow,Conditions/Version_1/BlueFearStop.xlsx,no,PASS,0.5892765061873407,,,,,,,,,0,0,0,0,0,1,1,1,0,3,3,3,,,,,,,,,,,,,,,,,,,,,,,,,,,,,,,,,,,,,,,,,,,,,,,,,,,,,,,,,,,,,,,,,,,,,,,,,,,,,,,1.28,607.8102909000008,None,space,1,0.3506702000158839,609.1919188000029,None,609.1919188000029,None,609.1919188000029,None,,,,,,,,,,,P028,fencog,1,Pre,2022_Mar_08_1031,Go No-Go Task,2021.1.4,119.51143725302569,
,"Rule: When you see blue image, do not press 'spacebar'.",Images/Fearful/AF27AFS.jpg,Fear,Blue,Images/Blue.jpg,None,ParentConditions/YellowBlueBlue_v1.xlsx,BlueBlueYellow,Conditions/Version_1/BlueFearStop.xlsx,yes,PASS,0.41428581318896585,,,,,,,,,0,0,0,0,0,1,1,1,0,4,4,4,,,,,,,,,,,,,,,,,,,,,,,,,,,,,,,,,,,,,,,,,,,,,,,,,,,,,,,,,,,,,,,,,,,,,,,,,,,,,,,1.41,609.597409399983,None,None,1,,611.1166120999842,None,611.1166120999842,None,611.1166120999842,None,,,,,,,,,,,P028,fencog,1,Pre,2022_Mar_08_1031,Go No-Go Task,2021.1.4,119.51143725302569,
,"Rule: When you see blue image, do not press 'spacebar'.",Images/Happy/AM24HAS.jpg,Happy,Yellow,Images/Yellow.jpg,space,ParentConditions/YellowBlueBlue_v1.xlsx,BlueBlueYellow,Conditions/Version_1/BlueFearStop.xlsx,no,PASS,0.8126867400025187,,,,,,,,,0,0,0,0,0,1,1,1,0,5,5,5,,,,,,,,,,,,,,,,,,,,,,,,,,,,,,,,,,,,,,,,,,,,,,,,,,,,,,,,,,,,,,,,,,,,,,,,,,,,,,,1.3,611.5157370999805,None,space,1,0.2583674000343308,612.9243705000263,None,612.9243705000263,None,612.9243705000263,None,,,,,,,,,,,P028,fencog,1,Pre,2022_Mar_08_1031,Go No-Go Task,2021.1.4,119.51143725302569,
,"Rule: When you see blue image, do not press 'spacebar'.",Images/Fearful/AF26AFS.jpg,Fear,Blue,Images/Blue.jpg,None,ParentConditions/YellowBlueBlue_v1.xlsx,BlueBlueYellow,Conditions/Version_1/BlueFearStop.xlsx,yes,PASS,0.7771539142714355,,,,,,,,,0,0,0,0,0,1,1,1,0,6,6,6,,,,,,,,,,,,,,,,,,,,,,,,,,,,,,,,,,,,,,,,,,,,,,,,,,,,,,,,,,,,,,,,,,,,,,,,,,,,,,,1.68,613.3243641000008,None,space,0,0.2349664000212215,615.1154242000193,None,615.1154242000193,None,615.1154242000193,None,,,,,,,,,,,P028,fencog,1,Pre,2022_Mar_08_1031,Go No-Go Task,2021.1.4,119.51143725302569,
,"Rule: When you see blue image, do not press 'spacebar'.",Images/Happy/WM11_HC.jpg,Happy,Yellow,Images/Yellow.jpg,space,ParentConditions/YellowBlueBlue_v1.xlsx,BlueBlueYellow,Conditions/Version_1/BlueFearStop.xlsx,no,PASS,0.612727142386838,,,,,,,,,0,0,0,0,0,1,1,1,0,7,7,7,,,,,,,,,,,,,,,,,,,,,,,,,,,,,,,,,,,,,,,,,,,,,,,,,,,,,,,,,,,,,,,,,,,,,,,,,,,,,,,1.64,615.520935699984,None,space,1,0.27727610000874847,617.2730813000235,None,617.2730813000235,None,617.2730813000235,None,,,,,,,,,,,P028,fencog,1,Pre,2022_Mar_08_1031,Go No-Go Task,2021.1.4,119.51143725302569,
,"Rule: When you see blue image, do not press 'spacebar'.",Images/Happy/BM03_HO.jpg,Happy,Yellow,Images/Yellow.jpg,space,ParentConditions/YellowBlueBlue_v1.xlsx,BlueBlueYellow,Conditions/Version_1/BlueFearStop.xlsx,no,PASS,0.7313165030586903,,,,,,,,,0,0,0,0,0,1,1,1,0,8,8,8,,,,,,,,,,,,,,,,,,,,,,,,,,,,,,,,,,,,,,,,,,,,,,,,,,,,,,,,,,,,,,,,,,,,,,,,,,,,,,,1.96,617.675187100016,None,space,1,0.35476369998650625,619.747486600012,None,619.747486600012,None,619.747486600012,None,,,,,,,,,,,P028,fencog,1,Pre,2022_Mar_08_1031,Go No-Go Task,2021.1.4,119.51143725302569,
,"Rule: When you see blue image, do not press 'spacebar'.",Images/Happy/BF18_HO.jpg,Happy,Yellow,Images/Yellow.jpg,space,ParentConditions/YellowBlueBlue_v1.xlsx,BlueBlueYellow,Conditions/Version_1/BlueFearStop.xlsx,no,PASS,0.5715935528670182,,,,,,,,,0,0,0,0,0,1,1,1,0,9,9,9,,,,,,,,,,,,,,,,,,,,,,,,,,,,,,,,,,,,,,,,,,,,,,,,,,,,,,,,,,,,,,,,,,,,,,,,,,,,,,,1.7,620.1444112000172,None,space,1,0.339455800014548,621.9550460000173,None,621.9550460000173,None,621.9550460000173,None,,,,,,,,,,,P028,fencog,1,Pre,2022_Mar_08_1031,Go No-Go Task,2021.1.4,119.51143725302569,
,"Rule: When you see blue image, do not press 'spacebar'.",Images/Happy/AM10HAS.jpg,Happy,Yellow,Images/Yellow.jpg,space,ParentConditions/YellowBlueBlue_v1.xlsx,BlueBlueYellow,Conditions/Version_1/BlueFearStop.xlsx,no,PASS,0.4742386996589605,,,,,,,,,0,0,0,0,0,1,1,1,0,10,10,10,,,,,,,,,,,,,,,,,,,,,,,,,,,,,,,,,,,,,,,,,,,,,,,,,,,,,,,,,,,,,,,,,,,,,,,,,,,,,,,1.87,622.3598475999897,None,space,1,0.3487288999604061,624.345980299986,None,624.345980299986,None,624.345980299986,None,,,,,,,,,,,P028,fencog,1,Pre,2022_Mar_08_1031,Go No-Go Task,2021.1.4,119.51143725302569,
,"Rule: When you see blue image, do not press 'spacebar'.",Images/Happy/AM09HAS.jpg,Happy,Yellow,Images/Yellow.jpg,space,ParentConditions/YellowBlueBlue_v1.xlsx,BlueBlueYellow,Conditions/Version_1/BlueFearStop.xlsx,no,PASS,0.5791375189576048,,,,,,,,,0,0,0,0,0,1,1,1,0,11,11,11,,,,,,,,,,,,,,,,,,,,,,,,,,,,,,,,,,,,,,,,,,,,,,,,,,,,,,,,,,,,,,,,,,,,,,,,,,,,,,,1.49,624.7445789999911,None,space,1,0.36471029999665916,626.3455266000237,None,626.3455266000237,None,626.3455266000237,None,,,,,,,,,,,P028,fencog,1,Pre,2022_Mar_08_1031,Go No-Go Task,2021.1.4,119.51143725302569,
,"Rule: When you see blue image, do not press 'spacebar'.",Images/Happy/AM16HAS.jpg,Happy,Yellow,Images/Yellow.jpg,space,ParentConditions/YellowBlueBlue_v1.xlsx,BlueBlueYellow,Conditions/Version_1/BlueFearStop.xlsx,no,PASS,0.06851146054747248,,,,,,,,,0,0,0,0,0,1,1,1,0,12,12,12,,,,,,,,,,,,,,,,,,,,,,,,,,,,,,,,,,,,,,,,,,,,,,,,,,,,,,,,,,,,,,,,,,,,,,,,,,,,,,,1.46,626.7425119000254,None,None,0,,628.3115435999935,None,628.3115435999935,None,628.3115435999935,None,,,,,,,,,,,P028,fencog,1,Pre,2022_Mar_08_1031,Go No-Go Task,2021.1.4,119.51143725302569,
,"Rule: When you see blue image, do not press 'spacebar'.",Images/Happy/AF10_HE.jpg,Happy,Yellow,Images/Yellow.jpg,space,ParentConditions/YellowBlueBlue_v1.xlsx,BlueBlueYellow,Conditions/Version_1/BlueFearStop.xlsx,no,PASS,0.21267371658214962,,,,,,,,,0,0,0,0,0,1,1,1,0,13,13,13,,,,,,,,,,,,,,,,,,,,,,,,,,,,,,,,,,,,,,,,,,,,,,,,,,,,,,,,,,,,,,,,,,,,,,,,,,,,,,,1.88,628.7092641000054,None,space,1,0.35967859998345375,630.7024517999962,None,630.7024517999962,None,630.7024517999962,None,,,,,,,,,,,P028,fencog,1,Pre,2022_Mar_08_1031,Go No-Go Task,2021.1.4,119.51143725302569,
,"Rule: When you see blue image, do not press 'spacebar'.",Images/Happy/AF27HAS.jpg,Happy,Yellow,Images/Yellow.jpg,space,ParentConditions/YellowBlueBlue_v1.xlsx,BlueBlueYellow,Conditions/Version_1/BlueFearStop.xlsx,no,PASS,0.8109673156723475,,,,,,,,,0,0,0,0,0,1,1,1,0,14,14,14,,,,,,,,,,,,,,,,,,,,,,,,,,,,,,,,,,,,,,,,,,,,,,,,,,,,,,,,,,,,,,,,,,,,,,,,,,,,,,,1.22,631.1007329000277,None,space,1,0.32309630000963807,632.4352872000309,None,632.4352872000309,None,632.4352872000309,None,,,,,,,,,,,P028,fencog,1,Pre,2022_Mar_08_1031,Go No-Go Task,2021.1.4,119.51143725302569,
,"Rule: When you see blue image, do not press 'spacebar'.",Images/Happy/BF10_HO.jpg,Happy,Yellow,Images/Yellow.jpg,space,ParentConditions/YellowBlueBlue_v1.xlsx,BlueBlueYellow,Conditions/Version_1/BlueFearStop.xlsx,no,PASS,0.35707259862702334,,,,,,,,,0,0,0,0,0,1,1,1,0,15,15,15,,,,,,,,,,,,,,,,,,,,,,,,,,,,,,,,,,,,,,,,,,,,,,,,,,,,,,,,,,,,,,,,,,,,,,,,,,,,,,,1.93,632.8344322000048,None,None,0,,634.8596162999747,None,634.8596162999747,None,634.8596162999747,None,,,,,,,,,,,P028,fencog,1,Pre,2022_Mar_08_1031,Go No-Go Task,2021.1.4,119.51143725302569,
,"Rule: When you see blue image, do not press 'spacebar'.",Images/Happy/BF14_HO.jpg,Happy,Yellow,Images/Yellow.jpg,space,ParentConditions/YellowBlueBlue_v1.xlsx,BlueBlueYellow,Conditions/Version_1/BlueFearStop.xlsx,no,PASS,0.41712793219483124,,,,,,,,,0,0,0,0,0,1,1,1,0,16,16,16,,,,,,,,,,,,,,,,,,,,,,,,,,,,,,,,,,,,,,,,,,,,,,,,,,,,,,,,,,,,,,,,,,,,,,,,,,,,,,,1.2,635.2650853000232,None,space,1,0.2866029999568127,636.5758354000282,None,636.5758354000282,None,636.5758354000282,None,,,,,,,,,,,P028,fencog,1,Pre,2022_Mar_08_1031,Go No-Go Task,2021.1.4,119.51143725302569,
,"Rule: When you see blue image, do not press 'spacebar'.",Images/Fearful/BM08_FC.jpg,Fear,Blue,Images/Blue.jpg,None,ParentConditions/YellowBlueBlue_v1.xlsx,BlueBlueYellow,Conditions/Version_1/BlueFearStop.xlsx,yes,PASS,0.2777606849347436,,,,,,,,,0,0,0,0,0,1,1,1,0,17,17,17,,,,,,,,,,,,,,,,,,,,,,,,,,,,,,,,,,,,,,,,,,,,,,,,,,,,,,,,,,,,,,,,,,,,,,,,,,,,,,,1.98,636.972447099979,None,space,0,0.22780389996478334,639.0666558999801,None,639.0666558999801,None,639.0666558999801,None,,,,,,,,,,,P028,fencog,1,Pre,2022_Mar_08_1031,Go No-Go Task,2021.1.4,119.51143725302569,
,"Rule: When you see blue image, do not press 'spacebar'.",Images/Happy/AM01HAS.jpg,Happy,Yellow,Images/Yellow.jpg,space,ParentConditions/YellowBlueBlue_v1.xlsx,BlueBlueYellow,Conditions/Version_1/BlueFearStop.xlsx,no,PASS,0.43160138117116176,,,,,,,,,0,0,0,0,0,1,1,1,0,18,18,18,,,,,,,,,,,,,,,,,,,,,,,,,,,,,,,,,,,,,,,,,,,,,,,,,,,,,,,,,,,,,,,,,,,,,,,,,,,,,,,1.79,639.4672803999856,None,space,1,0.37653369997860864,641.3659992000321,None,641.3659992000321,None,641.3659992000321,None,,,,,,,,,,,P028,fencog,1,Pre,2022_Mar_08_1031,Go No-Go Task,2021.1.4,119.51143725302569,
,"Rule: When you see blue image, do not press 'spacebar'.",Images/Happy/AF11HAS.jpg,Happy,Yellow,Images/Yellow.jpg,space,ParentConditions/YellowBlueBlue_v1.xlsx,BlueBlueYellow,Conditions/Version_1/BlueFearStop.xlsx,no,PASS,0.9696898199968184,,,,,,,,,0,0,0,0,0,1,1,1,0,19,19,19,,,,,,,,,,,,,,,,,,,,,,,,,,,,,,,,,,,,,,,,,,,,,,,,,,,,,,,,,,,,,,,,,,,,,,,,,,,,,,,1.63,641.7705830999766,None,space,1,0.25086589995771646,643.5149420999805,None,643.5149420999805,None,643.5149420999805,None,,,,,,,,,,,P028,fencog,1,Pre,2022_Mar_08_1031,Go No-Go Task,2021.1.4,119.51143725302569,
,"Rule: When you see blue image, do not press 'spacebar'.",Images/Happy/BM01_HO.jpg,Happy,Yellow,Images/Yellow.jpg,space,ParentConditions/YellowBlueBlue_v1.xlsx,BlueBlueYellow,Conditions/Version_1/BlueFearStop.xlsx,no,PASS,0.40182091251260654,,,,,,,,,0,0,0,0,0,1,1,1,0,20,20,20,,,,,,,,,,,,,,,,,,,,,,,,,,,,,,,,,,,,,,,,,,,,,,,,,,,,,,,,,,,,,,,,,,,,,,,,,,,,,,,1.85,643.9140671999776,None,None,0,,645.8646371000214,None,645.8646371000214,None,645.8646371000214,None,,,,,,,,,,,P028,fencog,1,Pre,2022_Mar_08_1031,Go No-Go Task,2021.1.4,119.51143725302569,
,"Rule: When you see blue image, do not press 'spacebar'.",Images/Happy/AF07_HO.jpg,Happy,Yellow,Images/Yellow.jpg,space,ParentConditions/YellowBlueBlue_v1.xlsx,BlueBlueYellow,Conditions/Version_1/BlueFearStop.xlsx,no,PASS,0.304860645067783,,,,,,,,,0,0,0,0,0,1,1,1,0,21,21,21,,,,,,,,,,,,,,,,,,,,,,,,,,,,,,,,,,,,,,,,,,,,,,,,,,,,,,,,,,,,,,,,,,,,,,,,,,,,,,,1.52,646.2719292999827,None,space,1,0.24502299999585375,647.8974287000019,None,647.8974287000019,None,647.8974287000019,None,,,,,,,,,,,P028,fencog,1,Pre,2022_Mar_08_1031,Go No-Go Task,2021.1.4,119.51143725302569,
,"Rule: When you see blue image, do not press 'spacebar'.",Images/Happy/HM06_HO.jpg,Happy,Yellow,Images/Yellow.jpg,space,ParentConditions/YellowBlueBlue_v1.xlsx,BlueBlueYellow,Conditions/Version_1/BlueFearStop.xlsx,no,PASS,0.3928744637511502,,,,,,,,,0,0,0,0,0,1,1,1,0,22,22,22,,,,,,,,,,,,,,,,,,,,,,,,,,,,,,,,,,,,,,,,,,,,,,,,,,,,,,,,,,,,,,,,,,,,,,,,,,,,,,,1.32,648.3036897000275,None,space,1,0.23581490002106875,649.738498700026,None,649.738498700026,None,649.738498700026,None,,,,,,,,,,,P028,fencog,1,Pre,2022_Mar_08_1031,Go No-Go Task,2021.1.4,119.51143725302569,
,"Rule: When you see blue image, do not press 'spacebar'.",Images/Fearful/AM09_FO.jpg,Fear,Blue,Images/Blue.jpg,None,ParentConditions/YellowBlueBlue_v1.xlsx,BlueBlueYellow,Conditions/Version_1/BlueFearStop.xlsx,yes,PASS,0.17130222782280535,,,,,,,,,0,0,0,0,0,1,1,1,0,23,23,23,,,,,,,,,,,,,,,,,,,,,,,,,,,,,,,,,,,,,,,,,,,,,,,,,,,,,,,,,,,,,,,,,,,,,,,,,,,,,,,1.89,650.1411885999842,None,None,1,,652.1461195999873,None,652.1461195999873,None,652.1461195999873,None,,,,,,,,,,,P028,fencog,1,Pre,2022_Mar_08_1031,Go No-Go Task,2021.1.4,119.51143725302569,
,"Rule: When you see blue image, do not press 'spacebar'.",Images/Happy/AF09HAS.jpg,Happy,Yellow,Images/Yellow.jpg,space,ParentConditions/YellowBlueBlue_v1.xlsx,BlueBlueYellow,Conditions/Version_1/BlueFearStop.xlsx,no,PASS,0.32050850835393896,,,,,,,,,0,0,0,0,0,1,1,1,0,24,24,24,,,,,,,,,,,,,,,,,,,,,,,,,,,,,,,,,,,,,,,,,,,,,,,,,,,,,,,,,,,,,,,,,,,,,,,,,,,,,,,1.23,652.5430047999835,None,space,1,0.2551382000092417,653.8874088000157,None,653.8874088000157,None,653.8874088000157,None,,,,,,,,,,,P028,fencog,1,Pre,2022_Mar_08_1031,Go No-Go Task,2021.1.4,119.51143725302569,
,"Rule: When you see blue image, do not press 'spacebar'.",Images/Happy/AM04HAS.jpg,Happy,Yellow,Images/Yellow.jpg,space,ParentConditions/YellowBlueBlue_v1.xlsx,BlueBlueYellow,Conditions/Version_1/BlueFearStop.xlsx,no,PASS,0.17004201555218557,,,,,,,,,0,0,0,0,0,1,1,1,0,25,25,25,,,,,,,,,,,,,,,,,,,,,,,,,,,,,,,,,,,,,,,,,,,,,,,,,,,,,,,,,,,,,,,,,,,,,,,,,,,,,,,1.92,654.2894807999837,None,space,1,0.27130889997351915,656.3115424999851,None,656.3115424999851,None,656.3115424999851,None,,,,,,,,,,,P028,fencog,1,Pre,2022_Mar_08_1031,Go No-Go Task,2021.1.4,119.51143725302569,
,"Rule: When you see blue image, do not press 'spacebar'.",Images/Happy/BF07_HO.jpg,Happy,Yellow,Images/Yellow.jpg,space,ParentConditions/YellowBlueBlue_v1.xlsx,BlueBlueYellow,Conditions/Version_1/BlueFearStop.xlsx,no,PASS,0.9775255982448644,,,,,,,,,0,0,0,0,0,1,1,1,0,26,26,26,,,,,,,,,,,,,,,,,,,,,,,,,,,,,,,,,,,,,,,,,,,,,,,,,,,,,,,,,,,,,,,,,,,,,,,,,,,,,,,1.75,656.7206476000138,None,space,1,0.1321132000302896,658.5859889999847,None,658.5859889999847,None,658.5859889999847,None,,,,,,,,,,,P028,fencog,1,Pre,2022_Mar_08_1031,Go No-Go Task,2021.1.4,119.51143725302569,
,"Rule: When you see blue image, do not press 'spacebar'.",Images/Happy/AF02HAS.jpg,Happy,Yellow,Images/Yellow.jpg,space,ParentConditions/YellowBlueBlue_v1.xlsx,BlueBlueYellow,Conditions/Version_1/BlueFearStop.xlsx,no,PASS,0.9926707513295598,,,,,,,,,0,0,0,0,0,1,1,1,0,27,27,27,,,,,,,,,,,,,,,,,,,,,,,,,,,,,,,,,,,,,,,,,,,,,,,,,,,,,,,,,,,,,,,,,,,,,,,,,,,,,,,1.27,658.9807237000205,None,space,1,0.3014195999712683,660.3609160999767,None,660.3609160999767,None,660.3609160999767,None,,,,,,,,,,,P028,fencog,1,Pre,2022_Mar_08_1031,Go No-Go Task,2021.1.4,119.51143725302569,
,"Rule: When you see blue image, do not press 'spacebar'.",Images/Happy/AM30HAS.jpg,Happy,Yellow,Images/Yellow.jpg,space,ParentConditions/YellowBlueBlue_v1.xlsx,BlueBlueYellow,Conditions/Version_1/BlueFearStop.xlsx,no,PASS,0.6844901636445411,,,,,,,,,0,0,0,0,0,1,1,1,0,28,28,28,,,,,,,,,,,,,,,,,,,,,,,,,,,,,,,,,,,,,,,,,,,,,,,,,,,,,,,,,,,,,,,,,,,,,,,,,,,,,,,1.47,660.7575100000249,None,space,1,0.3352848999784328,662.3430992999929,None,662.3430992999929,None,662.3430992999929,None,,,,,,,,,,,P028,fencog,1,Pre,2022_Mar_08_1031,Go No-Go Task,2021.1.4,119.51143725302569,
,"Rule: When you see blue image, do not press 'spacebar'.",Images/Happy/BF05_HO.jpg,Happy,Yellow,Images/Yellow.jpg,space,ParentConditions/YellowBlueBlue_v1.xlsx,BlueBlueYellow,Conditions/Version_1/BlueFearStop.xlsx,no,PASS,0.010815687417666808,,,,,,,,,0,0,0,0,0,1,1,1,0,29,29,29,,,,,,,,,,,,,,,,,,,,,,,,,,,,,,,,,,,,,,,,,,,,,,,,,,,,,,,,,,,,,,,,,,,,,,,,,,,,,,,1.56,662.743599999987,None,space,1,0.2849288000143133,664.4175296000321,None,664.4175296000321,None,664.4175296000321,None,,,,,,,,,,,P028,fencog,1,Pre,2022_Mar_08_1031,Go No-Go Task,2021.1.4,119.51143725302569,
,"Rule: When you see blue image, do not press 'spacebar'.",Images/Fearful/AF25AFS.jpg,Fear,Blue,Images/Blue.jpg,None,ParentConditions/YellowBlueBlue_v1.xlsx,BlueBlueYellow,Conditions/Version_1/BlueFearStop.xlsx,yes,PASS,0.35816317389786545,,,,,,,,,0,0,0,0,0,1,1,1,0,30,30,30,,,,,,,,,,,,,,,,,,,,,,,,,,,,,,,,,,,,,,,,,,,,,,,,,,,,,,,,,,,,,,,,,,,,,,,,,,,,,,,1.44,664.8159513000282,None,None,1,,666.3669310000259,None,666.3669310000259,None,666.3669310000259,None,,,,,,,,,,,P028,fencog,1,Pre,2022_Mar_08_1031,Go No-Go Task,2021.1.4,119.51143725302569,
,"Rule: When you see blue image, do not press 'spacebar'.",Images/Happy/BF09_HO.jpg,Happy,Yellow,Images/Yellow.jpg,space,ParentConditions/YellowBlueBlue_v1.xlsx,BlueBlueYellow,Conditions/Version_1/BlueFearStop.xlsx,no,PASS,0.3783419276063734,,,,,,,,,0,0,0,0,0,1,1,1,0,31,31,31,,,,,,,,,,,,,,,,,,,,,,,,,,,,,,,,,,,,,,,,,,,,,,,,,,,,,,,,,,,,,,,,,,,,,,,,,,,,,,,1.67,666.7657442999771,None,space,1,0.2969662999967113,668.5496447000187,None,668.5496447000187,None,668.5496447000187,None,,,,,,,,,,,P028,fencog,1,Pre,2022_Mar_08_1031,Go No-Go Task,2021.1.4,119.51143725302569,
,"Rule: When you see blue image, do not press 'spacebar'.",Images/Happy/AM09_HE.jpg,Happy,Yellow,Images/Yellow.jpg,space,ParentConditions/YellowBlueBlue_v1.xlsx,BlueBlueYellow,Conditions/Version_1/BlueFearStop.xlsx,no,PASS,0.21016465424314756,,,,,,,,,0,0,0,0,0,1,1,1,0,32,32,32,,,,,,,,,,,,,,,,,,,,,,,,,,,,,,,,,,,,,,,,,,,,,,,,,,,,,,,,,,,,,,,,,,,,,,,,,,,,,,,1.26,668.9574747000006,None,space,1,0.26553630002308637,670.3325441000052,None,670.3325441000052,None,670.3325441000052,None,,,,,,,,,,,P028,fencog,1,Pre,2022_Mar_08_1031,Go No-Go Task,2021.1.4,119.51143725302569,
,"Rule: When you see blue image, do not press 'spacebar'.",Images/Fearful/BF14_FO.jpg,Fear,Blue,Images/Blue.jpg,None,ParentConditions/YellowBlueBlue_v1.xlsx,BlueBlueYellow,Conditions/Version_1/BlueFearStop.xlsx,yes,PASS,0.9618360969741386,,,,,,,,,0,0,0,0,0,1,1,1,0,33,33,33,,,,,,,,,,,,,,,,,,,,,,,,,,,,,,,,,,,,,,,,,,,,,,,,,,,,,,,,,,,,,,,,,,,,,,,,,,,,,,,1.39,670.7345879999921,None,space,0,0.23094290000153705,672.2235371000133,None,672.2235371000133,None,672.2235371000133,None,,,,,,,,,,,P028,fencog,1,Pre,2022_Mar_08_1031,Go No-Go Task,2021.1.4,119.51143725302569,
,"Rule: When you see blue image, do not press 'spacebar'.",Images/Fearful/HF05_FC.jpg,Fear,Blue,Images/Blue.jpg,None,ParentConditions/YellowBlueBlue_v1.xlsx,BlueBlueYellow,Conditions/Version_1/BlueFearStop.xlsx,yes,PASS,0.005236598035567086,,,,,,,,,0,0,0,0,0,1,1,1,0,34,34,34,,,,,,,,,,,,,,,,,,,,,,,,,,,,,,,,,,,,,,,,,,,,,,,,,,,,,,,,,,,,,,,,,,,,,,,,,,,,,,,1.65,672.6306389999809,None,None,1,,674.3896724000224,None,674.3896724000224,None,674.3896724000224,None,,,,,,,,,,,P028,fencog,1,Pre,2022_Mar_08_1031,Go No-Go Task,2021.1.4,119.51143725302569,
,"Rule: When you see blue image, do not press 'spacebar'.",Images/Happy/AM23HAS.jpg,Happy,Yellow,Images/Yellow.jpg,space,ParentConditions/YellowBlueBlue_v1.xlsx,BlueBlueYellow,Conditions/Version_1/BlueFearStop.xlsx,no,PASS,0.13077339503157293,,,,,,,,,0,0,0,0,0,1,1,1,0,35,35,35,,,,,,,,,,,,,,,,,,,,,,,,,,,,,,,,,,,,,,,,,,,,,,,,,,,,,,,,,,,,,,,,,,,,,,,,,,,,,,,1.82,674.790309700009,None,space,1,0.2282304000109434,676.7222186999861,None,676.7222186999861,None,676.7222186999861,None,,,,,,,,,,,P028,fencog,1,Pre,2022_Mar_08_1031,Go No-Go Task,2021.1.4,119.51143725302569,
,"Rule: When you see blue image, do not press 'spacebar'.",Images/Happy/AM03_HO.jpg,Happy,Yellow,Images/Yellow.jpg,space,ParentConditions/YellowBlueBlue_v1.xlsx,BlueBlueYellow,Conditions/Version_1/BlueFearStop.xlsx,no,PASS,0.29520703840296547,,,,,,,,,0,0,0,0,0,1,1,1,0,36,36,36,,,,,,,,,,,,,,,,,,,,,,,,,,,,,,,,,,,,,,,,,,,,,,,,,,,,,,,,,,,,,,,,,,,,,,,,,,,,,,,1.83,677.1205665000016,None,space,1,0.24749640002846718,679.0548560000025,None,679.0548560000025,None,679.0548560000025,None,,,,,,,,,,,P028,fencog,1,Pre,2022_Mar_08_1031,Go No-Go Task,2021.1.4,119.51143725302569,
,"Rule: When you see blue image, do not press 'spacebar'.",Images/Happy/AF25HAS.jpg,Happy,Yellow,Images/Yellow.jpg,space,ParentConditions/YellowBlueBlue_v1.xlsx,BlueBlueYellow,Conditions/Version_1/BlueFearStop.xlsx,no,PASS,0.3205802973983102,,,,,,,,,0,0,0,0,0,1,1,1,0,37,37,37,,,,,,,,,,,,,,,,,,,,,,,,,,,,,,,,,,,,,,,,,,,,,,,,,,,,,,,,,,,,,,,,,,,,,,,,,,,,,,,1.37,679.4609546000138,None,space,1,0.29254880000371486,680.9459945000126,None,680.9459945000126,None,680.9459945000126,None,,,,,,,,,,,P028,fencog,1,Pre,2022_Mar_08_1031,Go No-Go Task,2021.1.4,119.51143725302569,
,"Rule: When you see blue image, do not press 'spacebar'.",Images/Happy/BM08_HO.jpg,Happy,Yellow,Images/Yellow.jpg,space,ParentConditions/YellowBlueBlue_v1.xlsx,BlueBlueYellow,Conditions/Version_1/BlueFearStop.xlsx,no,PASS,0.9250231228335681,,,,,,,,,0,0,0,0,0,1,1,1,0,38,38,38,,,,,,,,,,,,,,,,,,,,,,,,,,,,,,,,,,,,,,,,,,,,,,,,,,,,,,,,,,,,,,,,,,,,,,,,,,,,,,,1.5,681.3518538000062,None,space,1,0.3084277000161819,682.9620258000214,None,682.9620258000214,None,682.9620258000214,None,,,,,,,,,,,P028,fencog,1,Pre,2022_Mar_08_1031,Go No-Go Task,2021.1.4,119.51143725302569,
,"Rule: When you see blue image, do not press 'spacebar'.",Images/Happy/AF32HAS.jpg,Happy,Yellow,Images/Yellow.jpg,space,ParentConditions/YellowBlueBlue_v1.xlsx,BlueBlueYellow,Conditions/Version_1/BlueFearStop.xlsx,no,PASS,0.73804934699979,,,,,,,,,0,0,0,0,0,1,1,1,0,39,39,39,,,,,,,,,,,,,,,,,,,,,,,,,,,,,,,,,,,,,,,,,,,,,,,,,,,,,,,,,,,,,,,,,,,,,,,,,,,,,,,1.21,683.3644817000022,None,space,1,0.3040235999505967,684.6865224000067,None,684.6865224000067,None,684.6865224000067,None,,,,,,,,,,,P028,fencog,1,Pre,2022_Mar_08_1031,Go No-Go Task,2021.1.4,119.51143725302569,
,"Rule: When you see blue image, do not press 'spacebar'.",Images/Happy/AF23HAS.jpg,Happy,Yellow,Images/Yellow.jpg,space,ParentConditions/YellowBlueBlue_v1.xlsx,BlueBlueYellow,Conditions/Version_1/BlueFearStop.xlsx,no,PASS,0.9000246195519893,,,,,,,,,0,0,0,0,0,1,1,1,0,40,40,40,,,,,,,,,,,,,,,,,,,,,,,,,,,,,,,,,,,,,,,,,,,,,,,,,,,,,,,,,,,,,,,,,,,,,,,,,,,,,,,1.53,685.0839272000012,None,space,1,0.3187084000092,686.7275968000176,None,686.7275968000176,None,686.7275968000176,None,,,,,,,,,,,P028,fencog,1,Pre,2022_Mar_08_1031,Go No-Go Task,2021.1.4,119.51143725302569,
,"Rule: When you see blue image, do not press 'spacebar'.",Images/Happy/AM32HAS.jpg,Happy,Yellow,Images/Yellow.jpg,space,ParentConditions/YellowBlueBlue_v1.xlsx,BlueBlueYellow,Conditions/Version_1/BlueFearStop.xlsx,no,PASS,0.738989629625258,,,,,,,,,0,0,0,0,0,1,1,1,0,41,41,41,,,,,,,,,,,,,,,,,,,,,,,,,,,,,,,,,,,,,,,,,,,,,,,,,,,,,,,,,,,,,,,,,,,,,,,,,,,,,,,1.55,687.1244777999818,None,space,1,0.30106770002748817,688.7853726000176,None,688.7853726000176,None,688.7853726000176,None,,,,,,,,,,,P028,fencog,1,Pre,2022_Mar_08_1031,Go No-Go Task,2021.1.4,119.51143725302569,
,"Rule: When you see blue image, do not press 'spacebar'.",Images/Fearful/AM30AFS.jpg,Fear,Blue,Images/Blue.jpg,None,ParentConditions/YellowBlueBlue_v1.xlsx,BlueBlueYellow,Conditions/Version_1/BlueFearStop.xlsx,yes,PASS,0.33529906039128465,,,,,,,,,0,0,0,0,0,1,1,1,0,42,42,42,,,,,,,,,,,,,,,,,,,,,,,,,,,,,,,,,,,,,,,,,,,,,,,,,,,,,,,,,,,,,,,,,,,,,,,,,,,,,,,1.54,689.1849365999806,None,None,1,,690.8347258000285,None,690.8347258000285,None,690.8347258000285,None,,,,,,,,,,,P028,fencog,1,Pre,2022_Mar_08_1031,Go No-Go Task,2021.1.4,119.51143725302569,
,"Rule: When you see blue image, do not press 'spacebar'.",Images/Happy/BM02_HO.jpg,Happy,Yellow,Images/Yellow.jpg,space,ParentConditions/YellowBlueBlue_v1.xlsx,BlueBlueYellow,Conditions/Version_1/BlueFearStop.xlsx,no,PASS,0.711648218321579,,,,,,,,,0,0,0,0,0,1,1,1,0,43,43,43,,,,,,,,,,,,,,,,,,,,,,,,,,,,,,,,,,,,,,,,,,,,,,,,,,,,,,,,,,,,,,,,,,,,,,,,,,,,,,,1.42,691.2328857000102,None,None,0,,692.7674869999755,None,692.7674869999755,None,692.7674869999755,None,,,,,,,,,,,P028,fencog,1,Pre,2022_Mar_08_1031,Go No-Go Task,2021.1.4,119.51143725302569,
,"Rule: When you see blue image, do not press 'spacebar'.",Images/Happy/AM10_HO.jpg,Happy,Yellow,Images/Yellow.jpg,space,ParentConditions/YellowBlueBlue_v1.xlsx,BlueBlueYellow,Conditions/Version_1/BlueFearStop.xlsx,no,PASS,0.7811025651589869,,,,,,,,,0,0,0,0,0,1,1,1,0,44,44,44,,,,,,,,,,,,,,,,,,,,,,,,,,,,,,,,,,,,,,,,,,,,,,,,,,,,,,,,,,,,,,,,,,,,,,,,,,,,,,,1.69,693.1675272000139,None,None,0,,694.9668355999747,None,694.9668355999747,None,694.9668355999747,None,,,,,,,,,,,P028,fencog,1,Pre,2022_Mar_08_1031,Go No-Go Task,2021.1.4,119.51143725302569,
,"Rule: When you see blue image, do not press 'spacebar'.",Images/Fearful/AM10_FO.jpg,Fear,Blue,Images/Blue.jpg,None,ParentConditions/YellowBlueBlue_v1.xlsx,BlueBlueYellow,Conditions/Version_1/BlueFearStop.xlsx,yes,PASS,0.14747063444404174,,,,,,,,,0,0,0,0,0,1,1,1,0,45,45,45,,,,,,,,,,,,,,,,,,,,,,,,,,,,,,,,,,,,,,,,,,,,,,,,,,,,,,,,,,,,,,,,,,,,,,,,,,,,,,,1.43,695.3648748000269,None,None,1,,696.9163682999788,None,696.9163682999788,None,696.9163682999788,None,,,,,,,,,,,P028,fencog,1,Pre,2022_Mar_08_1031,Go No-Go Task,2021.1.4,119.51143725302569,
,"Rule: When you see blue image, do not press 'spacebar'.",Images/Happy/AF19HAS.jpg,Happy,Yellow,Images/Yellow.jpg,space,ParentConditions/YellowBlueBlue_v1.xlsx,BlueBlueYellow,Conditions/Version_1/BlueFearStop.xlsx,no,PASS,0.5734484599929517,,,,,,,,,0,0,0,0,0,1,1,1,0,46,46,46,,,,,,,,,,,,,,,,,,,,,,,,,,,,,,,,,,,,,,,,,,,,,,,,,,,,,,,,,,,,,,,,,,,,,,,,,,,,,,,1.38,697.3117692000233,None,space,1,0.19898789998842403,698.8073774999939,None,698.8073774999939,None,698.8073774999939,None,,,,,,,,,,,P028,fencog,1,Pre,2022_Mar_08_1031,Go No-Go Task,2021.1.4,119.51143725302569,
,"Rule: When you see blue image, do not press 'spacebar'.",Images/Fearful/HF09_FC.jpg,Fear,Blue,Images/Blue.jpg,None,ParentConditions/YellowBlueBlue_v1.xlsx,BlueBlueYellow,Conditions/Version_1/BlueFearStop.xlsx,yes,PASS,0.19935802832005745,,,,,,,,,0,0,0,0,0,1,1,1,0,47,47,47,,,,,,,,,,,,,,,,,,,,,,,,,,,,,,,,,,,,,,,,,,,,,,,,,,,,,,,,,,,,,,,,,,,,,,,,,,,,,,,1.71,699.2060438999906,None,space,0,0.13489330001175404,701.0316970000276,None,701.0316970000276,None,701.0316970000276,None,,,,,,,,,,,P028,fencog,1,Pre,2022_Mar_08_1031,Go No-Go Task,2021.1.4,119.51143725302569,
,"Rule: When you see blue image, do not press 'spacebar'.",Images/Fearful/AM22AFS.jpg,Fear,Blue,Images/Blue.jpg,None,ParentConditions/YellowBlueBlue_v1.xlsx,BlueBlueYellow,Conditions/Version_1/BlueFearStop.xlsx,yes,PASS,0.17276378175067786,,,,,,,,,0,0,0,0,0,1,1,1,0,48,48,48,,,,,,,,,,,,,,,,,,,,,,,,,,,,,,,,,,,,,,,,,,,,,,,,,,,,,,,,,,,,,,,,,,,,,,,,,,,,,,,1.34,701.4368914000224,None,space,0,0.3405351999681443,702.8895575000206,None,702.8895575000206,None,702.8895575000206,None,,,,,,,,,,,P028,fencog,1,Pre,2022_Mar_08_1031,Go No-Go Task,2021.1.4,119.51143725302569,
,"Rule: When you see blue image, do not press 'spacebar'.",Images/Happy/AM06_HC.jpg,Happy,Yellow,Images/Yellow.jpg,space,ParentConditions/YellowBlueBlue_v1.xlsx,BlueBlueYellow,Conditions/Version_1/BlueFearStop.xlsx,no,PASS,0.06320185727949179,,,,,,,,,0,0,0,0,0,1,1,1,0,49,49,49,,,,,,,,,,,,,,,,,,,,,,,,,,,,,,,,,,,,,,,,,,,,,,,,,,,,,,,,,,,,,,,,,,,,,,,,,,,,,,,1.59,703.2901073999819,None,None,0,,704.9889138999861,None,704.9889138999861,None,704.9889138999861,None,,,,,,,,,,,P028,fencog,1,Pre,2022_Mar_08_1031,Go No-Go Task,2021.1.4,119.51143725302569,
,"Rule: When you see blue image, do not press 'spacebar'.",Images/Fearful/AM32AFS.jpg,Fear,Blue,Images/Blue.jpg,None,ParentConditions/YellowBlueBlue_v1.xlsx,BlueBlueYellow,Conditions/Version_1/BlueFearStop.xlsx,yes,PASS,0.03468314974069586,,,,,,,,,0,0,0,0,0,1,1,1,0,50,50,50,,,,,,,,,,,,,,,,,,,,,,,,,,,,,,,,,,,,,,,,,,,,,,,,,,,,,,,,,,,,,,,,,,,,,,,,,,,,,,,1.72,705.3865263999905,None,None,1,,707.221557700017,None,707.221557700017,None,707.221557700017,None,,,,,,,,,,,P028,fencog,1,Pre,2022_Mar_08_1031,Go No-Go Task,2021.1.4,119.51143725302569,
,"Rule: When you see blue image, do not press 'spacebar'.",Images/Happy/WF11_HE.jpg,Happy,Yellow,Images/Yellow.jpg,space,ParentConditions/YellowBlueBlue_v1.xlsx,BlueBlueYellow,Conditions/Version_1/BlueFearStop.xlsx,no,PASS,0.5138011133022752,,,,,,,,,0,0,0,0,0,1,1,1,0,51,51,51,,,,,,,,,,,,,,,,,,,,,,,,,,,,,,,,,,,,,,,,,,,,,,,,,,,,,,,,,,,,,,,,,,,,,,,,,,,,,,,1.81,707.6186499000178,None,space,1,0.2453150000073947,709.5375199000118,None,709.5375199000118,None,709.5375199000118,None,,,,,,,,,,,P028,fencog,1,Pre,2022_Mar_08_1031,Go No-Go Task,2021.1.4,119.51143725302569,
,"Rule: When you see blue image, do not press 'spacebar'.",Images/Fearful/AF28AFS.jpg,Fear,Blue,Images/Blue.jpg,None,ParentConditions/YellowBlueBlue_v1.xlsx,BlueBlueYellow,Conditions/Version_1/BlueFearStop.xlsx,yes,PASS,0.30204493442130675,,,,,,,,,0,0,0,0,0,1,1,1,0,52,52,52,,,,,,,,,,,,,,,,,,,,,,,,,,,,,,,,,,,,,,,,,,,,,,,,,,,,,,,,,,,,,,,,,,,,,,,,,,,,,,,1.91,709.9352556000231,None,None,1,,711.9617910999805,None,711.9617910999805,None,711.9617910999805,None,,,,,,,,,,,P028,fencog,1,Pre,2022_Mar_08_1031,Go No-Go Task,2021.1.4,119.51143725302569,
,"Rule: When you see blue image, do not press 'spacebar'.",Images/Happy/HF04_HE.jpg,Happy,Yellow,Images/Yellow.jpg,space,ParentConditions/YellowBlueBlue_v1.xlsx,BlueBlueYellow,Conditions/Version_1/BlueFearStop.xlsx,no,PASS,0.05385370360405073,,,,,,,,,0,0,0,0,0,1,1,1,0,53,53,53,,,,,,,,,,,,,,,,,,,,,,,,,,,,,,,,,,,,,,,,,,,,,,,,,,,,,,,,,,,,,,,,,,,,,,,,,,,,,,,1.25,712.3551912999828,None,space,1,0.2866651000222191,713.7196979,None,713.7196979,None,713.7196979,None,,,,,,,,,,,P028,fencog,1,Pre,2022_Mar_08_1031,Go No-Go Task,2021.1.4,119.51143725302569,
,"Rule: When you see blue image, do not press 'spacebar'.",Images/Happy/AM13HAS.jpg,Happy,Yellow,Images/Yellow.jpg,space,ParentConditions/YellowBlueBlue_v1.xlsx,BlueBlueYellow,Conditions/Version_1/BlueFearStop.xlsx,no,PASS,0.9978120552242631,,,,,,,,,0,0,0,0,0,1,1,1,0,54,54,54,,,,,,,,,,,,,,,,,,,,,,,,,,,,,,,,,,,,,,,,,,,,,,,,,,,,,,,,,,,,,,,,,,,,,,,,,,,,,,,1.33,714.1219098999863,None,space,1,0.3092510999995284,715.5690688000177,None,715.5690688000177,None,715.5690688000177,None,,,,,,,,,,,P028,fencog,1,Pre,2022_Mar_08_1031,Go No-Go Task,2021.1.4,119.51143725302569,
,"Rule: When you see blue image, do not press 'spacebar'.",Images/Happy/HF10_HE.jpg,Happy,Yellow,Images/Yellow.jpg,space,ParentConditions/YellowBlueBlue_v1.xlsx,BlueBlueYellow,Conditions/Version_1/BlueFearStop.xlsx,no,PASS,0.7658265452728541,,,,,,,,,0,0,0,0,0,1,1,1,0,55,55,55,,,,,,,,,,,,,,,,,,,,,,,,,,,,,,,,,,,,,,,,,,,,,,,,,,,,,,,,,,,,,,,,,,,,,,,,,,,,,,,1.9,715.9594309999957,None,space,1,0.31044590001692995,717.9683442999958,None,717.9683442999958,None,717.9683442999958,None,,,,,,,,,,,P028,fencog,1,Pre,2022_Mar_08_1031,Go No-Go Task,2021.1.4,119.51143725302569,
,"Rule: When you see blue image, do not press 'spacebar'.",Images/Happy/AM04_HE.jpg,Happy,Yellow,Images/Yellow.jpg,space,ParentConditions/YellowBlueBlue_v1.xlsx,BlueBlueYellow,Conditions/Version_1/BlueFearStop.xlsx,no,PASS,0.8987539961300183,,,,,,,,,0,0,0,0,0,1,1,1,0,56,56,56,,,,,,,,,,,,,,,,,,,,,,,,,,,,,,,,,,,,,,,,,,,,,,,,,,,,,,,,,,,,,,,,,,,,,,,,,,,,,,,1.74,718.3688911999925,None,space,1,0.3485660000005737,720.2176754000247,None,720.2176754000247,None,720.2176754000247,None,,,,,,,,,,,P028,fencog,1,Pre,2022_Mar_08_1031,Go No-Go Task,2021.1.4,119.51143725302569,
