CondFileP,Instructions,FaceE,Express,ColourT,ColourF,CorrectAnsP,MasterCondFile,BlockOrder,CondFile,ColCheck,Triplicate_check,SORT_BY_SMALLEST,EPracticeOuterLoop.thisRepN,EPracticeOuterLoop.thisTrialN,EPracticeOuterLoop.thisN,EPracticeOuterLoop.thisIndex,EPracticeInnerLoop.thisRepN,EPracticeInnerLoop.thisTrialN,EPracticeInnerLoop.thisN,EPracticeInnerLoop.thisIndex,MasterLoop.thisRepN,MasterLoop.thisTrialN,MasterLoop.thisN,MasterLoop.thisIndex,OuterLoop.thisRepN,OuterLoop.thisTrialN,OuterLoop.thisN,OuterLoop.thisIndex,InnerLoop.thisRepN,InnerLoop.thisTrialN,InnerLoop.thisN,InnerLoop.thisIndex,text_13.started,text_13.stopped,key_resp_10.keys,key_resp_10.rt,key_resp_10.started,key_resp_10.stopped,text4.started,text4.stopped,EmotionTaskInstructions1.keys,EmotionTaskInstructions1.rt,EmotionTaskInstructions1.started,EmotionTaskInstructions1.stopped,text_4.started,text_4.stopped,key_resp_5.keys,key_resp_5.rt,key_resp_5.started,key_resp_5.stopped,Text_14.started,Text_14.stopped,key_resp_9.keys,key_resp_9.rt,key_resp_9.started,key_resp_9.stopped,text_5.started,text_5.stopped,text_6.started,text_6.stopped,key_resp_7.keys,key_resp_7.rt,key_resp_7.started,key_resp_7.stopped,text_10.started,text_10.stopped,text_11.started,text_11.stopped,text_12.started,text_12.stopped,ISIjitterPractice,EPracticeISIMarker.started,EPracticeISIMarker.stopped,Pract.keys,Pract.corr,Pract.rt,Pract.started,Pract.stopped,PracticeFace.started,PracticeFace.stopped,ColourPractice.started,ColourPractice.stopped,text_7.started,text_7.stopped,EndOfPractice.started,EndOfPractice.stopped,key_resp_8.keys,key_resp_8.rt,key_resp_8.started,key_resp_8.stopped,text_8.started,text_8.stopped,key_resp_6.keys,key_resp_6.rt,key_resp_6.started,key_resp_6.stopped,text_2.started,text_2.stopped,text_3.started,text_3.stopped,key_resp_3.keys,key_resp_3.rt,key_resp_3.started,key_resp_3.stopped,TaskBlock.started,TaskBlock.stopped,BlockNo1.started,BlockNo1.stopped,OfBlock.started,OfBlock.stopped,ISIjitter,ISImarker.started,ISImarker.stopped,key_resp.keys,key_resp.corr,key_resp.started,key_resp.stopped,FaceSet.started,FaceSet.stopped,Colour.started,Colour.stopped,key_resp.rt,EndBlockText.started,EndBlockText.stopped,key_resp_4.keys,key_resp_4.rt,key_resp_4.started,key_resp_4.stopped,BreakText2.started,BreakText2.stopped,PressToContinue.started,PressToContinue.stopped,participant,Study Name,Task Version (required to run),PRE/POST,date,expName,psychopyVersion,frameRate
,,,,,,,,,,,,,,,,,,,,,,,,,,,,,,,,,57.1058391,None,space,25.5983906,58.0956247,None,,,,,,,,,,,,,,,,,,,,,,,,,,,,,,,,,,,,,,,,,,,,,,,,,,,,,,,,,,,,,,,,,,,,,,,,,,,,,,,,,,,,,,,,,,,,,,,P028,FENCOG,2,Post,2022_Mar_16_1031,Go No-Go Task,2021.1.4,120.1344064
,,,,,,,,,,,,,,,,,,,,,,,,,,,,,,,,,,,,,,,85.2648656,None,space,0.9731973,85.2648656,None,,,,,,,,,,,,,,,,,,,,,,,,,,,,,,,,,,,,,,,,,,,,,,,,,,,,,,,,,,,,,,,,,,,,,,,,,,,,,,,,,,,,,,,,,P028,FENCOG,2,Post,2022_Mar_16_1031,Go No-Go Task,2021.1.4,120.1344064
,,,,,,,,,,,,,,,,,,,,,,,,,,,,,,,,,,,,,,,,,,,,,86.3003441,None,space,3.4337189,86.3003441,None,,,,,,,,,,,,,,,,,,,,,,,,,,,,,,,,,,,,,,,,,,,,,,,,,,,,,,,,,,,,,,,,,,,,,,,,,,,,,,,,,,,P028,FENCOG,2,Post,2022_Mar_16_1031,Go No-Go Task,2021.1.4,120.1344064
,,,,,,,,,,,,,,,,,,,,,,,,,,,,,,,,,,,,,,,,,,,,,,,,,,,89.7462773,None,space,1.7718309,89.7462773,None,,,,,,,,,,,,,,,,,,,,,,,,,,,,,,,,,,,,,,,,,,,,,,,,,,,,,,,,,,,,,,,,,,,,,,,,,,,,,P028,FENCOG,2,Post,2022_Mar_16_1031,Go No-Go Task,2021.1.4,120.1344064
EPracticeConditions/BlueEyes.csv,"Rule: When you see a blue image, do not press 'spacebar'.",Images/Happy/HF05_HO.jpg,Happy,Yellow,Images/Yellow.jpg,space,,,,,,,0,0,0,0,0,0,0,5,,,,,,,,,,,,,,,,,,,,,,,,,,,,,,,,,,,,,91.5946538,None,94.5849367,None,space,0.9409995,94.5849367,None,91.5946538,None,91.5946538,None,91.5946538,None,1.3,95.632627,None,space,1,0.3165097,97.0575534,None,97.0575534,None,97.0575534,None,98.5091742,None,,,,,,,,,,,,,,,,,,,,,,,,,,,,,,,,,,,,,,,,,,,,,,,,,P028,FENCOG,2,Post,2022_Mar_16_1031,Go No-Go Task,2021.1.4,120.1344064
EPracticeConditions/BlueEyes.csv,"Rule: When you see a blue image, do not press 'spacebar'.",Images/Happy/HF10_HE.jpg,Happy,Yellow,Images/Yellow.jpg,space,,,,,,,0,0,0,0,0,1,1,7,,,,,,,,,,,,,,,,,,,,,,,,,,,,,,,,,,,,,,,,,,,,,,,,,,,1.8,99.9665371,None,space,1,0.3300923,101.8679956,None,101.8679956,None,101.8679956,None,102.766131,None,,,,,,,,,,,,,,,,,,,,,,,,,,,,,,,,,,,,,,,,,,,,,,,,,P028,FENCOG,2,Post,2022_Mar_16_1031,Go No-Go Task,2021.1.4,120.1344064
EPracticeConditions/BlueEyes.csv,"Rule: When you see a blue image, do not press 'spacebar'.",Images/Happy/HF09_HE.jpg,Happy,Yellow,Images/Yellow.jpg,space,,,,,,,0,0,0,0,0,2,2,6,,,,,,,,,,,,,,,,,,,,,,,,,,,,,,,,,,,,,,,,,,,,,,,,,,,1.2,104.7734626,None,space,1,0.2841823,106.07392,None,106.07392,None,106.07392,None,106.9642992,None,,,,,,,,,,,,,,,,,,,,,,,,,,,,,,,,,,,,,,,,,,,,,,,,,P028,FENCOG,2,Post,2022_Mar_16_1031,Go No-Go Task,2021.1.4,120.1344064
EPracticeConditions/BlueEyes.csv,"Rule: When you see a blue image, do not press 'spacebar'.",Images/Happy/HF04_HE.jpg,Happy,Yellow,Images/Yellow.jpg,space,,,,,,,0,0,0,0,0,3,3,4,,,,,,,,,,,,,,,,,,,,,,,,,,,,,,,,,,,,,,,,,,,,,,,,,,,1.5,108.963816,None,None,0,,110.5643806,None,110.5643806,None,110.5643806,None,111.4630058,None,,,,,,,,,,,,,,,,,,,,,,,,,,,,,,,,,,,,,,,,,,,,,,,,,P028,FENCOG,2,Post,2022_Mar_16_1031,Go No-Go Task,2021.1.4,120.1344064
EPracticeConditions/BlueEyes.csv,"Rule: When you see a blue image, do not press 'spacebar'.",Images/Fearful/AF01_FO.jpg,Fear,Blue,Images/Blue.jpg,None,,,,,,,0,0,0,0,0,4,4,1,,,,,,,,,,,,,,,,,,,,,,,,,,,,,,,,,,,,,,,,,,,,,,,,,,,1.6,113.4636822,None,None,1,,115.1793992,None,115.1793992,None,115.1793992,None,116.0700055,None,,,,,,,,,,,,,,,,,,,,,,,,,,,,,,,,,,,,,,,,,,,,,,,,,P028,FENCOG,2,Post,2022_Mar_16_1031,Go No-Go Task,2021.1.4,120.1344064
EPracticeConditions/BlueEyes.csv,"Rule: When you see a blue image, do not press 'spacebar'.",Images/Happy/BM08_HO.jpg,Happy,Yellow,Images/Yellow.jpg,space,,,,,,,0,0,0,0,0,5,5,3,,,,,,,,,,,,,,,,,,,,,,,,,,,,,,,,,,,,,,,,,,,,,,,,,,,1.4,118.0694365,None,None,0,,119.5697601,None,119.5697601,None,119.5697601,None,120.4603404,None,,,,,,,,,,,,,,,,,,,,,,,,,,,,,,,,,,,,,,,,,,,,,,,,,P028,FENCOG,2,Post,2022_Mar_16_1031,Go No-Go Task,2021.1.4,120.1344064
EPracticeConditions/BlueEyes.csv,"Rule: When you see a blue image, do not press 'spacebar'.",Images/Happy/BM02_HO.jpg,Happy,Yellow,Images/Yellow.jpg,space,,,,,,,0,0,0,0,0,6,6,2,,,,,,,,,,,,,,,,,,,,,,,,,,,,,,,,,,,,,,,,,,,,,,,,,,,1.9,122.4597677,None,space,1,0.3543468,124.4516486,None,124.4516486,None,124.4516486,None,125.3422044,None,,,,,,,,,,,,,,,,,,,,,,,,,,,,,,,,,,,,,,,,,,,,,,,,,P028,FENCOG,2,Post,2022_Mar_16_1031,Go No-Go Task,2021.1.4,120.1344064
EPracticeConditions/BlueEyes.csv,"Rule: When you see a blue image, do not press 'spacebar'.",Images/Fearful/HM09_FC.jpg,Fear,Blue,Images/Blue.jpg,None,,,,,,,0,0,0,0,0,7,7,0,,,,,,,,,,,,,,,,,,,,,,,,,,,,,,,,,,,,,,,,,,,,,,,,,,,1.7,127.34171,None,None,1,,129.1419558,None,129.1419558,None,129.1419558,None,130.0327127,None,,,,,,,,,,,,,,,,,,,,,,,,,,,,,,,,,,,,,,,,,,,,,,,,,P028,FENCOG,2,Post,2022_Mar_16_1031,Go No-Go Task,2021.1.4,120.1344064
EPracticeConditions/BlueEyes.csv,"Rule: When you see a blue image, do not press 'spacebar'.",,,,,,,,,,,,0,0,0,0,,,,,,,,,,,,,,,,,,,,,,,,,,,,,,,,,,,,,,,,,,,,,,,,,,,,,,,,,,,,,,,,,,,,,,,,,,,,,,,,,,,,,,,,,,,,,,,,,,,,,,,,,,,,,,,,,,,,,P028,FENCOG,2,Post,2022_Mar_16_1031,Go No-Go Task,2021.1.4,120.1344064
EPracticeConditions/YellowEyes.csv,"Rule: When you see a yellow image, do not press 'spacebar'.",Images/Fearful/AM24AFS.jpg,Fear,Blue,Images/Blue.jpg,space,,,,,,,0,1,1,1,0,0,0,7,,,,,,,,,,,,,,,,,,,,,,,,,,,,,,,,,,,,,132.0499615,None,135.0396315,None,space,0.5184543,135.0396315,None,132.0499615,None,132.0499615,None,132.0499615,None,1.8,135.5731745,None,space,1,0.3087635,137.481229,None,137.481229,None,137.481229,None,138.3718818,None,,,,,,,,,,,,,,,,,,,,,,,,,,,,,,,,,,,,,,,,,,,,,,,,,P028,FENCOG,2,Post,2022_Mar_16_1031,Go No-Go Task,2021.1.4,120.1344064
EPracticeConditions/YellowEyes.csv,"Rule: When you see a yellow image, do not press 'spacebar'.",Images/Fearful/AM22AFS.jpg,Fear,Blue,Images/Blue.jpg,space,,,,,,,0,1,1,1,0,1,1,5,,,,,,,,,,,,,,,,,,,,,,,,,,,,,,,,,,,,,,,,,,,,,,,,,,,1.7,140.3714669,None,space,1,0.2024626,142.1715232,None,142.1715232,None,142.1715232,None,143.0621682,None,,,,,,,,,,,,,,,,,,,,,,,,,,,,,,,,,,,,,,,,,,,,,,,,,P028,FENCOG,2,Post,2022_Mar_16_1031,Go No-Go Task,2021.1.4,120.1344064
EPracticeConditions/YellowEyes.csv,"Rule: When you see a yellow image, do not press 'spacebar'.",Images/Happy/BF05_HO.jpg,Happy,Yellow,Images/Yellow.jpg,None,,,,,,,0,1,1,1,0,2,2,1,,,,,,,,,,,,,,,,,,,,,,,,,,,,,,,,,,,,,,,,,,,,,,,,,,,1.5,145.0613675,None,space,0,0.2323012,146.6617997,None,146.6617997,None,146.6617997,None,147.560668,None,,,,,,,,,,,,,,,,,,,,,,,,,,,,,,,,,,,,,,,,,,,,,,,,,P028,FENCOG,2,Post,2022_Mar_16_1031,Go No-Go Task,2021.1.4,120.1344064
EPracticeConditions/YellowEyes.csv,"Rule: When you see a yellow image, do not press 'spacebar'.",Images/Happy/AM32HAS.jpg,Happy,Yellow,Images/Yellow.jpg,None,,,,,,,0,1,1,1,0,3,3,0,,,,,,,,,,,,,,,,,,,,,,,,,,,,,,,,,,,,,,,,,,,,,,,,,,,1.6,149.5603184,None,None,1,,151.260578,None,151.260578,None,151.260578,None,152.1511369,None,,,,,,,,,,,,,,,,,,,,,,,,,,,,,,,,,,,,,,,,,,,,,,,,,P028,FENCOG,2,Post,2022_Mar_16_1031,Go No-Go Task,2021.1.4,120.1344064
EPracticeConditions/YellowEyes.csv,"Rule: When you see a yellow image, do not press 'spacebar'.",Images/Fearful/AM19AFS.jpg,Fear,Blue,Images/Blue.jpg,space,,,,,,,0,1,1,1,0,4,4,4,,,,,,,,,,,,,,,,,,,,,,,,,,,,,,,,,,,,,,,,,,,,,,,,,,,1.4,154.1505452,None,space,1,0.291346,155.6427714,None,155.6427714,None,155.6427714,None,156.5330752,None,,,,,,,,,,,,,,,,,,,,,,,,,,,,,,,,,,,,,,,,,,,,,,,,,P028,FENCOG,2,Post,2022_Mar_16_1031,Go No-Go Task,2021.1.4,120.1344064
EPracticeConditions/YellowEyes.csv,"Rule: When you see a yellow image, do not press 'spacebar'.",Images/Fearful/AM23AFS.jpg,Fear,Blue,Images/Blue.jpg,space,,,,,,,0,1,1,1,0,5,5,6,,,,,,,,,,,,,,,,,,,,,,,,,,,,,,,,,,,,,,,,,,,,,,,,,,,1.9,158.5330292,None,space,1,0.2569137,160.5411217,None,160.5411217,None,160.5411217,None,161.4315209,None,,,,,,,,,,,,,,,,,,,,,,,,,,,,,,,,,,,,,,,,,,,,,,,,,P028,FENCOG,2,Post,2022_Mar_16_1031,Go No-Go Task,2021.1.4,120.1344064
EPracticeConditions/YellowEyes.csv,"Rule: When you see a yellow image, do not press 'spacebar'.",Images/Fearful/AM16AFS.jpg,Fear,Blue,Images/Blue.jpg,space,,,,,,,0,1,1,1,0,6,6,2,,,,,,,,,,,,,,,,,,,,,,,,,,,,,,,,,,,,,,,,,,,,,,,,,,,1.3,163.4311735,None,space,1,0.3503787,164.8316983,None,164.8316983,None,164.8316983,None,165.721995,None,,,,,,,,,,,,,,,,,,,,,,,,,,,,,,,,,,,,,,,,,,,,,,,,,P028,FENCOG,2,Post,2022_Mar_16_1031,Go No-Go Task,2021.1.4,120.1344064
EPracticeConditions/YellowEyes.csv,"Rule: When you see a yellow image, do not press 'spacebar'.",Images/Fearful/AM17AFS.jpg,Fear,Blue,Images/Blue.jpg,space,,,,,,,0,1,1,1,0,7,7,3,,,,,,,,,,,,,,,,,,,,,,,,,,,,,,,,,,,,,,,,,,,,,,,,,,,1.2,167.7222214,None,space,1,0.3277523,169.0302587,None,169.0302587,None,169.0302587,None,169.9208269,None,,,,,,,,,,,,,,,,,,,,,,,,,,,,,,,,,,,,,,,,,,,,,,,,,P028,FENCOG,2,Post,2022_Mar_16_1031,Go No-Go Task,2021.1.4,120.1344064
EPracticeConditions/YellowEyes.csv,"Rule: When you see a yellow image, do not press 'spacebar'.",,,,,,,,,,,,0,1,1,1,,,,,,,,,,,,,,,,,,,,,,,,,,,,,,,,,,,,,,,,,,,,,,,,,,,,,,,,,,,,,,,,,,,,,,,,,,,,,,,,,,,,,,,,,,,,,,,,,,,,,,,,,,,,,,,,,,,,,P028,FENCOG,2,Post,2022_Mar_16_1031,Go No-Go Task,2021.1.4,120.1344064
EPracticeConditions/BlueScram.csv,"Rule: When you see a blue image, do not press 'spacebar'.",Images/Scram2/AM03_NC.jpg,Scramble,Yellow,Images/Yellow.jpg,space,,,,,,,0,2,2,2,0,0,0,6,,,,,,,,,,,,,,,,,,,,,,,,,,,,,,,,,,,,,171.9285612,None,174.9284216,None,space,0.5895407,174.9284216,None,171.9285612,None,171.9285612,None,171.9285612,None,1.2,175.5348833,None,None,0,,176.8277967,None,176.8277967,None,176.8277967,None,177.7268558,None,,,,,,,,,,,,,,,,,,,,,,,,,,,,,,,,,,,,,,,,,,,,,,,,,P028,FENCOG,2,Post,2022_Mar_16_1031,Go No-Go Task,2021.1.4,120.1344064
EPracticeConditions/BlueScram.csv,"Rule: When you see a blue image, do not press 'spacebar'.",Images/Scram1/AM13NES.jpg,Scramble,Yellow,Images/Yellow.jpg,space,,,,,,,0,2,2,2,0,1,1,5,,,,,,,,,,,,,,,,,,,,,,,,,,,,,,,,,,,,,,,,,,,,,,,,,,,1.3,179.7262446,None,space,1,0.2634869,181.1265013,None,181.1265013,None,181.1265013,None,182.0171509,None,,,,,,,,,,,,,,,,,,,,,,,,,,,,,,,,,,,,,,,,,,,,,,,,,P028,FENCOG,2,Post,2022_Mar_16_1031,Go No-Go Task,2021.1.4,120.1344064
EPracticeConditions/BlueScram.csv,"Rule: When you see a blue image, do not press 'spacebar'.",Images/Scram1/BM08_NC.jpg,Scramble,Blue,Images/Blue.jpg,None,,,,,,,0,2,2,2,0,2,2,0,,,,,,,,,,,,,,,,,,,,,,,,,,,,,,,,,,,,,,,,,,,,,,,,,,,1.4,184.0174109,None,space,0,0.2566906,185.5253387,None,185.5253387,None,185.5253387,None,186.4159271,None,,,,,,,,,,,,,,,,,,,,,,,,,,,,,,,,,,,,,,,,,,,,,,,,,P028,FENCOG,2,Post,2022_Mar_16_1031,Go No-Go Task,2021.1.4,120.1344064
EPracticeConditions/BlueScram.csv,"Rule: When you see a blue image, do not press 'spacebar'.",Images/Scram2/AF25NES.jpg,Scramble,Yellow,Images/Yellow.jpg,space,,,,,,,0,2,2,2,0,3,3,7,,,,,,,,,,,,,,,,,,,,,,,,,,,,,,,,,,,,,,,,,,,,,,,,,,,1.5,188.4153311,None,None,0,,190.0161501,None,190.0161501,None,190.0161501,None,190.9145879,None,,,,,,,,,,,,,,,,,,,,,,,,,,,,,,,,,,,,,,,,,,,,,,,,,P028,FENCOG,2,Post,2022_Mar_16_1031,Go No-Go Task,2021.1.4,120.1344064
EPracticeConditions/BlueScram.csv,"Rule: When you see a blue image, do not press 'spacebar'.",Images/Scram1/AM03NES.jpg,Scramble,Yellow,Images/Yellow.jpg,space,,,,,,,0,2,2,2,0,4,4,4,,,,,,,,,,,,,,,,,,,,,,,,,,,,,,,,,,,,,,,,,,,,,,,,,,,1.6,192.9139643,None,None,0,,194.6144565,None,194.6144565,None,194.6144565,None,195.504962,None,,,,,,,,,,,,,,,,,,,,,,,,,,,,,,,,,,,,,,,,,,,,,,,,,P028,FENCOG,2,Post,2022_Mar_16_1031,Go No-Go Task,2021.1.4,120.1344064
EPracticeConditions/BlueScram.csv,"Rule: When you see a blue image, do not press 'spacebar'.",Images/Scram1/BF18_NC.jpg,Scramble,Blue,Images/Blue.jpg,None,,,,,,,0,2,2,2,0,5,5,1,,,,,,,,,,,,,,,,,,,,,,,,,,,,,,,,,,,,,,,,,,,,,,,,,,,1.7,197.5043102,None,None,1,,199.3046043,None,199.3046043,None,199.3046043,None,200.1951437,None,,,,,,,,,,,,,,,,,,,,,,,,,,,,,,,,,,,,,,,,,,,,,,,,,P028,FENCOG,2,Post,2022_Mar_16_1031,Go No-Go Task,2021.1.4,120.1344064
EPracticeConditions/BlueScram.csv,"Rule: When you see a blue image, do not press 'spacebar'.",Images/Scram1/AM04_NC.jpg,Scramble,Yellow,Images/Yellow.jpg,space,,,,,,,0,2,2,2,0,6,6,3,,,,,,,,,,,,,,,,,,,,,,,,,,,,,,,,,,,,,,,,,,,,,,,,,,,1.9,202.1947057,None,space,1,0.163126,204.1949305,None,204.1949305,None,204.1949305,None,205.085379,None,,,,,,,,,,,,,,,,,,,,,,,,,,,,,,,,,,,,,,,,,,,,,,,,,P028,FENCOG,2,Post,2022_Mar_16_1031,Go No-Go Task,2021.1.4,120.1344064
EPracticeConditions/BlueScram.csv,"Rule: When you see a blue image, do not press 'spacebar'.",Images/Scram2/AF10_NC.jpg,Scramble,Yellow,Images/Yellow.jpg,space,,,,,,,0,2,2,2,0,7,7,2,,,,,,,,,,,,,,,,,,,,,,,,,,,,,,,,,,,,,,,,,,,,,,,,,,,1.8,207.0847679,None,space,1,0.3085106,208.9855445,None,208.9855445,None,208.9855445,None,209.8756007,None,,,,,,,,,,,,,,,,,,,,,,,,,,,,,,,,,,,,,,,,,,,,,,,,,P028,FENCOG,2,Post,2022_Mar_16_1031,Go No-Go Task,2021.1.4,120.1344064
EPracticeConditions/BlueScram.csv,"Rule: When you see a blue image, do not press 'spacebar'.",,,,,,,,,,,,0,2,2,2,,,,,,,,,,,,,,,,,,,,,,,,,,,,,,,,,,,,,,,,,,,,,,,,,,,,,,,,,,,,,,,,,,,,,,,,,,,,,,,,,,,,,,,,,,,,,,,,,,,,,,,,,,,,,,,,,,,,,P028,FENCOG,2,Post,2022_Mar_16_1031,Go No-Go Task,2021.1.4,120.1344064
EPracticeConditions/YellowScram.csv,"Rule: When you see a yellow image, do not press 'spacebar'.",Images/Scram2/AM03NES.jpg,Scramble,Yellow,Images/Yellow.jpg,None,,,,,,,0,3,3,3,0,0,0,1,,,,,,,,,,,,,,,,,,,,,,,,,,,,,,,,,,,,,211.8838268,None,214.8744284,None,space,0.2760301,214.8744284,None,211.8838268,None,211.8838268,None,211.8838268,None,1.2,215.1684121,None,None,1,,216.4745745,None,216.4745745,None,216.4745745,None,217.3651956,None,,,,,,,,,,,,,,,,,,,,,,,,,,,,,,,,,,,,,,,,,,,,,,,,,P028,FENCOG,2,Post,2022_Mar_16_1031,Go No-Go Task,2021.1.4,120.1344064
EPracticeConditions/YellowScram.csv,"Rule: When you see a yellow image, do not press 'spacebar'.",Images/Scram1/BM01_NC.jpg,Scramble,Blue,Images/Blue.jpg,space,,,,,,,0,3,3,3,0,1,1,5,,,,,,,,,,,,,,,,,,,,,,,,,,,,,,,,,,,,,,,,,,,,,,,,,,,1.9,219.3646607,None,space,1,0.1532236,221.3648649,None,221.3648649,None,221.3648649,None,222.2553341,None,,,,,,,,,,,,,,,,,,,,,,,,,,,,,,,,,,,,,,,,,,,,,,,,,P028,FENCOG,2,Post,2022_Mar_16_1031,Go No-Go Task,2021.1.4,120.1344064
EPracticeConditions/YellowScram.csv,"Rule: When you see a yellow image, do not press 'spacebar'.",Images/Scram1/AF24NES.jpg,Scramble,Blue,Images/Blue.jpg,space,,,,,,,0,3,3,3,0,2,2,7,,,,,,,,,,,,,,,,,,,,,,,,,,,,,,,,,,,,,,,,,,,,,,,,,,,1.3,224.254889,None,space,1,0.3508493,225.6552292,None,225.6552292,None,225.6552292,None,226.5456704,None,,,,,,,,,,,,,,,,,,,,,,,,,,,,,,,,,,,,,,,,,,,,,,,,,P028,FENCOG,2,Post,2022_Mar_16_1031,Go No-Go Task,2021.1.4,120.1344064
EPracticeConditions/YellowScram.csv,"Rule: When you see a yellow image, do not press 'spacebar'.",Images/Scram2/HM06_NC.jpg,Scramble,Yellow,Images/Yellow.jpg,None,,,,,,,0,3,3,3,0,3,3,0,,,,,,,,,,,,,,,,,,,,,,,,,,,,,,,,,,,,,,,,,,,,,,,,,,,1.8,228.5451271,None,space,0,0.2644427,230.4455643,None,230.4455643,None,230.4455643,None,231.3443352,None,,,,,,,,,,,,,,,,,,,,,,,,,,,,,,,,,,,,,,,,,,,,,,,,,P028,FENCOG,2,Post,2022_Mar_16_1031,Go No-Go Task,2021.1.4,120.1344064
EPracticeConditions/YellowScram.csv,"Rule: When you see a yellow image, do not press 'spacebar'.",Images/Scram1/AF07NES.jpg,Scramble,Blue,Images/Blue.jpg,space,,,,,,,0,3,3,3,0,4,4,3,,,,,,,,,,,,,,,,,,,,,,,,,,,,,,,,,,,,,,,,,,,,,,,,,,,1.5,233.3437365,None,space,1,0.3659266,234.9440654,None,234.9440654,None,234.9440654,None,235.8348197,None,,,,,,,,,,,,,,,,,,,,,,,,,,,,,,,,,,,,,,,,,,,,,,,,,P028,FENCOG,2,Post,2022_Mar_16_1031,Go No-Go Task,2021.1.4,120.1344064
EPracticeConditions/YellowScram.csv,"Rule: When you see a yellow image, do not press 'spacebar'.",Images/Scram1/AF30NES.JPG,Scramble,Blue,Images/Blue.jpg,space,,,,,,,0,3,3,3,0,5,5,4,,,,,,,,,,,,,,,,,,,,,,,,,,,,,,,,,,,,,,,,,,,,,,,,,,,1.7,237.8344081,None,space,1,0.2275778,239.6344345,None,239.6344345,None,239.6344345,None,240.5249113,None,,,,,,,,,,,,,,,,,,,,,,,,,,,,,,,,,,,,,,,,,,,,,,,,,P028,FENCOG,2,Post,2022_Mar_16_1031,Go No-Go Task,2021.1.4,120.1344064
EPracticeConditions/YellowScram.csv,"Rule: When you see a yellow image, do not press 'spacebar'.",Images/Scram1/HF04_NC.jpg,Scramble,Blue,Images/Blue.jpg,space,,,,,,,0,3,3,3,0,6,6,2,,,,,,,,,,,,,,,,,,,,,,,,,,,,,,,,,,,,,,,,,,,,,,,,,,,1.6,242.5243823,None,space,1,0.3492547,244.2246841,None,244.2246841,None,244.2246841,None,245.115217,None,,,,,,,,,,,,,,,,,,,,,,,,,,,,,,,,,,,,,,,,,,,,,,,,,P028,FENCOG,2,Post,2022_Mar_16_1031,Go No-Go Task,2021.1.4,120.1344064
EPracticeConditions/YellowScram.csv,"Rule: When you see a yellow image, do not press 'spacebar'.",Images/Scram1/AF10_NC.jpg,Scramble,Blue,Images/Blue.jpg,space,,,,,,,0,3,3,3,0,7,7,6,,,,,,,,,,,,,,,,,,,,,,,,,,,,,,,,,,,,,,,,,,,,,,,,,,,1.4,247.1147113,None,None,0,,248.6150593,None,248.6150593,None,248.6150593,None,249.5056611,None,,,,,,,,,,,,,,,,,,,,,,,,,,,,,,,,,,,,,,,,,,,,,,,,,P028,FENCOG,2,Post,2022_Mar_16_1031,Go No-Go Task,2021.1.4,120.1344064
EPracticeConditions/YellowScram.csv,"Rule: When you see a yellow image, do not press 'spacebar'.",,,,,,,,,,,,0,3,3,3,,,,,,,,,,,,,,,,,,,,,,,,,,,,,,,,,,,,,,,,,,,,,,,,,,,,,,,,,,,,,,,,,,,,,,,,,,,,,,,,,,,,,,,,,,,,,,,,,,,,,,,,,,,,,,,,,,,,,P028,FENCOG,2,Post,2022_Mar_16_1031,Go No-Go Task,2021.1.4,120.1344064
,,,,,,,,,,,,,,,,,,,,,,,,,,,,,,,,,,,,,,,,,,,,,,,,,,,,,,,,,,,,,,,,,,,,,,,,,,,,,,,,,,,,,252.9251193,None,space,1.1371719,253.404853,None,,,,,,,,,,,,,,,,,,,,,,,,,,,,,,,,,,,,,,,,,,,P028,FENCOG,2,Post,2022_Mar_16_1031,Go No-Go Task,2021.1.4,120.1344064
,,,,,,,,,,,,,,,,,,,,,,,,,,,,,,,,,,,,,,,,,,,,,,,,,,,,,,,,,,,,,,,,,,,,,,,,,,,,,,,,,,,,,,,,,,,254.5555945,None,space,1.4343441,254.5555945,None,,,,,,,,,,,,,,,,,,,,,,,,,,,,,,,,,,,,,P028,FENCOG,2,Post,2022_Mar_16_1031,Go No-Go Task,2021.1.4,120.1344064
,"Rule: When you see a yellow image, do not press 'spacebar'.",Images/Fearful/BM02_FC.jpg,Fear,Blue,Images/Blue.jpg,space,ParentConditions/YellowBlueBlue_v2.xlsx,BlueBlueYellow,Conditions/Version_2/YellowHappyStop.xlsx,no,PASS,0.168586459,,,,,,,,,0,0,0,0,0,0,0,0,0,0,0,0,,,,,,,,,,,,,,,,,,,,,,,,,,,,,,,,,,,,,,,,,,,,,,,,,,,,,,,,,,,,,,,,,256.0592016,None,259.0449239,None,space,0.3209876,259.0449239,None,256.0592016,None,256.0592016,None,256.0592016,None,1.96,259.4083939,None,None,0,261.4696372,None,261.4696372,None,261.4696372,None,,,,,,,,,,,,P028,FENCOG,2,Post,2022_Mar_16_1031,Go No-Go Task,2021.1.4,120.1344064
,"Rule: When you see a yellow image, do not press 'spacebar'.",Images/Fearful/HF05_FC.jpg,Fear,Blue,Images/Blue.jpg,space,ParentConditions/YellowBlueBlue_v2.xlsx,BlueBlueYellow,Conditions/Version_2/YellowHappyStop.xlsx,no,PASS,0.948405597,,,,,,,,,0,0,0,0,0,0,0,0,0,1,1,1,,,,,,,,,,,,,,,,,,,,,,,,,,,,,,,,,,,,,,,,,,,,,,,,,,,,,,,,,,,,,,,,,,,,,,,,,,,,,,,1.92,261.8695033,None,space,1,263.8938924,None,263.8938924,None,263.8938924,None,0.2641669,,,,,,,,,,,P028,FENCOG,2,Post,2022_Mar_16_1031,Go No-Go Task,2021.1.4,120.1344064
,"Rule: When you see a yellow image, do not press 'spacebar'.",Images/Happy/AF32HAS.jpg,Happy,Yellow,Images/Yellow.jpg,None,ParentConditions/YellowBlueBlue_v2.xlsx,BlueBlueYellow,Conditions/Version_2/YellowHappyStop.xlsx,yes,PASS,0.508887906,,,,,,,,,0,0,0,0,0,0,0,0,0,2,2,2,,,,,,,,,,,,,,,,,,,,,,,,,,,,,,,,,,,,,,,,,,,,,,,,,,,,,,,,,,,,,,,,,,,,,,,,,,,,,,,1.8,264.2929468,None,space,0,266.1932552,None,266.1932552,None,266.1932552,None,0.2287653,,,,,,,,,,,P028,FENCOG,2,Post,2022_Mar_16_1031,Go No-Go Task,2021.1.4,120.1344064
,"Rule: When you see a yellow image, do not press 'spacebar'.",Images/Happy/AM32HAS.jpg,Happy,Yellow,Images/Yellow.jpg,None,ParentConditions/YellowBlueBlue_v2.xlsx,BlueBlueYellow,Conditions/Version_2/YellowHappyStop.xlsx,yes,PASS,0.128770076,,,,,,,,,0,0,0,0,0,0,0,0,0,3,3,3,,,,,,,,,,,,,,,,,,,,,,,,,,,,,,,,,,,,,,,,,,,,,,,,,,,,,,,,,,,,,,,,,,,,,,,,,,,,,,,1.44,266.5922835,None,None,1,268.1342712,None,268.1342712,None,268.1342712,None,,,,,,,,,,,,P028,FENCOG,2,Post,2022_Mar_16_1031,Go No-Go Task,2021.1.4,120.1344064
,"Rule: When you see a yellow image, do not press 'spacebar'.",Images/Fearful/AF07FS.jpg,Fear,Blue,Images/Blue.jpg,space,ParentConditions/YellowBlueBlue_v2.xlsx,BlueBlueYellow,Conditions/Version_2/YellowHappyStop.xlsx,no,PASS,0.432038262,,,,,,,,,0,0,0,0,0,0,0,0,0,4,4,4,,,,,,,,,,,,,,,,,,,,,,,,,,,,,,,,,,,,,,,,,,,,,,,,,,,,,,,,,,,,,,,,,,,,,,,,,,,,,,,1.78,268.5333798,None,space,1,270.416961,None,270.416961,None,270.416961,None,0.2370975,,,,,,,,,,,P028,FENCOG,2,Post,2022_Mar_16_1031,Go No-Go Task,2021.1.4,120.1344064
,"Rule: When you see a yellow image, do not press 'spacebar'.",Images/Fearful/AM30AFS.jpg,Fear,Blue,Images/Blue.jpg,space,ParentConditions/YellowBlueBlue_v2.xlsx,BlueBlueYellow,Conditions/Version_2/YellowHappyStop.xlsx,no,PASS,0.141645931,,,,,,,,,0,0,0,0,0,0,0,0,0,5,5,5,,,,,,,,,,,,,,,,,,,,,,,,,,,,,,,,,,,,,,,,,,,,,,,,,,,,,,,,,,,,,,,,,,,,,,,,,,,,,,,1.87,270.816,None,space,1,272.7913166,None,272.7913166,None,272.7913166,None,0.2786735,,,,,,,,,,,P028,FENCOG,2,Post,2022_Mar_16_1031,Go No-Go Task,2021.1.4,120.1344064
,"Rule: When you see a yellow image, do not press 'spacebar'.",Images/Happy/BM03_HO.jpg,Happy,Yellow,Images/Yellow.jpg,None,ParentConditions/YellowBlueBlue_v2.xlsx,BlueBlueYellow,Conditions/Version_2/YellowHappyStop.xlsx,yes,PASS,0.824528474,,,,,,,,,0,0,0,0,0,0,0,0,0,6,6,6,,,,,,,,,,,,,,,,,,,,,,,,,,,,,,,,,,,,,,,,,,,,,,,,,,,,,,,,,,,,,,,,,,,,,,,,,,,,,,,1.67,273.1903319,None,space,0,274.9655356,None,274.9655356,None,274.9655356,None,0.2484863,,,,,,,,,,,P028,FENCOG,2,Post,2022_Mar_16_1031,Go No-Go Task,2021.1.4,120.1344064
,"Rule: When you see a yellow image, do not press 'spacebar'.",Images/Fearful/HM06_FC.jpg,Fear,Blue,Images/Blue.jpg,space,ParentConditions/YellowBlueBlue_v2.xlsx,BlueBlueYellow,Conditions/Version_2/YellowHappyStop.xlsx,no,PASS,0.068814935,,,,,,,,,0,0,0,0,0,0,0,0,0,7,7,7,,,,,,,,,,,,,,,,,,,,,,,,,,,,,,,,,,,,,,,,,,,,,,,,,,,,,,,,,,,,,,,,,,,,,,,,,,,,,,,1.36,275.3646647,None,space,1,276.8318035,None,276.8318035,None,276.8318035,None,0.2942384,,,,,,,,,,,P028,FENCOG,2,Post,2022_Mar_16_1031,Go No-Go Task,2021.1.4,120.1344064
,"Rule: When you see a yellow image, do not press 'spacebar'.",Images/Fearful/AF19AFS.jpg,Fear,Blue,Images/Blue.jpg,space,ParentConditions/YellowBlueBlue_v2.xlsx,BlueBlueYellow,Conditions/Version_2/YellowHappyStop.xlsx,no,PASS,0.619451635,,,,,,,,,0,0,0,0,0,0,0,0,0,8,8,8,,,,,,,,,,,,,,,,,,,,,,,,,,,,,,,,,,,,,,,,,,,,,,,,,,,,,,,,,,,,,,,,,,,,,,,,,,,,,,,1.58,277.2308089,None,space,1,278.9060733,None,278.9060733,None,278.9060733,None,0.3399209,,,,,,,,,,,P028,FENCOG,2,Post,2022_Mar_16_1031,Go No-Go Task,2021.1.4,120.1344064
,"Rule: When you see a yellow image, do not press 'spacebar'.",Images/Happy/AF30HAS.jpg,Happy,Yellow,Images/Yellow.jpg,None,ParentConditions/YellowBlueBlue_v2.xlsx,BlueBlueYellow,Conditions/Version_2/YellowHappyStop.xlsx,yes,PASS,0.778372113,,,,,,,,,0,0,0,0,0,0,0,0,0,9,9,9,,,,,,,,,,,,,,,,,,,,,,,,,,,,,,,,,,,,,,,,,,,,,,,,,,,,,,,,,,,,,,,,,,,,,,,,,,,,,,,1.86,279.3052108,None,space,0,281.2720483,None,281.2720483,None,281.2720483,None,0.3019635,,,,,,,,,,,P028,FENCOG,2,Post,2022_Mar_16_1031,Go No-Go Task,2021.1.4,120.1344064
,"Rule: When you see a yellow image, do not press 'spacebar'.",Images/Fearful/AF25AFS.jpg,Fear,Blue,Images/Blue.jpg,space,ParentConditions/YellowBlueBlue_v2.xlsx,BlueBlueYellow,Conditions/Version_2/YellowHappyStop.xlsx,no,PASS,0.952811342,,,,,,,,,0,0,0,0,0,0,0,0,0,10,10,10,,,,,,,,,,,,,,,,,,,,,,,,,,,,,,,,,,,,,,,,,,,,,,,,,,,,,,,,,,,,,,,,,,,,,,,,,,,,,,,1.45,281.6712037,None,space,1,283.2215638,None,283.2215638,None,283.2215638,None,0.3204216,,,,,,,,,,,P028,FENCOG,2,Post,2022_Mar_16_1031,Go No-Go Task,2021.1.4,120.1344064
,"Rule: When you see a yellow image, do not press 'spacebar'.",Images/Fearful/AF30AFS.jpg,Fear,Blue,Images/Blue.jpg,space,ParentConditions/YellowBlueBlue_v2.xlsx,BlueBlueYellow,Conditions/Version_2/YellowHappyStop.xlsx,no,PASS,0.022094815,,,,,,,,,0,0,0,0,0,0,0,0,0,11,11,11,,,,,,,,,,,,,,,,,,,,,,,,,,,,,,,,,,,,,,,,,,,,,,,,,,,,,,,,,,,,,,,,,,,,,,,,,,,,,,,1.27,283.6205738,None,space,1,284.9959771,None,284.9959771,None,284.9959771,None,0.3619938,,,,,,,,,,,P028,FENCOG,2,Post,2022_Mar_16_1031,Go No-Go Task,2021.1.4,120.1344064
,"Rule: When you see a yellow image, do not press 'spacebar'.",Images/Happy/BF10_HO.jpg,Happy,Yellow,Images/Yellow.jpg,None,ParentConditions/YellowBlueBlue_v2.xlsx,BlueBlueYellow,Conditions/Version_2/YellowHappyStop.xlsx,yes,PASS,0.500160017,,,,,,,,,0,0,0,0,0,0,0,0,0,12,12,12,,,,,,,,,,,,,,,,,,,,,,,,,,,,,,,,,,,,,,,,,,,,,,,,,,,,,,,,,,,,,,,,,,,,,,,,,,,,,,,1.89,285.3950381,None,None,1,287.387013,None,287.387013,None,287.387013,None,,,,,,,,,,,,P028,FENCOG,2,Post,2022_Mar_16_1031,Go No-Go Task,2021.1.4,120.1344064
,"Rule: When you see a yellow image, do not press 'spacebar'.",Images/Fearful/AM06_FO.jpg,Fear,Blue,Images/Blue.jpg,space,ParentConditions/YellowBlueBlue_v2.xlsx,BlueBlueYellow,Conditions/Version_2/YellowHappyStop.xlsx,no,PASS,0.578262378,,,,,,,,,0,0,0,0,0,0,0,0,0,13,13,13,,,,,,,,,,,,,,,,,,,,,,,,,,,,,,,,,,,,,,,,,,,,,,,,,,,,,,,,,,,,,,,,,,,,,,,,,,,,,,,1.9,287.7860563,None,None,0,289.7862098,None,289.7862098,None,289.7862098,None,,,,,,,,,,,,P028,FENCOG,2,Post,2022_Mar_16_1031,Go No-Go Task,2021.1.4,120.1344064
,"Rule: When you see a yellow image, do not press 'spacebar'.",Images/Happy/AM24HAS.jpg,Happy,Yellow,Images/Yellow.jpg,None,ParentConditions/YellowBlueBlue_v2.xlsx,BlueBlueYellow,Conditions/Version_2/YellowHappyStop.xlsx,yes,PASS,0.394841844,,,,,,,,,0,0,0,0,0,0,0,0,0,14,14,14,,,,,,,,,,,,,,,,,,,,,,,,,,,,,,,,,,,,,,,,,,,,,,,,,,,,,,,,,,,,,,,,,,,,,,,,,,,,,,,1.74,290.1857296,None,None,1,292.0272861,None,292.0272861,None,292.0272861,None,,,,,,,,,,,,P028,FENCOG,2,Post,2022_Mar_16_1031,Go No-Go Task,2021.1.4,120.1344064
,"Rule: When you see a yellow image, do not press 'spacebar'.",Images/Fearful/AF21AFS.jpg,Fear,Blue,Images/Blue.jpg,space,ParentConditions/YellowBlueBlue_v2.xlsx,BlueBlueYellow,Conditions/Version_2/YellowHappyStop.xlsx,no,PASS,0.643223107,,,,,,,,,0,0,0,0,0,0,0,0,0,15,15,15,,,,,,,,,,,,,,,,,,,,,,,,,,,,,,,,,,,,,,,,,,,,,,,,,,,,,,,,,,,,,,,,,,,,,,,,,,,,,,,1.59,292.4262913,None,space,1,294.1182439,None,294.1182439,None,294.1182439,None,0.1516609,,,,,,,,,,,P028,FENCOG,2,Post,2022_Mar_16_1031,Go No-Go Task,2021.1.4,120.1344064
,"Rule: When you see a yellow image, do not press 'spacebar'.",Images/Happy/AM06_HC.jpg,Happy,Yellow,Images/Yellow.jpg,None,ParentConditions/YellowBlueBlue_v2.xlsx,BlueBlueYellow,Conditions/Version_2/YellowHappyStop.xlsx,yes,PASS,0.794397629,,,,,,,,,0,0,0,0,0,0,0,0,0,16,16,16,,,,,,,,,,,,,,,,,,,,,,,,,,,,,,,,,,,,,,,,,,,,,,,,,,,,,,,,,,,,,,,,,,,,,,,,,,,,,,,1.4,294.5173772,None,None,1,296.0178633,None,296.0178633,None,296.0178633,None,,,,,,,,,,,,P028,FENCOG,2,Post,2022_Mar_16_1031,Go No-Go Task,2021.1.4,120.1344064
,"Rule: When you see a yellow image, do not press 'spacebar'.",Images/Fearful/AF10_FC.jpg,Fear,Blue,Images/Blue.jpg,space,ParentConditions/YellowBlueBlue_v2.xlsx,BlueBlueYellow,Conditions/Version_2/YellowHappyStop.xlsx,no,PASS,0.438717206,,,,,,,,,0,0,0,0,0,0,0,0,0,17,17,17,,,,,,,,,,,,,,,,,,,,,,,,,,,,,,,,,,,,,,,,,,,,,,,,,,,,,,,,,,,,,,,,,,,,,,,,,,,,,,,1.51,296.4168595,None,space,1,298.0337608,None,298.0337608,None,298.0337608,None,0.2843748,,,,,,,,,,,P028,FENCOG,2,Post,2022_Mar_16_1031,Go No-Go Task,2021.1.4,120.1344064
,"Rule: When you see a yellow image, do not press 'spacebar'.",Images/Fearful/BM03_FC.jpg,Fear,Blue,Images/Blue.jpg,space,ParentConditions/YellowBlueBlue_v2.xlsx,BlueBlueYellow,Conditions/Version_2/YellowHappyStop.xlsx,no,PASS,0.201702627,,,,,,,,,0,0,0,0,0,0,0,0,0,18,18,18,,,,,,,,,,,,,,,,,,,,,,,,,,,,,,,,,,,,,,,,,,,,,,,,,,,,,,,,,,,,,,,,,,,,,,,,,,,,,,,1.52,298.4328667,None,space,1,300.0582711,None,300.0582711,None,300.0582711,None,0.2676911,,,,,,,,,,,P028,FENCOG,2,Post,2022_Mar_16_1031,Go No-Go Task,2021.1.4,120.1344064
,"Rule: When you see a yellow image, do not press 'spacebar'.",Images/Fearful/HM09_FC.jpg,Fear,Blue,Images/Blue.jpg,space,ParentConditions/YellowBlueBlue_v2.xlsx,BlueBlueYellow,Conditions/Version_2/YellowHappyStop.xlsx,no,PASS,0.159769068,,,,,,,,,0,0,0,0,0,0,0,0,0,19,19,19,,,,,,,,,,,,,,,,,,,,,,,,,,,,,,,,,,,,,,,,,,,,,,,,,,,,,,,,,,,,,,,,,,,,,,,,,,,,,,,1.77,300.4572738,None,space,1,302.332557,None,302.332557,None,302.332557,None,0.2332822,,,,,,,,,,,P028,FENCOG,2,Post,2022_Mar_16_1031,Go No-Go Task,2021.1.4,120.1344064
,"Rule: When you see a yellow image, do not press 'spacebar'.",Images/Fearful/AM04_FO.jpg,Fear,Blue,Images/Blue.jpg,space,ParentConditions/YellowBlueBlue_v2.xlsx,BlueBlueYellow,Conditions/Version_2/YellowHappyStop.xlsx,no,PASS,0.78422328,,,,,,,,,0,0,0,0,0,0,0,0,0,20,20,20,,,,,,,,,,,,,,,,,,,,,,,,,,,,,,,,,,,,,,,,,,,,,,,,,,,,,,,,,,,,,,,,,,,,,,,,,,,,,,,1.68,302.7315142,None,space,1,304.5151624,None,304.5151624,None,304.5151624,None,0.2587891,,,,,,,,,,,P028,FENCOG,2,Post,2022_Mar_16_1031,Go No-Go Task,2021.1.4,120.1344064
,"Rule: When you see a yellow image, do not press 'spacebar'.",Images/Fearful/AF11AFS.jpg,Fear,Blue,Images/Blue.jpg,space,ParentConditions/YellowBlueBlue_v2.xlsx,BlueBlueYellow,Conditions/Version_2/YellowHappyStop.xlsx,no,PASS,0.575894855,,,,,,,,,0,0,0,0,0,0,0,0,0,21,21,21,,,,,,,,,,,,,,,,,,,,,,,,,,,,,,,,,,,,,,,,,,,,,,,,,,,,,,,,,,,,,,,,,,,,,,,,,,,,,,,1.91,304.9142563,None,space,1,306.9312068,None,306.9312068,None,306.9312068,None,0.3629037,,,,,,,,,,,P028,FENCOG,2,Post,2022_Mar_16_1031,Go No-Go Task,2021.1.4,120.1344064
,"Rule: When you see a yellow image, do not press 'spacebar'.",Images/Fearful/AM10_FO.jpg,Fear,Blue,Images/Blue.jpg,space,ParentConditions/YellowBlueBlue_v2.xlsx,BlueBlueYellow,Conditions/Version_2/YellowHappyStop.xlsx,no,PASS,0.751656074,,,,,,,,,0,0,0,0,0,0,0,0,0,22,22,22,,,,,,,,,,,,,,,,,,,,,,,,,,,,,,,,,,,,,,,,,,,,,,,,,,,,,,,,,,,,,,,,,,,,,,,,,,,,,,,1.33,307.330251,None,space,1,308.7639654,None,308.7639654,None,308.7639654,None,0.3378949,,,,,,,,,,,P028,FENCOG,2,Post,2022_Mar_16_1031,Go No-Go Task,2021.1.4,120.1344064
,"Rule: When you see a yellow image, do not press 'spacebar'.",Images/Fearful/WF04_FC.jpg,Fear,Blue,Images/Blue.jpg,space,ParentConditions/YellowBlueBlue_v2.xlsx,BlueBlueYellow,Conditions/Version_2/YellowHappyStop.xlsx,no,PASS,0.862629925,,,,,,,,,0,0,0,0,0,0,0,0,0,23,23,23,,,,,,,,,,,,,,,,,,,,,,,,,,,,,,,,,,,,,,,,,,,,,,,,,,,,,,,,,,,,,,,,,,,,,,,,,,,,,,,1.84,309.1630602,None,space,1,311.1049129,None,311.1049129,None,311.1049129,None,0.2849507,,,,,,,,,,,P028,FENCOG,2,Post,2022_Mar_16_1031,Go No-Go Task,2021.1.4,120.1344064
,"Rule: When you see a yellow image, do not press 'spacebar'.",Images/Fearful/AF28AFS.jpg,Fear,Blue,Images/Blue.jpg,space,ParentConditions/YellowBlueBlue_v2.xlsx,BlueBlueYellow,Conditions/Version_2/YellowHappyStop.xlsx,no,PASS,0.732611763,,,,,,,,,0,0,0,0,0,0,0,0,0,24,24,24,,,,,,,,,,,,,,,,,,,,,,,,,,,,,,,,,,,,,,,,,,,,,,,,,,,,,,,,,,,,,,,,,,,,,,,,,,,,,,,1.31,311.5040285,None,space,1,312.9209551,None,312.9209551,None,312.9209551,None,0.3251835,,,,,,,,,,,P028,FENCOG,2,Post,2022_Mar_16_1031,Go No-Go Task,2021.1.4,120.1344064
,"Rule: When you see a yellow image, do not press 'spacebar'.",Images/Fearful/WF11_FC.jpg,Fear,Blue,Images/Blue.jpg,space,ParentConditions/YellowBlueBlue_v2.xlsx,BlueBlueYellow,Conditions/Version_2/YellowHappyStop.xlsx,no,PASS,0.328836988,,,,,,,,,0,0,0,0,0,0,0,0,0,25,25,25,,,,,,,,,,,,,,,,,,,,,,,,,,,,,,,,,,,,,,,,,,,,,,,,,,,,,,,,,,,,,,,,,,,,,,,,,,,,,,,1.71,313.3201589,None,space,1,315.1370421,None,315.1370421,None,315.1370421,None,0.3650527,,,,,,,,,,,P028,FENCOG,2,Post,2022_Mar_16_1031,Go No-Go Task,2021.1.4,120.1344064
,"Rule: When you see a yellow image, do not press 'spacebar'.",Images/Fearful/AM17AFS.jpg,Fear,Blue,Images/Blue.jpg,space,ParentConditions/YellowBlueBlue_v2.xlsx,BlueBlueYellow,Conditions/Version_2/YellowHappyStop.xlsx,no,PASS,0.201145759,,,,,,,,,0,0,0,0,0,0,0,0,0,26,26,26,,,,,,,,,,,,,,,,,,,,,,,,,,,,,,,,,,,,,,,,,,,,,,,,,,,,,,,,,,,,,,,,,,,,,,,,,,,,,,,1.35,315.5361786,None,space,1,316.9866406,None,316.9866406,None,316.9866406,None,0.2195356,,,,,,,,,,,P028,FENCOG,2,Post,2022_Mar_16_1031,Go No-Go Task,2021.1.4,120.1344064
,"Rule: When you see a yellow image, do not press 'spacebar'.",Images/Happy/AF27HAS.jpg,Happy,Yellow,Images/Yellow.jpg,None,ParentConditions/YellowBlueBlue_v2.xlsx,BlueBlueYellow,Conditions/Version_2/YellowHappyStop.xlsx,yes,PASS,0.031134284,,,,,,,,,0,0,0,0,0,0,0,0,0,27,27,27,,,,,,,,,,,,,,,,,,,,,,,,,,,,,,,,,,,,,,,,,,,,,,,,,,,,,,,,,,,,,,,,,,,,,,,,,,,,,,,1.49,317.3855908,None,space,0,318.9775563,None,318.9775563,None,318.9775563,None,0.1964918,,,,,,,,,,,P028,FENCOG,2,Post,2022_Mar_16_1031,Go No-Go Task,2021.1.4,120.1344064
,"Rule: When you see a yellow image, do not press 'spacebar'.",Images/Fearful/BF10_FO.jpg,Fear,Blue,Images/Blue.jpg,space,ParentConditions/YellowBlueBlue_v2.xlsx,BlueBlueYellow,Conditions/Version_2/YellowHappyStop.xlsx,no,PASS,0.882134405,,,,,,,,,0,0,0,0,0,0,0,0,0,28,28,28,,,,,,,,,,,,,,,,,,,,,,,,,,,,,,,,,,,,,,,,,,,,,,,,,,,,,,,,,,,,,,,,,,,,,,,,,,,,,,,1.37,319.3767618,None,space,1,320.8440277,None,320.8440277,None,320.8440277,None,0.2339605,,,,,,,,,,,P028,FENCOG,2,Post,2022_Mar_16_1031,Go No-Go Task,2021.1.4,120.1344064
,"Rule: When you see a yellow image, do not press 'spacebar'.",Images/Fearful/HF04_FO.jpg,Fear,Blue,Images/Blue.jpg,space,ParentConditions/YellowBlueBlue_v2.xlsx,BlueBlueYellow,Conditions/Version_2/YellowHappyStop.xlsx,no,PASS,0.102369289,,,,,,,,,0,0,0,0,0,0,0,0,0,29,29,29,,,,,,,,,,,,,,,,,,,,,,,,,,,,,,,,,,,,,,,,,,,,,,,,,,,,,,,,,,,,,,,,,,,,,,,,,,,,,,,1.99,321.2428915,None,space,1,323.3346344,None,323.3346344,None,323.3346344,None,0.2154095,,,,,,,,,,,P028,FENCOG,2,Post,2022_Mar_16_1031,Go No-Go Task,2021.1.4,120.1344064
,"Rule: When you see a yellow image, do not press 'spacebar'.",Images/Happy/AF26HAS.jpg,Happy,Yellow,Images/Yellow.jpg,None,ParentConditions/YellowBlueBlue_v2.xlsx,BlueBlueYellow,Conditions/Version_2/YellowHappyStop.xlsx,yes,PASS,0.312277853,,,,,,,,,0,0,0,0,0,0,0,0,0,30,30,30,,,,,,,,,,,,,,,,,,,,,,,,,,,,,,,,,,,,,,,,,,,,,,,,,,,,,,,,,,,,,,,,,,,,,,,,,,,,,,,1.53,323.7336502,None,space,0,325.3675011,None,325.3675011,None,325.3675011,None,0.262369,,,,,,,,,,,P028,FENCOG,2,Post,2022_Mar_16_1031,Go No-Go Task,2021.1.4,120.1344064
,"Rule: When you see a yellow image, do not press 'spacebar'.",Images/Happy/HF09_HE.jpg,Happy,Yellow,Images/Yellow.jpg,None,ParentConditions/YellowBlueBlue_v2.xlsx,BlueBlueYellow,Conditions/Version_2/YellowHappyStop.xlsx,yes,PASS,0.888995458,,,,,,,,,0,0,0,0,0,0,0,0,0,31,31,31,,,,,,,,,,,,,,,,,,,,,,,,,,,,,,,,,,,,,,,,,,,,,,,,,,,,,,,,,,,,,,,,,,,,,,,,,,,,,,,1.93,325.7669824,None,space,0,327.800355,None,327.800355,None,327.800355,None,0.2776112,,,,,,,,,,,P028,FENCOG,2,Post,2022_Mar_16_1031,Go No-Go Task,2021.1.4,120.1344064
,"Rule: When you see a yellow image, do not press 'spacebar'.",Images/Fearful/AM16AFS.jpg,Fear,Blue,Images/Blue.jpg,space,ParentConditions/YellowBlueBlue_v2.xlsx,BlueBlueYellow,Conditions/Version_2/YellowHappyStop.xlsx,no,PASS,0.348563608,,,,,,,,,0,0,0,0,0,0,0,0,0,32,32,32,,,,,,,,,,,,,,,,,,,,,,,,,,,,,,,,,,,,,,,,,,,,,,,,,,,,,,,,,,,,,,,,,,,,,,,,,,,,,,,1.32,328.1991105,None,space,1,329.6244804,None,329.6244804,None,329.6244804,None,0.3254728,,,,,,,,,,,P028,FENCOG,2,Post,2022_Mar_16_1031,Go No-Go Task,2021.1.4,120.1344064
,"Rule: When you see a yellow image, do not press 'spacebar'.",Images/Fearful/WF05_FO.jpg,Fear,Blue,Images/Blue.jpg,space,ParentConditions/YellowBlueBlue_v2.xlsx,BlueBlueYellow,Conditions/Version_2/YellowHappyStop.xlsx,no,PASS,0.571161038,,,,,,,,,0,0,0,0,0,0,0,0,0,33,33,33,,,,,,,,,,,,,,,,,,,,,,,,,,,,,,,,,,,,,,,,,,,,,,,,,,,,,,,,,,,,,,,,,,,,,,,,,,,,,,,1.69,330.0235208,None,None,0,331.8154688,None,331.8154688,None,331.8154688,None,,,,,,,,,,,,P028,FENCOG,2,Post,2022_Mar_16_1031,Go No-Go Task,2021.1.4,120.1344064
,"Rule: When you see a yellow image, do not press 'spacebar'.",Images/Fearful/AM03_FC.jpg,Fear,Blue,Images/Blue.jpg,space,ParentConditions/YellowBlueBlue_v2.xlsx,BlueBlueYellow,Conditions/Version_2/YellowHappyStop.xlsx,no,PASS,0.795310309,,,,,,,,,0,0,0,0,0,0,0,0,0,34,34,34,,,,,,,,,,,,,,,,,,,,,,,,,,,,,,,,,,,,,,,,,,,,,,,,,,,,,,,,,,,,,,,,,,,,,,,,,,,,,,,1.57,332.2146572,None,space,1,333.8898588,None,333.8898588,None,333.8898588,None,0.2441306,,,,,,,,,,,P028,FENCOG,2,Post,2022_Mar_16_1031,Go No-Go Task,2021.1.4,120.1344064
,"Rule: When you see a yellow image, do not press 'spacebar'.",Images/Fearful/AM01AFS.jpg,Fear,Blue,Images/Blue.jpg,space,ParentConditions/YellowBlueBlue_v2.xlsx,BlueBlueYellow,Conditions/Version_2/YellowHappyStop.xlsx,no,PASS,0.096065523,,,,,,,,,0,0,0,0,0,0,0,0,0,35,35,35,,,,,,,,,,,,,,,,,,,,,,,,,,,,,,,,,,,,,,,,,,,,,,,,,,,,,,,,,,,,,,,,,,,,,,,,,,,,,,,1.95,334.2889923,None,space,1,336.3391578,None,336.3391578,None,336.3391578,None,0.2667787,,,,,,,,,,,P028,FENCOG,2,Post,2022_Mar_16_1031,Go No-Go Task,2021.1.4,120.1344064
,"Rule: When you see a yellow image, do not press 'spacebar'.",Images/Fearful/HM04_FC.jpg,Fear,Blue,Images/Blue.jpg,space,ParentConditions/YellowBlueBlue_v2.xlsx,BlueBlueYellow,Conditions/Version_2/YellowHappyStop.xlsx,no,PASS,0.267176525,,,,,,,,,0,0,0,0,0,0,0,0,0,36,36,36,,,,,,,,,,,,,,,,,,,,,,,,,,,,,,,,,,,,,,,,,,,,,,,,,,,,,,,,,,,,,,,,,,,,,,,,,,,,,,,1.64,336.7382787,None,None,0,338.4803339,None,338.4803339,None,338.4803339,None,,,,,,,,,,,,P028,FENCOG,2,Post,2022_Mar_16_1031,Go No-Go Task,2021.1.4,120.1344064
,"Rule: When you see a yellow image, do not press 'spacebar'.",Images/Fearful/BF18_FC.jpg,Fear,Blue,Images/Blue.jpg,space,ParentConditions/YellowBlueBlue_v2.xlsx,BlueBlueYellow,Conditions/Version_2/YellowHappyStop.xlsx,no,PASS,0.304931994,,,,,,,,,0,0,0,0,0,0,0,0,0,37,37,37,,,,,,,,,,,,,,,,,,,,,,,,,,,,,,,,,,,,,,,,,,,,,,,,,,,,,,,,,,,,,,,,,,,,,,,,,,,,,,,1.25,338.8792507,None,None,0,340.2297039,None,340.2297039,None,340.2297039,None,,,,,,,,,,,,P028,FENCOG,2,Post,2022_Mar_16_1031,Go No-Go Task,2021.1.4,120.1344064
,"Rule: When you see a yellow image, do not press 'spacebar'.",Images/Fearful/AF07_FO.jpg,Fear,Blue,Images/Blue.jpg,space,ParentConditions/YellowBlueBlue_v2.xlsx,BlueBlueYellow,Conditions/Version_2/YellowHappyStop.xlsx,no,PASS,0.065719812,,,,,,,,,0,0,0,0,0,0,0,0,0,38,38,38,,,,,,,,,,,,,,,,,,,,,,,,,,,,,,,,,,,,,,,,,,,,,,,,,,,,,,,,,,,,,,,,,,,,,,,,,,,,,,,1.46,340.628732,None,space,1,342.1957346,None,342.1957346,None,342.1957346,None,0.2422498,,,,,,,,,,,P028,FENCOG,2,Post,2022_Mar_16_1031,Go No-Go Task,2021.1.4,120.1344064
,"Rule: When you see a yellow image, do not press 'spacebar'.",Images/Fearful/AM24AFS.jpg,Fear,Blue,Images/Blue.jpg,space,ParentConditions/YellowBlueBlue_v2.xlsx,BlueBlueYellow,Conditions/Version_2/YellowHappyStop.xlsx,no,PASS,0.237386011,,,,,,,,,0,0,0,0,0,0,0,0,0,39,39,39,,,,,,,,,,,,,,,,,,,,,,,,,,,,,,,,,,,,,,,,,,,,,,,,,,,,,,,,,,,,,,,,,,,,,,,,,,,,,,,1.88,342.5948197,None,space,1,344.5783792,None,344.5783792,None,344.5783792,None,0.2196555,,,,,,,,,,,P028,FENCOG,2,Post,2022_Mar_16_1031,Go No-Go Task,2021.1.4,120.1344064
,"Rule: When you see a yellow image, do not press 'spacebar'.",Images/Fearful/AM03AFS.jpg,Fear,Blue,Images/Blue.jpg,space,ParentConditions/YellowBlueBlue_v2.xlsx,BlueBlueYellow,Conditions/Version_2/YellowHappyStop.xlsx,no,PASS,0.9496981,,,,,,,,,0,0,0,0,0,0,0,0,0,40,40,40,,,,,,,,,,,,,,,,,,,,,,,,,,,,,,,,,,,,,,,,,,,,,,,,,,,,,,,,,,,,,,,,,,,,,,,,,,,,,,,1.63,344.9775264,None,space,1,346.7111246,None,346.7111246,None,346.7111246,None,0.2310492,,,,,,,,,,,P028,FENCOG,2,Post,2022_Mar_16_1031,Go No-Go Task,2021.1.4,120.1344064
,"Rule: When you see a yellow image, do not press 'spacebar'.",Images/Fearful/BM08_FC.jpg,Fear,Blue,Images/Blue.jpg,space,ParentConditions/YellowBlueBlue_v2.xlsx,BlueBlueYellow,Conditions/Version_2/YellowHappyStop.xlsx,no,PASS,0.973180617,,,,,,,,,0,0,0,0,0,0,0,0,0,41,41,41,,,,,,,,,,,,,,,,,,,,,,,,,,,,,,,,,,,,,,,,,,,,,,,,,,,,,,,,,,,,,,,,,,,,,,,,,,,,,,,1.24,347.1102042,None,space,1,348.4522199,None,348.4522199,None,348.4522199,None,0.2817844,,,,,,,,,,,P028,FENCOG,2,Post,2022_Mar_16_1031,Go No-Go Task,2021.1.4,120.1344064
,"Rule: When you see a yellow image, do not press 'spacebar'.",Images/Fearful/AF32AFS.jpg,Fear,Blue,Images/Blue.jpg,space,ParentConditions/YellowBlueBlue_v2.xlsx,BlueBlueYellow,Conditions/Version_2/YellowHappyStop.xlsx,no,PASS,0.651679773,,,,,,,,,0,0,0,0,0,0,0,0,0,42,42,42,,,,,,,,,,,,,,,,,,,,,,,,,,,,,,,,,,,,,,,,,,,,,,,,,,,,,,,,,,,,,,,,,,,,,,,,,,,,,,,1.55,348.8540012,None,space,1,350.5099895,None,350.5099895,None,350.5099895,None,0.1679357,,,,,,,,,,,P028,FENCOG,2,Post,2022_Mar_16_1031,Go No-Go Task,2021.1.4,120.1344064
,"Rule: When you see a yellow image, do not press 'spacebar'.",Images/Fearful/AF26AFS.jpg,Fear,Blue,Images/Blue.jpg,space,ParentConditions/YellowBlueBlue_v2.xlsx,BlueBlueYellow,Conditions/Version_2/YellowHappyStop.xlsx,no,PASS,0.764646403,,,,,,,,,0,0,0,0,0,0,0,0,0,43,43,43,,,,,,,,,,,,,,,,,,,,,,,,,,,,,,,,,,,,,,,,,,,,,,,,,,,,,,,,,,,,,,,,,,,,,,,,,,,,,,,1.28,350.9090341,None,space,1,352.2927557,None,352.2927557,None,352.2927557,None,0.1132909,,,,,,,,,,,P028,FENCOG,2,Post,2022_Mar_16_1031,Go No-Go Task,2021.1.4,120.1344064
,"Rule: When you see a yellow image, do not press 'spacebar'.",Images/Fearful/BF09_FC.jpg,Fear,Blue,Images/Blue.jpg,space,ParentConditions/YellowBlueBlue_v2.xlsx,BlueBlueYellow,Conditions/Version_2/YellowHappyStop.xlsx,no,PASS,0.026085525,,,,,,,,,0,0,0,0,0,0,0,0,0,44,44,44,,,,,,,,,,,,,,,,,,,,,,,,,,,,,,,,,,,,,,,,,,,,,,,,,,,,,,,,,,,,,,,,,,,,,,,,,,,,,,,1.21,352.6918616,None,space,1,354.0092559,None,354.0092559,None,354.0092559,None,0.244627,,,,,,,,,,,P028,FENCOG,2,Post,2022_Mar_16_1031,Go No-Go Task,2021.1.4,120.1344064
,"Rule: When you see a yellow image, do not press 'spacebar'.",Images/Fearful/BM01_FO.jpg,Fear,Blue,Images/Blue.jpg,space,ParentConditions/YellowBlueBlue_v2.xlsx,BlueBlueYellow,Conditions/Version_2/YellowHappyStop.xlsx,no,PASS,0.554663224,,,,,,,,,0,0,0,0,0,0,0,0,0,45,45,45,,,,,,,,,,,,,,,,,,,,,,,,,,,,,,,,,,,,,,,,,,,,,,,,,,,,,,,,,,,,,,,,,,,,,,,,,,,,,,,1.34,354.4079367,None,space,1,355.8501193,None,355.8501193,None,355.8501193,None,0.2357323,,,,,,,,,,,P028,FENCOG,2,Post,2022_Mar_16_1031,Go No-Go Task,2021.1.4,120.1344064
,"Rule: When you see a yellow image, do not press 'spacebar'.",Images/Happy/BF14_HO.jpg,Happy,Yellow,Images/Yellow.jpg,None,ParentConditions/YellowBlueBlue_v2.xlsx,BlueBlueYellow,Conditions/Version_2/YellowHappyStop.xlsx,yes,PASS,0.812818136,,,,,,,,,0,0,0,0,0,0,0,0,0,46,46,46,,,,,,,,,,,,,,,,,,,,,,,,,,,,,,,,,,,,,,,,,,,,,,,,,,,,,,,,,,,,,,,,,,,,,,,,,,,,,,,1.72,356.2491667,None,space,0,358.0746021,None,358.0746021,None,358.0746021,None,0.2512705,,,,,,,,,,,P028,FENCOG,2,Post,2022_Mar_16_1031,Go No-Go Task,2021.1.4,120.1344064
,"Rule: When you see a yellow image, do not press 'spacebar'.",Images/Fearful/WM11_FC.jpg,Fear,Blue,Images/Blue.jpg,space,ParentConditions/YellowBlueBlue_v2.xlsx,BlueBlueYellow,Conditions/Version_2/YellowHappyStop.xlsx,no,PASS,0.925118701,,,,,,,,,0,0,0,0,0,0,0,0,0,47,47,47,,,,,,,,,,,,,,,,,,,,,,,,,,,,,,,,,,,,,,,,,,,,,,,,,,,,,,,,,,,,,,,,,,,,,,,,,,,,,,,1.43,358.4734674,None,None,0,360.0071797,None,360.0071797,None,360.0071797,None,,,,,,,,,,,,P028,FENCOG,2,Post,2022_Mar_16_1031,Go No-Go Task,2021.1.4,120.1344064
,"Rule: When you see a yellow image, do not press 'spacebar'.",Images/Fearful/AM02_FO.jpg,Fear,Blue,Images/Blue.jpg,space,ParentConditions/YellowBlueBlue_v2.xlsx,BlueBlueYellow,Conditions/Version_2/YellowHappyStop.xlsx,no,PASS,0.04558117,,,,,,,,,0,0,0,0,0,0,0,0,0,48,48,48,,,,,,,,,,,,,,,,,,,,,,,,,,,,,,,,,,,,,,,,,,,,,,,,,,,,,,,,,,,,,,,,,,,,,,,,,,,,,,,1.85,360.4061951,None,space,1,362.356436,None,362.356436,None,362.356436,None,0.2895973,,,,,,,,,,,P028,FENCOG,2,Post,2022_Mar_16_1031,Go No-Go Task,2021.1.4,120.1344064
,"Rule: When you see a yellow image, do not press 'spacebar'.",Images/Happy/HM09_HO.jpg,Happy,Yellow,Images/Yellow.jpg,None,ParentConditions/YellowBlueBlue_v2.xlsx,BlueBlueYellow,Conditions/Version_2/YellowHappyStop.xlsx,yes,PASS,0.321997403,,,,,,,,,0,0,0,0,0,0,0,0,0,49,49,49,,,,,,,,,,,,,,,,,,,,,,,,,,,,,,,,,,,,,,,,,,,,,,,,,,,,,,,,,,,,,,,,,,,,,,,,,,,,,,,1.65,362.7555863,None,None,1,364.497461,None,364.497461,None,364.497461,None,,,,,,,,,,,,P028,FENCOG,2,Post,2022_Mar_16_1031,Go No-Go Task,2021.1.4,120.1344064
,"Rule: When you see a yellow image, do not press 'spacebar'.",Images/Happy/HF10_HE.jpg,Happy,Yellow,Images/Yellow.jpg,None,ParentConditions/YellowBlueBlue_v2.xlsx,BlueBlueYellow,Conditions/Version_2/YellowHappyStop.xlsx,yes,PASS,0.561353553,,,,,,,,,0,0,0,0,0,0,0,0,0,50,50,50,,,,,,,,,,,,,,,,,,,,,,,,,,,,,,,,,,,,,,,,,,,,,,,,,,,,,,,,,,,,,,,,,,,,,,,,,,,,,,,1.23,364.8965985,None,None,1,366.2303057,None,366.2303057,None,366.2303057,None,,,,,,,,,,,,P028,FENCOG,2,Post,2022_Mar_16_1031,Go No-Go Task,2021.1.4,120.1344064
,"Rule: When you see a yellow image, do not press 'spacebar'.",Images/Fearful/AF09AFS.jpg,Fear,Blue,Images/Blue.jpg,space,ParentConditions/YellowBlueBlue_v2.xlsx,BlueBlueYellow,Conditions/Version_2/YellowHappyStop.xlsx,no,PASS,0.551149285,,,,,,,,,0,0,0,0,0,0,0,0,0,51,51,51,,,,,,,,,,,,,,,,,,,,,,,,,,,,,,,,,,,,,,,,,,,,,,,,,,,,,,,,,,,,,,,,,,,,,,,,,,,,,,,1.75,366.6334002,None,space,1,368.4879681,None,368.4879681,None,368.4879681,None,0.2219229,,,,,,,,,,,P028,FENCOG,2,Post,2022_Mar_16_1031,Go No-Go Task,2021.1.4,120.1344064
,"Rule: When you see a yellow image, do not press 'spacebar'.",Images/Fearful/AM23AFS.jpg,Fear,Blue,Images/Blue.jpg,space,ParentConditions/YellowBlueBlue_v2.xlsx,BlueBlueYellow,Conditions/Version_2/YellowHappyStop.xlsx,no,PASS,0.21599725,,,,,,,,,0,0,0,0,0,0,0,0,0,52,52,52,,,,,,,,,,,,,,,,,,,,,,,,,,,,,,,,,,,,,,,,,,,,,,,,,,,,,,,,,,,,,,,,,,,,,,,,,,,,,,,2,368.887011,None,space,1,370.9872811,None,370.9872811,None,370.9872811,None,0.3067435,,,,,,,,,,,P028,FENCOG,2,Post,2022_Mar_16_1031,Go No-Go Task,2021.1.4,120.1344064
,"Rule: When you see a yellow image, do not press 'spacebar'.",Images/Fearful/AM05AFS.jpg,Fear,Blue,Images/Blue.jpg,space,ParentConditions/YellowBlueBlue_v2.xlsx,BlueBlueYellow,Conditions/Version_2/YellowHappyStop.xlsx,no,PASS,0.188273353,,,,,,,,,0,0,0,0,0,0,0,0,0,53,53,53,,,,,,,,,,,,,,,,,,,,,,,,,,,,,,,,,,,,,,,,,,,,,,,,,,,,,,,,,,,,,,,,,,,,,,,,,,,,,,,1.48,371.3863294,None,space,1,372.9699939,None,372.9699939,None,372.9699939,None,0.3159696,,,,,,,,,,,P028,FENCOG,2,Post,2022_Mar_16_1031,Go No-Go Task,2021.1.4,120.1344064
,"Rule: When you see a yellow image, do not press 'spacebar'.",Images/Happy/AF28HAS.jpg,Happy,Yellow,Images/Yellow.jpg,None,ParentConditions/YellowBlueBlue_v2.xlsx,BlueBlueYellow,Conditions/Version_2/YellowHappyStop.xlsx,yes,PASS,0.744400867,,,,,,,,,0,0,0,0,0,0,0,0,0,54,54,54,,,,,,,,,,,,,,,,,,,,,,,,,,,,,,,,,,,,,,,,,,,,,,,,,,,,,,,,,,,,,,,,,,,,,,,,,,,,,,,1.29,373.3690805,None,None,1,374.7694645,None,374.7694645,None,374.7694645,None,,,,,,,,,,,,P028,FENCOG,2,Post,2022_Mar_16_1031,Go No-Go Task,2021.1.4,120.1344064
,"Rule: When you see a yellow image, do not press 'spacebar'.",Images/Fearful/BF14_FO.jpg,Fear,Blue,Images/Blue.jpg,space,ParentConditions/YellowBlueBlue_v2.xlsx,BlueBlueYellow,Conditions/Version_2/YellowHappyStop.xlsx,no,PASS,0.036114313,,,,,,,,,0,0,0,0,0,0,0,0,0,55,55,55,,,,,,,,,,,,,,,,,,,,,,,,,,,,,,,,,,,,,,,,,,,,,,,,,,,,,,,,,,,,,,,,,,,,,,,,,,,,,,,1.22,375.1685634,None,space,1,376.4940112,None,376.4940112,None,376.4940112,None,0.3119455,,,,,,,,,,,P028,FENCOG,2,Post,2022_Mar_16_1031,Go No-Go Task,2021.1.4,120.1344064
,"Rule: When you see a yellow image, do not press 'spacebar'.",Images/Happy/AM30HAS.jpg,Happy,Yellow,Images/Yellow.jpg,None,ParentConditions/YellowBlueBlue_v2.xlsx,BlueBlueYellow,Conditions/Version_2/YellowHappyStop.xlsx,yes,PASS,0.927632349,,,,,,,,,0,0,0,0,0,0,0,0,0,56,56,56,,,,,,,,,,,,,,,,,,,,,,,,,,,,,,,,,,,,,,,,,,,,,,,,,,,,,,,,,,,,,,,,,,,,,,,,,,,,,,,1.5,376.8930399,None,None,1,378.4933948,None,378.4933948,None,378.4933948,None,,,,,,,,,,,,P028,FENCOG,2,Post,2022_Mar_16_1031,Go No-Go Task,2021.1.4,120.1344064
,"Rule: When you see a yellow image, do not press 'spacebar'.",Images/Fearful/AF27AFS.jpg,Fear,Blue,Images/Blue.jpg,space,ParentConditions/YellowBlueBlue_v2.xlsx,BlueBlueYellow,Conditions/Version_2/YellowHappyStop.xlsx,no,PASS,0.967433664,,,,,,,,,0,0,0,0,0,0,0,0,0,57,57,57,,,,,,,,,,,,,,,,,,,,,,,,,,,,,,,,,,,,,,,,,,,,,,,,,,,,,,,,,,,,,,,,,,,,,,,,,,,,,,,1.79,378.8925164,None,None,0,380.7762194,None,380.7762194,None,380.7762194,None,,,,,,,,,,,,P028,FENCOG,2,Post,2022_Mar_16_1031,Go No-Go Task,2021.1.4,120.1344064
,"Rule: When you see a yellow image, do not press 'spacebar'.",Images/Fearful/AM32AFS.jpg,Fear,Blue,Images/Blue.jpg,space,ParentConditions/YellowBlueBlue_v2.xlsx,BlueBlueYellow,Conditions/Version_2/YellowHappyStop.xlsx,no,PASS,0.542932083,,,,,,,,,0,0,0,0,0,0,0,0,0,58,58,58,,,,,,,,,,,,,,,,,,,,,,,,,,,,,,,,,,,,,,,,,,,,,,,,,,,,,,,,,,,,,,,,,,,,,,,,,,,,,,,1.3,381.175855,None,space,1,382.5758932,None,382.5758932,None,382.5758932,None,0.3343624,,,,,,,,,,,P028,FENCOG,2,Post,2022_Mar_16_1031,Go No-Go Task,2021.1.4,120.1344064
,"Rule: When you see a yellow image, do not press 'spacebar'.",Images/Fearful/AM09_FO.jpg,Fear,Blue,Images/Blue.jpg,space,ParentConditions/YellowBlueBlue_v2.xlsx,BlueBlueYellow,Conditions/Version_2/YellowHappyStop.xlsx,no,PASS,0.524898923,,,,,,,,,0,0,0,0,0,0,0,0,0,59,59,59,,,,,,,,,,,,,,,,,,,,,,,,,,,,,,,,,,,,,,,,,,,,,,,,,,,,,,,,,,,,,,,,,,,,,,,,,,,,,,,1.41,382.9830734,None,space,1,384.5002791,None,384.5002791,None,384.5002791,None,0.258089,,,,,,,,,,,P028,FENCOG,2,Post,2022_Mar_16_1031,Go No-Go Task,2021.1.4,120.1344064
,"Rule: When you see a yellow image, do not press 'spacebar'.",Images/Fearful/AF01_FO.jpg,Fear,Blue,Images/Blue.jpg,space,ParentConditions/YellowBlueBlue_v2.xlsx,BlueBlueYellow,Conditions/Version_2/YellowHappyStop.xlsx,no,PASS,0.007145119,,,,,,,,,0,0,0,0,0,0,0,0,0,60,60,60,,,,,,,,,,,,,,,,,,,,,,,,,,,,,,,,,,,,,,,,,,,,,,,,,,,,,,,,,,,,,,,,,,,,,,,,,,,,,,,1.47,384.8997446,None,space,1,386.4914788,None,386.4914788,None,386.4914788,None,0.2187223,,,,,,,,,,,P028,FENCOG,2,Post,2022_Mar_16_1031,Go No-Go Task,2021.1.4,120.1344064
,"Rule: When you see a yellow image, do not press 'spacebar'.",Images/Happy/AM10_HO.jpg,Happy,Yellow,Images/Yellow.jpg,None,ParentConditions/YellowBlueBlue_v2.xlsx,BlueBlueYellow,Conditions/Version_2/YellowHappyStop.xlsx,yes,PASS,0.834118648,,,,,,,,,0,0,0,0,0,0,0,0,0,61,61,61,,,,,,,,,,,,,,,,,,,,,,,,,,,,,,,,,,,,,,,,,,,,,,,,,,,,,,,,,,,,,,,,,,,,,,,,,,,,,,,1.62,386.882106,None,None,1,388.6075285,None,388.6075285,None,388.6075285,None,,,,,,,,,,,,P028,FENCOG,2,Post,2022_Mar_16_1031,Go No-Go Task,2021.1.4,120.1344064
,"Rule: When you see a yellow image, do not press 'spacebar'.",Images/Happy/AM22HAS.jpg,Happy,Yellow,Images/Yellow.jpg,None,ParentConditions/YellowBlueBlue_v2.xlsx,BlueBlueYellow,Conditions/Version_2/YellowHappyStop.xlsx,yes,PASS,0.617241984,,,,,,,,,0,0,0,0,0,0,0,0,0,62,62,62,,,,,,,,,,,,,,,,,,,,,,,,,,,,,,,,,,,,,,,,,,,,,,,,,,,,,,,,,,,,,,,,,,,,,,,,,,,,,,,1.81,389.0082614,None,space,0,390.9317395,None,390.9317395,None,390.9317395,None,0.178259,,,,,,,,,,,P028,FENCOG,2,Post,2022_Mar_16_1031,Go No-Go Task,2021.1.4,120.1344064
,"Rule: When you see a yellow image, do not press 'spacebar'.",Images/Fearful/AM22AFS.jpg,Fear,Blue,Images/Blue.jpg,space,ParentConditions/YellowBlueBlue_v2.xlsx,BlueBlueYellow,Conditions/Version_2/YellowHappyStop.xlsx,no,PASS,0.137358446,,,,,,,,,0,0,0,0,0,0,0,0,0,63,63,63,,,,,,,,,,,,,,,,,,,,,,,,,,,,,,,,,,,,,,,,,,,,,,,,,,,,,,,,,,,,,,,,,,,,,,,,,,,,,,,1.56,391.3322619,None,space,1,392.9978024,None,392.9978024,None,392.9978024,None,0.3282386,,,,,,,,,,,P028,FENCOG,2,Post,2022_Mar_16_1031,Go No-Go Task,2021.1.4,120.1344064
,"Rule: When you see a yellow image, do not press 'spacebar'.",Images/Happy/BM08_HO.jpg,Happy,Yellow,Images/Yellow.jpg,None,ParentConditions/YellowBlueBlue_v2.xlsx,BlueBlueYellow,Conditions/Version_2/YellowHappyStop.xlsx,yes,PASS,0.198226287,,,,,,,,,0,0,0,0,0,0,0,0,0,64,64,64,,,,,,,,,,,,,,,,,,,,,,,,,,,,,,,,,,,,,,,,,,,,,,,,,,,,,,,,,,,,,,,,,,,,,,,,,,,,,,,1.38,393.3989431,None,None,1,394.8805794,None,394.8805794,None,394.8805794,None,,,,,,,,,,,,P028,FENCOG,2,Post,2022_Mar_16_1031,Go No-Go Task,2021.1.4,120.1344064
,"Rule: When you see a yellow image, do not press 'spacebar'.",Images/Fearful/AM19AFS.jpg,Fear,Blue,Images/Blue.jpg,space,ParentConditions/YellowBlueBlue_v2.xlsx,BlueBlueYellow,Conditions/Version_2/YellowHappyStop.xlsx,no,PASS,0.984653745,,,,,,,,,0,0,0,0,0,0,0,0,0,65,65,65,,,,,,,,,,,,,,,,,,,,,,,,,,,,,,,,,,,,,,,,,,,,,,,,,,,,,,,,,,,,,,,,,,,,,,,,,,,,,,,1.76,395.2798298,None,space,1,397.1467323,None,397.1467323,None,397.1467323,None,0.2512615,,,,,,,,,,,P028,FENCOG,2,Post,2022_Mar_16_1031,Go No-Go Task,2021.1.4,120.1344064
,"Rule: When you see a yellow image, do not press 'spacebar'.",Images/Fearful/AF23AFS.jpg,Fear,Blue,Images/Blue.jpg,space,ParentConditions/YellowBlueBlue_v2.xlsx,BlueBlueYellow,Conditions/Version_2/YellowHappyStop.xlsx,no,PASS,0.06538282,,,,,,,,,0,0,0,0,0,0,0,0,0,66,66,66,,,,,,,,,,,,,,,,,,,,,,,,,,,,,,,,,,,,,,,,,,,,,,,,,,,,,,,,,,,,,,,,,,,,,,,,,,,,,,,1.82,397.5487387,None,space,1,399.4709037,None,399.4709037,None,399.4709037,None,0.2630509,,,,,,,,,,,P028,FENCOG,2,Post,2022_Mar_16_1031,Go No-Go Task,2021.1.4,120.1344064
,"Rule: When you see a yellow image, do not press 'spacebar'.",Images/Fearful/AM13AFS.jpg,Fear,Blue,Images/Blue.jpg,space,ParentConditions/YellowBlueBlue_v2.xlsx,BlueBlueYellow,Conditions/Version_2/YellowHappyStop.xlsx,no,PASS,0.501942139,,,,,,,,,0,0,0,0,0,0,0,0,0,67,67,67,,,,,,,,,,,,,,,,,,,,,,,,,,,,,,,,,,,,,,,,,,,,,,,,,,,,,,,,,,,,,,,,,,,,,,,,,,,,,,,1.83,399.870102,None,space,1,401.8035395,None,401.8035395,None,401.8035395,None,0.3624938,,,,,,,,,,,P028,FENCOG,2,Post,2022_Mar_16_1031,Go No-Go Task,2021.1.4,120.1344064
,"Rule: When you see a yellow image, do not press 'spacebar'.",Images/Fearful/HF09_FC.jpg,Fear,Blue,Images/Blue.jpg,space,ParentConditions/YellowBlueBlue_v2.xlsx,BlueBlueYellow,Conditions/Version_2/YellowHappyStop.xlsx,no,PASS,0.586310131,,,,,,,,,0,0,0,0,0,0,0,0,0,68,68,68,,,,,,,,,,,,,,,,,,,,,,,,,,,,,,,,,,,,,,,,,,,,,,,,,,,,,,,,,,,,,,,,,,,,,,,,,,,,,,,1.54,402.2041887,None,space,1,403.8445841,None,403.8445841,None,403.8445841,None,0.225443,,,,,,,,,,,P028,FENCOG,2,Post,2022_Mar_16_1031,Go No-Go Task,2021.1.4,120.1344064
,"Rule: When you see a yellow image, do not press 'spacebar'.",Images/Fearful/AM04AFS.jpg,Fear,Blue,Images/Blue.jpg,space,ParentConditions/YellowBlueBlue_v2.xlsx,BlueBlueYellow,Conditions/Version_2/YellowHappyStop.xlsx,no,PASS,0.946458816,,,,,,,,,0,0,0,0,0,0,0,0,0,69,69,69,,,,,,,,,,,,,,,,,,,,,,,,,,,,,,,,,,,,,,,,,,,,,,,,,,,,,,,,,,,,,,,,,,,,,,,,,,,,,,,1.73,404.2437289,None,space,1,406.0772653,None,406.0772653,None,406.0772653,None,0.2328486,,,,,,,,,,,P028,FENCOG,2,Post,2022_Mar_16_1031,Go No-Go Task,2021.1.4,120.1344064
,"Rule: When you see a yellow image, do not press 'spacebar'.",Images/Fearful/AF02AFS.jpg,Fear,Blue,Images/Blue.jpg,space,ParentConditions/YellowBlueBlue_v2.xlsx,BlueBlueYellow,Conditions/Version_2/YellowHappyStop.xlsx,no,PASS,0.74583501,,,,,,,,,0,0,0,0,0,0,0,0,0,70,70,70,,,,,,,,,,,,,,,,,,,,,,,,,,,,,,,,,,,,,,,,,,,,,,,,,,,,,,,,,,,,,,,,,,,,,,,,,,,,,,,1.42,406.4776533,None,space,1,408.0017258,None,408.0017258,None,408.0017258,None,0.2922658,,,,,,,,,,,P028,FENCOG,2,Post,2022_Mar_16_1031,Go No-Go Task,2021.1.4,120.1344064
,"Rule: When you see a yellow image, do not press 'spacebar'.",Images/Fearful/AM09AFS.jpg,Fear,Blue,Images/Blue.jpg,space,ParentConditions/YellowBlueBlue_v2.xlsx,BlueBlueYellow,Conditions/Version_2/YellowHappyStop.xlsx,no,PASS,0.850189499,,,,,,,,,0,0,0,0,0,0,0,0,0,71,71,71,,,,,,,,,,,,,,,,,,,,,,,,,,,,,,,,,,,,,,,,,,,,,,,,,,,,,,,,,,,,,,,,,,,,,,,,,,,,,,,1.26,408.4077819,None,space,1,409.7678582,None,409.7678582,None,409.7678582,None,0.1985345,,,,,,,,,,,P028,FENCOG,2,Post,2022_Mar_16_1031,Go No-Go Task,2021.1.4,120.1344064
,"Rule: When you see a yellow image, do not press 'spacebar'.",Images/Fearful/BF05_FO.jpg,Fear,Blue,Images/Blue.jpg,space,ParentConditions/YellowBlueBlue_v2.xlsx,BlueBlueYellow,Conditions/Version_2/YellowHappyStop.xlsx,no,PASS,0.415524872,,,,,,,,,0,0,0,0,0,0,0,0,0,72,72,72,,,,,,,,,,,,,,,,,,,,,,,,,,,,,,,,,,,,,,,,,,,,,,,,,,,,,,,,,,,,,,,,,,,,,,,,,,,,,,,1.61,410.16823,None,space,1,411.8838851,None,411.8838851,None,411.8838851,None,0.1862836,,,,,,,,,,,P028,FENCOG,2,Post,2022_Mar_16_1031,Go No-Go Task,2021.1.4,120.1344064
,"Rule: When you see a yellow image, do not press 'spacebar'.",Images/Fearful/AF22AFS.jpg,Fear,Blue,Images/Blue.jpg,space,ParentConditions/YellowBlueBlue_v2.xlsx,BlueBlueYellow,Conditions/Version_2/YellowHappyStop.xlsx,no,PASS,0.670101979,,,,,,,,,0,0,0,0,0,0,0,0,0,73,73,73,,,,,,,,,,,,,,,,,,,,,,,,,,,,,,,,,,,,,,,,,,,,,,,,,,,,,,,,,,,,,,,,,,,,,,,,,,,,,,,1.94,412.2831209,None,space,1,414.3248705,None,414.3248705,None,414.3248705,None,0.1053322,,,,,,,,,,,P028,FENCOG,2,Post,2022_Mar_16_1031,Go No-Go Task,2021.1.4,120.1344064
,"Rule: When you see a yellow image, do not press 'spacebar'.",Images/Happy/BF18_HO.jpg,Happy,Yellow,Images/Yellow.jpg,None,ParentConditions/YellowBlueBlue_v2.xlsx,BlueBlueYellow,Conditions/Version_2/YellowHappyStop.xlsx,yes,PASS,0.414379417,,,,,,,,,0,0,0,0,0,0,0,0,0,74,74,74,,,,,,,,,,,,,,,,,,,,,,,,,,,,,,,,,,,,,,,,,,,,,,,,,,,,,,,,,,,,,,,,,,,,,,,,,,,,,,,1.6,414.725961,None,None,1,416.4325334,None,416.4325334,None,416.4325334,None,,,,,,,,,,,,P028,FENCOG,2,Post,2022_Mar_16_1031,Go No-Go Task,2021.1.4,120.1344064
,"Rule: When you see a yellow image, do not press 'spacebar'.",Images/Fearful/WM12_FO.jpg,Fear,Blue,Images/Blue.jpg,space,ParentConditions/YellowBlueBlue_v2.xlsx,BlueBlueYellow,Conditions/Version_2/YellowHappyStop.xlsx,no,PASS,0.577397465,,,,,,,,,0,0,0,0,0,0,0,0,0,75,75,75,,,,,,,,,,,,,,,,,,,,,,,,,,,,,,,,,,,,,,,,,,,,,,,,,,,,,,,,,,,,,,,,,,,,,,,,,,,,,,,1.97,416.8328966,None,space,1,418.906821,None,418.906821,None,418.906821,None,0.3232033,,,,,,,,,,,P028,FENCOG,2,Post,2022_Mar_16_1031,Go No-Go Task,2021.1.4,120.1344064
,"Rule: When you see a yellow image, do not press 'spacebar'.",Images/Fearful/BF07_FO.jpg,Fear,Blue,Images/Blue.jpg,space,ParentConditions/YellowBlueBlue_v2.xlsx,BlueBlueYellow,Conditions/Version_2/YellowHappyStop.xlsx,no,PASS,0.317591001,,,,,,,,,0,0,0,0,0,0,0,0,0,76,76,76,,,,,,,,,,,,,,,,,,,,,,,,,,,,,,,,,,,,,,,,,,,,,,,,,,,,,,,,,,,,,,,,,,,,,,,,,,,,,,,1.2,419.3073645,None,space,1,420.6147073,None,420.6147073,None,420.6147073,None,0.2795196,,,,,,,,,,,P028,FENCOG,2,Post,2022_Mar_16_1031,Go No-Go Task,2021.1.4,120.1344064
,"Rule: When you see a yellow image, do not press 'spacebar'.",Images/Fearful/HF10_FO.jpg,Fear,Blue,Images/Blue.jpg,space,ParentConditions/YellowBlueBlue_v2.xlsx,BlueBlueYellow,Conditions/Version_2/YellowHappyStop.xlsx,no,PASS,0.551135604,,,,,,,,,0,0,0,0,0,0,0,0,0,77,77,77,,,,,,,,,,,,,,,,,,,,,,,,,,,,,,,,,,,,,,,,,,,,,,,,,,,,,,,,,,,,,,,,,,,,,,,,,,,,,,,1.7,421.0138296,None,space,1,422.8139299,None,422.8139299,None,422.8139299,None,0.280199,,,,,,,,,,,P028,FENCOG,2,Post,2022_Mar_16_1031,Go No-Go Task,2021.1.4,120.1344064
,"Rule: When you see a yellow image, do not press 'spacebar'.",Images/Fearful/AM10AFS.jpg,Fear,Blue,Images/Blue.jpg,space,ParentConditions/YellowBlueBlue_v2.xlsx,BlueBlueYellow,Conditions/Version_2/YellowHappyStop.xlsx,no,PASS,0.516543326,,,,,,,,,0,0,0,0,0,0,0,0,0,78,78,78,,,,,,,,,,,,,,,,,,,,,,,,,,,,,,,,,,,,,,,,,,,,,,,,,,,,,,,,,,,,,,,,,,,,,,,,,,,,,,,1.39,423.2164903,None,space,1,424.7134174,None,424.7134174,None,424.7134174,None,0.2129415,,,,,,,,,,,P028,FENCOG,2,Post,2022_Mar_16_1031,Go No-Go Task,2021.1.4,120.1344064
,"Rule: When you see a yellow image, do not press 'spacebar'.",Images/Happy/AM23HAS.jpg,Happy,Yellow,Images/Yellow.jpg,None,ParentConditions/YellowBlueBlue_v2.xlsx,BlueBlueYellow,Conditions/Version_2/YellowHappyStop.xlsx,yes,PASS,0.422368741,,,,,,,,,0,0,0,0,0,0,0,0,0,79,79,79,,,,,,,,,,,,,,,,,,,,,,,,,,,,,,,,,,,,,,,,,,,,,,,,,,,,,,,,,,,,,,,,,,,,,,,,,,,,,,,1.98,425.1149346,None,space,0,427.1961505,None,427.1961505,None,427.1961505,None,0.2262249,,,,,,,,,,,P028,FENCOG,2,Post,2022_Mar_16_1031,Go No-Go Task,2021.1.4,120.1344064
,"Rule: When you see blue image, do not press 'spacebar'.",Images/Fearful/HM06_FC.jpg,Fear,Blue,Images/Blue.jpg,None,ParentConditions/YellowBlueBlue_v2.xlsx,BlueBlueYellow,Conditions/Version_2/BlueFearStop.xlsx,yes,PASS,0.290491045,,,,,,,,,0,0,0,0,0,1,1,1,0,0,0,0,,,,,,,,,,,,,,,,,,,,,,,,,,,,,,,,,,,,,,,,,,,,,,,,,,,,,,,,,,,,,,,,,434.0492181,None,437.0342825,None,space,0.7556445,437.0342825,None,434.0492181,None,434.0492181,None,434.0492181,None,1.23,437.8438379,None,space,0,439.1758718,None,439.1758718,None,439.1758718,None,0.3585132,427.6098358,None,space,5.9186948,428.1034632,None,427.6098358,None,427.6098358,None,P028,FENCOG,2,Post,2022_Mar_16_1031,Go No-Go Task,2021.1.4,120.1344064
,"Rule: When you see blue image, do not press 'spacebar'.",Images/Happy/AF07HAS.jpg,Happy,Yellow,Images/Yellow.jpg,space,ParentConditions/YellowBlueBlue_v2.xlsx,BlueBlueYellow,Conditions/Version_2/BlueFearStop.xlsx,no,PASS,0.306016579,,,,,,,,,0,0,0,0,0,1,1,1,0,1,1,1,,,,,,,,,,,,,,,,,,,,,,,,,,,,,,,,,,,,,,,,,,,,,,,,,,,,,,,,,,,,,,,,,,,,,,,,,,,,,,,1.44,439.5778161,None,space,1,441.1252861,None,441.1252861,None,441.1252861,None,0.3128183,,,,,,,,,,,P028,FENCOG,2,Post,2022_Mar_16_1031,Go No-Go Task,2021.1.4,120.1344064
,"Rule: When you see blue image, do not press 'spacebar'.",Images/Happy/AF28HAS.jpg,Happy,Yellow,Images/Yellow.jpg,space,ParentConditions/YellowBlueBlue_v2.xlsx,BlueBlueYellow,Conditions/Version_2/BlueFearStop.xlsx,no,PASS,0.234586009,,,,,,,,,0,0,0,0,0,1,1,1,0,2,2,2,,,,,,,,,,,,,,,,,,,,,,,,,,,,,,,,,,,,,,,,,,,,,,,,,,,,,,,,,,,,,,,,,,,,,,,,,,,,,,,1.28,441.5260242,None,space,1,442.9081077,None,442.9081077,None,442.9081077,None,0.3458395,,,,,,,,,,,P028,FENCOG,2,Post,2022_Mar_16_1031,Go No-Go Task,2021.1.4,120.1344064
,"Rule: When you see blue image, do not press 'spacebar'.",Images/Happy/AF22HAS.jpg,Happy,Yellow,Images/Yellow.jpg,space,ParentConditions/YellowBlueBlue_v2.xlsx,BlueBlueYellow,Conditions/Version_2/BlueFearStop.xlsx,no,PASS,0.118991329,,,,,,,,,0,0,0,0,0,1,1,1,0,3,3,3,,,,,,,,,,,,,,,,,,,,,,,,,,,,,,,,,,,,,,,,,,,,,,,,,,,,,,,,,,,,,,,,,,,,,,,,,,,,,,,1.4,443.3089949,None,space,1,444.8158491,None,444.8158491,None,444.8158491,None,0.3182424,,,,,,,,,,,P028,FENCOG,2,Post,2022_Mar_16_1031,Go No-Go Task,2021.1.4,120.1344064
,"Rule: When you see blue image, do not press 'spacebar'.",Images/Fearful/AF27AFS.jpg,Fear,Blue,Images/Blue.jpg,None,ParentConditions/YellowBlueBlue_v2.xlsx,BlueBlueYellow,Conditions/Version_2/BlueFearStop.xlsx,yes,PASS,0.398825278,,,,,,,,,0,0,0,0,0,1,1,1,0,4,4,4,,,,,,,,,,,,,,,,,,,,,,,,,,,,,,,,,,,,,,,,,,,,,,,,,,,,,,,,,,,,,,,,,,,,,,,,,,,,,,,1.89,445.2187914,None,space,0,447.2152682,None,447.2152682,None,447.2152682,None,0.3107668,,,,,,,,,,,P028,FENCOG,2,Post,2022_Mar_16_1031,Go No-Go Task,2021.1.4,120.1344064
,"Rule: When you see blue image, do not press 'spacebar'.",Images/Happy/AM24HAS.jpg,Happy,Yellow,Images/Yellow.jpg,space,ParentConditions/YellowBlueBlue_v2.xlsx,BlueBlueYellow,Conditions/Version_2/BlueFearStop.xlsx,no,PASS,0.654070177,,,,,,,,,0,0,0,0,0,1,1,1,0,5,5,5,,,,,,,,,,,,,,,,,,,,,,,,,,,,,,,,,,,,,,,,,,,,,,,,,,,,,,,,,,,,,,,,,,,,,,,,,,,,,,,1.73,447.6141683,None,space,1,449.43958,None,449.43958,None,449.43958,None,0.2465099,,,,,,,,,,,P028,FENCOG,2,Post,2022_Mar_16_1031,Go No-Go Task,2021.1.4,120.1344064
,"Rule: When you see blue image, do not press 'spacebar'.",Images/Fearful/AF26AFS.jpg,Fear,Blue,Images/Blue.jpg,None,ParentConditions/YellowBlueBlue_v2.xlsx,BlueBlueYellow,Conditions/Version_2/BlueFearStop.xlsx,yes,PASS,0.672416726,,,,,,,,,0,0,0,0,0,1,1,1,0,6,6,6,,,,,,,,,,,,,,,,,,,,,,,,,,,,,,,,,,,,,,,,,,,,,,,,,,,,,,,,,,,,,,,,,,,,,,,,,,,,,,,1.33,449.8400909,None,None,1,451.2722865,None,451.2722865,None,451.2722865,None,,,,,,,,,,,,P028,FENCOG,2,Post,2022_Mar_16_1031,Go No-Go Task,2021.1.4,120.1344064
,"Rule: When you see blue image, do not press 'spacebar'.",Images/Happy/WM11_HC.jpg,Happy,Yellow,Images/Yellow.jpg,space,ParentConditions/YellowBlueBlue_v2.xlsx,BlueBlueYellow,Conditions/Version_2/BlueFearStop.xlsx,no,PASS,0.872259895,,,,,,,,,0,0,0,0,0,1,1,1,0,7,7,7,,,,,,,,,,,,,,,,,,,,,,,,,,,,,,,,,,,,,,,,,,,,,,,,,,,,,,,,,,,,,,,,,,,,,,,,,,,,,,,1.39,451.6748423,None,space,1,453.1717043,None,453.1717043,None,453.1717043,None,0.2823082,,,,,,,,,,,P028,FENCOG,2,Post,2022_Mar_16_1031,Go No-Go Task,2021.1.4,120.1344064
,"Rule: When you see blue image, do not press 'spacebar'.",Images/Happy/BM03_HO.jpg,Happy,Yellow,Images/Yellow.jpg,space,ParentConditions/YellowBlueBlue_v2.xlsx,BlueBlueYellow,Conditions/Version_2/BlueFearStop.xlsx,no,PASS,0.281866808,,,,,,,,,0,0,0,0,0,1,1,1,0,8,8,8,,,,,,,,,,,,,,,,,,,,,,,,,,,,,,,,,,,,,,,,,,,,,,,,,,,,,,,,,,,,,,,,,,,,,,,,,,,,,,,1.45,453.5720382,None,space,1,455.1294614,None,455.1294614,None,455.1294614,None,0.3005107,,,,,,,,,,,P028,FENCOG,2,Post,2022_Mar_16_1031,Go No-Go Task,2021.1.4,120.1344064
,"Rule: When you see blue image, do not press 'spacebar'.",Images/Happy/BF18_HO.jpg,Happy,Yellow,Images/Yellow.jpg,space,ParentConditions/YellowBlueBlue_v2.xlsx,BlueBlueYellow,Conditions/Version_2/BlueFearStop.xlsx,no,PASS,0.05626256,,,,,,,,,0,0,0,0,0,1,1,1,0,9,9,9,,,,,,,,,,,,,,,,,,,,,,,,,,,,,,,,,,,,,,,,,,,,,,,,,,,,,,,,,,,,,,,,,,,,,,,,,,,,,,,1.75,455.5300857,None,space,1,457.3868982,None,457.3868982,None,457.3868982,None,0.3071995,,,,,,,,,,,P028,FENCOG,2,Post,2022_Mar_16_1031,Go No-Go Task,2021.1.4,120.1344064
,"Rule: When you see blue image, do not press 'spacebar'.",Images/Happy/AM10HAS.jpg,Happy,Yellow,Images/Yellow.jpg,space,ParentConditions/YellowBlueBlue_v2.xlsx,BlueBlueYellow,Conditions/Version_2/BlueFearStop.xlsx,no,PASS,0.262348586,,,,,,,,,0,0,0,0,0,1,1,1,0,10,10,10,,,,,,,,,,,,,,,,,,,,,,,,,,,,,,,,,,,,,,,,,,,,,,,,,,,,,,,,,,,,,,,,,,,,,,,,,,,,,,,1.48,457.7878259,None,space,1,459.3699787,None,459.3699787,None,459.3699787,None,0.3401069,,,,,,,,,,,P028,FENCOG,2,Post,2022_Mar_16_1031,Go No-Go Task,2021.1.4,120.1344064
,"Rule: When you see blue image, do not press 'spacebar'.",Images/Happy/AM09HAS.jpg,Happy,Yellow,Images/Yellow.jpg,space,ParentConditions/YellowBlueBlue_v2.xlsx,BlueBlueYellow,Conditions/Version_2/BlueFearStop.xlsx,no,PASS,0.532285361,,,,,,,,,0,0,0,0,0,1,1,1,0,11,11,11,,,,,,,,,,,,,,,,,,,,,,,,,,,,,,,,,,,,,,,,,,,,,,,,,,,,,,,,,,,,,,,,,,,,,,,,,,,,,,,1.29,459.7720137,None,space,1,461.1691104,None,461.1691104,None,461.1691104,None,0.3019484,,,,,,,,,,,P028,FENCOG,2,Post,2022_Mar_16_1031,Go No-Go Task,2021.1.4,120.1344064
,"Rule: When you see blue image, do not press 'spacebar'.",Images/Happy/AM16HAS.jpg,Happy,Yellow,Images/Yellow.jpg,space,ParentConditions/YellowBlueBlue_v2.xlsx,BlueBlueYellow,Conditions/Version_2/BlueFearStop.xlsx,no,PASS,0.873056012,,,,,,,,,0,0,0,0,0,1,1,1,0,12,12,12,,,,,,,,,,,,,,,,,,,,,,,,,,,,,,,,,,,,,,,,,,,,,,,,,,,,,,,,,,,,,,,,,,,,,,,,,,,,,,,1.94,461.5680942,None,space,1,463.6103556,None,463.6103556,None,463.6103556,None,0.2838414,,,,,,,,,,,P028,FENCOG,2,Post,2022_Mar_16_1031,Go No-Go Task,2021.1.4,120.1344064
,"Rule: When you see blue image, do not press 'spacebar'.",Images/Happy/AF10_HE.jpg,Happy,Yellow,Images/Yellow.jpg,space,ParentConditions/YellowBlueBlue_v2.xlsx,BlueBlueYellow,Conditions/Version_2/BlueFearStop.xlsx,no,PASS,0.710334289,,,,,,,,,0,0,0,0,0,1,1,1,0,13,13,13,,,,,,,,,,,,,,,,,,,,,,,,,,,,,,,,,,,,,,,,,,,,,,,,,,,,,,,,,,,,,,,,,,,,,,,,,,,,,,,1.98,464.0135872,None,space,1,466.1012412,None,466.1012412,None,466.1012412,None,0.3049109,,,,,,,,,,,P028,FENCOG,2,Post,2022_Mar_16_1031,Go No-Go Task,2021.1.4,120.1344064
,"Rule: When you see blue image, do not press 'spacebar'.",Images/Happy/AF27HAS.jpg,Happy,Yellow,Images/Yellow.jpg,space,ParentConditions/YellowBlueBlue_v2.xlsx,BlueBlueYellow,Conditions/Version_2/BlueFearStop.xlsx,no,PASS,0.893728981,,,,,,,,,0,0,0,0,0,1,1,1,0,14,14,14,,,,,,,,,,,,,,,,,,,,,,,,,,,,,,,,,,,,,,,,,,,,,,,,,,,,,,,,,,,,,,,,,,,,,,,,,,,,,,,1.55,466.5018363,None,space,1,468.1590236,None,468.1590236,None,468.1590236,None,0.2791599,,,,,,,,,,,P028,FENCOG,2,Post,2022_Mar_16_1031,Go No-Go Task,2021.1.4,120.1344064
,"Rule: When you see blue image, do not press 'spacebar'.",Images/Happy/BF10_HO.jpg,Happy,Yellow,Images/Yellow.jpg,space,ParentConditions/YellowBlueBlue_v2.xlsx,BlueBlueYellow,Conditions/Version_2/BlueFearStop.xlsx,no,PASS,0.415059737,,,,,,,,,0,0,0,0,0,1,1,1,0,15,15,15,,,,,,,,,,,,,,,,,,,,,,,,,,,,,,,,,,,,,,,,,,,,,,,,,,,,,,,,,,,,,,,,,,,,,,,,,,,,,,,1.68,468.6111648,None,space,1,470.3830479,None,470.3830479,None,470.3830479,None,0.3750663,,,,,,,,,,,P028,FENCOG,2,Post,2022_Mar_16_1031,Go No-Go Task,2021.1.4,120.1344064
,"Rule: When you see blue image, do not press 'spacebar'.",Images/Happy/BF14_HO.jpg,Happy,Yellow,Images/Yellow.jpg,space,ParentConditions/YellowBlueBlue_v2.xlsx,BlueBlueYellow,Conditions/Version_2/BlueFearStop.xlsx,no,PASS,0.38735807,,,,,,,,,0,0,0,0,0,1,1,1,0,16,16,16,,,,,,,,,,,,,,,,,,,,,,,,,,,,,,,,,,,,,,,,,,,,,,,,,,,,,,,,,,,,,,,,,,,,,,,,,,,,,,,1.3,470.7839498,None,space,1,472.1912726,None,472.1912726,None,472.1912726,None,0.3507087,,,,,,,,,,,P028,FENCOG,2,Post,2022_Mar_16_1031,Go No-Go Task,2021.1.4,120.1344064
,"Rule: When you see blue image, do not press 'spacebar'.",Images/Fearful/BM08_FC.jpg,Fear,Blue,Images/Blue.jpg,None,ParentConditions/YellowBlueBlue_v2.xlsx,BlueBlueYellow,Conditions/Version_2/BlueFearStop.xlsx,yes,PASS,0.790587934,,,,,,,,,0,0,0,0,0,1,1,1,0,17,17,17,,,,,,,,,,,,,,,,,,,,,,,,,,,,,,,,,,,,,,,,,,,,,,,,,,,,,,,,,,,,,,,,,,,,,,,,,,,,,,,1.82,472.5902118,None,space,0,474.5154475,None,474.5154475,None,474.5154475,None,0.2188019,,,,,,,,,,,P028,FENCOG,2,Post,2022_Mar_16_1031,Go No-Go Task,2021.1.4,120.1344064
,"Rule: When you see blue image, do not press 'spacebar'.",Images/Happy/AM01HAS.jpg,Happy,Yellow,Images/Yellow.jpg,space,ParentConditions/YellowBlueBlue_v2.xlsx,BlueBlueYellow,Conditions/Version_2/BlueFearStop.xlsx,no,PASS,0.958970535,,,,,,,,,0,0,0,0,0,1,1,1,0,18,18,18,,,,,,,,,,,,,,,,,,,,,,,,,,,,,,,,,,,,,,,,,,,,,,,,,,,,,,,,,,,,,,,,,,,,,,,,,,,,,,,1.6,474.9147921,None,space,1,476.6149259,None,476.6149259,None,476.6149259,None,0.303219,,,,,,,,,,,P028,FENCOG,2,Post,2022_Mar_16_1031,Go No-Go Task,2021.1.4,120.1344064
,"Rule: When you see blue image, do not press 'spacebar'.",Images/Happy/AF11HAS.jpg,Happy,Yellow,Images/Yellow.jpg,space,ParentConditions/YellowBlueBlue_v2.xlsx,BlueBlueYellow,Conditions/Version_2/BlueFearStop.xlsx,no,PASS,0.635888234,,,,,,,,,0,0,0,0,0,1,1,1,0,19,19,19,,,,,,,,,,,,,,,,,,,,,,,,,,,,,,,,,,,,,,,,,,,,,,,,,,,,,,,,,,,,,,,,,,,,,,,,,,,,,,,1.59,477.015525,None,space,1,478.7058646,None,478.7058646,None,478.7058646,None,0.2760822,,,,,,,,,,,P028,FENCOG,2,Post,2022_Mar_16_1031,Go No-Go Task,2021.1.4,120.1344064
,"Rule: When you see blue image, do not press 'spacebar'.",Images/Happy/BM01_HO.jpg,Happy,Yellow,Images/Yellow.jpg,space,ParentConditions/YellowBlueBlue_v2.xlsx,BlueBlueYellow,Conditions/Version_2/BlueFearStop.xlsx,no,PASS,0.301040908,,,,,,,,,0,0,0,0,0,1,1,1,0,20,20,20,,,,,,,,,,,,,,,,,,,,,,,,,,,,,,,,,,,,,,,,,,,,,,,,,,,,,,,,,,,,,,,,,,,,,,,,,,,,,,,1.56,479.1065757,None,space,1,480.771904,None,480.771904,None,480.771904,None,0.3302602,,,,,,,,,,,P028,FENCOG,2,Post,2022_Mar_16_1031,Go No-Go Task,2021.1.4,120.1344064
,"Rule: When you see blue image, do not press 'spacebar'.",Images/Happy/AF07_HO.jpg,Happy,Yellow,Images/Yellow.jpg,space,ParentConditions/YellowBlueBlue_v2.xlsx,BlueBlueYellow,Conditions/Version_2/BlueFearStop.xlsx,no,PASS,0.161468035,,,,,,,,,0,0,0,0,0,1,1,1,0,21,21,21,,,,,,,,,,,,,,,,,,,,,,,,,,,,,,,,,,,,,,,,,,,,,,,,,,,,,,,,,,,,,,,,,,,,,,,,,,,,,,,1.24,481.1726032,None,space,1,482.5131081,None,482.5131081,None,482.5131081,None,0.2291597,,,,,,,,,,,P028,FENCOG,2,Post,2022_Mar_16_1031,Go No-Go Task,2021.1.4,120.1344064
,"Rule: When you see blue image, do not press 'spacebar'.",Images/Happy/HM06_HO.jpg,Happy,Yellow,Images/Yellow.jpg,space,ParentConditions/YellowBlueBlue_v2.xlsx,BlueBlueYellow,Conditions/Version_2/BlueFearStop.xlsx,no,PASS,0.017367744,,,,,,,,,0,0,0,0,0,1,1,1,0,22,22,22,,,,,,,,,,,,,,,,,,,,,,,,,,,,,,,,,,,,,,,,,,,,,,,,,,,,,,,,,,,,,,,,,,,,,,,,,,,,,,,1.21,482.913591,None,space,1,484.2292233,None,484.2292233,None,484.2292233,None,0.2167418,,,,,,,,,,,P028,FENCOG,2,Post,2022_Mar_16_1031,Go No-Go Task,2021.1.4,120.1344064
,"Rule: When you see blue image, do not press 'spacebar'.",Images/Fearful/AM09_FO.jpg,Fear,Blue,Images/Blue.jpg,None,ParentConditions/YellowBlueBlue_v2.xlsx,BlueBlueYellow,Conditions/Version_2/BlueFearStop.xlsx,yes,PASS,0.299727879,,,,,,,,,0,0,0,0,0,1,1,1,0,23,23,23,,,,,,,,,,,,,,,,,,,,,,,,,,,,,,,,,,,,,,,,,,,,,,,,,,,,,,,,,,,,,,,,,,,,,,,,,,,,,,,1.69,484.6291931,None,None,1,486.4202304,None,486.4202304,None,486.4202304,None,,,,,,,,,,,,P028,FENCOG,2,Post,2022_Mar_16_1031,Go No-Go Task,2021.1.4,120.1344064
,"Rule: When you see blue image, do not press 'spacebar'.",Images/Happy/AF09HAS.jpg,Happy,Yellow,Images/Yellow.jpg,space,ParentConditions/YellowBlueBlue_v2.xlsx,BlueBlueYellow,Conditions/Version_2/BlueFearStop.xlsx,no,PASS,0.82739002,,,,,,,,,0,0,0,0,0,1,1,1,0,24,24,24,,,,,,,,,,,,,,,,,,,,,,,,,,,,,,,,,,,,,,,,,,,,,,,,,,,,,,,,,,,,,,,,,,,,,,,,,,,,,,,1.74,486.8207567,None,space,1,488.6696515,None,488.6696515,None,488.6696515,None,0.3125349,,,,,,,,,,,P028,FENCOG,2,Post,2022_Mar_16_1031,Go No-Go Task,2021.1.4,120.1344064
,"Rule: When you see blue image, do not press 'spacebar'.",Images/Happy/AM04HAS.jpg,Happy,Yellow,Images/Yellow.jpg,space,ParentConditions/YellowBlueBlue_v2.xlsx,BlueBlueYellow,Conditions/Version_2/BlueFearStop.xlsx,no,PASS,0.749723634,,,,,,,,,0,0,0,0,0,1,1,1,0,25,25,25,,,,,,,,,,,,,,,,,,,,,,,,,,,,,,,,,,,,,,,,,,,,,,,,,,,,,,,,,,,,,,,,,,,,,,,,,,,,,,,1.71,489.0684594,None,space,1,490.8856005,None,490.8856005,None,490.8856005,None,0.3203606,,,,,,,,,,,P028,FENCOG,2,Post,2022_Mar_16_1031,Go No-Go Task,2021.1.4,120.1344064
,"Rule: When you see blue image, do not press 'spacebar'.",Images/Happy/BF07_HO.jpg,Happy,Yellow,Images/Yellow.jpg,space,ParentConditions/YellowBlueBlue_v2.xlsx,BlueBlueYellow,Conditions/Version_2/BlueFearStop.xlsx,no,PASS,0.963197321,,,,,,,,,0,0,0,0,0,1,1,1,0,26,26,26,,,,,,,,,,,,,,,,,,,,,,,,,,,,,,,,,,,,,,,,,,,,,,,,,,,,,,,,,,,,,,,,,,,,,,,,,,,,,,,1.37,491.2862895,None,space,1,492.7600397,None,492.7600397,None,492.7600397,None,0.1901938,,,,,,,,,,,P028,FENCOG,2,Post,2022_Mar_16_1031,Go No-Go Task,2021.1.4,120.1344064
,"Rule: When you see blue image, do not press 'spacebar'.",Images/Happy/AF02HAS.jpg,Happy,Yellow,Images/Yellow.jpg,space,ParentConditions/YellowBlueBlue_v2.xlsx,BlueBlueYellow,Conditions/Version_2/BlueFearStop.xlsx,no,PASS,0.443162889,,,,,,,,,0,0,0,0,0,1,1,1,0,27,27,27,,,,,,,,,,,,,,,,,,,,,,,,,,,,,,,,,,,,,,,,,,,,,,,,,,,,,,,,,,,,,,,,,,,,,,,,,,,,,,,1.32,493.1603174,None,space,1,494.584501,None,494.584501,None,494.584501,None,0.2056617,,,,,,,,,,,P028,FENCOG,2,Post,2022_Mar_16_1031,Go No-Go Task,2021.1.4,120.1344064
,"Rule: When you see blue image, do not press 'spacebar'.",Images/Happy/AM30HAS.jpg,Happy,Yellow,Images/Yellow.jpg,space,ParentConditions/YellowBlueBlue_v2.xlsx,BlueBlueYellow,Conditions/Version_2/BlueFearStop.xlsx,no,PASS,0.810116406,,,,,,,,,0,0,0,0,0,1,1,1,0,28,28,28,,,,,,,,,,,,,,,,,,,,,,,,,,,,,,,,,,,,,,,,,,,,,,,,,,,,,,,,,,,,,,,,,,,,,,,,,,,,,,,1.88,494.985187,None,space,1,496.9672245,None,496.9672245,None,496.9672245,None,0.2553062,,,,,,,,,,,P028,FENCOG,2,Post,2022_Mar_16_1031,Go No-Go Task,2021.1.4,120.1344064
,"Rule: When you see blue image, do not press 'spacebar'.",Images/Happy/BF05_HO.jpg,Happy,Yellow,Images/Yellow.jpg,space,ParentConditions/YellowBlueBlue_v2.xlsx,BlueBlueYellow,Conditions/Version_2/BlueFearStop.xlsx,no,PASS,0.677060917,,,,,,,,,0,0,0,0,0,1,1,1,0,29,29,29,,,,,,,,,,,,,,,,,,,,,,,,,,,,,,,,,,,,,,,,,,,,,,,,,,,,,,,,,,,,,,,,,,,,,,,,,,,,,,,1.46,497.3661341,None,space,1,498.9332295,None,498.9332295,None,498.9332295,None,0.2007457,,,,,,,,,,,P028,FENCOG,2,Post,2022_Mar_16_1031,Go No-Go Task,2021.1.4,120.1344064
,"Rule: When you see blue image, do not press 'spacebar'.",Images/Fearful/AF25AFS.jpg,Fear,Blue,Images/Blue.jpg,None,ParentConditions/YellowBlueBlue_v2.xlsx,BlueBlueYellow,Conditions/Version_2/BlueFearStop.xlsx,yes,PASS,0.913732883,,,,,,,,,0,0,0,0,0,1,1,1,0,30,30,30,,,,,,,,,,,,,,,,,,,,,,,,,,,,,,,,,,,,,,,,,,,,,,,,,,,,,,,,,,,,,,,,,,,,,,,,,,,,,,,1.76,499.3336782,None,space,0,501.1992893,None,501.1992893,None,501.1992893,None,0.1508612,,,,,,,,,,,P028,FENCOG,2,Post,2022_Mar_16_1031,Go No-Go Task,2021.1.4,120.1344064
,"Rule: When you see blue image, do not press 'spacebar'.",Images/Happy/BF09_HO.jpg,Happy,Yellow,Images/Yellow.jpg,space,ParentConditions/YellowBlueBlue_v2.xlsx,BlueBlueYellow,Conditions/Version_2/BlueFearStop.xlsx,no,PASS,0.723314842,,,,,,,,,0,0,0,0,0,1,1,1,0,31,31,31,,,,,,,,,,,,,,,,,,,,,,,,,,,,,,,,,,,,,,,,,,,,,,,,,,,,,,,,,,,,,,,,,,,,,,,,,,,,,,,1.66,501.6082535,None,space,1,503.3736749,None,503.3736749,None,503.3736749,None,0.2163259,,,,,,,,,,,P028,FENCOG,2,Post,2022_Mar_16_1031,Go No-Go Task,2021.1.4,120.1344064
,"Rule: When you see blue image, do not press 'spacebar'.",Images/Happy/AM09_HE.jpg,Happy,Yellow,Images/Yellow.jpg,space,ParentConditions/YellowBlueBlue_v2.xlsx,BlueBlueYellow,Conditions/Version_2/BlueFearStop.xlsx,no,PASS,0.703399732,,,,,,,,,0,0,0,0,0,1,1,1,0,32,32,32,,,,,,,,,,,,,,,,,,,,,,,,,,,,,,,,,,,,,,,,,,,,,,,,,,,,,,,,,,,,,,,,,,,,,,,,,,,,,,,1.9,503.775075,None,space,1,505.7811562,None,505.7811562,None,505.7811562,None,0.2328535,,,,,,,,,,,P028,FENCOG,2,Post,2022_Mar_16_1031,Go No-Go Task,2021.1.4,120.1344064
,"Rule: When you see blue image, do not press 'spacebar'.",Images/Fearful/BF14_FO.jpg,Fear,Blue,Images/Blue.jpg,None,ParentConditions/YellowBlueBlue_v2.xlsx,BlueBlueYellow,Conditions/Version_2/BlueFearStop.xlsx,yes,PASS,0.641858344,,,,,,,,,0,0,0,0,0,1,1,1,0,33,33,33,,,,,,,,,,,,,,,,,,,,,,,,,,,,,,,,,,,,,,,,,,,,,,,,,,,,,,,,,,,,,,,,,,,,,,,,,,,,,,,1.62,506.1900286,None,None,1,507.9138864,None,507.9138864,None,507.9138864,None,,,,,,,,,,,,P028,FENCOG,2,Post,2022_Mar_16_1031,Go No-Go Task,2021.1.4,120.1344064
,"Rule: When you see blue image, do not press 'spacebar'.",Images/Fearful/HF05_FC.jpg,Fear,Blue,Images/Blue.jpg,None,ParentConditions/YellowBlueBlue_v2.xlsx,BlueBlueYellow,Conditions/Version_2/BlueFearStop.xlsx,yes,PASS,0.119355279,,,,,,,,,0,0,0,0,0,1,1,1,0,34,34,34,,,,,,,,,,,,,,,,,,,,,,,,,,,,,,,,,,,,,,,,,,,,,,,,,,,,,,,,,,,,,,,,,,,,,,,,,,,,,,,1.65,508.3128729,None,None,1,510.0548679,None,510.0548679,None,510.0548679,None,,,,,,,,,,,,P028,FENCOG,2,Post,2022_Mar_16_1031,Go No-Go Task,2021.1.4,120.1344064
,"Rule: When you see blue image, do not press 'spacebar'.",Images/Happy/AM23HAS.jpg,Happy,Yellow,Images/Yellow.jpg,space,ParentConditions/YellowBlueBlue_v2.xlsx,BlueBlueYellow,Conditions/Version_2/BlueFearStop.xlsx,no,PASS,0.431066372,,,,,,,,,0,0,0,0,0,1,1,1,0,35,35,35,,,,,,,,,,,,,,,,,,,,,,,,,,,,,,,,,,,,,,,,,,,,,,,,,,,,,,,,,,,,,,,,,,,,,,,,,,,,,,,1.93,510.4558126,None,space,1,512.4875221,None,512.4875221,None,512.4875221,None,0.2626571,,,,,,,,,,,P028,FENCOG,2,Post,2022_Mar_16_1031,Go No-Go Task,2021.1.4,120.1344064
,"Rule: When you see blue image, do not press 'spacebar'.",Images/Happy/AM03_HO.jpg,Happy,Yellow,Images/Yellow.jpg,space,ParentConditions/YellowBlueBlue_v2.xlsx,BlueBlueYellow,Conditions/Version_2/BlueFearStop.xlsx,no,PASS,0.027367774,,,,,,,,,0,0,0,0,0,1,1,1,0,36,36,36,,,,,,,,,,,,,,,,,,,,,,,,,,,,,,,,,,,,,,,,,,,,,,,,,,,,,,,,,,,,,,,,,,,,,,,,,,,,,,,1.58,512.887589,None,space,1,514.570274,None,514.570274,None,514.570274,None,0.2517702,,,,,,,,,,,P028,FENCOG,2,Post,2022_Mar_16_1031,Go No-Go Task,2021.1.4,120.1344064
,"Rule: When you see blue image, do not press 'spacebar'.",Images/Happy/AF25HAS.jpg,Happy,Yellow,Images/Yellow.jpg,space,ParentConditions/YellowBlueBlue_v2.xlsx,BlueBlueYellow,Conditions/Version_2/BlueFearStop.xlsx,no,PASS,0.048703216,,,,,,,,,0,0,0,0,0,1,1,1,0,37,37,37,,,,,,,,,,,,,,,,,,,,,,,,,,,,,,,,,,,,,,,,,,,,,,,,,,,,,,,,,,,,,,,,,,,,,,,,,,,,,,,1.7,514.9751533,None,space,1,516.7779524,None,516.7779524,None,516.7779524,None,0.284321,,,,,,,,,,,P028,FENCOG,2,Post,2022_Mar_16_1031,Go No-Go Task,2021.1.4,120.1344064
,"Rule: When you see blue image, do not press 'spacebar'.",Images/Happy/BM08_HO.jpg,Happy,Yellow,Images/Yellow.jpg,space,ParentConditions/YellowBlueBlue_v2.xlsx,BlueBlueYellow,Conditions/Version_2/BlueFearStop.xlsx,no,PASS,0.026169495,,,,,,,,,0,0,0,0,0,1,1,1,0,38,38,38,,,,,,,,,,,,,,,,,,,,,,,,,,,,,,,,,,,,,,,,,,,,,,,,,,,,,,,,,,,,,,,,,,,,,,,,,,,,,,,1.97,517.1789148,None,space,1,519.2522796,None,519.2522796,None,519.2522796,None,0.2102129,,,,,,,,,,,P028,FENCOG,2,Post,2022_Mar_16_1031,Go No-Go Task,2021.1.4,120.1344064
,"Rule: When you see blue image, do not press 'spacebar'.",Images/Happy/AF32HAS.jpg,Happy,Yellow,Images/Yellow.jpg,space,ParentConditions/YellowBlueBlue_v2.xlsx,BlueBlueYellow,Conditions/Version_2/BlueFearStop.xlsx,no,PASS,0.007662007,,,,,,,,,0,0,0,0,0,1,1,1,0,39,39,39,,,,,,,,,,,,,,,,,,,,,,,,,,,,,,,,,,,,,,,,,,,,,,,,,,,,,,,,,,,,,,,,,,,,,,,,,,,,,,,1.47,519.6541252,None,space,1,521.2265253,None,521.2265253,None,521.2265253,None,0.235557,,,,,,,,,,,P028,FENCOG,2,Post,2022_Mar_16_1031,Go No-Go Task,2021.1.4,120.1344064
,"Rule: When you see blue image, do not press 'spacebar'.",Images/Happy/AF23HAS.jpg,Happy,Yellow,Images/Yellow.jpg,space,ParentConditions/YellowBlueBlue_v2.xlsx,BlueBlueYellow,Conditions/Version_2/BlueFearStop.xlsx,no,PASS,0.133226592,,,,,,,,,0,0,0,0,0,1,1,1,0,40,40,40,,,,,,,,,,,,,,,,,,,,,,,,,,,,,,,,,,,,,,,,,,,,,,,,,,,,,,,,,,,,,,,,,,,,,,,,,,,,,,,1.49,521.6271783,None,space,1,523.2260588,None,523.2260588,None,523.2260588,None,0.2200522,,,,,,,,,,,P028,FENCOG,2,Post,2022_Mar_16_1031,Go No-Go Task,2021.1.4,120.1344064
,"Rule: When you see blue image, do not press 'spacebar'.",Images/Happy/AM32HAS.jpg,Happy,Yellow,Images/Yellow.jpg,space,ParentConditions/YellowBlueBlue_v2.xlsx,BlueBlueYellow,Conditions/Version_2/BlueFearStop.xlsx,no,PASS,0.187905395,,,,,,,,,0,0,0,0,0,1,1,1,0,41,41,41,,,,,,,,,,,,,,,,,,,,,,,,,,,,,,,,,,,,,,,,,,,,,,,,,,,,,,,,,,,,,,,,,,,,,,,,,,,,,,,1.96,523.6249109,None,None,0,525.6920288,None,525.6920288,None,525.6920288,None,,,,,,,,,,,,P028,FENCOG,2,Post,2022_Mar_16_1031,Go No-Go Task,2021.1.4,120.1344064
,"Rule: When you see blue image, do not press 'spacebar'.",Images/Fearful/AM30AFS.jpg,Fear,Blue,Images/Blue.jpg,None,ParentConditions/YellowBlueBlue_v2.xlsx,BlueBlueYellow,Conditions/Version_2/BlueFearStop.xlsx,yes,PASS,0.389442832,,,,,,,,,0,0,0,0,0,1,1,1,0,42,42,42,,,,,,,,,,,,,,,,,,,,,,,,,,,,,,,,,,,,,,,,,,,,,,,,,,,,,,,,,,,,,,,,,,,,,,,,,,,,,,,1.36,526.0927597,None,None,1,527.5581504,None,527.5581504,None,527.5581504,None,,,,,,,,,,,,P028,FENCOG,2,Post,2022_Mar_16_1031,Go No-Go Task,2021.1.4,120.1344064
,"Rule: When you see blue image, do not press 'spacebar'.",Images/Happy/BM02_HO.jpg,Happy,Yellow,Images/Yellow.jpg,space,ParentConditions/YellowBlueBlue_v2.xlsx,BlueBlueYellow,Conditions/Version_2/BlueFearStop.xlsx,no,PASS,0.800098491,,,,,,,,,0,0,0,0,0,1,1,1,0,43,43,43,,,,,,,,,,,,,,,,,,,,,,,,,,,,,,,,,,,,,,,,,,,,,,,,,,,,,,,,,,,,,,,,,,,,,,,,,,,,,,,1.27,527.9584275,None,space,1,529.3326143,None,529.3326143,None,529.3326143,None,0.3372858,,,,,,,,,,,P028,FENCOG,2,Post,2022_Mar_16_1031,Go No-Go Task,2021.1.4,120.1344064
,"Rule: When you see blue image, do not press 'spacebar'.",Images/Happy/AM10_HO.jpg,Happy,Yellow,Images/Yellow.jpg,space,ParentConditions/YellowBlueBlue_v2.xlsx,BlueBlueYellow,Conditions/Version_2/BlueFearStop.xlsx,no,PASS,0.57179392,,,,,,,,,0,0,0,0,0,1,1,1,0,44,44,44,,,,,,,,,,,,,,,,,,,,,,,,,,,,,,,,,,,,,,,,,,,,,,,,,,,,,,,,,,,,,,,,,,,,,,,,,,,,,,,1.8,529.7334744,None,space,1,531.6318814,None,531.6318814,None,531.6318814,None,0.2543065,,,,,,,,,,,P028,FENCOG,2,Post,2022_Mar_16_1031,Go No-Go Task,2021.1.4,120.1344064
,"Rule: When you see blue image, do not press 'spacebar'.",Images/Fearful/AM10_FO.jpg,Fear,Blue,Images/Blue.jpg,None,ParentConditions/YellowBlueBlue_v2.xlsx,BlueBlueYellow,Conditions/Version_2/BlueFearStop.xlsx,yes,PASS,0.526970162,,,,,,,,,0,0,0,0,0,1,1,1,0,45,45,45,,,,,,,,,,,,,,,,,,,,,,,,,,,,,,,,,,,,,,,,,,,,,,,,,,,,,,,,,,,,,,,,,,,,,,,,,,,,,,,1.91,532.0321586,None,None,1,534.0478846,None,534.0478846,None,534.0478846,None,,,,,,,,,,,,P028,FENCOG,2,Post,2022_Mar_16_1031,Go No-Go Task,2021.1.4,120.1344064
,"Rule: When you see blue image, do not press 'spacebar'.",Images/Happy/AF19HAS.jpg,Happy,Yellow,Images/Yellow.jpg,space,ParentConditions/YellowBlueBlue_v2.xlsx,BlueBlueYellow,Conditions/Version_2/BlueFearStop.xlsx,no,PASS,0.617083993,,,,,,,,,0,0,0,0,0,1,1,1,0,46,46,46,,,,,,,,,,,,,,,,,,,,,,,,,,,,,,,,,,,,,,,,,,,,,,,,,,,,,,,,,,,,,,,,,,,,,,,,,,,,,,,1.86,534.4484309,None,space,1,536.4137964,None,536.4137964,None,536.4137964,None,0.320249,,,,,,,,,,,P028,FENCOG,2,Post,2022_Mar_16_1031,Go No-Go Task,2021.1.4,120.1344064
,"Rule: When you see blue image, do not press 'spacebar'.",Images/Fearful/HF09_FC.jpg,Fear,Blue,Images/Blue.jpg,None,ParentConditions/YellowBlueBlue_v2.xlsx,BlueBlueYellow,Conditions/Version_2/BlueFearStop.xlsx,yes,PASS,0.03424286,,,,,,,,,0,0,0,0,0,1,1,1,0,47,47,47,,,,,,,,,,,,,,,,,,,,,,,,,,,,,,,,,,,,,,,,,,,,,,,,,,,,,,,,,,,,,,,,,,,,,,,,,,,,,,,1.92,536.8163502,None,None,1,538.8299123,None,538.8299123,None,538.8299123,None,,,,,,,,,,,,P028,FENCOG,2,Post,2022_Mar_16_1031,Go No-Go Task,2021.1.4,120.1344064
,"Rule: When you see blue image, do not press 'spacebar'.",Images/Fearful/AM22AFS.jpg,Fear,Blue,Images/Blue.jpg,None,ParentConditions/YellowBlueBlue_v2.xlsx,BlueBlueYellow,Conditions/Version_2/BlueFearStop.xlsx,yes,PASS,0.994591907,,,,,,,,,0,0,0,0,0,1,1,1,0,48,48,48,,,,,,,,,,,,,,,,,,,,,,,,,,,,,,,,,,,,,,,,,,,,,,,,,,,,,,,,,,,,,,,,,,,,,,,,,,,,,,,1.43,539.2311709,None,space,0,540.7542089,None,540.7542089,None,540.7542089,None,0.227761,,,,,,,,,,,P028,FENCOG,2,Post,2022_Mar_16_1031,Go No-Go Task,2021.1.4,120.1344064
,"Rule: When you see blue image, do not press 'spacebar'.",Images/Happy/AM06_HC.jpg,Happy,Yellow,Images/Yellow.jpg,space,ParentConditions/YellowBlueBlue_v2.xlsx,BlueBlueYellow,Conditions/Version_2/BlueFearStop.xlsx,no,PASS,0.156390266,,,,,,,,,0,0,0,0,0,1,1,1,0,49,49,49,,,,,,,,,,,,,,,,,,,,,,,,,,,,,,,,,,,,,,,,,,,,,,,,,,,,,,,,,,,,,,,,,,,,,,,,,,,,,,,1.85,541.1629298,None,space,1,543.1203945,None,543.1203945,None,543.1203945,None,0.2695603,,,,,,,,,,,P028,FENCOG,2,Post,2022_Mar_16_1031,Go No-Go Task,2021.1.4,120.1344064
,"Rule: When you see blue image, do not press 'spacebar'.",Images/Fearful/AM32AFS.jpg,Fear,Blue,Images/Blue.jpg,None,ParentConditions/YellowBlueBlue_v2.xlsx,BlueBlueYellow,Conditions/Version_2/BlueFearStop.xlsx,yes,PASS,0.687952075,,,,,,,,,0,0,0,0,0,1,1,1,0,50,50,50,,,,,,,,,,,,,,,,,,,,,,,,,,,,,,,,,,,,,,,,,,,,,,,,,,,,,,,,,,,,,,,,,,,,,,,,,,,,,,,1.72,543.5212364,None,None,1,545.3445915,None,545.3445915,None,545.3445915,None,,,,,,,,,,,,P028,FENCOG,2,Post,2022_Mar_16_1031,Go No-Go Task,2021.1.4,120.1344064
,"Rule: When you see blue image, do not press 'spacebar'.",Images/Happy/WF11_HE.jpg,Happy,Yellow,Images/Yellow.jpg,space,ParentConditions/YellowBlueBlue_v2.xlsx,BlueBlueYellow,Conditions/Version_2/BlueFearStop.xlsx,no,PASS,0.058347926,,,,,,,,,0,0,0,0,0,1,1,1,0,51,51,51,,,,,,,,,,,,,,,,,,,,,,,,,,,,,,,,,,,,,,,,,,,,,,,,,,,,,,,,,,,,,,,,,,,,,,,,,,,,,,,1.54,545.7513663,None,space,1,547.3939564,None,547.3939564,None,547.3939564,None,0.292082,,,,,,,,,,,P028,FENCOG,2,Post,2022_Mar_16_1031,Go No-Go Task,2021.1.4,120.1344064
,"Rule: When you see blue image, do not press 'spacebar'.",Images/Fearful/AF28AFS.jpg,Fear,Blue,Images/Blue.jpg,None,ParentConditions/YellowBlueBlue_v2.xlsx,BlueBlueYellow,Conditions/Version_2/BlueFearStop.xlsx,yes,PASS,0.841527092,,,,,,,,,0,0,0,0,0,1,1,1,0,52,52,52,,,,,,,,,,,,,,,,,,,,,,,,,,,,,,,,,,,,,,,,,,,,,,,,,,,,,,,,,,,,,,,,,,,,,,,,,,,,,,,1.81,547.794033,None,space,0,549.70994,None,549.70994,None,549.70994,None,0.2481567,,,,,,,,,,,P028,FENCOG,2,Post,2022_Mar_16_1031,Go No-Go Task,2021.1.4,120.1344064
,"Rule: When you see blue image, do not press 'spacebar'.",Images/Happy/HF04_HE.jpg,Happy,Yellow,Images/Yellow.jpg,space,ParentConditions/YellowBlueBlue_v2.xlsx,BlueBlueYellow,Conditions/Version_2/BlueFearStop.xlsx,no,PASS,0.41191723,,,,,,,,,0,0,0,0,0,1,1,1,0,53,53,53,,,,,,,,,,,,,,,,,,,,,,,,,,,,,,,,,,,,,,,,,,,,,,,,,,,,,,,,,,,,,,,,,,,,,,,,,,,,,,,1.63,550.1106841,None,space,1,551.8426244,None,551.8426244,None,551.8426244,None,0.2914779,,,,,,,,,,,P028,FENCOG,2,Post,2022_Mar_16_1031,Go No-Go Task,2021.1.4,120.1344064
,"Rule: When you see blue image, do not press 'spacebar'.",Images/Happy/AM13HAS.jpg,Happy,Yellow,Images/Yellow.jpg,space,ParentConditions/YellowBlueBlue_v2.xlsx,BlueBlueYellow,Conditions/Version_2/BlueFearStop.xlsx,no,PASS,0.148101608,,,,,,,,,0,0,0,0,0,1,1,1,0,54,54,54,,,,,,,,,,,,,,,,,,,,,,,,,,,,,,,,,,,,,,,,,,,,,,,,,,,,,,,,,,,,,,,,,,,,,,,,,,,,,,,1.84,552.2466073,None,space,1,554.1918928,None,554.1918928,None,554.1918928,None,0.2620132,,,,,,,,,,,P028,FENCOG,2,Post,2022_Mar_16_1031,Go No-Go Task,2021.1.4,120.1344064
,"Rule: When you see blue image, do not press 'spacebar'.",Images/Happy/HF10_HE.jpg,Happy,Yellow,Images/Yellow.jpg,space,ParentConditions/YellowBlueBlue_v2.xlsx,BlueBlueYellow,Conditions/Version_2/BlueFearStop.xlsx,no,PASS,0.043888358,,,,,,,,,0,0,0,0,0,1,1,1,0,55,55,55,,,,,,,,,,,,,,,,,,,,,,,,,,,,,,,,,,,,,,,,,,,,,,,,,,,,,,,,,,,,,,,,,,,,,,,,,,,,,,,1.95,554.5908933,None,space,1,556.6412441,None,556.6412441,None,556.6412441,None,0.3170393,,,,,,,,,,,P028,FENCOG,2,Post,2022_Mar_16_1031,Go No-Go Task,2021.1.4,120.1344064
,"Rule: When you see blue image, do not press 'spacebar'.",Images/Happy/AM04_HE.jpg,Happy,Yellow,Images/Yellow.jpg,space,ParentConditions/YellowBlueBlue_v2.xlsx,BlueBlueYellow,Conditions/Version_2/BlueFearStop.xlsx,no,PASS,0.842568949,,,,,,,,,0,0,0,0,0,1,1,1,0,56,56,56,,,,,,,,,,,,,,,,,,,,,,,,,,,,,,,,,,,,,,,,,,,,,,,,,,,,,,,,,,,,,,,,,,,,,,,,,,,,,,,1.26,557.0507416,None,space,1,558.4156693,None,558.4156693,None,558.4156693,None,0.3022757,,,,,,,,,,,P028,FENCOG,2,Post,2022_Mar_16_1031,Go No-Go Task,2021.1.4,120.1344064
,"Rule: When you see blue image, do not press 'spacebar'.",Images/Happy/WF04_HC.jpg,Happy,Yellow,Images/Yellow.jpg,space,ParentConditions/YellowBlueBlue_v2.xlsx,BlueBlueYellow,Conditions/Version_2/BlueFearStop.xlsx,no,PASS,0.913284631,,,,,,,,,0,0,0,0,0,1,1,1,0,57,57,57,,,,,,,,,,,,,,,,,,,,,,,,,,,,,,,,,,,,,,,,,,,,,,,,,,,,,,,,,,,,,,,,,,,,,,,,,,,,,,,1.2,558.8161884,None,space,1,560.1318416,None,560.1318416,None,560.1318416,None,0.2583306,,,,,,,,,,,P028,FENCOG,2,Post,2022_Mar_16_1031,Go No-Go Task,2021.1.4,120.1344064
,"Rule: When you see blue image, do not press 'spacebar'.",Images/Happy/AF01_HE.jpg,Happy,Yellow,Images/Yellow.jpg,space,ParentConditions/YellowBlueBlue_v2.xlsx,BlueBlueYellow,Conditions/Version_2/BlueFearStop.xlsx,no,PASS,0.821840618,,,,,,,,,0,0,0,0,0,1,1,1,0,58,58,58,,,,,,,,,,,,,,,,,,,,,,,,,,,,,,,,,,,,,,,,,,,,,,,,,,,,,,,,,,,,,,,,,,,,,,,,,,,,,,,1.22,560.5309645,None,space,1,561.856342,None,561.856342,None,561.856342,None,0.2375859,,,,,,,,,,,P028,FENCOG,2,Post,2022_Mar_16_1031,Go No-Go Task,2021.1.4,120.1344064
,"Rule: When you see blue image, do not press 'spacebar'.",Images/Happy/HM04_HO.jpg,Happy,Yellow,Images/Yellow.jpg,space,ParentConditions/YellowBlueBlue_v2.xlsx,BlueBlueYellow,Conditions/Version_2/BlueFearStop.xlsx,no,PASS,0.079511134,,,,,,,,,0,0,0,0,0,1,1,1,0,59,59,59,,,,,,,,,,,,,,,,,,,,,,,,,,,,,,,,,,,,,,,,,,,,,,,,,,,,,,,,,,,,,,,,,,,,,,,,,,,,,,,1.34,562.2554614,None,space,1,563.6974398,None,563.6974398,None,563.6974398,None,0.3566013,,,,,,,,,,,P028,FENCOG,2,Post,2022_Mar_16_1031,Go No-Go Task,2021.1.4,120.1344064
,"Rule: When you see blue image, do not press 'spacebar'.",Images/Happy/AM22HAS.jpg,Happy,Yellow,Images/Yellow.jpg,space,ParentConditions/YellowBlueBlue_v2.xlsx,BlueBlueYellow,Conditions/Version_2/BlueFearStop.xlsx,no,PASS,0.369225756,,,,,,,,,0,0,0,0,0,1,1,1,0,60,60,60,,,,,,,,,,,,,,,,,,,,,,,,,,,,,,,,,,,,,,,,,,,,,,,,,,,,,,,,,,,,,,,,,,,,,,,,,,,,,,,1.57,564.0982719,None,space,1,565.7635012,None,565.7635012,None,565.7635012,None,0.2904574,,,,,,,,,,,P028,FENCOG,2,Post,2022_Mar_16_1031,Go No-Go Task,2021.1.4,120.1344064
,"Rule: When you see blue image, do not press 'spacebar'.",Images/Happy/AF26HAS.jpg,Happy,Yellow,Images/Yellow.jpg,space,ParentConditions/YellowBlueBlue_v2.xlsx,BlueBlueYellow,Conditions/Version_2/BlueFearStop.xlsx,no,PASS,0.261516187,,,,,,,,,0,0,0,0,0,1,1,1,0,61,61,61,,,,,,,,,,,,,,,,,,,,,,,,,,,,,,,,,,,,,,,,,,,,,,,,,,,,,,,,,,,,,,,,,,,,,,,,,,,,,,,1.87,566.1643315,None,space,1,568.1295,None,568.1295,None,568.1295,None,0.2446168,,,,,,,,,,,P028,FENCOG,2,Post,2022_Mar_16_1031,Go No-Go Task,2021.1.4,120.1344064
,"Rule: When you see blue image, do not press 'spacebar'.",Images/Happy/HF05_HO.jpg,Happy,Yellow,Images/Yellow.jpg,space,ParentConditions/YellowBlueBlue_v2.xlsx,BlueBlueYellow,Conditions/Version_2/BlueFearStop.xlsx,no,PASS,0.915009632,,,,,,,,,0,0,0,0,0,1,1,1,0,62,62,62,,,,,,,,,,,,,,,,,,,,,,,,,,,,,,,,,,,,,,,,,,,,,,,,,,,,,,,,,,,,,,,,,,,,,,,,,,,,,,,1.41,568.5302055,None,space,1,570.0455654,None,570.0455654,None,570.0455654,None,0.2405438,,,,,,,,,,,P028,FENCOG,2,Post,2022_Mar_16_1031,Go No-Go Task,2021.1.4,120.1344064
,"Rule: When you see blue image, do not press 'spacebar'.",Images/Happy/AM02_HE.jpg,Happy,Yellow,Images/Yellow.jpg,space,ParentConditions/YellowBlueBlue_v2.xlsx,BlueBlueYellow,Conditions/Version_2/BlueFearStop.xlsx,no,PASS,0.556872479,,,,,,,,,0,0,0,0,0,1,1,1,0,63,63,63,,,,,,,,,,,,,,,,,,,,,,,,,,,,,,,,,,,,,,,,,,,,,,,,,,,,,,,,,,,,,,,,,,,,,,,,,,,,,,,1.53,570.4449075,None,space,1,572.0783402,None,572.0783402,None,572.0783402,None,0.3038089,,,,,,,,,,,P028,FENCOG,2,Post,2022_Mar_16_1031,Go No-Go Task,2021.1.4,120.1344064
,"Rule: When you see blue image, do not press 'spacebar'.",Images/Fearful/AF30AFS.jpg,Fear,Blue,Images/Blue.jpg,None,ParentConditions/YellowBlueBlue_v2.xlsx,BlueBlueYellow,Conditions/Version_2/BlueFearStop.xlsx,yes,PASS,0.110239229,,,,,,,,,0,0,0,0,0,1,1,1,0,64,64,64,,,,,,,,,,,,,,,,,,,,,,,,,,,,,,,,,,,,,,,,,,,,,,,,,,,,,,,,,,,,,,,,,,,,,,,,,,,,,,,1.38,572.4780714,None,None,1,573.9611366,None,573.9611366,None,573.9611366,None,,,,,,,,,,,,P028,FENCOG,2,Post,2022_Mar_16_1031,Go No-Go Task,2021.1.4,120.1344064
,"Rule: When you see blue image, do not press 'spacebar'.",Images/Happy/WF05_HC.jpg,Happy,Yellow,Images/Yellow.jpg,space,ParentConditions/YellowBlueBlue_v2.xlsx,BlueBlueYellow,Conditions/Version_2/BlueFearStop.xlsx,no,PASS,0.90332301,,,,,,,,,0,0,0,0,0,1,1,1,0,65,65,65,,,,,,,,,,,,,,,,,,,,,,,,,,,,,,,,,,,,,,,,,,,,,,,,,,,,,,,,,,,,,,,,,,,,,,,,,,,,,,,1.31,574.3617319,None,space,1,575.7772231,None,575.7772231,None,575.7772231,None,0.2610931,,,,,,,,,,,P028,FENCOG,2,Post,2022_Mar_16_1031,Go No-Go Task,2021.1.4,120.1344064
,"Rule: When you see blue image, do not press 'spacebar'.",Images/Fearful/AF10_FC.jpg,Fear,Blue,Images/Blue.jpg,None,ParentConditions/YellowBlueBlue_v2.xlsx,BlueBlueYellow,Conditions/Version_2/BlueFearStop.xlsx,yes,PASS,0.646227195,,,,,,,,,0,0,0,0,0,1,1,1,0,66,66,66,,,,,,,,,,,,,,,,,,,,,,,,,,,,,,,,,,,,,,,,,,,,,,,,,,,,,,,,,,,,,,,,,,,,,,,,,,,,,,,1.77,576.1775576,None,space,0,578.0516374,None,578.0516374,None,578.0516374,None,0.226389,,,,,,,,,,,P028,FENCOG,2,Post,2022_Mar_16_1031,Go No-Go Task,2021.1.4,120.1344064
,"Rule: When you see blue image, do not press 'spacebar'.",Images/Happy/AM03HAS.jpg,Happy,Yellow,Images/Yellow.jpg,space,ParentConditions/YellowBlueBlue_v2.xlsx,BlueBlueYellow,Conditions/Version_2/BlueFearStop.xlsx,no,PASS,0.391152628,,,,,,,,,0,0,0,0,0,1,1,1,0,67,67,67,,,,,,,,,,,,,,,,,,,,,,,,,,,,,,,,,,,,,,,,,,,,,,,,,,,,,,,,,,,,,,,,,,,,,,,,,,,,,,,1.52,578.4552257,None,space,1,580.0760028,None,580.0760028,None,580.0760028,None,0.3301678,,,,,,,,,,,P028,FENCOG,2,Post,2022_Mar_16_1031,Go No-Go Task,2021.1.4,120.1344064
,"Rule: When you see blue image, do not press 'spacebar'.",Images/Happy/AM17HAS.jpg,Happy,Yellow,Images/Yellow.jpg,space,ParentConditions/YellowBlueBlue_v2.xlsx,BlueBlueYellow,Conditions/Version_2/BlueFearStop.xlsx,no,PASS,0.241393995,,,,,,,,,0,0,0,0,0,1,1,1,0,68,68,68,,,,,,,,,,,,,,,,,,,,,,,,,,,,,,,,,,,,,,,,,,,,,,,,,,,,,,,,,,,,,,,,,,,,,,,,,,,,,,,1.42,580.4769977,None,space,1,582.0086601,None,582.0086601,None,582.0086601,None,0.3174153,,,,,,,,,,,P028,FENCOG,2,Post,2022_Mar_16_1031,Go No-Go Task,2021.1.4,120.1344064
,"Rule: When you see blue image, do not press 'spacebar'.",Images/Happy/AF30HAS.jpg,Happy,Yellow,Images/Yellow.jpg,space,ParentConditions/YellowBlueBlue_v2.xlsx,BlueBlueYellow,Conditions/Version_2/BlueFearStop.xlsx,no,PASS,0.252543571,,,,,,,,,0,0,0,0,0,1,1,1,0,69,69,69,,,,,,,,,,,,,,,,,,,,,,,,,,,,,,,,,,,,,,,,,,,,,,,,,,,,,,,,,,,,,,,,,,,,,,,,,,,,,,,1.67,582.4047106,None,space,1,584.1664758,None,584.1664758,None,584.1664758,None,0.2800301,,,,,,,,,,,P028,FENCOG,2,Post,2022_Mar_16_1031,Go No-Go Task,2021.1.4,120.1344064
,"Rule: When you see blue image, do not press 'spacebar'.",Images/Fearful/BF18_FC.jpg,Fear,Blue,Images/Blue.jpg,None,ParentConditions/YellowBlueBlue_v2.xlsx,BlueBlueYellow,Conditions/Version_2/BlueFearStop.xlsx,yes,PASS,0.793644001,,,,,,,,,0,0,0,0,0,1,1,1,0,70,70,70,,,,,,,,,,,,,,,,,,,,,,,,,,,,,,,,,,,,,,,,,,,,,,,,,,,,,,,,,,,,,,,,,,,,,,,,,,,,,,,1.99,584.5709343,None,space,0,586.6656457,None,586.6656457,None,586.6656457,None,0.2763419,,,,,,,,,,,P028,FENCOG,2,Post,2022_Mar_16_1031,Go No-Go Task,2021.1.4,120.1344064
,"Rule: When you see blue image, do not press 'spacebar'.",Images/Fearful/HM09_FC.jpg,Fear,Blue,Images/Blue.jpg,None,ParentConditions/YellowBlueBlue_v2.xlsx,BlueBlueYellow,Conditions/Version_2/BlueFearStop.xlsx,yes,PASS,0.271373069,,,,,,,,,0,0,0,0,0,1,1,1,0,71,71,71,,,,,,,,,,,,,,,,,,,,,,,,,,,,,,,,,,,,,,,,,,,,,,,,,,,,,,,,,,,,,,,,,,,,,,,,,,,,,,,1.51,587.0664237,None,None,1,588.6734123,None,588.6734123,None,588.6734123,None,,,,,,,,,,,,P028,FENCOG,2,Post,2022_Mar_16_1031,Go No-Go Task,2021.1.4,120.1344064
,"Rule: When you see blue image, do not press 'spacebar'.",Images/Happy/HF09_HE.jpg,Happy,Yellow,Images/Yellow.jpg,space,ParentConditions/YellowBlueBlue_v2.xlsx,BlueBlueYellow,Conditions/Version_2/BlueFearStop.xlsx,no,PASS,0.96160606,,,,,,,,,0,0,0,0,0,1,1,1,0,72,72,72,,,,,,,,,,,,,,,,,,,,,,,,,,,,,,,,,,,,,,,,,,,,,,,,,,,,,,,,,,,,,,,,,,,,,,,,,,,,,,,1.64,589.0802816,None,space,1,590.8227675,None,590.8227675,None,590.8227675,None,0.2711696,,,,,,,,,,,P028,FENCOG,2,Post,2022_Mar_16_1031,Go No-Go Task,2021.1.4,120.1344064
