CondFileP,Instructions,FaceE,Express,ColourT,ColourF,CorrectAnsP,MasterCondFile,BlockOrder,CondFile,ColCheck,Triplicate_check,SORT_BY_SMALLEST,EPracticeOuterLoop.thisRepN,EPracticeOuterLoop.thisTrialN,EPracticeOuterLoop.thisN,EPracticeOuterLoop.thisIndex,EPracticeInnerLoop.thisRepN,EPracticeInnerLoop.thisTrialN,EPracticeInnerLoop.thisN,EPracticeInnerLoop.thisIndex,MasterLoop.thisRepN,MasterLoop.thisTrialN,MasterLoop.thisN,MasterLoop.thisIndex,OuterLoop.thisRepN,OuterLoop.thisTrialN,OuterLoop.thisN,OuterLoop.thisIndex,InnerLoop.thisRepN,InnerLoop.thisTrialN,InnerLoop.thisN,InnerLoop.thisIndex,text_13.started,text_13.stopped,key_resp_10.keys,key_resp_10.rt,key_resp_10.started,key_resp_10.stopped,text4.started,text4.stopped,EmotionTaskInstructions1.keys,EmotionTaskInstructions1.rt,EmotionTaskInstructions1.started,EmotionTaskInstructions1.stopped,text_4.started,text_4.stopped,key_resp_5.keys,key_resp_5.rt,key_resp_5.started,key_resp_5.stopped,Text_14.started,Text_14.stopped,key_resp_9.keys,key_resp_9.rt,key_resp_9.started,key_resp_9.stopped,text_5.started,text_5.stopped,text_6.started,text_6.stopped,key_resp_7.keys,key_resp_7.rt,key_resp_7.started,key_resp_7.stopped,text_10.started,text_10.stopped,text_11.started,text_11.stopped,text_12.started,text_12.stopped,ISIjitterPractice,EPracticeISIMarker.started,EPracticeISIMarker.stopped,Pract.keys,Pract.corr,Pract.started,Pract.stopped,PracticeFace.started,PracticeFace.stopped,ColourPractice.started,ColourPractice.stopped,text_7.started,text_7.stopped,Pract.rt,EndOfPractice.started,EndOfPractice.stopped,key_resp_8.keys,key_resp_8.rt,key_resp_8.started,key_resp_8.stopped,text_8.started,text_8.stopped,key_resp_6.keys,key_resp_6.rt,key_resp_6.started,key_resp_6.stopped,text_2.started,text_2.stopped,text_3.started,text_3.stopped,key_resp_3.keys,key_resp_3.rt,key_resp_3.started,key_resp_3.stopped,TaskBlock.started,TaskBlock.stopped,BlockNo1.started,BlockNo1.stopped,OfBlock.started,OfBlock.stopped,ISIjitter,ISImarker.started,ISImarker.stopped,key_resp.keys,key_resp.corr,key_resp.rt,key_resp.started,key_resp.stopped,FaceSet.started,FaceSet.stopped,Colour.started,Colour.stopped,EndBlockText.started,EndBlockText.stopped,key_resp_4.keys,key_resp_4.rt,key_resp_4.started,key_resp_4.stopped,BreakText2.started,BreakText2.stopped,PressToContinue.started,PressToContinue.stopped,participant,Study Name,Task Version (required to run),PRE/POST,date,expName,psychopyVersion,frameRate,
,,,,,,,,,,,,,,,,,,,,,,,,,,,,,,,,,75.47063230001368,None,space,122.35931450000498,76.4662929000333,None,,,,,,,,,,,,,,,,,,,,,,,,,,,,,,,,,,,,,,,,,,,,,,,,,,,,,,,,,,,,,,,,,,,,,,,,,,,,,,,,,,,,,,,,,,,,,,,P030,FENCOG,2,Pre,2022_Mar_11_1050,Go No-Go Task,2021.1.4,120.45798125428158,
,,,,,,,,,,,,,,,,,,,,,,,,,,,,,,,,,,,,,,,200.3494086000137,None,space,10.835996999987401,200.3494086000137,None,,,,,,,,,,,,,,,,,,,,,,,,,,,,,,,,,,,,,,,,,,,,,,,,,,,,,,,,,,,,,,,,,,,,,,,,,,,,,,,,,,,,,,,,,P030,FENCOG,2,Pre,2022_Mar_11_1050,Go No-Go Task,2021.1.4,120.45798125428158,
,,,,,,,,,,,,,,,,,,,,,,,,,,,,,,,,,,,,,,,,,,,,,211.24802389997058,None,space,3.577577899908647,211.24802389997058,None,,,,,,,,,,,,,,,,,,,,,,,,,,,,,,,,,,,,,,,,,,,,,,,,,,,,,,,,,,,,,,,,,,,,,,,,,,,,,,,,,,,P030,FENCOG,2,Pre,2022_Mar_11_1050,Go No-Go Task,2021.1.4,120.45798125428158,
,,,,,,,,,,,,,,,,,,,,,,,,,,,,,,,,,,,,,,,,,,,,,,,,,,,214.83512790000532,None,space,4.094286600011401,214.83512790000532,None,,,,,,,,,,,,,,,,,,,,,,,,,,,,,,,,,,,,,,,,,,,,,,,,,,,,,,,,,,,,,,,,,,,,,,,,,,,,,P030,FENCOG,2,Pre,2022_Mar_11_1050,Go No-Go Task,2021.1.4,120.45798125428158,
EPracticeConditions/BlueEyes.csv,"Rule: When you see a blue image, do not press 'spacebar'.",Images/Happy/HF04_HE.jpg,Happy,Yellow,Images/Yellow.jpg,space,,,,,,,0,0,0,0,0,0,0,4,,,,,,,,,,,,,,,,,,,,,,,,,,,,,,,,,,,,,219.01469680003356,None,222.00736529997084,None,space,1.202082599978894,222.00736529997084,None,219.01469680003356,None,219.01469680003356,None,219.01469680003356,None,1.4,223.33752770000137,None,None,0,224.8986559000332,None,224.8986559000332,None,224.8986559000332,None,226.4480742000742,None,,,,,,,,,,,,,,,,,,,,,,,,,,,,,,,,,,,,,,,,,,,,,,,,,,P030,FENCOG,2,Pre,2022_Mar_11_1050,Go No-Go Task,2021.1.4,120.45798125428158,
EPracticeConditions/BlueEyes.csv,"Rule: When you see a blue image, do not press 'spacebar'.",Images/Happy/HF09_HE.jpg,Happy,Yellow,Images/Yellow.jpg,space,,,,,,,0,0,0,0,0,1,1,6,,,,,,,,,,,,,,,,,,,,,,,,,,,,,,,,,,,,,,,,,,,,,,,,,,,1.2,227.77455970004667,None,None,0,229.08012449997477,None,229.08012449997477,None,229.08012449997477,None,229.9804538000608,None,,,,,,,,,,,,,,,,,,,,,,,,,,,,,,,,,,,,,,,,,,,,,,,,,,P030,FENCOG,2,Pre,2022_Mar_11_1050,Go No-Go Task,2021.1.4,120.45798125428158,
EPracticeConditions/BlueEyes.csv,"Rule: When you see a blue image, do not press 'spacebar'.",Images/Happy/BM02_HO.jpg,Happy,Yellow,Images/Yellow.jpg,space,,,,,,,0,0,0,0,0,2,2,2,,,,,,,,,,,,,,,,,,,,,,,,,,,,,,,,,,,,,,,,,,,,,,,,,,,1.7,231.9867840000661,None,space,1,233.78704590001144,None,233.78704590001144,None,233.78704590001144,None,234.68838369997684,None,0.11855549993924797,,,,,,,,,,,,,,,,,,,,,,,,,,,,,,,,,,,,,,,,,,,,,,,,,P030,FENCOG,2,Pre,2022_Mar_11_1050,Go No-Go Task,2021.1.4,120.45798125428158,
EPracticeConditions/BlueEyes.csv,"Rule: When you see a blue image, do not press 'spacebar'.",Images/Happy/BM08_HO.jpg,Happy,Yellow,Images/Yellow.jpg,space,,,,,,,0,0,0,0,0,3,3,3,,,,,,,,,,,,,,,,,,,,,,,,,,,,,,,,,,,,,,,,,,,,,,,,,,,1.6,236.6938436999917,None,space,1,238.3941089999862,None,238.3941089999862,None,238.3941089999862,None,239.28627170005348,None,0.3593158000148833,,,,,,,,,,,,,,,,,,,,,,,,,,,,,,,,,,,,,,,,,,,,,,,,,P030,FENCOG,2,Pre,2022_Mar_11_1050,Go No-Go Task,2021.1.4,120.45798125428158,
EPracticeConditions/BlueEyes.csv,"Rule: When you see a blue image, do not press 'spacebar'.",Images/Happy/HF10_HE.jpg,Happy,Yellow,Images/Yellow.jpg,space,,,,,,,0,0,0,0,0,4,4,7,,,,,,,,,,,,,,,,,,,,,,,,,,,,,,,,,,,,,,,,,,,,,,,,,,,1.3,241.29376879998017,None,None,0,242.7008940000087,None,242.7008940000087,None,242.7008940000087,None,243.60098240000661,None,,,,,,,,,,,,,,,,,,,,,,,,,,,,,,,,,,,,,,,,,,,,,,,,,,P030,FENCOG,2,Pre,2022_Mar_11_1050,Go No-Go Task,2021.1.4,120.45798125428158,
EPracticeConditions/BlueEyes.csv,"Rule: When you see a blue image, do not press 'spacebar'.",Images/Happy/HF05_HO.jpg,Happy,Yellow,Images/Yellow.jpg,space,,,,,,,0,0,0,0,0,5,5,5,,,,,,,,,,,,,,,,,,,,,,,,,,,,,,,,,,,,,,,,,,,,,,,,,,,1.9,245.60789159999695,None,space,1,247.60811899998225,None,247.60811899998225,None,247.60811899998225,None,248.5078821000643,None,0.3134548000525683,,,,,,,,,,,,,,,,,,,,,,,,,,,,,,,,,,,,,,,,,,,,,,,,,P030,FENCOG,2,Pre,2022_Mar_11_1050,Go No-Go Task,2021.1.4,120.45798125428158,
EPracticeConditions/BlueEyes.csv,"Rule: When you see a blue image, do not press 'spacebar'.",Images/Fearful/HM09_FC.jpg,Fear,Blue,Images/Blue.jpg,None,,,,,,,0,0,0,0,0,6,6,0,,,,,,,,,,,,,,,,,,,,,,,,,,,,,,,,,,,,,,,,,,,,,,,,,,,1.5,250.5145870000124,None,space,0,252.12338070000987,None,252.12338070000987,None,252.12338070000987,None,253.02415640000254,None,0.20619349996559322,,,,,,,,,,,,,,,,,,,,,,,,,,,,,,,,,,,,,,,,,,,,,,,,,P030,FENCOG,2,Pre,2022_Mar_11_1050,Go No-Go Task,2021.1.4,120.45798125428158,
EPracticeConditions/BlueEyes.csv,"Rule: When you see a blue image, do not press 'spacebar'.",Images/Fearful/AF01_FO.jpg,Fear,Blue,Images/Blue.jpg,None,,,,,,,0,0,0,0,0,7,7,1,,,,,,,,,,,,,,,,,,,,,,,,,,,,,,,,,,,,,,,,,,,,,,,,,,,1.8,255.02147100004368,None,None,1,256.93016420002095,None,256.93016420002095,None,256.93016420002095,None,257.8230103000533,None,,,,,,,,,,,,,,,,,,,,,,,,,,,,,,,,,,,,,,,,,,,,,,,,,,P030,FENCOG,2,Pre,2022_Mar_11_1050,Go No-Go Task,2021.1.4,120.45798125428158,
EPracticeConditions/BlueEyes.csv,"Rule: When you see a blue image, do not press 'spacebar'.",,,,,,,,,,,,0,0,0,0,,,,,,,,,,,,,,,,,,,,,,,,,,,,,,,,,,,,,,,,,,,,,,,,,,,,,,,,,,,,,,,,,,,,,,,,,,,,,,,,,,,,,,,,,,,,,,,,,,,,,,,,,,,,,,,,,,,,,P030,FENCOG,2,Pre,2022_Mar_11_1050,Go No-Go Task,2021.1.4,120.45798125428158,
EPracticeConditions/YellowEyes.csv,"Rule: When you see a yellow image, do not press 'spacebar'.",Images/Fearful/AM23AFS.jpg,Fear,Blue,Images/Blue.jpg,space,,,,,,,0,1,1,1,0,0,0,6,,,,,,,,,,,,,,,,,,,,,,,,,,,,,,,,,,,,,259.8467663000338,None,262.8368067999836,None,space,6.88469889992848,262.8368067999836,None,259.8467663000338,None,259.8467663000338,None,259.8467663000338,None,1.3,269.7387700000545,None,None,0,271.14258270000573,None,271.14258270000573,None,271.14258270000573,None,272.0416192000266,None,,,,,,,,,,,,,,,,,,,,,,,,,,,,,,,,,,,,,,,,,,,,,,,,,,P030,FENCOG,2,Pre,2022_Mar_11_1050,Go No-Go Task,2021.1.4,120.45798125428158,
EPracticeConditions/YellowEyes.csv,"Rule: When you see a yellow image, do not press 'spacebar'.",Images/Fearful/AM19AFS.jpg,Fear,Blue,Images/Blue.jpg,space,,,,,,,0,1,1,1,0,1,1,4,,,,,,,,,,,,,,,,,,,,,,,,,,,,,,,,,,,,,,,,,,,,,,,,,,,1.7,274.04102070000954,None,space,1,275.8414044000674,None,275.8414044000674,None,275.8414044000674,None,276.74121660005767,None,0.2801126999547705,,,,,,,,,,,,,,,,,,,,,,,,,,,,,,,,,,,,,,,,,,,,,,,,,P030,FENCOG,2,Pre,2022_Mar_11_1050,Go No-Go Task,2021.1.4,120.45798125428158,
EPracticeConditions/YellowEyes.csv,"Rule: When you see a yellow image, do not press 'spacebar'.",Images/Fearful/AM22AFS.jpg,Fear,Blue,Images/Blue.jpg,space,,,,,,,0,1,1,1,0,2,2,5,,,,,,,,,,,,,,,,,,,,,,,,,,,,,,,,,,,,,,,,,,,,,,,,,,,1.5,278.7480811000569,None,space,1,280.34842479997315,None,280.34842479997315,None,280.34842479997315,None,281.24115320004057,None,0.261133800027892,,,,,,,,,,,,,,,,,,,,,,,,,,,,,,,,,,,,,,,,,,,,,,,,,P030,FENCOG,2,Pre,2022_Mar_11_1050,Go No-Go Task,2021.1.4,120.45798125428158,
EPracticeConditions/YellowEyes.csv,"Rule: When you see a yellow image, do not press 'spacebar'.",Images/Happy/AM32HAS.jpg,Happy,Yellow,Images/Yellow.jpg,None,,,,,,,0,1,1,1,0,3,3,0,,,,,,,,,,,,,,,,,,,,,,,,,,,,,,,,,,,,,,,,,,,,,,,,,,,1.8,283.24942110001575,None,None,1,285.1552951000631,None,285.1552951000631,None,285.1552951000631,None,286.05616000003647,None,,,,,,,,,,,,,,,,,,,,,,,,,,,,,,,,,,,,,,,,,,,,,,,,,,P030,FENCOG,2,Pre,2022_Mar_11_1050,Go No-Go Task,2021.1.4,120.45798125428158,
EPracticeConditions/YellowEyes.csv,"Rule: When you see a yellow image, do not press 'spacebar'.",Images/Fearful/AM17AFS.jpg,Fear,Blue,Images/Blue.jpg,space,,,,,,,0,1,1,1,0,4,4,3,,,,,,,,,,,,,,,,,,,,,,,,,,,,,,,,,,,,,,,,,,,,,,,,,,,1.6,288.0620033000596,None,None,0,289.7621793000726,None,289.7621793000726,None,289.7621793000726,None,290.6621770000784,None,,,,,,,,,,,,,,,,,,,,,,,,,,,,,,,,,,,,,,,,,,,,,,,,,,P030,FENCOG,2,Pre,2022_Mar_11_1050,Go No-Go Task,2021.1.4,120.45798125428158,
EPracticeConditions/YellowEyes.csv,"Rule: When you see a yellow image, do not press 'spacebar'.",Images/Fearful/AM16AFS.jpg,Fear,Blue,Images/Blue.jpg,space,,,,,,,0,1,1,1,0,5,5,2,,,,,,,,,,,,,,,,,,,,,,,,,,,,,,,,,,,,,,,,,,,,,,,,,,,1.4,292.6689373999834,None,space,1,294.17749829997774,None,294.17749829997774,None,294.17749829997774,None,295.0727710999781,None,0.38411720003932714,,,,,,,,,,,,,,,,,,,,,,,,,,,,,,,,,,,,,,,,,,,,,,,,,P030,FENCOG,2,Pre,2022_Mar_11_1050,Go No-Go Task,2021.1.4,120.45798125428158,
EPracticeConditions/YellowEyes.csv,"Rule: When you see a yellow image, do not press 'spacebar'.",Images/Fearful/AM24AFS.jpg,Fear,Blue,Images/Blue.jpg,space,,,,,,,0,1,1,1,0,6,6,7,,,,,,,,,,,,,,,,,,,,,,,,,,,,,,,,,,,,,,,,,,,,,,,,,,,1.9,297.0760562000796,None,space,1,299.084571900079,None,299.084571900079,None,299.084571900079,None,299.97678799997084,None,0.34090730000752956,,,,,,,,,,,,,,,,,,,,,,,,,,,,,,,,,,,,,,,,,,,,,,,,,P030,FENCOG,2,Pre,2022_Mar_11_1050,Go No-Go Task,2021.1.4,120.45798125428158,
EPracticeConditions/YellowEyes.csv,"Rule: When you see a yellow image, do not press 'spacebar'.",Images/Happy/BF05_HO.jpg,Happy,Yellow,Images/Yellow.jpg,None,,,,,,,0,1,1,1,0,7,7,1,,,,,,,,,,,,,,,,,,,,,,,,,,,,,,,,,,,,,,,,,,,,,,,,,,,1.2,301.9826893999707,None,None,1,303.283374199993,None,303.283374199993,None,303.283374199993,None,304.17648440005723,None,,,,,,,,,,,,,,,,,,,,,,,,,,,,,,,,,,,,,,,,,,,,,,,,,,P030,FENCOG,2,Pre,2022_Mar_11_1050,Go No-Go Task,2021.1.4,120.45798125428158,
EPracticeConditions/YellowEyes.csv,"Rule: When you see a yellow image, do not press 'spacebar'.",,,,,,,,,,,,0,1,1,1,,,,,,,,,,,,,,,,,,,,,,,,,,,,,,,,,,,,,,,,,,,,,,,,,,,,,,,,,,,,,,,,,,,,,,,,,,,,,,,,,,,,,,,,,,,,,,,,,,,,,,,,,,,,,,,,,,,,,P030,FENCOG,2,Pre,2022_Mar_11_1050,Go No-Go Task,2021.1.4,120.45798125428158,
EPracticeConditions/BlueScram.csv,"Rule: When you see a blue image, do not press 'spacebar'.",Images/Scram1/BF18_NC.jpg,Scramble,Blue,Images/Blue.jpg,None,,,,,,,0,2,2,2,0,0,0,1,,,,,,,,,,,,,,,,,,,,,,,,,,,,,,,,,,,,,306.1910599999828,None,309.1808565000538,None,space,28.300668600015342,309.1808565000538,None,306.1910599999828,None,306.1910599999828,None,306.1910599999828,None,1.3,337.49783750006463,None,None,1,338.90613600006327,None,338.90613600006327,None,338.90613600006327,None,339.79899330006447,None,,,,,,,,,,,,,,,,,,,,,,,,,,,,,,,,,,,,,,,,,,,,,,,,,,P030,FENCOG,2,Pre,2022_Mar_11_1050,Go No-Go Task,2021.1.4,120.45798125428158,
EPracticeConditions/BlueScram.csv,"Rule: When you see a blue image, do not press 'spacebar'.",Images/Scram2/AF25NES.jpg,Scramble,Yellow,Images/Yellow.jpg,space,,,,,,,0,2,2,2,0,1,1,7,,,,,,,,,,,,,,,,,,,,,,,,,,,,,,,,,,,,,,,,,,,,,,,,,,,1.5,341.8044568999903,None,space,1,343.413143999991,None,343.413143999991,None,343.413143999991,None,344.3091922000749,None,0.2604738000081852,,,,,,,,,,,,,,,,,,,,,,,,,,,,,,,,,,,,,,,,,,,,,,,,,P030,FENCOG,2,Pre,2022_Mar_11_1050,Go No-Go Task,2021.1.4,120.45798125428158,
EPracticeConditions/BlueScram.csv,"Rule: When you see a blue image, do not press 'spacebar'.",Images/Scram1/AM03NES.jpg,Scramble,Yellow,Images/Yellow.jpg,space,,,,,,,0,2,2,2,0,2,2,4,,,,,,,,,,,,,,,,,,,,,,,,,,,,,,,,,,,,,,,,,,,,,,,,,,,1.6,346.31147269997746,None,space,1,348.0118078000378,None,348.0118078000378,None,348.0118078000378,None,348.90535700006876,None,0.38173340004868805,,,,,,,,,,,,,,,,,,,,,,,,,,,,,,,,,,,,,,,,,,,,,,,,,P030,FENCOG,2,Pre,2022_Mar_11_1050,Go No-Go Task,2021.1.4,120.45798125428158,
EPracticeConditions/BlueScram.csv,"Rule: When you see a blue image, do not press 'spacebar'.",Images/Scram1/AM13NES.jpg,Scramble,Yellow,Images/Yellow.jpg,space,,,,,,,0,2,2,2,0,3,3,5,,,,,,,,,,,,,,,,,,,,,,,,,,,,,,,,,,,,,,,,,,,,,,,,,,,1.4,350.91106429998763,None,space,1,352.4188194000162,None,352.4188194000162,None,352.4188194000162,None,353.3089917000616,None,0.3344659999711439,,,,,,,,,,,,,,,,,,,,,,,,,,,,,,,,,,,,,,,,,,,,,,,,,P030,FENCOG,2,Pre,2022_Mar_11_1050,Go No-Go Task,2021.1.4,120.45798125428158,
EPracticeConditions/BlueScram.csv,"Rule: When you see a blue image, do not press 'spacebar'.",Images/Scram1/AM04_NC.jpg,Scramble,Yellow,Images/Yellow.jpg,space,,,,,,,0,2,2,2,0,4,4,3,,,,,,,,,,,,,,,,,,,,,,,,,,,,,,,,,,,,,,,,,,,,,,,,,,,1.2,355.3123686000472,None,space,1,356.61762310005724,None,356.61762310005724,None,356.61762310005724,None,357.5079317999771,None,0.3838308999547735,,,,,,,,,,,,,,,,,,,,,,,,,,,,,,,,,,,,,,,,,,,,,,,,,P030,FENCOG,2,Pre,2022_Mar_11_1050,Go No-Go Task,2021.1.4,120.45798125428158,
EPracticeConditions/BlueScram.csv,"Rule: When you see a blue image, do not press 'spacebar'.",Images/Scram2/AF10_NC.jpg,Scramble,Yellow,Images/Yellow.jpg,space,,,,,,,0,2,2,2,0,5,5,2,,,,,,,,,,,,,,,,,,,,,,,,,,,,,,,,,,,,,,,,,,,,,,,,,,,1.7,359.5084402000066,None,space,1,361.31612490001135,None,361.31612490001135,None,361.31612490001135,None,362.2089826000156,None,0.35741649998817593,,,,,,,,,,,,,,,,,,,,,,,,,,,,,,,,,,,,,,,,,,,,,,,,,P030,FENCOG,2,Pre,2022_Mar_11_1050,Go No-Go Task,2021.1.4,120.45798125428158,
EPracticeConditions/BlueScram.csv,"Rule: When you see a blue image, do not press 'spacebar'.",Images/Scram1/BM08_NC.jpg,Scramble,Blue,Images/Blue.jpg,None,,,,,,,0,2,2,2,0,6,6,0,,,,,,,,,,,,,,,,,,,,,,,,,,,,,,,,,,,,,,,,,,,,,,,,,,,1.9,364.2147617000155,None,None,1,366.21473890007474,None,366.21473890007474,None,366.21473890007474,None,367.1089165000012,None,,,,,,,,,,,,,,,,,,,,,,,,,,,,,,,,,,,,,,,,,,,,,,,,,,P030,FENCOG,2,Pre,2022_Mar_11_1050,Go No-Go Task,2021.1.4,120.45798125428158,
EPracticeConditions/BlueScram.csv,"Rule: When you see a blue image, do not press 'spacebar'.",Images/Scram2/AM03_NC.jpg,Scramble,Yellow,Images/Yellow.jpg,space,,,,,,,0,2,2,2,0,7,7,6,,,,,,,,,,,,,,,,,,,,,,,,,,,,,,,,,,,,,,,,,,,,,,,,,,,1.8,369.11286069999915,None,space,1,371.01327070000116,None,371.01327070000116,None,371.01327070000116,None,371.9041382999858,None,0.30851229990366846,,,,,,,,,,,,,,,,,,,,,,,,,,,,,,,,,,,,,,,,,,,,,,,,,P030,FENCOG,2,Pre,2022_Mar_11_1050,Go No-Go Task,2021.1.4,120.45798125428158,
EPracticeConditions/BlueScram.csv,"Rule: When you see a blue image, do not press 'spacebar'.",,,,,,,,,,,,0,2,2,2,,,,,,,,,,,,,,,,,,,,,,,,,,,,,,,,,,,,,,,,,,,,,,,,,,,,,,,,,,,,,,,,,,,,,,,,,,,,,,,,,,,,,,,,,,,,,,,,,,,,,,,,,,,,,,,,,,,,,P030,FENCOG,2,Pre,2022_Mar_11_1050,Go No-Go Task,2021.1.4,120.45798125428158,
EPracticeConditions/YellowScram.csv,"Rule: When you see a yellow image, do not press 'spacebar'.",Images/Scram1/HF04_NC.jpg,Scramble,Blue,Images/Blue.jpg,space,,,,,,,0,3,3,3,0,0,0,2,,,,,,,,,,,,,,,,,,,,,,,,,,,,,,,,,,,,,373.92133490007836,None,376.91092509997543,None,space,0.7625341000966728,376.91092509997543,None,373.92133490007836,None,373.92133490007836,None,373.92133490007836,None,1.3,377.6960633000126,None,None,0,379.1026652000146,None,379.1026652000146,None,379.1026652000146,None,380.0083443999756,None,,,,,,,,,,,,,,,,,,,,,,,,,,,,,,,,,,,,,,,,,,,,,,,,,,P030,FENCOG,2,Pre,2022_Mar_11_1050,Go No-Go Task,2021.1.4,120.45798125428158,
EPracticeConditions/YellowScram.csv,"Rule: When you see a yellow image, do not press 'spacebar'.",Images/Scram1/AF07NES.jpg,Scramble,Blue,Images/Blue.jpg,space,,,,,,,0,3,3,3,0,1,1,3,,,,,,,,,,,,,,,,,,,,,,,,,,,,,,,,,,,,,,,,,,,,,,,,,,,1.6,382.0092308999738,None,space,1,383.7179238999961,None,383.7179238999961,None,383.7179238999961,None,384.6145307000261,None,0.3634017000440508,,,,,,,,,,,,,,,,,,,,,,,,,,,,,,,,,,,,,,,,,,,,,,,,,P030,FENCOG,2,Pre,2022_Mar_11_1050,Go No-Go Task,2021.1.4,120.45798125428158,
EPracticeConditions/YellowScram.csv,"Rule: When you see a yellow image, do not press 'spacebar'.",Images/Scram1/AF30NES.JPG,Scramble,Blue,Images/Blue.jpg,space,,,,,,,0,3,3,3,0,2,2,4,,,,,,,,,,,,,,,,,,,,,,,,,,,,,,,,,,,,,,,,,,,,,,,,,,,1.5,386.6162300000433,None,space,1,388.2166582000209,None,388.2166582000209,None,388.2166582000209,None,389.1093131999951,None,0.2887654999503866,,,,,,,,,,,,,,,,,,,,,,,,,,,,,,,,,,,,,,,,,,,,,,,,,P030,FENCOG,2,Pre,2022_Mar_11_1050,Go No-Go Task,2021.1.4,120.45798125428158,
EPracticeConditions/YellowScram.csv,"Rule: When you see a yellow image, do not press 'spacebar'.",Images/Scram1/AF24NES.jpg,Scramble,Blue,Images/Blue.jpg,space,,,,,,,0,3,3,3,0,3,3,7,,,,,,,,,,,,,,,,,,,,,,,,,,,,,,,,,,,,,,,,,,,,,,,,,,,1.4,391.11526250001043,None,space,1,392.61499929998536,None,392.61499929998536,None,392.61499929998536,None,393.5063849000726,None,0.2744338000193238,,,,,,,,,,,,,,,,,,,,,,,,,,,,,,,,,,,,,,,,,,,,,,,,,P030,FENCOG,2,Pre,2022_Mar_11_1050,Go No-Go Task,2021.1.4,120.45798125428158,
EPracticeConditions/YellowScram.csv,"Rule: When you see a yellow image, do not press 'spacebar'.",Images/Scram2/AM03NES.jpg,Scramble,Yellow,Images/Yellow.jpg,None,,,,,,,0,3,3,3,0,4,4,1,,,,,,,,,,,,,,,,,,,,,,,,,,,,,,,,,,,,,,,,,,,,,,,,,,,1.7,395.5135880999733,None,None,1,397.3138705000747,None,397.3138705000747,None,397.3138705000747,None,398.2056541000493,None,,,,,,,,,,,,,,,,,,,,,,,,,,,,,,,,,,,,,,,,,,,,,,,,,,P030,FENCOG,2,Pre,2022_Mar_11_1050,Go No-Go Task,2021.1.4,120.45798125428158,
EPracticeConditions/YellowScram.csv,"Rule: When you see a yellow image, do not press 'spacebar'.",Images/Scram1/AF10_NC.jpg,Scramble,Blue,Images/Blue.jpg,space,,,,,,,0,3,3,3,0,5,5,6,,,,,,,,,,,,,,,,,,,,,,,,,,,,,,,,,,,,,,,,,,,,,,,,,,,1.9,400.2120470000664,None,space,1,402.2122068000026,None,402.2122068000026,None,402.2122068000026,None,403.105869699968,None,0.1572086000815034,,,,,,,,,,,,,,,,,,,,,,,,,,,,,,,,,,,,,,,,,,,,,,,,,P030,FENCOG,2,Pre,2022_Mar_11_1050,Go No-Go Task,2021.1.4,120.45798125428158,
EPracticeConditions/YellowScram.csv,"Rule: When you see a yellow image, do not press 'spacebar'.",Images/Scram1/BM01_NC.jpg,Scramble,Blue,Images/Blue.jpg,space,,,,,,,0,3,3,3,0,6,6,5,,,,,,,,,,,,,,,,,,,,,,,,,,,,,,,,,,,,,,,,,,,,,,,,,,,1.8,405.11272169998847,None,space,1,407.01941030006856,None,407.01941030006856,None,407.01941030006856,None,407.90959689999,None,0.3418625999474898,,,,,,,,,,,,,,,,,,,,,,,,,,,,,,,,,,,,,,,,,,,,,,,,,P030,FENCOG,2,Pre,2022_Mar_11_1050,Go No-Go Task,2021.1.4,120.45798125428158,
EPracticeConditions/YellowScram.csv,"Rule: When you see a yellow image, do not press 'spacebar'.",Images/Scram2/HM06_NC.jpg,Scramble,Yellow,Images/Yellow.jpg,None,,,,,,,0,3,3,3,0,7,7,0,,,,,,,,,,,,,,,,,,,,,,,,,,,,,,,,,,,,,,,,,,,,,,,,,,,1.2,409.9092902999837,None,space,0,411.21818119997624,None,411.21818119997624,None,411.21818119997624,None,412.11098700005095,None,0.32710120000410825,,,,,,,,,,,,,,,,,,,,,,,,,,,,,,,,,,,,,,,,,,,,,,,,,P030,FENCOG,2,Pre,2022_Mar_11_1050,Go No-Go Task,2021.1.4,120.45798125428158,
EPracticeConditions/YellowScram.csv,"Rule: When you see a yellow image, do not press 'spacebar'.",,,,,,,,,,,,0,3,3,3,,,,,,,,,,,,,,,,,,,,,,,,,,,,,,,,,,,,,,,,,,,,,,,,,,,,,,,,,,,,,,,,,,,,,,,,,,,,,,,,,,,,,,,,,,,,,,,,,,,,,,,,,,,,,,,,,,,,,P030,FENCOG,2,Pre,2022_Mar_11_1050,Go No-Go Task,2021.1.4,120.45798125428158,
,,,,,,,,,,,,,,,,,,,,,,,,,,,,,,,,,,,,,,,,,,,,,,,,,,,,,,,,,,,,,,,,,,,,,,,,,,,,,,,,,,,,,415.48645349999424,None,space,5.59507979999762,415.96630249999,None,,,,,,,,,,,,,,,,,,,,,,,,,,,,,,,,,,,,,,,,,,,P030,FENCOG,2,Pre,2022_Mar_11_1050,Go No-Go Task,2021.1.4,120.45798125428158,
,,,,,,,,,,,,,,,,,,,,,,,,,,,,,,,,,,,,,,,,,,,,,,,,,,,,,,,,,,,,,,,,,,,,,,,,,,,,,,,,,,,,,,,,,,,421.57367070007604,None,space,2.0119722000090405,421.57367070007604,None,,,,,,,,,,,,,,,,,,,,,,,,,,,,,,,,,,,,,P030,FENCOG,2,Pre,2022_Mar_11_1050,Go No-Go Task,2021.1.4,120.45798125428158,
,"Rule: When you see a yellow image, do not press 'spacebar'.",Images/Happy/BF09_HO.jpg,Happy,Blue,Images/Blue.jpg,space,ParentConditions/YellowYellowBlue_v2.xlsx,YellowYellowBlue,Conditions/Version_2/YellowFearStop.xlsx,no,PASS,0.2009685743777515,,,,,,,,,0,0,0,1,0,0,0,0,0,0,0,0,,,,,,,,,,,,,,,,,,,,,,,,,,,,,,,,,,,,,,,,,,,,,,,,,,,,,,,,,,,,,,,,,423.67074920004234,None,426.662878000061,None,space,0.9787072000326589,426.662878000061,None,423.67074920004234,None,423.67074920004234,None,423.67074920004234,None,1.45,427.69357560004573,None,space,1,0.2993289999430999,429.24613480002154,None,429.24613480002154,None,429.24613480002154,None,,,,,,,,,,,P030,FENCOG,2,Pre,2022_Mar_11_1050,Go No-Go Task,2021.1.4,120.45798125428158,
,"Rule: When you see a yellow image, do not press 'spacebar'.",Images/Happy/AF30HAS.jpg,Happy,Blue,Images/Blue.jpg,space,ParentConditions/YellowYellowBlue_v2.xlsx,YellowYellowBlue,Conditions/Version_2/YellowFearStop.xlsx,no,PASS,0.9679561444510932,,,,,,,,,0,0,0,1,0,0,0,0,0,1,1,1,,,,,,,,,,,,,,,,,,,,,,,,,,,,,,,,,,,,,,,,,,,,,,,,,,,,,,,,,,,,,,,,,,,,,,,,,,,,,,,1.47,429.646208900027,None,space,1,0.29305189999286085,431.2205379999941,None,431.2205379999941,None,431.2205379999941,None,,,,,,,,,,,P030,FENCOG,2,Pre,2022_Mar_11_1050,Go No-Go Task,2021.1.4,120.45798125428158,
,"Rule: When you see a yellow image, do not press 'spacebar'.",Images/Happy/AF27HAS.jpg,Happy,Blue,Images/Blue.jpg,space,ParentConditions/YellowYellowBlue_v2.xlsx,YellowYellowBlue,Conditions/Version_2/YellowFearStop.xlsx,no,PASS,0.024466481670397555,,,,,,,,,0,0,0,1,0,0,0,0,0,2,2,2,,,,,,,,,,,,,,,,,,,,,,,,,,,,,,,,,,,,,,,,,,,,,,,,,,,,,,,,,,,,,,,,,,,,,,,,,,,,,,,1.23,431.6207892000675,None,space,1,0.3441378999268636,432.9533578000264,None,432.9533578000264,None,432.9533578000264,None,,,,,,,,,,,P030,FENCOG,2,Pre,2022_Mar_11_1050,Go No-Go Task,2021.1.4,120.45798125428158,
,"Rule: When you see a yellow image, do not press 'spacebar'.",Images/Happy/AF22HAS.jpg,Happy,Blue,Images/Blue.jpg,space,ParentConditions/YellowYellowBlue_v2.xlsx,YellowYellowBlue,Conditions/Version_2/YellowFearStop.xlsx,no,PASS,0.900419425166189,,,,,,,,,0,0,0,1,0,0,0,0,0,3,3,3,,,,,,,,,,,,,,,,,,,,,,,,,,,,,,,,,,,,,,,,,,,,,,,,,,,,,,,,,,,,,,,,,,,,,,,,,,,,,,,1.57,433.35366740007885,None,space,1,0.34983369999099523,435.0277983000269,None,435.0277983000269,None,435.0277983000269,None,,,,,,,,,,,P030,FENCOG,2,Pre,2022_Mar_11_1050,Go No-Go Task,2021.1.4,120.45798125428158,
,"Rule: When you see a yellow image, do not press 'spacebar'.",Images/Happy/WM11_HC.jpg,Happy,Blue,Images/Blue.jpg,space,ParentConditions/YellowYellowBlue_v2.xlsx,YellowYellowBlue,Conditions/Version_2/YellowFearStop.xlsx,no,PASS,0.5042081063795358,,,,,,,,,0,0,0,1,0,0,0,0,0,4,4,4,,,,,,,,,,,,,,,,,,,,,,,,,,,,,,,,,,,,,,,,,,,,,,,,,,,,,,,,,,,,,,,,,,,,,,,,,,,,,,,1.83,435.4283755000215,None,space,1,0.281067100004293,437.3603379999986,None,437.3603379999986,None,437.3603379999986,None,,,,,,,,,,,P030,FENCOG,2,Pre,2022_Mar_11_1050,Go No-Go Task,2021.1.4,120.45798125428158,
,"Rule: When you see a yellow image, do not press 'spacebar'.",Images/Happy/BF05_HO.jpg,Happy,Blue,Images/Blue.jpg,space,ParentConditions/YellowYellowBlue_v2.xlsx,YellowYellowBlue,Conditions/Version_2/YellowFearStop.xlsx,no,PASS,0.6687720633168746,,,,,,,,,0,0,0,1,0,0,0,0,0,5,5,5,,,,,,,,,,,,,,,,,,,,,,,,,,,,,,,,,,,,,,,,,,,,,,,,,,,,,,,,,,,,,,,,,,,,,,,,,,,,,,,1.46,437.7605421000626,None,space,1,0.3155881999991834,439.3180381000275,None,439.3180381000275,None,439.3180381000275,None,,,,,,,,,,,P030,FENCOG,2,Pre,2022_Mar_11_1050,Go No-Go Task,2021.1.4,120.45798125428158,
,"Rule: When you see a yellow image, do not press 'spacebar'.",Images/Fearful/AM01AFS.jpg,Fear,Yellow,Images/Yellow.jpg,None,ParentConditions/YellowYellowBlue_v2.xlsx,YellowYellowBlue,Conditions/Version_2/YellowFearStop.xlsx,yes,PASS,0.008120847249678764,,,,,,,,,0,0,0,1,0,0,0,0,0,6,6,6,,,,,,,,,,,,,,,,,,,,,,,,,,,,,,,,,,,,,,,,,,,,,,,,,,,,,,,,,,,,,,,,,,,,,,,,,,,,,,,1.43,439.72341500001494,None,None,1,,441.25914530002046,None,441.25914530002046,None,441.25914530002046,None,,,,,,,,,,,P030,FENCOG,2,Pre,2022_Mar_11_1050,Go No-Go Task,2021.1.4,120.45798125428158,
,"Rule: When you see a yellow image, do not press 'spacebar'.",Images/Happy/AF23HAS.jpg,Happy,Blue,Images/Blue.jpg,space,ParentConditions/YellowYellowBlue_v2.xlsx,YellowYellowBlue,Conditions/Version_2/YellowFearStop.xlsx,no,PASS,0.07023198870971747,,,,,,,,,0,0,0,1,0,0,0,0,0,7,7,7,,,,,,,,,,,,,,,,,,,,,,,,,,,,,,,,,,,,,,,,,,,,,,,,,,,,,,,,,,,,,,,,,,,,,,,,,,,,,,,1.95,441.6595547000179,None,space,1,0.2847635999787599,443.7167456999887,None,443.7167456999887,None,443.7167456999887,None,,,,,,,,,,,P030,FENCOG,2,Pre,2022_Mar_11_1050,Go No-Go Task,2021.1.4,120.45798125428158,
,"Rule: When you see a yellow image, do not press 'spacebar'.",Images/Happy/AM16HAS.jpg,Happy,Blue,Images/Blue.jpg,space,ParentConditions/YellowYellowBlue_v2.xlsx,YellowYellowBlue,Conditions/Version_2/YellowFearStop.xlsx,no,PASS,0.031804034281165405,,,,,,,,,0,0,0,1,0,0,0,0,0,8,8,8,,,,,,,,,,,,,,,,,,,,,,,,,,,,,,,,,,,,,,,,,,,,,,,,,,,,,,,,,,,,,,,,,,,,,,,,,,,,,,,1.25,444.1175402000081,None,space,1,0.31894210004247725,445.4746140000643,None,445.4746140000643,None,445.4746140000643,None,,,,,,,,,,,P030,FENCOG,2,Pre,2022_Mar_11_1050,Go No-Go Task,2021.1.4,120.45798125428158,
,"Rule: When you see a yellow image, do not press 'spacebar'.",Images/Happy/AM04HAS.jpg,Happy,Blue,Images/Blue.jpg,space,ParentConditions/YellowYellowBlue_v2.xlsx,YellowYellowBlue,Conditions/Version_2/YellowFearStop.xlsx,no,PASS,0.0002121348500070397,,,,,,,,,0,0,0,1,0,0,0,0,0,9,9,9,,,,,,,,,,,,,,,,,,,,,,,,,,,,,,,,,,,,,,,,,,,,,,,,,,,,,,,,,,,,,,,,,,,,,,,,,,,,,,,1.86,445.8748594999779,None,None,0,,447.8489946000045,None,447.8489946000045,None,447.8489946000045,None,,,,,,,,,,,P030,FENCOG,2,Pre,2022_Mar_11_1050,Go No-Go Task,2021.1.4,120.45798125428158,
,"Rule: When you see a yellow image, do not press 'spacebar'.",Images/Happy/AF26HAS.jpg,Happy,Blue,Images/Blue.jpg,space,ParentConditions/YellowYellowBlue_v2.xlsx,YellowYellowBlue,Conditions/Version_2/YellowFearStop.xlsx,no,PASS,0.408079602030768,,,,,,,,,0,0,0,1,0,0,0,0,0,10,10,10,,,,,,,,,,,,,,,,,,,,,,,,,,,,,,,,,,,,,,,,,,,,,,,,,,,,,,,,,,,,,,,,,,,,,,,,,,,,,,,1.41,448.2479642999824,None,space,1,0.292477700044401,449.76497000001837,None,449.76497000001837,None,449.76497000001837,None,,,,,,,,,,,P030,FENCOG,2,Pre,2022_Mar_11_1050,Go No-Go Task,2021.1.4,120.45798125428158,
,"Rule: When you see a yellow image, do not press 'spacebar'.",Images/Fearful/AF10_FC.jpg,Fear,Yellow,Images/Yellow.jpg,None,ParentConditions/YellowYellowBlue_v2.xlsx,YellowYellowBlue,Conditions/Version_2/YellowFearStop.xlsx,yes,PASS,0.43118367877877073,,,,,,,,,0,0,0,1,0,0,0,0,0,11,11,11,,,,,,,,,,,,,,,,,,,,,,,,,,,,,,,,,,,,,,,,,,,,,,,,,,,,,,,,,,,,,,,,,,,,,,,,,,,,,,,1.99,450.16450120008085,None,space,0,0.2495852999854833,452.25592730008066,None,452.25592730008066,None,452.25592730008066,None,,,,,,,,,,,P030,FENCOG,2,Pre,2022_Mar_11_1050,Go No-Go Task,2021.1.4,120.45798125428158,
,"Rule: When you see a yellow image, do not press 'spacebar'.",Images/Fearful/AM09_FO.jpg,Fear,Yellow,Images/Yellow.jpg,None,ParentConditions/YellowYellowBlue_v2.xlsx,YellowYellowBlue,Conditions/Version_2/YellowFearStop.xlsx,yes,PASS,0.25324381257324213,,,,,,,,,0,0,0,1,0,0,0,0,0,12,12,12,,,,,,,,,,,,,,,,,,,,,,,,,,,,,,,,,,,,,,,,,,,,,,,,,,,,,,,,,,,,,,,,,,,,,,,,,,,,,,,1.59,452.6557118999772,None,None,1,,454.34701809997205,None,454.34701809997205,None,454.34701809997205,None,,,,,,,,,,,P030,FENCOG,2,Pre,2022_Mar_11_1050,Go No-Go Task,2021.1.4,120.45798125428158,
,"Rule: When you see a yellow image, do not press 'spacebar'.",Images/Happy/HM04_HO.jpg,Happy,Blue,Images/Blue.jpg,space,ParentConditions/YellowYellowBlue_v2.xlsx,YellowYellowBlue,Conditions/Version_2/YellowFearStop.xlsx,no,PASS,0.4072425132028237,,,,,,,,,0,0,0,1,0,0,0,0,0,13,13,13,,,,,,,,,,,,,,,,,,,,,,,,,,,,,,,,,,,,,,,,,,,,,,,,,,,,,,,,,,,,,,,,,,,,,,,,,,,,,,,1.24,454.7471786000533,None,space,1,0.3613232000498101,456.0881612000521,None,456.0881612000521,None,456.0881612000521,None,,,,,,,,,,,P030,FENCOG,2,Pre,2022_Mar_11_1050,Go No-Go Task,2021.1.4,120.45798125428158,
,"Rule: When you see a yellow image, do not press 'spacebar'.",Images/Fearful/AM04_FO.jpg,Fear,Yellow,Images/Yellow.jpg,None,ParentConditions/YellowYellowBlue_v2.xlsx,YellowYellowBlue,Conditions/Version_2/YellowFearStop.xlsx,yes,PASS,0.7288256558461894,,,,,,,,,0,0,0,1,0,0,0,0,0,14,14,14,,,,,,,,,,,,,,,,,,,,,,,,,,,,,,,,,,,,,,,,,,,,,,,,,,,,,,,,,,,,,,,,,,,,,,,,,,,,,,,1.4,456.4887534000445,None,None,1,,457.9962756000459,None,457.9962756000459,None,457.9962756000459,None,,,,,,,,,,,P030,FENCOG,2,Pre,2022_Mar_11_1050,Go No-Go Task,2021.1.4,120.45798125428158,
,"Rule: When you see a yellow image, do not press 'spacebar'.",Images/Happy/AM13HAS.jpg,Happy,Blue,Images/Blue.jpg,space,ParentConditions/YellowYellowBlue_v2.xlsx,YellowYellowBlue,Conditions/Version_2/YellowFearStop.xlsx,no,PASS,0.9405484517370288,,,,,,,,,0,0,0,1,0,0,0,0,0,15,15,15,,,,,,,,,,,,,,,,,,,,,,,,,,,,,,,,,,,,,,,,,,,,,,,,,,,,,,,,,,,,,,,,,,,,,,,,,,,,,,,1.52,458.3959612000035,None,space,1,0.23710739996749908,460.02035860007163,None,460.02035860007163,None,460.02035860007163,None,,,,,,,,,,,P030,FENCOG,2,Pre,2022_Mar_11_1050,Go No-Go Task,2021.1.4,120.45798125428158,
,"Rule: When you see a yellow image, do not press 'spacebar'.",Images/Fearful/AF09AFS.jpg,Fear,Yellow,Images/Yellow.jpg,None,ParentConditions/YellowYellowBlue_v2.xlsx,YellowYellowBlue,Conditions/Version_2/YellowFearStop.xlsx,yes,PASS,0.6464881792541419,,,,,,,,,0,0,0,1,0,0,0,0,0,16,16,16,,,,,,,,,,,,,,,,,,,,,,,,,,,,,,,,,,,,,,,,,,,,,,,,,,,,,,,,,,,,,,,,,,,,,,,,,,,,,,,1.82,460.4206993000116,None,None,1,,462.34472110006027,None,462.34472110006027,None,462.34472110006027,None,,,,,,,,,,,P030,FENCOG,2,Pre,2022_Mar_11_1050,Go No-Go Task,2021.1.4,120.45798125428158,
,"Rule: When you see a yellow image, do not press 'spacebar'.",Images/Fearful/BF05_FO.jpg,Fear,Yellow,Images/Yellow.jpg,None,ParentConditions/YellowYellowBlue_v2.xlsx,YellowYellowBlue,Conditions/Version_2/YellowFearStop.xlsx,yes,PASS,0.37509261462312704,,,,,,,,,0,0,0,1,0,0,0,0,0,17,17,17,,,,,,,,,,,,,,,,,,,,,,,,,,,,,,,,,,,,,,,,,,,,,,,,,,,,,,,,,,,,,,,,,,,,,,,,,,,,,,,1.63,462.7447100999998,None,None,1,,464.4774117000634,None,464.4774117000634,None,464.4774117000634,None,,,,,,,,,,,P030,FENCOG,2,Pre,2022_Mar_11_1050,Go No-Go Task,2021.1.4,120.45798125428158,
,"Rule: When you see a yellow image, do not press 'spacebar'.",Images/Happy/AM24HAS.jpg,Happy,Blue,Images/Blue.jpg,space,ParentConditions/YellowYellowBlue_v2.xlsx,YellowYellowBlue,Conditions/Version_2/YellowFearStop.xlsx,no,PASS,0.016158036932588105,,,,,,,,,0,0,0,1,0,0,0,0,0,18,18,18,,,,,,,,,,,,,,,,,,,,,,,,,,,,,,,,,,,,,,,,,,,,,,,,,,,,,,,,,,,,,,,,,,,,,,,,,,,,,,,1.36,464.8818491999991,None,None,0,,466.34351879998576,None,466.34351879998576,None,466.34351879998576,None,,,,,,,,,,,P030,FENCOG,2,Pre,2022_Mar_11_1050,Go No-Go Task,2021.1.4,120.45798125428158,
,"Rule: When you see a yellow image, do not press 'spacebar'.",Images/Fearful/AF11AFS.jpg,Fear,Yellow,Images/Yellow.jpg,None,ParentConditions/YellowYellowBlue_v2.xlsx,YellowYellowBlue,Conditions/Version_2/YellowFearStop.xlsx,yes,PASS,0.3371554357894605,,,,,,,,,0,0,0,1,0,0,0,0,0,19,19,19,,,,,,,,,,,,,,,,,,,,,,,,,,,,,,,,,,,,,,,,,,,,,,,,,,,,,,,,,,,,,,,,,,,,,,,,,,,,,,,1.66,466.7437965000281,None,None,1,,468.5096507000271,None,468.5096507000271,None,468.5096507000271,None,,,,,,,,,,,P030,FENCOG,2,Pre,2022_Mar_11_1050,Go No-Go Task,2021.1.4,120.45798125428158,
,"Rule: When you see a yellow image, do not press 'spacebar'.",Images/Happy/AF01_HE.jpg,Happy,Blue,Images/Blue.jpg,space,ParentConditions/YellowYellowBlue_v2.xlsx,YellowYellowBlue,Conditions/Version_2/YellowFearStop.xlsx,no,PASS,0.09770872574206646,,,,,,,,,0,0,0,1,0,0,0,0,0,20,20,20,,,,,,,,,,,,,,,,,,,,,,,,,,,,,,,,,,,,,,,,,,,,,,,,,,,,,,,,,,,,,,,,,,,,,,,,,,,,,,,1.79,468.9102641000645,None,space,1,0.2809402000857517,470.8005665000528,None,470.8005665000528,None,470.8005665000528,None,,,,,,,,,,,P030,FENCOG,2,Pre,2022_Mar_11_1050,Go No-Go Task,2021.1.4,120.45798125428158,
,"Rule: When you see a yellow image, do not press 'spacebar'.",Images/Happy/AM10_HO.jpg,Happy,Blue,Images/Blue.jpg,space,ParentConditions/YellowYellowBlue_v2.xlsx,YellowYellowBlue,Conditions/Version_2/YellowFearStop.xlsx,no,PASS,0.35803186882916893,,,,,,,,,0,0,0,1,0,0,0,0,0,21,21,21,,,,,,,,,,,,,,,,,,,,,,,,,,,,,,,,,,,,,,,,,,,,,,,,,,,,,,,,,,,,,,,,,,,,,,,,,,,,,,,1.27,471.2006060000276,None,space,1,0.32198980008251965,472.58336360007524,None,472.58336360007524,None,472.58336360007524,None,,,,,,,,,,,P030,FENCOG,2,Pre,2022_Mar_11_1050,Go No-Go Task,2021.1.4,120.45798125428158,
,"Rule: When you see a yellow image, do not press 'spacebar'.",Images/Happy/AF09HAS.jpg,Happy,Blue,Images/Blue.jpg,space,ParentConditions/YellowYellowBlue_v2.xlsx,YellowYellowBlue,Conditions/Version_2/YellowFearStop.xlsx,no,PASS,0.20902890792548556,,,,,,,,,0,0,0,1,0,0,0,0,0,22,22,22,,,,,,,,,,,,,,,,,,,,,,,,,,,,,,,,,,,,,,,,,,,,,,,,,,,,,,,,,,,,,,,,,,,,,,,,,,,,,,,1.92,472.982428300078,None,space,1,0.33778109995182604,475.0075382000068,None,475.0075382000068,None,475.0075382000068,None,,,,,,,,,,,P030,FENCOG,2,Pre,2022_Mar_11_1050,Go No-Go Task,2021.1.4,120.45798125428158,
,"Rule: When you see a yellow image, do not press 'spacebar'.",Images/Happy/BM02_HO.jpg,Happy,Blue,Images/Blue.jpg,space,ParentConditions/YellowYellowBlue_v2.xlsx,YellowYellowBlue,Conditions/Version_2/YellowFearStop.xlsx,no,PASS,0.6732741052769042,,,,,,,,,0,0,0,1,0,0,0,0,0,23,23,23,,,,,,,,,,,,,,,,,,,,,,,,,,,,,,,,,,,,,,,,,,,,,,,,,,,,,,,,,,,,,,,,,,,,,,,,,,,,,,,1.75,475.4080058999825,None,space,1,0.2478142000036314,477.27361230005044,None,477.27361230005044,None,477.27361230005044,None,,,,,,,,,,,P030,FENCOG,2,Pre,2022_Mar_11_1050,Go No-Go Task,2021.1.4,120.45798125428158,
,"Rule: When you see a yellow image, do not press 'spacebar'.",Images/Happy/AM09_HE.jpg,Happy,Blue,Images/Blue.jpg,space,ParentConditions/YellowYellowBlue_v2.xlsx,YellowYellowBlue,Conditions/Version_2/YellowFearStop.xlsx,no,PASS,0.6065078221259242,,,,,,,,,0,0,0,1,0,0,0,0,0,24,24,24,,,,,,,,,,,,,,,,,,,,,,,,,,,,,,,,,,,,,,,,,,,,,,,,,,,,,,,,,,,,,,,,,,,,,,,,,,,,,,,1.38,477.6726316000568,None,space,1,0.3329094999935478,479.1563920000335,None,479.1563920000335,None,479.1563920000335,None,,,,,,,,,,,P030,FENCOG,2,Pre,2022_Mar_11_1050,Go No-Go Task,2021.1.4,120.45798125428158,
,"Rule: When you see a yellow image, do not press 'spacebar'.",Images/Happy/AF10_HE.jpg,Happy,Blue,Images/Blue.jpg,space,ParentConditions/YellowYellowBlue_v2.xlsx,YellowYellowBlue,Conditions/Version_2/YellowFearStop.xlsx,no,PASS,0.6869968801100608,,,,,,,,,0,0,0,1,0,0,0,0,0,25,25,25,,,,,,,,,,,,,,,,,,,,,,,,,,,,,,,,,,,,,,,,,,,,,,,,,,,,,,,,,,,,,,,,,,,,,,,,,,,,,,,1.73,479.56242380000185,None,space,1,0.3080541000235826,481.3973645999795,None,481.3973645999795,None,481.3973645999795,None,,,,,,,,,,,P030,FENCOG,2,Pre,2022_Mar_11_1050,Go No-Go Task,2021.1.4,120.45798125428158,
,"Rule: When you see a yellow image, do not press 'spacebar'.",Images/Happy/BM01_HO.jpg,Happy,Blue,Images/Blue.jpg,space,ParentConditions/YellowYellowBlue_v2.xlsx,YellowYellowBlue,Conditions/Version_2/YellowFearStop.xlsx,no,PASS,0.5538207000686074,,,,,,,,,0,0,0,1,0,0,0,0,0,26,26,26,,,,,,,,,,,,,,,,,,,,,,,,,,,,,,,,,,,,,,,,,,,,,,,,,,,,,,,,,,,,,,,,,,,,,,,,,,,,,,,1.55,481.7979461000068,None,space,1,0.29823969991412014,483.45513100002427,None,483.45513100002427,None,483.45513100002427,None,,,,,,,,,,,P030,FENCOG,2,Pre,2022_Mar_11_1050,Go No-Go Task,2021.1.4,120.45798125428158,
,"Rule: When you see a yellow image, do not press 'spacebar'.",Images/Fearful/AF07_FO.jpg,Fear,Yellow,Images/Yellow.jpg,None,ParentConditions/YellowYellowBlue_v2.xlsx,YellowYellowBlue,Conditions/Version_2/YellowFearStop.xlsx,yes,PASS,0.5689879324899989,,,,,,,,,0,0,0,1,0,0,0,0,0,27,27,27,,,,,,,,,,,,,,,,,,,,,,,,,,,,,,,,,,,,,,,,,,,,,,,,,,,,,,,,,,,,,,,,,,,,,,,,,,,,,,,1.56,483.85549139999785,None,None,1,,485.5212228000164,None,485.5212228000164,None,485.5212228000164,None,,,,,,,,,,,P030,FENCOG,2,Pre,2022_Mar_11_1050,Go No-Go Task,2021.1.4,120.45798125428158,
,"Rule: When you see a yellow image, do not press 'spacebar'.",Images/Happy/BF18_HO.jpg,Happy,Blue,Images/Blue.jpg,space,ParentConditions/YellowYellowBlue_v2.xlsx,YellowYellowBlue,Conditions/Version_2/YellowFearStop.xlsx,no,PASS,0.2528908254284902,,,,,,,,,0,0,0,1,0,0,0,0,0,28,28,28,,,,,,,,,,,,,,,,,,,,,,,,,,,,,,,,,,,,,,,,,,,,,,,,,,,,,,,,,,,,,,,,,,,,,,,,,,,,,,,1.49,485.9208675000118,None,space,1,0.28912239999044687,487.5122891999781,None,487.5122891999781,None,487.5122891999781,None,,,,,,,,,,,P030,FENCOG,2,Pre,2022_Mar_11_1050,Go No-Go Task,2021.1.4,120.45798125428158,
,"Rule: When you see a yellow image, do not press 'spacebar'.",Images/Happy/AM03HAS.jpg,Happy,Blue,Images/Blue.jpg,space,ParentConditions/YellowYellowBlue_v2.xlsx,YellowYellowBlue,Conditions/Version_2/YellowFearStop.xlsx,no,PASS,0.6129705520501836,,,,,,,,,0,0,0,1,0,0,0,0,0,29,29,29,,,,,,,,,,,,,,,,,,,,,,,,,,,,,,,,,,,,,,,,,,,,,,,,,,,,,,,,,,,,,,,,,,,,,,,,,,,,,,,1.78,487.91269190004095,None,space,1,0.2786262999288738,489.79486150003504,None,489.79486150003504,None,489.79486150003504,None,,,,,,,,,,,P030,FENCOG,2,Pre,2022_Mar_11_1050,Go No-Go Task,2021.1.4,120.45798125428158,
,"Rule: When you see a yellow image, do not press 'spacebar'.",Images/Happy/BF10_HO.jpg,Happy,Blue,Images/Blue.jpg,space,ParentConditions/YellowYellowBlue_v2.xlsx,YellowYellowBlue,Conditions/Version_2/YellowFearStop.xlsx,no,PASS,0.6633214650414543,,,,,,,,,0,0,0,1,0,0,0,0,0,30,30,30,,,,,,,,,,,,,,,,,,,,,,,,,,,,,,,,,,,,,,,,,,,,,,,,,,,,,,,,,,,,,,,,,,,,,,,,,,,,,,,1.53,490.1957410000032,None,space,1,0.26146990002598614,491.8359363999916,None,491.8359363999916,None,491.8359363999916,None,,,,,,,,,,,P030,FENCOG,2,Pre,2022_Mar_11_1050,Go No-Go Task,2021.1.4,120.45798125428158,
,"Rule: When you see a yellow image, do not press 'spacebar'.",Images/Happy/BF07_HO.jpg,Happy,Blue,Images/Blue.jpg,space,ParentConditions/YellowYellowBlue_v2.xlsx,YellowYellowBlue,Conditions/Version_2/YellowFearStop.xlsx,no,PASS,0.38343441764823294,,,,,,,,,0,0,0,1,0,0,0,0,0,31,31,31,,,,,,,,,,,,,,,,,,,,,,,,,,,,,,,,,,,,,,,,,,,,,,,,,,,,,,,,,,,,,,,,,,,,,,,,,,,,,,,1.89,492.2350994000444,None,space,1,0.278212400036864,494.2351194000803,None,494.2351194000803,None,494.2351194000803,None,,,,,,,,,,,P030,FENCOG,2,Pre,2022_Mar_11_1050,Go No-Go Task,2021.1.4,120.45798125428158,
,"Rule: When you see a yellow image, do not press 'spacebar'.",Images/Fearful/BF07_FO.jpg,Fear,Yellow,Images/Yellow.jpg,None,ParentConditions/YellowYellowBlue_v2.xlsx,YellowYellowBlue,Conditions/Version_2/YellowFearStop.xlsx,yes,PASS,0.00831620462665883,,,,,,,,,0,0,0,1,0,0,0,0,0,32,32,32,,,,,,,,,,,,,,,,,,,,,,,,,,,,,,,,,,,,,,,,,,,,,,,,,,,,,,,,,,,,,,,,,,,,,,,,,,,,,,,1.39,494.63400670001283,None,None,1,,496.1263885999797,None,496.1263885999797,None,496.1263885999797,None,,,,,,,,,,,P030,FENCOG,2,Pre,2022_Mar_11_1050,Go No-Go Task,2021.1.4,120.45798125428158,
,"Rule: When you see a yellow image, do not press 'spacebar'.",Images/Happy/WF04_HC.jpg,Happy,Blue,Images/Blue.jpg,space,ParentConditions/YellowYellowBlue_v2.xlsx,YellowYellowBlue,Conditions/Version_2/YellowFearStop.xlsx,no,PASS,0.6777495076385776,,,,,,,,,0,0,0,1,0,0,0,0,0,33,33,33,,,,,,,,,,,,,,,,,,,,,,,,,,,,,,,,,,,,,,,,,,,,,,,,,,,,,,,,,,,,,,,,,,,,,,,,,,,,,,,1.71,496.5257223000517,None,space,1,0.3386159000219777,498.35071380005684,None,498.35071380005684,None,498.35071380005684,None,,,,,,,,,,,P030,FENCOG,2,Pre,2022_Mar_11_1050,Go No-Go Task,2021.1.4,120.45798125428158,
,"Rule: When you see a yellow image, do not press 'spacebar'.",Images/Happy/AM23HAS.jpg,Happy,Blue,Images/Blue.jpg,space,ParentConditions/YellowYellowBlue_v2.xlsx,YellowYellowBlue,Conditions/Version_2/YellowFearStop.xlsx,no,PASS,0.04303712392230152,,,,,,,,,0,0,0,1,0,0,0,0,0,34,34,34,,,,,,,,,,,,,,,,,,,,,,,,,,,,,,,,,,,,,,,,,,,,,,,,,,,,,,,,,,,,,,,,,,,,,,,,,,,,,,,1.32,498.75072200002614,None,space,1,0.3221108999568969,500.17519950005226,None,500.17519950005226,None,500.17519950005226,None,,,,,,,,,,,P030,FENCOG,2,Pre,2022_Mar_11_1050,Go No-Go Task,2021.1.4,120.45798125428158,
,"Rule: When you see a yellow image, do not press 'spacebar'.",Images/Happy/AM09HAS.jpg,Happy,Blue,Images/Blue.jpg,space,ParentConditions/YellowYellowBlue_v2.xlsx,YellowYellowBlue,Conditions/Version_2/YellowFearStop.xlsx,no,PASS,0.09574836161041034,,,,,,,,,0,0,0,1,0,0,0,0,0,35,35,35,,,,,,,,,,,,,,,,,,,,,,,,,,,,,,,,,,,,,,,,,,,,,,,,,,,,,,,,,,,,,,,,,,,,,,,,,,,,,,,1.93,500.57833990000654,None,space,1,0.3368915000464767,502.62439760006964,None,502.62439760006964,None,502.62439760006964,None,,,,,,,,,,,P030,FENCOG,2,Pre,2022_Mar_11_1050,Go No-Go Task,2021.1.4,120.45798125428158,
,"Rule: When you see a yellow image, do not press 'spacebar'.",Images/Happy/AM10HAS.jpg,Happy,Blue,Images/Blue.jpg,space,ParentConditions/YellowYellowBlue_v2.xlsx,YellowYellowBlue,Conditions/Version_2/YellowFearStop.xlsx,no,PASS,0.1630912911655703,,,,,,,,,0,0,0,1,0,0,0,0,0,36,36,36,,,,,,,,,,,,,,,,,,,,,,,,,,,,,,,,,,,,,,,,,,,,,,,,,,,,,,,,,,,,,,,,,,,,,,,,,,,,,,,1.88,503.02344869996887,None,space,1,0.3303586000110954,505.0071015000576,None,505.0071015000576,None,505.0071015000576,None,,,,,,,,,,,P030,FENCOG,2,Pre,2022_Mar_11_1050,Go No-Go Task,2021.1.4,120.45798125428158,
,"Rule: When you see a yellow image, do not press 'spacebar'.",Images/Happy/AF07HAS.jpg,Happy,Blue,Images/Blue.jpg,space,ParentConditions/YellowYellowBlue_v2.xlsx,YellowYellowBlue,Conditions/Version_2/YellowFearStop.xlsx,no,PASS,0.34867471869559996,,,,,,,,,0,0,0,1,0,0,0,0,0,37,37,37,,,,,,,,,,,,,,,,,,,,,,,,,,,,,,,,,,,,,,,,,,,,,,,,,,,,,,,,,,,,,,,,,,,,,,,,,,,,,,,1.65,505.40796780004166,None,space,1,0.3324652999872342,507.16501090000384,None,507.16501090000384,None,507.16501090000384,None,,,,,,,,,,,P030,FENCOG,2,Pre,2022_Mar_11_1050,Go No-Go Task,2021.1.4,120.45798125428158,
,"Rule: When you see a yellow image, do not press 'spacebar'.",Images/Happy/AM03_HO.jpg,Happy,Blue,Images/Blue.jpg,space,ParentConditions/YellowYellowBlue_v2.xlsx,YellowYellowBlue,Conditions/Version_2/YellowFearStop.xlsx,no,PASS,0.8852047943617631,,,,,,,,,0,0,0,1,0,0,0,0,0,38,38,38,,,,,,,,,,,,,,,,,,,,,,,,,,,,,,,,,,,,,,,,,,,,,,,,,,,,,,,,,,,,,,,,,,,,,,,,,,,,,,,1.96,507.5642462000251,None,space,1,0.33862000005319715,509.6307971000206,None,509.6307971000206,None,509.6307971000206,None,,,,,,,,,,,P030,FENCOG,2,Pre,2022_Mar_11_1050,Go No-Go Task,2021.1.4,120.45798125428158,
,"Rule: When you see a yellow image, do not press 'spacebar'.",Images/Happy/AM05HAS.jpg,Happy,Blue,Images/Blue.jpg,space,ParentConditions/YellowYellowBlue_v2.xlsx,YellowYellowBlue,Conditions/Version_2/YellowFearStop.xlsx,no,PASS,0.25496798119470154,,,,,,,,,0,0,0,1,0,0,0,0,0,39,39,39,,,,,,,,,,,,,,,,,,,,,,,,,,,,,,,,,,,,,,,,,,,,,,,,,,,,,,,,,,,,,,,,,,,,,,,,,,,,,,,1.85,510.02987269998994,None,space,1,0.31708399998024106,511.98830490000546,None,511.98830490000546,None,511.98830490000546,None,,,,,,,,,,,P030,FENCOG,2,Pre,2022_Mar_11_1050,Go No-Go Task,2021.1.4,120.45798125428158,
,"Rule: When you see a yellow image, do not press 'spacebar'.",Images/Happy/AF02HAS.jpg,Happy,Blue,Images/Blue.jpg,space,ParentConditions/YellowYellowBlue_v2.xlsx,YellowYellowBlue,Conditions/Version_2/YellowFearStop.xlsx,no,PASS,0.4518610007497229,,,,,,,,,0,0,0,1,0,0,0,0,0,40,40,40,,,,,,,,,,,,,,,,,,,,,,,,,,,,,,,,,,,,,,,,,,,,,,,,,,,,,,,,,,,,,,,,,,,,,,,,,,,,,,,1.62,512.3874899999937,None,space,1,0.3605434000492096,514.1127040999709,None,514.1127040999709,None,514.1127040999709,None,,,,,,,,,,,P030,FENCOG,2,Pre,2022_Mar_11_1050,Go No-Go Task,2021.1.4,120.45798125428158,
,"Rule: When you see a yellow image, do not press 'spacebar'.",Images/Happy/BM08_HO.jpg,Happy,Blue,Images/Blue.jpg,space,ParentConditions/YellowYellowBlue_v2.xlsx,YellowYellowBlue,Conditions/Version_2/YellowFearStop.xlsx,no,PASS,0.6109180265070229,,,,,,,,,0,0,0,1,0,0,0,0,0,41,41,41,,,,,,,,,,,,,,,,,,,,,,,,,,,,,,,,,,,,,,,,,,,,,,,,,,,,,,,,,,,,,,,,,,,,,,,,,,,,,,,1.84,514.5154767000349,None,None,0,,516.4620548000094,None,516.4620548000094,None,516.4620548000094,None,,,,,,,,,,,P030,FENCOG,2,Pre,2022_Mar_11_1050,Go No-Go Task,2021.1.4,120.45798125428158,
,"Rule: When you see a yellow image, do not press 'spacebar'.",Images/Happy/AM22HAS.jpg,Happy,Blue,Images/Blue.jpg,space,ParentConditions/YellowYellowBlue_v2.xlsx,YellowYellowBlue,Conditions/Version_2/YellowFearStop.xlsx,no,PASS,0.358808559720486,,,,,,,,,0,0,0,1,0,0,0,0,0,42,42,42,,,,,,,,,,,,,,,,,,,,,,,,,,,,,,,,,,,,,,,,,,,,,,,,,,,,,,,,,,,,,,,,,,,,,,,,,,,,,,,1.72,516.8624687000411,None,space,1,0.27506869996432215,518.6864639000269,None,518.6864639000269,None,518.6864639000269,None,,,,,,,,,,,P030,FENCOG,2,Pre,2022_Mar_11_1050,Go No-Go Task,2021.1.4,120.45798125428158,
,"Rule: When you see a yellow image, do not press 'spacebar'.",Images/Happy/AM30HAS.jpg,Happy,Blue,Images/Blue.jpg,space,ParentConditions/YellowYellowBlue_v2.xlsx,YellowYellowBlue,Conditions/Version_2/YellowFearStop.xlsx,no,PASS,0.02897569025915847,,,,,,,,,0,0,0,1,0,0,0,0,0,43,43,43,,,,,,,,,,,,,,,,,,,,,,,,,,,,,,,,,,,,,,,,,,,,,,,,,,,,,,,,,,,,,,,,,,,,,,,,,,,,,,,1.2,519.0867179000052,None,space,1,0.3192727999994531,520.3942715000594,None,520.3942715000594,None,520.3942715000594,None,,,,,,,,,,,P030,FENCOG,2,Pre,2022_Mar_11_1050,Go No-Go Task,2021.1.4,120.45798125428158,
,"Rule: When you see a yellow image, do not press 'spacebar'.",Images/Fearful/BF09_FC.jpg,Fear,Yellow,Images/Yellow.jpg,None,ParentConditions/YellowYellowBlue_v2.xlsx,YellowYellowBlue,Conditions/Version_2/YellowFearStop.xlsx,yes,PASS,0.33656912313274023,,,,,,,,,0,0,0,1,0,0,0,0,0,44,44,44,,,,,,,,,,,,,,,,,,,,,,,,,,,,,,,,,,,,,,,,,,,,,,,,,,,,,,,,,,,,,,,,,,,,,,,,,,,,,,,1.29,520.8029581999872,None,None,1,,522.1936813000357,None,522.1936813000357,None,522.1936813000357,None,,,,,,,,,,,P030,FENCOG,2,Pre,2022_Mar_11_1050,Go No-Go Task,2021.1.4,120.45798125428158,
,"Rule: When you see a yellow image, do not press 'spacebar'.",Images/Happy/WM12_HE.jpg,Happy,Blue,Images/Blue.jpg,space,ParentConditions/YellowYellowBlue_v2.xlsx,YellowYellowBlue,Conditions/Version_2/YellowFearStop.xlsx,no,PASS,0.7601850991054155,,,,,,,,,0,0,0,1,0,0,0,0,0,45,45,45,,,,,,,,,,,,,,,,,,,,,,,,,,,,,,,,,,,,,,,,,,,,,,,,,,,,,,,,,,,,,,,,,,,,,,,,,,,,,,,1.28,522.5944110000273,None,space,1,0.29688869998790324,523.976393399993,None,523.976393399993,None,523.976393399993,None,,,,,,,,,,,P030,FENCOG,2,Pre,2022_Mar_11_1050,Go No-Go Task,2021.1.4,120.45798125428158,
,"Rule: When you see a yellow image, do not press 'spacebar'.",Images/Happy/HF10_HE.jpg,Happy,Blue,Images/Blue.jpg,space,ParentConditions/YellowYellowBlue_v2.xlsx,YellowYellowBlue,Conditions/Version_2/YellowFearStop.xlsx,no,PASS,0.6650727272929988,,,,,,,,,0,0,0,1,0,0,0,0,0,46,46,46,,,,,,,,,,,,,,,,,,,,,,,,,,,,,,,,,,,,,,,,,,,,,,,,,,,,,,,,,,,,,,,,,,,,,,,,,,,,,,,1.51,524.3765500000445,None,space,1,0.3209620000561699,525.9925380999921,None,525.9925380999921,None,525.9925380999921,None,,,,,,,,,,,P030,FENCOG,2,Pre,2022_Mar_11_1050,Go No-Go Task,2021.1.4,120.45798125428158,
,"Rule: When you see a yellow image, do not press 'spacebar'.",Images/Happy/HM09_HO.jpg,Happy,Blue,Images/Blue.jpg,space,ParentConditions/YellowYellowBlue_v2.xlsx,YellowYellowBlue,Conditions/Version_2/YellowFearStop.xlsx,no,PASS,0.7196619298468737,,,,,,,,,0,0,0,1,0,0,0,0,0,47,47,47,,,,,,,,,,,,,,,,,,,,,,,,,,,,,,,,,,,,,,,,,,,,,,,,,,,,,,,,,,,,,,,,,,,,,,,,,,,,,,,1.98,526.3917181000579,None,space,1,0.31817089999094605,528.4751671999693,None,528.4751671999693,None,528.4751671999693,None,,,,,,,,,,,P030,FENCOG,2,Pre,2022_Mar_11_1050,Go No-Go Task,2021.1.4,120.45798125428158,
,"Rule: When you see a yellow image, do not press 'spacebar'.",Images/Fearful/AM03_FC.jpg,Fear,Yellow,Images/Yellow.jpg,None,ParentConditions/YellowYellowBlue_v2.xlsx,YellowYellowBlue,Conditions/Version_2/YellowFearStop.xlsx,yes,PASS,0.9021154613913315,,,,,,,,,0,0,0,1,0,0,0,0,0,48,48,48,,,,,,,,,,,,,,,,,,,,,,,,,,,,,,,,,,,,,,,,,,,,,,,,,,,,,,,,,,,,,,,,,,,,,,,,,,,,,,,1.33,528.8796566000674,None,None,1,,530.3162454999983,None,530.3162454999983,None,530.3162454999983,None,,,,,,,,,,,P030,FENCOG,2,Pre,2022_Mar_11_1050,Go No-Go Task,2021.1.4,120.45798125428158,
,"Rule: When you see a yellow image, do not press 'spacebar'.",Images/Happy/HF04_HE.jpg,Happy,Blue,Images/Blue.jpg,space,ParentConditions/YellowYellowBlue_v2.xlsx,YellowYellowBlue,Conditions/Version_2/YellowFearStop.xlsx,no,PASS,0.6828282636628492,,,,,,,,,0,0,0,1,0,0,0,0,0,49,49,49,,,,,,,,,,,,,,,,,,,,,,,,,,,,,,,,,,,,,,,,,,,,,,,,,,,,,,,,,,,,,,,,,,,,,,,,,,,,,,,1.81,530.716914699995,None,space,1,0.3529435000382364,532.6323289000429,None,532.6323289000429,None,532.6323289000429,None,,,,,,,,,,,P030,FENCOG,2,Pre,2022_Mar_11_1050,Go No-Go Task,2021.1.4,120.45798125428158,
,"Rule: When you see a yellow image, do not press 'spacebar'.",Images/Happy/AM17HAS.jpg,Happy,Blue,Images/Blue.jpg,space,ParentConditions/YellowYellowBlue_v2.xlsx,YellowYellowBlue,Conditions/Version_2/YellowFearStop.xlsx,no,PASS,0.7726840133197573,,,,,,,,,0,0,0,1,0,0,0,0,0,50,50,50,,,,,,,,,,,,,,,,,,,,,,,,,,,,,,,,,,,,,,,,,,,,,,,,,,,,,,,,,,,,,,,,,,,,,,,,,,,,,,,1.8,533.0312848000322,None,space,1,0.3416125000221655,534.9316590999952,None,534.9316590999952,None,534.9316590999952,None,,,,,,,,,,,P030,FENCOG,2,Pre,2022_Mar_11_1050,Go No-Go Task,2021.1.4,120.45798125428158,
,"Rule: When you see a yellow image, do not press 'spacebar'.",Images/Fearful/BM01_FO.jpg,Fear,Yellow,Images/Yellow.jpg,None,ParentConditions/YellowYellowBlue_v2.xlsx,YellowYellowBlue,Conditions/Version_2/YellowFearStop.xlsx,yes,PASS,0.029850228609631824,,,,,,,,,0,0,0,1,0,0,0,0,0,51,51,51,,,,,,,,,,,,,,,,,,,,,,,,,,,,,,,,,,,,,,,,,,,,,,,,,,,,,,,,,,,,,,,,,,,,,,,,,,,,,,,1.76,535.3318684999831,None,None,1,,537.1976136000594,None,537.1976136000594,None,537.1976136000594,None,,,,,,,,,,,P030,FENCOG,2,Pre,2022_Mar_11_1050,Go No-Go Task,2021.1.4,120.45798125428158,
,"Rule: When you see a yellow image, do not press 'spacebar'.",Images/Happy/HF09_HE.jpg,Happy,Blue,Images/Blue.jpg,space,ParentConditions/YellowYellowBlue_v2.xlsx,YellowYellowBlue,Conditions/Version_2/YellowFearStop.xlsx,no,PASS,0.5416297044271999,,,,,,,,,0,0,0,1,0,0,0,0,0,52,52,52,,,,,,,,,,,,,,,,,,,,,,,,,,,,,,,,,,,,,,,,,,,,,,,,,,,,,,,,,,,,,,,,,,,,,,,,,,,,,,,1.48,537.5989992000395,None,space,1,0.33325519994832575,539.1802843000041,None,539.1802843000041,None,539.1802843000041,None,,,,,,,,,,,P030,FENCOG,2,Pre,2022_Mar_11_1050,Go No-Go Task,2021.1.4,120.45798125428158,
,"Rule: When you see a yellow image, do not press 'spacebar'.",Images/Happy/WF11_HE.jpg,Happy,Blue,Images/Blue.jpg,space,ParentConditions/YellowYellowBlue_v2.xlsx,YellowYellowBlue,Conditions/Version_2/YellowFearStop.xlsx,no,PASS,0.3923399468002319,,,,,,,,,0,0,0,1,0,0,0,0,0,53,53,53,,,,,,,,,,,,,,,,,,,,,,,,,,,,,,,,,,,,,,,,,,,,,,,,,,,,,,,,,,,,,,,,,,,,,,,,,,,,,,,1.44,539.5798575000372,None,space,1,0.34385619999375194,541.1214651999762,None,541.1214651999762,None,541.1214651999762,None,,,,,,,,,,,P030,FENCOG,2,Pre,2022_Mar_11_1050,Go No-Go Task,2021.1.4,120.45798125428158,
,"Rule: When you see a yellow image, do not press 'spacebar'.",Images/Fearful/AM04AFS.jpg,Fear,Yellow,Images/Yellow.jpg,None,ParentConditions/YellowYellowBlue_v2.xlsx,YellowYellowBlue,Conditions/Version_2/YellowFearStop.xlsx,yes,PASS,0.7106263735051498,,,,,,,,,0,0,0,1,0,0,0,0,0,54,54,54,,,,,,,,,,,,,,,,,,,,,,,,,,,,,,,,,,,,,,,,,,,,,,,,,,,,,,,,,,,,,,,,,,,,,,,,,,,,,,,1.6,541.5216785999946,None,None,1,,543.2374548000516,None,543.2374548000516,None,543.2374548000516,None,,,,,,,,,,,P030,FENCOG,2,Pre,2022_Mar_11_1050,Go No-Go Task,2021.1.4,120.45798125428158,
,"Rule: When you see a yellow image, do not press 'spacebar'.",Images/Happy/AF19HAS.jpg,Happy,Blue,Images/Blue.jpg,space,ParentConditions/YellowYellowBlue_v2.xlsx,YellowYellowBlue,Conditions/Version_2/YellowFearStop.xlsx,no,PASS,0.3419128984214137,,,,,,,,,0,0,0,1,0,0,0,0,0,55,55,55,,,,,,,,,,,,,,,,,,,,,,,,,,,,,,,,,,,,,,,,,,,,,,,,,,,,,,,,,,,,,,,,,,,,,,,,,,,,,,,1.3,543.6364856000291,None,space,1,0.34060660004615784,545.0369348999811,None,545.0369348999811,None,545.0369348999811,None,,,,,,,,,,,P030,FENCOG,2,Pre,2022_Mar_11_1050,Go No-Go Task,2021.1.4,120.45798125428158,
,"Rule: When you see a yellow image, do not press 'spacebar'.",Images/Happy/HM06_HO.jpg,Happy,Blue,Images/Blue.jpg,space,ParentConditions/YellowYellowBlue_v2.xlsx,YellowYellowBlue,Conditions/Version_2/YellowFearStop.xlsx,no,PASS,0.8215154078276994,,,,,,,,,0,0,0,1,0,0,0,0,0,56,56,56,,,,,,,,,,,,,,,,,,,,,,,,,,,,,,,,,,,,,,,,,,,,,,,,,,,,,,,,,,,,,,,,,,,,,,,,,,,,,,,1.54,545.4393999000313,None,space,1,0.3470665999921039,547.0863376000198,None,547.0863376000198,None,547.0863376000198,None,,,,,,,,,,,P030,FENCOG,2,Pre,2022_Mar_11_1050,Go No-Go Task,2021.1.4,120.45798125428158,
,"Rule: When you see a yellow image, do not press 'spacebar'.",Images/Happy/HF05_HO.jpg,Happy,Blue,Images/Blue.jpg,space,ParentConditions/YellowYellowBlue_v2.xlsx,YellowYellowBlue,Conditions/Version_2/YellowFearStop.xlsx,no,PASS,0.4418945189155604,,,,,,,,,0,0,0,1,0,0,0,0,0,57,57,57,,,,,,,,,,,,,,,,,,,,,,,,,,,,,,,,,,,,,,,,,,,,,,,,,,,,,,,,,,,,,,,,,,,,,,,,,,,,,,,1.35,547.4867550000781,None,space,1,0.31342420005239546,548.9440935000312,None,548.9440935000312,None,548.9440935000312,None,,,,,,,,,,,P030,FENCOG,2,Pre,2022_Mar_11_1050,Go No-Go Task,2021.1.4,120.45798125428158,
,"Rule: When you see a yellow image, do not press 'spacebar'.",Images/Fearful/AF01_FO.jpg,Fear,Yellow,Images/Yellow.jpg,None,ParentConditions/YellowYellowBlue_v2.xlsx,YellowYellowBlue,Conditions/Version_2/YellowFearStop.xlsx,yes,PASS,0.9630260753042453,,,,,,,,,0,0,0,1,0,0,0,0,0,58,58,58,,,,,,,,,,,,,,,,,,,,,,,,,,,,,,,,,,,,,,,,,,,,,,,,,,,,,,,,,,,,,,,,,,,,,,,,,,,,,,,2,549.346576699987,None,None,1,,551.451834400068,None,551.451834400068,None,551.451834400068,None,,,,,,,,,,,P030,FENCOG,2,Pre,2022_Mar_11_1050,Go No-Go Task,2021.1.4,120.45798125428158,
,"Rule: When you see a yellow image, do not press 'spacebar'.",Images/Happy/AF21HAS.jpg,Happy,Blue,Images/Blue.jpg,space,ParentConditions/YellowYellowBlue_v2.xlsx,YellowYellowBlue,Conditions/Version_2/YellowFearStop.xlsx,no,PASS,0.5410977161582079,,,,,,,,,0,0,0,1,0,0,0,0,0,59,59,59,,,,,,,,,,,,,,,,,,,,,,,,,,,,,,,,,,,,,,,,,,,,,,,,,,,,,,,,,,,,,,,,,,,,,,,,,,,,,,,1.7,551.8521510000573,None,space,1,0.3499763000290841,553.6594605999999,None,553.6594605999999,None,553.6594605999999,None,,,,,,,,,,,P030,FENCOG,2,Pre,2022_Mar_11_1050,Go No-Go Task,2021.1.4,120.45798125428158,
,"Rule: When you see a yellow image, do not press 'spacebar'.",Images/Happy/AM06_HC.jpg,Happy,Blue,Images/Blue.jpg,space,ParentConditions/YellowYellowBlue_v2.xlsx,YellowYellowBlue,Conditions/Version_2/YellowFearStop.xlsx,no,PASS,0.8195458073624309,,,,,,,,,0,0,0,1,0,0,0,0,0,60,60,60,,,,,,,,,,,,,,,,,,,,,,,,,,,,,,,,,,,,,,,,,,,,,,,,,,,,,,,,,,,,,,,,,,,,,,,,,,,,,,,1.21,554.0602945999708,None,None,0,,555.3751975999912,None,555.3751975999912,None,555.3751975999912,None,,,,,,,,,,,P030,FENCOG,2,Pre,2022_Mar_11_1050,Go No-Go Task,2021.1.4,120.45798125428158,
,"Rule: When you see a yellow image, do not press 'spacebar'.",Images/Fearful/AF02AFS.jpg,Fear,Yellow,Images/Yellow.jpg,None,ParentConditions/YellowYellowBlue_v2.xlsx,YellowYellowBlue,Conditions/Version_2/YellowFearStop.xlsx,yes,PASS,0.43475605439224807,,,,,,,,,0,0,0,1,0,0,0,0,0,61,61,61,,,,,,,,,,,,,,,,,,,,,,,,,,,,,,,,,,,,,,,,,,,,,,,,,,,,,,,,,,,,,,,,,,,,,,,,,,,,,,,1.77,555.7746788000222,None,None,1,,557.6499786999775,None,557.6499786999775,None,557.6499786999775,None,,,,,,,,,,,P030,FENCOG,2,Pre,2022_Mar_11_1050,Go No-Go Task,2021.1.4,120.45798125428158,
,"Rule: When you see a yellow image, do not press 'spacebar'.",Images/Happy/AF25HAS.jpg,Happy,Blue,Images/Blue.jpg,space,ParentConditions/YellowYellowBlue_v2.xlsx,YellowYellowBlue,Conditions/Version_2/YellowFearStop.xlsx,no,PASS,0.35344562160834636,,,,,,,,,0,0,0,1,0,0,0,0,0,62,62,62,,,,,,,,,,,,,,,,,,,,,,,,,,,,,,,,,,,,,,,,,,,,,,,,,,,,,,,,,,,,,,,,,,,,,,,,,,,,,,,1.26,558.0508348000003,None,space,1,0.32921670004725456,559.4161068999674,None,559.4161068999674,None,559.4161068999674,None,,,,,,,,,,,P030,FENCOG,2,Pre,2022_Mar_11_1050,Go No-Go Task,2021.1.4,120.45798125428158,
,"Rule: When you see a yellow image, do not press 'spacebar'.",Images/Happy/AM32HAS.jpg,Happy,Blue,Images/Blue.jpg,space,ParentConditions/YellowYellowBlue_v2.xlsx,YellowYellowBlue,Conditions/Version_2/YellowFearStop.xlsx,no,PASS,0.10846156836896592,,,,,,,,,0,0,0,1,0,0,0,0,0,63,63,63,,,,,,,,,,,,,,,,,,,,,,,,,,,,,,,,,,,,,,,,,,,,,,,,,,,,,,,,,,,,,,,,,,,,,,,,,,,,,,,1.69,559.8167102000443,None,space,1,0.3383140000514686,561.6071787000401,None,561.6071787000401,None,561.6071787000401,None,,,,,,,,,,,P030,FENCOG,2,Pre,2022_Mar_11_1050,Go No-Go Task,2021.1.4,120.45798125428158,
,"Rule: When you see a yellow image, do not press 'spacebar'.",Images/Fearful/AM02_FO.jpg,Fear,Yellow,Images/Yellow.jpg,None,ParentConditions/YellowYellowBlue_v2.xlsx,YellowYellowBlue,Conditions/Version_2/YellowFearStop.xlsx,yes,PASS,0.093492050295921,,,,,,,,,0,0,0,1,0,0,0,0,0,64,64,64,,,,,,,,,,,,,,,,,,,,,,,,,,,,,,,,,,,,,,,,,,,,,,,,,,,,,,,,,,,,,,,,,,,,,,,,,,,,,,,1.31,562.0074765000027,None,None,1,,563.4316082000732,None,563.4316082000732,None,563.4316082000732,None,,,,,,,,,,,P030,FENCOG,2,Pre,2022_Mar_11_1050,Go No-Go Task,2021.1.4,120.45798125428158,
,"Rule: When you see a yellow image, do not press 'spacebar'.",Images/Fearful/BM02_FC.jpg,Fear,Yellow,Images/Yellow.jpg,None,ParentConditions/YellowYellowBlue_v2.xlsx,YellowYellowBlue,Conditions/Version_2/YellowFearStop.xlsx,yes,PASS,0.8390777988560751,,,,,,,,,0,0,0,1,0,0,0,0,0,65,65,65,,,,,,,,,,,,,,,,,,,,,,,,,,,,,,,,,,,,,,,,,,,,,,,,,,,,,,,,,,,,,,,,,,,,,,,,,,,,,,,1.22,563.8305091999937,None,None,1,,565.1559895999962,None,565.1559895999962,None,565.1559895999962,None,,,,,,,,,,,P030,FENCOG,2,Pre,2022_Mar_11_1050,Go No-Go Task,2021.1.4,120.45798125428158,
,"Rule: When you see a yellow image, do not press 'spacebar'.",Images/Happy/AM04_HE.jpg,Happy,Blue,Images/Blue.jpg,space,ParentConditions/YellowYellowBlue_v2.xlsx,YellowYellowBlue,Conditions/Version_2/YellowFearStop.xlsx,no,PASS,0.268677407796428,,,,,,,,,0,0,0,1,0,0,0,0,0,66,66,66,,,,,,,,,,,,,,,,,,,,,,,,,,,,,,,,,,,,,,,,,,,,,,,,,,,,,,,,,,,,,,,,,,,,,,,,,,,,,,,1.58,565.5556683000177,None,space,1,0.3227720999857411,567.2387007999932,None,567.2387007999932,None,567.2387007999932,None,,,,,,,,,,,P030,FENCOG,2,Pre,2022_Mar_11_1050,Go No-Go Task,2021.1.4,120.45798125428158,
,"Rule: When you see a yellow image, do not press 'spacebar'.",Images/Fearful/AM05AFS.jpg,Fear,Yellow,Images/Yellow.jpg,None,ParentConditions/YellowYellowBlue_v2.xlsx,YellowYellowBlue,Conditions/Version_2/YellowFearStop.xlsx,yes,PASS,0.6951263252071049,,,,,,,,,0,0,0,1,0,0,0,0,0,67,67,67,,,,,,,,,,,,,,,,,,,,,,,,,,,,,,,,,,,,,,,,,,,,,,,,,,,,,,,,,,,,,,,,,,,,,,,,,,,,,,,1.87,567.6377878000494,None,None,1,,569.6130006000167,None,569.6130006000167,None,569.6130006000167,None,,,,,,,,,,,P030,FENCOG,2,Pre,2022_Mar_11_1050,Go No-Go Task,2021.1.4,120.45798125428158,
,"Rule: When you see a yellow image, do not press 'spacebar'.",Images/Happy/AF28HAS.jpg,Happy,Blue,Images/Blue.jpg,space,ParentConditions/YellowYellowBlue_v2.xlsx,YellowYellowBlue,Conditions/Version_2/YellowFearStop.xlsx,no,PASS,0.25032705960911217,,,,,,,,,0,0,0,1,0,0,0,0,0,68,68,68,,,,,,,,,,,,,,,,,,,,,,,,,,,,,,,,,,,,,,,,,,,,,,,,,,,,,,,,,,,,,,,,,,,,,,,,,,,,,,,1.67,570.0147152000573,None,space,1,0.3658778000390157,571.787470899988,None,571.787470899988,None,571.787470899988,None,,,,,,,,,,,P030,FENCOG,2,Pre,2022_Mar_11_1050,Go No-Go Task,2021.1.4,120.45798125428158,
,"Rule: When you see a yellow image, do not press 'spacebar'.",Images/Happy/AF07_HO.jpg,Happy,Blue,Images/Blue.jpg,space,ParentConditions/YellowYellowBlue_v2.xlsx,YellowYellowBlue,Conditions/Version_2/YellowFearStop.xlsx,no,PASS,0.293841477080362,,,,,,,,,0,0,0,1,0,0,0,0,0,69,69,69,,,,,,,,,,,,,,,,,,,,,,,,,,,,,,,,,,,,,,,,,,,,,,,,,,,,,,,,,,,,,,,,,,,,,,,,,,,,,,,1.37,572.1877782000229,None,space,1,0.36371890001464635,573.6618578999769,None,573.6618578999769,None,573.6618578999769,None,,,,,,,,,,,P030,FENCOG,2,Pre,2022_Mar_11_1050,Go No-Go Task,2021.1.4,120.45798125428158,
,"Rule: When you see a yellow image, do not press 'spacebar'.",Images/Happy/BF14_HO.jpg,Happy,Blue,Images/Blue.jpg,space,ParentConditions/YellowYellowBlue_v2.xlsx,YellowYellowBlue,Conditions/Version_2/YellowFearStop.xlsx,no,PASS,0.40422519447396765,,,,,,,,,0,0,0,1,0,0,0,0,0,70,70,70,,,,,,,,,,,,,,,,,,,,,,,,,,,,,,,,,,,,,,,,,,,,,,,,,,,,,,,,,,,,,,,,,,,,,,,,,,,,,,,1.91,574.0665009000804,None,space,1,0.3396753999404609,576.0777826000703,None,576.0777826000703,None,576.0777826000703,None,,,,,,,,,,,P030,FENCOG,2,Pre,2022_Mar_11_1050,Go No-Go Task,2021.1.4,120.45798125428158,
,"Rule: When you see a yellow image, do not press 'spacebar'.",Images/Fearful/AF07FS.jpg,Fear,Yellow,Images/Yellow.jpg,None,ParentConditions/YellowYellowBlue_v2.xlsx,YellowYellowBlue,Conditions/Version_2/YellowFearStop.xlsx,yes,PASS,0.7059954464635801,,,,,,,,,0,0,0,1,0,0,0,0,0,71,71,71,,,,,,,,,,,,,,,,,,,,,,,,,,,,,,,,,,,,,,,,,,,,,,,,,,,,,,,,,,,,,,,,,,,,,,,,,,,,,,,1.74,576.4783242000267,None,None,1,,578.3271723000798,None,578.3271723000798,None,578.3271723000798,None,,,,,,,,,,,P030,FENCOG,2,Pre,2022_Mar_11_1050,Go No-Go Task,2021.1.4,120.45798125428158,
,"Rule: When you see a yellow image, do not press 'spacebar'.",Images/Happy/AF32HAS.jpg,Happy,Blue,Images/Blue.jpg,space,ParentConditions/YellowYellowBlue_v2.xlsx,YellowYellowBlue,Conditions/Version_2/YellowFearStop.xlsx,no,PASS,0.6505932127186488,,,,,,,,,0,0,0,1,0,0,0,0,0,72,72,72,,,,,,,,,,,,,,,,,,,,,,,,,,,,,,,,,,,,,,,,,,,,,,,,,,,,,,,,,,,,,,,,,,,,,,,,,,,,,,,1.94,578.725949899992,None,space,1,0.3532114999834448,580.7680706999963,None,580.7680706999963,None,580.7680706999963,None,,,,,,,,,,,P030,FENCOG,2,Pre,2022_Mar_11_1050,Go No-Go Task,2021.1.4,120.45798125428158,
,"Rule: When you see a yellow image, do not press 'spacebar'.",Images/Happy/AF11HAS.jpg,Happy,Blue,Images/Blue.jpg,space,ParentConditions/YellowYellowBlue_v2.xlsx,YellowYellowBlue,Conditions/Version_2/YellowFearStop.xlsx,no,PASS,0.22413936824153813,,,,,,,,,0,0,0,1,0,0,0,0,0,73,73,73,,,,,,,,,,,,,,,,,,,,,,,,,,,,,,,,,,,,,,,,,,,,,,,,,,,,,,,,,,,,,,,,,,,,,,,,,,,,,,,1.9,581.1680700000143,None,space,1,0.3299984000623226,583.1756035999861,None,583.1756035999861,None,583.1756035999861,None,,,,,,,,,,,P030,FENCOG,2,Pre,2022_Mar_11_1050,Go No-Go Task,2021.1.4,120.45798125428158,
,"Rule: When you see a yellow image, do not press 'spacebar'.",Images/Happy/AM19HAS.jpg,Happy,Blue,Images/Blue.jpg,space,ParentConditions/YellowYellowBlue_v2.xlsx,YellowYellowBlue,Conditions/Version_2/YellowFearStop.xlsx,no,PASS,0.5367328627339492,,,,,,,,,0,0,0,1,0,0,0,0,0,74,74,74,,,,,,,,,,,,,,,,,,,,,,,,,,,,,,,,,,,,,,,,,,,,,,,,,,,,,,,,,,,,,,,,,,,,,,,,,,,,,,,1.64,583.5763262000401,None,space,1,0.30080319999251515,585.3168030000525,None,585.3168030000525,None,585.3168030000525,None,,,,,,,,,,,P030,FENCOG,2,Pre,2022_Mar_11_1050,Go No-Go Task,2021.1.4,120.45798125428158,
,"Rule: When you see a yellow image, do not press 'spacebar'.",Images/Happy/AM01HAS.jpg,Happy,Blue,Images/Blue.jpg,space,ParentConditions/YellowYellowBlue_v2.xlsx,YellowYellowBlue,Conditions/Version_2/YellowFearStop.xlsx,no,PASS,0.4512238869721793,,,,,,,,,0,0,0,1,0,0,0,0,0,75,75,75,,,,,,,,,,,,,,,,,,,,,,,,,,,,,,,,,,,,,,,,,,,,,,,,,,,,,,,,,,,,,,,,,,,,,,,,,,,,,,,1.34,585.71581720002,None,space,1,0.30765990004874766,587.1576829999685,None,587.1576829999685,None,587.1576829999685,None,,,,,,,,,,,P030,FENCOG,2,Pre,2022_Mar_11_1050,Go No-Go Task,2021.1.4,120.45798125428158,
,"Rule: When you see a yellow image, do not press 'spacebar'.",Images/Happy/WF05_HC.jpg,Happy,Blue,Images/Blue.jpg,space,ParentConditions/YellowYellowBlue_v2.xlsx,YellowYellowBlue,Conditions/Version_2/YellowFearStop.xlsx,no,PASS,0.7681499259335962,,,,,,,,,0,0,0,1,0,0,0,0,0,76,76,76,,,,,,,,,,,,,,,,,,,,,,,,,,,,,,,,,,,,,,,,,,,,,,,,,,,,,,,,,,,,,,,,,,,,,,,,,,,,,,,1.97,587.556739200023,None,space,1,0.3608534000813961,589.6404199000681,None,589.6404199000681,None,589.6404199000681,None,,,,,,,,,,,P030,FENCOG,2,Pre,2022_Mar_11_1050,Go No-Go Task,2021.1.4,120.45798125428158,
,"Rule: When you see a yellow image, do not press 'spacebar'.",Images/Happy/BM03_HO.jpg,Happy,Blue,Images/Blue.jpg,space,ParentConditions/YellowYellowBlue_v2.xlsx,YellowYellowBlue,Conditions/Version_2/YellowFearStop.xlsx,no,PASS,0.5824047138137685,,,,,,,,,0,0,0,1,0,0,0,0,0,77,77,77,,,,,,,,,,,,,,,,,,,,,,,,,,,,,,,,,,,,,,,,,,,,,,,,,,,,,,,,,,,,,,,,,,,,,,,,,,,,,,,1.68,590.0392909999937,None,space,1,0.3141849999083206,591.8231573000085,None,591.8231573000085,None,591.8231573000085,None,,,,,,,,,,,P030,FENCOG,2,Pre,2022_Mar_11_1050,Go No-Go Task,2021.1.4,120.45798125428158,
,"Rule: When you see a yellow image, do not press 'spacebar'.",Images/Happy/AM02_HE.jpg,Happy,Blue,Images/Blue.jpg,space,ParentConditions/YellowYellowBlue_v2.xlsx,YellowYellowBlue,Conditions/Version_2/YellowFearStop.xlsx,no,PASS,0.8791068347561973,,,,,,,,,0,0,0,1,0,0,0,0,0,78,78,78,,,,,,,,,,,,,,,,,,,,,,,,,,,,,,,,,,,,,,,,,,,,,,,,,,,,,,,,,,,,,,,,,,,,,,,,,,,,,,,1.61,592.2235479999799,None,space,1,0.32629400002770126,593.9391575000482,None,593.9391575000482,None,593.9391575000482,None,,,,,,,,,,,P030,FENCOG,2,Pre,2022_Mar_11_1050,Go No-Go Task,2021.1.4,120.45798125428158,
,"Rule: When you see a yellow image, do not press 'spacebar'.",Images/Fearful/AM06_FO.jpg,Fear,Yellow,Images/Yellow.jpg,None,ParentConditions/YellowYellowBlue_v2.xlsx,YellowYellowBlue,Conditions/Version_2/YellowFearStop.xlsx,yes,PASS,0.40627235988994603,,,,,,,,,0,0,0,1,0,0,0,0,0,79,79,79,,,,,,,,,,,,,,,,,,,,,,,,,,,,,,,,,,,,,,,,,,,,,,,,,,,,,,,,,,,,,,,,,,,,,,,,,,,,,,,1.42,594.3396569000324,None,None,1,,595.8636802000692,None,595.8636802000692,None,595.8636802000692,None,,,,,,,,,,,P030,FENCOG,2,Pre,2022_Mar_11_1050,Go No-Go Task,2021.1.4,120.45798125428158,
,"Rule: When you see a yellow image, do not press 'spacebar'.",Images/Scram2/HM09_NC.jpg,Scramble,Blue,Images/Blue.jpg,space,ParentConditions/YellowYellowBlue_v2.xlsx,YellowYellowBlue,Conditions/Version_2/YellowScramStop.xlsx,no,PASS,0.46719820189093064,,,,,,,,,0,0,0,1,0,1,1,1,0,0,0,0,,,,,,,,,,,,,,,,,,,,,,,,,,,,,,,,,,,,,,,,,,,,,,,,,,,,,,,,,,,,,,,,,604.4861130000791,None,607.4760995999677,None,space,4.733187299920246,607.4760995999677,None,604.4861130000791,None,604.4861130000791,None,604.4861130000791,None,1.6,612.2652552999789,None,None,0,,613.9750029999996,None,613.9750029999996,None,613.9750029999996,None,596.2759517000522,None,space,7.702924199984409,596.7625291000586,None,596.2759517000522,None,596.2759517000522,None,P030,FENCOG,2,Pre,2022_Mar_11_1050,Go No-Go Task,2021.1.4,120.45798125428158,
,"Rule: When you see a yellow image, do not press 'spacebar'.",Images/Scram2/HM06_NC.jpg,Scramble,Blue,Images/Blue.jpg,space,ParentConditions/YellowYellowBlue_v2.xlsx,YellowYellowBlue,Conditions/Version_2/YellowScramStop.xlsx,no,PASS,0.564231421897386,,,,,,,,,0,0,0,1,0,1,1,1,0,1,1,1,,,,,,,,,,,,,,,,,,,,,,,,,,,,,,,,,,,,,,,,,,,,,,,,,,,,,,,,,,,,,,,,,,,,,,,,,,,,,,,1.4,614.375504399999,None,None,0,,615.8823963999748,None,615.8823963999748,None,615.8823963999748,None,,,,,,,,,,,P030,FENCOG,2,Pre,2022_Mar_11_1050,Go No-Go Task,2021.1.4,120.45798125428158,
,"Rule: When you see a yellow image, do not press 'spacebar'.",Images/Scram1/AM31NES.jpg,Scramble,Blue,Images/Blue.jpg,space,ParentConditions/YellowYellowBlue_v2.xlsx,YellowYellowBlue,Conditions/Version_2/YellowScramStop.xlsx,no,PASS,0.846238330522312,,,,,,,,,0,0,0,1,0,1,1,1,0,2,2,2,,,,,,,,,,,,,,,,,,,,,,,,,,,,,,,,,,,,,,,,,,,,,,,,,,,,,,,,,,,,,,,,,,,,,,,,,,,,,,,1.35,616.2884190999903,None,None,0,,617.7488278000383,None,617.7488278000383,None,617.7488278000383,None,,,,,,,,,,,P030,FENCOG,2,Pre,2022_Mar_11_1050,Go No-Go Task,2021.1.4,120.45798125428158,
,"Rule: When you see a yellow image, do not press 'spacebar'.",Images/Scram2/AM03NES.jpg,Scramble,Yellow,Images/Yellow.jpg,None,ParentConditions/YellowYellowBlue_v2.xlsx,YellowYellowBlue,Conditions/Version_2/YellowScramStop.xlsx,yes,PASS,0.3566483684653988,,,,,,,,,0,0,0,1,0,1,1,1,0,3,3,3,,,,,,,,,,,,,,,,,,,,,,,,,,,,,,,,,,,,,,,,,,,,,,,,,,,,,,,,,,,,,,,,,,,,,,,,,,,,,,,1.52,618.1478784000501,None,None,1,,619.773221099982,None,619.773221099982,None,619.773221099982,None,,,,,,,,,,,P030,FENCOG,2,Pre,2022_Mar_11_1050,Go No-Go Task,2021.1.4,120.45798125428158,
,"Rule: When you see a yellow image, do not press 'spacebar'.",Images/Scram2/BM01_NC.jpg,Scramble,Blue,Images/Blue.jpg,space,ParentConditions/YellowYellowBlue_v2.xlsx,YellowYellowBlue,Conditions/Version_2/YellowScramStop.xlsx,no,PASS,0.6300515820310504,,,,,,,,,0,0,0,1,0,1,1,1,0,4,4,4,,,,,,,,,,,,,,,,,,,,,,,,,,,,,,,,,,,,,,,,,,,,,,,,,,,,,,,,,,,,,,,,,,,,,,,,,,,,,,,1.42,620.1723125000717,None,None,0,,621.6975083000725,None,621.6975083000725,None,621.6975083000725,None,,,,,,,,,,,P030,FENCOG,2,Pre,2022_Mar_11_1050,Go No-Go Task,2021.1.4,120.45798125428158,
,"Rule: When you see a yellow image, do not press 'spacebar'.",Images/Scram1/HM09_NC.jpg,Scramble,Blue,Images/Blue.jpg,space,ParentConditions/YellowYellowBlue_v2.xlsx,YellowYellowBlue,Conditions/Version_2/YellowScramStop.xlsx,no,PASS,0.9681952009545239,,,,,,,,,0,0,0,1,0,1,1,1,0,5,5,5,,,,,,,,,,,,,,,,,,,,,,,,,,,,,,,,,,,,,,,,,,,,,,,,,,,,,,,,,,,,,,,,,,,,,,,,,,,,,,,1.79,622.0969191000331,None,None,0,,623.9886561000021,None,623.9886561000021,None,623.9886561000021,None,,,,,,,,,,,P030,FENCOG,2,Pre,2022_Mar_11_1050,Go No-Go Task,2021.1.4,120.45798125428158,
,"Rule: When you see a yellow image, do not press 'spacebar'.",Images/Scram2/BF07_NC.jpg,Scramble,Blue,Images/Blue.jpg,space,ParentConditions/YellowYellowBlue_v2.xlsx,YellowYellowBlue,Conditions/Version_2/YellowScramStop.xlsx,no,PASS,0.21646267744166114,,,,,,,,,0,0,0,1,0,1,1,1,0,6,6,6,,,,,,,,,,,,,,,,,,,,,,,,,,,,,,,,,,,,,,,,,,,,,,,,,,,,,,,,,,,,,,,,,,,,,,,,,,,,,,,1.66,624.3879444000777,None,None,0,,626.1547590000555,None,626.1547590000555,None,626.1547590000555,None,,,,,,,,,,,P030,FENCOG,2,Pre,2022_Mar_11_1050,Go No-Go Task,2021.1.4,120.45798125428158,
,"Rule: When you see a yellow image, do not press 'spacebar'.",Images/Scram1/BF14_NC.jpg,Scramble,Blue,Images/Blue.jpg,space,ParentConditions/YellowYellowBlue_v2.xlsx,YellowYellowBlue,Conditions/Version_2/YellowScramStop.xlsx,no,PASS,0.9846643703258401,,,,,,,,,0,0,0,1,0,1,1,1,0,7,7,7,,,,,,,,,,,,,,,,,,,,,,,,,,,,,,,,,,,,,,,,,,,,,,,,,,,,,,,,,,,,,,,,,,,,,,,,,,,,,,,1.96,626.5549455999862,None,None,0,,628.6207152999705,None,628.6207152999705,None,628.6207152999705,None,,,,,,,,,,,P030,FENCOG,2,Pre,2022_Mar_11_1050,Go No-Go Task,2021.1.4,120.45798125428158,
,"Rule: When you see a yellow image, do not press 'spacebar'.",Images/Scram2/AF10_NC.jpg,Scramble,Blue,Images/Blue.jpg,space,ParentConditions/YellowYellowBlue_v2.xlsx,YellowYellowBlue,Conditions/Version_2/YellowScramStop.xlsx,no,PASS,0.2443614348279377,,,,,,,,,0,0,0,1,0,1,1,1,0,8,8,8,,,,,,,,,,,,,,,,,,,,,,,,,,,,,,,,,,,,,,,,,,,,,,,,,,,,,,,,,,,,,,,,,,,,,,,,,,,,,,,1.45,629.0209123999812,None,space,1,0.31904520001262426,630.5784660000354,None,630.5784660000354,None,630.5784660000354,None,,,,,,,,,,,P030,FENCOG,2,Pre,2022_Mar_11_1050,Go No-Go Task,2021.1.4,120.45798125428158,
,"Rule: When you see a yellow image, do not press 'spacebar'.",Images/Scram2/AF01_NC.jpg,Scramble,Blue,Images/Blue.jpg,space,ParentConditions/YellowYellowBlue_v2.xlsx,YellowYellowBlue,Conditions/Version_2/YellowScramStop.xlsx,no,PASS,0.5418077894665677,,,,,,,,,0,0,0,1,0,1,1,1,0,9,9,9,,,,,,,,,,,,,,,,,,,,,,,,,,,,,,,,,,,,,,,,,,,,,,,,,,,,,,,,,,,,,,,,,,,,,,,,,,,,,,,1.22,630.9781164000742,None,space,1,0.2588006000733003,632.3028919000644,None,632.3028919000644,None,632.3028919000644,None,,,,,,,,,,,P030,FENCOG,2,Pre,2022_Mar_11_1050,Go No-Go Task,2021.1.4,120.45798125428158,
,"Rule: When you see a yellow image, do not press 'spacebar'.",Images/Scram2/AF24NES.jpg,Scramble,Blue,Images/Blue.jpg,space,ParentConditions/YellowYellowBlue_v2.xlsx,YellowYellowBlue,Conditions/Version_2/YellowScramStop.xlsx,no,PASS,0.5679342954932528,,,,,,,,,0,0,0,1,0,1,1,1,0,10,10,10,,,,,,,,,,,,,,,,,,,,,,,,,,,,,,,,,,,,,,,,,,,,,,,,,,,,,,,,,,,,,,,,,,,,,,,,,,,,,,,1.23,632.7031858999981,None,space,1,0.2541330000385642,634.0356913000578,None,634.0356913000578,None,634.0356913000578,None,,,,,,,,,,,P030,FENCOG,2,Pre,2022_Mar_11_1050,Go No-Go Task,2021.1.4,120.45798125428158,
,"Rule: When you see a yellow image, do not press 'spacebar'.",Images/Scram2/BF14_NC.jpg,Scramble,Blue,Images/Blue.jpg,space,ParentConditions/YellowYellowBlue_v2.xlsx,YellowYellowBlue,Conditions/Version_2/YellowScramStop.xlsx,no,PASS,0.8825179199303765,,,,,,,,,0,0,0,1,0,1,1,1,0,11,11,11,,,,,,,,,,,,,,,,,,,,,,,,,,,,,,,,,,,,,,,,,,,,,,,,,,,,,,,,,,,,,,,,,,,,,,,,,,,,,,,1.9,634.4362063000444,None,space,1,0.27760270005092025,636.4517107000574,None,636.4517107000574,None,636.4517107000574,None,,,,,,,,,,,P030,FENCOG,2,Pre,2022_Mar_11_1050,Go No-Go Task,2021.1.4,120.45798125428158,
,"Rule: When you see a yellow image, do not press 'spacebar'.",Images/Scram1/AM13NES.jpg,Scramble,Blue,Images/Blue.jpg,space,ParentConditions/YellowYellowBlue_v2.xlsx,YellowYellowBlue,Conditions/Version_2/YellowScramStop.xlsx,no,PASS,0.21043647733489834,,,,,,,,,0,0,0,1,0,1,1,1,0,12,12,12,,,,,,,,,,,,,,,,,,,,,,,,,,,,,,,,,,,,,,,,,,,,,,,,,,,,,,,,,,,,,,,,,,,,,,,,,,,,,,,1.57,636.8507824999979,None,space,1,0.24331330007407814,638.526109199971,None,638.526109199971,None,638.526109199971,None,,,,,,,,,,,P030,FENCOG,2,Pre,2022_Mar_11_1050,Go No-Go Task,2021.1.4,120.45798125428158,
,"Rule: When you see a yellow image, do not press 'spacebar'.",Images/Scram1/HM04_NC.jpg,Scramble,Blue,Images/Blue.jpg,space,ParentConditions/YellowYellowBlue_v2.xlsx,YellowYellowBlue,Conditions/Version_2/YellowScramStop.xlsx,no,PASS,0.048118244636673246,,,,,,,,,0,0,0,1,0,1,1,1,0,13,13,13,,,,,,,,,,,,,,,,,,,,,,,,,,,,,,,,,,,,,,,,,,,,,,,,,,,,,,,,,,,,,,,,,,,,,,,,,,,,,,,1.24,638.9263306000503,None,space,1,0.317653700010851,640.2757099000737,None,640.2757099000737,None,640.2757099000737,None,,,,,,,,,,,P030,FENCOG,2,Pre,2022_Mar_11_1050,Go No-Go Task,2021.1.4,120.45798125428158,
,"Rule: When you see a yellow image, do not press 'spacebar'.",Images/Scram1/AM03NES.jpg,Scramble,Blue,Images/Blue.jpg,space,ParentConditions/YellowYellowBlue_v2.xlsx,YellowYellowBlue,Conditions/Version_2/YellowScramStop.xlsx,no,PASS,0.5072407620323995,,,,,,,,,0,0,0,1,0,1,1,1,0,14,14,14,,,,,,,,,,,,,,,,,,,,,,,,,,,,,,,,,,,,,,,,,,,,,,,,,,,,,,,,,,,,,,,,,,,,,,,,,,,,,,,1.53,640.6745754000731,None,space,1,0.29310350003652275,642.3083194000646,None,642.3083194000646,None,642.3083194000646,None,,,,,,,,,,,P030,FENCOG,2,Pre,2022_Mar_11_1050,Go No-Go Task,2021.1.4,120.45798125428158,
,"Rule: When you see a yellow image, do not press 'spacebar'.",Images/Scram1/AM22NES.jpg,Scramble,Blue,Images/Blue.jpg,space,ParentConditions/YellowYellowBlue_v2.xlsx,YellowYellowBlue,Conditions/Version_2/YellowScramStop.xlsx,no,PASS,0.8332736468200919,,,,,,,,,0,0,0,1,0,1,1,1,0,15,15,15,,,,,,,,,,,,,,,,,,,,,,,,,,,,,,,,,,,,,,,,,,,,,,,,,,,,,,,,,,,,,,,,,,,,,,,,,,,,,,,1.64,642.7077329000458,None,None,0,,644.4910499000689,None,644.4910499000689,None,644.4910499000689,None,,,,,,,,,,,P030,FENCOG,2,Pre,2022_Mar_11_1050,Go No-Go Task,2021.1.4,120.45798125428158,
,"Rule: When you see a yellow image, do not press 'spacebar'.",Images/Scram2/AM17NES.jpg,Scramble,Yellow,Images/Yellow.jpg,None,ParentConditions/YellowYellowBlue_v2.xlsx,YellowYellowBlue,Conditions/Version_2/YellowScramStop.xlsx,yes,PASS,0.5524440306249002,,,,,,,,,0,0,0,1,0,1,1,1,0,16,16,16,,,,,,,,,,,,,,,,,,,,,,,,,,,,,,,,,,,,,,,,,,,,,,,,,,,,,,,,,,,,,,,,,,,,,,,,,,,,,,,1.38,644.8558384000789,None,space,0,0.2530158000299707,646.3403049000772,None,646.3403049000772,None,646.3403049000772,None,,,,,,,,,,,P030,FENCOG,2,Pre,2022_Mar_11_1050,Go No-Go Task,2021.1.4,120.45798125428158,
,"Rule: When you see a yellow image, do not press 'spacebar'.",Images/Scram1/AM10NES.jpg,Scramble,Blue,Images/Blue.jpg,space,ParentConditions/YellowYellowBlue_v2.xlsx,YellowYellowBlue,Conditions/Version_2/YellowScramStop.xlsx,no,PASS,0.13699730503466545,,,,,,,,,0,0,0,1,0,1,1,1,0,17,17,17,,,,,,,,,,,,,,,,,,,,,,,,,,,,,,,,,,,,,,,,,,,,,,,,,,,,,,,,,,,,,,,,,,,,,,,,,,,,,,,1.5,646.7408390999772,None,space,1,0.24526540003716946,648.3481668999884,None,648.3481668999884,None,648.3481668999884,None,,,,,,,,,,,P030,FENCOG,2,Pre,2022_Mar_11_1050,Go No-Go Task,2021.1.4,120.45798125428158,
,"Rule: When you see a yellow image, do not press 'spacebar'.",Images/Scram2/AM03_NC.jpg,Scramble,Yellow,Images/Yellow.jpg,None,ParentConditions/YellowYellowBlue_v2.xlsx,YellowYellowBlue,Conditions/Version_2/YellowScramStop.xlsx,yes,PASS,0.2886954903206703,,,,,,,,,0,0,0,1,0,1,1,1,0,18,18,18,,,,,,,,,,,,,,,,,,,,,,,,,,,,,,,,,,,,,,,,,,,,,,,,,,,,,,,,,,,,,,,,,,,,,,,,,,,,,,,1.58,648.7561510000378,None,None,1,,650.4392944000429,None,650.4392944000429,None,650.4392944000429,None,,,,,,,,,,,P030,FENCOG,2,Pre,2022_Mar_11_1050,Go No-Go Task,2021.1.4,120.45798125428158,
,"Rule: When you see a yellow image, do not press 'spacebar'.",Images/Scram1/HF09_NC.jpg,Scramble,Blue,Images/Blue.jpg,space,ParentConditions/YellowYellowBlue_v2.xlsx,YellowYellowBlue,Conditions/Version_2/YellowScramStop.xlsx,no,PASS,0.5210471780653185,,,,,,,,,0,0,0,1,0,1,1,1,0,19,19,19,,,,,,,,,,,,,,,,,,,,,,,,,,,,,,,,,,,,,,,,,,,,,,,,,,,,,,,,,,,,,,,,,,,,,,,,,,,,,,,1.46,650.8396495999768,None,space,1,0.23586149991024286,652.4136086000362,None,652.4136086000362,None,652.4136086000362,None,,,,,,,,,,,P030,FENCOG,2,Pre,2022_Mar_11_1050,Go No-Go Task,2021.1.4,120.45798125428158,
,"Rule: When you see a yellow image, do not press 'spacebar'.",Images/Scram1/BM08_NC.jpg,Scramble,Blue,Images/Blue.jpg,space,ParentConditions/YellowYellowBlue_v2.xlsx,YellowYellowBlue,Conditions/Version_2/YellowScramStop.xlsx,no,PASS,0.7192207106921986,,,,,,,,,0,0,0,1,0,1,1,1,0,20,20,20,,,,,,,,,,,,,,,,,,,,,,,,,,,,,,,,,,,,,,,,,,,,,,,,,,,,,,,,,,,,,,,,,,,,,,,,,,,,,,,1.2,652.8124453000491,None,space,1,0.29689200001303107,654.1048609999707,None,654.1048609999707,None,654.1048609999707,None,,,,,,,,,,,P030,FENCOG,2,Pre,2022_Mar_11_1050,Go No-Go Task,2021.1.4,120.45798125428158,
,"Rule: When you see a yellow image, do not press 'spacebar'.",Images/Scram1/AF32NES.jpg,Scramble,Blue,Images/Blue.jpg,space,ParentConditions/YellowYellowBlue_v2.xlsx,YellowYellowBlue,Conditions/Version_2/YellowScramStop.xlsx,no,PASS,0.3856706921106089,,,,,,,,,0,0,0,1,0,1,1,1,0,21,21,21,,,,,,,,,,,,,,,,,,,,,,,,,,,,,,,,,,,,,,,,,,,,,,,,,,,,,,,,,,,,,,,,,,,,,,,,,,,,,,,1.7,654.5053973000031,None,space,1,0.27335260005202144,656.3120927000418,None,656.3120927000418,None,656.3120927000418,None,,,,,,,,,,,P030,FENCOG,2,Pre,2022_Mar_11_1050,Go No-Go Task,2021.1.4,120.45798125428158,
,"Rule: When you see a yellow image, do not press 'spacebar'.",Images/Scram2/AM06_NC.jpg,Scramble,Yellow,Images/Yellow.jpg,None,ParentConditions/YellowYellowBlue_v2.xlsx,YellowYellowBlue,Conditions/Version_2/YellowScramStop.xlsx,yes,PASS,0.593844606938259,,,,,,,,,0,0,0,1,0,1,1,1,0,22,22,22,,,,,,,,,,,,,,,,,,,,,,,,,,,,,,,,,,,,,,,,,,,,,,,,,,,,,,,,,,,,,,,,,,,,,,,,,,,,,,,1.92,656.7116971000796,None,None,1,,658.7367817000486,None,658.7367817000486,None,658.7367817000486,None,,,,,,,,,,,P030,FENCOG,2,Pre,2022_Mar_11_1050,Go No-Go Task,2021.1.4,120.45798125428158,
,"Rule: When you see a yellow image, do not press 'spacebar'.",Images/Scram1/AM06_NC.jpg,Scramble,Blue,Images/Blue.jpg,space,ParentConditions/YellowYellowBlue_v2.xlsx,YellowYellowBlue,Conditions/Version_2/YellowScramStop.xlsx,no,PASS,0.5597751985943138,,,,,,,,,0,0,0,1,0,1,1,1,0,23,23,23,,,,,,,,,,,,,,,,,,,,,,,,,,,,,,,,,,,,,,,,,,,,,,,,,,,,,,,,,,,,,,,,,,,,,,,,,,,,,,,1.36,659.1372111000819,None,space,1,0.2786350999958813,660.6028207000345,None,660.6028207000345,None,660.6028207000345,None,,,,,,,,,,,P030,FENCOG,2,Pre,2022_Mar_11_1050,Go No-Go Task,2021.1.4,120.45798125428158,
,"Rule: When you see a yellow image, do not press 'spacebar'.",Images/Scram2/AM02_NC.jpg,Scramble,Yellow,Images/Yellow.jpg,None,ParentConditions/YellowYellowBlue_v2.xlsx,YellowYellowBlue,Conditions/Version_2/YellowScramStop.xlsx,yes,PASS,0.21014535444537008,,,,,,,,,0,0,0,1,0,1,1,1,0,24,24,24,,,,,,,,,,,,,,,,,,,,,,,,,,,,,,,,,,,,,,,,,,,,,,,,,,,,,,,,,,,,,,,,,,,,,,,,,,,,,,,1.54,661.0021932000527,None,None,1,,662.6439613000257,None,662.6439613000257,None,662.6439613000257,None,,,,,,,,,,,P030,FENCOG,2,Pre,2022_Mar_11_1050,Go No-Go Task,2021.1.4,120.45798125428158,
,"Rule: When you see a yellow image, do not press 'spacebar'.",Images/Scram2/HF05_NC.jpg,Scramble,Blue,Images/Blue.jpg,space,ParentConditions/YellowYellowBlue_v2.xlsx,YellowYellowBlue,Conditions/Version_2/YellowScramStop.xlsx,no,PASS,0.0025091428399978133,,,,,,,,,0,0,0,1,0,1,1,1,0,25,25,25,,,,,,,,,,,,,,,,,,,,,,,,,,,,,,,,,,,,,,,,,,,,,,,,,,,,,,,,,,,,,,,,,,,,,,,,,,,,,,,2,663.0433634000365,None,space,1,0.14652720000594854,665.1431567000691,None,665.1431567000691,None,665.1431567000691,None,,,,,,,,,,,P030,FENCOG,2,Pre,2022_Mar_11_1050,Go No-Go Task,2021.1.4,120.45798125428158,
,"Rule: When you see a yellow image, do not press 'spacebar'.",Images/Scram2/AF32NES.jpg,Scramble,Yellow,Images/Yellow.jpg,None,ParentConditions/YellowYellowBlue_v2.xlsx,YellowYellowBlue,Conditions/Version_2/YellowScramStop.xlsx,yes,PASS,0.5621638043526047,,,,,,,,,0,0,0,1,0,1,1,1,0,26,26,26,,,,,,,,,,,,,,,,,,,,,,,,,,,,,,,,,,,,,,,,,,,,,,,,,,,,,,,,,,,,,,,,,,,,,,,,,,,,,,,1.47,665.5434691000264,None,None,1,,667.1176455999957,None,667.1176455999957,None,667.1176455999957,None,,,,,,,,,,,P030,FENCOG,2,Pre,2022_Mar_11_1050,Go No-Go Task,2021.1.4,120.45798125428158,
,"Rule: When you see a yellow image, do not press 'spacebar'.",Images/Scram2/HM04_NC.jpg,Scramble,Blue,Images/Blue.jpg,space,ParentConditions/YellowYellowBlue_v2.xlsx,YellowYellowBlue,Conditions/Version_2/YellowScramStop.xlsx,no,PASS,0.3656961779732233,,,,,,,,,0,0,0,1,0,1,1,1,0,27,27,27,,,,,,,,,,,,,,,,,,,,,,,,,,,,,,,,,,,,,,,,,,,,,,,,,,,,,,,,,,,,,,,,,,,,,,,,,,,,,,,1.48,667.5181806000182,None,space,1,0.22884600004181266,669.1004110000795,None,669.1004110000795,None,669.1004110000795,None,,,,,,,,,,,P030,FENCOG,2,Pre,2022_Mar_11_1050,Go No-Go Task,2021.1.4,120.45798125428158,
,"Rule: When you see a yellow image, do not press 'spacebar'.",Images/Scram2/AF25NES.jpg,Scramble,Blue,Images/Blue.jpg,space,ParentConditions/YellowYellowBlue_v2.xlsx,YellowYellowBlue,Conditions/Version_2/YellowScramStop.xlsx,no,PASS,0.24296732370581886,,,,,,,,,0,0,0,1,0,1,1,1,0,28,28,28,,,,,,,,,,,,,,,,,,,,,,,,,,,,,,,,,,,,,,,,,,,,,,,,,,,,,,,,,,,,,,,,,,,,,,,,,,,,,,,1.3,669.5009621999925,None,None,0,,670.9081898999866,None,670.9081898999866,None,670.9081898999866,None,,,,,,,,,,,P030,FENCOG,2,Pre,2022_Mar_11_1050,Go No-Go Task,2021.1.4,120.45798125428158,
,"Rule: When you see a yellow image, do not press 'spacebar'.",Images/Scram1/AF34NES.jpg,Scramble,Blue,Images/Blue.jpg,space,ParentConditions/YellowYellowBlue_v2.xlsx,YellowYellowBlue,Conditions/Version_2/YellowScramStop.xlsx,no,PASS,0.2947970947694444,,,,,,,,,0,0,0,1,0,1,1,1,0,29,29,29,,,,,,,,,,,,,,,,,,,,,,,,,,,,,,,,,,,,,,,,,,,,,,,,,,,,,,,,,,,,,,,,,,,,,,,,,,,,,,,1.28,671.3073492000112,None,space,1,0.2461121000815183,672.6910842000507,None,672.6910842000507,None,672.6910842000507,None,,,,,,,,,,,P030,FENCOG,2,Pre,2022_Mar_11_1050,Go No-Go Task,2021.1.4,120.45798125428158,
,"Rule: When you see a yellow image, do not press 'spacebar'.",Images/Scram2/AF11NES.jpg,Scramble,Blue,Images/Blue.jpg,space,ParentConditions/YellowYellowBlue_v2.xlsx,YellowYellowBlue,Conditions/Version_2/YellowScramStop.xlsx,no,PASS,0.06112693600308039,,,,,,,,,0,0,0,1,0,1,1,1,0,30,30,30,,,,,,,,,,,,,,,,,,,,,,,,,,,,,,,,,,,,,,,,,,,,,,,,,,,,,,,,,,,,,,,,,,,,,,,,,,,,,,,1.68,673.0928646000102,None,None,0,,674.8734259000048,None,674.8734259000048,None,674.8734259000048,None,,,,,,,,,,,P030,FENCOG,2,Pre,2022_Mar_11_1050,Go No-Go Task,2021.1.4,120.45798125428158,
,"Rule: When you see a yellow image, do not press 'spacebar'.",Images/Scram2/AF34NES.jpg,Scramble,Yellow,Images/Yellow.jpg,None,ParentConditions/YellowYellowBlue_v2.xlsx,YellowYellowBlue,Conditions/Version_2/YellowScramStop.xlsx,yes,PASS,0.36837427021744795,,,,,,,,,0,0,0,1,0,1,1,1,0,31,31,31,,,,,,,,,,,,,,,,,,,,,,,,,,,,,,,,,,,,,,,,,,,,,,,,,,,,,,,,,,,,,,,,,,,,,,,,,,,,,,,1.39,675.274329100037,None,None,1,,676.7648788000224,None,676.7648788000224,None,676.7648788000224,None,,,,,,,,,,,P030,FENCOG,2,Pre,2022_Mar_11_1050,Go No-Go Task,2021.1.4,120.45798125428158,
,"Rule: When you see a yellow image, do not press 'spacebar'.",Images/Scram1/AM02_NC.jpg,Scramble,Blue,Images/Blue.jpg,space,ParentConditions/YellowYellowBlue_v2.xlsx,YellowYellowBlue,Conditions/Version_2/YellowScramStop.xlsx,no,PASS,0.7004017432139685,,,,,,,,,0,0,0,1,0,1,1,1,0,32,32,32,,,,,,,,,,,,,,,,,,,,,,,,,,,,,,,,,,,,,,,,,,,,,,,,,,,,,,,,,,,,,,,,,,,,,,,,,,,,,,,1.26,677.1641731000273,None,None,0,,678.5309492000379,None,678.5309492000379,None,678.5309492000379,None,,,,,,,,,,,P030,FENCOG,2,Pre,2022_Mar_11_1050,Go No-Go Task,2021.1.4,120.45798125428158,
,"Rule: When you see a yellow image, do not press 'spacebar'.",Images/Scram2/AM13NES.jpg,Scramble,Yellow,Images/Yellow.jpg,None,ParentConditions/YellowYellowBlue_v2.xlsx,YellowYellowBlue,Conditions/Version_2/YellowScramStop.xlsx,yes,PASS,0.7037668434542473,,,,,,,,,0,0,0,1,0,1,1,1,0,33,33,33,,,,,,,,,,,,,,,,,,,,,,,,,,,,,,,,,,,,,,,,,,,,,,,,,,,,,,,,,,,,,,,,,,,,,,,,,,,,,,,1.83,678.933222600026,None,None,1,,680.8634524000809,None,680.8634524000809,None,680.8634524000809,None,,,,,,,,,,,P030,FENCOG,2,Pre,2022_Mar_11_1050,Go No-Go Task,2021.1.4,120.45798125428158,
,"Rule: When you see a yellow image, do not press 'spacebar'.",Images/Scram1/AM03_NC.jpg,Scramble,Blue,Images/Blue.jpg,space,ParentConditions/YellowYellowBlue_v2.xlsx,YellowYellowBlue,Conditions/Version_2/YellowScramStop.xlsx,no,PASS,0.13984736132192788,,,,,,,,,0,0,0,1,0,1,1,1,0,34,34,34,,,,,,,,,,,,,,,,,,,,,,,,,,,,,,,,,,,,,,,,,,,,,,,,,,,,,,,,,,,,,,,,,,,,,,,,,,,,,,,1.97,681.265250000055,None,space,1,0.31951530009973794,683.3379413000075,None,683.3379413000075,None,683.3379413000075,None,,,,,,,,,,,P030,FENCOG,2,Pre,2022_Mar_11_1050,Go No-Go Task,2021.1.4,120.45798125428158,
,"Rule: When you see a yellow image, do not press 'spacebar'.",Images/Scram1/AF33NES.jpg,Scramble,Blue,Images/Blue.jpg,space,ParentConditions/YellowYellowBlue_v2.xlsx,YellowYellowBlue,Conditions/Version_2/YellowScramStop.xlsx,no,PASS,0.7479968675198729,,,,,,,,,0,0,0,1,0,1,1,1,0,35,35,35,,,,,,,,,,,,,,,,,,,,,,,,,,,,,,,,,,,,,,,,,,,,,,,,,,,,,,,,,,,,,,,,,,,,,,,,,,,,,,,1.33,683.7376182000153,None,space,1,0.31090599996969104,685.1706274000462,None,685.1706274000462,None,685.1706274000462,None,,,,,,,,,,,P030,FENCOG,2,Pre,2022_Mar_11_1050,Go No-Go Task,2021.1.4,120.45798125428158,
,"Rule: When you see a yellow image, do not press 'spacebar'.",Images/Scram1/BF10_NC.jpg,Scramble,Blue,Images/Blue.jpg,space,ParentConditions/YellowYellowBlue_v2.xlsx,YellowYellowBlue,Conditions/Version_2/YellowScramStop.xlsx,no,PASS,0.5225639267337787,,,,,,,,,0,0,0,1,0,1,1,1,0,36,36,36,,,,,,,,,,,,,,,,,,,,,,,,,,,,,,,,,,,,,,,,,,,,,,,,,,,,,,,,,,,,,,,,,,,,,,,,,,,,,,,1.55,685.5708188000135,None,space,1,0.2769598999293521,687.2284363000654,None,687.2284363000654,None,687.2284363000654,None,,,,,,,,,,,P030,FENCOG,2,Pre,2022_Mar_11_1050,Go No-Go Task,2021.1.4,120.45798125428158,
,"Rule: When you see a yellow image, do not press 'spacebar'.",Images/Scram1/AF07_NC.jpg,Scramble,Blue,Images/Blue.jpg,space,ParentConditions/YellowYellowBlue_v2.xlsx,YellowYellowBlue,Conditions/Version_2/YellowScramStop.xlsx,no,PASS,0.5221002530466395,,,,,,,,,0,0,0,1,0,1,1,1,0,37,37,37,,,,,,,,,,,,,,,,,,,,,,,,,,,,,,,,,,,,,,,,,,,,,,,,,,,,,,,,,,,,,,,,,,,,,,,,,,,,,,,1.59,687.6290709000314,None,space,1,0.306111800018698,689.3192170000402,None,689.3192170000402,None,689.3192170000402,None,,,,,,,,,,,P030,FENCOG,2,Pre,2022_Mar_11_1050,Go No-Go Task,2021.1.4,120.45798125428158,
,"Rule: When you see a yellow image, do not press 'spacebar'.",Images/Scram2/AM23NES.jpg,Scramble,Yellow,Images/Yellow.jpg,None,ParentConditions/YellowYellowBlue_v2.xlsx,YellowYellowBlue,Conditions/Version_2/YellowScramStop.xlsx,yes,PASS,0.18195499113806335,,,,,,,,,0,0,0,1,0,1,1,1,0,38,38,38,,,,,,,,,,,,,,,,,,,,,,,,,,,,,,,,,,,,,,,,,,,,,,,,,,,,,,,,,,,,,,,,,,,,,,,,,,,,,,,1.27,689.7198647999903,None,None,1,,691.093918700004,None,691.093918700004,None,691.093918700004,None,,,,,,,,,,,P030,FENCOG,2,Pre,2022_Mar_11_1050,Go No-Go Task,2021.1.4,120.45798125428158,
,"Rule: When you see a yellow image, do not press 'spacebar'.",Images/Scram1/AF24NES.jpg,Scramble,Blue,Images/Blue.jpg,space,ParentConditions/YellowYellowBlue_v2.xlsx,YellowYellowBlue,Conditions/Version_2/YellowScramStop.xlsx,no,PASS,0.6640389388315467,,,,,,,,,0,0,0,1,0,1,1,1,0,39,39,39,,,,,,,,,,,,,,,,,,,,,,,,,,,,,,,,,,,,,,,,,,,,,,,,,,,,,,,,,,,,,,,,,,,,,,,,,,,,,,,1.89,691.4930010000244,None,space,1,0.2843784000724554,693.484859899967,None,693.484859899967,None,693.484859899967,None,,,,,,,,,,,P030,FENCOG,2,Pre,2022_Mar_11_1050,Go No-Go Task,2021.1.4,120.45798125428158,
,"Rule: When you see a yellow image, do not press 'spacebar'.",Images/Scram2/AF33NES.jpg,Scramble,Yellow,Images/Yellow.jpg,None,ParentConditions/YellowYellowBlue_v2.xlsx,YellowYellowBlue,Conditions/Version_2/YellowScramStop.xlsx,yes,PASS,0.6203826022283658,,,,,,,,,0,0,0,1,0,1,1,1,0,40,40,40,,,,,,,,,,,,,,,,,,,,,,,,,,,,,,,,,,,,,,,,,,,,,,,,,,,,,,,,,,,,,,,,,,,,,,,,,,,,,,,1.76,693.8847496000817,None,None,1,,695.7508953000652,None,695.7508953000652,None,695.7508953000652,None,,,,,,,,,,,P030,FENCOG,2,Pre,2022_Mar_11_1050,Go No-Go Task,2021.1.4,120.45798125428158,
,"Rule: When you see a yellow image, do not press 'spacebar'.",Images/Scram1/AF25NES.jpg,Scramble,Blue,Images/Blue.jpg,space,ParentConditions/YellowYellowBlue_v2.xlsx,YellowYellowBlue,Conditions/Version_2/YellowScramStop.xlsx,no,PASS,0.05141546475857928,,,,,,,,,0,0,0,1,0,1,1,1,0,41,41,41,,,,,,,,,,,,,,,,,,,,,,,,,,,,,,,,,,,,,,,,,,,,,,,,,,,,,,,,,,,,,,,,,,,,,,,,,,,,,,,1.49,696.1514648000011,None,space,1,0.2751854999223724,697.7419977000682,None,697.7419977000682,None,697.7419977000682,None,,,,,,,,,,,P030,FENCOG,2,Pre,2022_Mar_11_1050,Go No-Go Task,2021.1.4,120.45798125428158,
,"Rule: When you see a yellow image, do not press 'spacebar'.",Images/Scram2/AM10NES.jpg,Scramble,Yellow,Images/Yellow.jpg,None,ParentConditions/YellowYellowBlue_v2.xlsx,YellowYellowBlue,Conditions/Version_2/YellowScramStop.xlsx,yes,PASS,0.1267743006232639,,,,,,,,,0,0,0,1,0,1,1,1,0,42,42,42,,,,,,,,,,,,,,,,,,,,,,,,,,,,,,,,,,,,,,,,,,,,,,,,,,,,,,,,,,,,,,,,,,,,,,,,,,,,,,,1.98,698.1411079000682,None,None,1,,700.2245499000419,None,700.2245499000419,None,700.2245499000419,None,,,,,,,,,,,P030,FENCOG,2,Pre,2022_Mar_11_1050,Go No-Go Task,2021.1.4,120.45798125428158,
,"Rule: When you see a yellow image, do not press 'spacebar'.",Images/Scram2/BF10_NC.jpg,Scramble,Blue,Images/Blue.jpg,space,ParentConditions/YellowYellowBlue_v2.xlsx,YellowYellowBlue,Conditions/Version_2/YellowScramStop.xlsx,no,PASS,0.22016560502147287,,,,,,,,,0,0,0,1,0,1,1,1,0,43,43,43,,,,,,,,,,,,,,,,,,,,,,,,,,,,,,,,,,,,,,,,,,,,,,,,,,,,,,,,,,,,,,,,,,,,,,,,,,,,,,,1.65,700.6243897000095,None,space,1,0.24317629996221513,702.3822123999707,None,702.3822123999707,None,702.3822123999707,None,,,,,,,,,,,P030,FENCOG,2,Pre,2022_Mar_11_1050,Go No-Go Task,2021.1.4,120.45798125428158,
,"Rule: When you see a yellow image, do not press 'spacebar'.",Images/Scram1/BF18_NC.jpg,Scramble,Blue,Images/Blue.jpg,space,ParentConditions/YellowYellowBlue_v2.xlsx,YellowYellowBlue,Conditions/Version_2/YellowScramStop.xlsx,no,PASS,0.11487631985977975,,,,,,,,,0,0,0,1,0,1,1,1,0,44,44,44,,,,,,,,,,,,,,,,,,,,,,,,,,,,,,,,,,,,,,,,,,,,,,,,,,,,,,,,,,,,,,,,,,,,,,,,,,,,,,,1.85,702.7826296000276,None,space,1,0.26173989998642355,704.731486500008,None,704.731486500008,None,704.731486500008,None,,,,,,,,,,,P030,FENCOG,2,Pre,2022_Mar_11_1050,Go No-Go Task,2021.1.4,120.45798125428158,
,"Rule: When you see a yellow image, do not press 'spacebar'.",Images/Scram2/HF09_NC.jpg,Scramble,Blue,Images/Blue.jpg,space,ParentConditions/YellowYellowBlue_v2.xlsx,YellowYellowBlue,Conditions/Version_2/YellowScramStop.xlsx,no,PASS,0.20475492045840804,,,,,,,,,0,0,0,1,0,1,1,1,0,45,45,45,,,,,,,,,,,,,,,,,,,,,,,,,,,,,,,,,,,,,,,,,,,,,,,,,,,,,,,,,,,,,,,,,,,,,,,,,,,,,,,1.44,705.1316951999906,None,None,0,,706.672487600008,None,706.672487600008,None,706.672487600008,None,,,,,,,,,,,P030,FENCOG,2,Pre,2022_Mar_11_1050,Go No-Go Task,2021.1.4,120.45798125428158,
,"Rule: When you see a yellow image, do not press 'spacebar'.",Images/Scram1/BF05_NC.jpg,Scramble,Blue,Images/Blue.jpg,space,ParentConditions/YellowYellowBlue_v2.xlsx,YellowYellowBlue,Conditions/Version_2/YellowScramStop.xlsx,no,PASS,0.6685497116677461,,,,,,,,,0,0,0,1,0,1,1,1,0,46,46,46,,,,,,,,,,,,,,,,,,,,,,,,,,,,,,,,,,,,,,,,,,,,,,,,,,,,,,,,,,,,,,,,,,,,,,,,,,,,,,,1.93,707.0730905000819,None,space,1,0.3040095999604091,709.1052790000103,None,709.1052790000103,None,709.1052790000103,None,,,,,,,,,,,P030,FENCOG,2,Pre,2022_Mar_11_1050,Go No-Go Task,2021.1.4,120.45798125428158,
,"Rule: When you see a yellow image, do not press 'spacebar'.",Images/Scram1/AM17NES.jpg,Scramble,Blue,Images/Blue.jpg,space,ParentConditions/YellowYellowBlue_v2.xlsx,YellowYellowBlue,Conditions/Version_2/YellowScramStop.xlsx,no,PASS,0.5575549831069895,,,,,,,,,0,0,0,1,0,1,1,1,0,47,47,47,,,,,,,,,,,,,,,,,,,,,,,,,,,,,,,,,,,,,,,,,,,,,,,,,,,,,,,,,,,,,,,,,,,,,,,,,,,,,,,1.61,709.5055468999781,None,space,1,0.3160574999637902,711.2213143999688,None,711.2213143999688,None,711.2213143999688,None,,,,,,,,,,,P030,FENCOG,2,Pre,2022_Mar_11_1050,Go No-Go Task,2021.1.4,120.45798125428158,
,"Rule: When you see a yellow image, do not press 'spacebar'.",Images/Scram2/AM09_NC.jpg,Scramble,Yellow,Images/Yellow.jpg,None,ParentConditions/YellowYellowBlue_v2.xlsx,YellowYellowBlue,Conditions/Version_2/YellowScramStop.xlsx,yes,PASS,0.08490473937246712,,,,,,,,,0,0,0,1,0,1,1,1,0,48,48,48,,,,,,,,,,,,,,,,,,,,,,,,,,,,,,,,,,,,,,,,,,,,,,,,,,,,,,,,,,,,,,,,,,,,,,,,,,,,,,,1.62,711.6254015000304,None,None,1,,713.3456433999818,None,713.3456433999818,None,713.3456433999818,None,,,,,,,,,,,P030,FENCOG,2,Pre,2022_Mar_11_1050,Go No-Go Task,2021.1.4,120.45798125428158,
,"Rule: When you see a yellow image, do not press 'spacebar'.",Images/Scram2/AF09NES.jpg,Scramble,Blue,Images/Blue.jpg,space,ParentConditions/YellowYellowBlue_v2.xlsx,YellowYellowBlue,Conditions/Version_2/YellowScramStop.xlsx,no,PASS,0.8511922023884788,,,,,,,,,0,0,0,1,0,1,1,1,0,49,49,49,,,,,,,,,,,,,,,,,,,,,,,,,,,,,,,,,,,,,,,,,,,,,,,,,,,,,,,,,,,,,,,,,,,,,,,,,,,,,,,1.43,713.7460259000072,None,space,1,0.30693339998833835,715.2784778000787,None,715.2784778000787,None,715.2784778000787,None,,,,,,,,,,,P030,FENCOG,2,Pre,2022_Mar_11_1050,Go No-Go Task,2021.1.4,120.45798125428158,
,"Rule: When you see a yellow image, do not press 'spacebar'.",Images/Scram2/AM04_NC.jpg,Scramble,Yellow,Images/Yellow.jpg,None,ParentConditions/YellowYellowBlue_v2.xlsx,YellowYellowBlue,Conditions/Version_2/YellowScramStop.xlsx,yes,PASS,0.9711738915701108,,,,,,,,,0,0,0,1,0,1,1,1,0,50,50,50,,,,,,,,,,,,,,,,,,,,,,,,,,,,,,,,,,,,,,,,,,,,,,,,,,,,,,,,,,,,,,,,,,,,,,,,,,,,,,,1.82,715.6781979000662,None,None,1,,717.619189399993,None,717.619189399993,None,717.619189399993,None,,,,,,,,,,,P030,FENCOG,2,Pre,2022_Mar_11_1050,Go No-Go Task,2021.1.4,120.45798125428158,
,"Rule: When you see a yellow image, do not press 'spacebar'.",Images/Scram2/BF05_NC.jpg,Scramble,Yellow,Images/Yellow.jpg,None,ParentConditions/YellowYellowBlue_v2.xlsx,YellowYellowBlue,Conditions/Version_2/YellowScramStop.xlsx,yes,PASS,0.3684660889098009,,,,,,,,,0,0,0,1,0,1,1,1,0,51,51,51,,,,,,,,,,,,,,,,,,,,,,,,,,,,,,,,,,,,,,,,,,,,,,,,,,,,,,,,,,,,,,,,,,,,,,,,,,,,,,,1.29,718.0101440000581,None,None,1,,719.4022471000208,None,719.4022471000208,None,719.4022471000208,None,,,,,,,,,,,P030,FENCOG,2,Pre,2022_Mar_11_1050,Go No-Go Task,2021.1.4,120.45798125428158,
,"Rule: When you see a yellow image, do not press 'spacebar'.",Images/Scram1/HM06_NC.jpg,Scramble,Blue,Images/Blue.jpg,space,ParentConditions/YellowYellowBlue_v2.xlsx,YellowYellowBlue,Conditions/Version_2/YellowScramStop.xlsx,no,PASS,0.5754528995111275,,,,,,,,,0,0,0,1,0,1,1,1,0,52,52,52,,,,,,,,,,,,,,,,,,,,,,,,,,,,,,,,,,,,,,,,,,,,,,,,,,,,,,,,,,,,,,,,,,,,,,,,,,,,,,,1.69,719.802184500033,None,space,1,0.24003290000837296,721.5932748999912,None,721.5932748999912,None,721.5932748999912,None,,,,,,,,,,,P030,FENCOG,2,Pre,2022_Mar_11_1050,Go No-Go Task,2021.1.4,120.45798125428158,
,"Rule: When you see a yellow image, do not press 'spacebar'.",Images/Scram2/AF07NES.jpg,Scramble,Blue,Images/Blue.jpg,space,ParentConditions/YellowYellowBlue_v2.xlsx,YellowYellowBlue,Conditions/Version_2/YellowScramStop.xlsx,no,PASS,0.5077779466511061,,,,,,,,,0,0,0,1,0,1,1,1,0,53,53,53,,,,,,,,,,,,,,,,,,,,,,,,,,,,,,,,,,,,,,,,,,,,,,,,,,,,,,,,,,,,,,,,,,,,,,,,,,,,,,,1.56,721.9955759000732,None,space,1,0.32606430002488196,723.6592406000709,None,723.6592406000709,None,723.6592406000709,None,,,,,,,,,,,P030,FENCOG,2,Pre,2022_Mar_11_1050,Go No-Go Task,2021.1.4,120.45798125428158,
,"Rule: When you see a yellow image, do not press 'spacebar'.",Images/Scram1/BM01_NC.jpg,Scramble,Blue,Images/Blue.jpg,space,ParentConditions/YellowYellowBlue_v2.xlsx,YellowYellowBlue,Conditions/Version_2/YellowScramStop.xlsx,no,PASS,0.6162286290631079,,,,,,,,,0,0,0,1,0,1,1,1,0,54,54,54,,,,,,,,,,,,,,,,,,,,,,,,,,,,,,,,,,,,,,,,,,,,,,,,,,,,,,,,,,,,,,,,,,,,,,,,,,,,,,,1.25,724.0594792000484,None,space,1,0.29632179997861385,725.4169416000368,None,725.4169416000368,None,725.4169416000368,None,,,,,,,,,,,P030,FENCOG,2,Pre,2022_Mar_11_1050,Go No-Go Task,2021.1.4,120.45798125428158,
,"Rule: When you see a yellow image, do not press 'spacebar'.",Images/Scram2/AF07_NC.jpg,Scramble,Blue,Images/Blue.jpg,space,ParentConditions/YellowYellowBlue_v2.xlsx,YellowYellowBlue,Conditions/Version_2/YellowScramStop.xlsx,no,PASS,0.1394775454550986,,,,,,,,,0,0,0,1,0,1,1,1,0,55,55,55,,,,,,,,,,,,,,,,,,,,,,,,,,,,,,,,,,,,,,,,,,,,,,,,,,,,,,,,,,,,,,,,,,,,,,,,,,,,,,,1.21,725.8177250999724,None,space,1,0.30787579994648695,727.1333495000144,None,727.1333495000144,None,727.1333495000144,None,,,,,,,,,,,P030,FENCOG,2,Pre,2022_Mar_11_1050,Go No-Go Task,2021.1.4,120.45798125428158,
