CondFileP,Instructions,FaceE,Express,ColourT,ColourF,CorrectAnsP,MasterCondFile,BlockOrder,CondFile,ColCheck,Triplicate_check,SORT_BY_SMALLEST,EPracticeOuterLoop.thisRepN,EPracticeOuterLoop.thisTrialN,EPracticeOuterLoop.thisN,EPracticeOuterLoop.thisIndex,EPracticeInnerLoop.thisRepN,EPracticeInnerLoop.thisTrialN,EPracticeInnerLoop.thisN,EPracticeInnerLoop.thisIndex,MasterLoop.thisRepN,MasterLoop.thisTrialN,MasterLoop.thisN,MasterLoop.thisIndex,OuterLoop.thisRepN,OuterLoop.thisTrialN,OuterLoop.thisN,OuterLoop.thisIndex,InnerLoop.thisRepN,InnerLoop.thisTrialN,InnerLoop.thisN,InnerLoop.thisIndex,text_13.started,text_13.stopped,key_resp_10.keys,key_resp_10.rt,key_resp_10.started,key_resp_10.stopped,text4.started,text4.stopped,EmotionTaskInstructions1.keys,EmotionTaskInstructions1.rt,EmotionTaskInstructions1.started,EmotionTaskInstructions1.stopped,text_4.started,text_4.stopped,key_resp_5.keys,key_resp_5.rt,key_resp_5.started,key_resp_5.stopped,Text_14.started,Text_14.stopped,key_resp_9.keys,key_resp_9.rt,key_resp_9.started,key_resp_9.stopped,text_5.started,text_5.stopped,text_6.started,text_6.stopped,key_resp_7.keys,key_resp_7.rt,key_resp_7.started,key_resp_7.stopped,text_10.started,text_10.stopped,text_11.started,text_11.stopped,text_12.started,text_12.stopped,ISIjitterPractice,EPracticeISIMarker.started,EPracticeISIMarker.stopped,Pract.keys,Pract.corr,Pract.started,Pract.stopped,PracticeFace.started,PracticeFace.stopped,ColourPractice.started,ColourPractice.stopped,text_7.started,text_7.stopped,Pract.rt,EndOfPractice.started,EndOfPractice.stopped,key_resp_8.keys,key_resp_8.rt,key_resp_8.started,key_resp_8.stopped,text_8.started,text_8.stopped,key_resp_6.keys,key_resp_6.rt,key_resp_6.started,key_resp_6.stopped,text_2.started,text_2.stopped,text_3.started,text_3.stopped,key_resp_3.keys,key_resp_3.rt,key_resp_3.started,key_resp_3.stopped,TaskBlock.started,TaskBlock.stopped,BlockNo1.started,BlockNo1.stopped,OfBlock.started,OfBlock.stopped,ISIjitter,ISImarker.started,ISImarker.stopped,key_resp.keys,key_resp.corr,key_resp.rt,key_resp.started,key_resp.stopped,FaceSet.started,FaceSet.stopped,Colour.started,Colour.stopped,EndBlockText.started,EndBlockText.stopped,key_resp_4.keys,key_resp_4.rt,key_resp_4.started,key_resp_4.stopped,BreakText2.started,BreakText2.stopped,PressToContinue.started,PressToContinue.stopped,participant,Study Name,Task Version (required to run),PRE/POST,date,expName,psychopyVersion,frameRate,
,,,,,,,,,,,,,,,,,,,,,,,,,,,,,,,,,21.401826500019524,None,space,108.56664500001352,22.389258600014728,None,,,,,,,,,,,,,,,,,,,,,,,,,,,,,,,,,,,,,,,,,,,,,,,,,,,,,,,,,,,,,,,,,,,,,,,,,,,,,,,,,,,,,,,,,,,,,,,P031,FENCOG,2,Pre,2022_Mar_22_1049,Go No-Go Task,2021.1.4,120.13916923838183,
,,,,,,,,,,,,,,,,,,,,,,,,,,,,,,,,,,,,,,,132.45915680000326,None,space,8.79268160002539,132.45915680000326,None,,,,,,,,,,,,,,,,,,,,,,,,,,,,,,,,,,,,,,,,,,,,,,,,,,,,,,,,,,,,,,,,,,,,,,,,,,,,,,,,,,,,,,,,,P031,FENCOG,2,Pre,2022_Mar_22_1049,Go No-Go Task,2021.1.4,120.13916923838183,
,,,,,,,,,,,,,,,,,,,,,,,,,,,,,,,,,,,,,,,,,,,,,141.3125062000472,None,space,7.699657300021499,141.3125062000472,None,,,,,,,,,,,,,,,,,,,,,,,,,,,,,,,,,,,,,,,,,,,,,,,,,,,,,,,,,,,,,,,,,,,,,,,,,,,,,,,,,,,P031,FENCOG,2,Pre,2022_Mar_22_1049,Go No-Go Task,2021.1.4,120.13916923838183,
,,,,,,,,,,,,,,,,,,,,,,,,,,,,,,,,,,,,,,,,,,,,,,,,,,,149.02803360001417,None,space,6.352182200003881,149.02803360001417,None,,,,,,,,,,,,,,,,,,,,,,,,,,,,,,,,,,,,,,,,,,,,,,,,,,,,,,,,,,,,,,,,,,,,,,,,,,,,,P031,FENCOG,2,Pre,2022_Mar_22_1049,Go No-Go Task,2021.1.4,120.13916923838183,
EPracticeConditions/BlueEyes.csv,"Rule: When you see a blue image, do not press 'spacebar'.",Images/Happy/HF10_HE.jpg,Happy,Yellow,Images/Yellow.jpg,space,,,,,,,0,0,0,0,0,0,0,7,,,,,,,,,,,,,,,,,,,,,,,,,,,,,,,,,,,,,155.4699539000285,None,158.45723990001716,None,space,3.4026752000208944,158.45723990001716,None,155.4699539000285,None,155.4699539000285,None,155.4699539000285,None,1.2,162.0739867000375,None,None,0,163.4323511000257,None,163.4323511000257,None,163.4323511000257,None,164.98745140002575,None,,,,,,,,,,,,,,,,,,,,,,,,,,,,,,,,,,,,,,,,,,,,,,,,,,P031,FENCOG,2,Pre,2022_Mar_22_1049,Go No-Go Task,2021.1.4,120.13916923838183,
EPracticeConditions/BlueEyes.csv,"Rule: When you see a blue image, do not press 'spacebar'.",Images/Happy/BM08_HO.jpg,Happy,Yellow,Images/Yellow.jpg,space,,,,,,,0,0,0,0,0,1,1,3,,,,,,,,,,,,,,,,,,,,,,,,,,,,,,,,,,,,,,,,,,,,,,,,,,,1.3,166.3175511000445,None,space,1,167.7217872000183,None,167.7217872000183,None,167.7217872000183,None,168.6266816999996,None,0.32204539998201653,,,,,,,,,,,,,,,,,,,,,,,,,,,,,,,,,,,,,,,,,,,,,,,,,P031,FENCOG,2,Pre,2022_Mar_22_1049,Go No-Go Task,2021.1.4,120.13916923838183,
EPracticeConditions/BlueEyes.csv,"Rule: When you see a blue image, do not press 'spacebar'.",Images/Happy/HF05_HO.jpg,Happy,Yellow,Images/Yellow.jpg,space,,,,,,,0,0,0,0,0,2,2,5,,,,,,,,,,,,,,,,,,,,,,,,,,,,,,,,,,,,,,,,,,,,,,,,,,,1.8,170.62834930000827,None,None,0,172.5286646000459,None,172.5286646000459,None,172.5286646000459,None,173.43085730000166,None,,,,,,,,,,,,,,,,,,,,,,,,,,,,,,,,,,,,,,,,,,,,,,,,,,P031,FENCOG,2,Pre,2022_Mar_22_1049,Go No-Go Task,2021.1.4,120.13916923838183,
EPracticeConditions/BlueEyes.csv,"Rule: When you see a blue image, do not press 'spacebar'.",Images/Fearful/HM09_FC.jpg,Fear,Blue,Images/Blue.jpg,None,,,,,,,0,0,0,0,0,3,3,0,,,,,,,,,,,,,,,,,,,,,,,,,,,,,,,,,,,,,,,,,,,,,,,,,,,1.9,175.43530530005228,None,space,0,177.44385500001954,None,177.44385500001954,None,177.44385500001954,None,178.34273050003685,None,0.23211460001766682,,,,,,,,,,,,,,,,,,,,,,,,,,,,,,,,,,,,,,,,,,,,,,,,,P031,FENCOG,2,Pre,2022_Mar_22_1049,Go No-Go Task,2021.1.4,120.13916923838183,
EPracticeConditions/BlueEyes.csv,"Rule: When you see a blue image, do not press 'spacebar'.",Images/Happy/BM02_HO.jpg,Happy,Yellow,Images/Yellow.jpg,space,,,,,,,0,0,0,0,0,4,4,2,,,,,,,,,,,,,,,,,,,,,,,,,,,,,,,,,,,,,,,,,,,,,,,,,,,1.6,180.34218510001665,None,space,1,182.05083960003685,None,182.05083960003685,None,182.05083960003685,None,182.94967340002768,None,0.3291680000256747,,,,,,,,,,,,,,,,,,,,,,,,,,,,,,,,,,,,,,,,,,,,,,,,,P031,FENCOG,2,Pre,2022_Mar_22_1049,Go No-Go Task,2021.1.4,120.13916923838183,
EPracticeConditions/BlueEyes.csv,"Rule: When you see a blue image, do not press 'spacebar'.",Images/Fearful/AF01_FO.jpg,Fear,Blue,Images/Blue.jpg,None,,,,,,,0,0,0,0,0,5,5,1,,,,,,,,,,,,,,,,,,,,,,,,,,,,,,,,,,,,,,,,,,,,,,,,,,,1.4,184.9491316000349,None,None,1,186.44960360002005,None,186.44960360002005,None,186.44960360002005,None,187.33965320000425,None,,,,,,,,,,,,,,,,,,,,,,,,,,,,,,,,,,,,,,,,,,,,,,,,,,P031,FENCOG,2,Pre,2022_Mar_22_1049,Go No-Go Task,2021.1.4,120.13916923838183,
EPracticeConditions/BlueEyes.csv,"Rule: When you see a blue image, do not press 'spacebar'.",Images/Happy/HF04_HE.jpg,Happy,Yellow,Images/Yellow.jpg,space,,,,,,,0,0,0,0,0,6,6,4,,,,,,,,,,,,,,,,,,,,,,,,,,,,,,,,,,,,,,,,,,,,,,,,,,,1.5,189.33933530002832,None,space,1,190.93997260002652,None,190.93997260002652,None,190.93997260002652,None,191.83556999999564,None,0.24802090000594035,,,,,,,,,,,,,,,,,,,,,,,,,,,,,,,,,,,,,,,,,,,,,,,,,P031,FENCOG,2,Pre,2022_Mar_22_1049,Go No-Go Task,2021.1.4,120.13916923838183,
EPracticeConditions/BlueEyes.csv,"Rule: When you see a blue image, do not press 'spacebar'.",Images/Happy/HF09_HE.jpg,Happy,Yellow,Images/Yellow.jpg,space,,,,,,,0,0,0,0,0,7,7,6,,,,,,,,,,,,,,,,,,,,,,,,,,,,,,,,,,,,,,,,,,,,,,,,,,,1.7,193.83856510004262,None,space,1,195.6383979000384,None,195.6383979000384,None,195.6383979000384,None,196.5307468000101,None,0.3257599000353366,,,,,,,,,,,,,,,,,,,,,,,,,,,,,,,,,,,,,,,,,,,,,,,,,P031,FENCOG,2,Pre,2022_Mar_22_1049,Go No-Go Task,2021.1.4,120.13916923838183,
EPracticeConditions/BlueEyes.csv,"Rule: When you see a blue image, do not press 'spacebar'.",,,,,,,,,,,,0,0,0,0,,,,,,,,,,,,,,,,,,,,,,,,,,,,,,,,,,,,,,,,,,,,,,,,,,,,,,,,,,,,,,,,,,,,,,,,,,,,,,,,,,,,,,,,,,,,,,,,,,,,,,,,,,,,,,,,,,,,,P031,FENCOG,2,Pre,2022_Mar_22_1049,Go No-Go Task,2021.1.4,120.13916923838183,
EPracticeConditions/YellowEyes.csv,"Rule: When you see a yellow image, do not press 'spacebar'.",Images/Fearful/AM23AFS.jpg,Fear,Blue,Images/Blue.jpg,space,,,,,,,0,1,1,1,0,0,0,6,,,,,,,,,,,,,,,,,,,,,,,,,,,,,,,,,,,,,198.5568603000138,None,201.54432650003582,None,space,2.4915057999896817,201.54432650003582,None,198.5568603000138,None,198.5568603000138,None,198.5568603000138,None,1.3,204.05541670002276,None,space,1,205.46063950000098,None,205.46063950000098,None,205.46063950000098,None,206.3571867000428,None,0.2952153999940492,,,,,,,,,,,,,,,,,,,,,,,,,,,,,,,,,,,,,,,,,,,,,,,,,P031,FENCOG,2,Pre,2022_Mar_22_1049,Go No-Go Task,2021.1.4,120.13916923838183,
EPracticeConditions/YellowEyes.csv,"Rule: When you see a yellow image, do not press 'spacebar'.",Images/Fearful/AM17AFS.jpg,Fear,Blue,Images/Blue.jpg,space,,,,,,,0,1,1,1,0,1,1,3,,,,,,,,,,,,,,,,,,,,,,,,,,,,,,,,,,,,,,,,,,,,,,,,,,,1.4,208.3587325999979,None,space,1,209.85926210001344,None,209.85926210001344,None,209.85926210001344,None,210.75533640000504,None,0.3288996000192128,,,,,,,,,,,,,,,,,,,,,,,,,,,,,,,,,,,,,,,,,,,,,,,,,P031,FENCOG,2,Pre,2022_Mar_22_1049,Go No-Go Task,2021.1.4,120.13916923838183,
EPracticeConditions/YellowEyes.csv,"Rule: When you see a yellow image, do not press 'spacebar'.",Images/Fearful/AM16AFS.jpg,Fear,Blue,Images/Blue.jpg,space,,,,,,,0,1,1,1,0,2,2,2,,,,,,,,,,,,,,,,,,,,,,,,,,,,,,,,,,,,,,,,,,,,,,,,,,,1.2,212.75742820004234,None,space,1,214.058057700051,None,214.058057700051,None,214.058057700051,None,214.96372870000778,None,0.31404990004375577,,,,,,,,,,,,,,,,,,,,,,,,,,,,,,,,,,,,,,,,,,,,,,,,,P031,FENCOG,2,Pre,2022_Mar_22_1049,Go No-Go Task,2021.1.4,120.13916923838183,
EPracticeConditions/YellowEyes.csv,"Rule: When you see a yellow image, do not press 'spacebar'.",Images/Fearful/AM19AFS.jpg,Fear,Blue,Images/Blue.jpg,space,,,,,,,0,1,1,1,0,3,3,4,,,,,,,,,,,,,,,,,,,,,,,,,,,,,,,,,,,,,,,,,,,,,,,,,,,1.8,216.96697870001663,None,space,1,218.87323090003338,None,218.87323090003338,None,218.87323090003338,None,219.76396880001994,None,0.2827348999562673,,,,,,,,,,,,,,,,,,,,,,,,,,,,,,,,,,,,,,,,,,,,,,,,,P031,FENCOG,2,Pre,2022_Mar_22_1049,Go No-Go Task,2021.1.4,120.13916923838183,
EPracticeConditions/YellowEyes.csv,"Rule: When you see a yellow image, do not press 'spacebar'.",Images/Fearful/AM22AFS.jpg,Fear,Blue,Images/Blue.jpg,space,,,,,,,0,1,1,1,0,4,4,5,,,,,,,,,,,,,,,,,,,,,,,,,,,,,,,,,,,,,,,,,,,,,,,,,,,1.9,221.764352600032,None,space,1,223.7718417000142,None,223.7718417000142,None,223.7718417000142,None,224.67449830000987,None,0.2882425999850966,,,,,,,,,,,,,,,,,,,,,,,,,,,,,,,,,,,,,,,,,,,,,,,,,P031,FENCOG,2,Pre,2022_Mar_22_1049,Go No-Go Task,2021.1.4,120.13916923838183,
EPracticeConditions/YellowEyes.csv,"Rule: When you see a yellow image, do not press 'spacebar'.",Images/Happy/BF05_HO.jpg,Happy,Yellow,Images/Yellow.jpg,None,,,,,,,0,1,1,1,0,5,5,1,,,,,,,,,,,,,,,,,,,,,,,,,,,,,,,,,,,,,,,,,,,,,,,,,,,1.6,226.67840160004562,None,None,1,228.37874210003065,None,228.37874210003065,None,228.37874210003065,None,229.27411320002284,None,,,,,,,,,,,,,,,,,,,,,,,,,,,,,,,,,,,,,,,,,,,,,,,,,,P031,FENCOG,2,Pre,2022_Mar_22_1049,Go No-Go Task,2021.1.4,120.13916923838183,
EPracticeConditions/YellowEyes.csv,"Rule: When you see a yellow image, do not press 'spacebar'.",Images/Fearful/AM24AFS.jpg,Fear,Blue,Images/Blue.jpg,space,,,,,,,0,1,1,1,0,6,6,7,,,,,,,,,,,,,,,,,,,,,,,,,,,,,,,,,,,,,,,,,,,,,,,,,,,1.7,231.27732660004403,None,space,1,233.0773548000143,None,233.0773548000143,None,233.0773548000143,None,233.96781920001376,None,0.334597599983681,,,,,,,,,,,,,,,,,,,,,,,,,,,,,,,,,,,,,,,,,,,,,,,,,P031,FENCOG,2,Pre,2022_Mar_22_1049,Go No-Go Task,2021.1.4,120.13916923838183,
EPracticeConditions/YellowEyes.csv,"Rule: When you see a yellow image, do not press 'spacebar'.",Images/Happy/AM32HAS.jpg,Happy,Yellow,Images/Yellow.jpg,None,,,,,,,0,1,1,1,0,7,7,0,,,,,,,,,,,,,,,,,,,,,,,,,,,,,,,,,,,,,,,,,,,,,,,,,,,1.5,235.97160540003097,None,None,1,237.57602170004975,None,237.57602170004975,None,237.57602170004975,None,238.48063130001538,None,,,,,,,,,,,,,,,,,,,,,,,,,,,,,,,,,,,,,,,,,,,,,,,,,,P031,FENCOG,2,Pre,2022_Mar_22_1049,Go No-Go Task,2021.1.4,120.13916923838183,
EPracticeConditions/YellowEyes.csv,"Rule: When you see a yellow image, do not press 'spacebar'.",,,,,,,,,,,,0,1,1,1,,,,,,,,,,,,,,,,,,,,,,,,,,,,,,,,,,,,,,,,,,,,,,,,,,,,,,,,,,,,,,,,,,,,,,,,,,,,,,,,,,,,,,,,,,,,,,,,,,,,,,,,,,,,,,,,,,,,,P031,FENCOG,2,Pre,2022_Mar_22_1049,Go No-Go Task,2021.1.4,120.13916923838183,
EPracticeConditions/BlueScram.csv,"Rule: When you see a blue image, do not press 'spacebar'.",Images/Scram2/AM03_NC.jpg,Scramble,Yellow,Images/Yellow.jpg,space,,,,,,,0,2,2,2,0,0,0,6,,,,,,,,,,,,,,,,,,,,,,,,,,,,,,,,,,,,,240.49477109999862,None,243.4820888999966,None,space,1.9858956999960355,243.4820888999966,None,240.49477109999862,None,240.49477109999862,None,240.49477109999862,None,1.6,245.48306410002988,None,space,1,247.18992990005063,None,247.18992990005063,None,247.18992990005063,None,248.08832850004546,None,0.38221700000576675,,,,,,,,,,,,,,,,,,,,,,,,,,,,,,,,,,,,,,,,,,,,,,,,,P031,FENCOG,2,Pre,2022_Mar_22_1049,Go No-Go Task,2021.1.4,120.13916923838183,
EPracticeConditions/BlueScram.csv,"Rule: When you see a blue image, do not press 'spacebar'.",Images/Scram2/AF25NES.jpg,Scramble,Yellow,Images/Yellow.jpg,space,,,,,,,0,2,2,2,0,1,1,7,,,,,,,,,,,,,,,,,,,,,,,,,,,,,,,,,,,,,,,,,,,,,,,,,,,1.7,250.08941110002343,None,space,1,251.89679359999718,None,251.89679359999718,None,251.89679359999718,None,252.78734050004277,None,0.27508400002261624,,,,,,,,,,,,,,,,,,,,,,,,,,,,,,,,,,,,,,,,,,,,,,,,,P031,FENCOG,2,Pre,2022_Mar_22_1049,Go No-Go Task,2021.1.4,120.13916923838183,
EPracticeConditions/BlueScram.csv,"Rule: When you see a blue image, do not press 'spacebar'.",Images/Scram1/BM08_NC.jpg,Scramble,Blue,Images/Blue.jpg,None,,,,,,,0,2,2,2,0,2,2,0,,,,,,,,,,,,,,,,,,,,,,,,,,,,,,,,,,,,,,,,,,,,,,,,,,,1.2,254.78753610001877,None,None,1,256.09538400004385,None,256.09538400004385,None,256.09538400004385,None,257.0000605999958,None,,,,,,,,,,,,,,,,,,,,,,,,,,,,,,,,,,,,,,,,,,,,,,,,,,P031,FENCOG,2,Pre,2022_Mar_22_1049,Go No-Go Task,2021.1.4,120.13916923838183,
EPracticeConditions/BlueScram.csv,"Rule: When you see a blue image, do not press 'spacebar'.",Images/Scram1/BF18_NC.jpg,Scramble,Blue,Images/Blue.jpg,None,,,,,,,0,2,2,2,0,3,3,1,,,,,,,,,,,,,,,,,,,,,,,,,,,,,,,,,,,,,,,,,,,,,,,,,,,1.3,259.0021221000352,None,None,1,260.4026403000462,None,260.4026403000462,None,260.4026403000462,None,261.29271510004764,None,,,,,,,,,,,,,,,,,,,,,,,,,,,,,,,,,,,,,,,,,,,,,,,,,,P031,FENCOG,2,Pre,2022_Mar_22_1049,Go No-Go Task,2021.1.4,120.13916923838183,
EPracticeConditions/BlueScram.csv,"Rule: When you see a blue image, do not press 'spacebar'.",Images/Scram2/AF10_NC.jpg,Scramble,Yellow,Images/Yellow.jpg,space,,,,,,,0,2,2,2,0,4,4,2,,,,,,,,,,,,,,,,,,,,,,,,,,,,,,,,,,,,,,,,,,,,,,,,,,,1.9,263.29235470003914,None,space,1,265.3011210000259,None,265.3011210000259,None,265.3011210000259,None,266.1972478000098,None,0.2870400000247173,,,,,,,,,,,,,,,,,,,,,,,,,,,,,,,,,,,,,,,,,,,,,,,,,P031,FENCOG,2,Pre,2022_Mar_22_1049,Go No-Go Task,2021.1.4,120.13916923838183,
EPracticeConditions/BlueScram.csv,"Rule: When you see a blue image, do not press 'spacebar'.",Images/Scram1/AM04_NC.jpg,Scramble,Yellow,Images/Yellow.jpg,space,,,,,,,0,2,2,2,0,5,5,3,,,,,,,,,,,,,,,,,,,,,,,,,,,,,,,,,,,,,,,,,,,,,,,,,,,1.5,268.19914880004944,None,space,1,269.7997694000369,None,269.7997694000369,None,269.7997694000369,None,270.693475600041,None,0.29200780001701787,,,,,,,,,,,,,,,,,,,,,,,,,,,,,,,,,,,,,,,,,,,,,,,,,P031,FENCOG,2,Pre,2022_Mar_22_1049,Go No-Go Task,2021.1.4,120.13916923838183,
EPracticeConditions/BlueScram.csv,"Rule: When you see a blue image, do not press 'spacebar'.",Images/Scram1/AM13NES.jpg,Scramble,Yellow,Images/Yellow.jpg,space,,,,,,,0,2,2,2,0,6,6,5,,,,,,,,,,,,,,,,,,,,,,,,,,,,,,,,,,,,,,,,,,,,,,,,,,,1.4,272.70304849999957,None,space,1,274.2068625999964,None,274.2068625999964,None,274.2068625999964,None,275.0994828999974,None,0.38884530001087114,,,,,,,,,,,,,,,,,,,,,,,,,,,,,,,,,,,,,,,,,,,,,,,,,P031,FENCOG,2,Pre,2022_Mar_22_1049,Go No-Go Task,2021.1.4,120.13916923838183,
EPracticeConditions/BlueScram.csv,"Rule: When you see a blue image, do not press 'spacebar'.",Images/Scram1/AM03NES.jpg,Scramble,Yellow,Images/Yellow.jpg,space,,,,,,,0,2,2,2,0,7,7,4,,,,,,,,,,,,,,,,,,,,,,,,,,,,,,,,,,,,,,,,,,,,,,,,,,,1.8,277.10578710003756,None,space,1,279.0137722000363,None,279.0137722000363,None,279.0137722000363,None,279.91823170002317,None,0.2621481000096537,,,,,,,,,,,,,,,,,,,,,,,,,,,,,,,,,,,,,,,,,,,,,,,,,P031,FENCOG,2,Pre,2022_Mar_22_1049,Go No-Go Task,2021.1.4,120.13916923838183,
EPracticeConditions/BlueScram.csv,"Rule: When you see a blue image, do not press 'spacebar'.",,,,,,,,,,,,0,2,2,2,,,,,,,,,,,,,,,,,,,,,,,,,,,,,,,,,,,,,,,,,,,,,,,,,,,,,,,,,,,,,,,,,,,,,,,,,,,,,,,,,,,,,,,,,,,,,,,,,,,,,,,,,,,,,,,,,,,,,P031,FENCOG,2,Pre,2022_Mar_22_1049,Go No-Go Task,2021.1.4,120.13916923838183,
EPracticeConditions/YellowScram.csv,"Rule: When you see a yellow image, do not press 'spacebar'.",Images/Scram1/AF30NES.JPG,Scramble,Blue,Images/Blue.jpg,space,,,,,,,0,3,3,3,0,0,0,4,,,,,,,,,,,,,,,,,,,,,,,,,,,,,,,,,,,,,281.93102730001556,None,284.9197340999963,None,space,0.13989700004458427,284.9197340999963,None,281.93102730001556,None,281.93102730001556,None,281.93102730001556,None,1.9,285.0784468000056,None,space,1,287.086431200034,None,287.086431200034,None,287.086431200034,None,287.9773402000428,None,0.30944759998237714,,,,,,,,,,,,,,,,,,,,,,,,,,,,,,,,,,,,,,,,,,,,,,,,,P031,FENCOG,2,Pre,2022_Mar_22_1049,Go No-Go Task,2021.1.4,120.13916923838183,
EPracticeConditions/YellowScram.csv,"Rule: When you see a yellow image, do not press 'spacebar'.",Images/Scram1/AF07NES.jpg,Scramble,Blue,Images/Blue.jpg,space,,,,,,,0,3,3,3,0,1,1,3,,,,,,,,,,,,,,,,,,,,,,,,,,,,,,,,,,,,,,,,,,,,,,,,,,,1.7,289.98748170002364,None,space,1,291.79334020003444,None,291.79334020003444,None,291.79334020003444,None,292.68815890001133,None,0.3144484999938868,,,,,,,,,,,,,,,,,,,,,,,,,,,,,,,,,,,,,,,,,,,,,,,,,P031,FENCOG,2,Pre,2022_Mar_22_1049,Go No-Go Task,2021.1.4,120.13916923838183,
EPracticeConditions/YellowScram.csv,"Rule: When you see a yellow image, do not press 'spacebar'.",Images/Scram2/AM03NES.jpg,Scramble,Yellow,Images/Yellow.jpg,None,,,,,,,0,3,3,3,0,2,2,1,,,,,,,,,,,,,,,,,,,,,,,,,,,,,,,,,,,,,,,,,,,,,,,,,,,1.4,294.69175570004154,None,None,1,296.19208420004,None,296.19208420004,None,296.19208420004,None,297.0944333000225,None,,,,,,,,,,,,,,,,,,,,,,,,,,,,,,,,,,,,,,,,,,,,,,,,,,P031,FENCOG,2,Pre,2022_Mar_22_1049,Go No-Go Task,2021.1.4,120.13916923838183,
EPracticeConditions/YellowScram.csv,"Rule: When you see a yellow image, do not press 'spacebar'.",Images/Scram2/HM06_NC.jpg,Scramble,Yellow,Images/Yellow.jpg,None,,,,,,,0,3,3,3,0,3,3,0,,,,,,,,,,,,,,,,,,,,,,,,,,,,,,,,,,,,,,,,,,,,,,,,,,,1.8,299.0985669000074,None,None,1,300.9988771000062,None,300.9988771000062,None,300.9988771000062,None,301.88917150005,None,,,,,,,,,,,,,,,,,,,,,,,,,,,,,,,,,,,,,,,,,,,,,,,,,,P031,FENCOG,2,Pre,2022_Mar_22_1049,Go No-Go Task,2021.1.4,120.13916923838183,
EPracticeConditions/YellowScram.csv,"Rule: When you see a yellow image, do not press 'spacebar'.",Images/Scram1/AF24NES.jpg,Scramble,Blue,Images/Blue.jpg,space,,,,,,,0,3,3,3,0,4,4,7,,,,,,,,,,,,,,,,,,,,,,,,,,,,,,,,,,,,,,,,,,,,,,,,,,,1.2,303.8910861000186,None,space,1,305.19762120000087,None,305.19762120000087,None,305.19762120000087,None,306.09299750003265,None,0.3021903000189923,,,,,,,,,,,,,,,,,,,,,,,,,,,,,,,,,,,,,,,,,,,,,,,,,P031,FENCOG,2,Pre,2022_Mar_22_1049,Go No-Go Task,2021.1.4,120.13916923838183,
EPracticeConditions/YellowScram.csv,"Rule: When you see a yellow image, do not press 'spacebar'.",Images/Scram1/BM01_NC.jpg,Scramble,Blue,Images/Blue.jpg,space,,,,,,,0,3,3,3,0,5,5,5,,,,,,,,,,,,,,,,,,,,,,,,,,,,,,,,,,,,,,,,,,,,,,,,,,,1.6,308.09629600000335,None,space,1,309.79630800004816,None,309.79630800004816,None,309.79630800004816,None,310.68714340002043,None,0.32751510001253337,,,,,,,,,,,,,,,,,,,,,,,,,,,,,,,,,,,,,,,,,,,,,,,,,P031,FENCOG,2,Pre,2022_Mar_22_1049,Go No-Go Task,2021.1.4,120.13916923838183,
EPracticeConditions/YellowScram.csv,"Rule: When you see a yellow image, do not press 'spacebar'.",Images/Scram1/AF10_NC.jpg,Scramble,Blue,Images/Blue.jpg,space,,,,,,,0,3,3,3,0,6,6,6,,,,,,,,,,,,,,,,,,,,,,,,,,,,,,,,,,,,,,,,,,,,,,,,,,,1.5,312.6864284000476,None,space,1,314.28651679999894,None,314.28651679999894,None,314.28651679999894,None,315.1800407000119,None,0.37314539996441454,,,,,,,,,,,,,,,,,,,,,,,,,,,,,,,,,,,,,,,,,,,,,,,,,P031,FENCOG,2,Pre,2022_Mar_22_1049,Go No-Go Task,2021.1.4,120.13916923838183,
EPracticeConditions/YellowScram.csv,"Rule: When you see a yellow image, do not press 'spacebar'.",Images/Scram1/HF04_NC.jpg,Scramble,Blue,Images/Blue.jpg,space,,,,,,,0,3,3,3,0,7,7,2,,,,,,,,,,,,,,,,,,,,,,,,,,,,,,,,,,,,,,,,,,,,,,,,,,,1.3,317.1848705000011,None,space,1,318.5853965000133,None,318.5853965000133,None,318.5853965000133,None,319.4804839999997,None,0.3625495000160299,,,,,,,,,,,,,,,,,,,,,,,,,,,,,,,,,,,,,,,,,,,,,,,,,P031,FENCOG,2,Pre,2022_Mar_22_1049,Go No-Go Task,2021.1.4,120.13916923838183,
EPracticeConditions/YellowScram.csv,"Rule: When you see a yellow image, do not press 'spacebar'.",,,,,,,,,,,,0,3,3,3,,,,,,,,,,,,,,,,,,,,,,,,,,,,,,,,,,,,,,,,,,,,,,,,,,,,,,,,,,,,,,,,,,,,,,,,,,,,,,,,,,,,,,,,,,,,,,,,,,,,,,,,,,,,,,,,,,,,,P031,FENCOG,2,Pre,2022_Mar_22_1049,Go No-Go Task,2021.1.4,120.13916923838183,
,,,,,,,,,,,,,,,,,,,,,,,,,,,,,,,,,,,,,,,,,,,,,,,,,,,,,,,,,,,,,,,,,,,,,,,,,,,,,,,,,,,,,322.83098330005305,None,space,198.39045539998915,323.3168774000369,None,,,,,,,,,,,,,,,,,,,,,,,,,,,,,,,,,,,,,,,,,,,P031,FENCOG,2,Pre,2022_Mar_22_1049,Go No-Go Task,2021.1.4,120.13916923838183,
,,,,,,,,,,,,,,,,,,,,,,,,,,,,,,,,,,,,,,,,,,,,,,,,,,,,,,,,,,,,,,,,,,,,,,,,,,,,,,,,,,,,,,,,,,,521.7172911000089,None,space,7.045999599969946,521.7172911000089,None,,,,,,,,,,,,,,,,,,,,,,,,,,,,,,,,,,,,,P031,FENCOG,2,Pre,2022_Mar_22_1049,Go No-Go Task,2021.1.4,120.13916923838183,
,"Rule: When you see a yellow image, do not press 'spacebar'.",Images/Happy/BF09_HO.jpg,Happy,Blue,Images/Blue.jpg,space,ParentConditions/YellowYellowBlue_v2.xlsx,YellowYellowBlue,Conditions/Version_2/YellowFearStop.xlsx,no,PASS,0.2009685743777515,,,,,,,,,0,0,0,1,0,0,0,0,0,0,0,0,,,,,,,,,,,,,,,,,,,,,,,,,,,,,,,,,,,,,,,,,,,,,,,,,,,,,,,,,,,,,,,,,528.8389132000157,None,531.8296194000286,None,space,2.157543999957852,531.8296194000286,None,528.8389132000157,None,528.8389132000157,None,528.8389132000157,None,1.38,534.0362550000427,None,space,1,0.2983461000258103,535.5210060000536,None,535.5210060000536,None,535.5210060000536,None,,,,,,,,,,,P031,FENCOG,2,Pre,2022_Mar_22_1049,Go No-Go Task,2021.1.4,120.13916923838183,
,"Rule: When you see a yellow image, do not press 'spacebar'.",Images/Happy/AF30HAS.jpg,Happy,Blue,Images/Blue.jpg,space,ParentConditions/YellowYellowBlue_v2.xlsx,YellowYellowBlue,Conditions/Version_2/YellowFearStop.xlsx,no,PASS,0.9679561444510932,,,,,,,,,0,0,0,1,0,0,0,0,0,1,1,1,,,,,,,,,,,,,,,,,,,,,,,,,,,,,,,,,,,,,,,,,,,,,,,,,,,,,,,,,,,,,,,,,,,,,,,,,,,,,,,1.62,535.9215168000082,None,space,1,0.35793810000177473,537.6452786000445,None,537.6452786000445,None,537.6452786000445,None,,,,,,,,,,,P031,FENCOG,2,Pre,2022_Mar_22_1049,Go No-Go Task,2021.1.4,120.13916923838183,
,"Rule: When you see a yellow image, do not press 'spacebar'.",Images/Happy/AF27HAS.jpg,Happy,Blue,Images/Blue.jpg,space,ParentConditions/YellowYellowBlue_v2.xlsx,YellowYellowBlue,Conditions/Version_2/YellowFearStop.xlsx,no,PASS,0.024466481670397555,,,,,,,,,0,0,0,1,0,0,0,0,0,2,2,2,,,,,,,,,,,,,,,,,,,,,,,,,,,,,,,,,,,,,,,,,,,,,,,,,,,,,,,,,,,,,,,,,,,,,,,,,,,,,,,1.72,538.0459454000229,None,space,1,0.2936591999605298,539.8697234000429,None,539.8697234000429,None,539.8697234000429,None,,,,,,,,,,,P031,FENCOG,2,Pre,2022_Mar_22_1049,Go No-Go Task,2021.1.4,120.13916923838183,
,"Rule: When you see a yellow image, do not press 'spacebar'.",Images/Happy/AF22HAS.jpg,Happy,Blue,Images/Blue.jpg,space,ParentConditions/YellowYellowBlue_v2.xlsx,YellowYellowBlue,Conditions/Version_2/YellowFearStop.xlsx,no,PASS,0.900419425166189,,,,,,,,,0,0,0,1,0,0,0,0,0,3,3,3,,,,,,,,,,,,,,,,,,,,,,,,,,,,,,,,,,,,,,,,,,,,,,,,,,,,,,,,,,,,,,,,,,,,,,,,,,,,,,,1.34,540.2688043000526,None,space,1,0.34040769998682663,541.7108280000393,None,541.7108280000393,None,541.7108280000393,None,,,,,,,,,,,P031,FENCOG,2,Pre,2022_Mar_22_1049,Go No-Go Task,2021.1.4,120.13916923838183,
,"Rule: When you see a yellow image, do not press 'spacebar'.",Images/Happy/WM11_HC.jpg,Happy,Blue,Images/Blue.jpg,space,ParentConditions/YellowYellowBlue_v2.xlsx,YellowYellowBlue,Conditions/Version_2/YellowFearStop.xlsx,no,PASS,0.5042081063795358,,,,,,,,,0,0,0,1,0,0,0,0,0,4,4,4,,,,,,,,,,,,,,,,,,,,,,,,,,,,,,,,,,,,,,,,,,,,,,,,,,,,,,,,,,,,,,,,,,,,,,,,,,,,,,,1.76,542.1110386000364,None,space,1,0.29037869995227084,543.9767937000142,None,543.9767937000142,None,543.9767937000142,None,,,,,,,,,,,P031,FENCOG,2,Pre,2022_Mar_22_1049,Go No-Go Task,2021.1.4,120.13916923838183,
,"Rule: When you see a yellow image, do not press 'spacebar'.",Images/Happy/BF05_HO.jpg,Happy,Blue,Images/Blue.jpg,space,ParentConditions/YellowYellowBlue_v2.xlsx,YellowYellowBlue,Conditions/Version_2/YellowFearStop.xlsx,no,PASS,0.6687720633168746,,,,,,,,,0,0,0,1,0,0,0,0,0,5,5,5,,,,,,,,,,,,,,,,,,,,,,,,,,,,,,,,,,,,,,,,,,,,,,,,,,,,,,,,,,,,,,,,,,,,,,,,,,,,,,,1.35,544.3770743000205,None,space,1,0.32085679995361716,545.8345508000348,None,545.8345508000348,None,545.8345508000348,None,,,,,,,,,,,P031,FENCOG,2,Pre,2022_Mar_22_1049,Go No-Go Task,2021.1.4,120.13916923838183,
,"Rule: When you see a yellow image, do not press 'spacebar'.",Images/Fearful/AM01AFS.jpg,Fear,Yellow,Images/Yellow.jpg,None,ParentConditions/YellowYellowBlue_v2.xlsx,YellowYellowBlue,Conditions/Version_2/YellowFearStop.xlsx,yes,PASS,0.008120847249678764,,,,,,,,,0,0,0,1,0,0,0,0,0,6,6,6,,,,,,,,,,,,,,,,,,,,,,,,,,,,,,,,,,,,,,,,,,,,,,,,,,,,,,,,,,,,,,,,,,,,,,,,,,,,,,,1.84,546.2348159000394,None,None,1,,548.1755517999991,None,548.1755517999991,None,548.1755517999991,None,,,,,,,,,,,P031,FENCOG,2,Pre,2022_Mar_22_1049,Go No-Go Task,2021.1.4,120.13916923838183,
,"Rule: When you see a yellow image, do not press 'spacebar'.",Images/Happy/AF23HAS.jpg,Happy,Blue,Images/Blue.jpg,space,ParentConditions/YellowYellowBlue_v2.xlsx,YellowYellowBlue,Conditions/Version_2/YellowFearStop.xlsx,no,PASS,0.07023198870971747,,,,,,,,,0,0,0,1,0,0,0,0,0,7,7,7,,,,,,,,,,,,,,,,,,,,,,,,,,,,,,,,,,,,,,,,,,,,,,,,,,,,,,,,,,,,,,,,,,,,,,,,,,,,,,,1.41,548.5745364000322,None,None,0,,550.0996797000407,None,550.0996797000407,None,550.0996797000407,None,,,,,,,,,,,P031,FENCOG,2,Pre,2022_Mar_22_1049,Go No-Go Task,2021.1.4,120.13916923838183,
,"Rule: When you see a yellow image, do not press 'spacebar'.",Images/Happy/AM16HAS.jpg,Happy,Blue,Images/Blue.jpg,space,ParentConditions/YellowYellowBlue_v2.xlsx,YellowYellowBlue,Conditions/Version_2/YellowFearStop.xlsx,no,PASS,0.031804034281165405,,,,,,,,,0,0,0,1,0,0,0,0,0,8,8,8,,,,,,,,,,,,,,,,,,,,,,,,,,,,,,,,,,,,,,,,,,,,,,,,,,,,,,,,,,,,,,,,,,,,,,,,,,,,,,,1.37,550.499017300026,None,space,1,0.3328251999919303,551.9744138999959,None,551.9744138999959,None,551.9744138999959,None,,,,,,,,,,,P031,FENCOG,2,Pre,2022_Mar_22_1049,Go No-Go Task,2021.1.4,120.13916923838183,
,"Rule: When you see a yellow image, do not press 'spacebar'.",Images/Happy/AM04HAS.jpg,Happy,Blue,Images/Blue.jpg,space,ParentConditions/YellowYellowBlue_v2.xlsx,YellowYellowBlue,Conditions/Version_2/YellowFearStop.xlsx,no,PASS,0.0002121348500070397,,,,,,,,,0,0,0,1,0,0,0,0,0,9,9,9,,,,,,,,,,,,,,,,,,,,,,,,,,,,,,,,,,,,,,,,,,,,,,,,,,,,,,,,,,,,,,,,,,,,,,,,,,,,,,,1.94,552.3752407000284,None,space,1,0.2917794000240974,554.4154036000255,None,554.4154036000255,None,554.4154036000255,None,,,,,,,,,,,P031,FENCOG,2,Pre,2022_Mar_22_1049,Go No-Go Task,2021.1.4,120.13916923838183,
,"Rule: When you see a yellow image, do not press 'spacebar'.",Images/Happy/AF26HAS.jpg,Happy,Blue,Images/Blue.jpg,space,ParentConditions/YellowYellowBlue_v2.xlsx,YellowYellowBlue,Conditions/Version_2/YellowFearStop.xlsx,no,PASS,0.408079602030768,,,,,,,,,0,0,0,1,0,0,0,0,0,10,10,10,,,,,,,,,,,,,,,,,,,,,,,,,,,,,,,,,,,,,,,,,,,,,,,,,,,,,,,,,,,,,,,,,,,,,,,,,,,,,,,1.21,554.8151486000279,None,space,1,0.36772610002662987,556.131506900012,None,556.131506900012,None,556.131506900012,None,,,,,,,,,,,P031,FENCOG,2,Pre,2022_Mar_22_1049,Go No-Go Task,2021.1.4,120.13916923838183,
,"Rule: When you see a yellow image, do not press 'spacebar'.",Images/Fearful/AF10_FC.jpg,Fear,Yellow,Images/Yellow.jpg,None,ParentConditions/YellowYellowBlue_v2.xlsx,YellowYellowBlue,Conditions/Version_2/YellowFearStop.xlsx,yes,PASS,0.43118367877877073,,,,,,,,,0,0,0,1,0,0,0,0,0,11,11,11,,,,,,,,,,,,,,,,,,,,,,,,,,,,,,,,,,,,,,,,,,,,,,,,,,,,,,,,,,,,,,,,,,,,,,,,,,,,,,,2,556.5324342999957,None,None,1,,558.6390677000163,None,558.6390677000163,None,558.6390677000163,None,,,,,,,,,,,P031,FENCOG,2,Pre,2022_Mar_22_1049,Go No-Go Task,2021.1.4,120.13916923838183,
,"Rule: When you see a yellow image, do not press 'spacebar'.",Images/Fearful/AM09_FO.jpg,Fear,Yellow,Images/Yellow.jpg,None,ParentConditions/YellowYellowBlue_v2.xlsx,YellowYellowBlue,Conditions/Version_2/YellowFearStop.xlsx,yes,PASS,0.25324381257324213,,,,,,,,,0,0,0,1,0,0,0,0,0,12,12,12,,,,,,,,,,,,,,,,,,,,,,,,,,,,,,,,,,,,,,,,,,,,,,,,,,,,,,,,,,,,,,,,,,,,,,,,,,,,,,,1.58,559.0420747000026,None,None,1,,560.7299781000474,None,560.7299781000474,None,560.7299781000474,None,,,,,,,,,,,P031,FENCOG,2,Pre,2022_Mar_22_1049,Go No-Go Task,2021.1.4,120.13916923838183,
,"Rule: When you see a yellow image, do not press 'spacebar'.",Images/Happy/HM04_HO.jpg,Happy,Blue,Images/Blue.jpg,space,ParentConditions/YellowYellowBlue_v2.xlsx,YellowYellowBlue,Conditions/Version_2/YellowFearStop.xlsx,no,PASS,0.4072425132028237,,,,,,,,,0,0,0,1,0,0,0,0,0,13,13,13,,,,,,,,,,,,,,,,,,,,,,,,,,,,,,,,,,,,,,,,,,,,,,,,,,,,,,,,,,,,,,,,,,,,,,,,,,,,,,,1.53,561.1307721000048,None,space,1,0.2884790999814868,562.7628354000044,None,562.7628354000044,None,562.7628354000044,None,,,,,,,,,,,P031,FENCOG,2,Pre,2022_Mar_22_1049,Go No-Go Task,2021.1.4,120.13916923838183,
,"Rule: When you see a yellow image, do not press 'spacebar'.",Images/Fearful/AM04_FO.jpg,Fear,Yellow,Images/Yellow.jpg,None,ParentConditions/YellowYellowBlue_v2.xlsx,YellowYellowBlue,Conditions/Version_2/YellowFearStop.xlsx,yes,PASS,0.7288256558461894,,,,,,,,,0,0,0,1,0,0,0,0,0,14,14,14,,,,,,,,,,,,,,,,,,,,,,,,,,,,,,,,,,,,,,,,,,,,,,,,,,,,,,,,,,,,,,,,,,,,,,,,,,,,,,,1.79,563.1634920000215,None,None,1,,565.0620539000374,None,565.0620539000374,None,565.0620539000374,None,,,,,,,,,,,P031,FENCOG,2,Pre,2022_Mar_22_1049,Go No-Go Task,2021.1.4,120.13916923838183,
,"Rule: When you see a yellow image, do not press 'spacebar'.",Images/Happy/AM13HAS.jpg,Happy,Blue,Images/Blue.jpg,space,ParentConditions/YellowYellowBlue_v2.xlsx,YellowYellowBlue,Conditions/Version_2/YellowFearStop.xlsx,no,PASS,0.9405484517370288,,,,,,,,,0,0,0,1,0,0,0,0,0,15,15,15,,,,,,,,,,,,,,,,,,,,,,,,,,,,,,,,,,,,,,,,,,,,,,,,,,,,,,,,,,,,,,,,,,,,,,,,,,,,,,,1.97,565.4610274000443,None,space,1,0.24245780002092943,567.5448221000261,None,567.5448221000261,None,567.5448221000261,None,,,,,,,,,,,P031,FENCOG,2,Pre,2022_Mar_22_1049,Go No-Go Task,2021.1.4,120.13916923838183,
,"Rule: When you see a yellow image, do not press 'spacebar'.",Images/Fearful/AF09AFS.jpg,Fear,Yellow,Images/Yellow.jpg,None,ParentConditions/YellowYellowBlue_v2.xlsx,YellowYellowBlue,Conditions/Version_2/YellowFearStop.xlsx,yes,PASS,0.6464881792541419,,,,,,,,,0,0,0,1,0,0,0,0,0,16,16,16,,,,,,,,,,,,,,,,,,,,,,,,,,,,,,,,,,,,,,,,,,,,,,,,,,,,,,,,,,,,,,,,,,,,,,,,,,,,,,,1.57,567.9436805000296,None,None,1,,569.6191712000291,None,569.6191712000291,None,569.6191712000291,None,,,,,,,,,,,P031,FENCOG,2,Pre,2022_Mar_22_1049,Go No-Go Task,2021.1.4,120.13916923838183,
,"Rule: When you see a yellow image, do not press 'spacebar'.",Images/Fearful/BF05_FO.jpg,Fear,Yellow,Images/Yellow.jpg,None,ParentConditions/YellowYellowBlue_v2.xlsx,YellowYellowBlue,Conditions/Version_2/YellowFearStop.xlsx,yes,PASS,0.37509261462312704,,,,,,,,,0,0,0,1,0,0,0,0,0,17,17,17,,,,,,,,,,,,,,,,,,,,,,,,,,,,,,,,,,,,,,,,,,,,,,,,,,,,,,,,,,,,,,,,,,,,,,,,,,,,,,,1.64,570.019807500008,None,None,1,,571.7602262000437,None,571.7602262000437,None,571.7602262000437,None,,,,,,,,,,,P031,FENCOG,2,Pre,2022_Mar_22_1049,Go No-Go Task,2021.1.4,120.13916923838183,
,"Rule: When you see a yellow image, do not press 'spacebar'.",Images/Happy/AM24HAS.jpg,Happy,Blue,Images/Blue.jpg,space,ParentConditions/YellowYellowBlue_v2.xlsx,YellowYellowBlue,Conditions/Version_2/YellowFearStop.xlsx,no,PASS,0.016158036932588105,,,,,,,,,0,0,0,1,0,0,0,0,0,18,18,18,,,,,,,,,,,,,,,,,,,,,,,,,,,,,,,,,,,,,,,,,,,,,,,,,,,,,,,,,,,,,,,,,,,,,,,,,,,,,,,1.95,572.1590806000168,None,space,1,0.2737824999494478,574.2094253000105,None,574.2094253000105,None,574.2094253000105,None,,,,,,,,,,,P031,FENCOG,2,Pre,2022_Mar_22_1049,Go No-Go Task,2021.1.4,120.13916923838183,
,"Rule: When you see a yellow image, do not press 'spacebar'.",Images/Fearful/AF11AFS.jpg,Fear,Yellow,Images/Yellow.jpg,None,ParentConditions/YellowYellowBlue_v2.xlsx,YellowYellowBlue,Conditions/Version_2/YellowFearStop.xlsx,yes,PASS,0.3371554357894605,,,,,,,,,0,0,0,1,0,0,0,0,0,19,19,19,,,,,,,,,,,,,,,,,,,,,,,,,,,,,,,,,,,,,,,,,,,,,,,,,,,,,,,,,,,,,,,,,,,,,,,,,,,,,,,1.71,574.6105656000436,None,None,1,,576.4338621000061,None,576.4338621000061,None,576.4338621000061,None,,,,,,,,,,,P031,FENCOG,2,Pre,2022_Mar_22_1049,Go No-Go Task,2021.1.4,120.13916923838183,
,"Rule: When you see a yellow image, do not press 'spacebar'.",Images/Happy/AF01_HE.jpg,Happy,Blue,Images/Blue.jpg,space,ParentConditions/YellowYellowBlue_v2.xlsx,YellowYellowBlue,Conditions/Version_2/YellowFearStop.xlsx,no,PASS,0.09770872574206646,,,,,,,,,0,0,0,1,0,0,0,0,0,20,20,20,,,,,,,,,,,,,,,,,,,,,,,,,,,,,,,,,,,,,,,,,,,,,,,,,,,,,,,,,,,,,,,,,,,,,,,,,,,,,,,1.7,576.8297196000349,None,space,1,0.25785489997360855,578.6331253000535,None,578.6331253000535,None,578.6331253000535,None,,,,,,,,,,,P031,FENCOG,2,Pre,2022_Mar_22_1049,Go No-Go Task,2021.1.4,120.13916923838183,
,"Rule: When you see a yellow image, do not press 'spacebar'.",Images/Happy/AM10_HO.jpg,Happy,Blue,Images/Blue.jpg,space,ParentConditions/YellowYellowBlue_v2.xlsx,YellowYellowBlue,Conditions/Version_2/YellowFearStop.xlsx,no,PASS,0.35803186882916893,,,,,,,,,0,0,0,1,0,0,0,0,0,21,21,21,,,,,,,,,,,,,,,,,,,,,,,,,,,,,,,,,,,,,,,,,,,,,,,,,,,,,,,,,,,,,,,,,,,,,,,,,,,,,,,1.91,579.0335381000186,None,space,1,0.31418019998818636,581.0490356000373,None,581.0490356000373,None,581.0490356000373,None,,,,,,,,,,,P031,FENCOG,2,Pre,2022_Mar_22_1049,Go No-Go Task,2021.1.4,120.13916923838183,
,"Rule: When you see a yellow image, do not press 'spacebar'.",Images/Happy/AF09HAS.jpg,Happy,Blue,Images/Blue.jpg,space,ParentConditions/YellowYellowBlue_v2.xlsx,YellowYellowBlue,Conditions/Version_2/YellowFearStop.xlsx,no,PASS,0.20902890792548556,,,,,,,,,0,0,0,1,0,0,0,0,0,22,22,22,,,,,,,,,,,,,,,,,,,,,,,,,,,,,,,,,,,,,,,,,,,,,,,,,,,,,,,,,,,,,,,,,,,,,,,,,,,,,,,1.4,581.4515475000371,None,space,1,0.3342396999942139,582.9568082000478,None,582.9568082000478,None,582.9568082000478,None,,,,,,,,,,,P031,FENCOG,2,Pre,2022_Mar_22_1049,Go No-Go Task,2021.1.4,120.13916923838183,
,"Rule: When you see a yellow image, do not press 'spacebar'.",Images/Happy/BM02_HO.jpg,Happy,Blue,Images/Blue.jpg,space,ParentConditions/YellowYellowBlue_v2.xlsx,YellowYellowBlue,Conditions/Version_2/YellowFearStop.xlsx,no,PASS,0.6732741052769042,,,,,,,,,0,0,0,1,0,0,0,0,0,23,23,23,,,,,,,,,,,,,,,,,,,,,,,,,,,,,,,,,,,,,,,,,,,,,,,,,,,,,,,,,,,,,,,,,,,,,,,,,,,,,,,1.51,583.3572687000269,None,space,1,0.3181560999946669,584.9730423000292,None,584.9730423000292,None,584.9730423000292,None,,,,,,,,,,,P031,FENCOG,2,Pre,2022_Mar_22_1049,Go No-Go Task,2021.1.4,120.13916923838183,
,"Rule: When you see a yellow image, do not press 'spacebar'.",Images/Happy/AM09_HE.jpg,Happy,Blue,Images/Blue.jpg,space,ParentConditions/YellowYellowBlue_v2.xlsx,YellowYellowBlue,Conditions/Version_2/YellowFearStop.xlsx,no,PASS,0.6065078221259242,,,,,,,,,0,0,0,1,0,0,0,0,0,24,24,24,,,,,,,,,,,,,,,,,,,,,,,,,,,,,,,,,,,,,,,,,,,,,,,,,,,,,,,,,,,,,,,,,,,,,,,,,,,,,,,1.59,585.3738364000455,None,space,1,0.2747832000022754,587.0722831000458,None,587.0722831000458,None,587.0722831000458,None,,,,,,,,,,,P031,FENCOG,2,Pre,2022_Mar_22_1049,Go No-Go Task,2021.1.4,120.13916923838183,
,"Rule: When you see a yellow image, do not press 'spacebar'.",Images/Happy/AF10_HE.jpg,Happy,Blue,Images/Blue.jpg,space,ParentConditions/YellowYellowBlue_v2.xlsx,YellowYellowBlue,Conditions/Version_2/YellowFearStop.xlsx,no,PASS,0.6869968801100608,,,,,,,,,0,0,0,1,0,0,0,0,0,25,25,25,,,,,,,,,,,,,,,,,,,,,,,,,,,,,,,,,,,,,,,,,,,,,,,,,,,,,,,,,,,,,,,,,,,,,,,,,,,,,,,1.78,587.4711625000346,None,space,1,0.28731949999928474,589.3558830000111,None,589.3558830000111,None,589.3558830000111,None,,,,,,,,,,,P031,FENCOG,2,Pre,2022_Mar_22_1049,Go No-Go Task,2021.1.4,120.13916923838183,
,"Rule: When you see a yellow image, do not press 'spacebar'.",Images/Happy/BM01_HO.jpg,Happy,Blue,Images/Blue.jpg,space,ParentConditions/YellowYellowBlue_v2.xlsx,YellowYellowBlue,Conditions/Version_2/YellowFearStop.xlsx,no,PASS,0.5538207000686074,,,,,,,,,0,0,0,1,0,0,0,0,0,26,26,26,,,,,,,,,,,,,,,,,,,,,,,,,,,,,,,,,,,,,,,,,,,,,,,,,,,,,,,,,,,,,,,,,,,,,,,,,,,,,,,1.48,589.762329899997,None,space,1,0.3052525999955833,591.3459930000245,None,591.3459930000245,None,591.3459930000245,None,,,,,,,,,,,P031,FENCOG,2,Pre,2022_Mar_22_1049,Go No-Go Task,2021.1.4,120.13916923838183,
,"Rule: When you see a yellow image, do not press 'spacebar'.",Images/Fearful/AF07_FO.jpg,Fear,Yellow,Images/Yellow.jpg,None,ParentConditions/YellowYellowBlue_v2.xlsx,YellowYellowBlue,Conditions/Version_2/YellowFearStop.xlsx,yes,PASS,0.5689879324899989,,,,,,,,,0,0,0,1,0,0,0,0,0,27,27,27,,,,,,,,,,,,,,,,,,,,,,,,,,,,,,,,,,,,,,,,,,,,,,,,,,,,,,,,,,,,,,,,,,,,,,,,,,,,,,,1.69,591.7464880000334,None,None,1,,593.5370201000478,None,593.5370201000478,None,593.5370201000478,None,,,,,,,,,,,P031,FENCOG,2,Pre,2022_Mar_22_1049,Go No-Go Task,2021.1.4,120.13916923838183,
,"Rule: When you see a yellow image, do not press 'spacebar'.",Images/Happy/BF18_HO.jpg,Happy,Blue,Images/Blue.jpg,space,ParentConditions/YellowYellowBlue_v2.xlsx,YellowYellowBlue,Conditions/Version_2/YellowFearStop.xlsx,no,PASS,0.2528908254284902,,,,,,,,,0,0,0,1,0,0,0,0,0,28,28,28,,,,,,,,,,,,,,,,,,,,,,,,,,,,,,,,,,,,,,,,,,,,,,,,,,,,,,,,,,,,,,,,,,,,,,,,,,,,,,,1.33,593.9374001999968,None,None,0,,595.3697947000037,None,595.3697947000037,None,595.3697947000037,None,,,,,,,,,,,P031,FENCOG,2,Pre,2022_Mar_22_1049,Go No-Go Task,2021.1.4,120.13916923838183,
,"Rule: When you see a yellow image, do not press 'spacebar'.",Images/Happy/AM03HAS.jpg,Happy,Blue,Images/Blue.jpg,space,ParentConditions/YellowYellowBlue_v2.xlsx,YellowYellowBlue,Conditions/Version_2/YellowFearStop.xlsx,no,PASS,0.6129705520501836,,,,,,,,,0,0,0,1,0,0,0,0,0,29,29,29,,,,,,,,,,,,,,,,,,,,,,,,,,,,,,,,,,,,,,,,,,,,,,,,,,,,,,,,,,,,,,,,,,,,,,,,,,,,,,,1.5,595.775356099999,None,space,1,0.28173960000276566,597.3774189000251,None,597.3774189000251,None,597.3774189000251,None,,,,,,,,,,,P031,FENCOG,2,Pre,2022_Mar_22_1049,Go No-Go Task,2021.1.4,120.13916923838183,
,"Rule: When you see a yellow image, do not press 'spacebar'.",Images/Happy/BF10_HO.jpg,Happy,Blue,Images/Blue.jpg,space,ParentConditions/YellowYellowBlue_v2.xlsx,YellowYellowBlue,Conditions/Version_2/YellowFearStop.xlsx,no,PASS,0.6633214650414543,,,,,,,,,0,0,0,1,0,0,0,0,0,30,30,30,,,,,,,,,,,,,,,,,,,,,,,,,,,,,,,,,,,,,,,,,,,,,,,,,,,,,,,,,,,,,,,,,,,,,,,,,,,,,,,1.46,597.7779248000006,None,space,1,0.27582450001500547,599.3352992000291,None,599.3352992000291,None,599.3352992000291,None,,,,,,,,,,,P031,FENCOG,2,Pre,2022_Mar_22_1049,Go No-Go Task,2021.1.4,120.13916923838183,
,"Rule: When you see a yellow image, do not press 'spacebar'.",Images/Happy/BF07_HO.jpg,Happy,Blue,Images/Blue.jpg,space,ParentConditions/YellowYellowBlue_v2.xlsx,YellowYellowBlue,Conditions/Version_2/YellowFearStop.xlsx,no,PASS,0.38343441764823294,,,,,,,,,0,0,0,1,0,0,0,0,0,31,31,31,,,,,,,,,,,,,,,,,,,,,,,,,,,,,,,,,,,,,,,,,,,,,,,,,,,,,,,,,,,,,,,,,,,,,,,,,,,,,,,1.54,599.7357925000251,None,space,1,0.2666680000256747,601.3763705000165,None,601.3763705000165,None,601.3763705000165,None,,,,,,,,,,,P031,FENCOG,2,Pre,2022_Mar_22_1049,Go No-Go Task,2021.1.4,120.13916923838183,
,"Rule: When you see a yellow image, do not press 'spacebar'.",Images/Fearful/BF07_FO.jpg,Fear,Yellow,Images/Yellow.jpg,None,ParentConditions/YellowYellowBlue_v2.xlsx,YellowYellowBlue,Conditions/Version_2/YellowFearStop.xlsx,yes,PASS,0.00831620462665883,,,,,,,,,0,0,0,1,0,0,0,0,0,32,32,32,,,,,,,,,,,,,,,,,,,,,,,,,,,,,,,,,,,,,,,,,,,,,,,,,,,,,,,,,,,,,,,,,,,,,,,,,,,,,,,1.3,601.7751864000456,None,None,1,,603.1758851000341,None,603.1758851000341,None,603.1758851000341,None,,,,,,,,,,,P031,FENCOG,2,Pre,2022_Mar_22_1049,Go No-Go Task,2021.1.4,120.13916923838183,
,"Rule: When you see a yellow image, do not press 'spacebar'.",Images/Happy/WF04_HC.jpg,Happy,Blue,Images/Blue.jpg,space,ParentConditions/YellowYellowBlue_v2.xlsx,YellowYellowBlue,Conditions/Version_2/YellowFearStop.xlsx,no,PASS,0.6777495076385776,,,,,,,,,0,0,0,1,0,0,0,0,0,33,33,33,,,,,,,,,,,,,,,,,,,,,,,,,,,,,,,,,,,,,,,,,,,,,,,,,,,,,,,,,,,,,,,,,,,,,,,,,,,,,,,1.81,603.5762194000417,None,space,1,0.25528489996213466,605.4918399000308,None,605.4918399000308,None,605.4918399000308,None,,,,,,,,,,,P031,FENCOG,2,Pre,2022_Mar_22_1049,Go No-Go Task,2021.1.4,120.13916923838183,
,"Rule: When you see a yellow image, do not press 'spacebar'.",Images/Happy/AM23HAS.jpg,Happy,Blue,Images/Blue.jpg,space,ParentConditions/YellowYellowBlue_v2.xlsx,YellowYellowBlue,Conditions/Version_2/YellowFearStop.xlsx,no,PASS,0.04303712392230152,,,,,,,,,0,0,0,1,0,0,0,0,0,34,34,34,,,,,,,,,,,,,,,,,,,,,,,,,,,,,,,,,,,,,,,,,,,,,,,,,,,,,,,,,,,,,,,,,,,,,,,,,,,,,,,1.55,605.8926694000256,None,space,1,0.29318510001758114,607.5578851000173,None,607.5578851000173,None,607.5578851000173,None,,,,,,,,,,,P031,FENCOG,2,Pre,2022_Mar_22_1049,Go No-Go Task,2021.1.4,120.13916923838183,
,"Rule: When you see a yellow image, do not press 'spacebar'.",Images/Happy/AM09HAS.jpg,Happy,Blue,Images/Blue.jpg,space,ParentConditions/YellowYellowBlue_v2.xlsx,YellowYellowBlue,Conditions/Version_2/YellowFearStop.xlsx,no,PASS,0.09574836161041034,,,,,,,,,0,0,0,1,0,0,0,0,0,35,35,35,,,,,,,,,,,,,,,,,,,,,,,,,,,,,,,,,,,,,,,,,,,,,,,,,,,,,,,,,,,,,,,,,,,,,,,,,,,,,,,1.65,607.9569299000432,None,space,1,0.31996549997711554,609.7072328000213,None,609.7072328000213,None,609.7072328000213,None,,,,,,,,,,,P031,FENCOG,2,Pre,2022_Mar_22_1049,Go No-Go Task,2021.1.4,120.13916923838183,
,"Rule: When you see a yellow image, do not press 'spacebar'.",Images/Happy/AM10HAS.jpg,Happy,Blue,Images/Blue.jpg,space,ParentConditions/YellowYellowBlue_v2.xlsx,YellowYellowBlue,Conditions/Version_2/YellowFearStop.xlsx,no,PASS,0.1630912911655703,,,,,,,,,0,0,0,1,0,0,0,0,0,36,36,36,,,,,,,,,,,,,,,,,,,,,,,,,,,,,,,,,,,,,,,,,,,,,,,,,,,,,,,,,,,,,,,,,,,,,,,,,,,,,,,1.27,610.1098041000078,None,space,1,0.273788099992089,611.4812944000005,None,611.4812944000005,None,611.4812944000005,None,,,,,,,,,,,P031,FENCOG,2,Pre,2022_Mar_22_1049,Go No-Go Task,2021.1.4,120.13916923838183,
,"Rule: When you see a yellow image, do not press 'spacebar'.",Images/Happy/AF07HAS.jpg,Happy,Blue,Images/Blue.jpg,space,ParentConditions/YellowYellowBlue_v2.xlsx,YellowYellowBlue,Conditions/Version_2/YellowFearStop.xlsx,no,PASS,0.34867471869559996,,,,,,,,,0,0,0,1,0,0,0,0,0,37,37,37,,,,,,,,,,,,,,,,,,,,,,,,,,,,,,,,,,,,,,,,,,,,,,,,,,,,,,,,,,,,,,,,,,,,,,,,,,,,,,,1.61,611.8824053000426,None,space,1,0.333110699953977,613.5982576000388,None,613.5982576000388,None,613.5982576000388,None,,,,,,,,,,,P031,FENCOG,2,Pre,2022_Mar_22_1049,Go No-Go Task,2021.1.4,120.13916923838183,
,"Rule: When you see a yellow image, do not press 'spacebar'.",Images/Happy/AM03_HO.jpg,Happy,Blue,Images/Blue.jpg,space,ParentConditions/YellowYellowBlue_v2.xlsx,YellowYellowBlue,Conditions/Version_2/YellowFearStop.xlsx,no,PASS,0.8852047943617631,,,,,,,,,0,0,0,1,0,0,0,0,0,38,38,38,,,,,,,,,,,,,,,,,,,,,,,,,,,,,,,,,,,,,,,,,,,,,,,,,,,,,,,,,,,,,,,,,,,,,,,,,,,,,,,1.96,613.9967118000495,None,space,1,0.26755520002916455,616.063643600035,None,616.063643600035,None,616.063643600035,None,,,,,,,,,,,P031,FENCOG,2,Pre,2022_Mar_22_1049,Go No-Go Task,2021.1.4,120.13916923838183,
,"Rule: When you see a yellow image, do not press 'spacebar'.",Images/Happy/AM05HAS.jpg,Happy,Blue,Images/Blue.jpg,space,ParentConditions/YellowYellowBlue_v2.xlsx,YellowYellowBlue,Conditions/Version_2/YellowFearStop.xlsx,no,PASS,0.25496798119470154,,,,,,,,,0,0,0,1,0,0,0,0,0,39,39,39,,,,,,,,,,,,,,,,,,,,,,,,,,,,,,,,,,,,,,,,,,,,,,,,,,,,,,,,,,,,,,,,,,,,,,,,,,,,,,,1.6,616.4658189000329,None,space,1,0.28776590002235025,618.1712367000291,None,618.1712367000291,None,618.1712367000291,None,,,,,,,,,,,P031,FENCOG,2,Pre,2022_Mar_22_1049,Go No-Go Task,2021.1.4,120.13916923838183,
,"Rule: When you see a yellow image, do not press 'spacebar'.",Images/Happy/AF02HAS.jpg,Happy,Blue,Images/Blue.jpg,space,ParentConditions/YellowYellowBlue_v2.xlsx,YellowYellowBlue,Conditions/Version_2/YellowFearStop.xlsx,no,PASS,0.4518610007497229,,,,,,,,,0,0,0,1,0,0,0,0,0,40,40,40,,,,,,,,,,,,,,,,,,,,,,,,,,,,,,,,,,,,,,,,,,,,,,,,,,,,,,,,,,,,,,,,,,,,,,,,,,,,,,,1.47,618.5700769000105,None,space,1,0.25746340001933277,620.1454735000152,None,620.1454735000152,None,620.1454735000152,None,,,,,,,,,,,P031,FENCOG,2,Pre,2022_Mar_22_1049,Go No-Go Task,2021.1.4,120.13916923838183,
,"Rule: When you see a yellow image, do not press 'spacebar'.",Images/Happy/BM08_HO.jpg,Happy,Blue,Images/Blue.jpg,space,ParentConditions/YellowYellowBlue_v2.xlsx,YellowYellowBlue,Conditions/Version_2/YellowFearStop.xlsx,no,PASS,0.6109180265070229,,,,,,,,,0,0,0,1,0,0,0,0,0,41,41,41,,,,,,,,,,,,,,,,,,,,,,,,,,,,,,,,,,,,,,,,,,,,,,,,,,,,,,,,,,,,,,,,,,,,,,,,,,,,,,,1.98,620.5445100000361,None,space,1,0.2709051999845542,622.6279695000267,None,622.6279695000267,None,622.6279695000267,None,,,,,,,,,,,P031,FENCOG,2,Pre,2022_Mar_22_1049,Go No-Go Task,2021.1.4,120.13916923838183,
,"Rule: When you see a yellow image, do not press 'spacebar'.",Images/Happy/AM22HAS.jpg,Happy,Blue,Images/Blue.jpg,space,ParentConditions/YellowYellowBlue_v2.xlsx,YellowYellowBlue,Conditions/Version_2/YellowFearStop.xlsx,no,PASS,0.358808559720486,,,,,,,,,0,0,0,1,0,0,0,0,0,42,42,42,,,,,,,,,,,,,,,,,,,,,,,,,,,,,,,,,,,,,,,,,,,,,,,,,,,,,,,,,,,,,,,,,,,,,,,,,,,,,,,1.68,623.0270867000218,None,space,1,0.30426529998658225,624.8106059000129,None,624.8106059000129,None,624.8106059000129,None,,,,,,,,,,,P031,FENCOG,2,Pre,2022_Mar_22_1049,Go No-Go Task,2021.1.4,120.13916923838183,
,"Rule: When you see a yellow image, do not press 'spacebar'.",Images/Happy/AM30HAS.jpg,Happy,Blue,Images/Blue.jpg,space,ParentConditions/YellowYellowBlue_v2.xlsx,YellowYellowBlue,Conditions/Version_2/YellowFearStop.xlsx,no,PASS,0.02897569025915847,,,,,,,,,0,0,0,1,0,0,0,0,0,43,43,43,,,,,,,,,,,,,,,,,,,,,,,,,,,,,,,,,,,,,,,,,,,,,,,,,,,,,,,,,,,,,,,,,,,,,,,,,,,,,,,1.77,625.2115286000189,None,space,1,0.34979999996721745,627.0854021999985,None,627.0854021999985,None,627.0854021999985,None,,,,,,,,,,,P031,FENCOG,2,Pre,2022_Mar_22_1049,Go No-Go Task,2021.1.4,120.13916923838183,
,"Rule: When you see a yellow image, do not press 'spacebar'.",Images/Fearful/BF09_FC.jpg,Fear,Yellow,Images/Yellow.jpg,None,ParentConditions/YellowYellowBlue_v2.xlsx,YellowYellowBlue,Conditions/Version_2/YellowFearStop.xlsx,yes,PASS,0.33656912313274023,,,,,,,,,0,0,0,1,0,0,0,0,0,44,44,44,,,,,,,,,,,,,,,,,,,,,,,,,,,,,,,,,,,,,,,,,,,,,,,,,,,,,,,,,,,,,,,,,,,,,,,,,,,,,,,1.9,627.4948755000369,None,None,1,,629.5014048000448,None,629.5014048000448,None,629.5014048000448,None,,,,,,,,,,,P031,FENCOG,2,Pre,2022_Mar_22_1049,Go No-Go Task,2021.1.4,120.13916923838183,
,"Rule: When you see a yellow image, do not press 'spacebar'.",Images/Happy/WM12_HE.jpg,Happy,Blue,Images/Blue.jpg,space,ParentConditions/YellowYellowBlue_v2.xlsx,YellowYellowBlue,Conditions/Version_2/YellowFearStop.xlsx,no,PASS,0.7601850991054155,,,,,,,,,0,0,0,1,0,0,0,0,0,45,45,45,,,,,,,,,,,,,,,,,,,,,,,,,,,,,,,,,,,,,,,,,,,,,,,,,,,,,,,,,,,,,,,,,,,,,,,,,,,,,,,1.26,629.9084088000236,None,space,1,0.2949823999661021,631.2759353000438,None,631.2759353000438,None,631.2759353000438,None,,,,,,,,,,,P031,FENCOG,2,Pre,2022_Mar_22_1049,Go No-Go Task,2021.1.4,120.13916923838183,
,"Rule: When you see a yellow image, do not press 'spacebar'.",Images/Happy/HF10_HE.jpg,Happy,Blue,Images/Blue.jpg,space,ParentConditions/YellowYellowBlue_v2.xlsx,YellowYellowBlue,Conditions/Version_2/YellowFearStop.xlsx,no,PASS,0.6650727272929988,,,,,,,,,0,0,0,1,0,0,0,0,0,46,46,46,,,,,,,,,,,,,,,,,,,,,,,,,,,,,,,,,,,,,,,,,,,,,,,,,,,,,,,,,,,,,,,,,,,,,,,,,,,,,,,1.73,631.676332300005,None,space,1,0.26231910003116354,633.5085334000178,None,633.5085334000178,None,633.5085334000178,None,,,,,,,,,,,P031,FENCOG,2,Pre,2022_Mar_22_1049,Go No-Go Task,2021.1.4,120.13916923838183,
,"Rule: When you see a yellow image, do not press 'spacebar'.",Images/Happy/HM09_HO.jpg,Happy,Blue,Images/Blue.jpg,space,ParentConditions/YellowYellowBlue_v2.xlsx,YellowYellowBlue,Conditions/Version_2/YellowFearStop.xlsx,no,PASS,0.7196619298468737,,,,,,,,,0,0,0,1,0,0,0,0,0,47,47,47,,,,,,,,,,,,,,,,,,,,,,,,,,,,,,,,,,,,,,,,,,,,,,,,,,,,,,,,,,,,,,,,,,,,,,,,,,,,,,,1.22,633.908393700025,None,space,1,0.2900264000054449,635.2329720000271,None,635.2329720000271,None,635.2329720000271,None,,,,,,,,,,,P031,FENCOG,2,Pre,2022_Mar_22_1049,Go No-Go Task,2021.1.4,120.13916923838183,
,"Rule: When you see a yellow image, do not press 'spacebar'.",Images/Fearful/AM03_FC.jpg,Fear,Yellow,Images/Yellow.jpg,None,ParentConditions/YellowYellowBlue_v2.xlsx,YellowYellowBlue,Conditions/Version_2/YellowFearStop.xlsx,yes,PASS,0.9021154613913315,,,,,,,,,0,0,0,1,0,0,0,0,0,48,48,48,,,,,,,,,,,,,,,,,,,,,,,,,,,,,,,,,,,,,,,,,,,,,,,,,,,,,,,,,,,,,,,,,,,,,,,,,,,,,,,1.74,635.6338200000464,None,None,1,,637.4739439000259,None,637.4739439000259,None,637.4739439000259,None,,,,,,,,,,,P031,FENCOG,2,Pre,2022_Mar_22_1049,Go No-Go Task,2021.1.4,120.13916923838183,
,"Rule: When you see a yellow image, do not press 'spacebar'.",Images/Happy/HF04_HE.jpg,Happy,Blue,Images/Blue.jpg,space,ParentConditions/YellowYellowBlue_v2.xlsx,YellowYellowBlue,Conditions/Version_2/YellowFearStop.xlsx,no,PASS,0.6828282636628492,,,,,,,,,0,0,0,1,0,0,0,0,0,49,49,49,,,,,,,,,,,,,,,,,,,,,,,,,,,,,,,,,,,,,,,,,,,,,,,,,,,,,,,,,,,,,,,,,,,,,,,,,,,,,,,1.92,637.8754462000215,None,space,1,0.27274860005127266,639.8982927000034,None,639.8982927000034,None,639.8982927000034,None,,,,,,,,,,,P031,FENCOG,2,Pre,2022_Mar_22_1049,Go No-Go Task,2021.1.4,120.13916923838183,
,"Rule: When you see a yellow image, do not press 'spacebar'.",Images/Happy/AM17HAS.jpg,Happy,Blue,Images/Blue.jpg,space,ParentConditions/YellowYellowBlue_v2.xlsx,YellowYellowBlue,Conditions/Version_2/YellowFearStop.xlsx,no,PASS,0.7726840133197573,,,,,,,,,0,0,0,1,0,0,0,0,0,50,50,50,,,,,,,,,,,,,,,,,,,,,,,,,,,,,,,,,,,,,,,,,,,,,,,,,,,,,,,,,,,,,,,,,,,,,,,,,,,,,,,1.24,640.2979908999987,None,space,1,0.2915804000222124,641.6395306000486,None,641.6395306000486,None,641.6395306000486,None,,,,,,,,,,,P031,FENCOG,2,Pre,2022_Mar_22_1049,Go No-Go Task,2021.1.4,120.13916923838183,
,"Rule: When you see a yellow image, do not press 'spacebar'.",Images/Fearful/BM01_FO.jpg,Fear,Yellow,Images/Yellow.jpg,None,ParentConditions/YellowYellowBlue_v2.xlsx,YellowYellowBlue,Conditions/Version_2/YellowFearStop.xlsx,yes,PASS,0.029850228609631824,,,,,,,,,0,0,0,1,0,0,0,0,0,51,51,51,,,,,,,,,,,,,,,,,,,,,,,,,,,,,,,,,,,,,,,,,,,,,,,,,,,,,,,,,,,,,,,,,,,,,,,,,,,,,,,1.86,642.0381752999965,None,None,1,,644.005444600014,None,644.005444600014,None,644.005444600014,None,,,,,,,,,,,P031,FENCOG,2,Pre,2022_Mar_22_1049,Go No-Go Task,2021.1.4,120.13916923838183,
,"Rule: When you see a yellow image, do not press 'spacebar'.",Images/Happy/HF09_HE.jpg,Happy,Blue,Images/Blue.jpg,space,ParentConditions/YellowYellowBlue_v2.xlsx,YellowYellowBlue,Conditions/Version_2/YellowFearStop.xlsx,no,PASS,0.5416297044271999,,,,,,,,,0,0,0,1,0,0,0,0,0,52,52,52,,,,,,,,,,,,,,,,,,,,,,,,,,,,,,,,,,,,,,,,,,,,,,,,,,,,,,,,,,,,,,,,,,,,,,,,,,,,,,,1.36,644.4045903000515,None,space,1,0.2915170000051148,645.871552800003,None,645.871552800003,None,645.871552800003,None,,,,,,,,,,,P031,FENCOG,2,Pre,2022_Mar_22_1049,Go No-Go Task,2021.1.4,120.13916923838183,
,"Rule: When you see a yellow image, do not press 'spacebar'.",Images/Happy/WF11_HE.jpg,Happy,Blue,Images/Blue.jpg,space,ParentConditions/YellowYellowBlue_v2.xlsx,YellowYellowBlue,Conditions/Version_2/YellowFearStop.xlsx,no,PASS,0.3923399468002319,,,,,,,,,0,0,0,1,0,0,0,0,0,53,53,53,,,,,,,,,,,,,,,,,,,,,,,,,,,,,,,,,,,,,,,,,,,,,,,,,,,,,,,,,,,,,,,,,,,,,,,,,,,,,,,1.82,646.2731804000214,None,space,1,0.31924069998785853,648.195829000033,None,648.195829000033,None,648.195829000033,None,,,,,,,,,,,P031,FENCOG,2,Pre,2022_Mar_22_1049,Go No-Go Task,2021.1.4,120.13916923838183,
,"Rule: When you see a yellow image, do not press 'spacebar'.",Images/Fearful/AM04AFS.jpg,Fear,Yellow,Images/Yellow.jpg,None,ParentConditions/YellowYellowBlue_v2.xlsx,YellowYellowBlue,Conditions/Version_2/YellowFearStop.xlsx,yes,PASS,0.7106263735051498,,,,,,,,,0,0,0,1,0,0,0,0,0,54,54,54,,,,,,,,,,,,,,,,,,,,,,,,,,,,,,,,,,,,,,,,,,,,,,,,,,,,,,,,,,,,,,,,,,,,,,,,,,,,,,,1.67,648.5965548999957,None,None,1,,650.3702020000201,None,650.3702020000201,None,650.3702020000201,None,,,,,,,,,,,P031,FENCOG,2,Pre,2022_Mar_22_1049,Go No-Go Task,2021.1.4,120.13916923838183,
,"Rule: When you see a yellow image, do not press 'spacebar'.",Images/Happy/AF19HAS.jpg,Happy,Blue,Images/Blue.jpg,space,ParentConditions/YellowYellowBlue_v2.xlsx,YellowYellowBlue,Conditions/Version_2/YellowFearStop.xlsx,no,PASS,0.3419128984214137,,,,,,,,,0,0,0,1,0,0,0,0,0,55,55,55,,,,,,,,,,,,,,,,,,,,,,,,,,,,,,,,,,,,,,,,,,,,,,,,,,,,,,,,,,,,,,,,,,,,,,,,,,,,,,,1.23,650.7709018000169,None,space,1,0.3082152000279166,652.102966400038,None,652.102966400038,None,652.102966400038,None,,,,,,,,,,,P031,FENCOG,2,Pre,2022_Mar_22_1049,Go No-Go Task,2021.1.4,120.13916923838183,
,"Rule: When you see a yellow image, do not press 'spacebar'.",Images/Happy/HM06_HO.jpg,Happy,Blue,Images/Blue.jpg,space,ParentConditions/YellowYellowBlue_v2.xlsx,YellowYellowBlue,Conditions/Version_2/YellowFearStop.xlsx,no,PASS,0.8215154078276994,,,,,,,,,0,0,0,1,0,0,0,0,0,56,56,56,,,,,,,,,,,,,,,,,,,,,,,,,,,,,,,,,,,,,,,,,,,,,,,,,,,,,,,,,,,,,,,,,,,,,,,,,,,,,,,1.44,652.5035873000161,None,space,1,0.271109199966304,654.0437631999957,None,654.0437631999957,None,654.0437631999957,None,,,,,,,,,,,P031,FENCOG,2,Pre,2022_Mar_22_1049,Go No-Go Task,2021.1.4,120.13916923838183,
,"Rule: When you see a yellow image, do not press 'spacebar'.",Images/Happy/HF05_HO.jpg,Happy,Blue,Images/Blue.jpg,space,ParentConditions/YellowYellowBlue_v2.xlsx,YellowYellowBlue,Conditions/Version_2/YellowFearStop.xlsx,no,PASS,0.4418945189155604,,,,,,,,,0,0,0,1,0,0,0,0,0,57,57,57,,,,,,,,,,,,,,,,,,,,,,,,,,,,,,,,,,,,,,,,,,,,,,,,,,,,,,,,,,,,,,,,,,,,,,,,,,,,,,,1.99,654.4427495000418,None,space,1,0.2922584000043571,656.5345951000345,None,656.5345951000345,None,656.5345951000345,None,,,,,,,,,,,P031,FENCOG,2,Pre,2022_Mar_22_1049,Go No-Go Task,2021.1.4,120.13916923838183,
,"Rule: When you see a yellow image, do not press 'spacebar'.",Images/Fearful/AF01_FO.jpg,Fear,Yellow,Images/Yellow.jpg,None,ParentConditions/YellowYellowBlue_v2.xlsx,YellowYellowBlue,Conditions/Version_2/YellowFearStop.xlsx,yes,PASS,0.9630260753042453,,,,,,,,,0,0,0,1,0,0,0,0,0,58,58,58,,,,,,,,,,,,,,,,,,,,,,,,,,,,,,,,,,,,,,,,,,,,,,,,,,,,,,,,,,,,,,,,,,,,,,,,,,,,,,,1.87,656.9337044000276,None,None,1,,658.909099200042,None,658.909099200042,None,658.909099200042,None,,,,,,,,,,,P031,FENCOG,2,Pre,2022_Mar_22_1049,Go No-Go Task,2021.1.4,120.13916923838183,
,"Rule: When you see a yellow image, do not press 'spacebar'.",Images/Happy/AF21HAS.jpg,Happy,Blue,Images/Blue.jpg,space,ParentConditions/YellowYellowBlue_v2.xlsx,YellowYellowBlue,Conditions/Version_2/YellowFearStop.xlsx,no,PASS,0.5410977161582079,,,,,,,,,0,0,0,1,0,0,0,0,0,59,59,59,,,,,,,,,,,,,,,,,,,,,,,,,,,,,,,,,,,,,,,,,,,,,,,,,,,,,,,,,,,,,,,,,,,,,,,,,,,,,,,1.85,659.3079634000314,None,space,1,0.25663750001695007,661.2582049000193,None,661.2582049000193,None,661.2582049000193,None,,,,,,,,,,,P031,FENCOG,2,Pre,2022_Mar_22_1049,Go No-Go Task,2021.1.4,120.13916923838183,
,"Rule: When you see a yellow image, do not press 'spacebar'.",Images/Happy/AM06_HC.jpg,Happy,Blue,Images/Blue.jpg,space,ParentConditions/YellowYellowBlue_v2.xlsx,YellowYellowBlue,Conditions/Version_2/YellowFearStop.xlsx,no,PASS,0.8195458073624309,,,,,,,,,0,0,0,1,0,0,0,0,0,60,60,60,,,,,,,,,,,,,,,,,,,,,,,,,,,,,,,,,,,,,,,,,,,,,,,,,,,,,,,,,,,,,,,,,,,,,,,,,,,,,,,1.45,661.65733680001,None,space,1,0.2912194000091404,663.2077057000133,None,663.2077057000133,None,663.2077057000133,None,,,,,,,,,,,P031,FENCOG,2,Pre,2022_Mar_22_1049,Go No-Go Task,2021.1.4,120.13916923838183,
,"Rule: When you see a yellow image, do not press 'spacebar'.",Images/Fearful/AF02AFS.jpg,Fear,Yellow,Images/Yellow.jpg,None,ParentConditions/YellowYellowBlue_v2.xlsx,YellowYellowBlue,Conditions/Version_2/YellowFearStop.xlsx,yes,PASS,0.43475605439224807,,,,,,,,,0,0,0,1,0,0,0,0,0,61,61,61,,,,,,,,,,,,,,,,,,,,,,,,,,,,,,,,,,,,,,,,,,,,,,,,,,,,,,,,,,,,,,,,,,,,,,,,,,,,,,,1.89,663.6067463000072,None,None,1,,665.5985994000221,None,665.5985994000221,None,665.5985994000221,None,,,,,,,,,,,P031,FENCOG,2,Pre,2022_Mar_22_1049,Go No-Go Task,2021.1.4,120.13916923838183,
,"Rule: When you see a yellow image, do not press 'spacebar'.",Images/Happy/AF25HAS.jpg,Happy,Blue,Images/Blue.jpg,space,ParentConditions/YellowYellowBlue_v2.xlsx,YellowYellowBlue,Conditions/Version_2/YellowFearStop.xlsx,no,PASS,0.35344562160834636,,,,,,,,,0,0,0,1,0,0,0,0,0,62,62,62,,,,,,,,,,,,,,,,,,,,,,,,,,,,,,,,,,,,,,,,,,,,,,,,,,,,,,,,,,,,,,,,,,,,,,,,,,,,,,,1.63,665.9976919000037,None,space,1,0.2713979000109248,667.7313596000313,None,667.7313596000313,None,667.7313596000313,None,,,,,,,,,,,P031,FENCOG,2,Pre,2022_Mar_22_1049,Go No-Go Task,2021.1.4,120.13916923838183,
,"Rule: When you see a yellow image, do not press 'spacebar'.",Images/Happy/AM32HAS.jpg,Happy,Blue,Images/Blue.jpg,space,ParentConditions/YellowYellowBlue_v2.xlsx,YellowYellowBlue,Conditions/Version_2/YellowFearStop.xlsx,no,PASS,0.10846156836896592,,,,,,,,,0,0,0,1,0,0,0,0,0,63,63,63,,,,,,,,,,,,,,,,,,,,,,,,,,,,,,,,,,,,,,,,,,,,,,,,,,,,,,,,,,,,,,,,,,,,,,,,,,,,,,,1.49,668.1303519000066,None,space,1,0.2964179999544285,669.7223503999994,None,669.7223503999994,None,669.7223503999994,None,,,,,,,,,,,P031,FENCOG,2,Pre,2022_Mar_22_1049,Go No-Go Task,2021.1.4,120.13916923838183,
,"Rule: When you see a yellow image, do not press 'spacebar'.",Images/Fearful/AM02_FO.jpg,Fear,Yellow,Images/Yellow.jpg,None,ParentConditions/YellowYellowBlue_v2.xlsx,YellowYellowBlue,Conditions/Version_2/YellowFearStop.xlsx,yes,PASS,0.093492050295921,,,,,,,,,0,0,0,1,0,0,0,0,0,64,64,64,,,,,,,,,,,,,,,,,,,,,,,,,,,,,,,,,,,,,,,,,,,,,,,,,,,,,,,,,,,,,,,,,,,,,,,,,,,,,,,1.43,670.1215441999957,None,None,1,,671.6553942000028,None,671.6553942000028,None,671.6553942000028,None,,,,,,,,,,,P031,FENCOG,2,Pre,2022_Mar_22_1049,Go No-Go Task,2021.1.4,120.13916923838183,
,"Rule: When you see a yellow image, do not press 'spacebar'.",Images/Fearful/BM02_FC.jpg,Fear,Yellow,Images/Yellow.jpg,None,ParentConditions/YellowYellowBlue_v2.xlsx,YellowYellowBlue,Conditions/Version_2/YellowFearStop.xlsx,yes,PASS,0.8390777988560751,,,,,,,,,0,0,0,1,0,0,0,0,0,65,65,65,,,,,,,,,,,,,,,,,,,,,,,,,,,,,,,,,,,,,,,,,,,,,,,,,,,,,,,,,,,,,,,,,,,,,,,,,,,,,,,1.66,672.0543363000033,None,None,1,,673.821160200052,None,673.821160200052,None,673.821160200052,None,,,,,,,,,,,P031,FENCOG,2,Pre,2022_Mar_22_1049,Go No-Go Task,2021.1.4,120.13916923838183,
,"Rule: When you see a yellow image, do not press 'spacebar'.",Images/Happy/AM04_HE.jpg,Happy,Blue,Images/Blue.jpg,space,ParentConditions/YellowYellowBlue_v2.xlsx,YellowYellowBlue,Conditions/Version_2/YellowFearStop.xlsx,no,PASS,0.268677407796428,,,,,,,,,0,0,0,1,0,0,0,0,0,66,66,66,,,,,,,,,,,,,,,,,,,,,,,,,,,,,,,,,,,,,,,,,,,,,,,,,,,,,,,,,,,,,,,,,,,,,,,,,,,,,,,1.28,674.2202132000239,None,space,1,0.28676039999118075,675.6039667000296,None,675.6039667000296,None,675.6039667000296,None,,,,,,,,,,,P031,FENCOG,2,Pre,2022_Mar_22_1049,Go No-Go Task,2021.1.4,120.13916923838183,
,"Rule: When you see a yellow image, do not press 'spacebar'.",Images/Fearful/AM05AFS.jpg,Fear,Yellow,Images/Yellow.jpg,None,ParentConditions/YellowYellowBlue_v2.xlsx,YellowYellowBlue,Conditions/Version_2/YellowFearStop.xlsx,yes,PASS,0.6951263252071049,,,,,,,,,0,0,0,1,0,0,0,0,0,67,67,67,,,,,,,,,,,,,,,,,,,,,,,,,,,,,,,,,,,,,,,,,,,,,,,,,,,,,,,,,,,,,,,,,,,,,,,,,,,,,,,1.42,676.003068400023,None,None,1,,677.5283925000113,None,677.5283925000113,None,677.5283925000113,None,,,,,,,,,,,P031,FENCOG,2,Pre,2022_Mar_22_1049,Go No-Go Task,2021.1.4,120.13916923838183,
,"Rule: When you see a yellow image, do not press 'spacebar'.",Images/Happy/AF28HAS.jpg,Happy,Blue,Images/Blue.jpg,space,ParentConditions/YellowYellowBlue_v2.xlsx,YellowYellowBlue,Conditions/Version_2/YellowFearStop.xlsx,no,PASS,0.25032705960911217,,,,,,,,,0,0,0,1,0,0,0,0,0,68,68,68,,,,,,,,,,,,,,,,,,,,,,,,,,,,,,,,,,,,,,,,,,,,,,,,,,,,,,,,,,,,,,,,,,,,,,,,,,,,,,,1.25,677.9274696000502,None,space,1,0.3328693999792449,679.2779294000356,None,679.2779294000356,None,679.2779294000356,None,,,,,,,,,,,P031,FENCOG,2,Pre,2022_Mar_22_1049,Go No-Go Task,2021.1.4,120.13916923838183,
,"Rule: When you see a yellow image, do not press 'spacebar'.",Images/Happy/AF07_HO.jpg,Happy,Blue,Images/Blue.jpg,space,ParentConditions/YellowYellowBlue_v2.xlsx,YellowYellowBlue,Conditions/Version_2/YellowFearStop.xlsx,no,PASS,0.293841477080362,,,,,,,,,0,0,0,1,0,0,0,0,0,69,69,69,,,,,,,,,,,,,,,,,,,,,,,,,,,,,,,,,,,,,,,,,,,,,,,,,,,,,,,,,,,,,,,,,,,,,,,,,,,,,,,1.2,679.67696110002,None,space,1,0.30590310000116006,680.9774238000391,None,680.9774238000391,None,680.9774238000391,None,,,,,,,,,,,P031,FENCOG,2,Pre,2022_Mar_22_1049,Go No-Go Task,2021.1.4,120.13916923838183,
,"Rule: When you see a yellow image, do not press 'spacebar'.",Images/Happy/BF14_HO.jpg,Happy,Blue,Images/Blue.jpg,space,ParentConditions/YellowYellowBlue_v2.xlsx,YellowYellowBlue,Conditions/Version_2/YellowFearStop.xlsx,no,PASS,0.40422519447396765,,,,,,,,,0,0,0,1,0,0,0,0,0,70,70,70,,,,,,,,,,,,,,,,,,,,,,,,,,,,,,,,,,,,,,,,,,,,,,,,,,,,,,,,,,,,,,,,,,,,,,,,,,,,,,,1.32,681.3764921000111,None,space,1,0.3129905000096187,682.8018122000503,None,682.8018122000503,None,682.8018122000503,None,,,,,,,,,,,P031,FENCOG,2,Pre,2022_Mar_22_1049,Go No-Go Task,2021.1.4,120.13916923838183,
,"Rule: When you see a yellow image, do not press 'spacebar'.",Images/Fearful/AF07FS.jpg,Fear,Yellow,Images/Yellow.jpg,None,ParentConditions/YellowYellowBlue_v2.xlsx,YellowYellowBlue,Conditions/Version_2/YellowFearStop.xlsx,yes,PASS,0.7059954464635801,,,,,,,,,0,0,0,1,0,0,0,0,0,71,71,71,,,,,,,,,,,,,,,,,,,,,,,,,,,,,,,,,,,,,,,,,,,,,,,,,,,,,,,,,,,,,,,,,,,,,,,,,,,,,,,1.52,683.2009215000435,None,None,1,,684.8262240000186,None,684.8262240000186,None,684.8262240000186,None,,,,,,,,,,,P031,FENCOG,2,Pre,2022_Mar_22_1049,Go No-Go Task,2021.1.4,120.13916923838183,
,"Rule: When you see a yellow image, do not press 'spacebar'.",Images/Happy/AF32HAS.jpg,Happy,Blue,Images/Blue.jpg,space,ParentConditions/YellowYellowBlue_v2.xlsx,YellowYellowBlue,Conditions/Version_2/YellowFearStop.xlsx,no,PASS,0.6505932127186488,,,,,,,,,0,0,0,1,0,0,0,0,0,72,72,72,,,,,,,,,,,,,,,,,,,,,,,,,,,,,,,,,,,,,,,,,,,,,,,,,,,,,,,,,,,,,,,,,,,,,,,,,,,,,,,1.29,685.2252768000471,None,space,1,0.2820711000240408,686.6090789000154,None,686.6090789000154,None,686.6090789000154,None,,,,,,,,,,,P031,FENCOG,2,Pre,2022_Mar_22_1049,Go No-Go Task,2021.1.4,120.13916923838183,
,"Rule: When you see a yellow image, do not press 'spacebar'.",Images/Happy/AF11HAS.jpg,Happy,Blue,Images/Blue.jpg,space,ParentConditions/YellowYellowBlue_v2.xlsx,YellowYellowBlue,Conditions/Version_2/YellowFearStop.xlsx,no,PASS,0.22413936824153813,,,,,,,,,0,0,0,1,0,0,0,0,0,73,73,73,,,,,,,,,,,,,,,,,,,,,,,,,,,,,,,,,,,,,,,,,,,,,,,,,,,,,,,,,,,,,,,,,,,,,,,,,,,,,,,1.75,687.008108500042,None,space,1,0.3123861000058241,688.858408900036,None,688.858408900036,None,688.858408900036,None,,,,,,,,,,,P031,FENCOG,2,Pre,2022_Mar_22_1049,Go No-Go Task,2021.1.4,120.13916923838183,
,"Rule: When you see a yellow image, do not press 'spacebar'.",Images/Happy/AM19HAS.jpg,Happy,Blue,Images/Blue.jpg,space,ParentConditions/YellowYellowBlue_v2.xlsx,YellowYellowBlue,Conditions/Version_2/YellowFearStop.xlsx,no,PASS,0.5367328627339492,,,,,,,,,0,0,0,1,0,0,0,0,0,74,74,74,,,,,,,,,,,,,,,,,,,,,,,,,,,,,,,,,,,,,,,,,,,,,,,,,,,,,,,,,,,,,,,,,,,,,,,,,,,,,,,1.56,689.2574367000489,None,space,1,0.3181965000112541,690.9244902000064,None,690.9244902000064,None,690.9244902000064,None,,,,,,,,,,,P031,FENCOG,2,Pre,2022_Mar_22_1049,Go No-Go Task,2021.1.4,120.13916923838183,
,"Rule: When you see a yellow image, do not press 'spacebar'.",Images/Happy/AM01HAS.jpg,Happy,Blue,Images/Blue.jpg,space,ParentConditions/YellowYellowBlue_v2.xlsx,YellowYellowBlue,Conditions/Version_2/YellowFearStop.xlsx,no,PASS,0.4512238869721793,,,,,,,,,0,0,0,1,0,0,0,0,0,75,75,75,,,,,,,,,,,,,,,,,,,,,,,,,,,,,,,,,,,,,,,,,,,,,,,,,,,,,,,,,,,,,,,,,,,,,,,,,,,,,,,1.31,691.323543000035,None,space,1,0.3181305000325665,692.7405244000256,None,692.7405244000256,None,692.7405244000256,None,,,,,,,,,,,P031,FENCOG,2,Pre,2022_Mar_22_1049,Go No-Go Task,2021.1.4,120.13916923838183,
,"Rule: When you see a yellow image, do not press 'spacebar'.",Images/Happy/WF05_HC.jpg,Happy,Blue,Images/Blue.jpg,space,ParentConditions/YellowYellowBlue_v2.xlsx,YellowYellowBlue,Conditions/Version_2/YellowFearStop.xlsx,no,PASS,0.7681499259335962,,,,,,,,,0,0,0,1,0,0,0,0,0,76,76,76,,,,,,,,,,,,,,,,,,,,,,,,,,,,,,,,,,,,,,,,,,,,,,,,,,,,,,,,,,,,,,,,,,,,,,,,,,,,,,,1.88,693.1396613999968,None,space,1,0.263865299988538,695.1149045000202,None,695.1149045000202,None,695.1149045000202,None,,,,,,,,,,,P031,FENCOG,2,Pre,2022_Mar_22_1049,Go No-Go Task,2021.1.4,120.13916923838183,
,"Rule: When you see a yellow image, do not press 'spacebar'.",Images/Happy/BM03_HO.jpg,Happy,Blue,Images/Blue.jpg,space,ParentConditions/YellowYellowBlue_v2.xlsx,YellowYellowBlue,Conditions/Version_2/YellowFearStop.xlsx,no,PASS,0.5824047138137685,,,,,,,,,0,0,0,1,0,0,0,0,0,77,77,77,,,,,,,,,,,,,,,,,,,,,,,,,,,,,,,,,,,,,,,,,,,,,,,,,,,,,,,,,,,,,,,,,,,,,,,,,,,,,,,1.8,695.513902900042,None,space,1,0.31690570001956075,697.405795800034,None,697.405795800034,None,697.405795800034,None,,,,,,,,,,,P031,FENCOG,2,Pre,2022_Mar_22_1049,Go No-Go Task,2021.1.4,120.13916923838183,
,"Rule: When you see a yellow image, do not press 'spacebar'.",Images/Happy/AM02_HE.jpg,Happy,Blue,Images/Blue.jpg,space,ParentConditions/YellowYellowBlue_v2.xlsx,YellowYellowBlue,Conditions/Version_2/YellowFearStop.xlsx,no,PASS,0.8791068347561973,,,,,,,,,0,0,0,1,0,0,0,0,0,78,78,78,,,,,,,,,,,,,,,,,,,,,,,,,,,,,,,,,,,,,,,,,,,,,,,,,,,,,,,,,,,,,,,,,,,,,,,,,,,,,,,1.93,697.8049631000031,None,space,1,0.29232909996062517,699.8383976000478,None,699.8383976000478,None,699.8383976000478,None,,,,,,,,,,,P031,FENCOG,2,Pre,2022_Mar_22_1049,Go No-Go Task,2021.1.4,120.13916923838183,
,"Rule: When you see a yellow image, do not press 'spacebar'.",Images/Fearful/AM06_FO.jpg,Fear,Yellow,Images/Yellow.jpg,None,ParentConditions/YellowYellowBlue_v2.xlsx,YellowYellowBlue,Conditions/Version_2/YellowFearStop.xlsx,yes,PASS,0.40627235988994603,,,,,,,,,0,0,0,1,0,0,0,0,0,79,79,79,,,,,,,,,,,,,,,,,,,,,,,,,,,,,,,,,,,,,,,,,,,,,,,,,,,,,,,,,,,,,,,,,,,,,,,,,,,,,,,1.39,700.2374903000309,None,None,1,,701.7212155000307,None,701.7212155000307,None,701.7212155000307,None,,,,,,,,,,,P031,FENCOG,2,Pre,2022_Mar_22_1049,Go No-Go Task,2021.1.4,120.13916923838183,
,"Rule: When you see a yellow image, do not press 'spacebar'.",Images/Scram2/HM09_NC.jpg,Scramble,Blue,Images/Blue.jpg,space,ParentConditions/YellowYellowBlue_v2.xlsx,YellowYellowBlue,Conditions/Version_2/YellowScramStop.xlsx,no,PASS,0.46719820189093064,,,,,,,,,0,0,0,1,0,1,1,1,0,0,0,0,,,,,,,,,,,,,,,,,,,,,,,,,,,,,,,,,,,,,,,,,,,,,,,,,,,,,,,,,,,,,,,,,1093.8139925000141,None,1096.8038013000041,None,space,1.326361800020095,1096.8038013000041,None,1093.8139925000141,None,1093.8139925000141,None,1093.8139925000141,None,1.71,1098.1864874000312,None,space,1,0.3340524999657646,1100.020006900013,None,1100.020006900013,None,1100.020006900013,None,702.1286605000496,None,space,391.17372059996706,702.6202767000068,None,702.1286605000496,None,702.1286605000496,None,P031,FENCOG,2,Pre,2022_Mar_22_1049,Go No-Go Task,2021.1.4,120.13916923838183,
,"Rule: When you see a yellow image, do not press 'spacebar'.",Images/Scram2/HM06_NC.jpg,Scramble,Blue,Images/Blue.jpg,space,ParentConditions/YellowYellowBlue_v2.xlsx,YellowYellowBlue,Conditions/Version_2/YellowScramStop.xlsx,no,PASS,0.564231421897386,,,,,,,,,0,0,0,1,0,1,1,1,0,1,1,1,,,,,,,,,,,,,,,,,,,,,,,,,,,,,,,,,,,,,,,,,,,,,,,,,,,,,,,,,,,,,,,,,,,,,,,,,,,,,,,1.28,1100.4065713000018,None,space,1,0.27118440001504496,1101.8029425000423,None,1101.8029425000423,None,1101.8029425000423,None,,,,,,,,,,,P031,FENCOG,2,Pre,2022_Mar_22_1049,Go No-Go Task,2021.1.4,120.13916923838183,
,"Rule: When you see a yellow image, do not press 'spacebar'.",Images/Scram1/AM31NES.jpg,Scramble,Blue,Images/Blue.jpg,space,ParentConditions/YellowYellowBlue_v2.xlsx,YellowYellowBlue,Conditions/Version_2/YellowScramStop.xlsx,no,PASS,0.846238330522312,,,,,,,,,0,0,0,1,0,1,1,1,0,2,2,2,,,,,,,,,,,,,,,,,,,,,,,,,,,,,,,,,,,,,,,,,,,,,,,,,,,,,,,,,,,,,,,,,,,,,,,,,,,,,,,1.64,1102.2019164000521,None,space,1,0.28973219997715205,1103.952279900026,None,1103.952279900026,None,1103.952279900026,None,,,,,,,,,,,P031,FENCOG,2,Pre,2022_Mar_22_1049,Go No-Go Task,2021.1.4,120.13916923838183,
,"Rule: When you see a yellow image, do not press 'spacebar'.",Images/Scram2/AM03NES.jpg,Scramble,Yellow,Images/Yellow.jpg,None,ParentConditions/YellowYellowBlue_v2.xlsx,YellowYellowBlue,Conditions/Version_2/YellowScramStop.xlsx,yes,PASS,0.3566483684653988,,,,,,,,,0,0,0,1,0,1,1,1,0,3,3,3,,,,,,,,,,,,,,,,,,,,,,,,,,,,,,,,,,,,,,,,,,,,,,,,,,,,,,,,,,,,,,,,,,,,,,,,,,,,,,,1.99,1104.3512112000026,None,None,1,,1106.451501100033,None,1106.451501100033,None,1106.451501100033,None,,,,,,,,,,,P031,FENCOG,2,Pre,2022_Mar_22_1049,Go No-Go Task,2021.1.4,120.13916923838183,
,"Rule: When you see a yellow image, do not press 'spacebar'.",Images/Scram2/BM01_NC.jpg,Scramble,Blue,Images/Blue.jpg,space,ParentConditions/YellowYellowBlue_v2.xlsx,YellowYellowBlue,Conditions/Version_2/YellowScramStop.xlsx,no,PASS,0.6300515820310504,,,,,,,,,0,0,0,1,0,1,1,1,0,4,4,4,,,,,,,,,,,,,,,,,,,,,,,,,,,,,,,,,,,,,,,,,,,,,,,,,,,,,,,,,,,,,,,,,,,,,,,,,,,,,,,1.38,1106.8504924000008,None,space,1,0.2354804000351578,1108.342616500042,None,1108.342616500042,None,1108.342616500042,None,,,,,,,,,,,P031,FENCOG,2,Pre,2022_Mar_22_1049,Go No-Go Task,2021.1.4,120.13916923838183,
,"Rule: When you see a yellow image, do not press 'spacebar'.",Images/Scram1/HM09_NC.jpg,Scramble,Blue,Images/Blue.jpg,space,ParentConditions/YellowYellowBlue_v2.xlsx,YellowYellowBlue,Conditions/Version_2/YellowScramStop.xlsx,no,PASS,0.9681952009545239,,,,,,,,,0,0,0,1,0,1,1,1,0,5,5,5,,,,,,,,,,,,,,,,,,,,,,,,,,,,,,,,,,,,,,,,,,,,,,,,,,,,,,,,,,,,,,,,,,,,,,,,,,,,,,,1.2,1108.7415056000464,None,space,1,0.263587599969469,1110.0504038000363,None,1110.0504038000363,None,1110.0504038000363,None,,,,,,,,,,,P031,FENCOG,2,Pre,2022_Mar_22_1049,Go No-Go Task,2021.1.4,120.13916923838183,
,"Rule: When you see a yellow image, do not press 'spacebar'.",Images/Scram2/BF07_NC.jpg,Scramble,Blue,Images/Blue.jpg,space,ParentConditions/YellowYellowBlue_v2.xlsx,YellowYellowBlue,Conditions/Version_2/YellowScramStop.xlsx,no,PASS,0.21646267744166114,,,,,,,,,0,0,0,1,0,1,1,1,0,6,6,6,,,,,,,,,,,,,,,,,,,,,,,,,,,,,,,,,,,,,,,,,,,,,,,,,,,,,,,,,,,,,,,,,,,,,,,,,,,,,,,1.47,1110.4494646000094,None,space,1,0.25707500003045425,1112.033172800031,None,1112.033172800031,None,1112.033172800031,None,,,,,,,,,,,P031,FENCOG,2,Pre,2022_Mar_22_1049,Go No-Go Task,2021.1.4,120.13916923838183,
,"Rule: When you see a yellow image, do not press 'spacebar'.",Images/Scram1/BF14_NC.jpg,Scramble,Blue,Images/Blue.jpg,space,ParentConditions/YellowYellowBlue_v2.xlsx,YellowYellowBlue,Conditions/Version_2/YellowScramStop.xlsx,no,PASS,0.9846643703258401,,,,,,,,,0,0,0,1,0,1,1,1,0,7,7,7,,,,,,,,,,,,,,,,,,,,,,,,,,,,,,,,,,,,,,,,,,,,,,,,,,,,,,,,,,,,,,,,,,,,,,,,,,,,,,,1.42,1112.4321667000186,None,space,1,0.26016449998132885,1113.9659836000064,None,1113.9659836000064,None,1113.9659836000064,None,,,,,,,,,,,P031,FENCOG,2,Pre,2022_Mar_22_1049,Go No-Go Task,2021.1.4,120.13916923838183,
,"Rule: When you see a yellow image, do not press 'spacebar'.",Images/Scram2/AF10_NC.jpg,Scramble,Blue,Images/Blue.jpg,space,ParentConditions/YellowYellowBlue_v2.xlsx,YellowYellowBlue,Conditions/Version_2/YellowScramStop.xlsx,no,PASS,0.2443614348279377,,,,,,,,,0,0,0,1,0,1,1,1,0,8,8,8,,,,,,,,,,,,,,,,,,,,,,,,,,,,,,,,,,,,,,,,,,,,,,,,,,,,,,,,,,,,,,,,,,,,,,,,,,,,,,,1.97,1114.364916599996,None,space,1,0.233457800000906,1116.448548400018,None,1116.448548400018,None,1116.448548400018,None,,,,,,,,,,,P031,FENCOG,2,Pre,2022_Mar_22_1049,Go No-Go Task,2021.1.4,120.13916923838183,
,"Rule: When you see a yellow image, do not press 'spacebar'.",Images/Scram2/AF01_NC.jpg,Scramble,Blue,Images/Blue.jpg,space,ParentConditions/YellowYellowBlue_v2.xlsx,YellowYellowBlue,Conditions/Version_2/YellowScramStop.xlsx,no,PASS,0.5418077894665677,,,,,,,,,0,0,0,1,0,1,1,1,0,9,9,9,,,,,,,,,,,,,,,,,,,,,,,,,,,,,,,,,,,,,,,,,,,,,,,,,,,,,,,,,,,,,,,,,,,,,,,,,,,,,,,1.21,1116.8474819000112,None,space,1,0.29279209999367595,1118.1730226000072,None,1118.1730226000072,None,1118.1730226000072,None,,,,,,,,,,,P031,FENCOG,2,Pre,2022_Mar_22_1049,Go No-Go Task,2021.1.4,120.13916923838183,
,"Rule: When you see a yellow image, do not press 'spacebar'.",Images/Scram2/AF24NES.jpg,Scramble,Blue,Images/Blue.jpg,space,ParentConditions/YellowYellowBlue_v2.xlsx,YellowYellowBlue,Conditions/Version_2/YellowScramStop.xlsx,no,PASS,0.5679342954932528,,,,,,,,,0,0,0,1,0,1,1,1,0,10,10,10,,,,,,,,,,,,,,,,,,,,,,,,,,,,,,,,,,,,,,,,,,,,,,,,,,,,,,,,,,,,,,,,,,,,,,,,,,,,,,,1.41,1118.5720736000221,None,space,1,0.2565449000103399,1120.097438900033,None,1120.097438900033,None,1120.097438900033,None,,,,,,,,,,,P031,FENCOG,2,Pre,2022_Mar_22_1049,Go No-Go Task,2021.1.4,120.13916923838183,
,"Rule: When you see a yellow image, do not press 'spacebar'.",Images/Scram2/BF14_NC.jpg,Scramble,Blue,Images/Blue.jpg,space,ParentConditions/YellowYellowBlue_v2.xlsx,YellowYellowBlue,Conditions/Version_2/YellowScramStop.xlsx,no,PASS,0.8825179199303765,,,,,,,,,0,0,0,1,0,1,1,1,0,11,11,11,,,,,,,,,,,,,,,,,,,,,,,,,,,,,,,,,,,,,,,,,,,,,,,,,,,,,,,,,,,,,,,,,,,,,,,,,,,,,,,1.58,1120.496335700038,None,space,1,0.26168880000477657,1122.1886132000363,None,1122.1886132000363,None,1122.1886132000363,None,,,,,,,,,,,P031,FENCOG,2,Pre,2022_Mar_22_1049,Go No-Go Task,2021.1.4,120.13916923838183,
,"Rule: When you see a yellow image, do not press 'spacebar'.",Images/Scram1/AM13NES.jpg,Scramble,Blue,Images/Blue.jpg,space,ParentConditions/YellowYellowBlue_v2.xlsx,YellowYellowBlue,Conditions/Version_2/YellowScramStop.xlsx,no,PASS,0.21043647733489834,,,,,,,,,0,0,0,1,0,1,1,1,0,12,12,12,,,,,,,,,,,,,,,,,,,,,,,,,,,,,,,,,,,,,,,,,,,,,,,,,,,,,,,,,,,,,,,,,,,,,,,,,,,,,,,1.74,1122.5844303000486,None,space,1,0.25210189999779686,1124.4378517000005,None,1124.4378517000005,None,1124.4378517000005,None,,,,,,,,,,,P031,FENCOG,2,Pre,2022_Mar_22_1049,Go No-Go Task,2021.1.4,120.13916923838183,
,"Rule: When you see a yellow image, do not press 'spacebar'.",Images/Scram1/HM04_NC.jpg,Scramble,Blue,Images/Blue.jpg,space,ParentConditions/YellowYellowBlue_v2.xlsx,YellowYellowBlue,Conditions/Version_2/YellowScramStop.xlsx,no,PASS,0.048118244636673246,,,,,,,,,0,0,0,1,0,1,1,1,0,13,13,13,,,,,,,,,,,,,,,,,,,,,,,,,,,,,,,,,,,,,,,,,,,,,,,,,,,,,,,,,,,,,,,,,,,,,,,,,,,,,,,1.94,1124.8367958000163,None,space,1,0.25082459999248385,1126.8871572000207,None,1126.8871572000207,None,1126.8871572000207,None,,,,,,,,,,,P031,FENCOG,2,Pre,2022_Mar_22_1049,Go No-Go Task,2021.1.4,120.13916923838183,
,"Rule: When you see a yellow image, do not press 'spacebar'.",Images/Scram1/AM03NES.jpg,Scramble,Blue,Images/Blue.jpg,space,ParentConditions/YellowYellowBlue_v2.xlsx,YellowYellowBlue,Conditions/Version_2/YellowScramStop.xlsx,no,PASS,0.5072407620323995,,,,,,,,,0,0,0,1,0,1,1,1,0,14,14,14,,,,,,,,,,,,,,,,,,,,,,,,,,,,,,,,,,,,,,,,,,,,,,,,,,,,,,,,,,,,,,,,,,,,,,,,,,,,,,,1.93,1127.2861582000041,None,space,1,0.2582539999857545,1129.3280335000018,None,1129.3280335000018,None,1129.3280335000018,None,,,,,,,,,,,P031,FENCOG,2,Pre,2022_Mar_22_1049,Go No-Go Task,2021.1.4,120.13916923838183,
,"Rule: When you see a yellow image, do not press 'spacebar'.",Images/Scram1/AM22NES.jpg,Scramble,Blue,Images/Blue.jpg,space,ParentConditions/YellowYellowBlue_v2.xlsx,YellowYellowBlue,Conditions/Version_2/YellowScramStop.xlsx,no,PASS,0.8332736468200919,,,,,,,,,0,0,0,1,0,1,1,1,0,15,15,15,,,,,,,,,,,,,,,,,,,,,,,,,,,,,,,,,,,,,,,,,,,,,,,,,,,,,,,,,,,,,,,,,,,,,,,,,,,,,,,1.61,1129.7198462000233,None,space,1,0.27797269995789975,1131.4441324000363,None,1131.4441324000363,None,1131.4441324000363,None,,,,,,,,,,,P031,FENCOG,2,Pre,2022_Mar_22_1049,Go No-Go Task,2021.1.4,120.13916923838183,
,"Rule: When you see a yellow image, do not press 'spacebar'.",Images/Scram2/AM17NES.jpg,Scramble,Yellow,Images/Yellow.jpg,None,ParentConditions/YellowYellowBlue_v2.xlsx,YellowYellowBlue,Conditions/Version_2/YellowScramStop.xlsx,yes,PASS,0.5524440306249002,,,,,,,,,0,0,0,1,0,1,1,1,0,16,16,16,,,,,,,,,,,,,,,,,,,,,,,,,,,,,,,,,,,,,,,,,,,,,,,,,,,,,,,,,,,,,,,,,,,,,,,,,,,,,,,1.31,1131.8431315000053,None,None,1,,1133.2602055000025,None,1133.2602055000025,None,1133.2602055000025,None,,,,,,,,,,,P031,FENCOG,2,Pre,2022_Mar_22_1049,Go No-Go Task,2021.1.4,120.13916923838183,
,"Rule: When you see a yellow image, do not press 'spacebar'.",Images/Scram1/AM10NES.jpg,Scramble,Blue,Images/Blue.jpg,space,ParentConditions/YellowYellowBlue_v2.xlsx,YellowYellowBlue,Conditions/Version_2/YellowScramStop.xlsx,no,PASS,0.13699730503466545,,,,,,,,,0,0,0,1,0,1,1,1,0,17,17,17,,,,,,,,,,,,,,,,,,,,,,,,,,,,,,,,,,,,,,,,,,,,,,,,,,,,,,,,,,,,,,,,,,,,,,,,,,,,,,,1.85,1133.6636825000169,None,space,1,0.24783030000980943,1135.6261448000441,None,1135.6261448000441,None,1135.6261448000441,None,,,,,,,,,,,P031,FENCOG,2,Pre,2022_Mar_22_1049,Go No-Go Task,2021.1.4,120.13916923838183,
,"Rule: When you see a yellow image, do not press 'spacebar'.",Images/Scram2/AM03_NC.jpg,Scramble,Yellow,Images/Yellow.jpg,None,ParentConditions/YellowYellowBlue_v2.xlsx,YellowYellowBlue,Conditions/Version_2/YellowScramStop.xlsx,yes,PASS,0.2886954903206703,,,,,,,,,0,0,0,1,0,1,1,1,0,18,18,18,,,,,,,,,,,,,,,,,,,,,,,,,,,,,,,,,,,,,,,,,,,,,,,,,,,,,,,,,,,,,,,,,,,,,,,,,,,,,,,1.9,1136.0263606000226,None,None,1,,1138.0422091000364,None,1138.0422091000364,None,1138.0422091000364,None,,,,,,,,,,,P031,FENCOG,2,Pre,2022_Mar_22_1049,Go No-Go Task,2021.1.4,120.13916923838183,
,"Rule: When you see a yellow image, do not press 'spacebar'.",Images/Scram1/HF09_NC.jpg,Scramble,Blue,Images/Blue.jpg,space,ParentConditions/YellowYellowBlue_v2.xlsx,YellowYellowBlue,Conditions/Version_2/YellowScramStop.xlsx,no,PASS,0.5210471780653185,,,,,,,,,0,0,0,1,0,1,1,1,0,19,19,19,,,,,,,,,,,,,,,,,,,,,,,,,,,,,,,,,,,,,,,,,,,,,,,,,,,,,,,,,,,,,,,,,,,,,,,,,,,,,,,1.83,1138.44127390004,None,space,1,0.2669003000482917,1140.3829880999983,None,1140.3829880999983,None,1140.3829880999983,None,,,,,,,,,,,P031,FENCOG,2,Pre,2022_Mar_22_1049,Go No-Go Task,2021.1.4,120.13916923838183,
,"Rule: When you see a yellow image, do not press 'spacebar'.",Images/Scram1/BM08_NC.jpg,Scramble,Blue,Images/Blue.jpg,space,ParentConditions/YellowYellowBlue_v2.xlsx,YellowYellowBlue,Conditions/Version_2/YellowScramStop.xlsx,no,PASS,0.7192207106921986,,,,,,,,,0,0,0,1,0,1,1,1,0,20,20,20,,,,,,,,,,,,,,,,,,,,,,,,,,,,,,,,,,,,,,,,,,,,,,,,,,,,,,,,,,,,,,,,,,,,,,,,,,,,,,,1.51,1140.7857753999997,None,space,1,0.24186180002288893,1142.4079031000147,None,1142.4079031000147,None,1142.4079031000147,None,,,,,,,,,,,P031,FENCOG,2,Pre,2022_Mar_22_1049,Go No-Go Task,2021.1.4,120.13916923838183,
,"Rule: When you see a yellow image, do not press 'spacebar'.",Images/Scram1/AF32NES.jpg,Scramble,Blue,Images/Blue.jpg,space,ParentConditions/YellowYellowBlue_v2.xlsx,YellowYellowBlue,Conditions/Version_2/YellowScramStop.xlsx,no,PASS,0.3856706921106089,,,,,,,,,0,0,0,1,0,1,1,1,0,21,21,21,,,,,,,,,,,,,,,,,,,,,,,,,,,,,,,,,,,,,,,,,,,,,,,,,,,,,,,,,,,,,,,,,,,,,,,,,,,,,,,1.32,1142.8065393000143,None,space,1,0.28144530003191903,1144.2404621000169,None,1144.2404621000169,None,1144.2404621000169,None,,,,,,,,,,,P031,FENCOG,2,Pre,2022_Mar_22_1049,Go No-Go Task,2021.1.4,120.13916923838183,
,"Rule: When you see a yellow image, do not press 'spacebar'.",Images/Scram2/AM06_NC.jpg,Scramble,Yellow,Images/Yellow.jpg,None,ParentConditions/YellowYellowBlue_v2.xlsx,YellowYellowBlue,Conditions/Version_2/YellowScramStop.xlsx,yes,PASS,0.593844606938259,,,,,,,,,0,0,0,1,0,1,1,1,0,22,22,22,,,,,,,,,,,,,,,,,,,,,,,,,,,,,,,,,,,,,,,,,,,,,,,,,,,,,,,,,,,,,,,,,,,,,,,,,,,,,,,1.56,1144.6394256000058,None,None,1,,1146.3146635000012,None,1146.3146635000012,None,1146.3146635000012,None,,,,,,,,,,,P031,FENCOG,2,Pre,2022_Mar_22_1049,Go No-Go Task,2021.1.4,120.13916923838183,
,"Rule: When you see a yellow image, do not press 'spacebar'.",Images/Scram1/AM06_NC.jpg,Scramble,Blue,Images/Blue.jpg,space,ParentConditions/YellowYellowBlue_v2.xlsx,YellowYellowBlue,Conditions/Version_2/YellowScramStop.xlsx,no,PASS,0.5597751985943138,,,,,,,,,0,0,0,1,0,1,1,1,0,23,23,23,,,,,,,,,,,,,,,,,,,,,,,,,,,,,,,,,,,,,,,,,,,,,,,,,,,,,,,,,,,,,,,,,,,,,,,,,,,,,,,1.67,1146.7065796000534,None,space,1,0.22491010004887357,1148.4891483000247,None,1148.4891483000247,None,1148.4891483000247,None,,,,,,,,,,,P031,FENCOG,2,Pre,2022_Mar_22_1049,Go No-Go Task,2021.1.4,120.13916923838183,
,"Rule: When you see a yellow image, do not press 'spacebar'.",Images/Scram2/AM02_NC.jpg,Scramble,Yellow,Images/Yellow.jpg,None,ParentConditions/YellowYellowBlue_v2.xlsx,YellowYellowBlue,Conditions/Version_2/YellowScramStop.xlsx,yes,PASS,0.21014535444537008,,,,,,,,,0,0,0,1,0,1,1,1,0,24,24,24,,,,,,,,,,,,,,,,,,,,,,,,,,,,,,,,,,,,,,,,,,,,,,,,,,,,,,,,,,,,,,,,,,,,,,,,,,,,,,,2,1148.8879223000258,None,None,1,,1150.9966246000258,None,1150.9966246000258,None,1150.9966246000258,None,,,,,,,,,,,P031,FENCOG,2,Pre,2022_Mar_22_1049,Go No-Go Task,2021.1.4,120.13916923838183,
,"Rule: When you see a yellow image, do not press 'spacebar'.",Images/Scram2/HF05_NC.jpg,Scramble,Blue,Images/Blue.jpg,space,ParentConditions/YellowYellowBlue_v2.xlsx,YellowYellowBlue,Conditions/Version_2/YellowScramStop.xlsx,no,PASS,0.0025091428399978133,,,,,,,,,0,0,0,1,0,1,1,1,0,25,25,25,,,,,,,,,,,,,,,,,,,,,,,,,,,,,,,,,,,,,,,,,,,,,,,,,,,,,,,,,,,,,,,,,,,,,,,,,,,,,,,1.95,1151.3956541000516,None,space,1,0.20358410000335425,1153.4542584000155,None,1153.4542584000155,None,1153.4542584000155,None,,,,,,,,,,,P031,FENCOG,2,Pre,2022_Mar_22_1049,Go No-Go Task,2021.1.4,120.13916923838183,
,"Rule: When you see a yellow image, do not press 'spacebar'.",Images/Scram2/AF32NES.jpg,Scramble,Yellow,Images/Yellow.jpg,None,ParentConditions/YellowYellowBlue_v2.xlsx,YellowYellowBlue,Conditions/Version_2/YellowScramStop.xlsx,yes,PASS,0.5621638043526047,,,,,,,,,0,0,0,1,0,1,1,1,0,26,26,26,,,,,,,,,,,,,,,,,,,,,,,,,,,,,,,,,,,,,,,,,,,,,,,,,,,,,,,,,,,,,,,,,,,,,,,,,,,,,,,1.65,1153.853148300026,None,None,1,,1155.6119045000523,None,1155.6119045000523,None,1155.6119045000523,None,,,,,,,,,,,P031,FENCOG,2,Pre,2022_Mar_22_1049,Go No-Go Task,2021.1.4,120.13916923838183,
,"Rule: When you see a yellow image, do not press 'spacebar'.",Images/Scram2/HM04_NC.jpg,Scramble,Blue,Images/Blue.jpg,space,ParentConditions/YellowYellowBlue_v2.xlsx,YellowYellowBlue,Conditions/Version_2/YellowScramStop.xlsx,no,PASS,0.3656961779732233,,,,,,,,,0,0,0,1,0,1,1,1,0,27,27,27,,,,,,,,,,,,,,,,,,,,,,,,,,,,,,,,,,,,,,,,,,,,,,,,,,,,,,,,,,,,,,,,,,,,,,,,,,,,,,,1.24,1156.010627700016,None,space,1,0.2885602000169456,1157.361382400035,None,1157.361382400035,None,1157.361382400035,None,,,,,,,,,,,P031,FENCOG,2,Pre,2022_Mar_22_1049,Go No-Go Task,2021.1.4,120.13916923838183,
,"Rule: When you see a yellow image, do not press 'spacebar'.",Images/Scram2/AF25NES.jpg,Scramble,Blue,Images/Blue.jpg,space,ParentConditions/YellowYellowBlue_v2.xlsx,YellowYellowBlue,Conditions/Version_2/YellowScramStop.xlsx,no,PASS,0.24296732370581886,,,,,,,,,0,0,0,1,0,1,1,1,0,28,28,28,,,,,,,,,,,,,,,,,,,,,,,,,,,,,,,,,,,,,,,,,,,,,,,,,,,,,,,,,,,,,,,,,,,,,,,,,,,,,,,1.76,1157.7603792000446,None,space,1,0.3106954999966547,1159.6273656000267,None,1159.6273656000267,None,1159.6273656000267,None,,,,,,,,,,,P031,FENCOG,2,Pre,2022_Mar_22_1049,Go No-Go Task,2021.1.4,120.13916923838183,
,"Rule: When you see a yellow image, do not press 'spacebar'.",Images/Scram1/AF34NES.jpg,Scramble,Blue,Images/Blue.jpg,space,ParentConditions/YellowYellowBlue_v2.xlsx,YellowYellowBlue,Conditions/Version_2/YellowScramStop.xlsx,no,PASS,0.2947970947694444,,,,,,,,,0,0,0,1,0,1,1,1,0,29,29,29,,,,,,,,,,,,,,,,,,,,,,,,,,,,,,,,,,,,,,,,,,,,,,,,,,,,,,,,,,,,,,,,,,,,,,,,,,,,,,,1.92,1160.0266325999983,None,space,1,0.2543475000420585,1162.059763600002,None,1162.059763600002,None,1162.059763600002,None,,,,,,,,,,,P031,FENCOG,2,Pre,2022_Mar_22_1049,Go No-Go Task,2021.1.4,120.13916923838183,
,"Rule: When you see a yellow image, do not press 'spacebar'.",Images/Scram2/AF11NES.jpg,Scramble,Blue,Images/Blue.jpg,space,ParentConditions/YellowYellowBlue_v2.xlsx,YellowYellowBlue,Conditions/Version_2/YellowScramStop.xlsx,no,PASS,0.06112693600308039,,,,,,,,,0,0,0,1,0,1,1,1,0,30,30,30,,,,,,,,,,,,,,,,,,,,,,,,,,,,,,,,,,,,,,,,,,,,,,,,,,,,,,,,,,,,,,,,,,,,,,,,,,,,,,,1.98,1162.4589461000287,None,space,1,0.3551597000332549,1164.5509959000046,None,1164.5509959000046,None,1164.5509959000046,None,,,,,,,,,,,P031,FENCOG,2,Pre,2022_Mar_22_1049,Go No-Go Task,2021.1.4,120.13916923838183,
,"Rule: When you see a yellow image, do not press 'spacebar'.",Images/Scram2/AF34NES.jpg,Scramble,Yellow,Images/Yellow.jpg,None,ParentConditions/YellowYellowBlue_v2.xlsx,YellowYellowBlue,Conditions/Version_2/YellowScramStop.xlsx,yes,PASS,0.36837427021744795,,,,,,,,,0,0,0,1,0,1,1,1,0,31,31,31,,,,,,,,,,,,,,,,,,,,,,,,,,,,,,,,,,,,,,,,,,,,,,,,,,,,,,,,,,,,,,,,,,,,,,,,,,,,,,,1.37,1164.9540349000017,None,None,1,,1166.4336862000055,None,1166.4336862000055,None,1166.4336862000055,None,,,,,,,,,,,P031,FENCOG,2,Pre,2022_Mar_22_1049,Go No-Go Task,2021.1.4,120.13916923838183,
,"Rule: When you see a yellow image, do not press 'spacebar'.",Images/Scram1/AM02_NC.jpg,Scramble,Blue,Images/Blue.jpg,space,ParentConditions/YellowYellowBlue_v2.xlsx,YellowYellowBlue,Conditions/Version_2/YellowScramStop.xlsx,no,PASS,0.7004017432139685,,,,,,,,,0,0,0,1,0,1,1,1,0,32,32,32,,,,,,,,,,,,,,,,,,,,,,,,,,,,,,,,,,,,,,,,,,,,,,,,,,,,,,,,,,,,,,,,,,,,,,,,,,,,,,,1.33,1166.8326008000295,None,space,1,0.2551874000346288,1168.2748509000521,None,1168.2748509000521,None,1168.2748509000521,None,,,,,,,,,,,P031,FENCOG,2,Pre,2022_Mar_22_1049,Go No-Go Task,2021.1.4,120.13916923838183,
,"Rule: When you see a yellow image, do not press 'spacebar'.",Images/Scram2/AM13NES.jpg,Scramble,Yellow,Images/Yellow.jpg,None,ParentConditions/YellowYellowBlue_v2.xlsx,YellowYellowBlue,Conditions/Version_2/YellowScramStop.xlsx,yes,PASS,0.7037668434542473,,,,,,,,,0,0,0,1,0,1,1,1,0,33,33,33,,,,,,,,,,,,,,,,,,,,,,,,,,,,,,,,,,,,,,,,,,,,,,,,,,,,,,,,,,,,,,,,,,,,,,,,,,,,,,,1.88,1168.702441200032,None,None,1,,1170.6907672000234,None,1170.6907672000234,None,1170.6907672000234,None,,,,,,,,,,,P031,FENCOG,2,Pre,2022_Mar_22_1049,Go No-Go Task,2021.1.4,120.13916923838183,
,"Rule: When you see a yellow image, do not press 'spacebar'.",Images/Scram1/AM03_NC.jpg,Scramble,Blue,Images/Blue.jpg,space,ParentConditions/YellowYellowBlue_v2.xlsx,YellowYellowBlue,Conditions/Version_2/YellowScramStop.xlsx,no,PASS,0.13984736132192788,,,,,,,,,0,0,0,1,0,1,1,1,0,34,34,34,,,,,,,,,,,,,,,,,,,,,,,,,,,,,,,,,,,,,,,,,,,,,,,,,,,,,,,,,,,,,,,,,,,,,,,,,,,,,,,1.26,1171.090615000052,None,space,1,0.25710119999712333,1172.465202100051,None,1172.465202100051,None,1172.465202100051,None,,,,,,,,,,,P031,FENCOG,2,Pre,2022_Mar_22_1049,Go No-Go Task,2021.1.4,120.13916923838183,
,"Rule: When you see a yellow image, do not press 'spacebar'.",Images/Scram1/AF33NES.jpg,Scramble,Blue,Images/Blue.jpg,space,ParentConditions/YellowYellowBlue_v2.xlsx,YellowYellowBlue,Conditions/Version_2/YellowScramStop.xlsx,no,PASS,0.7479968675198729,,,,,,,,,0,0,0,1,0,1,1,1,0,35,35,35,,,,,,,,,,,,,,,,,,,,,,,,,,,,,,,,,,,,,,,,,,,,,,,,,,,,,,,,,,,,,,,,,,,,,,,,,,,,,,,1.6,1172.8574066000292,None,space,1,0.30097589996876195,1174.5730496000033,None,1174.5730496000033,None,1174.5730496000033,None,,,,,,,,,,,P031,FENCOG,2,Pre,2022_Mar_22_1049,Go No-Go Task,2021.1.4,120.13916923838183,
,"Rule: When you see a yellow image, do not press 'spacebar'.",Images/Scram1/BF10_NC.jpg,Scramble,Blue,Images/Blue.jpg,space,ParentConditions/YellowYellowBlue_v2.xlsx,YellowYellowBlue,Conditions/Version_2/YellowScramStop.xlsx,no,PASS,0.5225639267337787,,,,,,,,,0,0,0,1,0,1,1,1,0,36,36,36,,,,,,,,,,,,,,,,,,,,,,,,,,,,,,,,,,,,,,,,,,,,,,,,,,,,,,,,,,,,,,,,,,,,,,,,,,,,,,,1.5,1174.971971400024,None,space,1,0.27742430003127083,1176.580680700019,None,1176.580680700019,None,1176.580680700019,None,,,,,,,,,,,P031,FENCOG,2,Pre,2022_Mar_22_1049,Go No-Go Task,2021.1.4,120.13916923838183,
,"Rule: When you see a yellow image, do not press 'spacebar'.",Images/Scram1/AF07_NC.jpg,Scramble,Blue,Images/Blue.jpg,space,ParentConditions/YellowYellowBlue_v2.xlsx,YellowYellowBlue,Conditions/Version_2/YellowScramStop.xlsx,no,PASS,0.5221002530466395,,,,,,,,,0,0,0,1,0,1,1,1,0,37,37,37,,,,,,,,,,,,,,,,,,,,,,,,,,,,,,,,,,,,,,,,,,,,,,,,,,,,,,,,,,,,,,,,,,,,,,,,,,,,,,,1.45,1176.9789194000186,None,space,1,0.3679773000185378,1178.529723900021,None,1178.529723900021,None,1178.529723900021,None,,,,,,,,,,,P031,FENCOG,2,Pre,2022_Mar_22_1049,Go No-Go Task,2021.1.4,120.13916923838183,
,"Rule: When you see a yellow image, do not press 'spacebar'.",Images/Scram2/AM23NES.jpg,Scramble,Yellow,Images/Yellow.jpg,None,ParentConditions/YellowYellowBlue_v2.xlsx,YellowYellowBlue,Conditions/Version_2/YellowScramStop.xlsx,yes,PASS,0.18195499113806335,,,,,,,,,0,0,0,1,0,1,1,1,0,38,38,38,,,,,,,,,,,,,,,,,,,,,,,,,,,,,,,,,,,,,,,,,,,,,,,,,,,,,,,,,,,,,,,,,,,,,,,,,,,,,,,1.48,1178.929283000005,None,None,1,,1180.5213271999964,None,1180.5213271999964,None,1180.5213271999964,None,,,,,,,,,,,P031,FENCOG,2,Pre,2022_Mar_22_1049,Go No-Go Task,2021.1.4,120.13916923838183,
,"Rule: When you see a yellow image, do not press 'spacebar'.",Images/Scram1/AF24NES.jpg,Scramble,Blue,Images/Blue.jpg,space,ParentConditions/YellowYellowBlue_v2.xlsx,YellowYellowBlue,Conditions/Version_2/YellowScramStop.xlsx,no,PASS,0.6640389388315467,,,,,,,,,0,0,0,1,0,1,1,1,0,39,39,39,,,,,,,,,,,,,,,,,,,,,,,,,,,,,,,,,,,,,,,,,,,,,,,,,,,,,,,,,,,,,,,,,,,,,,,,,,,,,,,1.66,1180.9203287000419,None,space,1,0.17831530002877116,1182.6955607000273,None,1182.6955607000273,None,1182.6955607000273,None,,,,,,,,,,,P031,FENCOG,2,Pre,2022_Mar_22_1049,Go No-Go Task,2021.1.4,120.13916923838183,
,"Rule: When you see a yellow image, do not press 'spacebar'.",Images/Scram2/AF33NES.jpg,Scramble,Yellow,Images/Yellow.jpg,None,ParentConditions/YellowYellowBlue_v2.xlsx,YellowYellowBlue,Conditions/Version_2/YellowScramStop.xlsx,yes,PASS,0.6203826022283658,,,,,,,,,0,0,0,1,0,1,1,1,0,40,40,40,,,,,,,,,,,,,,,,,,,,,,,,,,,,,,,,,,,,,,,,,,,,,,,,,,,,,,,,,,,,,,,,,,,,,,,,,,,,,,,1.34,1183.0933627000195,None,None,1,,1184.5449897000217,None,1184.5449897000217,None,1184.5449897000217,None,,,,,,,,,,,P031,FENCOG,2,Pre,2022_Mar_22_1049,Go No-Go Task,2021.1.4,120.13916923838183,
,"Rule: When you see a yellow image, do not press 'spacebar'.",Images/Scram1/AF25NES.jpg,Scramble,Blue,Images/Blue.jpg,space,ParentConditions/YellowYellowBlue_v2.xlsx,YellowYellowBlue,Conditions/Version_2/YellowScramStop.xlsx,no,PASS,0.05141546475857928,,,,,,,,,0,0,0,1,0,1,1,1,0,41,41,41,,,,,,,,,,,,,,,,,,,,,,,,,,,,,,,,,,,,,,,,,,,,,,,,,,,,,,,,,,,,,,,,,,,,,,,,,,,,,,,1.27,1184.9439223000081,None,space,1,0.23403479997068644,1186.327894200047,None,1186.327894200047,None,1186.327894200047,None,,,,,,,,,,,P031,FENCOG,2,Pre,2022_Mar_22_1049,Go No-Go Task,2021.1.4,120.13916923838183,
,"Rule: When you see a yellow image, do not press 'spacebar'.",Images/Scram2/AM10NES.jpg,Scramble,Yellow,Images/Yellow.jpg,None,ParentConditions/YellowYellowBlue_v2.xlsx,YellowYellowBlue,Conditions/Version_2/YellowScramStop.xlsx,yes,PASS,0.1267743006232639,,,,,,,,,0,0,0,1,0,1,1,1,0,42,42,42,,,,,,,,,,,,,,,,,,,,,,,,,,,,,,,,,,,,,,,,,,,,,,,,,,,,,,,,,,,,,,,,,,,,,,,,,,,,,,,1.63,1186.730178800004,None,None,1,,1188.468909200048,None,1188.468909200048,None,1188.468909200048,None,,,,,,,,,,,P031,FENCOG,2,Pre,2022_Mar_22_1049,Go No-Go Task,2021.1.4,120.13916923838183,
,"Rule: When you see a yellow image, do not press 'spacebar'.",Images/Scram2/BF10_NC.jpg,Scramble,Blue,Images/Blue.jpg,space,ParentConditions/YellowYellowBlue_v2.xlsx,YellowYellowBlue,Conditions/Version_2/YellowScramStop.xlsx,no,PASS,0.22016560502147287,,,,,,,,,0,0,0,1,0,1,1,1,0,43,43,43,,,,,,,,,,,,,,,,,,,,,,,,,,,,,,,,,,,,,,,,,,,,,,,,,,,,,,,,,,,,,,,,,,,,,,,,,,,,,,,1.59,1188.867743800045,None,space,1,0.24200670002028346,1190.5682009000448,None,1190.5682009000448,None,1190.5682009000448,None,,,,,,,,,,,P031,FENCOG,2,Pre,2022_Mar_22_1049,Go No-Go Task,2021.1.4,120.13916923838183,
,"Rule: When you see a yellow image, do not press 'spacebar'.",Images/Scram1/BF18_NC.jpg,Scramble,Blue,Images/Blue.jpg,space,ParentConditions/YellowYellowBlue_v2.xlsx,YellowYellowBlue,Conditions/Version_2/YellowScramStop.xlsx,no,PASS,0.11487631985977975,,,,,,,,,0,0,0,1,0,1,1,1,0,44,44,44,,,,,,,,,,,,,,,,,,,,,,,,,,,,,,,,,,,,,,,,,,,,,,,,,,,,,,,,,,,,,,,,,,,,,,,,,,,,,,,1.57,1190.9671856000205,None,space,1,0.2787613000255078,1192.6509177000262,None,1192.6509177000262,None,1192.6509177000262,None,,,,,,,,,,,P031,FENCOG,2,Pre,2022_Mar_22_1049,Go No-Go Task,2021.1.4,120.13916923838183,
,"Rule: When you see a yellow image, do not press 'spacebar'.",Images/Scram2/HF09_NC.jpg,Scramble,Blue,Images/Blue.jpg,space,ParentConditions/YellowYellowBlue_v2.xlsx,YellowYellowBlue,Conditions/Version_2/YellowScramStop.xlsx,no,PASS,0.20475492045840804,,,,,,,,,0,0,0,1,0,1,1,1,0,45,45,45,,,,,,,,,,,,,,,,,,,,,,,,,,,,,,,,,,,,,,,,,,,,,,,,,,,,,,,,,,,,,,,,,,,,,,,,,,,,,,,1.87,1193.0497231000336,None,space,1,0.28032770002027974,1195.033575700014,None,1195.033575700014,None,1195.033575700014,None,,,,,,,,,,,P031,FENCOG,2,Pre,2022_Mar_22_1049,Go No-Go Task,2021.1.4,120.13916923838183,
,"Rule: When you see a yellow image, do not press 'spacebar'.",Images/Scram1/BF05_NC.jpg,Scramble,Blue,Images/Blue.jpg,space,ParentConditions/YellowYellowBlue_v2.xlsx,YellowYellowBlue,Conditions/Version_2/YellowScramStop.xlsx,no,PASS,0.6685497116677461,,,,,,,,,0,0,0,1,0,1,1,1,0,46,46,46,,,,,,,,,,,,,,,,,,,,,,,,,,,,,,,,,,,,,,,,,,,,,,,,,,,,,,,,,,,,,,,,,,,,,,,,,,,,,,,1.96,1195.4327890000422,None,None,0,,1197.50786230003,None,1197.50786230003,None,1197.50786230003,None,,,,,,,,,,,P031,FENCOG,2,Pre,2022_Mar_22_1049,Go No-Go Task,2021.1.4,120.13916923838183,
,"Rule: When you see a yellow image, do not press 'spacebar'.",Images/Scram1/AM17NES.jpg,Scramble,Blue,Images/Blue.jpg,space,ParentConditions/YellowYellowBlue_v2.xlsx,YellowYellowBlue,Conditions/Version_2/YellowScramStop.xlsx,no,PASS,0.5575549831069895,,,,,,,,,0,0,0,1,0,1,1,1,0,47,47,47,,,,,,,,,,,,,,,,,,,,,,,,,,,,,,,,,,,,,,,,,,,,,,,,,,,,,,,,,,,,,,,,,,,,,,,,,,,,,,,1.4,1197.9067828000407,None,space,1,0.2504562000394799,1199.4156130000483,None,1199.4156130000483,None,1199.4156130000483,None,,,,,,,,,,,P031,FENCOG,2,Pre,2022_Mar_22_1049,Go No-Go Task,2021.1.4,120.13916923838183,
,"Rule: When you see a yellow image, do not press 'spacebar'.",Images/Scram2/AM09_NC.jpg,Scramble,Yellow,Images/Yellow.jpg,None,ParentConditions/YellowYellowBlue_v2.xlsx,YellowYellowBlue,Conditions/Version_2/YellowScramStop.xlsx,yes,PASS,0.08490473937246712,,,,,,,,,0,0,0,1,0,1,1,1,0,48,48,48,,,,,,,,,,,,,,,,,,,,,,,,,,,,,,,,,,,,,,,,,,,,,,,,,,,,,,,,,,,,,,,,,,,,,,,,,,,,,,,1.84,1199.8083061000216,None,None,1,,1201.7565456000157,None,1201.7565456000157,None,1201.7565456000157,None,,,,,,,,,,,P031,FENCOG,2,Pre,2022_Mar_22_1049,Go No-Go Task,2021.1.4,120.13916923838183,
,"Rule: When you see a yellow image, do not press 'spacebar'.",Images/Scram2/AF09NES.jpg,Scramble,Blue,Images/Blue.jpg,space,ParentConditions/YellowYellowBlue_v2.xlsx,YellowYellowBlue,Conditions/Version_2/YellowScramStop.xlsx,no,PASS,0.8511922023884788,,,,,,,,,0,0,0,1,0,1,1,1,0,49,49,49,,,,,,,,,,,,,,,,,,,,,,,,,,,,,,,,,,,,,,,,,,,,,,,,,,,,,,,,,,,,,,,,,,,,,,,,,,,,,,,1.46,1202.1560242000269,None,space,1,0.2707937000086531,1203.7310652000015,None,1203.7310652000015,None,1203.7310652000015,None,,,,,,,,,,,P031,FENCOG,2,Pre,2022_Mar_22_1049,Go No-Go Task,2021.1.4,120.13916923838183,
,"Rule: When you see a yellow image, do not press 'spacebar'.",Images/Scram2/AM04_NC.jpg,Scramble,Yellow,Images/Yellow.jpg,None,ParentConditions/YellowYellowBlue_v2.xlsx,YellowYellowBlue,Conditions/Version_2/YellowScramStop.xlsx,yes,PASS,0.9711738915701108,,,,,,,,,0,0,0,1,0,1,1,1,0,50,50,50,,,,,,,,,,,,,,,,,,,,,,,,,,,,,,,,,,,,,,,,,,,,,,,,,,,,,,,,,,,,,,,,,,,,,,,,,,,,,,,1.77,1204.1299002000014,None,None,1,,1206.0136236000108,None,1206.0136236000108,None,1206.0136236000108,None,,,,,,,,,,,P031,FENCOG,2,Pre,2022_Mar_22_1049,Go No-Go Task,2021.1.4,120.13916923838183,
,"Rule: When you see a yellow image, do not press 'spacebar'.",Images/Scram2/BF05_NC.jpg,Scramble,Yellow,Images/Yellow.jpg,None,ParentConditions/YellowYellowBlue_v2.xlsx,YellowYellowBlue,Conditions/Version_2/YellowScramStop.xlsx,yes,PASS,0.3684660889098009,,,,,,,,,0,0,0,1,0,1,1,1,0,51,51,51,,,,,,,,,,,,,,,,,,,,,,,,,,,,,,,,,,,,,,,,,,,,,,,,,,,,,,,,,,,,,,,,,,,,,,,,,,,,,,,1.79,1206.4092937000096,None,None,1,,1208.3044378000195,None,1208.3044378000195,None,1208.3044378000195,None,,,,,,,,,,,P031,FENCOG,2,Pre,2022_Mar_22_1049,Go No-Go Task,2021.1.4,120.13916923838183,
,"Rule: When you see a yellow image, do not press 'spacebar'.",Images/Scram1/HM06_NC.jpg,Scramble,Blue,Images/Blue.jpg,space,ParentConditions/YellowYellowBlue_v2.xlsx,YellowYellowBlue,Conditions/Version_2/YellowScramStop.xlsx,no,PASS,0.5754528995111275,,,,,,,,,0,0,0,1,0,1,1,1,0,52,52,52,,,,,,,,,,,,,,,,,,,,,,,,,,,,,,,,,,,,,,,,,,,,,,,,,,,,,,,,,,,,,,,,,,,,,,,,,,,,,,,1.44,1208.7047120000352,None,space,1,0.26781840005423874,1210.2540170000284,None,1210.2540170000284,None,1210.2540170000284,None,,,,,,,,,,,P031,FENCOG,2,Pre,2022_Mar_22_1049,Go No-Go Task,2021.1.4,120.13916923838183,
,"Rule: When you see a yellow image, do not press 'spacebar'.",Images/Scram2/AF07NES.jpg,Scramble,Blue,Images/Blue.jpg,space,ParentConditions/YellowYellowBlue_v2.xlsx,YellowYellowBlue,Conditions/Version_2/YellowScramStop.xlsx,no,PASS,0.5077779466511061,,,,,,,,,0,0,0,1,0,1,1,1,0,53,53,53,,,,,,,,,,,,,,,,,,,,,,,,,,,,,,,,,,,,,,,,,,,,,,,,,,,,,,,,,,,,,,,,,,,,,,,,,,,,,,,1.72,1210.6529856999987,None,space,1,0.29108749999431893,1212.4867424000404,None,1212.4867424000404,None,1212.4867424000404,None,,,,,,,,,,,P031,FENCOG,2,Pre,2022_Mar_22_1049,Go No-Go Task,2021.1.4,120.13916923838183,
,"Rule: When you see a yellow image, do not press 'spacebar'.",Images/Scram1/BM01_NC.jpg,Scramble,Blue,Images/Blue.jpg,space,ParentConditions/YellowYellowBlue_v2.xlsx,YellowYellowBlue,Conditions/Version_2/YellowScramStop.xlsx,no,PASS,0.6162286290631079,,,,,,,,,0,0,0,1,0,1,1,1,0,54,54,54,,,,,,,,,,,,,,,,,,,,,,,,,,,,,,,,,,,,,,,,,,,,,,,,,,,,,,,,,,,,,,,,,,,,,,,,,,,,,,,1.52,1212.8856069000321,None,space,1,0.25837660004617646,1214.5194199000252,None,1214.5194199000252,None,1214.5194199000252,None,,,,,,,,,,,P031,FENCOG,2,Pre,2022_Mar_22_1049,Go No-Go Task,2021.1.4,120.13916923838183,
