CondFileP,Instructions,FaceE,Express,ColourT,ColourF,CorrectAnsP,MasterCondFile,BlockOrder,CondFile,ColCheck,Triplicate_check,SORT_BY_SMALLEST,EPracticeOuterLoop.thisRepN,EPracticeOuterLoop.thisTrialN,EPracticeOuterLoop.thisN,EPracticeOuterLoop.thisIndex,EPracticeInnerLoop.thisRepN,EPracticeInnerLoop.thisTrialN,EPracticeInnerLoop.thisN,EPracticeInnerLoop.thisIndex,MasterLoop.thisRepN,MasterLoop.thisTrialN,MasterLoop.thisN,MasterLoop.thisIndex,OuterLoop.thisRepN,OuterLoop.thisTrialN,OuterLoop.thisN,OuterLoop.thisIndex,InnerLoop.thisRepN,InnerLoop.thisTrialN,InnerLoop.thisN,InnerLoop.thisIndex,text_13.started,text_13.stopped,key_resp_10.keys,key_resp_10.rt,key_resp_10.started,key_resp_10.stopped,text4.started,text4.stopped,EmotionTaskInstructions1.keys,EmotionTaskInstructions1.rt,EmotionTaskInstructions1.started,EmotionTaskInstructions1.stopped,text_4.started,text_4.stopped,key_resp_5.keys,key_resp_5.rt,key_resp_5.started,key_resp_5.stopped,Text_14.started,Text_14.stopped,key_resp_9.keys,key_resp_9.rt,key_resp_9.started,key_resp_9.stopped,text_5.started,text_5.stopped,text_6.started,text_6.stopped,key_resp_7.keys,key_resp_7.rt,key_resp_7.started,key_resp_7.stopped,text_10.started,text_10.stopped,text_11.started,text_11.stopped,text_12.started,text_12.stopped,ISIjitterPractice,EPracticeISIMarker.started,EPracticeISIMarker.stopped,Pract.keys,Pract.corr,Pract.started,Pract.stopped,PracticeFace.started,PracticeFace.stopped,ColourPractice.started,ColourPractice.stopped,text_7.started,text_7.stopped,Pract.rt,EndOfPractice.started,EndOfPractice.stopped,key_resp_8.keys,key_resp_8.rt,key_resp_8.started,key_resp_8.stopped,text_8.started,text_8.stopped,key_resp_6.keys,key_resp_6.rt,key_resp_6.started,key_resp_6.stopped,text_2.started,text_2.stopped,text_3.started,text_3.stopped,key_resp_3.keys,key_resp_3.rt,key_resp_3.started,key_resp_3.stopped,TaskBlock.started,TaskBlock.stopped,BlockNo1.started,BlockNo1.stopped,OfBlock.started,OfBlock.stopped,ISIjitter,ISImarker.started,ISImarker.stopped,key_resp.keys,key_resp.corr,key_resp.started,key_resp.stopped,FaceSet.started,FaceSet.stopped,Colour.started,Colour.stopped,key_resp.rt,EndBlockText.started,EndBlockText.stopped,key_resp_4.keys,key_resp_4.rt,key_resp_4.started,key_resp_4.stopped,BreakText2.started,BreakText2.stopped,PressToContinue.started,PressToContinue.stopped,participant,Study Name,Task Version (required to run),PRE/POST,date,expName,psychopyVersion,frameRate,
,,,,,,,,,,,,,,,,,,,,,,,,,,,,,,,,,24.5043760999979,None,space,68.15562819999468,25.492711300001247,None,,,,,,,,,,,,,,,,,,,,,,,,,,,,,,,,,,,,,,,,,,,,,,,,,,,,,,,,,,,,,,,,,,,,,,,,,,,,,,,,,,,,,,,,,,,,,,,P032,FENCOG,1,Pre,2022_Mar_30_1111,Go No-Go Task,2021.1.4,120.07872359555353,
,,,,,,,,,,,,,,,,,,,,,,,,,,,,,,,,,,,,,,,95.42265239999688,None,space,43.8178673999937,95.42265239999688,None,,,,,,,,,,,,,,,,,,,,,,,,,,,,,,,,,,,,,,,,,,,,,,,,,,,,,,,,,,,,,,,,,,,,,,,,,,,,,,,,,,,,,,,,,P032,FENCOG,1,Pre,2022_Mar_30_1111,Go No-Go Task,2021.1.4,120.07872359555353,
,,,,,,,,,,,,,,,,,,,,,,,,,,,,,,,,,,,,,,,,,,,,,139.33363130000362,None,space,9.010877799999435,139.33363130000362,None,,,,,,,,,,,,,,,,,,,,,,,,,,,,,,,,,,,,,,,,,,,,,,,,,,,,,,,,,,,,,,,,,,,,,,,,,,,,,,,,,,,P032,FENCOG,1,Pre,2022_Mar_30_1111,Go No-Go Task,2021.1.4,120.07872359555353,
,,,,,,,,,,,,,,,,,,,,,,,,,,,,,,,,,,,,,,,,,,,,,,,,,,,148.35750499999267,None,space,6.706459299995913,148.35750499999267,None,,,,,,,,,,,,,,,,,,,,,,,,,,,,,,,,,,,,,,,,,,,,,,,,,,,,,,,,,,,,,,,,,,,,,,,,,,,,,P032,FENCOG,1,Pre,2022_Mar_30_1111,Go No-Go Task,2021.1.4,120.07872359555353,
EPracticeConditions/BlueEyes.csv,"Rule: When you see a blue image, do not press 'spacebar'.",Images/Fearful/AF01_FO.jpg,Fear,Blue,Images/Blue.jpg,None,,,,,,,0,0,0,0,0,0,0,1,,,,,,,,,,,,,,,,,,,,,,,,,,,,,,,,,,,,,155.15030300000217,None,158.14512289999402,None,space,1.6227164000010816,158.14512289999402,None,155.15030300000217,None,155.15030300000217,None,155.15030300000217,None,1.6,160.03305450000335,None,None,1,161.81571739999345,None,161.81571739999345,None,161.81571739999345,None,163.29800389999582,None,,,,,,,,,,,,,,,,,,,,,,,,,,,,,,,,,,,,,,,,,,,,,,,,,,P032,FENCOG,1,Pre,2022_Mar_30_1111,Go No-Go Task,2021.1.4,120.07872359555353,
EPracticeConditions/BlueEyes.csv,"Rule: When you see a blue image, do not press 'spacebar'.",Images/Happy/HF05_HO.jpg,Happy,Yellow,Images/Yellow.jpg,space,,,,,,,0,0,0,0,0,1,1,5,,,,,,,,,,,,,,,,,,,,,,,,,,,,,,,,,,,,,,,,,,,,,,,,,,,1.9,164.6867734999978,None,None,0,166.70137070000055,None,166.70137070000055,None,166.70137070000055,None,167.60926579999796,None,,,,,,,,,,,,,,,,,,,,,,,,,,,,,,,,,,,,,,,,,,,,,,,,,,P032,FENCOG,1,Pre,2022_Mar_30_1111,Go No-Go Task,2021.1.4,120.07872359555353,
EPracticeConditions/BlueEyes.csv,"Rule: When you see a blue image, do not press 'spacebar'.",Images/Happy/BM02_HO.jpg,Happy,Yellow,Images/Yellow.jpg,space,,,,,,,0,0,0,0,0,2,2,2,,,,,,,,,,,,,,,,,,,,,,,,,,,,,,,,,,,,,,,,,,,,,,,,,,,1.2,169.6055417000025,None,None,0,170.92558239999926,None,170.92558239999926,None,170.92558239999926,None,171.8135661999986,None,,,,,,,,,,,,,,,,,,,,,,,,,,,,,,,,,,,,,,,,,,,,,,,,,,P032,FENCOG,1,Pre,2022_Mar_30_1111,Go No-Go Task,2021.1.4,120.07872359555353,
EPracticeConditions/BlueEyes.csv,"Rule: When you see a blue image, do not press 'spacebar'.",Images/Happy/BM08_HO.jpg,Happy,Yellow,Images/Yellow.jpg,space,,,,,,,0,0,0,0,0,3,3,3,,,,,,,,,,,,,,,,,,,,,,,,,,,,,,,,,,,,,,,,,,,,,,,,,,,1.5,173.81813800000236,None,space,1,175.43266170000425,None,175.43266170000425,None,175.43266170000425,None,176.33672190000652,None,0.23237979999976233,,,,,,,,,,,,,,,,,,,,,,,,,,,,,,,,,,,,,,,,,,,,,,,,,P032,FENCOG,1,Pre,2022_Mar_30_1111,Go No-Go Task,2021.1.4,120.07872359555353,
EPracticeConditions/BlueEyes.csv,"Rule: When you see a blue image, do not press 'spacebar'.",Images/Happy/HF10_HE.jpg,Happy,Yellow,Images/Yellow.jpg,space,,,,,,,0,0,0,0,0,4,4,7,,,,,,,,,,,,,,,,,,,,,,,,,,,,,,,,,,,,,,,,,,,,,,,,,,,1.4,178.33390379999764,None,space,1,179.848127499994,None,179.848127499994,None,179.848127499994,None,180.73981440000352,None,0.24013089999789372,,,,,,,,,,,,,,,,,,,,,,,,,,,,,,,,,,,,,,,,,,,,,,,,,P032,FENCOG,1,Pre,2022_Mar_30_1111,Go No-Go Task,2021.1.4,120.07872359555353,
EPracticeConditions/BlueEyes.csv,"Rule: When you see a blue image, do not press 'spacebar'.",Images/Fearful/HM09_FC.jpg,Fear,Blue,Images/Blue.jpg,None,,,,,,,0,0,0,0,0,5,5,0,,,,,,,,,,,,,,,,,,,,,,,,,,,,,,,,,,,,,,,,,,,,,,,,,,,1.3,182.74920720000227,None,None,1,184.17168169999786,None,184.17168169999786,None,184.17168169999786,None,185.0590671999962,None,,,,,,,,,,,,,,,,,,,,,,,,,,,,,,,,,,,,,,,,,,,,,,,,,,P032,FENCOG,1,Pre,2022_Mar_30_1111,Go No-Go Task,2021.1.4,120.07872359555353,
EPracticeConditions/BlueEyes.csv,"Rule: When you see a blue image, do not press 'spacebar'.",Images/Happy/HF04_HE.jpg,Happy,Yellow,Images/Yellow.jpg,space,,,,,,,0,0,0,0,0,6,6,4,,,,,,,,,,,,,,,,,,,,,,,,,,,,,,,,,,,,,,,,,,,,,,,,,,,1.7,187.06341299999622,None,space,1,188.88695610000286,None,188.88695610000286,None,188.88695610000286,None,189.77463280000666,None,0.2974670999974478,,,,,,,,,,,,,,,,,,,,,,,,,,,,,,,,,,,,,,,,,,,,,,,,,P032,FENCOG,1,Pre,2022_Mar_30_1111,Go No-Go Task,2021.1.4,120.07872359555353,
EPracticeConditions/BlueEyes.csv,"Rule: When you see a blue image, do not press 'spacebar'.",Images/Happy/HF09_HE.jpg,Happy,Yellow,Images/Yellow.jpg,space,,,,,,,0,0,0,0,0,7,7,6,,,,,,,,,,,,,,,,,,,,,,,,,,,,,,,,,,,,,,,,,,,,,,,,,,,1.8,191.7767531999998,None,space,1,193.69391919999907,None,193.69391919999907,None,193.69391919999907,None,194.58174270000018,None,0.33861970000725705,,,,,,,,,,,,,,,,,,,,,,,,,,,,,,,,,,,,,,,,,,,,,,,,,P032,FENCOG,1,Pre,2022_Mar_30_1111,Go No-Go Task,2021.1.4,120.07872359555353,
EPracticeConditions/BlueEyes.csv,"Rule: When you see a blue image, do not press 'spacebar'.",,,,,,,,,,,,0,0,0,0,,,,,,,,,,,,,,,,,,,,,,,,,,,,,,,,,,,,,,,,,,,,,,,,,,,,,,,,,,,,,,,,,,,,,,,,,,,,,,,,,,,,,,,,,,,,,,,,,,,,,,,,,,,,,,,,,,,,,P032,FENCOG,1,Pre,2022_Mar_30_1111,Go No-Go Task,2021.1.4,120.07872359555353,
EPracticeConditions/YellowEyes.csv,"Rule: When you see a yellow image, do not press 'spacebar'.",Images/Fearful/AM24AFS.jpg,Fear,Blue,Images/Blue.jpg,space,,,,,,,0,1,1,1,0,0,0,7,,,,,,,,,,,,,,,,,,,,,,,,,,,,,,,,,,,,,196.62078610000026,None,199.60811739999917,None,space,0.41580610000528395,199.60811739999917,None,196.62078610000026,None,196.62078610000026,None,196.62078610000026,None,1.9,200.04794380000385,None,space,1,202.0752124999999,None,202.0752124999999,None,202.0752124999999,None,202.95337730000028,None,0.34090070000092965,,,,,,,,,,,,,,,,,,,,,,,,,,,,,,,,,,,,,,,,,,,,,,,,,P032,FENCOG,1,Pre,2022_Mar_30_1111,Go No-Go Task,2021.1.4,120.07872359555353,
EPracticeConditions/YellowEyes.csv,"Rule: When you see a yellow image, do not press 'spacebar'.",Images/Fearful/AM16AFS.jpg,Fear,Blue,Images/Blue.jpg,space,,,,,,,0,1,1,1,0,1,1,2,,,,,,,,,,,,,,,,,,,,,,,,,,,,,,,,,,,,,,,,,,,,,,,,,,,1.8,204.95894329999282,None,space,1,206.88170349999564,None,206.88170349999564,None,206.88170349999564,None,207.76922909999848,None,0.3427067000011448,,,,,,,,,,,,,,,,,,,,,,,,,,,,,,,,,,,,,,,,,,,,,,,,,P032,FENCOG,1,Pre,2022_Mar_30_1111,Go No-Go Task,2021.1.4,120.07872359555353,
EPracticeConditions/YellowEyes.csv,"Rule: When you see a yellow image, do not press 'spacebar'.",Images/Fearful/AM23AFS.jpg,Fear,Blue,Images/Blue.jpg,space,,,,,,,0,1,1,1,0,2,2,6,,,,,,,,,,,,,,,,,,,,,,,,,,,,,,,,,,,,,,,,,,,,,,,,,,,1.5,209.7744354000024,None,space,1,211.40544309999677,None,211.40544309999677,None,211.40544309999677,None,212.2848423999967,None,0.32228970000869595,,,,,,,,,,,,,,,,,,,,,,,,,,,,,,,,,,,,,,,,,,,,,,,,,P032,FENCOG,1,Pre,2022_Mar_30_1111,Go No-Go Task,2021.1.4,120.07872359555353,
EPracticeConditions/YellowEyes.csv,"Rule: When you see a yellow image, do not press 'spacebar'.",Images/Fearful/AM19AFS.jpg,Fear,Blue,Images/Blue.jpg,space,,,,,,,0,1,1,1,0,3,3,4,,,,,,,,,,,,,,,,,,,,,,,,,,,,,,,,,,,,,,,,,,,,,,,,,,,1.4,214.29062080000585,None,space,1,215.8205248000013,None,215.8205248000013,None,215.8205248000013,None,216.70151220000116,None,0.31569479999598116,,,,,,,,,,,,,,,,,,,,,,,,,,,,,,,,,,,,,,,,,,,,,,,,,P032,FENCOG,1,Pre,2022_Mar_30_1111,Go No-Go Task,2021.1.4,120.07872359555353,
EPracticeConditions/YellowEyes.csv,"Rule: When you see a yellow image, do not press 'spacebar'.",Images/Fearful/AM17AFS.jpg,Fear,Blue,Images/Blue.jpg,space,,,,,,,0,1,1,1,0,4,4,3,,,,,,,,,,,,,,,,,,,,,,,,,,,,,,,,,,,,,,,,,,,,,,,,,,,1.3,218.7046493999951,None,space,1,220.12774130000616,None,220.12774130000616,None,220.12774130000616,None,221.0081715999986,None,0.32815069999196567,,,,,,,,,,,,,,,,,,,,,,,,,,,,,,,,,,,,,,,,,,,,,,,,,P032,FENCOG,1,Pre,2022_Mar_30_1111,Go No-Go Task,2021.1.4,120.07872359555353,
EPracticeConditions/YellowEyes.csv,"Rule: When you see a yellow image, do not press 'spacebar'.",Images/Fearful/AM22AFS.jpg,Fear,Blue,Images/Blue.jpg,space,,,,,,,0,1,1,1,0,5,5,5,,,,,,,,,,,,,,,,,,,,,,,,,,,,,,,,,,,,,,,,,,,,,,,,,,,1.2,223.01498049999645,None,None,0,224.33474679999927,None,224.33474679999927,None,224.33474679999927,None,225.23232490000373,None,,,,,,,,,,,,,,,,,,,,,,,,,,,,,,,,,,,,,,,,,,,,,,,,,,P032,FENCOG,1,Pre,2022_Mar_30_1111,Go No-Go Task,2021.1.4,120.07872359555353,
EPracticeConditions/YellowEyes.csv,"Rule: When you see a yellow image, do not press 'spacebar'.",Images/Happy/AM32HAS.jpg,Happy,Yellow,Images/Yellow.jpg,None,,,,,,,0,1,1,1,0,6,6,0,,,,,,,,,,,,,,,,,,,,,,,,,,,,,,,,,,,,,,,,,,,,,,,,,,,1.7,227.22435590000532,None,space,0,229.04169729999558,None,229.04169729999558,None,229.04169729999558,None,229.94652650000353,None,0.3425987999944482,,,,,,,,,,,,,,,,,,,,,,,,,,,,,,,,,,,,,,,,,,,,,,,,,P032,FENCOG,1,Pre,2022_Mar_30_1111,Go No-Go Task,2021.1.4,120.07872359555353,
EPracticeConditions/YellowEyes.csv,"Rule: When you see a yellow image, do not press 'spacebar'.",Images/Happy/BF05_HO.jpg,Happy,Yellow,Images/Yellow.jpg,None,,,,,,,0,1,1,1,0,7,7,1,,,,,,,,,,,,,,,,,,,,,,,,,,,,,,,,,,,,,,,,,,,,,,,,,,,1.6,231.9370396000013,None,None,1,233.6569679999957,None,233.6569679999957,None,233.6569679999957,None,234.54547040000034,None,,,,,,,,,,,,,,,,,,,,,,,,,,,,,,,,,,,,,,,,,,,,,,,,,,P032,FENCOG,1,Pre,2022_Mar_30_1111,Go No-Go Task,2021.1.4,120.07872359555353,
EPracticeConditions/YellowEyes.csv,"Rule: When you see a yellow image, do not press 'spacebar'.",,,,,,,,,,,,0,1,1,1,,,,,,,,,,,,,,,,,,,,,,,,,,,,,,,,,,,,,,,,,,,,,,,,,,,,,,,,,,,,,,,,,,,,,,,,,,,,,,,,,,,,,,,,,,,,,,,,,,,,,,,,,,,,,,,,,,,,,P032,FENCOG,1,Pre,2022_Mar_30_1111,Go No-Go Task,2021.1.4,120.07872359555353,
EPracticeConditions/BlueScram.csv,"Rule: When you see a blue image, do not press 'spacebar'.",Images/Scram1/AM13NES.jpg,Scramble,Yellow,Images/Yellow.jpg,space,,,,,,,0,2,2,2,0,0,0,5,,,,,,,,,,,,,,,,,,,,,,,,,,,,,,,,,,,,,236.57883840000432,None,239.56282819999615,None,space,2.812940500007244,239.56282819999615,None,236.57883840000432,None,236.57883840000432,None,236.57883840000432,None,1.6,242.40275379999366,None,None,0,244.12062580000202,None,244.12062580000202,None,244.12062580000202,None,245.01896560000023,None,,,,,,,,,,,,,,,,,,,,,,,,,,,,,,,,,,,,,,,,,,,,,,,,,,P032,FENCOG,1,Pre,2022_Mar_30_1111,Go No-Go Task,2021.1.4,120.07872359555353,
EPracticeConditions/BlueScram.csv,"Rule: When you see a blue image, do not press 'spacebar'.",Images/Scram1/BM08_NC.jpg,Scramble,Blue,Images/Blue.jpg,None,,,,,,,0,2,2,2,0,1,1,0,,,,,,,,,,,,,,,,,,,,,,,,,,,,,,,,,,,,,,,,,,,,,,,,,,,1.2,247.01600699999835,None,None,1,248.3277378000057,None,248.3277378000057,None,248.3277378000057,None,249.23329950000334,None,,,,,,,,,,,,,,,,,,,,,,,,,,,,,,,,,,,,,,,,,,,,,,,,,,P032,FENCOG,1,Pre,2022_Mar_30_1111,Go No-Go Task,2021.1.4,120.07872359555353,
EPracticeConditions/BlueScram.csv,"Rule: When you see a blue image, do not press 'spacebar'.",Images/Scram2/AF25NES.jpg,Scramble,Yellow,Images/Yellow.jpg,space,,,,,,,0,2,2,2,0,2,2,7,,,,,,,,,,,,,,,,,,,,,,,,,,,,,,,,,,,,,,,,,,,,,,,,,,,1.7,251.22855759999948,None,space,1,253.05137420000392,None,253.05137420000392,None,253.05137420000392,None,253.94817249999323,None,0.34910439999657683,,,,,,,,,,,,,,,,,,,,,,,,,,,,,,,,,,,,,,,,,,,,,,,,,P032,FENCOG,1,Pre,2022_Mar_30_1111,Go No-Go Task,2021.1.4,120.07872359555353,
EPracticeConditions/BlueScram.csv,"Rule: When you see a blue image, do not press 'spacebar'.",Images/Scram2/AF10_NC.jpg,Scramble,Yellow,Images/Yellow.jpg,space,,,,,,,0,2,2,2,0,3,3,2,,,,,,,,,,,,,,,,,,,,,,,,,,,,,,,,,,,,,,,,,,,,,,,,,,,1.3,255.94623180000053,None,space,1,257.3667562000046,None,257.3667562000046,None,257.3667562000046,None,258.254517399997,None,0.3534284000052139,,,,,,,,,,,,,,,,,,,,,,,,,,,,,,,,,,,,,,,,,,,,,,,,,P032,FENCOG,1,Pre,2022_Mar_30_1111,Go No-Go Task,2021.1.4,120.07872359555353,
EPracticeConditions/BlueScram.csv,"Rule: When you see a blue image, do not press 'spacebar'.",Images/Scram1/AM03NES.jpg,Scramble,Yellow,Images/Yellow.jpg,space,,,,,,,0,2,2,2,0,4,4,4,,,,,,,,,,,,,,,,,,,,,,,,,,,,,,,,,,,,,,,,,,,,,,,,,,,1.8,260.2596319000004,None,None,0,262.1820077000011,None,262.1820077000011,None,262.1820077000011,None,263.0799235000013,None,,,,,,,,,,,,,,,,,,,,,,,,,,,,,,,,,,,,,,,,,,,,,,,,,,P032,FENCOG,1,Pre,2022_Mar_30_1111,Go No-Go Task,2021.1.4,120.07872359555353,
EPracticeConditions/BlueScram.csv,"Rule: When you see a blue image, do not press 'spacebar'.",Images/Scram1/BF18_NC.jpg,Scramble,Blue,Images/Blue.jpg,None,,,,,,,0,2,2,2,0,5,5,1,,,,,,,,,,,,,,,,,,,,,,,,,,,,,,,,,,,,,,,,,,,,,,,,,,,1.9,265.074964200001,None,None,1,267.08874999999534,None,267.08874999999534,None,267.08874999999534,None,267.99285929999314,None,,,,,,,,,,,,,,,,,,,,,,,,,,,,,,,,,,,,,,,,,,,,,,,,,,P032,FENCOG,1,Pre,2022_Mar_30_1111,Go No-Go Task,2021.1.4,120.07872359555353,
EPracticeConditions/BlueScram.csv,"Rule: When you see a blue image, do not press 'spacebar'.",Images/Scram2/AM03_NC.jpg,Scramble,Yellow,Images/Yellow.jpg,space,,,,,,,0,2,2,2,0,6,6,6,,,,,,,,,,,,,,,,,,,,,,,,,,,,,,,,,,,,,,,,,,,,,,,,,,,1.4,269.98938810000254,None,space,1,271.5125667999964,None,271.5125667999964,None,271.5125667999964,None,272.40097210000386,None,0.2795664000004763,,,,,,,,,,,,,,,,,,,,,,,,,,,,,,,,,,,,,,,,,,,,,,,,,P032,FENCOG,1,Pre,2022_Mar_30_1111,Go No-Go Task,2021.1.4,120.07872359555353,
EPracticeConditions/BlueScram.csv,"Rule: When you see a blue image, do not press 'spacebar'.",Images/Scram1/AM04_NC.jpg,Scramble,Yellow,Images/Yellow.jpg,space,,,,,,,0,2,2,2,0,7,7,3,,,,,,,,,,,,,,,,,,,,,,,,,,,,,,,,,,,,,,,,,,,,,,,,,,,1.5,274.4054673000064,None,space,1,276.0111818000005,None,276.0111818000005,None,276.0111818000005,None,276.9162417000043,None,0.24509989999933168,,,,,,,,,,,,,,,,,,,,,,,,,,,,,,,,,,,,,,,,,,,,,,,,,P032,FENCOG,1,Pre,2022_Mar_30_1111,Go No-Go Task,2021.1.4,120.07872359555353,
EPracticeConditions/BlueScram.csv,"Rule: When you see a blue image, do not press 'spacebar'.",,,,,,,,,,,,0,2,2,2,,,,,,,,,,,,,,,,,,,,,,,,,,,,,,,,,,,,,,,,,,,,,,,,,,,,,,,,,,,,,,,,,,,,,,,,,,,,,,,,,,,,,,,,,,,,,,,,,,,,,,,,,,,,,,,,,,,,,P032,FENCOG,1,Pre,2022_Mar_30_1111,Go No-Go Task,2021.1.4,120.07872359555353,
EPracticeConditions/YellowScram.csv,"Rule: When you see a yellow image, do not press 'spacebar'.",Images/Scram1/AF30NES.JPG,Scramble,Blue,Images/Blue.jpg,space,,,,,,,0,3,3,3,0,0,0,4,,,,,,,,,,,,,,,,,,,,,,,,,,,,,,,,,,,,,278.9404757000011,None,281.92544619999535,None,space,0.5863076000096044,281.92544619999535,None,278.9404757000011,None,278.9404757000011,None,278.9404757000011,None,1.4,282.53871779999463,None,None,0,284.0588527999935,None,284.0588527999935,None,284.0588527999935,None,284.95729589999246,None,,,,,,,,,,,,,,,,,,,,,,,,,,,,,,,,,,,,,,,,,,,,,,,,,,P032,FENCOG,1,Pre,2022_Mar_30_1111,Go No-Go Task,2021.1.4,120.07872359555353,
EPracticeConditions/YellowScram.csv,"Rule: When you see a yellow image, do not press 'spacebar'.",Images/Scram1/AF07NES.jpg,Scramble,Blue,Images/Blue.jpg,space,,,,,,,0,3,3,3,0,1,1,3,,,,,,,,,,,,,,,,,,,,,,,,,,,,,,,,,,,,,,,,,,,,,,,,,,,1.9,286.9516607999976,None,None,0,288.9739554999978,None,288.9739554999978,None,288.9739554999978,None,289.8636903000006,None,,,,,,,,,,,,,,,,,,,,,,,,,,,,,,,,,,,,,,,,,,,,,,,,,,P032,FENCOG,1,Pre,2022_Mar_30_1111,Go No-Go Task,2021.1.4,120.07872359555353,
EPracticeConditions/YellowScram.csv,"Rule: When you see a yellow image, do not press 'spacebar'.",Images/Scram1/AF24NES.jpg,Scramble,Blue,Images/Blue.jpg,space,,,,,,,0,3,3,3,0,2,2,7,,,,,,,,,,,,,,,,,,,,,,,,,,,,,,,,,,,,,,,,,,,,,,,,,,,1.6,291.8691366999992,None,None,0,293.5977089999942,None,293.5977089999942,None,293.5977089999942,None,294.47763559999294,None,,,,,,,,,,,,,,,,,,,,,,,,,,,,,,,,,,,,,,,,,,,,,,,,,,P032,FENCOG,1,Pre,2022_Mar_30_1111,Go No-Go Task,2021.1.4,120.07872359555353,
EPracticeConditions/YellowScram.csv,"Rule: When you see a yellow image, do not press 'spacebar'.",Images/Scram1/AF10_NC.jpg,Scramble,Blue,Images/Blue.jpg,space,,,,,,,0,3,3,3,0,3,3,6,,,,,,,,,,,,,,,,,,,,,,,,,,,,,,,,,,,,,,,,,,,,,,,,,,,1.2,296.482551299996,None,space,1,297.80474479999975,None,297.80474479999975,None,297.80474479999975,None,298.70219919999363,None,0.3634782000008272,,,,,,,,,,,,,,,,,,,,,,,,,,,,,,,,,,,,,,,,,,,,,,,,,P032,FENCOG,1,Pre,2022_Mar_30_1111,Go No-Go Task,2021.1.4,120.07872359555353,
EPracticeConditions/YellowScram.csv,"Rule: When you see a yellow image, do not press 'spacebar'.",Images/Scram2/AM03NES.jpg,Scramble,Yellow,Images/Yellow.jpg,None,,,,,,,0,3,3,3,0,4,4,1,,,,,,,,,,,,,,,,,,,,,,,,,,,,,,,,,,,,,,,,,,,,,,,,,,,1.7,300.6993744999927,None,space,0,302.52007949999825,None,302.52007949999825,None,302.52007949999825,None,303.4079234999954,None,0.3361146000097506,,,,,,,,,,,,,,,,,,,,,,,,,,,,,,,,,,,,,,,,,,,,,,,,,P032,FENCOG,1,Pre,2022_Mar_30_1111,Go No-Go Task,2021.1.4,120.07872359555353,
EPracticeConditions/YellowScram.csv,"Rule: When you see a yellow image, do not press 'spacebar'.",Images/Scram1/HF04_NC.jpg,Scramble,Blue,Images/Blue.jpg,space,,,,,,,0,3,3,3,0,5,5,2,,,,,,,,,,,,,,,,,,,,,,,,,,,,,,,,,,,,,,,,,,,,,,,,,,,1.8,305.4157763999974,None,space,1,307.3435233000055,None,307.3435233000055,None,307.3435233000055,None,308.2239929000061,None,0.32058679999317974,,,,,,,,,,,,,,,,,,,,,,,,,,,,,,,,,,,,,,,,,,,,,,,,,P032,FENCOG,1,Pre,2022_Mar_30_1111,Go No-Go Task,2021.1.4,120.07872359555353,
EPracticeConditions/YellowScram.csv,"Rule: When you see a yellow image, do not press 'spacebar'.",Images/Scram2/HM06_NC.jpg,Scramble,Yellow,Images/Yellow.jpg,None,,,,,,,0,3,3,3,0,6,6,0,,,,,,,,,,,,,,,,,,,,,,,,,,,,,,,,,,,,,,,,,,,,,,,,,,,1.5,310.2297683999932,None,None,1,311.8587356999924,None,311.8587356999924,None,311.8587356999924,None,312.7384665999998,None,,,,,,,,,,,,,,,,,,,,,,,,,,,,,,,,,,,,,,,,,,,,,,,,,,P032,FENCOG,1,Pre,2022_Mar_30_1111,Go No-Go Task,2021.1.4,120.07872359555353,
EPracticeConditions/YellowScram.csv,"Rule: When you see a yellow image, do not press 'spacebar'.",Images/Scram1/BM01_NC.jpg,Scramble,Blue,Images/Blue.jpg,space,,,,,,,0,3,3,3,0,7,7,5,,,,,,,,,,,,,,,,,,,,,,,,,,,,,,,,,,,,,,,,,,,,,,,,,,,1.3,314.7450889000029,None,None,0,316.15773209999315,None,316.15773209999315,None,316.15773209999315,None,317.05697659999714,None,,,,,,,,,,,,,,,,,,,,,,,,,,,,,,,,,,,,,,,,,,,,,,,,,,P032,FENCOG,1,Pre,2022_Mar_30_1111,Go No-Go Task,2021.1.4,120.07872359555353,
EPracticeConditions/YellowScram.csv,"Rule: When you see a yellow image, do not press 'spacebar'.",,,,,,,,,,,,0,3,3,3,,,,,,,,,,,,,,,,,,,,,,,,,,,,,,,,,,,,,,,,,,,,,,,,,,,,,,,,,,,,,,,,,,,,,,,,,,,,,,,,,,,,,,,,,,,,,,,,,,,,,,,,,,,,,,,,,,,,,P032,FENCOG,1,Pre,2022_Mar_30_1111,Go No-Go Task,2021.1.4,120.07872359555353,
,,,,,,,,,,,,,,,,,,,,,,,,,,,,,,,,,,,,,,,,,,,,,,,,,,,,,,,,,,,,,,,,,,,,,,,,,,,,,,,,,,,,,320.5239610999997,None,space,2.7543789000046672,321.00541499999235,None,,,,,,,,,,,,,,,,,,,,,,,,,,,,,,,,,,,,,,,,,,,P032,FENCOG,1,Pre,2022_Mar_30_1111,Go No-Go Task,2021.1.4,120.07872359555353,
,,,,,,,,,,,,,,,,,,,,,,,,,,,,,,,,,,,,,,,,,,,,,,,,,,,,,,,,,,,,,,,,,,,,,,,,,,,,,,,,,,,,,,,,,,,323.7761137000052,None,space,2.1516597000008915,323.7761137000052,None,,,,,,,,,,,,,,,,,,,,,,,,,,,,,,,,,,,,,P032,FENCOG,1,Pre,2022_Mar_30_1111,Go No-Go Task,2021.1.4,120.07872359555353,
,"Rule: When you see a yellow image, do not press 'spacebar'.",Images/Fearful/BM02_FC.jpg,Fear,Blue,Images/Blue.jpg,space,ParentConditions/YellowBlueBlue_v1.xlsx,BlueBlueYellow,Conditions/Version_1/YellowHappyStop.xlsx,no,PASS,0.44148177898618846,,,,,,,,,0,0,0,0,0,0,0,0,0,0,0,0,,,,,,,,,,,,,,,,,,,,,,,,,,,,,,,,,,,,,,,,,,,,,,,,,,,,,,,,,,,,,,,,,326.0472541000054,None,329.0375980999961,None,space,1.162061300012283,329.0375980999961,None,326.0472541000054,None,326.0472541000054,None,326.0472541000054,None,1.79,330.2701775000023,None,None,0,332.17023889999837,None,332.17023889999837,None,332.17023889999837,None,,,,,,,,,,,,P032,FENCOG,1,Pre,2022_Mar_30_1111,Go No-Go Task,2021.1.4,120.07872359555353,
,"Rule: When you see a yellow image, do not press 'spacebar'.",Images/Fearful/HF05_FC.jpg,Fear,Blue,Images/Blue.jpg,space,ParentConditions/YellowBlueBlue_v1.xlsx,BlueBlueYellow,Conditions/Version_1/YellowHappyStop.xlsx,no,PASS,0.49496512693563743,,,,,,,,,0,0,0,0,0,0,0,0,0,1,1,1,,,,,,,,,,,,,,,,,,,,,,,,,,,,,,,,,,,,,,,,,,,,,,,,,,,,,,,,,,,,,,,,,,,,,,,,,,,,,,,1.92,332.56891319999704,None,None,0,334.61879439999757,None,334.61879439999757,None,334.61879439999757,None,,,,,,,,,,,,P032,FENCOG,1,Pre,2022_Mar_30_1111,Go No-Go Task,2021.1.4,120.07872359555353,
,"Rule: When you see a yellow image, do not press 'spacebar'.",Images/Happy/AF32HAS.jpg,Happy,Yellow,Images/Yellow.jpg,None,ParentConditions/YellowBlueBlue_v1.xlsx,BlueBlueYellow,Conditions/Version_1/YellowHappyStop.xlsx,yes,PASS,0.3690153910902233,,,,,,,,,0,0,0,0,0,0,0,0,0,2,2,2,,,,,,,,,,,,,,,,,,,,,,,,,,,,,,,,,,,,,,,,,,,,,,,,,,,,,,,,,,,,,,,,,,,,,,,,,,,,,,,1.67,335.00501199999417,None,space,0,336.7931596999988,None,336.7931596999988,None,336.7931596999988,None,0.34317409999493975,,,,,,,,,,,P032,FENCOG,1,Pre,2022_Mar_30_1111,Go No-Go Task,2021.1.4,120.07872359555353,
,"Rule: When you see a yellow image, do not press 'spacebar'.",Images/Happy/AM32HAS.jpg,Happy,Yellow,Images/Yellow.jpg,None,ParentConditions/YellowBlueBlue_v1.xlsx,BlueBlueYellow,Conditions/Version_1/YellowHappyStop.xlsx,yes,PASS,0.09240134349582851,,,,,,,,,0,0,0,0,0,0,0,0,0,3,3,3,,,,,,,,,,,,,,,,,,,,,,,,,,,,,,,,,,,,,,,,,,,,,,,,,,,,,,,,,,,,,,,,,,,,,,,,,,,,,,,1.35,337.1890121000033,None,None,1,338.64261209999677,None,338.64261209999677,None,338.64261209999677,None,,,,,,,,,,,,P032,FENCOG,1,Pre,2022_Mar_30_1111,Go No-Go Task,2021.1.4,120.07872359555353,
,"Rule: When you see a yellow image, do not press 'spacebar'.",Images/Fearful/AF07FS.jpg,Fear,Blue,Images/Blue.jpg,space,ParentConditions/YellowBlueBlue_v1.xlsx,BlueBlueYellow,Conditions/Version_1/YellowHappyStop.xlsx,no,PASS,0.4013300010309635,,,,,,,,,0,0,0,0,0,0,0,0,0,4,4,4,,,,,,,,,,,,,,,,,,,,,,,,,,,,,,,,,,,,,,,,,,,,,,,,,,,,,,,,,,,,,,,,,,,,,,,,,,,,,,,1.94,339.0486995999963,None,space,1,341.1002163999947,None,341.1002163999947,None,341.1002163999947,None,0.3320867000002181,,,,,,,,,,,P032,FENCOG,1,Pre,2022_Mar_30_1111,Go No-Go Task,2021.1.4,120.07872359555353,
,"Rule: When you see a yellow image, do not press 'spacebar'.",Images/Fearful/AM30AFS.jpg,Fear,Blue,Images/Blue.jpg,space,ParentConditions/YellowBlueBlue_v1.xlsx,BlueBlueYellow,Conditions/Version_1/YellowHappyStop.xlsx,no,PASS,0.5026512951867452,,,,,,,,,0,0,0,0,0,0,0,0,0,5,5,5,,,,,,,,,,,,,,,,,,,,,,,,,,,,,,,,,,,,,,,,,,,,,,,,,,,,,,,,,,,,,,,,,,,,,,,,,,,,,,,1.96,341.49792169999273,None,space,1,343.57449389999965,None,343.57449389999965,None,343.57449389999965,None,0.28960629999346565,,,,,,,,,,,P032,FENCOG,1,Pre,2022_Mar_30_1111,Go No-Go Task,2021.1.4,120.07872359555353,
,"Rule: When you see a yellow image, do not press 'spacebar'.",Images/Happy/BM03_HO.jpg,Happy,Yellow,Images/Yellow.jpg,None,ParentConditions/YellowBlueBlue_v1.xlsx,BlueBlueYellow,Conditions/Version_1/YellowHappyStop.xlsx,yes,PASS,0.3904556138764915,,,,,,,,,0,0,0,0,0,0,0,0,0,6,6,6,,,,,,,,,,,,,,,,,,,,,,,,,,,,,,,,,,,,,,,,,,,,,,,,,,,,,,,,,,,,,,,,,,,,,,,,,,,,,,,1.63,343.96416400000453,None,None,1,345.7239616000006,None,345.7239616000006,None,345.7239616000006,None,,,,,,,,,,,,P032,FENCOG,1,Pre,2022_Mar_30_1111,Go No-Go Task,2021.1.4,120.07872359555353,
,"Rule: When you see a yellow image, do not press 'spacebar'.",Images/Fearful/HM06_FC.jpg,Fear,Blue,Images/Blue.jpg,space,ParentConditions/YellowBlueBlue_v1.xlsx,BlueBlueYellow,Conditions/Version_1/YellowHappyStop.xlsx,no,PASS,0.8295870874618959,,,,,,,,,0,0,0,0,0,0,0,0,0,7,7,7,,,,,,,,,,,,,,,,,,,,,,,,,,,,,,,,,,,,,,,,,,,,,,,,,,,,,,,,,,,,,,,,,,,,,,,,,,,,,,,1.95,346.1049689000065,None,space,1,348.16446220000216,None,348.16446220000216,None,348.16446220000216,None,0.26714899999205954,,,,,,,,,,,P032,FENCOG,1,Pre,2022_Mar_30_1111,Go No-Go Task,2021.1.4,120.07872359555353,
,"Rule: When you see a yellow image, do not press 'spacebar'.",Images/Fearful/AF19AFS.jpg,Fear,Blue,Images/Blue.jpg,space,ParentConditions/YellowBlueBlue_v1.xlsx,BlueBlueYellow,Conditions/Version_1/YellowHappyStop.xlsx,no,PASS,0.31457189280880904,,,,,,,,,0,0,0,0,0,0,0,0,0,8,8,8,,,,,,,,,,,,,,,,,,,,,,,,,,,,,,,,,,,,,,,,,,,,,,,,,,,,,,,,,,,,,,,,,,,,,,,,,,,,,,,1.91,348.56351029999496,None,space,1,350.5974090999953,None,350.5974090999953,None,350.5974090999953,None,0.29881930000556167,,,,,,,,,,,P032,FENCOG,1,Pre,2022_Mar_30_1111,Go No-Go Task,2021.1.4,120.07872359555353,
,"Rule: When you see a yellow image, do not press 'spacebar'.",Images/Happy/AF30HAS.jpg,Happy,Yellow,Images/Yellow.jpg,None,ParentConditions/YellowBlueBlue_v1.xlsx,BlueBlueYellow,Conditions/Version_1/YellowHappyStop.xlsx,yes,PASS,0.14544836048525234,,,,,,,,,0,0,0,0,0,0,0,0,0,9,9,9,,,,,,,,,,,,,,,,,,,,,,,,,,,,,,,,,,,,,,,,,,,,,,,,,,,,,,,,,,,,,,,,,,,,,,,,,,,,,,,1.2,350.9860105999978,None,None,1,352.30535110000346,None,352.30535110000346,None,352.30535110000346,None,,,,,,,,,,,,P032,FENCOG,1,Pre,2022_Mar_30_1111,Go No-Go Task,2021.1.4,120.07872359555353,
,"Rule: When you see a yellow image, do not press 'spacebar'.",Images/Fearful/AF25AFS.jpg,Fear,Blue,Images/Blue.jpg,space,ParentConditions/YellowBlueBlue_v1.xlsx,BlueBlueYellow,Conditions/Version_1/YellowHappyStop.xlsx,no,PASS,0.31319631990865415,,,,,,,,,0,0,0,0,0,0,0,0,0,10,10,10,,,,,,,,,,,,,,,,,,,,,,,,,,,,,,,,,,,,,,,,,,,,,,,,,,,,,,,,,,,,,,,,,,,,,,,,,,,,,,,1.29,352.70017209999787,None,space,1,354.11307370000577,None,354.11307370000577,None,354.11307370000577,None,0.24725129999569617,,,,,,,,,,,P032,FENCOG,1,Pre,2022_Mar_30_1111,Go No-Go Task,2021.1.4,120.07872359555353,
,"Rule: When you see a yellow image, do not press 'spacebar'.",Images/Fearful/AF30AFS.jpg,Fear,Blue,Images/Blue.jpg,space,ParentConditions/YellowBlueBlue_v1.xlsx,BlueBlueYellow,Conditions/Version_1/YellowHappyStop.xlsx,no,PASS,0.9854799433848976,,,,,,,,,0,0,0,0,0,0,0,0,0,11,11,11,,,,,,,,,,,,,,,,,,,,,,,,,,,,,,,,,,,,,,,,,,,,,,,,,,,,,,,,,,,,,,,,,,,,,,,,,,,,,,,1.42,354.5014153999946,None,space,1,356.045842099993,None,356.045842099993,None,356.045842099993,None,0.3061904000060167,,,,,,,,,,,P032,FENCOG,1,Pre,2022_Mar_30_1111,Go No-Go Task,2021.1.4,120.07872359555353,
,"Rule: When you see a yellow image, do not press 'spacebar'.",Images/Happy/BF10_HO.jpg,Happy,Yellow,Images/Yellow.jpg,None,ParentConditions/YellowBlueBlue_v1.xlsx,BlueBlueYellow,Conditions/Version_1/YellowHappyStop.xlsx,yes,PASS,0.9368187318754497,,,,,,,,,0,0,0,0,0,0,0,0,0,12,12,12,,,,,,,,,,,,,,,,,,,,,,,,,,,,,,,,,,,,,,,,,,,,,,,,,,,,,,,,,,,,,,,,,,,,,,,,,,,,,,,1.38,356.44173279999814,None,None,1,357.94526049999695,None,357.94526049999695,None,357.94526049999695,None,,,,,,,,,,,,P032,FENCOG,1,Pre,2022_Mar_30_1111,Go No-Go Task,2021.1.4,120.07872359555353,
,"Rule: When you see a yellow image, do not press 'spacebar'.",Images/Fearful/AM06_FO.jpg,Fear,Blue,Images/Blue.jpg,space,ParentConditions/YellowBlueBlue_v1.xlsx,BlueBlueYellow,Conditions/Version_1/YellowHappyStop.xlsx,no,PASS,0.6030700196123316,,,,,,,,,0,0,0,0,0,0,0,0,0,13,13,13,,,,,,,,,,,,,,,,,,,,,,,,,,,,,,,,,,,,,,,,,,,,,,,,,,,,,,,,,,,,,,,,,,,,,,,,,,,,,,,1.46,358.33859980000125,None,space,1,359.92791719999514,None,359.92791719999514,None,359.92791719999514,None,0.3445566000009421,,,,,,,,,,,P032,FENCOG,1,Pre,2022_Mar_30_1111,Go No-Go Task,2021.1.4,120.07872359555353,
,"Rule: When you see a yellow image, do not press 'spacebar'.",Images/Happy/AM24HAS.jpg,Happy,Yellow,Images/Yellow.jpg,None,ParentConditions/YellowBlueBlue_v1.xlsx,BlueBlueYellow,Conditions/Version_1/YellowHappyStop.xlsx,yes,PASS,0.8401488188278822,,,,,,,,,0,0,0,0,0,0,0,0,0,14,14,14,,,,,,,,,,,,,,,,,,,,,,,,,,,,,,,,,,,,,,,,,,,,,,,,,,,,,,,,,,,,,,,,,,,,,,,,,,,,,,,1.55,360.3119405000034,None,None,1,361.9857506999979,None,361.9857506999979,None,361.9857506999979,None,,,,,,,,,,,,P032,FENCOG,1,Pre,2022_Mar_30_1111,Go No-Go Task,2021.1.4,120.07872359555353,
,"Rule: When you see a yellow image, do not press 'spacebar'.",Images/Fearful/AF21AFS.jpg,Fear,Blue,Images/Blue.jpg,space,ParentConditions/YellowBlueBlue_v1.xlsx,BlueBlueYellow,Conditions/Version_1/YellowHappyStop.xlsx,no,PASS,0.9561052396726243,,,,,,,,,0,0,0,0,0,0,0,0,0,15,15,15,,,,,,,,,,,,,,,,,,,,,,,,,,,,,,,,,,,,,,,,,,,,,,,,,,,,,,,,,,,,,,,,,,,,,,,,,,,,,,,1.52,362.3747711000033,None,space,1,364.0184903000045,None,364.0184903000045,None,364.0184903000045,None,0.34969509999791626,,,,,,,,,,,P032,FENCOG,1,Pre,2022_Mar_30_1111,Go No-Go Task,2021.1.4,120.07872359555353,
,"Rule: When you see a yellow image, do not press 'spacebar'.",Images/Happy/AM06_HC.jpg,Happy,Yellow,Images/Yellow.jpg,None,ParentConditions/YellowBlueBlue_v1.xlsx,BlueBlueYellow,Conditions/Version_1/YellowHappyStop.xlsx,yes,PASS,0.36325944609889094,,,,,,,,,0,0,0,0,0,0,0,0,0,16,16,16,,,,,,,,,,,,,,,,,,,,,,,,,,,,,,,,,,,,,,,,,,,,,,,,,,,,,,,,,,,,,,,,,,,,,,,,,,,,,,,1.6,364.415221999996,None,space,0,366.1344434000057,None,366.1344434000057,None,366.1344434000057,None,0.3154945999995107,,,,,,,,,,,P032,FENCOG,1,Pre,2022_Mar_30_1111,Go No-Go Task,2021.1.4,120.07872359555353,
,"Rule: When you see a yellow image, do not press 'spacebar'.",Images/Fearful/AF10_FC.jpg,Fear,Blue,Images/Blue.jpg,space,ParentConditions/YellowBlueBlue_v1.xlsx,BlueBlueYellow,Conditions/Version_1/YellowHappyStop.xlsx,no,PASS,0.09357566512353055,,,,,,,,,0,0,0,0,0,0,0,0,0,17,17,17,,,,,,,,,,,,,,,,,,,,,,,,,,,,,,,,,,,,,,,,,,,,,,,,,,,,,,,,,,,,,,,,,,,,,,,,,,,,,,,1.99,366.52433739999833,None,space,1,368.6254790999956,None,368.6254790999956,None,368.6254790999956,None,0.35058099999150727,,,,,,,,,,,P032,FENCOG,1,Pre,2022_Mar_30_1111,Go No-Go Task,2021.1.4,120.07872359555353,
,"Rule: When you see a yellow image, do not press 'spacebar'.",Images/Fearful/BM03_FC.jpg,Fear,Blue,Images/Blue.jpg,space,ParentConditions/YellowBlueBlue_v1.xlsx,BlueBlueYellow,Conditions/Version_1/YellowHappyStop.xlsx,no,PASS,0.789884489320339,,,,,,,,,0,0,0,0,0,0,0,0,0,18,18,18,,,,,,,,,,,,,,,,,,,,,,,,,,,,,,,,,,,,,,,,,,,,,,,,,,,,,,,,,,,,,,,,,,,,,,,,,,,,,,,1.97,369.03045669999847,None,space,1,371.1247338999965,None,371.1247338999965,None,371.1247338999965,None,0.29141369998978917,,,,,,,,,,,P032,FENCOG,1,Pre,2022_Mar_30_1111,Go No-Go Task,2021.1.4,120.07872359555353,
,"Rule: When you see a yellow image, do not press 'spacebar'.",Images/Fearful/HM09_FC.jpg,Fear,Blue,Images/Blue.jpg,space,ParentConditions/YellowBlueBlue_v1.xlsx,BlueBlueYellow,Conditions/Version_1/YellowHappyStop.xlsx,no,PASS,0.8198583361260475,,,,,,,,,0,0,0,0,0,0,0,0,0,19,19,19,,,,,,,,,,,,,,,,,,,,,,,,,,,,,,,,,,,,,,,,,,,,,,,,,,,,,,,,,,,,,,,,,,,,,,,,,,,,,,,1.59,371.5139513000031,None,None,0,373.21577249999973,None,373.21577249999973,None,373.21577249999973,None,,,,,,,,,,,,P032,FENCOG,1,Pre,2022_Mar_30_1111,Go No-Go Task,2021.1.4,120.07872359555353,
,"Rule: When you see a yellow image, do not press 'spacebar'.",Images/Fearful/AM04_FO.jpg,Fear,Blue,Images/Blue.jpg,space,ParentConditions/YellowBlueBlue_v1.xlsx,BlueBlueYellow,Conditions/Version_1/YellowHappyStop.xlsx,no,PASS,0.9595350245966109,,,,,,,,,0,0,0,0,0,0,0,0,0,20,20,20,,,,,,,,,,,,,,,,,,,,,,,,,,,,,,,,,,,,,,,,,,,,,,,,,,,,,,,,,,,,,,,,,,,,,,,,,,,,,,,2,373.61861710000085,None,None,0,375.74006389999704,None,375.74006389999704,None,375.74006389999704,None,,,,,,,,,,,,P032,FENCOG,1,Pre,2022_Mar_30_1111,Go No-Go Task,2021.1.4,120.07872359555353,
,"Rule: When you see a yellow image, do not press 'spacebar'.",Images/Fearful/AF11AFS.jpg,Fear,Blue,Images/Blue.jpg,space,ParentConditions/YellowBlueBlue_v1.xlsx,BlueBlueYellow,Conditions/Version_1/YellowHappyStop.xlsx,no,PASS,0.7276184017912607,,,,,,,,,0,0,0,0,0,0,0,0,0,21,21,21,,,,,,,,,,,,,,,,,,,,,,,,,,,,,,,,,,,,,,,,,,,,,,,,,,,,,,,,,,,,,,,,,,,,,,,,,,,,,,,1.78,376.13041680000606,None,space,1,378.03099519999523,None,378.03099519999523,None,378.03099519999523,None,0.28070289999595843,,,,,,,,,,,P032,FENCOG,1,Pre,2022_Mar_30_1111,Go No-Go Task,2021.1.4,120.07872359555353,
,"Rule: When you see a yellow image, do not press 'spacebar'.",Images/Fearful/AM10_FO.jpg,Fear,Blue,Images/Blue.jpg,space,ParentConditions/YellowBlueBlue_v1.xlsx,BlueBlueYellow,Conditions/Version_1/YellowHappyStop.xlsx,no,PASS,0.7995855816230459,,,,,,,,,0,0,0,0,0,0,0,0,0,22,22,22,,,,,,,,,,,,,,,,,,,,,,,,,,,,,,,,,,,,,,,,,,,,,,,,,,,,,,,,,,,,,,,,,,,,,,,,,,,,,,,1.8,378.42597979999846,None,space,1,380.3468492999964,None,380.3468492999964,None,380.3468492999964,None,0.24524740000197198,,,,,,,,,,,P032,FENCOG,1,Pre,2022_Mar_30_1111,Go No-Go Task,2021.1.4,120.07872359555353,
,"Rule: When you see a yellow image, do not press 'spacebar'.",Images/Fearful/WF04_FC.jpg,Fear,Blue,Images/Blue.jpg,space,ParentConditions/YellowBlueBlue_v1.xlsx,BlueBlueYellow,Conditions/Version_1/YellowHappyStop.xlsx,no,PASS,0.007163238332436372,,,,,,,,,0,0,0,0,0,0,0,0,0,23,23,23,,,,,,,,,,,,,,,,,,,,,,,,,,,,,,,,,,,,,,,,,,,,,,,,,,,,,,,,,,,,,,,,,,,,,,,,,,,,,,,1.54,380.7431224000029,None,space,1,382.4130348000035,None,382.4130348000035,None,382.4130348000035,None,0.28323709999676794,,,,,,,,,,,P032,FENCOG,1,Pre,2022_Mar_30_1111,Go No-Go Task,2021.1.4,120.07872359555353,
,"Rule: When you see a yellow image, do not press 'spacebar'.",Images/Fearful/AF28AFS.jpg,Fear,Blue,Images/Blue.jpg,space,ParentConditions/YellowBlueBlue_v1.xlsx,BlueBlueYellow,Conditions/Version_1/YellowHappyStop.xlsx,no,PASS,0.6578574406316495,,,,,,,,,0,0,0,0,0,0,0,0,0,24,24,24,,,,,,,,,,,,,,,,,,,,,,,,,,,,,,,,,,,,,,,,,,,,,,,,,,,,,,,,,,,,,,,,,,,,,,,,,,,,,,,1.83,382.800711200005,None,space,1,384.76233919999504,None,384.76233919999504,None,384.76233919999504,None,0.2461089999997057,,,,,,,,,,,P032,FENCOG,1,Pre,2022_Mar_30_1111,Go No-Go Task,2021.1.4,120.07872359555353,
,"Rule: When you see a yellow image, do not press 'spacebar'.",Images/Fearful/WF11_FC.jpg,Fear,Blue,Images/Blue.jpg,space,ParentConditions/YellowBlueBlue_v1.xlsx,BlueBlueYellow,Conditions/Version_1/YellowHappyStop.xlsx,no,PASS,0.16001068916200367,,,,,,,,,0,0,0,0,0,0,0,0,0,25,25,25,,,,,,,,,,,,,,,,,,,,,,,,,,,,,,,,,,,,,,,,,,,,,,,,,,,,,,,,,,,,,,,,,,,,,,,,,,,,,,,1.51,385.141040699993,None,space,1,386.77841250000347,None,386.77841250000347,None,386.77841250000347,None,0.2541592999914428,,,,,,,,,,,P032,FENCOG,1,Pre,2022_Mar_30_1111,Go No-Go Task,2021.1.4,120.07872359555353,
,"Rule: When you see a yellow image, do not press 'spacebar'.",Images/Fearful/AM17AFS.jpg,Fear,Blue,Images/Blue.jpg,space,ParentConditions/YellowBlueBlue_v1.xlsx,BlueBlueYellow,Conditions/Version_1/YellowHappyStop.xlsx,no,PASS,0.11773651559349041,,,,,,,,,0,0,0,0,0,0,0,0,0,26,26,26,,,,,,,,,,,,,,,,,,,,,,,,,,,,,,,,,,,,,,,,,,,,,,,,,,,,,,,,,,,,,,,,,,,,,,,,,,,,,,,1.45,387.1658866999933,None,space,1,388.7278210999939,None,388.7278210999939,None,388.7278210999939,None,0.23240189999341965,,,,,,,,,,,P032,FENCOG,1,Pre,2022_Mar_30_1111,Go No-Go Task,2021.1.4,120.07872359555353,
,"Rule: When you see a yellow image, do not press 'spacebar'.",Images/Happy/AF27HAS.jpg,Happy,Yellow,Images/Yellow.jpg,None,ParentConditions/YellowBlueBlue_v1.xlsx,BlueBlueYellow,Conditions/Version_1/YellowHappyStop.xlsx,yes,PASS,0.3141869564869746,,,,,,,,,0,0,0,0,0,0,0,0,0,27,27,27,,,,,,,,,,,,,,,,,,,,,,,,,,,,,,,,,,,,,,,,,,,,,,,,,,,,,,,,,,,,,,,,,,,,,,,,,,,,,,,1.93,389.13008580000314,None,None,1,391.17712239999673,None,391.17712239999673,None,391.17712239999673,None,,,,,,,,,,,,P032,FENCOG,1,Pre,2022_Mar_30_1111,Go No-Go Task,2021.1.4,120.07872359555353,
,"Rule: When you see a yellow image, do not press 'spacebar'.",Images/Fearful/BF10_FO.jpg,Fear,Blue,Images/Blue.jpg,space,ParentConditions/YellowBlueBlue_v1.xlsx,BlueBlueYellow,Conditions/Version_1/YellowHappyStop.xlsx,no,PASS,0.6473836402289548,,,,,,,,,0,0,0,0,0,0,0,0,0,28,28,28,,,,,,,,,,,,,,,,,,,,,,,,,,,,,,,,,,,,,,,,,,,,,,,,,,,,,,,,,,,,,,,,,,,,,,,,,,,,,,,1.24,391.57122539999546,None,space,1,392.93503779999446,None,392.93503779999446,None,392.93503779999446,None,0.29720429998997133,,,,,,,,,,,P032,FENCOG,1,Pre,2022_Mar_30_1111,Go No-Go Task,2021.1.4,120.07872359555353,
,"Rule: When you see a yellow image, do not press 'spacebar'.",Images/Fearful/HF04_FO.jpg,Fear,Blue,Images/Blue.jpg,space,ParentConditions/YellowBlueBlue_v1.xlsx,BlueBlueYellow,Conditions/Version_1/YellowHappyStop.xlsx,no,PASS,0.6573655365841123,,,,,,,,,0,0,0,0,0,0,0,0,0,29,29,29,,,,,,,,,,,,,,,,,,,,,,,,,,,,,,,,,,,,,,,,,,,,,,,,,,,,,,,,,,,,,,,,,,,,,,,,,,,,,,,1.84,393.32398359999934,None,space,1,395.28424979999545,None,395.28424979999545,None,395.28424979999545,None,0.26782310000271536,,,,,,,,,,,P032,FENCOG,1,Pre,2022_Mar_30_1111,Go No-Go Task,2021.1.4,120.07872359555353,
,"Rule: When you see a yellow image, do not press 'spacebar'.",Images/Happy/AF26HAS.jpg,Happy,Yellow,Images/Yellow.jpg,None,ParentConditions/YellowBlueBlue_v1.xlsx,BlueBlueYellow,Conditions/Version_1/YellowHappyStop.xlsx,yes,PASS,0.9634288273569958,,,,,,,,,0,0,0,0,0,0,0,0,0,30,30,30,,,,,,,,,,,,,,,,,,,,,,,,,,,,,,,,,,,,,,,,,,,,,,,,,,,,,,,,,,,,,,,,,,,,,,,,,,,,,,,1.26,395.6778373999987,None,None,1,397.06704799999716,None,397.06704799999716,None,397.06704799999716,None,,,,,,,,,,,,P032,FENCOG,1,Pre,2022_Mar_30_1111,Go No-Go Task,2021.1.4,120.07872359555353,
,"Rule: When you see a yellow image, do not press 'spacebar'.",Images/Happy/HF09_HE.jpg,Happy,Yellow,Images/Yellow.jpg,None,ParentConditions/YellowBlueBlue_v1.xlsx,BlueBlueYellow,Conditions/Version_1/YellowHappyStop.xlsx,yes,PASS,0.28002812366142005,,,,,,,,,0,0,0,0,0,0,0,0,0,31,31,31,,,,,,,,,,,,,,,,,,,,,,,,,,,,,,,,,,,,,,,,,,,,,,,,,,,,,,,,,,,,,,,,,,,,,,,,,,,,,,,1.43,397.45073169999523,None,space,0,398.99149270000635,None,398.99149270000635,None,398.99149270000635,None,0.23271830000157934,,,,,,,,,,,P032,FENCOG,1,Pre,2022_Mar_30_1111,Go No-Go Task,2021.1.4,120.07872359555353,
,"Rule: When you see a yellow image, do not press 'spacebar'.",Images/Fearful/AM16AFS.jpg,Fear,Blue,Images/Blue.jpg,space,ParentConditions/YellowBlueBlue_v1.xlsx,BlueBlueYellow,Conditions/Version_1/YellowHappyStop.xlsx,no,PASS,0.5681414931312986,,,,,,,,,0,0,0,0,0,0,0,0,0,32,32,32,,,,,,,,,,,,,,,,,,,,,,,,,,,,,,,,,,,,,,,,,,,,,,,,,,,,,,,,,,,,,,,,,,,,,,,,,,,,,,,1.73,399.3875396999938,None,space,1,401.22424820000015,None,401.22424820000015,None,401.22424820000015,None,0.2799003999971319,,,,,,,,,,,P032,FENCOG,1,Pre,2022_Mar_30_1111,Go No-Go Task,2021.1.4,120.07872359555353,
,"Rule: When you see a yellow image, do not press 'spacebar'.",Images/Fearful/WF05_FO.jpg,Fear,Blue,Images/Blue.jpg,space,ParentConditions/YellowBlueBlue_v1.xlsx,BlueBlueYellow,Conditions/Version_1/YellowHappyStop.xlsx,no,PASS,0.23759173368539344,,,,,,,,,0,0,0,0,0,0,0,0,0,33,33,33,,,,,,,,,,,,,,,,,,,,,,,,,,,,,,,,,,,,,,,,,,,,,,,,,,,,,,,,,,,,,,,,,,,,,,,,,,,,,,,1.98,401.6299671000015,None,space,1,403.7233880999993,None,403.7233880999993,None,403.7233880999993,None,0.2846457999985432,,,,,,,,,,,P032,FENCOG,1,Pre,2022_Mar_30_1111,Go No-Go Task,2021.1.4,120.07872359555353,
,"Rule: When you see a yellow image, do not press 'spacebar'.",Images/Fearful/AM03_FC.jpg,Fear,Blue,Images/Blue.jpg,space,ParentConditions/YellowBlueBlue_v1.xlsx,BlueBlueYellow,Conditions/Version_1/YellowHappyStop.xlsx,no,PASS,0.45277772012976447,,,,,,,,,0,0,0,0,0,0,0,0,0,34,34,34,,,,,,,,,,,,,,,,,,,,,,,,,,,,,,,,,,,,,,,,,,,,,,,,,,,,,,,,,,,,,,,,,,,,,,,,,,,,,,,1.66,404.1265321999963,None,space,1,405.90609109999787,None,405.90609109999787,None,405.90609109999787,None,0.2860627000045497,,,,,,,,,,,P032,FENCOG,1,Pre,2022_Mar_30_1111,Go No-Go Task,2021.1.4,120.07872359555353,
,"Rule: When you see a yellow image, do not press 'spacebar'.",Images/Fearful/AM01AFS.jpg,Fear,Blue,Images/Blue.jpg,space,ParentConditions/YellowBlueBlue_v1.xlsx,BlueBlueYellow,Conditions/Version_1/YellowHappyStop.xlsx,no,PASS,0.4826830931616207,,,,,,,,,0,0,0,0,0,0,0,0,0,35,35,35,,,,,,,,,,,,,,,,,,,,,,,,,,,,,,,,,,,,,,,,,,,,,,,,,,,,,,,,,,,,,,,,,,,,,,,,,,,,,,,1.31,406.3019662000006,None,space,1,407.730659199995,None,407.730659199995,None,407.730659199995,None,0.27763700000650715,,,,,,,,,,,P032,FENCOG,1,Pre,2022_Mar_30_1111,Go No-Go Task,2021.1.4,120.07872359555353,
,"Rule: When you see a yellow image, do not press 'spacebar'.",Images/Fearful/HM04_FC.jpg,Fear,Blue,Images/Blue.jpg,space,ParentConditions/YellowBlueBlue_v1.xlsx,BlueBlueYellow,Conditions/Version_1/YellowHappyStop.xlsx,no,PASS,0.46069029171054665,,,,,,,,,0,0,0,0,0,0,0,0,0,36,36,36,,,,,,,,,,,,,,,,,,,,,,,,,,,,,,,,,,,,,,,,,,,,,,,,,,,,,,,,,,,,,,,,,,,,,,,,,,,,,,,1.89,408.1269876000006,None,space,1,410.14653949999774,None,410.14653949999774,None,410.14653949999774,None,0.2935876000119606,,,,,,,,,,,P032,FENCOG,1,Pre,2022_Mar_30_1111,Go No-Go Task,2021.1.4,120.07872359555353,
,"Rule: When you see a yellow image, do not press 'spacebar'.",Images/Fearful/BF18_FC.jpg,Fear,Blue,Images/Blue.jpg,space,ParentConditions/YellowBlueBlue_v1.xlsx,BlueBlueYellow,Conditions/Version_1/YellowHappyStop.xlsx,no,PASS,0.633030328468129,,,,,,,,,0,0,0,0,0,0,0,0,0,37,37,37,,,,,,,,,,,,,,,,,,,,,,,,,,,,,,,,,,,,,,,,,,,,,,,,,,,,,,,,,,,,,,,,,,,,,,,,,,,,,,,1.27,410.53308949999337,None,space,1,411.91232679999666,None,411.91232679999666,None,411.91232679999666,None,0.3034509999997681,,,,,,,,,,,P032,FENCOG,1,Pre,2022_Mar_30_1111,Go No-Go Task,2021.1.4,120.07872359555353,
,"Rule: When you see a yellow image, do not press 'spacebar'.",Images/Fearful/AF07_FO.jpg,Fear,Blue,Images/Blue.jpg,space,ParentConditions/YellowBlueBlue_v1.xlsx,BlueBlueYellow,Conditions/Version_1/YellowHappyStop.xlsx,no,PASS,0.34147832357579266,,,,,,,,,0,0,0,0,0,0,0,0,0,38,38,38,,,,,,,,,,,,,,,,,,,,,,,,,,,,,,,,,,,,,,,,,,,,,,,,,,,,,,,,,,,,,,,,,,,,,,,,,,,,,,,1.3,412.3113871999958,None,space,1,413.72007130000566,None,413.72007130000566,None,413.72007130000566,None,0.29553890001261607,,,,,,,,,,,P032,FENCOG,1,Pre,2022_Mar_30_1111,Go No-Go Task,2021.1.4,120.07872359555353,
,"Rule: When you see a yellow image, do not press 'spacebar'.",Images/Fearful/AM24AFS.jpg,Fear,Blue,Images/Blue.jpg,space,ParentConditions/YellowBlueBlue_v1.xlsx,BlueBlueYellow,Conditions/Version_1/YellowHappyStop.xlsx,no,PASS,0.778148808430259,,,,,,,,,0,0,0,0,0,0,0,0,0,39,39,39,,,,,,,,,,,,,,,,,,,,,,,,,,,,,,,,,,,,,,,,,,,,,,,,,,,,,,,,,,,,,,,,,,,,,,,,,,,,,,,1.62,414.11918880000303,None,space,1,415.8444584999961,None,415.8444584999961,None,415.8444584999961,None,0.23521680000703782,,,,,,,,,,,P032,FENCOG,1,Pre,2022_Mar_30_1111,Go No-Go Task,2021.1.4,120.07872359555353,
,"Rule: When you see a yellow image, do not press 'spacebar'.",Images/Fearful/AM03AFS.jpg,Fear,Blue,Images/Blue.jpg,space,ParentConditions/YellowBlueBlue_v1.xlsx,BlueBlueYellow,Conditions/Version_1/YellowHappyStop.xlsx,no,PASS,0.23044092834848573,,,,,,,,,0,0,0,0,0,0,0,0,0,40,40,40,,,,,,,,,,,,,,,,,,,,,,,,,,,,,,,,,,,,,,,,,,,,,,,,,,,,,,,,,,,,,,,,,,,,,,,,,,,,,,,1.75,416.2442050999962,None,space,1,418.1104470999999,None,418.1104470999999,None,418.1104470999999,None,0.2652925000002142,,,,,,,,,,,P032,FENCOG,1,Pre,2022_Mar_30_1111,Go No-Go Task,2021.1.4,120.07872359555353,
,"Rule: When you see a yellow image, do not press 'spacebar'.",Images/Fearful/BM08_FC.jpg,Fear,Blue,Images/Blue.jpg,space,ParentConditions/YellowBlueBlue_v1.xlsx,BlueBlueYellow,Conditions/Version_1/YellowHappyStop.xlsx,no,PASS,0.6548756521259214,,,,,,,,,0,0,0,0,0,0,0,0,0,41,41,41,,,,,,,,,,,,,,,,,,,,,,,,,,,,,,,,,,,,,,,,,,,,,,,,,,,,,,,,,,,,,,,,,,,,,,,,,,,,,,,1.65,418.50955040000554,None,None,0,420.2768933000043,None,420.2768933000043,None,420.2768933000043,None,,,,,,,,,,,,P032,FENCOG,1,Pre,2022_Mar_30_1111,Go No-Go Task,2021.1.4,120.07872359555353,
,"Rule: When you see a yellow image, do not press 'spacebar'.",Images/Fearful/AF32AFS.jpg,Fear,Blue,Images/Blue.jpg,space,ParentConditions/YellowBlueBlue_v1.xlsx,BlueBlueYellow,Conditions/Version_1/YellowHappyStop.xlsx,no,PASS,0.9401650545876452,,,,,,,,,0,0,0,0,0,0,0,0,0,42,42,42,,,,,,,,,,,,,,,,,,,,,,,,,,,,,,,,,,,,,,,,,,,,,,,,,,,,,,,,,,,,,,,,,,,,,,,,,,,,,,,1.76,420.67271840000467,None,space,1,422.5511572999967,None,422.5511572999967,None,422.5511572999967,None,0.24913240000023507,,,,,,,,,,,P032,FENCOG,1,Pre,2022_Mar_30_1111,Go No-Go Task,2021.1.4,120.07872359555353,
,"Rule: When you see a yellow image, do not press 'spacebar'.",Images/Fearful/AF26AFS.jpg,Fear,Blue,Images/Blue.jpg,space,ParentConditions/YellowBlueBlue_v1.xlsx,BlueBlueYellow,Conditions/Version_1/YellowHappyStop.xlsx,no,PASS,0.5799257276734284,,,,,,,,,0,0,0,0,0,0,0,0,0,43,43,43,,,,,,,,,,,,,,,,,,,,,,,,,,,,,,,,,,,,,,,,,,,,,,,,,,,,,,,,,,,,,,,,,,,,,,,,,,,,,,,1.21,422.9458360999997,None,None,0,424.2839649999951,None,424.2839649999951,None,424.2839649999951,None,,,,,,,,,,,,P032,FENCOG,1,Pre,2022_Mar_30_1111,Go No-Go Task,2021.1.4,120.07872359555353,
,"Rule: When you see a yellow image, do not press 'spacebar'.",Images/Fearful/BF09_FC.jpg,Fear,Blue,Images/Blue.jpg,space,ParentConditions/YellowBlueBlue_v1.xlsx,BlueBlueYellow,Conditions/Version_1/YellowHappyStop.xlsx,no,PASS,0.9512288628250045,,,,,,,,,0,0,0,0,0,0,0,0,0,44,44,44,,,,,,,,,,,,,,,,,,,,,,,,,,,,,,,,,,,,,,,,,,,,,,,,,,,,,,,,,,,,,,,,,,,,,,,,,,,,,,,1.72,424.6693486000004,None,space,1,426.5167720000027,None,426.5167720000027,None,426.5167720000027,None,0.21938850000151433,,,,,,,,,,,P032,FENCOG,1,Pre,2022_Mar_30_1111,Go No-Go Task,2021.1.4,120.07872359555353,
,"Rule: When you see a yellow image, do not press 'spacebar'.",Images/Fearful/BM01_FO.jpg,Fear,Blue,Images/Blue.jpg,space,ParentConditions/YellowBlueBlue_v1.xlsx,BlueBlueYellow,Conditions/Version_1/YellowHappyStop.xlsx,no,PASS,0.8954287307362916,,,,,,,,,0,0,0,0,0,0,0,0,0,45,45,45,,,,,,,,,,,,,,,,,,,,,,,,,,,,,,,,,,,,,,,,,,,,,,,,,,,,,,,,,,,,,,,,,,,,,,,,,,,,,,,1.47,426.89799359999597,None,space,1,428.4911099000019,None,428.4911099000019,None,428.4911099000019,None,0.26128579999203794,,,,,,,,,,,P032,FENCOG,1,Pre,2022_Mar_30_1111,Go No-Go Task,2021.1.4,120.07872359555353,
,"Rule: When you see a yellow image, do not press 'spacebar'.",Images/Happy/BF14_HO.jpg,Happy,Yellow,Images/Yellow.jpg,None,ParentConditions/YellowBlueBlue_v1.xlsx,BlueBlueYellow,Conditions/Version_1/YellowHappyStop.xlsx,yes,PASS,0.7234280216409134,,,,,,,,,0,0,0,0,0,0,0,0,0,46,46,46,,,,,,,,,,,,,,,,,,,,,,,,,,,,,,,,,,,,,,,,,,,,,,,,,,,,,,,,,,,,,,,,,,,,,,,,,,,,,,,1.58,428.8804441999964,None,space,0,430.58215829999244,None,430.58215829999244,None,430.58215829999244,None,0.2740602000121726,,,,,,,,,,,P032,FENCOG,1,Pre,2022_Mar_30_1111,Go No-Go Task,2021.1.4,120.07872359555353,
,"Rule: When you see a yellow image, do not press 'spacebar'.",Images/Fearful/WM11_FC.jpg,Fear,Blue,Images/Blue.jpg,space,ParentConditions/YellowBlueBlue_v1.xlsx,BlueBlueYellow,Conditions/Version_1/YellowHappyStop.xlsx,no,PASS,0.023552814974996727,,,,,,,,,0,0,0,0,0,0,0,0,0,47,47,47,,,,,,,,,,,,,,,,,,,,,,,,,,,,,,,,,,,,,,,,,,,,,,,,,,,,,,,,,,,,,,,,,,,,,,,,,,,,,,,1.34,430.97288810000464,None,None,0,432.43994670000393,None,432.43994670000393,None,432.43994670000393,None,,,,,,,,,,,,P032,FENCOG,1,Pre,2022_Mar_30_1111,Go No-Go Task,2021.1.4,120.07872359555353,
,"Rule: When you see a yellow image, do not press 'spacebar'.",Images/Fearful/AM02_FO.jpg,Fear,Blue,Images/Blue.jpg,space,ParentConditions/YellowBlueBlue_v1.xlsx,BlueBlueYellow,Conditions/Version_1/YellowHappyStop.xlsx,no,PASS,0.4906088235260202,,,,,,,,,0,0,0,0,0,0,0,0,0,48,48,48,,,,,,,,,,,,,,,,,,,,,,,,,,,,,,,,,,,,,,,,,,,,,,,,,,,,,,,,,,,,,,,,,,,,,,,,,,,,,,,1.39,432.824755499998,None,space,1,434.33937180000066,None,434.33937180000066,None,434.33937180000066,None,0.22882650000974536,,,,,,,,,,,P032,FENCOG,1,Pre,2022_Mar_30_1111,Go No-Go Task,2021.1.4,120.07872359555353,
,"Rule: When you see a yellow image, do not press 'spacebar'.",Images/Happy/HM09_HO.jpg,Happy,Yellow,Images/Yellow.jpg,None,ParentConditions/YellowBlueBlue_v1.xlsx,BlueBlueYellow,Conditions/Version_1/YellowHappyStop.xlsx,yes,PASS,0.5172626673634482,,,,,,,,,0,0,0,0,0,0,0,0,0,49,49,49,,,,,,,,,,,,,,,,,,,,,,,,,,,,,,,,,,,,,,,,,,,,,,,,,,,,,,,,,,,,,,,,,,,,,,,,,,,,,,,1.71,434.73100060000434,None,space,0,436.5720455999981,None,436.5720455999981,None,436.5720455999981,None,0.25231329999223817,,,,,,,,,,,P032,FENCOG,1,Pre,2022_Mar_30_1111,Go No-Go Task,2021.1.4,120.07872359555353,
,"Rule: When you see a yellow image, do not press 'spacebar'.",Images/Happy/HF10_HE.jpg,Happy,Yellow,Images/Yellow.jpg,None,ParentConditions/YellowBlueBlue_v1.xlsx,BlueBlueYellow,Conditions/Version_1/YellowHappyStop.xlsx,yes,PASS,0.44150167084278924,,,,,,,,,0,0,0,0,0,0,0,0,0,50,50,50,,,,,,,,,,,,,,,,,,,,,,,,,,,,,,,,,,,,,,,,,,,,,,,,,,,,,,,,,,,,,,,,,,,,,,,,,,,,,,,1.7,436.9571705999988,None,space,0,438.7714844000002,None,438.7714844000002,None,438.7714844000002,None,0.26105529999767896,,,,,,,,,,,P032,FENCOG,1,Pre,2022_Mar_30_1111,Go No-Go Task,2021.1.4,120.07872359555353,
,"Rule: When you see a yellow image, do not press 'spacebar'.",Images/Fearful/AF09AFS.jpg,Fear,Blue,Images/Blue.jpg,space,ParentConditions/YellowBlueBlue_v1.xlsx,BlueBlueYellow,Conditions/Version_1/YellowHappyStop.xlsx,no,PASS,0.20329731425220043,,,,,,,,,0,0,0,0,0,0,0,0,0,51,51,51,,,,,,,,,,,,,,,,,,,,,,,,,,,,,,,,,,,,,,,,,,,,,,,,,,,,,,,,,,,,,,,,,,,,,,,,,,,,,,,1.44,439.1682676000055,None,None,0,440.7291395999928,None,440.7291395999928,None,440.7291395999928,None,,,,,,,,,,,,P032,FENCOG,1,Pre,2022_Mar_30_1111,Go No-Go Task,2021.1.4,120.07872359555353,
,"Rule: When you see a yellow image, do not press 'spacebar'.",Images/Fearful/AM23AFS.jpg,Fear,Blue,Images/Blue.jpg,space,ParentConditions/YellowBlueBlue_v1.xlsx,BlueBlueYellow,Conditions/Version_1/YellowHappyStop.xlsx,no,PASS,0.9134790301426777,,,,,,,,,0,0,0,0,0,0,0,0,0,52,52,52,,,,,,,,,,,,,,,,,,,,,,,,,,,,,,,,,,,,,,,,,,,,,,,,,,,,,,,,,,,,,,,,,,,,,,,,,,,,,,,1.22,441.12582719999773,None,space,1,442.4619304999942,None,442.4619304999942,None,442.4619304999942,None,0.3061413999967044,,,,,,,,,,,P032,FENCOG,1,Pre,2022_Mar_30_1111,Go No-Go Task,2021.1.4,120.07872359555353,
,"Rule: When you see a yellow image, do not press 'spacebar'.",Images/Fearful/AM05AFS.jpg,Fear,Blue,Images/Blue.jpg,space,ParentConditions/YellowBlueBlue_v1.xlsx,BlueBlueYellow,Conditions/Version_1/YellowHappyStop.xlsx,no,PASS,0.7369542946293995,,,,,,,,,0,0,0,0,0,0,0,0,0,53,53,53,,,,,,,,,,,,,,,,,,,,,,,,,,,,,,,,,,,,,,,,,,,,,,,,,,,,,,,,,,,,,,,,,,,,,,,,,,,,,,,1.57,442.8604686000035,None,space,1,444.55307249999896,None,444.55307249999896,None,444.55307249999896,None,0.2711644999944838,,,,,,,,,,,P032,FENCOG,1,Pre,2022_Mar_30_1111,Go No-Go Task,2021.1.4,120.07872359555353,
,"Rule: When you see a yellow image, do not press 'spacebar'.",Images/Happy/AF28HAS.jpg,Happy,Yellow,Images/Yellow.jpg,None,ParentConditions/YellowBlueBlue_v1.xlsx,BlueBlueYellow,Conditions/Version_1/YellowHappyStop.xlsx,yes,PASS,0.27168303726444554,,,,,,,,,0,0,0,0,0,0,0,0,0,54,54,54,,,,,,,,,,,,,,,,,,,,,,,,,,,,,,,,,,,,,,,,,,,,,,,,,,,,,,,,,,,,,,,,,,,,,,,,,,,,,,,1.28,444.9439249999996,None,space,0,446.3524924999947,None,446.3524924999947,None,446.3524924999947,None,0.34387349999451544,,,,,,,,,,,P032,FENCOG,1,Pre,2022_Mar_30_1111,Go No-Go Task,2021.1.4,120.07872359555353,
,"Rule: When you see a yellow image, do not press 'spacebar'.",Images/Fearful/BF14_FO.jpg,Fear,Blue,Images/Blue.jpg,space,ParentConditions/YellowBlueBlue_v1.xlsx,BlueBlueYellow,Conditions/Version_1/YellowHappyStop.xlsx,no,PASS,0.6433421649003036,,,,,,,,,0,0,0,0,0,0,0,0,0,55,55,55,,,,,,,,,,,,,,,,,,,,,,,,,,,,,,,,,,,,,,,,,,,,,,,,,,,,,,,,,,,,,,,,,,,,,,,,,,,,,,,1.81,446.73907310000504,None,space,1,448.6768441000022,None,448.6768441000022,None,448.6768441000022,None,0.25128050000057556,,,,,,,,,,,P032,FENCOG,1,Pre,2022_Mar_30_1111,Go No-Go Task,2021.1.4,120.07872359555353,
,"Rule: When you see a yellow image, do not press 'spacebar'.",Images/Happy/AM30HAS.jpg,Happy,Yellow,Images/Yellow.jpg,None,ParentConditions/YellowBlueBlue_v1.xlsx,BlueBlueYellow,Conditions/Version_1/YellowHappyStop.xlsx,yes,PASS,0.0794505415747715,,,,,,,,,0,0,0,0,0,0,0,0,0,56,56,56,,,,,,,,,,,,,,,,,,,,,,,,,,,,,,,,,,,,,,,,,,,,,,,,,,,,,,,,,,,,,,,,,,,,,,,,,,,,,,,1.77,449.0602753999992,None,None,1,450.9512401999964,None,450.9512401999964,None,450.9512401999964,None,,,,,,,,,,,,P032,FENCOG,1,Pre,2022_Mar_30_1111,Go No-Go Task,2021.1.4,120.07872359555353,
,"Rule: When you see a yellow image, do not press 'spacebar'.",Images/Fearful/AF27AFS.jpg,Fear,Blue,Images/Blue.jpg,space,ParentConditions/YellowBlueBlue_v1.xlsx,BlueBlueYellow,Conditions/Version_1/YellowHappyStop.xlsx,no,PASS,0.3935834771022866,,,,,,,,,0,0,0,0,0,0,0,0,0,57,57,57,,,,,,,,,,,,,,,,,,,,,,,,,,,,,,,,,,,,,,,,,,,,,,,,,,,,,,,,,,,,,,,,,,,,,,,,,,,,,,,1.37,451.34234289999586,None,space,1,452.8255616999959,None,452.8255616999959,None,452.8255616999959,None,0.334517399998731,,,,,,,,,,,P032,FENCOG,1,Pre,2022_Mar_30_1111,Go No-Go Task,2021.1.4,120.07872359555353,
,"Rule: When you see a yellow image, do not press 'spacebar'.",Images/Fearful/AM32AFS.jpg,Fear,Blue,Images/Blue.jpg,space,ParentConditions/YellowBlueBlue_v1.xlsx,BlueBlueYellow,Conditions/Version_1/YellowHappyStop.xlsx,no,PASS,0.5614458224122035,,,,,,,,,0,0,0,0,0,0,0,0,0,58,58,58,,,,,,,,,,,,,,,,,,,,,,,,,,,,,,,,,,,,,,,,,,,,,,,,,,,,,,,,,,,,,,,,,,,,,,,,,,,,,,,1.82,453.21817180000653,None,space,1,455.16665620000276,None,455.16665620000276,None,455.16665620000276,None,0.289341499999864,,,,,,,,,,,P032,FENCOG,1,Pre,2022_Mar_30_1111,Go No-Go Task,2021.1.4,120.07872359555353,
,"Rule: When you see a yellow image, do not press 'spacebar'.",Images/Fearful/AM09_FO.jpg,Fear,Blue,Images/Blue.jpg,space,ParentConditions/YellowBlueBlue_v1.xlsx,BlueBlueYellow,Conditions/Version_1/YellowHappyStop.xlsx,no,PASS,0.3933837419145386,,,,,,,,,0,0,0,0,0,0,0,0,0,59,59,59,,,,,,,,,,,,,,,,,,,,,,,,,,,,,,,,,,,,,,,,,,,,,,,,,,,,,,,,,,,,,,,,,,,,,,,,,,,,,,,1.4,455.55263900000136,None,None,0,457.0743111000047,None,457.0743111000047,None,457.0743111000047,None,,,,,,,,,,,,P032,FENCOG,1,Pre,2022_Mar_30_1111,Go No-Go Task,2021.1.4,120.07872359555353,
,"Rule: When you see a yellow image, do not press 'spacebar'.",Images/Fearful/AF01_FO.jpg,Fear,Blue,Images/Blue.jpg,space,ParentConditions/YellowBlueBlue_v1.xlsx,BlueBlueYellow,Conditions/Version_1/YellowHappyStop.xlsx,no,PASS,0.7419870009427991,,,,,,,,,0,0,0,0,0,0,0,0,0,60,60,60,,,,,,,,,,,,,,,,,,,,,,,,,,,,,,,,,,,,,,,,,,,,,,,,,,,,,,,,,,,,,,,,,,,,,,,,,,,,,,,1.5,457.4724567999947,None,space,1,459.0820409000007,None,459.0820409000007,None,459.0820409000007,None,0.3659224000002723,,,,,,,,,,,P032,FENCOG,1,Pre,2022_Mar_30_1111,Go No-Go Task,2021.1.4,120.07872359555353,
,"Rule: When you see a yellow image, do not press 'spacebar'.",Images/Happy/AM10_HO.jpg,Happy,Yellow,Images/Yellow.jpg,None,ParentConditions/YellowBlueBlue_v1.xlsx,BlueBlueYellow,Conditions/Version_1/YellowHappyStop.xlsx,yes,PASS,0.7352402085502512,,,,,,,,,0,0,0,0,0,0,0,0,0,61,61,61,,,,,,,,,,,,,,,,,,,,,,,,,,,,,,,,,,,,,,,,,,,,,,,,,,,,,,,,,,,,,,,,,,,,,,,,,,,,,,,1.86,459.48213150000083,None,space,0,461.4646625000023,None,461.4646625000023,None,461.4646625000023,None,0.1753785000037169,,,,,,,,,,,P032,FENCOG,1,Pre,2022_Mar_30_1111,Go No-Go Task,2021.1.4,120.07872359555353,
,"Rule: When you see a yellow image, do not press 'spacebar'.",Images/Happy/AM22HAS.jpg,Happy,Yellow,Images/Yellow.jpg,None,ParentConditions/YellowBlueBlue_v1.xlsx,BlueBlueYellow,Conditions/Version_1/YellowHappyStop.xlsx,yes,PASS,0.27838589915801637,,,,,,,,,0,0,0,0,0,0,0,0,0,62,62,62,,,,,,,,,,,,,,,,,,,,,,,,,,,,,,,,,,,,,,,,,,,,,,,,,,,,,,,,,,,,,,,,,,,,,,,,,,,,,,,1.61,461.85544479999226,None,space,0,463.5973990000057,None,463.5973990000057,None,463.5973990000057,None,0.28266560001065955,,,,,,,,,,,P032,FENCOG,1,Pre,2022_Mar_30_1111,Go No-Go Task,2021.1.4,120.07872359555353,
,"Rule: When you see a yellow image, do not press 'spacebar'.",Images/Fearful/AM22AFS.jpg,Fear,Blue,Images/Blue.jpg,space,ParentConditions/YellowBlueBlue_v1.xlsx,BlueBlueYellow,Conditions/Version_1/YellowHappyStop.xlsx,no,PASS,0.012398818855924532,,,,,,,,,0,0,0,0,0,0,0,0,0,63,63,63,,,,,,,,,,,,,,,,,,,,,,,,,,,,,,,,,,,,,,,,,,,,,,,,,,,,,,,,,,,,,,,,,,,,,,,,,,,,,,,1.56,463.9860602999979,None,space,1,465.6550891999941,None,465.6550891999941,None,465.6550891999941,None,0.28940950000833254,,,,,,,,,,,P032,FENCOG,1,Pre,2022_Mar_30_1111,Go No-Go Task,2021.1.4,120.07872359555353,
,"Rule: When you see a yellow image, do not press 'spacebar'.",Images/Happy/BM08_HO.jpg,Happy,Yellow,Images/Yellow.jpg,None,ParentConditions/YellowBlueBlue_v1.xlsx,BlueBlueYellow,Conditions/Version_1/YellowHappyStop.xlsx,yes,PASS,0.25791881247444226,,,,,,,,,0,0,0,0,0,0,0,0,0,64,64,64,,,,,,,,,,,,,,,,,,,,,,,,,,,,,,,,,,,,,,,,,,,,,,,,,,,,,,,,,,,,,,,,,,,,,,,,,,,,,,,1.33,466.05605970000033,None,space,0,467.49624269999913,None,467.49624269999913,None,467.49624269999913,None,0.2878458000050159,,,,,,,,,,,P032,FENCOG,1,Pre,2022_Mar_30_1111,Go No-Go Task,2021.1.4,120.07872359555353,
,"Rule: When you see a yellow image, do not press 'spacebar'.",Images/Fearful/AM19AFS.jpg,Fear,Blue,Images/Blue.jpg,space,ParentConditions/YellowBlueBlue_v1.xlsx,BlueBlueYellow,Conditions/Version_1/YellowHappyStop.xlsx,no,PASS,0.4570092371665587,,,,,,,,,0,0,0,0,0,0,0,0,0,65,65,65,,,,,,,,,,,,,,,,,,,,,,,,,,,,,,,,,,,,,,,,,,,,,,,,,,,,,,,,,,,,,,,,,,,,,,,,,,,,,,,1.53,467.89410710000084,None,space,1,469.520305500002,None,469.520305500002,None,469.520305500002,None,0.2632220999948913,,,,,,,,,,,P032,FENCOG,1,Pre,2022_Mar_30_1111,Go No-Go Task,2021.1.4,120.07872359555353,
,"Rule: When you see a yellow image, do not press 'spacebar'.",Images/Fearful/AF23AFS.jpg,Fear,Blue,Images/Blue.jpg,space,ParentConditions/YellowBlueBlue_v1.xlsx,BlueBlueYellow,Conditions/Version_1/YellowHappyStop.xlsx,no,PASS,0.9065930904744121,,,,,,,,,0,0,0,0,0,0,0,0,0,66,66,66,,,,,,,,,,,,,,,,,,,,,,,,,,,,,,,,,,,,,,,,,,,,,,,,,,,,,,,,,,,,,,,,,,,,,,,,,,,,,,,1.9,469.91944850000436,None,space,1,471.9367450999998,None,471.9367450999998,None,471.9367450999998,None,0.2956567999935942,,,,,,,,,,,P032,FENCOG,1,Pre,2022_Mar_30_1111,Go No-Go Task,2021.1.4,120.07872359555353,
,"Rule: When you see a yellow image, do not press 'spacebar'.",Images/Fearful/AM13AFS.jpg,Fear,Blue,Images/Blue.jpg,space,ParentConditions/YellowBlueBlue_v1.xlsx,BlueBlueYellow,Conditions/Version_1/YellowHappyStop.xlsx,no,PASS,0.672217887403839,,,,,,,,,0,0,0,0,0,0,0,0,0,67,67,67,,,,,,,,,,,,,,,,,,,,,,,,,,,,,,,,,,,,,,,,,,,,,,,,,,,,,,,,,,,,,,,,,,,,,,,,,,,,,,,1.87,472.3326970000053,None,space,1,474.3192285999976,None,474.3192285999976,None,474.3192285999976,None,0.30443230000673793,,,,,,,,,,,P032,FENCOG,1,Pre,2022_Mar_30_1111,Go No-Go Task,2021.1.4,120.07872359555353,
,"Rule: When you see a yellow image, do not press 'spacebar'.",Images/Fearful/HF09_FC.jpg,Fear,Blue,Images/Blue.jpg,space,ParentConditions/YellowBlueBlue_v1.xlsx,BlueBlueYellow,Conditions/Version_1/YellowHappyStop.xlsx,no,PASS,0.947763278232759,,,,,,,,,0,0,0,0,0,0,0,0,0,68,68,68,,,,,,,,,,,,,,,,,,,,,,,,,,,,,,,,,,,,,,,,,,,,,,,,,,,,,,,,,,,,,,,,,,,,,,,,,,,,,,,1.36,474.7071656000044,None,space,1,476.1854344000021,None,476.1854344000021,None,476.1854344000021,None,0.29461509999237023,,,,,,,,,,,P032,FENCOG,1,Pre,2022_Mar_30_1111,Go No-Go Task,2021.1.4,120.07872359555353,
,"Rule: When you see a yellow image, do not press 'spacebar'.",Images/Fearful/AM04AFS.jpg,Fear,Blue,Images/Blue.jpg,space,ParentConditions/YellowBlueBlue_v1.xlsx,BlueBlueYellow,Conditions/Version_1/YellowHappyStop.xlsx,no,PASS,0.7155710730323807,,,,,,,,,0,0,0,0,0,0,0,0,0,69,69,69,,,,,,,,,,,,,,,,,,,,,,,,,,,,,,,,,,,,,,,,,,,,,,,,,,,,,,,,,,,,,,,,,,,,,,,,,,,,,,,1.41,476.57478169999376,None,space,1,478.10142809999525,None,478.10142809999525,None,478.10142809999525,None,0.2827145000046585,,,,,,,,,,,P032,FENCOG,1,Pre,2022_Mar_30_1111,Go No-Go Task,2021.1.4,120.07872359555353,
,"Rule: When you see a yellow image, do not press 'spacebar'.",Images/Fearful/AF02AFS.jpg,Fear,Blue,Images/Blue.jpg,space,ParentConditions/YellowBlueBlue_v1.xlsx,BlueBlueYellow,Conditions/Version_1/YellowHappyStop.xlsx,no,PASS,0.9864792225255055,,,,,,,,,0,0,0,0,0,0,0,0,0,70,70,70,,,,,,,,,,,,,,,,,,,,,,,,,,,,,,,,,,,,,,,,,,,,,,,,,,,,,,,,,,,,,,,,,,,,,,,,,,,,,,,1.74,478.4918367999926,None,None,0,480.3507966000034,None,480.3507966000034,None,480.3507966000034,None,,,,,,,,,,,,P032,FENCOG,1,Pre,2022_Mar_30_1111,Go No-Go Task,2021.1.4,120.07872359555353,
,"Rule: When you see a yellow image, do not press 'spacebar'.",Images/Fearful/AM09AFS.jpg,Fear,Blue,Images/Blue.jpg,space,ParentConditions/YellowBlueBlue_v1.xlsx,BlueBlueYellow,Conditions/Version_1/YellowHappyStop.xlsx,no,PASS,0.8390326237024166,,,,,,,,,0,0,0,0,0,0,0,0,0,71,71,71,,,,,,,,,,,,,,,,,,,,,,,,,,,,,,,,,,,,,,,,,,,,,,,,,,,,,,,,,,,,,,,,,,,,,,,,,,,,,,,1.49,480.741904399998,None,space,1,482.35020200000145,None,482.35020200000145,None,482.35020200000145,None,0.21776600000157487,,,,,,,,,,,P032,FENCOG,1,Pre,2022_Mar_30_1111,Go No-Go Task,2021.1.4,120.07872359555353,
,"Rule: When you see a yellow image, do not press 'spacebar'.",Images/Fearful/BF05_FO.jpg,Fear,Blue,Images/Blue.jpg,space,ParentConditions/YellowBlueBlue_v1.xlsx,BlueBlueYellow,Conditions/Version_1/YellowHappyStop.xlsx,no,PASS,0.691917879610661,,,,,,,,,0,0,0,0,0,0,0,0,0,72,72,72,,,,,,,,,,,,,,,,,,,,,,,,,,,,,,,,,,,,,,,,,,,,,,,,,,,,,,,,,,,,,,,,,,,,,,,,,,,,,,,1.32,482.7387790000066,None,space,1,484.1828811000014,None,484.1828811000014,None,484.1828811000014,None,0.24936750000051688,,,,,,,,,,,P032,FENCOG,1,Pre,2022_Mar_30_1111,Go No-Go Task,2021.1.4,120.07872359555353,
,"Rule: When you see a yellow image, do not press 'spacebar'.",Images/Fearful/AF22AFS.jpg,Fear,Blue,Images/Blue.jpg,space,ParentConditions/YellowBlueBlue_v1.xlsx,BlueBlueYellow,Conditions/Version_1/YellowHappyStop.xlsx,no,PASS,0.03529836358299465,,,,,,,,,0,0,0,0,0,0,0,0,0,73,73,73,,,,,,,,,,,,,,,,,,,,,,,,,,,,,,,,,,,,,,,,,,,,,,,,,,,,,,,,,,,,,,,,,,,,,,,,,,,,,,,1.88,484.57982650000486,None,space,1,486.5905819000036,None,486.5905819000036,None,486.5905819000036,None,0.3456090000108816,,,,,,,,,,,P032,FENCOG,1,Pre,2022_Mar_30_1111,Go No-Go Task,2021.1.4,120.07872359555353,
,"Rule: When you see a yellow image, do not press 'spacebar'.",Images/Happy/BF18_HO.jpg,Happy,Yellow,Images/Yellow.jpg,None,ParentConditions/YellowBlueBlue_v1.xlsx,BlueBlueYellow,Conditions/Version_1/YellowHappyStop.xlsx,yes,PASS,0.4232691792902379,,,,,,,,,0,0,0,0,0,0,0,0,0,74,74,74,,,,,,,,,,,,,,,,,,,,,,,,,,,,,,,,,,,,,,,,,,,,,,,,,,,,,,,,,,,,,,,,,,,,,,,,,,,,,,,1.64,486.9713938000059,None,None,1,488.7399871999951,None,488.7399871999951,None,488.7399871999951,None,,,,,,,,,,,,P032,FENCOG,1,Pre,2022_Mar_30_1111,Go No-Go Task,2021.1.4,120.07872359555353,
,"Rule: When you see a yellow image, do not press 'spacebar'.",Images/Fearful/WM12_FO.jpg,Fear,Blue,Images/Blue.jpg,space,ParentConditions/YellowBlueBlue_v1.xlsx,BlueBlueYellow,Conditions/Version_1/YellowHappyStop.xlsx,no,PASS,0.34671640176200413,,,,,,,,,0,0,0,0,0,0,0,0,0,75,75,75,,,,,,,,,,,,,,,,,,,,,,,,,,,,,,,,,,,,,,,,,,,,,,,,,,,,,,,,,,,,,,,,,,,,,,,,,,,,,,,1.68,489.12231299999985,None,space,1,490.92266019999806,None,490.92266019999806,None,490.92266019999806,None,0.3733317000005627,,,,,,,,,,,P032,FENCOG,1,Pre,2022_Mar_30_1111,Go No-Go Task,2021.1.4,120.07872359555353,
,"Rule: When you see a yellow image, do not press 'spacebar'.",Images/Fearful/BF07_FO.jpg,Fear,Blue,Images/Blue.jpg,space,ParentConditions/YellowBlueBlue_v1.xlsx,BlueBlueYellow,Conditions/Version_1/YellowHappyStop.xlsx,no,PASS,0.2992945798396267,,,,,,,,,0,0,0,0,0,0,0,0,0,76,76,76,,,,,,,,,,,,,,,,,,,,,,,,,,,,,,,,,,,,,,,,,,,,,,,,,,,,,,,,,,,,,,,,,,,,,,,,,,,,,,,1.48,491.3187556000048,None,space,1,492.9220492000022,None,492.9220492000022,None,492.9220492000022,None,0.23847240000031888,,,,,,,,,,,P032,FENCOG,1,Pre,2022_Mar_30_1111,Go No-Go Task,2021.1.4,120.07872359555353,
,"Rule: When you see a yellow image, do not press 'spacebar'.",Images/Fearful/HF10_FO.jpg,Fear,Blue,Images/Blue.jpg,space,ParentConditions/YellowBlueBlue_v1.xlsx,BlueBlueYellow,Conditions/Version_1/YellowHappyStop.xlsx,no,PASS,0.06506977473557796,,,,,,,,,0,0,0,0,0,0,0,0,0,77,77,77,,,,,,,,,,,,,,,,,,,,,,,,,,,,,,,,,,,,,,,,,,,,,,,,,,,,,,,,,,,,,,,,,,,,,,,,,,,,,,,1.23,493.3104683999991,None,space,1,494.6632680000039,None,494.6632680000039,None,494.6632680000039,None,0.288862400004291,,,,,,,,,,,P032,FENCOG,1,Pre,2022_Mar_30_1111,Go No-Go Task,2021.1.4,120.07872359555353,
,"Rule: When you see a yellow image, do not press 'spacebar'.",Images/Fearful/AM10AFS.jpg,Fear,Blue,Images/Blue.jpg,space,ParentConditions/YellowBlueBlue_v1.xlsx,BlueBlueYellow,Conditions/Version_1/YellowHappyStop.xlsx,no,PASS,0.4391085826227009,,,,,,,,,0,0,0,0,0,0,0,0,0,78,78,78,,,,,,,,,,,,,,,,,,,,,,,,,,,,,,,,,,,,,,,,,,,,,,,,,,,,,,,,,,,,,,,,,,,,,,,,,,,,,,,1.25,495.05222779999895,None,space,1,496.42112050000287,None,496.42112050000287,None,496.42112050000287,None,0.27506249998987187,,,,,,,,,,,P032,FENCOG,1,Pre,2022_Mar_30_1111,Go No-Go Task,2021.1.4,120.07872359555353,
,"Rule: When you see a yellow image, do not press 'spacebar'.",Images/Happy/AM23HAS.jpg,Happy,Yellow,Images/Yellow.jpg,None,ParentConditions/YellowBlueBlue_v1.xlsx,BlueBlueYellow,Conditions/Version_1/YellowHappyStop.xlsx,yes,PASS,0.8296456455429673,,,,,,,,,0,0,0,0,0,0,0,0,0,79,79,79,,,,,,,,,,,,,,,,,,,,,,,,,,,,,,,,,,,,,,,,,,,,,,,,,,,,,,,,,,,,,,,,,,,,,,,,,,,,,,,1.85,496.81567700000596,None,space,0,498.778633599999,None,498.778633599999,None,498.778633599999,None,0.1892020999948727,,,,,,,,,,,P032,FENCOG,1,Pre,2022_Mar_30_1111,Go No-Go Task,2021.1.4,120.07872359555353,
,"Rule: When you see blue image, do not press 'spacebar'.",Images/Fearful/HM06_FC.jpg,Fear,Blue,Images/Blue.jpg,None,ParentConditions/YellowBlueBlue_v1.xlsx,BlueBlueYellow,Conditions/Version_1/BlueFearStop.xlsx,yes,PASS,0.7729813006314565,,,,,,,,,0,0,0,0,0,1,1,1,0,0,0,0,,,,,,,,,,,,,,,,,,,,,,,,,,,,,,,,,,,,,,,,,,,,,,,,,,,,,,,,,,,,,,,,,510.47125630000664,None,513.4569709999923,None,space,0.33461439999518916,513.4569709999923,None,510.47125630000664,None,510.47125630000664,None,510.47125630000664,None,1.86,513.8617080999975,None,None,1,515.8319962999958,None,515.8319962999958,None,515.8319962999958,None,,499.20028629999433,None,space,10.753062200004933,499.69441209999786,None,499.20028629999433,None,499.20028629999433,None,P032,FENCOG,1,Pre,2022_Mar_30_1111,Go No-Go Task,2021.1.4,120.07872359555353,
,"Rule: When you see blue image, do not press 'spacebar'.",Images/Happy/AF07HAS.jpg,Happy,Yellow,Images/Yellow.jpg,space,ParentConditions/YellowBlueBlue_v1.xlsx,BlueBlueYellow,Conditions/Version_1/BlueFearStop.xlsx,no,PASS,0.4924453653062516,,,,,,,,,0,0,0,0,0,1,1,1,0,1,1,1,,,,,,,,,,,,,,,,,,,,,,,,,,,,,,,,,,,,,,,,,,,,,,,,,,,,,,,,,,,,,,,,,,,,,,,,,,,,,,,1.7,516.2334865000012,None,space,1,518.0562863999949,None,518.0562863999949,None,518.0562863999949,None,0.3039426000032108,,,,,,,,,,,P032,FENCOG,1,Pre,2022_Mar_30_1111,Go No-Go Task,2021.1.4,120.07872359555353,
,"Rule: When you see blue image, do not press 'spacebar'.",Images/Happy/AF28HAS.jpg,Happy,Yellow,Images/Yellow.jpg,space,ParentConditions/YellowBlueBlue_v1.xlsx,BlueBlueYellow,Conditions/Version_1/BlueFearStop.xlsx,no,PASS,0.8943473655540664,,,,,,,,,0,0,0,0,0,1,1,1,0,2,2,2,,,,,,,,,,,,,,,,,,,,,,,,,,,,,,,,,,,,,,,,,,,,,,,,,,,,,,,,,,,,,,,,,,,,,,,,,,,,,,,1.25,518.4449443000049,None,space,1,519.805789399994,None,519.805789399994,None,519.805789399994,None,0.33819920000678394,,,,,,,,,,,P032,FENCOG,1,Pre,2022_Mar_30_1111,Go No-Go Task,2021.1.4,120.07872359555353,
,"Rule: When you see blue image, do not press 'spacebar'.",Images/Happy/AF22HAS.jpg,Happy,Yellow,Images/Yellow.jpg,space,ParentConditions/YellowBlueBlue_v1.xlsx,BlueBlueYellow,Conditions/Version_1/BlueFearStop.xlsx,no,PASS,0.5892765061873407,,,,,,,,,0,0,0,0,0,1,1,1,0,3,3,3,,,,,,,,,,,,,,,,,,,,,,,,,,,,,,,,,,,,,,,,,,,,,,,,,,,,,,,,,,,,,,,,,,,,,,,,,,,,,,,1.91,520.204135299995,None,space,1,522.2384430999955,None,522.2384430999955,None,522.2384430999955,None,0.3136590000067372,,,,,,,,,,,P032,FENCOG,1,Pre,2022_Mar_30_1111,Go No-Go Task,2021.1.4,120.07872359555353,
,"Rule: When you see blue image, do not press 'spacebar'.",Images/Fearful/AF27AFS.jpg,Fear,Blue,Images/Blue.jpg,None,ParentConditions/YellowBlueBlue_v1.xlsx,BlueBlueYellow,Conditions/Version_1/BlueFearStop.xlsx,yes,PASS,0.41428581318896585,,,,,,,,,0,0,0,0,0,1,1,1,0,4,4,4,,,,,,,,,,,,,,,,,,,,,,,,,,,,,,,,,,,,,,,,,,,,,,,,,,,,,,,,,,,,,,,,,,,,,,,,,,,,,,,1.55,522.6301934999938,None,None,1,524.2962292000011,None,524.2962292000011,None,524.2962292000011,None,,,,,,,,,,,,P032,FENCOG,1,Pre,2022_Mar_30_1111,Go No-Go Task,2021.1.4,120.07872359555353,
,"Rule: When you see blue image, do not press 'spacebar'.",Images/Happy/AM24HAS.jpg,Happy,Yellow,Images/Yellow.jpg,space,ParentConditions/YellowBlueBlue_v1.xlsx,BlueBlueYellow,Conditions/Version_1/BlueFearStop.xlsx,no,PASS,0.8126867400025187,,,,,,,,,0,0,0,0,0,1,1,1,0,5,5,5,,,,,,,,,,,,,,,,,,,,,,,,,,,,,,,,,,,,,,,,,,,,,,,,,,,,,,,,,,,,,,,,,,,,,,,,,,,,,,,1.52,524.694367899996,None,space,1,526.3288490999985,None,526.3288490999985,None,526.3288490999985,None,0.24725920001219492,,,,,,,,,,,P032,FENCOG,1,Pre,2022_Mar_30_1111,Go No-Go Task,2021.1.4,120.07872359555353,
,"Rule: When you see blue image, do not press 'spacebar'.",Images/Fearful/AF26AFS.jpg,Fear,Blue,Images/Blue.jpg,None,ParentConditions/YellowBlueBlue_v1.xlsx,BlueBlueYellow,Conditions/Version_1/BlueFearStop.xlsx,yes,PASS,0.7771539142714355,,,,,,,,,0,0,0,0,0,1,1,1,0,6,6,6,,,,,,,,,,,,,,,,,,,,,,,,,,,,,,,,,,,,,,,,,,,,,,,,,,,,,,,,,,,,,,,,,,,,,,,,,,,,,,,1.73,526.7306957999972,None,space,0,528.5700034000038,None,528.5700034000038,None,528.5700034000038,None,0.2540680000092834,,,,,,,,,,,P032,FENCOG,1,Pre,2022_Mar_30_1111,Go No-Go Task,2021.1.4,120.07872359555353,
,"Rule: When you see blue image, do not press 'spacebar'.",Images/Happy/WM11_HC.jpg,Happy,Yellow,Images/Yellow.jpg,space,ParentConditions/YellowBlueBlue_v1.xlsx,BlueBlueYellow,Conditions/Version_1/BlueFearStop.xlsx,no,PASS,0.612727142386838,,,,,,,,,0,0,0,0,0,1,1,1,0,7,7,7,,,,,,,,,,,,,,,,,,,,,,,,,,,,,,,,,,,,,,,,,,,,,,,,,,,,,,,,,,,,,,,,,,,,,,,,,,,,,,,1.33,528.9685852999974,None,None,0,530.4106530999998,None,530.4106530999998,None,530.4106530999998,None,,,,,,,,,,,,P032,FENCOG,1,Pre,2022_Mar_30_1111,Go No-Go Task,2021.1.4,120.07872359555353,
,"Rule: When you see blue image, do not press 'spacebar'.",Images/Happy/BM03_HO.jpg,Happy,Yellow,Images/Yellow.jpg,space,ParentConditions/YellowBlueBlue_v1.xlsx,BlueBlueYellow,Conditions/Version_1/BlueFearStop.xlsx,no,PASS,0.7313165030586903,,,,,,,,,0,0,0,0,0,1,1,1,0,8,8,8,,,,,,,,,,,,,,,,,,,,,,,,,,,,,,,,,,,,,,,,,,,,,,,,,,,,,,,,,,,,,,,,,,,,,,,,,,,,,,,1.63,530.8093635999976,None,space,1,532.5520156999992,None,532.5520156999992,None,532.5520156999992,None,0.2724020999885397,,,,,,,,,,,P032,FENCOG,1,Pre,2022_Mar_30_1111,Go No-Go Task,2021.1.4,120.07872359555353,
,"Rule: When you see blue image, do not press 'spacebar'.",Images/Happy/BF18_HO.jpg,Happy,Yellow,Images/Yellow.jpg,space,ParentConditions/YellowBlueBlue_v1.xlsx,BlueBlueYellow,Conditions/Version_1/BlueFearStop.xlsx,no,PASS,0.5715935528670182,,,,,,,,,0,0,0,0,0,1,1,1,0,9,9,9,,,,,,,,,,,,,,,,,,,,,,,,,,,,,,,,,,,,,,,,,,,,,,,,,,,,,,,,,,,,,,,,,,,,,,,,,,,,,,,1.64,532.9511156999943,None,space,1,534.7014382000052,None,534.7014382000052,None,534.7014382000052,None,0.2826513000036357,,,,,,,,,,,P032,FENCOG,1,Pre,2022_Mar_30_1111,Go No-Go Task,2021.1.4,120.07872359555353,
,"Rule: When you see blue image, do not press 'spacebar'.",Images/Happy/AM10HAS.jpg,Happy,Yellow,Images/Yellow.jpg,space,ParentConditions/YellowBlueBlue_v1.xlsx,BlueBlueYellow,Conditions/Version_1/BlueFearStop.xlsx,no,PASS,0.4742386996589605,,,,,,,,,0,0,0,0,0,1,1,1,0,10,10,10,,,,,,,,,,,,,,,,,,,,,,,,,,,,,,,,,,,,,,,,,,,,,,,,,,,,,,,,,,,,,,,,,,,,,,,,,,,,,,,1.41,535.0959607999976,None,space,1,536.6258830000006,None,536.6258830000006,None,536.6258830000006,None,0.2862979999918025,,,,,,,,,,,P032,FENCOG,1,Pre,2022_Mar_30_1111,Go No-Go Task,2021.1.4,120.07872359555353,
,"Rule: When you see blue image, do not press 'spacebar'.",Images/Happy/AM09HAS.jpg,Happy,Yellow,Images/Yellow.jpg,space,ParentConditions/YellowBlueBlue_v1.xlsx,BlueBlueYellow,Conditions/Version_1/BlueFearStop.xlsx,no,PASS,0.5791375189576048,,,,,,,,,0,0,0,0,0,1,1,1,0,11,11,11,,,,,,,,,,,,,,,,,,,,,,,,,,,,,,,,,,,,,,,,,,,,,,,,,,,,,,,,,,,,,,,,,,,,,,,,,,,,,,,1.35,537.0158043999982,None,space,1,538.4919349999982,None,538.4919349999982,None,538.4919349999982,None,0.2761204000125872,,,,,,,,,,,P032,FENCOG,1,Pre,2022_Mar_30_1111,Go No-Go Task,2021.1.4,120.07872359555353,
,"Rule: When you see blue image, do not press 'spacebar'.",Images/Happy/AM16HAS.jpg,Happy,Yellow,Images/Yellow.jpg,space,ParentConditions/YellowBlueBlue_v1.xlsx,BlueBlueYellow,Conditions/Version_1/BlueFearStop.xlsx,no,PASS,0.06851146054747248,,,,,,,,,0,0,0,0,0,1,1,1,0,12,12,12,,,,,,,,,,,,,,,,,,,,,,,,,,,,,,,,,,,,,,,,,,,,,,,,,,,,,,,,,,,,,,,,,,,,,,,,,,,,,,,1.42,538.8812720999995,None,space,1,540.4163673000003,None,540.4163673000003,None,540.4163673000003,None,0.28011760000663344,,,,,,,,,,,P032,FENCOG,1,Pre,2022_Mar_30_1111,Go No-Go Task,2021.1.4,120.07872359555353,
,"Rule: When you see blue image, do not press 'spacebar'.",Images/Happy/AF10_HE.jpg,Happy,Yellow,Images/Yellow.jpg,space,ParentConditions/YellowBlueBlue_v1.xlsx,BlueBlueYellow,Conditions/Version_1/BlueFearStop.xlsx,no,PASS,0.21267371658214962,,,,,,,,,0,0,0,0,0,1,1,1,0,13,13,13,,,,,,,,,,,,,,,,,,,,,,,,,,,,,,,,,,,,,,,,,,,,,,,,,,,,,,,,,,,,,,,,,,,,,,,,,,,,,,,1.69,540.820944799998,None,space,1,542.6241452999966,None,542.6241452999966,None,542.6241452999966,None,0.31192780000856146,,,,,,,,,,,P032,FENCOG,1,Pre,2022_Mar_30_1111,Go No-Go Task,2021.1.4,120.07872359555353,
,"Rule: When you see blue image, do not press 'spacebar'.",Images/Happy/AF27HAS.jpg,Happy,Yellow,Images/Yellow.jpg,space,ParentConditions/YellowBlueBlue_v1.xlsx,BlueBlueYellow,Conditions/Version_1/BlueFearStop.xlsx,no,PASS,0.8109673156723475,,,,,,,,,0,0,0,0,0,1,1,1,0,14,14,14,,,,,,,,,,,,,,,,,,,,,,,,,,,,,,,,,,,,,,,,,,,,,,,,,,,,,,,,,,,,,,,,,,,,,,,,,,,,,,,1.66,543.0194514000032,None,space,1,544.7901166999945,None,544.7901166999945,None,544.7901166999945,None,0.3380609000014374,,,,,,,,,,,P032,FENCOG,1,Pre,2022_Mar_30_1111,Go No-Go Task,2021.1.4,120.07872359555353,
,"Rule: When you see blue image, do not press 'spacebar'.",Images/Happy/BF10_HO.jpg,Happy,Yellow,Images/Yellow.jpg,space,ParentConditions/YellowBlueBlue_v1.xlsx,BlueBlueYellow,Conditions/Version_1/BlueFearStop.xlsx,no,PASS,0.35707259862702334,,,,,,,,,0,0,0,0,0,1,1,1,0,15,15,15,,,,,,,,,,,,,,,,,,,,,,,,,,,,,,,,,,,,,,,,,,,,,,,,,,,,,,,,,,,,,,,,,,,,,,,,,,,,,,,1.99,545.1904944999987,None,space,1,547.2893004999933,None,547.2893004999933,None,547.2893004999933,None,0.37462519999826327,,,,,,,,,,,P032,FENCOG,1,Pre,2022_Mar_30_1111,Go No-Go Task,2021.1.4,120.07872359555353,
,"Rule: When you see blue image, do not press 'spacebar'.",Images/Happy/BF14_HO.jpg,Happy,Yellow,Images/Yellow.jpg,space,ParentConditions/YellowBlueBlue_v1.xlsx,BlueBlueYellow,Conditions/Version_1/BlueFearStop.xlsx,no,PASS,0.41712793219483124,,,,,,,,,0,0,0,0,0,1,1,1,0,16,16,16,,,,,,,,,,,,,,,,,,,,,,,,,,,,,,,,,,,,,,,,,,,,,,,,,,,,,,,,,,,,,,,,,,,,,,,,,,,,,,,1.96,547.6869288000016,None,space,1,549.7553744000033,None,549.7553744000033,None,549.7553744000033,None,0.2686217000009492,,,,,,,,,,,P032,FENCOG,1,Pre,2022_Mar_30_1111,Go No-Go Task,2021.1.4,120.07872359555353,
,"Rule: When you see blue image, do not press 'spacebar'.",Images/Fearful/BM08_FC.jpg,Fear,Blue,Images/Blue.jpg,None,ParentConditions/YellowBlueBlue_v1.xlsx,BlueBlueYellow,Conditions/Version_1/BlueFearStop.xlsx,yes,PASS,0.2777606849347436,,,,,,,,,0,0,0,0,0,1,1,1,0,17,17,17,,,,,,,,,,,,,,,,,,,,,,,,,,,,,,,,,,,,,,,,,,,,,,,,,,,,,,,,,,,,,,,,,,,,,,,,,,,,,,,1.21,550.1524978999951,None,None,1,551.471441799993,None,551.471441799993,None,551.471441799993,None,,,,,,,,,,,,P032,FENCOG,1,Pre,2022_Mar_30_1111,Go No-Go Task,2021.1.4,120.07872359555353,
,"Rule: When you see blue image, do not press 'spacebar'.",Images/Happy/AM01HAS.jpg,Happy,Yellow,Images/Yellow.jpg,space,ParentConditions/YellowBlueBlue_v1.xlsx,BlueBlueYellow,Conditions/Version_1/BlueFearStop.xlsx,no,PASS,0.43160138117116176,,,,,,,,,0,0,0,0,0,1,1,1,0,18,18,18,,,,,,,,,,,,,,,,,,,,,,,,,,,,,,,,,,,,,,,,,,,,,,,,,,,,,,,,,,,,,,,,,,,,,,,,,,,,,,,1.59,551.8693922999955,None,space,1,553.5791517000034,None,553.5791517000034,None,553.5791517000034,None,0.2929106999945361,,,,,,,,,,,P032,FENCOG,1,Pre,2022_Mar_30_1111,Go No-Go Task,2021.1.4,120.07872359555353,
,"Rule: When you see blue image, do not press 'spacebar'.",Images/Happy/AF11HAS.jpg,Happy,Yellow,Images/Yellow.jpg,space,ParentConditions/YellowBlueBlue_v1.xlsx,BlueBlueYellow,Conditions/Version_1/BlueFearStop.xlsx,no,PASS,0.9696898199968184,,,,,,,,,0,0,0,0,0,1,1,1,0,19,19,19,,,,,,,,,,,,,,,,,,,,,,,,,,,,,,,,,,,,,,,,,,,,,,,,,,,,,,,,,,,,,,,,,,,,,,,,,,,,,,,1.46,553.9725271999923,None,space,1,555.553576899998,None,555.553576899998,None,555.553576899998,None,0.2860484999982873,,,,,,,,,,,P032,FENCOG,1,Pre,2022_Mar_30_1111,Go No-Go Task,2021.1.4,120.07872359555353,
,"Rule: When you see blue image, do not press 'spacebar'.",Images/Happy/BM01_HO.jpg,Happy,Yellow,Images/Yellow.jpg,space,ParentConditions/YellowBlueBlue_v1.xlsx,BlueBlueYellow,Conditions/Version_1/BlueFearStop.xlsx,no,PASS,0.40182091251260654,,,,,,,,,0,0,0,0,0,1,1,1,0,20,20,20,,,,,,,,,,,,,,,,,,,,,,,,,,,,,,,,,,,,,,,,,,,,,,,,,,,,,,,,,,,,,,,,,,,,,,,,,,,,,,,1.71,555.9451298000058,None,space,1,557.7862458000018,None,557.7862458000018,None,557.7862458000018,None,0.3016672999947332,,,,,,,,,,,P032,FENCOG,1,Pre,2022_Mar_30_1111,Go No-Go Task,2021.1.4,120.07872359555353,
,"Rule: When you see blue image, do not press 'spacebar'.",Images/Happy/AF07_HO.jpg,Happy,Yellow,Images/Yellow.jpg,space,ParentConditions/YellowBlueBlue_v1.xlsx,BlueBlueYellow,Conditions/Version_1/BlueFearStop.xlsx,no,PASS,0.304860645067783,,,,,,,,,0,0,0,0,0,1,1,1,0,21,21,21,,,,,,,,,,,,,,,,,,,,,,,,,,,,,,,,,,,,,,,,,,,,,,,,,,,,,,,,,,,,,,,,,,,,,,,,,,,,,,,1.61,558.1687444999989,None,space,1,559.910604699995,None,559.910604699995,None,559.910604699995,None,0.23343360000581015,,,,,,,,,,,P032,FENCOG,1,Pre,2022_Mar_30_1111,Go No-Go Task,2021.1.4,120.07872359555353,
,"Rule: When you see blue image, do not press 'spacebar'.",Images/Happy/HM06_HO.jpg,Happy,Yellow,Images/Yellow.jpg,space,ParentConditions/YellowBlueBlue_v1.xlsx,BlueBlueYellow,Conditions/Version_1/BlueFearStop.xlsx,no,PASS,0.3928744637511502,,,,,,,,,0,0,0,0,0,1,1,1,0,22,22,22,,,,,,,,,,,,,,,,,,,,,,,,,,,,,,,,,,,,,,,,,,,,,,,,,,,,,,,,,,,,,,,,,,,,,,,,,,,,,,,1.84,560.2992300000042,None,space,1,562.259973799999,None,562.259973799999,None,562.259973799999,None,0.2842188999929931,,,,,,,,,,,P032,FENCOG,1,Pre,2022_Mar_30_1111,Go No-Go Task,2021.1.4,120.07872359555353,
,"Rule: When you see blue image, do not press 'spacebar'.",Images/Fearful/AM09_FO.jpg,Fear,Blue,Images/Blue.jpg,None,ParentConditions/YellowBlueBlue_v1.xlsx,BlueBlueYellow,Conditions/Version_1/BlueFearStop.xlsx,yes,PASS,0.17130222782280535,,,,,,,,,0,0,0,0,0,1,1,1,0,23,23,23,,,,,,,,,,,,,,,,,,,,,,,,,,,,,,,,,,,,,,,,,,,,,,,,,,,,,,,,,,,,,,,,,,,,,,,,,,,,,,,1.87,562.6563502999925,None,None,1,564.642552499994,None,564.642552499994,None,564.642552499994,None,,,,,,,,,,,,P032,FENCOG,1,Pre,2022_Mar_30_1111,Go No-Go Task,2021.1.4,120.07872359555353,
,"Rule: When you see blue image, do not press 'spacebar'.",Images/Happy/AF09HAS.jpg,Happy,Yellow,Images/Yellow.jpg,space,ParentConditions/YellowBlueBlue_v1.xlsx,BlueBlueYellow,Conditions/Version_1/BlueFearStop.xlsx,no,PASS,0.32050850835393896,,,,,,,,,0,0,0,0,0,1,1,1,0,24,24,24,,,,,,,,,,,,,,,,,,,,,,,,,,,,,,,,,,,,,,,,,,,,,,,,,,,,,,,,,,,,,,,,,,,,,,,,,,,,,,,1.51,565.0397705999931,None,space,1,566.6752894999954,None,566.6752894999954,None,566.6752894999954,None,0.260778299998492,,,,,,,,,,,P032,FENCOG,1,Pre,2022_Mar_30_1111,Go No-Go Task,2021.1.4,120.07872359555353,
,"Rule: When you see blue image, do not press 'spacebar'.",Images/Happy/AM04HAS.jpg,Happy,Yellow,Images/Yellow.jpg,space,ParentConditions/YellowBlueBlue_v1.xlsx,BlueBlueYellow,Conditions/Version_1/BlueFearStop.xlsx,no,PASS,0.17004201555218557,,,,,,,,,0,0,0,0,0,1,1,1,0,25,25,25,,,,,,,,,,,,,,,,,,,,,,,,,,,,,,,,,,,,,,,,,,,,,,,,,,,,,,,,,,,,,,,,,,,,,,,,,,,,,,,1.9,567.055486600002,None,space,1,569.0662260999961,None,569.0662260999961,None,569.0662260999961,None,0.25383130001137033,,,,,,,,,,,P032,FENCOG,1,Pre,2022_Mar_30_1111,Go No-Go Task,2021.1.4,120.07872359555353,
,"Rule: When you see blue image, do not press 'spacebar'.",Images/Happy/BF07_HO.jpg,Happy,Yellow,Images/Yellow.jpg,space,ParentConditions/YellowBlueBlue_v1.xlsx,BlueBlueYellow,Conditions/Version_1/BlueFearStop.xlsx,no,PASS,0.9775255982448644,,,,,,,,,0,0,0,0,0,1,1,1,0,26,26,26,,,,,,,,,,,,,,,,,,,,,,,,,,,,,,,,,,,,,,,,,,,,,,,,,,,,,,,,,,,,,,,,,,,,,,,,,,,,,,,1.98,569.4624366999924,None,space,1,571.5738566999935,None,571.5738566999935,None,571.5738566999935,None,0.2583015999989584,,,,,,,,,,,P032,FENCOG,1,Pre,2022_Mar_30_1111,Go No-Go Task,2021.1.4,120.07872359555353,
,"Rule: When you see blue image, do not press 'spacebar'.",Images/Happy/AF02HAS.jpg,Happy,Yellow,Images/Yellow.jpg,space,ParentConditions/YellowBlueBlue_v1.xlsx,BlueBlueYellow,Conditions/Version_1/BlueFearStop.xlsx,no,PASS,0.9926707513295598,,,,,,,,,0,0,0,0,0,1,1,1,0,27,27,27,,,,,,,,,,,,,,,,,,,,,,,,,,,,,,,,,,,,,,,,,,,,,,,,,,,,,,,,,,,,,,,,,,,,,,,,,,,,,,,1.29,571.961822199999,None,space,1,573.3733016000042,None,573.3733016000042,None,573.3733016000042,None,0.3143262999947183,,,,,,,,,,,P032,FENCOG,1,Pre,2022_Mar_30_1111,Go No-Go Task,2021.1.4,120.07872359555353,
,"Rule: When you see blue image, do not press 'spacebar'.",Images/Happy/AM30HAS.jpg,Happy,Yellow,Images/Yellow.jpg,space,ParentConditions/YellowBlueBlue_v1.xlsx,BlueBlueYellow,Conditions/Version_1/BlueFearStop.xlsx,no,PASS,0.6844901636445411,,,,,,,,,0,0,0,0,0,1,1,1,0,28,28,28,,,,,,,,,,,,,,,,,,,,,,,,,,,,,,,,,,,,,,,,,,,,,,,,,,,,,,,,,,,,,,,,,,,,,,,,,,,,,,,1.49,573.7675982999936,None,space,1,575.3727075999923,None,575.3727075999923,None,575.3727075999923,None,0.3002006999886362,,,,,,,,,,,P032,FENCOG,1,Pre,2022_Mar_30_1111,Go No-Go Task,2021.1.4,120.07872359555353,
,"Rule: When you see blue image, do not press 'spacebar'.",Images/Happy/BF05_HO.jpg,Happy,Yellow,Images/Yellow.jpg,space,ParentConditions/YellowBlueBlue_v1.xlsx,BlueBlueYellow,Conditions/Version_1/BlueFearStop.xlsx,no,PASS,0.010815687417666808,,,,,,,,,0,0,0,0,0,1,1,1,0,29,29,29,,,,,,,,,,,,,,,,,,,,,,,,,,,,,,,,,,,,,,,,,,,,,,,,,,,,,,,,,,,,,,,,,,,,,,,,,,,,,,,1.44,575.7754664999957,None,space,1,577.3303247000003,None,577.3303247000003,None,577.3303247000003,None,0.2693001000006916,,,,,,,,,,,P032,FENCOG,1,Pre,2022_Mar_30_1111,Go No-Go Task,2021.1.4,120.07872359555353,
,"Rule: When you see blue image, do not press 'spacebar'.",Images/Fearful/AF25AFS.jpg,Fear,Blue,Images/Blue.jpg,None,ParentConditions/YellowBlueBlue_v1.xlsx,BlueBlueYellow,Conditions/Version_1/BlueFearStop.xlsx,yes,PASS,0.35816317389786545,,,,,,,,,0,0,0,0,0,1,1,1,0,30,30,30,,,,,,,,,,,,,,,,,,,,,,,,,,,,,,,,,,,,,,,,,,,,,,,,,,,,,,,,,,,,,,,,,,,,,,,,,,,,,,,1.82,577.7307642999949,None,None,1,579.6631802000047,None,579.6631802000047,None,579.6631802000047,None,,,,,,,,,,,,P032,FENCOG,1,Pre,2022_Mar_30_1111,Go No-Go Task,2021.1.4,120.07872359555353,
,"Rule: When you see blue image, do not press 'spacebar'.",Images/Happy/BF09_HO.jpg,Happy,Yellow,Images/Yellow.jpg,space,ParentConditions/YellowBlueBlue_v1.xlsx,BlueBlueYellow,Conditions/Version_1/BlueFearStop.xlsx,no,PASS,0.3783419276063734,,,,,,,,,0,0,0,0,0,1,1,1,0,31,31,31,,,,,,,,,,,,,,,,,,,,,,,,,,,,,,,,,,,,,,,,,,,,,,,,,,,,,,,,,,,,,,,,,,,,,,,,,,,,,,,1.45,580.0597988999943,None,space,1,581.6125484999939,None,581.6125484999939,None,581.6125484999939,None,0.32371100000455044,,,,,,,,,,,P032,FENCOG,1,Pre,2022_Mar_30_1111,Go No-Go Task,2021.1.4,120.07872359555353,
,"Rule: When you see blue image, do not press 'spacebar'.",Images/Happy/AM09_HE.jpg,Happy,Yellow,Images/Yellow.jpg,space,ParentConditions/YellowBlueBlue_v1.xlsx,BlueBlueYellow,Conditions/Version_1/BlueFearStop.xlsx,no,PASS,0.21016465424314756,,,,,,,,,0,0,0,0,0,1,1,1,0,32,32,32,,,,,,,,,,,,,,,,,,,,,,,,,,,,,,,,,,,,,,,,,,,,,,,,,,,,,,,,,,,,,,,,,,,,,,,,,,,,,,,1.77,582.0183034999936,None,space,1,583.9118606999982,None,583.9118606999982,None,583.9118606999982,None,0.27244199998676777,,,,,,,,,,,P032,FENCOG,1,Pre,2022_Mar_30_1111,Go No-Go Task,2021.1.4,120.07872359555353,
,"Rule: When you see blue image, do not press 'spacebar'.",Images/Fearful/BF14_FO.jpg,Fear,Blue,Images/Blue.jpg,None,ParentConditions/YellowBlueBlue_v1.xlsx,BlueBlueYellow,Conditions/Version_1/BlueFearStop.xlsx,yes,PASS,0.9618360969741386,,,,,,,,,0,0,0,0,0,1,1,1,0,33,33,33,,,,,,,,,,,,,,,,,,,,,,,,,,,,,,,,,,,,,,,,,,,,,,,,,,,,,,,,,,,,,,,,,,,,,,,,,,,,,,,1.95,584.3074426999956,None,None,1,586.3695781999995,None,586.3695781999995,None,586.3695781999995,None,,,,,,,,,,,,P032,FENCOG,1,Pre,2022_Mar_30_1111,Go No-Go Task,2021.1.4,120.07872359555353,
,"Rule: When you see blue image, do not press 'spacebar'.",Images/Fearful/HF05_FC.jpg,Fear,Blue,Images/Blue.jpg,None,ParentConditions/YellowBlueBlue_v1.xlsx,BlueBlueYellow,Conditions/Version_1/BlueFearStop.xlsx,yes,PASS,0.005236598035567086,,,,,,,,,0,0,0,0,0,1,1,1,0,34,34,34,,,,,,,,,,,,,,,,,,,,,,,,,,,,,,,,,,,,,,,,,,,,,,,,,,,,,,,,,,,,,,,,,,,,,,,,,,,,,,,1.56,586.7702342999983,None,space,0,588.4440519000054,None,588.4440519000054,None,588.4440519000054,None,0.2596432999998797,,,,,,,,,,,P032,FENCOG,1,Pre,2022_Mar_30_1111,Go No-Go Task,2021.1.4,120.07872359555353,
,"Rule: When you see blue image, do not press 'spacebar'.",Images/Happy/AM23HAS.jpg,Happy,Yellow,Images/Yellow.jpg,space,ParentConditions/YellowBlueBlue_v1.xlsx,BlueBlueYellow,Conditions/Version_1/BlueFearStop.xlsx,no,PASS,0.13077339503157293,,,,,,,,,0,0,0,0,0,1,1,1,0,35,35,35,,,,,,,,,,,,,,,,,,,,,,,,,,,,,,,,,,,,,,,,,,,,,,,,,,,,,,,,,,,,,,,,,,,,,,,,,,,,,,,1.85,588.8453630000004,None,space,1,590.8094521000021,None,590.8094521000021,None,590.8094521000021,None,0.2620716999954311,,,,,,,,,,,P032,FENCOG,1,Pre,2022_Mar_30_1111,Go No-Go Task,2021.1.4,120.07872359555353,
,"Rule: When you see blue image, do not press 'spacebar'.",Images/Happy/AM03_HO.jpg,Happy,Yellow,Images/Yellow.jpg,space,ParentConditions/YellowBlueBlue_v1.xlsx,BlueBlueYellow,Conditions/Version_1/BlueFearStop.xlsx,no,PASS,0.29520703840296547,,,,,,,,,0,0,0,0,0,1,1,1,0,36,36,36,,,,,,,,,,,,,,,,,,,,,,,,,,,,,,,,,,,,,,,,,,,,,,,,,,,,,,,,,,,,,,,,,,,,,,,,,,,,,,,1.38,591.2085556999955,None,space,1,592.7175981000037,None,592.7175981000037,None,592.7175981000037,None,0.2983871000033105,,,,,,,,,,,P032,FENCOG,1,Pre,2022_Mar_30_1111,Go No-Go Task,2021.1.4,120.07872359555353,
,"Rule: When you see blue image, do not press 'spacebar'.",Images/Happy/AF25HAS.jpg,Happy,Yellow,Images/Yellow.jpg,space,ParentConditions/YellowBlueBlue_v1.xlsx,BlueBlueYellow,Conditions/Version_1/BlueFearStop.xlsx,no,PASS,0.3205802973983102,,,,,,,,,0,0,0,0,0,1,1,1,0,37,37,37,,,,,,,,,,,,,,,,,,,,,,,,,,,,,,,,,,,,,,,,,,,,,,,,,,,,,,,,,,,,,,,,,,,,,,,,,,,,,,,1.94,593.1042620999942,None,space,1,595.1667919000029,None,595.1667919000029,None,595.1667919000029,None,0.36124650000419933,,,,,,,,,,,P032,FENCOG,1,Pre,2022_Mar_30_1111,Go No-Go Task,2021.1.4,120.07872359555353,
,"Rule: When you see blue image, do not press 'spacebar'.",Images/Happy/BM08_HO.jpg,Happy,Yellow,Images/Yellow.jpg,space,ParentConditions/YellowBlueBlue_v1.xlsx,BlueBlueYellow,Conditions/Version_1/BlueFearStop.xlsx,no,PASS,0.9250231228335681,,,,,,,,,0,0,0,0,0,1,1,1,0,38,38,38,,,,,,,,,,,,,,,,,,,,,,,,,,,,,,,,,,,,,,,,,,,,,,,,,,,,,,,,,,,,,,,,,,,,,,,,,,,,,,,1.75,595.5613932999986,None,space,1,597.4245470000023,None,597.4245470000023,None,597.4245470000023,None,0.26340609999897424,,,,,,,,,,,P032,FENCOG,1,Pre,2022_Mar_30_1111,Go No-Go Task,2021.1.4,120.07872359555353,
,"Rule: When you see blue image, do not press 'spacebar'.",Images/Happy/AF32HAS.jpg,Happy,Yellow,Images/Yellow.jpg,space,ParentConditions/YellowBlueBlue_v1.xlsx,BlueBlueYellow,Conditions/Version_1/BlueFearStop.xlsx,no,PASS,0.73804934699979,,,,,,,,,0,0,0,0,0,1,1,1,0,39,39,39,,,,,,,,,,,,,,,,,,,,,,,,,,,,,,,,,,,,,,,,,,,,,,,,,,,,,,,,,,,,,,,,,,,,,,,,,,,,,,,1.58,597.8248879000021,None,space,1,599.5155939999968,None,599.5155939999968,None,599.5155939999968,None,0.2688094000041019,,,,,,,,,,,P032,FENCOG,1,Pre,2022_Mar_30_1111,Go No-Go Task,2021.1.4,120.07872359555353,
,"Rule: When you see blue image, do not press 'spacebar'.",Images/Happy/AF23HAS.jpg,Happy,Yellow,Images/Yellow.jpg,space,ParentConditions/YellowBlueBlue_v1.xlsx,BlueBlueYellow,Conditions/Version_1/BlueFearStop.xlsx,no,PASS,0.9000246195519893,,,,,,,,,0,0,0,0,0,1,1,1,0,40,40,40,,,,,,,,,,,,,,,,,,,,,,,,,,,,,,,,,,,,,,,,,,,,,,,,,,,,,,,,,,,,,,,,,,,,,,,,,,,,,,,1.43,599.9113776000013,None,space,1,601.465122499998,None,601.465122499998,None,601.465122499998,None,0.2949947000015527,,,,,,,,,,,P032,FENCOG,1,Pre,2022_Mar_30_1111,Go No-Go Task,2021.1.4,120.07872359555353,
,"Rule: When you see blue image, do not press 'spacebar'.",Images/Happy/AM32HAS.jpg,Happy,Yellow,Images/Yellow.jpg,space,ParentConditions/YellowBlueBlue_v1.xlsx,BlueBlueYellow,Conditions/Version_1/BlueFearStop.xlsx,no,PASS,0.738989629625258,,,,,,,,,0,0,0,0,0,1,1,1,0,41,41,41,,,,,,,,,,,,,,,,,,,,,,,,,,,,,,,,,,,,,,,,,,,,,,,,,,,,,,,,,,,,,,,,,,,,,,,,,,,,,,,1.97,601.8610189000028,None,space,1,603.9393035999965,None,603.9393035999965,None,603.9393035999965,None,0.26129940000828356,,,,,,,,,,,P032,FENCOG,1,Pre,2022_Mar_30_1111,Go No-Go Task,2021.1.4,120.07872359555353,
,"Rule: When you see blue image, do not press 'spacebar'.",Images/Fearful/AM30AFS.jpg,Fear,Blue,Images/Blue.jpg,None,ParentConditions/YellowBlueBlue_v1.xlsx,BlueBlueYellow,Conditions/Version_1/BlueFearStop.xlsx,yes,PASS,0.33529906039128465,,,,,,,,,0,0,0,0,0,1,1,1,0,42,42,42,,,,,,,,,,,,,,,,,,,,,,,,,,,,,,,,,,,,,,,,,,,,,,,,,,,,,,,,,,,,,,,,,,,,,,,,,,,,,,,1.3,604.3371286000038,None,space,0,605.7388011000003,None,605.7388011000003,None,605.7388011000003,None,0.31712839999818243,,,,,,,,,,,P032,FENCOG,1,Pre,2022_Mar_30_1111,Go No-Go Task,2021.1.4,120.07872359555353,
,"Rule: When you see blue image, do not press 'spacebar'.",Images/Happy/BM02_HO.jpg,Happy,Yellow,Images/Yellow.jpg,space,ParentConditions/YellowBlueBlue_v1.xlsx,BlueBlueYellow,Conditions/Version_1/BlueFearStop.xlsx,no,PASS,0.711648218321579,,,,,,,,,0,0,0,0,0,1,1,1,0,43,43,43,,,,,,,,,,,,,,,,,,,,,,,,,,,,,,,,,,,,,,,,,,,,,,,,,,,,,,,,,,,,,,,,,,,,,,,,,,,,,,,1.34,606.1442326999968,None,space,1,607.5965350000042,None,607.5965350000042,None,607.5965350000042,None,0.26746149999962654,,,,,,,,,,,P032,FENCOG,1,Pre,2022_Mar_30_1111,Go No-Go Task,2021.1.4,120.07872359555353,
,"Rule: When you see blue image, do not press 'spacebar'.",Images/Happy/AM10_HO.jpg,Happy,Yellow,Images/Yellow.jpg,space,ParentConditions/YellowBlueBlue_v1.xlsx,BlueBlueYellow,Conditions/Version_1/BlueFearStop.xlsx,no,PASS,0.7811025651589869,,,,,,,,,0,0,0,0,0,1,1,1,0,44,44,44,,,,,,,,,,,,,,,,,,,,,,,,,,,,,,,,,,,,,,,,,,,,,,,,,,,,,,,,,,,,,,,,,,,,,,,,,,,,,,,1.2,607.997257199997,None,space,1,609.312691900006,None,609.312691900006,None,609.312691900006,None,0.35132750000047963,,,,,,,,,,,P032,FENCOG,1,Pre,2022_Mar_30_1111,Go No-Go Task,2021.1.4,120.07872359555353,
,"Rule: When you see blue image, do not press 'spacebar'.",Images/Fearful/AM10_FO.jpg,Fear,Blue,Images/Blue.jpg,None,ParentConditions/YellowBlueBlue_v1.xlsx,BlueBlueYellow,Conditions/Version_1/BlueFearStop.xlsx,yes,PASS,0.14747063444404174,,,,,,,,,0,0,0,0,0,1,1,1,0,45,45,45,,,,,,,,,,,,,,,,,,,,,,,,,,,,,,,,,,,,,,,,,,,,,,,,,,,,,,,,,,,,,,,,,,,,,,,,,,,,,,,1.78,609.7111440000008,None,None,1,611.603795899995,None,611.603795899995,None,611.603795899995,None,,,,,,,,,,,,P032,FENCOG,1,Pre,2022_Mar_30_1111,Go No-Go Task,2021.1.4,120.07872359555353,
,"Rule: When you see blue image, do not press 'spacebar'.",Images/Happy/AF19HAS.jpg,Happy,Yellow,Images/Yellow.jpg,space,ParentConditions/YellowBlueBlue_v1.xlsx,BlueBlueYellow,Conditions/Version_1/BlueFearStop.xlsx,no,PASS,0.5734484599929517,,,,,,,,,0,0,0,0,0,1,1,1,0,46,46,46,,,,,,,,,,,,,,,,,,,,,,,,,,,,,,,,,,,,,,,,,,,,,,,,,,,,,,,,,,,,,,,,,,,,,,,,,,,,,,,1.27,611.9959989000054,None,space,1,613.3948073999927,None,613.3948073999927,None,613.3948073999927,None,0.3093662999890512,,,,,,,,,,,P032,FENCOG,1,Pre,2022_Mar_30_1111,Go No-Go Task,2021.1.4,120.07872359555353,
,"Rule: When you see blue image, do not press 'spacebar'.",Images/Fearful/HF09_FC.jpg,Fear,Blue,Images/Blue.jpg,None,ParentConditions/YellowBlueBlue_v1.xlsx,BlueBlueYellow,Conditions/Version_1/BlueFearStop.xlsx,yes,PASS,0.19935802832005745,,,,,,,,,0,0,0,0,0,1,1,1,0,47,47,47,,,,,,,,,,,,,,,,,,,,,,,,,,,,,,,,,,,,,,,,,,,,,,,,,,,,,,,,,,,,,,,,,,,,,,,,,,,,,,,1.81,613.7827892999921,None,None,1,615.7025963000051,None,615.7025963000051,None,615.7025963000051,None,,,,,,,,,,,,P032,FENCOG,1,Pre,2022_Mar_30_1111,Go No-Go Task,2021.1.4,120.07872359555353,
,"Rule: When you see blue image, do not press 'spacebar'.",Images/Fearful/AM22AFS.jpg,Fear,Blue,Images/Blue.jpg,None,ParentConditions/YellowBlueBlue_v1.xlsx,BlueBlueYellow,Conditions/Version_1/BlueFearStop.xlsx,yes,PASS,0.17276378175067786,,,,,,,,,0,0,0,0,0,1,1,1,0,48,48,48,,,,,,,,,,,,,,,,,,,,,,,,,,,,,,,,,,,,,,,,,,,,,,,,,,,,,,,,,,,,,,,,,,,,,,,,,,,,,,,1.74,616.103259800002,None,space,0,617.9518469000031,None,617.9518469000031,None,617.9518469000031,None,0.28012199999648146,,,,,,,,,,,P032,FENCOG,1,Pre,2022_Mar_30_1111,Go No-Go Task,2021.1.4,120.07872359555353,
,"Rule: When you see blue image, do not press 'spacebar'.",Images/Happy/AM06_HC.jpg,Happy,Yellow,Images/Yellow.jpg,space,ParentConditions/YellowBlueBlue_v1.xlsx,BlueBlueYellow,Conditions/Version_1/BlueFearStop.xlsx,no,PASS,0.06320185727949179,,,,,,,,,0,0,0,0,0,1,1,1,0,49,49,49,,,,,,,,,,,,,,,,,,,,,,,,,,,,,,,,,,,,,,,,,,,,,,,,,,,,,,,,,,,,,,,,,,,,,,,,,,,,,,,1.47,618.3530129999999,None,space,1,619.9345115000033,None,619.9345115000033,None,619.9345115000033,None,0.31351349999022204,,,,,,,,,,,P032,FENCOG,1,Pre,2022_Mar_30_1111,Go No-Go Task,2021.1.4,120.07872359555353,
,"Rule: When you see blue image, do not press 'spacebar'.",Images/Fearful/AM32AFS.jpg,Fear,Blue,Images/Blue.jpg,None,ParentConditions/YellowBlueBlue_v1.xlsx,BlueBlueYellow,Conditions/Version_1/BlueFearStop.xlsx,yes,PASS,0.03468314974069586,,,,,,,,,0,0,0,0,0,1,1,1,0,50,50,50,,,,,,,,,,,,,,,,,,,,,,,,,,,,,,,,,,,,,,,,,,,,,,,,,,,,,,,,,,,,,,,,,,,,,,,,,,,,,,,1.26,620.3316105999984,None,None,1,621.7007251000032,None,621.7007251000032,None,621.7007251000032,None,,,,,,,,,,,,P032,FENCOG,1,Pre,2022_Mar_30_1111,Go No-Go Task,2021.1.4,120.07872359555353,
,"Rule: When you see blue image, do not press 'spacebar'.",Images/Happy/WF11_HE.jpg,Happy,Yellow,Images/Yellow.jpg,space,ParentConditions/YellowBlueBlue_v1.xlsx,BlueBlueYellow,Conditions/Version_1/BlueFearStop.xlsx,no,PASS,0.5138011133022752,,,,,,,,,0,0,0,0,0,1,1,1,0,51,51,51,,,,,,,,,,,,,,,,,,,,,,,,,,,,,,,,,,,,,,,,,,,,,,,,,,,,,,,,,,,,,,,,,,,,,,,,,,,,,,,1.6,622.1060689000005,None,space,1,623.816727700003,None,623.816727700003,None,623.816727700003,None,0.30270919999748,,,,,,,,,,,P032,FENCOG,1,Pre,2022_Mar_30_1111,Go No-Go Task,2021.1.4,120.07872359555353,
,"Rule: When you see blue image, do not press 'spacebar'.",Images/Fearful/AF28AFS.jpg,Fear,Blue,Images/Blue.jpg,None,ParentConditions/YellowBlueBlue_v1.xlsx,BlueBlueYellow,Conditions/Version_1/BlueFearStop.xlsx,yes,PASS,0.30204493442130675,,,,,,,,,0,0,0,0,0,1,1,1,0,52,52,52,,,,,,,,,,,,,,,,,,,,,,,,,,,,,,,,,,,,,,,,,,,,,,,,,,,,,,,,,,,,,,,,,,,,,,,,,,,,,,,1.65,624.2208729999984,None,space,0,625.982780899998,None,625.982780899998,None,625.982780899998,None,0.3372745000087889,,,,,,,,,,,P032,FENCOG,1,Pre,2022_Mar_30_1111,Go No-Go Task,2021.1.4,120.07872359555353,
,"Rule: When you see blue image, do not press 'spacebar'.",Images/Happy/HF04_HE.jpg,Happy,Yellow,Images/Yellow.jpg,space,ParentConditions/YellowBlueBlue_v1.xlsx,BlueBlueYellow,Conditions/Version_1/BlueFearStop.xlsx,no,PASS,0.05385370360405073,,,,,,,,,0,0,0,0,0,1,1,1,0,53,53,53,,,,,,,,,,,,,,,,,,,,,,,,,,,,,,,,,,,,,,,,,,,,,,,,,,,,,,,,,,,,,,,,,,,,,,,,,,,,,,,1.23,626.3839157000039,None,space,1,627.7238558999961,None,627.7238558999961,None,627.7238558999961,None,0.2841560999950161,,,,,,,,,,,P032,FENCOG,1,Pre,2022_Mar_30_1111,Go No-Go Task,2021.1.4,120.07872359555353,
,"Rule: When you see blue image, do not press 'spacebar'.",Images/Happy/AM13HAS.jpg,Happy,Yellow,Images/Yellow.jpg,space,ParentConditions/YellowBlueBlue_v1.xlsx,BlueBlueYellow,Conditions/Version_1/BlueFearStop.xlsx,no,PASS,0.9978120552242631,,,,,,,,,0,0,0,0,0,1,1,1,0,54,54,54,,,,,,,,,,,,,,,,,,,,,,,,,,,,,,,,,,,,,,,,,,,,,,,,,,,,,,,,,,,,,,,,,,,,,,,,,,,,,,,1.28,628.1287537000026,None,space,1,629.5317496000062,None,629.5317496000062,None,629.5317496000062,None,0.34006020000379067,,,,,,,,,,,P032,FENCOG,1,Pre,2022_Mar_30_1111,Go No-Go Task,2021.1.4,120.07872359555353,
,"Rule: When you see blue image, do not press 'spacebar'.",Images/Happy/HF10_HE.jpg,Happy,Yellow,Images/Yellow.jpg,space,ParentConditions/YellowBlueBlue_v1.xlsx,BlueBlueYellow,Conditions/Version_1/BlueFearStop.xlsx,no,PASS,0.7658265452728541,,,,,,,,,0,0,0,0,0,1,1,1,0,55,55,55,,,,,,,,,,,,,,,,,,,,,,,,,,,,,,,,,,,,,,,,,,,,,,,,,,,,,,,,,,,,,,,,,,,,,,,,,,,,,,,1.31,629.920761500005,None,space,1,631.3395139000058,None,631.3395139000058,None,631.3395139000058,None,0.28409100000862963,,,,,,,,,,,P032,FENCOG,1,Pre,2022_Mar_30_1111,Go No-Go Task,2021.1.4,120.07872359555353,
,"Rule: When you see blue image, do not press 'spacebar'.",Images/Happy/AM04_HE.jpg,Happy,Yellow,Images/Yellow.jpg,space,ParentConditions/YellowBlueBlue_v1.xlsx,BlueBlueYellow,Conditions/Version_1/BlueFearStop.xlsx,no,PASS,0.8987539961300183,,,,,,,,,0,0,0,0,0,1,1,1,0,56,56,56,,,,,,,,,,,,,,,,,,,,,,,,,,,,,,,,,,,,,,,,,,,,,,,,,,,,,,,,,,,,,,,,,,,,,,,,,,,,,,,1.92,631.7388448999991,None,space,1,633.780440100003,None,633.780440100003,None,633.780440100003,None,0.25144429999636486,,,,,,,,,,,P032,FENCOG,1,Pre,2022_Mar_30_1111,Go No-Go Task,2021.1.4,120.07872359555353,
