CondFileP,Instructions,FaceE,Express,ColourT,ColourF,CorrectAnsP,MasterCondFile,BlockOrder,CondFile,ColCheck,Triplicate_check,SORT_BY_SMALLEST,EPracticeOuterLoop.thisRepN,EPracticeOuterLoop.thisTrialN,EPracticeOuterLoop.thisN,EPracticeOuterLoop.thisIndex,EPracticeInnerLoop.thisRepN,EPracticeInnerLoop.thisTrialN,EPracticeInnerLoop.thisN,EPracticeInnerLoop.thisIndex,MasterLoop.thisRepN,MasterLoop.thisTrialN,MasterLoop.thisN,MasterLoop.thisIndex,OuterLoop.thisRepN,OuterLoop.thisTrialN,OuterLoop.thisN,OuterLoop.thisIndex,InnerLoop.thisRepN,InnerLoop.thisTrialN,InnerLoop.thisN,InnerLoop.thisIndex,text_13.started,text_13.stopped,key_resp_10.keys,key_resp_10.rt,key_resp_10.started,key_resp_10.stopped,text4.started,text4.stopped,EmotionTaskInstructions1.keys,EmotionTaskInstructions1.rt,EmotionTaskInstructions1.started,EmotionTaskInstructions1.stopped,text_4.started,text_4.stopped,key_resp_5.keys,key_resp_5.rt,key_resp_5.started,key_resp_5.stopped,Text_14.started,Text_14.stopped,key_resp_9.keys,key_resp_9.rt,key_resp_9.started,key_resp_9.stopped,text_5.started,text_5.stopped,text_6.started,text_6.stopped,key_resp_7.keys,key_resp_7.rt,key_resp_7.started,key_resp_7.stopped,text_10.started,text_10.stopped,text_11.started,text_11.stopped,text_12.started,text_12.stopped,ISIjitterPractice,EPracticeISIMarker.started,EPracticeISIMarker.stopped,Pract.keys,Pract.corr,Pract.started,Pract.stopped,PracticeFace.started,PracticeFace.stopped,ColourPractice.started,ColourPractice.stopped,text_7.started,text_7.stopped,Pract.rt,EndOfPractice.started,EndOfPractice.stopped,key_resp_8.keys,key_resp_8.rt,key_resp_8.started,key_resp_8.stopped,text_8.started,text_8.stopped,key_resp_6.keys,key_resp_6.rt,key_resp_6.started,key_resp_6.stopped,text_2.started,text_2.stopped,text_3.started,text_3.stopped,key_resp_3.keys,key_resp_3.rt,key_resp_3.started,key_resp_3.stopped,TaskBlock.started,TaskBlock.stopped,BlockNo1.started,BlockNo1.stopped,OfBlock.started,OfBlock.stopped,ISIjitter,ISImarker.started,ISImarker.stopped,key_resp.keys,key_resp.corr,key_resp.rt,key_resp.started,key_resp.stopped,FaceSet.started,FaceSet.stopped,Colour.started,Colour.stopped,EndBlockText.started,EndBlockText.stopped,key_resp_4.keys,key_resp_4.rt,key_resp_4.started,key_resp_4.stopped,BreakText2.started,BreakText2.stopped,PressToContinue.started,PressToContinue.stopped,participant,Study Name,Task Version (required to run),PRE/POST,date,expName,psychopyVersion,frameRate,
,,,,,,,,,,,,,,,,,,,,,,,,,,,,,,,,,24.261833399999887,None,space,3.7077114999992773,25.25683339999523,None,,,,,,,,,,,,,,,,,,,,,,,,,,,,,,,,,,,,,,,,,,,,,,,,,,,,,,,,,,,,,,,,,,,,,,,,,,,,,,,,,,,,,,,,,,,,,,,P033,FENCOG,2,Pre,2022_Apr_05_1058,Go No-Go Task,2021.1.4,120.39011211858141,
,,,,,,,,,,,,,,,,,,,,,,,,,,,,,,,,,,,,,,,30.486490199982654,None,space,31.39795229997253,30.486490199982654,None,,,,,,,,,,,,,,,,,,,,,,,,,,,,,,,,,,,,,,,,,,,,,,,,,,,,,,,,,,,,,,,,,,,,,,,,,,,,,,,,,,,,,,,,,P033,FENCOG,2,Pre,2022_Apr_05_1058,Go No-Go Task,2021.1.4,120.39011211858141,
,,,,,,,,,,,,,,,,,,,,,,,,,,,,,,,,,,,,,,,,,,,,,61.95391630002996,None,space,5.626766700006556,61.95391630002996,None,,,,,,,,,,,,,,,,,,,,,,,,,,,,,,,,,,,,,,,,,,,,,,,,,,,,,,,,,,,,,,,,,,,,,,,,,,,,,,,,,,,P033,FENCOG,2,Pre,2022_Apr_05_1058,Go No-Go Task,2021.1.4,120.39011211858141,
,,,,,,,,,,,,,,,,,,,,,,,,,,,,,,,,,,,,,,,,,,,,,,,,,,,67.5955417000223,None,space,8.71308949997183,67.5955417000223,None,,,,,,,,,,,,,,,,,,,,,,,,,,,,,,,,,,,,,,,,,,,,,,,,,,,,,,,,,,,,,,,,,,,,,,,,,,,,,P033,FENCOG,2,Pre,2022_Apr_05_1058,Go No-Go Task,2021.1.4,120.39011211858141,
EPracticeConditions/BlueEyes.csv,"Rule: When you see a blue image, do not press 'spacebar'.",Images/Happy/BM02_HO.jpg,Happy,Yellow,Images/Yellow.jpg,space,,,,,,,0,0,0,0,0,0,0,2,,,,,,,,,,,,,,,,,,,,,,,,,,,,,,,,,,,,,76.3874688000069,None,79.37420929997461,None,space,4.470492899999954,79.37420929997461,None,76.3874688000069,None,76.3874688000069,None,76.3874688000069,None,1.6,83.97772889997577,None,None,0,85.71566290000919,None,85.71566290000919,None,85.71566290000919,None,87.27987440000288,None,,,,,,,,,,,,,,,,,,,,,,,,,,,,,,,,,,,,,,,,,,,,,,,,,,P033,FENCOG,2,Pre,2022_Apr_05_1058,Go No-Go Task,2021.1.4,120.39011211858141,
EPracticeConditions/BlueEyes.csv,"Rule: When you see a blue image, do not press 'spacebar'.",Images/Fearful/HM09_FC.jpg,Fear,Blue,Images/Blue.jpg,None,,,,,,,0,0,0,0,0,1,1,0,,,,,,,,,,,,,,,,,,,,,,,,,,,,,,,,,,,,,,,,,,,,,,,,,,,1.5,88.61325130000478,None,None,1,90.22173980000662,None,90.22173980000662,None,90.22173980000662,None,91.11502470000414,None,,,,,,,,,,,,,,,,,,,,,,,,,,,,,,,,,,,,,,,,,,,,,,,,,,P033,FENCOG,2,Pre,2022_Apr_05_1058,Go No-Go Task,2021.1.4,120.39011211858141,
EPracticeConditions/BlueEyes.csv,"Rule: When you see a blue image, do not press 'spacebar'.",Images/Happy/HF09_HE.jpg,Happy,Yellow,Images/Yellow.jpg,space,,,,,,,0,0,0,0,0,2,2,6,,,,,,,,,,,,,,,,,,,,,,,,,,,,,,,,,,,,,,,,,,,,,,,,,,,1.8,93.11996550002368,None,None,0,95.03692139999475,None,95.03692139999475,None,95.03692139999475,None,95.92747930000769,None,,,,,,,,,,,,,,,,,,,,,,,,,,,,,,,,,,,,,,,,,,,,,,,,,,P033,FENCOG,2,Pre,2022_Apr_05_1058,Go No-Go Task,2021.1.4,120.39011211858141,
EPracticeConditions/BlueEyes.csv,"Rule: When you see a blue image, do not press 'spacebar'.",Images/Happy/HF10_HE.jpg,Happy,Yellow,Images/Yellow.jpg,space,,,,,,,0,0,0,0,0,3,3,7,,,,,,,,,,,,,,,,,,,,,,,,,,,,,,,,,,,,,,,,,,,,,,,,,,,1.2,97.92788049997762,None,space,1,99.23577359999763,None,99.23577359999763,None,99.23577359999763,None,100.13996449997649,None,0.38481430005049333,,,,,,,,,,,,,,,,,,,,,,,,,,,,,,,,,,,,,,,,,,,,,,,,,P033,FENCOG,2,Pre,2022_Apr_05_1058,Go No-Go Task,2021.1.4,120.39011211858141,
EPracticeConditions/BlueEyes.csv,"Rule: When you see a blue image, do not press 'spacebar'.",Images/Happy/BM08_HO.jpg,Happy,Yellow,Images/Yellow.jpg,space,,,,,,,0,0,0,0,0,4,4,3,,,,,,,,,,,,,,,,,,,,,,,,,,,,,,,,,,,,,,,,,,,,,,,,,,,1.9,102.14238059998024,None,space,1,104.15067880001152,None,104.15067880001152,None,104.15067880001152,None,105.04687949997606,None,0.3102011000155471,,,,,,,,,,,,,,,,,,,,,,,,,,,,,,,,,,,,,,,,,,,,,,,,,P033,FENCOG,2,Pre,2022_Apr_05_1058,Go No-Go Task,2021.1.4,120.39011211858141,
EPracticeConditions/BlueEyes.csv,"Rule: When you see a blue image, do not press 'spacebar'.",Images/Fearful/AF01_FO.jpg,Fear,Blue,Images/Blue.jpg,None,,,,,,,0,0,0,0,0,5,5,1,,,,,,,,,,,,,,,,,,,,,,,,,,,,,,,,,,,,,,,,,,,,,,,,,,,1.3,107.05264529999113,None,None,1,108.46635830000741,None,108.46635830000741,None,108.46635830000741,None,109.36261950002518,None,,,,,,,,,,,,,,,,,,,,,,,,,,,,,,,,,,,,,,,,,,,,,,,,,,P033,FENCOG,2,Pre,2022_Apr_05_1058,Go No-Go Task,2021.1.4,120.39011211858141,
EPracticeConditions/BlueEyes.csv,"Rule: When you see a blue image, do not press 'spacebar'.",Images/Happy/HF05_HO.jpg,Happy,Yellow,Images/Yellow.jpg,space,,,,,,,0,0,0,0,0,6,6,5,,,,,,,,,,,,,,,,,,,,,,,,,,,,,,,,,,,,,,,,,,,,,,,,,,,1.4,111.36460400000215,None,space,1,112.87321250000969,None,112.87321250000969,None,112.87321250000969,None,113.76711000001524,None,0.28336249996209517,,,,,,,,,,,,,,,,,,,,,,,,,,,,,,,,,,,,,,,,,,,,,,,,,P033,FENCOG,2,Pre,2022_Apr_05_1058,Go No-Go Task,2021.1.4,120.39011211858141,
EPracticeConditions/BlueEyes.csv,"Rule: When you see a blue image, do not press 'spacebar'.",Images/Happy/HF04_HE.jpg,Happy,Yellow,Images/Yellow.jpg,space,,,,,,,0,0,0,0,0,7,7,4,,,,,,,,,,,,,,,,,,,,,,,,,,,,,,,,,,,,,,,,,,,,,,,,,,,1.7,115.77157590002753,None,space,1,117.57200320000993,None,117.57200320000993,None,117.57200320000993,None,118.46302450000076,None,0.3527503000223078,,,,,,,,,,,,,,,,,,,,,,,,,,,,,,,,,,,,,,,,,,,,,,,,,P033,FENCOG,2,Pre,2022_Apr_05_1058,Go No-Go Task,2021.1.4,120.39011211858141,
EPracticeConditions/BlueEyes.csv,"Rule: When you see a blue image, do not press 'spacebar'.",,,,,,,,,,,,0,0,0,0,,,,,,,,,,,,,,,,,,,,,,,,,,,,,,,,,,,,,,,,,,,,,,,,,,,,,,,,,,,,,,,,,,,,,,,,,,,,,,,,,,,,,,,,,,,,,,,,,,,,,,,,,,,,,,,,,,,,,P033,FENCOG,2,Pre,2022_Apr_05_1058,Go No-Go Task,2021.1.4,120.39011211858141,
EPracticeConditions/YellowEyes.csv,"Rule: When you see a yellow image, do not press 'spacebar'.",Images/Fearful/AM22AFS.jpg,Fear,Blue,Images/Blue.jpg,space,,,,,,,0,1,1,1,0,0,0,5,,,,,,,,,,,,,,,,,,,,,,,,,,,,,,,,,,,,,120.48942920000991,None,123.47793749999255,None,space,1.606726800033357,123.47793749999255,None,120.48942920000991,None,120.48942920000991,None,120.48942920000991,None,1.7,125.11013639997691,None,space,1,126.91924249997828,None,126.91924249997828,None,126.91924249997828,None,127.81370020000031,None,0.34163559996522963,,,,,,,,,,,,,,,,,,,,,,,,,,,,,,,,,,,,,,,,,,,,,,,,,P033,FENCOG,2,Pre,2022_Apr_05_1058,Go No-Go Task,2021.1.4,120.39011211858141,
EPracticeConditions/YellowEyes.csv,"Rule: When you see a yellow image, do not press 'spacebar'.",Images/Fearful/AM24AFS.jpg,Fear,Blue,Images/Blue.jpg,space,,,,,,,0,1,1,1,0,1,1,7,,,,,,,,,,,,,,,,,,,,,,,,,,,,,,,,,,,,,,,,,,,,,,,,,,,1.5,129.81754760001786,None,space,1,131.41787579999072,None,131.41787579999072,None,131.41787579999072,None,132.3179428000003,None,0.3625729000195861,,,,,,,,,,,,,,,,,,,,,,,,,,,,,,,,,,,,,,,,,,,,,,,,,P033,FENCOG,2,Pre,2022_Apr_05_1058,Go No-Go Task,2021.1.4,120.39011211858141,
EPracticeConditions/YellowEyes.csv,"Rule: When you see a yellow image, do not press 'spacebar'.",Images/Fearful/AM16AFS.jpg,Fear,Blue,Images/Blue.jpg,space,,,,,,,0,1,1,1,0,2,2,2,,,,,,,,,,,,,,,,,,,,,,,,,,,,,,,,,,,,,,,,,,,,,,,,,,,1.3,134.32454280002275,None,space,1,135.73326409998117,None,135.73326409998117,None,135.73326409998117,None,136.62671189999674,None,0.3593636000296101,,,,,,,,,,,,,,,,,,,,,,,,,,,,,,,,,,,,,,,,,,,,,,,,,P033,FENCOG,2,Pre,2022_Apr_05_1058,Go No-Go Task,2021.1.4,120.39011211858141,
EPracticeConditions/YellowEyes.csv,"Rule: When you see a yellow image, do not press 'spacebar'.",Images/Fearful/AM19AFS.jpg,Fear,Blue,Images/Blue.jpg,space,,,,,,,0,1,1,1,0,3,3,4,,,,,,,,,,,,,,,,,,,,,,,,,,,,,,,,,,,,,,,,,,,,,,,,,,,1.2,138.631498200004,None,space,1,139.94034430000465,None,139.94034430000465,None,139.94034430000465,None,140.8333104000194,None,0.36827109998557717,,,,,,,,,,,,,,,,,,,,,,,,,,,,,,,,,,,,,,,,,,,,,,,,,P033,FENCOG,2,Pre,2022_Apr_05_1058,Go No-Go Task,2021.1.4,120.39011211858141,
EPracticeConditions/YellowEyes.csv,"Rule: When you see a yellow image, do not press 'spacebar'.",Images/Happy/AM32HAS.jpg,Happy,Yellow,Images/Yellow.jpg,None,,,,,,,0,1,1,1,0,4,4,0,,,,,,,,,,,,,,,,,,,,,,,,,,,,,,,,,,,,,,,,,,,,,,,,,,,1.6,142.8386124999961,None,None,1,144.54738190001808,None,144.54738190001808,None,144.54738190001808,None,145.43476259999443,None,,,,,,,,,,,,,,,,,,,,,,,,,,,,,,,,,,,,,,,,,,,,,,,,,,P033,FENCOG,2,Pre,2022_Apr_05_1058,Go No-Go Task,2021.1.4,120.39011211858141,
EPracticeConditions/YellowEyes.csv,"Rule: When you see a yellow image, do not press 'spacebar'.",Images/Fearful/AM23AFS.jpg,Fear,Blue,Images/Blue.jpg,space,,,,,,,0,1,1,1,0,5,5,6,,,,,,,,,,,,,,,,,,,,,,,,,,,,,,,,,,,,,,,,,,,,,,,,,,,1.9,147.43760639999527,None,space,1,149.44545370002743,None,149.44545370002743,None,149.44545370002743,None,150.33931690000463,None,0.3191697000293061,,,,,,,,,,,,,,,,,,,,,,,,,,,,,,,,,,,,,,,,,,,,,,,,,P033,FENCOG,2,Pre,2022_Apr_05_1058,Go No-Go Task,2021.1.4,120.39011211858141,
EPracticeConditions/YellowEyes.csv,"Rule: When you see a yellow image, do not press 'spacebar'.",Images/Fearful/AM17AFS.jpg,Fear,Blue,Images/Blue.jpg,space,,,,,,,0,1,1,1,0,6,6,3,,,,,,,,,,,,,,,,,,,,,,,,,,,,,,,,,,,,,,,,,,,,,,,,,,,1.4,152.34649660001742,None,None,0,153.8609715999919,None,153.8609715999919,None,153.8609715999919,None,154.7683574000257,None,,,,,,,,,,,,,,,,,,,,,,,,,,,,,,,,,,,,,,,,,,,,,,,,,,P033,FENCOG,2,Pre,2022_Apr_05_1058,Go No-Go Task,2021.1.4,120.39011211858141,
EPracticeConditions/YellowEyes.csv,"Rule: When you see a yellow image, do not press 'spacebar'.",Images/Happy/BF05_HO.jpg,Happy,Yellow,Images/Yellow.jpg,None,,,,,,,0,1,1,1,0,7,7,1,,,,,,,,,,,,,,,,,,,,,,,,,,,,,,,,,,,,,,,,,,,,,,,,,,,1.8,156.7593003999791,None,None,1,158.65990389999934,None,158.65990389999934,None,158.65990389999934,None,159.5589654999785,None,,,,,,,,,,,,,,,,,,,,,,,,,,,,,,,,,,,,,,,,,,,,,,,,,,P033,FENCOG,2,Pre,2022_Apr_05_1058,Go No-Go Task,2021.1.4,120.39011211858141,
EPracticeConditions/YellowEyes.csv,"Rule: When you see a yellow image, do not press 'spacebar'.",,,,,,,,,,,,0,1,1,1,,,,,,,,,,,,,,,,,,,,,,,,,,,,,,,,,,,,,,,,,,,,,,,,,,,,,,,,,,,,,,,,,,,,,,,,,,,,,,,,,,,,,,,,,,,,,,,,,,,,,,,,,,,,,,,,,,,,,P033,FENCOG,2,Pre,2022_Apr_05_1058,Go No-Go Task,2021.1.4,120.39011211858141,
EPracticeConditions/BlueScram.csv,"Rule: When you see a blue image, do not press 'spacebar'.",Images/Scram1/AM04_NC.jpg,Scramble,Yellow,Images/Yellow.jpg,space,,,,,,,0,2,2,2,0,0,0,3,,,,,,,,,,,,,,,,,,,,,,,,,,,,,,,,,,,,,161.57896830001846,None,164.56586799997604,None,space,1.2224907000199892,164.56586799997604,None,161.57896830001846,None,161.57896830001846,None,161.57896830001846,None,1.6,165.8043945999816,None,None,0,167.5157176000066,None,167.5157176000066,None,167.5157176000066,None,168.42096160002984,None,,,,,,,,,,,,,,,,,,,,,,,,,,,,,,,,,,,,,,,,,,,,,,,,,,P033,FENCOG,2,Pre,2022_Apr_05_1058,Go No-Go Task,2021.1.4,120.39011211858141,
EPracticeConditions/BlueScram.csv,"Rule: When you see a blue image, do not press 'spacebar'.",Images/Scram1/BF18_NC.jpg,Scramble,Blue,Images/Blue.jpg,None,,,,,,,0,2,2,2,0,1,1,1,,,,,,,,,,,,,,,,,,,,,,,,,,,,,,,,,,,,,,,,,,,,,,,,,,,1.3,170.4138906999724,None,None,1,171.82267740002135,None,171.82267740002135,None,171.82267740002135,None,172.72764479997568,None,,,,,,,,,,,,,,,,,,,,,,,,,,,,,,,,,,,,,,,,,,,,,,,,,,P033,FENCOG,2,Pre,2022_Apr_05_1058,Go No-Go Task,2021.1.4,120.39011211858141,
EPracticeConditions/BlueScram.csv,"Rule: When you see a blue image, do not press 'spacebar'.",Images/Scram2/AM03_NC.jpg,Scramble,Yellow,Images/Yellow.jpg,space,,,,,,,0,2,2,2,0,2,2,6,,,,,,,,,,,,,,,,,,,,,,,,,,,,,,,,,,,,,,,,,,,,,,,,,,,1.7,174.72268740000436,None,None,0,176.5295993000036,None,176.5295993000036,None,176.5295993000036,None,177.42835310002556,None,,,,,,,,,,,,,,,,,,,,,,,,,,,,,,,,,,,,,,,,,,,,,,,,,,P033,FENCOG,2,Pre,2022_Apr_05_1058,Go No-Go Task,2021.1.4,120.39011211858141,
EPracticeConditions/BlueScram.csv,"Rule: When you see a blue image, do not press 'spacebar'.",Images/Scram2/AF25NES.jpg,Scramble,Yellow,Images/Yellow.jpg,space,,,,,,,0,2,2,2,0,3,3,7,,,,,,,,,,,,,,,,,,,,,,,,,,,,,,,,,,,,,,,,,,,,,,,,,,,1.5,179.42962910002097,None,None,0,181.03617709997343,None,181.03617709997343,None,181.03617709997343,None,181.9337145999889,None,,,,,,,,,,,,,,,,,,,,,,,,,,,,,,,,,,,,,,,,,,,,,,,,,,P033,FENCOG,2,Pre,2022_Apr_05_1058,Go No-Go Task,2021.1.4,120.39011211858141,
EPracticeConditions/BlueScram.csv,"Rule: When you see a blue image, do not press 'spacebar'.",Images/Scram1/BM08_NC.jpg,Scramble,Blue,Images/Blue.jpg,None,,,,,,,0,2,2,2,0,4,4,0,,,,,,,,,,,,,,,,,,,,,,,,,,,,,,,,,,,,,,,,,,,,,,,,,,,1.8,183.94030969997402,None,space,0,185.85181070002727,None,185.85181070002727,None,185.85181070002727,None,186.75575000001118,None,0.16892020002705976,,,,,,,,,,,,,,,,,,,,,,,,,,,,,,,,,,,,,,,,,,,,,,,,,P033,FENCOG,2,Pre,2022_Apr_05_1058,Go No-Go Task,2021.1.4,120.39011211858141,
EPracticeConditions/BlueScram.csv,"Rule: When you see a blue image, do not press 'spacebar'.",Images/Scram2/AF10_NC.jpg,Scramble,Yellow,Images/Yellow.jpg,space,,,,,,,0,2,2,2,0,5,5,2,,,,,,,,,,,,,,,,,,,,,,,,,,,,,,,,,,,,,,,,,,,,,,,,,,,1.4,188.7500551000121,None,None,0,190.2586377999978,None,190.2586377999978,None,190.2586377999978,None,191.16521960002137,None,,,,,,,,,,,,,,,,,,,,,,,,,,,,,,,,,,,,,,,,,,,,,,,,,,P033,FENCOG,2,Pre,2022_Apr_05_1058,Go No-Go Task,2021.1.4,120.39011211858141,
EPracticeConditions/BlueScram.csv,"Rule: When you see a blue image, do not press 'spacebar'.",Images/Scram1/AM03NES.jpg,Scramble,Yellow,Images/Yellow.jpg,space,,,,,,,0,2,2,2,0,6,6,4,,,,,,,,,,,,,,,,,,,,,,,,,,,,,,,,,,,,,,,,,,,,,,,,,,,1.9,193.1570895999903,None,space,1,195.15739030000987,None,195.15739030000987,None,195.15739030000987,None,196.06313159997808,None,0.2875012999866158,,,,,,,,,,,,,,,,,,,,,,,,,,,,,,,,,,,,,,,,,,,,,,,,,P033,FENCOG,2,Pre,2022_Apr_05_1058,Go No-Go Task,2021.1.4,120.39011211858141,
EPracticeConditions/BlueScram.csv,"Rule: When you see a blue image, do not press 'spacebar'.",Images/Scram1/AM13NES.jpg,Scramble,Yellow,Images/Yellow.jpg,space,,,,,,,0,2,2,2,0,7,7,5,,,,,,,,,,,,,,,,,,,,,,,,,,,,,,,,,,,,,,,,,,,,,,,,,,,1.2,198.06365790002747,None,space,1,199.3642525000032,None,199.3642525000032,None,199.3642525000032,None,200.26118259999203,None,0.3041570999776013,,,,,,,,,,,,,,,,,,,,,,,,,,,,,,,,,,,,,,,,,,,,,,,,,P033,FENCOG,2,Pre,2022_Apr_05_1058,Go No-Go Task,2021.1.4,120.39011211858141,
EPracticeConditions/BlueScram.csv,"Rule: When you see a blue image, do not press 'spacebar'.",,,,,,,,,,,,0,2,2,2,,,,,,,,,,,,,,,,,,,,,,,,,,,,,,,,,,,,,,,,,,,,,,,,,,,,,,,,,,,,,,,,,,,,,,,,,,,,,,,,,,,,,,,,,,,,,,,,,,,,,,,,,,,,,,,,,,,,,P033,FENCOG,2,Pre,2022_Apr_05_1058,Go No-Go Task,2021.1.4,120.39011211858141,
EPracticeConditions/YellowScram.csv,"Rule: When you see a yellow image, do not press 'spacebar'.",Images/Scram2/HM06_NC.jpg,Scramble,Yellow,Images/Yellow.jpg,None,,,,,,,0,3,3,3,0,0,0,0,,,,,,,,,,,,,,,,,,,,,,,,,,,,,,,,,,,,,202.27605179999955,None,205.26231469999766,None,space,0.6623947999905795,205.26231469999766,None,202.27605179999955,None,202.27605179999955,None,202.27605179999955,None,1.4,205.94272689998616,None,None,1,207.45452149998164,None,207.45452149998164,None,207.45452149998164,None,208.3495901999995,None,,,,,,,,,,,,,,,,,,,,,,,,,,,,,,,,,,,,,,,,,,,,,,,,,,P033,FENCOG,2,Pre,2022_Apr_05_1058,Go No-Go Task,2021.1.4,120.39011211858141,
EPracticeConditions/YellowScram.csv,"Rule: When you see a yellow image, do not press 'spacebar'.",Images/Scram1/AF10_NC.jpg,Scramble,Blue,Images/Blue.jpg,space,,,,,,,0,3,3,3,0,1,1,6,,,,,,,,,,,,,,,,,,,,,,,,,,,,,,,,,,,,,,,,,,,,,,,,,,,1.2,210.3519705000217,None,space,1,211.66095579997636,None,211.66095579997636,None,211.66095579997636,None,212.5565413000295,None,0.31965560000389814,,,,,,,,,,,,,,,,,,,,,,,,,,,,,,,,,,,,,,,,,,,,,,,,,P033,FENCOG,2,Pre,2022_Apr_05_1058,Go No-Go Task,2021.1.4,120.39011211858141,
EPracticeConditions/YellowScram.csv,"Rule: When you see a yellow image, do not press 'spacebar'.",Images/Scram1/AF30NES.JPG,Scramble,Blue,Images/Blue.jpg,space,,,,,,,0,3,3,3,0,2,2,4,,,,,,,,,,,,,,,,,,,,,,,,,,,,,,,,,,,,,,,,,,,,,,,,,,,1.8,214.55919240001822,None,space,1,216.45946139999432,None,216.45946139999432,None,216.45946139999432,None,217.35546170000453,None,0.31349590001627803,,,,,,,,,,,,,,,,,,,,,,,,,,,,,,,,,,,,,,,,,,,,,,,,,P033,FENCOG,2,Pre,2022_Apr_05_1058,Go No-Go Task,2021.1.4,120.39011211858141,
EPracticeConditions/YellowScram.csv,"Rule: When you see a yellow image, do not press 'spacebar'.",Images/Scram1/AF24NES.jpg,Scramble,Blue,Images/Blue.jpg,space,,,,,,,0,3,3,3,0,3,3,7,,,,,,,,,,,,,,,,,,,,,,,,,,,,,,,,,,,,,,,,,,,,,,,,,,,1.7,219.3577329000109,None,space,1,221.15810130001046,None,221.15810130001046,None,221.15810130001046,None,222.0540742999874,None,0.2945204999996349,,,,,,,,,,,,,,,,,,,,,,,,,,,,,,,,,,,,,,,,,,,,,,,,,P033,FENCOG,2,Pre,2022_Apr_05_1058,Go No-Go Task,2021.1.4,120.39011211858141,
EPracticeConditions/YellowScram.csv,"Rule: When you see a yellow image, do not press 'spacebar'.",Images/Scram1/HF04_NC.jpg,Scramble,Blue,Images/Blue.jpg,space,,,,,,,0,3,3,3,0,4,4,2,,,,,,,,,,,,,,,,,,,,,,,,,,,,,,,,,,,,,,,,,,,,,,,,,,,1.5,224.05749039998045,None,space,1,225.67327229998773,None,225.67327229998773,None,225.67327229998773,None,226.56496920000063,None,0.26732490002177656,,,,,,,,,,,,,,,,,,,,,,,,,,,,,,,,,,,,,,,,,,,,,,,,,P033,FENCOG,2,Pre,2022_Apr_05_1058,Go No-Go Task,2021.1.4,120.39011211858141,
EPracticeConditions/YellowScram.csv,"Rule: When you see a yellow image, do not press 'spacebar'.",Images/Scram1/BM01_NC.jpg,Scramble,Blue,Images/Blue.jpg,space,,,,,,,0,3,3,3,0,5,5,5,,,,,,,,,,,,,,,,,,,,,,,,,,,,,,,,,,,,,,,,,,,,,,,,,,,1.6,228.57173510000575,None,None,0,230.2801764999749,None,230.2801764999749,None,230.2801764999749,None,231.1733548999764,None,,,,,,,,,,,,,,,,,,,,,,,,,,,,,,,,,,,,,,,,,,,,,,,,,,P033,FENCOG,2,Pre,2022_Apr_05_1058,Go No-Go Task,2021.1.4,120.39011211858141,
EPracticeConditions/YellowScram.csv,"Rule: When you see a yellow image, do not press 'spacebar'.",Images/Scram1/AF07NES.jpg,Scramble,Blue,Images/Blue.jpg,space,,,,,,,0,3,3,3,0,6,6,3,,,,,,,,,,,,,,,,,,,,,,,,,,,,,,,,,,,,,,,,,,,,,,,,,,,1.9,233.17836070002522,None,space,1,235.17897609999636,None,235.17897609999636,None,235.17897609999636,None,236.08410039998125,None,0.2655166999902576,,,,,,,,,,,,,,,,,,,,,,,,,,,,,,,,,,,,,,,,,,,,,,,,,P033,FENCOG,2,Pre,2022_Apr_05_1058,Go No-Go Task,2021.1.4,120.39011211858141,
EPracticeConditions/YellowScram.csv,"Rule: When you see a yellow image, do not press 'spacebar'.",Images/Scram2/AM03NES.jpg,Scramble,Yellow,Images/Yellow.jpg,None,,,,,,,0,3,3,3,0,7,7,1,,,,,,,,,,,,,,,,,,,,,,,,,,,,,,,,,,,,,,,,,,,,,,,,,,,1.3,238.0855379999848,None,None,1,239.48607320000883,None,239.48607320000883,None,239.48607320000883,None,240.3828018999775,None,,,,,,,,,,,,,,,,,,,,,,,,,,,,,,,,,,,,,,,,,,,,,,,,,,P033,FENCOG,2,Pre,2022_Apr_05_1058,Go No-Go Task,2021.1.4,120.39011211858141,
EPracticeConditions/YellowScram.csv,"Rule: When you see a yellow image, do not press 'spacebar'.",,,,,,,,,,,,0,3,3,3,,,,,,,,,,,,,,,,,,,,,,,,,,,,,,,,,,,,,,,,,,,,,,,,,,,,,,,,,,,,,,,,,,,,,,,,,,,,,,,,,,,,,,,,,,,,,,,,,,,,,,,,,,,,,,,,,,,,,P033,FENCOG,2,Pre,2022_Apr_05_1058,Go No-Go Task,2021.1.4,120.39011211858141,
,,,,,,,,,,,,,,,,,,,,,,,,,,,,,,,,,,,,,,,,,,,,,,,,,,,,,,,,,,,,,,,,,,,,,,,,,,,,,,,,,,,,,243.76900329999626,None,space,7.929876999987755,244.2506352000055,None,,,,,,,,,,,,,,,,,,,,,,,,,,,,,,,,,,,,,,,,,,,P033,FENCOG,2,Pre,2022_Apr_05_1058,Go No-Go Task,2021.1.4,120.39011211858141,
,,,,,,,,,,,,,,,,,,,,,,,,,,,,,,,,,,,,,,,,,,,,,,,,,,,,,,,,,,,,,,,,,,,,,,,,,,,,,,,,,,,,,,,,,,,252.19151400000555,None,space,1.6850114000262693,252.19151400000555,None,,,,,,,,,,,,,,,,,,,,,,,,,,,,,,,,,,,,,P033,FENCOG,2,Pre,2022_Apr_05_1058,Go No-Go Task,2021.1.4,120.39011211858141,
,"Rule: When you see a yellow image, do not press 'spacebar'.",Images/Fearful/BM02_FC.jpg,Fear,Blue,Images/Blue.jpg,space,ParentConditions/YellowBlueBlue_v2.xlsx,BlueBlueYellow,Conditions/Version_2/YellowHappyStop.xlsx,no,PASS,0.16858645908030467,,,,,,,,,0,0,0,0,0,0,0,0,0,0,0,0,,,,,,,,,,,,,,,,,,,,,,,,,,,,,,,,,,,,,,,,,,,,,,,,,,,,,,,,,,,,,,,,,253.96594389999518,None,256.9553251999896,None,space,1.0813180999830365,256.9553251999896,None,253.96594389999518,None,253.96594389999518,None,253.96594389999518,None,1.8,258.0927286000224,None,space,1,0.3520087999640964,259.99669439997524,None,259.99669439997524,None,259.99669439997524,None,,,,,,,,,,,P033,FENCOG,2,Pre,2022_Apr_05_1058,Go No-Go Task,2021.1.4,120.39011211858141,
,"Rule: When you see a yellow image, do not press 'spacebar'.",Images/Fearful/HF05_FC.jpg,Fear,Blue,Images/Blue.jpg,space,ParentConditions/YellowBlueBlue_v2.xlsx,BlueBlueYellow,Conditions/Version_2/YellowHappyStop.xlsx,no,PASS,0.9484055972569129,,,,,,,,,0,0,0,0,0,0,0,0,0,1,1,1,,,,,,,,,,,,,,,,,,,,,,,,,,,,,,,,,,,,,,,,,,,,,,,,,,,,,,,,,,,,,,,,,,,,,,,,,,,,,,,1.7,260.4032076000003,None,space,1,0.25677679997170344,262.2043067999766,None,262.2043067999766,None,262.2043067999766,None,,,,,,,,,,,P033,FENCOG,2,Pre,2022_Apr_05_1058,Go No-Go Task,2021.1.4,120.39011211858141,
,"Rule: When you see a yellow image, do not press 'spacebar'.",Images/Happy/AF32HAS.jpg,Happy,Yellow,Images/Yellow.jpg,None,ParentConditions/YellowBlueBlue_v2.xlsx,BlueBlueYellow,Conditions/Version_2/YellowHappyStop.xlsx,yes,PASS,0.508887905761459,,,,,,,,,0,0,0,0,0,0,0,0,0,2,2,2,,,,,,,,,,,,,,,,,,,,,,,,,,,,,,,,,,,,,,,,,,,,,,,,,,,,,,,,,,,,,,,,,,,,,,,,,,,,,,,1.92,262.6041239000042,None,space,0,0.3357481000130065,264.6370317999972,None,264.6370317999972,None,264.6370317999972,None,,,,,,,,,,,P033,FENCOG,2,Pre,2022_Apr_05_1058,Go No-Go Task,2021.1.4,120.39011211858141,
,"Rule: When you see a yellow image, do not press 'spacebar'.",Images/Happy/AM32HAS.jpg,Happy,Yellow,Images/Yellow.jpg,None,ParentConditions/YellowBlueBlue_v2.xlsx,BlueBlueYellow,Conditions/Version_2/YellowHappyStop.xlsx,yes,PASS,0.12877007601010582,,,,,,,,,0,0,0,0,0,0,0,0,0,3,3,3,,,,,,,,,,,,,,,,,,,,,,,,,,,,,,,,,,,,,,,,,,,,,,,,,,,,,,,,,,,,,,,,,,,,,,,,,,,,,,,1.56,265.0345733999857,None,None,1,,266.68638660002034,None,266.68638660002034,None,266.68638660002034,None,,,,,,,,,,,P033,FENCOG,2,Pre,2022_Apr_05_1058,Go No-Go Task,2021.1.4,120.39011211858141,
,"Rule: When you see a yellow image, do not press 'spacebar'.",Images/Fearful/AF07FS.jpg,Fear,Blue,Images/Blue.jpg,space,ParentConditions/YellowBlueBlue_v2.xlsx,BlueBlueYellow,Conditions/Version_2/YellowHappyStop.xlsx,no,PASS,0.4320382618493961,,,,,,,,,0,0,0,0,0,0,0,0,0,4,4,4,,,,,,,,,,,,,,,,,,,,,,,,,,,,,,,,,,,,,,,,,,,,,,,,,,,,,,,,,,,,,,,,,,,,,,,,,,,,,,,1.97,267.08707840001443,None,space,1,0.2278709999518469,269.168932200002,None,269.168932200002,None,269.168932200002,None,,,,,,,,,,,P033,FENCOG,2,Pre,2022_Apr_05_1058,Go No-Go Task,2021.1.4,120.39011211858141,
,"Rule: When you see a yellow image, do not press 'spacebar'.",Images/Fearful/AM30AFS.jpg,Fear,Blue,Images/Blue.jpg,space,ParentConditions/YellowBlueBlue_v2.xlsx,BlueBlueYellow,Conditions/Version_2/YellowHappyStop.xlsx,no,PASS,0.14164593092902533,,,,,,,,,0,0,0,0,0,0,0,0,0,5,5,5,,,,,,,,,,,,,,,,,,,,,,,,,,,,,,,,,,,,,,,,,,,,,,,,,,,,,,,,,,,,,,,,,,,,,,,,,,,,,,,1.95,269.5718461999786,None,space,1,0.33002479997230694,271.6265729999868,None,271.6265729999868,None,271.6265729999868,None,,,,,,,,,,,P033,FENCOG,2,Pre,2022_Apr_05_1058,Go No-Go Task,2021.1.4,120.39011211858141,
,"Rule: When you see a yellow image, do not press 'spacebar'.",Images/Happy/BM03_HO.jpg,Happy,Yellow,Images/Yellow.jpg,None,ParentConditions/YellowBlueBlue_v2.xlsx,BlueBlueYellow,Conditions/Version_2/YellowHappyStop.xlsx,yes,PASS,0.824528473694533,,,,,,,,,0,0,0,0,0,0,0,0,0,6,6,6,,,,,,,,,,,,,,,,,,,,,,,,,,,,,,,,,,,,,,,,,,,,,,,,,,,,,,,,,,,,,,,,,,,,,,,,,,,,,,,1.25,272.027186900028,None,None,1,,273.38446620001923,None,273.38446620001923,None,273.38446620001923,None,,,,,,,,,,,P033,FENCOG,2,Pre,2022_Apr_05_1058,Go No-Go Task,2021.1.4,120.39011211858141,
,"Rule: When you see a yellow image, do not press 'spacebar'.",Images/Fearful/HM06_FC.jpg,Fear,Blue,Images/Blue.jpg,space,ParentConditions/YellowBlueBlue_v2.xlsx,BlueBlueYellow,Conditions/Version_2/YellowHappyStop.xlsx,no,PASS,0.06881493513979675,,,,,,,,,0,0,0,0,0,0,0,0,0,7,7,7,,,,,,,,,,,,,,,,,,,,,,,,,,,,,,,,,,,,,,,,,,,,,,,,,,,,,,,,,,,,,,,,,,,,,,,,,,,,,,,1.27,273.78486840002006,None,space,1,0.24586500000441447,275.15882519999286,None,275.15882519999286,None,275.15882519999286,None,,,,,,,,,,,P033,FENCOG,2,Pre,2022_Apr_05_1058,Go No-Go Task,2021.1.4,120.39011211858141,
,"Rule: When you see a yellow image, do not press 'spacebar'.",Images/Fearful/AF19AFS.jpg,Fear,Blue,Images/Blue.jpg,space,ParentConditions/YellowBlueBlue_v2.xlsx,BlueBlueYellow,Conditions/Version_2/YellowHappyStop.xlsx,no,PASS,0.6194516353064884,,,,,,,,,0,0,0,0,0,0,0,0,0,8,8,8,,,,,,,,,,,,,,,,,,,,,,,,,,,,,,,,,,,,,,,,,,,,,,,,,,,,,,,,,,,,,,,,,,,,,,,,,,,,,,,1.69,275.5589111999725,None,space,1,0.3025727999629453,277.3581974999979,None,277.3581974999979,None,277.3581974999979,None,,,,,,,,,,,P033,FENCOG,2,Pre,2022_Apr_05_1058,Go No-Go Task,2021.1.4,120.39011211858141,
,"Rule: When you see a yellow image, do not press 'spacebar'.",Images/Happy/AF30HAS.jpg,Happy,Yellow,Images/Yellow.jpg,None,ParentConditions/YellowBlueBlue_v2.xlsx,BlueBlueYellow,Conditions/Version_2/YellowHappyStop.xlsx,yes,PASS,0.7783721125891628,,,,,,,,,0,0,0,0,0,0,0,0,0,9,9,9,,,,,,,,,,,,,,,,,,,,,,,,,,,,,,,,,,,,,,,,,,,,,,,,,,,,,,,,,,,,,,,,,,,,,,,,,,,,,,,1.9,277.7595635000034,None,None,1,,279.765802000009,None,279.765802000009,None,279.765802000009,None,,,,,,,,,,,P033,FENCOG,2,Pre,2022_Apr_05_1058,Go No-Go Task,2021.1.4,120.39011211858141,
,"Rule: When you see a yellow image, do not press 'spacebar'.",Images/Fearful/AF25AFS.jpg,Fear,Blue,Images/Blue.jpg,space,ParentConditions/YellowBlueBlue_v2.xlsx,BlueBlueYellow,Conditions/Version_2/YellowHappyStop.xlsx,no,PASS,0.9528113424204139,,,,,,,,,0,0,0,0,0,0,0,0,0,10,10,10,,,,,,,,,,,,,,,,,,,,,,,,,,,,,,,,,,,,,,,,,,,,,,,,,,,,,,,,,,,,,,,,,,,,,,,,,,,,,,,1.65,280.1715047999751,None,space,1,0.2812537000281736,281.92344169999706,None,281.92344169999706,None,281.92344169999706,None,,,,,,,,,,,P033,FENCOG,2,Pre,2022_Apr_05_1058,Go No-Go Task,2021.1.4,120.39011211858141,
,"Rule: When you see a yellow image, do not press 'spacebar'.",Images/Fearful/AF30AFS.jpg,Fear,Blue,Images/Blue.jpg,space,ParentConditions/YellowBlueBlue_v2.xlsx,BlueBlueYellow,Conditions/Version_2/YellowHappyStop.xlsx,no,PASS,0.022094815080431318,,,,,,,,,0,0,0,0,0,0,0,0,0,11,11,11,,,,,,,,,,,,,,,,,,,,,,,,,,,,,,,,,,,,,,,,,,,,,,,,,,,,,,,,,,,,,,,,,,,,,,,,,,,,,,,1.48,282.32426419999683,None,space,1,0.28239920001942664,283.90627680002945,None,283.90627680002945,None,283.90627680002945,None,,,,,,,,,,,P033,FENCOG,2,Pre,2022_Apr_05_1058,Go No-Go Task,2021.1.4,120.39011211858141,
,"Rule: When you see a yellow image, do not press 'spacebar'.",Images/Happy/BF10_HO.jpg,Happy,Yellow,Images/Yellow.jpg,None,ParentConditions/YellowBlueBlue_v2.xlsx,BlueBlueYellow,Conditions/Version_2/YellowHappyStop.xlsx,yes,PASS,0.5001600173303757,,,,,,,,,0,0,0,0,0,0,0,0,0,12,12,12,,,,,,,,,,,,,,,,,,,,,,,,,,,,,,,,,,,,,,,,,,,,,,,,,,,,,,,,,,,,,,,,,,,,,,,,,,,,,,,1.33,284.3053878999781,None,None,1,,285.739087999973,None,285.739087999973,None,285.739087999973,None,,,,,,,,,,,P033,FENCOG,2,Pre,2022_Apr_05_1058,Go No-Go Task,2021.1.4,120.39011211858141,
,"Rule: When you see a yellow image, do not press 'spacebar'.",Images/Fearful/AM06_FO.jpg,Fear,Blue,Images/Blue.jpg,space,ParentConditions/YellowBlueBlue_v2.xlsx,BlueBlueYellow,Conditions/Version_2/YellowHappyStop.xlsx,no,PASS,0.578262378462087,,,,,,,,,0,0,0,0,0,0,0,0,0,13,13,13,,,,,,,,,,,,,,,,,,,,,,,,,,,,,,,,,,,,,,,,,,,,,,,,,,,,,,,,,,,,,,,,,,,,,,,,,,,,,,,1.52,286.142233200022,None,space,1,0.24076489999424666,287.77177970000776,None,287.77177970000776,None,287.77177970000776,None,,,,,,,,,,,P033,FENCOG,2,Pre,2022_Apr_05_1058,Go No-Go Task,2021.1.4,120.39011211858141,
,"Rule: When you see a yellow image, do not press 'spacebar'.",Images/Happy/AM24HAS.jpg,Happy,Yellow,Images/Yellow.jpg,None,ParentConditions/YellowBlueBlue_v2.xlsx,BlueBlueYellow,Conditions/Version_2/YellowHappyStop.xlsx,yes,PASS,0.39484184444569004,,,,,,,,,0,0,0,0,0,0,0,0,0,14,14,14,,,,,,,,,,,,,,,,,,,,,,,,,,,,,,,,,,,,,,,,,,,,,,,,,,,,,,,,,,,,,,,,,,,,,,,,,,,,,,,1.34,288.1639221999794,None,None,1,,289.6129650999792,None,289.6129650999792,None,289.6129650999792,None,,,,,,,,,,,P033,FENCOG,2,Pre,2022_Apr_05_1058,Go No-Go Task,2021.1.4,120.39011211858141,
,"Rule: When you see a yellow image, do not press 'spacebar'.",Images/Fearful/AF21AFS.jpg,Fear,Blue,Images/Blue.jpg,space,ParentConditions/YellowBlueBlue_v2.xlsx,BlueBlueYellow,Conditions/Version_2/YellowHappyStop.xlsx,no,PASS,0.6432231069793333,,,,,,,,,0,0,0,0,0,0,0,0,0,15,15,15,,,,,,,,,,,,,,,,,,,,,,,,,,,,,,,,,,,,,,,,,,,,,,,,,,,,,,,,,,,,,,,,,,,,,,,,,,,,,,,1.86,290.01178250001976,None,space,1,0.2816809000214562,291.97887380002066,None,291.97887380002066,None,291.97887380002066,None,,,,,,,,,,,P033,FENCOG,2,Pre,2022_Apr_05_1058,Go No-Go Task,2021.1.4,120.39011211858141,
,"Rule: When you see a yellow image, do not press 'spacebar'.",Images/Happy/AM06_HC.jpg,Happy,Yellow,Images/Yellow.jpg,None,ParentConditions/YellowBlueBlue_v2.xlsx,BlueBlueYellow,Conditions/Version_2/YellowHappyStop.xlsx,yes,PASS,0.7943976294198472,,,,,,,,,0,0,0,0,0,0,0,0,0,16,16,16,,,,,,,,,,,,,,,,,,,,,,,,,,,,,,,,,,,,,,,,,,,,,,,,,,,,,,,,,,,,,,,,,,,,,,,,,,,,,,,1.87,292.37949500000104,None,None,1,,294.35323170002084,None,294.35323170002084,None,294.35323170002084,None,,,,,,,,,,,P033,FENCOG,2,Pre,2022_Apr_05_1058,Go No-Go Task,2021.1.4,120.39011211858141,
,"Rule: When you see a yellow image, do not press 'spacebar'.",Images/Fearful/AF10_FC.jpg,Fear,Blue,Images/Blue.jpg,space,ParentConditions/YellowBlueBlue_v2.xlsx,BlueBlueYellow,Conditions/Version_2/YellowHappyStop.xlsx,no,PASS,0.4387172057805456,,,,,,,,,0,0,0,0,0,0,0,0,0,17,17,17,,,,,,,,,,,,,,,,,,,,,,,,,,,,,,,,,,,,,,,,,,,,,,,,,,,,,,,,,,,,,,,,,,,,,,,,,,,,,,,1.77,294.7561599999899,None,space,1,0.27323140000225976,296.6275257000234,None,296.6275257000234,None,296.6275257000234,None,,,,,,,,,,,P033,FENCOG,2,Pre,2022_Apr_05_1058,Go No-Go Task,2021.1.4,120.39011211858141,
,"Rule: When you see a yellow image, do not press 'spacebar'.",Images/Fearful/BM03_FC.jpg,Fear,Blue,Images/Blue.jpg,space,ParentConditions/YellowBlueBlue_v2.xlsx,BlueBlueYellow,Conditions/Version_2/YellowHappyStop.xlsx,no,PASS,0.20170262712346598,,,,,,,,,0,0,0,0,0,0,0,0,0,18,18,18,,,,,,,,,,,,,,,,,,,,,,,,,,,,,,,,,,,,,,,,,,,,,,,,,,,,,,,,,,,,,,,,,,,,,,,,,,,,,,,1.26,297.0279507000232,None,space,1,0.33901380002498627,298.4020115999738,None,298.4020115999738,None,298.4020115999738,None,,,,,,,,,,,P033,FENCOG,2,Pre,2022_Apr_05_1058,Go No-Go Task,2021.1.4,120.39011211858141,
,"Rule: When you see a yellow image, do not press 'spacebar'.",Images/Fearful/HM09_FC.jpg,Fear,Blue,Images/Blue.jpg,space,ParentConditions/YellowBlueBlue_v2.xlsx,BlueBlueYellow,Conditions/Version_2/YellowHappyStop.xlsx,no,PASS,0.15976906823467862,,,,,,,,,0,0,0,0,0,0,0,0,0,19,19,19,,,,,,,,,,,,,,,,,,,,,,,,,,,,,,,,,,,,,,,,,,,,,,,,,,,,,,,,,,,,,,,,,,,,,,,,,,,,,,,1.82,298.8008609000244,None,None,0,,300.7178866000031,None,300.7178866000031,None,300.7178866000031,None,,,,,,,,,,,P033,FENCOG,2,Pre,2022_Apr_05_1058,Go No-Go Task,2021.1.4,120.39011211858141,
,"Rule: When you see a yellow image, do not press 'spacebar'.",Images/Fearful/AM04_FO.jpg,Fear,Blue,Images/Blue.jpg,space,ParentConditions/YellowBlueBlue_v2.xlsx,BlueBlueYellow,Conditions/Version_2/YellowHappyStop.xlsx,no,PASS,0.7842232797128176,,,,,,,,,0,0,0,0,0,0,0,0,0,20,20,20,,,,,,,,,,,,,,,,,,,,,,,,,,,,,,,,,,,,,,,,,,,,,,,,,,,,,,,,,,,,,,,,,,,,,,,,,,,,,,,1.73,301.11861890001455,None,None,0,,302.95067109999945,None,302.95067109999945,None,302.95067109999945,None,,,,,,,,,,,P033,FENCOG,2,Pre,2022_Apr_05_1058,Go No-Go Task,2021.1.4,120.39011211858141,
,"Rule: When you see a yellow image, do not press 'spacebar'.",Images/Fearful/AF11AFS.jpg,Fear,Blue,Images/Blue.jpg,space,ParentConditions/YellowBlueBlue_v2.xlsx,BlueBlueYellow,Conditions/Version_2/YellowHappyStop.xlsx,no,PASS,0.5758948553509043,,,,,,,,,0,0,0,0,0,0,0,0,0,21,21,21,,,,,,,,,,,,,,,,,,,,,,,,,,,,,,,,,,,,,,,,,,,,,,,,,,,,,,,,,,,,,,,,,,,,,,,,,,,,,,,1.51,303.35094500001287,None,space,1,0.3256670000264421,304.9749524000217,None,304.9749524000217,None,304.9749524000217,None,,,,,,,,,,,P033,FENCOG,2,Pre,2022_Apr_05_1058,Go No-Go Task,2021.1.4,120.39011211858141,
,"Rule: When you see a yellow image, do not press 'spacebar'.",Images/Fearful/AM10_FO.jpg,Fear,Blue,Images/Blue.jpg,space,ParentConditions/YellowBlueBlue_v2.xlsx,BlueBlueYellow,Conditions/Version_2/YellowHappyStop.xlsx,no,PASS,0.7516560744284169,,,,,,,,,0,0,0,0,0,0,0,0,0,22,22,22,,,,,,,,,,,,,,,,,,,,,,,,,,,,,,,,,,,,,,,,,,,,,,,,,,,,,,,,,,,,,,,,,,,,,,,,,,,,,,,1.63,305.3740193999838,None,space,1,0.27894270000979304,307.11756590002915,None,307.11756590002915,None,307.11756590002915,None,,,,,,,,,,,P033,FENCOG,2,Pre,2022_Apr_05_1058,Go No-Go Task,2021.1.4,120.39011211858141,
,"Rule: When you see a yellow image, do not press 'spacebar'.",Images/Fearful/WF04_FC.jpg,Fear,Blue,Images/Blue.jpg,space,ParentConditions/YellowBlueBlue_v2.xlsx,BlueBlueYellow,Conditions/Version_2/YellowHappyStop.xlsx,no,PASS,0.8626299251261901,,,,,,,,,0,0,0,0,0,0,0,0,0,23,23,23,,,,,,,,,,,,,,,,,,,,,,,,,,,,,,,,,,,,,,,,,,,,,,,,,,,,,,,,,,,,,,,,,,,,,,,,,,,,,,,1.54,307.51520650001476,None,space,1,0.3275218000053428,309.15714460000163,None,309.15714460000163,None,309.15714460000163,None,,,,,,,,,,,P033,FENCOG,2,Pre,2022_Apr_05_1058,Go No-Go Task,2021.1.4,120.39011211858141,
,"Rule: When you see a yellow image, do not press 'spacebar'.",Images/Fearful/AF28AFS.jpg,Fear,Blue,Images/Blue.jpg,space,ParentConditions/YellowBlueBlue_v2.xlsx,BlueBlueYellow,Conditions/Version_2/YellowHappyStop.xlsx,no,PASS,0.7326117629083128,,,,,,,,,0,0,0,0,0,0,0,0,0,24,24,24,,,,,,,,,,,,,,,,,,,,,,,,,,,,,,,,,,,,,,,,,,,,,,,,,,,,,,,,,,,,,,,,,,,,,,,,,,,,,,,1.43,309.55781139998,None,space,1,0.21871859999373555,311.08992250001756,None,311.08992250001756,None,311.08992250001756,None,,,,,,,,,,,P033,FENCOG,2,Pre,2022_Apr_05_1058,Go No-Go Task,2021.1.4,120.39011211858141,
,"Rule: When you see a yellow image, do not press 'spacebar'.",Images/Fearful/WF11_FC.jpg,Fear,Blue,Images/Blue.jpg,space,ParentConditions/YellowBlueBlue_v2.xlsx,BlueBlueYellow,Conditions/Version_2/YellowHappyStop.xlsx,no,PASS,0.32883698788558013,,,,,,,,,0,0,0,0,0,0,0,0,0,25,25,25,,,,,,,,,,,,,,,,,,,,,,,,,,,,,,,,,,,,,,,,,,,,,,,,,,,,,,,,,,,,,,,,,,,,,,,,,,,,,,,1.5,311.49033850000706,None,space,1,0.24243959999876097,313.10602810001,None,313.10602810001,None,313.10602810001,None,,,,,,,,,,,P033,FENCOG,2,Pre,2022_Apr_05_1058,Go No-Go Task,2021.1.4,120.39011211858141,
,"Rule: When you see a yellow image, do not press 'spacebar'.",Images/Fearful/AM17AFS.jpg,Fear,Blue,Images/Blue.jpg,space,ParentConditions/YellowBlueBlue_v2.xlsx,BlueBlueYellow,Conditions/Version_2/YellowHappyStop.xlsx,no,PASS,0.2011457593950874,,,,,,,,,0,0,0,0,0,0,0,0,0,26,26,26,,,,,,,,,,,,,,,,,,,,,,,,,,,,,,,,,,,,,,,,,,,,,,,,,,,,,,,,,,,,,,,,,,,,,,,,,,,,,,,1.64,313.505848300003,None,space,1,0.261744599964004,315.24700179998763,None,315.24700179998763,None,315.24700179998763,None,,,,,,,,,,,P033,FENCOG,2,Pre,2022_Apr_05_1058,Go No-Go Task,2021.1.4,120.39011211858141,
,"Rule: When you see a yellow image, do not press 'spacebar'.",Images/Happy/AF27HAS.jpg,Happy,Yellow,Images/Yellow.jpg,None,ParentConditions/YellowBlueBlue_v2.xlsx,BlueBlueYellow,Conditions/Version_2/YellowHappyStop.xlsx,yes,PASS,0.03113428438097654,,,,,,,,,0,0,0,0,0,0,0,0,0,27,27,27,,,,,,,,,,,,,,,,,,,,,,,,,,,,,,,,,,,,,,,,,,,,,,,,,,,,,,,,,,,,,,,,,,,,,,,,,,,,,,,1.76,315.6531701000058,None,None,1,,317.52140020002844,None,317.52140020002844,None,317.52140020002844,None,,,,,,,,,,,P033,FENCOG,2,Pre,2022_Apr_05_1058,Go No-Go Task,2021.1.4,120.39011211858141,
,"Rule: When you see a yellow image, do not press 'spacebar'.",Images/Fearful/BF10_FO.jpg,Fear,Blue,Images/Blue.jpg,space,ParentConditions/YellowBlueBlue_v2.xlsx,BlueBlueYellow,Conditions/Version_2/YellowHappyStop.xlsx,no,PASS,0.8821344053441019,,,,,,,,,0,0,0,0,0,0,0,0,0,28,28,28,,,,,,,,,,,,,,,,,,,,,,,,,,,,,,,,,,,,,,,,,,,,,,,,,,,,,,,,,,,,,,,,,,,,,,,,,,,,,,,1.71,317.9237548999954,None,space,1,0.25125670002307743,319.73742600000696,None,319.73742600000696,None,319.73742600000696,None,,,,,,,,,,,P033,FENCOG,2,Pre,2022_Apr_05_1058,Go No-Go Task,2021.1.4,120.39011211858141,
,"Rule: When you see a yellow image, do not press 'spacebar'.",Images/Fearful/HF04_FO.jpg,Fear,Blue,Images/Blue.jpg,space,ParentConditions/YellowBlueBlue_v2.xlsx,BlueBlueYellow,Conditions/Version_2/YellowHappyStop.xlsx,no,PASS,0.10236928865186712,,,,,,,,,0,0,0,0,0,0,0,0,0,29,29,29,,,,,,,,,,,,,,,,,,,,,,,,,,,,,,,,,,,,,,,,,,,,,,,,,,,,,,,,,,,,,,,,,,,,,,,,,,,,,,,1.6,320.13817809999455,None,space,1,0.21540879999520257,321.84510999999475,None,321.84510999999475,None,321.84510999999475,None,,,,,,,,,,,P033,FENCOG,2,Pre,2022_Apr_05_1058,Go No-Go Task,2021.1.4,120.39011211858141,
,"Rule: When you see a yellow image, do not press 'spacebar'.",Images/Happy/AF26HAS.jpg,Happy,Yellow,Images/Yellow.jpg,None,ParentConditions/YellowBlueBlue_v2.xlsx,BlueBlueYellow,Conditions/Version_2/YellowHappyStop.xlsx,yes,PASS,0.3122778532266225,,,,,,,,,0,0,0,0,0,0,0,0,0,30,30,30,,,,,,,,,,,,,,,,,,,,,,,,,,,,,,,,,,,,,,,,,,,,,,,,,,,,,,,,,,,,,,,,,,,,,,,,,,,,,,,1.94,322.2474825999816,None,None,1,,324.29442190000555,None,324.29442190000555,None,324.29442190000555,None,,,,,,,,,,,P033,FENCOG,2,Pre,2022_Apr_05_1058,Go No-Go Task,2021.1.4,120.39011211858141,
,"Rule: When you see a yellow image, do not press 'spacebar'.",Images/Happy/HF09_HE.jpg,Happy,Yellow,Images/Yellow.jpg,None,ParentConditions/YellowBlueBlue_v2.xlsx,BlueBlueYellow,Conditions/Version_2/YellowHappyStop.xlsx,yes,PASS,0.8889954581367391,,,,,,,,,0,0,0,0,0,0,0,0,0,31,31,31,,,,,,,,,,,,,,,,,,,,,,,,,,,,,,,,,,,,,,,,,,,,,,,,,,,,,,,,,,,,,,,,,,,,,,,,,,,,,,,1.93,324.69537680002395,None,space,0,0.19802970002638176,326.7268904999946,None,326.7268904999946,None,326.7268904999946,None,,,,,,,,,,,P033,FENCOG,2,Pre,2022_Apr_05_1058,Go No-Go Task,2021.1.4,120.39011211858141,
,"Rule: When you see a yellow image, do not press 'spacebar'.",Images/Fearful/AM16AFS.jpg,Fear,Blue,Images/Blue.jpg,space,ParentConditions/YellowBlueBlue_v2.xlsx,BlueBlueYellow,Conditions/Version_2/YellowHappyStop.xlsx,no,PASS,0.3485636078399603,,,,,,,,,0,0,0,0,0,0,0,0,0,32,32,32,,,,,,,,,,,,,,,,,,,,,,,,,,,,,,,,,,,,,,,,,,,,,,,,,,,,,,,,,,,,,,,,,,,,,,,,,,,,,,,1.83,327.1379696999793,None,space,1,0.3052798999706283,329.0594225000241,None,329.0594225000241,None,329.0594225000241,None,,,,,,,,,,,P033,FENCOG,2,Pre,2022_Apr_05_1058,Go No-Go Task,2021.1.4,120.39011211858141,
,"Rule: When you see a yellow image, do not press 'spacebar'.",Images/Fearful/WF05_FO.jpg,Fear,Blue,Images/Blue.jpg,space,ParentConditions/YellowBlueBlue_v2.xlsx,BlueBlueYellow,Conditions/Version_2/YellowHappyStop.xlsx,no,PASS,0.571161037699378,,,,,,,,,0,0,0,0,0,0,0,0,0,33,33,33,,,,,,,,,,,,,,,,,,,,,,,,,,,,,,,,,,,,,,,,,,,,,,,,,,,,,,,,,,,,,,,,,,,,,,,,,,,,,,,1.91,329.46194250002736,None,space,1,0.36078000004636124,331.48387290001847,None,331.48387290001847,None,331.48387290001847,None,,,,,,,,,,,P033,FENCOG,2,Pre,2022_Apr_05_1058,Go No-Go Task,2021.1.4,120.39011211858141,
,"Rule: When you see a yellow image, do not press 'spacebar'.",Images/Fearful/AM03_FC.jpg,Fear,Blue,Images/Blue.jpg,space,ParentConditions/YellowBlueBlue_v2.xlsx,BlueBlueYellow,Conditions/Version_2/YellowHappyStop.xlsx,no,PASS,0.795310308756252,,,,,,,,,0,0,0,0,0,0,0,0,0,34,34,34,,,,,,,,,,,,,,,,,,,,,,,,,,,,,,,,,,,,,,,,,,,,,,,,,,,,,,,,,,,,,,,,,,,,,,,,,,,,,,,1.29,331.8839513999992,None,space,1,0.2571174999466166,333.2833990000072,None,333.2833990000072,None,333.2833990000072,None,,,,,,,,,,,P033,FENCOG,2,Pre,2022_Apr_05_1058,Go No-Go Task,2021.1.4,120.39011211858141,
,"Rule: When you see a yellow image, do not press 'spacebar'.",Images/Fearful/AM01AFS.jpg,Fear,Blue,Images/Blue.jpg,space,ParentConditions/YellowBlueBlue_v2.xlsx,BlueBlueYellow,Conditions/Version_2/YellowHappyStop.xlsx,no,PASS,0.0960655228006344,,,,,,,,,0,0,0,0,0,0,0,0,0,35,35,35,,,,,,,,,,,,,,,,,,,,,,,,,,,,,,,,,,,,,,,,,,,,,,,,,,,,,,,,,,,,,,,,,,,,,,,,,,,,,,,1.31,333.6823839999852,None,space,1,0.3605989000061527,335.107852199988,None,335.107852199988,None,335.107852199988,None,,,,,,,,,,,P033,FENCOG,2,Pre,2022_Apr_05_1058,Go No-Go Task,2021.1.4,120.39011211858141,
,"Rule: When you see a yellow image, do not press 'spacebar'.",Images/Fearful/HM04_FC.jpg,Fear,Blue,Images/Blue.jpg,space,ParentConditions/YellowBlueBlue_v2.xlsx,BlueBlueYellow,Conditions/Version_2/YellowHappyStop.xlsx,no,PASS,0.2671765254267089,,,,,,,,,0,0,0,0,0,0,0,0,0,36,36,36,,,,,,,,,,,,,,,,,,,,,,,,,,,,,,,,,,,,,,,,,,,,,,,,,,,,,,,,,,,,,,,,,,,,,,,,,,,,,,,1.22,335.50694200000726,None,space,1,0.23592309997184202,336.84067569999024,None,336.84067569999024,None,336.84067569999024,None,,,,,,,,,,,P033,FENCOG,2,Pre,2022_Apr_05_1058,Go No-Go Task,2021.1.4,120.39011211858141,
,"Rule: When you see a yellow image, do not press 'spacebar'.",Images/Fearful/BF18_FC.jpg,Fear,Blue,Images/Blue.jpg,space,ParentConditions/YellowBlueBlue_v2.xlsx,BlueBlueYellow,Conditions/Version_2/YellowHappyStop.xlsx,no,PASS,0.30493199358976686,,,,,,,,,0,0,0,0,0,0,0,0,0,37,37,37,,,,,,,,,,,,,,,,,,,,,,,,,,,,,,,,,,,,,,,,,,,,,,,,,,,,,,,,,,,,,,,,,,,,,,,,,,,,,,,1.96,337.2396445000195,None,space,1,0.3218252999940887,339.31492670002626,None,339.31492670002626,None,339.31492670002626,None,,,,,,,,,,,P033,FENCOG,2,Pre,2022_Apr_05_1058,Go No-Go Task,2021.1.4,120.39011211858141,
,"Rule: When you see a yellow image, do not press 'spacebar'.",Images/Fearful/AF07_FO.jpg,Fear,Blue,Images/Blue.jpg,space,ParentConditions/YellowBlueBlue_v2.xlsx,BlueBlueYellow,Conditions/Version_2/YellowHappyStop.xlsx,no,PASS,0.06571981152440787,,,,,,,,,0,0,0,0,0,0,0,0,0,38,38,38,,,,,,,,,,,,,,,,,,,,,,,,,,,,,,,,,,,,,,,,,,,,,,,,,,,,,,,,,,,,,,,,,,,,,,,,,,,,,,,1.89,339.7138341999962,None,space,1,0.2587040000362322,341.70595819997834,None,341.70595819997834,None,341.70595819997834,None,,,,,,,,,,,P033,FENCOG,2,Pre,2022_Apr_05_1058,Go No-Go Task,2021.1.4,120.39011211858141,
,"Rule: When you see a yellow image, do not press 'spacebar'.",Images/Fearful/AM24AFS.jpg,Fear,Blue,Images/Blue.jpg,space,ParentConditions/YellowBlueBlue_v2.xlsx,BlueBlueYellow,Conditions/Version_2/YellowHappyStop.xlsx,no,PASS,0.23738601052691555,,,,,,,,,0,0,0,0,0,0,0,0,0,39,39,39,,,,,,,,,,,,,,,,,,,,,,,,,,,,,,,,,,,,,,,,,,,,,,,,,,,,,,,,,,,,,,,,,,,,,,,,,,,,,,,1.62,342.1058832000126,None,space,1,0.26262340001994744,343.821974600025,None,343.821974600025,None,343.821974600025,None,,,,,,,,,,,P033,FENCOG,2,Pre,2022_Apr_05_1058,Go No-Go Task,2021.1.4,120.39011211858141,
,"Rule: When you see a yellow image, do not press 'spacebar'.",Images/Fearful/AM03AFS.jpg,Fear,Blue,Images/Blue.jpg,space,ParentConditions/YellowBlueBlue_v2.xlsx,BlueBlueYellow,Conditions/Version_2/YellowHappyStop.xlsx,no,PASS,0.9496981002344779,,,,,,,,,0,0,0,0,0,0,0,0,0,40,40,40,,,,,,,,,,,,,,,,,,,,,,,,,,,,,,,,,,,,,,,,,,,,,,,,,,,,,,,,,,,,,,,,,,,,,,,,,,,,,,,1.67,344.2228860000032,None,space,1,0.1445450999890454,345.9963366999873,None,345.9963366999873,None,345.9963366999873,None,,,,,,,,,,,P033,FENCOG,2,Pre,2022_Apr_05_1058,Go No-Go Task,2021.1.4,120.39011211858141,
,"Rule: When you see a yellow image, do not press 'spacebar'.",Images/Fearful/BM08_FC.jpg,Fear,Blue,Images/Blue.jpg,space,ParentConditions/YellowBlueBlue_v2.xlsx,BlueBlueYellow,Conditions/Version_2/YellowHappyStop.xlsx,no,PASS,0.9731806168242675,,,,,,,,,0,0,0,0,0,0,0,0,0,41,41,41,,,,,,,,,,,,,,,,,,,,,,,,,,,,,,,,,,,,,,,,,,,,,,,,,,,,,,,,,,,,,,,,,,,,,,,,,,,,,,,1.57,346.3971743999864,None,space,1,0.23781520000193268,348.07068880001316,None,348.07068880001316,None,348.07068880001316,None,,,,,,,,,,,P033,FENCOG,2,Pre,2022_Apr_05_1058,Go No-Go Task,2021.1.4,120.39011211858141,
,"Rule: When you see a yellow image, do not press 'spacebar'.",Images/Fearful/AF32AFS.jpg,Fear,Blue,Images/Blue.jpg,space,ParentConditions/YellowBlueBlue_v2.xlsx,BlueBlueYellow,Conditions/Version_2/YellowHappyStop.xlsx,no,PASS,0.6516797726115628,,,,,,,,,0,0,0,0,0,0,0,0,0,42,42,42,,,,,,,,,,,,,,,,,,,,,,,,,,,,,,,,,,,,,,,,,,,,,,,,,,,,,,,,,,,,,,,,,,,,,,,,,,,,,,,1.61,348.47562219999963,None,space,1,0.25765509996563196,350.1949076000019,None,350.1949076000019,None,350.1949076000019,None,,,,,,,,,,,P033,FENCOG,2,Pre,2022_Apr_05_1058,Go No-Go Task,2021.1.4,120.39011211858141,
,"Rule: When you see a yellow image, do not press 'spacebar'.",Images/Fearful/AF26AFS.jpg,Fear,Blue,Images/Blue.jpg,space,ParentConditions/YellowBlueBlue_v2.xlsx,BlueBlueYellow,Conditions/Version_2/YellowHappyStop.xlsx,no,PASS,0.7646464028460872,,,,,,,,,0,0,0,0,0,0,0,0,0,43,43,43,,,,,,,,,,,,,,,,,,,,,,,,,,,,,,,,,,,,,,,,,,,,,,,,,,,,,,,,,,,,,,,,,,,,,,,,,,,,,,,1.78,350.5940096999984,None,space,1,0.23039219999918714,352.4860834000283,None,352.4860834000283,None,352.4860834000283,None,,,,,,,,,,,P033,FENCOG,2,Pre,2022_Apr_05_1058,Go No-Go Task,2021.1.4,120.39011211858141,
,"Rule: When you see a yellow image, do not press 'spacebar'.",Images/Fearful/BF09_FC.jpg,Fear,Blue,Images/Blue.jpg,space,ParentConditions/YellowBlueBlue_v2.xlsx,BlueBlueYellow,Conditions/Version_2/YellowHappyStop.xlsx,no,PASS,0.026085524820318784,,,,,,,,,0,0,0,0,0,0,0,0,0,44,44,44,,,,,,,,,,,,,,,,,,,,,,,,,,,,,,,,,,,,,,,,,,,,,,,,,,,,,,,,,,,,,,,,,,,,,,,,,,,,,,,1.55,352.8851422999869,None,space,1,0.21334129996830598,354.5354619999998,None,354.5354619999998,None,354.5354619999998,None,,,,,,,,,,,P033,FENCOG,2,Pre,2022_Apr_05_1058,Go No-Go Task,2021.1.4,120.39011211858141,
,"Rule: When you see a yellow image, do not press 'spacebar'.",Images/Fearful/BM01_FO.jpg,Fear,Blue,Images/Blue.jpg,space,ParentConditions/YellowBlueBlue_v2.xlsx,BlueBlueYellow,Conditions/Version_2/YellowHappyStop.xlsx,no,PASS,0.5546632244892579,,,,,,,,,0,0,0,0,0,0,0,0,0,45,45,45,,,,,,,,,,,,,,,,,,,,,,,,,,,,,,,,,,,,,,,,,,,,,,,,,,,,,,,,,,,,,,,,,,,,,,,,,,,,,,,1.46,354.9370679000276,None,space,1,0.23851630004355684,356.50998279999476,None,356.50998279999476,None,356.50998279999476,None,,,,,,,,,,,P033,FENCOG,2,Pre,2022_Apr_05_1058,Go No-Go Task,2021.1.4,120.39011211858141,
,"Rule: When you see a yellow image, do not press 'spacebar'.",Images/Happy/BF14_HO.jpg,Happy,Yellow,Images/Yellow.jpg,None,ParentConditions/YellowBlueBlue_v2.xlsx,BlueBlueYellow,Conditions/Version_2/YellowHappyStop.xlsx,yes,PASS,0.8128181362801364,,,,,,,,,0,0,0,0,0,0,0,0,0,46,46,46,,,,,,,,,,,,,,,,,,,,,,,,,,,,,,,,,,,,,,,,,,,,,,,,,,,,,,,,,,,,,,,,,,,,,,,,,,,,,,,1.44,356.90957870002603,None,None,1,,358.45097280002665,None,358.45097280002665,None,358.45097280002665,None,,,,,,,,,,,P033,FENCOG,2,Pre,2022_Apr_05_1058,Go No-Go Task,2021.1.4,120.39011211858141,
,"Rule: When you see a yellow image, do not press 'spacebar'.",Images/Fearful/WM11_FC.jpg,Fear,Blue,Images/Blue.jpg,space,ParentConditions/YellowBlueBlue_v2.xlsx,BlueBlueYellow,Conditions/Version_2/YellowHappyStop.xlsx,no,PASS,0.9251187011996334,,,,,,,,,0,0,0,0,0,0,0,0,0,47,47,47,,,,,,,,,,,,,,,,,,,,,,,,,,,,,,,,,,,,,,,,,,,,,,,,,,,,,,,,,,,,,,,,,,,,,,,,,,,,,,,1.75,358.850227500021,None,space,1,0.2641616999753751,360.7003107999917,None,360.7003107999917,None,360.7003107999917,None,,,,,,,,,,,P033,FENCOG,2,Pre,2022_Apr_05_1058,Go No-Go Task,2021.1.4,120.39011211858141,
,"Rule: When you see a yellow image, do not press 'spacebar'.",Images/Fearful/AM02_FO.jpg,Fear,Blue,Images/Blue.jpg,space,ParentConditions/YellowBlueBlue_v2.xlsx,BlueBlueYellow,Conditions/Version_2/YellowHappyStop.xlsx,no,PASS,0.0455811702140666,,,,,,,,,0,0,0,0,0,0,0,0,0,48,48,48,,,,,,,,,,,,,,,,,,,,,,,,,,,,,,,,,,,,,,,,,,,,,,,,,,,,,,,,,,,,,,,,,,,,,,,,,,,,,,,1.68,361.10226790001616,None,space,1,0.34581680002156645,362.8830213000183,None,362.8830213000183,None,362.8830213000183,None,,,,,,,,,,,P033,FENCOG,2,Pre,2022_Apr_05_1058,Go No-Go Task,2021.1.4,120.39011211858141,
,"Rule: When you see a yellow image, do not press 'spacebar'.",Images/Happy/HM09_HO.jpg,Happy,Yellow,Images/Yellow.jpg,None,ParentConditions/YellowBlueBlue_v2.xlsx,BlueBlueYellow,Conditions/Version_2/YellowHappyStop.xlsx,yes,PASS,0.3219974030212036,,,,,,,,,0,0,0,0,0,0,0,0,0,49,49,49,,,,,,,,,,,,,,,,,,,,,,,,,,,,,,,,,,,,,,,,,,,,,,,,,,,,,,,,,,,,,,,,,,,,,,,,,,,,,,,1.59,363.28343429998495,None,space,0,0.23820690001593903,364.982431899989,None,364.982431899989,None,364.982431899989,None,,,,,,,,,,,P033,FENCOG,2,Pre,2022_Apr_05_1058,Go No-Go Task,2021.1.4,120.39011211858141,
,"Rule: When you see a yellow image, do not press 'spacebar'.",Images/Happy/HF10_HE.jpg,Happy,Yellow,Images/Yellow.jpg,None,ParentConditions/YellowBlueBlue_v2.xlsx,BlueBlueYellow,Conditions/Version_2/YellowHappyStop.xlsx,yes,PASS,0.5613535526914523,,,,,,,,,0,0,0,0,0,0,0,0,0,50,50,50,,,,,,,,,,,,,,,,,,,,,,,,,,,,,,,,,,,,,,,,,,,,,,,,,,,,,,,,,,,,,,,,,,,,,,,,,,,,,,,1.66,365.38161079998827,None,None,1,,367.14840190001996,None,367.14840190001996,None,367.14840190001996,None,,,,,,,,,,,P033,FENCOG,2,Pre,2022_Apr_05_1058,Go No-Go Task,2021.1.4,120.39011211858141,
,"Rule: When you see a yellow image, do not press 'spacebar'.",Images/Fearful/AF09AFS.jpg,Fear,Blue,Images/Blue.jpg,space,ParentConditions/YellowBlueBlue_v2.xlsx,BlueBlueYellow,Conditions/Version_2/YellowHappyStop.xlsx,no,PASS,0.5511492847876154,,,,,,,,,0,0,0,0,0,0,0,0,0,51,51,51,,,,,,,,,,,,,,,,,,,,,,,,,,,,,,,,,,,,,,,,,,,,,,,,,,,,,,,,,,,,,,,,,,,,,,,,,,,,,,,1.85,367.55194690002827,None,space,1,0.354087800020352,369.5144281000248,None,369.5144281000248,None,369.5144281000248,None,,,,,,,,,,,P033,FENCOG,2,Pre,2022_Apr_05_1058,Go No-Go Task,2021.1.4,120.39011211858141,
,"Rule: When you see a yellow image, do not press 'spacebar'.",Images/Fearful/AM23AFS.jpg,Fear,Blue,Images/Blue.jpg,space,ParentConditions/YellowBlueBlue_v2.xlsx,BlueBlueYellow,Conditions/Version_2/YellowHappyStop.xlsx,no,PASS,0.2159972500516506,,,,,,,,,0,0,0,0,0,0,0,0,0,52,52,52,,,,,,,,,,,,,,,,,,,,,,,,,,,,,,,,,,,,,,,,,,,,,,,,,,,,,,,,,,,,,,,,,,,,,,,,,,,,,,,1.47,369.91348520002794,None,space,1,0.30810940003721043,371.4804617000045,None,371.4804617000045,None,371.4804617000045,None,,,,,,,,,,,P033,FENCOG,2,Pre,2022_Apr_05_1058,Go No-Go Task,2021.1.4,120.39011211858141,
,"Rule: When you see a yellow image, do not press 'spacebar'.",Images/Fearful/AM05AFS.jpg,Fear,Blue,Images/Blue.jpg,space,ParentConditions/YellowBlueBlue_v2.xlsx,BlueBlueYellow,Conditions/Version_2/YellowHappyStop.xlsx,no,PASS,0.18827335330329198,,,,,,,,,0,0,0,0,0,0,0,0,0,53,53,53,,,,,,,,,,,,,,,,,,,,,,,,,,,,,,,,,,,,,,,,,,,,,,,,,,,,,,,,,,,,,,,,,,,,,,,,,,,,,,,1.98,371.8812743999879,None,space,1,0.23303880001185462,373.96374300000025,None,373.96374300000025,None,373.96374300000025,None,,,,,,,,,,,P033,FENCOG,2,Pre,2022_Apr_05_1058,Go No-Go Task,2021.1.4,120.39011211858141,
,"Rule: When you see a yellow image, do not press 'spacebar'.",Images/Happy/AF28HAS.jpg,Happy,Yellow,Images/Yellow.jpg,None,ParentConditions/YellowBlueBlue_v2.xlsx,BlueBlueYellow,Conditions/Version_2/YellowHappyStop.xlsx,yes,PASS,0.7444008667159328,,,,,,,,,0,0,0,0,0,0,0,0,0,54,54,54,,,,,,,,,,,,,,,,,,,,,,,,,,,,,,,,,,,,,,,,,,,,,,,,,,,,,,,,,,,,,,,,,,,,,,,,,,,,,,,1.2,374.3651263000211,None,None,1,,375.67932320002,None,375.67932320002,None,375.67932320002,None,,,,,,,,,,,P033,FENCOG,2,Pre,2022_Apr_05_1058,Go No-Go Task,2021.1.4,120.39011211858141,
,"Rule: When you see a yellow image, do not press 'spacebar'.",Images/Fearful/BF14_FO.jpg,Fear,Blue,Images/Blue.jpg,space,ParentConditions/YellowBlueBlue_v2.xlsx,BlueBlueYellow,Conditions/Version_2/YellowHappyStop.xlsx,no,PASS,0.036114312510467594,,,,,,,,,0,0,0,0,0,0,0,0,0,55,55,55,,,,,,,,,,,,,,,,,,,,,,,,,,,,,,,,,,,,,,,,,,,,,,,,,,,,,,,,,,,,,,,,,,,,,,,,,,,,,,,1.24,376.0823959999834,None,space,1,0.2636492000310682,377.428823299997,None,377.428823299997,None,377.428823299997,None,,,,,,,,,,,P033,FENCOG,2,Pre,2022_Apr_05_1058,Go No-Go Task,2021.1.4,120.39011211858141,
,"Rule: When you see a yellow image, do not press 'spacebar'.",Images/Happy/AM30HAS.jpg,Happy,Yellow,Images/Yellow.jpg,None,ParentConditions/YellowBlueBlue_v2.xlsx,BlueBlueYellow,Conditions/Version_2/YellowHappyStop.xlsx,yes,PASS,0.9276323490247724,,,,,,,,,0,0,0,0,0,0,0,0,0,56,56,56,,,,,,,,,,,,,,,,,,,,,,,,,,,,,,,,,,,,,,,,,,,,,,,,,,,,,,,,,,,,,,,,,,,,,,,,,,,,,,,1.4,377.8312673000037,None,None,1,,379.3448166999733,None,379.3448166999733,None,379.3448166999733,None,,,,,,,,,,,P033,FENCOG,2,Pre,2022_Apr_05_1058,Go No-Go Task,2021.1.4,120.39011211858141,
,"Rule: When you see a yellow image, do not press 'spacebar'.",Images/Fearful/AF27AFS.jpg,Fear,Blue,Images/Blue.jpg,space,ParentConditions/YellowBlueBlue_v2.xlsx,BlueBlueYellow,Conditions/Version_2/YellowHappyStop.xlsx,no,PASS,0.9674336643747157,,,,,,,,,0,0,0,0,0,0,0,0,0,57,57,57,,,,,,,,,,,,,,,,,,,,,,,,,,,,,,,,,,,,,,,,,,,,,,,,,,,,,,,,,,,,,,,,,,,,,,,,,,,,,,,1.3,379.74372859997675,None,space,1,0.22019070002716035,381.1442814000184,None,381.1442814000184,None,381.1442814000184,None,,,,,,,,,,,P033,FENCOG,2,Pre,2022_Apr_05_1058,Go No-Go Task,2021.1.4,120.39011211858141,
,"Rule: When you see a yellow image, do not press 'spacebar'.",Images/Fearful/AM32AFS.jpg,Fear,Blue,Images/Blue.jpg,space,ParentConditions/YellowBlueBlue_v2.xlsx,BlueBlueYellow,Conditions/Version_2/YellowHappyStop.xlsx,no,PASS,0.5429320828851499,,,,,,,,,0,0,0,0,0,0,0,0,0,58,58,58,,,,,,,,,,,,,,,,,,,,,,,,,,,,,,,,,,,,,,,,,,,,,,,,,,,,,,,,,,,,,,,,,,,,,,,,,,,,,,,1.41,381.5446258999873,None,space,1,0.26386920001823455,383.0687542000087,None,383.0687542000087,None,383.0687542000087,None,,,,,,,,,,,P033,FENCOG,2,Pre,2022_Apr_05_1058,Go No-Go Task,2021.1.4,120.39011211858141,
,"Rule: When you see a yellow image, do not press 'spacebar'.",Images/Fearful/AM09_FO.jpg,Fear,Blue,Images/Blue.jpg,space,ParentConditions/YellowBlueBlue_v2.xlsx,BlueBlueYellow,Conditions/Version_2/YellowHappyStop.xlsx,no,PASS,0.5248989229975377,,,,,,,,,0,0,0,0,0,0,0,0,0,59,59,59,,,,,,,,,,,,,,,,,,,,,,,,,,,,,,,,,,,,,,,,,,,,,,,,,,,,,,,,,,,,,,,,,,,,,,,,,,,,,,,1.53,383.4694951000274,None,space,1,0.23114170000189915,385.1014701999957,None,385.1014701999957,None,385.1014701999957,None,,,,,,,,,,,P033,FENCOG,2,Pre,2022_Apr_05_1058,Go No-Go Task,2021.1.4,120.39011211858141,
,"Rule: When you see a yellow image, do not press 'spacebar'.",Images/Fearful/AF01_FO.jpg,Fear,Blue,Images/Blue.jpg,space,ParentConditions/YellowBlueBlue_v2.xlsx,BlueBlueYellow,Conditions/Version_2/YellowHappyStop.xlsx,no,PASS,0.007145119379767917,,,,,,,,,0,0,0,0,0,0,0,0,0,60,60,60,,,,,,,,,,,,,,,,,,,,,,,,,,,,,,,,,,,,,,,,,,,,,,,,,,,,,,,,,,,,,,,,,,,,,,,,,,,,,,,1.58,385.5066963999998,None,space,1,0.2203682999825105,387.18425649998244,None,387.18425649998244,None,387.18425649998244,None,,,,,,,,,,,P033,FENCOG,2,Pre,2022_Apr_05_1058,Go No-Go Task,2021.1.4,120.39011211858141,
,"Rule: When you see a yellow image, do not press 'spacebar'.",Images/Happy/AM10_HO.jpg,Happy,Yellow,Images/Yellow.jpg,None,ParentConditions/YellowBlueBlue_v2.xlsx,BlueBlueYellow,Conditions/Version_2/YellowHappyStop.xlsx,yes,PASS,0.8341186478720962,,,,,,,,,0,0,0,0,0,0,0,0,0,61,61,61,,,,,,,,,,,,,,,,,,,,,,,,,,,,,,,,,,,,,,,,,,,,,,,,,,,,,,,,,,,,,,,,,,,,,,,,,,,,,,,1.99,387.5901597000193,None,None,1,,389.6916901000077,None,389.6916901000077,None,389.6916901000077,None,,,,,,,,,,,P033,FENCOG,2,Pre,2022_Apr_05_1058,Go No-Go Task,2021.1.4,120.39011211858141,
,"Rule: When you see a yellow image, do not press 'spacebar'.",Images/Happy/AM22HAS.jpg,Happy,Yellow,Images/Yellow.jpg,None,ParentConditions/YellowBlueBlue_v2.xlsx,BlueBlueYellow,Conditions/Version_2/YellowHappyStop.xlsx,yes,PASS,0.6172419840647391,,,,,,,,,0,0,0,0,0,0,0,0,0,62,62,62,,,,,,,,,,,,,,,,,,,,,,,,,,,,,,,,,,,,,,,,,,,,,,,,,,,,,,,,,,,,,,,,,,,,,,,,,,,,,,,2,390.0908337000292,None,None,1,,392.1994659000193,None,392.1994659000193,None,392.1994659000193,None,,,,,,,,,,,P033,FENCOG,2,Pre,2022_Apr_05_1058,Go No-Go Task,2021.1.4,120.39011211858141,
,"Rule: When you see a yellow image, do not press 'spacebar'.",Images/Fearful/AM22AFS.jpg,Fear,Blue,Images/Blue.jpg,space,ParentConditions/YellowBlueBlue_v2.xlsx,BlueBlueYellow,Conditions/Version_2/YellowHappyStop.xlsx,no,PASS,0.13735844586330215,,,,,,,,,0,0,0,0,0,0,0,0,0,63,63,63,,,,,,,,,,,,,,,,,,,,,,,,,,,,,,,,,,,,,,,,,,,,,,,,,,,,,,,,,,,,,,,,,,,,,,,,,,,,,,,1.38,392.5983385000145,None,space,1,0.25100980000570416,394.07367349998094,None,394.07367349998094,None,394.07367349998094,None,,,,,,,,,,,P033,FENCOG,2,Pre,2022_Apr_05_1058,Go No-Go Task,2021.1.4,120.39011211858141,
,"Rule: When you see a yellow image, do not press 'spacebar'.",Images/Happy/BM08_HO.jpg,Happy,Yellow,Images/Yellow.jpg,None,ParentConditions/YellowBlueBlue_v2.xlsx,BlueBlueYellow,Conditions/Version_2/YellowHappyStop.xlsx,yes,PASS,0.19822628709829182,,,,,,,,,0,0,0,0,0,0,0,0,0,64,64,64,,,,,,,,,,,,,,,,,,,,,,,,,,,,,,,,,,,,,,,,,,,,,,,,,,,,,,,,,,,,,,,,,,,,,,,,,,,,,,,1.39,394.47652670001844,None,None,1,,395.9649279000005,None,395.9649279000005,None,395.9649279000005,None,,,,,,,,,,,P033,FENCOG,2,Pre,2022_Apr_05_1058,Go No-Go Task,2021.1.4,120.39011211858141,
,"Rule: When you see a yellow image, do not press 'spacebar'.",Images/Fearful/AM19AFS.jpg,Fear,Blue,Images/Blue.jpg,space,ParentConditions/YellowBlueBlue_v2.xlsx,BlueBlueYellow,Conditions/Version_2/YellowHappyStop.xlsx,no,PASS,0.9846537447676192,,,,,,,,,0,0,0,0,0,0,0,0,0,65,65,65,,,,,,,,,,,,,,,,,,,,,,,,,,,,,,,,,,,,,,,,,,,,,,,,,,,,,,,,,,,,,,,,,,,,,,,,,,,,,,,1.21,396.37291580002056,None,space,1,0.3315654000034556,397.68109869997716,None,397.68109869997716,None,397.68109869997716,None,,,,,,,,,,,P033,FENCOG,2,Pre,2022_Apr_05_1058,Go No-Go Task,2021.1.4,120.39011211858141,
,"Rule: When you see a yellow image, do not press 'spacebar'.",Images/Fearful/AF23AFS.jpg,Fear,Blue,Images/Blue.jpg,space,ParentConditions/YellowBlueBlue_v2.xlsx,BlueBlueYellow,Conditions/Version_2/YellowHappyStop.xlsx,no,PASS,0.06538281980323435,,,,,,,,,0,0,0,0,0,0,0,0,0,66,66,66,,,,,,,,,,,,,,,,,,,,,,,,,,,,,,,,,,,,,,,,,,,,,,,,,,,,,,,,,,,,,,,,,,,,,,,,,,,,,,,1.84,398.0815251999884,None,space,1,0.2624620999558829,400.03023179998854,None,400.03023179998854,None,400.03023179998854,None,,,,,,,,,,,P033,FENCOG,2,Pre,2022_Apr_05_1058,Go No-Go Task,2021.1.4,120.39011211858141,
,"Rule: When you see a yellow image, do not press 'spacebar'.",Images/Fearful/AM13AFS.jpg,Fear,Blue,Images/Blue.jpg,space,ParentConditions/YellowBlueBlue_v2.xlsx,BlueBlueYellow,Conditions/Version_2/YellowHappyStop.xlsx,no,PASS,0.501942139065686,,,,,,,,,0,0,0,0,0,0,0,0,0,67,67,67,,,,,,,,,,,,,,,,,,,,,,,,,,,,,,,,,,,,,,,,,,,,,,,,,,,,,,,,,,,,,,,,,,,,,,,,,,,,,,,1.42,400.42931660002796,None,space,1,0.2818431000341661,401.95481440000003,None,401.95481440000003,None,401.95481440000003,None,,,,,,,,,,,P033,FENCOG,2,Pre,2022_Apr_05_1058,Go No-Go Task,2021.1.4,120.39011211858141,
,"Rule: When you see a yellow image, do not press 'spacebar'.",Images/Fearful/HF09_FC.jpg,Fear,Blue,Images/Blue.jpg,space,ParentConditions/YellowBlueBlue_v2.xlsx,BlueBlueYellow,Conditions/Version_2/YellowHappyStop.xlsx,no,PASS,0.5863101312226996,,,,,,,,,0,0,0,0,0,0,0,0,0,68,68,68,,,,,,,,,,,,,,,,,,,,,,,,,,,,,,,,,,,,,,,,,,,,,,,,,,,,,,,,,,,,,,,,,,,,,,,,,,,,,,,1.88,402.3554969999823,None,space,1,0.2511452999897301,404.3375392999733,None,404.3375392999733,None,404.3375392999733,None,,,,,,,,,,,P033,FENCOG,2,Pre,2022_Apr_05_1058,Go No-Go Task,2021.1.4,120.39011211858141,
,"Rule: When you see a yellow image, do not press 'spacebar'.",Images/Fearful/AM04AFS.jpg,Fear,Blue,Images/Blue.jpg,space,ParentConditions/YellowBlueBlue_v2.xlsx,BlueBlueYellow,Conditions/Version_2/YellowHappyStop.xlsx,no,PASS,0.9464588162199873,,,,,,,,,0,0,0,0,0,0,0,0,0,69,69,69,,,,,,,,,,,,,,,,,,,,,,,,,,,,,,,,,,,,,,,,,,,,,,,,,,,,,,,,,,,,,,,,,,,,,,,,,,,,,,,1.23,404.7366536000045,None,None,0,,406.070343600004,None,406.070343600004,None,406.070343600004,None,,,,,,,,,,,P033,FENCOG,2,Pre,2022_Apr_05_1058,Go No-Go Task,2021.1.4,120.39011211858141,
,"Rule: When you see a yellow image, do not press 'spacebar'.",Images/Fearful/AF02AFS.jpg,Fear,Blue,Images/Blue.jpg,space,ParentConditions/YellowBlueBlue_v2.xlsx,BlueBlueYellow,Conditions/Version_2/YellowHappyStop.xlsx,no,PASS,0.745835010449707,,,,,,,,,0,0,0,0,0,0,0,0,0,70,70,70,,,,,,,,,,,,,,,,,,,,,,,,,,,,,,,,,,,,,,,,,,,,,,,,,,,,,,,,,,,,,,,,,,,,,,,,,,,,,,,1.74,406.4738516000216,None,space,1,0.15698410000186414,408.31971890002023,None,408.31971890002023,None,408.31971890002023,None,,,,,,,,,,,P033,FENCOG,2,Pre,2022_Apr_05_1058,Go No-Go Task,2021.1.4,120.39011211858141,
,"Rule: When you see a yellow image, do not press 'spacebar'.",Images/Fearful/AM09AFS.jpg,Fear,Blue,Images/Blue.jpg,space,ParentConditions/YellowBlueBlue_v2.xlsx,BlueBlueYellow,Conditions/Version_2/YellowHappyStop.xlsx,no,PASS,0.8501894993195995,,,,,,,,,0,0,0,0,0,0,0,0,0,71,71,71,,,,,,,,,,,,,,,,,,,,,,,,,,,,,,,,,,,,,,,,,,,,,,,,,,,,,,,,,,,,,,,,,,,,,,,,,,,,,,,1.35,408.7224163999781,None,space,1,0.20303630002308637,410.1776043000282,None,410.1776043000282,None,410.1776043000282,None,,,,,,,,,,,P033,FENCOG,2,Pre,2022_Apr_05_1058,Go No-Go Task,2021.1.4,120.39011211858141,
,"Rule: When you see a yellow image, do not press 'spacebar'.",Images/Fearful/BF05_FO.jpg,Fear,Blue,Images/Blue.jpg,space,ParentConditions/YellowBlueBlue_v2.xlsx,BlueBlueYellow,Conditions/Version_2/YellowHappyStop.xlsx,no,PASS,0.41552487186891285,,,,,,,,,0,0,0,0,0,0,0,0,0,72,72,72,,,,,,,,,,,,,,,,,,,,,,,,,,,,,,,,,,,,,,,,,,,,,,,,,,,,,,,,,,,,,,,,,,,,,,,,,,,,,,,1.37,410.57814689999213,None,space,1,0.30450759996892884,412.0520709999837,None,412.0520709999837,None,412.0520709999837,None,,,,,,,,,,,P033,FENCOG,2,Pre,2022_Apr_05_1058,Go No-Go Task,2021.1.4,120.39011211858141,
,"Rule: When you see a yellow image, do not press 'spacebar'.",Images/Fearful/AF22AFS.jpg,Fear,Blue,Images/Blue.jpg,space,ParentConditions/YellowBlueBlue_v2.xlsx,BlueBlueYellow,Conditions/Version_2/YellowHappyStop.xlsx,no,PASS,0.6701019786706065,,,,,,,,,0,0,0,0,0,0,0,0,0,73,73,73,,,,,,,,,,,,,,,,,,,,,,,,,,,,,,,,,,,,,,,,,,,,,,,,,,,,,,,,,,,,,,,,,,,,,,,,,,,,,,,1.81,412.4524924000143,None,space,1,0.2847310000215657,414.36790150002344,None,414.36790150002344,None,414.36790150002344,None,,,,,,,,,,,P033,FENCOG,2,Pre,2022_Apr_05_1058,Go No-Go Task,2021.1.4,120.39011211858141,
,"Rule: When you see a yellow image, do not press 'spacebar'.",Images/Happy/BF18_HO.jpg,Happy,Yellow,Images/Yellow.jpg,None,ParentConditions/YellowBlueBlue_v2.xlsx,BlueBlueYellow,Conditions/Version_2/YellowHappyStop.xlsx,yes,PASS,0.41437941694275227,,,,,,,,,0,0,0,0,0,0,0,0,0,74,74,74,,,,,,,,,,,,,,,,,,,,,,,,,,,,,,,,,,,,,,,,,,,,,,,,,,,,,,,,,,,,,,,,,,,,,,,,,,,,,,,1.32,414.7687546000234,None,space,0,0.22808679996524006,416.1923435999779,None,416.1923435999779,None,416.1923435999779,None,,,,,,,,,,,P033,FENCOG,2,Pre,2022_Apr_05_1058,Go No-Go Task,2021.1.4,120.39011211858141,
,"Rule: When you see a yellow image, do not press 'spacebar'.",Images/Fearful/WM12_FO.jpg,Fear,Blue,Images/Blue.jpg,space,ParentConditions/YellowBlueBlue_v2.xlsx,BlueBlueYellow,Conditions/Version_2/YellowHappyStop.xlsx,no,PASS,0.577397464904033,,,,,,,,,0,0,0,0,0,0,0,0,0,75,75,75,,,,,,,,,,,,,,,,,,,,,,,,,,,,,,,,,,,,,,,,,,,,,,,,,,,,,,,,,,,,,,,,,,,,,,,,,,,,,,,1.72,416.5910923000192,None,space,1,0.283643500006292,418.4168912000023,None,418.4168912000023,None,418.4168912000023,None,,,,,,,,,,,P033,FENCOG,2,Pre,2022_Apr_05_1058,Go No-Go Task,2021.1.4,120.39011211858141,
,"Rule: When you see a yellow image, do not press 'spacebar'.",Images/Fearful/BF07_FO.jpg,Fear,Blue,Images/Blue.jpg,space,ParentConditions/YellowBlueBlue_v2.xlsx,BlueBlueYellow,Conditions/Version_2/YellowHappyStop.xlsx,no,PASS,0.3175910009200418,,,,,,,,,0,0,0,0,0,0,0,0,0,76,76,76,,,,,,,,,,,,,,,,,,,,,,,,,,,,,,,,,,,,,,,,,,,,,,,,,,,,,,,,,,,,,,,,,,,,,,,,,,,,,,,1.36,418.81716779997805,None,space,1,0.313634300022386,420.2827825000277,None,420.2827825000277,None,420.2827825000277,None,,,,,,,,,,,P033,FENCOG,2,Pre,2022_Apr_05_1058,Go No-Go Task,2021.1.4,120.39011211858141,
,"Rule: When you see a yellow image, do not press 'spacebar'.",Images/Fearful/HF10_FO.jpg,Fear,Blue,Images/Blue.jpg,space,ParentConditions/YellowBlueBlue_v2.xlsx,BlueBlueYellow,Conditions/Version_2/YellowHappyStop.xlsx,no,PASS,0.5511356040110476,,,,,,,,,0,0,0,0,0,0,0,0,0,77,77,77,,,,,,,,,,,,,,,,,,,,,,,,,,,,,,,,,,,,,,,,,,,,,,,,,,,,,,,,,,,,,,,,,,,,,,,,,,,,,,,1.49,420.68604950001463,None,space,1,0.22635240003000945,422.28219810000155,None,422.28219810000155,None,422.28219810000155,None,,,,,,,,,,,P033,FENCOG,2,Pre,2022_Apr_05_1058,Go No-Go Task,2021.1.4,120.39011211858141,
,"Rule: When you see a yellow image, do not press 'spacebar'.",Images/Fearful/AM10AFS.jpg,Fear,Blue,Images/Blue.jpg,space,ParentConditions/YellowBlueBlue_v2.xlsx,BlueBlueYellow,Conditions/Version_2/YellowHappyStop.xlsx,no,PASS,0.516543326357497,,,,,,,,,0,0,0,0,0,0,0,0,0,78,78,78,,,,,,,,,,,,,,,,,,,,,,,,,,,,,,,,,,,,,,,,,,,,,,,,,,,,,,,,,,,,,,,,,,,,,,,,,,,,,,,1.45,422.68106720002834,None,space,1,0.24477999994996935,424.2316901999875,None,424.2316901999875,None,424.2316901999875,None,,,,,,,,,,,P033,FENCOG,2,Pre,2022_Apr_05_1058,Go No-Go Task,2021.1.4,120.39011211858141,
,"Rule: When you see a yellow image, do not press 'spacebar'.",Images/Happy/AM23HAS.jpg,Happy,Yellow,Images/Yellow.jpg,None,ParentConditions/YellowBlueBlue_v2.xlsx,BlueBlueYellow,Conditions/Version_2/YellowHappyStop.xlsx,yes,PASS,0.4223687412850129,,,,,,,,,0,0,0,0,0,0,0,0,0,79,79,79,,,,,,,,,,,,,,,,,,,,,,,,,,,,,,,,,,,,,,,,,,,,,,,,,,,,,,,,,,,,,,,,,,,,,,,,,,,,,,,1.79,424.63232570001855,None,None,1,,426.5226539000287,None,426.5226539000287,None,426.5226539000287,None,,,,,,,,,,,P033,FENCOG,2,Pre,2022_Apr_05_1058,Go No-Go Task,2021.1.4,120.39011211858141,
,"Rule: When you see blue image, do not press 'spacebar'.",Images/Fearful/HM06_FC.jpg,Fear,Blue,Images/Blue.jpg,None,ParentConditions/YellowBlueBlue_v2.xlsx,BlueBlueYellow,Conditions/Version_2/BlueFearStop.xlsx,yes,PASS,0.29049104493206235,,,,,,,,,0,0,0,0,0,1,1,1,0,0,0,0,,,,,,,,,,,,,,,,,,,,,,,,,,,,,,,,,,,,,,,,,,,,,,,,,,,,,,,,,,,,,,,,,451.0167336000013,None,454.00562900002114,None,space,0.830840399954468,454.00562900002114,None,451.0167336000013,None,451.0167336000013,None,451.0167336000013,None,1.55,454.8955599999754,None,None,1,,456.54670669999905,None,456.54670669999905,None,456.54670669999905,None,426.939497400017,None,space,23.558273200003896,427.43836379999993,None,426.939497400017,None,426.939497400017,None,P033,FENCOG,2,Pre,2022_Apr_05_1058,Go No-Go Task,2021.1.4,120.39011211858141,
,"Rule: When you see blue image, do not press 'spacebar'.",Images/Happy/AF07HAS.jpg,Happy,Yellow,Images/Yellow.jpg,space,ParentConditions/YellowBlueBlue_v2.xlsx,BlueBlueYellow,Conditions/Version_2/BlueFearStop.xlsx,no,PASS,0.3060165792014795,,,,,,,,,0,0,0,0,0,1,1,1,0,1,1,1,,,,,,,,,,,,,,,,,,,,,,,,,,,,,,,,,,,,,,,,,,,,,,,,,,,,,,,,,,,,,,,,,,,,,,,,,,,,,,,1.5,456.9508209999767,None,space,1,0.2900911000324413,458.5548401999986,None,458.5548401999986,None,458.5548401999986,None,,,,,,,,,,,P033,FENCOG,2,Pre,2022_Apr_05_1058,Go No-Go Task,2021.1.4,120.39011211858141,
,"Rule: When you see blue image, do not press 'spacebar'.",Images/Happy/AF28HAS.jpg,Happy,Yellow,Images/Yellow.jpg,space,ParentConditions/YellowBlueBlue_v2.xlsx,BlueBlueYellow,Conditions/Version_2/BlueFearStop.xlsx,no,PASS,0.23458600871698787,,,,,,,,,0,0,0,0,0,1,1,1,0,2,2,2,,,,,,,,,,,,,,,,,,,,,,,,,,,,,,,,,,,,,,,,,,,,,,,,,,,,,,,,,,,,,,,,,,,,,,,,,,,,,,,1.53,458.9629582000198,None,space,1,0.3052085999515839,460.59553689998575,None,460.59553689998575,None,460.59553689998575,None,,,,,,,,,,,P033,FENCOG,2,Pre,2022_Apr_05_1058,Go No-Go Task,2021.1.4,120.39011211858141,
,"Rule: When you see blue image, do not press 'spacebar'.",Images/Happy/AF22HAS.jpg,Happy,Yellow,Images/Yellow.jpg,space,ParentConditions/YellowBlueBlue_v2.xlsx,BlueBlueYellow,Conditions/Version_2/BlueFearStop.xlsx,no,PASS,0.11899132917260535,,,,,,,,,0,0,0,0,0,1,1,1,0,3,3,3,,,,,,,,,,,,,,,,,,,,,,,,,,,,,,,,,,,,,,,,,,,,,,,,,,,,,,,,,,,,,,,,,,,,,,,,,,,,,,,1.22,460.9988709000172,None,space,1,0.2677251999848522,462.32873339997604,None,462.32873339997604,None,462.32873339997604,None,,,,,,,,,,,P033,FENCOG,2,Pre,2022_Apr_05_1058,Go No-Go Task,2021.1.4,120.39011211858141,
,"Rule: When you see blue image, do not press 'spacebar'.",Images/Fearful/AF27AFS.jpg,Fear,Blue,Images/Blue.jpg,None,ParentConditions/YellowBlueBlue_v2.xlsx,BlueBlueYellow,Conditions/Version_2/BlueFearStop.xlsx,yes,PASS,0.3988252776358663,,,,,,,,,0,0,0,0,0,1,1,1,0,4,4,4,,,,,,,,,,,,,,,,,,,,,,,,,,,,,,,,,,,,,,,,,,,,,,,,,,,,,,,,,,,,,,,,,,,,,,,,,,,,,,,1.4,462.72771220002323,None,None,1,,464.2281604000018,None,464.2281604000018,None,464.2281604000018,None,,,,,,,,,,,P033,FENCOG,2,Pre,2022_Apr_05_1058,Go No-Go Task,2021.1.4,120.39011211858141,
,"Rule: When you see blue image, do not press 'spacebar'.",Images/Happy/AM24HAS.jpg,Happy,Yellow,Images/Yellow.jpg,space,ParentConditions/YellowBlueBlue_v2.xlsx,BlueBlueYellow,Conditions/Version_2/BlueFearStop.xlsx,no,PASS,0.6540701766357542,,,,,,,,,0,0,0,0,0,1,1,1,0,5,5,5,,,,,,,,,,,,,,,,,,,,,,,,,,,,,,,,,,,,,,,,,,,,,,,,,,,,,,,,,,,,,,,,,,,,,,,,,,,,,,,1.77,464.6331457999768,None,None,0,,466.510843200027,None,466.510843200027,None,466.510843200027,None,,,,,,,,,,,P033,FENCOG,2,Pre,2022_Apr_05_1058,Go No-Go Task,2021.1.4,120.39011211858141,
,"Rule: When you see blue image, do not press 'spacebar'.",Images/Fearful/AF26AFS.jpg,Fear,Blue,Images/Blue.jpg,None,ParentConditions/YellowBlueBlue_v2.xlsx,BlueBlueYellow,Conditions/Version_2/BlueFearStop.xlsx,yes,PASS,0.672416725983861,,,,,,,,,0,0,0,0,0,1,1,1,0,6,6,6,,,,,,,,,,,,,,,,,,,,,,,,,,,,,,,,,,,,,,,,,,,,,,,,,,,,,,,,,,,,,,,,,,,,,,,,,,,,,,,1.87,466.9110855999752,None,None,1,,468.8851374000078,None,468.8851374000078,None,468.8851374000078,None,,,,,,,,,,,P033,FENCOG,2,Pre,2022_Apr_05_1058,Go No-Go Task,2021.1.4,120.39011211858141,
,"Rule: When you see blue image, do not press 'spacebar'.",Images/Happy/WM11_HC.jpg,Happy,Yellow,Images/Yellow.jpg,space,ParentConditions/YellowBlueBlue_v2.xlsx,BlueBlueYellow,Conditions/Version_2/BlueFearStop.xlsx,no,PASS,0.8722598945732238,,,,,,,,,0,0,0,0,0,1,1,1,0,7,7,7,,,,,,,,,,,,,,,,,,,,,,,,,,,,,,,,,,,,,,,,,,,,,,,,,,,,,,,,,,,,,,,,,,,,,,,,,,,,,,,1.21,469.28433569998015,None,space,1,0.24283499998273328,470.609658500005,None,470.609658500005,None,470.609658500005,None,,,,,,,,,,,P033,FENCOG,2,Pre,2022_Apr_05_1058,Go No-Go Task,2021.1.4,120.39011211858141,
,"Rule: When you see blue image, do not press 'spacebar'.",Images/Happy/BM03_HO.jpg,Happy,Yellow,Images/Yellow.jpg,space,ParentConditions/YellowBlueBlue_v2.xlsx,BlueBlueYellow,Conditions/Version_2/BlueFearStop.xlsx,no,PASS,0.281866807892032,,,,,,,,,0,0,0,0,0,1,1,1,0,8,8,8,,,,,,,,,,,,,,,,,,,,,,,,,,,,,,,,,,,,,,,,,,,,,,,,,,,,,,,,,,,,,,,,,,,,,,,,,,,,,,,1.73,471.0081509000156,None,space,1,0.24236460000975057,472.84226369997486,None,472.84226369997486,None,472.84226369997486,None,,,,,,,,,,,P033,FENCOG,2,Pre,2022_Apr_05_1058,Go No-Go Task,2021.1.4,120.39011211858141,
,"Rule: When you see blue image, do not press 'spacebar'.",Images/Happy/BF18_HO.jpg,Happy,Yellow,Images/Yellow.jpg,space,ParentConditions/YellowBlueBlue_v2.xlsx,BlueBlueYellow,Conditions/Version_2/BlueFearStop.xlsx,no,PASS,0.056262560303186104,,,,,,,,,0,0,0,0,0,1,1,1,0,9,9,9,,,,,,,,,,,,,,,,,,,,,,,,,,,,,,,,,,,,,,,,,,,,,,,,,,,,,,,,,,,,,,,,,,,,,,,,,,,,,,,1.51,473.24362919997657,None,space,1,0.28244809998432174,474.85824760003015,None,474.85824760003015,None,474.85824760003015,None,,,,,,,,,,,P033,FENCOG,2,Pre,2022_Apr_05_1058,Go No-Go Task,2021.1.4,120.39011211858141,
,"Rule: When you see blue image, do not press 'spacebar'.",Images/Happy/AM10HAS.jpg,Happy,Yellow,Images/Yellow.jpg,space,ParentConditions/YellowBlueBlue_v2.xlsx,BlueBlueYellow,Conditions/Version_2/BlueFearStop.xlsx,no,PASS,0.26234858566298536,,,,,,,,,0,0,0,0,0,1,1,1,0,10,10,10,,,,,,,,,,,,,,,,,,,,,,,,,,,,,,,,,,,,,,,,,,,,,,,,,,,,,,,,,,,,,,,,,,,,,,,,,,,,,,,1.83,475.2589137000032,None,space,1,0.24575159995583817,477.1910168000031,None,477.1910168000031,None,477.1910168000031,None,,,,,,,,,,,P033,FENCOG,2,Pre,2022_Apr_05_1058,Go No-Go Task,2021.1.4,120.39011211858141,
,"Rule: When you see blue image, do not press 'spacebar'.",Images/Happy/AM09HAS.jpg,Happy,Yellow,Images/Yellow.jpg,space,ParentConditions/YellowBlueBlue_v2.xlsx,BlueBlueYellow,Conditions/Version_2/BlueFearStop.xlsx,no,PASS,0.5322853606558464,,,,,,,,,0,0,0,0,0,1,1,1,0,11,11,11,,,,,,,,,,,,,,,,,,,,,,,,,,,,,,,,,,,,,,,,,,,,,,,,,,,,,,,,,,,,,,,,,,,,,,,,,,,,,,,1.29,477.59173049998935,None,space,1,0.22236549999797717,478.9821595000103,None,478.9821595000103,None,478.9821595000103,None,,,,,,,,,,,P033,FENCOG,2,Pre,2022_Apr_05_1058,Go No-Go Task,2021.1.4,120.39011211858141,
,"Rule: When you see blue image, do not press 'spacebar'.",Images/Happy/AM16HAS.jpg,Happy,Yellow,Images/Yellow.jpg,space,ParentConditions/YellowBlueBlue_v2.xlsx,BlueBlueYellow,Conditions/Version_2/BlueFearStop.xlsx,no,PASS,0.8730560121673133,,,,,,,,,0,0,0,0,0,1,1,1,0,12,12,12,,,,,,,,,,,,,,,,,,,,,,,,,,,,,,,,,,,,,,,,,,,,,,,,,,,,,,,,,,,,,,,,,,,,,,,,,,,,,,,1.36,479.3822640000144,None,space,1,0.22825320000993088,480.8482611000072,None,480.8482611000072,None,480.8482611000072,None,,,,,,,,,,,P033,FENCOG,2,Pre,2022_Apr_05_1058,Go No-Go Task,2021.1.4,120.39011211858141,
,"Rule: When you see blue image, do not press 'spacebar'.",Images/Happy/AF10_HE.jpg,Happy,Yellow,Images/Yellow.jpg,space,ParentConditions/YellowBlueBlue_v2.xlsx,BlueBlueYellow,Conditions/Version_2/BlueFearStop.xlsx,no,PASS,0.7103342893987146,,,,,,,,,0,0,0,0,0,1,1,1,0,13,13,13,,,,,,,,,,,,,,,,,,,,,,,,,,,,,,,,,,,,,,,,,,,,,,,,,,,,,,,,,,,,,,,,,,,,,,,,,,,,,,,1.32,481.24918600003,None,space,1,0.25972040003398433,482.67286039999453,None,482.67286039999453,None,482.67286039999453,None,,,,,,,,,,,P033,FENCOG,2,Pre,2022_Apr_05_1058,Go No-Go Task,2021.1.4,120.39011211858141,
,"Rule: When you see blue image, do not press 'spacebar'.",Images/Happy/AF27HAS.jpg,Happy,Yellow,Images/Yellow.jpg,space,ParentConditions/YellowBlueBlue_v2.xlsx,BlueBlueYellow,Conditions/Version_2/BlueFearStop.xlsx,no,PASS,0.8937289807404983,,,,,,,,,0,0,0,0,0,1,1,1,0,14,14,14,,,,,,,,,,,,,,,,,,,,,,,,,,,,,,,,,,,,,,,,,,,,,,,,,,,,,,,,,,,,,,,,,,,,,,,,,,,,,,,1.65,483.07356350001646,None,space,1,0.23860009998315945,484.82213230000343,None,484.82213230000343,None,484.82213230000343,None,,,,,,,,,,,P033,FENCOG,2,Pre,2022_Apr_05_1058,Go No-Go Task,2021.1.4,120.39011211858141,
,"Rule: When you see blue image, do not press 'spacebar'.",Images/Happy/BF10_HO.jpg,Happy,Yellow,Images/Yellow.jpg,space,ParentConditions/YellowBlueBlue_v2.xlsx,BlueBlueYellow,Conditions/Version_2/BlueFearStop.xlsx,no,PASS,0.41505973664432705,,,,,,,,,0,0,0,0,0,1,1,1,0,15,15,15,,,,,,,,,,,,,,,,,,,,,,,,,,,,,,,,,,,,,,,,,,,,,,,,,,,,,,,,,,,,,,,,,,,,,,,,,,,,,,,1.6,485.26303450000705,None,space,1,0.297378400049638,486.9631374999881,None,486.9631374999881,None,486.9631374999881,None,,,,,,,,,,,P033,FENCOG,2,Pre,2022_Apr_05_1058,Go No-Go Task,2021.1.4,120.39011211858141,
,"Rule: When you see blue image, do not press 'spacebar'.",Images/Happy/BF14_HO.jpg,Happy,Yellow,Images/Yellow.jpg,space,ParentConditions/YellowBlueBlue_v2.xlsx,BlueBlueYellow,Conditions/Version_2/BlueFearStop.xlsx,no,PASS,0.38735807018105894,,,,,,,,,0,0,0,0,0,1,1,1,0,16,16,16,,,,,,,,,,,,,,,,,,,,,,,,,,,,,,,,,,,,,,,,,,,,,,,,,,,,,,,,,,,,,,,,,,,,,,,,,,,,,,,1.26,487.3635230999789,None,space,1,0.23521509999409318,488.72936260001734,None,488.72936260001734,None,488.72936260001734,None,,,,,,,,,,,P033,FENCOG,2,Pre,2022_Apr_05_1058,Go No-Go Task,2021.1.4,120.39011211858141,
,"Rule: When you see blue image, do not press 'spacebar'.",Images/Fearful/BM08_FC.jpg,Fear,Blue,Images/Blue.jpg,None,ParentConditions/YellowBlueBlue_v2.xlsx,BlueBlueYellow,Conditions/Version_2/BlueFearStop.xlsx,yes,PASS,0.7905879335514261,,,,,,,,,0,0,0,0,0,1,1,1,0,17,17,17,,,,,,,,,,,,,,,,,,,,,,,,,,,,,,,,,,,,,,,,,,,,,,,,,,,,,,,,,,,,,,,,,,,,,,,,,,,,,,,1.85,489.12996099999873,None,None,1,,491.0866190000088,None,491.0866190000088,None,491.0866190000088,None,,,,,,,,,,,P033,FENCOG,2,Pre,2022_Apr_05_1058,Go No-Go Task,2021.1.4,120.39011211858141,
,"Rule: When you see blue image, do not press 'spacebar'.",Images/Happy/AM01HAS.jpg,Happy,Yellow,Images/Yellow.jpg,space,ParentConditions/YellowBlueBlue_v2.xlsx,BlueBlueYellow,Conditions/Version_2/BlueFearStop.xlsx,no,PASS,0.9589705349559869,,,,,,,,,0,0,0,0,0,1,1,1,0,18,18,18,,,,,,,,,,,,,,,,,,,,,,,,,,,,,,,,,,,,,,,,,,,,,,,,,,,,,,,,,,,,,,,,,,,,,,,,,,,,,,,1.72,491.48745479999343,None,None,0,,493.3196899999748,None,493.3196899999748,None,493.3196899999748,None,,,,,,,,,,,P033,FENCOG,2,Pre,2022_Apr_05_1058,Go No-Go Task,2021.1.4,120.39011211858141,
,"Rule: When you see blue image, do not press 'spacebar'.",Images/Happy/AF11HAS.jpg,Happy,Yellow,Images/Yellow.jpg,space,ParentConditions/YellowBlueBlue_v2.xlsx,BlueBlueYellow,Conditions/Version_2/BlueFearStop.xlsx,no,PASS,0.6358882343202421,,,,,,,,,0,0,0,0,0,1,1,1,0,19,19,19,,,,,,,,,,,,,,,,,,,,,,,,,,,,,,,,,,,,,,,,,,,,,,,,,,,,,,,,,,,,,,,,,,,,,,,,,,,,,,,1.8,493.7184926000191,None,space,1,0.2890915999887511,495.6196319999872,None,495.6196319999872,None,495.6196319999872,None,,,,,,,,,,,P033,FENCOG,2,Pre,2022_Apr_05_1058,Go No-Go Task,2021.1.4,120.39011211858141,
,"Rule: When you see blue image, do not press 'spacebar'.",Images/Happy/BM01_HO.jpg,Happy,Yellow,Images/Yellow.jpg,space,ParentConditions/YellowBlueBlue_v2.xlsx,BlueBlueYellow,Conditions/Version_2/BlueFearStop.xlsx,no,PASS,0.301040907790301,,,,,,,,,0,0,0,0,0,1,1,1,0,20,20,20,,,,,,,,,,,,,,,,,,,,,,,,,,,,,,,,,,,,,,,,,,,,,,,,,,,,,,,,,,,,,,,,,,,,,,,,,,,,,,,1.3,496.019363600004,None,space,1,0.22509530000388622,497.4434649000177,None,497.4434649000177,None,497.4434649000177,None,,,,,,,,,,,P033,FENCOG,2,Pre,2022_Apr_05_1058,Go No-Go Task,2021.1.4,120.39011211858141,
,"Rule: When you see blue image, do not press 'spacebar'.",Images/Happy/AF07_HO.jpg,Happy,Yellow,Images/Yellow.jpg,space,ParentConditions/YellowBlueBlue_v2.xlsx,BlueBlueYellow,Conditions/Version_2/BlueFearStop.xlsx,no,PASS,0.16146803476355298,,,,,,,,,0,0,0,0,0,1,1,1,0,21,21,21,,,,,,,,,,,,,,,,,,,,,,,,,,,,,,,,,,,,,,,,,,,,,,,,,,,,,,,,,,,,,,,,,,,,,,,,,,,,,,,1.78,497.8358453999972,None,space,1,0.2551458000089042,499.7177223999752,None,499.7177223999752,None,499.7177223999752,None,,,,,,,,,,,P033,FENCOG,2,Pre,2022_Apr_05_1058,Go No-Go Task,2021.1.4,120.39011211858141,
,"Rule: When you see blue image, do not press 'spacebar'.",Images/Happy/HM06_HO.jpg,Happy,Yellow,Images/Yellow.jpg,space,ParentConditions/YellowBlueBlue_v2.xlsx,BlueBlueYellow,Conditions/Version_2/BlueFearStop.xlsx,no,PASS,0.017367743981932304,,,,,,,,,0,0,0,0,0,1,1,1,0,22,22,22,,,,,,,,,,,,,,,,,,,,,,,,,,,,,,,,,,,,,,,,,,,,,,,,,,,,,,,,,,,,,,,,,,,,,,,,,,,,,,,1.27,500.11709190002875,None,space,1,0.22422249999362975,501.5004590000026,None,501.5004590000026,None,501.5004590000026,None,,,,,,,,,,,P033,FENCOG,2,Pre,2022_Apr_05_1058,Go No-Go Task,2021.1.4,120.39011211858141,
,"Rule: When you see blue image, do not press 'spacebar'.",Images/Fearful/AM09_FO.jpg,Fear,Blue,Images/Blue.jpg,None,ParentConditions/YellowBlueBlue_v2.xlsx,BlueBlueYellow,Conditions/Version_2/BlueFearStop.xlsx,yes,PASS,0.2997278789301355,,,,,,,,,0,0,0,0,0,1,1,1,0,23,23,23,,,,,,,,,,,,,,,,,,,,,,,,,,,,,,,,,,,,,,,,,,,,,,,,,,,,,,,,,,,,,,,,,,,,,,,,,,,,,,,1.54,501.89950619998854,None,space,0,0.2153991999803111,503.53325189999305,None,503.53325189999305,None,503.53325189999305,None,,,,,,,,,,,P033,FENCOG,2,Pre,2022_Apr_05_1058,Go No-Go Task,2021.1.4,120.39011211858141,
,"Rule: When you see blue image, do not press 'spacebar'.",Images/Happy/AF09HAS.jpg,Happy,Yellow,Images/Yellow.jpg,space,ParentConditions/YellowBlueBlue_v2.xlsx,BlueBlueYellow,Conditions/Version_2/BlueFearStop.xlsx,no,PASS,0.8273900201130844,,,,,,,,,0,0,0,0,0,1,1,1,0,24,24,24,,,,,,,,,,,,,,,,,,,,,,,,,,,,,,,,,,,,,,,,,,,,,,,,,,,,,,,,,,,,,,,,,,,,,,,,,,,,,,,1.56,503.93586319999304,None,space,1,0.2855106999631971,505.5991556000081,None,505.5991556000081,None,505.5991556000081,None,,,,,,,,,,,P033,FENCOG,2,Pre,2022_Apr_05_1058,Go No-Go Task,2021.1.4,120.39011211858141,
,"Rule: When you see blue image, do not press 'spacebar'.",Images/Happy/AM04HAS.jpg,Happy,Yellow,Images/Yellow.jpg,space,ParentConditions/YellowBlueBlue_v2.xlsx,BlueBlueYellow,Conditions/Version_2/BlueFearStop.xlsx,no,PASS,0.7497236344439144,,,,,,,,,0,0,0,0,0,1,1,1,0,25,25,25,,,,,,,,,,,,,,,,,,,,,,,,,,,,,,,,,,,,,,,,,,,,,,,,,,,,,,,,,,,,,,,,,,,,,,,,,,,,,,,1.33,505.9999170000083,None,space,1,0.23669930000323802,507.4321070999722,None,507.4321070999722,None,507.4321070999722,None,,,,,,,,,,,P033,FENCOG,2,Pre,2022_Apr_05_1058,Go No-Go Task,2021.1.4,120.39011211858141,
,"Rule: When you see blue image, do not press 'spacebar'.",Images/Happy/BF07_HO.jpg,Happy,Yellow,Images/Yellow.jpg,space,ParentConditions/YellowBlueBlue_v2.xlsx,BlueBlueYellow,Conditions/Version_2/BlueFearStop.xlsx,no,PASS,0.9631973209169931,,,,,,,,,0,0,0,0,0,1,1,1,0,26,26,26,,,,,,,,,,,,,,,,,,,,,,,,,,,,,,,,,,,,,,,,,,,,,,,,,,,,,,,,,,,,,,,,,,,,,,,,,,,,,,,1.67,507.8337431999971,None,space,1,0.2382526000146754,509.60622489999514,None,509.60622489999514,None,509.60622489999514,None,,,,,,,,,,,P033,FENCOG,2,Pre,2022_Apr_05_1058,Go No-Go Task,2021.1.4,120.39011211858141,
,"Rule: When you see blue image, do not press 'spacebar'.",Images/Happy/AF02HAS.jpg,Happy,Yellow,Images/Yellow.jpg,space,ParentConditions/YellowBlueBlue_v2.xlsx,BlueBlueYellow,Conditions/Version_2/BlueFearStop.xlsx,no,PASS,0.44316288931410874,,,,,,,,,0,0,0,0,0,1,1,1,0,27,27,27,,,,,,,,,,,,,,,,,,,,,,,,,,,,,,,,,,,,,,,,,,,,,,,,,,,,,,,,,,,,,,,,,,,,,,,,,,,,,,,1.96,510.0081531999749,None,space,1,0.24356800003442913,512.0807945000124,None,512.0807945000124,None,512.0807945000124,None,,,,,,,,,,,P033,FENCOG,2,Pre,2022_Apr_05_1058,Go No-Go Task,2021.1.4,120.39011211858141,
,"Rule: When you see blue image, do not press 'spacebar'.",Images/Happy/AM30HAS.jpg,Happy,Yellow,Images/Yellow.jpg,space,ParentConditions/YellowBlueBlue_v2.xlsx,BlueBlueYellow,Conditions/Version_2/BlueFearStop.xlsx,no,PASS,0.8101164063536405,,,,,,,,,0,0,0,0,0,1,1,1,0,28,28,28,,,,,,,,,,,,,,,,,,,,,,,,,,,,,,,,,,,,,,,,,,,,,,,,,,,,,,,,,,,,,,,,,,,,,,,,,,,,,,,1.82,512.4795086000231,None,space,1,0.23954759998014197,514.4050500000012,None,514.4050500000012,None,514.4050500000012,None,,,,,,,,,,,P033,FENCOG,2,Pre,2022_Apr_05_1058,Go No-Go Task,2021.1.4,120.39011211858141,
,"Rule: When you see blue image, do not press 'spacebar'.",Images/Happy/BF05_HO.jpg,Happy,Yellow,Images/Yellow.jpg,space,ParentConditions/YellowBlueBlue_v2.xlsx,BlueBlueYellow,Conditions/Version_2/BlueFearStop.xlsx,no,PASS,0.6770609167729968,,,,,,,,,0,0,0,0,0,1,1,1,0,29,29,29,,,,,,,,,,,,,,,,,,,,,,,,,,,,,,,,,,,,,,,,,,,,,,,,,,,,,,,,,,,,,,,,,,,,,,,,,,,,,,,1.44,514.8056551999762,None,space,1,0.2344938999740407,516.3461654999992,None,516.3461654999992,None,516.3461654999992,None,,,,,,,,,,,P033,FENCOG,2,Pre,2022_Apr_05_1058,Go No-Go Task,2021.1.4,120.39011211858141,
,"Rule: When you see blue image, do not press 'spacebar'.",Images/Fearful/AF25AFS.jpg,Fear,Blue,Images/Blue.jpg,None,ParentConditions/YellowBlueBlue_v2.xlsx,BlueBlueYellow,Conditions/Version_2/BlueFearStop.xlsx,yes,PASS,0.9137328829424104,,,,,,,,,0,0,0,0,0,1,1,1,0,30,30,30,,,,,,,,,,,,,,,,,,,,,,,,,,,,,,,,,,,,,,,,,,,,,,,,,,,,,,,,,,,,,,,,,,,,,,,,,,,,,,,1.57,516.7466534000123,None,None,1,,518.4205261999741,None,518.4205261999741,None,518.4205261999741,None,,,,,,,,,,,P033,FENCOG,2,Pre,2022_Apr_05_1058,Go No-Go Task,2021.1.4,120.39011211858141,
,"Rule: When you see blue image, do not press 'spacebar'.",Images/Happy/BF09_HO.jpg,Happy,Yellow,Images/Yellow.jpg,space,ParentConditions/YellowBlueBlue_v2.xlsx,BlueBlueYellow,Conditions/Version_2/BlueFearStop.xlsx,no,PASS,0.7233148419047607,,,,,,,,,0,0,0,0,0,1,1,1,0,31,31,31,,,,,,,,,,,,,,,,,,,,,,,,,,,,,,,,,,,,,,,,,,,,,,,,,,,,,,,,,,,,,,,,,,,,,,,,,,,,,,,1.25,518.8213456000085,None,space,1,0.24222880002344027,520.1784264000016,None,520.1784264000016,None,520.1784264000016,None,,,,,,,,,,,P033,FENCOG,2,Pre,2022_Apr_05_1058,Go No-Go Task,2021.1.4,120.39011211858141,
,"Rule: When you see blue image, do not press 'spacebar'.",Images/Happy/AM09_HE.jpg,Happy,Yellow,Images/Yellow.jpg,space,ParentConditions/YellowBlueBlue_v2.xlsx,BlueBlueYellow,Conditions/Version_2/BlueFearStop.xlsx,no,PASS,0.703399731728546,,,,,,,,,0,0,0,0,0,1,1,1,0,32,32,32,,,,,,,,,,,,,,,,,,,,,,,,,,,,,,,,,,,,,,,,,,,,,,,,,,,,,,,,,,,,,,,,,,,,,,,,,,,,,,,1.23,520.5804086999851,None,space,1,0.26144259999273345,521.9112197000068,None,521.9112197000068,None,521.9112197000068,None,,,,,,,,,,,P033,FENCOG,2,Pre,2022_Apr_05_1058,Go No-Go Task,2021.1.4,120.39011211858141,
,"Rule: When you see blue image, do not press 'spacebar'.",Images/Fearful/BF14_FO.jpg,Fear,Blue,Images/Blue.jpg,None,ParentConditions/YellowBlueBlue_v2.xlsx,BlueBlueYellow,Conditions/Version_2/BlueFearStop.xlsx,yes,PASS,0.641858343679783,,,,,,,,,0,0,0,0,0,1,1,1,0,33,33,33,,,,,,,,,,,,,,,,,,,,,,,,,,,,,,,,,,,,,,,,,,,,,,,,,,,,,,,,,,,,,,,,,,,,,,,,,,,,,,,1.88,522.3115326000261,None,None,1,,524.2937860999955,None,524.2937860999955,None,524.2937860999955,None,,,,,,,,,,,P033,FENCOG,2,Pre,2022_Apr_05_1058,Go No-Go Task,2021.1.4,120.39011211858141,
,"Rule: When you see blue image, do not press 'spacebar'.",Images/Fearful/HF05_FC.jpg,Fear,Blue,Images/Blue.jpg,None,ParentConditions/YellowBlueBlue_v2.xlsx,BlueBlueYellow,Conditions/Version_2/BlueFearStop.xlsx,yes,PASS,0.11935527908981858,,,,,,,,,0,0,0,0,0,1,1,1,0,34,34,34,,,,,,,,,,,,,,,,,,,,,,,,,,,,,,,,,,,,,,,,,,,,,,,,,,,,,,,,,,,,,,,,,,,,,,,,,,,,,,,1.61,524.7004891000106,None,None,1,,526.4182852000231,None,526.4182852000231,None,526.4182852000231,None,,,,,,,,,,,P033,FENCOG,2,Pre,2022_Apr_05_1058,Go No-Go Task,2021.1.4,120.39011211858141,
,"Rule: When you see blue image, do not press 'spacebar'.",Images/Happy/AM23HAS.jpg,Happy,Yellow,Images/Yellow.jpg,space,ParentConditions/YellowBlueBlue_v2.xlsx,BlueBlueYellow,Conditions/Version_2/BlueFearStop.xlsx,no,PASS,0.4310663721908784,,,,,,,,,0,0,0,0,0,1,1,1,0,35,35,35,,,,,,,,,,,,,,,,,,,,,,,,,,,,,,,,,,,,,,,,,,,,,,,,,,,,,,,,,,,,,,,,,,,,,,,,,,,,,,,1.48,526.8187763000024,None,space,1,0.2835239000269212,528.4092734000296,None,528.4092734000296,None,528.4092734000296,None,,,,,,,,,,,P033,FENCOG,2,Pre,2022_Apr_05_1058,Go No-Go Task,2021.1.4,120.39011211858141,
,"Rule: When you see blue image, do not press 'spacebar'.",Images/Happy/AM03_HO.jpg,Happy,Yellow,Images/Yellow.jpg,space,ParentConditions/YellowBlueBlue_v2.xlsx,BlueBlueYellow,Conditions/Version_2/BlueFearStop.xlsx,no,PASS,0.027367773514368476,,,,,,,,,0,0,0,0,0,1,1,1,0,36,36,36,,,,,,,,,,,,,,,,,,,,,,,,,,,,,,,,,,,,,,,,,,,,,,,,,,,,,,,,,,,,,,,,,,,,,,,,,,,,,,,1.43,528.8083365000202,None,space,1,0.2784983000019565,530.341883599991,None,530.341883599991,None,530.341883599991,None,,,,,,,,,,,P033,FENCOG,2,Pre,2022_Apr_05_1058,Go No-Go Task,2021.1.4,120.39011211858141,
,"Rule: When you see blue image, do not press 'spacebar'.",Images/Happy/AF25HAS.jpg,Happy,Yellow,Images/Yellow.jpg,space,ParentConditions/YellowBlueBlue_v2.xlsx,BlueBlueYellow,Conditions/Version_2/BlueFearStop.xlsx,no,PASS,0.04870321560414337,,,,,,,,,0,0,0,0,0,1,1,1,0,37,37,37,,,,,,,,,,,,,,,,,,,,,,,,,,,,,,,,,,,,,,,,,,,,,,,,,,,,,,,,,,,,,,,,,,,,,,,,,,,,,,,1.63,530.7406885999953,None,space,1,0.22585240000626072,532.4828245000099,None,532.4828245000099,None,532.4828245000099,None,,,,,,,,,,,P033,FENCOG,2,Pre,2022_Apr_05_1058,Go No-Go Task,2021.1.4,120.39011211858141,
,"Rule: When you see blue image, do not press 'spacebar'.",Images/Happy/BM08_HO.jpg,Happy,Yellow,Images/Yellow.jpg,space,ParentConditions/YellowBlueBlue_v2.xlsx,BlueBlueYellow,Conditions/Version_2/BlueFearStop.xlsx,no,PASS,0.026169495354104844,,,,,,,,,0,0,0,0,0,1,1,1,0,38,38,38,,,,,,,,,,,,,,,,,,,,,,,,,,,,,,,,,,,,,,,,,,,,,,,,,,,,,,,,,,,,,,,,,,,,,,,,,,,,,,,1.42,532.881939599989,None,space,1,0.26929959998233244,534.4071486999746,None,534.4071486999746,None,534.4071486999746,None,,,,,,,,,,,P033,FENCOG,2,Pre,2022_Apr_05_1058,Go No-Go Task,2021.1.4,120.39011211858141,
,"Rule: When you see blue image, do not press 'spacebar'.",Images/Happy/AF32HAS.jpg,Happy,Yellow,Images/Yellow.jpg,space,ParentConditions/YellowBlueBlue_v2.xlsx,BlueBlueYellow,Conditions/Version_2/BlueFearStop.xlsx,no,PASS,0.007662007482450273,,,,,,,,,0,0,0,0,0,1,1,1,0,39,39,39,,,,,,,,,,,,,,,,,,,,,,,,,,,,,,,,,,,,,,,,,,,,,,,,,,,,,,,,,,,,,,,,,,,,,,,,,,,,,,,1.58,534.8065497999778,None,space,1,0.27395389997400343,536.4985702999984,None,536.4985702999984,None,536.4985702999984,None,,,,,,,,,,,P033,FENCOG,2,Pre,2022_Apr_05_1058,Go No-Go Task,2021.1.4,120.39011211858141,
,"Rule: When you see blue image, do not press 'spacebar'.",Images/Happy/AF23HAS.jpg,Happy,Yellow,Images/Yellow.jpg,space,ParentConditions/YellowBlueBlue_v2.xlsx,BlueBlueYellow,Conditions/Version_2/BlueFearStop.xlsx,no,PASS,0.13322659163638806,,,,,,,,,0,0,0,0,0,1,1,1,0,40,40,40,,,,,,,,,,,,,,,,,,,,,,,,,,,,,,,,,,,,,,,,,,,,,,,,,,,,,,,,,,,,,,,,,,,,,,,,,,,,,,,1.98,536.9010724999825,None,None,0,,538.9895126000047,None,538.9895126000047,None,538.9895126000047,None,,,,,,,,,,,P033,FENCOG,2,Pre,2022_Apr_05_1058,Go No-Go Task,2021.1.4,120.39011211858141,
,"Rule: When you see blue image, do not press 'spacebar'.",Images/Happy/AM32HAS.jpg,Happy,Yellow,Images/Yellow.jpg,space,ParentConditions/YellowBlueBlue_v2.xlsx,BlueBlueYellow,Conditions/Version_2/BlueFearStop.xlsx,no,PASS,0.18790539518346805,,,,,,,,,0,0,0,0,0,1,1,1,0,41,41,41,,,,,,,,,,,,,,,,,,,,,,,,,,,,,,,,,,,,,,,,,,,,,,,,,,,,,,,,,,,,,,,,,,,,,,,,,,,,,,,1.37,539.3811831999919,None,space,1,0.27700740000000224,540.8555897999904,None,540.8555897999904,None,540.8555897999904,None,,,,,,,,,,,P033,FENCOG,2,Pre,2022_Apr_05_1058,Go No-Go Task,2021.1.4,120.39011211858141,
,"Rule: When you see blue image, do not press 'spacebar'.",Images/Fearful/AM30AFS.jpg,Fear,Blue,Images/Blue.jpg,None,ParentConditions/YellowBlueBlue_v2.xlsx,BlueBlueYellow,Conditions/Version_2/BlueFearStop.xlsx,yes,PASS,0.3894428318578558,,,,,,,,,0,0,0,0,0,1,1,1,0,42,42,42,,,,,,,,,,,,,,,,,,,,,,,,,,,,,,,,,,,,,,,,,,,,,,,,,,,,,,,,,,,,,,,,,,,,,,,,,,,,,,,1.52,541.2546757999808,None,None,1,,542.8800109000294,None,542.8800109000294,None,542.8800109000294,None,,,,,,,,,,,P033,FENCOG,2,Pre,2022_Apr_05_1058,Go No-Go Task,2021.1.4,120.39011211858141,
,"Rule: When you see blue image, do not press 'spacebar'.",Images/Happy/BM02_HO.jpg,Happy,Yellow,Images/Yellow.jpg,space,ParentConditions/YellowBlueBlue_v2.xlsx,BlueBlueYellow,Conditions/Version_2/BlueFearStop.xlsx,no,PASS,0.8000984906086622,,,,,,,,,0,0,0,0,0,1,1,1,0,43,43,43,,,,,,,,,,,,,,,,,,,,,,,,,,,,,,,,,,,,,,,,,,,,,,,,,,,,,,,,,,,,,,,,,,,,,,,,,,,,,,,1.2,543.2822097999742,None,space,1,0.23319649999029934,544.5795407000114,None,544.5795407000114,None,544.5795407000114,None,,,,,,,,,,,P033,FENCOG,2,Pre,2022_Apr_05_1058,Go No-Go Task,2021.1.4,120.39011211858141,
,"Rule: When you see blue image, do not press 'spacebar'.",Images/Happy/AM10_HO.jpg,Happy,Yellow,Images/Yellow.jpg,space,ParentConditions/YellowBlueBlue_v2.xlsx,BlueBlueYellow,Conditions/Version_2/BlueFearStop.xlsx,no,PASS,0.5717939201397183,,,,,,,,,0,0,0,0,0,1,1,1,0,44,44,44,,,,,,,,,,,,,,,,,,,,,,,,,,,,,,,,,,,,,,,,,,,,,,,,,,,,,,,,,,,,,,,,,,,,,,,,,,,,,,,1.24,544.9803287999821,None,space,1,0.2683489000191912,546.3123217999819,None,546.3123217999819,None,546.3123217999819,None,,,,,,,,,,,P033,FENCOG,2,Pre,2022_Apr_05_1058,Go No-Go Task,2021.1.4,120.39011211858141,
,"Rule: When you see blue image, do not press 'spacebar'.",Images/Fearful/AM10_FO.jpg,Fear,Blue,Images/Blue.jpg,None,ParentConditions/YellowBlueBlue_v2.xlsx,BlueBlueYellow,Conditions/Version_2/BlueFearStop.xlsx,yes,PASS,0.5269701617606191,,,,,,,,,0,0,0,0,0,1,1,1,0,45,45,45,,,,,,,,,,,,,,,,,,,,,,,,,,,,,,,,,,,,,,,,,,,,,,,,,,,,,,,,,,,,,,,,,,,,,,,,,,,,,,,1.46,546.7163120000041,None,space,0,0.26238739996915683,548.2783981999964,None,548.2783981999964,None,548.2783981999964,None,,,,,,,,,,,P033,FENCOG,2,Pre,2022_Apr_05_1058,Go No-Go Task,2021.1.4,120.39011211858141,
,"Rule: When you see blue image, do not press 'spacebar'.",Images/Happy/AF19HAS.jpg,Happy,Yellow,Images/Yellow.jpg,space,ParentConditions/YellowBlueBlue_v2.xlsx,BlueBlueYellow,Conditions/Version_2/BlueFearStop.xlsx,no,PASS,0.6170839926730745,,,,,,,,,0,0,0,0,0,1,1,1,0,46,46,46,,,,,,,,,,,,,,,,,,,,,,,,,,,,,,,,,,,,,,,,,,,,,,,,,,,,,,,,,,,,,,,,,,,,,,,,,,,,,,,1.41,548.6791077000089,None,space,1,0.2901129000238143,550.1945409000036,None,550.1945409000036,None,550.1945409000036,None,,,,,,,,,,,P033,FENCOG,2,Pre,2022_Apr_05_1058,Go No-Go Task,2021.1.4,120.39011211858141,
,"Rule: When you see blue image, do not press 'spacebar'.",Images/Fearful/HF09_FC.jpg,Fear,Blue,Images/Blue.jpg,None,ParentConditions/YellowBlueBlue_v2.xlsx,BlueBlueYellow,Conditions/Version_2/BlueFearStop.xlsx,yes,PASS,0.03424286048079783,,,,,,,,,0,0,0,0,0,1,1,1,0,47,47,47,,,,,,,,,,,,,,,,,,,,,,,,,,,,,,,,,,,,,,,,,,,,,,,,,,,,,,,,,,,,,,,,,,,,,,,,,,,,,,,1.81,550.5948155000224,None,space,0,0.1667814999818802,552.5019634999917,None,552.5019634999917,None,552.5019634999917,None,,,,,,,,,,,P033,FENCOG,2,Pre,2022_Apr_05_1058,Go No-Go Task,2021.1.4,120.39011211858141,
,"Rule: When you see blue image, do not press 'spacebar'.",Images/Fearful/AM22AFS.jpg,Fear,Blue,Images/Blue.jpg,None,ParentConditions/YellowBlueBlue_v2.xlsx,BlueBlueYellow,Conditions/Version_2/BlueFearStop.xlsx,yes,PASS,0.9945919074829972,,,,,,,,,0,0,0,0,0,1,1,1,0,48,48,48,,,,,,,,,,,,,,,,,,,,,,,,,,,,,,,,,,,,,,,,,,,,,,,,,,,,,,,,,,,,,,,,,,,,,,,,,,,,,,,1.47,552.9030358999735,None,None,1,,554.4682677999954,None,554.4682677999954,None,554.4682677999954,None,,,,,,,,,,,P033,FENCOG,2,Pre,2022_Apr_05_1058,Go No-Go Task,2021.1.4,120.39011211858141,
,"Rule: When you see blue image, do not press 'spacebar'.",Images/Happy/AM06_HC.jpg,Happy,Yellow,Images/Yellow.jpg,space,ParentConditions/YellowBlueBlue_v2.xlsx,BlueBlueYellow,Conditions/Version_2/BlueFearStop.xlsx,no,PASS,0.15639026645094434,,,,,,,,,0,0,0,0,0,1,1,1,0,49,49,49,,,,,,,,,,,,,,,,,,,,,,,,,,,,,,,,,,,,,,,,,,,,,,,,,,,,,,,,,,,,,,,,,,,,,,,,,,,,,,,1.71,554.8688943000161,None,space,1,0.24858939996920526,556.6760047000134,None,556.6760047000134,None,556.6760047000134,None,,,,,,,,,,,P033,FENCOG,2,Pre,2022_Apr_05_1058,Go No-Go Task,2021.1.4,120.39011211858141,
,"Rule: When you see blue image, do not press 'spacebar'.",Images/Fearful/AM32AFS.jpg,Fear,Blue,Images/Blue.jpg,None,ParentConditions/YellowBlueBlue_v2.xlsx,BlueBlueYellow,Conditions/Version_2/BlueFearStop.xlsx,yes,PASS,0.6879520753296126,,,,,,,,,0,0,0,0,0,1,1,1,0,50,50,50,,,,,,,,,,,,,,,,,,,,,,,,,,,,,,,,,,,,,,,,,,,,,,,,,,,,,,,,,,,,,,,,,,,,,,,,,,,,,,,1.39,557.0787360999966,None,None,1,,558.5671593000297,None,558.5671593000297,None,558.5671593000297,None,,,,,,,,,,,P033,FENCOG,2,Pre,2022_Apr_05_1058,Go No-Go Task,2021.1.4,120.39011211858141,
,"Rule: When you see blue image, do not press 'spacebar'.",Images/Happy/WF11_HE.jpg,Happy,Yellow,Images/Yellow.jpg,space,ParentConditions/YellowBlueBlue_v2.xlsx,BlueBlueYellow,Conditions/Version_2/BlueFearStop.xlsx,no,PASS,0.0583479260669304,,,,,,,,,0,0,0,0,0,1,1,1,0,51,51,51,,,,,,,,,,,,,,,,,,,,,,,,,,,,,,,,,,,,,,,,,,,,,,,,,,,,,,,,,,,,,,,,,,,,,,,,,,,,,,,1.9,558.9676980000222,None,space,1,0.2617065000231378,560.9830081000109,None,560.9830081000109,None,560.9830081000109,None,,,,,,,,,,,P033,FENCOG,2,Pre,2022_Apr_05_1058,Go No-Go Task,2021.1.4,120.39011211858141,
,"Rule: When you see blue image, do not press 'spacebar'.",Images/Fearful/AF28AFS.jpg,Fear,Blue,Images/Blue.jpg,None,ParentConditions/YellowBlueBlue_v2.xlsx,BlueBlueYellow,Conditions/Version_2/BlueFearStop.xlsx,yes,PASS,0.84152709172785,,,,,,,,,0,0,0,0,0,1,1,1,0,52,52,52,,,,,,,,,,,,,,,,,,,,,,,,,,,,,,,,,,,,,,,,,,,,,,,,,,,,,,,,,,,,,,,,,,,,,,,,,,,,,,,1.84,561.3818914000294,None,None,1,,563.323998900014,None,563.323998900014,None,563.323998900014,None,,,,,,,,,,,P033,FENCOG,2,Pre,2022_Apr_05_1058,Go No-Go Task,2021.1.4,120.39011211858141,
,"Rule: When you see blue image, do not press 'spacebar'.",Images/Happy/HF04_HE.jpg,Happy,Yellow,Images/Yellow.jpg,space,ParentConditions/YellowBlueBlue_v2.xlsx,BlueBlueYellow,Conditions/Version_2/BlueFearStop.xlsx,no,PASS,0.4119172299729392,,,,,,,,,0,0,0,0,0,1,1,1,0,53,53,53,,,,,,,,,,,,,,,,,,,,,,,,,,,,,,,,,,,,,,,,,,,,,,,,,,,,,,,,,,,,,,,,,,,,,,,,,,,,,,,1.89,563.7260726999957,None,space,1,0.257299899996724,565.7233131999965,None,565.7233131999965,None,565.7233131999965,None,,,,,,,,,,,P033,FENCOG,2,Pre,2022_Apr_05_1058,Go No-Go Task,2021.1.4,120.39011211858141,
,"Rule: When you see blue image, do not press 'spacebar'.",Images/Happy/AM13HAS.jpg,Happy,Yellow,Images/Yellow.jpg,space,ParentConditions/YellowBlueBlue_v2.xlsx,BlueBlueYellow,Conditions/Version_2/BlueFearStop.xlsx,no,PASS,0.1481016084905541,,,,,,,,,0,0,0,0,0,1,1,1,0,54,54,54,,,,,,,,,,,,,,,,,,,,,,,,,,,,,,,,,,,,,,,,,,,,,,,,,,,,,,,,,,,,,,,,,,,,,,,,,,,,,,,1.35,566.123171299987,None,space,1,0.3036464000470005,567.5810621000128,None,567.5810621000128,None,567.5810621000128,None,,,,,,,,,,,P033,FENCOG,2,Pre,2022_Apr_05_1058,Go No-Go Task,2021.1.4,120.39011211858141,
,"Rule: When you see blue image, do not press 'spacebar'.",Images/Happy/HF10_HE.jpg,Happy,Yellow,Images/Yellow.jpg,space,ParentConditions/YellowBlueBlue_v2.xlsx,BlueBlueYellow,Conditions/Version_2/BlueFearStop.xlsx,no,PASS,0.04388835754455167,,,,,,,,,0,0,0,0,0,1,1,1,0,55,55,55,,,,,,,,,,,,,,,,,,,,,,,,,,,,,,,,,,,,,,,,,,,,,,,,,,,,,,,,,,,,,,,,,,,,,,,,,,,,,,,1.95,567.9813671000302,None,space,1,0.3020035999943502,570.0386849999777,None,570.0386849999777,None,570.0386849999777,None,,,,,,,,,,,P033,FENCOG,2,Pre,2022_Apr_05_1058,Go No-Go Task,2021.1.4,120.39011211858141,
,"Rule: When you see blue image, do not press 'spacebar'.",Images/Happy/AM04_HE.jpg,Happy,Yellow,Images/Yellow.jpg,space,ParentConditions/YellowBlueBlue_v2.xlsx,BlueBlueYellow,Conditions/Version_2/BlueFearStop.xlsx,no,PASS,0.8425689490019698,,,,,,,,,0,0,0,0,0,1,1,1,0,56,56,56,,,,,,,,,,,,,,,,,,,,,,,,,,,,,,,,,,,,,,,,,,,,,,,,,,,,,,,,,,,,,,,,,,,,,,,,,,,,,,,1.76,570.4398563000141,None,space,1,0.2916552000096999,572.3130114999949,None,572.3130114999949,None,572.3130114999949,None,,,,,,,,,,,P033,FENCOG,2,Pre,2022_Apr_05_1058,Go No-Go Task,2021.1.4,120.39011211858141,
