CondFileP,Instructions,FaceE,Express,ColourT,ColourF,CorrectAnsP,MasterCondFile,BlockOrder,CondFile,ColCheck,Triplicate_check,SORT_BY_SMALLEST,EPracticeOuterLoop.thisRepN,EPracticeOuterLoop.thisTrialN,EPracticeOuterLoop.thisN,EPracticeOuterLoop.thisIndex,EPracticeInnerLoop.thisRepN,EPracticeInnerLoop.thisTrialN,EPracticeInnerLoop.thisN,EPracticeInnerLoop.thisIndex,MasterLoop.thisRepN,MasterLoop.thisTrialN,MasterLoop.thisN,MasterLoop.thisIndex,OuterLoop.thisRepN,OuterLoop.thisTrialN,OuterLoop.thisN,OuterLoop.thisIndex,InnerLoop.thisRepN,InnerLoop.thisTrialN,InnerLoop.thisN,InnerLoop.thisIndex,text_13.started,text_13.stopped,key_resp_10.keys,key_resp_10.rt,key_resp_10.started,key_resp_10.stopped,text4.started,text4.stopped,EmotionTaskInstructions1.keys,EmotionTaskInstructions1.rt,EmotionTaskInstructions1.started,EmotionTaskInstructions1.stopped,text_4.started,text_4.stopped,key_resp_5.keys,key_resp_5.rt,key_resp_5.started,key_resp_5.stopped,Text_14.started,Text_14.stopped,key_resp_9.keys,key_resp_9.rt,key_resp_9.started,key_resp_9.stopped,text_5.started,text_5.stopped,text_6.started,text_6.stopped,key_resp_7.keys,key_resp_7.rt,key_resp_7.started,key_resp_7.stopped,text_10.started,text_10.stopped,text_11.started,text_11.stopped,text_12.started,text_12.stopped,ISIjitterPractice,EPracticeISIMarker.started,EPracticeISIMarker.stopped,Pract.keys,Pract.corr,Pract.started,Pract.stopped,PracticeFace.started,PracticeFace.stopped,ColourPractice.started,ColourPractice.stopped,text_7.started,text_7.stopped,Pract.rt,EndOfPractice.started,EndOfPractice.stopped,key_resp_8.keys,key_resp_8.rt,key_resp_8.started,key_resp_8.stopped,text_8.started,text_8.stopped,key_resp_6.keys,key_resp_6.rt,key_resp_6.started,key_resp_6.stopped,text_2.started,text_2.stopped,text_3.started,text_3.stopped,key_resp_3.keys,key_resp_3.rt,key_resp_3.started,key_resp_3.stopped,TaskBlock.started,TaskBlock.stopped,BlockNo1.started,BlockNo1.stopped,OfBlock.started,OfBlock.stopped,ISIjitter,ISImarker.started,ISImarker.stopped,key_resp.keys,key_resp.corr,key_resp.rt,key_resp.started,key_resp.stopped,FaceSet.started,FaceSet.stopped,Colour.started,Colour.stopped,EndBlockText.started,EndBlockText.stopped,key_resp_4.keys,key_resp_4.rt,key_resp_4.started,key_resp_4.stopped,BreakText2.started,BreakText2.stopped,PressToContinue.started,PressToContinue.stopped,participant,Study Name,Task Version (required to run),PRE/POST,date,expName,psychopyVersion,frameRate
,,,,,,,,,,,,,,,,,,,,,,,,,,,,,,,,,93.0006022,None,space,1.5734203,93.9951123,None,,,,,,,,,,,,,,,,,,,,,,,,,,,,,,,,,,,,,,,,,,,,,,,,,,,,,,,,,,,,,,,,,,,,,,,,,,,,,,,,,,,,,,,,,,,,,,,P033,fencog,1,Post,2022_Apr_12_1149,Go No-Go Task,2021.1.4,120.112329
,,,,,,,,,,,,,,,,,,,,,,,,,,,,,,,,,,,,,,,97.2412324,None,space,56.4795398,97.2412324,None,,,,,,,,,,,,,,,,,,,,,,,,,,,,,,,,,,,,,,,,,,,,,,,,,,,,,,,,,,,,,,,,,,,,,,,,,,,,,,,,,,,,,,,,,P033,fencog,1,Post,2022_Apr_12_1149,Go No-Go Task,2021.1.4,120.112329
,,,,,,,,,,,,,,,,,,,,,,,,,,,,,,,,,,,,,,,,,,,,,153.7849216,None,space,29.7434944,153.7849216,None,,,,,,,,,,,,,,,,,,,,,,,,,,,,,,,,,,,,,,,,,,,,,,,,,,,,,,,,,,,,,,,,,,,,,,,,,,,,,,,,,,,P033,fencog,1,Post,2022_Apr_12_1149,Go No-Go Task,2021.1.4,120.112329
,,,,,,,,,,,,,,,,,,,,,,,,,,,,,,,,,,,,,,,,,,,,,,,,,,,183.5365518,None,space,1.3999019,183.5365518,None,,,,,,,,,,,,,,,,,,,,,,,,,,,,,,,,,,,,,,,,,,,,,,,,,,,,,,,,,,,,,,,,,,,,,,,,,,,,,P033,fencog,1,Post,2022_Apr_12_1149,Go No-Go Task,2021.1.4,120.112329
EPracticeConditions/BlueEyes.csv,"Rule: When you see a blue image, do not press 'spacebar'.",Images/Happy/HF10_HE.jpg,Happy,Yellow,Images/Yellow.jpg,space,,,,,,,0,0,0,0,0,0,0,7,,,,,,,,,,,,,,,,,,,,,,,,,,,,,,,,,,,,,185.0161532,None,188.0007566,None,space,0.8076453,188.0007566,None,185.0161532,None,185.0161532,None,185.0161532,None,1.9,189.0194236,None,None,0,191.0593977,None,191.0593977,None,191.0593977,None,192.6868563,None,,,,,,,,,,,,,,,,,,,,,,,,,,,,,,,,,,,,,,,,,,,,,,,,,,P033,fencog,1,Post,2022_Apr_12_1149,Go No-Go Task,2021.1.4,120.112329
EPracticeConditions/BlueEyes.csv,"Rule: When you see a blue image, do not press 'spacebar'.",Images/Happy/HF05_HO.jpg,Happy,Yellow,Images/Yellow.jpg,space,,,,,,,0,0,0,0,0,1,1,5,,,,,,,,,,,,,,,,,,,,,,,,,,,,,,,,,,,,,,,,,,,,,,,,,,,1.6,193.9612942,None,space,1,195.6741532,None,195.6741532,None,195.6741532,None,196.5646616,None,0.2942401,,,,,,,,,,,,,,,,,,,,,,,,,,,,,,,,,,,,,,,,,,,,,,,,,P033,fencog,1,Post,2022_Apr_12_1149,Go No-Go Task,2021.1.4,120.112329
EPracticeConditions/BlueEyes.csv,"Rule: When you see a blue image, do not press 'spacebar'.",Images/Fearful/HM09_FC.jpg,Fear,Blue,Images/Blue.jpg,None,,,,,,,0,0,0,0,0,2,2,0,,,,,,,,,,,,,,,,,,,,,,,,,,,,,,,,,,,,,,,,,,,,,,,,,,,1.2,198.5640743,None,None,1,199.8728522,None,199.8728522,None,199.8728522,None,200.7633848,None,,,,,,,,,,,,,,,,,,,,,,,,,,,,,,,,,,,,,,,,,,,,,,,,,,P033,fencog,1,Post,2022_Apr_12_1149,Go No-Go Task,2021.1.4,120.112329
EPracticeConditions/BlueEyes.csv,"Rule: When you see a blue image, do not press 'spacebar'.",Images/Fearful/AF01_FO.jpg,Fear,Blue,Images/Blue.jpg,None,,,,,,,0,0,0,0,0,3,3,1,,,,,,,,,,,,,,,,,,,,,,,,,,,,,,,,,,,,,,,,,,,,,,,,,,,1.3,202.7628475,None,None,1,204.1887217,None,204.1887217,None,204.1887217,None,205.0686874,None,,,,,,,,,,,,,,,,,,,,,,,,,,,,,,,,,,,,,,,,,,,,,,,,,,P033,fencog,1,Post,2022_Apr_12_1149,Go No-Go Task,2021.1.4,120.112329
EPracticeConditions/BlueEyes.csv,"Rule: When you see a blue image, do not press 'spacebar'.",Images/Happy/BM08_HO.jpg,Happy,Yellow,Images/Yellow.jpg,space,,,,,,,0,0,0,0,0,4,4,3,,,,,,,,,,,,,,,,,,,,,,,,,,,,,,,,,,,,,,,,,,,,,,,,,,,1.5,207.0755012,None,space,1,208.6957427,None,208.6957427,None,208.6957427,None,209.5832398,None,0.2649082,,,,,,,,,,,,,,,,,,,,,,,,,,,,,,,,,,,,,,,,,,,,,,,,,P033,fencog,1,Post,2022_Apr_12_1149,Go No-Go Task,2021.1.4,120.112329
EPracticeConditions/BlueEyes.csv,"Rule: When you see a blue image, do not press 'spacebar'.",Images/Happy/HF09_HE.jpg,Happy,Yellow,Images/Yellow.jpg,space,,,,,,,0,0,0,0,0,5,5,6,,,,,,,,,,,,,,,,,,,,,,,,,,,,,,,,,,,,,,,,,,,,,,,,,,,1.7,211.591237,None,space,1,213.4192372,None,213.4192372,None,213.4192372,None,214.3068301,None,0.2856695,,,,,,,,,,,,,,,,,,,,,,,,,,,,,,,,,,,,,,,,,,,,,,,,,P033,fencog,1,Post,2022_Apr_12_1149,Go No-Go Task,2021.1.4,120.112329
EPracticeConditions/BlueEyes.csv,"Rule: When you see a blue image, do not press 'spacebar'.",Images/Happy/HF04_HE.jpg,Happy,Yellow,Images/Yellow.jpg,space,,,,,,,0,0,0,0,0,6,6,4,,,,,,,,,,,,,,,,,,,,,,,,,,,,,,,,,,,,,,,,,,,,,,,,,,,1.8,216.304984,None,space,1,218.2178826,None,218.2178826,None,218.2178826,None,219.1150651,None,0.3030259,,,,,,,,,,,,,,,,,,,,,,,,,,,,,,,,,,,,,,,,,,,,,,,,,P033,fencog,1,Post,2022_Apr_12_1149,Go No-Go Task,2021.1.4,120.112329
EPracticeConditions/BlueEyes.csv,"Rule: When you see a blue image, do not press 'spacebar'.",Images/Happy/BM02_HO.jpg,Happy,Yellow,Images/Yellow.jpg,space,,,,,,,0,0,0,0,0,7,7,2,,,,,,,,,,,,,,,,,,,,,,,,,,,,,,,,,,,,,,,,,,,,,,,,,,,1.4,221.1213077,None,space,1,222.6499775,None,222.6499775,None,222.6499775,None,223.5289452,None,0.3113417,,,,,,,,,,,,,,,,,,,,,,,,,,,,,,,,,,,,,,,,,,,,,,,,,P033,fencog,1,Post,2022_Apr_12_1149,Go No-Go Task,2021.1.4,120.112329
EPracticeConditions/BlueEyes.csv,"Rule: When you see a blue image, do not press 'spacebar'.",,,,,,,,,,,,0,0,0,0,,,,,,,,,,,,,,,,,,,,,,,,,,,,,,,,,,,,,,,,,,,,,,,,,,,,,,,,,,,,,,,,,,,,,,,,,,,,,,,,,,,,,,,,,,,,,,,,,,,,,,,,,,,,,,,,,,,,,P033,fencog,1,Post,2022_Apr_12_1149,Go No-Go Task,2021.1.4,120.112329
EPracticeConditions/YellowEyes.csv,"Rule: When you see a yellow image, do not press 'spacebar'.",Images/Fearful/AM19AFS.jpg,Fear,Blue,Images/Blue.jpg,space,,,,,,,0,1,1,1,0,0,0,4,,,,,,,,,,,,,,,,,,,,,,,,,,,,,,,,,,,,,225.5607643,None,228.5558564,None,space,0.8047953,228.5558564,None,225.5607643,None,225.5607643,None,225.5607643,None,1.8,229.3915419,None,space,1,231.3307064,None,231.3307064,None,231.3307064,None,232.2044144,None,0.2861627,,,,,,,,,,,,,,,,,,,,,,,,,,,,,,,,,,,,,,,,,,,,,,,,,P033,fencog,1,Post,2022_Apr_12_1149,Go No-Go Task,2021.1.4,120.112329
EPracticeConditions/YellowEyes.csv,"Rule: When you see a yellow image, do not press 'spacebar'.",Images/Fearful/AM17AFS.jpg,Fear,Blue,Images/Blue.jpg,space,,,,,,,0,1,1,1,0,1,1,3,,,,,,,,,,,,,,,,,,,,,,,,,,,,,,,,,,,,,,,,,,,,,,,,,,,1.2,234.20553,None,space,1,235.5293919,None,235.5293919,None,235.5293919,None,236.4178005,None,0.271288,,,,,,,,,,,,,,,,,,,,,,,,,,,,,,,,,,,,,,,,,,,,,,,,,P033,fencog,1,Post,2022_Apr_12_1149,Go No-Go Task,2021.1.4,120.112329
EPracticeConditions/YellowEyes.csv,"Rule: When you see a yellow image, do not press 'spacebar'.",Images/Fearful/AM24AFS.jpg,Fear,Blue,Images/Blue.jpg,space,,,,,,,0,1,1,1,0,2,2,7,,,,,,,,,,,,,,,,,,,,,,,,,,,,,,,,,,,,,,,,,,,,,,,,,,,1.6,238.4263661,None,space,1,240.1447105,None,240.1447105,None,240.1447105,None,241.0332931,None,0.3040317,,,,,,,,,,,,,,,,,,,,,,,,,,,,,,,,,,,,,,,,,,,,,,,,,P033,fencog,1,Post,2022_Apr_12_1149,Go No-Go Task,2021.1.4,120.112329
EPracticeConditions/YellowEyes.csv,"Rule: When you see a yellow image, do not press 'spacebar'.",Images/Fearful/AM22AFS.jpg,Fear,Blue,Images/Blue.jpg,space,,,,,,,0,1,1,1,0,3,3,5,,,,,,,,,,,,,,,,,,,,,,,,,,,,,,,,,,,,,,,,,,,,,,,,,,,1.5,243.0342935,None,space,1,244.6435241,None,244.6435241,None,244.6435241,None,245.54916,None,0.3335475,,,,,,,,,,,,,,,,,,,,,,,,,,,,,,,,,,,,,,,,,,,,,,,,,P033,fencog,1,Post,2022_Apr_12_1149,Go No-Go Task,2021.1.4,120.112329
EPracticeConditions/YellowEyes.csv,"Rule: When you see a yellow image, do not press 'spacebar'.",Images/Fearful/AM16AFS.jpg,Fear,Blue,Images/Blue.jpg,space,,,,,,,0,1,1,1,0,4,4,2,,,,,,,,,,,,,,,,,,,,,,,,,,,,,,,,,,,,,,,,,,,,,,,,,,,1.3,247.5446761,None,space,1,248.975491,None,248.975491,None,248.975491,None,249.847097,None,0.2972747,,,,,,,,,,,,,,,,,,,,,,,,,,,,,,,,,,,,,,,,,,,,,,,,,P033,fencog,1,Post,2022_Apr_12_1149,Go No-Go Task,2021.1.4,120.112329
EPracticeConditions/YellowEyes.csv,"Rule: When you see a yellow image, do not press 'spacebar'.",Images/Fearful/AM23AFS.jpg,Fear,Blue,Images/Blue.jpg,space,,,,,,,0,1,1,1,0,5,5,6,,,,,,,,,,,,,,,,,,,,,,,,,,,,,,,,,,,,,,,,,,,,,,,,,,,1.4,251.8563325,None,space,1,253.3833471,None,253.3833471,None,253.3833471,None,254.2617119,None,0.2575804,,,,,,,,,,,,,,,,,,,,,,,,,,,,,,,,,,,,,,,,,,,,,,,,,P033,fencog,1,Post,2022_Apr_12_1149,Go No-Go Task,2021.1.4,120.112329
EPracticeConditions/YellowEyes.csv,"Rule: When you see a yellow image, do not press 'spacebar'.",Images/Happy/BF05_HO.jpg,Happy,Yellow,Images/Yellow.jpg,None,,,,,,,0,1,1,1,0,6,6,1,,,,,,,,,,,,,,,,,,,,,,,,,,,,,,,,,,,,,,,,,,,,,,,,,,,1.7,256.2676261,None,space,0,258.0976854,None,258.0976854,None,258.0976854,None,258.9866936,None,0.2550062,,,,,,,,,,,,,,,,,,,,,,,,,,,,,,,,,,,,,,,,,,,,,,,,,P033,fencog,1,Post,2022_Apr_12_1149,Go No-Go Task,2021.1.4,120.112329
EPracticeConditions/YellowEyes.csv,"Rule: When you see a yellow image, do not press 'spacebar'.",Images/Happy/AM32HAS.jpg,Happy,Yellow,Images/Yellow.jpg,None,,,,,,,0,1,1,1,0,7,7,0,,,,,,,,,,,,,,,,,,,,,,,,,,,,,,,,,,,,,,,,,,,,,,,,,,,1.9,260.9835558,None,None,1,263.0046744,None,263.0046744,None,263.0046744,None,263.8932297,None,,,,,,,,,,,,,,,,,,,,,,,,,,,,,,,,,,,,,,,,,,,,,,,,,,P033,fencog,1,Post,2022_Apr_12_1149,Go No-Go Task,2021.1.4,120.112329
EPracticeConditions/YellowEyes.csv,"Rule: When you see a yellow image, do not press 'spacebar'.",,,,,,,,,,,,0,1,1,1,,,,,,,,,,,,,,,,,,,,,,,,,,,,,,,,,,,,,,,,,,,,,,,,,,,,,,,,,,,,,,,,,,,,,,,,,,,,,,,,,,,,,,,,,,,,,,,,,,,,,,,,,,,,,,,,,,,,,P033,fencog,1,Post,2022_Apr_12_1149,Go No-Go Task,2021.1.4,120.112329
EPracticeConditions/BlueScram.csv,"Rule: When you see a blue image, do not press 'spacebar'.",Images/Scram2/AF25NES.jpg,Scramble,Yellow,Images/Yellow.jpg,space,,,,,,,0,2,2,2,0,0,0,7,,,,,,,,,,,,,,,,,,,,,,,,,,,,,,,,,,,,,265.9113511,None,268.9024001,None,space,0.4661955,268.9024001,None,265.9113511,None,265.9113511,None,265.9113511,None,1.7,269.3924248,None,space,1,271.2105813,None,271.2105813,None,271.2105813,None,272.1066146,None,0.3100641,,,,,,,,,,,,,,,,,,,,,,,,,,,,,,,,,,,,,,,,,,,,,,,,,P033,fencog,1,Post,2022_Apr_12_1149,Go No-Go Task,2021.1.4,120.112329
EPracticeConditions/BlueScram.csv,"Rule: When you see a blue image, do not press 'spacebar'.",Images/Scram1/AM13NES.jpg,Scramble,Yellow,Images/Yellow.jpg,space,,,,,,,0,2,2,2,0,1,1,5,,,,,,,,,,,,,,,,,,,,,,,,,,,,,,,,,,,,,,,,,,,,,,,,,,,1.9,274.1035047,None,space,1,276.1173937,None,276.1173937,None,276.1173937,None,277.0135059,None,0.2592745,,,,,,,,,,,,,,,,,,,,,,,,,,,,,,,,,,,,,,,,,,,,,,,,,P033,fencog,1,Post,2022_Apr_12_1149,Go No-Go Task,2021.1.4,120.112329
EPracticeConditions/BlueScram.csv,"Rule: When you see a blue image, do not press 'spacebar'.",Images/Scram1/BM08_NC.jpg,Scramble,Blue,Images/Blue.jpg,None,,,,,,,0,2,2,2,0,2,2,0,,,,,,,,,,,,,,,,,,,,,,,,,,,,,,,,,,,,,,,,,,,,,,,,,,,1.5,279.0154026,None,None,1,280.6327465,None,280.6327465,None,280.6327465,None,281.5205619,None,,,,,,,,,,,,,,,,,,,,,,,,,,,,,,,,,,,,,,,,,,,,,,,,,,P033,fencog,1,Post,2022_Apr_12_1149,Go No-Go Task,2021.1.4,120.112329
EPracticeConditions/BlueScram.csv,"Rule: When you see a blue image, do not press 'spacebar'.",Images/Scram2/AM03_NC.jpg,Scramble,Yellow,Images/Yellow.jpg,space,,,,,,,0,2,2,2,0,3,3,6,,,,,,,,,,,,,,,,,,,,,,,,,,,,,,,,,,,,,,,,,,,,,,,,,,,1.4,283.5268758,None,space,1,285.0648409,None,285.0648409,None,285.0648409,None,285.9353971,None,0.2799818,,,,,,,,,,,,,,,,,,,,,,,,,,,,,,,,,,,,,,,,,,,,,,,,,P033,fencog,1,Post,2022_Apr_12_1149,Go No-Go Task,2021.1.4,120.112329
EPracticeConditions/BlueScram.csv,"Rule: When you see a blue image, do not press 'spacebar'.",Images/Scram1/BF18_NC.jpg,Scramble,Blue,Images/Blue.jpg,None,,,,,,,0,2,2,2,0,4,4,1,,,,,,,,,,,,,,,,,,,,,,,,,,,,,,,,,,,,,,,,,,,,,,,,,,,1.3,287.9439241,None,None,1,289.3719216,None,289.3719216,None,289.3719216,None,290.2513234,None,,,,,,,,,,,,,,,,,,,,,,,,,,,,,,,,,,,,,,,,,,,,,,,,,,P033,fencog,1,Post,2022_Apr_12_1149,Go No-Go Task,2021.1.4,120.112329
EPracticeConditions/BlueScram.csv,"Rule: When you see a blue image, do not press 'spacebar'.",Images/Scram2/AF10_NC.jpg,Scramble,Yellow,Images/Yellow.jpg,space,,,,,,,0,2,2,2,0,5,5,2,,,,,,,,,,,,,,,,,,,,,,,,,,,,,,,,,,,,,,,,,,,,,,,,,,,1.2,292.253476,None,space,1,293.578988,None,293.578988,None,293.578988,None,294.4589583,None,0.2615444,,,,,,,,,,,,,,,,,,,,,,,,,,,,,,,,,,,,,,,,,,,,,,,,,P033,fencog,1,Post,2022_Apr_12_1149,Go No-Go Task,2021.1.4,120.112329
EPracticeConditions/BlueScram.csv,"Rule: When you see a blue image, do not press 'spacebar'.",Images/Scram1/AM04_NC.jpg,Scramble,Yellow,Images/Yellow.jpg,space,,,,,,,0,2,2,2,0,6,6,3,,,,,,,,,,,,,,,,,,,,,,,,,,,,,,,,,,,,,,,,,,,,,,,,,,,1.6,296.4639377,None,space,1,298.1859511,None,298.1859511,None,298.1859511,None,299.0625128,None,0.2790607,,,,,,,,,,,,,,,,,,,,,,,,,,,,,,,,,,,,,,,,,,,,,,,,,P033,fencog,1,Post,2022_Apr_12_1149,Go No-Go Task,2021.1.4,120.112329
EPracticeConditions/BlueScram.csv,"Rule: When you see a blue image, do not press 'spacebar'.",Images/Scram1/AM03NES.jpg,Scramble,Yellow,Images/Yellow.jpg,space,,,,,,,0,2,2,2,0,7,7,4,,,,,,,,,,,,,,,,,,,,,,,,,,,,,,,,,,,,,,,,,,,,,,,,,,,1.8,301.0730436,None,space,1,302.9845575,None,302.9845575,None,302.9845575,None,303.8830209,None,0.2719336,,,,,,,,,,,,,,,,,,,,,,,,,,,,,,,,,,,,,,,,,,,,,,,,,P033,fencog,1,Post,2022_Apr_12_1149,Go No-Go Task,2021.1.4,120.112329
EPracticeConditions/BlueScram.csv,"Rule: When you see a blue image, do not press 'spacebar'.",,,,,,,,,,,,0,2,2,2,,,,,,,,,,,,,,,,,,,,,,,,,,,,,,,,,,,,,,,,,,,,,,,,,,,,,,,,,,,,,,,,,,,,,,,,,,,,,,,,,,,,,,,,,,,,,,,,,,,,,,,,,,,,,,,,,,,,,P033,fencog,1,Post,2022_Apr_12_1149,Go No-Go Task,2021.1.4,120.112329
EPracticeConditions/YellowScram.csv,"Rule: When you see a yellow image, do not press 'spacebar'.",Images/Scram1/AF30NES.JPG,Scramble,Blue,Images/Blue.jpg,space,,,,,,,0,3,3,3,0,0,0,4,,,,,,,,,,,,,,,,,,,,,,,,,,,,,,,,,,,,,305.9085221,None,308.8987821,None,space,0.2857939,308.8987821,None,305.9085221,None,305.9085221,None,305.9085221,None,1.6,309.2072827,None,space,1,310.9403987,None,310.9403987,None,310.9403987,None,311.8128173,None,0.316409,,,,,,,,,,,,,,,,,,,,,,,,,,,,,,,,,,,,,,,,,,,,,,,,,P033,fencog,1,Post,2022_Apr_12_1149,Go No-Go Task,2021.1.4,120.112329
EPracticeConditions/YellowScram.csv,"Rule: When you see a yellow image, do not press 'spacebar'.",Images/Scram2/AM03NES.jpg,Scramble,Yellow,Images/Yellow.jpg,None,,,,,,,0,3,3,3,0,1,1,1,,,,,,,,,,,,,,,,,,,,,,,,,,,,,,,,,,,,,,,,,,,,,,,,,,,1.3,313.8187115,None,None,1,315.2392309,None,315.2392309,None,315.2392309,None,316.1279215,None,,,,,,,,,,,,,,,,,,,,,,,,,,,,,,,,,,,,,,,,,,,,,,,,,,P033,fencog,1,Post,2022_Apr_12_1149,Go No-Go Task,2021.1.4,120.112329
EPracticeConditions/YellowScram.csv,"Rule: When you see a yellow image, do not press 'spacebar'.",Images/Scram1/AF24NES.jpg,Scramble,Blue,Images/Blue.jpg,space,,,,,,,0,3,3,3,0,2,2,7,,,,,,,,,,,,,,,,,,,,,,,,,,,,,,,,,,,,,,,,,,,,,,,,,,,1.2,318.1351697,None,space,1,319.4546589,None,319.4546589,None,319.4546589,None,320.3422648,None,0.2745132,,,,,,,,,,,,,,,,,,,,,,,,,,,,,,,,,,,,,,,,,,,,,,,,,P033,fencog,1,Post,2022_Apr_12_1149,Go No-Go Task,2021.1.4,120.112329
EPracticeConditions/YellowScram.csv,"Rule: When you see a yellow image, do not press 'spacebar'.",Images/Scram1/AF10_NC.jpg,Scramble,Blue,Images/Blue.jpg,space,,,,,,,0,3,3,3,0,3,3,6,,,,,,,,,,,,,,,,,,,,,,,,,,,,,,,,,,,,,,,,,,,,,,,,,,,1.9,322.3491252,None,None,0,324.3782052,None,324.3782052,None,324.3782052,None,325.2675023,None,,,,,,,,,,,,,,,,,,,,,,,,,,,,,,,,,,,,,,,,,,,,,,,,,,P033,fencog,1,Post,2022_Apr_12_1149,Go No-Go Task,2021.1.4,120.112329
EPracticeConditions/YellowScram.csv,"Rule: When you see a yellow image, do not press 'spacebar'.",Images/Scram1/HF04_NC.jpg,Scramble,Blue,Images/Blue.jpg,space,,,,,,,0,3,3,3,0,4,4,2,,,,,,,,,,,,,,,,,,,,,,,,,,,,,,,,,,,,,,,,,,,,,,,,,,,1.5,327.2653622,None,space,1,328.8934852,None,328.8934852,None,328.8934852,None,329.7821663,None,0.2509757,,,,,,,,,,,,,,,,,,,,,,,,,,,,,,,,,,,,,,,,,,,,,,,,,P033,fencog,1,Post,2022_Apr_12_1149,Go No-Go Task,2021.1.4,120.112329
EPracticeConditions/YellowScram.csv,"Rule: When you see a yellow image, do not press 'spacebar'.",Images/Scram1/AF07NES.jpg,Scramble,Blue,Images/Blue.jpg,space,,,,,,,0,3,3,3,0,5,5,3,,,,,,,,,,,,,,,,,,,,,,,,,,,,,,,,,,,,,,,,,,,,,,,,,,,1.8,331.7820454,None,space,1,333.7088147,None,333.7088147,None,333.7088147,None,334.5908497,None,0.3159306,,,,,,,,,,,,,,,,,,,,,,,,,,,,,,,,,,,,,,,,,,,,,,,,,P033,fencog,1,Post,2022_Apr_12_1149,Go No-Go Task,2021.1.4,120.112329
EPracticeConditions/YellowScram.csv,"Rule: When you see a yellow image, do not press 'spacebar'.",Images/Scram1/BM01_NC.jpg,Scramble,Blue,Images/Blue.jpg,space,,,,,,,0,3,3,3,0,6,6,5,,,,,,,,,,,,,,,,,,,,,,,,,,,,,,,,,,,,,,,,,,,,,,,,,,,1.7,336.5966352,None,space,1,338.4073234,None,338.4073234,None,338.4073234,None,339.2986252,None,0.2896242,,,,,,,,,,,,,,,,,,,,,,,,,,,,,,,,,,,,,,,,,,,,,,,,,P033,fencog,1,Post,2022_Apr_12_1149,Go No-Go Task,2021.1.4,120.112329
EPracticeConditions/YellowScram.csv,"Rule: When you see a yellow image, do not press 'spacebar'.",Images/Scram2/HM06_NC.jpg,Scramble,Yellow,Images/Yellow.jpg,None,,,,,,,0,3,3,3,0,7,7,0,,,,,,,,,,,,,,,,,,,,,,,,,,,,,,,,,,,,,,,,,,,,,,,,,,,1.4,341.3086501,None,None,1,342.8227874,None,342.8227874,None,342.8227874,None,343.7218544,None,,,,,,,,,,,,,,,,,,,,,,,,,,,,,,,,,,,,,,,,,,,,,,,,,,P033,fencog,1,Post,2022_Apr_12_1149,Go No-Go Task,2021.1.4,120.112329
EPracticeConditions/YellowScram.csv,"Rule: When you see a yellow image, do not press 'spacebar'.",,,,,,,,,,,,0,3,3,3,,,,,,,,,,,,,,,,,,,,,,,,,,,,,,,,,,,,,,,,,,,,,,,,,,,,,,,,,,,,,,,,,,,,,,,,,,,,,,,,,,,,,,,,,,,,,,,,,,,,,,,,,,,,,,,,,,,,,P033,fencog,1,Post,2022_Apr_12_1149,Go No-Go Task,2021.1.4,120.112329
,,,,,,,,,,,,,,,,,,,,,,,,,,,,,,,,,,,,,,,,,,,,,,,,,,,,,,,,,,,,,,,,,,,,,,,,,,,,,,,,,,,,,347.2675396,None,space,8.358914,347.7457426,None,,,,,,,,,,,,,,,,,,,,,,,,,,,,,,,,,,,,,,,,,,,P033,fencog,1,Post,2022_Apr_12_1149,Go No-Go Task,2021.1.4,120.112329
,,,,,,,,,,,,,,,,,,,,,,,,,,,,,,,,,,,,,,,,,,,,,,,,,,,,,,,,,,,,,,,,,,,,,,,,,,,,,,,,,,,,,,,,,,,356.1171093,None,space,1.4437035,356.1171093,None,,,,,,,,,,,,,,,,,,,,,,,,,,,,,,,,,,,,,P033,fencog,1,Post,2022_Apr_12_1149,Go No-Go Task,2021.1.4,120.112329
,"Rule: When you see a yellow image, do not press 'spacebar'.",Images/Fearful/BM02_FC.jpg,Fear,Blue,Images/Blue.jpg,space,ParentConditions/YellowBlueBlue_v1.xlsx,BlueBlueYellow,Conditions/Version_1/YellowHappyStop.xlsx,no,PASS,0.441481779,,,,,,,,,0,0,0,0,0,0,0,0,0,0,0,0,,,,,,,,,,,,,,,,,,,,,,,,,,,,,,,,,,,,,,,,,,,,,,,,,,,,,,,,,,,,,,,,,357.6815532,None,360.6666653,None,space,1.6939316,360.6666653,None,357.6815532,None,357.6815532,None,357.6815532,None,1.56,362.4281593,None,space,1,0.2529181,364.0994158,None,364.0994158,None,364.0994158,None,,,,,,,,,,,P033,fencog,1,Post,2022_Apr_12_1149,Go No-Go Task,2021.1.4,120.112329
,"Rule: When you see a yellow image, do not press 'spacebar'.",Images/Fearful/HF05_FC.jpg,Fear,Blue,Images/Blue.jpg,space,ParentConditions/YellowBlueBlue_v1.xlsx,BlueBlueYellow,Conditions/Version_1/YellowHappyStop.xlsx,no,PASS,0.494965127,,,,,,,,,0,0,0,0,0,0,0,0,0,1,1,1,,,,,,,,,,,,,,,,,,,,,,,,,,,,,,,,,,,,,,,,,,,,,,,,,,,,,,,,,,,,,,,,,,,,,,,,,,,,,,,1.69,364.4965852,None,space,1,0.268953,366.3157529,None,366.3157529,None,366.3157529,None,,,,,,,,,,,P033,fencog,1,Post,2022_Apr_12_1149,Go No-Go Task,2021.1.4,120.112329
,"Rule: When you see a yellow image, do not press 'spacebar'.",Images/Happy/AF32HAS.jpg,Happy,Yellow,Images/Yellow.jpg,None,ParentConditions/YellowBlueBlue_v1.xlsx,BlueBlueYellow,Conditions/Version_1/YellowHappyStop.xlsx,yes,PASS,0.369015391,,,,,,,,,0,0,0,0,0,0,0,0,0,2,2,2,,,,,,,,,,,,,,,,,,,,,,,,,,,,,,,,,,,,,,,,,,,,,,,,,,,,,,,,,,,,,,,,,,,,,,,,,,,,,,,1.96,366.6935664,None,None,1,,368.7818078,None,368.7818078,None,368.7818078,None,,,,,,,,,,,P033,fencog,1,Post,2022_Apr_12_1149,Go No-Go Task,2021.1.4,120.112329
,"Rule: When you see a yellow image, do not press 'spacebar'.",Images/Happy/AM32HAS.jpg,Happy,Yellow,Images/Yellow.jpg,None,ParentConditions/YellowBlueBlue_v1.xlsx,BlueBlueYellow,Conditions/Version_1/YellowHappyStop.xlsx,yes,PASS,0.092401343,,,,,,,,,0,0,0,0,0,0,0,0,0,3,3,3,,,,,,,,,,,,,,,,,,,,,,,,,,,,,,,,,,,,,,,,,,,,,,,,,,,,,,,,,,,,,,,,,,,,,,,,,,,,,,,1.33,369.17061,None,None,1,,370.6144533,None,370.6144533,None,370.6144533,None,,,,,,,,,,,P033,fencog,1,Post,2022_Apr_12_1149,Go No-Go Task,2021.1.4,120.112329
,"Rule: When you see a yellow image, do not press 'spacebar'.",Images/Fearful/AF07FS.jpg,Fear,Blue,Images/Blue.jpg,space,ParentConditions/YellowBlueBlue_v1.xlsx,BlueBlueYellow,Conditions/Version_1/YellowHappyStop.xlsx,no,PASS,0.401330001,,,,,,,,,0,0,0,0,0,0,0,0,0,4,4,4,,,,,,,,,,,,,,,,,,,,,,,,,,,,,,,,,,,,,,,,,,,,,,,,,,,,,,,,,,,,,,,,,,,,,,,,,,,,,,,1.29,371.0184488,None,space,1,0.2739931,372.4306327,None,372.4306327,None,372.4306327,None,,,,,,,,,,,P033,fencog,1,Post,2022_Apr_12_1149,Go No-Go Task,2021.1.4,120.112329
,"Rule: When you see a yellow image, do not press 'spacebar'.",Images/Fearful/AM30AFS.jpg,Fear,Blue,Images/Blue.jpg,space,ParentConditions/YellowBlueBlue_v1.xlsx,BlueBlueYellow,Conditions/Version_1/YellowHappyStop.xlsx,no,PASS,0.502651295,,,,,,,,,0,0,0,0,0,0,0,0,0,5,5,5,,,,,,,,,,,,,,,,,,,,,,,,,,,,,,,,,,,,,,,,,,,,,,,,,,,,,,,,,,,,,,,,,,,,,,,,,,,,,,,1.45,372.8211371,None,space,1,0.2843049,374.3883499,None,374.3883499,None,374.3883499,None,,,,,,,,,,,P033,fencog,1,Post,2022_Apr_12_1149,Go No-Go Task,2021.1.4,120.112329
,"Rule: When you see a yellow image, do not press 'spacebar'.",Images/Happy/BM03_HO.jpg,Happy,Yellow,Images/Yellow.jpg,None,ParentConditions/YellowBlueBlue_v1.xlsx,BlueBlueYellow,Conditions/Version_1/YellowHappyStop.xlsx,yes,PASS,0.390455614,,,,,,,,,0,0,0,0,0,0,0,0,0,6,6,6,,,,,,,,,,,,,,,,,,,,,,,,,,,,,,,,,,,,,,,,,,,,,,,,,,,,,,,,,,,,,,,,,,,,,,,,,,,,,,,1.39,374.780666,None,None,1,,376.2961402,None,376.2961402,None,376.2961402,None,,,,,,,,,,,P033,fencog,1,Post,2022_Apr_12_1149,Go No-Go Task,2021.1.4,120.112329
,"Rule: When you see a yellow image, do not press 'spacebar'.",Images/Fearful/HM06_FC.jpg,Fear,Blue,Images/Blue.jpg,space,ParentConditions/YellowBlueBlue_v1.xlsx,BlueBlueYellow,Conditions/Version_1/YellowHappyStop.xlsx,no,PASS,0.829587087,,,,,,,,,0,0,0,0,0,0,0,0,0,7,7,7,,,,,,,,,,,,,,,,,,,,,,,,,,,,,,,,,,,,,,,,,,,,,,,,,,,,,,,,,,,,,,,,,,,,,,,,,,,,,,,1.71,376.676003,None,space,1,0.2327066,378.5121406,None,378.5121406,None,378.5121406,None,,,,,,,,,,,P033,fencog,1,Post,2022_Apr_12_1149,Go No-Go Task,2021.1.4,120.112329
,"Rule: When you see a yellow image, do not press 'spacebar'.",Images/Fearful/AF19AFS.jpg,Fear,Blue,Images/Blue.jpg,space,ParentConditions/YellowBlueBlue_v1.xlsx,BlueBlueYellow,Conditions/Version_1/YellowHappyStop.xlsx,no,PASS,0.314571893,,,,,,,,,0,0,0,0,0,0,0,0,0,8,8,8,,,,,,,,,,,,,,,,,,,,,,,,,,,,,,,,,,,,,,,,,,,,,,,,,,,,,,,,,,,,,,,,,,,,,,,,,,,,,,,1.62,378.8992949,None,space,1,0.3001243,380.6366143,None,380.6366143,None,380.6366143,None,,,,,,,,,,,P033,fencog,1,Post,2022_Apr_12_1149,Go No-Go Task,2021.1.4,120.112329
,"Rule: When you see a yellow image, do not press 'spacebar'.",Images/Happy/AF30HAS.jpg,Happy,Yellow,Images/Yellow.jpg,None,ParentConditions/YellowBlueBlue_v1.xlsx,BlueBlueYellow,Conditions/Version_1/YellowHappyStop.xlsx,yes,PASS,0.14544836,,,,,,,,,0,0,0,0,0,0,0,0,0,9,9,9,,,,,,,,,,,,,,,,,,,,,,,,,,,,,,,,,,,,,,,,,,,,,,,,,,,,,,,,,,,,,,,,,,,,,,,,,,,,,,,1.86,381.0317846,None,None,1,,383.0108086,None,383.0108086,None,383.0108086,None,,,,,,,,,,,P033,fencog,1,Post,2022_Apr_12_1149,Go No-Go Task,2021.1.4,120.112329
,"Rule: When you see a yellow image, do not press 'spacebar'.",Images/Fearful/AF25AFS.jpg,Fear,Blue,Images/Blue.jpg,space,ParentConditions/YellowBlueBlue_v1.xlsx,BlueBlueYellow,Conditions/Version_1/YellowHappyStop.xlsx,no,PASS,0.31319632,,,,,,,,,0,0,0,0,0,0,0,0,0,10,10,10,,,,,,,,,,,,,,,,,,,,,,,,,,,,,,,,,,,,,,,,,,,,,,,,,,,,,,,,,,,,,,,,,,,,,,,,,,,,,,,1.23,383.4057731,None,space,1,0.3442653,384.7603032,None,384.7603032,None,384.7603032,None,,,,,,,,,,,P033,fencog,1,Post,2022_Apr_12_1149,Go No-Go Task,2021.1.4,120.112329
,"Rule: When you see a yellow image, do not press 'spacebar'.",Images/Fearful/AF30AFS.jpg,Fear,Blue,Images/Blue.jpg,space,ParentConditions/YellowBlueBlue_v1.xlsx,BlueBlueYellow,Conditions/Version_1/YellowHappyStop.xlsx,no,PASS,0.985479943,,,,,,,,,0,0,0,0,0,0,0,0,0,11,11,11,,,,,,,,,,,,,,,,,,,,,,,,,,,,,,,,,,,,,,,,,,,,,,,,,,,,,,,,,,,,,,,,,,,,,,,,,,,,,,,1.41,385.1503779,None,space,1,0.2280652,386.6846612,None,386.6846612,None,386.6846612,None,,,,,,,,,,,P033,fencog,1,Post,2022_Apr_12_1149,Go No-Go Task,2021.1.4,120.112329
,"Rule: When you see a yellow image, do not press 'spacebar'.",Images/Happy/BF10_HO.jpg,Happy,Yellow,Images/Yellow.jpg,None,ParentConditions/YellowBlueBlue_v1.xlsx,BlueBlueYellow,Conditions/Version_1/YellowHappyStop.xlsx,yes,PASS,0.936818732,,,,,,,,,0,0,0,0,0,0,0,0,0,12,12,12,,,,,,,,,,,,,,,,,,,,,,,,,,,,,,,,,,,,,,,,,,,,,,,,,,,,,,,,,,,,,,,,,,,,,,,,,,,,,,,1.21,387.0757616,None,None,1,,388.4092249,None,388.4092249,None,388.4092249,None,,,,,,,,,,,P033,fencog,1,Post,2022_Apr_12_1149,Go No-Go Task,2021.1.4,120.112329
,"Rule: When you see a yellow image, do not press 'spacebar'.",Images/Fearful/AM06_FO.jpg,Fear,Blue,Images/Blue.jpg,space,ParentConditions/YellowBlueBlue_v1.xlsx,BlueBlueYellow,Conditions/Version_1/YellowHappyStop.xlsx,no,PASS,0.60307002,,,,,,,,,0,0,0,0,0,0,0,0,0,13,13,13,,,,,,,,,,,,,,,,,,,,,,,,,,,,,,,,,,,,,,,,,,,,,,,,,,,,,,,,,,,,,,,,,,,,,,,,,,,,,,,1.4,388.8054625,None,space,1,0.2198718,390.3253254,None,390.3253254,None,390.3253254,None,,,,,,,,,,,P033,fencog,1,Post,2022_Apr_12_1149,Go No-Go Task,2021.1.4,120.112329
,"Rule: When you see a yellow image, do not press 'spacebar'.",Images/Happy/AM24HAS.jpg,Happy,Yellow,Images/Yellow.jpg,None,ParentConditions/YellowBlueBlue_v1.xlsx,BlueBlueYellow,Conditions/Version_1/YellowHappyStop.xlsx,yes,PASS,0.840148819,,,,,,,,,0,0,0,0,0,0,0,0,0,14,14,14,,,,,,,,,,,,,,,,,,,,,,,,,,,,,,,,,,,,,,,,,,,,,,,,,,,,,,,,,,,,,,,,,,,,,,,,,,,,,,,1.61,390.7146829,None,None,1,,392.4413576,None,392.4413576,None,392.4413576,None,,,,,,,,,,,P033,fencog,1,Post,2022_Apr_12_1149,Go No-Go Task,2021.1.4,120.112329
,"Rule: When you see a yellow image, do not press 'spacebar'.",Images/Fearful/AF21AFS.jpg,Fear,Blue,Images/Blue.jpg,space,ParentConditions/YellowBlueBlue_v1.xlsx,BlueBlueYellow,Conditions/Version_1/YellowHappyStop.xlsx,no,PASS,0.95610524,,,,,,,,,0,0,0,0,0,0,0,0,0,15,15,15,,,,,,,,,,,,,,,,,,,,,,,,,,,,,,,,,,,,,,,,,,,,,,,,,,,,,,,,,,,,,,,,,,,,,,,,,,,,,,,1.55,392.8305809,None,space,1,0.2136889,394.4990991,None,394.4990991,None,394.4990991,None,,,,,,,,,,,P033,fencog,1,Post,2022_Apr_12_1149,Go No-Go Task,2021.1.4,120.112329
,"Rule: When you see a yellow image, do not press 'spacebar'.",Images/Happy/AM06_HC.jpg,Happy,Yellow,Images/Yellow.jpg,None,ParentConditions/YellowBlueBlue_v1.xlsx,BlueBlueYellow,Conditions/Version_1/YellowHappyStop.xlsx,yes,PASS,0.363259446,,,,,,,,,0,0,0,0,0,0,0,0,0,16,16,16,,,,,,,,,,,,,,,,,,,,,,,,,,,,,,,,,,,,,,,,,,,,,,,,,,,,,,,,,,,,,,,,,,,,,,,,,,,,,,,1.58,394.8875379,None,None,1,,396.5901435,None,396.5901435,None,396.5901435,None,,,,,,,,,,,P033,fencog,1,Post,2022_Apr_12_1149,Go No-Go Task,2021.1.4,120.112329
,"Rule: When you see a yellow image, do not press 'spacebar'.",Images/Fearful/AF10_FC.jpg,Fear,Blue,Images/Blue.jpg,space,ParentConditions/YellowBlueBlue_v1.xlsx,BlueBlueYellow,Conditions/Version_1/YellowHappyStop.xlsx,no,PASS,0.093575665,,,,,,,,,0,0,0,0,0,0,0,0,0,17,17,17,,,,,,,,,,,,,,,,,,,,,,,,,,,,,,,,,,,,,,,,,,,,,,,,,,,,,,,,,,,,,,,,,,,,,,,,,,,,,,,1.68,396.9802492,None,space,1,0.1955096,398.7812697,None,398.7812697,None,398.7812697,None,,,,,,,,,,,P033,fencog,1,Post,2022_Apr_12_1149,Go No-Go Task,2021.1.4,120.112329
,"Rule: When you see a yellow image, do not press 'spacebar'.",Images/Fearful/BM03_FC.jpg,Fear,Blue,Images/Blue.jpg,space,ParentConditions/YellowBlueBlue_v1.xlsx,BlueBlueYellow,Conditions/Version_1/YellowHappyStop.xlsx,no,PASS,0.789884489,,,,,,,,,0,0,0,0,0,0,0,0,0,18,18,18,,,,,,,,,,,,,,,,,,,,,,,,,,,,,,,,,,,,,,,,,,,,,,,,,,,,,,,,,,,,,,,,,,,,,,,,,,,,,,,1.85,399.169192,None,space,1,0.3418015,401.1388624,None,401.1388624,None,401.1388624,None,,,,,,,,,,,P033,fencog,1,Post,2022_Apr_12_1149,Go No-Go Task,2021.1.4,120.112329
,"Rule: When you see a yellow image, do not press 'spacebar'.",Images/Fearful/HM09_FC.jpg,Fear,Blue,Images/Blue.jpg,space,ParentConditions/YellowBlueBlue_v1.xlsx,BlueBlueYellow,Conditions/Version_1/YellowHappyStop.xlsx,no,PASS,0.819858336,,,,,,,,,0,0,0,0,0,0,0,0,0,19,19,19,,,,,,,,,,,,,,,,,,,,,,,,,,,,,,,,,,,,,,,,,,,,,,,,,,,,,,,,,,,,,,,,,,,,,,,,,,,,,,,1.49,401.5347192,None,space,1,0.214615,403.1382125,None,403.1382125,None,403.1382125,None,,,,,,,,,,,P033,fencog,1,Post,2022_Apr_12_1149,Go No-Go Task,2021.1.4,120.112329
,"Rule: When you see a yellow image, do not press 'spacebar'.",Images/Fearful/AM04_FO.jpg,Fear,Blue,Images/Blue.jpg,space,ParentConditions/YellowBlueBlue_v1.xlsx,BlueBlueYellow,Conditions/Version_1/YellowHappyStop.xlsx,no,PASS,0.959535025,,,,,,,,,0,0,0,0,0,0,0,0,0,20,20,20,,,,,,,,,,,,,,,,,,,,,,,,,,,,,,,,,,,,,,,,,,,,,,,,,,,,,,,,,,,,,,,,,,,,,,,,,,,,,,,1.57,403.5435915,None,space,1,0.2186729,405.2459199,None,405.2459199,None,405.2459199,None,,,,,,,,,,,P033,fencog,1,Post,2022_Apr_12_1149,Go No-Go Task,2021.1.4,120.112329
,"Rule: When you see a yellow image, do not press 'spacebar'.",Images/Fearful/AF11AFS.jpg,Fear,Blue,Images/Blue.jpg,space,ParentConditions/YellowBlueBlue_v1.xlsx,BlueBlueYellow,Conditions/Version_1/YellowHappyStop.xlsx,no,PASS,0.727618402,,,,,,,,,0,0,0,0,0,0,0,0,0,21,21,21,,,,,,,,,,,,,,,,,,,,,,,,,,,,,,,,,,,,,,,,,,,,,,,,,,,,,,,,,,,,,,,,,,,,,,,,,,,,,,,1.92,405.6276197,None,space,1,0.1624687,407.6702137,None,407.6702137,None,407.6702137,None,,,,,,,,,,,P033,fencog,1,Post,2022_Apr_12_1149,Go No-Go Task,2021.1.4,120.112329
,"Rule: When you see a yellow image, do not press 'spacebar'.",Images/Fearful/AM10_FO.jpg,Fear,Blue,Images/Blue.jpg,space,ParentConditions/YellowBlueBlue_v1.xlsx,BlueBlueYellow,Conditions/Version_1/YellowHappyStop.xlsx,no,PASS,0.799585582,,,,,,,,,0,0,0,0,0,0,0,0,0,22,22,22,,,,,,,,,,,,,,,,,,,,,,,,,,,,,,,,,,,,,,,,,,,,,,,,,,,,,,,,,,,,,,,,,,,,,,,,,,,,,,,1.98,408.0663218,None,space,1,0.2796314,410.1694408,None,410.1694408,None,410.1694408,None,,,,,,,,,,,P033,fencog,1,Post,2022_Apr_12_1149,Go No-Go Task,2021.1.4,120.112329
,"Rule: When you see a yellow image, do not press 'spacebar'.",Images/Fearful/WF04_FC.jpg,Fear,Blue,Images/Blue.jpg,space,ParentConditions/YellowBlueBlue_v1.xlsx,BlueBlueYellow,Conditions/Version_1/YellowHappyStop.xlsx,no,PASS,0.007163238,,,,,,,,,0,0,0,0,0,0,0,0,0,23,23,23,,,,,,,,,,,,,,,,,,,,,,,,,,,,,,,,,,,,,,,,,,,,,,,,,,,,,,,,,,,,,,,,,,,,,,,,,,,,,,,1.44,410.5661656,None,space,1,0.2248442,412.1356642,None,412.1356642,None,412.1356642,None,,,,,,,,,,,P033,fencog,1,Post,2022_Apr_12_1149,Go No-Go Task,2021.1.4,120.112329
,"Rule: When you see a yellow image, do not press 'spacebar'.",Images/Fearful/AF28AFS.jpg,Fear,Blue,Images/Blue.jpg,space,ParentConditions/YellowBlueBlue_v1.xlsx,BlueBlueYellow,Conditions/Version_1/YellowHappyStop.xlsx,no,PASS,0.657857441,,,,,,,,,0,0,0,0,0,0,0,0,0,24,24,24,,,,,,,,,,,,,,,,,,,,,,,,,,,,,,,,,,,,,,,,,,,,,,,,,,,,,,,,,,,,,,,,,,,,,,,,,,,,,,,1.34,412.5193798,None,space,1,0.2236174,413.9850357,None,413.9850357,None,413.9850357,None,,,,,,,,,,,P033,fencog,1,Post,2022_Apr_12_1149,Go No-Go Task,2021.1.4,120.112329
,"Rule: When you see a yellow image, do not press 'spacebar'.",Images/Fearful/WF11_FC.jpg,Fear,Blue,Images/Blue.jpg,space,ParentConditions/YellowBlueBlue_v1.xlsx,BlueBlueYellow,Conditions/Version_1/YellowHappyStop.xlsx,no,PASS,0.160010689,,,,,,,,,0,0,0,0,0,0,0,0,0,25,25,25,,,,,,,,,,,,,,,,,,,,,,,,,,,,,,,,,,,,,,,,,,,,,,,,,,,,,,,,,,,,,,,,,,,,,,,,,,,,,,,1.84,414.3704387,None,space,1,0.2339492,416.3426512,None,416.3426512,None,416.3426512,None,,,,,,,,,,,P033,fencog,1,Post,2022_Apr_12_1149,Go No-Go Task,2021.1.4,120.112329
,"Rule: When you see a yellow image, do not press 'spacebar'.",Images/Fearful/AM17AFS.jpg,Fear,Blue,Images/Blue.jpg,space,ParentConditions/YellowBlueBlue_v1.xlsx,BlueBlueYellow,Conditions/Version_1/YellowHappyStop.xlsx,no,PASS,0.117736516,,,,,,,,,0,0,0,0,0,0,0,0,0,26,26,26,,,,,,,,,,,,,,,,,,,,,,,,,,,,,,,,,,,,,,,,,,,,,,,,,,,,,,,,,,,,,,,,,,,,,,,,,,,,,,,1.42,416.7302472,None,space,1,0.2217054,418.2670808,None,418.2670808,None,418.2670808,None,,,,,,,,,,,P033,fencog,1,Post,2022_Apr_12_1149,Go No-Go Task,2021.1.4,120.112329
,"Rule: When you see a yellow image, do not press 'spacebar'.",Images/Happy/AF27HAS.jpg,Happy,Yellow,Images/Yellow.jpg,None,ParentConditions/YellowBlueBlue_v1.xlsx,BlueBlueYellow,Conditions/Version_1/YellowHappyStop.xlsx,yes,PASS,0.314186956,,,,,,,,,0,0,0,0,0,0,0,0,0,27,27,27,,,,,,,,,,,,,,,,,,,,,,,,,,,,,,,,,,,,,,,,,,,,,,,,,,,,,,,,,,,,,,,,,,,,,,,,,,,,,,,1.36,418.6555833,None,space,0,0.1873248,420.1415567,None,420.1415567,None,420.1415567,None,,,,,,,,,,,P033,fencog,1,Post,2022_Apr_12_1149,Go No-Go Task,2021.1.4,120.112329
,"Rule: When you see a yellow image, do not press 'spacebar'.",Images/Fearful/BF10_FO.jpg,Fear,Blue,Images/Blue.jpg,space,ParentConditions/YellowBlueBlue_v1.xlsx,BlueBlueYellow,Conditions/Version_1/YellowHappyStop.xlsx,no,PASS,0.64738364,,,,,,,,,0,0,0,0,0,0,0,0,0,28,28,28,,,,,,,,,,,,,,,,,,,,,,,,,,,,,,,,,,,,,,,,,,,,,,,,,,,,,,,,,,,,,,,,,,,,,,,,,,,,,,,1.82,420.530712,None,space,1,0.3184557,422.4741582,None,422.4741582,None,422.4741582,None,,,,,,,,,,,P033,fencog,1,Post,2022_Apr_12_1149,Go No-Go Task,2021.1.4,120.112329
,"Rule: When you see a yellow image, do not press 'spacebar'.",Images/Fearful/HF04_FO.jpg,Fear,Blue,Images/Blue.jpg,space,ParentConditions/YellowBlueBlue_v1.xlsx,BlueBlueYellow,Conditions/Version_1/YellowHappyStop.xlsx,no,PASS,0.657365537,,,,,,,,,0,0,0,0,0,0,0,0,0,29,29,29,,,,,,,,,,,,,,,,,,,,,,,,,,,,,,,,,,,,,,,,,,,,,,,,,,,,,,,,,,,,,,,,,,,,,,,,,,,,,,,1.64,422.8698537,None,space,1,0.2172042,424.6231336,None,424.6231336,None,424.6231336,None,,,,,,,,,,,P033,fencog,1,Post,2022_Apr_12_1149,Go No-Go Task,2021.1.4,120.112329
,"Rule: When you see a yellow image, do not press 'spacebar'.",Images/Happy/AF26HAS.jpg,Happy,Yellow,Images/Yellow.jpg,None,ParentConditions/YellowBlueBlue_v1.xlsx,BlueBlueYellow,Conditions/Version_1/YellowHappyStop.xlsx,yes,PASS,0.963428827,,,,,,,,,0,0,0,0,0,0,0,0,0,30,30,30,,,,,,,,,,,,,,,,,,,,,,,,,,,,,,,,,,,,,,,,,,,,,,,,,,,,,,,,,,,,,,,,,,,,,,,,,,,,,,,1.91,425.0222623,None,space,0,0.2564199,427.0562568,None,427.0562568,None,427.0562568,None,,,,,,,,,,,P033,fencog,1,Post,2022_Apr_12_1149,Go No-Go Task,2021.1.4,120.112329
,"Rule: When you see a yellow image, do not press 'spacebar'.",Images/Happy/HF09_HE.jpg,Happy,Yellow,Images/Yellow.jpg,None,ParentConditions/YellowBlueBlue_v1.xlsx,BlueBlueYellow,Conditions/Version_1/YellowHappyStop.xlsx,yes,PASS,0.280028124,,,,,,,,,0,0,0,0,0,0,0,0,0,31,31,31,,,,,,,,,,,,,,,,,,,,,,,,,,,,,,,,,,,,,,,,,,,,,,,,,,,,,,,,,,,,,,,,,,,,,,,,,,,,,,,1.47,427.4419633,None,None,1,,429.0138775,None,429.0138775,None,429.0138775,None,,,,,,,,,,,P033,fencog,1,Post,2022_Apr_12_1149,Go No-Go Task,2021.1.4,120.112329
,"Rule: When you see a yellow image, do not press 'spacebar'.",Images/Fearful/AM16AFS.jpg,Fear,Blue,Images/Blue.jpg,space,ParentConditions/YellowBlueBlue_v1.xlsx,BlueBlueYellow,Conditions/Version_1/YellowHappyStop.xlsx,no,PASS,0.568141493,,,,,,,,,0,0,0,0,0,0,0,0,0,32,32,32,,,,,,,,,,,,,,,,,,,,,,,,,,,,,,,,,,,,,,,,,,,,,,,,,,,,,,,,,,,,,,,,,,,,,,,,,,,,,,,1.87,429.4189442,None,space,1,0.2360469,431.4048699,None,431.4048699,None,431.4048699,None,,,,,,,,,,,P033,fencog,1,Post,2022_Apr_12_1149,Go No-Go Task,2021.1.4,120.112329
,"Rule: When you see a yellow image, do not press 'spacebar'.",Images/Fearful/WF05_FO.jpg,Fear,Blue,Images/Blue.jpg,space,ParentConditions/YellowBlueBlue_v1.xlsx,BlueBlueYellow,Conditions/Version_1/YellowHappyStop.xlsx,no,PASS,0.237591734,,,,,,,,,0,0,0,0,0,0,0,0,0,33,33,33,,,,,,,,,,,,,,,,,,,,,,,,,,,,,,,,,,,,,,,,,,,,,,,,,,,,,,,,,,,,,,,,,,,,,,,,,,,,,,,1.8,431.8087468,None,space,1,0.279333,433.7293192,None,433.7293192,None,433.7293192,None,,,,,,,,,,,P033,fencog,1,Post,2022_Apr_12_1149,Go No-Go Task,2021.1.4,120.112329
,"Rule: When you see a yellow image, do not press 'spacebar'.",Images/Fearful/AM03_FC.jpg,Fear,Blue,Images/Blue.jpg,space,ParentConditions/YellowBlueBlue_v1.xlsx,BlueBlueYellow,Conditions/Version_1/YellowHappyStop.xlsx,no,PASS,0.45277772,,,,,,,,,0,0,0,0,0,0,0,0,0,34,34,34,,,,,,,,,,,,,,,,,,,,,,,,,,,,,,,,,,,,,,,,,,,,,,,,,,,,,,,,,,,,,,,,,,,,,,,,,,,,,,,1.7,434.1177178,None,space,1,0.3196491,435.936961,None,435.936961,None,435.936961,None,,,,,,,,,,,P033,fencog,1,Post,2022_Apr_12_1149,Go No-Go Task,2021.1.4,120.112329
,"Rule: When you see a yellow image, do not press 'spacebar'.",Images/Fearful/AM01AFS.jpg,Fear,Blue,Images/Blue.jpg,space,ParentConditions/YellowBlueBlue_v1.xlsx,BlueBlueYellow,Conditions/Version_1/YellowHappyStop.xlsx,no,PASS,0.482683093,,,,,,,,,0,0,0,0,0,0,0,0,0,35,35,35,,,,,,,,,,,,,,,,,,,,,,,,,,,,,,,,,,,,,,,,,,,,,,,,,,,,,,,,,,,,,,,,,,,,,,,,,,,,,,,1.31,436.3267974,None,space,1,0.2079019,437.7530092,None,437.7530092,None,437.7530092,None,,,,,,,,,,,P033,fencog,1,Post,2022_Apr_12_1149,Go No-Go Task,2021.1.4,120.112329
,"Rule: When you see a yellow image, do not press 'spacebar'.",Images/Fearful/HM04_FC.jpg,Fear,Blue,Images/Blue.jpg,space,ParentConditions/YellowBlueBlue_v1.xlsx,BlueBlueYellow,Conditions/Version_1/YellowHappyStop.xlsx,no,PASS,0.460690292,,,,,,,,,0,0,0,0,0,0,0,0,0,36,36,36,,,,,,,,,,,,,,,,,,,,,,,,,,,,,,,,,,,,,,,,,,,,,,,,,,,,,,,,,,,,,,,,,,,,,,,,,,,,,,,1.27,438.150494,None,space,1,0.2160888,439.5525095,None,439.5525095,None,439.5525095,None,,,,,,,,,,,P033,fencog,1,Post,2022_Apr_12_1149,Go No-Go Task,2021.1.4,120.112329
,"Rule: When you see a yellow image, do not press 'spacebar'.",Images/Fearful/BF18_FC.jpg,Fear,Blue,Images/Blue.jpg,space,ParentConditions/YellowBlueBlue_v1.xlsx,BlueBlueYellow,Conditions/Version_1/YellowHappyStop.xlsx,no,PASS,0.633030328,,,,,,,,,0,0,0,0,0,0,0,0,0,37,37,37,,,,,,,,,,,,,,,,,,,,,,,,,,,,,,,,,,,,,,,,,,,,,,,,,,,,,,,,,,,,,,,,,,,,,,,,,,,,,,,1.52,439.9381314,None,space,1,0.2475138,441.5769863,None,441.5769863,None,441.5769863,None,,,,,,,,,,,P033,fencog,1,Post,2022_Apr_12_1149,Go No-Go Task,2021.1.4,120.112329
,"Rule: When you see a yellow image, do not press 'spacebar'.",Images/Fearful/AF07_FO.jpg,Fear,Blue,Images/Blue.jpg,space,ParentConditions/YellowBlueBlue_v1.xlsx,BlueBlueYellow,Conditions/Version_1/YellowHappyStop.xlsx,no,PASS,0.341478324,,,,,,,,,0,0,0,0,0,0,0,0,0,38,38,38,,,,,,,,,,,,,,,,,,,,,,,,,,,,,,,,,,,,,,,,,,,,,,,,,,,,,,,,,,,,,,,,,,,,,,,,,,,,,,,2,441.9657179,None,space,1,0.2205158,444.0761321,None,444.0761321,None,444.0761321,None,,,,,,,,,,,P033,fencog,1,Post,2022_Apr_12_1149,Go No-Go Task,2021.1.4,120.112329
,"Rule: When you see a yellow image, do not press 'spacebar'.",Images/Fearful/AM24AFS.jpg,Fear,Blue,Images/Blue.jpg,space,ParentConditions/YellowBlueBlue_v1.xlsx,BlueBlueYellow,Conditions/Version_1/YellowHappyStop.xlsx,no,PASS,0.778148808,,,,,,,,,0,0,0,0,0,0,0,0,0,39,39,39,,,,,,,,,,,,,,,,,,,,,,,,,,,,,,,,,,,,,,,,,,,,,,,,,,,,,,,,,,,,,,,,,,,,,,,,,,,,,,,1.76,444.4824227,None,space,1,0.1381295,446.3505638,None,446.3505638,None,446.3505638,None,,,,,,,,,,,P033,fencog,1,Post,2022_Apr_12_1149,Go No-Go Task,2021.1.4,120.112329
,"Rule: When you see a yellow image, do not press 'spacebar'.",Images/Fearful/AM03AFS.jpg,Fear,Blue,Images/Blue.jpg,space,ParentConditions/YellowBlueBlue_v1.xlsx,BlueBlueYellow,Conditions/Version_1/YellowHappyStop.xlsx,no,PASS,0.230440928,,,,,,,,,0,0,0,0,0,0,0,0,0,40,40,40,,,,,,,,,,,,,,,,,,,,,,,,,,,,,,,,,,,,,,,,,,,,,,,,,,,,,,,,,,,,,,,,,,,,,,,,,,,,,,,1.26,446.7563097,None,space,1,0.2353303,448.1332641,None,448.1332641,None,448.1332641,None,,,,,,,,,,,P033,fencog,1,Post,2022_Apr_12_1149,Go No-Go Task,2021.1.4,120.112329
,"Rule: When you see a yellow image, do not press 'spacebar'.",Images/Fearful/BM08_FC.jpg,Fear,Blue,Images/Blue.jpg,space,ParentConditions/YellowBlueBlue_v1.xlsx,BlueBlueYellow,Conditions/Version_1/YellowHappyStop.xlsx,no,PASS,0.654875652,,,,,,,,,0,0,0,0,0,0,0,0,0,41,41,41,,,,,,,,,,,,,,,,,,,,,,,,,,,,,,,,,,,,,,,,,,,,,,,,,,,,,,,,,,,,,,,,,,,,,,,,,,,,,,,1.46,448.5278035,None,space,1,0.2056397,450.0993267,None,450.0993267,None,450.0993267,None,,,,,,,,,,,P033,fencog,1,Post,2022_Apr_12_1149,Go No-Go Task,2021.1.4,120.112329
,"Rule: When you see a yellow image, do not press 'spacebar'.",Images/Fearful/AF32AFS.jpg,Fear,Blue,Images/Blue.jpg,space,ParentConditions/YellowBlueBlue_v1.xlsx,BlueBlueYellow,Conditions/Version_1/YellowHappyStop.xlsx,no,PASS,0.940165055,,,,,,,,,0,0,0,0,0,0,0,0,0,42,42,42,,,,,,,,,,,,,,,,,,,,,,,,,,,,,,,,,,,,,,,,,,,,,,,,,,,,,,,,,,,,,,,,,,,,,,,,,,,,,,,1.95,450.4980643,None,space,1,0.2436668,452.556949,None,452.556949,None,452.556949,None,,,,,,,,,,,P033,fencog,1,Post,2022_Apr_12_1149,Go No-Go Task,2021.1.4,120.112329
,"Rule: When you see a yellow image, do not press 'spacebar'.",Images/Fearful/AF26AFS.jpg,Fear,Blue,Images/Blue.jpg,space,ParentConditions/YellowBlueBlue_v1.xlsx,BlueBlueYellow,Conditions/Version_1/YellowHappyStop.xlsx,no,PASS,0.579925728,,,,,,,,,0,0,0,0,0,0,0,0,0,43,43,43,,,,,,,,,,,,,,,,,,,,,,,,,,,,,,,,,,,,,,,,,,,,,,,,,,,,,,,,,,,,,,,,,,,,,,,,,,,,,,,1.24,452.9616851,None,space,1,0.3014876,454.323118,None,454.323118,None,454.323118,None,,,,,,,,,,,P033,fencog,1,Post,2022_Apr_12_1149,Go No-Go Task,2021.1.4,120.112329
,"Rule: When you see a yellow image, do not press 'spacebar'.",Images/Fearful/BF09_FC.jpg,Fear,Blue,Images/Blue.jpg,space,ParentConditions/YellowBlueBlue_v1.xlsx,BlueBlueYellow,Conditions/Version_1/YellowHappyStop.xlsx,no,PASS,0.951228863,,,,,,,,,0,0,0,0,0,0,0,0,0,44,44,44,,,,,,,,,,,,,,,,,,,,,,,,,,,,,,,,,,,,,,,,,,,,,,,,,,,,,,,,,,,,,,,,,,,,,,,,,,,,,,,1.38,454.7134517,None,space,1,0.2739499,456.2225733,None,456.2225733,None,456.2225733,None,,,,,,,,,,,P033,fencog,1,Post,2022_Apr_12_1149,Go No-Go Task,2021.1.4,120.112329
,"Rule: When you see a yellow image, do not press 'spacebar'.",Images/Fearful/BM01_FO.jpg,Fear,Blue,Images/Blue.jpg,space,ParentConditions/YellowBlueBlue_v1.xlsx,BlueBlueYellow,Conditions/Version_1/YellowHappyStop.xlsx,no,PASS,0.895428731,,,,,,,,,0,0,0,0,0,0,0,0,0,45,45,45,,,,,,,,,,,,,,,,,,,,,,,,,,,,,,,,,,,,,,,,,,,,,,,,,,,,,,,,,,,,,,,,,,,,,,,,,,,,,,,1.79,456.6038327,None,space,1,0.2630397,458.5135469,None,458.5135469,None,458.5135469,None,,,,,,,,,,,P033,fencog,1,Post,2022_Apr_12_1149,Go No-Go Task,2021.1.4,120.112329
,"Rule: When you see a yellow image, do not press 'spacebar'.",Images/Happy/BF14_HO.jpg,Happy,Yellow,Images/Yellow.jpg,None,ParentConditions/YellowBlueBlue_v1.xlsx,BlueBlueYellow,Conditions/Version_1/YellowHappyStop.xlsx,yes,PASS,0.723428022,,,,,,,,,0,0,0,0,0,0,0,0,0,46,46,46,,,,,,,,,,,,,,,,,,,,,,,,,,,,,,,,,,,,,,,,,,,,,,,,,,,,,,,,,,,,,,,,,,,,,,,,,,,,,,,1.9,458.9024199,None,None,1,,460.9212587,None,460.9212587,None,460.9212587,None,,,,,,,,,,,P033,fencog,1,Post,2022_Apr_12_1149,Go No-Go Task,2021.1.4,120.112329
,"Rule: When you see a yellow image, do not press 'spacebar'.",Images/Fearful/WM11_FC.jpg,Fear,Blue,Images/Blue.jpg,space,ParentConditions/YellowBlueBlue_v1.xlsx,BlueBlueYellow,Conditions/Version_1/YellowHappyStop.xlsx,no,PASS,0.023552815,,,,,,,,,0,0,0,0,0,0,0,0,0,47,47,47,,,,,,,,,,,,,,,,,,,,,,,,,,,,,,,,,,,,,,,,,,,,,,,,,,,,,,,,,,,,,,,,,,,,,,,,,,,,,,,1.75,461.313424,None,space,1,0.2055273,463.1871519,None,463.1871519,None,463.1871519,None,,,,,,,,,,,P033,fencog,1,Post,2022_Apr_12_1149,Go No-Go Task,2021.1.4,120.112329
,"Rule: When you see a yellow image, do not press 'spacebar'.",Images/Fearful/AM02_FO.jpg,Fear,Blue,Images/Blue.jpg,space,ParentConditions/YellowBlueBlue_v1.xlsx,BlueBlueYellow,Conditions/Version_1/YellowHappyStop.xlsx,no,PASS,0.490608824,,,,,,,,,0,0,0,0,0,0,0,0,0,48,48,48,,,,,,,,,,,,,,,,,,,,,,,,,,,,,,,,,,,,,,,,,,,,,,,,,,,,,,,,,,,,,,,,,,,,,,,,,,,,,,,1.48,463.5779103,None,space,1,0.2381745,465.1865526,None,465.1865526,None,465.1865526,None,,,,,,,,,,,P033,fencog,1,Post,2022_Apr_12_1149,Go No-Go Task,2021.1.4,120.112329
,"Rule: When you see a yellow image, do not press 'spacebar'.",Images/Happy/HM09_HO.jpg,Happy,Yellow,Images/Yellow.jpg,None,ParentConditions/YellowBlueBlue_v1.xlsx,BlueBlueYellow,Conditions/Version_1/YellowHappyStop.xlsx,yes,PASS,0.517262667,,,,,,,,,0,0,0,0,0,0,0,0,0,49,49,49,,,,,,,,,,,,,,,,,,,,,,,,,,,,,,,,,,,,,,,,,,,,,,,,,,,,,,,,,,,,,,,,,,,,,,,,,,,,,,,1.88,465.5756196,None,None,1,,467.58588,None,467.58588,None,467.58588,None,,,,,,,,,,,P033,fencog,1,Post,2022_Apr_12_1149,Go No-Go Task,2021.1.4,120.112329
,"Rule: When you see a yellow image, do not press 'spacebar'.",Images/Happy/HF10_HE.jpg,Happy,Yellow,Images/Yellow.jpg,None,ParentConditions/YellowBlueBlue_v1.xlsx,BlueBlueYellow,Conditions/Version_1/YellowHappyStop.xlsx,yes,PASS,0.441501671,,,,,,,,,0,0,0,0,0,0,0,0,0,50,50,50,,,,,,,,,,,,,,,,,,,,,,,,,,,,,,,,,,,,,,,,,,,,,,,,,,,,,,,,,,,,,,,,,,,,,,,,,,,,,,,1.37,467.9706574,None,None,1,,469.4519651,None,469.4519651,None,469.4519651,None,,,,,,,,,,,P033,fencog,1,Post,2022_Apr_12_1149,Go No-Go Task,2021.1.4,120.112329
,"Rule: When you see a yellow image, do not press 'spacebar'.",Images/Fearful/AF09AFS.jpg,Fear,Blue,Images/Blue.jpg,space,ParentConditions/YellowBlueBlue_v1.xlsx,BlueBlueYellow,Conditions/Version_1/YellowHappyStop.xlsx,no,PASS,0.203297314,,,,,,,,,0,0,0,0,0,0,0,0,0,51,51,51,,,,,,,,,,,,,,,,,,,,,,,,,,,,,,,,,,,,,,,,,,,,,,,,,,,,,,,,,,,,,,,,,,,,,,,,,,,,,,,1.32,469.8490127,None,space,1,0.2519321,471.2848195,None,471.2848195,None,471.2848195,None,,,,,,,,,,,P033,fencog,1,Post,2022_Apr_12_1149,Go No-Go Task,2021.1.4,120.112329
,"Rule: When you see a yellow image, do not press 'spacebar'.",Images/Fearful/AM23AFS.jpg,Fear,Blue,Images/Blue.jpg,space,ParentConditions/YellowBlueBlue_v1.xlsx,BlueBlueYellow,Conditions/Version_1/YellowHappyStop.xlsx,no,PASS,0.91347903,,,,,,,,,0,0,0,0,0,0,0,0,0,52,52,52,,,,,,,,,,,,,,,,,,,,,,,,,,,,,,,,,,,,,,,,,,,,,,,,,,,,,,,,,,,,,,,,,,,,,,,,,,,,,,,1.28,471.6842938,None,space,1,0.3087828,473.0758332,None,473.0758332,None,473.0758332,None,,,,,,,,,,,P033,fencog,1,Post,2022_Apr_12_1149,Go No-Go Task,2021.1.4,120.112329
,"Rule: When you see a yellow image, do not press 'spacebar'.",Images/Fearful/AM05AFS.jpg,Fear,Blue,Images/Blue.jpg,space,ParentConditions/YellowBlueBlue_v1.xlsx,BlueBlueYellow,Conditions/Version_1/YellowHappyStop.xlsx,no,PASS,0.736954295,,,,,,,,,0,0,0,0,0,0,0,0,0,53,53,53,,,,,,,,,,,,,,,,,,,,,,,,,,,,,,,,,,,,,,,,,,,,,,,,,,,,,,,,,,,,,,,,,,,,,,,,,,,,,,,1.78,473.4727838,None,space,1,0.2895927,475.3752185,None,475.3752185,None,475.3752185,None,,,,,,,,,,,P033,fencog,1,Post,2022_Apr_12_1149,Go No-Go Task,2021.1.4,120.112329
,"Rule: When you see a yellow image, do not press 'spacebar'.",Images/Happy/AF28HAS.jpg,Happy,Yellow,Images/Yellow.jpg,None,ParentConditions/YellowBlueBlue_v1.xlsx,BlueBlueYellow,Conditions/Version_1/YellowHappyStop.xlsx,yes,PASS,0.271683037,,,,,,,,,0,0,0,0,0,0,0,0,0,54,54,54,,,,,,,,,,,,,,,,,,,,,,,,,,,,,,,,,,,,,,,,,,,,,,,,,,,,,,,,,,,,,,,,,,,,,,,,,,,,,,,1.97,475.7657889,None,None,1,,477.8661782,None,477.8661782,None,477.8661782,None,,,,,,,,,,,P033,fencog,1,Post,2022_Apr_12_1149,Go No-Go Task,2021.1.4,120.112329
,"Rule: When you see a yellow image, do not press 'spacebar'.",Images/Fearful/BF14_FO.jpg,Fear,Blue,Images/Blue.jpg,space,ParentConditions/YellowBlueBlue_v1.xlsx,BlueBlueYellow,Conditions/Version_1/YellowHappyStop.xlsx,no,PASS,0.643342165,,,,,,,,,0,0,0,0,0,0,0,0,0,55,55,55,,,,,,,,,,,,,,,,,,,,,,,,,,,,,,,,,,,,,,,,,,,,,,,,,,,,,,,,,,,,,,,,,,,,,,,,,,,,,,,1.43,478.243671,None,space,1,0.1672078,479.7934277,None,479.7934277,None,479.7934277,None,,,,,,,,,,,P033,fencog,1,Post,2022_Apr_12_1149,Go No-Go Task,2021.1.4,120.112329
,"Rule: When you see a yellow image, do not press 'spacebar'.",Images/Happy/AM30HAS.jpg,Happy,Yellow,Images/Yellow.jpg,None,ParentConditions/YellowBlueBlue_v1.xlsx,BlueBlueYellow,Conditions/Version_1/YellowHappyStop.xlsx,yes,PASS,0.079450542,,,,,,,,,0,0,0,0,0,0,0,0,0,56,56,56,,,,,,,,,,,,,,,,,,,,,,,,,,,,,,,,,,,,,,,,,,,,,,,,,,,,,,,,,,,,,,,,,,,,,,,,,,,,,,,1.94,480.1806596,None,None,1,,482.2398759,None,482.2398759,None,482.2398759,None,,,,,,,,,,,P033,fencog,1,Post,2022_Apr_12_1149,Go No-Go Task,2021.1.4,120.112329
,"Rule: When you see a yellow image, do not press 'spacebar'.",Images/Fearful/AF27AFS.jpg,Fear,Blue,Images/Blue.jpg,space,ParentConditions/YellowBlueBlue_v1.xlsx,BlueBlueYellow,Conditions/Version_1/YellowHappyStop.xlsx,no,PASS,0.393583477,,,,,,,,,0,0,0,0,0,0,0,0,0,57,57,57,,,,,,,,,,,,,,,,,,,,,,,,,,,,,,,,,,,,,,,,,,,,,,,,,,,,,,,,,,,,,,,,,,,,,,,,,,,,,,,1.35,482.632941,None,space,1,0.2546615,484.1143167,None,484.1143167,None,484.1143167,None,,,,,,,,,,,P033,fencog,1,Post,2022_Apr_12_1149,Go No-Go Task,2021.1.4,120.112329
,"Rule: When you see a yellow image, do not press 'spacebar'.",Images/Fearful/AM32AFS.jpg,Fear,Blue,Images/Blue.jpg,space,ParentConditions/YellowBlueBlue_v1.xlsx,BlueBlueYellow,Conditions/Version_1/YellowHappyStop.xlsx,no,PASS,0.561445822,,,,,,,,,0,0,0,0,0,0,0,0,0,58,58,58,,,,,,,,,,,,,,,,,,,,,,,,,,,,,,,,,,,,,,,,,,,,,,,,,,,,,,,,,,,,,,,,,,,,,,,,,,,,,,,1.83,484.4944859,None,space,1,0.2420578,486.4386017,None,486.4386017,None,486.4386017,None,,,,,,,,,,,P033,fencog,1,Post,2022_Apr_12_1149,Go No-Go Task,2021.1.4,120.112329
,"Rule: When you see a yellow image, do not press 'spacebar'.",Images/Fearful/AM09_FO.jpg,Fear,Blue,Images/Blue.jpg,space,ParentConditions/YellowBlueBlue_v1.xlsx,BlueBlueYellow,Conditions/Version_1/YellowHappyStop.xlsx,no,PASS,0.393383742,,,,,,,,,0,0,0,0,0,0,0,0,0,59,59,59,,,,,,,,,,,,,,,,,,,,,,,,,,,,,,,,,,,,,,,,,,,,,,,,,,,,,,,,,,,,,,,,,,,,,,,,,,,,,,,1.22,486.8441516,None,space,1,0.25254,488.1881375,None,488.1881375,None,488.1881375,None,,,,,,,,,,,P033,fencog,1,Post,2022_Apr_12_1149,Go No-Go Task,2021.1.4,120.112329
,"Rule: When you see a yellow image, do not press 'spacebar'.",Images/Fearful/AF01_FO.jpg,Fear,Blue,Images/Blue.jpg,space,ParentConditions/YellowBlueBlue_v1.xlsx,BlueBlueYellow,Conditions/Version_1/YellowHappyStop.xlsx,no,PASS,0.741987001,,,,,,,,,0,0,0,0,0,0,0,0,0,60,60,60,,,,,,,,,,,,,,,,,,,,,,,,,,,,,,,,,,,,,,,,,,,,,,,,,,,,,,,,,,,,,,,,,,,,,,,,,,,,,,,1.74,488.5789152,None,space,1,0.3074348,490.4291698,None,490.4291698,None,490.4291698,None,,,,,,,,,,,P033,fencog,1,Post,2022_Apr_12_1149,Go No-Go Task,2021.1.4,120.112329
,"Rule: When you see a yellow image, do not press 'spacebar'.",Images/Happy/AM10_HO.jpg,Happy,Yellow,Images/Yellow.jpg,None,ParentConditions/YellowBlueBlue_v1.xlsx,BlueBlueYellow,Conditions/Version_1/YellowHappyStop.xlsx,yes,PASS,0.735240209,,,,,,,,,0,0,0,0,0,0,0,0,0,61,61,61,,,,,,,,,,,,,,,,,,,,,,,,,,,,,,,,,,,,,,,,,,,,,,,,,,,,,,,,,,,,,,,,,,,,,,,,,,,,,,,1.53,490.8331369,None,None,1,,492.4786408,None,492.4786408,None,492.4786408,None,,,,,,,,,,,P033,fencog,1,Post,2022_Apr_12_1149,Go No-Go Task,2021.1.4,120.112329
,"Rule: When you see a yellow image, do not press 'spacebar'.",Images/Happy/AM22HAS.jpg,Happy,Yellow,Images/Yellow.jpg,None,ParentConditions/YellowBlueBlue_v1.xlsx,BlueBlueYellow,Conditions/Version_1/YellowHappyStop.xlsx,yes,PASS,0.278385899,,,,,,,,,0,0,0,0,0,0,0,0,0,62,62,62,,,,,,,,,,,,,,,,,,,,,,,,,,,,,,,,,,,,,,,,,,,,,,,,,,,,,,,,,,,,,,,,,,,,,,,,,,,,,,,1.6,492.8757074,None,space,0,0.1657097,494.6028272,None,494.6028272,None,494.6028272,None,,,,,,,,,,,P033,fencog,1,Post,2022_Apr_12_1149,Go No-Go Task,2021.1.4,120.112329
,"Rule: When you see a yellow image, do not press 'spacebar'.",Images/Fearful/AM22AFS.jpg,Fear,Blue,Images/Blue.jpg,space,ParentConditions/YellowBlueBlue_v1.xlsx,BlueBlueYellow,Conditions/Version_1/YellowHappyStop.xlsx,no,PASS,0.012398819,,,,,,,,,0,0,0,0,0,0,0,0,0,63,63,63,,,,,,,,,,,,,,,,,,,,,,,,,,,,,,,,,,,,,,,,,,,,,,,,,,,,,,,,,,,,,,,,,,,,,,,,,,,,,,,1.99,494.9864164,None,space,1,0.2589818,497.0855021,None,497.0855021,None,497.0855021,None,,,,,,,,,,,P033,fencog,1,Post,2022_Apr_12_1149,Go No-Go Task,2021.1.4,120.112329
,"Rule: When you see a yellow image, do not press 'spacebar'.",Images/Happy/BM08_HO.jpg,Happy,Yellow,Images/Yellow.jpg,None,ParentConditions/YellowBlueBlue_v1.xlsx,BlueBlueYellow,Conditions/Version_1/YellowHappyStop.xlsx,yes,PASS,0.257918812,,,,,,,,,0,0,0,0,0,0,0,0,0,64,64,64,,,,,,,,,,,,,,,,,,,,,,,,,,,,,,,,,,,,,,,,,,,,,,,,,,,,,,,,,,,,,,,,,,,,,,,,,,,,,,,1.65,497.4836635,None,None,1,,499.2432015,None,499.2432015,None,499.2432015,None,,,,,,,,,,,P033,fencog,1,Post,2022_Apr_12_1149,Go No-Go Task,2021.1.4,120.112329
,"Rule: When you see a yellow image, do not press 'spacebar'.",Images/Fearful/AM19AFS.jpg,Fear,Blue,Images/Blue.jpg,space,ParentConditions/YellowBlueBlue_v1.xlsx,BlueBlueYellow,Conditions/Version_1/YellowHappyStop.xlsx,no,PASS,0.457009237,,,,,,,,,0,0,0,0,0,0,0,0,0,65,65,65,,,,,,,,,,,,,,,,,,,,,,,,,,,,,,,,,,,,,,,,,,,,,,,,,,,,,,,,,,,,,,,,,,,,,,,,,,,,,,,1.3,499.6388938,None,space,1,0.1974869,501.0510006,None,501.0510006,None,501.0510006,None,,,,,,,,,,,P033,fencog,1,Post,2022_Apr_12_1149,Go No-Go Task,2021.1.4,120.112329
,"Rule: When you see a yellow image, do not press 'spacebar'.",Images/Fearful/AF23AFS.jpg,Fear,Blue,Images/Blue.jpg,space,ParentConditions/YellowBlueBlue_v1.xlsx,BlueBlueYellow,Conditions/Version_1/YellowHappyStop.xlsx,no,PASS,0.90659309,,,,,,,,,0,0,0,0,0,0,0,0,0,66,66,66,,,,,,,,,,,,,,,,,,,,,,,,,,,,,,,,,,,,,,,,,,,,,,,,,,,,,,,,,,,,,,,,,,,,,,,,,,,,,,,1.66,501.4473658,None,space,1,0.3033981,503.2253393,None,503.2253393,None,503.2253393,None,,,,,,,,,,,P033,fencog,1,Post,2022_Apr_12_1149,Go No-Go Task,2021.1.4,120.112329
,"Rule: When you see a yellow image, do not press 'spacebar'.",Images/Fearful/AM13AFS.jpg,Fear,Blue,Images/Blue.jpg,space,ParentConditions/YellowBlueBlue_v1.xlsx,BlueBlueYellow,Conditions/Version_1/YellowHappyStop.xlsx,no,PASS,0.672217887,,,,,,,,,0,0,0,0,0,0,0,0,0,67,67,67,,,,,,,,,,,,,,,,,,,,,,,,,,,,,,,,,,,,,,,,,,,,,,,,,,,,,,,,,,,,,,,,,,,,,,,,,,,,,,,1.77,503.6220753,None,space,1,0.2204294,505.5163492,None,505.5163492,None,505.5163492,None,,,,,,,,,,,P033,fencog,1,Post,2022_Apr_12_1149,Go No-Go Task,2021.1.4,120.112329
,"Rule: When you see a yellow image, do not press 'spacebar'.",Images/Fearful/HF09_FC.jpg,Fear,Blue,Images/Blue.jpg,space,ParentConditions/YellowBlueBlue_v1.xlsx,BlueBlueYellow,Conditions/Version_1/YellowHappyStop.xlsx,no,PASS,0.947763278,,,,,,,,,0,0,0,0,0,0,0,0,0,68,68,68,,,,,,,,,,,,,,,,,,,,,,,,,,,,,,,,,,,,,,,,,,,,,,,,,,,,,,,,,,,,,,,,,,,,,,,,,,,,,,,1.67,505.9127992,None,space,1,0.2697271,507.6989429,None,507.6989429,None,507.6989429,None,,,,,,,,,,,P033,fencog,1,Post,2022_Apr_12_1149,Go No-Go Task,2021.1.4,120.112329
,"Rule: When you see a yellow image, do not press 'spacebar'.",Images/Fearful/AM04AFS.jpg,Fear,Blue,Images/Blue.jpg,space,ParentConditions/YellowBlueBlue_v1.xlsx,BlueBlueYellow,Conditions/Version_1/YellowHappyStop.xlsx,no,PASS,0.715571073,,,,,,,,,0,0,0,0,0,0,0,0,0,69,69,69,,,,,,,,,,,,,,,,,,,,,,,,,,,,,,,,,,,,,,,,,,,,,,,,,,,,,,,,,,,,,,,,,,,,,,,,,,,,,,,1.51,508.0963758,None,space,1,0.333467,509.7150813,None,509.7150813,None,509.7150813,None,,,,,,,,,,,P033,fencog,1,Post,2022_Apr_12_1149,Go No-Go Task,2021.1.4,120.112329
,"Rule: When you see a yellow image, do not press 'spacebar'.",Images/Fearful/AF02AFS.jpg,Fear,Blue,Images/Blue.jpg,space,ParentConditions/YellowBlueBlue_v1.xlsx,BlueBlueYellow,Conditions/Version_1/YellowHappyStop.xlsx,no,PASS,0.986479223,,,,,,,,,0,0,0,0,0,0,0,0,0,70,70,70,,,,,,,,,,,,,,,,,,,,,,,,,,,,,,,,,,,,,,,,,,,,,,,,,,,,,,,,,,,,,,,,,,,,,,,,,,,,,,,1.63,510.1118305,None,space,1,0.2321056,511.8644516,None,511.8644516,None,511.8644516,None,,,,,,,,,,,P033,fencog,1,Post,2022_Apr_12_1149,Go No-Go Task,2021.1.4,120.112329
,"Rule: When you see a yellow image, do not press 'spacebar'.",Images/Fearful/AM09AFS.jpg,Fear,Blue,Images/Blue.jpg,space,ParentConditions/YellowBlueBlue_v1.xlsx,BlueBlueYellow,Conditions/Version_1/YellowHappyStop.xlsx,no,PASS,0.839032624,,,,,,,,,0,0,0,0,0,0,0,0,0,71,71,71,,,,,,,,,,,,,,,,,,,,,,,,,,,,,,,,,,,,,,,,,,,,,,,,,,,,,,,,,,,,,,,,,,,,,,,,,,,,,,,1.72,512.2528149,None,space,1,0.2634476,514.0971118,None,514.0971118,None,514.0971118,None,,,,,,,,,,,P033,fencog,1,Post,2022_Apr_12_1149,Go No-Go Task,2021.1.4,120.112329
,"Rule: When you see a yellow image, do not press 'spacebar'.",Images/Fearful/BF05_FO.jpg,Fear,Blue,Images/Blue.jpg,space,ParentConditions/YellowBlueBlue_v1.xlsx,BlueBlueYellow,Conditions/Version_1/YellowHappyStop.xlsx,no,PASS,0.69191788,,,,,,,,,0,0,0,0,0,0,0,0,0,72,72,72,,,,,,,,,,,,,,,,,,,,,,,,,,,,,,,,,,,,,,,,,,,,,,,,,,,,,,,,,,,,,,,,,,,,,,,,,,,,,,,1.5,514.4929933,None,space,1,0.2949871,516.1217017,None,516.1217017,None,516.1217017,None,,,,,,,,,,,P033,fencog,1,Post,2022_Apr_12_1149,Go No-Go Task,2021.1.4,120.112329
,"Rule: When you see a yellow image, do not press 'spacebar'.",Images/Fearful/AF22AFS.jpg,Fear,Blue,Images/Blue.jpg,space,ParentConditions/YellowBlueBlue_v1.xlsx,BlueBlueYellow,Conditions/Version_1/YellowHappyStop.xlsx,no,PASS,0.035298364,,,,,,,,,0,0,0,0,0,0,0,0,0,73,73,73,,,,,,,,,,,,,,,,,,,,,,,,,,,,,,,,,,,,,,,,,,,,,,,,,,,,,,,,,,,,,,,,,,,,,,,,,,,,,,,1.81,516.5102676,None,space,1,0.250831,518.4458395,None,518.4458395,None,518.4458395,None,,,,,,,,,,,P033,fencog,1,Post,2022_Apr_12_1149,Go No-Go Task,2021.1.4,120.112329
,"Rule: When you see a yellow image, do not press 'spacebar'.",Images/Happy/BF18_HO.jpg,Happy,Yellow,Images/Yellow.jpg,None,ParentConditions/YellowBlueBlue_v1.xlsx,BlueBlueYellow,Conditions/Version_1/YellowHappyStop.xlsx,yes,PASS,0.423269179,,,,,,,,,0,0,0,0,0,0,0,0,0,74,74,74,,,,,,,,,,,,,,,,,,,,,,,,,,,,,,,,,,,,,,,,,,,,,,,,,,,,,,,,,,,,,,,,,,,,,,,,,,,,,,,1.93,518.8237097,None,None,1,,520.8784911,None,520.8784911,None,520.8784911,None,,,,,,,,,,,P033,fencog,1,Post,2022_Apr_12_1149,Go No-Go Task,2021.1.4,120.112329
,"Rule: When you see a yellow image, do not press 'spacebar'.",Images/Fearful/WM12_FO.jpg,Fear,Blue,Images/Blue.jpg,space,ParentConditions/YellowBlueBlue_v1.xlsx,BlueBlueYellow,Conditions/Version_1/YellowHappyStop.xlsx,no,PASS,0.346716402,,,,,,,,,0,0,0,0,0,0,0,0,0,75,75,75,,,,,,,,,,,,,,,,,,,,,,,,,,,,,,,,,,,,,,,,,,,,,,,,,,,,,,,,,,,,,,,,,,,,,,,,,,,,,,,1.2,521.2665297,None,space,1,0.2386091,522.5780639,None,522.5780639,None,522.5780639,None,,,,,,,,,,,P033,fencog,1,Post,2022_Apr_12_1149,Go No-Go Task,2021.1.4,120.112329
,"Rule: When you see a yellow image, do not press 'spacebar'.",Images/Fearful/BF07_FO.jpg,Fear,Blue,Images/Blue.jpg,space,ParentConditions/YellowBlueBlue_v1.xlsx,BlueBlueYellow,Conditions/Version_1/YellowHappyStop.xlsx,no,PASS,0.29929458,,,,,,,,,0,0,0,0,0,0,0,0,0,76,76,76,,,,,,,,,,,,,,,,,,,,,,,,,,,,,,,,,,,,,,,,,,,,,,,,,,,,,,,,,,,,,,,,,,,,,,,,,,,,,,,1.54,522.9743814,None,None,0,,524.6273677,None,524.6273677,None,524.6273677,None,,,,,,,,,,,P033,fencog,1,Post,2022_Apr_12_1149,Go No-Go Task,2021.1.4,120.112329
,"Rule: When you see a yellow image, do not press 'spacebar'.",Images/Fearful/HF10_FO.jpg,Fear,Blue,Images/Blue.jpg,space,ParentConditions/YellowBlueBlue_v1.xlsx,BlueBlueYellow,Conditions/Version_1/YellowHappyStop.xlsx,no,PASS,0.065069775,,,,,,,,,0,0,0,0,0,0,0,0,0,77,77,77,,,,,,,,,,,,,,,,,,,,,,,,,,,,,,,,,,,,,,,,,,,,,,,,,,,,,,,,,,,,,,,,,,,,,,,,,,,,,,,1.59,525.0302368,None,space,1,0.3456181,526.7347486,None,526.7347486,None,526.7347486,None,,,,,,,,,,,P033,fencog,1,Post,2022_Apr_12_1149,Go No-Go Task,2021.1.4,120.112329
,"Rule: When you see a yellow image, do not press 'spacebar'.",Images/Fearful/AM10AFS.jpg,Fear,Blue,Images/Blue.jpg,space,ParentConditions/YellowBlueBlue_v1.xlsx,BlueBlueYellow,Conditions/Version_1/YellowHappyStop.xlsx,no,PASS,0.439108583,,,,,,,,,0,0,0,0,0,0,0,0,0,78,78,78,,,,,,,,,,,,,,,,,,,,,,,,,,,,,,,,,,,,,,,,,,,,,,,,,,,,,,,,,,,,,,,,,,,,,,,,,,,,,,,1.73,527.1338256,None,space,1,0.2399186,528.9844166,None,528.9844166,None,528.9844166,None,,,,,,,,,,,P033,fencog,1,Post,2022_Apr_12_1149,Go No-Go Task,2021.1.4,120.112329
,"Rule: When you see a yellow image, do not press 'spacebar'.",Images/Happy/AM23HAS.jpg,Happy,Yellow,Images/Yellow.jpg,None,ParentConditions/YellowBlueBlue_v1.xlsx,BlueBlueYellow,Conditions/Version_1/YellowHappyStop.xlsx,yes,PASS,0.829645646,,,,,,,,,0,0,0,0,0,0,0,0,0,79,79,79,,,,,,,,,,,,,,,,,,,,,,,,,,,,,,,,,,,,,,,,,,,,,,,,,,,,,,,,,,,,,,,,,,,,,,,,,,,,,,,1.25,529.3762529,None,None,1,,530.7419006,None,530.7419006,None,530.7419006,None,,,,,,,,,,,P033,fencog,1,Post,2022_Apr_12_1149,Go No-Go Task,2021.1.4,120.112329
,"Rule: When you see blue image, do not press 'spacebar'.",Images/Fearful/HM06_FC.jpg,Fear,Blue,Images/Blue.jpg,None,ParentConditions/YellowBlueBlue_v1.xlsx,BlueBlueYellow,Conditions/Version_1/BlueFearStop.xlsx,yes,PASS,0.772981301,,,,,,,,,0,0,0,0,0,1,1,1,0,0,0,0,,,,,,,,,,,,,,,,,,,,,,,,,,,,,,,,,,,,,,,,,,,,,,,,,,,,,,,,,,,,,,,,,734.6531693,None,737.6388715,None,space,0.5933253,737.6388715,None,734.6531693,None,734.6531693,None,734.6531693,None,1.38,738.2989619,None,None,1,,739.788828,None,739.788828,None,739.788828,None,531.1670989,None,space,202.974553,531.6497671,None,531.1670989,None,531.1670989,None,P033,fencog,1,Post,2022_Apr_12_1149,Go No-Go Task,2021.1.4,120.112329
,"Rule: When you see blue image, do not press 'spacebar'.",Images/Happy/AF07HAS.jpg,Happy,Yellow,Images/Yellow.jpg,space,ParentConditions/YellowBlueBlue_v1.xlsx,BlueBlueYellow,Conditions/Version_1/BlueFearStop.xlsx,no,PASS,0.492445365,,,,,,,,,0,0,0,0,0,1,1,1,0,1,1,1,,,,,,,,,,,,,,,,,,,,,,,,,,,,,,,,,,,,,,,,,,,,,,,,,,,,,,,,,,,,,,,,,,,,,,,,,,,,,,,1.97,740.1899643,None,space,1,0.2959024,742.2881439,None,742.2881439,None,742.2881439,None,,,,,,,,,,,P033,fencog,1,Post,2022_Apr_12_1149,Go No-Go Task,2021.1.4,120.112329
,"Rule: When you see blue image, do not press 'spacebar'.",Images/Happy/AF28HAS.jpg,Happy,Yellow,Images/Yellow.jpg,space,ParentConditions/YellowBlueBlue_v1.xlsx,BlueBlueYellow,Conditions/Version_1/BlueFearStop.xlsx,no,PASS,0.894347366,,,,,,,,,0,0,0,0,0,1,1,1,0,2,2,2,,,,,,,,,,,,,,,,,,,,,,,,,,,,,,,,,,,,,,,,,,,,,,,,,,,,,,,,,,,,,,,,,,,,,,,,,,,,,,,1.75,742.6796003,None,space,1,0.2629723,744.5374253,None,744.5374253,None,744.5374253,None,,,,,,,,,,,P033,fencog,1,Post,2022_Apr_12_1149,Go No-Go Task,2021.1.4,120.112329
,"Rule: When you see blue image, do not press 'spacebar'.",Images/Happy/AF22HAS.jpg,Happy,Yellow,Images/Yellow.jpg,space,ParentConditions/YellowBlueBlue_v1.xlsx,BlueBlueYellow,Conditions/Version_1/BlueFearStop.xlsx,no,PASS,0.589276506,,,,,,,,,0,0,0,0,0,1,1,1,0,3,3,3,,,,,,,,,,,,,,,,,,,,,,,,,,,,,,,,,,,,,,,,,,,,,,,,,,,,,,,,,,,,,,,,,,,,,,,,,,,,,,,1.25,744.9441095,None,space,1,0.2724152,746.3119348,None,746.3119348,None,746.3119348,None,,,,,,,,,,,P033,fencog,1,Post,2022_Apr_12_1149,Go No-Go Task,2021.1.4,120.112329
,"Rule: When you see blue image, do not press 'spacebar'.",Images/Fearful/AF27AFS.jpg,Fear,Blue,Images/Blue.jpg,None,ParentConditions/YellowBlueBlue_v1.xlsx,BlueBlueYellow,Conditions/Version_1/BlueFearStop.xlsx,yes,PASS,0.414285813,,,,,,,,,0,0,0,0,0,1,1,1,0,4,4,4,,,,,,,,,,,,,,,,,,,,,,,,,,,,,,,,,,,,,,,,,,,,,,,,,,,,,,,,,,,,,,,,,,,,,,,,,,,,,,,1.67,746.7011502,None,None,1,,748.4862932,None,748.4862932,None,748.4862932,None,,,,,,,,,,,P033,fencog,1,Post,2022_Apr_12_1149,Go No-Go Task,2021.1.4,120.112329
,"Rule: When you see blue image, do not press 'spacebar'.",Images/Happy/AM24HAS.jpg,Happy,Yellow,Images/Yellow.jpg,space,ParentConditions/YellowBlueBlue_v1.xlsx,BlueBlueYellow,Conditions/Version_1/BlueFearStop.xlsx,no,PASS,0.81268674,,,,,,,,,0,0,0,0,0,1,1,1,0,5,5,5,,,,,,,,,,,,,,,,,,,,,,,,,,,,,,,,,,,,,,,,,,,,,,,,,,,,,,,,,,,,,,,,,,,,,,,,,,,,,,,1.94,748.890538,None,space,1,0.3284814,750.9440156,None,750.9440156,None,750.9440156,None,,,,,,,,,,,P033,fencog,1,Post,2022_Apr_12_1149,Go No-Go Task,2021.1.4,120.112329
,"Rule: When you see blue image, do not press 'spacebar'.",Images/Fearful/AF26AFS.jpg,Fear,Blue,Images/Blue.jpg,None,ParentConditions/YellowBlueBlue_v1.xlsx,BlueBlueYellow,Conditions/Version_1/BlueFearStop.xlsx,yes,PASS,0.777153914,,,,,,,,,0,0,0,0,0,1,1,1,0,6,6,6,,,,,,,,,,,,,,,,,,,,,,,,,,,,,,,,,,,,,,,,,,,,,,,,,,,,,,,,,,,,,,,,,,,,,,,,,,,,,,,1.59,751.3490717,None,None,1,,753.0515903,None,753.0515903,None,753.0515903,None,,,,,,,,,,,P033,fencog,1,Post,2022_Apr_12_1149,Go No-Go Task,2021.1.4,120.112329
,"Rule: When you see blue image, do not press 'spacebar'.",Images/Happy/WM11_HC.jpg,Happy,Yellow,Images/Yellow.jpg,space,ParentConditions/YellowBlueBlue_v1.xlsx,BlueBlueYellow,Conditions/Version_1/BlueFearStop.xlsx,no,PASS,0.612727142,,,,,,,,,0,0,0,0,0,1,1,1,0,7,7,7,,,,,,,,,,,,,,,,,,,,,,,,,,,,,,,,,,,,,,,,,,,,,,,,,,,,,,,,,,,,,,,,,,,,,,,,,,,,,,,1.81,753.4490036,None,space,1,0.2489542,755.3675945,None,755.3675945,None,755.3675945,None,,,,,,,,,,,P033,fencog,1,Post,2022_Apr_12_1149,Go No-Go Task,2021.1.4,120.112329
,"Rule: When you see blue image, do not press 'spacebar'.",Images/Happy/BM03_HO.jpg,Happy,Yellow,Images/Yellow.jpg,space,ParentConditions/YellowBlueBlue_v1.xlsx,BlueBlueYellow,Conditions/Version_1/BlueFearStop.xlsx,no,PASS,0.731316503,,,,,,,,,0,0,0,0,0,1,1,1,0,8,8,8,,,,,,,,,,,,,,,,,,,,,,,,,,,,,,,,,,,,,,,,,,,,,,,,,,,,,,,,,,,,,,,,,,,,,,,,,,,,,,,1.29,755.7663595,None,space,1,0.2818363,757.1587168,None,757.1587168,None,757.1587168,None,,,,,,,,,,,P033,fencog,1,Post,2022_Apr_12_1149,Go No-Go Task,2021.1.4,120.112329
,"Rule: When you see blue image, do not press 'spacebar'.",Images/Happy/BF18_HO.jpg,Happy,Yellow,Images/Yellow.jpg,space,ParentConditions/YellowBlueBlue_v1.xlsx,BlueBlueYellow,Conditions/Version_1/BlueFearStop.xlsx,no,PASS,0.571593553,,,,,,,,,0,0,0,0,0,1,1,1,0,9,9,9,,,,,,,,,,,,,,,,,,,,,,,,,,,,,,,,,,,,,,,,,,,,,,,,,,,,,,,,,,,,,,,,,,,,,,,,,,,,,,,1.87,757.5641425,None,space,1,0.2666516,759.5497859,None,759.5497859,None,759.5497859,None,,,,,,,,,,,P033,fencog,1,Post,2022_Apr_12_1149,Go No-Go Task,2021.1.4,120.112329
,"Rule: When you see blue image, do not press 'spacebar'.",Images/Happy/AM10HAS.jpg,Happy,Yellow,Images/Yellow.jpg,space,ParentConditions/YellowBlueBlue_v1.xlsx,BlueBlueYellow,Conditions/Version_1/BlueFearStop.xlsx,no,PASS,0.4742387,,,,,,,,,0,0,0,0,0,1,1,1,0,10,10,10,,,,,,,,,,,,,,,,,,,,,,,,,,,,,,,,,,,,,,,,,,,,,,,,,,,,,,,,,,,,,,,,,,,,,,,,,,,,,,,1.7,759.9504501,None,space,1,0.2266616,761.7657921,None,761.7657921,None,761.7657921,None,,,,,,,,,,,P033,fencog,1,Post,2022_Apr_12_1149,Go No-Go Task,2021.1.4,120.112329
,"Rule: When you see blue image, do not press 'spacebar'.",Images/Happy/AM09HAS.jpg,Happy,Yellow,Images/Yellow.jpg,space,ParentConditions/YellowBlueBlue_v1.xlsx,BlueBlueYellow,Conditions/Version_1/BlueFearStop.xlsx,no,PASS,0.579137519,,,,,,,,,0,0,0,0,0,1,1,1,0,11,11,11,,,,,,,,,,,,,,,,,,,,,,,,,,,,,,,,,,,,,,,,,,,,,,,,,,,,,,,,,,,,,,,,,,,,,,,,,,,,,,,1.45,762.1664321,None,space,1,0.2042937,763.7401129,None,763.7401129,None,763.7401129,None,,,,,,,,,,,P033,fencog,1,Post,2022_Apr_12_1149,Go No-Go Task,2021.1.4,120.112329
,"Rule: When you see blue image, do not press 'spacebar'.",Images/Happy/AM16HAS.jpg,Happy,Yellow,Images/Yellow.jpg,space,ParentConditions/YellowBlueBlue_v1.xlsx,BlueBlueYellow,Conditions/Version_1/BlueFearStop.xlsx,no,PASS,0.068511461,,,,,,,,,0,0,0,0,0,1,1,1,0,12,12,12,,,,,,,,,,,,,,,,,,,,,,,,,,,,,,,,,,,,,,,,,,,,,,,,,,,,,,,,,,,,,,,,,,,,,,,,,,,,,,,1.46,764.1369824,None,space,1,0.3097107,765.7145417,None,765.7145417,None,765.7145417,None,,,,,,,,,,,P033,fencog,1,Post,2022_Apr_12_1149,Go No-Go Task,2021.1.4,120.112329
,"Rule: When you see blue image, do not press 'spacebar'.",Images/Happy/AF10_HE.jpg,Happy,Yellow,Images/Yellow.jpg,space,ParentConditions/YellowBlueBlue_v1.xlsx,BlueBlueYellow,Conditions/Version_1/BlueFearStop.xlsx,no,PASS,0.212673717,,,,,,,,,0,0,0,0,0,1,1,1,0,13,13,13,,,,,,,,,,,,,,,,,,,,,,,,,,,,,,,,,,,,,,,,,,,,,,,,,,,,,,,,,,,,,,,,,,,,,,,,,,,,,,,1.27,766.102701,None,space,1,0.2708568,767.4974312,None,767.4974312,None,767.4974312,None,,,,,,,,,,,P033,fencog,1,Post,2022_Apr_12_1149,Go No-Go Task,2021.1.4,120.112329
,"Rule: When you see blue image, do not press 'spacebar'.",Images/Happy/AF27HAS.jpg,Happy,Yellow,Images/Yellow.jpg,space,ParentConditions/YellowBlueBlue_v1.xlsx,BlueBlueYellow,Conditions/Version_1/BlueFearStop.xlsx,no,PASS,0.810967316,,,,,,,,,0,0,0,0,0,1,1,1,0,14,14,14,,,,,,,,,,,,,,,,,,,,,,,,,,,,,,,,,,,,,,,,,,,,,,,,,,,,,,,,,,,,,,,,,,,,,,,,,,,,,,,1.57,767.889993,None,space,1,0.1569778,769.5633701,None,769.5633701,None,769.5633701,None,,,,,,,,,,,P033,fencog,1,Post,2022_Apr_12_1149,Go No-Go Task,2021.1.4,120.112329
,"Rule: When you see blue image, do not press 'spacebar'.",Images/Happy/BF10_HO.jpg,Happy,Yellow,Images/Yellow.jpg,space,ParentConditions/YellowBlueBlue_v1.xlsx,BlueBlueYellow,Conditions/Version_1/BlueFearStop.xlsx,no,PASS,0.357072599,,,,,,,,,0,0,0,0,0,1,1,1,0,15,15,15,,,,,,,,,,,,,,,,,,,,,,,,,,,,,,,,,,,,,,,,,,,,,,,,,,,,,,,,,,,,,,,,,,,,,,,,,,,,,,,1.62,769.9698732,None,space,1,0.2080595,771.7044432,None,771.7044432,None,771.7044432,None,,,,,,,,,,,P033,fencog,1,Post,2022_Apr_12_1149,Go No-Go Task,2021.1.4,120.112329
,"Rule: When you see blue image, do not press 'spacebar'.",Images/Happy/BF14_HO.jpg,Happy,Yellow,Images/Yellow.jpg,space,ParentConditions/YellowBlueBlue_v1.xlsx,BlueBlueYellow,Conditions/Version_1/BlueFearStop.xlsx,no,PASS,0.417127932,,,,,,,,,0,0,0,0,0,1,1,1,0,16,16,16,,,,,,,,,,,,,,,,,,,,,,,,,,,,,,,,,,,,,,,,,,,,,,,,,,,,,,,,,,,,,,,,,,,,,,,,,,,,,,,1.95,772.1096058,None,space,1,0.2221474,774.1703422,None,774.1703422,None,774.1703422,None,,,,,,,,,,,P033,fencog,1,Post,2022_Apr_12_1149,Go No-Go Task,2021.1.4,120.112329
,"Rule: When you see blue image, do not press 'spacebar'.",Images/Fearful/BM08_FC.jpg,Fear,Blue,Images/Blue.jpg,None,ParentConditions/YellowBlueBlue_v1.xlsx,BlueBlueYellow,Conditions/Version_1/BlueFearStop.xlsx,yes,PASS,0.277760685,,,,,,,,,0,0,0,0,0,1,1,1,0,17,17,17,,,,,,,,,,,,,,,,,,,,,,,,,,,,,,,,,,,,,,,,,,,,,,,,,,,,,,,,,,,,,,,,,,,,,,,,,,,,,,,1.5,774.5761181,None,space,0,0.1743948,776.1781081,None,776.1781081,None,776.1781081,None,,,,,,,,,,,P033,fencog,1,Post,2022_Apr_12_1149,Go No-Go Task,2021.1.4,120.112329
,"Rule: When you see blue image, do not press 'spacebar'.",Images/Happy/AM01HAS.jpg,Happy,Yellow,Images/Yellow.jpg,space,ParentConditions/YellowBlueBlue_v1.xlsx,BlueBlueYellow,Conditions/Version_1/BlueFearStop.xlsx,no,PASS,0.431601381,,,,,,,,,0,0,0,0,0,1,1,1,0,18,18,18,,,,,,,,,,,,,,,,,,,,,,,,,,,,,,,,,,,,,,,,,,,,,,,,,,,,,,,,,,,,,,,,,,,,,,,,,,,,,,,1.6,776.5807287,None,None,0,,778.3026179,None,778.3026179,None,778.3026179,None,,,,,,,,,,,P033,fencog,1,Post,2022_Apr_12_1149,Go No-Go Task,2021.1.4,120.112329
,"Rule: When you see blue image, do not press 'spacebar'.",Images/Happy/AF11HAS.jpg,Happy,Yellow,Images/Yellow.jpg,space,ParentConditions/YellowBlueBlue_v1.xlsx,BlueBlueYellow,Conditions/Version_1/BlueFearStop.xlsx,no,PASS,0.96968982,,,,,,,,,0,0,0,0,0,1,1,1,0,19,19,19,,,,,,,,,,,,,,,,,,,,,,,,,,,,,,,,,,,,,,,,,,,,,,,,,,,,,,,,,,,,,,,,,,,,,,,,,,,,,,,1.78,778.6920448,None,space,1,0.1422921,780.5942381,None,780.5942381,None,780.5942381,None,,,,,,,,,,,P033,fencog,1,Post,2022_Apr_12_1149,Go No-Go Task,2021.1.4,120.112329
,"Rule: When you see blue image, do not press 'spacebar'.",Images/Happy/BM01_HO.jpg,Happy,Yellow,Images/Yellow.jpg,space,ParentConditions/YellowBlueBlue_v1.xlsx,BlueBlueYellow,Conditions/Version_1/BlueFearStop.xlsx,no,PASS,0.401820913,,,,,,,,,0,0,0,0,0,1,1,1,0,20,20,20,,,,,,,,,,,,,,,,,,,,,,,,,,,,,,,,,,,,,,,,,,,,,,,,,,,,,,,,,,,,,,,,,,,,,,,,,,,,,,,1.35,780.9893959,None,space,1,0.236528,782.4598643,None,782.4598643,None,782.4598643,None,,,,,,,,,,,P033,fencog,1,Post,2022_Apr_12_1149,Go No-Go Task,2021.1.4,120.112329
,"Rule: When you see blue image, do not press 'spacebar'.",Images/Happy/AF07_HO.jpg,Happy,Yellow,Images/Yellow.jpg,space,ParentConditions/YellowBlueBlue_v1.xlsx,BlueBlueYellow,Conditions/Version_1/BlueFearStop.xlsx,no,PASS,0.304860645,,,,,,,,,0,0,0,0,0,1,1,1,0,21,21,21,,,,,,,,,,,,,,,,,,,,,,,,,,,,,,,,,,,,,,,,,,,,,,,,,,,,,,,,,,,,,,,,,,,,,,,,,,,,,,,1.54,782.8558931,None,space,1,0.2829145,784.5256395,None,784.5256395,None,784.5256395,None,,,,,,,,,,,P033,fencog,1,Post,2022_Apr_12_1149,Go No-Go Task,2021.1.4,120.112329
,"Rule: When you see blue image, do not press 'spacebar'.",Images/Happy/HM06_HO.jpg,Happy,Yellow,Images/Yellow.jpg,space,ParentConditions/YellowBlueBlue_v1.xlsx,BlueBlueYellow,Conditions/Version_1/BlueFearStop.xlsx,no,PASS,0.392874464,,,,,,,,,0,0,0,0,0,1,1,1,0,22,22,22,,,,,,,,,,,,,,,,,,,,,,,,,,,,,,,,,,,,,,,,,,,,,,,,,,,,,,,,,,,,,,,,,,,,,,,,,,,,,,,1.42,784.912339,None,space,1,0.2547362,786.4500625,None,786.4500625,None,786.4500625,None,,,,,,,,,,,P033,fencog,1,Post,2022_Apr_12_1149,Go No-Go Task,2021.1.4,120.112329
,"Rule: When you see blue image, do not press 'spacebar'.",Images/Fearful/AM09_FO.jpg,Fear,Blue,Images/Blue.jpg,None,ParentConditions/YellowBlueBlue_v1.xlsx,BlueBlueYellow,Conditions/Version_1/BlueFearStop.xlsx,yes,PASS,0.171302228,,,,,,,,,0,0,0,0,0,1,1,1,0,23,23,23,,,,,,,,,,,,,,,,,,,,,,,,,,,,,,,,,,,,,,,,,,,,,,,,,,,,,,,,,,,,,,,,,,,,,,,,,,,,,,,1.22,786.8385152,None,None,1,,788.1745502,None,788.1745502,None,788.1745502,None,,,,,,,,,,,P033,fencog,1,Post,2022_Apr_12_1149,Go No-Go Task,2021.1.4,120.112329
,"Rule: When you see blue image, do not press 'spacebar'.",Images/Happy/AF09HAS.jpg,Happy,Yellow,Images/Yellow.jpg,space,ParentConditions/YellowBlueBlue_v1.xlsx,BlueBlueYellow,Conditions/Version_1/BlueFearStop.xlsx,no,PASS,0.320508508,,,,,,,,,0,0,0,0,0,1,1,1,0,24,24,24,,,,,,,,,,,,,,,,,,,,,,,,,,,,,,,,,,,,,,,,,,,,,,,,,,,,,,,,,,,,,,,,,,,,,,,,,,,,,,,1.36,788.5732726,None,space,1,0.1666588,790.0656831,None,790.0656831,None,790.0656831,None,,,,,,,,,,,P033,fencog,1,Post,2022_Apr_12_1149,Go No-Go Task,2021.1.4,120.112329
,"Rule: When you see blue image, do not press 'spacebar'.",Images/Happy/AM04HAS.jpg,Happy,Yellow,Images/Yellow.jpg,space,ParentConditions/YellowBlueBlue_v1.xlsx,BlueBlueYellow,Conditions/Version_1/BlueFearStop.xlsx,no,PASS,0.170042016,,,,,,,,,0,0,0,0,0,1,1,1,0,25,25,25,,,,,,,,,,,,,,,,,,,,,,,,,,,,,,,,,,,,,,,,,,,,,,,,,,,,,,,,,,,,,,,,,,,,,,,,,,,,,,,1.83,790.4454729,None,space,1,0.305809,792.4066269,None,792.4066269,None,792.4066269,None,,,,,,,,,,,P033,fencog,1,Post,2022_Apr_12_1149,Go No-Go Task,2021.1.4,120.112329
,"Rule: When you see blue image, do not press 'spacebar'.",Images/Happy/BF07_HO.jpg,Happy,Yellow,Images/Yellow.jpg,space,ParentConditions/YellowBlueBlue_v1.xlsx,BlueBlueYellow,Conditions/Version_1/BlueFearStop.xlsx,no,PASS,0.977525598,,,,,,,,,0,0,0,0,0,1,1,1,0,26,26,26,,,,,,,,,,,,,,,,,,,,,,,,,,,,,,,,,,,,,,,,,,,,,,,,,,,,,,,,,,,,,,,,,,,,,,,,,,,,,,,1.61,792.7932936,None,space,1,0.2372846,794.5311065,None,794.5311065,None,794.5311065,None,,,,,,,,,,,P033,fencog,1,Post,2022_Apr_12_1149,Go No-Go Task,2021.1.4,120.112329
,"Rule: When you see blue image, do not press 'spacebar'.",Images/Happy/AF02HAS.jpg,Happy,Yellow,Images/Yellow.jpg,space,ParentConditions/YellowBlueBlue_v1.xlsx,BlueBlueYellow,Conditions/Version_1/BlueFearStop.xlsx,no,PASS,0.992670751,,,,,,,,,0,0,0,0,0,1,1,1,0,27,27,27,,,,,,,,,,,,,,,,,,,,,,,,,,,,,,,,,,,,,,,,,,,,,,,,,,,,,,,,,,,,,,,,,,,,,,,,,,,,,,,1.26,794.9115177,None,space,1,0.1838004,796.2888113,None,796.2888113,None,796.2888113,None,,,,,,,,,,,P033,fencog,1,Post,2022_Apr_12_1149,Go No-Go Task,2021.1.4,120.112329
,"Rule: When you see blue image, do not press 'spacebar'.",Images/Happy/AM30HAS.jpg,Happy,Yellow,Images/Yellow.jpg,space,ParentConditions/YellowBlueBlue_v1.xlsx,BlueBlueYellow,Conditions/Version_1/BlueFearStop.xlsx,no,PASS,0.684490164,,,,,,,,,0,0,0,0,0,1,1,1,0,28,28,28,,,,,,,,,,,,,,,,,,,,,,,,,,,,,,,,,,,,,,,,,,,,,,,,,,,,,,,,,,,,,,,,,,,,,,,,,,,,,,,1.37,796.6780855,None,space,1,0.2535774,798.1632385,None,798.1632385,None,798.1632385,None,,,,,,,,,,,P033,fencog,1,Post,2022_Apr_12_1149,Go No-Go Task,2021.1.4,120.112329
,"Rule: When you see blue image, do not press 'spacebar'.",Images/Happy/BF05_HO.jpg,Happy,Yellow,Images/Yellow.jpg,space,ParentConditions/YellowBlueBlue_v1.xlsx,BlueBlueYellow,Conditions/Version_1/BlueFearStop.xlsx,no,PASS,0.010815687,,,,,,,,,0,0,0,0,0,1,1,1,0,29,29,29,,,,,,,,,,,,,,,,,,,,,,,,,,,,,,,,,,,,,,,,,,,,,,,,,,,,,,,,,,,,,,,,,,,,,,,,,,,,,,,1.82,798.558641,None,space,1,0.2485981,800.4875757,None,800.4875757,None,800.4875757,None,,,,,,,,,,,P033,fencog,1,Post,2022_Apr_12_1149,Go No-Go Task,2021.1.4,120.112329
,"Rule: When you see blue image, do not press 'spacebar'.",Images/Fearful/AF25AFS.jpg,Fear,Blue,Images/Blue.jpg,None,ParentConditions/YellowBlueBlue_v1.xlsx,BlueBlueYellow,Conditions/Version_1/BlueFearStop.xlsx,yes,PASS,0.358163174,,,,,,,,,0,0,0,0,0,1,1,1,0,30,30,30,,,,,,,,,,,,,,,,,,,,,,,,,,,,,,,,,,,,,,,,,,,,,,,,,,,,,,,,,,,,,,,,,,,,,,,,,,,,,,,1.47,800.8848006,None,space,0,0.1699015,802.4704659,None,802.4704659,None,802.4704659,None,,,,,,,,,,,P033,fencog,1,Post,2022_Apr_12_1149,Go No-Go Task,2021.1.4,120.112329
,"Rule: When you see blue image, do not press 'spacebar'.",Images/Happy/BF09_HO.jpg,Happy,Yellow,Images/Yellow.jpg,space,ParentConditions/YellowBlueBlue_v1.xlsx,BlueBlueYellow,Conditions/Version_1/BlueFearStop.xlsx,no,PASS,0.378341928,,,,,,,,,0,0,0,0,0,1,1,1,0,31,31,31,,,,,,,,,,,,,,,,,,,,,,,,,,,,,,,,,,,,,,,,,,,,,,,,,,,,,,,,,,,,,,,,,,,,,,,,,,,,,,,1.49,802.8678119,None,space,1,0.2346652,804.4697456,None,804.4697456,None,804.4697456,None,,,,,,,,,,,P033,fencog,1,Post,2022_Apr_12_1149,Go No-Go Task,2021.1.4,120.112329
,"Rule: When you see blue image, do not press 'spacebar'.",Images/Happy/AM09_HE.jpg,Happy,Yellow,Images/Yellow.jpg,space,ParentConditions/YellowBlueBlue_v1.xlsx,BlueBlueYellow,Conditions/Version_1/BlueFearStop.xlsx,no,PASS,0.210164654,,,,,,,,,0,0,0,0,0,1,1,1,0,32,32,32,,,,,,,,,,,,,,,,,,,,,,,,,,,,,,,,,,,,,,,,,,,,,,,,,,,,,,,,,,,,,,,,,,,,,,,,,,,,,,,1.99,804.8688058,None,space,1,0.2625715,806.985784,None,806.985784,None,806.985784,None,,,,,,,,,,,P033,fencog,1,Post,2022_Apr_12_1149,Go No-Go Task,2021.1.4,120.112329
,"Rule: When you see blue image, do not press 'spacebar'.",Images/Fearful/BF14_FO.jpg,Fear,Blue,Images/Blue.jpg,None,ParentConditions/YellowBlueBlue_v1.xlsx,BlueBlueYellow,Conditions/Version_1/BlueFearStop.xlsx,yes,PASS,0.961836097,,,,,,,,,0,0,0,0,0,1,1,1,0,33,33,33,,,,,,,,,,,,,,,,,,,,,,,,,,,,,,,,,,,,,,,,,,,,,,,,,,,,,,,,,,,,,,,,,,,,,,,,,,,,,,,1.64,807.3730748,None,None,1,,809.1180357,None,809.1180357,None,809.1180357,None,,,,,,,,,,,P033,fencog,1,Post,2022_Apr_12_1149,Go No-Go Task,2021.1.4,120.112329
,"Rule: When you see blue image, do not press 'spacebar'.",Images/Fearful/HF05_FC.jpg,Fear,Blue,Images/Blue.jpg,None,ParentConditions/YellowBlueBlue_v1.xlsx,BlueBlueYellow,Conditions/Version_1/BlueFearStop.xlsx,yes,PASS,0.005236598,,,,,,,,,0,0,0,0,0,1,1,1,0,34,34,34,,,,,,,,,,,,,,,,,,,,,,,,,,,,,,,,,,,,,,,,,,,,,,,,,,,,,,,,,,,,,,,,,,,,,,,,,,,,,,,1.44,809.5247961,None,space,0,0.2200955,811.0763882,None,811.0763882,None,811.0763882,None,,,,,,,,,,,P033,fencog,1,Post,2022_Apr_12_1149,Go No-Go Task,2021.1.4,120.112329
,"Rule: When you see blue image, do not press 'spacebar'.",Images/Happy/AM23HAS.jpg,Happy,Yellow,Images/Yellow.jpg,space,ParentConditions/YellowBlueBlue_v1.xlsx,BlueBlueYellow,Conditions/Version_1/BlueFearStop.xlsx,no,PASS,0.130773395,,,,,,,,,0,0,0,0,0,1,1,1,0,35,35,35,,,,,,,,,,,,,,,,,,,,,,,,,,,,,,,,,,,,,,,,,,,,,,,,,,,,,,,,,,,,,,,,,,,,,,,,,,,,,,,1.9,811.4744405,None,None,0,,813.4836741,None,813.4836741,None,813.4836741,None,,,,,,,,,,,P033,fencog,1,Post,2022_Apr_12_1149,Go No-Go Task,2021.1.4,120.112329
,"Rule: When you see blue image, do not press 'spacebar'.",Images/Happy/AM03_HO.jpg,Happy,Yellow,Images/Yellow.jpg,space,ParentConditions/YellowBlueBlue_v1.xlsx,BlueBlueYellow,Conditions/Version_1/BlueFearStop.xlsx,no,PASS,0.295207038,,,,,,,,,0,0,0,0,0,1,1,1,0,36,36,36,,,,,,,,,,,,,,,,,,,,,,,,,,,,,,,,,,,,,,,,,,,,,,,,,,,,,,,,,,,,,,,,,,,,,,,,,,,,,,,2,813.8835561,None,space,1,0.2884846,816.0081278,None,816.0081278,None,816.0081278,None,,,,,,,,,,,P033,fencog,1,Post,2022_Apr_12_1149,Go No-Go Task,2021.1.4,120.112329
,"Rule: When you see blue image, do not press 'spacebar'.",Images/Happy/AF25HAS.jpg,Happy,Yellow,Images/Yellow.jpg,space,ParentConditions/YellowBlueBlue_v1.xlsx,BlueBlueYellow,Conditions/Version_1/BlueFearStop.xlsx,no,PASS,0.320580297,,,,,,,,,0,0,0,0,0,1,1,1,0,37,37,37,,,,,,,,,,,,,,,,,,,,,,,,,,,,,,,,,,,,,,,,,,,,,,,,,,,,,,,,,,,,,,,,,,,,,,,,,,,,,,,1.48,816.3975173,None,space,1,0.2090577,818.0074148,None,818.0074148,None,818.0074148,None,,,,,,,,,,,P033,fencog,1,Post,2022_Apr_12_1149,Go No-Go Task,2021.1.4,120.112329
,"Rule: When you see blue image, do not press 'spacebar'.",Images/Happy/BM08_HO.jpg,Happy,Yellow,Images/Yellow.jpg,space,ParentConditions/YellowBlueBlue_v1.xlsx,BlueBlueYellow,Conditions/Version_1/BlueFearStop.xlsx,no,PASS,0.925023123,,,,,,,,,0,0,0,0,0,1,1,1,0,38,38,38,,,,,,,,,,,,,,,,,,,,,,,,,,,,,,,,,,,,,,,,,,,,,,,,,,,,,,,,,,,,,,,,,,,,,,,,,,,,,,,1.96,818.3876222,None,space,1,0.3278531,820.4484352,None,820.4484352,None,820.4484352,None,,,,,,,,,,,P033,fencog,1,Post,2022_Apr_12_1149,Go No-Go Task,2021.1.4,120.112329
,"Rule: When you see blue image, do not press 'spacebar'.",Images/Happy/AF32HAS.jpg,Happy,Yellow,Images/Yellow.jpg,space,ParentConditions/YellowBlueBlue_v1.xlsx,BlueBlueYellow,Conditions/Version_1/BlueFearStop.xlsx,no,PASS,0.738049347,,,,,,,,,0,0,0,0,0,1,1,1,0,39,39,39,,,,,,,,,,,,,,,,,,,,,,,,,,,,,,,,,,,,,,,,,,,,,,,,,,,,,,,,,,,,,,,,,,,,,,,,,,,,,,,1.76,820.8521639,None,space,1,0.1898766,822.722674,None,822.722674,None,822.722674,None,,,,,,,,,,,P033,fencog,1,Post,2022_Apr_12_1149,Go No-Go Task,2021.1.4,120.112329
,"Rule: When you see blue image, do not press 'spacebar'.",Images/Happy/AF23HAS.jpg,Happy,Yellow,Images/Yellow.jpg,space,ParentConditions/YellowBlueBlue_v1.xlsx,BlueBlueYellow,Conditions/Version_1/BlueFearStop.xlsx,no,PASS,0.90002462,,,,,,,,,0,0,0,0,0,1,1,1,0,40,40,40,,,,,,,,,,,,,,,,,,,,,,,,,,,,,,,,,,,,,,,,,,,,,,,,,,,,,,,,,,,,,,,,,,,,,,,,,,,,,,,1.56,823.1268406,None,space,1,0.2113236,824.7970356,None,824.7970356,None,824.7970356,None,,,,,,,,,,,P033,fencog,1,Post,2022_Apr_12_1149,Go No-Go Task,2021.1.4,120.112329
,"Rule: When you see blue image, do not press 'spacebar'.",Images/Happy/AM32HAS.jpg,Happy,Yellow,Images/Yellow.jpg,space,ParentConditions/YellowBlueBlue_v1.xlsx,BlueBlueYellow,Conditions/Version_1/BlueFearStop.xlsx,no,PASS,0.73898963,,,,,,,,,0,0,0,0,0,1,1,1,0,41,41,41,,,,,,,,,,,,,,,,,,,,,,,,,,,,,,,,,,,,,,,,,,,,,,,,,,,,,,,,,,,,,,,,,,,,,,,,,,,,,,,1.33,825.1978392,None,space,1,0.1861583,826.6382064,None,826.6382064,None,826.6382064,None,,,,,,,,,,,P033,fencog,1,Post,2022_Apr_12_1149,Go No-Go Task,2021.1.4,120.112329
,"Rule: When you see blue image, do not press 'spacebar'.",Images/Fearful/AM30AFS.jpg,Fear,Blue,Images/Blue.jpg,None,ParentConditions/YellowBlueBlue_v1.xlsx,BlueBlueYellow,Conditions/Version_1/BlueFearStop.xlsx,yes,PASS,0.33529906,,,,,,,,,0,0,0,0,0,1,1,1,0,42,42,42,,,,,,,,,,,,,,,,,,,,,,,,,,,,,,,,,,,,,,,,,,,,,,,,,,,,,,,,,,,,,,,,,,,,,,,,,,,,,,,1.2,827.0415427,None,space,0,0.1980331,828.3544827,None,828.3544827,None,828.3544827,None,,,,,,,,,,,P033,fencog,1,Post,2022_Apr_12_1149,Go No-Go Task,2021.1.4,120.112329
,"Rule: When you see blue image, do not press 'spacebar'.",Images/Happy/BM02_HO.jpg,Happy,Yellow,Images/Yellow.jpg,space,ParentConditions/YellowBlueBlue_v1.xlsx,BlueBlueYellow,Conditions/Version_1/BlueFearStop.xlsx,no,PASS,0.711648218,,,,,,,,,0,0,0,0,0,1,1,1,0,43,43,43,,,,,,,,,,,,,,,,,,,,,,,,,,,,,,,,,,,,,,,,,,,,,,,,,,,,,,,,,,,,,,,,,,,,,,,,,,,,,,,1.28,828.7510765,None,None,0,,830.1454741,None,830.1454741,None,830.1454741,None,,,,,,,,,,,P033,fencog,1,Post,2022_Apr_12_1149,Go No-Go Task,2021.1.4,120.112329
,"Rule: When you see blue image, do not press 'spacebar'.",Images/Happy/AM10_HO.jpg,Happy,Yellow,Images/Yellow.jpg,space,ParentConditions/YellowBlueBlue_v1.xlsx,BlueBlueYellow,Conditions/Version_1/BlueFearStop.xlsx,no,PASS,0.781102565,,,,,,,,,0,0,0,0,0,1,1,1,0,44,44,44,,,,,,,,,,,,,,,,,,,,,,,,,,,,,,,,,,,,,,,,,,,,,,,,,,,,,,,,,,,,,,,,,,,,,,,,,,,,,,,1.69,830.5506707,None,space,1,0.2792811,832.353144,None,832.353144,None,832.353144,None,,,,,,,,,,,P033,fencog,1,Post,2022_Apr_12_1149,Go No-Go Task,2021.1.4,120.112329
,"Rule: When you see blue image, do not press 'spacebar'.",Images/Fearful/AM10_FO.jpg,Fear,Blue,Images/Blue.jpg,None,ParentConditions/YellowBlueBlue_v1.xlsx,BlueBlueYellow,Conditions/Version_1/BlueFearStop.xlsx,yes,PASS,0.147470634,,,,,,,,,0,0,0,0,0,1,1,1,0,45,45,45,,,,,,,,,,,,,,,,,,,,,,,,,,,,,,,,,,,,,,,,,,,,,,,,,,,,,,,,,,,,,,,,,,,,,,,,,,,,,,,1.24,832.752267,None,None,1,,834.1026472,None,834.1026472,None,834.1026472,None,,,,,,,,,,,P033,fencog,1,Post,2022_Apr_12_1149,Go No-Go Task,2021.1.4,120.112329
,"Rule: When you see blue image, do not press 'spacebar'.",Images/Happy/AF19HAS.jpg,Happy,Yellow,Images/Yellow.jpg,space,ParentConditions/YellowBlueBlue_v1.xlsx,BlueBlueYellow,Conditions/Version_1/BlueFearStop.xlsx,no,PASS,0.57344846,,,,,,,,,0,0,0,0,0,1,1,1,0,46,46,46,,,,,,,,,,,,,,,,,,,,,,,,,,,,,,,,,,,,,,,,,,,,,,,,,,,,,,,,,,,,,,,,,,,,,,,,,,,,,,,1.66,834.5070318,None,space,1,0.267088,836.2853171,None,836.2853171,None,836.2853171,None,,,,,,,,,,,P033,fencog,1,Post,2022_Apr_12_1149,Go No-Go Task,2021.1.4,120.112329
,"Rule: When you see blue image, do not press 'spacebar'.",Images/Fearful/HF09_FC.jpg,Fear,Blue,Images/Blue.jpg,None,ParentConditions/YellowBlueBlue_v1.xlsx,BlueBlueYellow,Conditions/Version_1/BlueFearStop.xlsx,yes,PASS,0.199358028,,,,,,,,,0,0,0,0,0,1,1,1,0,47,47,47,,,,,,,,,,,,,,,,,,,,,,,,,,,,,,,,,,,,,,,,,,,,,,,,,,,,,,,,,,,,,,,,,,,,,,,,,,,,,,,1.23,836.6799422,None,None,1,,838.0181836,None,838.0181836,None,838.0181836,None,,,,,,,,,,,P033,fencog,1,Post,2022_Apr_12_1149,Go No-Go Task,2021.1.4,120.112329
,"Rule: When you see blue image, do not press 'spacebar'.",Images/Fearful/AM22AFS.jpg,Fear,Blue,Images/Blue.jpg,None,ParentConditions/YellowBlueBlue_v1.xlsx,BlueBlueYellow,Conditions/Version_1/BlueFearStop.xlsx,yes,PASS,0.172763782,,,,,,,,,0,0,0,0,0,1,1,1,0,48,48,48,,,,,,,,,,,,,,,,,,,,,,,,,,,,,,,,,,,,,,,,,,,,,,,,,,,,,,,,,,,,,,,,,,,,,,,,,,,,,,,1.73,838.4236599,None,space,0,0.2527363,840.2676159,None,840.2676159,None,840.2676159,None,,,,,,,,,,,P033,fencog,1,Post,2022_Apr_12_1149,Go No-Go Task,2021.1.4,120.112329
,"Rule: When you see blue image, do not press 'spacebar'.",Images/Happy/AM06_HC.jpg,Happy,Yellow,Images/Yellow.jpg,space,ParentConditions/YellowBlueBlue_v1.xlsx,BlueBlueYellow,Conditions/Version_1/BlueFearStop.xlsx,no,PASS,0.063201857,,,,,,,,,0,0,0,0,0,1,1,1,0,49,49,49,,,,,,,,,,,,,,,,,,,,,,,,,,,,,,,,,,,,,,,,,,,,,,,,,,,,,,,,,,,,,,,,,,,,,,,,,,,,,,,1.85,840.6720341,None,space,1,0.2068507,842.6335325,None,842.6335325,None,842.6335325,None,,,,,,,,,,,P033,fencog,1,Post,2022_Apr_12_1149,Go No-Go Task,2021.1.4,120.112329
,"Rule: When you see blue image, do not press 'spacebar'.",Images/Fearful/AM32AFS.jpg,Fear,Blue,Images/Blue.jpg,None,ParentConditions/YellowBlueBlue_v1.xlsx,BlueBlueYellow,Conditions/Version_1/BlueFearStop.xlsx,yes,PASS,0.03468315,,,,,,,,,0,0,0,0,0,1,1,1,0,50,50,50,,,,,,,,,,,,,,,,,,,,,,,,,,,,,,,,,,,,,,,,,,,,,,,,,,,,,,,,,,,,,,,,,,,,,,,,,,,,,,,1.98,843.0345784,None,None,1,,845.1244134,None,845.1244134,None,845.1244134,None,,,,,,,,,,,P033,fencog,1,Post,2022_Apr_12_1149,Go No-Go Task,2021.1.4,120.112329
,"Rule: When you see blue image, do not press 'spacebar'.",Images/Happy/WF11_HE.jpg,Happy,Yellow,Images/Yellow.jpg,space,ParentConditions/YellowBlueBlue_v1.xlsx,BlueBlueYellow,Conditions/Version_1/BlueFearStop.xlsx,no,PASS,0.513801113,,,,,,,,,0,0,0,0,0,1,1,1,0,51,51,51,,,,,,,,,,,,,,,,,,,,,,,,,,,,,,,,,,,,,,,,,,,,,,,,,,,,,,,,,,,,,,,,,,,,,,,,,,,,,,,1.68,845.5253176,None,space,1,0.228335,847.3320742,None,847.3320742,None,847.3320742,None,,,,,,,,,,,P033,fencog,1,Post,2022_Apr_12_1149,Go No-Go Task,2021.1.4,120.112329
,"Rule: When you see blue image, do not press 'spacebar'.",Images/Fearful/AF28AFS.jpg,Fear,Blue,Images/Blue.jpg,None,ParentConditions/YellowBlueBlue_v1.xlsx,BlueBlueYellow,Conditions/Version_1/BlueFearStop.xlsx,yes,PASS,0.302044934,,,,,,,,,0,0,0,0,0,1,1,1,0,52,52,52,,,,,,,,,,,,,,,,,,,,,,,,,,,,,,,,,,,,,,,,,,,,,,,,,,,,,,,,,,,,,,,,,,,,,,,,,,,,,,,1.86,847.7171672,None,None,1,,849.6981789,None,849.6981789,None,849.6981789,None,,,,,,,,,,,P033,fencog,1,Post,2022_Apr_12_1149,Go No-Go Task,2021.1.4,120.112329
,"Rule: When you see blue image, do not press 'spacebar'.",Images/Happy/HF04_HE.jpg,Happy,Yellow,Images/Yellow.jpg,space,ParentConditions/YellowBlueBlue_v1.xlsx,BlueBlueYellow,Conditions/Version_1/BlueFearStop.xlsx,no,PASS,0.053853704,,,,,,,,,0,0,0,0,0,1,1,1,0,53,53,53,,,,,,,,,,,,,,,,,,,,,,,,,,,,,,,,,,,,,,,,,,,,,,,,,,,,,,,,,,,,,,,,,,,,,,,,,,,,,,,1.4,850.0936829,None,space,1,0.2985835,851.6058384,None,851.6058384,None,851.6058384,None,,,,,,,,,,,P033,fencog,1,Post,2022_Apr_12_1149,Go No-Go Task,2021.1.4,120.112329
,"Rule: When you see blue image, do not press 'spacebar'.",Images/Happy/AM13HAS.jpg,Happy,Yellow,Images/Yellow.jpg,space,ParentConditions/YellowBlueBlue_v1.xlsx,BlueBlueYellow,Conditions/Version_1/BlueFearStop.xlsx,no,PASS,0.997812055,,,,,,,,,0,0,0,0,0,1,1,1,0,54,54,54,,,,,,,,,,,,,,,,,,,,,,,,,,,,,,,,,,,,,,,,,,,,,,,,,,,,,,,,,,,,,,,,,,,,,,,,,,,,,,,1.51,852.0073084,None,space,1,0.2895266,853.6468971,None,853.6468971,None,853.6468971,None,,,,,,,,,,,P033,fencog,1,Post,2022_Apr_12_1149,Go No-Go Task,2021.1.4,120.112329
,"Rule: When you see blue image, do not press 'spacebar'.",Images/Happy/HF10_HE.jpg,Happy,Yellow,Images/Yellow.jpg,space,ParentConditions/YellowBlueBlue_v1.xlsx,BlueBlueYellow,Conditions/Version_1/BlueFearStop.xlsx,no,PASS,0.765826545,,,,,,,,,0,0,0,0,0,1,1,1,0,55,55,55,,,,,,,,,,,,,,,,,,,,,,,,,,,,,,,,,,,,,,,,,,,,,,,,,,,,,,,,,,,,,,,,,,,,,,,,,,,,,,,1.39,854.0351015,None,space,1,0.2143394,855.5380313,None,855.5380313,None,855.5380313,None,,,,,,,,,,,P033,fencog,1,Post,2022_Apr_12_1149,Go No-Go Task,2021.1.4,120.112329
,"Rule: When you see blue image, do not press 'spacebar'.",Images/Happy/AM04_HE.jpg,Happy,Yellow,Images/Yellow.jpg,space,ParentConditions/YellowBlueBlue_v1.xlsx,BlueBlueYellow,Conditions/Version_1/BlueFearStop.xlsx,no,PASS,0.898753996,,,,,,,,,0,0,0,0,0,1,1,1,0,56,56,56,,,,,,,,,,,,,,,,,,,,,,,,,,,,,,,,,,,,,,,,,,,,,,,,,,,,,,,,,,,,,,,,,,,,,,,,,,,,,,,1.93,855.9364184,None,space,1,0.2851224,857.9872687,None,857.9872687,None,857.9872687,None,,,,,,,,,,,P033,fencog,1,Post,2022_Apr_12_1149,Go No-Go Task,2021.1.4,120.112329
,"Rule: When you see blue image, do not press 'spacebar'.",Images/Happy/WF04_HC.jpg,Happy,Yellow,Images/Yellow.jpg,space,ParentConditions/YellowBlueBlue_v1.xlsx,BlueBlueYellow,Conditions/Version_1/BlueFearStop.xlsx,no,PASS,0.340922643,,,,,,,,,0,0,0,0,0,1,1,1,0,57,57,57,,,,,,,,,,,,,,,,,,,,,,,,,,,,,,,,,,,,,,,,,,,,,,,,,,,,,,,,,,,,,,,,,,,,,,,,,,,,,,,1.41,858.3773326,None,space,1,0.2007127,859.9117366,None,859.9117366,None,859.9117366,None,,,,,,,,,,,P033,fencog,1,Post,2022_Apr_12_1149,Go No-Go Task,2021.1.4,120.112329
,"Rule: When you see blue image, do not press 'spacebar'.",Images/Happy/AF01_HE.jpg,Happy,Yellow,Images/Yellow.jpg,space,ParentConditions/YellowBlueBlue_v1.xlsx,BlueBlueYellow,Conditions/Version_1/BlueFearStop.xlsx,no,PASS,0.995067399,,,,,,,,,0,0,0,0,0,1,1,1,0,58,58,58,,,,,,,,,,,,,,,,,,,,,,,,,,,,,,,,,,,,,,,,,,,,,,,,,,,,,,,,,,,,,,,,,,,,,,,,,,,,,,,1.72,860.3011564,None,space,1,0.2398894,862.1443985,None,862.1443985,None,862.1443985,None,,,,,,,,,,,P033,fencog,1,Post,2022_Apr_12_1149,Go No-Go Task,2021.1.4,120.112329
,"Rule: When you see blue image, do not press 'spacebar'.",Images/Happy/HM04_HO.jpg,Happy,Yellow,Images/Yellow.jpg,space,ParentConditions/YellowBlueBlue_v1.xlsx,BlueBlueYellow,Conditions/Version_1/BlueFearStop.xlsx,no,PASS,0.825875437,,,,,,,,,0,0,0,0,0,1,1,1,0,59,59,59,,,,,,,,,,,,,,,,,,,,,,,,,,,,,,,,,,,,,,,,,,,,,,,,,,,,,,,,,,,,,,,,,,,,,,,,,,,,,,,1.53,862.5417767,None,None,0,,864.1938005,None,864.1938005,None,864.1938005,None,,,,,,,,,,,P033,fencog,1,Post,2022_Apr_12_1149,Go No-Go Task,2021.1.4,120.112329
,"Rule: When you see blue image, do not press 'spacebar'.",Images/Happy/AM22HAS.jpg,Happy,Yellow,Images/Yellow.jpg,space,ParentConditions/YellowBlueBlue_v1.xlsx,BlueBlueYellow,Conditions/Version_1/BlueFearStop.xlsx,no,PASS,0.344749657,,,,,,,,,0,0,0,0,0,1,1,1,0,60,60,60,,,,,,,,,,,,,,,,,,,,,,,,,,,,,,,,,,,,,,,,,,,,,,,,,,,,,,,,,,,,,,,,,,,,,,,,,,,,,,,1.21,864.5869155,None,space,1,0.2665272,865.9100216,None,865.9100216,None,865.9100216,None,,,,,,,,,,,P033,fencog,1,Post,2022_Apr_12_1149,Go No-Go Task,2021.1.4,120.112329
,"Rule: When you see blue image, do not press 'spacebar'.",Images/Happy/AF26HAS.jpg,Happy,Yellow,Images/Yellow.jpg,space,ParentConditions/YellowBlueBlue_v1.xlsx,BlueBlueYellow,Conditions/Version_1/BlueFearStop.xlsx,no,PASS,0.338984692,,,,,,,,,0,0,0,0,0,1,1,1,0,61,61,61,,,,,,,,,,,,,,,,,,,,,,,,,,,,,,,,,,,,,,,,,,,,,,,,,,,,,,,,,,,,,,,,,,,,,,,,,,,,,,,1.43,866.3098799,None,space,1,0.1651739,867.8511543,None,867.8511543,None,867.8511543,None,,,,,,,,,,,P033,fencog,1,Post,2022_Apr_12_1149,Go No-Go Task,2021.1.4,120.112329
,"Rule: When you see blue image, do not press 'spacebar'.",Images/Happy/HF05_HO.jpg,Happy,Yellow,Images/Yellow.jpg,space,ParentConditions/YellowBlueBlue_v1.xlsx,BlueBlueYellow,Conditions/Version_1/BlueFearStop.xlsx,no,PASS,0.334889738,,,,,,,,,0,0,0,0,0,1,1,1,0,62,62,62,,,,,,,,,,,,,,,,,,,,,,,,,,,,,,,,,,,,,,,,,,,,,,,,,,,,,,,,,,,,,,,,,,,,,,,,,,,,,,,1.32,868.2500804,None,space,1,0.3484111,869.6838466,None,869.6838466,None,869.6838466,None,,,,,,,,,,,P033,fencog,1,Post,2022_Apr_12_1149,Go No-Go Task,2021.1.4,120.112329
,"Rule: When you see blue image, do not press 'spacebar'.",Images/Happy/AM02_HE.jpg,Happy,Yellow,Images/Yellow.jpg,space,ParentConditions/YellowBlueBlue_v1.xlsx,BlueBlueYellow,Conditions/Version_1/BlueFearStop.xlsx,no,PASS,0.380614974,,,,,,,,,0,0,0,0,0,1,1,1,0,63,63,63,,,,,,,,,,,,,,,,,,,,,,,,,,,,,,,,,,,,,,,,,,,,,,,,,,,,,,,,,,,,,,,,,,,,,,,,,,,,,,,1.71,870.0846024,None,space,1,0.227939,871.9165032,None,871.9165032,None,871.9165032,None,,,,,,,,,,,P033,fencog,1,Post,2022_Apr_12_1149,Go No-Go Task,2021.1.4,120.112329
,"Rule: When you see blue image, do not press 'spacebar'.",Images/Fearful/AF30AFS.jpg,Fear,Blue,Images/Blue.jpg,None,ParentConditions/YellowBlueBlue_v1.xlsx,BlueBlueYellow,Conditions/Version_1/BlueFearStop.xlsx,yes,PASS,0.884817107,,,,,,,,,0,0,0,0,0,1,1,1,0,64,64,64,,,,,,,,,,,,,,,,,,,,,,,,,,,,,,,,,,,,,,,,,,,,,,,,,,,,,,,,,,,,,,,,,,,,,,,,,,,,,,,1.31,872.3121846,None,None,1,,873.7326217,None,873.7326217,None,873.7326217,None,,,,,,,,,,,P033,fencog,1,Post,2022_Apr_12_1149,Go No-Go Task,2021.1.4,120.112329
,"Rule: When you see blue image, do not press 'spacebar'.",Images/Happy/WF05_HC.jpg,Happy,Yellow,Images/Yellow.jpg,space,ParentConditions/YellowBlueBlue_v1.xlsx,BlueBlueYellow,Conditions/Version_1/BlueFearStop.xlsx,no,PASS,0.869002763,,,,,,,,,0,0,0,0,0,1,1,1,0,65,65,65,,,,,,,,,,,,,,,,,,,,,,,,,,,,,,,,,,,,,,,,,,,,,,,,,,,,,,,,,,,,,,,,,,,,,,,,,,,,,,,1.91,874.135547,None,space,1,0.2194231,876.1569568,None,876.1569568,None,876.1569568,None,,,,,,,,,,,P033,fencog,1,Post,2022_Apr_12_1149,Go No-Go Task,2021.1.4,120.112329
,"Rule: When you see blue image, do not press 'spacebar'.",Images/Fearful/AF10_FC.jpg,Fear,Blue,Images/Blue.jpg,None,ParentConditions/YellowBlueBlue_v1.xlsx,BlueBlueYellow,Conditions/Version_1/BlueFearStop.xlsx,yes,PASS,0.369712769,,,,,,,,,0,0,0,0,0,1,1,1,0,66,66,66,,,,,,,,,,,,,,,,,,,,,,,,,,,,,,,,,,,,,,,,,,,,,,,,,,,,,,,,,,,,,,,,,,,,,,,,,,,,,,,1.63,876.5573937,None,space,0,0.2865178,878.2979517,None,878.2979517,None,878.2979517,None,,,,,,,,,,,P033,fencog,1,Post,2022_Apr_12_1149,Go No-Go Task,2021.1.4,120.112329
,"Rule: When you see blue image, do not press 'spacebar'.",Images/Happy/AM03HAS.jpg,Happy,Yellow,Images/Yellow.jpg,space,ParentConditions/YellowBlueBlue_v1.xlsx,BlueBlueYellow,Conditions/Version_1/BlueFearStop.xlsx,no,PASS,0.822857339,,,,,,,,,0,0,0,0,0,1,1,1,0,67,67,67,,,,,,,,,,,,,,,,,,,,,,,,,,,,,,,,,,,,,,,,,,,,,,,,,,,,,,,,,,,,,,,,,,,,,,,,,,,,,,,1.92,878.7583862,None,space,1,0.2194644,880.7972124,None,880.7972124,None,880.7972124,None,,,,,,,,,,,P033,fencog,1,Post,2022_Apr_12_1149,Go No-Go Task,2021.1.4,120.112329
,"Rule: When you see blue image, do not press 'spacebar'.",Images/Happy/AM17HAS.jpg,Happy,Yellow,Images/Yellow.jpg,space,ParentConditions/YellowBlueBlue_v1.xlsx,BlueBlueYellow,Conditions/Version_1/BlueFearStop.xlsx,no,PASS,0.862423036,,,,,,,,,0,0,0,0,0,1,1,1,0,68,68,68,,,,,,,,,,,,,,,,,,,,,,,,,,,,,,,,,,,,,,,,,,,,,,,,,,,,,,,,,,,,,,,,,,,,,,,,,,,,,,,1.8,881.186258,None,space,1,0.319133,883.1132452,None,883.1132452,None,883.1132452,None,,,,,,,,,,,P033,fencog,1,Post,2022_Apr_12_1149,Go No-Go Task,2021.1.4,120.112329
,"Rule: When you see blue image, do not press 'spacebar'.",Images/Happy/AF30HAS.jpg,Happy,Yellow,Images/Yellow.jpg,space,ParentConditions/YellowBlueBlue_v1.xlsx,BlueBlueYellow,Conditions/Version_1/BlueFearStop.xlsx,no,PASS,0.351202581,,,,,,,,,0,0,0,0,0,1,1,1,0,69,69,69,,,,,,,,,,,,,,,,,,,,,,,,,,,,,,,,,,,,,,,,,,,,,,,,,,,,,,,,,,,,,,,,,,,,,,,,,,,,,,,1.55,883.4943444,None,space,1,0.2781474,885.1542615,None,885.1542615,None,885.1542615,None,,,,,,,,,,,P033,fencog,1,Post,2022_Apr_12_1149,Go No-Go Task,2021.1.4,120.112329
,"Rule: When you see blue image, do not press 'spacebar'.",Images/Fearful/BF18_FC.jpg,Fear,Blue,Images/Blue.jpg,None,ParentConditions/YellowBlueBlue_v1.xlsx,BlueBlueYellow,Conditions/Version_1/BlueFearStop.xlsx,yes,PASS,0.351106063,,,,,,,,,0,0,0,0,0,1,1,1,0,70,70,70,,,,,,,,,,,,,,,,,,,,,,,,,,,,,,,,,,,,,,,,,,,,,,,,,,,,,,,,,,,,,,,,,,,,,,,,,,,,,,,1.52,885.5507296,None,None,1,,887.1871115,None,887.1871115,None,887.1871115,None,,,,,,,,,,,P033,fencog,1,Post,2022_Apr_12_1149,Go No-Go Task,2021.1.4,120.112329
,"Rule: When you see blue image, do not press 'spacebar'.",Images/Fearful/HM09_FC.jpg,Fear,Blue,Images/Blue.jpg,None,ParentConditions/YellowBlueBlue_v1.xlsx,BlueBlueYellow,Conditions/Version_1/BlueFearStop.xlsx,yes,PASS,0.281450445,,,,,,,,,0,0,0,0,0,1,1,1,0,71,71,71,,,,,,,,,,,,,,,,,,,,,,,,,,,,,,,,,,,,,,,,,,,,,,,,,,,,,,,,,,,,,,,,,,,,,,,,,,,,,,,1.34,887.5891043,None,None,1,,889.0448904,None,889.0448904,None,889.0448904,None,,,,,,,,,,,P033,fencog,1,Post,2022_Apr_12_1149,Go No-Go Task,2021.1.4,120.112329
,"Rule: When you see blue image, do not press 'spacebar'.",Images/Happy/HF09_HE.jpg,Happy,Yellow,Images/Yellow.jpg,space,ParentConditions/YellowBlueBlue_v1.xlsx,BlueBlueYellow,Conditions/Version_1/BlueFearStop.xlsx,no,PASS,0.967248259,,,,,,,,,0,0,0,0,0,1,1,1,0,72,72,72,,,,,,,,,,,,,,,,,,,,,,,,,,,,,,,,,,,,,,,,,,,,,,,,,,,,,,,,,,,,,,,,,,,,,,,,,,,,,,,1.65,889.4425659,None,space,1,0.2542339,891.1941482,None,891.1941482,None,891.1941482,None,,,,,,,,,,,P033,fencog,1,Post,2022_Apr_12_1149,Go No-Go Task,2021.1.4,120.112329
