CondFileP,Instructions,FaceE,Express,ColourT,ColourF,CorrectAnsP,MasterCondFile,BlockOrder,CondFile,ColCheck,Triplicate_check,SORT_BY_SMALLEST,EPracticeOuterLoop.thisRepN,EPracticeOuterLoop.thisTrialN,EPracticeOuterLoop.thisN,EPracticeOuterLoop.thisIndex,EPracticeInnerLoop.thisRepN,EPracticeInnerLoop.thisTrialN,EPracticeInnerLoop.thisN,EPracticeInnerLoop.thisIndex,MasterLoop.thisRepN,MasterLoop.thisTrialN,MasterLoop.thisN,MasterLoop.thisIndex,OuterLoop.thisRepN,OuterLoop.thisTrialN,OuterLoop.thisN,OuterLoop.thisIndex,InnerLoop.thisRepN,InnerLoop.thisTrialN,InnerLoop.thisN,InnerLoop.thisIndex,text_13.started,text_13.stopped,key_resp_10.keys,key_resp_10.rt,key_resp_10.started,key_resp_10.stopped,text4.started,text4.stopped,EmotionTaskInstructions1.keys,EmotionTaskInstructions1.rt,EmotionTaskInstructions1.started,EmotionTaskInstructions1.stopped,text_4.started,text_4.stopped,key_resp_5.keys,key_resp_5.rt,key_resp_5.started,key_resp_5.stopped,Text_14.started,Text_14.stopped,key_resp_9.keys,key_resp_9.rt,key_resp_9.started,key_resp_9.stopped,text_5.started,text_5.stopped,text_6.started,text_6.stopped,key_resp_7.keys,key_resp_7.rt,key_resp_7.started,key_resp_7.stopped,text_10.started,text_10.stopped,text_11.started,text_11.stopped,text_12.started,text_12.stopped,ISIjitterPractice,EPracticeISIMarker.started,EPracticeISIMarker.stopped,Pract.keys,Pract.corr,Pract.rt,Pract.started,Pract.stopped,PracticeFace.started,PracticeFace.stopped,ColourPractice.started,ColourPractice.stopped,text_7.started,text_7.stopped,EndOfPractice.started,EndOfPractice.stopped,key_resp_8.keys,key_resp_8.rt,key_resp_8.started,key_resp_8.stopped,text_8.started,text_8.stopped,key_resp_6.keys,key_resp_6.rt,key_resp_6.started,key_resp_6.stopped,text_2.started,text_2.stopped,text_3.started,text_3.stopped,key_resp_3.keys,key_resp_3.rt,key_resp_3.started,key_resp_3.stopped,TaskBlock.started,TaskBlock.stopped,BlockNo1.started,BlockNo1.stopped,OfBlock.started,OfBlock.stopped,ISIjitter,ISImarker.started,ISImarker.stopped,key_resp.keys,key_resp.corr,key_resp.started,key_resp.stopped,FaceSet.started,FaceSet.stopped,Colour.started,Colour.stopped,key_resp.rt,EndBlockText.started,EndBlockText.stopped,key_resp_4.keys,key_resp_4.rt,key_resp_4.started,key_resp_4.stopped,BreakText2.started,BreakText2.stopped,PressToContinue.started,PressToContinue.stopped,participant,Study Name,Task Version (required to run),PRE/POST,date,expName,psychopyVersion,frameRate,
,,,,,,,,,,,,,,,,,,,,,,,,,,,,,,,,,63.249653599981684,None,space,34.79296039999463,64.23934480000753,None,,,,,,,,,,,,,,,,,,,,,,,,,,,,,,,,,,,,,,,,,,,,,,,,,,,,,,,,,,,,,,,,,,,,,,,,,,,,,,,,,,,,,,,,,,,,,,,P034,FENCOG,2,Pre,2022_Apr_07_1037,Go No-Go Task,2021.1.4,119.98708934675189,
,,,,,,,,,,,,,,,,,,,,,,,,,,,,,,,,,,,,,,,100.56941840000218,None,space,9.169240600022022,100.56941840000218,None,,,,,,,,,,,,,,,,,,,,,,,,,,,,,,,,,,,,,,,,,,,,,,,,,,,,,,,,,,,,,,,,,,,,,,,,,,,,,,,,,,,,,,,,,P034,FENCOG,2,Pre,2022_Apr_07_1037,Go No-Go Task,2021.1.4,119.98708934675189,
,,,,,,,,,,,,,,,,,,,,,,,,,,,,,,,,,,,,,,,,,,,,,109.82453559996793,None,space,7.75316759996349,109.82453559996793,None,,,,,,,,,,,,,,,,,,,,,,,,,,,,,,,,,,,,,,,,,,,,,,,,,,,,,,,,,,,,,,,,,,,,,,,,,,,,,,,,,,,P034,FENCOG,2,Pre,2022_Apr_07_1037,Go No-Go Task,2021.1.4,119.98708934675189,
,,,,,,,,,,,,,,,,,,,,,,,,,,,,,,,,,,,,,,,,,,,,,,,,,,,117.59290290001081,None,space,6.276134599989746,117.59290290001081,None,,,,,,,,,,,,,,,,,,,,,,,,,,,,,,,,,,,,,,,,,,,,,,,,,,,,,,,,,,,,,,,,,,,,,,,,,,,,,P034,FENCOG,2,Pre,2022_Apr_07_1037,Go No-Go Task,2021.1.4,119.98708934675189,
EPracticeConditions/BlueEyes.csv,"Rule: When you see a blue image, do not press 'spacebar'.",Images/Happy/BM02_HO.jpg,Happy,Yellow,Images/Yellow.jpg,space,,,,,,,0,0,0,0,0,0,0,2,,,,,,,,,,,,,,,,,,,,,,,,,,,,,,,,,,,,,123.96406510000816,None,126.95458349998808,None,space,16.914731300028507,126.95458349998808,None,123.96406510000816,None,123.96406510000816,None,123.96406510000816,None,1.2,144.09314630000154,None,space,1,0.34481089998735115,145.44117070001084,None,145.44117070001084,None,145.44117070001084,None,146.8499927999801,None,,,,,,,,,,,,,,,,,,,,,,,,,,,,,,,,,,,,,,,,,,,,,,,,,P034,FENCOG,2,Pre,2022_Apr_07_1037,Go No-Go Task,2021.1.4,119.98708934675189,
EPracticeConditions/BlueEyes.csv,"Rule: When you see a blue image, do not press 'spacebar'.",Images/Happy/HF04_HE.jpg,Happy,Yellow,Images/Yellow.jpg,space,,,,,,,0,0,0,0,0,1,1,4,,,,,,,,,,,,,,,,,,,,,,,,,,,,,,,,,,,,,,,,,,,,,,,,,,,1.6,148.33267059997888,None,None,0,,150.0479534000042,None,150.0479534000042,None,150.0479534000042,None,150.9468772999826,None,,,,,,,,,,,,,,,,,,,,,,,,,,,,,,,,,,,,,,,,,,,,,,,,,P034,FENCOG,2,Pre,2022_Apr_07_1037,Go No-Go Task,2021.1.4,119.98708934675189,
EPracticeConditions/BlueEyes.csv,"Rule: When you see a blue image, do not press 'spacebar'.",Images/Happy/BM08_HO.jpg,Happy,Yellow,Images/Yellow.jpg,space,,,,,,,0,0,0,0,0,2,2,3,,,,,,,,,,,,,,,,,,,,,,,,,,,,,,,,,,,,,,,,,,,,,,,,,,,1.5,152.94625999999698,None,space,1,0.3072408000007272,154.54658590001054,None,154.54658590001054,None,154.54658590001054,None,155.44552150001982,None,,,,,,,,,,,,,,,,,,,,,,,,,,,,,,,,,,,,,,,,,,,,,,,,,P034,FENCOG,2,Pre,2022_Apr_07_1037,Go No-Go Task,2021.1.4,119.98708934675189,
EPracticeConditions/BlueEyes.csv,"Rule: When you see a blue image, do not press 'spacebar'.",Images/Happy/HF05_HO.jpg,Happy,Yellow,Images/Yellow.jpg,space,,,,,,,0,0,0,0,0,3,3,5,,,,,,,,,,,,,,,,,,,,,,,,,,,,,,,,,,,,,,,,,,,,,,,,,,,1.3,157.44492789998185,None,space,1,0.21816789999138564,158.84540029999334,None,158.84540029999334,None,158.84540029999334,None,159.735920600011,None,,,,,,,,,,,,,,,,,,,,,,,,,,,,,,,,,,,,,,,,,,,,,,,,,P034,FENCOG,2,Pre,2022_Apr_07_1037,Go No-Go Task,2021.1.4,119.98708934675189,
EPracticeConditions/BlueEyes.csv,"Rule: When you see a blue image, do not press 'spacebar'.",Images/Fearful/HM09_FC.jpg,Fear,Blue,Images/Blue.jpg,None,,,,,,,0,0,0,0,0,4,4,0,,,,,,,,,,,,,,,,,,,,,,,,,,,,,,,,,,,,,,,,,,,,,,,,,,,1.7,161.73547289997805,None,space,0,0.20110169996041805,163.54398169997148,None,163.54398169997148,None,163.54398169997148,None,164.44286760000978,None,,,,,,,,,,,,,,,,,,,,,,,,,,,,,,,,,,,,,,,,,,,,,,,,,P034,FENCOG,2,Pre,2022_Apr_07_1037,Go No-Go Task,2021.1.4,119.98708934675189,
EPracticeConditions/BlueEyes.csv,"Rule: When you see a blue image, do not press 'spacebar'.",Images/Happy/HF10_HE.jpg,Happy,Yellow,Images/Yellow.jpg,space,,,,,,,0,0,0,0,0,5,5,7,,,,,,,,,,,,,,,,,,,,,,,,,,,,,,,,,,,,,,,,,,,,,,,,,,,1.4,166.44232530001318,None,space,1,0.2672869000234641,167.95099119999213,None,167.95099119999213,None,167.95099119999213,None,168.84158449998358,None,,,,,,,,,,,,,,,,,,,,,,,,,,,,,,,,,,,,,,,,,,,,,,,,,P034,FENCOG,2,Pre,2022_Apr_07_1037,Go No-Go Task,2021.1.4,119.98708934675189,
EPracticeConditions/BlueEyes.csv,"Rule: When you see a blue image, do not press 'spacebar'.",Images/Fearful/AF01_FO.jpg,Fear,Blue,Images/Blue.jpg,None,,,,,,,0,0,0,0,0,6,6,1,,,,,,,,,,,,,,,,,,,,,,,,,,,,,,,,,,,,,,,,,,,,,,,,,,,1.9,170.8411074000178,None,None,1,,172.84960449999198,None,172.84960449999198,None,172.84960449999198,None,173.7401111999643,None,,,,,,,,,,,,,,,,,,,,,,,,,,,,,,,,,,,,,,,,,,,,,,,,,P034,FENCOG,2,Pre,2022_Apr_07_1037,Go No-Go Task,2021.1.4,119.98708934675189,
EPracticeConditions/BlueEyes.csv,"Rule: When you see a blue image, do not press 'spacebar'.",Images/Happy/HF09_HE.jpg,Happy,Yellow,Images/Yellow.jpg,space,,,,,,,0,0,0,0,0,7,7,6,,,,,,,,,,,,,,,,,,,,,,,,,,,,,,,,,,,,,,,,,,,,,,,,,,,1.8,175.73955280001974,None,space,1,0.26576889998978004,177.64813859999413,None,177.64813859999413,None,177.64813859999413,None,178.53864529996645,None,,,,,,,,,,,,,,,,,,,,,,,,,,,,,,,,,,,,,,,,,,,,,,,,,P034,FENCOG,2,Pre,2022_Apr_07_1037,Go No-Go Task,2021.1.4,119.98708934675189,
EPracticeConditions/BlueEyes.csv,"Rule: When you see a blue image, do not press 'spacebar'.",,,,,,,,,,,,0,0,0,0,,,,,,,,,,,,,,,,,,,,,,,,,,,,,,,,,,,,,,,,,,,,,,,,,,,,,,,,,,,,,,,,,,,,,,,,,,,,,,,,,,,,,,,,,,,,,,,,,,,,,,,,,,,,,,,,,,,,,P034,FENCOG,2,Pre,2022_Apr_07_1037,Go No-Go Task,2021.1.4,119.98708934675189,
EPracticeConditions/YellowEyes.csv,"Rule: When you see a yellow image, do not press 'spacebar'.",Images/Happy/BF05_HO.jpg,Happy,Yellow,Images/Yellow.jpg,None,,,,,,,0,1,1,1,0,0,0,1,,,,,,,,,,,,,,,,,,,,,,,,,,,,,,,,,,,,,180.55684699997073,None,183.54581229999894,None,space,1.1185767999850214,183.54581229999894,None,180.55684699997073,None,180.55684699997073,None,180.55684699997073,None,1.8,184.6879260999849,None,space,0,0.3432563000242226,186.603822199977,None,186.603822199977,None,186.603822199977,None,187.49460560001899,None,,,,,,,,,,,,,,,,,,,,,,,,,,,,,,,,,,,,,,,,,,,,,,,,,P034,FENCOG,2,Pre,2022_Apr_07_1037,Go No-Go Task,2021.1.4,119.98708934675189,
EPracticeConditions/YellowEyes.csv,"Rule: When you see a yellow image, do not press 'spacebar'.",Images/Fearful/AM22AFS.jpg,Fear,Blue,Images/Blue.jpg,space,,,,,,,0,1,1,1,0,1,1,5,,,,,,,,,,,,,,,,,,,,,,,,,,,,,,,,,,,,,,,,,,,,,,,,,,,1.3,189.49384959996678,None,None,0,,190.90260289999424,None,190.90260289999424,None,190.90260289999424,None,191.79319519997807,None,,,,,,,,,,,,,,,,,,,,,,,,,,,,,,,,,,,,,,,,,,,,,,,,,P034,FENCOG,2,Pre,2022_Apr_07_1037,Go No-Go Task,2021.1.4,119.98708934675189,
EPracticeConditions/YellowEyes.csv,"Rule: When you see a yellow image, do not press 'spacebar'.",Images/Fearful/AM19AFS.jpg,Fear,Blue,Images/Blue.jpg,space,,,,,,,0,1,1,1,0,2,2,4,,,,,,,,,,,,,,,,,,,,,,,,,,,,,,,,,,,,,,,,,,,,,,,,,,,1.6,193.79254819999915,None,None,0,,195.5012506999774,None,195.5012506999774,None,195.5012506999774,None,196.39191210002173,None,,,,,,,,,,,,,,,,,,,,,,,,,,,,,,,,,,,,,,,,,,,,,,,,,P034,FENCOG,2,Pre,2022_Apr_07_1037,Go No-Go Task,2021.1.4,119.98708934675189,
EPracticeConditions/YellowEyes.csv,"Rule: When you see a yellow image, do not press 'spacebar'.",Images/Fearful/AM17AFS.jpg,Fear,Blue,Images/Blue.jpg,space,,,,,,,0,1,1,1,0,3,3,3,,,,,,,,,,,,,,,,,,,,,,,,,,,,,,,,,,,,,,,,,,,,,,,,,,,1.2,198.39117419999093,None,space,1,0.3351277000037953,199.6999581999844,None,199.6999581999844,None,199.6999581999844,None,200.5906414000201,None,,,,,,,,,,,,,,,,,,,,,,,,,,,,,,,,,,,,,,,,,,,,,,,,,P034,FENCOG,2,Pre,2022_Apr_07_1037,Go No-Go Task,2021.1.4,119.98708934675189,
EPracticeConditions/YellowEyes.csv,"Rule: When you see a yellow image, do not press 'spacebar'.",Images/Fearful/AM16AFS.jpg,Fear,Blue,Images/Blue.jpg,space,,,,,,,0,1,1,1,0,4,4,2,,,,,,,,,,,,,,,,,,,,,,,,,,,,,,,,,,,,,,,,,,,,,,,,,,,1.4,202.58998049999354,None,space,1,0.26577549998182803,204.0986754000187,None,204.0986754000187,None,204.0986754000187,None,204.98943640000653,None,,,,,,,,,,,,,,,,,,,,,,,,,,,,,,,,,,,,,,,,,,,,,,,,,P034,FENCOG,2,Pre,2022_Apr_07_1037,Go No-Go Task,2021.1.4,119.98708934675189,
EPracticeConditions/YellowEyes.csv,"Rule: When you see a yellow image, do not press 'spacebar'.",Images/Fearful/AM23AFS.jpg,Fear,Blue,Images/Blue.jpg,space,,,,,,,0,1,1,1,0,5,5,6,,,,,,,,,,,,,,,,,,,,,,,,,,,,,,,,,,,,,,,,,,,,,,,,,,,1.7,206.98965750000207,None,space,1,0.3007037999923341,208.7977450999897,None,208.7977450999897,None,208.7977450999897,None,209.70418980001705,None,,,,,,,,,,,,,,,,,,,,,,,,,,,,,,,,,,,,,,,,,,,,,,,,,P034,FENCOG,2,Pre,2022_Apr_07_1037,Go No-Go Task,2021.1.4,119.98708934675189,
EPracticeConditions/YellowEyes.csv,"Rule: When you see a yellow image, do not press 'spacebar'.",Images/Happy/AM32HAS.jpg,Happy,Yellow,Images/Yellow.jpg,None,,,,,,,0,1,1,1,0,6,6,0,,,,,,,,,,,,,,,,,,,,,,,,,,,,,,,,,,,,,,,,,,,,,,,,,,,1.5,211.70783450000454,None,space,0,0.32394230004865676,213.32130449998658,None,213.32130449998658,None,213.32130449998658,None,214.2200769999763,None,,,,,,,,,,,,,,,,,,,,,,,,,,,,,,,,,,,,,,,,,,,,,,,,,P034,FENCOG,2,Pre,2022_Apr_07_1037,Go No-Go Task,2021.1.4,119.98708934675189,
EPracticeConditions/YellowEyes.csv,"Rule: When you see a yellow image, do not press 'spacebar'.",Images/Fearful/AM24AFS.jpg,Fear,Blue,Images/Blue.jpg,space,,,,,,,0,1,1,1,0,7,7,7,,,,,,,,,,,,,,,,,,,,,,,,,,,,,,,,,,,,,,,,,,,,,,,,,,,1.9,216.2197210000013,None,space,1,0.27826390002155676,218.22822390001966,None,218.22822390001966,None,218.22822390001966,None,219.1205905000097,None,,,,,,,,,,,,,,,,,,,,,,,,,,,,,,,,,,,,,,,,,,,,,,,,,P034,FENCOG,2,Pre,2022_Apr_07_1037,Go No-Go Task,2021.1.4,119.98708934675189,
EPracticeConditions/YellowEyes.csv,"Rule: When you see a yellow image, do not press 'spacebar'.",,,,,,,,,,,,0,1,1,1,,,,,,,,,,,,,,,,,,,,,,,,,,,,,,,,,,,,,,,,,,,,,,,,,,,,,,,,,,,,,,,,,,,,,,,,,,,,,,,,,,,,,,,,,,,,,,,,,,,,,,,,,,,,,,,,,,,,,P034,FENCOG,2,Pre,2022_Apr_07_1037,Go No-Go Task,2021.1.4,119.98708934675189,
EPracticeConditions/BlueScram.csv,"Rule: When you see a blue image, do not press 'spacebar'.",Images/Scram1/AM03NES.jpg,Scramble,Yellow,Images/Yellow.jpg,space,,,,,,,0,2,2,2,0,0,0,4,,,,,,,,,,,,,,,,,,,,,,,,,,,,,,,,,,,,,221.13594379997812,None,224.11759259999963,None,space,0.7032175999484025,224.11759259999963,None,221.13594379997812,None,221.13594379997812,None,221.13594379997812,None,1.8,224.84998559998348,None,space,1,0.2977281999774277,226.75069249997614,None,226.75069249997614,None,226.75069249997614,None,227.64238320000004,None,,,,,,,,,,,,,,,,,,,,,,,,,,,,,,,,,,,,,,,,,,,,,,,,,P034,FENCOG,2,Pre,2022_Apr_07_1037,Go No-Go Task,2021.1.4,119.98708934675189,
EPracticeConditions/BlueScram.csv,"Rule: When you see a blue image, do not press 'spacebar'.",Images/Scram1/AM04_NC.jpg,Scramble,Yellow,Images/Yellow.jpg,space,,,,,,,0,2,2,2,0,1,1,3,,,,,,,,,,,,,,,,,,,,,,,,,,,,,,,,,,,,,,,,,,,,,,,,,,,1.3,229.65070040000137,None,space,1,0.3073390999925323,231.06620070000645,None,231.06620070000645,None,231.06620070000645,None,231.95668730000034,None,,,,,,,,,,,,,,,,,,,,,,,,,,,,,,,,,,,,,,,,,,,,,,,,,P034,FENCOG,2,Pre,2022_Apr_07_1037,Go No-Go Task,2021.1.4,119.98708934675189,
EPracticeConditions/BlueScram.csv,"Rule: When you see a blue image, do not press 'spacebar'.",Images/Scram1/AM13NES.jpg,Scramble,Yellow,Images/Yellow.jpg,space,,,,,,,0,2,2,2,0,2,2,5,,,,,,,,,,,,,,,,,,,,,,,,,,,,,,,,,,,,,,,,,,,,,,,,,,,1.7,233.9559577999753,None,space,1,0.2969585000537336,235.76481289998628,None,235.76481289998628,None,235.76481289998628,None,236.65964019997045,None,,,,,,,,,,,,,,,,,,,,,,,,,,,,,,,,,,,,,,,,,,,,,,,,,P034,FENCOG,2,Pre,2022_Apr_07_1037,Go No-Go Task,2021.1.4,119.98708934675189,
EPracticeConditions/BlueScram.csv,"Rule: When you see a blue image, do not press 'spacebar'.",Images/Scram2/AF25NES.jpg,Scramble,Yellow,Images/Yellow.jpg,space,,,,,,,0,2,2,2,0,3,3,7,,,,,,,,,,,,,,,,,,,,,,,,,,,,,,,,,,,,,,,,,,,,,,,,,,,1.4,238.66315959999338,None,space,1,0.3291524999658577,240.1715485000168,None,240.1715485000168,None,240.1715485000168,None,241.06218649999937,None,,,,,,,,,,,,,,,,,,,,,,,,,,,,,,,,,,,,,,,,,,,,,,,,,P034,FENCOG,2,Pre,2022_Apr_07_1037,Go No-Go Task,2021.1.4,119.98708934675189,
EPracticeConditions/BlueScram.csv,"Rule: When you see a blue image, do not press 'spacebar'.",Images/Scram2/AM03_NC.jpg,Scramble,Yellow,Images/Yellow.jpg,space,,,,,,,0,2,2,2,0,4,4,6,,,,,,,,,,,,,,,,,,,,,,,,,,,,,,,,,,,,,,,,,,,,,,,,,,,1.6,243.0708971999702,None,space,1,0.2675834000110626,244.78715479996754,None,244.78715479996754,None,244.78715479996754,None,245.681922400021,None,,,,,,,,,,,,,,,,,,,,,,,,,,,,,,,,,,,,,,,,,,,,,,,,,P034,FENCOG,2,Pre,2022_Apr_07_1037,Go No-Go Task,2021.1.4,119.98708934675189,
EPracticeConditions/BlueScram.csv,"Rule: When you see a blue image, do not press 'spacebar'.",Images/Scram2/AF10_NC.jpg,Scramble,Yellow,Images/Yellow.jpg,space,,,,,,,0,2,2,2,0,5,5,2,,,,,,,,,,,,,,,,,,,,,,,,,,,,,,,,,,,,,,,,,,,,,,,,,,,1.5,247.6852532000048,None,space,1,0.3331848999951035,249.29421019996516,None,249.29421019996516,None,249.29421019996516,None,250.18469039996853,None,,,,,,,,,,,,,,,,,,,,,,,,,,,,,,,,,,,,,,,,,,,,,,,,,P034,FENCOG,2,Pre,2022_Apr_07_1037,Go No-Go Task,2021.1.4,119.98708934675189,
EPracticeConditions/BlueScram.csv,"Rule: When you see a blue image, do not press 'spacebar'.",Images/Scram1/BF18_NC.jpg,Scramble,Blue,Images/Blue.jpg,None,,,,,,,0,2,2,2,0,6,6,1,,,,,,,,,,,,,,,,,,,,,,,,,,,,,,,,,,,,,,,,,,,,,,,,,,,1.9,252.18485540000256,None,space,0,0.2799955999944359,254.20085869997274,None,254.20085869997274,None,254.20085869997274,None,255.0913792999927,None,,,,,,,,,,,,,,,,,,,,,,,,,,,,,,,,,,,,,,,,,,,,,,,,,P034,FENCOG,2,Pre,2022_Apr_07_1037,Go No-Go Task,2021.1.4,119.98708934675189,
EPracticeConditions/BlueScram.csv,"Rule: When you see a blue image, do not press 'spacebar'.",Images/Scram1/BM08_NC.jpg,Scramble,Blue,Images/Blue.jpg,None,,,,,,,0,2,2,2,0,7,7,0,,,,,,,,,,,,,,,,,,,,,,,,,,,,,,,,,,,,,,,,,,,,,,,,,,,1.2,257.0909870999749,None,None,1,,258.3997122999863,None,258.3997122999863,None,258.3997122999863,None,259.30426100001205,None,,,,,,,,,,,,,,,,,,,,,,,,,,,,,,,,,,,,,,,,,,,,,,,,,P034,FENCOG,2,Pre,2022_Apr_07_1037,Go No-Go Task,2021.1.4,119.98708934675189,
EPracticeConditions/BlueScram.csv,"Rule: When you see a blue image, do not press 'spacebar'.",,,,,,,,,,,,0,2,2,2,,,,,,,,,,,,,,,,,,,,,,,,,,,,,,,,,,,,,,,,,,,,,,,,,,,,,,,,,,,,,,,,,,,,,,,,,,,,,,,,,,,,,,,,,,,,,,,,,,,,,,,,,,,,,,,,,,,,,P034,FENCOG,2,Pre,2022_Apr_07_1037,Go No-Go Task,2021.1.4,119.98708934675189,
EPracticeConditions/YellowScram.csv,"Rule: When you see a yellow image, do not press 'spacebar'.",Images/Scram1/HF04_NC.jpg,Scramble,Blue,Images/Blue.jpg,space,,,,,,,0,3,3,3,0,0,0,2,,,,,,,,,,,,,,,,,,,,,,,,,,,,,,,,,,,,,261.314584799984,None,264.2974824999692,None,space,0.4201922000502236,264.2974824999692,None,261.314584799984,None,261.314584799984,None,261.314584799984,None,1.9,264.74739610002143,None,None,0,,266.75561449996894,None,266.75561449996894,None,266.75561449996894,None,267.6488185999915,None,,,,,,,,,,,,,,,,,,,,,,,,,,,,,,,,,,,,,,,,,,,,,,,,,P034,FENCOG,2,Pre,2022_Apr_07_1037,Go No-Go Task,2021.1.4,119.98708934675189,
EPracticeConditions/YellowScram.csv,"Rule: When you see a yellow image, do not press 'spacebar'.",Images/Scram1/AF10_NC.jpg,Scramble,Blue,Images/Blue.jpg,space,,,,,,,0,3,3,3,0,1,1,6,,,,,,,,,,,,,,,,,,,,,,,,,,,,,,,,,,,,,,,,,,,,,,,,,,,1.3,269.65402690001065,None,None,0,,271.0627793999738,None,271.0627793999738,None,271.0627793999738,None,271.95899949996965,None,,,,,,,,,,,,,,,,,,,,,,,,,,,,,,,,,,,,,,,,,,,,,,,,,P034,FENCOG,2,Pre,2022_Apr_07_1037,Go No-Go Task,2021.1.4,119.98708934675189,
EPracticeConditions/YellowScram.csv,"Rule: When you see a yellow image, do not press 'spacebar'.",Images/Scram1/BM01_NC.jpg,Scramble,Blue,Images/Blue.jpg,space,,,,,,,0,3,3,3,0,2,2,5,,,,,,,,,,,,,,,,,,,,,,,,,,,,,,,,,,,,,,,,,,,,,,,,,,,1.4,273.960914700001,None,space,1,0.35697500000242144,275.4698217000114,None,275.4698217000114,None,275.4698217000114,None,276.36018309998326,None,,,,,,,,,,,,,,,,,,,,,,,,,,,,,,,,,,,,,,,,,,,,,,,,,P034,FENCOG,2,Pre,2022_Apr_07_1037,Go No-Go Task,2021.1.4,119.98708934675189,
EPracticeConditions/YellowScram.csv,"Rule: When you see a yellow image, do not press 'spacebar'.",Images/Scram1/AF24NES.jpg,Scramble,Blue,Images/Blue.jpg,space,,,,,,,0,3,3,3,0,3,3,7,,,,,,,,,,,,,,,,,,,,,,,,,,,,,,,,,,,,,,,,,,,,,,,,,,,1.8,278.36362780001946,None,space,1,0.384629100037273,280.27640059997793,None,280.27640059997793,None,280.27640059997793,None,281.1727207999793,None,,,,,,,,,,,,,,,,,,,,,,,,,,,,,,,,,,,,,,,,,,,,,,,,,P034,FENCOG,2,Pre,2022_Apr_07_1037,Go No-Go Task,2021.1.4,119.98708934675189,
EPracticeConditions/YellowScram.csv,"Rule: When you see a yellow image, do not press 'spacebar'.",Images/Scram1/AF07NES.jpg,Scramble,Blue,Images/Blue.jpg,space,,,,,,,0,3,3,3,0,4,4,3,,,,,,,,,,,,,,,,,,,,,,,,,,,,,,,,,,,,,,,,,,,,,,,,,,,1.5,283.1750166999991,None,space,1,0.2590465000248514,284.78353650000645,None,284.78353650000645,None,284.78353650000645,None,285.67873839999083,None,,,,,,,,,,,,,,,,,,,,,,,,,,,,,,,,,,,,,,,,,,,,,,,,,P034,FENCOG,2,Pre,2022_Apr_07_1037,Go No-Go Task,2021.1.4,119.98708934675189,
EPracticeConditions/YellowScram.csv,"Rule: When you see a yellow image, do not press 'spacebar'.",Images/Scram2/AM03NES.jpg,Scramble,Yellow,Images/Yellow.jpg,None,,,,,,,0,3,3,3,0,5,5,1,,,,,,,,,,,,,,,,,,,,,,,,,,,,,,,,,,,,,,,,,,,,,,,,,,,1.7,287.6843373000156,None,space,0,0.3067890999955125,289.4988672999898,None,289.4988672999898,None,289.4988672999898,None,290.3938205000013,None,,,,,,,,,,,,,,,,,,,,,,,,,,,,,,,,,,,,,,,,,,,,,,,,,P034,FENCOG,2,Pre,2022_Apr_07_1037,Go No-Go Task,2021.1.4,119.98708934675189,
EPracticeConditions/YellowScram.csv,"Rule: When you see a yellow image, do not press 'spacebar'.",Images/Scram2/HM06_NC.jpg,Scramble,Yellow,Images/Yellow.jpg,None,,,,,,,0,3,3,3,0,6,6,0,,,,,,,,,,,,,,,,,,,,,,,,,,,,,,,,,,,,,,,,,,,,,,,,,,,1.6,292.3982281999779,None,None,1,,294.1142941999715,None,294.1142941999715,None,294.1142941999715,None,295.00676499999827,None,,,,,,,,,,,,,,,,,,,,,,,,,,,,,,,,,,,,,,,,,,,,,,,,,P034,FENCOG,2,Pre,2022_Apr_07_1037,Go No-Go Task,2021.1.4,119.98708934675189,
EPracticeConditions/YellowScram.csv,"Rule: When you see a yellow image, do not press 'spacebar'.",Images/Scram1/AF30NES.JPG,Scramble,Blue,Images/Blue.jpg,space,,,,,,,0,3,3,3,0,7,7,4,,,,,,,,,,,,,,,,,,,,,,,,,,,,,,,,,,,,,,,,,,,,,,,,,,,1.2,297.0160215999931,None,space,1,0.37483220000285655,298.3298198999837,None,298.3298198999837,None,298.3298198999837,None,299.22241370001575,None,,,,,,,,,,,,,,,,,,,,,,,,,,,,,,,,,,,,,,,,,,,,,,,,,P034,FENCOG,2,Pre,2022_Apr_07_1037,Go No-Go Task,2021.1.4,119.98708934675189,
EPracticeConditions/YellowScram.csv,"Rule: When you see a yellow image, do not press 'spacebar'.",,,,,,,,,,,,0,3,3,3,,,,,,,,,,,,,,,,,,,,,,,,,,,,,,,,,,,,,,,,,,,,,,,,,,,,,,,,,,,,,,,,,,,,,,,,,,,,,,,,,,,,,,,,,,,,,,,,,,,,,,,,,,,,,,,,,,,,,P034,FENCOG,2,Pre,2022_Apr_07_1037,Go No-Go Task,2021.1.4,119.98708934675189,
,,,,,,,,,,,,,,,,,,,,,,,,,,,,,,,,,,,,,,,,,,,,,,,,,,,,,,,,,,,,,,,,,,,,,,,,,,,,,,,,,,,,,302.60332689998904,None,space,3.643578900024295,303.0861257999786,None,,,,,,,,,,,,,,,,,,,,,,,,,,,,,,,,,,,,,,,,,,,P034,FENCOG,2,Pre,2022_Apr_07_1037,Go No-Go Task,2021.1.4,119.98708934675189,
,,,,,,,,,,,,,,,,,,,,,,,,,,,,,,,,,,,,,,,,,,,,,,,,,,,,,,,,,,,,,,,,,,,,,,,,,,,,,,,,,,,,,,,,,,,306.744507699972,None,space,5.957834400003776,306.744507699972,None,,,,,,,,,,,,,,,,,,,,,,,,,,,,,,,,,,,,,P034,FENCOG,2,Pre,2022_Apr_07_1037,Go No-Go Task,2021.1.4,119.98708934675189,
,"Rule: When you see a yellow image, do not press 'spacebar'.",Images/Happy/BF09_HO.jpg,Happy,Blue,Images/Blue.jpg,space,ParentConditions/YellowYellowBlue_v2.xlsx,YellowYellowBlue,Conditions/Version_2/YellowFearStop.xlsx,no,PASS,0.2009685743777515,,,,,,,,,0,0,0,1,0,0,0,0,0,0,0,0,,,,,,,,,,,,,,,,,,,,,,,,,,,,,,,,,,,,,,,,,,,,,,,,,,,,,,,,,,,,,,,,,312.8018712999765,None,315.79050349997124,None,space,1.437161499983631,315.79050349997124,None,312.8018712999765,None,312.8018712999765,None,312.8018712999765,None,1.44,317.29704949998995,None,None,0,318.8486383999698,None,318.8486383999698,None,318.8486383999698,None,,,,,,,,,,,,P034,FENCOG,2,Pre,2022_Apr_07_1037,Go No-Go Task,2021.1.4,119.98708934675189,
,"Rule: When you see a yellow image, do not press 'spacebar'.",Images/Happy/AF30HAS.jpg,Happy,Blue,Images/Blue.jpg,space,ParentConditions/YellowYellowBlue_v2.xlsx,YellowYellowBlue,Conditions/Version_2/YellowFearStop.xlsx,no,PASS,0.9679561444510932,,,,,,,,,0,0,0,1,0,0,0,0,0,1,1,1,,,,,,,,,,,,,,,,,,,,,,,,,,,,,,,,,,,,,,,,,,,,,,,,,,,,,,,,,,,,,,,,,,,,,,,,,,,,,,,1.34,319.2480178999831,None,space,1,320.69817749998765,None,320.69817749998765,None,320.69817749998765,None,0.3418429999728687,,,,,,,,,,,P034,FENCOG,2,Pre,2022_Apr_07_1037,Go No-Go Task,2021.1.4,119.98708934675189,
,"Rule: When you see a yellow image, do not press 'spacebar'.",Images/Happy/AF27HAS.jpg,Happy,Blue,Images/Blue.jpg,space,ParentConditions/YellowYellowBlue_v2.xlsx,YellowYellowBlue,Conditions/Version_2/YellowFearStop.xlsx,no,PASS,0.024466481670397555,,,,,,,,,0,0,0,1,0,0,0,0,0,2,2,2,,,,,,,,,,,,,,,,,,,,,,,,,,,,,,,,,,,,,,,,,,,,,,,,,,,,,,,,,,,,,,,,,,,,,,,,,,,,,,,1.36,321.0969949999708,None,space,1,322.5723706000135,None,322.5723706000135,None,322.5723706000135,None,0.2501234000083059,,,,,,,,,,,P034,FENCOG,2,Pre,2022_Apr_07_1037,Go No-Go Task,2021.1.4,119.98708934675189,
,"Rule: When you see a yellow image, do not press 'spacebar'.",Images/Happy/AF22HAS.jpg,Happy,Blue,Images/Blue.jpg,space,ParentConditions/YellowYellowBlue_v2.xlsx,YellowYellowBlue,Conditions/Version_2/YellowFearStop.xlsx,no,PASS,0.900419425166189,,,,,,,,,0,0,0,1,0,0,0,0,0,3,3,3,,,,,,,,,,,,,,,,,,,,,,,,,,,,,,,,,,,,,,,,,,,,,,,,,,,,,,,,,,,,,,,,,,,,,,,,,,,,,,,1.58,322.97159999998985,None,space,1,324.6635848999722,None,324.6635848999722,None,324.6635848999722,None,0.21184200001880527,,,,,,,,,,,P034,FENCOG,2,Pre,2022_Apr_07_1037,Go No-Go Task,2021.1.4,119.98708934675189,
,"Rule: When you see a yellow image, do not press 'spacebar'.",Images/Happy/WM11_HC.jpg,Happy,Blue,Images/Blue.jpg,space,ParentConditions/YellowYellowBlue_v2.xlsx,YellowYellowBlue,Conditions/Version_2/YellowFearStop.xlsx,no,PASS,0.5042081063795358,,,,,,,,,0,0,0,1,0,0,0,0,0,4,4,4,,,,,,,,,,,,,,,,,,,,,,,,,,,,,,,,,,,,,,,,,,,,,,,,,,,,,,,,,,,,,,,,,,,,,,,,,,,,,,,1.74,325.0626307000057,None,space,1,326.91281249996973,None,326.91281249996973,None,326.91281249996973,None,0.24370389996329322,,,,,,,,,,,P034,FENCOG,2,Pre,2022_Apr_07_1037,Go No-Go Task,2021.1.4,119.98708934675189,
,"Rule: When you see a yellow image, do not press 'spacebar'.",Images/Happy/BF05_HO.jpg,Happy,Blue,Images/Blue.jpg,space,ParentConditions/YellowYellowBlue_v2.xlsx,YellowYellowBlue,Conditions/Version_2/YellowFearStop.xlsx,no,PASS,0.6687720633168746,,,,,,,,,0,0,0,1,0,0,0,0,0,5,5,5,,,,,,,,,,,,,,,,,,,,,,,,,,,,,,,,,,,,,,,,,,,,,,,,,,,,,,,,,,,,,,,,,,,,,,,,,,,,,,,1.2,327.3117884999956,None,space,1,328.6207364000147,None,328.6207364000147,None,328.6207364000147,None,0.2896851999685168,,,,,,,,,,,P034,FENCOG,2,Pre,2022_Apr_07_1037,Go No-Go Task,2021.1.4,119.98708934675189,
,"Rule: When you see a yellow image, do not press 'spacebar'.",Images/Fearful/AM01AFS.jpg,Fear,Yellow,Images/Yellow.jpg,None,ParentConditions/YellowYellowBlue_v2.xlsx,YellowYellowBlue,Conditions/Version_2/YellowFearStop.xlsx,yes,PASS,0.008120847249678764,,,,,,,,,0,0,0,1,0,0,0,0,0,6,6,6,,,,,,,,,,,,,,,,,,,,,,,,,,,,,,,,,,,,,,,,,,,,,,,,,,,,,,,,,,,,,,,,,,,,,,,,,,,,,,,1.42,329.0252051000134,None,None,1,330.55349949997617,None,330.55349949997617,None,330.55349949997617,None,,,,,,,,,,,,P034,FENCOG,2,Pre,2022_Apr_07_1037,Go No-Go Task,2021.1.4,119.98708934675189,
,"Rule: When you see a yellow image, do not press 'spacebar'.",Images/Happy/AF23HAS.jpg,Happy,Blue,Images/Blue.jpg,space,ParentConditions/YellowYellowBlue_v2.xlsx,YellowYellowBlue,Conditions/Version_2/YellowFearStop.xlsx,no,PASS,0.07023198870971747,,,,,,,,,0,0,0,1,0,0,0,0,0,7,7,7,,,,,,,,,,,,,,,,,,,,,,,,,,,,,,,,,,,,,,,,,,,,,,,,,,,,,,,,,,,,,,,,,,,,,,,,,,,,,,,1.92,330.9525565999793,None,space,1,332.9857585999998,None,332.9857585999998,None,332.9857585999998,None,0.2850857999874279,,,,,,,,,,,P034,FENCOG,2,Pre,2022_Apr_07_1037,Go No-Go Task,2021.1.4,119.98708934675189,
,"Rule: When you see a yellow image, do not press 'spacebar'.",Images/Happy/AM16HAS.jpg,Happy,Blue,Images/Blue.jpg,space,ParentConditions/YellowYellowBlue_v2.xlsx,YellowYellowBlue,Conditions/Version_2/YellowFearStop.xlsx,no,PASS,0.031804034281165405,,,,,,,,,0,0,0,1,0,0,0,0,0,8,8,8,,,,,,,,,,,,,,,,,,,,,,,,,,,,,,,,,,,,,,,,,,,,,,,,,,,,,,,,,,,,,,,,,,,,,,,,,,,,,,,1.79,333.38484110002173,None,space,1,335.2853763999883,None,335.2853763999883,None,335.2853763999883,None,0.27691289997892454,,,,,,,,,,,P034,FENCOG,2,Pre,2022_Apr_07_1037,Go No-Go Task,2021.1.4,119.98708934675189,
,"Rule: When you see a yellow image, do not press 'spacebar'.",Images/Happy/AM04HAS.jpg,Happy,Blue,Images/Blue.jpg,space,ParentConditions/YellowYellowBlue_v2.xlsx,YellowYellowBlue,Conditions/Version_2/YellowFearStop.xlsx,no,PASS,0.0002121348500070397,,,,,,,,,0,0,0,1,0,0,0,0,0,9,9,9,,,,,,,,,,,,,,,,,,,,,,,,,,,,,,,,,,,,,,,,,,,,,,,,,,,,,,,,,,,,,,,,,,,,,,,,,,,,,,,1.25,335.68447739997646,None,space,1,337.043240399973,None,337.043240399973,None,337.043240399973,None,0.20191790000535548,,,,,,,,,,,P034,FENCOG,2,Pre,2022_Apr_07_1037,Go No-Go Task,2021.1.4,119.98708934675189,
,"Rule: When you see a yellow image, do not press 'spacebar'.",Images/Happy/AF26HAS.jpg,Happy,Blue,Images/Blue.jpg,space,ParentConditions/YellowYellowBlue_v2.xlsx,YellowYellowBlue,Conditions/Version_2/YellowFearStop.xlsx,no,PASS,0.408079602030768,,,,,,,,,0,0,0,1,0,0,0,0,0,10,10,10,,,,,,,,,,,,,,,,,,,,,,,,,,,,,,,,,,,,,,,,,,,,,,,,,,,,,,,,,,,,,,,,,,,,,,,,,,,,,,,1.99,337.4421681999811,None,space,1,339.542432599992,None,339.542432599992,None,339.542432599992,None,0.19477420003386214,,,,,,,,,,,P034,FENCOG,2,Pre,2022_Apr_07_1037,Go No-Go Task,2021.1.4,119.98708934675189,
,"Rule: When you see a yellow image, do not press 'spacebar'.",Images/Fearful/AF10_FC.jpg,Fear,Yellow,Images/Yellow.jpg,None,ParentConditions/YellowYellowBlue_v2.xlsx,YellowYellowBlue,Conditions/Version_2/YellowFearStop.xlsx,yes,PASS,0.43118367877877073,,,,,,,,,0,0,0,1,0,0,0,0,0,11,11,11,,,,,,,,,,,,,,,,,,,,,,,,,,,,,,,,,,,,,,,,,,,,,,,,,,,,,,,,,,,,,,,,,,,,,,,,,,,,,,,1.32,339.93502619996434,None,space,0,341.36702329997206,None,341.36702329997206,None,341.36702329997206,None,0.23027040000306442,,,,,,,,,,,P034,FENCOG,2,Pre,2022_Apr_07_1037,Go No-Go Task,2021.1.4,119.98708934675189,
,"Rule: When you see a yellow image, do not press 'spacebar'.",Images/Fearful/AM09_FO.jpg,Fear,Yellow,Images/Yellow.jpg,None,ParentConditions/YellowYellowBlue_v2.xlsx,YellowYellowBlue,Conditions/Version_2/YellowFearStop.xlsx,yes,PASS,0.25324381257324213,,,,,,,,,0,0,0,1,0,0,0,0,0,12,12,12,,,,,,,,,,,,,,,,,,,,,,,,,,,,,,,,,,,,,,,,,,,,,,,,,,,,,,,,,,,,,,,,,,,,,,,,,,,,,,,1.85,341.76608650002163,None,space,0,343.72467700002016,None,343.72467700002016,None,343.72467700002016,None,0.20112560002598912,,,,,,,,,,,P034,FENCOG,2,Pre,2022_Apr_07_1037,Go No-Go Task,2021.1.4,119.98708934675189,
,"Rule: When you see a yellow image, do not press 'spacebar'.",Images/Happy/HM04_HO.jpg,Happy,Blue,Images/Blue.jpg,space,ParentConditions/YellowYellowBlue_v2.xlsx,YellowYellowBlue,Conditions/Version_2/YellowFearStop.xlsx,no,PASS,0.4072425132028237,,,,,,,,,0,0,0,1,0,0,0,0,0,13,13,13,,,,,,,,,,,,,,,,,,,,,,,,,,,,,,,,,,,,,,,,,,,,,,,,,,,,,,,,,,,,,,,,,,,,,,,,,,,,,,,1.84,344.11982660001377,None,space,1,346.07390060002217,None,346.07390060002217,None,346.07390060002217,None,0.2217460999963805,,,,,,,,,,,P034,FENCOG,2,Pre,2022_Apr_07_1037,Go No-Go Task,2021.1.4,119.98708934675189,
,"Rule: When you see a yellow image, do not press 'spacebar'.",Images/Fearful/AM04_FO.jpg,Fear,Yellow,Images/Yellow.jpg,None,ParentConditions/YellowYellowBlue_v2.xlsx,YellowYellowBlue,Conditions/Version_2/YellowFearStop.xlsx,yes,PASS,0.7288256558461894,,,,,,,,,0,0,0,1,0,0,0,0,0,14,14,14,,,,,,,,,,,,,,,,,,,,,,,,,,,,,,,,,,,,,,,,,,,,,,,,,,,,,,,,,,,,,,,,,,,,,,,,,,,,,,,1.45,346.47305069997674,None,None,1,348.03174690000014,None,348.03174690000014,None,348.03174690000014,None,,,,,,,,,,,,P034,FENCOG,2,Pre,2022_Apr_07_1037,Go No-Go Task,2021.1.4,119.98708934675189,
,"Rule: When you see a yellow image, do not press 'spacebar'.",Images/Happy/AM13HAS.jpg,Happy,Blue,Images/Blue.jpg,space,ParentConditions/YellowYellowBlue_v2.xlsx,YellowYellowBlue,Conditions/Version_2/YellowFearStop.xlsx,no,PASS,0.9405484517370288,,,,,,,,,0,0,0,1,0,0,0,0,0,15,15,15,,,,,,,,,,,,,,,,,,,,,,,,,,,,,,,,,,,,,,,,,,,,,,,,,,,,,,,,,,,,,,,,,,,,,,,,,,,,,,,1.51,348.4307851999765,None,space,1,350.0727710999781,None,350.0727710999781,None,350.0727710999781,None,0.3106067999615334,,,,,,,,,,,P034,FENCOG,2,Pre,2022_Apr_07_1037,Go No-Go Task,2021.1.4,119.98708934675189,
,"Rule: When you see a yellow image, do not press 'spacebar'.",Images/Fearful/AF09AFS.jpg,Fear,Yellow,Images/Yellow.jpg,None,ParentConditions/YellowYellowBlue_v2.xlsx,YellowYellowBlue,Conditions/Version_2/YellowFearStop.xlsx,yes,PASS,0.6464881792541419,,,,,,,,,0,0,0,1,0,0,0,0,0,16,16,16,,,,,,,,,,,,,,,,,,,,,,,,,,,,,,,,,,,,,,,,,,,,,,,,,,,,,,,,,,,,,,,,,,,,,,,,,,,,,,,1.47,350.45500660000835,None,None,1,352.0388828999712,None,352.0388828999712,None,352.0388828999712,None,,,,,,,,,,,,P034,FENCOG,2,Pre,2022_Apr_07_1037,Go No-Go Task,2021.1.4,119.98708934675189,
,"Rule: When you see a yellow image, do not press 'spacebar'.",Images/Fearful/BF05_FO.jpg,Fear,Yellow,Images/Yellow.jpg,None,ParentConditions/YellowYellowBlue_v2.xlsx,YellowYellowBlue,Conditions/Version_2/YellowFearStop.xlsx,yes,PASS,0.37509261462312704,,,,,,,,,0,0,0,1,0,0,0,0,0,17,17,17,,,,,,,,,,,,,,,,,,,,,,,,,,,,,,,,,,,,,,,,,,,,,,,,,,,,,,,,,,,,,,,,,,,,,,,,,,,,,,,1.26,352.43793369998457,None,space,0,353.8133244999917,None,353.8133244999917,None,353.8133244999917,None,0.24691709998296574,,,,,,,,,,,P034,FENCOG,2,Pre,2022_Apr_07_1037,Go No-Go Task,2021.1.4,119.98708934675189,
,"Rule: When you see a yellow image, do not press 'spacebar'.",Images/Happy/AM24HAS.jpg,Happy,Blue,Images/Blue.jpg,space,ParentConditions/YellowYellowBlue_v2.xlsx,YellowYellowBlue,Conditions/Version_2/YellowFearStop.xlsx,no,PASS,0.016158036932588105,,,,,,,,,0,0,0,1,0,0,0,0,0,18,18,18,,,,,,,,,,,,,,,,,,,,,,,,,,,,,,,,,,,,,,,,,,,,,,,,,,,,,,,,,,,,,,,,,,,,,,,,,,,,,,,1.59,354.2124365000054,None,space,1,355.91272009996464,None,355.91272009996464,None,355.91272009996464,None,0.25038889999268577,,,,,,,,,,,P034,FENCOG,2,Pre,2022_Apr_07_1037,Go No-Go Task,2021.1.4,119.98708934675189,
,"Rule: When you see a yellow image, do not press 'spacebar'.",Images/Fearful/AF11AFS.jpg,Fear,Yellow,Images/Yellow.jpg,None,ParentConditions/YellowYellowBlue_v2.xlsx,YellowYellowBlue,Conditions/Version_2/YellowFearStop.xlsx,yes,PASS,0.3371554357894605,,,,,,,,,0,0,0,1,0,0,0,0,0,19,19,19,,,,,,,,,,,,,,,,,,,,,,,,,,,,,,,,,,,,,,,,,,,,,,,,,,,,,,,,,,,,,,,,,,,,,,,,,,,,,,,1.89,356.31708469998557,None,None,1,358.31995009997627,None,358.31995009997627,None,358.31995009997627,None,,,,,,,,,,,,P034,FENCOG,2,Pre,2022_Apr_07_1037,Go No-Go Task,2021.1.4,119.98708934675189,
,"Rule: When you see a yellow image, do not press 'spacebar'.",Images/Happy/AF01_HE.jpg,Happy,Blue,Images/Blue.jpg,space,ParentConditions/YellowYellowBlue_v2.xlsx,YellowYellowBlue,Conditions/Version_2/YellowFearStop.xlsx,no,PASS,0.09770872574206646,,,,,,,,,0,0,0,1,0,0,0,0,0,20,20,20,,,,,,,,,,,,,,,,,,,,,,,,,,,,,,,,,,,,,,,,,,,,,,,,,,,,,,,,,,,,,,,,,,,,,,,,,,,,,,,1.39,358.71912889997475,None,space,1,360.21987819997594,None,360.21987819997594,None,360.21987819997594,None,0.2896957999910228,,,,,,,,,,,P034,FENCOG,2,Pre,2022_Apr_07_1037,Go No-Go Task,2021.1.4,119.98708934675189,
,"Rule: When you see a yellow image, do not press 'spacebar'.",Images/Happy/AM10_HO.jpg,Happy,Blue,Images/Blue.jpg,space,ParentConditions/YellowYellowBlue_v2.xlsx,YellowYellowBlue,Conditions/Version_2/YellowFearStop.xlsx,no,PASS,0.35803186882916893,,,,,,,,,0,0,0,1,0,0,0,0,0,21,21,21,,,,,,,,,,,,,,,,,,,,,,,,,,,,,,,,,,,,,,,,,,,,,,,,,,,,,,,,,,,,,,,,,,,,,,,,,,,,,,,1.78,360.6188001999981,None,space,1,362.51080270000966,None,362.51080270000966,None,362.51080270000966,None,0.27584889996796846,,,,,,,,,,,P034,FENCOG,2,Pre,2022_Apr_07_1037,Go No-Go Task,2021.1.4,119.98708934675189,
,"Rule: When you see a yellow image, do not press 'spacebar'.",Images/Happy/AF09HAS.jpg,Happy,Blue,Images/Blue.jpg,space,ParentConditions/YellowYellowBlue_v2.xlsx,YellowYellowBlue,Conditions/Version_2/YellowFearStop.xlsx,no,PASS,0.20902890792548556,,,,,,,,,0,0,0,1,0,0,0,0,0,22,22,22,,,,,,,,,,,,,,,,,,,,,,,,,,,,,,,,,,,,,,,,,,,,,,,,,,,,,,,,,,,,,,,,,,,,,,,,,,,,,,,1.88,362.9102329000016,None,space,1,364.90181120001944,None,364.90181120001944,None,364.90181120001944,None,0.24151919997530058,,,,,,,,,,,P034,FENCOG,2,Pre,2022_Apr_07_1037,Go No-Go Task,2021.1.4,119.98708934675189,
,"Rule: When you see a yellow image, do not press 'spacebar'.",Images/Happy/BM02_HO.jpg,Happy,Blue,Images/Blue.jpg,space,ParentConditions/YellowYellowBlue_v2.xlsx,YellowYellowBlue,Conditions/Version_2/YellowFearStop.xlsx,no,PASS,0.6732741052769042,,,,,,,,,0,0,0,1,0,0,0,0,0,23,23,23,,,,,,,,,,,,,,,,,,,,,,,,,,,,,,,,,,,,,,,,,,,,,,,,,,,,,,,,,,,,,,,,,,,,,,,,,,,,,,,1.23,365.30079040001146,None,space,1,366.63441850000527,None,366.63441850000527,None,366.63441850000527,None,0.2793035000213422,,,,,,,,,,,P034,FENCOG,2,Pre,2022_Apr_07_1037,Go No-Go Task,2021.1.4,119.98708934675189,
,"Rule: When you see a yellow image, do not press 'spacebar'.",Images/Happy/AM09_HE.jpg,Happy,Blue,Images/Blue.jpg,space,ParentConditions/YellowYellowBlue_v2.xlsx,YellowYellowBlue,Conditions/Version_2/YellowFearStop.xlsx,no,PASS,0.6065078221259242,,,,,,,,,0,0,0,1,0,0,0,0,0,24,24,24,,,,,,,,,,,,,,,,,,,,,,,,,,,,,,,,,,,,,,,,,,,,,,,,,,,,,,,,,,,,,,,,,,,,,,,,,,,,,,,1.5,367.03502519999165,None,space,1,368.6504449999775,None,368.6504449999775,None,368.6504449999775,None,0.22789380000904202,,,,,,,,,,,P034,FENCOG,2,Pre,2022_Apr_07_1037,Go No-Go Task,2021.1.4,119.98708934675189,
,"Rule: When you see a yellow image, do not press 'spacebar'.",Images/Happy/AF10_HE.jpg,Happy,Blue,Images/Blue.jpg,space,ParentConditions/YellowYellowBlue_v2.xlsx,YellowYellowBlue,Conditions/Version_2/YellowFearStop.xlsx,no,PASS,0.6869968801100608,,,,,,,,,0,0,0,1,0,0,0,0,0,25,25,25,,,,,,,,,,,,,,,,,,,,,,,,,,,,,,,,,,,,,,,,,,,,,,,,,,,,,,,,,,,,,,,,,,,,,,,,,,,,,,,1.75,369.04958859999897,None,space,1,370.9083164000185,None,370.9083164000185,None,370.9083164000185,None,0.25313640001695603,,,,,,,,,,,P034,FENCOG,2,Pre,2022_Apr_07_1037,Go No-Go Task,2021.1.4,119.98708934675189,
,"Rule: When you see a yellow image, do not press 'spacebar'.",Images/Happy/BM01_HO.jpg,Happy,Blue,Images/Blue.jpg,space,ParentConditions/YellowYellowBlue_v2.xlsx,YellowYellowBlue,Conditions/Version_2/YellowFearStop.xlsx,no,PASS,0.5538207000686074,,,,,,,,,0,0,0,1,0,0,0,0,0,26,26,26,,,,,,,,,,,,,,,,,,,,,,,,,,,,,,,,,,,,,,,,,,,,,,,,,,,,,,,,,,,,,,,,,,,,,,,,,,,,,,,1.22,371.3069473999785,None,space,1,372.64131749997614,None,372.64131749997614,None,372.64131749997614,None,0.2694896000321023,,,,,,,,,,,P034,FENCOG,2,Pre,2022_Apr_07_1037,Go No-Go Task,2021.1.4,119.98708934675189,
,"Rule: When you see a yellow image, do not press 'spacebar'.",Images/Fearful/AF07_FO.jpg,Fear,Yellow,Images/Yellow.jpg,None,ParentConditions/YellowYellowBlue_v2.xlsx,YellowYellowBlue,Conditions/Version_2/YellowFearStop.xlsx,yes,PASS,0.5689879324899989,,,,,,,,,0,0,0,1,0,0,0,0,0,27,27,27,,,,,,,,,,,,,,,,,,,,,,,,,,,,,,,,,,,,,,,,,,,,,,,,,,,,,,,,,,,,,,,,,,,,,,,,,,,,,,,1.73,373.0401602999773,None,space,0,374.88209670002107,None,374.88209670002107,None,374.88209670002107,None,0.27493869996396825,,,,,,,,,,,P034,FENCOG,2,Pre,2022_Apr_07_1037,Go No-Go Task,2021.1.4,119.98708934675189,
,"Rule: When you see a yellow image, do not press 'spacebar'.",Images/Happy/BF18_HO.jpg,Happy,Blue,Images/Blue.jpg,space,ParentConditions/YellowYellowBlue_v2.xlsx,YellowYellowBlue,Conditions/Version_2/YellowFearStop.xlsx,no,PASS,0.2528908254284902,,,,,,,,,0,0,0,1,0,0,0,0,0,28,28,28,,,,,,,,,,,,,,,,,,,,,,,,,,,,,,,,,,,,,,,,,,,,,,,,,,,,,,,,,,,,,,,,,,,,,,,,,,,,,,,1.33,375.2812683999655,None,space,1,376.7232577999821,None,376.7232577999821,None,376.7232577999821,None,0.28833260003011674,,,,,,,,,,,P034,FENCOG,2,Pre,2022_Apr_07_1037,Go No-Go Task,2021.1.4,119.98708934675189,
,"Rule: When you see a yellow image, do not press 'spacebar'.",Images/Happy/AM03HAS.jpg,Happy,Blue,Images/Blue.jpg,space,ParentConditions/YellowYellowBlue_v2.xlsx,YellowYellowBlue,Conditions/Version_2/YellowFearStop.xlsx,no,PASS,0.6129705520501836,,,,,,,,,0,0,0,1,0,0,0,0,0,29,29,29,,,,,,,,,,,,,,,,,,,,,,,,,,,,,,,,,,,,,,,,,,,,,,,,,,,,,,,,,,,,,,,,,,,,,,,,,,,,,,,1.53,377.1213976999861,None,space,1,378.76433510001516,None,378.76433510001516,None,378.76433510001516,None,0.3072663000202738,,,,,,,,,,,P034,FENCOG,2,Pre,2022_Apr_07_1037,Go No-Go Task,2021.1.4,119.98708934675189,
,"Rule: When you see a yellow image, do not press 'spacebar'.",Images/Happy/BF10_HO.jpg,Happy,Blue,Images/Blue.jpg,space,ParentConditions/YellowYellowBlue_v2.xlsx,YellowYellowBlue,Conditions/Version_2/YellowFearStop.xlsx,no,PASS,0.6633214650414543,,,,,,,,,0,0,0,1,0,0,0,0,0,30,30,30,,,,,,,,,,,,,,,,,,,,,,,,,,,,,,,,,,,,,,,,,,,,,,,,,,,,,,,,,,,,,,,,,,,,,,,,,,,,,,,1.68,379.16535909997765,None,space,1,380.9554394999868,None,380.9554394999868,None,380.9554394999868,None,0.28635000000940636,,,,,,,,,,,P034,FENCOG,2,Pre,2022_Apr_07_1037,Go No-Go Task,2021.1.4,119.98708934675189,
,"Rule: When you see a yellow image, do not press 'spacebar'.",Images/Happy/BF07_HO.jpg,Happy,Blue,Images/Blue.jpg,space,ParentConditions/YellowYellowBlue_v2.xlsx,YellowYellowBlue,Conditions/Version_2/YellowFearStop.xlsx,no,PASS,0.38343441764823294,,,,,,,,,0,0,0,1,0,0,0,0,0,31,31,31,,,,,,,,,,,,,,,,,,,,,,,,,,,,,,,,,,,,,,,,,,,,,,,,,,,,,,,,,,,,,,,,,,,,,,,,,,,,,,,1.3,381.35422099998686,None,space,1,382.76298399997177,None,382.76298399997177,None,382.76298399997177,None,0.263155699998606,,,,,,,,,,,P034,FENCOG,2,Pre,2022_Apr_07_1037,Go No-Go Task,2021.1.4,119.98708934675189,
,"Rule: When you see a yellow image, do not press 'spacebar'.",Images/Fearful/BF07_FO.jpg,Fear,Yellow,Images/Yellow.jpg,None,ParentConditions/YellowYellowBlue_v2.xlsx,YellowYellowBlue,Conditions/Version_2/YellowFearStop.xlsx,yes,PASS,0.00831620462665883,,,,,,,,,0,0,0,1,0,0,0,0,0,32,32,32,,,,,,,,,,,,,,,,,,,,,,,,,,,,,,,,,,,,,,,,,,,,,,,,,,,,,,,,,,,,,,,,,,,,,,,,,,,,,,,1.97,383.16220059996704,None,None,1,385.2457007999765,None,385.2457007999765,None,385.2457007999765,None,,,,,,,,,,,,P034,FENCOG,2,Pre,2022_Apr_07_1037,Go No-Go Task,2021.1.4,119.98708934675189,
,"Rule: When you see a yellow image, do not press 'spacebar'.",Images/Happy/WF04_HC.jpg,Happy,Blue,Images/Blue.jpg,space,ParentConditions/YellowYellowBlue_v2.xlsx,YellowYellowBlue,Conditions/Version_2/YellowFearStop.xlsx,no,PASS,0.6777495076385776,,,,,,,,,0,0,0,1,0,0,0,0,0,33,33,33,,,,,,,,,,,,,,,,,,,,,,,,,,,,,,,,,,,,,,,,,,,,,,,,,,,,,,,,,,,,,,,,,,,,,,,,,,,,,,,1.49,385.645852799993,None,space,1,387.2451093000127,None,387.2451093000127,None,387.2451093000127,None,0.2633965000277385,,,,,,,,,,,P034,FENCOG,2,Pre,2022_Apr_07_1037,Go No-Go Task,2021.1.4,119.98708934675189,
,"Rule: When you see a yellow image, do not press 'spacebar'.",Images/Happy/AM23HAS.jpg,Happy,Blue,Images/Blue.jpg,space,ParentConditions/YellowYellowBlue_v2.xlsx,YellowYellowBlue,Conditions/Version_2/YellowFearStop.xlsx,no,PASS,0.04303712392230152,,,,,,,,,0,0,0,1,0,0,0,0,0,34,34,34,,,,,,,,,,,,,,,,,,,,,,,,,,,,,,,,,,,,,,,,,,,,,,,,,,,,,,,,,,,,,,,,,,,,,,,,,,,,,,,1.7,387.6440436000121,None,space,1,389.4528888000059,None,389.4528888000059,None,389.4528888000059,None,0.34121750004123896,,,,,,,,,,,P034,FENCOG,2,Pre,2022_Apr_07_1037,Go No-Go Task,2021.1.4,119.98708934675189,
,"Rule: When you see a yellow image, do not press 'spacebar'.",Images/Happy/AM09HAS.jpg,Happy,Blue,Images/Blue.jpg,space,ParentConditions/YellowYellowBlue_v2.xlsx,YellowYellowBlue,Conditions/Version_2/YellowFearStop.xlsx,no,PASS,0.09574836161041034,,,,,,,,,0,0,0,1,0,0,0,0,0,35,35,35,,,,,,,,,,,,,,,,,,,,,,,,,,,,,,,,,,,,,,,,,,,,,,,,,,,,,,,,,,,,,,,,,,,,,,,,,,,,,,,1.81,389.85245629999554,None,space,1,391.77723060001153,None,391.77723060001153,None,391.77723060001153,None,0.25227590004215017,,,,,,,,,,,P034,FENCOG,2,Pre,2022_Apr_07_1037,Go No-Go Task,2021.1.4,119.98708934675189,
,"Rule: When you see a yellow image, do not press 'spacebar'.",Images/Happy/AM10HAS.jpg,Happy,Blue,Images/Blue.jpg,space,ParentConditions/YellowYellowBlue_v2.xlsx,YellowYellowBlue,Conditions/Version_2/YellowFearStop.xlsx,no,PASS,0.1630912911655703,,,,,,,,,0,0,0,1,0,0,0,0,0,36,36,36,,,,,,,,,,,,,,,,,,,,,,,,,,,,,,,,,,,,,,,,,,,,,,,,,,,,,,,,,,,,,,,,,,,,,,,,,,,,,,,1.8,392.17598729999736,None,space,1,394.08454459998757,None,394.08454459998757,None,394.08454459998757,None,0.282476200023666,,,,,,,,,,,P034,FENCOG,2,Pre,2022_Apr_07_1037,Go No-Go Task,2021.1.4,119.98708934675189,
,"Rule: When you see a yellow image, do not press 'spacebar'.",Images/Happy/AF07HAS.jpg,Happy,Blue,Images/Blue.jpg,space,ParentConditions/YellowYellowBlue_v2.xlsx,YellowYellowBlue,Conditions/Version_2/YellowFearStop.xlsx,no,PASS,0.34867471869559996,,,,,,,,,0,0,0,1,0,0,0,0,0,37,37,37,,,,,,,,,,,,,,,,,,,,,,,,,,,,,,,,,,,,,,,,,,,,,,,,,,,,,,,,,,,,,,,,,,,,,,,,,,,,,,,1.54,394.4838260000106,None,space,1,396.13424159999704,None,396.13424159999704,None,396.13424159999704,None,0.2801949999993667,,,,,,,,,,,P034,FENCOG,2,Pre,2022_Apr_07_1037,Go No-Go Task,2021.1.4,119.98708934675189,
,"Rule: When you see a yellow image, do not press 'spacebar'.",Images/Happy/AM03_HO.jpg,Happy,Blue,Images/Blue.jpg,space,ParentConditions/YellowYellowBlue_v2.xlsx,YellowYellowBlue,Conditions/Version_2/YellowFearStop.xlsx,no,PASS,0.8852047943617631,,,,,,,,,0,0,0,1,0,0,0,0,0,38,38,38,,,,,,,,,,,,,,,,,,,,,,,,,,,,,,,,,,,,,,,,,,,,,,,,,,,,,,,,,,,,,,,,,,,,,,,,,,,,,,,1.86,396.53310669999337,None,None,0,398.50832209998043,None,398.50832209998043,None,398.50832209998043,None,,,,,,,,,,,,P034,FENCOG,2,Pre,2022_Apr_07_1037,Go No-Go Task,2021.1.4,119.98708934675189,
,"Rule: When you see a yellow image, do not press 'spacebar'.",Images/Happy/AM05HAS.jpg,Happy,Blue,Images/Blue.jpg,space,ParentConditions/YellowYellowBlue_v2.xlsx,YellowYellowBlue,Conditions/Version_2/YellowFearStop.xlsx,no,PASS,0.25496798119470154,,,,,,,,,0,0,0,1,0,0,0,0,0,39,39,39,,,,,,,,,,,,,,,,,,,,,,,,,,,,,,,,,,,,,,,,,,,,,,,,,,,,,,,,,,,,,,,,,,,,,,,,,,,,,,,1.64,398.90744440001436,None,space,1,400.6578700999962,None,400.6578700999962,None,400.6578700999962,None,0.2957029999815859,,,,,,,,,,,P034,FENCOG,2,Pre,2022_Apr_07_1037,Go No-Go Task,2021.1.4,119.98708934675189,
,"Rule: When you see a yellow image, do not press 'spacebar'.",Images/Happy/AF02HAS.jpg,Happy,Blue,Images/Blue.jpg,space,ParentConditions/YellowYellowBlue_v2.xlsx,YellowYellowBlue,Conditions/Version_2/YellowFearStop.xlsx,no,PASS,0.4518610007497229,,,,,,,,,0,0,0,1,0,0,0,0,0,40,40,40,,,,,,,,,,,,,,,,,,,,,,,,,,,,,,,,,,,,,,,,,,,,,,,,,,,,,,,,,,,,,,,,,,,,,,,,,,,,,,,1.63,401.05681259999983,None,space,1,402.798776599986,None,402.798776599986,None,402.798776599986,None,0.26651139999739826,,,,,,,,,,,P034,FENCOG,2,Pre,2022_Apr_07_1037,Go No-Go Task,2021.1.4,119.98708934675189,
,"Rule: When you see a yellow image, do not press 'spacebar'.",Images/Happy/BM08_HO.jpg,Happy,Blue,Images/Blue.jpg,space,ParentConditions/YellowYellowBlue_v2.xlsx,YellowYellowBlue,Conditions/Version_2/YellowFearStop.xlsx,no,PASS,0.6109180265070229,,,,,,,,,0,0,0,1,0,0,0,0,0,41,41,41,,,,,,,,,,,,,,,,,,,,,,,,,,,,,,,,,,,,,,,,,,,,,,,,,,,,,,,,,,,,,,,,,,,,,,,,,,,,,,,1.29,403.19497389998287,None,space,1,404.5898628999712,None,404.5898628999712,None,404.5898628999712,None,0.29427930002566427,,,,,,,,,,,P034,FENCOG,2,Pre,2022_Apr_07_1037,Go No-Go Task,2021.1.4,119.98708934675189,
,"Rule: When you see a yellow image, do not press 'spacebar'.",Images/Happy/AM22HAS.jpg,Happy,Blue,Images/Blue.jpg,space,ParentConditions/YellowYellowBlue_v2.xlsx,YellowYellowBlue,Conditions/Version_2/YellowFearStop.xlsx,no,PASS,0.358808559720486,,,,,,,,,0,0,0,1,0,0,0,0,0,42,42,42,,,,,,,,,,,,,,,,,,,,,,,,,,,,,,,,,,,,,,,,,,,,,,,,,,,,,,,,,,,,,,,,,,,,,,,,,,,,,,,1.37,404.99035069998354,None,space,1,406.4726894000196,None,406.4726894000196,None,406.4726894000196,None,0.22554610000224784,,,,,,,,,,,P034,FENCOG,2,Pre,2022_Apr_07_1037,Go No-Go Task,2021.1.4,119.98708934675189,
,"Rule: When you see a yellow image, do not press 'spacebar'.",Images/Happy/AM30HAS.jpg,Happy,Blue,Images/Blue.jpg,space,ParentConditions/YellowYellowBlue_v2.xlsx,YellowYellowBlue,Conditions/Version_2/YellowFearStop.xlsx,no,PASS,0.02897569025915847,,,,,,,,,0,0,0,1,0,0,0,0,0,43,43,43,,,,,,,,,,,,,,,,,,,,,,,,,,,,,,,,,,,,,,,,,,,,,,,,,,,,,,,,,,,,,,,,,,,,,,,,,,,,,,,1.31,406.8708275000099,None,space,1,408.3055580999935,None,408.3055580999935,None,408.3055580999935,None,0.23233580001397058,,,,,,,,,,,P034,FENCOG,2,Pre,2022_Apr_07_1037,Go No-Go Task,2021.1.4,119.98708934675189,
,"Rule: When you see a yellow image, do not press 'spacebar'.",Images/Fearful/BF09_FC.jpg,Fear,Yellow,Images/Yellow.jpg,None,ParentConditions/YellowYellowBlue_v2.xlsx,YellowYellowBlue,Conditions/Version_2/YellowFearStop.xlsx,yes,PASS,0.33656912313274023,,,,,,,,,0,0,0,1,0,0,0,0,0,44,44,44,,,,,,,,,,,,,,,,,,,,,,,,,,,,,,,,,,,,,,,,,,,,,,,,,,,,,,,,,,,,,,,,,,,,,,,,,,,,,,,1.4,408.69618640001863,None,None,1,410.20502679998754,None,410.20502679998754,None,410.20502679998754,None,,,,,,,,,,,,P034,FENCOG,2,Pre,2022_Apr_07_1037,Go No-Go Task,2021.1.4,119.98708934675189,
,"Rule: When you see a yellow image, do not press 'spacebar'.",Images/Happy/WM12_HE.jpg,Happy,Blue,Images/Blue.jpg,space,ParentConditions/YellowYellowBlue_v2.xlsx,YellowYellowBlue,Conditions/Version_2/YellowFearStop.xlsx,no,PASS,0.7601850991054155,,,,,,,,,0,0,0,1,0,0,0,0,0,45,45,45,,,,,,,,,,,,,,,,,,,,,,,,,,,,,,,,,,,,,,,,,,,,,,,,,,,,,,,,,,,,,,,,,,,,,,,,,,,,,,,1.35,410.59655959997326,None,space,1,412.0628612000146,None,412.0628612000146,None,412.0628612000146,None,0.2400232999934815,,,,,,,,,,,P034,FENCOG,2,Pre,2022_Apr_07_1037,Go No-Go Task,2021.1.4,119.98708934675189,
,"Rule: When you see a yellow image, do not press 'spacebar'.",Images/Happy/HF10_HE.jpg,Happy,Blue,Images/Blue.jpg,space,ParentConditions/YellowYellowBlue_v2.xlsx,YellowYellowBlue,Conditions/Version_2/YellowFearStop.xlsx,no,PASS,0.6650727272929988,,,,,,,,,0,0,0,1,0,0,0,0,0,46,46,46,,,,,,,,,,,,,,,,,,,,,,,,,,,,,,,,,,,,,,,,,,,,,,,,,,,,,,,,,,,,,,,,,,,,,,,,,,,,,,,1.76,412.46019840001827,None,space,1,414.3202688000165,None,414.3202688000165,None,414.3202688000165,None,0.3598064999678172,,,,,,,,,,,P034,FENCOG,2,Pre,2022_Apr_07_1037,Go No-Go Task,2021.1.4,119.98708934675189,
,"Rule: When you see a yellow image, do not press 'spacebar'.",Images/Happy/HM09_HO.jpg,Happy,Blue,Images/Blue.jpg,space,ParentConditions/YellowYellowBlue_v2.xlsx,YellowYellowBlue,Conditions/Version_2/YellowFearStop.xlsx,no,PASS,0.7196619298468737,,,,,,,,,0,0,0,1,0,0,0,0,0,47,47,47,,,,,,,,,,,,,,,,,,,,,,,,,,,,,,,,,,,,,,,,,,,,,,,,,,,,,,,,,,,,,,,,,,,,,,,,,,,,,,,1.27,414.7251068999758,None,space,1,416.10334600001806,None,416.10334600001806,None,416.10334600001806,None,0.25268159998813644,,,,,,,,,,,P034,FENCOG,2,Pre,2022_Apr_07_1037,Go No-Go Task,2021.1.4,119.98708934675189,
,"Rule: When you see a yellow image, do not press 'spacebar'.",Images/Fearful/AM03_FC.jpg,Fear,Yellow,Images/Yellow.jpg,None,ParentConditions/YellowYellowBlue_v2.xlsx,YellowYellowBlue,Conditions/Version_2/YellowFearStop.xlsx,yes,PASS,0.9021154613913315,,,,,,,,,0,0,0,1,0,0,0,0,0,48,48,48,,,,,,,,,,,,,,,,,,,,,,,,,,,,,,,,,,,,,,,,,,,,,,,,,,,,,,,,,,,,,,,,,,,,,,,,,,,,,,,1.24,416.5023652999662,None,None,1,417.84445540001616,None,417.84445540001616,None,417.84445540001616,None,,,,,,,,,,,,P034,FENCOG,2,Pre,2022_Apr_07_1037,Go No-Go Task,2021.1.4,119.98708934675189,
,"Rule: When you see a yellow image, do not press 'spacebar'.",Images/Happy/HF04_HE.jpg,Happy,Blue,Images/Blue.jpg,space,ParentConditions/YellowYellowBlue_v2.xlsx,YellowYellowBlue,Conditions/Version_2/YellowFearStop.xlsx,no,PASS,0.6828282636628492,,,,,,,,,0,0,0,1,0,0,0,0,0,49,49,49,,,,,,,,,,,,,,,,,,,,,,,,,,,,,,,,,,,,,,,,,,,,,,,,,,,,,,,,,,,,,,,,,,,,,,,,,,,,,,,1.93,418.24463869998,None,space,1,420.2770867999643,None,420.2770867999643,None,420.2770867999643,None,0.2596958000212908,,,,,,,,,,,P034,FENCOG,2,Pre,2022_Apr_07_1037,Go No-Go Task,2021.1.4,119.98708934675189,
,"Rule: When you see a yellow image, do not press 'spacebar'.",Images/Happy/AM17HAS.jpg,Happy,Blue,Images/Blue.jpg,space,ParentConditions/YellowYellowBlue_v2.xlsx,YellowYellowBlue,Conditions/Version_2/YellowFearStop.xlsx,no,PASS,0.7726840133197573,,,,,,,,,0,0,0,1,0,0,0,0,0,50,50,50,,,,,,,,,,,,,,,,,,,,,,,,,,,,,,,,,,,,,,,,,,,,,,,,,,,,,,,,,,,,,,,,,,,,,,,,,,,,,,,1.52,420.6775026000105,None,space,1,422.30108279996784,None,422.30108279996784,None,422.30108279996784,None,0.3511194000020623,,,,,,,,,,,P034,FENCOG,2,Pre,2022_Apr_07_1037,Go No-Go Task,2021.1.4,119.98708934675189,
,"Rule: When you see a yellow image, do not press 'spacebar'.",Images/Fearful/BM01_FO.jpg,Fear,Yellow,Images/Yellow.jpg,None,ParentConditions/YellowYellowBlue_v2.xlsx,YellowYellowBlue,Conditions/Version_2/YellowFearStop.xlsx,yes,PASS,0.029850228609631824,,,,,,,,,0,0,0,1,0,0,0,0,0,51,51,51,,,,,,,,,,,,,,,,,,,,,,,,,,,,,,,,,,,,,,,,,,,,,,,,,,,,,,,,,,,,,,,,,,,,,,,,,,,,,,,1.9,422.7001860999735,None,None,1,424.7092118000146,None,424.7092118000146,None,424.7092118000146,None,,,,,,,,,,,,P034,FENCOG,2,Pre,2022_Apr_07_1037,Go No-Go Task,2021.1.4,119.98708934675189,
,"Rule: When you see a yellow image, do not press 'spacebar'.",Images/Happy/HF09_HE.jpg,Happy,Blue,Images/Blue.jpg,space,ParentConditions/YellowYellowBlue_v2.xlsx,YellowYellowBlue,Conditions/Version_2/YellowFearStop.xlsx,no,PASS,0.5416297044271999,,,,,,,,,0,0,0,1,0,0,0,0,0,52,52,52,,,,,,,,,,,,,,,,,,,,,,,,,,,,,,,,,,,,,,,,,,,,,,,,,,,,,,,,,,,,,,,,,,,,,,,,,,,,,,,1.56,425.099470999965,None,space,1,426.7669128999696,None,426.7669128999696,None,426.7669128999696,None,0.3221780000021681,,,,,,,,,,,P034,FENCOG,2,Pre,2022_Apr_07_1037,Go No-Go Task,2021.1.4,119.98708934675189,
,"Rule: When you see a yellow image, do not press 'spacebar'.",Images/Happy/WF11_HE.jpg,Happy,Blue,Images/Blue.jpg,space,ParentConditions/YellowYellowBlue_v2.xlsx,YellowYellowBlue,Conditions/Version_2/YellowFearStop.xlsx,no,PASS,0.3923399468002319,,,,,,,,,0,0,0,1,0,0,0,0,0,53,53,53,,,,,,,,,,,,,,,,,,,,,,,,,,,,,,,,,,,,,,,,,,,,,,,,,,,,,,,,,,,,,,,,,,,,,,,,,,,,,,,1.77,427.16688819997944,None,space,1,429.04937229998177,None,429.04937229998177,None,429.04937229998177,None,0.3109446999733336,,,,,,,,,,,P034,FENCOG,2,Pre,2022_Apr_07_1037,Go No-Go Task,2021.1.4,119.98708934675189,
,"Rule: When you see a yellow image, do not press 'spacebar'.",Images/Fearful/AM04AFS.jpg,Fear,Yellow,Images/Yellow.jpg,None,ParentConditions/YellowYellowBlue_v2.xlsx,YellowYellowBlue,Conditions/Version_2/YellowFearStop.xlsx,yes,PASS,0.7106263735051498,,,,,,,,,0,0,0,1,0,0,0,0,0,54,54,54,,,,,,,,,,,,,,,,,,,,,,,,,,,,,,,,,,,,,,,,,,,,,,,,,,,,,,,,,,,,,,,,,,,,,,,,,,,,,,,1.6,429.44844740000553,None,space,0,431.1571529000066,None,431.1571529000066,None,431.1571529000066,None,0.29452340002171695,,,,,,,,,,,P034,FENCOG,2,Pre,2022_Apr_07_1037,Go No-Go Task,2021.1.4,119.98708934675189,
,"Rule: When you see a yellow image, do not press 'spacebar'.",Images/Happy/AF19HAS.jpg,Happy,Blue,Images/Blue.jpg,space,ParentConditions/YellowYellowBlue_v2.xlsx,YellowYellowBlue,Conditions/Version_2/YellowFearStop.xlsx,no,PASS,0.3419128984214137,,,,,,,,,0,0,0,1,0,0,0,0,0,55,55,55,,,,,,,,,,,,,,,,,,,,,,,,,,,,,,,,,,,,,,,,,,,,,,,,,,,,,,,,,,,,,,,,,,,,,,,,,,,,,,,2,431.5563668999821,None,space,1,433.6648901000153,None,433.6648901000153,None,433.6648901000153,None,0.38355830003274605,,,,,,,,,,,P034,FENCOG,2,Pre,2022_Apr_07_1037,Go No-Go Task,2021.1.4,119.98708934675189,
,"Rule: When you see a yellow image, do not press 'spacebar'.",Images/Happy/HM06_HO.jpg,Happy,Blue,Images/Blue.jpg,space,ParentConditions/YellowYellowBlue_v2.xlsx,YellowYellowBlue,Conditions/Version_2/YellowFearStop.xlsx,no,PASS,0.8215154078276994,,,,,,,,,0,0,0,1,0,0,0,0,0,56,56,56,,,,,,,,,,,,,,,,,,,,,,,,,,,,,,,,,,,,,,,,,,,,,,,,,,,,,,,,,,,,,,,,,,,,,,,,,,,,,,,1.67,434.06395420001354,None,space,1,435.84760849998565,None,435.84760849998565,None,435.84760849998565,None,0.26801329996669665,,,,,,,,,,,P034,FENCOG,2,Pre,2022_Apr_07_1037,Go No-Go Task,2021.1.4,119.98708934675189,
,"Rule: When you see a yellow image, do not press 'spacebar'.",Images/Happy/HF05_HO.jpg,Happy,Blue,Images/Blue.jpg,space,ParentConditions/YellowYellowBlue_v2.xlsx,YellowYellowBlue,Conditions/Version_2/YellowFearStop.xlsx,no,PASS,0.4418945189155604,,,,,,,,,0,0,0,1,0,0,0,0,0,57,57,57,,,,,,,,,,,,,,,,,,,,,,,,,,,,,,,,,,,,,,,,,,,,,,,,,,,,,,,,,,,,,,,,,,,,,,,,,,,,,,,1.41,436.2464259999688,None,space,1,437.771889799973,None,437.771889799973,None,437.771889799973,None,0.2760065000038594,,,,,,,,,,,P034,FENCOG,2,Pre,2022_Apr_07_1037,Go No-Go Task,2021.1.4,119.98708934675189,
,"Rule: When you see a yellow image, do not press 'spacebar'.",Images/Fearful/AF01_FO.jpg,Fear,Yellow,Images/Yellow.jpg,None,ParentConditions/YellowYellowBlue_v2.xlsx,YellowYellowBlue,Conditions/Version_2/YellowFearStop.xlsx,yes,PASS,0.9630260753042453,,,,,,,,,0,0,0,1,0,0,0,0,0,58,58,58,,,,,,,,,,,,,,,,,,,,,,,,,,,,,,,,,,,,,,,,,,,,,,,,,,,,,,,,,,,,,,,,,,,,,,,,,,,,,,,1.43,438.1708322999766,None,None,1,439.7046636000159,None,439.7046636000159,None,439.7046636000159,None,,,,,,,,,,,,P034,FENCOG,2,Pre,2022_Apr_07_1037,Go No-Go Task,2021.1.4,119.98708934675189,
,"Rule: When you see a yellow image, do not press 'spacebar'.",Images/Happy/AF21HAS.jpg,Happy,Blue,Images/Blue.jpg,space,ParentConditions/YellowYellowBlue_v2.xlsx,YellowYellowBlue,Conditions/Version_2/YellowFearStop.xlsx,no,PASS,0.5410977161582079,,,,,,,,,0,0,0,1,0,0,0,0,0,59,59,59,,,,,,,,,,,,,,,,,,,,,,,,,,,,,,,,,,,,,,,,,,,,,,,,,,,,,,,,,,,,,,,,,,,,,,,,,,,,,,,1.46,440.1040004999959,None,space,1,441.6789979999885,None,441.6789979999885,None,441.6789979999885,None,0.3055039999890141,,,,,,,,,,,P034,FENCOG,2,Pre,2022_Apr_07_1037,Go No-Go Task,2021.1.4,119.98708934675189,
,"Rule: When you see a yellow image, do not press 'spacebar'.",Images/Happy/AM06_HC.jpg,Happy,Blue,Images/Blue.jpg,space,ParentConditions/YellowYellowBlue_v2.xlsx,YellowYellowBlue,Conditions/Version_2/YellowFearStop.xlsx,no,PASS,0.8195458073624309,,,,,,,,,0,0,0,1,0,0,0,0,0,60,60,60,,,,,,,,,,,,,,,,,,,,,,,,,,,,,,,,,,,,,,,,,,,,,,,,,,,,,,,,,,,,,,,,,,,,,,,,,,,,,,,1.48,442.0781201000209,None,space,1,443.6701182000106,None,443.6701182000106,None,443.6701182000106,None,0.26174290000926703,,,,,,,,,,,P034,FENCOG,2,Pre,2022_Apr_07_1037,Go No-Go Task,2021.1.4,119.98708934675189,
,"Rule: When you see a yellow image, do not press 'spacebar'.",Images/Fearful/AF02AFS.jpg,Fear,Yellow,Images/Yellow.jpg,None,ParentConditions/YellowYellowBlue_v2.xlsx,YellowYellowBlue,Conditions/Version_2/YellowFearStop.xlsx,yes,PASS,0.43475605439224807,,,,,,,,,0,0,0,1,0,0,0,0,0,61,61,61,,,,,,,,,,,,,,,,,,,,,,,,,,,,,,,,,,,,,,,,,,,,,,,,,,,,,,,,,,,,,,,,,,,,,,,,,,,,,,,1.83,444.0692697999766,None,None,1,446.01122450002003,None,446.01122450002003,None,446.01122450002003,None,,,,,,,,,,,,P034,FENCOG,2,Pre,2022_Apr_07_1037,Go No-Go Task,2021.1.4,119.98708934675189,
,"Rule: When you see a yellow image, do not press 'spacebar'.",Images/Happy/AF25HAS.jpg,Happy,Blue,Images/Blue.jpg,space,ParentConditions/YellowYellowBlue_v2.xlsx,YellowYellowBlue,Conditions/Version_2/YellowFearStop.xlsx,no,PASS,0.35344562160834636,,,,,,,,,0,0,0,1,0,0,0,0,0,62,62,62,,,,,,,,,,,,,,,,,,,,,,,,,,,,,,,,,,,,,,,,,,,,,,,,,,,,,,,,,,,,,,,,,,,,,,,,,,,,,,,1.66,446.4102402999997,None,space,1,448.18545459996676,None,448.18545459996676,None,448.18545459996676,None,0.28142419998766854,,,,,,,,,,,P034,FENCOG,2,Pre,2022_Apr_07_1037,Go No-Go Task,2021.1.4,119.98708934675189,
,"Rule: When you see a yellow image, do not press 'spacebar'.",Images/Happy/AM32HAS.jpg,Happy,Blue,Images/Blue.jpg,space,ParentConditions/YellowYellowBlue_v2.xlsx,YellowYellowBlue,Conditions/Version_2/YellowFearStop.xlsx,no,PASS,0.10846156836896592,,,,,,,,,0,0,0,1,0,0,0,0,0,63,63,63,,,,,,,,,,,,,,,,,,,,,,,,,,,,,,,,,,,,,,,,,,,,,,,,,,,,,,,,,,,,,,,,,,,,,,,,,,,,,,,1.87,448.58461730001727,None,space,1,450.55973999999696,None,450.55973999999696,None,450.55973999999696,None,0.3046160999801941,,,,,,,,,,,P034,FENCOG,2,Pre,2022_Apr_07_1037,Go No-Go Task,2021.1.4,119.98708934675189,
,"Rule: When you see a yellow image, do not press 'spacebar'.",Images/Fearful/AM02_FO.jpg,Fear,Yellow,Images/Yellow.jpg,None,ParentConditions/YellowYellowBlue_v2.xlsx,YellowYellowBlue,Conditions/Version_2/YellowFearStop.xlsx,yes,PASS,0.093492050295921,,,,,,,,,0,0,0,1,0,0,0,0,0,64,64,64,,,,,,,,,,,,,,,,,,,,,,,,,,,,,,,,,,,,,,,,,,,,,,,,,,,,,,,,,,,,,,,,,,,,,,,,,,,,,,,1.91,450.95916640001815,None,None,1,452.9840790000162,None,452.9840790000162,None,452.9840790000162,None,,,,,,,,,,,,P034,FENCOG,2,Pre,2022_Apr_07_1037,Go No-Go Task,2021.1.4,119.98708934675189,
,"Rule: When you see a yellow image, do not press 'spacebar'.",Images/Fearful/BM02_FC.jpg,Fear,Yellow,Images/Yellow.jpg,None,ParentConditions/YellowYellowBlue_v2.xlsx,YellowYellowBlue,Conditions/Version_2/YellowFearStop.xlsx,yes,PASS,0.8390777988560751,,,,,,,,,0,0,0,1,0,0,0,0,0,65,65,65,,,,,,,,,,,,,,,,,,,,,,,,,,,,,,,,,,,,,,,,,,,,,,,,,,,,,,,,,,,,,,,,,,,,,,,,,,,,,,,1.82,453.3792948999908,None,None,1,455.3084726000088,None,455.3084726000088,None,455.3084726000088,None,,,,,,,,,,,,P034,FENCOG,2,Pre,2022_Apr_07_1037,Go No-Go Task,2021.1.4,119.98708934675189,
,"Rule: When you see a yellow image, do not press 'spacebar'.",Images/Happy/AM04_HE.jpg,Happy,Blue,Images/Blue.jpg,space,ParentConditions/YellowYellowBlue_v2.xlsx,YellowYellowBlue,Conditions/Version_2/YellowFearStop.xlsx,no,PASS,0.268677407796428,,,,,,,,,0,0,0,1,0,0,0,0,0,66,66,66,,,,,,,,,,,,,,,,,,,,,,,,,,,,,,,,,,,,,,,,,,,,,,,,,,,,,,,,,,,,,,,,,,,,,,,,,,,,,,,1.95,455.70748729998013,None,space,1,457.7660856000148,None,457.7660856000148,None,457.7660856000148,None,0.24277379998238757,,,,,,,,,,,P034,FENCOG,2,Pre,2022_Apr_07_1037,Go No-Go Task,2021.1.4,119.98708934675189,
,"Rule: When you see a yellow image, do not press 'spacebar'.",Images/Fearful/AM05AFS.jpg,Fear,Yellow,Images/Yellow.jpg,None,ParentConditions/YellowYellowBlue_v2.xlsx,YellowYellowBlue,Conditions/Version_2/YellowFearStop.xlsx,yes,PASS,0.6951263252071049,,,,,,,,,0,0,0,1,0,0,0,0,0,67,67,67,,,,,,,,,,,,,,,,,,,,,,,,,,,,,,,,,,,,,,,,,,,,,,,,,,,,,,,,,,,,,,,,,,,,,,,,,,,,,,,1.98,458.1598201000015,None,None,1,460.2486305999919,None,460.2486305999919,None,460.2486305999919,None,,,,,,,,,,,,P034,FENCOG,2,Pre,2022_Apr_07_1037,Go No-Go Task,2021.1.4,119.98708934675189,
,"Rule: When you see a yellow image, do not press 'spacebar'.",Images/Happy/AF28HAS.jpg,Happy,Blue,Images/Blue.jpg,space,ParentConditions/YellowYellowBlue_v2.xlsx,YellowYellowBlue,Conditions/Version_2/YellowFearStop.xlsx,no,PASS,0.25032705960911217,,,,,,,,,0,0,0,1,0,0,0,0,0,68,68,68,,,,,,,,,,,,,,,,,,,,,,,,,,,,,,,,,,,,,,,,,,,,,,,,,,,,,,,,,,,,,,,,,,,,,,,,,,,,,,,1.61,460.64510449999943,None,space,1,462.36474089999683,None,462.36474089999683,None,462.36474089999683,None,0.3015134999877773,,,,,,,,,,,P034,FENCOG,2,Pre,2022_Apr_07_1037,Go No-Go Task,2021.1.4,119.98708934675189,
,"Rule: When you see a yellow image, do not press 'spacebar'.",Images/Happy/AF07_HO.jpg,Happy,Blue,Images/Blue.jpg,space,ParentConditions/YellowYellowBlue_v2.xlsx,YellowYellowBlue,Conditions/Version_2/YellowFearStop.xlsx,no,PASS,0.293841477080362,,,,,,,,,0,0,0,1,0,0,0,0,0,69,69,69,,,,,,,,,,,,,,,,,,,,,,,,,,,,,,,,,,,,,,,,,,,,,,,,,,,,,,,,,,,,,,,,,,,,,,,,,,,,,,,1.69,462.76376000000164,None,space,1,464.56418180000037,None,464.56418180000037,None,464.56418180000037,None,0.33487940003396943,,,,,,,,,,,P034,FENCOG,2,Pre,2022_Apr_07_1037,Go No-Go Task,2021.1.4,119.98708934675189,
,"Rule: When you see a yellow image, do not press 'spacebar'.",Images/Happy/BF14_HO.jpg,Happy,Blue,Images/Blue.jpg,space,ParentConditions/YellowYellowBlue_v2.xlsx,YellowYellowBlue,Conditions/Version_2/YellowFearStop.xlsx,no,PASS,0.40422519447396765,,,,,,,,,0,0,0,1,0,0,0,0,0,70,70,70,,,,,,,,,,,,,,,,,,,,,,,,,,,,,,,,,,,,,,,,,,,,,,,,,,,,,,,,,,,,,,,,,,,,,,,,,,,,,,,1.55,464.9636906000087,None,space,1,466.62174769997364,None,466.62174769997364,None,466.62174769997364,None,0.3228038999950513,,,,,,,,,,,P034,FENCOG,2,Pre,2022_Apr_07_1037,Go No-Go Task,2021.1.4,119.98708934675189,
,"Rule: When you see a yellow image, do not press 'spacebar'.",Images/Fearful/AF07FS.jpg,Fear,Yellow,Images/Yellow.jpg,None,ParentConditions/YellowYellowBlue_v2.xlsx,YellowYellowBlue,Conditions/Version_2/YellowFearStop.xlsx,yes,PASS,0.7059954464635801,,,,,,,,,0,0,0,1,0,0,0,0,0,71,71,71,,,,,,,,,,,,,,,,,,,,,,,,,,,,,,,,,,,,,,,,,,,,,,,,,,,,,,,,,,,,,,,,,,,,,,,,,,,,,,,1.65,467.0208557000151,None,None,1,468.7793081999989,None,468.7793081999989,None,468.7793081999989,None,,,,,,,,,,,,P034,FENCOG,2,Pre,2022_Apr_07_1037,Go No-Go Task,2021.1.4,119.98708934675189,
,"Rule: When you see a yellow image, do not press 'spacebar'.",Images/Happy/AF32HAS.jpg,Happy,Blue,Images/Blue.jpg,space,ParentConditions/YellowYellowBlue_v2.xlsx,YellowYellowBlue,Conditions/Version_2/YellowFearStop.xlsx,no,PASS,0.6505932127186488,,,,,,,,,0,0,0,1,0,0,0,0,0,72,72,72,,,,,,,,,,,,,,,,,,,,,,,,,,,,,,,,,,,,,,,,,,,,,,,,,,,,,,,,,,,,,,,,,,,,,,,,,,,,,,,1.96,469.17833109997446,None,space,1,471.2537411999656,None,471.2537411999656,None,471.2537411999656,None,0.31231509998906404,,,,,,,,,,,P034,FENCOG,2,Pre,2022_Apr_07_1037,Go No-Go Task,2021.1.4,119.98708934675189,
,"Rule: When you see a yellow image, do not press 'spacebar'.",Images/Happy/AF11HAS.jpg,Happy,Blue,Images/Blue.jpg,space,ParentConditions/YellowYellowBlue_v2.xlsx,YellowYellowBlue,Conditions/Version_2/YellowFearStop.xlsx,no,PASS,0.22413936824153813,,,,,,,,,0,0,0,1,0,0,0,0,0,73,73,73,,,,,,,,,,,,,,,,,,,,,,,,,,,,,,,,,,,,,,,,,,,,,,,,,,,,,,,,,,,,,,,,,,,,,,,,,,,,,,,1.57,471.65282379998825,None,space,1,473.33648509997874,None,473.33648509997874,None,473.33648509997874,None,0.33382100000744686,,,,,,,,,,,P034,FENCOG,2,Pre,2022_Apr_07_1037,Go No-Go Task,2021.1.4,119.98708934675189,
,"Rule: When you see a yellow image, do not press 'spacebar'.",Images/Happy/AM19HAS.jpg,Happy,Blue,Images/Blue.jpg,space,ParentConditions/YellowYellowBlue_v2.xlsx,YellowYellowBlue,Conditions/Version_2/YellowFearStop.xlsx,no,PASS,0.5367328627339492,,,,,,,,,0,0,0,1,0,0,0,0,0,74,74,74,,,,,,,,,,,,,,,,,,,,,,,,,,,,,,,,,,,,,,,,,,,,,,,,,,,,,,,,,,,,,,,,,,,,,,,,,,,,,,,1.38,473.7355463000131,None,space,1,475.22759680001764,None,475.22759680001764,None,475.22759680001764,None,0.35486079996917397,,,,,,,,,,,P034,FENCOG,2,Pre,2022_Apr_07_1037,Go No-Go Task,2021.1.4,119.98708934675189,
,"Rule: When you see a yellow image, do not press 'spacebar'.",Images/Happy/AM01HAS.jpg,Happy,Blue,Images/Blue.jpg,space,ParentConditions/YellowYellowBlue_v2.xlsx,YellowYellowBlue,Conditions/Version_2/YellowFearStop.xlsx,no,PASS,0.4512238869721793,,,,,,,,,0,0,0,1,0,0,0,0,0,75,75,75,,,,,,,,,,,,,,,,,,,,,,,,,,,,,,,,,,,,,,,,,,,,,,,,,,,,,,,,,,,,,,,,,,,,,,,,,,,,,,,1.21,475.62667560001137,None,space,1,476.95202089997474,None,476.95202089997474,None,476.95202089997474,None,0.3051536999992095,,,,,,,,,,,P034,FENCOG,2,Pre,2022_Apr_07_1037,Go No-Go Task,2021.1.4,119.98708934675189,
,"Rule: When you see a yellow image, do not press 'spacebar'.",Images/Happy/WF05_HC.jpg,Happy,Blue,Images/Blue.jpg,space,ParentConditions/YellowYellowBlue_v2.xlsx,YellowYellowBlue,Conditions/Version_2/YellowFearStop.xlsx,no,PASS,0.7681499259335962,,,,,,,,,0,0,0,1,0,0,0,0,0,76,76,76,,,,,,,,,,,,,,,,,,,,,,,,,,,,,,,,,,,,,,,,,,,,,,,,,,,,,,,,,,,,,,,,,,,,,,,,,,,,,,,1.72,477.35111280001,None,space,1,479.1845796999987,None,479.1845796999987,None,479.1845796999987,None,0.30548139999154955,,,,,,,,,,,P034,FENCOG,2,Pre,2022_Apr_07_1037,Go No-Go Task,2021.1.4,119.98708934675189,
,"Rule: When you see a yellow image, do not press 'spacebar'.",Images/Happy/BM03_HO.jpg,Happy,Blue,Images/Blue.jpg,space,ParentConditions/YellowYellowBlue_v2.xlsx,YellowYellowBlue,Conditions/Version_2/YellowFearStop.xlsx,no,PASS,0.5824047138137685,,,,,,,,,0,0,0,1,0,0,0,0,0,77,77,77,,,,,,,,,,,,,,,,,,,,,,,,,,,,,,,,,,,,,,,,,,,,,,,,,,,,,,,,,,,,,,,,,,,,,,,,,,,,,,,1.28,479.5836057999986,None,space,1,480.9758455000119,None,480.9758455000119,None,480.9758455000119,None,0.3084925999864936,,,,,,,,,,,P034,FENCOG,2,Pre,2022_Apr_07_1037,Go No-Go Task,2021.1.4,119.98708934675189,
,"Rule: When you see a yellow image, do not press 'spacebar'.",Images/Happy/AM02_HE.jpg,Happy,Blue,Images/Blue.jpg,space,ParentConditions/YellowYellowBlue_v2.xlsx,YellowYellowBlue,Conditions/Version_2/YellowFearStop.xlsx,no,PASS,0.8791068347561973,,,,,,,,,0,0,0,1,0,0,0,0,0,78,78,78,,,,,,,,,,,,,,,,,,,,,,,,,,,,,,,,,,,,,,,,,,,,,,,,,,,,,,,,,,,,,,,,,,,,,,,,,,,,,,,1.94,481.3748076999909,None,space,1,483.4252886999748,None,483.4252886999748,None,483.4252886999748,None,0.2509567000088282,,,,,,,,,,,P034,FENCOG,2,Pre,2022_Apr_07_1037,Go No-Go Task,2021.1.4,119.98708934675189,
,"Rule: When you see a yellow image, do not press 'spacebar'.",Images/Fearful/AM06_FO.jpg,Fear,Yellow,Images/Yellow.jpg,None,ParentConditions/YellowYellowBlue_v2.xlsx,YellowYellowBlue,Conditions/Version_2/YellowFearStop.xlsx,yes,PASS,0.40627235988994603,,,,,,,,,0,0,0,1,0,0,0,0,0,79,79,79,,,,,,,,,,,,,,,,,,,,,,,,,,,,,,,,,,,,,,,,,,,,,,,,,,,,,,,,,,,,,,,,,,,,,,,,,,,,,,,1.71,483.8242306999746,None,None,1,485.64954369998304,None,485.64954369998304,None,485.64954369998304,None,,,,,,,,,,,,P034,FENCOG,2,Pre,2022_Apr_07_1037,Go No-Go Task,2021.1.4,119.98708934675189,
,"Rule: When you see a yellow image, do not press 'spacebar'.",Images/Scram2/HM09_NC.jpg,Scramble,Blue,Images/Blue.jpg,space,ParentConditions/YellowYellowBlue_v2.xlsx,YellowYellowBlue,Conditions/Version_2/YellowScramStop.xlsx,no,PASS,0.46719820189093064,,,,,,,,,0,0,0,1,0,1,1,1,0,0,0,0,,,,,,,,,,,,,,,,,,,,,,,,,,,,,,,,,,,,,,,,,,,,,,,,,,,,,,,,,,,,,,,,,495.7506403999869,None,498.74492809997173,None,space,3.5500857000006363,498.74492809997173,None,495.7506403999869,None,495.7506403999869,None,495.7506403999869,None,2,502.35608399997,None,None,0,504.4689973000204,None,504.4689973000204,None,504.4689973000204,None,,486.05863499996485,None,space,9.180677800031845,486.548599199974,None,486.05863499996485,None,486.05863499996485,None,P034,FENCOG,2,Pre,2022_Apr_07_1037,Go No-Go Task,2021.1.4,119.98708934675189,
,"Rule: When you see a yellow image, do not press 'spacebar'.",Images/Scram2/HM06_NC.jpg,Scramble,Blue,Images/Blue.jpg,space,ParentConditions/YellowYellowBlue_v2.xlsx,YellowYellowBlue,Conditions/Version_2/YellowScramStop.xlsx,no,PASS,0.564231421897386,,,,,,,,,0,0,0,1,0,1,1,1,0,1,1,1,,,,,,,,,,,,,,,,,,,,,,,,,,,,,,,,,,,,,,,,,,,,,,,,,,,,,,,,,,,,,,,,,,,,,,,,,,,,,,,1.5,504.86808960000053,None,None,0,506.46831079997355,None,506.46831079997355,None,506.46831079997355,None,,,,,,,,,,,,P034,FENCOG,2,Pre,2022_Apr_07_1037,Go No-Go Task,2021.1.4,119.98708934675189,
,"Rule: When you see a yellow image, do not press 'spacebar'.",Images/Scram1/AM31NES.jpg,Scramble,Blue,Images/Blue.jpg,space,ParentConditions/YellowYellowBlue_v2.xlsx,YellowYellowBlue,Conditions/Version_2/YellowScramStop.xlsx,no,PASS,0.846238330522312,,,,,,,,,0,0,0,1,0,1,1,1,0,2,2,2,,,,,,,,,,,,,,,,,,,,,,,,,,,,,,,,,,,,,,,,,,,,,,,,,,,,,,,,,,,,,,,,,,,,,,,,,,,,,,,1.7,506.8692880999879,None,space,1,508.6842763000168,None,508.6842763000168,None,508.6842763000168,None,0.2609248999506235,,,,,,,,,,,P034,FENCOG,2,Pre,2022_Apr_07_1037,Go No-Go Task,2021.1.4,119.98708934675189,
,"Rule: When you see a yellow image, do not press 'spacebar'.",Images/Scram2/AM03NES.jpg,Scramble,Yellow,Images/Yellow.jpg,None,ParentConditions/YellowYellowBlue_v2.xlsx,YellowYellowBlue,Conditions/Version_2/YellowScramStop.xlsx,yes,PASS,0.3566483684653988,,,,,,,,,0,0,0,1,0,1,1,1,0,3,3,3,,,,,,,,,,,,,,,,,,,,,,,,,,,,,,,,,,,,,,,,,,,,,,,,,,,,,,,,,,,,,,,,,,,,,,,,,,,,,,,1.92,509.08339440001873,None,None,1,511.1087196000153,None,511.1087196000153,None,511.1087196000153,None,,,,,,,,,,,,P034,FENCOG,2,Pre,2022_Apr_07_1037,Go No-Go Task,2021.1.4,119.98708934675189,
,"Rule: When you see a yellow image, do not press 'spacebar'.",Images/Scram2/BM01_NC.jpg,Scramble,Blue,Images/Blue.jpg,space,ParentConditions/YellowYellowBlue_v2.xlsx,YellowYellowBlue,Conditions/Version_2/YellowScramStop.xlsx,no,PASS,0.6300515820310504,,,,,,,,,0,0,0,1,0,1,1,1,0,4,4,4,,,,,,,,,,,,,,,,,,,,,,,,,,,,,,,,,,,,,,,,,,,,,,,,,,,,,,,,,,,,,,,,,,,,,,,,,,,,,,,1.49,511.50931579997996,None,space,1,513.1080114999786,None,513.1080114999786,None,513.1080114999786,None,0.24229170003673062,,,,,,,,,,,P034,FENCOG,2,Pre,2022_Apr_07_1037,Go No-Go Task,2021.1.4,119.98708934675189,
,"Rule: When you see a yellow image, do not press 'spacebar'.",Images/Scram1/HM09_NC.jpg,Scramble,Blue,Images/Blue.jpg,space,ParentConditions/YellowYellowBlue_v2.xlsx,YellowYellowBlue,Conditions/Version_2/YellowScramStop.xlsx,no,PASS,0.9681952009545239,,,,,,,,,0,0,0,1,0,1,1,1,0,5,5,5,,,,,,,,,,,,,,,,,,,,,,,,,,,,,,,,,,,,,,,,,,,,,,,,,,,,,,,,,,,,,,,,,,,,,,,,,,,,,,,1.62,513.5072137999814,None,space,1,515.2403336999705,None,515.2403336999705,None,515.2403336999705,None,0.24284849996911362,,,,,,,,,,,P034,FENCOG,2,Pre,2022_Apr_07_1037,Go No-Go Task,2021.1.4,119.98708934675189,
,"Rule: When you see a yellow image, do not press 'spacebar'.",Images/Scram2/BF07_NC.jpg,Scramble,Blue,Images/Blue.jpg,space,ParentConditions/YellowYellowBlue_v2.xlsx,YellowYellowBlue,Conditions/Version_2/YellowScramStop.xlsx,no,PASS,0.21646267744166114,,,,,,,,,0,0,0,1,0,1,1,1,0,6,6,6,,,,,,,,,,,,,,,,,,,,,,,,,,,,,,,,,,,,,,,,,,,,,,,,,,,,,,,,,,,,,,,,,,,,,,,,,,,,,,,1.69,515.6395968999714,None,space,1,517.4400628000149,None,517.4400628000149,None,517.4400628000149,None,0.3394374000490643,,,,,,,,,,,P034,FENCOG,2,Pre,2022_Apr_07_1037,Go No-Go Task,2021.1.4,119.98708934675189,
,"Rule: When you see a yellow image, do not press 'spacebar'.",Images/Scram1/BF14_NC.jpg,Scramble,Blue,Images/Blue.jpg,space,ParentConditions/YellowYellowBlue_v2.xlsx,YellowYellowBlue,Conditions/Version_2/YellowScramStop.xlsx,no,PASS,0.9846643703258401,,,,,,,,,0,0,0,1,0,1,1,1,0,7,7,7,,,,,,,,,,,,,,,,,,,,,,,,,,,,,,,,,,,,,,,,,,,,,,,,,,,,,,,,,,,,,,,,,,,,,,,,,,,,,,,1.91,517.8392271000193,None,space,1,519.8642880999832,None,519.8642880999832,None,519.8642880999832,None,0.20943230000557378,,,,,,,,,,,P034,FENCOG,2,Pre,2022_Apr_07_1037,Go No-Go Task,2021.1.4,119.98708934675189,
,"Rule: When you see a yellow image, do not press 'spacebar'.",Images/Scram2/AF10_NC.jpg,Scramble,Blue,Images/Blue.jpg,space,ParentConditions/YellowYellowBlue_v2.xlsx,YellowYellowBlue,Conditions/Version_2/YellowScramStop.xlsx,no,PASS,0.2443614348279377,,,,,,,,,0,0,0,1,0,1,1,1,0,8,8,8,,,,,,,,,,,,,,,,,,,,,,,,,,,,,,,,,,,,,,,,,,,,,,,,,,,,,,,,,,,,,,,,,,,,,,,,,,,,,,,1.2,520.2633561000112,None,space,1,521.5639219000004,None,521.5639219000004,None,521.5639219000004,None,0.23952960001770407,,,,,,,,,,,P034,FENCOG,2,Pre,2022_Apr_07_1037,Go No-Go Task,2021.1.4,119.98708934675189,
,"Rule: When you see a yellow image, do not press 'spacebar'.",Images/Scram2/AF01_NC.jpg,Scramble,Blue,Images/Blue.jpg,space,ParentConditions/YellowYellowBlue_v2.xlsx,YellowYellowBlue,Conditions/Version_2/YellowScramStop.xlsx,no,PASS,0.5418077894665677,,,,,,,,,0,0,0,1,0,1,1,1,0,9,9,9,,,,,,,,,,,,,,,,,,,,,,,,,,,,,,,,,,,,,,,,,,,,,,,,,,,,,,,,,,,,,,,,,,,,,,,,,,,,,,,1.61,521.9628568000044,None,space,1,523.6965880999924,None,523.6965880999924,None,523.6965880999924,None,0.2203521000337787,,,,,,,,,,,P034,FENCOG,2,Pre,2022_Apr_07_1037,Go No-Go Task,2021.1.4,119.98708934675189,
,"Rule: When you see a yellow image, do not press 'spacebar'.",Images/Scram2/AF24NES.jpg,Scramble,Blue,Images/Blue.jpg,space,ParentConditions/YellowYellowBlue_v2.xlsx,YellowYellowBlue,Conditions/Version_2/YellowScramStop.xlsx,no,PASS,0.5679342954932528,,,,,,,,,0,0,0,1,0,1,1,1,0,10,10,10,,,,,,,,,,,,,,,,,,,,,,,,,,,,,,,,,,,,,,,,,,,,,,,,,,,,,,,,,,,,,,,,,,,,,,,,,,,,,,,1.94,524.0874593000044,None,space,1,526.1458184999647,None,526.1458184999647,None,526.1458184999647,None,0.19830019999062642,,,,,,,,,,,P034,FENCOG,2,Pre,2022_Apr_07_1037,Go No-Go Task,2021.1.4,119.98708934675189,
,"Rule: When you see a yellow image, do not press 'spacebar'.",Images/Scram2/BF14_NC.jpg,Scramble,Blue,Images/Blue.jpg,space,ParentConditions/YellowYellowBlue_v2.xlsx,YellowYellowBlue,Conditions/Version_2/YellowScramStop.xlsx,no,PASS,0.8825179199303765,,,,,,,,,0,0,0,1,0,1,1,1,0,11,11,11,,,,,,,,,,,,,,,,,,,,,,,,,,,,,,,,,,,,,,,,,,,,,,,,,,,,,,,,,,,,,,,,,,,,,,,,,,,,,,,1.53,526.5363865999971,None,space,1,528.178629699978,None,528.178629699978,None,528.178629699978,None,0.1910745000350289,,,,,,,,,,,P034,FENCOG,2,Pre,2022_Apr_07_1037,Go No-Go Task,2021.1.4,119.98708934675189,
,"Rule: When you see a yellow image, do not press 'spacebar'.",Images/Scram1/AM13NES.jpg,Scramble,Blue,Images/Blue.jpg,space,ParentConditions/YellowYellowBlue_v2.xlsx,YellowYellowBlue,Conditions/Version_2/YellowScramStop.xlsx,no,PASS,0.21043647733489834,,,,,,,,,0,0,0,1,0,1,1,1,0,12,12,12,,,,,,,,,,,,,,,,,,,,,,,,,,,,,,,,,,,,,,,,,,,,,,,,,,,,,,,,,,,,,,,,,,,,,,,,,,,,,,,1.33,528.5777286000084,None,space,1,530.0114933999721,None,530.0114933999721,None,530.0114933999721,None,0.24068570003146306,,,,,,,,,,,P034,FENCOG,2,Pre,2022_Apr_07_1037,Go No-Go Task,2021.1.4,119.98708934675189,
,"Rule: When you see a yellow image, do not press 'spacebar'.",Images/Scram1/HM04_NC.jpg,Scramble,Blue,Images/Blue.jpg,space,ParentConditions/YellowYellowBlue_v2.xlsx,YellowYellowBlue,Conditions/Version_2/YellowScramStop.xlsx,no,PASS,0.048118244636673246,,,,,,,,,0,0,0,1,0,1,1,1,0,13,13,13,,,,,,,,,,,,,,,,,,,,,,,,,,,,,,,,,,,,,,,,,,,,,,,,,,,,,,,,,,,,,,,,,,,,,,,,,,,,,,,1.56,530.4117904999875,None,space,1,532.085931300011,None,532.085931300011,None,532.085931300011,None,0.23614470002939925,,,,,,,,,,,P034,FENCOG,2,Pre,2022_Apr_07_1037,Go No-Go Task,2021.1.4,119.98708934675189,
,"Rule: When you see a yellow image, do not press 'spacebar'.",Images/Scram1/AM03NES.jpg,Scramble,Blue,Images/Blue.jpg,space,ParentConditions/YellowYellowBlue_v2.xlsx,YellowYellowBlue,Conditions/Version_2/YellowScramStop.xlsx,no,PASS,0.5072407620323995,,,,,,,,,0,0,0,1,0,1,1,1,0,14,14,14,,,,,,,,,,,,,,,,,,,,,,,,,,,,,,,,,,,,,,,,,,,,,,,,,,,,,,,,,,,,,,,,,,,,,,,,,,,,,,,1.93,532.484964400006,None,space,1,534.5184752999921,None,534.5184752999921,None,534.5184752999921,None,0.21363989997189492,,,,,,,,,,,P034,FENCOG,2,Pre,2022_Apr_07_1037,Go No-Go Task,2021.1.4,119.98708934675189,
,"Rule: When you see a yellow image, do not press 'spacebar'.",Images/Scram1/AM22NES.jpg,Scramble,Blue,Images/Blue.jpg,space,ParentConditions/YellowYellowBlue_v2.xlsx,YellowYellowBlue,Conditions/Version_2/YellowScramStop.xlsx,no,PASS,0.8332736468200919,,,,,,,,,0,0,0,1,0,1,1,1,0,15,15,15,,,,,,,,,,,,,,,,,,,,,,,,,,,,,,,,,,,,,,,,,,,,,,,,,,,,,,,,,,,,,,,,,,,,,,,,,,,,,,,1.73,534.9185315999785,None,space,1,536.7594826999702,None,536.7594826999702,None,536.7594826999702,None,0.2379724999773316,,,,,,,,,,,P034,FENCOG,2,Pre,2022_Apr_07_1037,Go No-Go Task,2021.1.4,119.98708934675189,
,"Rule: When you see a yellow image, do not press 'spacebar'.",Images/Scram2/AM17NES.jpg,Scramble,Yellow,Images/Yellow.jpg,None,ParentConditions/YellowYellowBlue_v2.xlsx,YellowYellowBlue,Conditions/Version_2/YellowScramStop.xlsx,yes,PASS,0.5524440306249002,,,,,,,,,0,0,0,1,0,1,1,1,0,16,16,16,,,,,,,,,,,,,,,,,,,,,,,,,,,,,,,,,,,,,,,,,,,,,,,,,,,,,,,,,,,,,,,,,,,,,,,,,,,,,,,1.39,537.1584296000074,None,space,0,538.6672108999919,None,538.6672108999919,None,538.6672108999919,None,0.2992087000166066,,,,,,,,,,,P034,FENCOG,2,Pre,2022_Apr_07_1037,Go No-Go Task,2021.1.4,119.98708934675189,
,"Rule: When you see a yellow image, do not press 'spacebar'.",Images/Scram1/AM10NES.jpg,Scramble,Blue,Images/Blue.jpg,space,ParentConditions/YellowYellowBlue_v2.xlsx,YellowYellowBlue,Conditions/Version_2/YellowScramStop.xlsx,no,PASS,0.13699730503466545,,,,,,,,,0,0,0,1,0,1,1,1,0,17,17,17,,,,,,,,,,,,,,,,,,,,,,,,,,,,,,,,,,,,,,,,,,,,,,,,,,,,,,,,,,,,,,,,,,,,,,,,,,,,,,,1.41,539.0647540999926,None,space,1,540.5835768000106,None,540.5835768000106,None,540.5835768000106,None,0.24252790003083646,,,,,,,,,,,P034,FENCOG,2,Pre,2022_Apr_07_1037,Go No-Go Task,2021.1.4,119.98708934675189,
,"Rule: When you see a yellow image, do not press 'spacebar'.",Images/Scram2/AM03_NC.jpg,Scramble,Yellow,Images/Yellow.jpg,None,ParentConditions/YellowYellowBlue_v2.xlsx,YellowYellowBlue,Conditions/Version_2/YellowScramStop.xlsx,yes,PASS,0.2886954903206703,,,,,,,,,0,0,0,1,0,1,1,1,0,18,18,18,,,,,,,,,,,,,,,,,,,,,,,,,,,,,,,,,,,,,,,,,,,,,,,,,,,,,,,,,,,,,,,,,,,,,,,,,,,,,,,1.22,540.9823131000157,None,None,1,542.3078477999661,None,542.3078477999661,None,542.3078477999661,None,,,,,,,,,,,,P034,FENCOG,2,Pre,2022_Apr_07_1037,Go No-Go Task,2021.1.4,119.98708934675189,
,"Rule: When you see a yellow image, do not press 'spacebar'.",Images/Scram1/HF09_NC.jpg,Scramble,Blue,Images/Blue.jpg,space,ParentConditions/YellowYellowBlue_v2.xlsx,YellowYellowBlue,Conditions/Version_2/YellowScramStop.xlsx,no,PASS,0.5210471780653185,,,,,,,,,0,0,0,1,0,1,1,1,0,19,19,19,,,,,,,,,,,,,,,,,,,,,,,,,,,,,,,,,,,,,,,,,,,,,,,,,,,,,,,,,,,,,,,,,,,,,,,,,,,,,,,1.38,542.7075194999925,None,space,1,544.198836399999,None,544.198836399999,None,544.198836399999,None,0.2404674999997951,,,,,,,,,,,P034,FENCOG,2,Pre,2022_Apr_07_1037,Go No-Go Task,2021.1.4,119.98708934675189,
,"Rule: When you see a yellow image, do not press 'spacebar'.",Images/Scram1/BM08_NC.jpg,Scramble,Blue,Images/Blue.jpg,space,ParentConditions/YellowYellowBlue_v2.xlsx,YellowYellowBlue,Conditions/Version_2/YellowScramStop.xlsx,no,PASS,0.7192207106921986,,,,,,,,,0,0,0,1,0,1,1,1,0,20,20,20,,,,,,,,,,,,,,,,,,,,,,,,,,,,,,,,,,,,,,,,,,,,,,,,,,,,,,,,,,,,,,,,,,,,,,,,,,,,,,,1.57,544.5978834999842,None,space,1,546.2814243999892,None,546.2814243999892,None,546.2814243999892,None,0.22031130001414567,,,,,,,,,,,P034,FENCOG,2,Pre,2022_Apr_07_1037,Go No-Go Task,2021.1.4,119.98708934675189,
,"Rule: When you see a yellow image, do not press 'spacebar'.",Images/Scram1/AF32NES.jpg,Scramble,Blue,Images/Blue.jpg,space,ParentConditions/YellowYellowBlue_v2.xlsx,YellowYellowBlue,Conditions/Version_2/YellowScramStop.xlsx,no,PASS,0.3856706921106089,,,,,,,,,0,0,0,1,0,1,1,1,0,21,21,21,,,,,,,,,,,,,,,,,,,,,,,,,,,,,,,,,,,,,,,,,,,,,,,,,,,,,,,,,,,,,,,,,,,,,,,,,,,,,,,1.87,546.6805522000068,None,space,1,548.6642884999746,None,548.6642884999746,None,548.6642884999746,None,0.244079599971883,,,,,,,,,,,P034,FENCOG,2,Pre,2022_Apr_07_1037,Go No-Go Task,2021.1.4,119.98708934675189,
,"Rule: When you see a yellow image, do not press 'spacebar'.",Images/Scram2/AM06_NC.jpg,Scramble,Yellow,Images/Yellow.jpg,None,ParentConditions/YellowYellowBlue_v2.xlsx,YellowYellowBlue,Conditions/Version_2/YellowScramStop.xlsx,yes,PASS,0.593844606938259,,,,,,,,,0,0,0,1,0,1,1,1,0,22,22,22,,,,,,,,,,,,,,,,,,,,,,,,,,,,,,,,,,,,,,,,,,,,,,,,,,,,,,,,,,,,,,,,,,,,,,,,,,,,,,,1.74,549.0632075999747,None,None,1,550.9135866999859,None,550.9135866999859,None,550.9135866999859,None,,,,,,,,,,,,P034,FENCOG,2,Pre,2022_Apr_07_1037,Go No-Go Task,2021.1.4,119.98708934675189,
,"Rule: When you see a yellow image, do not press 'spacebar'.",Images/Scram1/AM06_NC.jpg,Scramble,Blue,Images/Blue.jpg,space,ParentConditions/YellowYellowBlue_v2.xlsx,YellowYellowBlue,Conditions/Version_2/YellowScramStop.xlsx,no,PASS,0.5597751985943138,,,,,,,,,0,0,0,1,0,1,1,1,0,23,23,23,,,,,,,,,,,,,,,,,,,,,,,,,,,,,,,,,,,,,,,,,,,,,,,,,,,,,,,,,,,,,,,,,,,,,,,,,,,,,,,1.76,551.3127832000027,None,space,1,553.1877743999939,None,553.1877743999939,None,553.1877743999939,None,0.2421567999990657,,,,,,,,,,,P034,FENCOG,2,Pre,2022_Apr_07_1037,Go No-Go Task,2021.1.4,119.98708934675189,
,"Rule: When you see a yellow image, do not press 'spacebar'.",Images/Scram2/AM02_NC.jpg,Scramble,Yellow,Images/Yellow.jpg,None,ParentConditions/YellowYellowBlue_v2.xlsx,YellowYellowBlue,Conditions/Version_2/YellowScramStop.xlsx,yes,PASS,0.21014535444537008,,,,,,,,,0,0,0,1,0,1,1,1,0,24,24,24,,,,,,,,,,,,,,,,,,,,,,,,,,,,,,,,,,,,,,,,,,,,,,,,,,,,,,,,,,,,,,,,,,,,,,,,,,,,,,,1.66,553.5868232999928,None,None,1,555.3706217000145,None,555.3706217000145,None,555.3706217000145,None,,,,,,,,,,,,P034,FENCOG,2,Pre,2022_Apr_07_1037,Go No-Go Task,2021.1.4,119.98708934675189,
,"Rule: When you see a yellow image, do not press 'spacebar'.",Images/Scram2/HF05_NC.jpg,Scramble,Blue,Images/Blue.jpg,space,ParentConditions/YellowYellowBlue_v2.xlsx,YellowYellowBlue,Conditions/Version_2/YellowScramStop.xlsx,no,PASS,0.0025091428399978133,,,,,,,,,0,0,0,1,0,1,1,1,0,25,25,25,,,,,,,,,,,,,,,,,,,,,,,,,,,,,,,,,,,,,,,,,,,,,,,,,,,,,,,,,,,,,,,,,,,,,,,,,,,,,,,1.83,555.7612022999674,None,space,1,557.7032950000139,None,557.7032950000139,None,557.7032950000139,None,0.3044357000035234,,,,,,,,,,,P034,FENCOG,2,Pre,2022_Apr_07_1037,Go No-Go Task,2021.1.4,119.98708934675189,
,"Rule: When you see a yellow image, do not press 'spacebar'.",Images/Scram2/AF32NES.jpg,Scramble,Yellow,Images/Yellow.jpg,None,ParentConditions/YellowYellowBlue_v2.xlsx,YellowYellowBlue,Conditions/Version_2/YellowScramStop.xlsx,yes,PASS,0.5621638043526047,,,,,,,,,0,0,0,1,0,1,1,1,0,26,26,26,,,,,,,,,,,,,,,,,,,,,,,,,,,,,,,,,,,,,,,,,,,,,,,,,,,,,,,,,,,,,,,,,,,,,,,,,,,,,,,1.36,558.1023130000103,None,None,1,559.5777018999797,None,559.5777018999797,None,559.5777018999797,None,,,,,,,,,,,,P034,FENCOG,2,Pre,2022_Apr_07_1037,Go No-Go Task,2021.1.4,119.98708934675189,
,"Rule: When you see a yellow image, do not press 'spacebar'.",Images/Scram2/HM04_NC.jpg,Scramble,Blue,Images/Blue.jpg,space,ParentConditions/YellowYellowBlue_v2.xlsx,YellowYellowBlue,Conditions/Version_2/YellowScramStop.xlsx,no,PASS,0.3656961779732233,,,,,,,,,0,0,0,1,0,1,1,1,0,27,27,27,,,,,,,,,,,,,,,,,,,,,,,,,,,,,,,,,,,,,,,,,,,,,,,,,,,,,,,,,,,,,,,,,,,,,,,,,,,,,,,1.99,559.9766843999969,None,space,1,562.0769102000049,None,562.0769102000049,None,562.0769102000049,None,0.280549900024198,,,,,,,,,,,P034,FENCOG,2,Pre,2022_Apr_07_1037,Go No-Go Task,2021.1.4,119.98708934675189,
,"Rule: When you see a yellow image, do not press 'spacebar'.",Images/Scram2/AF25NES.jpg,Scramble,Blue,Images/Blue.jpg,space,ParentConditions/YellowYellowBlue_v2.xlsx,YellowYellowBlue,Conditions/Version_2/YellowScramStop.xlsx,no,PASS,0.24296732370581886,,,,,,,,,0,0,0,1,0,1,1,1,0,28,28,28,,,,,,,,,,,,,,,,,,,,,,,,,,,,,,,,,,,,,,,,,,,,,,,,,,,,,,,,,,,,,,,,,,,,,,,,,,,,,,,1.58,562.4759860999766,None,space,1,564.1593443999882,None,564.1593443999882,None,564.1593443999882,None,0.2964257000130601,,,,,,,,,,,P034,FENCOG,2,Pre,2022_Apr_07_1037,Go No-Go Task,2021.1.4,119.98708934675189,
,"Rule: When you see a yellow image, do not press 'spacebar'.",Images/Scram1/AF34NES.jpg,Scramble,Blue,Images/Blue.jpg,space,ParentConditions/YellowYellowBlue_v2.xlsx,YellowYellowBlue,Conditions/Version_2/YellowScramStop.xlsx,no,PASS,0.2947970947694444,,,,,,,,,0,0,0,1,0,1,1,1,0,29,29,29,,,,,,,,,,,,,,,,,,,,,,,,,,,,,,,,,,,,,,,,,,,,,,,,,,,,,,,,,,,,,,,,,,,,,,,,,,,,,,,1.65,564.5634165999945,None,space,1,566.3254006999778,None,566.3254006999778,None,566.3254006999778,None,0.25174959999276325,,,,,,,,,,,P034,FENCOG,2,Pre,2022_Apr_07_1037,Go No-Go Task,2021.1.4,119.98708934675189,
,"Rule: When you see a yellow image, do not press 'spacebar'.",Images/Scram2/AF11NES.jpg,Scramble,Blue,Images/Blue.jpg,space,ParentConditions/YellowYellowBlue_v2.xlsx,YellowYellowBlue,Conditions/Version_2/YellowScramStop.xlsx,no,PASS,0.06112693600308039,,,,,,,,,0,0,0,1,0,1,1,1,0,30,30,30,,,,,,,,,,,,,,,,,,,,,,,,,,,,,,,,,,,,,,,,,,,,,,,,,,,,,,,,,,,,,,,,,,,,,,,,,,,,,,,1.44,566.7247598000104,None,space,1,568.2751027999911,None,568.2751027999911,None,568.2751027999911,None,0.29273709998233244,,,,,,,,,,,P034,FENCOG,2,Pre,2022_Apr_07_1037,Go No-Go Task,2021.1.4,119.98708934675189,
,"Rule: When you see a yellow image, do not press 'spacebar'.",Images/Scram2/AF34NES.jpg,Scramble,Yellow,Images/Yellow.jpg,None,ParentConditions/YellowYellowBlue_v2.xlsx,YellowYellowBlue,Conditions/Version_2/YellowScramStop.xlsx,yes,PASS,0.36837427021744795,,,,,,,,,0,0,0,1,0,1,1,1,0,31,31,31,,,,,,,,,,,,,,,,,,,,,,,,,,,,,,,,,,,,,,,,,,,,,,,,,,,,,,,,,,,,,,,,,,,,,,,,,,,,,,,1.37,568.6743027999764,None,None,1,570.1579868000117,None,570.1579868000117,None,570.1579868000117,None,,,,,,,,,,,,P034,FENCOG,2,Pre,2022_Apr_07_1037,Go No-Go Task,2021.1.4,119.98708934675189,
,"Rule: When you see a yellow image, do not press 'spacebar'.",Images/Scram1/AM02_NC.jpg,Scramble,Blue,Images/Blue.jpg,space,ParentConditions/YellowYellowBlue_v2.xlsx,YellowYellowBlue,Conditions/Version_2/YellowScramStop.xlsx,no,PASS,0.7004017432139685,,,,,,,,,0,0,0,1,0,1,1,1,0,32,32,32,,,,,,,,,,,,,,,,,,,,,,,,,,,,,,,,,,,,,,,,,,,,,,,,,,,,,,,,,,,,,,,,,,,,,,,,,,,,,,,1.32,570.5570060000173,None,space,1,571.9905863999738,None,571.9905863999738,None,571.9905863999738,None,0.2629413999966346,,,,,,,,,,,P034,FENCOG,2,Pre,2022_Apr_07_1037,Go No-Go Task,2021.1.4,119.98708934675189,
,"Rule: When you see a yellow image, do not press 'spacebar'.",Images/Scram2/AM13NES.jpg,Scramble,Yellow,Images/Yellow.jpg,None,ParentConditions/YellowYellowBlue_v2.xlsx,YellowYellowBlue,Conditions/Version_2/YellowScramStop.xlsx,yes,PASS,0.7037668434542473,,,,,,,,,0,0,0,1,0,1,1,1,0,33,33,33,,,,,,,,,,,,,,,,,,,,,,,,,,,,,,,,,,,,,,,,,,,,,,,,,,,,,,,,,,,,,,,,,,,,,,,,,,,,,,,1.72,572.4271124000079,None,None,1,574.2566584000015,None,574.2566584000015,None,574.2566584000015,None,,,,,,,,,,,,P034,FENCOG,2,Pre,2022_Apr_07_1037,Go No-Go Task,2021.1.4,119.98708934675189,
,"Rule: When you see a yellow image, do not press 'spacebar'.",Images/Scram1/AM03_NC.jpg,Scramble,Blue,Images/Blue.jpg,space,ParentConditions/YellowYellowBlue_v2.xlsx,YellowYellowBlue,Conditions/Version_2/YellowScramStop.xlsx,no,PASS,0.13984736132192788,,,,,,,,,0,0,0,1,0,1,1,1,0,34,34,34,,,,,,,,,,,,,,,,,,,,,,,,,,,,,,,,,,,,,,,,,,,,,,,,,,,,,,,,,,,,,,,,,,,,,,,,,,,,,,,1.23,574.6557292999933,None,space,1,575.997831500019,None,575.997831500019,None,575.997831500019,None,0.28361519996542484,,,,,,,,,,,P034,FENCOG,2,Pre,2022_Apr_07_1037,Go No-Go Task,2021.1.4,119.98708934675189,
,"Rule: When you see a yellow image, do not press 'spacebar'.",Images/Scram1/AF33NES.jpg,Scramble,Blue,Images/Blue.jpg,space,ParentConditions/YellowYellowBlue_v2.xlsx,YellowYellowBlue,Conditions/Version_2/YellowScramStop.xlsx,no,PASS,0.7479968675198729,,,,,,,,,0,0,0,1,0,1,1,1,0,35,35,35,,,,,,,,,,,,,,,,,,,,,,,,,,,,,,,,,,,,,,,,,,,,,,,,,,,,,,,,,,,,,,,,,,,,,,,,,,,,,,,1.81,576.3970262999646,None,space,1,578.3222943000146,None,578.3222943000146,None,578.3222943000146,None,0.3726819999865256,,,,,,,,,,,P034,FENCOG,2,Pre,2022_Apr_07_1037,Go No-Go Task,2021.1.4,119.98708934675189,
,"Rule: When you see a yellow image, do not press 'spacebar'.",Images/Scram1/BF10_NC.jpg,Scramble,Blue,Images/Blue.jpg,space,ParentConditions/YellowYellowBlue_v2.xlsx,YellowYellowBlue,Conditions/Version_2/YellowScramStop.xlsx,no,PASS,0.5225639267337787,,,,,,,,,0,0,0,1,0,1,1,1,0,36,36,36,,,,,,,,,,,,,,,,,,,,,,,,,,,,,,,,,,,,,,,,,,,,,,,,,,,,,,,,,,,,,,,,,,,,,,,,,,,,,,,1.9,578.7143865000107,None,space,1,580.7382312999689,None,580.7382312999689,None,580.7382312999689,None,0.2913698999909684,,,,,,,,,,,P034,FENCOG,2,Pre,2022_Apr_07_1037,Go No-Go Task,2021.1.4,119.98708934675189,
,"Rule: When you see a yellow image, do not press 'spacebar'.",Images/Scram1/AF07_NC.jpg,Scramble,Blue,Images/Blue.jpg,space,ParentConditions/YellowYellowBlue_v2.xlsx,YellowYellowBlue,Conditions/Version_2/YellowScramStop.xlsx,no,PASS,0.5221002530466395,,,,,,,,,0,0,0,1,0,1,1,1,0,37,37,37,,,,,,,,,,,,,,,,,,,,,,,,,,,,,,,,,,,,,,,,,,,,,,,,,,,,,,,,,,,,,,,,,,,,,,,,,,,,,,,1.35,581.1289321000222,None,space,1,582.5876182999928,None,582.5876182999928,None,582.5876182999928,None,0.357048699981533,,,,,,,,,,,P034,FENCOG,2,Pre,2022_Apr_07_1037,Go No-Go Task,2021.1.4,119.98708934675189,
,"Rule: When you see a yellow image, do not press 'spacebar'.",Images/Scram2/AM23NES.jpg,Scramble,Yellow,Images/Yellow.jpg,None,ParentConditions/YellowYellowBlue_v2.xlsx,YellowYellowBlue,Conditions/Version_2/YellowScramStop.xlsx,yes,PASS,0.18195499113806335,,,,,,,,,0,0,0,1,0,1,1,1,0,38,38,38,,,,,,,,,,,,,,,,,,,,,,,,,,,,,,,,,,,,,,,,,,,,,,,,,,,,,,,,,,,,,,,,,,,,,,,,,,,,,,,1.96,582.9864587999764,None,None,1,585.0618144000182,None,585.0618144000182,None,585.0618144000182,None,,,,,,,,,,,,P034,FENCOG,2,Pre,2022_Apr_07_1037,Go No-Go Task,2021.1.4,119.98708934675189,
,"Rule: When you see a yellow image, do not press 'spacebar'.",Images/Scram1/AF24NES.jpg,Scramble,Blue,Images/Blue.jpg,space,ParentConditions/YellowYellowBlue_v2.xlsx,YellowYellowBlue,Conditions/Version_2/YellowScramStop.xlsx,no,PASS,0.6640389388315467,,,,,,,,,0,0,0,1,0,1,1,1,0,39,39,39,,,,,,,,,,,,,,,,,,,,,,,,,,,,,,,,,,,,,,,,,,,,,,,,,,,,,,,,,,,,,,,,,,,,,,,,,,,,,,,1.24,585.459690299991,None,space,1,586.8031303000171,None,586.8031303000171,None,586.8031303000171,None,0.255360999959521,,,,,,,,,,,P034,FENCOG,2,Pre,2022_Apr_07_1037,Go No-Go Task,2021.1.4,119.98708934675189,
,"Rule: When you see a yellow image, do not press 'spacebar'.",Images/Scram2/AF33NES.jpg,Scramble,Yellow,Images/Yellow.jpg,None,ParentConditions/YellowYellowBlue_v2.xlsx,YellowYellowBlue,Conditions/Version_2/YellowScramStop.xlsx,yes,PASS,0.6203826022283658,,,,,,,,,0,0,0,1,0,1,1,1,0,40,40,40,,,,,,,,,,,,,,,,,,,,,,,,,,,,,,,,,,,,,,,,,,,,,,,,,,,,,,,,,,,,,,,,,,,,,,,,,,,,,,,1.78,587.2039022999816,None,None,1,589.0940167999943,None,589.0940167999943,None,589.0940167999943,None,,,,,,,,,,,,P034,FENCOG,2,Pre,2022_Apr_07_1037,Go No-Go Task,2021.1.4,119.98708934675189,
,"Rule: When you see a yellow image, do not press 'spacebar'.",Images/Scram1/AF25NES.jpg,Scramble,Blue,Images/Blue.jpg,space,ParentConditions/YellowYellowBlue_v2.xlsx,YellowYellowBlue,Conditions/Version_2/YellowScramStop.xlsx,no,PASS,0.05141546475857928,,,,,,,,,0,0,0,1,0,1,1,1,0,41,41,41,,,,,,,,,,,,,,,,,,,,,,,,,,,,,,,,,,,,,,,,,,,,,,,,,,,,,,,,,,,,,,,,,,,,,,,,,,,,,,,1.8,589.4928034999757,None,space,1,591.401595000003,None,591.401595000003,None,591.401595000003,None,0.3584584000054747,,,,,,,,,,,P034,FENCOG,2,Pre,2022_Apr_07_1037,Go No-Go Task,2021.1.4,119.98708934675189,
,"Rule: When you see a yellow image, do not press 'spacebar'.",Images/Scram2/AM10NES.jpg,Scramble,Yellow,Images/Yellow.jpg,None,ParentConditions/YellowYellowBlue_v2.xlsx,YellowYellowBlue,Conditions/Version_2/YellowScramStop.xlsx,yes,PASS,0.1267743006232639,,,,,,,,,0,0,0,1,0,1,1,1,0,42,42,42,,,,,,,,,,,,,,,,,,,,,,,,,,,,,,,,,,,,,,,,,,,,,,,,,,,,,,,,,,,,,,,,,,,,,,,,,,,,,,,1.88,591.800694799982,None,None,1,593.7926710000029,None,593.7926710000029,None,593.7926710000029,None,,,,,,,,,,,,P034,FENCOG,2,Pre,2022_Apr_07_1037,Go No-Go Task,2021.1.4,119.98708934675189,
,"Rule: When you see a yellow image, do not press 'spacebar'.",Images/Scram2/BF10_NC.jpg,Scramble,Blue,Images/Blue.jpg,space,ParentConditions/YellowYellowBlue_v2.xlsx,YellowYellowBlue,Conditions/Version_2/YellowScramStop.xlsx,no,PASS,0.22016560502147287,,,,,,,,,0,0,0,1,0,1,1,1,0,43,43,43,,,,,,,,,,,,,,,,,,,,,,,,,,,,,,,,,,,,,,,,,,,,,,,,,,,,,,,,,,,,,,,,,,,,,,,,,,,,,,,1.28,594.1918234999757,None,space,1,595.5841562999994,None,595.5841562999994,None,595.5841562999994,None,0.25607340002898127,,,,,,,,,,,P034,FENCOG,2,Pre,2022_Apr_07_1037,Go No-Go Task,2021.1.4,119.98708934675189,
,"Rule: When you see a yellow image, do not press 'spacebar'.",Images/Scram1/BF18_NC.jpg,Scramble,Blue,Images/Blue.jpg,space,ParentConditions/YellowYellowBlue_v2.xlsx,YellowYellowBlue,Conditions/Version_2/YellowScramStop.xlsx,no,PASS,0.11487631985977975,,,,,,,,,0,0,0,1,0,1,1,1,0,44,44,44,,,,,,,,,,,,,,,,,,,,,,,,,,,,,,,,,,,,,,,,,,,,,,,,,,,,,,,,,,,,,,,,,,,,,,,,,,,,,,,1.95,595.9810664000106,None,None,0,598.0413654000149,None,598.0413654000149,None,598.0413654000149,None,,,,,,,,,,,,P034,FENCOG,2,Pre,2022_Apr_07_1037,Go No-Go Task,2021.1.4,119.98708934675189,
,"Rule: When you see a yellow image, do not press 'spacebar'.",Images/Scram2/HF09_NC.jpg,Scramble,Blue,Images/Blue.jpg,space,ParentConditions/YellowYellowBlue_v2.xlsx,YellowYellowBlue,Conditions/Version_2/YellowScramStop.xlsx,no,PASS,0.20475492045840804,,,,,,,,,0,0,0,1,0,1,1,1,0,45,45,45,,,,,,,,,,,,,,,,,,,,,,,,,,,,,,,,,,,,,,,,,,,,,,,,,,,,,,,,,,,,,,,,,,,,,,,,,,,,,,,1.51,598.4404921999667,None,space,1,600.0658197000157,None,600.0658197000157,None,600.0658197000157,None,0.3219513000221923,,,,,,,,,,,P034,FENCOG,2,Pre,2022_Apr_07_1037,Go No-Go Task,2021.1.4,119.98708934675189,
,"Rule: When you see a yellow image, do not press 'spacebar'.",Images/Scram1/BF05_NC.jpg,Scramble,Blue,Images/Blue.jpg,space,ParentConditions/YellowYellowBlue_v2.xlsx,YellowYellowBlue,Conditions/Version_2/YellowScramStop.xlsx,no,PASS,0.6685497116677461,,,,,,,,,0,0,0,1,0,1,1,1,0,46,46,46,,,,,,,,,,,,,,,,,,,,,,,,,,,,,,,,,,,,,,,,,,,,,,,,,,,,,,,,,,,,,,,,,,,,,,,,,,,,,,,1.82,600.4649059000076,None,space,1,602.3984112999751,None,602.3984112999751,None,602.3984112999751,None,0.2543928999803029,,,,,,,,,,,P034,FENCOG,2,Pre,2022_Apr_07_1037,Go No-Go Task,2021.1.4,119.98708934675189,
,"Rule: When you see a yellow image, do not press 'spacebar'.",Images/Scram1/AM17NES.jpg,Scramble,Blue,Images/Blue.jpg,space,ParentConditions/YellowYellowBlue_v2.xlsx,YellowYellowBlue,Conditions/Version_2/YellowScramStop.xlsx,no,PASS,0.5575549831069895,,,,,,,,,0,0,0,1,0,1,1,1,0,47,47,47,,,,,,,,,,,,,,,,,,,,,,,,,,,,,,,,,,,,,,,,,,,,,,,,,,,,,,,,,,,,,,,,,,,,,,,,,,,,,,,1.77,602.7988054999732,None,space,1,604.6811172000016,None,604.6811172000016,None,604.6811172000016,None,0.3635068999719806,,,,,,,,,,,P034,FENCOG,2,Pre,2022_Apr_07_1037,Go No-Go Task,2021.1.4,119.98708934675189,
,"Rule: When you see a yellow image, do not press 'spacebar'.",Images/Scram2/AM09_NC.jpg,Scramble,Yellow,Images/Yellow.jpg,None,ParentConditions/YellowYellowBlue_v2.xlsx,YellowYellowBlue,Conditions/Version_2/YellowScramStop.xlsx,yes,PASS,0.08490473937246712,,,,,,,,,0,0,0,1,0,1,1,1,0,48,48,48,,,,,,,,,,,,,,,,,,,,,,,,,,,,,,,,,,,,,,,,,,,,,,,,,,,,,,,,,,,,,,,,,,,,,,,,,,,,,,,1.46,605.0799678000039,None,None,1,606.6555297999876,None,606.6555297999876,None,606.6555297999876,None,,,,,,,,,,,,P034,FENCOG,2,Pre,2022_Apr_07_1037,Go No-Go Task,2021.1.4,119.98708934675189,
,"Rule: When you see a yellow image, do not press 'spacebar'.",Images/Scram2/AF09NES.jpg,Scramble,Blue,Images/Blue.jpg,space,ParentConditions/YellowYellowBlue_v2.xlsx,YellowYellowBlue,Conditions/Version_2/YellowScramStop.xlsx,no,PASS,0.8511922023884788,,,,,,,,,0,0,0,1,0,1,1,1,0,49,49,49,,,,,,,,,,,,,,,,,,,,,,,,,,,,,,,,,,,,,,,,,,,,,,,,,,,,,,,,,,,,,,,,,,,,,,,,,,,,,,,1.84,607.0519349999959,None,space,1,609.0047841999913,None,609.0047841999913,None,609.0047841999913,None,0.23646430001826957,,,,,,,,,,,P034,FENCOG,2,Pre,2022_Apr_07_1037,Go No-Go Task,2021.1.4,119.98708934675189,
,"Rule: When you see a yellow image, do not press 'spacebar'.",Images/Scram2/AM04_NC.jpg,Scramble,Yellow,Images/Yellow.jpg,None,ParentConditions/YellowYellowBlue_v2.xlsx,YellowYellowBlue,Conditions/Version_2/YellowScramStop.xlsx,yes,PASS,0.9711738915701108,,,,,,,,,0,0,0,1,0,1,1,1,0,50,50,50,,,,,,,,,,,,,,,,,,,,,,,,,,,,,,,,,,,,,,,,,,,,,,,,,,,,,,,,,,,,,,,,,,,,,,,,,,,,,,,1.67,609.4053437999683,None,None,1,611.1872869000072,None,611.1872869000072,None,611.1872869000072,None,,,,,,,,,,,,P034,FENCOG,2,Pre,2022_Apr_07_1037,Go No-Go Task,2021.1.4,119.98708934675189,
,"Rule: When you see a yellow image, do not press 'spacebar'.",Images/Scram2/BF05_NC.jpg,Scramble,Yellow,Images/Yellow.jpg,None,ParentConditions/YellowYellowBlue_v2.xlsx,YellowYellowBlue,Conditions/Version_2/YellowScramStop.xlsx,yes,PASS,0.3684660889098009,,,,,,,,,0,0,0,1,0,1,1,1,0,51,51,51,,,,,,,,,,,,,,,,,,,,,,,,,,,,,,,,,,,,,,,,,,,,,,,,,,,,,,,,,,,,,,,,,,,,,,,,,,,,,,,1.54,611.5865057000192,None,None,1,613.2369915000163,None,613.2369915000163,None,613.2369915000163,None,,,,,,,,,,,,P034,FENCOG,2,Pre,2022_Apr_07_1037,Go No-Go Task,2021.1.4,119.98708934675189,
,"Rule: When you see a yellow image, do not press 'spacebar'.",Images/Scram1/HM06_NC.jpg,Scramble,Blue,Images/Blue.jpg,space,ParentConditions/YellowYellowBlue_v2.xlsx,YellowYellowBlue,Conditions/Version_2/YellowScramStop.xlsx,no,PASS,0.5754528995111275,,,,,,,,,0,0,0,1,0,1,1,1,0,52,52,52,,,,,,,,,,,,,,,,,,,,,,,,,,,,,,,,,,,,,,,,,,,,,,,,,,,,,,,,,,,,,,,,,,,,,,,,,,,,,,,1.21,613.63574659999,None,space,1,614.9614169999841,None,614.9614169999841,None,614.9614169999841,None,0.2883651999873109,,,,,,,,,,,P034,FENCOG,2,Pre,2022_Apr_07_1037,Go No-Go Task,2021.1.4,119.98708934675189,
,"Rule: When you see a yellow image, do not press 'spacebar'.",Images/Scram2/AF07NES.jpg,Scramble,Blue,Images/Blue.jpg,space,ParentConditions/YellowYellowBlue_v2.xlsx,YellowYellowBlue,Conditions/Version_2/YellowScramStop.xlsx,no,PASS,0.5077779466511061,,,,,,,,,0,0,0,1,0,1,1,1,0,53,53,53,,,,,,,,,,,,,,,,,,,,,,,,,,,,,,,,,,,,,,,,,,,,,,,,,,,,,,,,,,,,,,,,,,,,,,,,,,,,,,,1.4,615.3605826999992,None,space,1,616.8692249999731,None,616.8692249999731,None,616.8692249999731,None,0.24151409999467432,,,,,,,,,,,P034,FENCOG,2,Pre,2022_Apr_07_1037,Go No-Go Task,2021.1.4,119.98708934675189,
,"Rule: When you see a yellow image, do not press 'spacebar'.",Images/Scram1/BM01_NC.jpg,Scramble,Blue,Images/Blue.jpg,space,ParentConditions/YellowYellowBlue_v2.xlsx,YellowYellowBlue,Conditions/Version_2/YellowScramStop.xlsx,no,PASS,0.6162286290631079,,,,,,,,,0,0,0,1,0,1,1,1,0,54,54,54,,,,,,,,,,,,,,,,,,,,,,,,,,,,,,,,,,,,,,,,,,,,,,,,,,,,,,,,,,,,,,,,,,,,,,,,,,,,,,,1.79,617.2685973999905,None,space,1,619.1600648000021,None,619.1600648000021,None,619.1600648000021,None,0.25542840000707656,,,,,,,,,,,P034,FENCOG,2,Pre,2022_Apr_07_1037,Go No-Go Task,2021.1.4,119.98708934675189,
