CondFileP,Instructions,FaceE,Express,ColourT,ColourF,CorrectAnsP,MasterCondFile,BlockOrder,CondFile,ColCheck,Triplicate_check,SORT_BY_SMALLEST,EPracticeOuterLoop.thisRepN,EPracticeOuterLoop.thisTrialN,EPracticeOuterLoop.thisN,EPracticeOuterLoop.thisIndex,EPracticeInnerLoop.thisRepN,EPracticeInnerLoop.thisTrialN,EPracticeInnerLoop.thisN,EPracticeInnerLoop.thisIndex,MasterLoop.thisRepN,MasterLoop.thisTrialN,MasterLoop.thisN,MasterLoop.thisIndex,OuterLoop.thisRepN,OuterLoop.thisTrialN,OuterLoop.thisN,OuterLoop.thisIndex,InnerLoop.thisRepN,InnerLoop.thisTrialN,InnerLoop.thisN,InnerLoop.thisIndex,text_13.started,text_13.stopped,key_resp_10.keys,key_resp_10.rt,key_resp_10.started,key_resp_10.stopped,text4.started,text4.stopped,EmotionTaskInstructions1.keys,EmotionTaskInstructions1.rt,EmotionTaskInstructions1.started,EmotionTaskInstructions1.stopped,text_4.started,text_4.stopped,key_resp_5.keys,key_resp_5.rt,key_resp_5.started,key_resp_5.stopped,Text_14.started,Text_14.stopped,key_resp_9.keys,key_resp_9.rt,key_resp_9.started,key_resp_9.stopped,text_5.started,text_5.stopped,text_6.started,text_6.stopped,key_resp_7.keys,key_resp_7.rt,key_resp_7.started,key_resp_7.stopped,text_10.started,text_10.stopped,text_11.started,text_11.stopped,text_12.started,text_12.stopped,ISIjitterPractice,EPracticeISIMarker.started,EPracticeISIMarker.stopped,Pract.keys,Pract.corr,Pract.started,Pract.stopped,PracticeFace.started,PracticeFace.stopped,ColourPractice.started,ColourPractice.stopped,text_7.started,text_7.stopped,Pract.rt,EndOfPractice.started,EndOfPractice.stopped,key_resp_8.keys,key_resp_8.rt,key_resp_8.started,key_resp_8.stopped,text_8.started,text_8.stopped,key_resp_6.keys,key_resp_6.rt,key_resp_6.started,key_resp_6.stopped,text_2.started,text_2.stopped,text_3.started,text_3.stopped,key_resp_3.keys,key_resp_3.rt,key_resp_3.started,key_resp_3.stopped,TaskBlock.started,TaskBlock.stopped,BlockNo1.started,BlockNo1.stopped,OfBlock.started,OfBlock.stopped,ISIjitter,ISImarker.started,ISImarker.stopped,key_resp.keys,key_resp.corr,key_resp.rt,key_resp.started,key_resp.stopped,FaceSet.started,FaceSet.stopped,Colour.started,Colour.stopped,EndBlockText.started,EndBlockText.stopped,key_resp_4.keys,key_resp_4.rt,key_resp_4.started,key_resp_4.stopped,BreakText2.started,BreakText2.stopped,PressToContinue.started,PressToContinue.stopped,participant,Study Name,Task Version (required to run),PRE/POST,date,expName,psychopyVersion,frameRate,
,,,,,,,,,,,,,,,,,,,,,,,,,,,,,,,,,43.30774270000006,None,space,137.4077649999997,44.30194359999996,None,,,,,,,,,,,,,,,,,,,,,,,,,,,,,,,,,,,,,,,,,,,,,,,,,,,,,,,,,,,,,,,,,,,,,,,,,,,,,,,,,,,,,,,,,,,,,,,P035,FENCOG,1,Pre,2022_Apr_11_1109,Go No-Go Task,2021.1.4,120.13714856866733,
,,,,,,,,,,,,,,,,,,,,,,,,,,,,,,,,,,,,,,,183.22704369999997,None,space,9.930982800000038,183.22704369999997,None,,,,,,,,,,,,,,,,,,,,,,,,,,,,,,,,,,,,,,,,,,,,,,,,,,,,,,,,,,,,,,,,,,,,,,,,,,,,,,,,,,,,,,,,,P035,FENCOG,1,Pre,2022_Apr_11_1109,Go No-Go Task,2021.1.4,120.13714856866733,
,,,,,,,,,,,,,,,,,,,,,,,,,,,,,,,,,,,,,,,,,,,,,193.24338409999996,None,space,9.666416900000058,193.24338409999996,None,,,,,,,,,,,,,,,,,,,,,,,,,,,,,,,,,,,,,,,,,,,,,,,,,,,,,,,,,,,,,,,,,,,,,,,,,,,,,,,,,,,P035,FENCOG,1,Pre,2022_Apr_11_1109,Go No-Go Task,2021.1.4,120.13714856866733,
,,,,,,,,,,,,,,,,,,,,,,,,,,,,,,,,,,,,,,,,,,,,,,,,,,,202.92326849999995,None,space,5.786689999999908,202.92326849999995,None,,,,,,,,,,,,,,,,,,,,,,,,,,,,,,,,,,,,,,,,,,,,,,,,,,,,,,,,,,,,,,,,,,,,,,,,,,,,,P035,FENCOG,1,Pre,2022_Apr_11_1109,Go No-Go Task,2021.1.4,120.13714856866733,
EPracticeConditions/BlueEyes.csv,"Rule: When you see a blue image, do not press 'spacebar'.",Images/Happy/HF09_HE.jpg,Happy,Yellow,Images/Yellow.jpg,space,,,,,,,0,0,0,0,0,0,0,6,,,,,,,,,,,,,,,,,,,,,,,,,,,,,,,,,,,,,208.79658050000012,None,211.7860274000002,None,space,2.03571570000031,211.7860274000002,None,208.79658050000012,None,208.79658050000012,None,208.79658050000012,None,1.4,213.9921280000001,None,None,0,215.52890709999997,None,215.52890709999997,None,215.52890709999997,None,217.08293459999982,None,,,,,,,,,,,,,,,,,,,,,,,,,,,,,,,,,,,,,,,,,,,,,,,,,,P035,FENCOG,1,Pre,2022_Apr_11_1109,Go No-Go Task,2021.1.4,120.13714856866733,
EPracticeConditions/BlueEyes.csv,"Rule: When you see a blue image, do not press 'spacebar'.",Images/Fearful/AF01_FO.jpg,Fear,Blue,Images/Blue.jpg,None,,,,,,,0,0,0,0,0,1,1,1,,,,,,,,,,,,,,,,,,,,,,,,,,,,,,,,,,,,,,,,,,,,,,,,,,,1.6,218.4277943999998,None,None,1,220.13416220000022,None,220.13416220000022,None,220.13416220000022,None,221.0472471999999,None,,,,,,,,,,,,,,,,,,,,,,,,,,,,,,,,,,,,,,,,,,,,,,,,,,P035,FENCOG,1,Pre,2022_Apr_11_1109,Go No-Go Task,2021.1.4,120.13714856866733,
EPracticeConditions/BlueEyes.csv,"Rule: When you see a blue image, do not press 'spacebar'.",Images/Fearful/HM09_FC.jpg,Fear,Blue,Images/Blue.jpg,None,,,,,,,0,0,0,0,0,2,2,0,,,,,,,,,,,,,,,,,,,,,,,,,,,,,,,,,,,,,,,,,,,,,,,,,,,1.7,223.0407213000001,None,None,1,224.84941980000008,None,224.84941980000008,None,224.84941980000008,None,225.74503570000002,None,,,,,,,,,,,,,,,,,,,,,,,,,,,,,,,,,,,,,,,,,,,,,,,,,,P035,FENCOG,1,Pre,2022_Apr_11_1109,Go No-Go Task,2021.1.4,120.13714856866733,
EPracticeConditions/BlueEyes.csv,"Rule: When you see a blue image, do not press 'spacebar'.",Images/Happy/BM02_HO.jpg,Happy,Yellow,Images/Yellow.jpg,space,,,,,,,0,0,0,0,0,3,3,2,,,,,,,,,,,,,,,,,,,,,,,,,,,,,,,,,,,,,,,,,,,,,,,,,,,1.5,227.7476626,None,space,1,229.3564571999998,None,229.3564571999998,None,229.3564571999998,None,230.23954320000007,None,0.2572245000001203,,,,,,,,,,,,,,,,,,,,,,,,,,,,,,,,,,,,,,,,,,,,,,,,,P035,FENCOG,1,Pre,2022_Apr_11_1109,Go No-Go Task,2021.1.4,120.13714856866733,
EPracticeConditions/BlueEyes.csv,"Rule: When you see a blue image, do not press 'spacebar'.",Images/Happy/HF05_HO.jpg,Happy,Yellow,Images/Yellow.jpg,space,,,,,,,0,0,0,0,0,4,4,5,,,,,,,,,,,,,,,,,,,,,,,,,,,,,,,,,,,,,,,,,,,,,,,,,,,1.8,232.24728560000017,None,space,1,234.1549391000001,None,234.1549391000001,None,234.1549391000001,None,235.05975939999985,None,0.3150061999999707,,,,,,,,,,,,,,,,,,,,,,,,,,,,,,,,,,,,,,,,,,,,,,,,,P035,FENCOG,1,Pre,2022_Apr_11_1109,Go No-Go Task,2021.1.4,120.13714856866733,
EPracticeConditions/BlueEyes.csv,"Rule: When you see a blue image, do not press 'spacebar'.",Images/Happy/HF04_HE.jpg,Happy,Yellow,Images/Yellow.jpg,space,,,,,,,0,0,0,0,0,5,5,4,,,,,,,,,,,,,,,,,,,,,,,,,,,,,,,,,,,,,,,,,,,,,,,,,,,1.3,237.06139740000003,None,space,1,238.46188400000005,None,238.46188400000005,None,238.46188400000005,None,239.36708969999995,None,0.3116909000000305,,,,,,,,,,,,,,,,,,,,,,,,,,,,,,,,,,,,,,,,,,,,,,,,,P035,FENCOG,1,Pre,2022_Apr_11_1109,Go No-Go Task,2021.1.4,120.13714856866733,
EPracticeConditions/BlueEyes.csv,"Rule: When you see a blue image, do not press 'spacebar'.",Images/Happy/HF10_HE.jpg,Happy,Yellow,Images/Yellow.jpg,space,,,,,,,0,0,0,0,0,6,6,7,,,,,,,,,,,,,,,,,,,,,,,,,,,,,,,,,,,,,,,,,,,,,,,,,,,1.2,241.36865160000002,None,space,1,242.6775083,None,242.6775083,None,242.6775083,None,243.5608494999999,None,0.3601163000002998,,,,,,,,,,,,,,,,,,,,,,,,,,,,,,,,,,,,,,,,,,,,,,,,,P035,FENCOG,1,Pre,2022_Apr_11_1109,Go No-Go Task,2021.1.4,120.13714856866733,
EPracticeConditions/BlueEyes.csv,"Rule: When you see a blue image, do not press 'spacebar'.",Images/Happy/BM08_HO.jpg,Happy,Yellow,Images/Yellow.jpg,space,,,,,,,0,0,0,0,0,7,7,3,,,,,,,,,,,,,,,,,,,,,,,,,,,,,,,,,,,,,,,,,,,,,,,,,,,1.9,245.57349980000004,None,space,1,247.58440529999984,None,247.58440529999984,None,247.58440529999984,None,248.48071719999984,None,0.3332140000002255,,,,,,,,,,,,,,,,,,,,,,,,,,,,,,,,,,,,,,,,,,,,,,,,,P035,FENCOG,1,Pre,2022_Apr_11_1109,Go No-Go Task,2021.1.4,120.13714856866733,
EPracticeConditions/BlueEyes.csv,"Rule: When you see a blue image, do not press 'spacebar'.",,,,,,,,,,,,0,0,0,0,,,,,,,,,,,,,,,,,,,,,,,,,,,,,,,,,,,,,,,,,,,,,,,,,,,,,,,,,,,,,,,,,,,,,,,,,,,,,,,,,,,,,,,,,,,,,,,,,,,,,,,,,,,,,,,,,,,,,P035,FENCOG,1,Pre,2022_Apr_11_1109,Go No-Go Task,2021.1.4,120.13714856866733,
EPracticeConditions/YellowEyes.csv,"Rule: When you see a yellow image, do not press 'spacebar'.",Images/Fearful/AM17AFS.jpg,Fear,Blue,Images/Blue.jpg,space,,,,,,,0,1,1,1,0,0,0,3,,,,,,,,,,,,,,,,,,,,,,,,,,,,,,,,,,,,,250.50365970000007,None,253.49874060000025,None,space,1.8348358000002918,253.49874060000025,None,250.50365970000007,None,250.50365970000007,None,250.50365970000007,None,1.4,255.35634490000007,None,None,0,256.8649422000001,None,256.8649422000001,None,256.8649422000001,None,257.76626539999984,None,,,,,,,,,,,,,,,,,,,,,,,,,,,,,,,,,,,,,,,,,,,,,,,,,,P035,FENCOG,1,Pre,2022_Apr_11_1109,Go No-Go Task,2021.1.4,120.13714856866733,
EPracticeConditions/YellowEyes.csv,"Rule: When you see a yellow image, do not press 'spacebar'.",Images/Fearful/AM19AFS.jpg,Fear,Blue,Images/Blue.jpg,space,,,,,,,0,1,1,1,0,1,1,4,,,,,,,,,,,,,,,,,,,,,,,,,,,,,,,,,,,,,,,,,,,,,,,,,,,1.8,259.76311520000013,None,space,1,261.6635082999999,None,261.6635082999999,None,261.6635082999999,None,262.5705384999999,None,0.3102644999999029,,,,,,,,,,,,,,,,,,,,,,,,,,,,,,,,,,,,,,,,,,,,,,,,,P035,FENCOG,1,Pre,2022_Apr_11_1109,Go No-Go Task,2021.1.4,120.13714856866733,
EPracticeConditions/YellowEyes.csv,"Rule: When you see a yellow image, do not press 'spacebar'.",Images/Fearful/AM23AFS.jpg,Fear,Blue,Images/Blue.jpg,space,,,,,,,0,1,1,1,0,2,2,6,,,,,,,,,,,,,,,,,,,,,,,,,,,,,,,,,,,,,,,,,,,,,,,,,,,1.7,264.57020709999983,None,space,1,266.37870529999987,None,266.37870529999987,None,266.37870529999987,None,267.2804385000002,None,0.25123119999989285,,,,,,,,,,,,,,,,,,,,,,,,,,,,,,,,,,,,,,,,,,,,,,,,,P035,FENCOG,1,Pre,2022_Apr_11_1109,Go No-Go Task,2021.1.4,120.13714856866733,
EPracticeConditions/YellowEyes.csv,"Rule: When you see a yellow image, do not press 'spacebar'.",Images/Happy/AM32HAS.jpg,Happy,Yellow,Images/Yellow.jpg,None,,,,,,,0,1,1,1,0,3,3,0,,,,,,,,,,,,,,,,,,,,,,,,,,,,,,,,,,,,,,,,,,,,,,,,,,,1.6,269.2771433999999,None,None,1,270.9857764000001,None,270.9857764000001,None,270.9857764000001,None,271.8779870000001,None,,,,,,,,,,,,,,,,,,,,,,,,,,,,,,,,,,,,,,,,,,,,,,,,,,P035,FENCOG,1,Pre,2022_Apr_11_1109,Go No-Go Task,2021.1.4,120.13714856866733,
EPracticeConditions/YellowEyes.csv,"Rule: When you see a yellow image, do not press 'spacebar'.",Images/Happy/BF05_HO.jpg,Happy,Yellow,Images/Yellow.jpg,None,,,,,,,0,1,1,1,0,4,4,1,,,,,,,,,,,,,,,,,,,,,,,,,,,,,,,,,,,,,,,,,,,,,,,,,,,1.9,273.8840355,None,None,1,275.88431689999993,None,275.88431689999993,None,275.88431689999993,None,276.7831969000001,None,,,,,,,,,,,,,,,,,,,,,,,,,,,,,,,,,,,,,,,,,,,,,,,,,,P035,FENCOG,1,Pre,2022_Apr_11_1109,Go No-Go Task,2021.1.4,120.13714856866733,
EPracticeConditions/YellowEyes.csv,"Rule: When you see a yellow image, do not press 'spacebar'.",Images/Fearful/AM22AFS.jpg,Fear,Blue,Images/Blue.jpg,space,,,,,,,0,1,1,1,0,5,5,5,,,,,,,,,,,,,,,,,,,,,,,,,,,,,,,,,,,,,,,,,,,,,,,,,,,1.3,278.7839163000001,None,space,1,280.1914680000002,None,280.1914680000002,None,280.1914680000002,None,281.0876824999998,None,0.3182776999997259,,,,,,,,,,,,,,,,,,,,,,,,,,,,,,,,,,,,,,,,,,,,,,,,,P035,FENCOG,1,Pre,2022_Apr_11_1109,Go No-Go Task,2021.1.4,120.13714856866733,
EPracticeConditions/YellowEyes.csv,"Rule: When you see a yellow image, do not press 'spacebar'.",Images/Fearful/AM16AFS.jpg,Fear,Blue,Images/Blue.jpg,space,,,,,,,0,1,1,1,0,6,6,2,,,,,,,,,,,,,,,,,,,,,,,,,,,,,,,,,,,,,,,,,,,,,,,,,,,1.2,283.0942940000002,None,space,1,284.3984358,None,284.3984358,None,284.3984358,None,285.2938167,None,0.27145059999975274,,,,,,,,,,,,,,,,,,,,,,,,,,,,,,,,,,,,,,,,,,,,,,,,,P035,FENCOG,1,Pre,2022_Apr_11_1109,Go No-Go Task,2021.1.4,120.13714856866733,
EPracticeConditions/YellowEyes.csv,"Rule: When you see a yellow image, do not press 'spacebar'.",Images/Fearful/AM24AFS.jpg,Fear,Blue,Images/Blue.jpg,space,,,,,,,0,1,1,1,0,7,7,7,,,,,,,,,,,,,,,,,,,,,,,,,,,,,,,,,,,,,,,,,,,,,,,,,,,1.5,287.2968291999998,None,space,1,288.89682819999985,None,288.89682819999985,None,288.89682819999985,None,289.79355150000015,None,0.2848802000003161,,,,,,,,,,,,,,,,,,,,,,,,,,,,,,,,,,,,,,,,,,,,,,,,,P035,FENCOG,1,Pre,2022_Apr_11_1109,Go No-Go Task,2021.1.4,120.13714856866733,
EPracticeConditions/YellowEyes.csv,"Rule: When you see a yellow image, do not press 'spacebar'.",,,,,,,,,,,,0,1,1,1,,,,,,,,,,,,,,,,,,,,,,,,,,,,,,,,,,,,,,,,,,,,,,,,,,,,,,,,,,,,,,,,,,,,,,,,,,,,,,,,,,,,,,,,,,,,,,,,,,,,,,,,,,,,,,,,,,,,,P035,FENCOG,1,Pre,2022_Apr_11_1109,Go No-Go Task,2021.1.4,120.13714856866733,
EPracticeConditions/BlueScram.csv,"Rule: When you see a blue image, do not press 'spacebar'.",Images/Scram1/AM04_NC.jpg,Scramble,Yellow,Images/Yellow.jpg,space,,,,,,,0,2,2,2,0,0,0,3,,,,,,,,,,,,,,,,,,,,,,,,,,,,,,,,,,,,,291.8031318000001,None,294.7897795000001,None,space,11.160015899999962,294.7897795000001,None,291.8031318000001,None,291.8031318000001,None,291.8031318000001,None,1.5,305.97006720000013,None,space,1,307.5833562999999,None,307.5833562999999,None,307.5833562999999,None,308.4767737999998,None,0.3581975000001876,,,,,,,,,,,,,,,,,,,,,,,,,,,,,,,,,,,,,,,,,,,,,,,,,P035,FENCOG,1,Pre,2022_Apr_11_1109,Go No-Go Task,2021.1.4,120.13714856866733,
EPracticeConditions/BlueScram.csv,"Rule: When you see a blue image, do not press 'spacebar'.",Images/Scram1/AM13NES.jpg,Scramble,Yellow,Images/Yellow.jpg,space,,,,,,,0,2,2,2,0,1,1,5,,,,,,,,,,,,,,,,,,,,,,,,,,,,,,,,,,,,,,,,,,,,,,,,,,,1.9,310.4815547999999,None,space,1,312.4982932999999,None,312.4982932999999,None,312.4982932999999,None,313.3802702999999,None,0.3155053999998927,,,,,,,,,,,,,,,,,,,,,,,,,,,,,,,,,,,,,,,,,,,,,,,,,P035,FENCOG,1,Pre,2022_Apr_11_1109,Go No-Go Task,2021.1.4,120.13714856866733,
EPracticeConditions/BlueScram.csv,"Rule: When you see a blue image, do not press 'spacebar'.",Images/Scram2/AF10_NC.jpg,Scramble,Yellow,Images/Yellow.jpg,space,,,,,,,0,2,2,2,0,2,2,2,,,,,,,,,,,,,,,,,,,,,,,,,,,,,,,,,,,,,,,,,,,,,,,,,,,1.6,315.3802106999999,None,space,1,317.0801067,None,317.0801067,None,317.0801067,None,317.97062500000015,None,0.2612642000003689,,,,,,,,,,,,,,,,,,,,,,,,,,,,,,,,,,,,,,,,,,,,,,,,,P035,FENCOG,1,Pre,2022_Apr_11_1109,Go No-Go Task,2021.1.4,120.13714856866733,
EPracticeConditions/BlueScram.csv,"Rule: When you see a blue image, do not press 'spacebar'.",Images/Scram1/BM08_NC.jpg,Scramble,Blue,Images/Blue.jpg,None,,,,,,,0,2,2,2,0,3,3,0,,,,,,,,,,,,,,,,,,,,,,,,,,,,,,,,,,,,,,,,,,,,,,,,,,,1.7,319.9702169999998,None,None,1,321.7703855000002,None,321.7703855000002,None,321.7703855000002,None,322.66106620000005,None,,,,,,,,,,,,,,,,,,,,,,,,,,,,,,,,,,,,,,,,,,,,,,,,,,P035,FENCOG,1,Pre,2022_Apr_11_1109,Go No-Go Task,2021.1.4,120.13714856866733,
EPracticeConditions/BlueScram.csv,"Rule: When you see a blue image, do not press 'spacebar'.",Images/Scram1/AM03NES.jpg,Scramble,Yellow,Images/Yellow.jpg,space,,,,,,,0,2,2,2,0,4,4,4,,,,,,,,,,,,,,,,,,,,,,,,,,,,,,,,,,,,,,,,,,,,,,,,,,,1.2,324.6603398,None,space,1,325.9607881999998,None,325.9607881999998,None,325.9607881999998,None,326.85132640000006,None,0.26858060000040496,,,,,,,,,,,,,,,,,,,,,,,,,,,,,,,,,,,,,,,,,,,,,,,,,P035,FENCOG,1,Pre,2022_Apr_11_1109,Go No-Go Task,2021.1.4,120.13714856866733,
EPracticeConditions/BlueScram.csv,"Rule: When you see a blue image, do not press 'spacebar'.",Images/Scram1/BF18_NC.jpg,Scramble,Blue,Images/Blue.jpg,None,,,,,,,0,2,2,2,0,5,5,1,,,,,,,,,,,,,,,,,,,,,,,,,,,,,,,,,,,,,,,,,,,,,,,,,,,1.4,328.8507551,None,None,1,330.35126909999985,None,330.35126909999985,None,330.35126909999985,None,331.2417339000001,None,,,,,,,,,,,,,,,,,,,,,,,,,,,,,,,,,,,,,,,,,,,,,,,,,,P035,FENCOG,1,Pre,2022_Apr_11_1109,Go No-Go Task,2021.1.4,120.13714856866733,
EPracticeConditions/BlueScram.csv,"Rule: When you see a blue image, do not press 'spacebar'.",Images/Scram2/AF25NES.jpg,Scramble,Yellow,Images/Yellow.jpg,space,,,,,,,0,2,2,2,0,6,6,7,,,,,,,,,,,,,,,,,,,,,,,,,,,,,,,,,,,,,,,,,,,,,,,,,,,1.8,333.2414390000001,None,space,1,335.14155659999983,None,335.14155659999983,None,335.14155659999983,None,336.03202190000025,None,0.25605140000016036,,,,,,,,,,,,,,,,,,,,,,,,,,,,,,,,,,,,,,,,,,,,,,,,,P035,FENCOG,1,Pre,2022_Apr_11_1109,Go No-Go Task,2021.1.4,120.13714856866733,
EPracticeConditions/BlueScram.csv,"Rule: When you see a blue image, do not press 'spacebar'.",Images/Scram2/AM03_NC.jpg,Scramble,Yellow,Images/Yellow.jpg,space,,,,,,,0,2,2,2,0,7,7,6,,,,,,,,,,,,,,,,,,,,,,,,,,,,,,,,,,,,,,,,,,,,,,,,,,,1.3,338.031471,None,space,1,339.4318550999999,None,339.4318550999999,None,339.4318550999999,None,340.32257060000006,None,0.27764499999966574,,,,,,,,,,,,,,,,,,,,,,,,,,,,,,,,,,,,,,,,,,,,,,,,,P035,FENCOG,1,Pre,2022_Apr_11_1109,Go No-Go Task,2021.1.4,120.13714856866733,
EPracticeConditions/BlueScram.csv,"Rule: When you see a blue image, do not press 'spacebar'.",,,,,,,,,,,,0,2,2,2,,,,,,,,,,,,,,,,,,,,,,,,,,,,,,,,,,,,,,,,,,,,,,,,,,,,,,,,,,,,,,,,,,,,,,,,,,,,,,,,,,,,,,,,,,,,,,,,,,,,,,,,,,,,,,,,,,,,,P035,FENCOG,1,Pre,2022_Apr_11_1109,Go No-Go Task,2021.1.4,120.13714856866733,
EPracticeConditions/YellowScram.csv,"Rule: When you see a yellow image, do not press 'spacebar'.",Images/Scram1/AF07NES.jpg,Scramble,Blue,Images/Blue.jpg,space,,,,,,,0,3,3,3,0,0,0,3,,,,,,,,,,,,,,,,,,,,,,,,,,,,,,,,,,,,,342.33064279999985,None,345.32118270000024,None,space,1.4043102000000545,345.32118270000024,None,342.33064279999985,None,342.33064279999985,None,342.33064279999985,None,1.2,346.7424902,None,space,1,348.05432369999994,None,348.05432369999994,None,348.05432369999994,None,348.94485770000006,None,0.3192051999999421,,,,,,,,,,,,,,,,,,,,,,,,,,,,,,,,,,,,,,,,,,,,,,,,,P035,FENCOG,1,Pre,2022_Apr_11_1109,Go No-Go Task,2021.1.4,120.13714856866733,
EPracticeConditions/YellowScram.csv,"Rule: When you see a yellow image, do not press 'spacebar'.",Images/Scram1/AF24NES.jpg,Scramble,Blue,Images/Blue.jpg,space,,,,,,,0,3,3,3,0,1,1,7,,,,,,,,,,,,,,,,,,,,,,,,,,,,,,,,,,,,,,,,,,,,,,,,,,,1.3,350.94427359999986,None,space,1,352.34473649999995,None,352.34473649999995,None,352.34473649999995,None,353.2353270000001,None,0.22865069999988918,,,,,,,,,,,,,,,,,,,,,,,,,,,,,,,,,,,,,,,,,,,,,,,,,P035,FENCOG,1,Pre,2022_Apr_11_1109,Go No-Go Task,2021.1.4,120.13714856866733,
EPracticeConditions/YellowScram.csv,"Rule: When you see a yellow image, do not press 'spacebar'.",Images/Scram1/BM01_NC.jpg,Scramble,Blue,Images/Blue.jpg,space,,,,,,,0,3,3,3,0,2,2,5,,,,,,,,,,,,,,,,,,,,,,,,,,,,,,,,,,,,,,,,,,,,,,,,,,,1.6,355.23476719999985,None,space,1,356.9433359000002,None,356.9433359000002,None,356.9433359000002,None,357.83388820000005,None,0.2141802999999527,,,,,,,,,,,,,,,,,,,,,,,,,,,,,,,,,,,,,,,,,,,,,,,,,P035,FENCOG,1,Pre,2022_Apr_11_1109,Go No-Go Task,2021.1.4,120.13714856866733,
EPracticeConditions/YellowScram.csv,"Rule: When you see a yellow image, do not press 'spacebar'.",Images/Scram1/HF04_NC.jpg,Scramble,Blue,Images/Blue.jpg,space,,,,,,,0,3,3,3,0,3,3,2,,,,,,,,,,,,,,,,,,,,,,,,,,,,,,,,,,,,,,,,,,,,,,,,,,,1.9,359.8333500000001,None,space,1,361.83355559999995,None,361.83355559999995,None,361.83355559999995,None,362.7240964,None,0.2678462000003492,,,,,,,,,,,,,,,,,,,,,,,,,,,,,,,,,,,,,,,,,,,,,,,,,P035,FENCOG,1,Pre,2022_Apr_11_1109,Go No-Go Task,2021.1.4,120.13714856866733,
EPracticeConditions/YellowScram.csv,"Rule: When you see a yellow image, do not press 'spacebar'.",Images/Scram1/AF10_NC.jpg,Scramble,Blue,Images/Blue.jpg,space,,,,,,,0,3,3,3,0,4,4,6,,,,,,,,,,,,,,,,,,,,,,,,,,,,,,,,,,,,,,,,,,,,,,,,,,,1.8,364.72427489999995,None,space,1,366.63261560000024,None,366.63261560000024,None,366.63261560000024,None,367.5230463999999,None,0.28507919999992737,,,,,,,,,,,,,,,,,,,,,,,,,,,,,,,,,,,,,,,,,,,,,,,,,P035,FENCOG,1,Pre,2022_Apr_11_1109,Go No-Go Task,2021.1.4,120.13714856866733,
EPracticeConditions/YellowScram.csv,"Rule: When you see a yellow image, do not press 'spacebar'.",Images/Scram1/AF30NES.JPG,Scramble,Blue,Images/Blue.jpg,space,,,,,,,0,3,3,3,0,5,5,4,,,,,,,,,,,,,,,,,,,,,,,,,,,,,,,,,,,,,,,,,,,,,,,,,,,1.7,369.5223429,None,None,0,371.33111859999985,None,371.33111859999985,None,371.33111859999985,None,372.23285340000007,None,,,,,,,,,,,,,,,,,,,,,,,,,,,,,,,,,,,,,,,,,,,,,,,,,,P035,FENCOG,1,Pre,2022_Apr_11_1109,Go No-Go Task,2021.1.4,120.13714856866733,
EPracticeConditions/YellowScram.csv,"Rule: When you see a yellow image, do not press 'spacebar'.",Images/Scram2/AM03NES.jpg,Scramble,Yellow,Images/Yellow.jpg,None,,,,,,,0,3,3,3,0,6,6,1,,,,,,,,,,,,,,,,,,,,,,,,,,,,,,,,,,,,,,,,,,,,,,,,,,,1.4,374.2294479999998,None,space,0,375.74646989999997,None,375.74646989999997,None,375.74646989999997,None,376.64352220000023,None,0.2512573999997585,,,,,,,,,,,,,,,,,,,,,,,,,,,,,,,,,,,,,,,,,,,,,,,,,P035,FENCOG,1,Pre,2022_Apr_11_1109,Go No-Go Task,2021.1.4,120.13714856866733,
EPracticeConditions/YellowScram.csv,"Rule: When you see a yellow image, do not press 'spacebar'.",Images/Scram2/HM06_NC.jpg,Scramble,Yellow,Images/Yellow.jpg,None,,,,,,,0,3,3,3,0,7,7,0,,,,,,,,,,,,,,,,,,,,,,,,,,,,,,,,,,,,,,,,,,,,,,,,,,,1.5,378.6363641999999,None,None,1,380.24525659999995,None,380.24525659999995,None,380.24525659999995,None,381.1330727000002,None,,,,,,,,,,,,,,,,,,,,,,,,,,,,,,,,,,,,,,,,,,,,,,,,,,P035,FENCOG,1,Pre,2022_Apr_11_1109,Go No-Go Task,2021.1.4,120.13714856866733,
EPracticeConditions/YellowScram.csv,"Rule: When you see a yellow image, do not press 'spacebar'.",,,,,,,,,,,,0,3,3,3,,,,,,,,,,,,,,,,,,,,,,,,,,,,,,,,,,,,,,,,,,,,,,,,,,,,,,,,,,,,,,,,,,,,,,,,,,,,,,,,,,,,,,,,,,,,,,,,,,,,,,,,,,,,,,,,,,,,,P035,FENCOG,1,Pre,2022_Apr_11_1109,Go No-Go Task,2021.1.4,120.13714856866733,
,,,,,,,,,,,,,,,,,,,,,,,,,,,,,,,,,,,,,,,,,,,,,,,,,,,,,,,,,,,,,,,,,,,,,,,,,,,,,,,,,,,,,384.52218199999993,None,space,12.675919099999646,385.0098679,None,,,,,,,,,,,,,,,,,,,,,,,,,,,,,,,,,,,,,,,,,,,P035,FENCOG,1,Pre,2022_Apr_11_1109,Go No-Go Task,2021.1.4,120.13714856866733,
,,,,,,,,,,,,,,,,,,,,,,,,,,,,,,,,,,,,,,,,,,,,,,,,,,,,,,,,,,,,,,,,,,,,,,,,,,,,,,,,,,,,,,,,,,,397.69927870000015,None,space,7.8823278999998365,397.69927870000015,None,,,,,,,,,,,,,,,,,,,,,,,,,,,,,,,,,,,,,P035,FENCOG,1,Pre,2022_Apr_11_1109,Go No-Go Task,2021.1.4,120.13714856866733,
,"Rule: When you see a yellow image, do not press 'spacebar'.",Images/Fearful/BM02_FC.jpg,Fear,Blue,Images/Blue.jpg,space,ParentConditions/YellowBlueBlue_v1.xlsx,BlueBlueYellow,Conditions/Version_1/YellowHappyStop.xlsx,no,PASS,0.44148177898618846,,,,,,,,,0,0,0,0,0,0,0,0,0,0,0,0,,,,,,,,,,,,,,,,,,,,,,,,,,,,,,,,,,,,,,,,,,,,,,,,,,,,,,,,,,,,,,,,,405.6755472000002,None,408.6609627999999,None,space,1.9125401999999667,408.6609627999999,None,405.6755472000002,None,405.6755472000002,None,405.6755472000002,None,1.25,410.63342130000024,None,space,1,0.3232481000000007,411.9942902999999,None,411.9942902999999,None,411.9942902999999,None,,,,,,,,,,,P035,FENCOG,1,Pre,2022_Apr_11_1109,Go No-Go Task,2021.1.4,120.13714856866733,
,"Rule: When you see a yellow image, do not press 'spacebar'.",Images/Fearful/HF05_FC.jpg,Fear,Blue,Images/Blue.jpg,space,ParentConditions/YellowBlueBlue_v1.xlsx,BlueBlueYellow,Conditions/Version_1/YellowHappyStop.xlsx,no,PASS,0.49496512693563743,,,,,,,,,0,0,0,0,0,0,0,0,0,1,1,1,,,,,,,,,,,,,,,,,,,,,,,,,,,,,,,,,,,,,,,,,,,,,,,,,,,,,,,,,,,,,,,,,,,,,,,,,,,,,,,1.38,412.393202,None,space,1,0.29686999999967156,413.8769202000001,None,413.8769202000001,None,413.8769202000001,None,,,,,,,,,,,P035,FENCOG,1,Pre,2022_Apr_11_1109,Go No-Go Task,2021.1.4,120.13714856866733,
,"Rule: When you see a yellow image, do not press 'spacebar'.",Images/Happy/AF32HAS.jpg,Happy,Yellow,Images/Yellow.jpg,None,ParentConditions/YellowBlueBlue_v1.xlsx,BlueBlueYellow,Conditions/Version_1/YellowHappyStop.xlsx,yes,PASS,0.3690153910902233,,,,,,,,,0,0,0,0,0,0,0,0,0,2,2,2,,,,,,,,,,,,,,,,,,,,,,,,,,,,,,,,,,,,,,,,,,,,,,,,,,,,,,,,,,,,,,,,,,,,,,,,,,,,,,,1.67,414.2777573000001,None,None,1,,416.0595581,None,416.0595581,None,416.0595581,None,,,,,,,,,,,P035,FENCOG,1,Pre,2022_Apr_11_1109,Go No-Go Task,2021.1.4,120.13714856866733,
,"Rule: When you see a yellow image, do not press 'spacebar'.",Images/Happy/AM32HAS.jpg,Happy,Yellow,Images/Yellow.jpg,None,ParentConditions/YellowBlueBlue_v1.xlsx,BlueBlueYellow,Conditions/Version_1/YellowHappyStop.xlsx,yes,PASS,0.09240134349582851,,,,,,,,,0,0,0,0,0,0,0,0,0,3,3,3,,,,,,,,,,,,,,,,,,,,,,,,,,,,,,,,,,,,,,,,,,,,,,,,,,,,,,,,,,,,,,,,,,,,,,,,,,,,,,,1.98,416.45845799999984,None,None,1,,418.5421778000002,None,418.5421778000002,None,418.5421778000002,None,,,,,,,,,,,P035,FENCOG,1,Pre,2022_Apr_11_1109,Go No-Go Task,2021.1.4,120.13714856866733,
,"Rule: When you see a yellow image, do not press 'spacebar'.",Images/Fearful/AF07FS.jpg,Fear,Blue,Images/Blue.jpg,space,ParentConditions/YellowBlueBlue_v1.xlsx,BlueBlueYellow,Conditions/Version_1/YellowHappyStop.xlsx,no,PASS,0.4013300010309635,,,,,,,,,0,0,0,0,0,0,0,0,0,4,4,4,,,,,,,,,,,,,,,,,,,,,,,,,,,,,,,,,,,,,,,,,,,,,,,,,,,,,,,,,,,,,,,,,,,,,,,,,,,,,,,1.99,418.9413533999998,None,space,1,0.2441849000001639,421.04145129999984,None,421.04145129999984,None,421.04145129999984,None,,,,,,,,,,,P035,FENCOG,1,Pre,2022_Apr_11_1109,Go No-Go Task,2021.1.4,120.13714856866733,
,"Rule: When you see a yellow image, do not press 'spacebar'.",Images/Fearful/AM30AFS.jpg,Fear,Blue,Images/Blue.jpg,space,ParentConditions/YellowBlueBlue_v1.xlsx,BlueBlueYellow,Conditions/Version_1/YellowHappyStop.xlsx,no,PASS,0.5026512951867452,,,,,,,,,0,0,0,0,0,0,0,0,0,5,5,5,,,,,,,,,,,,,,,,,,,,,,,,,,,,,,,,,,,,,,,,,,,,,,,,,,,,,,,,,,,,,,,,,,,,,,,,,,,,,,,1.58,421.4424977000001,None,space,1,0.32113699999990786,423.1324996999999,None,423.1324996999999,None,423.1324996999999,None,,,,,,,,,,,P035,FENCOG,1,Pre,2022_Apr_11_1109,Go No-Go Task,2021.1.4,120.13714856866733,
,"Rule: When you see a yellow image, do not press 'spacebar'.",Images/Happy/BM03_HO.jpg,Happy,Yellow,Images/Yellow.jpg,None,ParentConditions/YellowBlueBlue_v1.xlsx,BlueBlueYellow,Conditions/Version_1/YellowHappyStop.xlsx,yes,PASS,0.3904556138764915,,,,,,,,,0,0,0,0,0,0,0,0,0,6,6,6,,,,,,,,,,,,,,,,,,,,,,,,,,,,,,,,,,,,,,,,,,,,,,,,,,,,,,,,,,,,,,,,,,,,,,,,,,,,,,,1.86,423.5289303000002,None,None,1,,425.5068828000001,None,425.5068828000001,None,425.5068828000001,None,,,,,,,,,,,P035,FENCOG,1,Pre,2022_Apr_11_1109,Go No-Go Task,2021.1.4,120.13714856866733,
,"Rule: When you see a yellow image, do not press 'spacebar'.",Images/Fearful/HM06_FC.jpg,Fear,Blue,Images/Blue.jpg,space,ParentConditions/YellowBlueBlue_v1.xlsx,BlueBlueYellow,Conditions/Version_1/YellowHappyStop.xlsx,no,PASS,0.8295870874618959,,,,,,,,,0,0,0,0,0,0,0,0,0,7,7,7,,,,,,,,,,,,,,,,,,,,,,,,,,,,,,,,,,,,,,,,,,,,,,,,,,,,,,,,,,,,,,,,,,,,,,,,,,,,,,,1.9,425.89738999999986,None,space,1,0.30742179999970176,427.90607969999996,None,427.90607969999996,None,427.90607969999996,None,,,,,,,,,,,P035,FENCOG,1,Pre,2022_Apr_11_1109,Go No-Go Task,2021.1.4,120.13714856866733,
,"Rule: When you see a yellow image, do not press 'spacebar'.",Images/Fearful/AF19AFS.jpg,Fear,Blue,Images/Blue.jpg,space,ParentConditions/YellowBlueBlue_v1.xlsx,BlueBlueYellow,Conditions/Version_1/YellowHappyStop.xlsx,no,PASS,0.31457189280880904,,,,,,,,,0,0,0,0,0,0,0,0,0,8,8,8,,,,,,,,,,,,,,,,,,,,,,,,,,,,,,,,,,,,,,,,,,,,,,,,,,,,,,,,,,,,,,,,,,,,,,,,,,,,,,,1.34,428.30501019999997,None,space,1,0.32210829999985435,429.75560800000017,None,429.75560800000017,None,429.75560800000017,None,,,,,,,,,,,P035,FENCOG,1,Pre,2022_Apr_11_1109,Go No-Go Task,2021.1.4,120.13714856866733,
,"Rule: When you see a yellow image, do not press 'spacebar'.",Images/Happy/AF30HAS.jpg,Happy,Yellow,Images/Yellow.jpg,None,ParentConditions/YellowBlueBlue_v1.xlsx,BlueBlueYellow,Conditions/Version_1/YellowHappyStop.xlsx,yes,PASS,0.14544836048525234,,,,,,,,,0,0,0,0,0,0,0,0,0,9,9,9,,,,,,,,,,,,,,,,,,,,,,,,,,,,,,,,,,,,,,,,,,,,,,,,,,,,,,,,,,,,,,,,,,,,,,,,,,,,,,,1.94,430.15264319999983,None,None,1,,432.2049279999999,None,432.2049279999999,None,432.2049279999999,None,,,,,,,,,,,P035,FENCOG,1,Pre,2022_Apr_11_1109,Go No-Go Task,2021.1.4,120.13714856866733,
,"Rule: When you see a yellow image, do not press 'spacebar'.",Images/Fearful/AF25AFS.jpg,Fear,Blue,Images/Blue.jpg,space,ParentConditions/YellowBlueBlue_v1.xlsx,BlueBlueYellow,Conditions/Version_1/YellowHappyStop.xlsx,no,PASS,0.31319631990865415,,,,,,,,,0,0,0,0,0,0,0,0,0,10,10,10,,,,,,,,,,,,,,,,,,,,,,,,,,,,,,,,,,,,,,,,,,,,,,,,,,,,,,,,,,,,,,,,,,,,,,,,,,,,,,,1.97,432.6037864000002,None,space,1,0.2939296000004106,434.6875314000001,None,434.6875314000001,None,434.6875314000001,None,,,,,,,,,,,P035,FENCOG,1,Pre,2022_Apr_11_1109,Go No-Go Task,2021.1.4,120.13714856866733,
,"Rule: When you see a yellow image, do not press 'spacebar'.",Images/Fearful/AF30AFS.jpg,Fear,Blue,Images/Blue.jpg,space,ParentConditions/YellowBlueBlue_v1.xlsx,BlueBlueYellow,Conditions/Version_1/YellowHappyStop.xlsx,no,PASS,0.9854799433848976,,,,,,,,,0,0,0,0,0,0,0,0,0,11,11,11,,,,,,,,,,,,,,,,,,,,,,,,,,,,,,,,,,,,,,,,,,,,,,,,,,,,,,,,,,,,,,,,,,,,,,,,,,,,,,,1.24,435.0862675999999,None,space,1,0.2968445999999858,436.43694549999987,None,436.43694549999987,None,436.43694549999987,None,,,,,,,,,,,P035,FENCOG,1,Pre,2022_Apr_11_1109,Go No-Go Task,2021.1.4,120.13714856866733,
,"Rule: When you see a yellow image, do not press 'spacebar'.",Images/Happy/BF10_HO.jpg,Happy,Yellow,Images/Yellow.jpg,None,ParentConditions/YellowBlueBlue_v1.xlsx,BlueBlueYellow,Conditions/Version_1/YellowHappyStop.xlsx,yes,PASS,0.9368187318754497,,,,,,,,,0,0,0,0,0,0,0,0,0,12,12,12,,,,,,,,,,,,,,,,,,,,,,,,,,,,,,,,,,,,,,,,,,,,,,,,,,,,,,,,,,,,,,,,,,,,,,,,,,,,,,,1.93,436.83681709999996,None,None,1,,438.87784540000007,None,438.87784540000007,None,438.87784540000007,None,,,,,,,,,,,P035,FENCOG,1,Pre,2022_Apr_11_1109,Go No-Go Task,2021.1.4,120.13714856866733,
,"Rule: When you see a yellow image, do not press 'spacebar'.",Images/Fearful/AM06_FO.jpg,Fear,Blue,Images/Blue.jpg,space,ParentConditions/YellowBlueBlue_v1.xlsx,BlueBlueYellow,Conditions/Version_1/YellowHappyStop.xlsx,no,PASS,0.6030700196123316,,,,,,,,,0,0,0,0,0,0,0,0,0,13,13,13,,,,,,,,,,,,,,,,,,,,,,,,,,,,,,,,,,,,,,,,,,,,,,,,,,,,,,,,,,,,,,,,,,,,,,,,,,,,,,,1.56,439.2770647,None,space,1,0.26146810000000187,440.9522221999998,None,440.9522221999998,None,440.9522221999998,None,,,,,,,,,,,P035,FENCOG,1,Pre,2022_Apr_11_1109,Go No-Go Task,2021.1.4,120.13714856866733,
,"Rule: When you see a yellow image, do not press 'spacebar'.",Images/Happy/AM24HAS.jpg,Happy,Yellow,Images/Yellow.jpg,None,ParentConditions/YellowBlueBlue_v1.xlsx,BlueBlueYellow,Conditions/Version_1/YellowHappyStop.xlsx,yes,PASS,0.8401488188278822,,,,,,,,,0,0,0,0,0,0,0,0,0,14,14,14,,,,,,,,,,,,,,,,,,,,,,,,,,,,,,,,,,,,,,,,,,,,,,,,,,,,,,,,,,,,,,,,,,,,,,,,,,,,,,,1.37,441.35163420000003,None,None,1,,442.8353061999999,None,442.8353061999999,None,442.8353061999999,None,,,,,,,,,,,P035,FENCOG,1,Pre,2022_Apr_11_1109,Go No-Go Task,2021.1.4,120.13714856866733,
,"Rule: When you see a yellow image, do not press 'spacebar'.",Images/Fearful/AF21AFS.jpg,Fear,Blue,Images/Blue.jpg,space,ParentConditions/YellowBlueBlue_v1.xlsx,BlueBlueYellow,Conditions/Version_1/YellowHappyStop.xlsx,no,PASS,0.9561052396726243,,,,,,,,,0,0,0,0,0,0,0,0,0,15,15,15,,,,,,,,,,,,,,,,,,,,,,,,,,,,,,,,,,,,,,,,,,,,,,,,,,,,,,,,,,,,,,,,,,,,,,,,,,,,,,,1.5,443.22940829999993,None,space,1,0.2188786000001528,444.8427340999999,None,444.8427340999999,None,444.8427340999999,None,,,,,,,,,,,P035,FENCOG,1,Pre,2022_Apr_11_1109,Go No-Go Task,2021.1.4,120.13714856866733,
,"Rule: When you see a yellow image, do not press 'spacebar'.",Images/Happy/AM06_HC.jpg,Happy,Yellow,Images/Yellow.jpg,None,ParentConditions/YellowBlueBlue_v1.xlsx,BlueBlueYellow,Conditions/Version_1/YellowHappyStop.xlsx,yes,PASS,0.36325944609889094,,,,,,,,,0,0,0,0,0,0,0,0,0,16,16,16,,,,,,,,,,,,,,,,,,,,,,,,,,,,,,,,,,,,,,,,,,,,,,,,,,,,,,,,,,,,,,,,,,,,,,,,,,,,,,,1.63,445.2418414000001,None,None,1,,446.98377099999993,None,446.98377099999993,None,446.98377099999993,None,,,,,,,,,,,P035,FENCOG,1,Pre,2022_Apr_11_1109,Go No-Go Task,2021.1.4,120.13714856866733,
,"Rule: When you see a yellow image, do not press 'spacebar'.",Images/Fearful/AF10_FC.jpg,Fear,Blue,Images/Blue.jpg,space,ParentConditions/YellowBlueBlue_v1.xlsx,BlueBlueYellow,Conditions/Version_1/YellowHappyStop.xlsx,no,PASS,0.09357566512353055,,,,,,,,,0,0,0,0,0,0,0,0,0,17,17,17,,,,,,,,,,,,,,,,,,,,,,,,,,,,,,,,,,,,,,,,,,,,,,,,,,,,,,,,,,,,,,,,,,,,,,,,,,,,,,,1.36,447.38394600000015,None,space,1,0.20353660000000673,448.8499715999999,None,448.8499715999999,None,448.8499715999999,None,,,,,,,,,,,P035,FENCOG,1,Pre,2022_Apr_11_1109,Go No-Go Task,2021.1.4,120.13714856866733,
,"Rule: When you see a yellow image, do not press 'spacebar'.",Images/Fearful/BM03_FC.jpg,Fear,Blue,Images/Blue.jpg,space,ParentConditions/YellowBlueBlue_v1.xlsx,BlueBlueYellow,Conditions/Version_1/YellowHappyStop.xlsx,no,PASS,0.789884489320339,,,,,,,,,0,0,0,0,0,0,0,0,0,18,18,18,,,,,,,,,,,,,,,,,,,,,,,,,,,,,,,,,,,,,,,,,,,,,,,,,,,,,,,,,,,,,,,,,,,,,,,,,,,,,,,1.61,449.25169900000014,None,space,1,0.2791858999999022,450.97428220000006,None,450.97428220000006,None,450.97428220000006,None,,,,,,,,,,,P035,FENCOG,1,Pre,2022_Apr_11_1109,Go No-Go Task,2021.1.4,120.13714856866733,
,"Rule: When you see a yellow image, do not press 'spacebar'.",Images/Fearful/HM09_FC.jpg,Fear,Blue,Images/Blue.jpg,space,ParentConditions/YellowBlueBlue_v1.xlsx,BlueBlueYellow,Conditions/Version_1/YellowHappyStop.xlsx,no,PASS,0.8198583361260475,,,,,,,,,0,0,0,0,0,0,0,0,0,19,19,19,,,,,,,,,,,,,,,,,,,,,,,,,,,,,,,,,,,,,,,,,,,,,,,,,,,,,,,,,,,,,,,,,,,,,,,,,,,,,,,1.46,451.3733745000002,None,space,1,0.2894264999999905,452.94026340000005,None,452.94026340000005,None,452.94026340000005,None,,,,,,,,,,,P035,FENCOG,1,Pre,2022_Apr_11_1109,Go No-Go Task,2021.1.4,120.13714856866733,
,"Rule: When you see a yellow image, do not press 'spacebar'.",Images/Fearful/AM04_FO.jpg,Fear,Blue,Images/Blue.jpg,space,ParentConditions/YellowBlueBlue_v1.xlsx,BlueBlueYellow,Conditions/Version_1/YellowHappyStop.xlsx,no,PASS,0.9595350245966109,,,,,,,,,0,0,0,0,0,0,0,0,0,20,20,20,,,,,,,,,,,,,,,,,,,,,,,,,,,,,,,,,,,,,,,,,,,,,,,,,,,,,,,,,,,,,,,,,,,,,,,,,,,,,,,1.29,453.34433190000004,None,None,0,,454.7481902000002,None,454.7481902000002,None,454.7481902000002,None,,,,,,,,,,,P035,FENCOG,1,Pre,2022_Apr_11_1109,Go No-Go Task,2021.1.4,120.13714856866733,
,"Rule: When you see a yellow image, do not press 'spacebar'.",Images/Fearful/AF11AFS.jpg,Fear,Blue,Images/Blue.jpg,space,ParentConditions/YellowBlueBlue_v1.xlsx,BlueBlueYellow,Conditions/Version_1/YellowHappyStop.xlsx,no,PASS,0.7276184017912607,,,,,,,,,0,0,0,0,0,0,0,0,0,21,21,21,,,,,,,,,,,,,,,,,,,,,,,,,,,,,,,,,,,,,,,,,,,,,,,,,,,,,,,,,,,,,,,,,,,,,,,,,,,,,,,1.65,455.1511885000002,None,space,1,0.30018870000003517,456.9058461000002,None,456.9058461000002,None,456.9058461000002,None,,,,,,,,,,,P035,FENCOG,1,Pre,2022_Apr_11_1109,Go No-Go Task,2021.1.4,120.13714856866733,
,"Rule: When you see a yellow image, do not press 'spacebar'.",Images/Fearful/AM10_FO.jpg,Fear,Blue,Images/Blue.jpg,space,ParentConditions/YellowBlueBlue_v1.xlsx,BlueBlueYellow,Conditions/Version_1/YellowHappyStop.xlsx,no,PASS,0.7995855816230459,,,,,,,,,0,0,0,0,0,0,0,0,0,22,22,22,,,,,,,,,,,,,,,,,,,,,,,,,,,,,,,,,,,,,,,,,,,,,,,,,,,,,,,,,,,,,,,,,,,,,,,,,,,,,,,1.87,457.3064121,None,space,1,0.29287209999984043,459.2967956,None,459.2967956,None,459.2967956,None,,,,,,,,,,,P035,FENCOG,1,Pre,2022_Apr_11_1109,Go No-Go Task,2021.1.4,120.13714856866733,
,"Rule: When you see a yellow image, do not press 'spacebar'.",Images/Fearful/WF04_FC.jpg,Fear,Blue,Images/Blue.jpg,space,ParentConditions/YellowBlueBlue_v1.xlsx,BlueBlueYellow,Conditions/Version_1/YellowHappyStop.xlsx,no,PASS,0.007163238332436372,,,,,,,,,0,0,0,0,0,0,0,0,0,23,23,23,,,,,,,,,,,,,,,,,,,,,,,,,,,,,,,,,,,,,,,,,,,,,,,,,,,,,,,,,,,,,,,,,,,,,,,,,,,,,,,1.81,459.6920091999998,None,space,1,0.2973612000000685,461.6126418000001,None,461.6126418000001,None,461.6126418000001,None,,,,,,,,,,,P035,FENCOG,1,Pre,2022_Apr_11_1109,Go No-Go Task,2021.1.4,120.13714856866733,
,"Rule: When you see a yellow image, do not press 'spacebar'.",Images/Fearful/AF28AFS.jpg,Fear,Blue,Images/Blue.jpg,space,ParentConditions/YellowBlueBlue_v1.xlsx,BlueBlueYellow,Conditions/Version_1/YellowHappyStop.xlsx,no,PASS,0.6578574406316495,,,,,,,,,0,0,0,0,0,0,0,0,0,24,24,24,,,,,,,,,,,,,,,,,,,,,,,,,,,,,,,,,,,,,,,,,,,,,,,,,,,,,,,,,,,,,,,,,,,,,,,,,,,,,,,1.27,462.01324499999987,None,space,1,0.29027469999982713,463.3872487000001,None,463.3872487000001,None,463.3872487000001,None,,,,,,,,,,,P035,FENCOG,1,Pre,2022_Apr_11_1109,Go No-Go Task,2021.1.4,120.13714856866733,
,"Rule: When you see a yellow image, do not press 'spacebar'.",Images/Fearful/WF11_FC.jpg,Fear,Blue,Images/Blue.jpg,space,ParentConditions/YellowBlueBlue_v1.xlsx,BlueBlueYellow,Conditions/Version_1/YellowHappyStop.xlsx,no,PASS,0.16001068916200367,,,,,,,,,0,0,0,0,0,0,0,0,0,25,25,25,,,,,,,,,,,,,,,,,,,,,,,,,,,,,,,,,,,,,,,,,,,,,,,,,,,,,,,,,,,,,,,,,,,,,,,,,,,,,,,1.47,463.78745749999985,None,space,1,0.22797270000000935,465.36169780000023,None,465.36169780000023,None,465.36169780000023,None,,,,,,,,,,,P035,FENCOG,1,Pre,2022_Apr_11_1109,Go No-Go Task,2021.1.4,120.13714856866733,
,"Rule: When you see a yellow image, do not press 'spacebar'.",Images/Fearful/AM17AFS.jpg,Fear,Blue,Images/Blue.jpg,space,ParentConditions/YellowBlueBlue_v1.xlsx,BlueBlueYellow,Conditions/Version_1/YellowHappyStop.xlsx,no,PASS,0.11773651559349041,,,,,,,,,0,0,0,0,0,0,0,0,0,26,26,26,,,,,,,,,,,,,,,,,,,,,,,,,,,,,,,,,,,,,,,,,,,,,,,,,,,,,,,,,,,,,,,,,,,,,,,,,,,,,,,1.83,465.76364990000025,None,space,1,0.3352585000002364,467.69434049999995,None,467.69434049999995,None,467.69434049999995,None,,,,,,,,,,,P035,FENCOG,1,Pre,2022_Apr_11_1109,Go No-Go Task,2021.1.4,120.13714856866733,
,"Rule: When you see a yellow image, do not press 'spacebar'.",Images/Happy/AF27HAS.jpg,Happy,Yellow,Images/Yellow.jpg,None,ParentConditions/YellowBlueBlue_v1.xlsx,BlueBlueYellow,Conditions/Version_1/YellowHappyStop.xlsx,yes,PASS,0.3141869564869746,,,,,,,,,0,0,0,0,0,0,0,0,0,27,27,27,,,,,,,,,,,,,,,,,,,,,,,,,,,,,,,,,,,,,,,,,,,,,,,,,,,,,,,,,,,,,,,,,,,,,,,,,,,,,,,1.71,468.09711089999996,None,None,1,,469.92698640000003,None,469.92698640000003,None,469.92698640000003,None,,,,,,,,,,,P035,FENCOG,1,Pre,2022_Apr_11_1109,Go No-Go Task,2021.1.4,120.13714856866733,
,"Rule: When you see a yellow image, do not press 'spacebar'.",Images/Fearful/BF10_FO.jpg,Fear,Blue,Images/Blue.jpg,space,ParentConditions/YellowBlueBlue_v1.xlsx,BlueBlueYellow,Conditions/Version_1/YellowHappyStop.xlsx,no,PASS,0.6473836402289548,,,,,,,,,0,0,0,0,0,0,0,0,0,28,28,28,,,,,,,,,,,,,,,,,,,,,,,,,,,,,,,,,,,,,,,,,,,,,,,,,,,,,,,,,,,,,,,,,,,,,,,,,,,,,,,1.89,470.3177997,None,space,1,0.30361060000041107,472.31796529999997,None,472.31796529999997,None,472.31796529999997,None,,,,,,,,,,,P035,FENCOG,1,Pre,2022_Apr_11_1109,Go No-Go Task,2021.1.4,120.13714856866733,
,"Rule: When you see a yellow image, do not press 'spacebar'.",Images/Fearful/HF04_FO.jpg,Fear,Blue,Images/Blue.jpg,space,ParentConditions/YellowBlueBlue_v1.xlsx,BlueBlueYellow,Conditions/Version_1/YellowHappyStop.xlsx,no,PASS,0.6573655365841123,,,,,,,,,0,0,0,0,0,0,0,0,0,29,29,29,,,,,,,,,,,,,,,,,,,,,,,,,,,,,,,,,,,,,,,,,,,,,,,,,,,,,,,,,,,,,,,,,,,,,,,,,,,,,,,1.66,472.71688229999995,None,space,1,0.24125499999991007,474.4923332999999,None,474.4923332999999,None,474.4923332999999,None,,,,,,,,,,,P035,FENCOG,1,Pre,2022_Apr_11_1109,Go No-Go Task,2021.1.4,120.13714856866733,
,"Rule: When you see a yellow image, do not press 'spacebar'.",Images/Happy/AF26HAS.jpg,Happy,Yellow,Images/Yellow.jpg,None,ParentConditions/YellowBlueBlue_v1.xlsx,BlueBlueYellow,Conditions/Version_1/YellowHappyStop.xlsx,yes,PASS,0.9634288273569958,,,,,,,,,0,0,0,0,0,0,0,0,0,30,30,30,,,,,,,,,,,,,,,,,,,,,,,,,,,,,,,,,,,,,,,,,,,,,,,,,,,,,,,,,,,,,,,,,,,,,,,,,,,,,,,1.73,474.8958098999999,None,None,1,,476.7416380000002,None,476.7416380000002,None,476.7416380000002,None,,,,,,,,,,,P035,FENCOG,1,Pre,2022_Apr_11_1109,Go No-Go Task,2021.1.4,120.13714856866733,
,"Rule: When you see a yellow image, do not press 'spacebar'.",Images/Happy/HF09_HE.jpg,Happy,Yellow,Images/Yellow.jpg,None,ParentConditions/YellowBlueBlue_v1.xlsx,BlueBlueYellow,Conditions/Version_1/YellowHappyStop.xlsx,yes,PASS,0.28002812366142005,,,,,,,,,0,0,0,0,0,0,0,0,0,31,31,31,,,,,,,,,,,,,,,,,,,,,,,,,,,,,,,,,,,,,,,,,,,,,,,,,,,,,,,,,,,,,,,,,,,,,,,,,,,,,,,1.45,477.1359335999998,None,None,1,,478.69112329999984,None,478.69112329999984,None,478.69112329999984,None,,,,,,,,,,,P035,FENCOG,1,Pre,2022_Apr_11_1109,Go No-Go Task,2021.1.4,120.13714856866733,
,"Rule: When you see a yellow image, do not press 'spacebar'.",Images/Fearful/AM16AFS.jpg,Fear,Blue,Images/Blue.jpg,space,ParentConditions/YellowBlueBlue_v1.xlsx,BlueBlueYellow,Conditions/Version_1/YellowHappyStop.xlsx,no,PASS,0.5681414931312986,,,,,,,,,0,0,0,0,0,0,0,0,0,32,32,32,,,,,,,,,,,,,,,,,,,,,,,,,,,,,,,,,,,,,,,,,,,,,,,,,,,,,,,,,,,,,,,,,,,,,,,,,,,,,,,1.88,479.09177030000023,None,space,1,0.2921139000000039,481.06535610000014,None,481.06535610000014,None,481.06535610000014,None,,,,,,,,,,,P035,FENCOG,1,Pre,2022_Apr_11_1109,Go No-Go Task,2021.1.4,120.13714856866733,
,"Rule: When you see a yellow image, do not press 'spacebar'.",Images/Fearful/WF05_FO.jpg,Fear,Blue,Images/Blue.jpg,space,ParentConditions/YellowBlueBlue_v1.xlsx,BlueBlueYellow,Conditions/Version_1/YellowHappyStop.xlsx,no,PASS,0.23759173368539344,,,,,,,,,0,0,0,0,0,0,0,0,0,33,33,33,,,,,,,,,,,,,,,,,,,,,,,,,,,,,,,,,,,,,,,,,,,,,,,,,,,,,,,,,,,,,,,,,,,,,,,,,,,,,,,1.21,481.4664156000001,None,space,1,0.336127900000065,482.78149899999994,None,482.78149899999994,None,482.78149899999994,None,,,,,,,,,,,P035,FENCOG,1,Pre,2022_Apr_11_1109,Go No-Go Task,2021.1.4,120.13714856866733,
,"Rule: When you see a yellow image, do not press 'spacebar'.",Images/Fearful/AM03_FC.jpg,Fear,Blue,Images/Blue.jpg,space,ParentConditions/YellowBlueBlue_v1.xlsx,BlueBlueYellow,Conditions/Version_1/YellowHappyStop.xlsx,no,PASS,0.45277772012976447,,,,,,,,,0,0,0,0,0,0,0,0,0,34,34,34,,,,,,,,,,,,,,,,,,,,,,,,,,,,,,,,,,,,,,,,,,,,,,,,,,,,,,,,,,,,,,,,,,,,,,,,,,,,,,,1.51,483.18081689999985,None,space,1,0.2875429000000622,484.8060246000002,None,484.8060246000002,None,484.8060246000002,None,,,,,,,,,,,P035,FENCOG,1,Pre,2022_Apr_11_1109,Go No-Go Task,2021.1.4,120.13714856866733,
,"Rule: When you see a yellow image, do not press 'spacebar'.",Images/Fearful/AM01AFS.jpg,Fear,Blue,Images/Blue.jpg,space,ParentConditions/YellowBlueBlue_v1.xlsx,BlueBlueYellow,Conditions/Version_1/YellowHappyStop.xlsx,no,PASS,0.4826830931616207,,,,,,,,,0,0,0,0,0,0,0,0,0,35,35,35,,,,,,,,,,,,,,,,,,,,,,,,,,,,,,,,,,,,,,,,,,,,,,,,,,,,,,,,,,,,,,,,,,,,,,,,,,,,,,,1.52,485.2050658999999,None,space,1,0.31095520000008037,486.83871239999985,None,486.83871239999985,None,486.83871239999985,None,,,,,,,,,,,P035,FENCOG,1,Pre,2022_Apr_11_1109,Go No-Go Task,2021.1.4,120.13714856866733,
,"Rule: When you see a yellow image, do not press 'spacebar'.",Images/Fearful/HM04_FC.jpg,Fear,Blue,Images/Blue.jpg,space,ParentConditions/YellowBlueBlue_v1.xlsx,BlueBlueYellow,Conditions/Version_1/YellowHappyStop.xlsx,no,PASS,0.46069029171054665,,,,,,,,,0,0,0,0,0,0,0,0,0,36,36,36,,,,,,,,,,,,,,,,,,,,,,,,,,,,,,,,,,,,,,,,,,,,,,,,,,,,,,,,,,,,,,,,,,,,,,,,,,,,,,,1.57,487.2375697,None,space,1,0.25249369999983173,488.91306229999986,None,488.91306229999986,None,488.91306229999986,None,,,,,,,,,,,P035,FENCOG,1,Pre,2022_Apr_11_1109,Go No-Go Task,2021.1.4,120.13714856866733,
,"Rule: When you see a yellow image, do not press 'spacebar'.",Images/Fearful/BF18_FC.jpg,Fear,Blue,Images/Blue.jpg,space,ParentConditions/YellowBlueBlue_v1.xlsx,BlueBlueYellow,Conditions/Version_1/YellowHappyStop.xlsx,no,PASS,0.633030328468129,,,,,,,,,0,0,0,0,0,0,0,0,0,37,37,37,,,,,,,,,,,,,,,,,,,,,,,,,,,,,,,,,,,,,,,,,,,,,,,,,,,,,,,,,,,,,,,,,,,,,,,,,,,,,,,1.75,489.3136244,None,space,1,0.2907204000002821,491.1790533000001,None,491.1790533000001,None,491.1790533000001,None,,,,,,,,,,,P035,FENCOG,1,Pre,2022_Apr_11_1109,Go No-Go Task,2021.1.4,120.13714856866733,
,"Rule: When you see a yellow image, do not press 'spacebar'.",Images/Fearful/AF07_FO.jpg,Fear,Blue,Images/Blue.jpg,space,ParentConditions/YellowBlueBlue_v1.xlsx,BlueBlueYellow,Conditions/Version_1/YellowHappyStop.xlsx,no,PASS,0.34147832357579266,,,,,,,,,0,0,0,0,0,0,0,0,0,38,38,38,,,,,,,,,,,,,,,,,,,,,,,,,,,,,,,,,,,,,,,,,,,,,,,,,,,,,,,,,,,,,,,,,,,,,,,,,,,,,,,1.85,491.5808181,None,space,1,0.23669950000021345,493.54510159999995,None,493.54510159999995,None,493.54510159999995,None,,,,,,,,,,,P035,FENCOG,1,Pre,2022_Apr_11_1109,Go No-Go Task,2021.1.4,120.13714856866733,
,"Rule: When you see a yellow image, do not press 'spacebar'.",Images/Fearful/AM24AFS.jpg,Fear,Blue,Images/Blue.jpg,space,ParentConditions/YellowBlueBlue_v1.xlsx,BlueBlueYellow,Conditions/Version_1/YellowHappyStop.xlsx,no,PASS,0.778148808430259,,,,,,,,,0,0,0,0,0,0,0,0,0,39,39,39,,,,,,,,,,,,,,,,,,,,,,,,,,,,,,,,,,,,,,,,,,,,,,,,,,,,,,,,,,,,,,,,,,,,,,,,,,,,,,,1.28,493.9496286000001,None,space,1,0.2615384000000631,495.32784719999995,None,495.32784719999995,None,495.32784719999995,None,,,,,,,,,,,P035,FENCOG,1,Pre,2022_Apr_11_1109,Go No-Go Task,2021.1.4,120.13714856866733,
,"Rule: When you see a yellow image, do not press 'spacebar'.",Images/Fearful/AM03AFS.jpg,Fear,Blue,Images/Blue.jpg,space,ParentConditions/YellowBlueBlue_v1.xlsx,BlueBlueYellow,Conditions/Version_1/YellowHappyStop.xlsx,no,PASS,0.23044092834848573,,,,,,,,,0,0,0,0,0,0,0,0,0,40,40,40,,,,,,,,,,,,,,,,,,,,,,,,,,,,,,,,,,,,,,,,,,,,,,,,,,,,,,,,,,,,,,,,,,,,,,,,,,,,,,,1.48,495.72846860000004,None,space,1,0.2863686000000598,497.31899240000007,None,497.31899240000007,None,497.31899240000007,None,,,,,,,,,,,P035,FENCOG,1,Pre,2022_Apr_11_1109,Go No-Go Task,2021.1.4,120.13714856866733,
,"Rule: When you see a yellow image, do not press 'spacebar'.",Images/Fearful/BM08_FC.jpg,Fear,Blue,Images/Blue.jpg,space,ParentConditions/YellowBlueBlue_v1.xlsx,BlueBlueYellow,Conditions/Version_1/YellowHappyStop.xlsx,no,PASS,0.6548756521259214,,,,,,,,,0,0,0,0,0,0,0,0,0,41,41,41,,,,,,,,,,,,,,,,,,,,,,,,,,,,,,,,,,,,,,,,,,,,,,,,,,,,,,,,,,,,,,,,,,,,,,,,,,,,,,,1.76,497.7206907000002,None,space,1,0.23618089999990843,499.5933028000002,None,499.5933028000002,None,499.5933028000002,None,,,,,,,,,,,P035,FENCOG,1,Pre,2022_Apr_11_1109,Go No-Go Task,2021.1.4,120.13714856866733,
,"Rule: When you see a yellow image, do not press 'spacebar'.",Images/Fearful/AF32AFS.jpg,Fear,Blue,Images/Blue.jpg,space,ParentConditions/YellowBlueBlue_v1.xlsx,BlueBlueYellow,Conditions/Version_1/YellowHappyStop.xlsx,no,PASS,0.9401650545876452,,,,,,,,,0,0,0,0,0,0,0,0,0,42,42,42,,,,,,,,,,,,,,,,,,,,,,,,,,,,,,,,,,,,,,,,,,,,,,,,,,,,,,,,,,,,,,,,,,,,,,,,,,,,,,,1.53,499.99229579999997,None,space,1,0.25957819999985077,501.6342671,None,501.6342671,None,501.6342671,None,,,,,,,,,,,P035,FENCOG,1,Pre,2022_Apr_11_1109,Go No-Go Task,2021.1.4,120.13714856866733,
,"Rule: When you see a yellow image, do not press 'spacebar'.",Images/Fearful/AF26AFS.jpg,Fear,Blue,Images/Blue.jpg,space,ParentConditions/YellowBlueBlue_v1.xlsx,BlueBlueYellow,Conditions/Version_1/YellowHappyStop.xlsx,no,PASS,0.5799257276734284,,,,,,,,,0,0,0,0,0,0,0,0,0,43,43,43,,,,,,,,,,,,,,,,,,,,,,,,,,,,,,,,,,,,,,,,,,,,,,,,,,,,,,,,,,,,,,,,,,,,,,,,,,,,,,,1.33,502.0385813999999,None,space,1,0.2897044999999707,503.48375340000007,None,503.48375340000007,None,503.48375340000007,None,,,,,,,,,,,P035,FENCOG,1,Pre,2022_Apr_11_1109,Go No-Go Task,2021.1.4,120.13714856866733,
,"Rule: When you see a yellow image, do not press 'spacebar'.",Images/Fearful/BF09_FC.jpg,Fear,Blue,Images/Blue.jpg,space,ParentConditions/YellowBlueBlue_v1.xlsx,BlueBlueYellow,Conditions/Version_1/YellowHappyStop.xlsx,no,PASS,0.9512288628250045,,,,,,,,,0,0,0,0,0,0,0,0,0,44,44,44,,,,,,,,,,,,,,,,,,,,,,,,,,,,,,,,,,,,,,,,,,,,,,,,,,,,,,,,,,,,,,,,,,,,,,,,,,,,,,,1.78,503.8826227000002,None,space,1,0.2629468000000088,505.7748250000002,None,505.7748250000002,None,505.7748250000002,None,,,,,,,,,,,P035,FENCOG,1,Pre,2022_Apr_11_1109,Go No-Go Task,2021.1.4,120.13714856866733,
,"Rule: When you see a yellow image, do not press 'spacebar'.",Images/Fearful/BM01_FO.jpg,Fear,Blue,Images/Blue.jpg,space,ParentConditions/YellowBlueBlue_v1.xlsx,BlueBlueYellow,Conditions/Version_1/YellowHappyStop.xlsx,no,PASS,0.8954287307362916,,,,,,,,,0,0,0,0,0,0,0,0,0,45,45,45,,,,,,,,,,,,,,,,,,,,,,,,,,,,,,,,,,,,,,,,,,,,,,,,,,,,,,,,,,,,,,,,,,,,,,,,,,,,,,,1.42,506.1756364999999,None,space,1,0.25030310000011013,507.7073025000002,None,507.7073025000002,None,507.7073025000002,None,,,,,,,,,,,P035,FENCOG,1,Pre,2022_Apr_11_1109,Go No-Go Task,2021.1.4,120.13714856866733,
,"Rule: When you see a yellow image, do not press 'spacebar'.",Images/Happy/BF14_HO.jpg,Happy,Yellow,Images/Yellow.jpg,None,ParentConditions/YellowBlueBlue_v1.xlsx,BlueBlueYellow,Conditions/Version_1/YellowHappyStop.xlsx,yes,PASS,0.7234280216409134,,,,,,,,,0,0,0,0,0,0,0,0,0,46,46,46,,,,,,,,,,,,,,,,,,,,,,,,,,,,,,,,,,,,,,,,,,,,,,,,,,,,,,,,,,,,,,,,,,,,,,,,,,,,,,,1.44,508.1025711,None,None,1,,509.6569175000002,None,509.6569175000002,None,509.6569175000002,None,,,,,,,,,,,P035,FENCOG,1,Pre,2022_Apr_11_1109,Go No-Go Task,2021.1.4,120.13714856866733,
,"Rule: When you see a yellow image, do not press 'spacebar'.",Images/Fearful/WM11_FC.jpg,Fear,Blue,Images/Blue.jpg,space,ParentConditions/YellowBlueBlue_v1.xlsx,BlueBlueYellow,Conditions/Version_1/YellowHappyStop.xlsx,no,PASS,0.023552814974996727,,,,,,,,,0,0,0,0,0,0,0,0,0,47,47,47,,,,,,,,,,,,,,,,,,,,,,,,,,,,,,,,,,,,,,,,,,,,,,,,,,,,,,,,,,,,,,,,,,,,,,,,,,,,,,,1.84,510.0559128000002,None,space,1,0.27150399999982255,512.0062288000001,None,512.0062288000001,None,512.0062288000001,None,,,,,,,,,,,P035,FENCOG,1,Pre,2022_Apr_11_1109,Go No-Go Task,2021.1.4,120.13714856866733,
,"Rule: When you see a yellow image, do not press 'spacebar'.",Images/Fearful/AM02_FO.jpg,Fear,Blue,Images/Blue.jpg,space,ParentConditions/YellowBlueBlue_v1.xlsx,BlueBlueYellow,Conditions/Version_1/YellowHappyStop.xlsx,no,PASS,0.4906088235260202,,,,,,,,,0,0,0,0,0,0,0,0,0,48,48,48,,,,,,,,,,,,,,,,,,,,,,,,,,,,,,,,,,,,,,,,,,,,,,,,,,,,,,,,,,,,,,,,,,,,,,,,,,,,,,,1.4,512.4023488,None,space,1,0.2758067999998275,513.9057292,None,513.9057292,None,513.9057292,None,,,,,,,,,,,P035,FENCOG,1,Pre,2022_Apr_11_1109,Go No-Go Task,2021.1.4,120.13714856866733,
,"Rule: When you see a yellow image, do not press 'spacebar'.",Images/Happy/HM09_HO.jpg,Happy,Yellow,Images/Yellow.jpg,None,ParentConditions/YellowBlueBlue_v1.xlsx,BlueBlueYellow,Conditions/Version_1/YellowHappyStop.xlsx,yes,PASS,0.5172626673634482,,,,,,,,,0,0,0,0,0,0,0,0,0,49,49,49,,,,,,,,,,,,,,,,,,,,,,,,,,,,,,,,,,,,,,,,,,,,,,,,,,,,,,,,,,,,,,,,,,,,,,,,,,,,,,,1.69,514.3050068999999,None,None,1,,516.1133431999999,None,516.1133431999999,None,516.1133431999999,None,,,,,,,,,,,P035,FENCOG,1,Pre,2022_Apr_11_1109,Go No-Go Task,2021.1.4,120.13714856866733,
,"Rule: When you see a yellow image, do not press 'spacebar'.",Images/Happy/HF10_HE.jpg,Happy,Yellow,Images/Yellow.jpg,None,ParentConditions/YellowBlueBlue_v1.xlsx,BlueBlueYellow,Conditions/Version_1/YellowHappyStop.xlsx,yes,PASS,0.44150167084278924,,,,,,,,,0,0,0,0,0,0,0,0,0,50,50,50,,,,,,,,,,,,,,,,,,,,,,,,,,,,,,,,,,,,,,,,,,,,,,,,,,,,,,,,,,,,,,,,,,,,,,,,,,,,,,,1.8,516.5041044000002,None,None,1,,518.4044038,None,518.4044038,None,518.4044038,None,,,,,,,,,,,P035,FENCOG,1,Pre,2022_Apr_11_1109,Go No-Go Task,2021.1.4,120.13714856866733,
,"Rule: When you see a yellow image, do not press 'spacebar'.",Images/Fearful/AF09AFS.jpg,Fear,Blue,Images/Blue.jpg,space,ParentConditions/YellowBlueBlue_v1.xlsx,BlueBlueYellow,Conditions/Version_1/YellowHappyStop.xlsx,no,PASS,0.20329731425220043,,,,,,,,,0,0,0,0,0,0,0,0,0,51,51,51,,,,,,,,,,,,,,,,,,,,,,,,,,,,,,,,,,,,,,,,,,,,,,,,,,,,,,,,,,,,,,,,,,,,,,,,,,,,,,,1.32,518.8140918000001,None,space,1,0.33632429999988744,520.2372130000001,None,520.2372130000001,None,520.2372130000001,None,,,,,,,,,,,P035,FENCOG,1,Pre,2022_Apr_11_1109,Go No-Go Task,2021.1.4,120.13714856866733,
,"Rule: When you see a yellow image, do not press 'spacebar'.",Images/Fearful/AM23AFS.jpg,Fear,Blue,Images/Blue.jpg,space,ParentConditions/YellowBlueBlue_v1.xlsx,BlueBlueYellow,Conditions/Version_1/YellowHappyStop.xlsx,no,PASS,0.9134790301426777,,,,,,,,,0,0,0,0,0,0,0,0,0,52,52,52,,,,,,,,,,,,,,,,,,,,,,,,,,,,,,,,,,,,,,,,,,,,,,,,,,,,,,,,,,,,,,,,,,,,,,,,,,,,,,,1.82,520.6378014,None,space,1,0.2598621000001913,522.5615022,None,522.5615022,None,522.5615022,None,,,,,,,,,,,P035,FENCOG,1,Pre,2022_Apr_11_1109,Go No-Go Task,2021.1.4,120.13714856866733,
,"Rule: When you see a yellow image, do not press 'spacebar'.",Images/Fearful/AM05AFS.jpg,Fear,Blue,Images/Blue.jpg,space,ParentConditions/YellowBlueBlue_v1.xlsx,BlueBlueYellow,Conditions/Version_1/YellowHappyStop.xlsx,no,PASS,0.7369542946293995,,,,,,,,,0,0,0,0,0,0,0,0,0,53,53,53,,,,,,,,,,,,,,,,,,,,,,,,,,,,,,,,,,,,,,,,,,,,,,,,,,,,,,,,,,,,,,,,,,,,,,,,,,,,,,,2,522.9622111000001,None,space,1,0.2883179000000382,525.0773860000002,None,525.0773860000002,None,525.0773860000002,None,,,,,,,,,,,P035,FENCOG,1,Pre,2022_Apr_11_1109,Go No-Go Task,2021.1.4,120.13714856866733,
,"Rule: When you see a yellow image, do not press 'spacebar'.",Images/Happy/AF28HAS.jpg,Happy,Yellow,Images/Yellow.jpg,None,ParentConditions/YellowBlueBlue_v1.xlsx,BlueBlueYellow,Conditions/Version_1/YellowHappyStop.xlsx,yes,PASS,0.27168303726444554,,,,,,,,,0,0,0,0,0,0,0,0,0,54,54,54,,,,,,,,,,,,,,,,,,,,,,,,,,,,,,,,,,,,,,,,,,,,,,,,,,,,,,,,,,,,,,,,,,,,,,,,,,,,,,,1.31,525.4762908999999,None,None,1,,526.8935217999999,None,526.8935217999999,None,526.8935217999999,None,,,,,,,,,,,P035,FENCOG,1,Pre,2022_Apr_11_1109,Go No-Go Task,2021.1.4,120.13714856866733,
,"Rule: When you see a yellow image, do not press 'spacebar'.",Images/Fearful/BF14_FO.jpg,Fear,Blue,Images/Blue.jpg,space,ParentConditions/YellowBlueBlue_v1.xlsx,BlueBlueYellow,Conditions/Version_1/YellowHappyStop.xlsx,no,PASS,0.6433421649003036,,,,,,,,,0,0,0,0,0,0,0,0,0,55,55,55,,,,,,,,,,,,,,,,,,,,,,,,,,,,,,,,,,,,,,,,,,,,,,,,,,,,,,,,,,,,,,,,,,,,,,,,,,,,,,,1.95,527.2978927000001,None,None,0,,529.3594197999998,None,529.3594197999998,None,529.3594197999998,None,,,,,,,,,,,P035,FENCOG,1,Pre,2022_Apr_11_1109,Go No-Go Task,2021.1.4,120.13714856866733,
,"Rule: When you see a yellow image, do not press 'spacebar'.",Images/Happy/AM30HAS.jpg,Happy,Yellow,Images/Yellow.jpg,None,ParentConditions/YellowBlueBlue_v1.xlsx,BlueBlueYellow,Conditions/Version_1/YellowHappyStop.xlsx,yes,PASS,0.0794505415747715,,,,,,,,,0,0,0,0,0,0,0,0,0,56,56,56,,,,,,,,,,,,,,,,,,,,,,,,,,,,,,,,,,,,,,,,,,,,,,,,,,,,,,,,,,,,,,,,,,,,,,,,,,,,,,,1.39,529.7584749,None,None,1,,531.2590011999998,None,531.2590011999998,None,531.2590011999998,None,,,,,,,,,,,P035,FENCOG,1,Pre,2022_Apr_11_1109,Go No-Go Task,2021.1.4,120.13714856866733,
,"Rule: When you see a yellow image, do not press 'spacebar'.",Images/Fearful/AF27AFS.jpg,Fear,Blue,Images/Blue.jpg,space,ParentConditions/YellowBlueBlue_v1.xlsx,BlueBlueYellow,Conditions/Version_1/YellowHappyStop.xlsx,no,PASS,0.3935834771022866,,,,,,,,,0,0,0,0,0,0,0,0,0,57,57,57,,,,,,,,,,,,,,,,,,,,,,,,,,,,,,,,,,,,,,,,,,,,,,,,,,,,,,,,,,,,,,,,,,,,,,,,,,,,,,,1.23,531.6590251,None,space,1,0.2768796000000293,532.9926031000002,None,532.9926031000002,None,532.9926031000002,None,,,,,,,,,,,P035,FENCOG,1,Pre,2022_Apr_11_1109,Go No-Go Task,2021.1.4,120.13714856866733,
,"Rule: When you see a yellow image, do not press 'spacebar'.",Images/Fearful/AM32AFS.jpg,Fear,Blue,Images/Blue.jpg,space,ParentConditions/YellowBlueBlue_v1.xlsx,BlueBlueYellow,Conditions/Version_1/YellowHappyStop.xlsx,no,PASS,0.5614458224122035,,,,,,,,,0,0,0,0,0,0,0,0,0,58,58,58,,,,,,,,,,,,,,,,,,,,,,,,,,,,,,,,,,,,,,,,,,,,,,,,,,,,,,,,,,,,,,,,,,,,,,,,,,,,,,,1.72,533.3956811,None,space,1,0.2694142999998803,535.2243961000001,None,535.2243961000001,None,535.2243961000001,None,,,,,,,,,,,P035,FENCOG,1,Pre,2022_Apr_11_1109,Go No-Go Task,2021.1.4,120.13714856866733,
,"Rule: When you see a yellow image, do not press 'spacebar'.",Images/Fearful/AM09_FO.jpg,Fear,Blue,Images/Blue.jpg,space,ParentConditions/YellowBlueBlue_v1.xlsx,BlueBlueYellow,Conditions/Version_1/YellowHappyStop.xlsx,no,PASS,0.3933837419145386,,,,,,,,,0,0,0,0,0,0,0,0,0,59,59,59,,,,,,,,,,,,,,,,,,,,,,,,,,,,,,,,,,,,,,,,,,,,,,,,,,,,,,,,,,,,,,,,,,,,,,,,,,,,,,,1.79,535.6232594,None,space,1,0.2897365999997419,537.5237215999998,None,537.5237215999998,None,537.5237215999998,None,,,,,,,,,,,P035,FENCOG,1,Pre,2022_Apr_11_1109,Go No-Go Task,2021.1.4,120.13714856866733,
,"Rule: When you see a yellow image, do not press 'spacebar'.",Images/Fearful/AF01_FO.jpg,Fear,Blue,Images/Blue.jpg,space,ParentConditions/YellowBlueBlue_v1.xlsx,BlueBlueYellow,Conditions/Version_1/YellowHappyStop.xlsx,no,PASS,0.7419870009427991,,,,,,,,,0,0,0,0,0,0,0,0,0,60,60,60,,,,,,,,,,,,,,,,,,,,,,,,,,,,,,,,,,,,,,,,,,,,,,,,,,,,,,,,,,,,,,,,,,,,,,,,,,,,,,,1.6,537.9219919999998,None,space,1,0.24636710000004314,539.6231025999998,None,539.6231025999998,None,539.6231025999998,None,,,,,,,,,,,P035,FENCOG,1,Pre,2022_Apr_11_1109,Go No-Go Task,2021.1.4,120.13714856866733,
,"Rule: When you see a yellow image, do not press 'spacebar'.",Images/Happy/AM10_HO.jpg,Happy,Yellow,Images/Yellow.jpg,None,ParentConditions/YellowBlueBlue_v1.xlsx,BlueBlueYellow,Conditions/Version_1/YellowHappyStop.xlsx,yes,PASS,0.7352402085502512,,,,,,,,,0,0,0,0,0,0,0,0,0,61,61,61,,,,,,,,,,,,,,,,,,,,,,,,,,,,,,,,,,,,,,,,,,,,,,,,,,,,,,,,,,,,,,,,,,,,,,,,,,,,,,,1.55,540.0233301000001,None,None,1,,541.6891216000001,None,541.6891216000001,None,541.6891216000001,None,,,,,,,,,,,P035,FENCOG,1,Pre,2022_Apr_11_1109,Go No-Go Task,2021.1.4,120.13714856866733,
,"Rule: When you see a yellow image, do not press 'spacebar'.",Images/Happy/AM22HAS.jpg,Happy,Yellow,Images/Yellow.jpg,None,ParentConditions/YellowBlueBlue_v1.xlsx,BlueBlueYellow,Conditions/Version_1/YellowHappyStop.xlsx,yes,PASS,0.27838589915801637,,,,,,,,,0,0,0,0,0,0,0,0,0,62,62,62,,,,,,,,,,,,,,,,,,,,,,,,,,,,,,,,,,,,,,,,,,,,,,,,,,,,,,,,,,,,,,,,,,,,,,,,,,,,,,,1.49,542.0880432000001,None,None,1,,543.6885515000001,None,543.6885515000001,None,543.6885515000001,None,,,,,,,,,,,P035,FENCOG,1,Pre,2022_Apr_11_1109,Go No-Go Task,2021.1.4,120.13714856866733,
,"Rule: When you see a yellow image, do not press 'spacebar'.",Images/Fearful/AM22AFS.jpg,Fear,Blue,Images/Blue.jpg,space,ParentConditions/YellowBlueBlue_v1.xlsx,BlueBlueYellow,Conditions/Version_1/YellowHappyStop.xlsx,no,PASS,0.012398818855924532,,,,,,,,,0,0,0,0,0,0,0,0,0,63,63,63,,,,,,,,,,,,,,,,,,,,,,,,,,,,,,,,,,,,,,,,,,,,,,,,,,,,,,,,,,,,,,,,,,,,,,,,,,,,,,,1.26,544.0876605999999,None,space,1,0.311232299999574,545.4543449999999,None,545.4543449999999,None,545.4543449999999,None,,,,,,,,,,,P035,FENCOG,1,Pre,2022_Apr_11_1109,Go No-Go Task,2021.1.4,120.13714856866733,
,"Rule: When you see a yellow image, do not press 'spacebar'.",Images/Happy/BM08_HO.jpg,Happy,Yellow,Images/Yellow.jpg,None,ParentConditions/YellowBlueBlue_v1.xlsx,BlueBlueYellow,Conditions/Version_1/YellowHappyStop.xlsx,yes,PASS,0.25791881247444226,,,,,,,,,0,0,0,0,0,0,0,0,0,64,64,64,,,,,,,,,,,,,,,,,,,,,,,,,,,,,,,,,,,,,,,,,,,,,,,,,,,,,,,,,,,,,,,,,,,,,,,,,,,,,,,1.3,545.8551365000001,None,None,1,,547.2542000999999,None,547.2542000999999,None,547.2542000999999,None,,,,,,,,,,,P035,FENCOG,1,Pre,2022_Apr_11_1109,Go No-Go Task,2021.1.4,120.13714856866733,
,"Rule: When you see a yellow image, do not press 'spacebar'.",Images/Fearful/AM19AFS.jpg,Fear,Blue,Images/Blue.jpg,space,ParentConditions/YellowBlueBlue_v1.xlsx,BlueBlueYellow,Conditions/Version_1/YellowHappyStop.xlsx,no,PASS,0.4570092371665587,,,,,,,,,0,0,0,0,0,0,0,0,0,65,65,65,,,,,,,,,,,,,,,,,,,,,,,,,,,,,,,,,,,,,,,,,,,,,,,,,,,,,,,,,,,,,,,,,,,,,,,,,,,,,,,1.74,547.6567183999998,None,None,0,,549.4953452000002,None,549.4953452000002,None,549.4953452000002,None,,,,,,,,,,,P035,FENCOG,1,Pre,2022_Apr_11_1109,Go No-Go Task,2021.1.4,120.13714856866733,
,"Rule: When you see a yellow image, do not press 'spacebar'.",Images/Fearful/AF23AFS.jpg,Fear,Blue,Images/Blue.jpg,space,ParentConditions/YellowBlueBlue_v1.xlsx,BlueBlueYellow,Conditions/Version_1/YellowHappyStop.xlsx,no,PASS,0.9065930904744121,,,,,,,,,0,0,0,0,0,0,0,0,0,66,66,66,,,,,,,,,,,,,,,,,,,,,,,,,,,,,,,,,,,,,,,,,,,,,,,,,,,,,,,,,,,,,,,,,,,,,,,,,,,,,,,1.7,549.9004000000002,None,space,1,0.2945463999999447,551.7111738000001,None,551.7111738000001,None,551.7111738000001,None,,,,,,,,,,,P035,FENCOG,1,Pre,2022_Apr_11_1109,Go No-Go Task,2021.1.4,120.13714856866733,
,"Rule: When you see a yellow image, do not press 'spacebar'.",Images/Fearful/AM13AFS.jpg,Fear,Blue,Images/Blue.jpg,space,ParentConditions/YellowBlueBlue_v1.xlsx,BlueBlueYellow,Conditions/Version_1/YellowHappyStop.xlsx,no,PASS,0.672217887403839,,,,,,,,,0,0,0,0,0,0,0,0,0,67,67,67,,,,,,,,,,,,,,,,,,,,,,,,,,,,,,,,,,,,,,,,,,,,,,,,,,,,,,,,,,,,,,,,,,,,,,,,,,,,,,,1.92,552.1060989,None,space,1,0.26239480000003823,554.1276524000002,None,554.1276524000002,None,554.1276524000002,None,,,,,,,,,,,P035,FENCOG,1,Pre,2022_Apr_11_1109,Go No-Go Task,2021.1.4,120.13714856866733,
,"Rule: When you see a yellow image, do not press 'spacebar'.",Images/Fearful/HF09_FC.jpg,Fear,Blue,Images/Blue.jpg,space,ParentConditions/YellowBlueBlue_v1.xlsx,BlueBlueYellow,Conditions/Version_1/YellowHappyStop.xlsx,no,PASS,0.947763278232759,,,,,,,,,0,0,0,0,0,0,0,0,0,68,68,68,,,,,,,,,,,,,,,,,,,,,,,,,,,,,,,,,,,,,,,,,,,,,,,,,,,,,,,,,,,,,,,,,,,,,,,,,,,,,,,1.22,554.5264058999999,None,space,1,0.305942700000287,555.8516510000002,None,555.8516510000002,None,555.8516510000002,None,,,,,,,,,,,P035,FENCOG,1,Pre,2022_Apr_11_1109,Go No-Go Task,2021.1.4,120.13714856866733,
,"Rule: When you see a yellow image, do not press 'spacebar'.",Images/Fearful/AM04AFS.jpg,Fear,Blue,Images/Blue.jpg,space,ParentConditions/YellowBlueBlue_v1.xlsx,BlueBlueYellow,Conditions/Version_1/YellowHappyStop.xlsx,no,PASS,0.7155710730323807,,,,,,,,,0,0,0,0,0,0,0,0,0,69,69,69,,,,,,,,,,,,,,,,,,,,,,,,,,,,,,,,,,,,,,,,,,,,,,,,,,,,,,,,,,,,,,,,,,,,,,,,,,,,,,,1.77,556.2517593999999,None,space,1,0.27953409999963696,558.1259545999999,None,558.1259545999999,None,558.1259545999999,None,,,,,,,,,,,P035,FENCOG,1,Pre,2022_Apr_11_1109,Go No-Go Task,2021.1.4,120.13714856866733,
,"Rule: When you see a yellow image, do not press 'spacebar'.",Images/Fearful/AF02AFS.jpg,Fear,Blue,Images/Blue.jpg,space,ParentConditions/YellowBlueBlue_v1.xlsx,BlueBlueYellow,Conditions/Version_1/YellowHappyStop.xlsx,no,PASS,0.9864792225255055,,,,,,,,,0,0,0,0,0,0,0,0,0,70,70,70,,,,,,,,,,,,,,,,,,,,,,,,,,,,,,,,,,,,,,,,,,,,,,,,,,,,,,,,,,,,,,,,,,,,,,,,,,,,,,,1.62,558.5261493999999,None,space,1,0.3066337999998723,560.2587893000002,None,560.2587893000002,None,560.2587893000002,None,,,,,,,,,,,P035,FENCOG,1,Pre,2022_Apr_11_1109,Go No-Go Task,2021.1.4,120.13714856866733,
,"Rule: When you see a yellow image, do not press 'spacebar'.",Images/Fearful/AM09AFS.jpg,Fear,Blue,Images/Blue.jpg,space,ParentConditions/YellowBlueBlue_v1.xlsx,BlueBlueYellow,Conditions/Version_1/YellowHappyStop.xlsx,no,PASS,0.8390326237024166,,,,,,,,,0,0,0,0,0,0,0,0,0,71,71,71,,,,,,,,,,,,,,,,,,,,,,,,,,,,,,,,,,,,,,,,,,,,,,,,,,,,,,,,,,,,,,,,,,,,,,,,,,,,,,,1.35,560.6576281,None,space,1,0.2806900999999016,562.124806,None,562.124806,None,562.124806,None,,,,,,,,,,,P035,FENCOG,1,Pre,2022_Apr_11_1109,Go No-Go Task,2021.1.4,120.13714856866733,
,"Rule: When you see a yellow image, do not press 'spacebar'.",Images/Fearful/BF05_FO.jpg,Fear,Blue,Images/Blue.jpg,space,ParentConditions/YellowBlueBlue_v1.xlsx,BlueBlueYellow,Conditions/Version_1/YellowHappyStop.xlsx,no,PASS,0.691917879610661,,,,,,,,,0,0,0,0,0,0,0,0,0,72,72,72,,,,,,,,,,,,,,,,,,,,,,,,,,,,,,,,,,,,,,,,,,,,,,,,,,,,,,,,,,,,,,,,,,,,,,,,,,,,,,,1.96,562.5154675000001,None,space,1,0.2551044000001639,564.5906889999999,None,564.5906889999999,None,564.5906889999999,None,,,,,,,,,,,P035,FENCOG,1,Pre,2022_Apr_11_1109,Go No-Go Task,2021.1.4,120.13714856866733,
,"Rule: When you see a yellow image, do not press 'spacebar'.",Images/Fearful/AF22AFS.jpg,Fear,Blue,Images/Blue.jpg,space,ParentConditions/YellowBlueBlue_v1.xlsx,BlueBlueYellow,Conditions/Version_1/YellowHappyStop.xlsx,no,PASS,0.03529836358299465,,,,,,,,,0,0,0,0,0,0,0,0,0,73,73,73,,,,,,,,,,,,,,,,,,,,,,,,,,,,,,,,,,,,,,,,,,,,,,,,,,,,,,,,,,,,,,,,,,,,,,,,,,,,,,,1.59,564.9874244999999,None,space,1,0.27547580000009475,566.6900696999999,None,566.6900696999999,None,566.6900696999999,None,,,,,,,,,,,P035,FENCOG,1,Pre,2022_Apr_11_1109,Go No-Go Task,2021.1.4,120.13714856866733,
,"Rule: When you see a yellow image, do not press 'spacebar'.",Images/Happy/BF18_HO.jpg,Happy,Yellow,Images/Yellow.jpg,None,ParentConditions/YellowBlueBlue_v1.xlsx,BlueBlueYellow,Conditions/Version_1/YellowHappyStop.xlsx,yes,PASS,0.4232691792902379,,,,,,,,,0,0,0,0,0,0,0,0,0,74,74,74,,,,,,,,,,,,,,,,,,,,,,,,,,,,,,,,,,,,,,,,,,,,,,,,,,,,,,,,,,,,,,,,,,,,,,,,,,,,,,,1.64,567.0889970999999,None,None,1,,568.8311222999998,None,568.8311222999998,None,568.8311222999998,None,,,,,,,,,,,P035,FENCOG,1,Pre,2022_Apr_11_1109,Go No-Go Task,2021.1.4,120.13714856866733,
,"Rule: When you see a yellow image, do not press 'spacebar'.",Images/Fearful/WM12_FO.jpg,Fear,Blue,Images/Blue.jpg,space,ParentConditions/YellowBlueBlue_v1.xlsx,BlueBlueYellow,Conditions/Version_1/YellowHappyStop.xlsx,no,PASS,0.34671640176200413,,,,,,,,,0,0,0,0,0,0,0,0,0,75,75,75,,,,,,,,,,,,,,,,,,,,,,,,,,,,,,,,,,,,,,,,,,,,,,,,,,,,,,,,,,,,,,,,,,,,,,,,,,,,,,,1.41,569.2325100999999,None,space,1,0.2825354999999945,570.7472476,None,570.7472476,None,570.7472476,None,,,,,,,,,,,P035,FENCOG,1,Pre,2022_Apr_11_1109,Go No-Go Task,2021.1.4,120.13714856866733,
,"Rule: When you see a yellow image, do not press 'spacebar'.",Images/Fearful/BF07_FO.jpg,Fear,Blue,Images/Blue.jpg,space,ParentConditions/YellowBlueBlue_v1.xlsx,BlueBlueYellow,Conditions/Version_1/YellowHappyStop.xlsx,no,PASS,0.2992945798396267,,,,,,,,,0,0,0,0,0,0,0,0,0,76,76,76,,,,,,,,,,,,,,,,,,,,,,,,,,,,,,,,,,,,,,,,,,,,,,,,,,,,,,,,,,,,,,,,,,,,,,,,,,,,,,,1.91,571.1506459999998,None,space,1,0.2976693000000523,573.1798267000001,None,573.1798267000001,None,573.1798267000001,None,,,,,,,,,,,P035,FENCOG,1,Pre,2022_Apr_11_1109,Go No-Go Task,2021.1.4,120.13714856866733,
,"Rule: When you see a yellow image, do not press 'spacebar'.",Images/Fearful/HF10_FO.jpg,Fear,Blue,Images/Blue.jpg,space,ParentConditions/YellowBlueBlue_v1.xlsx,BlueBlueYellow,Conditions/Version_1/YellowHappyStop.xlsx,no,PASS,0.06506977473557796,,,,,,,,,0,0,0,0,0,0,0,0,0,77,77,77,,,,,,,,,,,,,,,,,,,,,,,,,,,,,,,,,,,,,,,,,,,,,,,,,,,,,,,,,,,,,,,,,,,,,,,,,,,,,,,1.54,573.5720171,None,space,1,0.24853880000000572,575.2210613,None,575.2210613,None,575.2210613,None,,,,,,,,,,,P035,FENCOG,1,Pre,2022_Apr_11_1109,Go No-Go Task,2021.1.4,120.13714856866733,
,"Rule: When you see a yellow image, do not press 'spacebar'.",Images/Fearful/AM10AFS.jpg,Fear,Blue,Images/Blue.jpg,space,ParentConditions/YellowBlueBlue_v1.xlsx,BlueBlueYellow,Conditions/Version_1/YellowHappyStop.xlsx,no,PASS,0.4391085826227009,,,,,,,,,0,0,0,0,0,0,0,0,0,78,78,78,,,,,,,,,,,,,,,,,,,,,,,,,,,,,,,,,,,,,,,,,,,,,,,,,,,,,,,,,,,,,,,,,,,,,,,,,,,,,,,1.68,575.6197933000001,None,space,1,0.3456216999998105,577.4119957,None,577.4119957,None,577.4119957,None,,,,,,,,,,,P035,FENCOG,1,Pre,2022_Apr_11_1109,Go No-Go Task,2021.1.4,120.13714856866733,
,"Rule: When you see a yellow image, do not press 'spacebar'.",Images/Happy/AM23HAS.jpg,Happy,Yellow,Images/Yellow.jpg,None,ParentConditions/YellowBlueBlue_v1.xlsx,BlueBlueYellow,Conditions/Version_1/YellowHappyStop.xlsx,yes,PASS,0.8296456455429673,,,,,,,,,0,0,0,0,0,0,0,0,0,79,79,79,,,,,,,,,,,,,,,,,,,,,,,,,,,,,,,,,,,,,,,,,,,,,,,,,,,,,,,,,,,,,,,,,,,,,,,,,,,,,,,1.43,577.8080591999999,None,None,1,,579.3530683000001,None,579.3530683000001,None,579.3530683000001,None,,,,,,,,,,,P035,FENCOG,1,Pre,2022_Apr_11_1109,Go No-Go Task,2021.1.4,120.13714856866733,
,"Rule: When you see blue image, do not press 'spacebar'.",Images/Fearful/HM06_FC.jpg,Fear,Blue,Images/Blue.jpg,None,ParentConditions/YellowBlueBlue_v1.xlsx,BlueBlueYellow,Conditions/Version_1/BlueFearStop.xlsx,yes,PASS,0.7729813006314565,,,,,,,,,0,0,0,0,0,1,1,1,0,0,0,0,,,,,,,,,,,,,,,,,,,,,,,,,,,,,,,,,,,,,,,,,,,,,,,,,,,,,,,,,,,,,,,,,590.7112549000001,None,593.6980332,None,space,2.3234988999997768,593.6980332,None,590.7112549000001,None,590.7112549000001,None,590.7112549000001,None,1.4,596.0816118,None,None,1,,597.5809611000002,None,597.5809611000002,None,597.5809611000002,None,579.7702173999999,None,space,10.43292960000008,580.2605169000001,None,579.7702173999999,None,579.7702173999999,None,P035,FENCOG,1,Pre,2022_Apr_11_1109,Go No-Go Task,2021.1.4,120.13714856866733,
,"Rule: When you see blue image, do not press 'spacebar'.",Images/Happy/AF07HAS.jpg,Happy,Yellow,Images/Yellow.jpg,space,ParentConditions/YellowBlueBlue_v1.xlsx,BlueBlueYellow,Conditions/Version_1/BlueFearStop.xlsx,no,PASS,0.4924453653062516,,,,,,,,,0,0,0,0,0,1,1,1,0,1,1,1,,,,,,,,,,,,,,,,,,,,,,,,,,,,,,,,,,,,,,,,,,,,,,,,,,,,,,,,,,,,,,,,,,,,,,,,,,,,,,,1.48,597.9824643999998,None,space,1,0.2806490000002668,599.5728562000002,None,599.5728562000002,None,599.5728562000002,None,,,,,,,,,,,P035,FENCOG,1,Pre,2022_Apr_11_1109,Go No-Go Task,2021.1.4,120.13714856866733,
,"Rule: When you see blue image, do not press 'spacebar'.",Images/Happy/AF28HAS.jpg,Happy,Yellow,Images/Yellow.jpg,space,ParentConditions/YellowBlueBlue_v1.xlsx,BlueBlueYellow,Conditions/Version_1/BlueFearStop.xlsx,no,PASS,0.8943473655540664,,,,,,,,,0,0,0,0,0,1,1,1,0,2,2,2,,,,,,,,,,,,,,,,,,,,,,,,,,,,,,,,,,,,,,,,,,,,,,,,,,,,,,,,,,,,,,,,,,,,,,,,,,,,,,,1.22,599.9715496000001,None,space,1,0.3008021999999073,601.3048820000001,None,601.3048820000001,None,601.3048820000001,None,,,,,,,,,,,P035,FENCOG,1,Pre,2022_Apr_11_1109,Go No-Go Task,2021.1.4,120.13714856866733,
,"Rule: When you see blue image, do not press 'spacebar'.",Images/Happy/AF22HAS.jpg,Happy,Yellow,Images/Yellow.jpg,space,ParentConditions/YellowBlueBlue_v1.xlsx,BlueBlueYellow,Conditions/Version_1/BlueFearStop.xlsx,no,PASS,0.5892765061873407,,,,,,,,,0,0,0,0,0,1,1,1,0,3,3,3,,,,,,,,,,,,,,,,,,,,,,,,,,,,,,,,,,,,,,,,,,,,,,,,,,,,,,,,,,,,,,,,,,,,,,,,,,,,,,,1.63,601.7040405,None,space,1,0.27943089999962467,603.4459127000002,None,603.4459127000002,None,603.4459127000002,None,,,,,,,,,,,P035,FENCOG,1,Pre,2022_Apr_11_1109,Go No-Go Task,2021.1.4,120.13714856866733,
,"Rule: When you see blue image, do not press 'spacebar'.",Images/Fearful/AF27AFS.jpg,Fear,Blue,Images/Blue.jpg,None,ParentConditions/YellowBlueBlue_v1.xlsx,BlueBlueYellow,Conditions/Version_1/BlueFearStop.xlsx,yes,PASS,0.41428581318896585,,,,,,,,,0,0,0,0,0,1,1,1,0,4,4,4,,,,,,,,,,,,,,,,,,,,,,,,,,,,,,,,,,,,,,,,,,,,,,,,,,,,,,,,,,,,,,,,,,,,,,,,,,,,,,,1.46,603.8443697,None,None,1,,605.4120108999998,None,605.4120108999998,None,605.4120108999998,None,,,,,,,,,,,P035,FENCOG,1,Pre,2022_Apr_11_1109,Go No-Go Task,2021.1.4,120.13714856866733,
,"Rule: When you see blue image, do not press 'spacebar'.",Images/Happy/AM24HAS.jpg,Happy,Yellow,Images/Yellow.jpg,space,ParentConditions/YellowBlueBlue_v1.xlsx,BlueBlueYellow,Conditions/Version_1/BlueFearStop.xlsx,no,PASS,0.8126867400025187,,,,,,,,,0,0,0,0,0,1,1,1,0,5,5,5,,,,,,,,,,,,,,,,,,,,,,,,,,,,,,,,,,,,,,,,,,,,,,,,,,,,,,,,,,,,,,,,,,,,,,,,,,,,,,,1.59,605.8173438000001,None,space,1,0.27035639999985506,607.5113717000002,None,607.5113717000002,None,607.5113717000002,None,,,,,,,,,,,P035,FENCOG,1,Pre,2022_Apr_11_1109,Go No-Go Task,2021.1.4,120.13714856866733,
,"Rule: When you see blue image, do not press 'spacebar'.",Images/Fearful/AF26AFS.jpg,Fear,Blue,Images/Blue.jpg,None,ParentConditions/YellowBlueBlue_v1.xlsx,BlueBlueYellow,Conditions/Version_1/BlueFearStop.xlsx,yes,PASS,0.7771539142714355,,,,,,,,,0,0,0,0,0,1,1,1,0,6,6,6,,,,,,,,,,,,,,,,,,,,,,,,,,,,,,,,,,,,,,,,,,,,,,,,,,,,,,,,,,,,,,,,,,,,,,,,,,,,,,,1.47,607.9108886000001,None,None,1,,609.4942503,None,609.4942503,None,609.4942503,None,,,,,,,,,,,P035,FENCOG,1,Pre,2022_Apr_11_1109,Go No-Go Task,2021.1.4,120.13714856866733,
,"Rule: When you see blue image, do not press 'spacebar'.",Images/Happy/WM11_HC.jpg,Happy,Yellow,Images/Yellow.jpg,space,ParentConditions/YellowBlueBlue_v1.xlsx,BlueBlueYellow,Conditions/Version_1/BlueFearStop.xlsx,no,PASS,0.612727142386838,,,,,,,,,0,0,0,0,0,1,1,1,0,7,7,7,,,,,,,,,,,,,,,,,,,,,,,,,,,,,,,,,,,,,,,,,,,,,,,,,,,,,,,,,,,,,,,,,,,,,,,,,,,,,,,1.86,609.8930745999999,None,space,1,0.28934979999985444,611.8600924,None,611.8600924,None,611.8600924,None,,,,,,,,,,,P035,FENCOG,1,Pre,2022_Apr_11_1109,Go No-Go Task,2021.1.4,120.13714856866733,
,"Rule: When you see blue image, do not press 'spacebar'.",Images/Happy/BM03_HO.jpg,Happy,Yellow,Images/Yellow.jpg,space,ParentConditions/YellowBlueBlue_v1.xlsx,BlueBlueYellow,Conditions/Version_1/BlueFearStop.xlsx,no,PASS,0.7313165030586903,,,,,,,,,0,0,0,0,0,1,1,1,0,8,8,8,,,,,,,,,,,,,,,,,,,,,,,,,,,,,,,,,,,,,,,,,,,,,,,,,,,,,,,,,,,,,,,,,,,,,,,,,,,,,,,1.88,612.2617974000002,None,space,1,0.2826316000000588,614.2427571999999,None,614.2427571999999,None,614.2427571999999,None,,,,,,,,,,,P035,FENCOG,1,Pre,2022_Apr_11_1109,Go No-Go Task,2021.1.4,120.13714856866733,
,"Rule: When you see blue image, do not press 'spacebar'.",Images/Happy/BF18_HO.jpg,Happy,Yellow,Images/Yellow.jpg,space,ParentConditions/YellowBlueBlue_v1.xlsx,BlueBlueYellow,Conditions/Version_1/BlueFearStop.xlsx,no,PASS,0.5715935528670182,,,,,,,,,0,0,0,0,0,1,1,1,0,9,9,9,,,,,,,,,,,,,,,,,,,,,,,,,,,,,,,,,,,,,,,,,,,,,,,,,,,,,,,,,,,,,,,,,,,,,,,,,,,,,,,1.82,614.6453122,None,space,1,0.254159300000083,616.5671903,None,616.5671903,None,616.5671903,None,,,,,,,,,,,P035,FENCOG,1,Pre,2022_Apr_11_1109,Go No-Go Task,2021.1.4,120.13714856866733,
,"Rule: When you see blue image, do not press 'spacebar'.",Images/Happy/AM10HAS.jpg,Happy,Yellow,Images/Yellow.jpg,space,ParentConditions/YellowBlueBlue_v1.xlsx,BlueBlueYellow,Conditions/Version_1/BlueFearStop.xlsx,no,PASS,0.4742386996589605,,,,,,,,,0,0,0,0,0,1,1,1,0,10,10,10,,,,,,,,,,,,,,,,,,,,,,,,,,,,,,,,,,,,,,,,,,,,,,,,,,,,,,,,,,,,,,,,,,,,,,,,,,,,,,,1.41,616.9751896999999,None,space,1,0.2975839000000633,618.4997945000002,None,618.4997945000002,None,618.4997945000002,None,,,,,,,,,,,P035,FENCOG,1,Pre,2022_Apr_11_1109,Go No-Go Task,2021.1.4,120.13714856866733,
,"Rule: When you see blue image, do not press 'spacebar'.",Images/Happy/AM09HAS.jpg,Happy,Yellow,Images/Yellow.jpg,space,ParentConditions/YellowBlueBlue_v1.xlsx,BlueBlueYellow,Conditions/Version_1/BlueFearStop.xlsx,no,PASS,0.5791375189576048,,,,,,,,,0,0,0,0,0,1,1,1,0,11,11,11,,,,,,,,,,,,,,,,,,,,,,,,,,,,,,,,,,,,,,,,,,,,,,,,,,,,,,,,,,,,,,,,,,,,,,,,,,,,,,,1.53,618.8989377999999,None,space,1,0.29658259999996517,620.5408699000002,None,620.5408699000002,None,620.5408699000002,None,,,,,,,,,,,P035,FENCOG,1,Pre,2022_Apr_11_1109,Go No-Go Task,2021.1.4,120.13714856866733,
,"Rule: When you see blue image, do not press 'spacebar'.",Images/Happy/AM16HAS.jpg,Happy,Yellow,Images/Yellow.jpg,space,ParentConditions/YellowBlueBlue_v1.xlsx,BlueBlueYellow,Conditions/Version_1/BlueFearStop.xlsx,no,PASS,0.06851146054747248,,,,,,,,,0,0,0,0,0,1,1,1,0,12,12,12,,,,,,,,,,,,,,,,,,,,,,,,,,,,,,,,,,,,,,,,,,,,,,,,,,,,,,,,,,,,,,,,,,,,,,,,,,,,,,,1.87,620.9400016000002,None,space,1,0.23389470000029178,622.9235615,None,622.9235615,None,622.9235615,None,,,,,,,,,,,P035,FENCOG,1,Pre,2022_Apr_11_1109,Go No-Go Task,2021.1.4,120.13714856866733,
,"Rule: When you see blue image, do not press 'spacebar'.",Images/Happy/AF10_HE.jpg,Happy,Yellow,Images/Yellow.jpg,space,ParentConditions/YellowBlueBlue_v1.xlsx,BlueBlueYellow,Conditions/Version_1/BlueFearStop.xlsx,no,PASS,0.21267371658214962,,,,,,,,,0,0,0,0,0,1,1,1,0,13,13,13,,,,,,,,,,,,,,,,,,,,,,,,,,,,,,,,,,,,,,,,,,,,,,,,,,,,,,,,,,,,,,,,,,,,,,,,,,,,,,,1.23,623.323431,None,space,1,0.2605546999998296,624.6729962000002,None,624.6729962000002,None,624.6729962000002,None,,,,,,,,,,,P035,FENCOG,1,Pre,2022_Apr_11_1109,Go No-Go Task,2021.1.4,120.13714856866733,
,"Rule: When you see blue image, do not press 'spacebar'.",Images/Happy/AF27HAS.jpg,Happy,Yellow,Images/Yellow.jpg,space,ParentConditions/YellowBlueBlue_v1.xlsx,BlueBlueYellow,Conditions/Version_1/BlueFearStop.xlsx,no,PASS,0.8109673156723475,,,,,,,,,0,0,0,0,0,1,1,1,0,14,14,14,,,,,,,,,,,,,,,,,,,,,,,,,,,,,,,,,,,,,,,,,,,,,,,,,,,,,,,,,,,,,,,,,,,,,,,,,,,,,,,1.94,625.0636049000002,None,space,1,0.2673688999998376,627.1139787,None,627.1139787,None,627.1139787,None,,,,,,,,,,,P035,FENCOG,1,Pre,2022_Apr_11_1109,Go No-Go Task,2021.1.4,120.13714856866733,
,"Rule: When you see blue image, do not press 'spacebar'.",Images/Happy/BF10_HO.jpg,Happy,Yellow,Images/Yellow.jpg,space,ParentConditions/YellowBlueBlue_v1.xlsx,BlueBlueYellow,Conditions/Version_1/BlueFearStop.xlsx,no,PASS,0.35707259862702334,,,,,,,,,0,0,0,0,0,1,1,1,0,15,15,15,,,,,,,,,,,,,,,,,,,,,,,,,,,,,,,,,,,,,,,,,,,,,,,,,,,,,,,,,,,,,,,,,,,,,,,,,,,,,,,1.28,627.5130153000002,None,space,1,0.22813339999993332,628.9133855000002,None,628.9133855000002,None,628.9133855000002,None,,,,,,,,,,,P035,FENCOG,1,Pre,2022_Apr_11_1109,Go No-Go Task,2021.1.4,120.13714856866733,
,"Rule: When you see blue image, do not press 'spacebar'.",Images/Happy/BF14_HO.jpg,Happy,Yellow,Images/Yellow.jpg,space,ParentConditions/YellowBlueBlue_v1.xlsx,BlueBlueYellow,Conditions/Version_1/BlueFearStop.xlsx,no,PASS,0.41712793219483124,,,,,,,,,0,0,0,0,0,1,1,1,0,16,16,16,,,,,,,,,,,,,,,,,,,,,,,,,,,,,,,,,,,,,,,,,,,,,,,,,,,,,,,,,,,,,,,,,,,,,,,,,,,,,,,1.55,629.3072250000002,None,space,1,0.2986737000001085,630.9627603000001,None,630.9627603000001,None,630.9627603000001,None,,,,,,,,,,,P035,FENCOG,1,Pre,2022_Apr_11_1109,Go No-Go Task,2021.1.4,120.13714856866733,
,"Rule: When you see blue image, do not press 'spacebar'.",Images/Fearful/BM08_FC.jpg,Fear,Blue,Images/Blue.jpg,None,ParentConditions/YellowBlueBlue_v1.xlsx,BlueBlueYellow,Conditions/Version_1/BlueFearStop.xlsx,yes,PASS,0.2777606849347436,,,,,,,,,0,0,0,0,0,1,1,1,0,17,17,17,,,,,,,,,,,,,,,,,,,,,,,,,,,,,,,,,,,,,,,,,,,,,,,,,,,,,,,,,,,,,,,,,,,,,,,,,,,,,,,1.35,631.3688897999998,None,None,1,,632.8288939000001,None,632.8288939000001,None,632.8288939000001,None,,,,,,,,,,,P035,FENCOG,1,Pre,2022_Apr_11_1109,Go No-Go Task,2021.1.4,120.13714856866733,
,"Rule: When you see blue image, do not press 'spacebar'.",Images/Happy/AM01HAS.jpg,Happy,Yellow,Images/Yellow.jpg,space,ParentConditions/YellowBlueBlue_v1.xlsx,BlueBlueYellow,Conditions/Version_1/BlueFearStop.xlsx,no,PASS,0.43160138117116176,,,,,,,,,0,0,0,0,0,1,1,1,0,18,18,18,,,,,,,,,,,,,,,,,,,,,,,,,,,,,,,,,,,,,,,,,,,,,,,,,,,,,,,,,,,,,,,,,,,,,,,,,,,,,,,1.67,633.2241111999999,None,space,1,0.2260668000003534,635.0033587,None,635.0033587,None,635.0033587,None,,,,,,,,,,,P035,FENCOG,1,Pre,2022_Apr_11_1109,Go No-Go Task,2021.1.4,120.13714856866733,
,"Rule: When you see blue image, do not press 'spacebar'.",Images/Happy/AF11HAS.jpg,Happy,Yellow,Images/Yellow.jpg,space,ParentConditions/YellowBlueBlue_v1.xlsx,BlueBlueYellow,Conditions/Version_1/BlueFearStop.xlsx,no,PASS,0.9696898199968184,,,,,,,,,0,0,0,0,0,1,1,1,0,19,19,19,,,,,,,,,,,,,,,,,,,,,,,,,,,,,,,,,,,,,,,,,,,,,,,,,,,,,,,,,,,,,,,,,,,,,,,,,,,,,,,1.69,635.4023275000002,None,space,1,0.2194089999998141,637.1942541999999,None,637.1942541999999,None,637.1942541999999,None,,,,,,,,,,,P035,FENCOG,1,Pre,2022_Apr_11_1109,Go No-Go Task,2021.1.4,120.13714856866733,
,"Rule: When you see blue image, do not press 'spacebar'.",Images/Happy/BM01_HO.jpg,Happy,Yellow,Images/Yellow.jpg,space,ParentConditions/YellowBlueBlue_v1.xlsx,BlueBlueYellow,Conditions/Version_1/BlueFearStop.xlsx,no,PASS,0.40182091251260654,,,,,,,,,0,0,0,0,0,1,1,1,0,20,20,20,,,,,,,,,,,,,,,,,,,,,,,,,,,,,,,,,,,,,,,,,,,,,,,,,,,,,,,,,,,,,,,,,,,,,,,,,,,,,,,1.85,637.5961488999999,None,space,1,0.2695922999996583,639.5519585,None,639.5519585,None,639.5519585,None,,,,,,,,,,,P035,FENCOG,1,Pre,2022_Apr_11_1109,Go No-Go Task,2021.1.4,120.13714856866733,
,"Rule: When you see blue image, do not press 'spacebar'.",Images/Happy/AF07_HO.jpg,Happy,Yellow,Images/Yellow.jpg,space,ParentConditions/YellowBlueBlue_v1.xlsx,BlueBlueYellow,Conditions/Version_1/BlueFearStop.xlsx,no,PASS,0.304860645067783,,,,,,,,,0,0,0,0,0,1,1,1,0,21,21,21,,,,,,,,,,,,,,,,,,,,,,,,,,,,,,,,,,,,,,,,,,,,,,,,,,,,,,,,,,,,,,,,,,,,,,,,,,,,,,,1.38,639.9571638,None,space,1,0.27434020000009696,641.4513423999999,None,641.4513423999999,None,641.4513423999999,None,,,,,,,,,,,P035,FENCOG,1,Pre,2022_Apr_11_1109,Go No-Go Task,2021.1.4,120.13714856866733,
,"Rule: When you see blue image, do not press 'spacebar'.",Images/Happy/HM06_HO.jpg,Happy,Yellow,Images/Yellow.jpg,space,ParentConditions/YellowBlueBlue_v1.xlsx,BlueBlueYellow,Conditions/Version_1/BlueFearStop.xlsx,no,PASS,0.3928744637511502,,,,,,,,,0,0,0,0,0,1,1,1,0,22,22,22,,,,,,,,,,,,,,,,,,,,,,,,,,,,,,,,,,,,,,,,,,,,,,,,,,,,,,,,,,,,,,,,,,,,,,,,,,,,,,,1.31,641.8546076,None,space,1,0.28195670000013706,643.2675308999999,None,643.2675308999999,None,643.2675308999999,None,,,,,,,,,,,P035,FENCOG,1,Pre,2022_Apr_11_1109,Go No-Go Task,2021.1.4,120.13714856866733,
,"Rule: When you see blue image, do not press 'spacebar'.",Images/Fearful/AM09_FO.jpg,Fear,Blue,Images/Blue.jpg,None,ParentConditions/YellowBlueBlue_v1.xlsx,BlueBlueYellow,Conditions/Version_1/BlueFearStop.xlsx,yes,PASS,0.17130222782280535,,,,,,,,,0,0,0,0,0,1,1,1,0,23,23,23,,,,,,,,,,,,,,,,,,,,,,,,,,,,,,,,,,,,,,,,,,,,,,,,,,,,,,,,,,,,,,,,,,,,,,,,,,,,,,,1.45,643.6664253000001,None,space,0,0.24492730000019947,645.2169446999999,None,645.2169446999999,None,645.2169446999999,None,,,,,,,,,,,P035,FENCOG,1,Pre,2022_Apr_11_1109,Go No-Go Task,2021.1.4,120.13714856866733,
,"Rule: When you see blue image, do not press 'spacebar'.",Images/Happy/AF09HAS.jpg,Happy,Yellow,Images/Yellow.jpg,space,ParentConditions/YellowBlueBlue_v1.xlsx,BlueBlueYellow,Conditions/Version_1/BlueFearStop.xlsx,no,PASS,0.32050850835393896,,,,,,,,,0,0,0,0,0,1,1,1,0,24,24,24,,,,,,,,,,,,,,,,,,,,,,,,,,,,,,,,,,,,,,,,,,,,,,,,,,,,,,,,,,,,,,,,,,,,,,,,,,,,,,,1.51,645.6194579,None,None,0,,647.2413754000002,None,647.2413754000002,None,647.2413754000002,None,,,,,,,,,,,P035,FENCOG,1,Pre,2022_Apr_11_1109,Go No-Go Task,2021.1.4,120.13714856866733,
,"Rule: When you see blue image, do not press 'spacebar'.",Images/Happy/AM04HAS.jpg,Happy,Yellow,Images/Yellow.jpg,space,ParentConditions/YellowBlueBlue_v1.xlsx,BlueBlueYellow,Conditions/Version_1/BlueFearStop.xlsx,no,PASS,0.17004201555218557,,,,,,,,,0,0,0,0,0,1,1,1,0,25,25,25,,,,,,,,,,,,,,,,,,,,,,,,,,,,,,,,,,,,,,,,,,,,,,,,,,,,,,,,,,,,,,,,,,,,,,,,,,,,,,,1.93,647.6461044999999,None,space,1,0.3067941000003884,649.6904873999999,None,649.6904873999999,None,649.6904873999999,None,,,,,,,,,,,P035,FENCOG,1,Pre,2022_Apr_11_1109,Go No-Go Task,2021.1.4,120.13714856866733,
,"Rule: When you see blue image, do not press 'spacebar'.",Images/Happy/BF07_HO.jpg,Happy,Yellow,Images/Yellow.jpg,space,ParentConditions/YellowBlueBlue_v1.xlsx,BlueBlueYellow,Conditions/Version_1/BlueFearStop.xlsx,no,PASS,0.9775255982448644,,,,,,,,,0,0,0,0,0,1,1,1,0,26,26,26,,,,,,,,,,,,,,,,,,,,,,,,,,,,,,,,,,,,,,,,,,,,,,,,,,,,,,,,,,,,,,,,,,,,,,,,,,,,,,,1.21,650.0841309999998,None,space,1,0.30289410000023054,651.4063748000001,None,651.4063748000001,None,651.4063748000001,None,,,,,,,,,,,P035,FENCOG,1,Pre,2022_Apr_11_1109,Go No-Go Task,2021.1.4,120.13714856866733,
,"Rule: When you see blue image, do not press 'spacebar'.",Images/Happy/AF02HAS.jpg,Happy,Yellow,Images/Yellow.jpg,space,ParentConditions/YellowBlueBlue_v1.xlsx,BlueBlueYellow,Conditions/Version_1/BlueFearStop.xlsx,no,PASS,0.9926707513295598,,,,,,,,,0,0,0,0,0,1,1,1,0,27,27,27,,,,,,,,,,,,,,,,,,,,,,,,,,,,,,,,,,,,,,,,,,,,,,,,,,,,,,,,,,,,,,,,,,,,,,,,,,,,,,,1.36,651.8054958,None,space,1,0.31681339999977354,653.2725447,None,653.2725447,None,653.2725447,None,,,,,,,,,,,P035,FENCOG,1,Pre,2022_Apr_11_1109,Go No-Go Task,2021.1.4,120.13714856866733,
,"Rule: When you see blue image, do not press 'spacebar'.",Images/Happy/AM30HAS.jpg,Happy,Yellow,Images/Yellow.jpg,space,ParentConditions/YellowBlueBlue_v1.xlsx,BlueBlueYellow,Conditions/Version_1/BlueFearStop.xlsx,no,PASS,0.6844901636445411,,,,,,,,,0,0,0,0,0,1,1,1,0,28,28,28,,,,,,,,,,,,,,,,,,,,,,,,,,,,,,,,,,,,,,,,,,,,,,,,,,,,,,,,,,,,,,,,,,,,,,,,,,,,,,,1.83,653.6720284999999,None,space,1,0.2799489000003632,655.6053445,None,655.6053445,None,655.6053445,None,,,,,,,,,,,P035,FENCOG,1,Pre,2022_Apr_11_1109,Go No-Go Task,2021.1.4,120.13714856866733,
,"Rule: When you see blue image, do not press 'spacebar'.",Images/Happy/BF05_HO.jpg,Happy,Yellow,Images/Yellow.jpg,space,ParentConditions/YellowBlueBlue_v1.xlsx,BlueBlueYellow,Conditions/Version_1/BlueFearStop.xlsx,no,PASS,0.010815687417666808,,,,,,,,,0,0,0,0,0,1,1,1,0,29,29,29,,,,,,,,,,,,,,,,,,,,,,,,,,,,,,,,,,,,,,,,,,,,,,,,,,,,,,,,,,,,,,,,,,,,,,,,,,,,,,,1.25,656.0042394,None,space,1,0.3546325000002071,657.3546334999999,None,657.3546334999999,None,657.3546334999999,None,,,,,,,,,,,P035,FENCOG,1,Pre,2022_Apr_11_1109,Go No-Go Task,2021.1.4,120.13714856866733,
,"Rule: When you see blue image, do not press 'spacebar'.",Images/Fearful/AF25AFS.jpg,Fear,Blue,Images/Blue.jpg,None,ParentConditions/YellowBlueBlue_v1.xlsx,BlueBlueYellow,Conditions/Version_1/BlueFearStop.xlsx,yes,PASS,0.35816317389786545,,,,,,,,,0,0,0,0,0,1,1,1,0,30,30,30,,,,,,,,,,,,,,,,,,,,,,,,,,,,,,,,,,,,,,,,,,,,,,,,,,,,,,,,,,,,,,,,,,,,,,,,,,,,,,,1.58,657.7536951999998,None,None,1,,659.4374255999999,None,659.4374255999999,None,659.4374255999999,None,,,,,,,,,,,P035,FENCOG,1,Pre,2022_Apr_11_1109,Go No-Go Task,2021.1.4,120.13714856866733,
,"Rule: When you see blue image, do not press 'spacebar'.",Images/Happy/BF09_HO.jpg,Happy,Yellow,Images/Yellow.jpg,space,ParentConditions/YellowBlueBlue_v1.xlsx,BlueBlueYellow,Conditions/Version_1/BlueFearStop.xlsx,no,PASS,0.3783419276063734,,,,,,,,,0,0,0,0,0,1,1,1,0,31,31,31,,,,,,,,,,,,,,,,,,,,,,,,,,,,,,,,,,,,,,,,,,,,,,,,,,,,,,,,,,,,,,,,,,,,,,,,,,,,,,,1.54,659.8375225000002,None,space,1,0.30255029999989347,661.4786000000001,None,661.4786000000001,None,661.4786000000001,None,,,,,,,,,,,P035,FENCOG,1,Pre,2022_Apr_11_1109,Go No-Go Task,2021.1.4,120.13714856866733,
,"Rule: When you see blue image, do not press 'spacebar'.",Images/Happy/AM09_HE.jpg,Happy,Yellow,Images/Yellow.jpg,space,ParentConditions/YellowBlueBlue_v1.xlsx,BlueBlueYellow,Conditions/Version_1/BlueFearStop.xlsx,no,PASS,0.21016465424314756,,,,,,,,,0,0,0,0,0,1,1,1,0,32,32,32,,,,,,,,,,,,,,,,,,,,,,,,,,,,,,,,,,,,,,,,,,,,,,,,,,,,,,,,,,,,,,,,,,,,,,,,,,,,,,,1.7,661.8778937999998,None,space,1,0.2717328000003363,663.6777242999999,None,663.6777242999999,None,663.6777242999999,None,,,,,,,,,,,P035,FENCOG,1,Pre,2022_Apr_11_1109,Go No-Go Task,2021.1.4,120.13714856866733,
,"Rule: When you see blue image, do not press 'spacebar'.",Images/Fearful/BF14_FO.jpg,Fear,Blue,Images/Blue.jpg,None,ParentConditions/YellowBlueBlue_v1.xlsx,BlueBlueYellow,Conditions/Version_1/BlueFearStop.xlsx,yes,PASS,0.9618360969741386,,,,,,,,,0,0,0,0,0,1,1,1,0,33,33,33,,,,,,,,,,,,,,,,,,,,,,,,,,,,,,,,,,,,,,,,,,,,,,,,,,,,,,,,,,,,,,,,,,,,,,,,,,,,,,,1.62,664.0776822999999,None,None,1,,665.8021108999999,None,665.8021108999999,None,665.8021108999999,None,,,,,,,,,,,P035,FENCOG,1,Pre,2022_Apr_11_1109,Go No-Go Task,2021.1.4,120.13714856866733,
,"Rule: When you see blue image, do not press 'spacebar'.",Images/Fearful/HF05_FC.jpg,Fear,Blue,Images/Blue.jpg,None,ParentConditions/YellowBlueBlue_v1.xlsx,BlueBlueYellow,Conditions/Version_1/BlueFearStop.xlsx,yes,PASS,0.005236598035567086,,,,,,,,,0,0,0,0,0,1,1,1,0,34,34,34,,,,,,,,,,,,,,,,,,,,,,,,,,,,,,,,,,,,,,,,,,,,,,,,,,,,,,,,,,,,,,,,,,,,,,,,,,,,,,,1.75,666.2015070999998,None,None,1,,668.0515022000002,None,668.0515022000002,None,668.0515022000002,None,,,,,,,,,,,P035,FENCOG,1,Pre,2022_Apr_11_1109,Go No-Go Task,2021.1.4,120.13714856866733,
,"Rule: When you see blue image, do not press 'spacebar'.",Images/Happy/AM23HAS.jpg,Happy,Yellow,Images/Yellow.jpg,space,ParentConditions/YellowBlueBlue_v1.xlsx,BlueBlueYellow,Conditions/Version_1/BlueFearStop.xlsx,no,PASS,0.13077339503157293,,,,,,,,,0,0,0,0,0,1,1,1,0,35,35,35,,,,,,,,,,,,,,,,,,,,,,,,,,,,,,,,,,,,,,,,,,,,,,,,,,,,,,,,,,,,,,,,,,,,,,,,,,,,,,,1.8,668.4505067000002,None,space,1,0.31103110000003653,670.3508049999998,None,670.3508049999998,None,670.3508049999998,None,,,,,,,,,,,P035,FENCOG,1,Pre,2022_Apr_11_1109,Go No-Go Task,2021.1.4,120.13714856866733,
,"Rule: When you see blue image, do not press 'spacebar'.",Images/Happy/AM03_HO.jpg,Happy,Yellow,Images/Yellow.jpg,space,ParentConditions/YellowBlueBlue_v1.xlsx,BlueBlueYellow,Conditions/Version_1/BlueFearStop.xlsx,no,PASS,0.29520703840296547,,,,,,,,,0,0,0,0,0,1,1,1,0,36,36,36,,,,,,,,,,,,,,,,,,,,,,,,,,,,,,,,,,,,,,,,,,,,,,,,,,,,,,,,,,,,,,,,,,,,,,,,,,,,,,,1.26,670.7549962,None,space,1,0.31965730000001713,672.1256528000001,None,672.1256528000001,None,672.1256528000001,None,,,,,,,,,,,P035,FENCOG,1,Pre,2022_Apr_11_1109,Go No-Go Task,2021.1.4,120.13714856866733,
,"Rule: When you see blue image, do not press 'spacebar'.",Images/Happy/AF25HAS.jpg,Happy,Yellow,Images/Yellow.jpg,space,ParentConditions/YellowBlueBlue_v1.xlsx,BlueBlueYellow,Conditions/Version_1/BlueFearStop.xlsx,no,PASS,0.3205802973983102,,,,,,,,,0,0,0,0,0,1,1,1,0,37,37,37,,,,,,,,,,,,,,,,,,,,,,,,,,,,,,,,,,,,,,,,,,,,,,,,,,,,,,,,,,,,,,,,,,,,,,,,,,,,,,,1.6,672.5247921000002,None,space,1,0.32424459999992905,674.2333208000002,None,674.2333208000002,None,674.2333208000002,None,,,,,,,,,,,P035,FENCOG,1,Pre,2022_Apr_11_1109,Go No-Go Task,2021.1.4,120.13714856866733,
,"Rule: When you see blue image, do not press 'spacebar'.",Images/Happy/BM08_HO.jpg,Happy,Yellow,Images/Yellow.jpg,space,ParentConditions/YellowBlueBlue_v1.xlsx,BlueBlueYellow,Conditions/Version_1/BlueFearStop.xlsx,no,PASS,0.9250231228335681,,,,,,,,,0,0,0,0,0,1,1,1,0,38,38,38,,,,,,,,,,,,,,,,,,,,,,,,,,,,,,,,,,,,,,,,,,,,,,,,,,,,,,,,,,,,,,,,,,,,,,,,,,,,,,,1.71,674.6290316000002,None,space,1,0.32433880000007775,676.441141,None,676.441141,None,676.441141,None,,,,,,,,,,,P035,FENCOG,1,Pre,2022_Apr_11_1109,Go No-Go Task,2021.1.4,120.13714856866733,
,"Rule: When you see blue image, do not press 'spacebar'.",Images/Happy/AF32HAS.jpg,Happy,Yellow,Images/Yellow.jpg,space,ParentConditions/YellowBlueBlue_v1.xlsx,BlueBlueYellow,Conditions/Version_1/BlueFearStop.xlsx,no,PASS,0.73804934699979,,,,,,,,,0,0,0,0,0,1,1,1,0,39,39,39,,,,,,,,,,,,,,,,,,,,,,,,,,,,,,,,,,,,,,,,,,,,,,,,,,,,,,,,,,,,,,,,,,,,,,,,,,,,,,,1.32,676.8456334999998,None,space,1,0.29979780000030587,678.2654989999999,None,678.2654989999999,None,678.2654989999999,None,,,,,,,,,,,P035,FENCOG,1,Pre,2022_Apr_11_1109,Go No-Go Task,2021.1.4,120.13714856866733,
,"Rule: When you see blue image, do not press 'spacebar'.",Images/Happy/AF23HAS.jpg,Happy,Yellow,Images/Yellow.jpg,space,ParentConditions/YellowBlueBlue_v1.xlsx,BlueBlueYellow,Conditions/Version_1/BlueFearStop.xlsx,no,PASS,0.9000246195519893,,,,,,,,,0,0,0,0,0,1,1,1,0,40,40,40,,,,,,,,,,,,,,,,,,,,,,,,,,,,,,,,,,,,,,,,,,,,,,,,,,,,,,,,,,,,,,,,,,,,,,,,,,,,,,,1.73,678.6643935,None,space,1,0.3230241000001115,680.5065169000002,None,680.5065169000002,None,680.5065169000002,None,,,,,,,,,,,P035,FENCOG,1,Pre,2022_Apr_11_1109,Go No-Go Task,2021.1.4,120.13714856866733,
,"Rule: When you see blue image, do not press 'spacebar'.",Images/Happy/AM32HAS.jpg,Happy,Yellow,Images/Yellow.jpg,space,ParentConditions/YellowBlueBlue_v1.xlsx,BlueBlueYellow,Conditions/Version_1/BlueFearStop.xlsx,no,PASS,0.738989629625258,,,,,,,,,0,0,0,0,0,1,1,1,0,41,41,41,,,,,,,,,,,,,,,,,,,,,,,,,,,,,,,,,,,,,,,,,,,,,,,,,,,,,,,,,,,,,,,,,,,,,,,,,,,,,,,1.78,680.9016773000001,None,space,1,0.2405100000000857,682.7808722000002,None,682.7808722000002,None,682.7808722000002,None,,,,,,,,,,,P035,FENCOG,1,Pre,2022_Apr_11_1109,Go No-Go Task,2021.1.4,120.13714856866733,
,"Rule: When you see blue image, do not press 'spacebar'.",Images/Fearful/AM30AFS.jpg,Fear,Blue,Images/Blue.jpg,None,ParentConditions/YellowBlueBlue_v1.xlsx,BlueBlueYellow,Conditions/Version_1/BlueFearStop.xlsx,yes,PASS,0.33529906039128465,,,,,,,,,0,0,0,0,0,1,1,1,0,42,42,42,,,,,,,,,,,,,,,,,,,,,,,,,,,,,,,,,,,,,,,,,,,,,,,,,,,,,,,,,,,,,,,,,,,,,,,,,,,,,,,1.3,683.1816633999999,None,None,1,,684.5890757,None,684.5890757,None,684.5890757,None,,,,,,,,,,,P035,FENCOG,1,Pre,2022_Apr_11_1109,Go No-Go Task,2021.1.4,120.13714856866733,
,"Rule: When you see blue image, do not press 'spacebar'.",Images/Happy/BM02_HO.jpg,Happy,Yellow,Images/Yellow.jpg,space,ParentConditions/YellowBlueBlue_v1.xlsx,BlueBlueYellow,Conditions/Version_1/BlueFearStop.xlsx,no,PASS,0.711648218321579,,,,,,,,,0,0,0,0,0,1,1,1,0,43,43,43,,,,,,,,,,,,,,,,,,,,,,,,,,,,,,,,,,,,,,,,,,,,,,,,,,,,,,,,,,,,,,,,,,,,,,,,,,,,,,,1.97,684.9880372999999,None,space,1,0.2863998000002539,687.0628896000001,None,687.0628896000001,None,687.0628896000001,None,,,,,,,,,,,P035,FENCOG,1,Pre,2022_Apr_11_1109,Go No-Go Task,2021.1.4,120.13714856866733,
,"Rule: When you see blue image, do not press 'spacebar'.",Images/Happy/AM10_HO.jpg,Happy,Yellow,Images/Yellow.jpg,space,ParentConditions/YellowBlueBlue_v1.xlsx,BlueBlueYellow,Conditions/Version_1/BlueFearStop.xlsx,no,PASS,0.7811025651589869,,,,,,,,,0,0,0,0,0,1,1,1,0,44,44,44,,,,,,,,,,,,,,,,,,,,,,,,,,,,,,,,,,,,,,,,,,,,,,,,,,,,,,,,,,,,,,,,,,,,,,,,,,,,,,,1.39,687.4639648999998,None,space,1,0.307372100000066,688.9622471,None,688.9622471,None,688.9622471,None,,,,,,,,,,,P035,FENCOG,1,Pre,2022_Apr_11_1109,Go No-Go Task,2021.1.4,120.13714856866733,
,"Rule: When you see blue image, do not press 'spacebar'.",Images/Fearful/AM10_FO.jpg,Fear,Blue,Images/Blue.jpg,None,ParentConditions/YellowBlueBlue_v1.xlsx,BlueBlueYellow,Conditions/Version_1/BlueFearStop.xlsx,yes,PASS,0.14747063444404174,,,,,,,,,0,0,0,0,0,1,1,1,0,45,45,45,,,,,,,,,,,,,,,,,,,,,,,,,,,,,,,,,,,,,,,,,,,,,,,,,,,,,,,,,,,,,,,,,,,,,,,,,,,,,,,1.56,689.3610844000002,None,None,1,,691.0285861,None,691.0285861,None,691.0285861,None,,,,,,,,,,,P035,FENCOG,1,Pre,2022_Apr_11_1109,Go No-Go Task,2021.1.4,120.13714856866733,
,"Rule: When you see blue image, do not press 'spacebar'.",Images/Happy/AF19HAS.jpg,Happy,Yellow,Images/Yellow.jpg,space,ParentConditions/YellowBlueBlue_v1.xlsx,BlueBlueYellow,Conditions/Version_1/BlueFearStop.xlsx,no,PASS,0.5734484599929517,,,,,,,,,0,0,0,0,0,1,1,1,0,46,46,46,,,,,,,,,,,,,,,,,,,,,,,,,,,,,,,,,,,,,,,,,,,,,,,,,,,,,,,,,,,,,,,,,,,,,,,,,,,,,,,1.91,691.4289669000002,None,space,1,0.24113880000004428,693.4443527000001,None,693.4443527000001,None,693.4443527000001,None,,,,,,,,,,,P035,FENCOG,1,Pre,2022_Apr_11_1109,Go No-Go Task,2021.1.4,120.13714856866733,
,"Rule: When you see blue image, do not press 'spacebar'.",Images/Fearful/HF09_FC.jpg,Fear,Blue,Images/Blue.jpg,None,ParentConditions/YellowBlueBlue_v1.xlsx,BlueBlueYellow,Conditions/Version_1/BlueFearStop.xlsx,yes,PASS,0.19935802832005745,,,,,,,,,0,0,0,0,0,1,1,1,0,47,47,47,,,,,,,,,,,,,,,,,,,,,,,,,,,,,,,,,,,,,,,,,,,,,,,,,,,,,,,,,,,,,,,,,,,,,,,,,,,,,,,1.9,693.8477957000002,None,None,1,,695.8436376000002,None,695.8436376000002,None,695.8436376000002,None,,,,,,,,,,,P035,FENCOG,1,Pre,2022_Apr_11_1109,Go No-Go Task,2021.1.4,120.13714856866733,
,"Rule: When you see blue image, do not press 'spacebar'.",Images/Fearful/AM22AFS.jpg,Fear,Blue,Images/Blue.jpg,None,ParentConditions/YellowBlueBlue_v1.xlsx,BlueBlueYellow,Conditions/Version_1/BlueFearStop.xlsx,yes,PASS,0.17276378175067786,,,,,,,,,0,0,0,0,0,1,1,1,0,48,48,48,,,,,,,,,,,,,,,,,,,,,,,,,,,,,,,,,,,,,,,,,,,,,,,,,,,,,,,,,,,,,,,,,,,,,,,,,,,,,,,1.89,696.2441225999999,None,None,1,,698.2429365999999,None,698.2429365999999,None,698.2429365999999,None,,,,,,,,,,,P035,FENCOG,1,Pre,2022_Apr_11_1109,Go No-Go Task,2021.1.4,120.13714856866733,
,"Rule: When you see blue image, do not press 'spacebar'.",Images/Happy/AM06_HC.jpg,Happy,Yellow,Images/Yellow.jpg,space,ParentConditions/YellowBlueBlue_v1.xlsx,BlueBlueYellow,Conditions/Version_1/BlueFearStop.xlsx,no,PASS,0.06320185727949179,,,,,,,,,0,0,0,0,0,1,1,1,0,49,49,49,,,,,,,,,,,,,,,,,,,,,,,,,,,,,,,,,,,,,,,,,,,,,,,,,,,,,,,,,,,,,,,,,,,,,,,,,,,,,,,1.64,698.641989,None,space,1,0.2537528000002567,700.3839584999998,None,700.3839584999998,None,700.3839584999998,None,,,,,,,,,,,P035,FENCOG,1,Pre,2022_Apr_11_1109,Go No-Go Task,2021.1.4,120.13714856866733,
,"Rule: When you see blue image, do not press 'spacebar'.",Images/Fearful/AM32AFS.jpg,Fear,Blue,Images/Blue.jpg,None,ParentConditions/YellowBlueBlue_v1.xlsx,BlueBlueYellow,Conditions/Version_1/BlueFearStop.xlsx,yes,PASS,0.03468314974069586,,,,,,,,,0,0,0,0,0,1,1,1,0,50,50,50,,,,,,,,,,,,,,,,,,,,,,,,,,,,,,,,,,,,,,,,,,,,,,,,,,,,,,,,,,,,,,,,,,,,,,,,,,,,,,,2,700.7868202000002,None,None,1,,702.8916167,None,702.8916167,None,702.8916167,None,,,,,,,,,,,P035,FENCOG,1,Pre,2022_Apr_11_1109,Go No-Go Task,2021.1.4,120.13714856866733,
,"Rule: When you see blue image, do not press 'spacebar'.",Images/Happy/WF11_HE.jpg,Happy,Yellow,Images/Yellow.jpg,space,ParentConditions/YellowBlueBlue_v1.xlsx,BlueBlueYellow,Conditions/Version_1/BlueFearStop.xlsx,no,PASS,0.5138011133022752,,,,,,,,,0,0,0,0,0,1,1,1,0,51,51,51,,,,,,,,,,,,,,,,,,,,,,,,,,,,,,,,,,,,,,,,,,,,,,,,,,,,,,,,,,,,,,,,,,,,,,,,,,,,,,,1.49,703.2924482999999,None,space,1,0.2985012999997707,704.8909596000001,None,704.8909596000001,None,704.8909596000001,None,,,,,,,,,,,P035,FENCOG,1,Pre,2022_Apr_11_1109,Go No-Go Task,2021.1.4,120.13714856866733,
,"Rule: When you see blue image, do not press 'spacebar'.",Images/Fearful/AF28AFS.jpg,Fear,Blue,Images/Blue.jpg,None,ParentConditions/YellowBlueBlue_v1.xlsx,BlueBlueYellow,Conditions/Version_1/BlueFearStop.xlsx,yes,PASS,0.30204493442130675,,,,,,,,,0,0,0,0,0,1,1,1,0,52,52,52,,,,,,,,,,,,,,,,,,,,,,,,,,,,,,,,,,,,,,,,,,,,,,,,,,,,,,,,,,,,,,,,,,,,,,,,,,,,,,,1.43,705.2917313,None,None,1,,706.8240936,None,706.8240936,None,706.8240936,None,,,,,,,,,,,P035,FENCOG,1,Pre,2022_Apr_11_1109,Go No-Go Task,2021.1.4,120.13714856866733,
,"Rule: When you see blue image, do not press 'spacebar'.",Images/Happy/HF04_HE.jpg,Happy,Yellow,Images/Yellow.jpg,space,ParentConditions/YellowBlueBlue_v1.xlsx,BlueBlueYellow,Conditions/Version_1/BlueFearStop.xlsx,no,PASS,0.05385370360405073,,,,,,,,,0,0,0,0,0,1,1,1,0,53,53,53,,,,,,,,,,,,,,,,,,,,,,,,,,,,,,,,,,,,,,,,,,,,,,,,,,,,,,,,,,,,,,,,,,,,,,,,,,,,,,,1.66,707.2289723000001,None,space,1,0.25542259999974704,708.9898095000001,None,708.9898095000001,None,708.9898095000001,None,,,,,,,,,,,P035,FENCOG,1,Pre,2022_Apr_11_1109,Go No-Go Task,2021.1.4,120.13714856866733,
,"Rule: When you see blue image, do not press 'spacebar'.",Images/Happy/AM13HAS.jpg,Happy,Yellow,Images/Yellow.jpg,space,ParentConditions/YellowBlueBlue_v1.xlsx,BlueBlueYellow,Conditions/Version_1/BlueFearStop.xlsx,no,PASS,0.9978120552242631,,,,,,,,,0,0,0,0,0,1,1,1,0,54,54,54,,,,,,,,,,,,,,,,,,,,,,,,,,,,,,,,,,,,,,,,,,,,,,,,,,,,,,,,,,,,,,,,,,,,,,,,,,,,,,,1.42,709.3955532000002,None,space,1,0.32244889999992665,710.9309061000001,None,710.9309061000001,None,710.9309061000001,None,,,,,,,,,,,P035,FENCOG,1,Pre,2022_Apr_11_1109,Go No-Go Task,2021.1.4,120.13714856866733,
,"Rule: When you see blue image, do not press 'spacebar'.",Images/Happy/HF10_HE.jpg,Happy,Yellow,Images/Yellow.jpg,space,ParentConditions/YellowBlueBlue_v1.xlsx,BlueBlueYellow,Conditions/Version_1/BlueFearStop.xlsx,no,PASS,0.7658265452728541,,,,,,,,,0,0,0,0,0,1,1,1,0,55,55,55,,,,,,,,,,,,,,,,,,,,,,,,,,,,,,,,,,,,,,,,,,,,,,,,,,,,,,,,,,,,,,,,,,,,,,,,,,,,,,,1.79,711.3298514,None,space,1,0.31179000000020096,713.2137642,None,713.2137642,None,713.2137642,None,,,,,,,,,,,P035,FENCOG,1,Pre,2022_Apr_11_1109,Go No-Go Task,2021.1.4,120.13714856866733,
,"Rule: When you see blue image, do not press 'spacebar'.",Images/Happy/AM04_HE.jpg,Happy,Yellow,Images/Yellow.jpg,space,ParentConditions/YellowBlueBlue_v1.xlsx,BlueBlueYellow,Conditions/Version_1/BlueFearStop.xlsx,no,PASS,0.8987539961300183,,,,,,,,,0,0,0,0,0,1,1,1,0,56,56,56,,,,,,,,,,,,,,,,,,,,,,,,,,,,,,,,,,,,,,,,,,,,,,,,,,,,,,,,,,,,,,,,,,,,,,,,,,,,,,,1.99,713.6139249999999,None,space,1,0.32483060000004116,715.7045581,None,715.7045581,None,715.7045581,None,,,,,,,,,,,P035,FENCOG,1,Pre,2022_Apr_11_1109,Go No-Go Task,2021.1.4,120.13714856866733,
,"Rule: When you see blue image, do not press 'spacebar'.",Images/Happy/WF04_HC.jpg,Happy,Yellow,Images/Yellow.jpg,space,ParentConditions/YellowBlueBlue_v1.xlsx,BlueBlueYellow,Conditions/Version_1/BlueFearStop.xlsx,no,PASS,0.34092264300642594,,,,,,,,,0,0,0,0,0,1,1,1,0,57,57,57,,,,,,,,,,,,,,,,,,,,,,,,,,,,,,,,,,,,,,,,,,,,,,,,,,,,,,,,,,,,,,,,,,,,,,,,,,,,,,,1.96,716.107123,None,space,1,0.29031010000016977,718.1871235000001,None,718.1871235000001,None,718.1871235000001,None,,,,,,,,,,,P035,FENCOG,1,Pre,2022_Apr_11_1109,Go No-Go Task,2021.1.4,120.13714856866733,
