CondFileP,Instructions,FaceE,Express,ColourT,ColourF,CorrectAnsP,MasterCondFile,BlockOrder,CondFile,ColCheck,Triplicate_check,SORT_BY_SMALLEST,EPracticeOuterLoop.thisRepN,EPracticeOuterLoop.thisTrialN,EPracticeOuterLoop.thisN,EPracticeOuterLoop.thisIndex,EPracticeInnerLoop.thisRepN,EPracticeInnerLoop.thisTrialN,EPracticeInnerLoop.thisN,EPracticeInnerLoop.thisIndex,MasterLoop.thisRepN,MasterLoop.thisTrialN,MasterLoop.thisN,MasterLoop.thisIndex,OuterLoop.thisRepN,OuterLoop.thisTrialN,OuterLoop.thisN,OuterLoop.thisIndex,InnerLoop.thisRepN,InnerLoop.thisTrialN,InnerLoop.thisN,InnerLoop.thisIndex,text_13.started,text_13.stopped,key_resp_10.keys,key_resp_10.rt,key_resp_10.started,key_resp_10.stopped,text4.started,text4.stopped,EmotionTaskInstructions1.keys,EmotionTaskInstructions1.rt,EmotionTaskInstructions1.started,EmotionTaskInstructions1.stopped,text_4.started,text_4.stopped,key_resp_5.keys,key_resp_5.rt,key_resp_5.started,key_resp_5.stopped,Text_14.started,Text_14.stopped,key_resp_9.keys,key_resp_9.rt,key_resp_9.started,key_resp_9.stopped,text_5.started,text_5.stopped,text_6.started,text_6.stopped,key_resp_7.keys,key_resp_7.rt,key_resp_7.started,key_resp_7.stopped,text_10.started,text_10.stopped,text_11.started,text_11.stopped,text_12.started,text_12.stopped,ISIjitterPractice,EPracticeISIMarker.started,EPracticeISIMarker.stopped,Pract.keys,Pract.corr,Pract.started,Pract.stopped,PracticeFace.started,PracticeFace.stopped,ColourPractice.started,ColourPractice.stopped,text_7.started,text_7.stopped,Pract.rt,EndOfPractice.started,EndOfPractice.stopped,key_resp_8.keys,key_resp_8.rt,key_resp_8.started,key_resp_8.stopped,text_8.started,text_8.stopped,key_resp_6.keys,key_resp_6.rt,key_resp_6.started,key_resp_6.stopped,text_2.started,text_2.stopped,text_3.started,text_3.stopped,key_resp_3.keys,key_resp_3.rt,key_resp_3.started,key_resp_3.stopped,TaskBlock.started,TaskBlock.stopped,BlockNo1.started,BlockNo1.stopped,OfBlock.started,OfBlock.stopped,ISIjitter,ISImarker.started,ISImarker.stopped,key_resp.keys,key_resp.corr,key_resp.started,key_resp.stopped,FaceSet.started,FaceSet.stopped,Colour.started,Colour.stopped,key_resp.rt,EndBlockText.started,EndBlockText.stopped,key_resp_4.keys,key_resp_4.rt,key_resp_4.started,key_resp_4.stopped,BreakText2.started,BreakText2.stopped,PressToContinue.started,PressToContinue.stopped,participant,Study Name,Task Version (required to run),PRE/POST,date,expName,psychopyVersion,frameRate,
,,,,,,,,,,,,,,,,,,,,,,,,,,,,,,,,,224.089359399979,None,space,38.02846659999341,225.07539329997962,None,,,,,,,,,,,,,,,,,,,,,,,,,,,,,,,,,,,,,,,,,,,,,,,,,,,,,,,,,,,,,,,,,,,,,,,,,,,,,,,,,,,,,,,,,,,,,,,P036,FENCOG,2,Pre,2022_Apr_13_1049,Go No-Go Task,2021.1.4,120.07396555287443,
,,,,,,,,,,,,,,,,,,,,,,,,,,,,,,,,,,,,,,,264.58270459997584,None,space,13.105290600011358,264.58270459997584,None,,,,,,,,,,,,,,,,,,,,,,,,,,,,,,,,,,,,,,,,,,,,,,,,,,,,,,,,,,,,,,,,,,,,,,,,,,,,,,,,,,,,,,,,,P036,FENCOG,2,Pre,2022_Apr_13_1049,Go No-Go Task,2021.1.4,120.07396555287443,
,,,,,,,,,,,,,,,,,,,,,,,,,,,,,,,,,,,,,,,,,,,,,277.7550384999777,None,space,11.133070800016867,277.7550384999777,None,,,,,,,,,,,,,,,,,,,,,,,,,,,,,,,,,,,,,,,,,,,,,,,,,,,,,,,,,,,,,,,,,,,,,,,,,,,,,,,,,,,P036,FENCOG,2,Pre,2022_Apr_13_1049,Go No-Go Task,2021.1.4,120.07396555287443,
,,,,,,,,,,,,,,,,,,,,,,,,,,,,,,,,,,,,,,,,,,,,,,,,,,,288.8992175999738,None,space,4.716810699988855,288.8992175999738,None,,,,,,,,,,,,,,,,,,,,,,,,,,,,,,,,,,,,,,,,,,,,,,,,,,,,,,,,,,,,,,,,,,,,,,,,,,,,,P036,FENCOG,2,Pre,2022_Apr_13_1049,Go No-Go Task,2021.1.4,120.07396555287443,
EPracticeConditions/BlueEyes.csv,"Rule: When you see a blue image, do not press 'spacebar'.",Images/Fearful/HM09_FC.jpg,Fear,Blue,Images/Blue.jpg,None,,,,,,,0,0,0,0,0,0,0,0,,,,,,,,,,,,,,,,,,,,,,,,,,,,,,,,,,,,,293.69272769999225,None,296.67877199998475,None,space,1.2171987000037916,296.67877199998475,None,293.69272769999225,None,293.69272769999225,None,293.69272769999225,None,1.2,298.07876259999466,None,None,1,299.4090392999933,None,299.4090392999933,None,299.4090392999933,None,300.84188519997406,None,,,,,,,,,,,,,,,,,,,,,,,,,,,,,,,,,,,,,,,,,,,,,,,,,,P036,FENCOG,2,Pre,2022_Apr_13_1049,Go No-Go Task,2021.1.4,120.07396555287443,
EPracticeConditions/BlueEyes.csv,"Rule: When you see a blue image, do not press 'spacebar'.",Images/Happy/HF10_HE.jpg,Happy,Yellow,Images/Yellow.jpg,space,,,,,,,0,0,0,0,0,1,1,7,,,,,,,,,,,,,,,,,,,,,,,,,,,,,,,,,,,,,,,,,,,,,,,,,,,1.5,302.31595019999077,None,None,0,303.9441292999836,None,303.9441292999836,None,303.9441292999836,None,304.8339447999897,None,,,,,,,,,,,,,,,,,,,,,,,,,,,,,,,,,,,,,,,,,,,,,,,,,,P036,FENCOG,2,Pre,2022_Apr_13_1049,Go No-Go Task,2021.1.4,120.07396555287443,
EPracticeConditions/BlueEyes.csv,"Rule: When you see a blue image, do not press 'spacebar'.",Images/Fearful/AF01_FO.jpg,Fear,Blue,Images/Blue.jpg,None,,,,,,,0,0,0,0,0,2,2,1,,,,,,,,,,,,,,,,,,,,,,,,,,,,,,,,,,,,,,,,,,,,,,,,,,,1.7,306.8259079999989,None,None,1,308.6346943999815,None,308.6346943999815,None,308.6346943999815,None,309.5284546999901,None,,,,,,,,,,,,,,,,,,,,,,,,,,,,,,,,,,,,,,,,,,,,,,,,,,P036,FENCOG,2,Pre,2022_Apr_13_1049,Go No-Go Task,2021.1.4,120.07396555287443,
EPracticeConditions/BlueEyes.csv,"Rule: When you see a blue image, do not press 'spacebar'.",Images/Happy/BM02_HO.jpg,Happy,Yellow,Images/Yellow.jpg,space,,,,,,,0,0,0,0,0,3,3,2,,,,,,,,,,,,,,,,,,,,,,,,,,,,,,,,,,,,,,,,,,,,,,,,,,,1.8,311.5328700999962,None,space,1,313.44147229997907,None,313.44147229997907,None,313.44147229997907,None,314.3360763999808,None,0.2630463000095915,,,,,,,,,,,,,,,,,,,,,,,,,,,,,,,,,,,,,,,,,,,,,,,,,P036,FENCOG,2,Pre,2022_Apr_13_1049,Go No-Go Task,2021.1.4,120.07396555287443,
EPracticeConditions/BlueEyes.csv,"Rule: When you see a blue image, do not press 'spacebar'.",Images/Happy/HF09_HE.jpg,Happy,Yellow,Images/Yellow.jpg,space,,,,,,,0,0,0,0,0,4,4,6,,,,,,,,,,,,,,,,,,,,,,,,,,,,,,,,,,,,,,,,,,,,,,,,,,,1.9,316.33972329998505,None,space,1,318.34803259998444,None,318.34803259998444,None,318.34803259998444,None,319.24138479999965,None,0.2123145000077784,,,,,,,,,,,,,,,,,,,,,,,,,,,,,,,,,,,,,,,,,,,,,,,,,P036,FENCOG,2,Pre,2022_Apr_13_1049,Go No-Go Task,2021.1.4,120.07396555287443,
EPracticeConditions/BlueEyes.csv,"Rule: When you see a blue image, do not press 'spacebar'.",Images/Happy/BM08_HO.jpg,Happy,Yellow,Images/Yellow.jpg,space,,,,,,,0,0,0,0,0,5,5,3,,,,,,,,,,,,,,,,,,,,,,,,,,,,,,,,,,,,,,,,,,,,,,,,,,,1.3,321.24660799998674,None,space,1,322.6561193999951,None,322.6561193999951,None,322.6561193999951,None,323.5412377999746,None,0.32825779999257065,,,,,,,,,,,,,,,,,,,,,,,,,,,,,,,,,,,,,,,,,,,,,,,,,P036,FENCOG,2,Pre,2022_Apr_13_1049,Go No-Go Task,2021.1.4,120.07396555287443,
EPracticeConditions/BlueEyes.csv,"Rule: When you see a blue image, do not press 'spacebar'.",Images/Happy/HF05_HO.jpg,Happy,Yellow,Images/Yellow.jpg,space,,,,,,,0,0,0,0,0,6,6,5,,,,,,,,,,,,,,,,,,,,,,,,,,,,,,,,,,,,,,,,,,,,,,,,,,,1.6,325.5456423999858,None,space,1,327.24581599998055,None,327.24581599998055,None,327.24581599998055,None,328.1510464999883,None,0.23479039999074303,,,,,,,,,,,,,,,,,,,,,,,,,,,,,,,,,,,,,,,,,,,,,,,,,P036,FENCOG,2,Pre,2022_Apr_13_1049,Go No-Go Task,2021.1.4,120.07396555287443,
EPracticeConditions/BlueEyes.csv,"Rule: When you see a blue image, do not press 'spacebar'.",Images/Happy/HF04_HE.jpg,Happy,Yellow,Images/Yellow.jpg,space,,,,,,,0,0,0,0,0,7,7,4,,,,,,,,,,,,,,,,,,,,,,,,,,,,,,,,,,,,,,,,,,,,,,,,,,,1.4,330.15436789998785,None,space,1,331.66941049997695,None,331.66941049997695,None,331.66941049997695,None,332.5656656999781,None,0.2749048999976367,,,,,,,,,,,,,,,,,,,,,,,,,,,,,,,,,,,,,,,,,,,,,,,,,P036,FENCOG,2,Pre,2022_Apr_13_1049,Go No-Go Task,2021.1.4,120.07396555287443,
EPracticeConditions/BlueEyes.csv,"Rule: When you see a blue image, do not press 'spacebar'.",,,,,,,,,,,,0,0,0,0,,,,,,,,,,,,,,,,,,,,,,,,,,,,,,,,,,,,,,,,,,,,,,,,,,,,,,,,,,,,,,,,,,,,,,,,,,,,,,,,,,,,,,,,,,,,,,,,,,,,,,,,,,,,,,,,,,,,,P036,FENCOG,2,Pre,2022_Apr_13_1049,Go No-Go Task,2021.1.4,120.07396555287443,
EPracticeConditions/YellowEyes.csv,"Rule: When you see a yellow image, do not press 'spacebar'.",Images/Fearful/AM24AFS.jpg,Fear,Blue,Images/Blue.jpg,space,,,,,,,0,1,1,1,0,0,0,7,,,,,,,,,,,,,,,,,,,,,,,,,,,,,,,,,,,,,334.5859980999958,None,337.57547209999757,None,space,2.8006300999841187,337.57547209999757,None,334.5859980999958,None,334.5859980999958,None,334.5859980999958,None,1.3,340.3990989999729,None,space,1,341.80811699997867,None,341.80811699997867,None,341.80811699997867,None,342.7043971999956,None,0.3201433999929577,,,,,,,,,,,,,,,,,,,,,,,,,,,,,,,,,,,,,,,,,,,,,,,,,P036,FENCOG,2,Pre,2022_Apr_13_1049,Go No-Go Task,2021.1.4,120.07396555287443,
EPracticeConditions/YellowEyes.csv,"Rule: When you see a yellow image, do not press 'spacebar'.",Images/Fearful/AM17AFS.jpg,Fear,Blue,Images/Blue.jpg,space,,,,,,,0,1,1,1,0,1,1,3,,,,,,,,,,,,,,,,,,,,,,,,,,,,,,,,,,,,,,,,,,,,,,,,,,,1.6,344.70639279999887,None,space,1,346.41508899998735,None,346.41508899998735,None,346.41508899998735,None,347.3113802000007,None,0.35334170001442544,,,,,,,,,,,,,,,,,,,,,,,,,,,,,,,,,,,,,,,,,,,,,,,,,P036,FENCOG,2,Pre,2022_Apr_13_1049,Go No-Go Task,2021.1.4,120.07396555287443,
EPracticeConditions/YellowEyes.csv,"Rule: When you see a yellow image, do not press 'spacebar'.",Images/Fearful/AM22AFS.jpg,Fear,Blue,Images/Blue.jpg,space,,,,,,,0,1,1,1,0,2,2,5,,,,,,,,,,,,,,,,,,,,,,,,,,,,,,,,,,,,,,,,,,,,,,,,,,,1.5,349.3133045999857,None,space,1,350.92215119997854,None,350.92215119997854,None,350.92215119997854,None,351.81896340000094,None,0.33419799999683164,,,,,,,,,,,,,,,,,,,,,,,,,,,,,,,,,,,,,,,,,,,,,,,,,P036,FENCOG,2,Pre,2022_Apr_13_1049,Go No-Go Task,2021.1.4,120.07396555287443,
EPracticeConditions/YellowEyes.csv,"Rule: When you see a yellow image, do not press 'spacebar'.",Images/Fearful/AM19AFS.jpg,Fear,Blue,Images/Blue.jpg,space,,,,,,,0,1,1,1,0,3,3,4,,,,,,,,,,,,,,,,,,,,,,,,,,,,,,,,,,,,,,,,,,,,,,,,,,,1.2,353.8213993999816,None,space,1,355.13756029997603,None,355.13756029997603,None,355.13756029997603,None,356.0289552999893,None,0.35110629998962395,,,,,,,,,,,,,,,,,,,,,,,,,,,,,,,,,,,,,,,,,,,,,,,,,P036,FENCOG,2,Pre,2022_Apr_13_1049,Go No-Go Task,2021.1.4,120.07396555287443,
EPracticeConditions/YellowEyes.csv,"Rule: When you see a yellow image, do not press 'spacebar'.",Images/Fearful/AM16AFS.jpg,Fear,Blue,Images/Blue.jpg,space,,,,,,,0,1,1,1,0,4,4,2,,,,,,,,,,,,,,,,,,,,,,,,,,,,,,,,,,,,,,,,,,,,,,,,,,,1.8,358.02744919998804,None,space,1,359.93604089997825,None,359.93604089997825,None,359.93604089997825,None,360.8338432999735,None,0.3604761000024155,,,,,,,,,,,,,,,,,,,,,,,,,,,,,,,,,,,,,,,,,,,,,,,,,P036,FENCOG,2,Pre,2022_Apr_13_1049,Go No-Go Task,2021.1.4,120.07396555287443,
EPracticeConditions/YellowEyes.csv,"Rule: When you see a yellow image, do not press 'spacebar'.",Images/Fearful/AM23AFS.jpg,Fear,Blue,Images/Blue.jpg,space,,,,,,,0,1,1,1,0,5,5,6,,,,,,,,,,,,,,,,,,,,,,,,,,,,,,,,,,,,,,,,,,,,,,,,,,,1.9,362.8342909999774,None,space,1,364.8430615999969,None,364.8430615999969,None,364.8430615999969,None,365.73393869999563,None,0.3251841999881435,,,,,,,,,,,,,,,,,,,,,,,,,,,,,,,,,,,,,,,,,,,,,,,,,P036,FENCOG,2,Pre,2022_Apr_13_1049,Go No-Go Task,2021.1.4,120.07396555287443,
EPracticeConditions/YellowEyes.csv,"Rule: When you see a yellow image, do not press 'spacebar'.",Images/Happy/AM32HAS.jpg,Happy,Yellow,Images/Yellow.jpg,None,,,,,,,0,1,1,1,0,6,6,0,,,,,,,,,,,,,,,,,,,,,,,,,,,,,,,,,,,,,,,,,,,,,,,,,,,1.4,367.7375732999935,None,None,1,369.25001309998333,None,369.25001309998333,None,369.25001309998333,None,370.14519499999005,None,,,,,,,,,,,,,,,,,,,,,,,,,,,,,,,,,,,,,,,,,,,,,,,,,,P036,FENCOG,2,Pre,2022_Apr_13_1049,Go No-Go Task,2021.1.4,120.07396555287443,
EPracticeConditions/YellowEyes.csv,"Rule: When you see a yellow image, do not press 'spacebar'.",Images/Happy/BF05_HO.jpg,Happy,Yellow,Images/Yellow.jpg,None,,,,,,,0,1,1,1,0,7,7,1,,,,,,,,,,,,,,,,,,,,,,,,,,,,,,,,,,,,,,,,,,,,,,,,,,,1.7,372.1481295999838,None,None,1,373.95692529997905,None,373.95692529997905,None,373.95692529997905,None,374.8475656999799,None,,,,,,,,,,,,,,,,,,,,,,,,,,,,,,,,,,,,,,,,,,,,,,,,,,P036,FENCOG,2,Pre,2022_Apr_13_1049,Go No-Go Task,2021.1.4,120.07396555287443,
EPracticeConditions/YellowEyes.csv,"Rule: When you see a yellow image, do not press 'spacebar'.",,,,,,,,,,,,0,1,1,1,,,,,,,,,,,,,,,,,,,,,,,,,,,,,,,,,,,,,,,,,,,,,,,,,,,,,,,,,,,,,,,,,,,,,,,,,,,,,,,,,,,,,,,,,,,,,,,,,,,,,,,,,,,,,,,,,,,,,P036,FENCOG,2,Pre,2022_Apr_13_1049,Go No-Go Task,2021.1.4,120.07396555287443,
EPracticeConditions/BlueScram.csv,"Rule: When you see a blue image, do not press 'spacebar'.",Images/Scram1/AM03NES.jpg,Scramble,Yellow,Images/Yellow.jpg,space,,,,,,,0,2,2,2,0,0,0,4,,,,,,,,,,,,,,,,,,,,,,,,,,,,,,,,,,,,,376.85868039997877,None,379.84630939998897,None,space,1.2976854000007734,379.84630939998897,None,376.85868039997877,None,376.85868039997877,None,376.85868039997877,None,1.4,381.1697132999834,None,None,0,382.67947809997713,None,382.67947809997713,None,382.67947809997713,None,383.58546699999715,None,,,,,,,,,,,,,,,,,,,,,,,,,,,,,,,,,,,,,,,,,,,,,,,,,,P036,FENCOG,2,Pre,2022_Apr_13_1049,Go No-Go Task,2021.1.4,120.07396555287443,
EPracticeConditions/BlueScram.csv,"Rule: When you see a blue image, do not press 'spacebar'.",Images/Scram1/BF18_NC.jpg,Scramble,Blue,Images/Blue.jpg,None,,,,,,,0,2,2,2,0,1,1,1,,,,,,,,,,,,,,,,,,,,,,,,,,,,,,,,,,,,,,,,,,,,,,,,,,,1.6,385.57768709998345,None,None,1,387.2781336999906,None,387.2781336999906,None,387.2781336999906,None,388.1829204999958,None,,,,,,,,,,,,,,,,,,,,,,,,,,,,,,,,,,,,,,,,,,,,,,,,,,P036,FENCOG,2,Pre,2022_Apr_13_1049,Go No-Go Task,2021.1.4,120.07396555287443,
EPracticeConditions/BlueScram.csv,"Rule: When you see a blue image, do not press 'spacebar'.",Images/Scram2/AM03_NC.jpg,Scramble,Yellow,Images/Yellow.jpg,space,,,,,,,0,2,2,2,0,2,2,6,,,,,,,,,,,,,,,,,,,,,,,,,,,,,,,,,,,,,,,,,,,,,,,,,,,1.2,390.18453199998476,None,space,1,391.4935126999917,None,391.4935126999917,None,391.4935126999917,None,392.3839299999818,None,0.3226076999853831,,,,,,,,,,,,,,,,,,,,,,,,,,,,,,,,,,,,,,,,,,,,,,,,,P036,FENCOG,2,Pre,2022_Apr_13_1049,Go No-Go Task,2021.1.4,120.07396555287443,
EPracticeConditions/BlueScram.csv,"Rule: When you see a blue image, do not press 'spacebar'.",Images/Scram2/AF10_NC.jpg,Scramble,Yellow,Images/Yellow.jpg,space,,,,,,,0,2,2,2,0,3,3,2,,,,,,,,,,,,,,,,,,,,,,,,,,,,,,,,,,,,,,,,,,,,,,,,,,,1.9,394.3837999999814,None,space,1,396.3920702999749,None,396.3920702999749,None,396.3920702999749,None,397.28251579997595,None,0.2802551000204403,,,,,,,,,,,,,,,,,,,,,,,,,,,,,,,,,,,,,,,,,,,,,,,,,P036,FENCOG,2,Pre,2022_Apr_13_1049,Go No-Go Task,2021.1.4,120.07396555287443,
EPracticeConditions/BlueScram.csv,"Rule: When you see a blue image, do not press 'spacebar'.",Images/Scram2/AF25NES.jpg,Scramble,Yellow,Images/Yellow.jpg,space,,,,,,,0,2,2,2,0,4,4,7,,,,,,,,,,,,,,,,,,,,,,,,,,,,,,,,,,,,,,,,,,,,,,,,,,,1.3,399.2822229999874,None,space,1,400.69085549999727,None,400.69085549999727,None,400.69085549999727,None,401.5865627999883,None,0.32571020000614226,,,,,,,,,,,,,,,,,,,,,,,,,,,,,,,,,,,,,,,,,,,,,,,,,P036,FENCOG,2,Pre,2022_Apr_13_1049,Go No-Go Task,2021.1.4,120.07396555287443,
EPracticeConditions/BlueScram.csv,"Rule: When you see a blue image, do not press 'spacebar'.",Images/Scram1/AM04_NC.jpg,Scramble,Yellow,Images/Yellow.jpg,space,,,,,,,0,2,2,2,0,5,5,3,,,,,,,,,,,,,,,,,,,,,,,,,,,,,,,,,,,,,,,,,,,,,,,,,,,1.5,403.5890330999973,None,space,1,405.1978515999799,None,405.1978515999799,None,405.1978515999799,None,406.09349889997975,None,0.3143102999893017,,,,,,,,,,,,,,,,,,,,,,,,,,,,,,,,,,,,,,,,,,,,,,,,,P036,FENCOG,2,Pre,2022_Apr_13_1049,Go No-Go Task,2021.1.4,120.07396555287443,
EPracticeConditions/BlueScram.csv,"Rule: When you see a blue image, do not press 'spacebar'.",Images/Scram1/BM08_NC.jpg,Scramble,Blue,Images/Blue.jpg,None,,,,,,,0,2,2,2,0,6,6,0,,,,,,,,,,,,,,,,,,,,,,,,,,,,,,,,,,,,,,,,,,,,,,,,,,,1.7,408.09602119997726,None,None,1,409.9047741999966,None,409.9047741999966,None,409.9047741999966,None,410.80111619998934,None,,,,,,,,,,,,,,,,,,,,,,,,,,,,,,,,,,,,,,,,,,,,,,,,,,P036,FENCOG,2,Pre,2022_Apr_13_1049,Go No-Go Task,2021.1.4,120.07396555287443,
EPracticeConditions/BlueScram.csv,"Rule: When you see a blue image, do not press 'spacebar'.",Images/Scram1/AM13NES.jpg,Scramble,Yellow,Images/Yellow.jpg,space,,,,,,,0,2,2,2,0,7,7,5,,,,,,,,,,,,,,,,,,,,,,,,,,,,,,,,,,,,,,,,,,,,,,,,,,,1.8,412.80307840000023,None,space,1,414.7116895999934,None,414.7116895999934,None,414.7116895999934,None,415.60745999999926,None,0.2483143999997992,,,,,,,,,,,,,,,,,,,,,,,,,,,,,,,,,,,,,,,,,,,,,,,,,P036,FENCOG,2,Pre,2022_Apr_13_1049,Go No-Go Task,2021.1.4,120.07396555287443,
EPracticeConditions/BlueScram.csv,"Rule: When you see a blue image, do not press 'spacebar'.",,,,,,,,,,,,0,2,2,2,,,,,,,,,,,,,,,,,,,,,,,,,,,,,,,,,,,,,,,,,,,,,,,,,,,,,,,,,,,,,,,,,,,,,,,,,,,,,,,,,,,,,,,,,,,,,,,,,,,,,,,,,,,,,,,,,,,,,P036,FENCOG,2,Pre,2022_Apr_13_1049,Go No-Go Task,2021.1.4,120.07396555287443,
EPracticeConditions/YellowScram.csv,"Rule: When you see a yellow image, do not press 'spacebar'.",Images/Scram1/AF07NES.jpg,Scramble,Blue,Images/Blue.jpg,space,,,,,,,0,3,3,3,0,0,0,3,,,,,,,,,,,,,,,,,,,,,,,,,,,,,,,,,,,,,417.62070759999915,None,420.609277999989,None,space,1.062992099992698,420.609277999989,None,417.62070759999915,None,417.62070759999915,None,417.62070759999915,None,1.9,421.6939300999802,None,space,1,423.70066589998896,None,423.70066589998896,None,423.70066589998896,None,424.5968753999914,None,0.31544820000999607,,,,,,,,,,,,,,,,,,,,,,,,,,,,,,,,,,,,,,,,,,,,,,,,,P036,FENCOG,2,Pre,2022_Apr_13_1049,Go No-Go Task,2021.1.4,120.07396555287443,
EPracticeConditions/YellowScram.csv,"Rule: When you see a yellow image, do not press 'spacebar'.",Images/Scram2/HM06_NC.jpg,Scramble,Yellow,Images/Yellow.jpg,None,,,,,,,0,3,3,3,0,1,1,0,,,,,,,,,,,,,,,,,,,,,,,,,,,,,,,,,,,,,,,,,,,,,,,,,,,1.8,426.6003006999963,None,None,1,428.5158401999797,None,428.5158401999797,None,428.5158401999797,None,429.4097820999741,None,,,,,,,,,,,,,,,,,,,,,,,,,,,,,,,,,,,,,,,,,,,,,,,,,,P036,FENCOG,2,Pre,2022_Apr_13_1049,Go No-Go Task,2021.1.4,120.07396555287443,
EPracticeConditions/YellowScram.csv,"Rule: When you see a yellow image, do not press 'spacebar'.",Images/Scram1/AF24NES.jpg,Scramble,Blue,Images/Blue.jpg,space,,,,,,,0,3,3,3,0,2,2,7,,,,,,,,,,,,,,,,,,,,,,,,,,,,,,,,,,,,,,,,,,,,,,,,,,,1.7,431.4143098999921,None,space,1,433.22281009997823,None,433.22281009997823,None,433.22281009997823,None,434.11295359997894,None,0.35317469999426976,,,,,,,,,,,,,,,,,,,,,,,,,,,,,,,,,,,,,,,,,,,,,,,,,P036,FENCOG,2,Pre,2022_Apr_13_1049,Go No-Go Task,2021.1.4,120.07396555287443,
EPracticeConditions/YellowScram.csv,"Rule: When you see a yellow image, do not press 'spacebar'.",Images/Scram2/AM03NES.jpg,Scramble,Yellow,Images/Yellow.jpg,None,,,,,,,0,3,3,3,0,3,3,1,,,,,,,,,,,,,,,,,,,,,,,,,,,,,,,,,,,,,,,,,,,,,,,,,,,1.2,436.1123880999803,None,None,1,437.4128221999854,None,437.4128221999854,None,437.4128221999854,None,438.30339219997404,None,,,,,,,,,,,,,,,,,,,,,,,,,,,,,,,,,,,,,,,,,,,,,,,,,,P036,FENCOG,2,Pre,2022_Apr_13_1049,Go No-Go Task,2021.1.4,120.07396555287443,
EPracticeConditions/YellowScram.csv,"Rule: When you see a yellow image, do not press 'spacebar'.",Images/Scram1/HF04_NC.jpg,Scramble,Blue,Images/Blue.jpg,space,,,,,,,0,3,3,3,0,4,4,2,,,,,,,,,,,,,,,,,,,,,,,,,,,,,,,,,,,,,,,,,,,,,,,,,,,1.3,440.3028370999964,None,space,1,441.7115372999979,None,441.7115372999979,None,441.7115372999979,None,442.6021373999829,None,0.2324967999884393,,,,,,,,,,,,,,,,,,,,,,,,,,,,,,,,,,,,,,,,,,,,,,,,,P036,FENCOG,2,Pre,2022_Apr_13_1049,Go No-Go Task,2021.1.4,120.07396555287443,
EPracticeConditions/YellowScram.csv,"Rule: When you see a yellow image, do not press 'spacebar'.",Images/Scram1/BM01_NC.jpg,Scramble,Blue,Images/Blue.jpg,space,,,,,,,0,3,3,3,0,5,5,5,,,,,,,,,,,,,,,,,,,,,,,,,,,,,,,,,,,,,,,,,,,,,,,,,,,1.5,444.6016352000006,None,space,1,446.2018902999989,None,446.2018902999989,None,446.2018902999989,None,447.0924852999742,None,0.3100453999941237,,,,,,,,,,,,,,,,,,,,,,,,,,,,,,,,,,,,,,,,,,,,,,,,,P036,FENCOG,2,Pre,2022_Apr_13_1049,Go No-Go Task,2021.1.4,120.07396555287443,
EPracticeConditions/YellowScram.csv,"Rule: When you see a yellow image, do not press 'spacebar'.",Images/Scram1/AF30NES.JPG,Scramble,Blue,Images/Blue.jpg,space,,,,,,,0,3,3,3,0,6,6,4,,,,,,,,,,,,,,,,,,,,,,,,,,,,,,,,,,,,,,,,,,,,,,,,,,,1.6,449.0919078999723,None,space,1,450.8005245999957,None,450.8005245999957,None,450.8005245999957,None,451.6911637999874,None,0.36743299997760914,,,,,,,,,,,,,,,,,,,,,,,,,,,,,,,,,,,,,,,,,,,,,,,,,P036,FENCOG,2,Pre,2022_Apr_13_1049,Go No-Go Task,2021.1.4,120.07396555287443,
EPracticeConditions/YellowScram.csv,"Rule: When you see a yellow image, do not press 'spacebar'.",Images/Scram1/AF10_NC.jpg,Scramble,Blue,Images/Blue.jpg,space,,,,,,,0,3,3,3,0,7,7,6,,,,,,,,,,,,,,,,,,,,,,,,,,,,,,,,,,,,,,,,,,,,,,,,,,,1.4,453.69075099998736,None,space,1,455.19975569998496,None,455.19975569998496,None,455.19975569998496,None,456.0965773999924,None,0.296422999992501,,,,,,,,,,,,,,,,,,,,,,,,,,,,,,,,,,,,,,,,,,,,,,,,,P036,FENCOG,2,Pre,2022_Apr_13_1049,Go No-Go Task,2021.1.4,120.07396555287443,
EPracticeConditions/YellowScram.csv,"Rule: When you see a yellow image, do not press 'spacebar'.",,,,,,,,,,,,0,3,3,3,,,,,,,,,,,,,,,,,,,,,,,,,,,,,,,,,,,,,,,,,,,,,,,,,,,,,,,,,,,,,,,,,,,,,,,,,,,,,,,,,,,,,,,,,,,,,,,,,,,,,,,,,,,,,,,,,,,,,P036,FENCOG,2,Pre,2022_Apr_13_1049,Go No-Go Task,2021.1.4,120.07396555287443,
,,,,,,,,,,,,,,,,,,,,,,,,,,,,,,,,,,,,,,,,,,,,,,,,,,,,,,,,,,,,,,,,,,,,,,,,,,,,,,,,,,,,,459.38507339998614,None,space,7.8878247999819,459.86449919998995,None,,,,,,,,,,,,,,,,,,,,,,,,,,,,,,,,,,,,,,,,,,,P036,FENCOG,2,Pre,2022_Apr_13_1049,Go No-Go Task,2021.1.4,120.07396555287443,
,,,,,,,,,,,,,,,,,,,,,,,,,,,,,,,,,,,,,,,,,,,,,,,,,,,,,,,,,,,,,,,,,,,,,,,,,,,,,,,,,,,,,,,,,,,467.7628188999952,None,space,1.6375860999978613,467.7628188999952,None,,,,,,,,,,,,,,,,,,,,,,,,,,,,,,,,,,,,,P036,FENCOG,2,Pre,2022_Apr_13_1049,Go No-Go Task,2021.1.4,120.07396555287443,
,"Rule: When you see a yellow image, do not press 'spacebar'.",Images/Happy/BF09_HO.jpg,Happy,Blue,Images/Blue.jpg,space,ParentConditions/YellowYellowBlue_v2.xlsx,YellowYellowBlue,Conditions/Version_2/YellowFearStop.xlsx,no,PASS,0.2009685743777515,,,,,,,,,0,0,0,1,0,0,0,0,0,0,0,0,,,,,,,,,,,,,,,,,,,,,,,,,,,,,,,,,,,,,,,,,,,,,,,,,,,,,,,,,,,,,,,,,469.4992296999844,None,472.4854150999745,None,space,2.0424664999882225,472.4854150999745,None,469.4992296999844,None,469.4992296999844,None,469.4992296999844,None,1.26,474.5960991999891,None,None,0,475.96847689998685,None,475.96847689998685,None,475.96847689998685,None,,,,,,,,,,,,P036,FENCOG,2,Pre,2022_Apr_13_1049,Go No-Go Task,2021.1.4,120.07396555287443,
,"Rule: When you see a yellow image, do not press 'spacebar'.",Images/Happy/AF30HAS.jpg,Happy,Blue,Images/Blue.jpg,space,ParentConditions/YellowYellowBlue_v2.xlsx,YellowYellowBlue,Conditions/Version_2/YellowFearStop.xlsx,no,PASS,0.9679561444510932,,,,,,,,,0,0,0,1,0,0,0,0,0,1,1,1,,,,,,,,,,,,,,,,,,,,,,,,,,,,,,,,,,,,,,,,,,,,,,,,,,,,,,,,,,,,,,,,,,,,,,,,,,,,,,,1.45,476.3686632999743,None,space,1,477.9346021999954,None,477.9346021999954,None,477.9346021999954,None,0.3054405000002589,,,,,,,,,,,P036,FENCOG,2,Pre,2022_Apr_13_1049,Go No-Go Task,2021.1.4,120.07396555287443,
,"Rule: When you see a yellow image, do not press 'spacebar'.",Images/Happy/AF27HAS.jpg,Happy,Blue,Images/Blue.jpg,space,ParentConditions/YellowYellowBlue_v2.xlsx,YellowYellowBlue,Conditions/Version_2/YellowFearStop.xlsx,no,PASS,0.024466481670397555,,,,,,,,,0,0,0,1,0,0,0,0,0,2,2,2,,,,,,,,,,,,,,,,,,,,,,,,,,,,,,,,,,,,,,,,,,,,,,,,,,,,,,,,,,,,,,,,,,,,,,,,,,,,,,,1.72,478.33357550000073,None,space,1,480.1673875999986,None,480.1673875999986,None,480.1673875999986,None,0.2808750999975018,,,,,,,,,,,P036,FENCOG,2,Pre,2022_Apr_13_1049,Go No-Go Task,2021.1.4,120.07396555287443,
,"Rule: When you see a yellow image, do not press 'spacebar'.",Images/Happy/AF22HAS.jpg,Happy,Blue,Images/Blue.jpg,space,ParentConditions/YellowYellowBlue_v2.xlsx,YellowYellowBlue,Conditions/Version_2/YellowFearStop.xlsx,no,PASS,0.900419425166189,,,,,,,,,0,0,0,1,0,0,0,0,0,3,3,3,,,,,,,,,,,,,,,,,,,,,,,,,,,,,,,,,,,,,,,,,,,,,,,,,,,,,,,,,,,,,,,,,,,,,,,,,,,,,,,1.77,480.57116719998885,None,space,1,482.4415660999948,None,482.4415660999948,None,482.4415660999948,None,0.2786694999958854,,,,,,,,,,,P036,FENCOG,2,Pre,2022_Apr_13_1049,Go No-Go Task,2021.1.4,120.07396555287443,
,"Rule: When you see a yellow image, do not press 'spacebar'.",Images/Happy/WM11_HC.jpg,Happy,Blue,Images/Blue.jpg,space,ParentConditions/YellowYellowBlue_v2.xlsx,YellowYellowBlue,Conditions/Version_2/YellowFearStop.xlsx,no,PASS,0.5042081063795358,,,,,,,,,0,0,0,1,0,0,0,0,0,4,4,4,,,,,,,,,,,,,,,,,,,,,,,,,,,,,,,,,,,,,,,,,,,,,,,,,,,,,,,,,,,,,,,,,,,,,,,,,,,,,,,1.29,482.8422234999889,None,space,1,484.2409959999786,None,484.2409959999786,None,484.2409959999786,None,0.30312440000125207,,,,,,,,,,,P036,FENCOG,2,Pre,2022_Apr_13_1049,Go No-Go Task,2021.1.4,120.07396555287443,
,"Rule: When you see a yellow image, do not press 'spacebar'.",Images/Happy/BF05_HO.jpg,Happy,Blue,Images/Blue.jpg,space,ParentConditions/YellowYellowBlue_v2.xlsx,YellowYellowBlue,Conditions/Version_2/YellowFearStop.xlsx,no,PASS,0.6687720633168746,,,,,,,,,0,0,0,1,0,0,0,0,0,5,5,5,,,,,,,,,,,,,,,,,,,,,,,,,,,,,,,,,,,,,,,,,,,,,,,,,,,,,,,,,,,,,,,,,,,,,,,,,,,,,,,1.58,484.63994749999256,None,space,1,486.33214419998694,None,486.33214419998694,None,486.33214419998694,None,0.26040159998228773,,,,,,,,,,,P036,FENCOG,2,Pre,2022_Apr_13_1049,Go No-Go Task,2021.1.4,120.07396555287443,
,"Rule: When you see a yellow image, do not press 'spacebar'.",Images/Fearful/AM01AFS.jpg,Fear,Yellow,Images/Yellow.jpg,None,ParentConditions/YellowYellowBlue_v2.xlsx,YellowYellowBlue,Conditions/Version_2/YellowFearStop.xlsx,yes,PASS,0.008120847249678764,,,,,,,,,0,0,0,1,0,0,0,0,0,6,6,6,,,,,,,,,,,,,,,,,,,,,,,,,,,,,,,,,,,,,,,,,,,,,,,,,,,,,,,,,,,,,,,,,,,,,,,,,,,,,,,1.7,486.7355001999822,None,None,1,488.5481096000003,None,488.5481096000003,None,488.5481096000003,None,,,,,,,,,,,,P036,FENCOG,2,Pre,2022_Apr_13_1049,Go No-Go Task,2021.1.4,120.07396555287443,
,"Rule: When you see a yellow image, do not press 'spacebar'.",Images/Happy/AF23HAS.jpg,Happy,Blue,Images/Blue.jpg,space,ParentConditions/YellowYellowBlue_v2.xlsx,YellowYellowBlue,Conditions/Version_2/YellowFearStop.xlsx,no,PASS,0.07023198870971747,,,,,,,,,0,0,0,1,0,0,0,0,0,7,7,7,,,,,,,,,,,,,,,,,,,,,,,,,,,,,,,,,,,,,,,,,,,,,,,,,,,,,,,,,,,,,,,,,,,,,,,,,,,,,,,1.85,488.940013799991,None,space,1,490.8971839999722,None,490.8971839999722,None,490.8971839999722,None,0.32706780001171865,,,,,,,,,,,P036,FENCOG,2,Pre,2022_Apr_13_1049,Go No-Go Task,2021.1.4,120.07396555287443,
,"Rule: When you see a yellow image, do not press 'spacebar'.",Images/Happy/AM16HAS.jpg,Happy,Blue,Images/Blue.jpg,space,ParentConditions/YellowYellowBlue_v2.xlsx,YellowYellowBlue,Conditions/Version_2/YellowFearStop.xlsx,no,PASS,0.031804034281165405,,,,,,,,,0,0,0,1,0,0,0,0,0,8,8,8,,,,,,,,,,,,,,,,,,,,,,,,,,,,,,,,,,,,,,,,,,,,,,,,,,,,,,,,,,,,,,,,,,,,,,,,,,,,,,,1.67,491.29659879999235,None,space,1,493.0801688999927,None,493.0801688999927,None,493.0801688999927,None,0.23998939999728464,,,,,,,,,,,P036,FENCOG,2,Pre,2022_Apr_13_1049,Go No-Go Task,2021.1.4,120.07396555287443,
,"Rule: When you see a yellow image, do not press 'spacebar'.",Images/Happy/AM04HAS.jpg,Happy,Blue,Images/Blue.jpg,space,ParentConditions/YellowYellowBlue_v2.xlsx,YellowYellowBlue,Conditions/Version_2/YellowFearStop.xlsx,no,PASS,0.0002121348500070397,,,,,,,,,0,0,0,1,0,0,0,0,0,9,9,9,,,,,,,,,,,,,,,,,,,,,,,,,,,,,,,,,,,,,,,,,,,,,,,,,,,,,,,,,,,,,,,,,,,,,,,,,,,,,,,1.61,493.4791282999795,None,space,1,495.20448399998713,None,495.20448399998713,None,495.20448399998713,None,0.26768319998518564,,,,,,,,,,,P036,FENCOG,2,Pre,2022_Apr_13_1049,Go No-Go Task,2021.1.4,120.07396555287443,
,"Rule: When you see a yellow image, do not press 'spacebar'.",Images/Happy/AF26HAS.jpg,Happy,Blue,Images/Blue.jpg,space,ParentConditions/YellowYellowBlue_v2.xlsx,YellowYellowBlue,Conditions/Version_2/YellowFearStop.xlsx,no,PASS,0.408079602030768,,,,,,,,,0,0,0,1,0,0,0,0,0,10,10,10,,,,,,,,,,,,,,,,,,,,,,,,,,,,,,,,,,,,,,,,,,,,,,,,,,,,,,,,,,,,,,,,,,,,,,,,,,,,,,,1.47,495.6036572000012,None,space,1,497.18728019998525,None,497.18728019998525,None,497.18728019998525,None,0.2928478000103496,,,,,,,,,,,P036,FENCOG,2,Pre,2022_Apr_13_1049,Go No-Go Task,2021.1.4,120.07396555287443,
,"Rule: When you see a yellow image, do not press 'spacebar'.",Images/Fearful/AF10_FC.jpg,Fear,Yellow,Images/Yellow.jpg,None,ParentConditions/YellowYellowBlue_v2.xlsx,YellowYellowBlue,Conditions/Version_2/YellowFearStop.xlsx,yes,PASS,0.43118367877877073,,,,,,,,,0,0,0,1,0,0,0,0,0,11,11,11,,,,,,,,,,,,,,,,,,,,,,,,,,,,,,,,,,,,,,,,,,,,,,,,,,,,,,,,,,,,,,,,,,,,,,,,,,,,,,,1.38,497.5863581999729,None,None,1,499.0783736999729,None,499.0783736999729,None,499.0783736999729,None,,,,,,,,,,,,P036,FENCOG,2,Pre,2022_Apr_13_1049,Go No-Go Task,2021.1.4,120.07396555287443,
,"Rule: When you see a yellow image, do not press 'spacebar'.",Images/Fearful/AM09_FO.jpg,Fear,Yellow,Images/Yellow.jpg,None,ParentConditions/YellowYellowBlue_v2.xlsx,YellowYellowBlue,Conditions/Version_2/YellowFearStop.xlsx,yes,PASS,0.25324381257324213,,,,,,,,,0,0,0,1,0,0,0,0,0,12,12,12,,,,,,,,,,,,,,,,,,,,,,,,,,,,,,,,,,,,,,,,,,,,,,,,,,,,,,,,,,,,,,,,,,,,,,,,,,,,,,,1.48,499.4774034000002,None,None,1,501.06944689998636,None,501.06944689998636,None,501.06944689998636,None,,,,,,,,,,,,P036,FENCOG,2,Pre,2022_Apr_13_1049,Go No-Go Task,2021.1.4,120.07396555287443,
,"Rule: When you see a yellow image, do not press 'spacebar'.",Images/Happy/HM04_HO.jpg,Happy,Blue,Images/Blue.jpg,space,ParentConditions/YellowYellowBlue_v2.xlsx,YellowYellowBlue,Conditions/Version_2/YellowFearStop.xlsx,no,PASS,0.4072425132028237,,,,,,,,,0,0,0,1,0,0,0,0,0,13,13,13,,,,,,,,,,,,,,,,,,,,,,,,,,,,,,,,,,,,,,,,,,,,,,,,,,,,,,,,,,,,,,,,,,,,,,,,,,,,,,,1.87,501.4684074999823,None,space,1,503.45201389997965,None,503.45201389997965,None,503.45201389997965,None,0.25246320001315325,,,,,,,,,,,P036,FENCOG,2,Pre,2022_Apr_13_1049,Go No-Go Task,2021.1.4,120.07396555287443,
,"Rule: When you see a yellow image, do not press 'spacebar'.",Images/Fearful/AM04_FO.jpg,Fear,Yellow,Images/Yellow.jpg,None,ParentConditions/YellowYellowBlue_v2.xlsx,YellowYellowBlue,Conditions/Version_2/YellowFearStop.xlsx,yes,PASS,0.7288256558461894,,,,,,,,,0,0,0,1,0,0,0,0,0,14,14,14,,,,,,,,,,,,,,,,,,,,,,,,,,,,,,,,,,,,,,,,,,,,,,,,,,,,,,,,,,,,,,,,,,,,,,,,,,,,,,,1.86,503.84469809997245,None,None,1,505.8180221999937,None,505.8180221999937,None,505.8180221999937,None,,,,,,,,,,,,P036,FENCOG,2,Pre,2022_Apr_13_1049,Go No-Go Task,2021.1.4,120.07396555287443,
,"Rule: When you see a yellow image, do not press 'spacebar'.",Images/Happy/AM13HAS.jpg,Happy,Blue,Images/Blue.jpg,space,ParentConditions/YellowYellowBlue_v2.xlsx,YellowYellowBlue,Conditions/Version_2/YellowFearStop.xlsx,no,PASS,0.9405484517370288,,,,,,,,,0,0,0,1,0,0,0,0,0,15,15,15,,,,,,,,,,,,,,,,,,,,,,,,,,,,,,,,,,,,,,,,,,,,,,,,,,,,,,,,,,,,,,,,,,,,,,,,,,,,,,,1.6,506.22228999997606,None,space,1,507.9340337999747,None,507.9340337999747,None,507.9340337999747,None,0.2661082999838982,,,,,,,,,,,P036,FENCOG,2,Pre,2022_Apr_13_1049,Go No-Go Task,2021.1.4,120.07396555287443,
,"Rule: When you see a yellow image, do not press 'spacebar'.",Images/Fearful/AF09AFS.jpg,Fear,Yellow,Images/Yellow.jpg,None,ParentConditions/YellowYellowBlue_v2.xlsx,YellowYellowBlue,Conditions/Version_2/YellowFearStop.xlsx,yes,PASS,0.6464881792541419,,,,,,,,,0,0,0,1,0,0,0,0,0,16,16,16,,,,,,,,,,,,,,,,,,,,,,,,,,,,,,,,,,,,,,,,,,,,,,,,,,,,,,,,,,,,,,,,,,,,,,,,,,,,,,,1.55,508.3330019999994,None,None,1,509.9918162999966,None,509.9918162999966,None,509.9918162999966,None,,,,,,,,,,,,P036,FENCOG,2,Pre,2022_Apr_13_1049,Go No-Go Task,2021.1.4,120.07396555287443,
,"Rule: When you see a yellow image, do not press 'spacebar'.",Images/Fearful/BF05_FO.jpg,Fear,Yellow,Images/Yellow.jpg,None,ParentConditions/YellowYellowBlue_v2.xlsx,YellowYellowBlue,Conditions/Version_2/YellowFearStop.xlsx,yes,PASS,0.37509261462312704,,,,,,,,,0,0,0,1,0,0,0,0,0,17,17,17,,,,,,,,,,,,,,,,,,,,,,,,,,,,,,,,,,,,,,,,,,,,,,,,,,,,,,,,,,,,,,,,,,,,,,,,,,,,,,,1.37,510.38494249997893,None,None,1,511.8745512999885,None,511.8745512999885,None,511.8745512999885,None,,,,,,,,,,,,P036,FENCOG,2,Pre,2022_Apr_13_1049,Go No-Go Task,2021.1.4,120.07396555287443,
,"Rule: When you see a yellow image, do not press 'spacebar'.",Images/Happy/AM24HAS.jpg,Happy,Blue,Images/Blue.jpg,space,ParentConditions/YellowYellowBlue_v2.xlsx,YellowYellowBlue,Conditions/Version_2/YellowFearStop.xlsx,no,PASS,0.016158036932588105,,,,,,,,,0,0,0,1,0,0,0,0,0,18,18,18,,,,,,,,,,,,,,,,,,,,,,,,,,,,,,,,,,,,,,,,,,,,,,,,,,,,,,,,,,,,,,,,,,,,,,,,,,,,,,,1.41,512.2629845999763,None,space,1,513.7823516999779,None,513.7823516999779,None,513.7823516999779,None,0.2582226999802515,,,,,,,,,,,P036,FENCOG,2,Pre,2022_Apr_13_1049,Go No-Go Task,2021.1.4,120.07396555287443,
,"Rule: When you see a yellow image, do not press 'spacebar'.",Images/Fearful/AF11AFS.jpg,Fear,Yellow,Images/Yellow.jpg,None,ParentConditions/YellowYellowBlue_v2.xlsx,YellowYellowBlue,Conditions/Version_2/YellowFearStop.xlsx,yes,PASS,0.3371554357894605,,,,,,,,,0,0,0,1,0,0,0,0,0,19,19,19,,,,,,,,,,,,,,,,,,,,,,,,,,,,,,,,,,,,,,,,,,,,,,,,,,,,,,,,,,,,,,,,,,,,,,,,,,,,,,,1.91,514.1772007999825,None,None,1,516.1982279999938,None,516.1982279999938,None,516.1982279999938,None,,,,,,,,,,,,P036,FENCOG,2,Pre,2022_Apr_13_1049,Go No-Go Task,2021.1.4,120.07396555287443,
,"Rule: When you see a yellow image, do not press 'spacebar'.",Images/Happy/AF01_HE.jpg,Happy,Blue,Images/Blue.jpg,space,ParentConditions/YellowYellowBlue_v2.xlsx,YellowYellowBlue,Conditions/Version_2/YellowFearStop.xlsx,no,PASS,0.09770872574206646,,,,,,,,,0,0,0,1,0,0,0,0,0,20,20,20,,,,,,,,,,,,,,,,,,,,,,,,,,,,,,,,,,,,,,,,,,,,,,,,,,,,,,,,,,,,,,,,,,,,,,,,,,,,,,,1.83,516.5991634999809,None,space,1,518.5392212999868,None,518.5392212999868,None,518.5392212999868,None,0.2929166000103578,,,,,,,,,,,P036,FENCOG,2,Pre,2022_Apr_13_1049,Go No-Go Task,2021.1.4,120.07396555287443,
,"Rule: When you see a yellow image, do not press 'spacebar'.",Images/Happy/AM10_HO.jpg,Happy,Blue,Images/Blue.jpg,space,ParentConditions/YellowYellowBlue_v2.xlsx,YellowYellowBlue,Conditions/Version_2/YellowFearStop.xlsx,no,PASS,0.35803186882916893,,,,,,,,,0,0,0,1,0,0,0,0,0,21,21,21,,,,,,,,,,,,,,,,,,,,,,,,,,,,,,,,,,,,,,,,,,,,,,,,,,,,,,,,,,,,,,,,,,,,,,,,,,,,,,,1.62,518.9392787999823,None,space,1,520.6719783000008,None,520.6719783000008,None,520.6719783000008,None,0.3200300000025891,,,,,,,,,,,P036,FENCOG,2,Pre,2022_Apr_13_1049,Go No-Go Task,2021.1.4,120.07396555287443,
,"Rule: When you see a yellow image, do not press 'spacebar'.",Images/Happy/AF09HAS.jpg,Happy,Blue,Images/Blue.jpg,space,ParentConditions/YellowYellowBlue_v2.xlsx,YellowYellowBlue,Conditions/Version_2/YellowFearStop.xlsx,no,PASS,0.20902890792548556,,,,,,,,,0,0,0,1,0,0,0,0,0,22,22,22,,,,,,,,,,,,,,,,,,,,,,,,,,,,,,,,,,,,,,,,,,,,,,,,,,,,,,,,,,,,,,,,,,,,,,,,,,,,,,,2,521.0710175999848,None,space,1,523.1795541999745,None,523.1795541999745,None,523.1795541999745,None,0.3089592000178527,,,,,,,,,,,P036,FENCOG,2,Pre,2022_Apr_13_1049,Go No-Go Task,2021.1.4,120.07396555287443,
,"Rule: When you see a yellow image, do not press 'spacebar'.",Images/Happy/BM02_HO.jpg,Happy,Blue,Images/Blue.jpg,space,ParentConditions/YellowYellowBlue_v2.xlsx,YellowYellowBlue,Conditions/Version_2/YellowFearStop.xlsx,no,PASS,0.6732741052769042,,,,,,,,,0,0,0,1,0,0,0,0,0,23,23,23,,,,,,,,,,,,,,,,,,,,,,,,,,,,,,,,,,,,,,,,,,,,,,,,,,,,,,,,,,,,,,,,,,,,,,,,,,,,,,,1.22,523.5797072999994,None,space,1,524.8957458999939,None,524.8957458999939,None,524.8957458999939,None,0.32021229999372736,,,,,,,,,,,P036,FENCOG,2,Pre,2022_Apr_13_1049,Go No-Go Task,2021.1.4,120.07396555287443,
,"Rule: When you see a yellow image, do not press 'spacebar'.",Images/Happy/AM09_HE.jpg,Happy,Blue,Images/Blue.jpg,space,ParentConditions/YellowYellowBlue_v2.xlsx,YellowYellowBlue,Conditions/Version_2/YellowFearStop.xlsx,no,PASS,0.6065078221259242,,,,,,,,,0,0,0,1,0,0,0,0,0,24,24,24,,,,,,,,,,,,,,,,,,,,,,,,,,,,,,,,,,,,,,,,,,,,,,,,,,,,,,,,,,,,,,,,,,,,,,,,,,,,,,,1.94,525.2964707999781,None,space,1,527.344996699976,None,527.344996699976,None,527.344996699976,None,0.3433995000086725,,,,,,,,,,,P036,FENCOG,2,Pre,2022_Apr_13_1049,Go No-Go Task,2021.1.4,120.07396555287443,
,"Rule: When you see a yellow image, do not press 'spacebar'.",Images/Happy/AF10_HE.jpg,Happy,Blue,Images/Blue.jpg,space,ParentConditions/YellowYellowBlue_v2.xlsx,YellowYellowBlue,Conditions/Version_2/YellowFearStop.xlsx,no,PASS,0.6869968801100608,,,,,,,,,0,0,0,1,0,0,0,0,0,25,25,25,,,,,,,,,,,,,,,,,,,,,,,,,,,,,,,,,,,,,,,,,,,,,,,,,,,,,,,,,,,,,,,,,,,,,,,,,,,,,,,1.46,527.7491268999875,None,space,1,529.3193639999954,None,529.3193639999954,None,529.3193639999954,None,0.28881019999971613,,,,,,,,,,,P036,FENCOG,2,Pre,2022_Apr_13_1049,Go No-Go Task,2021.1.4,120.07396555287443,
,"Rule: When you see a yellow image, do not press 'spacebar'.",Images/Happy/BM01_HO.jpg,Happy,Blue,Images/Blue.jpg,space,ParentConditions/YellowYellowBlue_v2.xlsx,YellowYellowBlue,Conditions/Version_2/YellowFearStop.xlsx,no,PASS,0.5538207000686074,,,,,,,,,0,0,0,1,0,0,0,0,0,26,26,26,,,,,,,,,,,,,,,,,,,,,,,,,,,,,,,,,,,,,,,,,,,,,,,,,,,,,,,,,,,,,,,,,,,,,,,,,,,,,,,1.64,529.7183053999906,None,space,1,531.4689439999929,None,531.4689439999929,None,531.4689439999929,None,0.33908299999893643,,,,,,,,,,,P036,FENCOG,2,Pre,2022_Apr_13_1049,Go No-Go Task,2021.1.4,120.07396555287443,
,"Rule: When you see a yellow image, do not press 'spacebar'.",Images/Fearful/AF07_FO.jpg,Fear,Yellow,Images/Yellow.jpg,None,ParentConditions/YellowYellowBlue_v2.xlsx,YellowYellowBlue,Conditions/Version_2/YellowFearStop.xlsx,yes,PASS,0.5689879324899989,,,,,,,,,0,0,0,1,0,0,0,0,0,27,27,27,,,,,,,,,,,,,,,,,,,,,,,,,,,,,,,,,,,,,,,,,,,,,,,,,,,,,,,,,,,,,,,,,,,,,,,,,,,,,,,1.9,531.860788799997,None,None,1,533.8764913999767,None,533.8764913999767,None,533.8764913999767,None,,,,,,,,,,,,P036,FENCOG,2,Pre,2022_Apr_13_1049,Go No-Go Task,2021.1.4,120.07396555287443,
,"Rule: When you see a yellow image, do not press 'spacebar'.",Images/Happy/BF18_HO.jpg,Happy,Blue,Images/Blue.jpg,space,ParentConditions/YellowYellowBlue_v2.xlsx,YellowYellowBlue,Conditions/Version_2/YellowFearStop.xlsx,no,PASS,0.2528908254284902,,,,,,,,,0,0,0,1,0,0,0,0,0,28,28,28,,,,,,,,,,,,,,,,,,,,,,,,,,,,,,,,,,,,,,,,,,,,,,,,,,,,,,,,,,,,,,,,,,,,,,,,,,,,,,,1.79,534.2755340999865,None,space,1,536.1758626999799,None,536.1758626999799,None,536.1758626999799,None,0.296419699996477,,,,,,,,,,,P036,FENCOG,2,Pre,2022_Apr_13_1049,Go No-Go Task,2021.1.4,120.07396555287443,
,"Rule: When you see a yellow image, do not press 'spacebar'.",Images/Happy/AM03HAS.jpg,Happy,Blue,Images/Blue.jpg,space,ParentConditions/YellowYellowBlue_v2.xlsx,YellowYellowBlue,Conditions/Version_2/YellowFearStop.xlsx,no,PASS,0.6129705520501836,,,,,,,,,0,0,0,1,0,0,0,0,0,29,29,29,,,,,,,,,,,,,,,,,,,,,,,,,,,,,,,,,,,,,,,,,,,,,,,,,,,,,,,,,,,,,,,,,,,,,,,,,,,,,,,1.89,536.5694020999945,None,space,1,538.57510799999,None,538.57510799999,None,538.57510799999,None,0.32094099998357706,,,,,,,,,,,P036,FENCOG,2,Pre,2022_Apr_13_1049,Go No-Go Task,2021.1.4,120.07396555287443,
,"Rule: When you see a yellow image, do not press 'spacebar'.",Images/Happy/BF10_HO.jpg,Happy,Blue,Images/Blue.jpg,space,ParentConditions/YellowYellowBlue_v2.xlsx,YellowYellowBlue,Conditions/Version_2/YellowFearStop.xlsx,no,PASS,0.6633214650414543,,,,,,,,,0,0,0,1,0,0,0,0,0,30,30,30,,,,,,,,,,,,,,,,,,,,,,,,,,,,,,,,,,,,,,,,,,,,,,,,,,,,,,,,,,,,,,,,,,,,,,,,,,,,,,,1.59,538.9739004999865,None,space,1,540.6743779999961,None,540.6743779999961,None,540.6743779999961,None,0.26177400001324713,,,,,,,,,,,P036,FENCOG,2,Pre,2022_Apr_13_1049,Go No-Go Task,2021.1.4,120.07396555287443,
,"Rule: When you see a yellow image, do not press 'spacebar'.",Images/Happy/BF07_HO.jpg,Happy,Blue,Images/Blue.jpg,space,ParentConditions/YellowYellowBlue_v2.xlsx,YellowYellowBlue,Conditions/Version_2/YellowFearStop.xlsx,no,PASS,0.38343441764823294,,,,,,,,,0,0,0,1,0,0,0,0,0,31,31,31,,,,,,,,,,,,,,,,,,,,,,,,,,,,,,,,,,,,,,,,,,,,,,,,,,,,,,,,,,,,,,,,,,,,,,,,,,,,,,,1.36,541.0661988999927,None,space,1,542.5405872999982,None,542.5405872999982,None,542.5405872999982,None,0.2918465999828186,,,,,,,,,,,P036,FENCOG,2,Pre,2022_Apr_13_1049,Go No-Go Task,2021.1.4,120.07396555287443,
,"Rule: When you see a yellow image, do not press 'spacebar'.",Images/Fearful/BF07_FO.jpg,Fear,Yellow,Images/Yellow.jpg,None,ParentConditions/YellowYellowBlue_v2.xlsx,YellowYellowBlue,Conditions/Version_2/YellowFearStop.xlsx,yes,PASS,0.00831620462665883,,,,,,,,,0,0,0,1,0,0,0,0,0,32,32,32,,,,,,,,,,,,,,,,,,,,,,,,,,,,,,,,,,,,,,,,,,,,,,,,,,,,,,,,,,,,,,,,,,,,,,,,,,,,,,,1.76,542.9403958999901,None,None,1,544.8065283999895,None,544.8065283999895,None,544.8065283999895,None,,,,,,,,,,,,P036,FENCOG,2,Pre,2022_Apr_13_1049,Go No-Go Task,2021.1.4,120.07396555287443,
,"Rule: When you see a yellow image, do not press 'spacebar'.",Images/Happy/WF04_HC.jpg,Happy,Blue,Images/Blue.jpg,space,ParentConditions/YellowYellowBlue_v2.xlsx,YellowYellowBlue,Conditions/Version_2/YellowFearStop.xlsx,no,PASS,0.6777495076385776,,,,,,,,,0,0,0,1,0,0,0,0,0,33,33,33,,,,,,,,,,,,,,,,,,,,,,,,,,,,,,,,,,,,,,,,,,,,,,,,,,,,,,,,,,,,,,,,,,,,,,,,,,,,,,,1.71,545.2054831999994,None,space,1,547.0308508999879,None,547.0308508999879,None,547.0308508999879,None,0.2573545999766793,,,,,,,,,,,P036,FENCOG,2,Pre,2022_Apr_13_1049,Go No-Go Task,2021.1.4,120.07396555287443,
,"Rule: When you see a yellow image, do not press 'spacebar'.",Images/Happy/AM23HAS.jpg,Happy,Blue,Images/Blue.jpg,space,ParentConditions/YellowYellowBlue_v2.xlsx,YellowYellowBlue,Conditions/Version_2/YellowFearStop.xlsx,no,PASS,0.04303712392230152,,,,,,,,,0,0,0,1,0,0,0,0,0,34,34,34,,,,,,,,,,,,,,,,,,,,,,,,,,,,,,,,,,,,,,,,,,,,,,,,,,,,,,,,,,,,,,,,,,,,,,,,,,,,,,,1.28,547.4264725999965,None,space,1,548.8220692999894,None,548.8220692999894,None,548.8220692999894,None,0.29792060001636855,,,,,,,,,,,P036,FENCOG,2,Pre,2022_Apr_13_1049,Go No-Go Task,2021.1.4,120.07396555287443,
,"Rule: When you see a yellow image, do not press 'spacebar'.",Images/Happy/AM09HAS.jpg,Happy,Blue,Images/Blue.jpg,space,ParentConditions/YellowYellowBlue_v2.xlsx,YellowYellowBlue,Conditions/Version_2/YellowFearStop.xlsx,no,PASS,0.09574836161041034,,,,,,,,,0,0,0,1,0,0,0,0,0,35,35,35,,,,,,,,,,,,,,,,,,,,,,,,,,,,,,,,,,,,,,,,,,,,,,,,,,,,,,,,,,,,,,,,,,,,,,,,,,,,,,,1.56,549.2218418999983,None,space,1,550.8964150999964,None,550.8964150999964,None,550.8964150999964,None,0.31964530001278035,,,,,,,,,,,P036,FENCOG,2,Pre,2022_Apr_13_1049,Go No-Go Task,2021.1.4,120.07396555287443,
,"Rule: When you see a yellow image, do not press 'spacebar'.",Images/Happy/AM10HAS.jpg,Happy,Blue,Images/Blue.jpg,space,ParentConditions/YellowYellowBlue_v2.xlsx,YellowYellowBlue,Conditions/Version_2/YellowFearStop.xlsx,no,PASS,0.1630912911655703,,,,,,,,,0,0,0,1,0,0,0,0,0,36,36,36,,,,,,,,,,,,,,,,,,,,,,,,,,,,,,,,,,,,,,,,,,,,,,,,,,,,,,,,,,,,,,,,,,,,,,,,,,,,,,,1.73,551.2958733999985,None,space,1,553.1289893999929,None,553.1289893999929,None,553.1289893999929,None,0.3108751999970991,,,,,,,,,,,P036,FENCOG,2,Pre,2022_Apr_13_1049,Go No-Go Task,2021.1.4,120.07396555287443,
,"Rule: When you see a yellow image, do not press 'spacebar'.",Images/Happy/AF07HAS.jpg,Happy,Blue,Images/Blue.jpg,space,ParentConditions/YellowYellowBlue_v2.xlsx,YellowYellowBlue,Conditions/Version_2/YellowFearStop.xlsx,no,PASS,0.34867471869559996,,,,,,,,,0,0,0,1,0,0,0,0,0,37,37,37,,,,,,,,,,,,,,,,,,,,,,,,,,,,,,,,,,,,,,,,,,,,,,,,,,,,,,,,,,,,,,,,,,,,,,,,,,,,,,,1.52,553.5308604999736,None,space,1,555.1618105999951,None,555.1618105999951,None,555.1618105999951,None,0.30266990000382066,,,,,,,,,,,P036,FENCOG,2,Pre,2022_Apr_13_1049,Go No-Go Task,2021.1.4,120.07396555287443,
,"Rule: When you see a yellow image, do not press 'spacebar'.",Images/Happy/AM03_HO.jpg,Happy,Blue,Images/Blue.jpg,space,ParentConditions/YellowYellowBlue_v2.xlsx,YellowYellowBlue,Conditions/Version_2/YellowFearStop.xlsx,no,PASS,0.8852047943617631,,,,,,,,,0,0,0,1,0,0,0,0,0,38,38,38,,,,,,,,,,,,,,,,,,,,,,,,,,,,,,,,,,,,,,,,,,,,,,,,,,,,,,,,,,,,,,,,,,,,,,,,,,,,,,,1.82,555.5624936999811,None,space,1,557.4943035999895,None,557.4943035999895,None,557.4943035999895,None,0.2977993000240531,,,,,,,,,,,P036,FENCOG,2,Pre,2022_Apr_13_1049,Go No-Go Task,2021.1.4,120.07396555287443,
,"Rule: When you see a yellow image, do not press 'spacebar'.",Images/Happy/AM05HAS.jpg,Happy,Blue,Images/Blue.jpg,space,ParentConditions/YellowYellowBlue_v2.xlsx,YellowYellowBlue,Conditions/Version_2/YellowFearStop.xlsx,no,PASS,0.25496798119470154,,,,,,,,,0,0,0,1,0,0,0,0,0,39,39,39,,,,,,,,,,,,,,,,,,,,,,,,,,,,,,,,,,,,,,,,,,,,,,,,,,,,,,,,,,,,,,,,,,,,,,,,,,,,,,,1.8,557.8865966999729,None,space,1,559.8021534,None,559.8021534,None,559.8021534,None,0.3020292999863159,,,,,,,,,,,P036,FENCOG,2,Pre,2022_Apr_13_1049,Go No-Go Task,2021.1.4,120.07396555287443,
,"Rule: When you see a yellow image, do not press 'spacebar'.",Images/Happy/AF02HAS.jpg,Happy,Blue,Images/Blue.jpg,space,ParentConditions/YellowYellowBlue_v2.xlsx,YellowYellowBlue,Conditions/Version_2/YellowFearStop.xlsx,no,PASS,0.4518610007497229,,,,,,,,,0,0,0,1,0,0,0,0,0,40,40,40,,,,,,,,,,,,,,,,,,,,,,,,,,,,,,,,,,,,,,,,,,,,,,,,,,,,,,,,,,,,,,,,,,,,,,,,,,,,,,,1.32,560.2009382999968,None,space,1,561.6348795999947,None,561.6348795999947,None,561.6348795999947,None,0.23701869999058545,,,,,,,,,,,P036,FENCOG,2,Pre,2022_Apr_13_1049,Go No-Go Task,2021.1.4,120.07396555287443,
,"Rule: When you see a yellow image, do not press 'spacebar'.",Images/Happy/BM08_HO.jpg,Happy,Blue,Images/Blue.jpg,space,ParentConditions/YellowYellowBlue_v2.xlsx,YellowYellowBlue,Conditions/Version_2/YellowFearStop.xlsx,no,PASS,0.6109180265070229,,,,,,,,,0,0,0,1,0,0,0,0,0,41,41,41,,,,,,,,,,,,,,,,,,,,,,,,,,,,,,,,,,,,,,,,,,,,,,,,,,,,,,,,,,,,,,,,,,,,,,,,,,,,,,,1.63,562.0338859999902,None,space,1,563.7676738999726,None,563.7676738999726,None,563.7676738999726,None,0.2884083999961149,,,,,,,,,,,P036,FENCOG,2,Pre,2022_Apr_13_1049,Go No-Go Task,2021.1.4,120.07396555287443,
,"Rule: When you see a yellow image, do not press 'spacebar'.",Images/Happy/AM22HAS.jpg,Happy,Blue,Images/Blue.jpg,space,ParentConditions/YellowYellowBlue_v2.xlsx,YellowYellowBlue,Conditions/Version_2/YellowFearStop.xlsx,no,PASS,0.358808559720486,,,,,,,,,0,0,0,1,0,0,0,0,0,42,42,42,,,,,,,,,,,,,,,,,,,,,,,,,,,,,,,,,,,,,,,,,,,,,,,,,,,,,,,,,,,,,,,,,,,,,,,,,,,,,,,1.51,564.1683985999844,None,space,1,565.7922024999862,None,565.7922024999862,None,565.7922024999862,None,0.23178140001255088,,,,,,,,,,,P036,FENCOG,2,Pre,2022_Apr_13_1049,Go No-Go Task,2021.1.4,120.07396555287443,
,"Rule: When you see a yellow image, do not press 'spacebar'.",Images/Happy/AM30HAS.jpg,Happy,Blue,Images/Blue.jpg,space,ParentConditions/YellowYellowBlue_v2.xlsx,YellowYellowBlue,Conditions/Version_2/YellowFearStop.xlsx,no,PASS,0.02897569025915847,,,,,,,,,0,0,0,1,0,0,0,0,0,43,43,43,,,,,,,,,,,,,,,,,,,,,,,,,,,,,,,,,,,,,,,,,,,,,,,,,,,,,,,,,,,,,,,,,,,,,,,,,,,,,,,1.99,566.1911242999777,None,space,1,568.2912425999821,None,568.2912425999821,None,568.2912425999821,None,0.2610073999967426,,,,,,,,,,,P036,FENCOG,2,Pre,2022_Apr_13_1049,Go No-Go Task,2021.1.4,120.07396555287443,
,"Rule: When you see a yellow image, do not press 'spacebar'.",Images/Fearful/BF09_FC.jpg,Fear,Yellow,Images/Yellow.jpg,None,ParentConditions/YellowYellowBlue_v2.xlsx,YellowYellowBlue,Conditions/Version_2/YellowFearStop.xlsx,yes,PASS,0.33656912313274023,,,,,,,,,0,0,0,1,0,0,0,0,0,44,44,44,,,,,,,,,,,,,,,,,,,,,,,,,,,,,,,,,,,,,,,,,,,,,,,,,,,,,,,,,,,,,,,,,,,,,,,,,,,,,,,1.96,568.6903097999748,None,None,1,570.7654751999944,None,570.7654751999944,None,570.7654751999944,None,,,,,,,,,,,,P036,FENCOG,2,Pre,2022_Apr_13_1049,Go No-Go Task,2021.1.4,120.07396555287443,
,"Rule: When you see a yellow image, do not press 'spacebar'.",Images/Happy/WM12_HE.jpg,Happy,Blue,Images/Blue.jpg,space,ParentConditions/YellowYellowBlue_v2.xlsx,YellowYellowBlue,Conditions/Version_2/YellowFearStop.xlsx,no,PASS,0.7601850991054155,,,,,,,,,0,0,0,1,0,0,0,0,0,45,45,45,,,,,,,,,,,,,,,,,,,,,,,,,,,,,,,,,,,,,,,,,,,,,,,,,,,,,,,,,,,,,,,,,,,,,,,,,,,,,,,1.54,571.1643775999837,None,space,1,572.8149344999983,None,572.8149344999983,None,572.8149344999983,None,0.32931810000445694,,,,,,,,,,,P036,FENCOG,2,Pre,2022_Apr_13_1049,Go No-Go Task,2021.1.4,120.07396555287443,
,"Rule: When you see a yellow image, do not press 'spacebar'.",Images/Happy/HF10_HE.jpg,Happy,Blue,Images/Blue.jpg,space,ParentConditions/YellowYellowBlue_v2.xlsx,YellowYellowBlue,Conditions/Version_2/YellowFearStop.xlsx,no,PASS,0.6650727272929988,,,,,,,,,0,0,0,1,0,0,0,0,0,46,46,46,,,,,,,,,,,,,,,,,,,,,,,,,,,,,,,,,,,,,,,,,,,,,,,,,,,,,,,,,,,,,,,,,,,,,,,,,,,,,,,1.74,573.2150865999865,None,space,1,575.0476036999898,None,575.0476036999898,None,575.0476036999898,None,0.3365905999962706,,,,,,,,,,,P036,FENCOG,2,Pre,2022_Apr_13_1049,Go No-Go Task,2021.1.4,120.07396555287443,
,"Rule: When you see a yellow image, do not press 'spacebar'.",Images/Happy/HM09_HO.jpg,Happy,Blue,Images/Blue.jpg,space,ParentConditions/YellowYellowBlue_v2.xlsx,YellowYellowBlue,Conditions/Version_2/YellowFearStop.xlsx,no,PASS,0.7196619298468737,,,,,,,,,0,0,0,1,0,0,0,0,0,47,47,47,,,,,,,,,,,,,,,,,,,,,,,,,,,,,,,,,,,,,,,,,,,,,,,,,,,,,,,,,,,,,,,,,,,,,,,,,,,,,,,1.66,575.4511144999997,None,space,1,577.2219232999778,None,577.2219232999778,None,577.2219232999778,None,0.3065184000006411,,,,,,,,,,,P036,FENCOG,2,Pre,2022_Apr_13_1049,Go No-Go Task,2021.1.4,120.07396555287443,
,"Rule: When you see a yellow image, do not press 'spacebar'.",Images/Fearful/AM03_FC.jpg,Fear,Yellow,Images/Yellow.jpg,None,ParentConditions/YellowYellowBlue_v2.xlsx,YellowYellowBlue,Conditions/Version_2/YellowFearStop.xlsx,yes,PASS,0.9021154613913315,,,,,,,,,0,0,0,1,0,0,0,0,0,48,48,48,,,,,,,,,,,,,,,,,,,,,,,,,,,,,,,,,,,,,,,,,,,,,,,,,,,,,,,,,,,,,,,,,,,,,,,,,,,,,,,1.27,577.6246103000012,None,None,1,579.004662899999,None,579.004662899999,None,579.004662899999,None,,,,,,,,,,,,P036,FENCOG,2,Pre,2022_Apr_13_1049,Go No-Go Task,2021.1.4,120.07396555287443,
,"Rule: When you see a yellow image, do not press 'spacebar'.",Images/Happy/HF04_HE.jpg,Happy,Blue,Images/Blue.jpg,space,ParentConditions/YellowYellowBlue_v2.xlsx,YellowYellowBlue,Conditions/Version_2/YellowFearStop.xlsx,no,PASS,0.6828282636628492,,,,,,,,,0,0,0,1,0,0,0,0,0,49,49,49,,,,,,,,,,,,,,,,,,,,,,,,,,,,,,,,,,,,,,,,,,,,,,,,,,,,,,,,,,,,,,,,,,,,,,,,,,,,,,,1.31,579.4036781999748,None,space,1,580.8208671999746,None,580.8208671999746,None,580.8208671999746,None,0.2914296000089962,,,,,,,,,,,P036,FENCOG,2,Pre,2022_Apr_13_1049,Go No-Go Task,2021.1.4,120.07396555287443,
,"Rule: When you see a yellow image, do not press 'spacebar'.",Images/Happy/AM17HAS.jpg,Happy,Blue,Images/Blue.jpg,space,ParentConditions/YellowYellowBlue_v2.xlsx,YellowYellowBlue,Conditions/Version_2/YellowFearStop.xlsx,no,PASS,0.7726840133197573,,,,,,,,,0,0,0,1,0,0,0,0,0,50,50,50,,,,,,,,,,,,,,,,,,,,,,,,,,,,,,,,,,,,,,,,,,,,,,,,,,,,,,,,,,,,,,,,,,,,,,,,,,,,,,,1.2,581.2213303999742,None,space,1,582.5370245999948,None,582.5370245999948,None,582.5370245999948,None,0.28701199998613447,,,,,,,,,,,P036,FENCOG,2,Pre,2022_Apr_13_1049,Go No-Go Task,2021.1.4,120.07396555287443,
,"Rule: When you see a yellow image, do not press 'spacebar'.",Images/Fearful/BM01_FO.jpg,Fear,Yellow,Images/Yellow.jpg,None,ParentConditions/YellowYellowBlue_v2.xlsx,YellowYellowBlue,Conditions/Version_2/YellowFearStop.xlsx,yes,PASS,0.029850228609631824,,,,,,,,,0,0,0,1,0,0,0,0,0,51,51,51,,,,,,,,,,,,,,,,,,,,,,,,,,,,,,,,,,,,,,,,,,,,,,,,,,,,,,,,,,,,,,,,,,,,,,,,,,,,,,,1.95,582.9415111999842,None,None,1,585.0030099999858,None,585.0030099999858,None,585.0030099999858,None,,,,,,,,,,,,P036,FENCOG,2,Pre,2022_Apr_13_1049,Go No-Go Task,2021.1.4,120.07396555287443,
,"Rule: When you see a yellow image, do not press 'spacebar'.",Images/Happy/HF09_HE.jpg,Happy,Blue,Images/Blue.jpg,space,ParentConditions/YellowYellowBlue_v2.xlsx,YellowYellowBlue,Conditions/Version_2/YellowFearStop.xlsx,no,PASS,0.5416297044271999,,,,,,,,,0,0,0,1,0,0,0,0,0,52,52,52,,,,,,,,,,,,,,,,,,,,,,,,,,,,,,,,,,,,,,,,,,,,,,,,,,,,,,,,,,,,,,,,,,,,,,,,,,,,,,,1.3,585.398970899987,None,space,1,586.7941369999899,None,586.7941369999899,None,586.7941369999899,None,0.3178716999827884,,,,,,,,,,,P036,FENCOG,2,Pre,2022_Apr_13_1049,Go No-Go Task,2021.1.4,120.07396555287443,
,"Rule: When you see a yellow image, do not press 'spacebar'.",Images/Happy/WF11_HE.jpg,Happy,Blue,Images/Blue.jpg,space,ParentConditions/YellowYellowBlue_v2.xlsx,YellowYellowBlue,Conditions/Version_2/YellowFearStop.xlsx,no,PASS,0.3923399468002319,,,,,,,,,0,0,0,1,0,0,0,0,0,53,53,53,,,,,,,,,,,,,,,,,,,,,,,,,,,,,,,,,,,,,,,,,,,,,,,,,,,,,,,,,,,,,,,,,,,,,,,,,,,,,,,1.24,587.1948588999803,None,space,1,588.5352418999828,None,588.5352418999828,None,588.5352418999828,None,0.29693179999594577,,,,,,,,,,,P036,FENCOG,2,Pre,2022_Apr_13_1049,Go No-Go Task,2021.1.4,120.07396555287443,
,"Rule: When you see a yellow image, do not press 'spacebar'.",Images/Fearful/AM04AFS.jpg,Fear,Yellow,Images/Yellow.jpg,None,ParentConditions/YellowYellowBlue_v2.xlsx,YellowYellowBlue,Conditions/Version_2/YellowFearStop.xlsx,yes,PASS,0.7106263735051498,,,,,,,,,0,0,0,1,0,0,0,0,0,54,54,54,,,,,,,,,,,,,,,,,,,,,,,,,,,,,,,,,,,,,,,,,,,,,,,,,,,,,,,,,,,,,,,,,,,,,,,,,,,,,,,1.42,588.9393030999927,None,None,1,590.4681159999745,None,590.4681159999745,None,590.4681159999745,None,,,,,,,,,,,,P036,FENCOG,2,Pre,2022_Apr_13_1049,Go No-Go Task,2021.1.4,120.07396555287443,
,"Rule: When you see a yellow image, do not press 'spacebar'.",Images/Happy/AF19HAS.jpg,Happy,Blue,Images/Blue.jpg,space,ParentConditions/YellowYellowBlue_v2.xlsx,YellowYellowBlue,Conditions/Version_2/YellowFearStop.xlsx,no,PASS,0.3419128984214137,,,,,,,,,0,0,0,1,0,0,0,0,0,55,55,55,,,,,,,,,,,,,,,,,,,,,,,,,,,,,,,,,,,,,,,,,,,,,,,,,,,,,,,,,,,,,,,,,,,,,,,,,,,,,,,1.97,590.8671290999919,None,space,1,592.9507823999738,None,592.9507823999738,None,592.9507823999738,None,0.2732213999843225,,,,,,,,,,,P036,FENCOG,2,Pre,2022_Apr_13_1049,Go No-Go Task,2021.1.4,120.07396555287443,
,"Rule: When you see a yellow image, do not press 'spacebar'.",Images/Happy/HM06_HO.jpg,Happy,Blue,Images/Blue.jpg,space,ParentConditions/YellowYellowBlue_v2.xlsx,YellowYellowBlue,Conditions/Version_2/YellowFearStop.xlsx,no,PASS,0.8215154078276994,,,,,,,,,0,0,0,1,0,0,0,0,0,56,56,56,,,,,,,,,,,,,,,,,,,,,,,,,,,,,,,,,,,,,,,,,,,,,,,,,,,,,,,,,,,,,,,,,,,,,,,,,,,,,,,1.98,593.349647199997,None,space,1,595.4415683999832,None,595.4415683999832,None,595.4415683999832,None,0.2467330000072252,,,,,,,,,,,P036,FENCOG,2,Pre,2022_Apr_13_1049,Go No-Go Task,2021.1.4,120.07396555287443,
,"Rule: When you see a yellow image, do not press 'spacebar'.",Images/Happy/HF05_HO.jpg,Happy,Blue,Images/Blue.jpg,space,ParentConditions/YellowYellowBlue_v2.xlsx,YellowYellowBlue,Conditions/Version_2/YellowFearStop.xlsx,no,PASS,0.4418945189155604,,,,,,,,,0,0,0,1,0,0,0,0,0,57,57,57,,,,,,,,,,,,,,,,,,,,,,,,,,,,,,,,,,,,,,,,,,,,,,,,,,,,,,,,,,,,,,,,,,,,,,,,,,,,,,,1.93,595.8406830999884,None,space,1,597.8742197999964,None,597.8742197999964,None,597.8742197999964,None,0.2460238999919966,,,,,,,,,,,P036,FENCOG,2,Pre,2022_Apr_13_1049,Go No-Go Task,2021.1.4,120.07396555287443,
,"Rule: When you see a yellow image, do not press 'spacebar'.",Images/Fearful/AF01_FO.jpg,Fear,Yellow,Images/Yellow.jpg,None,ParentConditions/YellowYellowBlue_v2.xlsx,YellowYellowBlue,Conditions/Version_2/YellowFearStop.xlsx,yes,PASS,0.9630260753042453,,,,,,,,,0,0,0,1,0,0,0,0,0,58,58,58,,,,,,,,,,,,,,,,,,,,,,,,,,,,,,,,,,,,,,,,,,,,,,,,,,,,,,,,,,,,,,,,,,,,,,,,,,,,,,,1.43,598.2743912999867,None,None,1,599.8070334999938,None,599.8070334999938,None,599.8070334999938,None,,,,,,,,,,,,P036,FENCOG,2,Pre,2022_Apr_13_1049,Go No-Go Task,2021.1.4,120.07396555287443,
,"Rule: When you see a yellow image, do not press 'spacebar'.",Images/Happy/AF21HAS.jpg,Happy,Blue,Images/Blue.jpg,space,ParentConditions/YellowYellowBlue_v2.xlsx,YellowYellowBlue,Conditions/Version_2/YellowFearStop.xlsx,no,PASS,0.5410977161582079,,,,,,,,,0,0,0,1,0,0,0,0,0,59,59,59,,,,,,,,,,,,,,,,,,,,,,,,,,,,,,,,,,,,,,,,,,,,,,,,,,,,,,,,,,,,,,,,,,,,,,,,,,,,,,,1.69,600.2062518999737,None,space,1,602.0063213999965,None,602.0063213999965,None,602.0063213999965,None,0.2337409000028856,,,,,,,,,,,P036,FENCOG,2,Pre,2022_Apr_13_1049,Go No-Go Task,2021.1.4,120.07396555287443,
,"Rule: When you see a yellow image, do not press 'spacebar'.",Images/Happy/AM06_HC.jpg,Happy,Blue,Images/Blue.jpg,space,ParentConditions/YellowYellowBlue_v2.xlsx,YellowYellowBlue,Conditions/Version_2/YellowFearStop.xlsx,no,PASS,0.8195458073624309,,,,,,,,,0,0,0,1,0,0,0,0,0,60,60,60,,,,,,,,,,,,,,,,,,,,,,,,,,,,,,,,,,,,,,,,,,,,,,,,,,,,,,,,,,,,,,,,,,,,,,,,,,,,,,,1.25,602.4004784999997,None,space,1,603.7641260999953,None,603.7641260999953,None,603.7641260999953,None,0.26824950001901016,,,,,,,,,,,P036,FENCOG,2,Pre,2022_Apr_13_1049,Go No-Go Task,2021.1.4,120.07396555287443,
,"Rule: When you see a yellow image, do not press 'spacebar'.",Images/Fearful/AF02AFS.jpg,Fear,Yellow,Images/Yellow.jpg,None,ParentConditions/YellowYellowBlue_v2.xlsx,YellowYellowBlue,Conditions/Version_2/YellowFearStop.xlsx,yes,PASS,0.43475605439224807,,,,,,,,,0,0,0,1,0,0,0,0,0,61,61,61,,,,,,,,,,,,,,,,,,,,,,,,,,,,,,,,,,,,,,,,,,,,,,,,,,,,,,,,,,,,,,,,,,,,,,,,,,,,,,,1.68,604.1681267999811,None,None,1,605.9635468999913,None,605.9635468999913,None,605.9635468999913,None,,,,,,,,,,,,P036,FENCOG,2,Pre,2022_Apr_13_1049,Go No-Go Task,2021.1.4,120.07396555287443,
,"Rule: When you see a yellow image, do not press 'spacebar'.",Images/Happy/AF25HAS.jpg,Happy,Blue,Images/Blue.jpg,space,ParentConditions/YellowYellowBlue_v2.xlsx,YellowYellowBlue,Conditions/Version_2/YellowFearStop.xlsx,no,PASS,0.35344562160834636,,,,,,,,,0,0,0,1,0,0,0,0,0,62,62,62,,,,,,,,,,,,,,,,,,,,,,,,,,,,,,,,,,,,,,,,,,,,,,,,,,,,,,,,,,,,,,,,,,,,,,,,,,,,,,,1.92,606.3623109999753,None,space,1,608.3960669999942,None,608.3960669999942,None,608.3960669999942,None,0.35590979998232797,,,,,,,,,,,P036,FENCOG,2,Pre,2022_Apr_13_1049,Go No-Go Task,2021.1.4,120.07396555287443,
,"Rule: When you see a yellow image, do not press 'spacebar'.",Images/Happy/AM32HAS.jpg,Happy,Blue,Images/Blue.jpg,space,ParentConditions/YellowYellowBlue_v2.xlsx,YellowYellowBlue,Conditions/Version_2/YellowFearStop.xlsx,no,PASS,0.10846156836896592,,,,,,,,,0,0,0,1,0,0,0,0,0,63,63,63,,,,,,,,,,,,,,,,,,,,,,,,,,,,,,,,,,,,,,,,,,,,,,,,,,,,,,,,,,,,,,,,,,,,,,,,,,,,,,,1.44,608.7950910999789,None,space,1,610.3371797,None,610.3371797,None,610.3371797,None,0.27069289999781176,,,,,,,,,,,P036,FENCOG,2,Pre,2022_Apr_13_1049,Go No-Go Task,2021.1.4,120.07396555287443,
,"Rule: When you see a yellow image, do not press 'spacebar'.",Images/Fearful/AM02_FO.jpg,Fear,Yellow,Images/Yellow.jpg,None,ParentConditions/YellowYellowBlue_v2.xlsx,YellowYellowBlue,Conditions/Version_2/YellowFearStop.xlsx,yes,PASS,0.093492050295921,,,,,,,,,0,0,0,1,0,0,0,0,0,64,64,64,,,,,,,,,,,,,,,,,,,,,,,,,,,,,,,,,,,,,,,,,,,,,,,,,,,,,,,,,,,,,,,,,,,,,,,,,,,,,,,1.49,610.7394196999958,None,None,1,612.3449236999732,None,612.3449236999732,None,612.3449236999732,None,,,,,,,,,,,,P036,FENCOG,2,Pre,2022_Apr_13_1049,Go No-Go Task,2021.1.4,120.07396555287443,
,"Rule: When you see a yellow image, do not press 'spacebar'.",Images/Fearful/BM02_FC.jpg,Fear,Yellow,Images/Yellow.jpg,None,ParentConditions/YellowYellowBlue_v2.xlsx,YellowYellowBlue,Conditions/Version_2/YellowFearStop.xlsx,yes,PASS,0.8390777988560751,,,,,,,,,0,0,0,1,0,0,0,0,0,65,65,65,,,,,,,,,,,,,,,,,,,,,,,,,,,,,,,,,,,,,,,,,,,,,,,,,,,,,,,,,,,,,,,,,,,,,,,,,,,,,,,1.4,612.7380817999947,None,space,0,614.2526277999859,None,614.2526277999859,None,614.2526277999859,None,0.2598331000190228,,,,,,,,,,,P036,FENCOG,2,Pre,2022_Apr_13_1049,Go No-Go Task,2021.1.4,120.07396555287443,
,"Rule: When you see a yellow image, do not press 'spacebar'.",Images/Happy/AM04_HE.jpg,Happy,Blue,Images/Blue.jpg,space,ParentConditions/YellowYellowBlue_v2.xlsx,YellowYellowBlue,Conditions/Version_2/YellowFearStop.xlsx,no,PASS,0.268677407796428,,,,,,,,,0,0,0,1,0,0,0,0,0,66,66,66,,,,,,,,,,,,,,,,,,,,,,,,,,,,,,,,,,,,,,,,,,,,,,,,,,,,,,,,,,,,,,,,,,,,,,,,,,,,,,,1.84,614.6515748999955,None,space,1,616.6103078999731,None,616.6103078999731,None,616.6103078999731,None,0.29397810000227764,,,,,,,,,,,P036,FENCOG,2,Pre,2022_Apr_13_1049,Go No-Go Task,2021.1.4,120.07396555287443,
,"Rule: When you see a yellow image, do not press 'spacebar'.",Images/Fearful/AM05AFS.jpg,Fear,Yellow,Images/Yellow.jpg,None,ParentConditions/YellowYellowBlue_v2.xlsx,YellowYellowBlue,Conditions/Version_2/YellowFearStop.xlsx,yes,PASS,0.6951263252071049,,,,,,,,,0,0,0,1,0,0,0,0,0,67,67,67,,,,,,,,,,,,,,,,,,,,,,,,,,,,,,,,,,,,,,,,,,,,,,,,,,,,,,,,,,,,,,,,,,,,,,,,,,,,,,,1.75,617.0008619999862,None,None,1,618.8513471999904,None,618.8513471999904,None,618.8513471999904,None,,,,,,,,,,,,P036,FENCOG,2,Pre,2022_Apr_13_1049,Go No-Go Task,2021.1.4,120.07396555287443,
,"Rule: When you see a yellow image, do not press 'spacebar'.",Images/Happy/AF28HAS.jpg,Happy,Blue,Images/Blue.jpg,space,ParentConditions/YellowYellowBlue_v2.xlsx,YellowYellowBlue,Conditions/Version_2/YellowFearStop.xlsx,no,PASS,0.25032705960911217,,,,,,,,,0,0,0,1,0,0,0,0,0,68,68,68,,,,,,,,,,,,,,,,,,,,,,,,,,,,,,,,,,,,,,,,,,,,,,,,,,,,,,,,,,,,,,,,,,,,,,,,,,,,,,,1.34,619.2548956999963,None,space,1,620.7090862999903,None,620.7090862999903,None,620.7090862999903,None,0.34691659998497926,,,,,,,,,,,P036,FENCOG,2,Pre,2022_Apr_13_1049,Go No-Go Task,2021.1.4,120.07396555287443,
,"Rule: When you see a yellow image, do not press 'spacebar'.",Images/Happy/AF07_HO.jpg,Happy,Blue,Images/Blue.jpg,space,ParentConditions/YellowYellowBlue_v2.xlsx,YellowYellowBlue,Conditions/Version_2/YellowFearStop.xlsx,no,PASS,0.293841477080362,,,,,,,,,0,0,0,1,0,0,0,0,0,69,69,69,,,,,,,,,,,,,,,,,,,,,,,,,,,,,,,,,,,,,,,,,,,,,,,,,,,,,,,,,,,,,,,,,,,,,,,,,,,,,,,1.33,621.1078134999843,None,space,1,622.5502455999958,None,622.5502455999958,None,622.5502455999958,None,0.2903595000097994,,,,,,,,,,,P036,FENCOG,2,Pre,2022_Apr_13_1049,Go No-Go Task,2021.1.4,120.07396555287443,
,"Rule: When you see a yellow image, do not press 'spacebar'.",Images/Happy/BF14_HO.jpg,Happy,Blue,Images/Blue.jpg,space,ParentConditions/YellowYellowBlue_v2.xlsx,YellowYellowBlue,Conditions/Version_2/YellowFearStop.xlsx,no,PASS,0.40422519447396765,,,,,,,,,0,0,0,1,0,0,0,0,0,70,70,70,,,,,,,,,,,,,,,,,,,,,,,,,,,,,,,,,,,,,,,,,,,,,,,,,,,,,,,,,,,,,,,,,,,,,,,,,,,,,,,1.35,622.9496202000009,None,space,1,624.3997311999847,None,624.3997311999847,None,624.3997311999847,None,0.3366139999998268,,,,,,,,,,,P036,FENCOG,2,Pre,2022_Apr_13_1049,Go No-Go Task,2021.1.4,120.07396555287443,
,"Rule: When you see a yellow image, do not press 'spacebar'.",Images/Fearful/AF07FS.jpg,Fear,Yellow,Images/Yellow.jpg,None,ParentConditions/YellowYellowBlue_v2.xlsx,YellowYellowBlue,Conditions/Version_2/YellowFearStop.xlsx,yes,PASS,0.7059954464635801,,,,,,,,,0,0,0,1,0,0,0,0,0,71,71,71,,,,,,,,,,,,,,,,,,,,,,,,,,,,,,,,,,,,,,,,,,,,,,,,,,,,,,,,,,,,,,,,,,,,,,,,,,,,,,,1.65,624.8109411999758,None,None,1,626.5740407999838,None,626.5740407999838,None,626.5740407999838,None,,,,,,,,,,,,P036,FENCOG,2,Pre,2022_Apr_13_1049,Go No-Go Task,2021.1.4,120.07396555287443,
,"Rule: When you see a yellow image, do not press 'spacebar'.",Images/Happy/AF32HAS.jpg,Happy,Blue,Images/Blue.jpg,space,ParentConditions/YellowYellowBlue_v2.xlsx,YellowYellowBlue,Conditions/Version_2/YellowFearStop.xlsx,no,PASS,0.6505932127186488,,,,,,,,,0,0,0,1,0,0,0,0,0,72,72,72,,,,,,,,,,,,,,,,,,,,,,,,,,,,,,,,,,,,,,,,,,,,,,,,,,,,,,,,,,,,,,,,,,,,,,,,,,,,,,,1.81,626.9701740999881,None,space,1,628.8900228999846,None,628.8900228999846,None,628.8900228999846,None,0.3180180999916047,,,,,,,,,,,P036,FENCOG,2,Pre,2022_Apr_13_1049,Go No-Go Task,2021.1.4,120.07396555287443,
,"Rule: When you see a yellow image, do not press 'spacebar'.",Images/Happy/AF11HAS.jpg,Happy,Blue,Images/Blue.jpg,space,ParentConditions/YellowYellowBlue_v2.xlsx,YellowYellowBlue,Conditions/Version_2/YellowFearStop.xlsx,no,PASS,0.22413936824153813,,,,,,,,,0,0,0,1,0,0,0,0,0,73,73,73,,,,,,,,,,,,,,,,,,,,,,,,,,,,,,,,,,,,,,,,,,,,,,,,,,,,,,,,,,,,,,,,,,,,,,,,,,,,,,,1.57,629.2873983999889,None,space,1,630.9730255999893,None,630.9730255999893,None,630.9730255999893,None,0.307018399995286,,,,,,,,,,,P036,FENCOG,2,Pre,2022_Apr_13_1049,Go No-Go Task,2021.1.4,120.07396555287443,
,"Rule: When you see a yellow image, do not press 'spacebar'.",Images/Happy/AM19HAS.jpg,Happy,Blue,Images/Blue.jpg,space,ParentConditions/YellowYellowBlue_v2.xlsx,YellowYellowBlue,Conditions/Version_2/YellowFearStop.xlsx,no,PASS,0.5367328627339492,,,,,,,,,0,0,0,1,0,0,0,0,0,74,74,74,,,,,,,,,,,,,,,,,,,,,,,,,,,,,,,,,,,,,,,,,,,,,,,,,,,,,,,,,,,,,,,,,,,,,,,,,,,,,,,1.39,631.3714455999725,None,space,1,632.8636274999881,None,632.8636274999881,None,632.8636274999881,None,0.31261339999036863,,,,,,,,,,,P036,FENCOG,2,Pre,2022_Apr_13_1049,Go No-Go Task,2021.1.4,120.07396555287443,
,"Rule: When you see a yellow image, do not press 'spacebar'.",Images/Happy/AM01HAS.jpg,Happy,Blue,Images/Blue.jpg,space,ParentConditions/YellowYellowBlue_v2.xlsx,YellowYellowBlue,Conditions/Version_2/YellowFearStop.xlsx,no,PASS,0.4512238869721793,,,,,,,,,0,0,0,1,0,0,0,0,0,75,75,75,,,,,,,,,,,,,,,,,,,,,,,,,,,,,,,,,,,,,,,,,,,,,,,,,,,,,,,,,,,,,,,,,,,,,,,,,,,,,,,1.53,633.2667873999744,None,space,1,634.9132589999936,None,634.9132589999936,None,634.9132589999936,None,0.3030256000056397,,,,,,,,,,,P036,FENCOG,2,Pre,2022_Apr_13_1049,Go No-Go Task,2021.1.4,120.07396555287443,
,"Rule: When you see a yellow image, do not press 'spacebar'.",Images/Happy/WF05_HC.jpg,Happy,Blue,Images/Blue.jpg,space,ParentConditions/YellowYellowBlue_v2.xlsx,YellowYellowBlue,Conditions/Version_2/YellowFearStop.xlsx,no,PASS,0.7681499259335962,,,,,,,,,0,0,0,1,0,0,0,0,0,76,76,76,,,,,,,,,,,,,,,,,,,,,,,,,,,,,,,,,,,,,,,,,,,,,,,,,,,,,,,,,,,,,,,,,,,,,,,,,,,,,,,1.78,635.3092685999873,None,space,1,637.2042519999959,None,637.2042519999959,None,637.2042519999959,None,0.3078778000199236,,,,,,,,,,,P036,FENCOG,2,Pre,2022_Apr_13_1049,Go No-Go Task,2021.1.4,120.07396555287443,
,"Rule: When you see a yellow image, do not press 'spacebar'.",Images/Happy/BM03_HO.jpg,Happy,Blue,Images/Blue.jpg,space,ParentConditions/YellowYellowBlue_v2.xlsx,YellowYellowBlue,Conditions/Version_2/YellowFearStop.xlsx,no,PASS,0.5824047138137685,,,,,,,,,0,0,0,1,0,0,0,0,0,77,77,77,,,,,,,,,,,,,,,,,,,,,,,,,,,,,,,,,,,,,,,,,,,,,,,,,,,,,,,,,,,,,,,,,,,,,,,,,,,,,,,1.21,637.6050329999998,None,space,1,638.9287380999885,None,638.9287380999885,None,638.9287380999885,None,0.27937720000045374,,,,,,,,,,,P036,FENCOG,2,Pre,2022_Apr_13_1049,Go No-Go Task,2021.1.4,120.07396555287443,
,"Rule: When you see a yellow image, do not press 'spacebar'.",Images/Happy/AM02_HE.jpg,Happy,Blue,Images/Blue.jpg,space,ParentConditions/YellowYellowBlue_v2.xlsx,YellowYellowBlue,Conditions/Version_2/YellowFearStop.xlsx,no,PASS,0.8791068347561973,,,,,,,,,0,0,0,1,0,0,0,0,0,78,78,78,,,,,,,,,,,,,,,,,,,,,,,,,,,,,,,,,,,,,,,,,,,,,,,,,,,,,,,,,,,,,,,,,,,,,,,,,,,,,,,1.88,639.3276065999817,None,space,1,641.3197108999884,None,641.3197108999884,None,641.3197108999884,None,0.312368900020374,,,,,,,,,,,P036,FENCOG,2,Pre,2022_Apr_13_1049,Go No-Go Task,2021.1.4,120.07396555287443,
,"Rule: When you see a yellow image, do not press 'spacebar'.",Images/Fearful/AM06_FO.jpg,Fear,Yellow,Images/Yellow.jpg,None,ParentConditions/YellowYellowBlue_v2.xlsx,YellowYellowBlue,Conditions/Version_2/YellowFearStop.xlsx,yes,PASS,0.40627235988994603,,,,,,,,,0,0,0,1,0,0,0,0,0,79,79,79,,,,,,,,,,,,,,,,,,,,,,,,,,,,,,,,,,,,,,,,,,,,,,,,,,,,,,,,,,,,,,,,,,,,,,,,,,,,,,,1.5,641.7186028999859,None,None,1,643.3274261999759,None,643.3274261999759,None,643.3274261999759,None,,,,,,,,,,,,P036,FENCOG,2,Pre,2022_Apr_13_1049,Go No-Go Task,2021.1.4,120.07396555287443,
,"Rule: When you see a yellow image, do not press 'spacebar'.",Images/Scram2/HM09_NC.jpg,Scramble,Blue,Images/Blue.jpg,space,ParentConditions/YellowYellowBlue_v2.xlsx,YellowYellowBlue,Conditions/Version_2/YellowScramStop.xlsx,no,PASS,0.46719820189093064,,,,,,,,,0,0,0,1,0,1,1,1,0,0,0,0,,,,,,,,,,,,,,,,,,,,,,,,,,,,,,,,,,,,,,,,,,,,,,,,,,,,,,,,,,,,,,,,,711.2031525999773,None,714.197431699984,None,space,0.7545931999920867,714.197431699984,None,711.2031525999773,None,711.2031525999773,None,711.2031525999773,None,1.84,715.0183817999787,None,None,0,716.9723413999891,None,716.9723413999891,None,716.9723413999891,None,,643.7415509999846,None,space,66.94930040001054,644.2345379999897,None,643.7415509999846,None,643.7415509999846,None,P036,FENCOG,2,Pre,2022_Apr_13_1049,Go No-Go Task,2021.1.4,120.07396555287443,
,"Rule: When you see a yellow image, do not press 'spacebar'.",Images/Scram2/HM06_NC.jpg,Scramble,Blue,Images/Blue.jpg,space,ParentConditions/YellowYellowBlue_v2.xlsx,YellowYellowBlue,Conditions/Version_2/YellowScramStop.xlsx,no,PASS,0.564231421897386,,,,,,,,,0,0,0,1,0,1,1,1,0,1,1,1,,,,,,,,,,,,,,,,,,,,,,,,,,,,,,,,,,,,,,,,,,,,,,,,,,,,,,,,,,,,,,,,,,,,,,,,,,,,,,,1.43,717.3714630999893,None,space,1,718.9051509999845,None,718.9051509999845,None,718.9051509999845,None,0.2868886000069324,,,,,,,,,,,P036,FENCOG,2,Pre,2022_Apr_13_1049,Go No-Go Task,2021.1.4,120.07396555287443,
,"Rule: When you see a yellow image, do not press 'spacebar'.",Images/Scram1/AM31NES.jpg,Scramble,Blue,Images/Blue.jpg,space,ParentConditions/YellowYellowBlue_v2.xlsx,YellowYellowBlue,Conditions/Version_2/YellowScramStop.xlsx,no,PASS,0.846238330522312,,,,,,,,,0,0,0,1,0,1,1,1,0,2,2,2,,,,,,,,,,,,,,,,,,,,,,,,,,,,,,,,,,,,,,,,,,,,,,,,,,,,,,,,,,,,,,,,,,,,,,,,,,,,,,,1.82,719.3110057000013,None,space,1,721.246066199994,None,721.246066199994,None,721.246066199994,None,0.281917499989504,,,,,,,,,,,P036,FENCOG,2,Pre,2022_Apr_13_1049,Go No-Go Task,2021.1.4,120.07396555287443,
,"Rule: When you see a yellow image, do not press 'spacebar'.",Images/Scram2/AM03NES.jpg,Scramble,Yellow,Images/Yellow.jpg,None,ParentConditions/YellowYellowBlue_v2.xlsx,YellowYellowBlue,Conditions/Version_2/YellowScramStop.xlsx,yes,PASS,0.3566483684653988,,,,,,,,,0,0,0,1,0,1,1,1,0,3,3,3,,,,,,,,,,,,,,,,,,,,,,,,,,,,,,,,,,,,,,,,,,,,,,,,,,,,,,,,,,,,,,,,,,,,,,,,,,,,,,,1.58,721.6451528999896,None,None,1,723.3287936999986,None,723.3287936999986,None,723.3287936999986,None,,,,,,,,,,,,P036,FENCOG,2,Pre,2022_Apr_13_1049,Go No-Go Task,2021.1.4,120.07396555287443,
,"Rule: When you see a yellow image, do not press 'spacebar'.",Images/Scram2/BM01_NC.jpg,Scramble,Blue,Images/Blue.jpg,space,ParentConditions/YellowYellowBlue_v2.xlsx,YellowYellowBlue,Conditions/Version_2/YellowScramStop.xlsx,no,PASS,0.6300515820310504,,,,,,,,,0,0,0,1,0,1,1,1,0,4,4,4,,,,,,,,,,,,,,,,,,,,,,,,,,,,,,,,,,,,,,,,,,,,,,,,,,,,,,,,,,,,,,,,,,,,,,,,,,,,,,,1.64,723.7278574999946,None,space,1,725.478152799973,None,725.478152799973,None,725.478152799973,None,0.22621640001307242,,,,,,,,,,,P036,FENCOG,2,Pre,2022_Apr_13_1049,Go No-Go Task,2021.1.4,120.07396555287443,
,"Rule: When you see a yellow image, do not press 'spacebar'.",Images/Scram1/HM09_NC.jpg,Scramble,Blue,Images/Blue.jpg,space,ParentConditions/YellowYellowBlue_v2.xlsx,YellowYellowBlue,Conditions/Version_2/YellowScramStop.xlsx,no,PASS,0.9681952009545239,,,,,,,,,0,0,0,1,0,1,1,1,0,5,5,5,,,,,,,,,,,,,,,,,,,,,,,,,,,,,,,,,,,,,,,,,,,,,,,,,,,,,,,,,,,,,,,,,,,,,,,,,,,,,,,1.62,725.8697332000011,None,space,1,727.6025177999982,None,727.6025177999982,None,727.6025177999982,None,0.3254300999979023,,,,,,,,,,,P036,FENCOG,2,Pre,2022_Apr_13_1049,Go No-Go Task,2021.1.4,120.07396555287443,
,"Rule: When you see a yellow image, do not press 'spacebar'.",Images/Scram2/BF07_NC.jpg,Scramble,Blue,Images/Blue.jpg,space,ParentConditions/YellowYellowBlue_v2.xlsx,YellowYellowBlue,Conditions/Version_2/YellowScramStop.xlsx,no,PASS,0.21646267744166114,,,,,,,,,0,0,0,1,0,1,1,1,0,6,6,6,,,,,,,,,,,,,,,,,,,,,,,,,,,,,,,,,,,,,,,,,,,,,,,,,,,,,,,,,,,,,,,,,,,,,,,,,,,,,,,1.45,728.0014096999948,None,space,1,729.5603067999764,None,729.5603067999764,None,729.5603067999764,None,0.2958645000180695,,,,,,,,,,,P036,FENCOG,2,Pre,2022_Apr_13_1049,Go No-Go Task,2021.1.4,120.07396555287443,
,"Rule: When you see a yellow image, do not press 'spacebar'.",Images/Scram1/BF14_NC.jpg,Scramble,Blue,Images/Blue.jpg,space,ParentConditions/YellowYellowBlue_v2.xlsx,YellowYellowBlue,Conditions/Version_2/YellowScramStop.xlsx,no,PASS,0.9846643703258401,,,,,,,,,0,0,0,1,0,1,1,1,0,7,7,7,,,,,,,,,,,,,,,,,,,,,,,,,,,,,,,,,,,,,,,,,,,,,,,,,,,,,,,,,,,,,,,,,,,,,,,,,,,,,,,1.8,729.9592138999724,None,space,1,731.8679528999783,None,731.8679528999783,None,731.8679528999783,None,0.31667250001919456,,,,,,,,,,,P036,FENCOG,2,Pre,2022_Apr_13_1049,Go No-Go Task,2021.1.4,120.07396555287443,
,"Rule: When you see a yellow image, do not press 'spacebar'.",Images/Scram2/AF10_NC.jpg,Scramble,Blue,Images/Blue.jpg,space,ParentConditions/YellowYellowBlue_v2.xlsx,YellowYellowBlue,Conditions/Version_2/YellowScramStop.xlsx,no,PASS,0.2443614348279377,,,,,,,,,0,0,0,1,0,1,1,1,0,8,8,8,,,,,,,,,,,,,,,,,,,,,,,,,,,,,,,,,,,,,,,,,,,,,,,,,,,,,,,,,,,,,,,,,,,,,,,,,,,,,,,1.66,732.265207599994,None,space,1,734.0257559999882,None,734.0257559999882,None,734.0257559999882,None,0.24646160000702366,,,,,,,,,,,P036,FENCOG,2,Pre,2022_Apr_13_1049,Go No-Go Task,2021.1.4,120.07396555287443,
,"Rule: When you see a yellow image, do not press 'spacebar'.",Images/Scram2/AF01_NC.jpg,Scramble,Blue,Images/Blue.jpg,space,ParentConditions/YellowYellowBlue_v2.xlsx,YellowYellowBlue,Conditions/Version_2/YellowScramStop.xlsx,no,PASS,0.5418077894665677,,,,,,,,,0,0,0,1,0,1,1,1,0,9,9,9,,,,,,,,,,,,,,,,,,,,,,,,,,,,,,,,,,,,,,,,,,,,,,,,,,,,,,,,,,,,,,,,,,,,,,,,,,,,,,,1.71,734.4262444999767,None,space,1,736.2500010999793,None,736.2500010999793,None,736.2500010999793,None,0.30199249999714084,,,,,,,,,,,P036,FENCOG,2,Pre,2022_Apr_13_1049,Go No-Go Task,2021.1.4,120.07396555287443,
,"Rule: When you see a yellow image, do not press 'spacebar'.",Images/Scram2/AF24NES.jpg,Scramble,Blue,Images/Blue.jpg,space,ParentConditions/YellowYellowBlue_v2.xlsx,YellowYellowBlue,Conditions/Version_2/YellowScramStop.xlsx,no,PASS,0.5679342954932528,,,,,,,,,0,0,0,1,0,1,1,1,0,10,10,10,,,,,,,,,,,,,,,,,,,,,,,,,,,,,,,,,,,,,,,,,,,,,,,,,,,,,,,,,,,,,,,,,,,,,,,,,,,,,,,1.25,736.6489157999749,None,space,1,738.0078129999747,None,738.0078129999747,None,738.0078129999747,None,0.2481495000247378,,,,,,,,,,,P036,FENCOG,2,Pre,2022_Apr_13_1049,Go No-Go Task,2021.1.4,120.07396555287443,
,"Rule: When you see a yellow image, do not press 'spacebar'.",Images/Scram2/BF14_NC.jpg,Scramble,Blue,Images/Blue.jpg,space,ParentConditions/YellowYellowBlue_v2.xlsx,YellowYellowBlue,Conditions/Version_2/YellowScramStop.xlsx,no,PASS,0.8825179199303765,,,,,,,,,0,0,0,1,0,1,1,1,0,11,11,11,,,,,,,,,,,,,,,,,,,,,,,,,,,,,,,,,,,,,,,,,,,,,,,,,,,,,,,,,,,,,,,,,,,,,,,,,,,,,,,1.83,738.4068163999764,None,space,1,740.3490779999993,None,740.3490779999993,None,740.3490779999993,None,0.2747725000081118,,,,,,,,,,,P036,FENCOG,2,Pre,2022_Apr_13_1049,Go No-Go Task,2021.1.4,120.07396555287443,
,"Rule: When you see a yellow image, do not press 'spacebar'.",Images/Scram1/AM13NES.jpg,Scramble,Blue,Images/Blue.jpg,space,ParentConditions/YellowYellowBlue_v2.xlsx,YellowYellowBlue,Conditions/Version_2/YellowScramStop.xlsx,no,PASS,0.21043647733489834,,,,,,,,,0,0,0,1,0,1,1,1,0,12,12,12,,,,,,,,,,,,,,,,,,,,,,,,,,,,,,,,,,,,,,,,,,,,,,,,,,,,,,,,,,,,,,,,,,,,,,,,,,,,,,,1.61,740.7476437999867,None,space,1,742.4644448999898,None,742.4644448999898,None,742.4644448999898,None,0.2476398999860976,,,,,,,,,,,P036,FENCOG,2,Pre,2022_Apr_13_1049,Go No-Go Task,2021.1.4,120.07396555287443,
,"Rule: When you see a yellow image, do not press 'spacebar'.",Images/Scram1/HM04_NC.jpg,Scramble,Blue,Images/Blue.jpg,space,ParentConditions/YellowYellowBlue_v2.xlsx,YellowYellowBlue,Conditions/Version_2/YellowScramStop.xlsx,no,PASS,0.048118244636673246,,,,,,,,,0,0,0,1,0,1,1,1,0,13,13,13,,,,,,,,,,,,,,,,,,,,,,,,,,,,,,,,,,,,,,,,,,,,,,,,,,,,,,,,,,,,,,,,,,,,,,,,,,,,,,,1.46,742.8655494999839,None,space,1,744.4392558999825,None,744.4392558999825,None,744.4392558999825,None,0.25666340001043864,,,,,,,,,,,P036,FENCOG,2,Pre,2022_Apr_13_1049,Go No-Go Task,2021.1.4,120.07396555287443,
,"Rule: When you see a yellow image, do not press 'spacebar'.",Images/Scram1/AM03NES.jpg,Scramble,Blue,Images/Blue.jpg,space,ParentConditions/YellowYellowBlue_v2.xlsx,YellowYellowBlue,Conditions/Version_2/YellowScramStop.xlsx,no,PASS,0.5072407620323995,,,,,,,,,0,0,0,1,0,1,1,1,0,14,14,14,,,,,,,,,,,,,,,,,,,,,,,,,,,,,,,,,,,,,,,,,,,,,,,,,,,,,,,,,,,,,,,,,,,,,,,,,,,,,,,1.87,744.8381816999754,None,space,1,746.8135639999819,None,746.8135639999819,None,746.8135639999819,None,0.28232119997846894,,,,,,,,,,,P036,FENCOG,2,Pre,2022_Apr_13_1049,Go No-Go Task,2021.1.4,120.07396555287443,
,"Rule: When you see a yellow image, do not press 'spacebar'.",Images/Scram1/AM22NES.jpg,Scramble,Blue,Images/Blue.jpg,space,ParentConditions/YellowYellowBlue_v2.xlsx,YellowYellowBlue,Conditions/Version_2/YellowScramStop.xlsx,no,PASS,0.8332736468200919,,,,,,,,,0,0,0,1,0,1,1,1,0,15,15,15,,,,,,,,,,,,,,,,,,,,,,,,,,,,,,,,,,,,,,,,,,,,,,,,,,,,,,,,,,,,,,,,,,,,,,,,,,,,,,,1.5,747.2154118999897,None,space,1,748.8296948999923,None,748.8296948999923,None,748.8296948999923,None,0.2827633999986574,,,,,,,,,,,P036,FENCOG,2,Pre,2022_Apr_13_1049,Go No-Go Task,2021.1.4,120.07396555287443,
,"Rule: When you see a yellow image, do not press 'spacebar'.",Images/Scram2/AM17NES.jpg,Scramble,Yellow,Images/Yellow.jpg,None,ParentConditions/YellowYellowBlue_v2.xlsx,YellowYellowBlue,Conditions/Version_2/YellowScramStop.xlsx,yes,PASS,0.5524440306249002,,,,,,,,,0,0,0,1,0,1,1,1,0,16,16,16,,,,,,,,,,,,,,,,,,,,,,,,,,,,,,,,,,,,,,,,,,,,,,,,,,,,,,,,,,,,,,,,,,,,,,,,,,,,,,,1.27,749.2207620999834,None,None,1,750.6044172999973,None,750.6044172999973,None,750.6044172999973,None,,,,,,,,,,,,P036,FENCOG,2,Pre,2022_Apr_13_1049,Go No-Go Task,2021.1.4,120.07396555287443,
,"Rule: When you see a yellow image, do not press 'spacebar'.",Images/Scram1/AM10NES.jpg,Scramble,Blue,Images/Blue.jpg,space,ParentConditions/YellowYellowBlue_v2.xlsx,YellowYellowBlue,Conditions/Version_2/YellowScramStop.xlsx,no,PASS,0.13699730503466545,,,,,,,,,0,0,0,1,0,1,1,1,0,17,17,17,,,,,,,,,,,,,,,,,,,,,,,,,,,,,,,,,,,,,,,,,,,,,,,,,,,,,,,,,,,,,,,,,,,,,,,,,,,,,,,1.55,751.0030828999879,None,space,1,752.6618791999936,None,752.6618791999936,None,752.6618791999936,None,0.2741282999922987,,,,,,,,,,,P036,FENCOG,2,Pre,2022_Apr_13_1049,Go No-Go Task,2021.1.4,120.07396555287443,
,"Rule: When you see a yellow image, do not press 'spacebar'.",Images/Scram2/AM03_NC.jpg,Scramble,Yellow,Images/Yellow.jpg,None,ParentConditions/YellowYellowBlue_v2.xlsx,YellowYellowBlue,Conditions/Version_2/YellowScramStop.xlsx,yes,PASS,0.2886954903206703,,,,,,,,,0,0,0,1,0,1,1,1,0,18,18,18,,,,,,,,,,,,,,,,,,,,,,,,,,,,,,,,,,,,,,,,,,,,,,,,,,,,,,,,,,,,,,,,,,,,,,,,,,,,,,,1.23,753.0607095999876,None,None,1,754.3946741999825,None,754.3946741999825,None,754.3946741999825,None,,,,,,,,,,,,P036,FENCOG,2,Pre,2022_Apr_13_1049,Go No-Go Task,2021.1.4,120.07396555287443,
,"Rule: When you see a yellow image, do not press 'spacebar'.",Images/Scram1/HF09_NC.jpg,Scramble,Blue,Images/Blue.jpg,space,ParentConditions/YellowYellowBlue_v2.xlsx,YellowYellowBlue,Conditions/Version_2/YellowScramStop.xlsx,no,PASS,0.5210471780653185,,,,,,,,,0,0,0,1,0,1,1,1,0,19,19,19,,,,,,,,,,,,,,,,,,,,,,,,,,,,,,,,,,,,,,,,,,,,,,,,,,,,,,,,,,,,,,,,,,,,,,,,,,,,,,,1.93,754.80056589999,None,space,1,756.8356259999855,None,756.8356259999855,None,756.8356259999855,None,0.3323219000012614,,,,,,,,,,,P036,FENCOG,2,Pre,2022_Apr_13_1049,Go No-Go Task,2021.1.4,120.07396555287443,
,"Rule: When you see a yellow image, do not press 'spacebar'.",Images/Scram1/BM08_NC.jpg,Scramble,Blue,Images/Blue.jpg,space,ParentConditions/YellowYellowBlue_v2.xlsx,YellowYellowBlue,Conditions/Version_2/YellowScramStop.xlsx,no,PASS,0.7192207106921986,,,,,,,,,0,0,0,1,0,1,1,1,0,20,20,20,,,,,,,,,,,,,,,,,,,,,,,,,,,,,,,,,,,,,,,,,,,,,,,,,,,,,,,,,,,,,,,,,,,,,,,,,,,,,,,1.34,757.238541699975,None,space,1,758.6767260999768,None,758.6767260999768,None,758.6767260999768,None,0.291382600000361,,,,,,,,,,,P036,FENCOG,2,Pre,2022_Apr_13_1049,Go No-Go Task,2021.1.4,120.07396555287443,
,"Rule: When you see a yellow image, do not press 'spacebar'.",Images/Scram1/AF32NES.jpg,Scramble,Blue,Images/Blue.jpg,space,ParentConditions/YellowYellowBlue_v2.xlsx,YellowYellowBlue,Conditions/Version_2/YellowScramStop.xlsx,no,PASS,0.3856706921106089,,,,,,,,,0,0,0,1,0,1,1,1,0,21,21,21,,,,,,,,,,,,,,,,,,,,,,,,,,,,,,,,,,,,,,,,,,,,,,,,,,,,,,,,,,,,,,,,,,,,,,,,,,,,,,,1.42,759.0832622999733,None,space,1,760.6178774999862,None,760.6178774999862,None,760.6178774999862,None,0.2306117000116501,,,,,,,,,,,P036,FENCOG,2,Pre,2022_Apr_13_1049,Go No-Go Task,2021.1.4,120.07396555287443,
,"Rule: When you see a yellow image, do not press 'spacebar'.",Images/Scram2/AM06_NC.jpg,Scramble,Yellow,Images/Yellow.jpg,None,ParentConditions/YellowYellowBlue_v2.xlsx,YellowYellowBlue,Conditions/Version_2/YellowScramStop.xlsx,yes,PASS,0.593844606938259,,,,,,,,,0,0,0,1,0,1,1,1,0,22,22,22,,,,,,,,,,,,,,,,,,,,,,,,,,,,,,,,,,,,,,,,,,,,,,,,,,,,,,,,,,,,,,,,,,,,,,,,,,,,,,,1.4,761.0151284999738,None,None,1,762.5255892999994,None,762.5255892999994,None,762.5255892999994,None,,,,,,,,,,,,P036,FENCOG,2,Pre,2022_Apr_13_1049,Go No-Go Task,2021.1.4,120.07396555287443,
,"Rule: When you see a yellow image, do not press 'spacebar'.",Images/Scram1/AM06_NC.jpg,Scramble,Blue,Images/Blue.jpg,space,ParentConditions/YellowYellowBlue_v2.xlsx,YellowYellowBlue,Conditions/Version_2/YellowScramStop.xlsx,no,PASS,0.5597751985943138,,,,,,,,,0,0,0,1,0,1,1,1,0,23,23,23,,,,,,,,,,,,,,,,,,,,,,,,,,,,,,,,,,,,,,,,,,,,,,,,,,,,,,,,,,,,,,,,,,,,,,,,,,,,,,,1.32,762.9244616999931,None,space,1,764.3583758999885,None,764.3583758999885,None,764.3583758999885,None,0.25772500000311993,,,,,,,,,,,P036,FENCOG,2,Pre,2022_Apr_13_1049,Go No-Go Task,2021.1.4,120.07396555287443,
,"Rule: When you see a yellow image, do not press 'spacebar'.",Images/Scram2/AM02_NC.jpg,Scramble,Yellow,Images/Yellow.jpg,None,ParentConditions/YellowYellowBlue_v2.xlsx,YellowYellowBlue,Conditions/Version_2/YellowScramStop.xlsx,yes,PASS,0.21014535444537008,,,,,,,,,0,0,0,1,0,1,1,1,0,24,24,24,,,,,,,,,,,,,,,,,,,,,,,,,,,,,,,,,,,,,,,,,,,,,,,,,,,,,,,,,,,,,,,,,,,,,,,,,,,,,,,1.81,764.7530772999744,None,None,1,766.6743713999749,None,766.6743713999749,None,766.6743713999749,None,,,,,,,,,,,,P036,FENCOG,2,Pre,2022_Apr_13_1049,Go No-Go Task,2021.1.4,120.07396555287443,
,"Rule: When you see a yellow image, do not press 'spacebar'.",Images/Scram2/HF05_NC.jpg,Scramble,Blue,Images/Blue.jpg,space,ParentConditions/YellowYellowBlue_v2.xlsx,YellowYellowBlue,Conditions/Version_2/YellowScramStop.xlsx,no,PASS,0.0025091428399978133,,,,,,,,,0,0,0,1,0,1,1,1,0,25,25,25,,,,,,,,,,,,,,,,,,,,,,,,,,,,,,,,,,,,,,,,,,,,,,,,,,,,,,,,,,,,,,,,,,,,,,,,,,,,,,,1.53,767.0749621999857,None,space,1,768.7154456999851,None,768.7154456999851,None,768.7154456999851,None,0.2687881000165362,,,,,,,,,,,P036,FENCOG,2,Pre,2022_Apr_13_1049,Go No-Go Task,2021.1.4,120.07396555287443,
,"Rule: When you see a yellow image, do not press 'spacebar'.",Images/Scram2/AF32NES.jpg,Scramble,Yellow,Images/Yellow.jpg,None,ParentConditions/YellowYellowBlue_v2.xlsx,YellowYellowBlue,Conditions/Version_2/YellowScramStop.xlsx,yes,PASS,0.5621638043526047,,,,,,,,,0,0,0,1,0,1,1,1,0,26,26,26,,,,,,,,,,,,,,,,,,,,,,,,,,,,,,,,,,,,,,,,,,,,,,,,,,,,,,,,,,,,,,,,,,,,,,,,,,,,,,,1.63,769.1209570999781,None,None,1,770.8647873999726,None,770.8647873999726,None,770.8647873999726,None,,,,,,,,,,,,P036,FENCOG,2,Pre,2022_Apr_13_1049,Go No-Go Task,2021.1.4,120.07396555287443,
,"Rule: When you see a yellow image, do not press 'spacebar'.",Images/Scram2/HM04_NC.jpg,Scramble,Blue,Images/Blue.jpg,space,ParentConditions/YellowYellowBlue_v2.xlsx,YellowYellowBlue,Conditions/Version_2/YellowScramStop.xlsx,no,PASS,0.3656961779732233,,,,,,,,,0,0,0,1,0,1,1,1,0,27,27,27,,,,,,,,,,,,,,,,,,,,,,,,,,,,,,,,,,,,,,,,,,,,,,,,,,,,,,,,,,,,,,,,,,,,,,,,,,,,,,,1.31,771.2651236999955,None,space,1,772.6892455999914,None,772.6892455999914,None,772.6892455999914,None,0.2793207000067923,,,,,,,,,,,P036,FENCOG,2,Pre,2022_Apr_13_1049,Go No-Go Task,2021.1.4,120.07396555287443,
,"Rule: When you see a yellow image, do not press 'spacebar'.",Images/Scram2/AF25NES.jpg,Scramble,Blue,Images/Blue.jpg,space,ParentConditions/YellowYellowBlue_v2.xlsx,YellowYellowBlue,Conditions/Version_2/YellowScramStop.xlsx,no,PASS,0.24296732370581886,,,,,,,,,0,0,0,1,0,1,1,1,0,28,28,28,,,,,,,,,,,,,,,,,,,,,,,,,,,,,,,,,,,,,,,,,,,,,,,,,,,,,,,,,,,,,,,,,,,,,,,,,,,,,,,1.94,773.0842280999932,None,space,1,775.1301932999922,None,775.1301932999922,None,775.1301932999922,None,0.2620805000187829,,,,,,,,,,,P036,FENCOG,2,Pre,2022_Apr_13_1049,Go No-Go Task,2021.1.4,120.07396555287443,
,"Rule: When you see a yellow image, do not press 'spacebar'.",Images/Scram1/AF34NES.jpg,Scramble,Blue,Images/Blue.jpg,space,ParentConditions/YellowYellowBlue_v2.xlsx,YellowYellowBlue,Conditions/Version_2/YellowScramStop.xlsx,no,PASS,0.2947970947694444,,,,,,,,,0,0,0,1,0,1,1,1,0,29,29,29,,,,,,,,,,,,,,,,,,,,,,,,,,,,,,,,,,,,,,,,,,,,,,,,,,,,,,,,,,,,,,,,,,,,,,,,,,,,,,,1.91,775.5394903999986,None,space,1,777.5545175999869,None,777.5545175999869,None,777.5545175999869,None,0.2614205999998376,,,,,,,,,,,P036,FENCOG,2,Pre,2022_Apr_13_1049,Go No-Go Task,2021.1.4,120.07396555287443,
,"Rule: When you see a yellow image, do not press 'spacebar'.",Images/Scram2/AF11NES.jpg,Scramble,Blue,Images/Blue.jpg,space,ParentConditions/YellowYellowBlue_v2.xlsx,YellowYellowBlue,Conditions/Version_2/YellowScramStop.xlsx,no,PASS,0.06112693600308039,,,,,,,,,0,0,0,1,0,1,1,1,0,30,30,30,,,,,,,,,,,,,,,,,,,,,,,,,,,,,,,,,,,,,,,,,,,,,,,,,,,,,,,,,,,,,,,,,,,,,,,,,,,,,,,1.47,777.9553623999818,None,space,1,779.537228000001,None,779.537228000001,None,779.537228000001,None,0.28662979998625815,,,,,,,,,,,P036,FENCOG,2,Pre,2022_Apr_13_1049,Go No-Go Task,2021.1.4,120.07396555287443,
,"Rule: When you see a yellow image, do not press 'spacebar'.",Images/Scram2/AF34NES.jpg,Scramble,Yellow,Images/Yellow.jpg,None,ParentConditions/YellowYellowBlue_v2.xlsx,YellowYellowBlue,Conditions/Version_2/YellowScramStop.xlsx,yes,PASS,0.36837427021744795,,,,,,,,,0,0,0,1,0,1,1,1,0,31,31,31,,,,,,,,,,,,,,,,,,,,,,,,,,,,,,,,,,,,,,,,,,,,,,,,,,,,,,,,,,,,,,,,,,,,,,,,,,,,,,,1.29,779.9362599999877,None,None,1,781.3366690999828,None,781.3366690999828,None,781.3366690999828,None,,,,,,,,,,,,P036,FENCOG,2,Pre,2022_Apr_13_1049,Go No-Go Task,2021.1.4,120.07396555287443,
,"Rule: When you see a yellow image, do not press 'spacebar'.",Images/Scram1/AM02_NC.jpg,Scramble,Blue,Images/Blue.jpg,space,ParentConditions/YellowYellowBlue_v2.xlsx,YellowYellowBlue,Conditions/Version_2/YellowScramStop.xlsx,no,PASS,0.7004017432139685,,,,,,,,,0,0,0,1,0,1,1,1,0,32,32,32,,,,,,,,,,,,,,,,,,,,,,,,,,,,,,,,,,,,,,,,,,,,,,,,,,,,,,,,,,,,,,,,,,,,,,,,,,,,,,,1.22,781.7359026999911,None,space,1,783.0695056999975,None,783.0695056999975,None,783.0695056999975,None,0.2743437000026461,,,,,,,,,,,P036,FENCOG,2,Pre,2022_Apr_13_1049,Go No-Go Task,2021.1.4,120.07396555287443,
,"Rule: When you see a yellow image, do not press 'spacebar'.",Images/Scram2/AM13NES.jpg,Scramble,Yellow,Images/Yellow.jpg,None,ParentConditions/YellowYellowBlue_v2.xlsx,YellowYellowBlue,Conditions/Version_2/YellowScramStop.xlsx,yes,PASS,0.7037668434542473,,,,,,,,,0,0,0,1,0,1,1,1,0,33,33,33,,,,,,,,,,,,,,,,,,,,,,,,,,,,,,,,,,,,,,,,,,,,,,,,,,,,,,,,,,,,,,,,,,,,,,,,,,,,,,,1.96,783.511008499976,None,space,0,785.5854243999929,None,785.5854243999929,None,785.5854243999929,None,0.2703588000149466,,,,,,,,,,,P036,FENCOG,2,Pre,2022_Apr_13_1049,Go No-Go Task,2021.1.4,120.07396555287443,
,"Rule: When you see a yellow image, do not press 'spacebar'.",Images/Scram1/AM03_NC.jpg,Scramble,Blue,Images/Blue.jpg,space,ParentConditions/YellowYellowBlue_v2.xlsx,YellowYellowBlue,Conditions/Version_2/YellowScramStop.xlsx,no,PASS,0.13984736132192788,,,,,,,,,0,0,0,1,0,1,1,1,0,34,34,34,,,,,,,,,,,,,,,,,,,,,,,,,,,,,,,,,,,,,,,,,,,,,,,,,,,,,,,,,,,,,,,,,,,,,,,,,,,,,,,1.89,785.9844824999745,None,space,1,787.9854983999976,None,787.9854983999976,None,787.9854983999976,None,0.24657730001490563,,,,,,,,,,,P036,FENCOG,2,Pre,2022_Apr_13_1049,Go No-Go Task,2021.1.4,120.07396555287443,
,"Rule: When you see a yellow image, do not press 'spacebar'.",Images/Scram1/AF33NES.jpg,Scramble,Blue,Images/Blue.jpg,space,ParentConditions/YellowYellowBlue_v2.xlsx,YellowYellowBlue,Conditions/Version_2/YellowScramStop.xlsx,no,PASS,0.7479968675198729,,,,,,,,,0,0,0,1,0,1,1,1,0,35,35,35,,,,,,,,,,,,,,,,,,,,,,,,,,,,,,,,,,,,,,,,,,,,,,,,,,,,,,,,,,,,,,,,,,,,,,,,,,,,,,,1.54,788.3837619999831,None,space,1,790.0341299999855,None,790.0341299999855,None,790.0341299999855,None,0.2539013000205159,,,,,,,,,,,P036,FENCOG,2,Pre,2022_Apr_13_1049,Go No-Go Task,2021.1.4,120.07396555287443,
,"Rule: When you see a yellow image, do not press 'spacebar'.",Images/Scram1/BF10_NC.jpg,Scramble,Blue,Images/Blue.jpg,space,ParentConditions/YellowYellowBlue_v2.xlsx,YellowYellowBlue,Conditions/Version_2/YellowScramStop.xlsx,no,PASS,0.5225639267337787,,,,,,,,,0,0,0,1,0,1,1,1,0,36,36,36,,,,,,,,,,,,,,,,,,,,,,,,,,,,,,,,,,,,,,,,,,,,,,,,,,,,,,,,,,,,,,,,,,,,,,,,,,,,,,,1.33,790.4333243999863,None,space,1,791.8749343999953,None,791.8749343999953,None,791.8749343999953,None,0.26100919998134486,,,,,,,,,,,P036,FENCOG,2,Pre,2022_Apr_13_1049,Go No-Go Task,2021.1.4,120.07396555287443,
,"Rule: When you see a yellow image, do not press 'spacebar'.",Images/Scram1/AF07_NC.jpg,Scramble,Blue,Images/Blue.jpg,space,ParentConditions/YellowYellowBlue_v2.xlsx,YellowYellowBlue,Conditions/Version_2/YellowScramStop.xlsx,no,PASS,0.5221002530466395,,,,,,,,,0,0,0,1,0,1,1,1,0,37,37,37,,,,,,,,,,,,,,,,,,,,,,,,,,,,,,,,,,,,,,,,,,,,,,,,,,,,,,,,,,,,,,,,,,,,,,,,,,,,,,,1.65,792.2741228999803,None,space,1,794.0329626999737,None,794.0329626999737,None,794.0329626999737,None,0.26302040001610294,,,,,,,,,,,P036,FENCOG,2,Pre,2022_Apr_13_1049,Go No-Go Task,2021.1.4,120.07396555287443,
,"Rule: When you see a yellow image, do not press 'spacebar'.",Images/Scram2/AM23NES.jpg,Scramble,Yellow,Images/Yellow.jpg,None,ParentConditions/YellowYellowBlue_v2.xlsx,YellowYellowBlue,Conditions/Version_2/YellowScramStop.xlsx,yes,PASS,0.18195499113806335,,,,,,,,,0,0,0,1,0,1,1,1,0,38,38,38,,,,,,,,,,,,,,,,,,,,,,,,,,,,,,,,,,,,,,,,,,,,,,,,,,,,,,,,,,,,,,,,,,,,,,,,,,,,,,,1.97,794.4327228999755,None,None,1,796.5155173999956,None,796.5155173999956,None,796.5155173999956,None,,,,,,,,,,,,P036,FENCOG,2,Pre,2022_Apr_13_1049,Go No-Go Task,2021.1.4,120.07396555287443,
,"Rule: When you see a yellow image, do not press 'spacebar'.",Images/Scram1/AF24NES.jpg,Scramble,Blue,Images/Blue.jpg,space,ParentConditions/YellowYellowBlue_v2.xlsx,YellowYellowBlue,Conditions/Version_2/YellowScramStop.xlsx,no,PASS,0.6640389388315467,,,,,,,,,0,0,0,1,0,1,1,1,0,39,39,39,,,,,,,,,,,,,,,,,,,,,,,,,,,,,,,,,,,,,,,,,,,,,,,,,,,,,,,,,,,,,,,,,,,,,,,,,,,,,,,1.26,796.9147799999919,None,space,1,798.281690999982,None,798.281690999982,None,798.281690999982,None,0.27043619999312796,,,,,,,,,,,P036,FENCOG,2,Pre,2022_Apr_13_1049,Go No-Go Task,2021.1.4,120.07396555287443,
,"Rule: When you see a yellow image, do not press 'spacebar'.",Images/Scram2/AF33NES.jpg,Scramble,Yellow,Images/Yellow.jpg,None,ParentConditions/YellowYellowBlue_v2.xlsx,YellowYellowBlue,Conditions/Version_2/YellowScramStop.xlsx,yes,PASS,0.6203826022283658,,,,,,,,,0,0,0,1,0,1,1,1,0,40,40,40,,,,,,,,,,,,,,,,,,,,,,,,,,,,,,,,,,,,,,,,,,,,,,,,,,,,,,,,,,,,,,,,,,,,,,,,,,,,,,,1.38,798.6809412000002,None,None,1,800.1728221999947,None,800.1728221999947,None,800.1728221999947,None,,,,,,,,,,,,P036,FENCOG,2,Pre,2022_Apr_13_1049,Go No-Go Task,2021.1.4,120.07396555287443,
,"Rule: When you see a yellow image, do not press 'spacebar'.",Images/Scram1/AF25NES.jpg,Scramble,Blue,Images/Blue.jpg,space,ParentConditions/YellowYellowBlue_v2.xlsx,YellowYellowBlue,Conditions/Version_2/YellowScramStop.xlsx,no,PASS,0.05141546475857928,,,,,,,,,0,0,0,1,0,1,1,1,0,41,41,41,,,,,,,,,,,,,,,,,,,,,,,,,,,,,,,,,,,,,,,,,,,,,,,,,,,,,,,,,,,,,,,,,,,,,,,,,,,,,,,1.39,800.5718732999812,None,space,1,802.0722381999949,None,802.0722381999949,None,802.0722381999949,None,0.28754429999389686,,,,,,,,,,,P036,FENCOG,2,Pre,2022_Apr_13_1049,Go No-Go Task,2021.1.4,120.07396555287443,
,"Rule: When you see a yellow image, do not press 'spacebar'.",Images/Scram2/AM10NES.jpg,Scramble,Yellow,Images/Yellow.jpg,None,ParentConditions/YellowYellowBlue_v2.xlsx,YellowYellowBlue,Conditions/Version_2/YellowScramStop.xlsx,yes,PASS,0.1267743006232639,,,,,,,,,0,0,0,1,0,1,1,1,0,42,42,42,,,,,,,,,,,,,,,,,,,,,,,,,,,,,,,,,,,,,,,,,,,,,,,,,,,,,,,,,,,,,,,,,,,,,,,,,,,,,,,1.79,802.4722088999988,None,None,1,804.371578899998,None,804.371578899998,None,804.371578899998,None,,,,,,,,,,,,P036,FENCOG,2,Pre,2022_Apr_13_1049,Go No-Go Task,2021.1.4,120.07396555287443,
,"Rule: When you see a yellow image, do not press 'spacebar'.",Images/Scram2/BF10_NC.jpg,Scramble,Blue,Images/Blue.jpg,space,ParentConditions/YellowYellowBlue_v2.xlsx,YellowYellowBlue,Conditions/Version_2/YellowScramStop.xlsx,no,PASS,0.22016560502147287,,,,,,,,,0,0,0,1,0,1,1,1,0,43,43,43,,,,,,,,,,,,,,,,,,,,,,,,,,,,,,,,,,,,,,,,,,,,,,,,,,,,,,,,,,,,,,,,,,,,,,,,,,,,,,,1.2,804.7680474999943,None,space,1,806.0877288999909,None,806.0877288999909,None,806.0877288999909,None,0.2241216999827884,,,,,,,,,,,P036,FENCOG,2,Pre,2022_Apr_13_1049,Go No-Go Task,2021.1.4,120.07396555287443,
,"Rule: When you see a yellow image, do not press 'spacebar'.",Images/Scram1/BF18_NC.jpg,Scramble,Blue,Images/Blue.jpg,space,ParentConditions/YellowYellowBlue_v2.xlsx,YellowYellowBlue,Conditions/Version_2/YellowScramStop.xlsx,no,PASS,0.11487631985977975,,,,,,,,,0,0,0,1,0,1,1,1,0,44,44,44,,,,,,,,,,,,,,,,,,,,,,,,,,,,,,,,,,,,,,,,,,,,,,,,,,,,,,,,,,,,,,,,,,,,,,,,,,,,,,,1.69,806.478266399994,None,space,1,808.2620469999965,None,808.2620469999965,None,808.2620469999965,None,0.3381299000175204,,,,,,,,,,,P036,FENCOG,2,Pre,2022_Apr_13_1049,Go No-Go Task,2021.1.4,120.07396555287443,
,"Rule: When you see a yellow image, do not press 'spacebar'.",Images/Scram2/HF09_NC.jpg,Scramble,Blue,Images/Blue.jpg,space,ParentConditions/YellowYellowBlue_v2.xlsx,YellowYellowBlue,Conditions/Version_2/YellowScramStop.xlsx,no,PASS,0.20475492045840804,,,,,,,,,0,0,0,1,0,1,1,1,0,45,45,45,,,,,,,,,,,,,,,,,,,,,,,,,,,,,,,,,,,,,,,,,,,,,,,,,,,,,,,,,,,,,,,,,,,,,,,,,,,,,,,1.76,808.6655382999743,None,space,1,810.5364103999746,None,810.5364103999746,None,810.5364103999746,None,0.2958455999905709,,,,,,,,,,,P036,FENCOG,2,Pre,2022_Apr_13_1049,Go No-Go Task,2021.1.4,120.07396555287443,
,"Rule: When you see a yellow image, do not press 'spacebar'.",Images/Scram1/BF05_NC.jpg,Scramble,Blue,Images/Blue.jpg,space,ParentConditions/YellowYellowBlue_v2.xlsx,YellowYellowBlue,Conditions/Version_2/YellowScramStop.xlsx,no,PASS,0.6685497116677461,,,,,,,,,0,0,0,1,0,1,1,1,0,46,46,46,,,,,,,,,,,,,,,,,,,,,,,,,,,,,,,,,,,,,,,,,,,,,,,,,,,,,,,,,,,,,,,,,,,,,,,,,,,,,,,1.95,810.929997899977,None,space,1,812.9940066999989,None,812.9940066999989,None,812.9940066999989,None,0.33442159998230636,,,,,,,,,,,P036,FENCOG,2,Pre,2022_Apr_13_1049,Go No-Go Task,2021.1.4,120.07396555287443,
,"Rule: When you see a yellow image, do not press 'spacebar'.",Images/Scram1/AM17NES.jpg,Scramble,Blue,Images/Blue.jpg,space,ParentConditions/YellowYellowBlue_v2.xlsx,YellowYellowBlue,Conditions/Version_2/YellowScramStop.xlsx,no,PASS,0.5575549831069895,,,,,,,,,0,0,0,1,0,1,1,1,0,47,47,47,,,,,,,,,,,,,,,,,,,,,,,,,,,,,,,,,,,,,,,,,,,,,,,,,,,,,,,,,,,,,,,,,,,,,,,,,,,,,,,1.57,813.3906040999864,None,space,1,815.0768302999786,None,815.0768302999786,None,815.0768302999786,None,0.2911032999982126,,,,,,,,,,,P036,FENCOG,2,Pre,2022_Apr_13_1049,Go No-Go Task,2021.1.4,120.07396555287443,
,"Rule: When you see a yellow image, do not press 'spacebar'.",Images/Scram2/AM09_NC.jpg,Scramble,Yellow,Images/Yellow.jpg,None,ParentConditions/YellowYellowBlue_v2.xlsx,YellowYellowBlue,Conditions/Version_2/YellowScramStop.xlsx,yes,PASS,0.08490473937246712,,,,,,,,,0,0,0,1,0,1,1,1,0,48,48,48,,,,,,,,,,,,,,,,,,,,,,,,,,,,,,,,,,,,,,,,,,,,,,,,,,,,,,,,,,,,,,,,,,,,,,,,,,,,,,,1.72,815.4749689999735,None,None,1,817.3093750999833,None,817.3093750999833,None,817.3093750999833,None,,,,,,,,,,,,P036,FENCOG,2,Pre,2022_Apr_13_1049,Go No-Go Task,2021.1.4,120.07396555287443,
,"Rule: When you see a yellow image, do not press 'spacebar'.",Images/Scram2/AF09NES.jpg,Scramble,Blue,Images/Blue.jpg,space,ParentConditions/YellowYellowBlue_v2.xlsx,YellowYellowBlue,Conditions/Version_2/YellowScramStop.xlsx,no,PASS,0.8511922023884788,,,,,,,,,0,0,0,1,0,1,1,1,0,49,49,49,,,,,,,,,,,,,,,,,,,,,,,,,,,,,,,,,,,,,,,,,,,,,,,,,,,,,,,,,,,,,,,,,,,,,,,,,,,,,,,1.36,817.7083225999959,None,space,1,819.1838577999733,None,819.1838577999733,None,819.1838577999733,None,0.35996650002198294,,,,,,,,,,,P036,FENCOG,2,Pre,2022_Apr_13_1049,Go No-Go Task,2021.1.4,120.07396555287443,
,"Rule: When you see a yellow image, do not press 'spacebar'.",Images/Scram2/AM04_NC.jpg,Scramble,Yellow,Images/Yellow.jpg,None,ParentConditions/YellowYellowBlue_v2.xlsx,YellowYellowBlue,Conditions/Version_2/YellowScramStop.xlsx,yes,PASS,0.9711738915701108,,,,,,,,,0,0,0,1,0,1,1,1,0,50,50,50,,,,,,,,,,,,,,,,,,,,,,,,,,,,,,,,,,,,,,,,,,,,,,,,,,,,,,,,,,,,,,,,,,,,,,,,,,,,,,,1.6,819.5829981999996,None,None,1,821.2915414999879,None,821.2915414999879,None,821.2915414999879,None,,,,,,,,,,,,P036,FENCOG,2,Pre,2022_Apr_13_1049,Go No-Go Task,2021.1.4,120.07396555287443,
,"Rule: When you see a yellow image, do not press 'spacebar'.",Images/Scram2/BF05_NC.jpg,Scramble,Yellow,Images/Yellow.jpg,None,ParentConditions/YellowYellowBlue_v2.xlsx,YellowYellowBlue,Conditions/Version_2/YellowScramStop.xlsx,yes,PASS,0.3684660889098009,,,,,,,,,0,0,0,1,0,1,1,1,0,51,51,51,,,,,,,,,,,,,,,,,,,,,,,,,,,,,,,,,,,,,,,,,,,,,,,,,,,,,,,,,,,,,,,,,,,,,,,,,,,,,,,1.44,821.6846231999807,None,None,1,823.2408354999789,None,823.2408354999789,None,823.2408354999789,None,,,,,,,,,,,,P036,FENCOG,2,Pre,2022_Apr_13_1049,Go No-Go Task,2021.1.4,120.07396555287443,
,"Rule: When you see a yellow image, do not press 'spacebar'.",Images/Scram1/HM06_NC.jpg,Scramble,Blue,Images/Blue.jpg,space,ParentConditions/YellowYellowBlue_v2.xlsx,YellowYellowBlue,Conditions/Version_2/YellowScramStop.xlsx,no,PASS,0.5754528995111275,,,,,,,,,0,0,0,1,0,1,1,1,0,52,52,52,,,,,,,,,,,,,,,,,,,,,,,,,,,,,,,,,,,,,,,,,,,,,,,,,,,,,,,,,,,,,,,,,,,,,,,,,,,,,,,1.41,823.633954399993,None,space,1,825.1572809999925,None,825.1572809999925,None,825.1572809999925,None,0.36253230000147596,,,,,,,,,,,P036,FENCOG,2,Pre,2022_Apr_13_1049,Go No-Go Task,2021.1.4,120.07396555287443,
,"Rule: When you see a yellow image, do not press 'spacebar'.",Images/Scram2/AF07NES.jpg,Scramble,Blue,Images/Blue.jpg,space,ParentConditions/YellowYellowBlue_v2.xlsx,YellowYellowBlue,Conditions/Version_2/YellowScramStop.xlsx,no,PASS,0.5077779466511061,,,,,,,,,0,0,0,1,0,1,1,1,0,53,53,53,,,,,,,,,,,,,,,,,,,,,,,,,,,,,,,,,,,,,,,,,,,,,,,,,,,,,,,,,,,,,,,,,,,,,,,,,,,,,,,1.56,825.5559792999993,None,None,0,827.2315760999918,None,827.2315760999918,None,827.2315760999918,None,,,,,,,,,,,,P036,FENCOG,2,Pre,2022_Apr_13_1049,Go No-Go Task,2021.1.4,120.07396555287443,
,"Rule: When you see a yellow image, do not press 'spacebar'.",Images/Scram1/BM01_NC.jpg,Scramble,Blue,Images/Blue.jpg,space,ParentConditions/YellowYellowBlue_v2.xlsx,YellowYellowBlue,Conditions/Version_2/YellowScramStop.xlsx,no,PASS,0.6162286290631079,,,,,,,,,0,0,0,1,0,1,1,1,0,54,54,54,,,,,,,,,,,,,,,,,,,,,,,,,,,,,,,,,,,,,,,,,,,,,,,,,,,,,,,,,,,,,,,,,,,,,,,,,,,,,,,1.37,827.6303735999973,None,space,1,829.1225681999931,None,829.1225681999931,None,829.1225681999931,None,0.26938039998640306,,,,,,,,,,,P036,FENCOG,2,Pre,2022_Apr_13_1049,Go No-Go Task,2021.1.4,120.07396555287443,
,"Rule: When you see a yellow image, do not press 'spacebar'.",Images/Scram2/AF07_NC.jpg,Scramble,Blue,Images/Blue.jpg,space,ParentConditions/YellowYellowBlue_v2.xlsx,YellowYellowBlue,Conditions/Version_2/YellowScramStop.xlsx,no,PASS,0.1394775454550986,,,,,,,,,0,0,0,1,0,1,1,1,0,55,55,55,,,,,,,,,,,,,,,,,,,,,,,,,,,,,,,,,,,,,,,,,,,,,,,,,,,,,,,,,,,,,,,,,,,,,,,,,,,,,,,1.51,829.5138623999956,None,space,1,831.138687300001,None,831.138687300001,None,831.138687300001,None,0.2856280999840237,,,,,,,,,,,P036,FENCOG,2,Pre,2022_Apr_13_1049,Go No-Go Task,2021.1.4,120.07396555287443,
