CondFileP,Instructions,FaceE,Express,ColourT,ColourF,CorrectAnsP,MasterCondFile,BlockOrder,CondFile,ColCheck,Triplicate_check,SORT_BY_SMALLEST,EPracticeOuterLoop.thisRepN,EPracticeOuterLoop.thisTrialN,EPracticeOuterLoop.thisN,EPracticeOuterLoop.thisIndex,EPracticeInnerLoop.thisRepN,EPracticeInnerLoop.thisTrialN,EPracticeInnerLoop.thisN,EPracticeInnerLoop.thisIndex,MasterLoop.thisRepN,MasterLoop.thisTrialN,MasterLoop.thisN,MasterLoop.thisIndex,OuterLoop.thisRepN,OuterLoop.thisTrialN,OuterLoop.thisN,OuterLoop.thisIndex,InnerLoop.thisRepN,InnerLoop.thisTrialN,InnerLoop.thisN,InnerLoop.thisIndex,text_13.started,text_13.stopped,key_resp_10.keys,key_resp_10.rt,key_resp_10.started,key_resp_10.stopped,text4.started,text4.stopped,EmotionTaskInstructions1.keys,EmotionTaskInstructions1.rt,EmotionTaskInstructions1.started,EmotionTaskInstructions1.stopped,text_4.started,text_4.stopped,key_resp_5.keys,key_resp_5.rt,key_resp_5.started,key_resp_5.stopped,Text_14.started,Text_14.stopped,key_resp_9.keys,key_resp_9.rt,key_resp_9.started,key_resp_9.stopped,text_5.started,text_5.stopped,text_6.started,text_6.stopped,key_resp_7.keys,key_resp_7.rt,key_resp_7.started,key_resp_7.stopped,text_10.started,text_10.stopped,text_11.started,text_11.stopped,text_12.started,text_12.stopped,ISIjitterPractice,EPracticeISIMarker.started,EPracticeISIMarker.stopped,Pract.keys,Pract.corr,Pract.started,Pract.stopped,PracticeFace.started,PracticeFace.stopped,ColourPractice.started,ColourPractice.stopped,text_7.started,text_7.stopped,Pract.rt,EndOfPractice.started,EndOfPractice.stopped,key_resp_8.keys,key_resp_8.rt,key_resp_8.started,key_resp_8.stopped,text_8.started,text_8.stopped,key_resp_6.keys,key_resp_6.rt,key_resp_6.started,key_resp_6.stopped,text_2.started,text_2.stopped,text_3.started,text_3.stopped,key_resp_3.keys,key_resp_3.rt,key_resp_3.started,key_resp_3.stopped,TaskBlock.started,TaskBlock.stopped,BlockNo1.started,BlockNo1.stopped,OfBlock.started,OfBlock.stopped,ISIjitter,ISImarker.started,ISImarker.stopped,key_resp.keys,key_resp.corr,key_resp.rt,key_resp.started,key_resp.stopped,FaceSet.started,FaceSet.stopped,Colour.started,Colour.stopped,EndBlockText.started,EndBlockText.stopped,key_resp_4.keys,key_resp_4.rt,key_resp_4.started,key_resp_4.stopped,BreakText2.started,BreakText2.stopped,PressToContinue.started,PressToContinue.stopped,participant,Study Name,Task Version (required to run),PRE/POST,date,expName,psychopyVersion,frameRate,
,,,,,,,,,,,,,,,,,,,,,,,,,,,,,,,,,23.392285199981416,None,space,83.57125490001636,24.383168700005626,None,,,,,,,,,,,,,,,,,,,,,,,,,,,,,,,,,,,,,,,,,,,,,,,,,,,,,,,,,,,,,,,,,,,,,,,,,,,,,,,,,,,,,,,,,,,,,,,P037,fencog,1,Pre,2022_Apr_22_1032,Go No-Go Task,2021.1.4,119.99774403920365,
,,,,,,,,,,,,,,,,,,,,,,,,,,,,,,,,,,,,,,,109.4850305999862,None,space,22.29355870001018,109.4850305999862,None,,,,,,,,,,,,,,,,,,,,,,,,,,,,,,,,,,,,,,,,,,,,,,,,,,,,,,,,,,,,,,,,,,,,,,,,,,,,,,,,,,,,,,,,,P037,fencog,1,Pre,2022_Apr_22_1032,Go No-Go Task,2021.1.4,119.99774403920365,
,,,,,,,,,,,,,,,,,,,,,,,,,,,,,,,,,,,,,,,,,,,,,131.84906129998853,None,space,12.68146490000072,131.84906129998853,None,,,,,,,,,,,,,,,,,,,,,,,,,,,,,,,,,,,,,,,,,,,,,,,,,,,,,,,,,,,,,,,,,,,,,,,,,,,,,,,,,,,P037,fencog,1,Pre,2022_Apr_22_1032,Go No-Go Task,2021.1.4,119.99774403920365,
,,,,,,,,,,,,,,,,,,,,,,,,,,,,,,,,,,,,,,,,,,,,,,,,,,,144.5408613999898,None,space,7.605778700002702,144.5408613999898,None,,,,,,,,,,,,,,,,,,,,,,,,,,,,,,,,,,,,,,,,,,,,,,,,,,,,,,,,,,,,,,,,,,,,,,,,,,,,,P037,fencog,1,Pre,2022_Apr_22_1032,Go No-Go Task,2021.1.4,119.99774403920365,
EPracticeConditions/BlueEyes.csv,"Rule: When you see a blue image, do not press 'spacebar'.",Images/Happy/HF09_HE.jpg,Happy,Yellow,Images/Yellow.jpg,space,,,,,,,0,0,0,0,0,0,0,6,,,,,,,,,,,,,,,,,,,,,,,,,,,,,,,,,,,,,152.22298859999864,None,155.21131829998922,None,space,9.175255700014532,155.21131829998922,None,152.22298859999864,None,152.22298859999864,None,152.22298859999864,None,1.2,164.6040749999811,None,None,0,165.96383429999696,None,165.96383429999696,None,165.96383429999696,None,167.50437589999638,None,,,,,,,,,,,,,,,,,,,,,,,,,,,,,,,,,,,,,,,,,,,,,,,,,,P037,fencog,1,Pre,2022_Apr_22_1032,Go No-Go Task,2021.1.4,119.99774403920365,
EPracticeConditions/BlueEyes.csv,"Rule: When you see a blue image, do not press 'spacebar'.",Images/Happy/BM02_HO.jpg,Happy,Yellow,Images/Yellow.jpg,space,,,,,,,0,0,0,0,0,1,1,2,,,,,,,,,,,,,,,,,,,,,,,,,,,,,,,,,,,,,,,,,,,,,,,,,,,1.7,168.84481219999725,None,space,1,170.65706269998918,None,170.65706269998918,None,170.65706269998918,None,171.55794939998304,None,0.32152210001368076,,,,,,,,,,,,,,,,,,,,,,,,,,,,,,,,,,,,,,,,,,,,,,,,,P037,fencog,1,Pre,2022_Apr_22_1032,Go No-Go Task,2021.1.4,119.99774403920365,
EPracticeConditions/BlueEyes.csv,"Rule: When you see a blue image, do not press 'spacebar'.",Images/Happy/BM08_HO.jpg,Happy,Yellow,Images/Yellow.jpg,space,,,,,,,0,0,0,0,0,2,2,3,,,,,,,,,,,,,,,,,,,,,,,,,,,,,,,,,,,,,,,,,,,,,,,,,,,1.6,173.55562890000874,None,space,1,175.2643681000045,None,175.2643681000045,None,175.2643681000045,None,176.1665015000035,None,0.36233209999045357,,,,,,,,,,,,,,,,,,,,,,,,,,,,,,,,,,,,,,,,,,,,,,,,,P037,fencog,1,Pre,2022_Apr_22_1032,Go No-Go Task,2021.1.4,119.99774403920365,
EPracticeConditions/BlueEyes.csv,"Rule: When you see a blue image, do not press 'spacebar'.",Images/Fearful/AF01_FO.jpg,Fear,Blue,Images/Blue.jpg,None,,,,,,,0,0,0,0,0,3,3,1,,,,,,,,,,,,,,,,,,,,,,,,,,,,,,,,,,,,,,,,,,,,,,,,,,,1.4,178.16266790000373,None,None,1,179.6796406999929,None,179.6796406999929,None,179.6796406999929,None,180.5677260000084,None,,,,,,,,,,,,,,,,,,,,,,,,,,,,,,,,,,,,,,,,,,,,,,,,,,P037,fencog,1,Pre,2022_Apr_22_1032,Go No-Go Task,2021.1.4,119.99774403920365,
EPracticeConditions/BlueEyes.csv,"Rule: When you see a blue image, do not press 'spacebar'.",Images/Happy/HF04_HE.jpg,Happy,Yellow,Images/Yellow.jpg,space,,,,,,,0,0,0,0,0,4,4,4,,,,,,,,,,,,,,,,,,,,,,,,,,,,,,,,,,,,,,,,,,,,,,,,,,,1.8,182.5696731999924,None,space,1,184.47832059999928,None,184.47832059999928,None,184.47832059999928,None,185.3720686000015,None,0.2683151999954134,,,,,,,,,,,,,,,,,,,,,,,,,,,,,,,,,,,,,,,,,,,,,,,,,P037,fencog,1,Pre,2022_Apr_22_1032,Go No-Go Task,2021.1.4,119.99774403920365,
EPracticeConditions/BlueEyes.csv,"Rule: When you see a blue image, do not press 'spacebar'.",Images/Happy/HF05_HO.jpg,Happy,Yellow,Images/Yellow.jpg,space,,,,,,,0,0,0,0,0,5,5,5,,,,,,,,,,,,,,,,,,,,,,,,,,,,,,,,,,,,,,,,,,,,,,,,,,,1.9,187.37645009998232,None,None,0,189.38520550000248,None,189.38520550000248,None,189.38520550000248,None,190.2908899000031,None,,,,,,,,,,,,,,,,,,,,,,,,,,,,,,,,,,,,,,,,,,,,,,,,,,P037,fencog,1,Pre,2022_Apr_22_1032,Go No-Go Task,2021.1.4,119.99774403920365,
EPracticeConditions/BlueEyes.csv,"Rule: When you see a blue image, do not press 'spacebar'.",Images/Fearful/HM09_FC.jpg,Fear,Blue,Images/Blue.jpg,None,,,,,,,0,0,0,0,0,6,6,0,,,,,,,,,,,,,,,,,,,,,,,,,,,,,,,,,,,,,,,,,,,,,,,,,,,1.5,192.2834434999968,None,None,1,193.90057929998147,None,193.90057929998147,None,193.90057929998147,None,194.79402010000194,None,,,,,,,,,,,,,,,,,,,,,,,,,,,,,,,,,,,,,,,,,,,,,,,,,,P037,fencog,1,Pre,2022_Apr_22_1032,Go No-Go Task,2021.1.4,119.99774403920365,
EPracticeConditions/BlueEyes.csv,"Rule: When you see a blue image, do not press 'spacebar'.",Images/Happy/HF10_HE.jpg,Happy,Yellow,Images/Yellow.jpg,space,,,,,,,0,0,0,0,0,7,7,7,,,,,,,,,,,,,,,,,,,,,,,,,,,,,,,,,,,,,,,,,,,,,,,,,,,1.3,196.7901343999838,None,space,1,198.19924029998947,None,198.19924029998947,None,198.19924029998947,None,199.0945756000001,None,0.37116820001392625,,,,,,,,,,,,,,,,,,,,,,,,,,,,,,,,,,,,,,,,,,,,,,,,,P037,fencog,1,Pre,2022_Apr_22_1032,Go No-Go Task,2021.1.4,119.99774403920365,
EPracticeConditions/BlueEyes.csv,"Rule: When you see a blue image, do not press 'spacebar'.",,,,,,,,,,,,0,0,0,0,,,,,,,,,,,,,,,,,,,,,,,,,,,,,,,,,,,,,,,,,,,,,,,,,,,,,,,,,,,,,,,,,,,,,,,,,,,,,,,,,,,,,,,,,,,,,,,,,,,,,,,,,,,,,,,,,,,,,P037,fencog,1,Pre,2022_Apr_22_1032,Go No-Go Task,2021.1.4,119.99774403920365,
EPracticeConditions/YellowEyes.csv,"Rule: When you see a yellow image, do not press 'spacebar'.",Images/Fearful/AM23AFS.jpg,Fear,Blue,Images/Blue.jpg,space,,,,,,,0,1,1,1,0,0,0,6,,,,,,,,,,,,,,,,,,,,,,,,,,,,,,,,,,,,,201.11724930000491,None,204.10508290000143,None,space,6.969301200006157,204.10508290000143,None,201.11724930000491,None,201.11724930000491,None,201.11724930000491,None,1.3,211.0988732999831,None,None,0,212.51166679998278,None,212.51166679998278,None,212.51166679998278,None,213.41297449998092,None,,,,,,,,,,,,,,,,,,,,,,,,,,,,,,,,,,,,,,,,,,,,,,,,,,P037,fencog,1,Pre,2022_Apr_22_1032,Go No-Go Task,2021.1.4,119.99774403920365,
EPracticeConditions/YellowEyes.csv,"Rule: When you see a yellow image, do not press 'spacebar'.",Images/Happy/AM32HAS.jpg,Happy,Yellow,Images/Yellow.jpg,None,,,,,,,0,1,1,1,0,1,1,0,,,,,,,,,,,,,,,,,,,,,,,,,,,,,,,,,,,,,,,,,,,,,,,,,,,1.6,215.40996980000637,None,None,1,217.11022629999206,None,217.11022629999206,None,217.11022629999206,None,218.0164889000007,None,,,,,,,,,,,,,,,,,,,,,,,,,,,,,,,,,,,,,,,,,,,,,,,,,,P037,fencog,1,Pre,2022_Apr_22_1032,Go No-Go Task,2021.1.4,119.99774403920365,
EPracticeConditions/YellowEyes.csv,"Rule: When you see a yellow image, do not press 'spacebar'.",Images/Fearful/AM24AFS.jpg,Fear,Blue,Images/Blue.jpg,space,,,,,,,0,1,1,1,0,2,2,7,,,,,,,,,,,,,,,,,,,,,,,,,,,,,,,,,,,,,,,,,,,,,,,,,,,1.4,220.01701660000253,None,space,1,221.5256468000007,None,221.5256468000007,None,221.5256468000007,None,222.42200580000645,None,0.32496119997813366,,,,,,,,,,,,,,,,,,,,,,,,,,,,,,,,,,,,,,,,,,,,,,,,,P037,fencog,1,Pre,2022_Apr_22_1032,Go No-Go Task,2021.1.4,119.99774403920365,
EPracticeConditions/YellowEyes.csv,"Rule: When you see a yellow image, do not press 'spacebar'.",Images/Fearful/AM19AFS.jpg,Fear,Blue,Images/Blue.jpg,space,,,,,,,0,1,1,1,0,3,3,4,,,,,,,,,,,,,,,,,,,,,,,,,,,,,,,,,,,,,,,,,,,,,,,,,,,1.8,224.42399379998096,None,space,1,226.33258590000332,None,226.33258590000332,None,226.33258590000332,None,227.22361829999136,None,0.36596349999308586,,,,,,,,,,,,,,,,,,,,,,,,,,,,,,,,,,,,,,,,,,,,,,,,,P037,fencog,1,Pre,2022_Apr_22_1032,Go No-Go Task,2021.1.4,119.99774403920365,
EPracticeConditions/YellowEyes.csv,"Rule: When you see a yellow image, do not press 'spacebar'.",Images/Fearful/AM16AFS.jpg,Fear,Blue,Images/Blue.jpg,space,,,,,,,0,1,1,1,0,4,4,2,,,,,,,,,,,,,,,,,,,,,,,,,,,,,,,,,,,,,,,,,,,,,,,,,,,1.5,229.23085799999535,None,space,1,230.83959109999705,None,230.83959109999705,None,230.83959109999705,None,231.7365244999819,None,0.378809599991655,,,,,,,,,,,,,,,,,,,,,,,,,,,,,,,,,,,,,,,,,,,,,,,,,P037,fencog,1,Pre,2022_Apr_22_1032,Go No-Go Task,2021.1.4,119.99774403920365,
EPracticeConditions/YellowEyes.csv,"Rule: When you see a yellow image, do not press 'spacebar'.",Images/Fearful/AM22AFS.jpg,Fear,Blue,Images/Blue.jpg,space,,,,,,,0,1,1,1,0,5,5,5,,,,,,,,,,,,,,,,,,,,,,,,,,,,,,,,,,,,,,,,,,,,,,,,,,,1.7,233.73807409999426,None,space,1,235.5465895999805,None,235.5465895999805,None,235.5465895999805,None,236.43692989999545,None,0.3439817000180483,,,,,,,,,,,,,,,,,,,,,,,,,,,,,,,,,,,,,,,,,,,,,,,,,P037,fencog,1,Pre,2022_Apr_22_1032,Go No-Go Task,2021.1.4,119.99774403920365,
EPracticeConditions/YellowEyes.csv,"Rule: When you see a yellow image, do not press 'spacebar'.",Images/Fearful/AM17AFS.jpg,Fear,Blue,Images/Blue.jpg,space,,,,,,,0,1,1,1,0,6,6,3,,,,,,,,,,,,,,,,,,,,,,,,,,,,,,,,,,,,,,,,,,,,,,,,,,,1.9,238.4377370000002,None,None,0,240.4533572999935,None,240.4533572999935,None,240.4533572999935,None,241.36022760000196,None,,,,,,,,,,,,,,,,,,,,,,,,,,,,,,,,,,,,,,,,,,,,,,,,,,P037,fencog,1,Pre,2022_Apr_22_1032,Go No-Go Task,2021.1.4,119.99774403920365,
EPracticeConditions/YellowEyes.csv,"Rule: When you see a yellow image, do not press 'spacebar'.",Images/Happy/BF05_HO.jpg,Happy,Yellow,Images/Yellow.jpg,None,,,,,,,0,1,1,1,0,7,7,1,,,,,,,,,,,,,,,,,,,,,,,,,,,,,,,,,,,,,,,,,,,,,,,,,,,1.2,243.3515322000021,None,None,1,244.6604459999944,None,244.6604459999944,None,244.6604459999944,None,245.56596989999525,None,,,,,,,,,,,,,,,,,,,,,,,,,,,,,,,,,,,,,,,,,,,,,,,,,,P037,fencog,1,Pre,2022_Apr_22_1032,Go No-Go Task,2021.1.4,119.99774403920365,
EPracticeConditions/YellowEyes.csv,"Rule: When you see a yellow image, do not press 'spacebar'.",,,,,,,,,,,,0,1,1,1,,,,,,,,,,,,,,,,,,,,,,,,,,,,,,,,,,,,,,,,,,,,,,,,,,,,,,,,,,,,,,,,,,,,,,,,,,,,,,,,,,,,,,,,,,,,,,,,,,,,,,,,,,,,,,,,,,,,,P037,fencog,1,Pre,2022_Apr_22_1032,Go No-Go Task,2021.1.4,119.99774403920365,
EPracticeConditions/BlueScram.csv,"Rule: When you see a blue image, do not press 'spacebar'.",Images/Scram2/AF10_NC.jpg,Scramble,Yellow,Images/Yellow.jpg,space,,,,,,,0,2,2,2,0,0,0,2,,,,,,,,,,,,,,,,,,,,,,,,,,,,,,,,,,,,,247.56856449999032,None,250.55817420000676,None,space,2.8842169000126887,250.55817420000676,None,247.56856449999032,None,247.56856449999032,None,247.56856449999032,None,1.2,253.46535620000213,None,space,1,254.774236199999,None,254.774236199999,None,254.774236199999,None,255.67062180000357,None,0.3482957000087481,,,,,,,,,,,,,,,,,,,,,,,,,,,,,,,,,,,,,,,,,,,,,,,,,P037,fencog,1,Pre,2022_Apr_22_1032,Go No-Go Task,2021.1.4,119.99774403920365,
EPracticeConditions/BlueScram.csv,"Rule: When you see a blue image, do not press 'spacebar'.",Images/Scram1/AM03NES.jpg,Scramble,Yellow,Images/Yellow.jpg,space,,,,,,,0,2,2,2,0,1,1,4,,,,,,,,,,,,,,,,,,,,,,,,,,,,,,,,,,,,,,,,,,,,,,,,,,,1.3,257.6733590000076,None,space,1,259.0814883999992,None,259.0814883999992,None,259.0814883999992,None,259.97170170000754,None,0.3209553000051528,,,,,,,,,,,,,,,,,,,,,,,,,,,,,,,,,,,,,,,,,,,,,,,,,P037,fencog,1,Pre,2022_Apr_22_1032,Go No-Go Task,2021.1.4,119.99774403920365,
EPracticeConditions/BlueScram.csv,"Rule: When you see a blue image, do not press 'spacebar'.",Images/Scram1/AM13NES.jpg,Scramble,Yellow,Images/Yellow.jpg,space,,,,,,,0,2,2,2,0,2,2,5,,,,,,,,,,,,,,,,,,,,,,,,,,,,,,,,,,,,,,,,,,,,,,,,,,,1.5,261.97142099999473,None,space,1,263.57992530000047,None,263.57992530000047,None,263.57992530000047,None,264.4766418999934,None,0.29438310000114143,,,,,,,,,,,,,,,,,,,,,,,,,,,,,,,,,,,,,,,,,,,,,,,,,P037,fencog,1,Pre,2022_Apr_22_1032,Go No-Go Task,2021.1.4,119.99774403920365,
EPracticeConditions/BlueScram.csv,"Rule: When you see a blue image, do not press 'spacebar'.",Images/Scram1/AM04_NC.jpg,Scramble,Yellow,Images/Yellow.jpg,space,,,,,,,0,2,2,2,0,3,3,3,,,,,,,,,,,,,,,,,,,,,,,,,,,,,,,,,,,,,,,,,,,,,,,,,,,1.4,266.47779229999287,None,space,1,267.9869284000015,None,267.9869284000015,None,267.9869284000015,None,268.87752189999446,None,0.29566929998691194,,,,,,,,,,,,,,,,,,,,,,,,,,,,,,,,,,,,,,,,,,,,,,,,,P037,fencog,1,Pre,2022_Apr_22_1032,Go No-Go Task,2021.1.4,119.99774403920365,
EPracticeConditions/BlueScram.csv,"Rule: When you see a blue image, do not press 'spacebar'.",Images/Scram1/BM08_NC.jpg,Scramble,Blue,Images/Blue.jpg,None,,,,,,,0,2,2,2,0,4,4,0,,,,,,,,,,,,,,,,,,,,,,,,,,,,,,,,,,,,,,,,,,,,,,,,,,,1.8,270.8775413999974,None,space,0,272.7939464999945,None,272.7939464999945,None,272.7939464999945,None,273.6942917999986,None,0.312364899989916,,,,,,,,,,,,,,,,,,,,,,,,,,,,,,,,,,,,,,,,,,,,,,,,,P037,fencog,1,Pre,2022_Apr_22_1032,Go No-Go Task,2021.1.4,119.99774403920365,
EPracticeConditions/BlueScram.csv,"Rule: When you see a blue image, do not press 'spacebar'.",Images/Scram1/BF18_NC.jpg,Scramble,Blue,Images/Blue.jpg,None,,,,,,,0,2,2,2,0,5,5,1,,,,,,,,,,,,,,,,,,,,,,,,,,,,,,,,,,,,,,,,,,,,,,,,,,,1.9,275.6957371000026,None,None,1,277.70896769998944,None,277.70896769998944,None,277.70896769998944,None,278.61306529998546,None,,,,,,,,,,,,,,,,,,,,,,,,,,,,,,,,,,,,,,,,,,,,,,,,,,P037,fencog,1,Pre,2022_Apr_22_1032,Go No-Go Task,2021.1.4,119.99774403920365,
EPracticeConditions/BlueScram.csv,"Rule: When you see a blue image, do not press 'spacebar'.",Images/Scram2/AF25NES.jpg,Scramble,Yellow,Images/Yellow.jpg,space,,,,,,,0,2,2,2,0,6,6,7,,,,,,,,,,,,,,,,,,,,,,,,,,,,,,,,,,,,,,,,,,,,,,,,,,,1.6,280.60738989998936,None,space,1,282.31611949999933,None,282.31611949999933,None,282.31611949999933,None,283.20432590000564,None,0.3423573999898508,,,,,,,,,,,,,,,,,,,,,,,,,,,,,,,,,,,,,,,,,,,,,,,,,P037,fencog,1,Pre,2022_Apr_22_1032,Go No-Go Task,2021.1.4,119.99774403920365,
EPracticeConditions/BlueScram.csv,"Rule: When you see a blue image, do not press 'spacebar'.",Images/Scram2/AM03_NC.jpg,Scramble,Yellow,Images/Yellow.jpg,space,,,,,,,0,2,2,2,0,7,7,6,,,,,,,,,,,,,,,,,,,,,,,,,,,,,,,,,,,,,,,,,,,,,,,,,,,1.7,285.20721870000125,None,space,1,287.0230615999899,None,287.0230615999899,None,287.0230615999899,None,287.91942859999835,None,0.29149560001678765,,,,,,,,,,,,,,,,,,,,,,,,,,,,,,,,,,,,,,,,,,,,,,,,,P037,fencog,1,Pre,2022_Apr_22_1032,Go No-Go Task,2021.1.4,119.99774403920365,
EPracticeConditions/BlueScram.csv,"Rule: When you see a blue image, do not press 'spacebar'.",,,,,,,,,,,,0,2,2,2,,,,,,,,,,,,,,,,,,,,,,,,,,,,,,,,,,,,,,,,,,,,,,,,,,,,,,,,,,,,,,,,,,,,,,,,,,,,,,,,,,,,,,,,,,,,,,,,,,,,,,,,,,,,,,,,,,,,,P037,fencog,1,Pre,2022_Apr_22_1032,Go No-Go Task,2021.1.4,119.99774403920365,
EPracticeConditions/YellowScram.csv,"Rule: When you see a yellow image, do not press 'spacebar'.",Images/Scram1/AF10_NC.jpg,Scramble,Blue,Images/Blue.jpg,space,,,,,,,0,3,3,3,0,0,0,6,,,,,,,,,,,,,,,,,,,,,,,,,,,,,,,,,,,,,289.9356005000009,None,292.92071790000773,None,space,0.12167110000154935,292.92071790000773,None,289.9356005000009,None,289.9356005000009,None,289.9356005000009,None,1.4,293.06749610000406,None,space,1,294.57919439999387,None,294.57919439999387,None,294.57919439999387,None,295.461925599986,None,0.3271752999862656,,,,,,,,,,,,,,,,,,,,,,,,,,,,,,,,,,,,,,,,,,,,,,,,,P037,fencog,1,Pre,2022_Apr_22_1032,Go No-Go Task,2021.1.4,119.99774403920365,
EPracticeConditions/YellowScram.csv,"Rule: When you see a yellow image, do not press 'spacebar'.",Images/Scram1/HF04_NC.jpg,Scramble,Blue,Images/Blue.jpg,space,,,,,,,0,3,3,3,0,1,1,2,,,,,,,,,,,,,,,,,,,,,,,,,,,,,,,,,,,,,,,,,,,,,,,,,,,1.3,297.47025879999273,None,space,1,298.88625449998653,None,298.88625449998653,None,298.88625449998653,None,299.7810361000011,None,0.35617790001560934,,,,,,,,,,,,,,,,,,,,,,,,,,,,,,,,,,,,,,,,,,,,,,,,,P037,fencog,1,Pre,2022_Apr_22_1032,Go No-Go Task,2021.1.4,119.99774403920365,
EPracticeConditions/YellowScram.csv,"Rule: When you see a yellow image, do not press 'spacebar'.",Images/Scram1/AF30NES.JPG,Scramble,Blue,Images/Blue.jpg,space,,,,,,,0,3,3,3,0,2,2,4,,,,,,,,,,,,,,,,,,,,,,,,,,,,,,,,,,,,,,,,,,,,,,,,,,,1.5,301.78433130000485,None,space,1,303.39318809998804,None,303.39318809998804,None,303.39318809998804,None,304.29038829999627,None,0.30554870000923984,,,,,,,,,,,,,,,,,,,,,,,,,,,,,,,,,,,,,,,,,,,,,,,,,P037,fencog,1,Pre,2022_Apr_22_1032,Go No-Go Task,2021.1.4,119.99774403920365,
EPracticeConditions/YellowScram.csv,"Rule: When you see a yellow image, do not press 'spacebar'.",Images/Scram2/AM03NES.jpg,Scramble,Yellow,Images/Yellow.jpg,None,,,,,,,0,3,3,3,0,3,3,1,,,,,,,,,,,,,,,,,,,,,,,,,,,,,,,,,,,,,,,,,,,,,,,,,,,1.7,306.29154669999843,None,None,1,308.1002182000084,None,308.1002182000084,None,308.1002182000084,None,308.99387370000477,None,,,,,,,,,,,,,,,,,,,,,,,,,,,,,,,,,,,,,,,,,,,,,,,,,,P037,fencog,1,Pre,2022_Apr_22_1032,Go No-Go Task,2021.1.4,119.99774403920365,
EPracticeConditions/YellowScram.csv,"Rule: When you see a yellow image, do not press 'spacebar'.",Images/Scram1/BM01_NC.jpg,Scramble,Blue,Images/Blue.jpg,space,,,,,,,0,3,3,3,0,4,4,5,,,,,,,,,,,,,,,,,,,,,,,,,,,,,,,,,,,,,,,,,,,,,,,,,,,1.2,310.9982274000067,None,space,1,312.3072456000082,None,312.3072456000082,None,312.3072456000082,None,313.20383429998765,None,0.30311719997553155,,,,,,,,,,,,,,,,,,,,,,,,,,,,,,,,,,,,,,,,,,,,,,,,,P037,fencog,1,Pre,2022_Apr_22_1032,Go No-Go Task,2021.1.4,119.99774403920365,
EPracticeConditions/YellowScram.csv,"Rule: When you see a yellow image, do not press 'spacebar'.",Images/Scram1/AF24NES.jpg,Scramble,Blue,Images/Blue.jpg,space,,,,,,,0,3,3,3,0,5,5,7,,,,,,,,,,,,,,,,,,,,,,,,,,,,,,,,,,,,,,,,,,,,,,,,,,,1.9,315.2052962000016,None,space,1,317.21367830000236,None,317.21367830000236,None,317.21367830000236,None,318.10670559998835,None,0.2849013999802992,,,,,,,,,,,,,,,,,,,,,,,,,,,,,,,,,,,,,,,,,,,,,,,,,P037,fencog,1,Pre,2022_Apr_22_1032,Go No-Go Task,2021.1.4,119.99774403920365,
EPracticeConditions/YellowScram.csv,"Rule: When you see a yellow image, do not press 'spacebar'.",Images/Scram1/AF07NES.jpg,Scramble,Blue,Images/Blue.jpg,space,,,,,,,0,3,3,3,0,6,6,3,,,,,,,,,,,,,,,,,,,,,,,,,,,,,,,,,,,,,,,,,,,,,,,,,,,1.6,320.11221339998883,None,space,1,321.82941819998086,None,321.82941819998086,None,321.82941819998086,None,322.7123912999814,None,0.3169167000160087,,,,,,,,,,,,,,,,,,,,,,,,,,,,,,,,,,,,,,,,,,,,,,,,,P037,fencog,1,Pre,2022_Apr_22_1032,Go No-Go Task,2021.1.4,119.99774403920365,
EPracticeConditions/YellowScram.csv,"Rule: When you see a yellow image, do not press 'spacebar'.",Images/Scram2/HM06_NC.jpg,Scramble,Yellow,Images/Yellow.jpg,None,,,,,,,0,3,3,3,0,7,7,0,,,,,,,,,,,,,,,,,,,,,,,,,,,,,,,,,,,,,,,,,,,,,,,,,,,1.8,324.71926419998636,None,None,1,326.62808259998565,None,326.62808259998565,None,326.62808259998565,None,327.52423740000813,None,,,,,,,,,,,,,,,,,,,,,,,,,,,,,,,,,,,,,,,,,,,,,,,,,,P037,fencog,1,Pre,2022_Apr_22_1032,Go No-Go Task,2021.1.4,119.99774403920365,
EPracticeConditions/YellowScram.csv,"Rule: When you see a yellow image, do not press 'spacebar'.",,,,,,,,,,,,0,3,3,3,,,,,,,,,,,,,,,,,,,,,,,,,,,,,,,,,,,,,,,,,,,,,,,,,,,,,,,,,,,,,,,,,,,,,,,,,,,,,,,,,,,,,,,,,,,,,,,,,,,,,,,,,,,,,,,,,,,,,P037,fencog,1,Pre,2022_Apr_22_1032,Go No-Go Task,2021.1.4,119.99774403920365,
,,,,,,,,,,,,,,,,,,,,,,,,,,,,,,,,,,,,,,,,,,,,,,,,,,,,,,,,,,,,,,,,,,,,,,,,,,,,,,,,,,,,,330.9198861999903,None,space,9.561506300000474,331.400896200008,None,,,,,,,,,,,,,,,,,,,,,,,,,,,,,,,,,,,,,,,,,,,P037,fencog,1,Pre,2022_Apr_22_1032,Go No-Go Task,2021.1.4,119.99774403920365,
,,,,,,,,,,,,,,,,,,,,,,,,,,,,,,,,,,,,,,,,,,,,,,,,,,,,,,,,,,,,,,,,,,,,,,,,,,,,,,,,,,,,,,,,,,,340.9742167000077,None,space,2.523975199990673,340.9742167000077,None,,,,,,,,,,,,,,,,,,,,,,,,,,,,,,,,,,,,,P037,fencog,1,Pre,2022_Apr_22_1032,Go No-Go Task,2021.1.4,119.99774403920365,
,"Rule: When you see a yellow image, do not press 'spacebar'.",Images/Happy/BF09_HO.jpg,Happy,Blue,Images/Blue.jpg,space,ParentConditions/YellowYellowBlue_v1.xlsx,YellowYellowBlue,Conditions/Version_1/YellowFearStop.xlsx,no,PASS,0.8264186213388923,,,,,,,,,0,0,0,1,0,0,0,0,0,0,0,0,,,,,,,,,,,,,,,,,,,,,,,,,,,,,,,,,,,,,,,,,,,,,,,,,,,,,,,,,,,,,,,,,343.5844725999923,None,346.5712885999819,None,space,4.247124100016663,346.5712885999819,None,343.5844725999923,None,343.5844725999923,None,343.5844725999923,None,1.42,350.8806837000011,None,space,1,0.2787123000016436,352.4036741000018,None,352.4036741000018,None,352.4036741000018,None,,,,,,,,,,,P037,fencog,1,Pre,2022_Apr_22_1032,Go No-Go Task,2021.1.4,119.99774403920365,
,"Rule: When you see a yellow image, do not press 'spacebar'.",Images/Happy/AF30HAS.jpg,Happy,Blue,Images/Blue.jpg,space,ParentConditions/YellowYellowBlue_v1.xlsx,YellowYellowBlue,Conditions/Version_1/YellowFearStop.xlsx,no,PASS,0.17577164693776992,,,,,,,,,0,0,0,1,0,0,0,0,0,1,1,1,,,,,,,,,,,,,,,,,,,,,,,,,,,,,,,,,,,,,,,,,,,,,,,,,,,,,,,,,,,,,,,,,,,,,,,,,,,,,,,1.55,352.80536009999923,None,space,1,0.2611203000124078,354.4694380000001,None,354.4694380000001,None,354.4694380000001,None,,,,,,,,,,,P037,fencog,1,Pre,2022_Apr_22_1032,Go No-Go Task,2021.1.4,119.99774403920365,
,"Rule: When you see a yellow image, do not press 'spacebar'.",Images/Happy/AF27HAS.jpg,Happy,Blue,Images/Blue.jpg,space,ParentConditions/YellowYellowBlue_v1.xlsx,YellowYellowBlue,Conditions/Version_1/YellowFearStop.xlsx,no,PASS,0.9530234186227198,,,,,,,,,0,0,0,1,0,0,0,0,0,2,2,2,,,,,,,,,,,,,,,,,,,,,,,,,,,,,,,,,,,,,,,,,,,,,,,,,,,,,,,,,,,,,,,,,,,,,,,,,,,,,,,1.34,354.8687251000083,None,space,1,0.28332859999500215,356.31919569999445,None,356.31919569999445,None,356.31919569999445,None,,,,,,,,,,,P037,fencog,1,Pre,2022_Apr_22_1032,Go No-Go Task,2021.1.4,119.99774403920365,
,"Rule: When you see a yellow image, do not press 'spacebar'.",Images/Happy/AF22HAS.jpg,Happy,Blue,Images/Blue.jpg,space,ParentConditions/YellowYellowBlue_v1.xlsx,YellowYellowBlue,Conditions/Version_1/YellowFearStop.xlsx,no,PASS,0.38244231072686263,,,,,,,,,0,0,0,1,0,0,0,0,0,3,3,3,,,,,,,,,,,,,,,,,,,,,,,,,,,,,,,,,,,,,,,,,,,,,,,,,,,,,,,,,,,,,,,,,,,,,,,,,,,,,,,1.28,356.71804919998976,None,space,1,0.30015630001435056,358.11030939998454,None,358.11030939998454,None,358.11030939998454,None,,,,,,,,,,,P037,fencog,1,Pre,2022_Apr_22_1032,Go No-Go Task,2021.1.4,119.99774403920365,
,"Rule: When you see a yellow image, do not press 'spacebar'.",Images/Happy/WM11_HC.jpg,Happy,Blue,Images/Blue.jpg,space,ParentConditions/YellowYellowBlue_v1.xlsx,YellowYellowBlue,Conditions/Version_1/YellowFearStop.xlsx,no,PASS,0.4646194175443181,,,,,,,,,0,0,0,1,0,0,0,0,0,4,4,4,,,,,,,,,,,,,,,,,,,,,,,,,,,,,,,,,,,,,,,,,,,,,,,,,,,,,,,,,,,,,,,,,,,,,,,,,,,,,,,1.6,358.5092120000045,None,None,0,,360.21812219999265,None,360.21812219999265,None,360.21812219999265,None,,,,,,,,,,,P037,fencog,1,Pre,2022_Apr_22_1032,Go No-Go Task,2021.1.4,119.99774403920365,
,"Rule: When you see a yellow image, do not press 'spacebar'.",Images/Happy/BF05_HO.jpg,Happy,Blue,Images/Blue.jpg,space,ParentConditions/YellowYellowBlue_v1.xlsx,YellowYellowBlue,Conditions/Version_1/YellowFearStop.xlsx,no,PASS,0.7872072262972759,,,,,,,,,0,0,0,1,0,0,0,0,0,5,5,5,,,,,,,,,,,,,,,,,,,,,,,,,,,,,,,,,,,,,,,,,,,,,,,,,,,,,,,,,,,,,,,,,,,,,,,,,,,,,,,1.32,360.6202912000008,None,space,1,0.31981919999816455,362.0424600999977,None,362.0424600999977,None,362.0424600999977,None,,,,,,,,,,,P037,fencog,1,Pre,2022_Apr_22_1032,Go No-Go Task,2021.1.4,119.99774403920365,
,"Rule: When you see a yellow image, do not press 'spacebar'.",Images/Fearful/AM01AFS.jpg,Fear,Yellow,Images/Yellow.jpg,None,ParentConditions/YellowYellowBlue_v1.xlsx,YellowYellowBlue,Conditions/Version_1/YellowFearStop.xlsx,yes,PASS,0.04646585469142872,,,,,,,,,0,0,0,1,0,0,0,0,0,6,6,6,,,,,,,,,,,,,,,,,,,,,,,,,,,,,,,,,,,,,,,,,,,,,,,,,,,,,,,,,,,,,,,,,,,,,,,,,,,,,,,1.44,362.44170289998874,None,space,0,0.25838610000209883,363.99192239998956,None,363.99192239998956,None,363.99192239998956,None,,,,,,,,,,,P037,fencog,1,Pre,2022_Apr_22_1032,Go No-Go Task,2021.1.4,119.99774403920365,
,"Rule: When you see a yellow image, do not press 'spacebar'.",Images/Happy/AF23HAS.jpg,Happy,Blue,Images/Blue.jpg,space,ParentConditions/YellowYellowBlue_v1.xlsx,YellowYellowBlue,Conditions/Version_1/YellowFearStop.xlsx,no,PASS,0.9566897784343521,,,,,,,,,0,0,0,1,0,0,0,0,0,7,7,7,,,,,,,,,,,,,,,,,,,,,,,,,,,,,,,,,,,,,,,,,,,,,,,,,,,,,,,,,,,,,,,,,,,,,,,,,,,,,,,1.67,364.3908356000029,None,space,1,0.37202489998890087,366.1745061999827,None,366.1745061999827,None,366.1745061999827,None,,,,,,,,,,,P037,fencog,1,Pre,2022_Apr_22_1032,Go No-Go Task,2021.1.4,119.99774403920365,
,"Rule: When you see a yellow image, do not press 'spacebar'.",Images/Happy/AM16HAS.jpg,Happy,Blue,Images/Blue.jpg,space,ParentConditions/YellowYellowBlue_v1.xlsx,YellowYellowBlue,Conditions/Version_1/YellowFearStop.xlsx,no,PASS,0.9715962743635901,,,,,,,,,0,0,0,1,0,0,0,0,0,8,8,8,,,,,,,,,,,,,,,,,,,,,,,,,,,,,,,,,,,,,,,,,,,,,,,,,,,,,,,,,,,,,,,,,,,,,,,,,,,,,,,1.27,366.57369960000506,None,space,1,0.34091860000626184,367.95750409999164,None,367.95750409999164,None,367.95750409999164,None,,,,,,,,,,,P037,fencog,1,Pre,2022_Apr_22_1032,Go No-Go Task,2021.1.4,119.99774403920365,
,"Rule: When you see a yellow image, do not press 'spacebar'.",Images/Happy/AM04HAS.jpg,Happy,Blue,Images/Blue.jpg,space,ParentConditions/YellowYellowBlue_v1.xlsx,YellowYellowBlue,Conditions/Version_1/YellowFearStop.xlsx,no,PASS,0.8834532829789966,,,,,,,,,0,0,0,1,0,0,0,0,0,9,9,9,,,,,,,,,,,,,,,,,,,,,,,,,,,,,,,,,,,,,,,,,,,,,,,,,,,,,,,,,,,,,,,,,,,,,,,,,,,,,,,1.43,368.35647790000075,None,space,1,0.3359471000148915,369.8986100000038,None,369.8986100000038,None,369.8986100000038,None,,,,,,,,,,,P037,fencog,1,Pre,2022_Apr_22_1032,Go No-Go Task,2021.1.4,119.99774403920365,
,"Rule: When you see a yellow image, do not press 'spacebar'.",Images/Happy/AF26HAS.jpg,Happy,Blue,Images/Blue.jpg,space,ParentConditions/YellowYellowBlue_v1.xlsx,YellowYellowBlue,Conditions/Version_1/YellowFearStop.xlsx,no,PASS,0.1837512616409066,,,,,,,,,0,0,0,1,0,0,0,0,0,10,10,10,,,,,,,,,,,,,,,,,,,,,,,,,,,,,,,,,,,,,,,,,,,,,,,,,,,,,,,,,,,,,,,,,,,,,,,,,,,,,,,1.21,370.2975555000012,None,None,0,,371.6232206999848,None,371.6232206999848,None,371.6232206999848,None,,,,,,,,,,,P037,fencog,1,Pre,2022_Apr_22_1032,Go No-Go Task,2021.1.4,119.99774403920365,
,"Rule: When you see a yellow image, do not press 'spacebar'.",Images/Fearful/AF10_FC.jpg,Fear,Yellow,Images/Yellow.jpg,None,ParentConditions/YellowYellowBlue_v1.xlsx,YellowYellowBlue,Conditions/Version_1/YellowFearStop.xlsx,yes,PASS,0.28017183869067563,,,,,,,,,0,0,0,1,0,0,0,0,0,11,11,11,,,,,,,,,,,,,,,,,,,,,,,,,,,,,,,,,,,,,,,,,,,,,,,,,,,,,,,,,,,,,,,,,,,,,,,,,,,,,,,1.85,372.0219953999913,None,None,1,,373.98063139998703,None,373.98063139998703,None,373.98063139998703,None,,,,,,,,,,,P037,fencog,1,Pre,2022_Apr_22_1032,Go No-Go Task,2021.1.4,119.99774403920365,
,"Rule: When you see a yellow image, do not press 'spacebar'.",Images/Fearful/AM09_FO.jpg,Fear,Yellow,Images/Yellow.jpg,None,ParentConditions/YellowYellowBlue_v1.xlsx,YellowYellowBlue,Conditions/Version_1/YellowFearStop.xlsx,yes,PASS,0.6630139915996167,,,,,,,,,0,0,0,1,0,0,0,0,0,12,12,12,,,,,,,,,,,,,,,,,,,,,,,,,,,,,,,,,,,,,,,,,,,,,,,,,,,,,,,,,,,,,,,,,,,,,,,,,,,,,,,1.82,374.3796345999872,None,None,1,,376.31323880000855,None,376.31323880000855,None,376.31323880000855,None,,,,,,,,,,,P037,fencog,1,Pre,2022_Apr_22_1032,Go No-Go Task,2021.1.4,119.99774403920365,
,"Rule: When you see a yellow image, do not press 'spacebar'.",Images/Happy/HM04_HO.jpg,Happy,Blue,Images/Blue.jpg,space,ParentConditions/YellowYellowBlue_v1.xlsx,YellowYellowBlue,Conditions/Version_1/YellowFearStop.xlsx,no,PASS,0.9402314290963173,,,,,,,,,0,0,0,1,0,0,0,0,0,13,13,13,,,,,,,,,,,,,,,,,,,,,,,,,,,,,,,,,,,,,,,,,,,,,,,,,,,,,,,,,,,,,,,,,,,,,,,,,,,,,,,1.56,376.7160666999989,None,space,1,0.3667303000111133,378.387682200002,None,378.387682200002,None,378.387682200002,None,,,,,,,,,,,P037,fencog,1,Pre,2022_Apr_22_1032,Go No-Go Task,2021.1.4,119.99774403920365,
,"Rule: When you see a yellow image, do not press 'spacebar'.",Images/Fearful/AM04_FO.jpg,Fear,Yellow,Images/Yellow.jpg,None,ParentConditions/YellowYellowBlue_v1.xlsx,YellowYellowBlue,Conditions/Version_1/YellowFearStop.xlsx,yes,PASS,0.3100490082037951,,,,,,,,,0,0,0,1,0,0,0,0,0,14,14,14,,,,,,,,,,,,,,,,,,,,,,,,,,,,,,,,,,,,,,,,,,,,,,,,,,,,,,,,,,,,,,,,,,,,,,,,,,,,,,,1.89,378.7864726999833,None,None,1,,380.78697009998723,None,380.78697009998723,None,380.78697009998723,None,,,,,,,,,,,P037,fencog,1,Pre,2022_Apr_22_1032,Go No-Go Task,2021.1.4,119.99774403920365,
,"Rule: When you see a yellow image, do not press 'spacebar'.",Images/Happy/AM13HAS.jpg,Happy,Blue,Images/Blue.jpg,space,ParentConditions/YellowYellowBlue_v1.xlsx,YellowYellowBlue,Conditions/Version_1/YellowFearStop.xlsx,no,PASS,0.44314676907690376,,,,,,,,,0,0,0,1,0,0,0,0,0,15,15,15,,,,,,,,,,,,,,,,,,,,,,,,,,,,,,,,,,,,,,,,,,,,,,,,,,,,,,,,,,,,,,,,,,,,,,,,,,,,,,,1.41,381.18452370000887,None,space,1,0.3634455999999773,382.7030628999928,None,382.7030628999928,None,382.7030628999928,None,,,,,,,,,,,P037,fencog,1,Pre,2022_Apr_22_1032,Go No-Go Task,2021.1.4,119.99774403920365,
,"Rule: When you see a yellow image, do not press 'spacebar'.",Images/Fearful/AF09AFS.jpg,Fear,Yellow,Images/Yellow.jpg,None,ParentConditions/YellowYellowBlue_v1.xlsx,YellowYellowBlue,Conditions/Version_1/YellowFearStop.xlsx,yes,PASS,0.4498025699510172,,,,,,,,,0,0,0,1,0,0,0,0,0,16,16,16,,,,,,,,,,,,,,,,,,,,,,,,,,,,,,,,,,,,,,,,,,,,,,,,,,,,,,,,,,,,,,,,,,,,,,,,,,,,,,,1.35,383.1054743999848,None,None,1,,384.56916879999335,None,384.56916879999335,None,384.56916879999335,None,,,,,,,,,,,P037,fencog,1,Pre,2022_Apr_22_1032,Go No-Go Task,2021.1.4,119.99774403920365,
,"Rule: When you see a yellow image, do not press 'spacebar'.",Images/Fearful/BF05_FO.jpg,Fear,Yellow,Images/Yellow.jpg,None,ParentConditions/YellowYellowBlue_v1.xlsx,YellowYellowBlue,Conditions/Version_1/YellowFearStop.xlsx,yes,PASS,0.9080020582242041,,,,,,,,,0,0,0,1,0,0,0,0,0,17,17,17,,,,,,,,,,,,,,,,,,,,,,,,,,,,,,,,,,,,,,,,,,,,,,,,,,,,,,,,,,,,,,,,,,,,,,,,,,,,,,,1.84,384.9683529000031,None,None,1,,386.9269270999939,None,386.9269270999939,None,386.9269270999939,None,,,,,,,,,,,P037,fencog,1,Pre,2022_Apr_22_1032,Go No-Go Task,2021.1.4,119.99774403920365,
,"Rule: When you see a yellow image, do not press 'spacebar'.",Images/Happy/AM24HAS.jpg,Happy,Blue,Images/Blue.jpg,space,ParentConditions/YellowYellowBlue_v1.xlsx,YellowYellowBlue,Conditions/Version_1/YellowFearStop.xlsx,no,PASS,0.922071682303877,,,,,,,,,0,0,0,1,0,0,0,0,0,18,18,18,,,,,,,,,,,,,,,,,,,,,,,,,,,,,,,,,,,,,,,,,,,,,,,,,,,,,,,,,,,,,,,,,,,,,,,,,,,,,,,1.98,387.31435390000115,None,space,1,0.3290024999878369,389.4094216999947,None,389.4094216999947,None,389.4094216999947,None,,,,,,,,,,,P037,fencog,1,Pre,2022_Apr_22_1032,Go No-Go Task,2021.1.4,119.99774403920365,
,"Rule: When you see a yellow image, do not press 'spacebar'.",Images/Fearful/AF11AFS.jpg,Fear,Yellow,Images/Yellow.jpg,None,ParentConditions/YellowYellowBlue_v1.xlsx,YellowYellowBlue,Conditions/Version_1/YellowFearStop.xlsx,yes,PASS,0.9473352640697336,,,,,,,,,0,0,0,1,0,0,0,0,0,19,19,19,,,,,,,,,,,,,,,,,,,,,,,,,,,,,,,,,,,,,,,,,,,,,,,,,,,,,,,,,,,,,,,,,,,,,,,,,,,,,,,1.83,389.80846090000705,None,None,1,,391.75871329999063,None,391.75871329999063,None,391.75871329999063,None,,,,,,,,,,,P037,fencog,1,Pre,2022_Apr_22_1032,Go No-Go Task,2021.1.4,119.99774403920365,
,"Rule: When you see a yellow image, do not press 'spacebar'.",Images/Happy/AF01_HE.jpg,Happy,Blue,Images/Blue.jpg,space,ParentConditions/YellowYellowBlue_v1.xlsx,YellowYellowBlue,Conditions/Version_1/YellowFearStop.xlsx,no,PASS,0.975890070475601,,,,,,,,,0,0,0,1,0,0,0,0,0,20,20,20,,,,,,,,,,,,,,,,,,,,,,,,,,,,,,,,,,,,,,,,,,,,,,,,,,,,,,,,,,,,,,,,,,,,,,,,,,,,,,,1.57,392.14944899998954,None,space,1,0.31326110000372864,393.833238399995,None,393.833238399995,None,393.833238399995,None,,,,,,,,,,,P037,fencog,1,Pre,2022_Apr_22_1032,Go No-Go Task,2021.1.4,119.99774403920365,
,"Rule: When you see a yellow image, do not press 'spacebar'.",Images/Happy/AM10_HO.jpg,Happy,Blue,Images/Blue.jpg,space,ParentConditions/YellowYellowBlue_v1.xlsx,YellowYellowBlue,Conditions/Version_1/YellowFearStop.xlsx,no,PASS,0.06323556568324906,,,,,,,,,0,0,0,1,0,0,0,0,0,21,21,21,,,,,,,,,,,,,,,,,,,,,,,,,,,,,,,,,,,,,,,,,,,,,,,,,,,,,,,,,,,,,,,,,,,,,,,,,,,,,,,1.4,394.2324714999995,None,space,1,0.24573259998578578,395.74083759999485,None,395.74083759999485,None,395.74083759999485,None,,,,,,,,,,,P037,fencog,1,Pre,2022_Apr_22_1032,Go No-Go Task,2021.1.4,119.99774403920365,
,"Rule: When you see a yellow image, do not press 'spacebar'.",Images/Happy/AF09HAS.jpg,Happy,Blue,Images/Blue.jpg,space,ParentConditions/YellowYellowBlue_v1.xlsx,YellowYellowBlue,Conditions/Version_1/YellowFearStop.xlsx,no,PASS,0.6962175902541581,,,,,,,,,0,0,0,1,0,0,0,0,0,22,22,22,,,,,,,,,,,,,,,,,,,,,,,,,,,,,,,,,,,,,,,,,,,,,,,,,,,,,,,,,,,,,,,,,,,,,,,,,,,,,,,1.8,396.139991700009,None,space,1,0.3059592999925371,398.04854129999876,None,398.04854129999876,None,398.04854129999876,None,,,,,,,,,,,P037,fencog,1,Pre,2022_Apr_22_1032,Go No-Go Task,2021.1.4,119.99774403920365,
,"Rule: When you see a yellow image, do not press 'spacebar'.",Images/Happy/BM02_HO.jpg,Happy,Blue,Images/Blue.jpg,space,ParentConditions/YellowYellowBlue_v1.xlsx,YellowYellowBlue,Conditions/Version_1/YellowFearStop.xlsx,no,PASS,0.39611347700197175,,,,,,,,,0,0,0,1,0,0,0,0,0,23,23,23,,,,,,,,,,,,,,,,,,,,,,,,,,,,,,,,,,,,,,,,,,,,,,,,,,,,,,,,,,,,,,,,,,,,,,,,,,,,,,,1.54,398.4475037000084,None,space,1,0.3134451999794692,400.0813138000085,None,400.0813138000085,None,400.0813138000085,None,,,,,,,,,,,P037,fencog,1,Pre,2022_Apr_22_1032,Go No-Go Task,2021.1.4,119.99774403920365,
,"Rule: When you see a yellow image, do not press 'spacebar'.",Images/Happy/AM09_HE.jpg,Happy,Blue,Images/Blue.jpg,space,ParentConditions/YellowYellowBlue_v1.xlsx,YellowYellowBlue,Conditions/Version_1/YellowFearStop.xlsx,no,PASS,0.07757947711401492,,,,,,,,,0,0,0,1,0,0,0,0,0,24,24,24,,,,,,,,,,,,,,,,,,,,,,,,,,,,,,,,,,,,,,,,,,,,,,,,,,,,,,,,,,,,,,,,,,,,,,,,,,,,,,,1.61,400.4928067000001,None,space,1,0.3242889999819454,402.2139787999913,None,402.2139787999913,None,402.2139787999913,None,,,,,,,,,,,P037,fencog,1,Pre,2022_Apr_22_1032,Go No-Go Task,2021.1.4,119.99774403920365,
,"Rule: When you see a yellow image, do not press 'spacebar'.",Images/Happy/AF10_HE.jpg,Happy,Blue,Images/Blue.jpg,space,ParentConditions/YellowYellowBlue_v1.xlsx,YellowYellowBlue,Conditions/Version_1/YellowFearStop.xlsx,no,PASS,0.0317382475703174,,,,,,,,,0,0,0,1,0,0,0,0,0,25,25,25,,,,,,,,,,,,,,,,,,,,,,,,,,,,,,,,,,,,,,,,,,,,,,,,,,,,,,,,,,,,,,,,,,,,,,,,,,,,,,,1.75,402.6129657999845,None,space,1,0.3308157999999821,404.47169859998394,None,404.47169859998394,None,404.47169859998394,None,,,,,,,,,,,P037,fencog,1,Pre,2022_Apr_22_1032,Go No-Go Task,2021.1.4,119.99774403920365,
,"Rule: When you see a yellow image, do not press 'spacebar'.",Images/Happy/BM01_HO.jpg,Happy,Blue,Images/Blue.jpg,space,ParentConditions/YellowYellowBlue_v1.xlsx,YellowYellowBlue,Conditions/Version_1/YellowFearStop.xlsx,no,PASS,0.5236836345272965,,,,,,,,,0,0,0,1,0,0,0,0,0,26,26,26,,,,,,,,,,,,,,,,,,,,,,,,,,,,,,,,,,,,,,,,,,,,,,,,,,,,,,,,,,,,,,,,,,,,,,,,,,,,,,,1.88,404.87063489999855,None,space,1,0.31610719999298453,406.86234239998157,None,406.86234239998157,None,406.86234239998157,None,,,,,,,,,,,P037,fencog,1,Pre,2022_Apr_22_1032,Go No-Go Task,2021.1.4,119.99774403920365,
,"Rule: When you see a yellow image, do not press 'spacebar'.",Images/Fearful/AF07_FO.jpg,Fear,Yellow,Images/Yellow.jpg,None,ParentConditions/YellowYellowBlue_v1.xlsx,YellowYellowBlue,Conditions/Version_1/YellowFearStop.xlsx,yes,PASS,0.05460409726356086,,,,,,,,,0,0,0,1,0,0,0,0,0,27,27,27,,,,,,,,,,,,,,,,,,,,,,,,,,,,,,,,,,,,,,,,,,,,,,,,,,,,,,,,,,,,,,,,,,,,,,,,,,,,,,,1.99,407.2545276999881,None,None,1,,409.35358510000515,None,409.35358510000515,None,409.35358510000515,None,,,,,,,,,,,P037,fencog,1,Pre,2022_Apr_22_1032,Go No-Go Task,2021.1.4,119.99774403920365,
,"Rule: When you see a yellow image, do not press 'spacebar'.",Images/Happy/BF18_HO.jpg,Happy,Blue,Images/Blue.jpg,space,ParentConditions/YellowYellowBlue_v1.xlsx,YellowYellowBlue,Conditions/Version_1/YellowFearStop.xlsx,no,PASS,0.725547290944351,,,,,,,,,0,0,0,1,0,0,0,0,0,28,28,28,,,,,,,,,,,,,,,,,,,,,,,,,,,,,,,,,,,,,,,,,,,,,,,,,,,,,,,,,,,,,,,,,,,,,,,,,,,,,,,1.23,409.7526663999888,None,space,1,0.3155521000153385,411.09480339998845,None,411.09480339998845,None,411.09480339998845,None,,,,,,,,,,,P037,fencog,1,Pre,2022_Apr_22_1032,Go No-Go Task,2021.1.4,119.99774403920365,
,"Rule: When you see a yellow image, do not press 'spacebar'.",Images/Happy/AM03HAS.jpg,Happy,Blue,Images/Blue.jpg,space,ParentConditions/YellowYellowBlue_v1.xlsx,YellowYellowBlue,Conditions/Version_1/YellowFearStop.xlsx,no,PASS,0.25317968373868693,,,,,,,,,0,0,0,1,0,0,0,0,0,29,29,29,,,,,,,,,,,,,,,,,,,,,,,,,,,,,,,,,,,,,,,,,,,,,,,,,,,,,,,,,,,,,,,,,,,,,,,,,,,,,,,1.94,411.49347349998425,None,space,1,0.2905550000141375,413.5440491999907,None,413.5440491999907,None,413.5440491999907,None,,,,,,,,,,,P037,fencog,1,Pre,2022_Apr_22_1032,Go No-Go Task,2021.1.4,119.99774403920365,
,"Rule: When you see a yellow image, do not press 'spacebar'.",Images/Happy/BF10_HO.jpg,Happy,Blue,Images/Blue.jpg,space,ParentConditions/YellowYellowBlue_v1.xlsx,YellowYellowBlue,Conditions/Version_1/YellowFearStop.xlsx,no,PASS,0.49778397383761497,,,,,,,,,0,0,0,1,0,0,0,0,0,30,30,30,,,,,,,,,,,,,,,,,,,,,,,,,,,,,,,,,,,,,,,,,,,,,,,,,,,,,,,,,,,,,,,,,,,,,,,,,,,,,,,1.72,413.9430762999982,None,space,1,0.3137144999927841,415.7766360999958,None,415.7766360999958,None,415.7766360999958,None,,,,,,,,,,,P037,fencog,1,Pre,2022_Apr_22_1032,Go No-Go Task,2021.1.4,119.99774403920365,
,"Rule: When you see a yellow image, do not press 'spacebar'.",Images/Happy/BF07_HO.jpg,Happy,Blue,Images/Blue.jpg,space,ParentConditions/YellowYellowBlue_v1.xlsx,YellowYellowBlue,Conditions/Version_1/YellowFearStop.xlsx,no,PASS,0.8230931671283865,,,,,,,,,0,0,0,1,0,0,0,0,0,31,31,31,,,,,,,,,,,,,,,,,,,,,,,,,,,,,,,,,,,,,,,,,,,,,,,,,,,,,,,,,,,,,,,,,,,,,,,,,,,,,,,1.91,416.1756011999969,None,space,1,0.36996199999703094,418.2009274000011,None,418.2009274000011,None,418.2009274000011,None,,,,,,,,,,,P037,fencog,1,Pre,2022_Apr_22_1032,Go No-Go Task,2021.1.4,119.99774403920365,
,"Rule: When you see a yellow image, do not press 'spacebar'.",Images/Fearful/BF07_FO.jpg,Fear,Yellow,Images/Yellow.jpg,None,ParentConditions/YellowYellowBlue_v1.xlsx,YellowYellowBlue,Conditions/Version_1/YellowFearStop.xlsx,yes,PASS,0.2119409881246468,,,,,,,,,0,0,0,1,0,0,0,0,0,32,32,32,,,,,,,,,,,,,,,,,,,,,,,,,,,,,,,,,,,,,,,,,,,,,,,,,,,,,,,,,,,,,,,,,,,,,,,,,,,,,,,1.81,418.59993189998204,None,None,1,,420.52519879999454,None,420.52519879999454,None,420.52519879999454,None,,,,,,,,,,,P037,fencog,1,Pre,2022_Apr_22_1032,Go No-Go Task,2021.1.4,119.99774403920365,
,"Rule: When you see a yellow image, do not press 'spacebar'.",Images/Happy/WF04_HC.jpg,Happy,Blue,Images/Blue.jpg,space,ParentConditions/YellowYellowBlue_v1.xlsx,YellowYellowBlue,Conditions/Version_1/YellowFearStop.xlsx,no,PASS,0.26229612863468255,,,,,,,,,0,0,0,1,0,0,0,0,0,33,33,33,,,,,,,,,,,,,,,,,,,,,,,,,,,,,,,,,,,,,,,,,,,,,,,,,,,,,,,,,,,,,,,,,,,,,,,,,,,,,,,1.46,420.92412919999333,None,space,1,0.3109200999897439,422.4997849999927,None,422.4997849999927,None,422.4997849999927,None,,,,,,,,,,,P037,fencog,1,Pre,2022_Apr_22_1032,Go No-Go Task,2021.1.4,119.99774403920365,
,"Rule: When you see a yellow image, do not press 'spacebar'.",Images/Happy/AM23HAS.jpg,Happy,Blue,Images/Blue.jpg,space,ParentConditions/YellowYellowBlue_v1.xlsx,YellowYellowBlue,Conditions/Version_1/YellowFearStop.xlsx,no,PASS,0.6553077695853636,,,,,,,,,0,0,0,1,0,0,0,0,0,34,34,34,,,,,,,,,,,,,,,,,,,,,,,,,,,,,,,,,,,,,,,,,,,,,,,,,,,,,,,,,,,,,,,,,,,,,,,,,,,,,,,1.69,422.892317299993,None,space,1,0.31200799997895956,424.6906646999996,None,424.6906646999996,None,424.6906646999996,None,,,,,,,,,,,P037,fencog,1,Pre,2022_Apr_22_1032,Go No-Go Task,2021.1.4,119.99774403920365,
,"Rule: When you see a yellow image, do not press 'spacebar'.",Images/Happy/AM09HAS.jpg,Happy,Blue,Images/Blue.jpg,space,ParentConditions/YellowYellowBlue_v1.xlsx,YellowYellowBlue,Conditions/Version_1/YellowFearStop.xlsx,no,PASS,0.3792451721627529,,,,,,,,,0,0,0,1,0,0,0,0,0,35,35,35,,,,,,,,,,,,,,,,,,,,,,,,,,,,,,,,,,,,,,,,,,,,,,,,,,,,,,,,,,,,,,,,,,,,,,,,,,,,,,,1.47,425.0924100999837,None,space,1,0.2733035999990534,426.66518809998524,None,426.66518809998524,None,426.66518809998524,None,,,,,,,,,,,P037,fencog,1,Pre,2022_Apr_22_1032,Go No-Go Task,2021.1.4,119.99774403920365,
,"Rule: When you see a yellow image, do not press 'spacebar'.",Images/Happy/AM10HAS.jpg,Happy,Blue,Images/Blue.jpg,space,ParentConditions/YellowYellowBlue_v1.xlsx,YellowYellowBlue,Conditions/Version_1/YellowFearStop.xlsx,no,PASS,0.9781550300020249,,,,,,,,,0,0,0,1,0,0,0,0,0,36,36,36,,,,,,,,,,,,,,,,,,,,,,,,,,,,,,,,,,,,,,,,,,,,,,,,,,,,,,,,,,,,,,,,,,,,,,,,,,,,,,,1.74,427.0657071000023,None,space,1,0.3519629999937024,428.91442049999023,None,428.91442049999023,None,428.91442049999023,None,,,,,,,,,,,P037,fencog,1,Pre,2022_Apr_22_1032,Go No-Go Task,2021.1.4,119.99774403920365,
,"Rule: When you see a yellow image, do not press 'spacebar'.",Images/Happy/AF07HAS.jpg,Happy,Blue,Images/Blue.jpg,space,ParentConditions/YellowYellowBlue_v1.xlsx,YellowYellowBlue,Conditions/Version_1/YellowFearStop.xlsx,no,PASS,0.9827710623676732,,,,,,,,,0,0,0,1,0,0,0,0,0,37,37,37,,,,,,,,,,,,,,,,,,,,,,,,,,,,,,,,,,,,,,,,,,,,,,,,,,,,,,,,,,,,,,,,,,,,,,,,,,,,,,,1.58,429.30754109998816,None,space,1,0.3255031000007875,430.99695339999744,None,430.99695339999744,None,430.99695339999744,None,,,,,,,,,,,P037,fencog,1,Pre,2022_Apr_22_1032,Go No-Go Task,2021.1.4,119.99774403920365,
,"Rule: When you see a yellow image, do not press 'spacebar'.",Images/Happy/AM03_HO.jpg,Happy,Blue,Images/Blue.jpg,space,ParentConditions/YellowYellowBlue_v1.xlsx,YellowYellowBlue,Conditions/Version_1/YellowFearStop.xlsx,no,PASS,0.6960883574837642,,,,,,,,,0,0,0,1,0,0,0,0,0,38,38,38,,,,,,,,,,,,,,,,,,,,,,,,,,,,,,,,,,,,,,,,,,,,,,,,,,,,,,,,,,,,,,,,,,,,,,,,,,,,,,,1.7,431.3919121999934,None,space,1,0.309588200005237,433.20493290000013,None,433.20493290000013,None,433.20493290000013,None,,,,,,,,,,,P037,fencog,1,Pre,2022_Apr_22_1032,Go No-Go Task,2021.1.4,119.99774403920365,
,"Rule: When you see a yellow image, do not press 'spacebar'.",Images/Happy/AM05HAS.jpg,Happy,Blue,Images/Blue.jpg,space,ParentConditions/YellowYellowBlue_v1.xlsx,YellowYellowBlue,Conditions/Version_1/YellowFearStop.xlsx,no,PASS,0.8897547995150092,,,,,,,,,0,0,0,1,0,0,0,0,0,39,39,39,,,,,,,,,,,,,,,,,,,,,,,,,,,,,,,,,,,,,,,,,,,,,,,,,,,,,,,,,,,,,,,,,,,,,,,,,,,,,,,1.87,433.6039737999963,None,space,1,0.3509638000105042,435.587461099989,None,435.587461099989,None,435.587461099989,None,,,,,,,,,,,P037,fencog,1,Pre,2022_Apr_22_1032,Go No-Go Task,2021.1.4,119.99774403920365,
,"Rule: When you see a yellow image, do not press 'spacebar'.",Images/Happy/AF02HAS.jpg,Happy,Blue,Images/Blue.jpg,space,ParentConditions/YellowYellowBlue_v1.xlsx,YellowYellowBlue,Conditions/Version_1/YellowFearStop.xlsx,no,PASS,0.25376599793626176,,,,,,,,,0,0,0,1,0,0,0,0,0,40,40,40,,,,,,,,,,,,,,,,,,,,,,,,,,,,,,,,,,,,,,,,,,,,,,,,,,,,,,,,,,,,,,,,,,,,,,,,,,,,,,,1.86,435.9864499999967,None,space,1,0.24886260001221672,437.9613979999849,None,437.9613979999849,None,437.9613979999849,None,,,,,,,,,,,P037,fencog,1,Pre,2022_Apr_22_1032,Go No-Go Task,2021.1.4,119.99774403920365,
,"Rule: When you see a yellow image, do not press 'spacebar'.",Images/Happy/BM08_HO.jpg,Happy,Blue,Images/Blue.jpg,space,ParentConditions/YellowYellowBlue_v1.xlsx,YellowYellowBlue,Conditions/Version_1/YellowFearStop.xlsx,no,PASS,0.999289280912827,,,,,,,,,0,0,0,1,0,0,0,0,0,41,41,41,,,,,,,,,,,,,,,,,,,,,,,,,,,,,,,,,,,,,,,,,,,,,,,,,,,,,,,,,,,,,,,,,,,,,,,,,,,,,,,1.62,438.36047419998795,None,space,1,0.27671320000081323,440.0778175999876,None,440.0778175999876,None,440.0778175999876,None,,,,,,,,,,,P037,fencog,1,Pre,2022_Apr_22_1032,Go No-Go Task,2021.1.4,119.99774403920365,
,"Rule: When you see a yellow image, do not press 'spacebar'.",Images/Happy/AM22HAS.jpg,Happy,Blue,Images/Blue.jpg,space,ParentConditions/YellowYellowBlue_v1.xlsx,YellowYellowBlue,Conditions/Version_1/YellowFearStop.xlsx,no,PASS,0.3243688929703894,,,,,,,,,0,0,0,1,0,0,0,0,0,42,42,42,,,,,,,,,,,,,,,,,,,,,,,,,,,,,,,,,,,,,,,,,,,,,,,,,,,,,,,,,,,,,,,,,,,,,,,,,,,,,,,1.31,440.47692329998245,None,space,1,0.2766778999939561,441.89390679998905,None,441.89390679998905,None,441.89390679998905,None,,,,,,,,,,,P037,fencog,1,Pre,2022_Apr_22_1032,Go No-Go Task,2021.1.4,119.99774403920365,
,"Rule: When you see a yellow image, do not press 'spacebar'.",Images/Happy/AM30HAS.jpg,Happy,Blue,Images/Blue.jpg,space,ParentConditions/YellowYellowBlue_v1.xlsx,YellowYellowBlue,Conditions/Version_1/YellowFearStop.xlsx,no,PASS,0.6329749014690744,,,,,,,,,0,0,0,1,0,0,0,0,0,43,43,43,,,,,,,,,,,,,,,,,,,,,,,,,,,,,,,,,,,,,,,,,,,,,,,,,,,,,,,,,,,,,,,,,,,,,,,,,,,,,,,1.26,442.29372200000216,None,space,1,0.3098318999982439,443.6685151999991,None,443.6685151999991,None,443.6685151999991,None,,,,,,,,,,,P037,fencog,1,Pre,2022_Apr_22_1032,Go No-Go Task,2021.1.4,119.99774403920365,
,"Rule: When you see a yellow image, do not press 'spacebar'.",Images/Fearful/BF09_FC.jpg,Fear,Yellow,Images/Yellow.jpg,None,ParentConditions/YellowYellowBlue_v1.xlsx,YellowYellowBlue,Conditions/Version_1/YellowFearStop.xlsx,yes,PASS,0.8490666234880494,,,,,,,,,0,0,0,1,0,0,0,0,0,44,44,44,,,,,,,,,,,,,,,,,,,,,,,,,,,,,,,,,,,,,,,,,,,,,,,,,,,,,,,,,,,,,,,,,,,,,,,,,,,,,,,1.97,444.0622713000048,None,None,1,,446.1426274999976,None,446.1426274999976,None,446.1426274999976,None,,,,,,,,,,,P037,fencog,1,Pre,2022_Apr_22_1032,Go No-Go Task,2021.1.4,119.99774403920365,
,"Rule: When you see a yellow image, do not press 'spacebar'.",Images/Happy/WM12_HE.jpg,Happy,Blue,Images/Blue.jpg,space,ParentConditions/YellowYellowBlue_v1.xlsx,YellowYellowBlue,Conditions/Version_1/YellowFearStop.xlsx,no,PASS,0.11929099481185879,,,,,,,,,0,0,0,1,0,0,0,0,0,45,45,45,,,,,,,,,,,,,,,,,,,,,,,,,,,,,,,,,,,,,,,,,,,,,,,,,,,,,,,,,,,,,,,,,,,,,,,,,,,,,,,1.33,446.54326609999407,None,space,1,0.24283740000100806,447.97544549999293,None,447.97544549999293,None,447.97544549999293,None,,,,,,,,,,,P037,fencog,1,Pre,2022_Apr_22_1032,Go No-Go Task,2021.1.4,119.99774403920365,
,"Rule: When you see a yellow image, do not press 'spacebar'.",Images/Happy/HF10_HE.jpg,Happy,Blue,Images/Blue.jpg,space,ParentConditions/YellowYellowBlue_v1.xlsx,YellowYellowBlue,Conditions/Version_1/YellowFearStop.xlsx,no,PASS,0.835696516720082,,,,,,,,,0,0,0,1,0,0,0,0,0,46,46,46,,,,,,,,,,,,,,,,,,,,,,,,,,,,,,,,,,,,,,,,,,,,,,,,,,,,,,,,,,,,,,,,,,,,,,,,,,,,,,,1.22,448.37609740000335,None,space,1,0.27881319998414256,449.6916162999987,None,449.6916162999987,None,449.6916162999987,None,,,,,,,,,,,P037,fencog,1,Pre,2022_Apr_22_1032,Go No-Go Task,2021.1.4,119.99774403920365,
,"Rule: When you see a yellow image, do not press 'spacebar'.",Images/Happy/HM09_HO.jpg,Happy,Blue,Images/Blue.jpg,space,ParentConditions/YellowYellowBlue_v1.xlsx,YellowYellowBlue,Conditions/Version_1/YellowFearStop.xlsx,no,PASS,0.80615804446551,,,,,,,,,0,0,0,1,0,0,0,0,0,47,47,47,,,,,,,,,,,,,,,,,,,,,,,,,,,,,,,,,,,,,,,,,,,,,,,,,,,,,,,,,,,,,,,,,,,,,,,,,,,,,,,1.48,450.0921454000054,None,space,1,0.31981529999757186,451.68272589999833,None,451.68272589999833,None,451.68272589999833,None,,,,,,,,,,,P037,fencog,1,Pre,2022_Apr_22_1032,Go No-Go Task,2021.1.4,119.99774403920365,
,"Rule: When you see a yellow image, do not press 'spacebar'.",Images/Fearful/AM03_FC.jpg,Fear,Yellow,Images/Yellow.jpg,None,ParentConditions/YellowYellowBlue_v1.xlsx,YellowYellowBlue,Conditions/Version_1/YellowFearStop.xlsx,yes,PASS,0.14846567878901318,,,,,,,,,0,0,0,1,0,0,0,0,0,48,48,48,,,,,,,,,,,,,,,,,,,,,,,,,,,,,,,,,,,,,,,,,,,,,,,,,,,,,,,,,,,,,,,,,,,,,,,,,,,,,,,1.93,452.0817403999972,None,None,1,,454.12345909999567,None,454.12345909999567,None,454.12345909999567,None,,,,,,,,,,,P037,fencog,1,Pre,2022_Apr_22_1032,Go No-Go Task,2021.1.4,119.99774403920365,
,"Rule: When you see a yellow image, do not press 'spacebar'.",Images/Happy/HF04_HE.jpg,Happy,Blue,Images/Blue.jpg,space,ParentConditions/YellowYellowBlue_v1.xlsx,YellowYellowBlue,Conditions/Version_1/YellowFearStop.xlsx,no,PASS,0.49340132442678397,,,,,,,,,0,0,0,1,0,0,0,0,0,49,49,49,,,,,,,,,,,,,,,,,,,,,,,,,,,,,,,,,,,,,,,,,,,,,,,,,,,,,,,,,,,,,,,,,,,,,,,,,,,,,,,1.51,454.5191813999845,None,space,1,0.35947629998554476,456.1309662999993,None,456.1309662999993,None,456.1309662999993,None,,,,,,,,,,,P037,fencog,1,Pre,2022_Apr_22_1032,Go No-Go Task,2021.1.4,119.99774403920365,
,"Rule: When you see a yellow image, do not press 'spacebar'.",Images/Happy/AM17HAS.jpg,Happy,Blue,Images/Blue.jpg,space,ParentConditions/YellowYellowBlue_v1.xlsx,YellowYellowBlue,Conditions/Version_1/YellowFearStop.xlsx,no,PASS,0.47053997269579284,,,,,,,,,0,0,0,1,0,0,0,0,0,50,50,50,,,,,,,,,,,,,,,,,,,,,,,,,,,,,,,,,,,,,,,,,,,,,,,,,,,,,,,,,,,,,,,,,,,,,,,,,,,,,,,1.29,456.5345374000026,None,space,1,0.2552932999969926,457.93918469999335,None,457.93918469999335,None,457.93918469999335,None,,,,,,,,,,,P037,fencog,1,Pre,2022_Apr_22_1032,Go No-Go Task,2021.1.4,119.99774403920365,
,"Rule: When you see a yellow image, do not press 'spacebar'.",Images/Fearful/BM01_FO.jpg,Fear,Yellow,Images/Yellow.jpg,None,ParentConditions/YellowYellowBlue_v1.xlsx,YellowYellowBlue,Conditions/Version_1/YellowFearStop.xlsx,yes,PASS,0.31347174673362443,,,,,,,,,0,0,0,1,0,0,0,0,0,51,51,51,,,,,,,,,,,,,,,,,,,,,,,,,,,,,,,,,,,,,,,,,,,,,,,,,,,,,,,,,,,,,,,,,,,,,,,,,,,,,,,1.64,458.3380641999829,None,None,1,,460.08884079998825,None,460.08884079998825,None,460.08884079998825,None,,,,,,,,,,,P037,fencog,1,Pre,2022_Apr_22_1032,Go No-Go Task,2021.1.4,119.99774403920365,
,"Rule: When you see a yellow image, do not press 'spacebar'.",Images/Happy/HF09_HE.jpg,Happy,Blue,Images/Blue.jpg,space,ParentConditions/YellowYellowBlue_v1.xlsx,YellowYellowBlue,Conditions/Version_1/YellowFearStop.xlsx,no,PASS,0.012739972194723559,,,,,,,,,0,0,0,1,0,0,0,0,0,52,52,52,,,,,,,,,,,,,,,,,,,,,,,,,,,,,,,,,,,,,,,,,,,,,,,,,,,,,,,,,,,,,,,,,,,,,,,,,,,,,,,1.2,460.48751740000444,None,space,1,0.23825759999454021,461.79632969998056,None,461.79632969998056,None,461.79632969998056,None,,,,,,,,,,,P037,fencog,1,Pre,2022_Apr_22_1032,Go No-Go Task,2021.1.4,119.99774403920365,
,"Rule: When you see a yellow image, do not press 'spacebar'.",Images/Happy/WF11_HE.jpg,Happy,Blue,Images/Blue.jpg,space,ParentConditions/YellowYellowBlue_v1.xlsx,YellowYellowBlue,Conditions/Version_1/YellowFearStop.xlsx,no,PASS,0.5128097154267254,,,,,,,,,0,0,0,1,0,0,0,0,0,53,53,53,,,,,,,,,,,,,,,,,,,,,,,,,,,,,,,,,,,,,,,,,,,,,,,,,,,,,,,,,,,,,,,,,,,,,,,,,,,,,,,1.73,462.19566599998507,None,space,1,0.30878259998280555,464.03746970000793,None,464.03746970000793,None,464.03746970000793,None,,,,,,,,,,,P037,fencog,1,Pre,2022_Apr_22_1032,Go No-Go Task,2021.1.4,119.99774403920365,
,"Rule: When you see a yellow image, do not press 'spacebar'.",Images/Fearful/AM04AFS.jpg,Fear,Yellow,Images/Yellow.jpg,None,ParentConditions/YellowYellowBlue_v1.xlsx,YellowYellowBlue,Conditions/Version_1/YellowFearStop.xlsx,yes,PASS,0.4808108011742167,,,,,,,,,0,0,0,1,0,0,0,0,0,54,54,54,,,,,,,,,,,,,,,,,,,,,,,,,,,,,,,,,,,,,,,,,,,,,,,,,,,,,,,,,,,,,,,,,,,,,,,,,,,,,,,1.36,464.43990009999834,None,None,1,,465.91186339998967,None,465.91186339998967,None,465.91186339998967,None,,,,,,,,,,,P037,fencog,1,Pre,2022_Apr_22_1032,Go No-Go Task,2021.1.4,119.99774403920365,
,"Rule: When you see a yellow image, do not press 'spacebar'.",Images/Happy/AF19HAS.jpg,Happy,Blue,Images/Blue.jpg,space,ParentConditions/YellowYellowBlue_v1.xlsx,YellowYellowBlue,Conditions/Version_1/YellowFearStop.xlsx,no,PASS,0.3252147007245795,,,,,,,,,0,0,0,1,0,0,0,0,0,55,55,55,,,,,,,,,,,,,,,,,,,,,,,,,,,,,,,,,,,,,,,,,,,,,,,,,,,,,,,,,,,,,,,,,,,,,,,,,,,,,,,1.77,466.30872299999464,None,space,1,0.3438480999902822,468.19446870000684,None,468.19446870000684,None,468.19446870000684,None,,,,,,,,,,,P037,fencog,1,Pre,2022_Apr_22_1032,Go No-Go Task,2021.1.4,119.99774403920365,
,"Rule: When you see a yellow image, do not press 'spacebar'.",Images/Happy/HM06_HO.jpg,Happy,Blue,Images/Blue.jpg,space,ParentConditions/YellowYellowBlue_v1.xlsx,YellowYellowBlue,Conditions/Version_1/YellowFearStop.xlsx,no,PASS,0.3282337486862341,,,,,,,,,0,0,0,1,0,0,0,0,0,56,56,56,,,,,,,,,,,,,,,,,,,,,,,,,,,,,,,,,,,,,,,,,,,,,,,,,,,,,,,,,,,,,,,,,,,,,,,,,,,,,,,1.53,468.59348700000555,None,space,1,0.20673939998960122,470.23565319998306,None,470.23565319998306,None,470.23565319998306,None,,,,,,,,,,,P037,fencog,1,Pre,2022_Apr_22_1032,Go No-Go Task,2021.1.4,119.99774403920365,
,"Rule: When you see a yellow image, do not press 'spacebar'.",Images/Happy/HF05_HO.jpg,Happy,Blue,Images/Blue.jpg,space,ParentConditions/YellowYellowBlue_v1.xlsx,YellowYellowBlue,Conditions/Version_1/YellowFearStop.xlsx,no,PASS,0.5833391709234322,,,,,,,,,0,0,0,1,0,0,0,0,0,57,57,57,,,,,,,,,,,,,,,,,,,,,,,,,,,,,,,,,,,,,,,,,,,,,,,,,,,,,,,,,,,,,,,,,,,,,,,,,,,,,,,1.25,470.6352030999842,None,space,1,0.3455565999902319,471.97683659999166,None,471.97683659999166,None,471.97683659999166,None,,,,,,,,,,,P037,fencog,1,Pre,2022_Apr_22_1032,Go No-Go Task,2021.1.4,119.99774403920365,
,"Rule: When you see a yellow image, do not press 'spacebar'.",Images/Fearful/AF01_FO.jpg,Fear,Yellow,Images/Yellow.jpg,None,ParentConditions/YellowYellowBlue_v1.xlsx,YellowYellowBlue,Conditions/Version_1/YellowFearStop.xlsx,yes,PASS,0.3034900725746609,,,,,,,,,0,0,0,1,0,0,0,0,0,58,58,58,,,,,,,,,,,,,,,,,,,,,,,,,,,,,,,,,,,,,,,,,,,,,,,,,,,,,,,,,,,,,,,,,,,,,,,,,,,,,,,1.71,472.37901679999777,None,space,0,0.2337097999989055,474.1927294000052,None,474.1927294000052,None,474.1927294000052,None,,,,,,,,,,,P037,fencog,1,Pre,2022_Apr_22_1032,Go No-Go Task,2021.1.4,119.99774403920365,
,"Rule: When you see a yellow image, do not press 'spacebar'.",Images/Happy/AF21HAS.jpg,Happy,Blue,Images/Blue.jpg,space,ParentConditions/YellowYellowBlue_v1.xlsx,YellowYellowBlue,Conditions/Version_1/YellowFearStop.xlsx,no,PASS,0.9799702127391234,,,,,,,,,0,0,0,1,0,0,0,0,0,59,59,59,,,,,,,,,,,,,,,,,,,,,,,,,,,,,,,,,,,,,,,,,,,,,,,,,,,,,,,,,,,,,,,,,,,,,,,,,,,,,,,1.95,474.59512759998324,None,space,1,0.31989049998810515,476.6586781000078,None,476.6586781000078,None,476.6586781000078,None,,,,,,,,,,,P037,fencog,1,Pre,2022_Apr_22_1032,Go No-Go Task,2021.1.4,119.99774403920365,
,"Rule: When you see a yellow image, do not press 'spacebar'.",Images/Happy/AM06_HC.jpg,Happy,Blue,Images/Blue.jpg,space,ParentConditions/YellowYellowBlue_v1.xlsx,YellowYellowBlue,Conditions/Version_1/YellowFearStop.xlsx,no,PASS,0.29816427390759137,,,,,,,,,0,0,0,1,0,0,0,0,0,60,60,60,,,,,,,,,,,,,,,,,,,,,,,,,,,,,,,,,,,,,,,,,,,,,,,,,,,,,,,,,,,,,,,,,,,,,,,,,,,,,,,1.65,477.0580725999898,None,space,1,0.20187379998969845,478.81637089999276,None,478.81637089999276,None,478.81637089999276,None,,,,,,,,,,,P037,fencog,1,Pre,2022_Apr_22_1032,Go No-Go Task,2021.1.4,119.99774403920365,
,"Rule: When you see a yellow image, do not press 'spacebar'.",Images/Fearful/AF02AFS.jpg,Fear,Yellow,Images/Yellow.jpg,None,ParentConditions/YellowYellowBlue_v1.xlsx,YellowYellowBlue,Conditions/Version_1/YellowFearStop.xlsx,yes,PASS,0.15582520477375605,,,,,,,,,0,0,0,1,0,0,0,0,0,61,61,61,,,,,,,,,,,,,,,,,,,,,,,,,,,,,,,,,,,,,,,,,,,,,,,,,,,,,,,,,,,,,,,,,,,,,,,,,,,,,,,1.49,479.2155080999946,None,None,1,,480.81581359999836,None,480.81581359999836,None,480.81581359999836,None,,,,,,,,,,,P037,fencog,1,Pre,2022_Apr_22_1032,Go No-Go Task,2021.1.4,119.99774403920365,
,"Rule: When you see a yellow image, do not press 'spacebar'.",Images/Happy/AF25HAS.jpg,Happy,Blue,Images/Blue.jpg,space,ParentConditions/YellowYellowBlue_v1.xlsx,YellowYellowBlue,Conditions/Version_1/YellowFearStop.xlsx,no,PASS,0.7963653427272854,,,,,,,,,0,0,0,1,0,0,0,0,0,62,62,62,,,,,,,,,,,,,,,,,,,,,,,,,,,,,,,,,,,,,,,,,,,,,,,,,,,,,,,,,,,,,,,,,,,,,,,,,,,,,,,1.38,481.21625649998896,None,space,1,0.27949159999843687,482.7068900000013,None,482.7068900000013,None,482.7068900000013,None,,,,,,,,,,,P037,fencog,1,Pre,2022_Apr_22_1032,Go No-Go Task,2021.1.4,119.99774403920365,
,"Rule: When you see a yellow image, do not press 'spacebar'.",Images/Happy/AM32HAS.jpg,Happy,Blue,Images/Blue.jpg,space,ParentConditions/YellowYellowBlue_v1.xlsx,YellowYellowBlue,Conditions/Version_1/YellowFearStop.xlsx,no,PASS,0.2823557460482189,,,,,,,,,0,0,0,1,0,0,0,0,0,63,63,63,,,,,,,,,,,,,,,,,,,,,,,,,,,,,,,,,,,,,,,,,,,,,,,,,,,,,,,,,,,,,,,,,,,,,,,,,,,,,,,1.59,483.1059910999902,None,space,1,0.2604344999999739,484.797919500008,None,484.797919500008,None,484.797919500008,None,,,,,,,,,,,P037,fencog,1,Pre,2022_Apr_22_1032,Go No-Go Task,2021.1.4,119.99774403920365,
,"Rule: When you see a yellow image, do not press 'spacebar'.",Images/Fearful/AM02_FO.jpg,Fear,Yellow,Images/Yellow.jpg,None,ParentConditions/YellowYellowBlue_v1.xlsx,YellowYellowBlue,Conditions/Version_1/YellowFearStop.xlsx,yes,PASS,0.8481624514007016,,,,,,,,,0,0,0,1,0,0,0,0,0,64,64,64,,,,,,,,,,,,,,,,,,,,,,,,,,,,,,,,,,,,,,,,,,,,,,,,,,,,,,,,,,,,,,,,,,,,,,,,,,,,,,,1.63,485.1984200000006,None,None,1,,486.93073809999623,None,486.93073809999623,None,486.93073809999623,None,,,,,,,,,,,P037,fencog,1,Pre,2022_Apr_22_1032,Go No-Go Task,2021.1.4,119.99774403920365,
,"Rule: When you see a yellow image, do not press 'spacebar'.",Images/Fearful/BM02_FC.jpg,Fear,Yellow,Images/Yellow.jpg,None,ParentConditions/YellowYellowBlue_v1.xlsx,YellowYellowBlue,Conditions/Version_1/YellowFearStop.xlsx,yes,PASS,0.7033474445186839,,,,,,,,,0,0,0,1,0,0,0,0,0,65,65,65,,,,,,,,,,,,,,,,,,,,,,,,,,,,,,,,,,,,,,,,,,,,,,,,,,,,,,,,,,,,,,,,,,,,,,,,,,,,,,,1.92,487.3326201000018,None,None,1,,489.36330520000774,None,489.36330520000774,None,489.36330520000774,None,,,,,,,,,,,P037,fencog,1,Pre,2022_Apr_22_1032,Go No-Go Task,2021.1.4,119.99774403920365,
,"Rule: When you see a yellow image, do not press 'spacebar'.",Images/Happy/AM04_HE.jpg,Happy,Blue,Images/Blue.jpg,space,ParentConditions/YellowYellowBlue_v1.xlsx,YellowYellowBlue,Conditions/Version_1/YellowFearStop.xlsx,no,PASS,0.1954454647057855,,,,,,,,,0,0,0,1,0,0,0,0,0,66,66,66,,,,,,,,,,,,,,,,,,,,,,,,,,,,,,,,,,,,,,,,,,,,,,,,,,,,,,,,,,,,,,,,,,,,,,,,,,,,,,,1.39,489.7591162000026,None,space,1,0.2836875999928452,491.26267850000295,None,491.26267850000295,None,491.26267850000295,None,,,,,,,,,,,P037,fencog,1,Pre,2022_Apr_22_1032,Go No-Go Task,2021.1.4,119.99774403920365,
,"Rule: When you see a yellow image, do not press 'spacebar'.",Images/Fearful/AM05AFS.jpg,Fear,Yellow,Images/Yellow.jpg,None,ParentConditions/YellowYellowBlue_v1.xlsx,YellowYellowBlue,Conditions/Version_1/YellowFearStop.xlsx,yes,PASS,0.6459336406761428,,,,,,,,,0,0,0,1,0,0,0,0,0,67,67,67,,,,,,,,,,,,,,,,,,,,,,,,,,,,,,,,,,,,,,,,,,,,,,,,,,,,,,,,,,,,,,,,,,,,,,,,,,,,,,,2,491.6615785000031,None,None,1,,493.77027439998346,None,493.77027439998346,None,493.77027439998346,None,,,,,,,,,,,P037,fencog,1,Pre,2022_Apr_22_1032,Go No-Go Task,2021.1.4,119.99774403920365,
,"Rule: When you see a yellow image, do not press 'spacebar'.",Images/Happy/AF28HAS.jpg,Happy,Blue,Images/Blue.jpg,space,ParentConditions/YellowYellowBlue_v1.xlsx,YellowYellowBlue,Conditions/Version_1/YellowFearStop.xlsx,no,PASS,0.16840775809852682,,,,,,,,,0,0,0,1,0,0,0,0,0,68,68,68,,,,,,,,,,,,,,,,,,,,,,,,,,,,,,,,,,,,,,,,,,,,,,,,,,,,,,,,,,,,,,,,,,,,,,,,,,,,,,,1.78,494.16924469999503,None,space,1,0.3813883000111673,496.0529925999872,None,496.0529925999872,None,496.0529925999872,None,,,,,,,,,,,P037,fencog,1,Pre,2022_Apr_22_1032,Go No-Go Task,2021.1.4,119.99774403920365,
,"Rule: When you see a yellow image, do not press 'spacebar'.",Images/Happy/AF07_HO.jpg,Happy,Blue,Images/Blue.jpg,space,ParentConditions/YellowYellowBlue_v1.xlsx,YellowYellowBlue,Conditions/Version_1/YellowFearStop.xlsx,no,PASS,0.8921854253161821,,,,,,,,,0,0,0,1,0,0,0,0,0,69,69,69,,,,,,,,,,,,,,,,,,,,,,,,,,,,,,,,,,,,,,,,,,,,,,,,,,,,,,,,,,,,,,,,,,,,,,,,,,,,,,,1.3,496.45433730000514,None,space,1,0.27726430000620894,497.8690424999804,None,497.8690424999804,None,497.8690424999804,None,,,,,,,,,,,P037,fencog,1,Pre,2022_Apr_22_1032,Go No-Go Task,2021.1.4,119.99774403920365,
,"Rule: When you see a yellow image, do not press 'spacebar'.",Images/Happy/BF14_HO.jpg,Happy,Blue,Images/Blue.jpg,space,ParentConditions/YellowYellowBlue_v1.xlsx,YellowYellowBlue,Conditions/Version_1/YellowFearStop.xlsx,no,PASS,0.11340023271387378,,,,,,,,,0,0,0,1,0,0,0,0,0,70,70,70,,,,,,,,,,,,,,,,,,,,,,,,,,,,,,,,,,,,,,,,,,,,,,,,,,,,,,,,,,,,,,,,,,,,,,,,,,,,,,,1.76,498.2691302000021,None,space,1,0.2588427000155207,500.1435119000089,None,500.1435119000089,None,500.1435119000089,None,,,,,,,,,,,P037,fencog,1,Pre,2022_Apr_22_1032,Go No-Go Task,2021.1.4,119.99774403920365,
,"Rule: When you see a yellow image, do not press 'spacebar'.",Images/Fearful/AF07FS.jpg,Fear,Yellow,Images/Yellow.jpg,None,ParentConditions/YellowYellowBlue_v1.xlsx,YellowYellowBlue,Conditions/Version_1/YellowFearStop.xlsx,yes,PASS,0.01772114652951917,,,,,,,,,0,0,0,1,0,0,0,0,0,71,71,71,,,,,,,,,,,,,,,,,,,,,,,,,,,,,,,,,,,,,,,,,,,,,,,,,,,,,,,,,,,,,,,,,,,,,,,,,,,,,,,1.37,500.5383819999988,None,None,1,,502.0179053999891,None,502.0179053999891,None,502.0179053999891,None,,,,,,,,,,,P037,fencog,1,Pre,2022_Apr_22_1032,Go No-Go Task,2021.1.4,119.99774403920365,
,"Rule: When you see a yellow image, do not press 'spacebar'.",Images/Happy/AF32HAS.jpg,Happy,Blue,Images/Blue.jpg,space,ParentConditions/YellowYellowBlue_v1.xlsx,YellowYellowBlue,Conditions/Version_1/YellowFearStop.xlsx,no,PASS,0.351428612146247,,,,,,,,,0,0,0,1,0,0,0,0,0,72,72,72,,,,,,,,,,,,,,,,,,,,,,,,,,,,,,,,,,,,,,,,,,,,,,,,,,,,,,,,,,,,,,,,,,,,,,,,,,,,,,,1.96,502.41742610000074,None,space,1,0.3021506999793928,504.4921342000016,None,504.4921342000016,None,504.4921342000016,None,,,,,,,,,,,P037,fencog,1,Pre,2022_Apr_22_1032,Go No-Go Task,2021.1.4,119.99774403920365,
,"Rule: When you see a yellow image, do not press 'spacebar'.",Images/Happy/AF11HAS.jpg,Happy,Blue,Images/Blue.jpg,space,ParentConditions/YellowYellowBlue_v1.xlsx,YellowYellowBlue,Conditions/Version_1/YellowFearStop.xlsx,no,PASS,0.5437174345826498,,,,,,,,,0,0,0,1,0,0,0,0,0,73,73,73,,,,,,,,,,,,,,,,,,,,,,,,,,,,,,,,,,,,,,,,,,,,,,,,,,,,,,,,,,,,,,,,,,,,,,,,,,,,,,,1.68,504.8837697999843,None,space,1,0.287498499994399,506.67477670000517,None,506.67477670000517,None,506.67477670000517,None,,,,,,,,,,,P037,fencog,1,Pre,2022_Apr_22_1032,Go No-Go Task,2021.1.4,119.99774403920365,
,"Rule: When you see a yellow image, do not press 'spacebar'.",Images/Happy/AM19HAS.jpg,Happy,Blue,Images/Blue.jpg,space,ParentConditions/YellowYellowBlue_v1.xlsx,YellowYellowBlue,Conditions/Version_1/YellowFearStop.xlsx,no,PASS,0.4048546584074827,,,,,,,,,0,0,0,1,0,0,0,0,0,74,74,74,,,,,,,,,,,,,,,,,,,,,,,,,,,,,,,,,,,,,,,,,,,,,,,,,,,,,,,,,,,,,,,,,,,,,,,,,,,,,,,1.66,507.07370629999787,None,space,1,0.27313950000097975,508.8490754000086,None,508.8490754000086,None,508.8490754000086,None,,,,,,,,,,,P037,fencog,1,Pre,2022_Apr_22_1032,Go No-Go Task,2021.1.4,119.99774403920365,
,"Rule: When you see a yellow image, do not press 'spacebar'.",Images/Happy/AM01HAS.jpg,Happy,Blue,Images/Blue.jpg,space,ParentConditions/YellowYellowBlue_v1.xlsx,YellowYellowBlue,Conditions/Version_1/YellowFearStop.xlsx,no,PASS,0.668098744931977,,,,,,,,,0,0,0,1,0,0,0,0,0,75,75,75,,,,,,,,,,,,,,,,,,,,,,,,,,,,,,,,,,,,,,,,,,,,,,,,,,,,,,,,,,,,,,,,,,,,,,,,,,,,,,,1.52,509.2495816999872,None,space,1,0.24042580000241287,510.8819514999923,None,510.8819514999923,None,510.8819514999923,None,,,,,,,,,,,P037,fencog,1,Pre,2022_Apr_22_1032,Go No-Go Task,2021.1.4,119.99774403920365,
,"Rule: When you see a yellow image, do not press 'spacebar'.",Images/Happy/WF05_HC.jpg,Happy,Blue,Images/Blue.jpg,space,ParentConditions/YellowYellowBlue_v1.xlsx,YellowYellowBlue,Conditions/Version_1/YellowFearStop.xlsx,no,PASS,0.3346503168901146,,,,,,,,,0,0,0,1,0,0,0,0,0,76,76,76,,,,,,,,,,,,,,,,,,,,,,,,,,,,,,,,,,,,,,,,,,,,,,,,,,,,,,,,,,,,,,,,,,,,,,,,,,,,,,,1.24,511.2809094999975,None,space,1,0.23546969998278655,512.6312563999963,None,512.6312563999963,None,512.6312563999963,None,,,,,,,,,,,P037,fencog,1,Pre,2022_Apr_22_1032,Go No-Go Task,2021.1.4,119.99774403920365,
,"Rule: When you see a yellow image, do not press 'spacebar'.",Images/Happy/BM03_HO.jpg,Happy,Blue,Images/Blue.jpg,space,ParentConditions/YellowYellowBlue_v1.xlsx,YellowYellowBlue,Conditions/Version_1/YellowFearStop.xlsx,no,PASS,0.8309182769230548,,,,,,,,,0,0,0,1,0,0,0,0,0,77,77,77,,,,,,,,,,,,,,,,,,,,,,,,,,,,,,,,,,,,,,,,,,,,,,,,,,,,,,,,,,,,,,,,,,,,,,,,,,,,,,,1.5,513.0342040999967,None,space,1,0.29060629999730736,514.6475407999824,None,514.6475407999824,None,514.6475407999824,None,,,,,,,,,,,P037,fencog,1,Pre,2022_Apr_22_1032,Go No-Go Task,2021.1.4,119.99774403920365,
,"Rule: When you see a yellow image, do not press 'spacebar'.",Images/Happy/AM02_HE.jpg,Happy,Blue,Images/Blue.jpg,space,ParentConditions/YellowYellowBlue_v1.xlsx,YellowYellowBlue,Conditions/Version_1/YellowFearStop.xlsx,no,PASS,0.732833616031058,,,,,,,,,0,0,0,1,0,0,0,0,0,78,78,78,,,,,,,,,,,,,,,,,,,,,,,,,,,,,,,,,,,,,,,,,,,,,,,,,,,,,,,,,,,,,,,,,,,,,,,,,,,,,,,1.9,515.0472209999862,None,space,1,0.29884070000844076,517.0634494999831,None,517.0634494999831,None,517.0634494999831,None,,,,,,,,,,,P037,fencog,1,Pre,2022_Apr_22_1032,Go No-Go Task,2021.1.4,119.99774403920365,
,"Rule: When you see a yellow image, do not press 'spacebar'.",Images/Fearful/AM06_FO.jpg,Fear,Yellow,Images/Yellow.jpg,None,ParentConditions/YellowYellowBlue_v1.xlsx,YellowYellowBlue,Conditions/Version_1/YellowFearStop.xlsx,yes,PASS,0.2239834878173258,,,,,,,,,0,0,0,1,0,0,0,0,0,79,79,79,,,,,,,,,,,,,,,,,,,,,,,,,,,,,,,,,,,,,,,,,,,,,,,,,,,,,,,,,,,,,,,,,,,,,,,,,,,,,,,1.79,517.462893399992,None,space,0,0.24019179999595508,519.3627104999905,None,519.3627104999905,None,519.3627104999905,None,,,,,,,,,,,P037,fencog,1,Pre,2022_Apr_22_1032,Go No-Go Task,2021.1.4,119.99774403920365,
,"Rule: When you see a yellow image, do not press 'spacebar'.",Images/Scram2/HM09_NC.jpg,Scramble,Blue,Images/Blue.jpg,space,ParentConditions/YellowYellowBlue_v1.xlsx,YellowYellowBlue,Conditions/Version_1/YellowScramStop.xlsx,no,PASS,0.16546209529303746,,,,,,,,,0,0,0,1,0,1,1,1,0,0,0,0,,,,,,,,,,,,,,,,,,,,,,,,,,,,,,,,,,,,,,,,,,,,,,,,,,,,,,,,,,,,,,,,,521.809920300002,None,524.8022307000065,None,space,7.744017699995311,524.8022307000065,None,521.809920300002,None,521.809920300002,None,521.809920300002,None,1.44,532.6048591999861,None,space,1,0.2839895999932196,534.1583760000067,None,534.1583760000067,None,534.1583760000067,None,519.7669567999837,None,space,1.5408681000117213,520.2535805999942,None,519.7669567999837,None,519.7669567999837,None,P037,fencog,1,Pre,2022_Apr_22_1032,Go No-Go Task,2021.1.4,119.99774403920365,
,"Rule: When you see a yellow image, do not press 'spacebar'.",Images/Scram2/HM06_NC.jpg,Scramble,Blue,Images/Blue.jpg,space,ParentConditions/YellowYellowBlue_v1.xlsx,YellowYellowBlue,Conditions/Version_1/YellowScramStop.xlsx,no,PASS,0.8979675286244925,,,,,,,,,0,0,0,1,0,1,1,1,0,1,1,1,,,,,,,,,,,,,,,,,,,,,,,,,,,,,,,,,,,,,,,,,,,,,,,,,,,,,,,,,,,,,,,,,,,,,,,,,,,,,,,1.98,534.5584969999909,None,space,1,0.26516979999723844,536.6410458000028,None,536.6410458000028,None,536.6410458000028,None,,,,,,,,,,,P037,fencog,1,Pre,2022_Apr_22_1032,Go No-Go Task,2021.1.4,119.99774403920365,
,"Rule: When you see a yellow image, do not press 'spacebar'.",Images/Scram1/AM31NES.jpg,Scramble,Blue,Images/Blue.jpg,space,ParentConditions/YellowYellowBlue_v1.xlsx,YellowYellowBlue,Conditions/Version_1/YellowScramStop.xlsx,no,PASS,0.9231879679928262,,,,,,,,,0,0,0,1,0,1,1,1,0,2,2,2,,,,,,,,,,,,,,,,,,,,,,,,,,,,,,,,,,,,,,,,,,,,,,,,,,,,,,,,,,,,,,,,,,,,,,,,,,,,,,,1.26,537.041396399989,None,space,1,0.2668717999767978,538.415531799983,None,538.415531799983,None,538.415531799983,None,,,,,,,,,,,P037,fencog,1,Pre,2022_Apr_22_1032,Go No-Go Task,2021.1.4,119.99774403920365,
,"Rule: When you see a yellow image, do not press 'spacebar'.",Images/Scram2/AM03NES.jpg,Scramble,Yellow,Images/Yellow.jpg,None,ParentConditions/YellowYellowBlue_v1.xlsx,YellowYellowBlue,Conditions/Version_1/YellowScramStop.xlsx,yes,PASS,0.5123844621609239,,,,,,,,,0,0,0,1,0,1,1,1,0,3,3,3,,,,,,,,,,,,,,,,,,,,,,,,,,,,,,,,,,,,,,,,,,,,,,,,,,,,,,,,,,,,,,,,,,,,,,,,,,,,,,,1.93,538.8143970999809,None,None,1,,540.8481029999966,None,540.8481029999966,None,540.8481029999966,None,,,,,,,,,,,P037,fencog,1,Pre,2022_Apr_22_1032,Go No-Go Task,2021.1.4,119.99774403920365,
,"Rule: When you see a yellow image, do not press 'spacebar'.",Images/Scram2/BM01_NC.jpg,Scramble,Blue,Images/Blue.jpg,space,ParentConditions/YellowYellowBlue_v1.xlsx,YellowYellowBlue,Conditions/Version_1/YellowScramStop.xlsx,no,PASS,0.9647622626448304,,,,,,,,,0,0,0,1,0,1,1,1,0,4,4,4,,,,,,,,,,,,,,,,,,,,,,,,,,,,,,,,,,,,,,,,,,,,,,,,,,,,,,,,,,,,,,,,,,,,,,,,,,,,,,,1.68,541.2493492999929,None,space,1,0.25913370001944713,543.039091499988,None,543.039091499988,None,543.039091499988,None,,,,,,,,,,,P037,fencog,1,Pre,2022_Apr_22_1032,Go No-Go Task,2021.1.4,119.99774403920365,
,"Rule: When you see a yellow image, do not press 'spacebar'.",Images/Scram1/HM09_NC.jpg,Scramble,Blue,Images/Blue.jpg,space,ParentConditions/YellowYellowBlue_v1.xlsx,YellowYellowBlue,Conditions/Version_1/YellowScramStop.xlsx,no,PASS,0.0006879251870249847,,,,,,,,,0,0,0,1,0,1,1,1,0,5,5,5,,,,,,,,,,,,,,,,,,,,,,,,,,,,,,,,,,,,,,,,,,,,,,,,,,,,,,,,,,,,,,,,,,,,,,,,,,,,,,,1.71,543.4380085000012,None,space,1,0.25089090000255965,545.2634592999821,None,545.2634592999821,None,545.2634592999821,None,,,,,,,,,,,P037,fencog,1,Pre,2022_Apr_22_1032,Go No-Go Task,2021.1.4,119.99774403920365,
,"Rule: When you see a yellow image, do not press 'spacebar'.",Images/Scram2/BF07_NC.jpg,Scramble,Blue,Images/Blue.jpg,space,ParentConditions/YellowYellowBlue_v1.xlsx,YellowYellowBlue,Conditions/Version_1/YellowScramStop.xlsx,no,PASS,0.9958823679259557,,,,,,,,,0,0,0,1,0,1,1,1,0,6,6,6,,,,,,,,,,,,,,,,,,,,,,,,,,,,,,,,,,,,,,,,,,,,,,,,,,,,,,,,,,,,,,,,,,,,,,,,,,,,,,,1.66,545.6610903999826,None,space,1,0.25276730000041425,547.4296108999988,None,547.4296108999988,None,547.4296108999988,None,,,,,,,,,,,P037,fencog,1,Pre,2022_Apr_22_1032,Go No-Go Task,2021.1.4,119.99774403920365,
,"Rule: When you see a yellow image, do not press 'spacebar'.",Images/Scram1/BF14_NC.jpg,Scramble,Blue,Images/Blue.jpg,space,ParentConditions/YellowYellowBlue_v1.xlsx,YellowYellowBlue,Conditions/Version_1/YellowScramStop.xlsx,no,PASS,0.23975965807979494,,,,,,,,,0,0,0,1,0,1,1,1,0,7,7,7,,,,,,,,,,,,,,,,,,,,,,,,,,,,,,,,,,,,,,,,,,,,,,,,,,,,,,,,,,,,,,,,,,,,,,,,,,,,,,,1.82,547.8285324999888,None,space,1,0.2796593000239227,549.7627386999957,None,549.7627386999957,None,549.7627386999957,None,,,,,,,,,,,P037,fencog,1,Pre,2022_Apr_22_1032,Go No-Go Task,2021.1.4,119.99774403920365,
,"Rule: When you see a yellow image, do not press 'spacebar'.",Images/Scram2/AF10_NC.jpg,Scramble,Blue,Images/Blue.jpg,space,ParentConditions/YellowYellowBlue_v1.xlsx,YellowYellowBlue,Conditions/Version_1/YellowScramStop.xlsx,no,PASS,0.23192838167496266,,,,,,,,,0,0,0,1,0,1,1,1,0,8,8,8,,,,,,,,,,,,,,,,,,,,,,,,,,,,,,,,,,,,,,,,,,,,,,,,,,,,,,,,,,,,,,,,,,,,,,,,,,,,,,,1.77,550.1609920999908,None,space,1,0.2538644000014756,552.0365565999819,None,552.0365565999819,None,552.0365565999819,None,,,,,,,,,,,P037,fencog,1,Pre,2022_Apr_22_1032,Go No-Go Task,2021.1.4,119.99774403920365,
,"Rule: When you see a yellow image, do not press 'spacebar'.",Images/Scram2/AF01_NC.jpg,Scramble,Blue,Images/Blue.jpg,space,ParentConditions/YellowYellowBlue_v1.xlsx,YellowYellowBlue,Conditions/Version_1/YellowScramStop.xlsx,no,PASS,0.030564678936407685,,,,,,,,,0,0,0,1,0,1,1,1,0,9,9,9,,,,,,,,,,,,,,,,,,,,,,,,,,,,,,,,,,,,,,,,,,,,,,,,,,,,,,,,,,,,,,,,,,,,,,,,,,,,,,,1.37,552.4396906000038,None,space,1,0.31513850000919774,553.9192170999886,None,553.9192170999886,None,553.9192170999886,None,,,,,,,,,,,P037,fencog,1,Pre,2022_Apr_22_1032,Go No-Go Task,2021.1.4,119.99774403920365,
,"Rule: When you see a yellow image, do not press 'spacebar'.",Images/Scram2/AF24NES.jpg,Scramble,Blue,Images/Blue.jpg,space,ParentConditions/YellowYellowBlue_v1.xlsx,YellowYellowBlue,Conditions/Version_1/YellowScramStop.xlsx,no,PASS,0.3257124610951796,,,,,,,,,0,0,0,1,0,1,1,1,0,10,10,10,,,,,,,,,,,,,,,,,,,,,,,,,,,,,,,,,,,,,,,,,,,,,,,,,,,,,,,,,,,,,,,,,,,,,,,,,,,,,,,1.43,554.3180959000019,None,space,1,0.3660503000137396,555.8602908999892,None,555.8602908999892,None,555.8602908999892,None,,,,,,,,,,,P037,fencog,1,Pre,2022_Apr_22_1032,Go No-Go Task,2021.1.4,119.99774403920365,
,"Rule: When you see a yellow image, do not press 'spacebar'.",Images/Scram2/BF14_NC.jpg,Scramble,Blue,Images/Blue.jpg,space,ParentConditions/YellowYellowBlue_v1.xlsx,YellowYellowBlue,Conditions/Version_1/YellowScramStop.xlsx,no,PASS,0.7452625323265352,,,,,,,,,0,0,0,1,0,1,1,1,0,11,11,11,,,,,,,,,,,,,,,,,,,,,,,,,,,,,,,,,,,,,,,,,,,,,,,,,,,,,,,,,,,,,,,,,,,,,,,,,,,,,,,1.28,556.2592194000026,None,space,1,0.3109530000074301,557.6514373999962,None,557.6514373999962,None,557.6514373999962,None,,,,,,,,,,,P037,fencog,1,Pre,2022_Apr_22_1032,Go No-Go Task,2021.1.4,119.99774403920365,
,"Rule: When you see a yellow image, do not press 'spacebar'.",Images/Scram1/AM13NES.jpg,Scramble,Blue,Images/Blue.jpg,space,ParentConditions/YellowYellowBlue_v1.xlsx,YellowYellowBlue,Conditions/Version_1/YellowScramStop.xlsx,no,PASS,0.49399354825257,,,,,,,,,0,0,0,1,0,1,1,1,0,12,12,12,,,,,,,,,,,,,,,,,,,,,,,,,,,,,,,,,,,,,,,,,,,,,,,,,,,,,,,,,,,,,,,,,,,,,,,,,,,,,,,1.3,558.0514451999916,None,space,1,0.3035092999925837,559.4588458999933,None,559.4588458999933,None,559.4588458999933,None,,,,,,,,,,,P037,fencog,1,Pre,2022_Apr_22_1032,Go No-Go Task,2021.1.4,119.99774403920365,
,"Rule: When you see a yellow image, do not press 'spacebar'.",Images/Scram1/HM04_NC.jpg,Scramble,Blue,Images/Blue.jpg,space,ParentConditions/YellowYellowBlue_v1.xlsx,YellowYellowBlue,Conditions/Version_1/YellowScramStop.xlsx,no,PASS,0.18467466618813977,,,,,,,,,0,0,0,1,0,1,1,1,0,13,13,13,,,,,,,,,,,,,,,,,,,,,,,,,,,,,,,,,,,,,,,,,,,,,,,,,,,,,,,,,,,,,,,,,,,,,,,,,,,,,,,1.36,559.8612031999801,None,space,1,0.3089275000093039,561.3253999000008,None,561.3253999000008,None,561.3253999000008,None,,,,,,,,,,,P037,fencog,1,Pre,2022_Apr_22_1032,Go No-Go Task,2021.1.4,119.99774403920365,
,"Rule: When you see a yellow image, do not press 'spacebar'.",Images/Scram1/AM03NES.jpg,Scramble,Blue,Images/Blue.jpg,space,ParentConditions/YellowYellowBlue_v1.xlsx,YellowYellowBlue,Conditions/Version_1/YellowScramStop.xlsx,no,PASS,0.036392655954534225,,,,,,,,,0,0,0,1,0,1,1,1,0,14,14,14,,,,,,,,,,,,,,,,,,,,,,,,,,,,,,,,,,,,,,,,,,,,,,,,,,,,,,,,,,,,,,,,,,,,,,,,,,,,,,,1.49,561.7259640999837,None,space,1,0.3419873999955598,563.3244521000015,None,563.3244521000015,None,563.3244521000015,None,,,,,,,,,,,P037,fencog,1,Pre,2022_Apr_22_1032,Go No-Go Task,2021.1.4,119.99774403920365,
,"Rule: When you see a yellow image, do not press 'spacebar'.",Images/Scram1/AM22NES.jpg,Scramble,Blue,Images/Blue.jpg,space,ParentConditions/YellowYellowBlue_v1.xlsx,YellowYellowBlue,Conditions/Version_1/YellowScramStop.xlsx,no,PASS,0.46426586463932284,,,,,,,,,0,0,0,1,0,1,1,1,0,15,15,15,,,,,,,,,,,,,,,,,,,,,,,,,,,,,,,,,,,,,,,,,,,,,,,,,,,,,,,,,,,,,,,,,,,,,,,,,,,,,,,1.59,563.7259598999808,None,space,1,0.3141361999732908,565.424184500007,None,565.424184500007,None,565.424184500007,None,,,,,,,,,,,P037,fencog,1,Pre,2022_Apr_22_1032,Go No-Go Task,2021.1.4,119.99774403920365,
,"Rule: When you see a yellow image, do not press 'spacebar'.",Images/Scram2/AM17NES.jpg,Scramble,Yellow,Images/Yellow.jpg,None,ParentConditions/YellowYellowBlue_v1.xlsx,YellowYellowBlue,Conditions/Version_1/YellowScramStop.xlsx,yes,PASS,0.9679079792094736,,,,,,,,,0,0,0,1,0,1,1,1,0,16,16,16,,,,,,,,,,,,,,,,,,,,,,,,,,,,,,,,,,,,,,,,,,,,,,,,,,,,,,,,,,,,,,,,,,,,,,,,,,,,,,,1.83,565.8194555999944,None,None,1,,567.7651360000018,None,567.7651360000018,None,567.7651360000018,None,,,,,,,,,,,P037,fencog,1,Pre,2022_Apr_22_1032,Go No-Go Task,2021.1.4,119.99774403920365,
,"Rule: When you see a yellow image, do not press 'spacebar'.",Images/Scram1/AM10NES.jpg,Scramble,Blue,Images/Blue.jpg,space,ParentConditions/YellowYellowBlue_v1.xlsx,YellowYellowBlue,Conditions/Version_1/YellowScramStop.xlsx,no,PASS,0.60606204058038,,,,,,,,,0,0,0,1,0,1,1,1,0,17,17,17,,,,,,,,,,,,,,,,,,,,,,,,,,,,,,,,,,,,,,,,,,,,,,,,,,,,,,,,,,,,,,,,,,,,,,,,,,,,,,,1.84,568.1640101000085,None,space,1,0.3359182999993209,570.114448999986,None,570.114448999986,None,570.114448999986,None,,,,,,,,,,,P037,fencog,1,Pre,2022_Apr_22_1032,Go No-Go Task,2021.1.4,119.99774403920365,
,"Rule: When you see a yellow image, do not press 'spacebar'.",Images/Scram2/AM03_NC.jpg,Scramble,Yellow,Images/Yellow.jpg,None,ParentConditions/YellowYellowBlue_v1.xlsx,YellowYellowBlue,Conditions/Version_1/YellowScramStop.xlsx,yes,PASS,0.375029210281841,,,,,,,,,0,0,0,1,0,1,1,1,0,18,18,18,,,,,,,,,,,,,,,,,,,,,,,,,,,,,,,,,,,,,,,,,,,,,,,,,,,,,,,,,,,,,,,,,,,,,,,,,,,,,,,1.73,570.5134801999957,None,None,1,,572.3471862000006,None,572.3471862000006,None,572.3471862000006,None,,,,,,,,,,,P037,fencog,1,Pre,2022_Apr_22_1032,Go No-Go Task,2021.1.4,119.99774403920365,
,"Rule: When you see a yellow image, do not press 'spacebar'.",Images/Scram1/HF09_NC.jpg,Scramble,Blue,Images/Blue.jpg,space,ParentConditions/YellowYellowBlue_v1.xlsx,YellowYellowBlue,Conditions/Version_1/YellowScramStop.xlsx,no,PASS,0.5505947352432977,,,,,,,,,0,0,0,1,0,1,1,1,0,19,19,19,,,,,,,,,,,,,,,,,,,,,,,,,,,,,,,,,,,,,,,,,,,,,,,,,,,,,,,,,,,,,,,,,,,,,,,,,,,,,,,1.87,572.7481331999879,None,space,1,0.3203905000118539,574.7297903999861,None,574.7297903999861,None,574.7297903999861,None,,,,,,,,,,,P037,fencog,1,Pre,2022_Apr_22_1032,Go No-Go Task,2021.1.4,119.99774403920365,
,"Rule: When you see a yellow image, do not press 'spacebar'.",Images/Scram1/BM08_NC.jpg,Scramble,Blue,Images/Blue.jpg,space,ParentConditions/YellowYellowBlue_v1.xlsx,YellowYellowBlue,Conditions/Version_1/YellowScramStop.xlsx,no,PASS,0.1123919377407171,,,,,,,,,0,0,0,1,0,1,1,1,0,20,20,20,,,,,,,,,,,,,,,,,,,,,,,,,,,,,,,,,,,,,,,,,,,,,,,,,,,,,,,,,,,,,,,,,,,,,,,,,,,,,,,1.35,575.128830600006,None,space,1,0.23118520001298748,576.5791751999932,None,576.5791751999932,None,576.5791751999932,None,,,,,,,,,,,P037,fencog,1,Pre,2022_Apr_22_1032,Go No-Go Task,2021.1.4,119.99774403920365,
,"Rule: When you see a yellow image, do not press 'spacebar'.",Images/Scram1/AF32NES.jpg,Scramble,Blue,Images/Blue.jpg,space,ParentConditions/YellowYellowBlue_v1.xlsx,YellowYellowBlue,Conditions/Version_1/YellowScramStop.xlsx,no,PASS,0.6647641829322217,,,,,,,,,0,0,0,1,0,1,1,1,0,21,21,21,,,,,,,,,,,,,,,,,,,,,,,,,,,,,,,,,,,,,,,,,,,,,,,,,,,,,,,,,,,,,,,,,,,,,,,,,,,,,,,1.61,576.9798107999959,None,space,1,0.3066430000180844,578.7036497000081,None,578.7036497000081,None,578.7036497000081,None,,,,,,,,,,,P037,fencog,1,Pre,2022_Apr_22_1032,Go No-Go Task,2021.1.4,119.99774403920365,
,"Rule: When you see a yellow image, do not press 'spacebar'.",Images/Scram2/AM06_NC.jpg,Scramble,Yellow,Images/Yellow.jpg,None,ParentConditions/YellowYellowBlue_v1.xlsx,YellowYellowBlue,Conditions/Version_1/YellowScramStop.xlsx,yes,PASS,0.3634874867374246,,,,,,,,,0,0,0,1,0,1,1,1,0,22,22,22,,,,,,,,,,,,,,,,,,,,,,,,,,,,,,,,,,,,,,,,,,,,,,,,,,,,,,,,,,,,,,,,,,,,,,,,,,,,,,,1.24,579.1034730999963,None,None,1,,580.4530324999942,None,580.4530324999942,None,580.4530324999942,None,,,,,,,,,,,P037,fencog,1,Pre,2022_Apr_22_1032,Go No-Go Task,2021.1.4,119.99774403920365,
,"Rule: When you see a yellow image, do not press 'spacebar'.",Images/Scram1/AM06_NC.jpg,Scramble,Blue,Images/Blue.jpg,space,ParentConditions/YellowYellowBlue_v1.xlsx,YellowYellowBlue,Conditions/Version_1/YellowScramStop.xlsx,no,PASS,0.9155941996303448,,,,,,,,,0,0,0,1,0,1,1,1,0,23,23,23,,,,,,,,,,,,,,,,,,,,,,,,,,,,,,,,,,,,,,,,,,,,,,,,,,,,,,,,,,,,,,,,,,,,,,,,,,,,,,,1.31,580.8520175000012,None,space,1,0.22884629998588935,582.2775214999856,None,582.2775214999856,None,582.2775214999856,None,,,,,,,,,,,P037,fencog,1,Pre,2022_Apr_22_1032,Go No-Go Task,2021.1.4,119.99774403920365,
,"Rule: When you see a yellow image, do not press 'spacebar'.",Images/Scram2/AM02_NC.jpg,Scramble,Yellow,Images/Yellow.jpg,None,ParentConditions/YellowYellowBlue_v1.xlsx,YellowYellowBlue,Conditions/Version_1/YellowScramStop.xlsx,yes,PASS,0.40349662212467063,,,,,,,,,0,0,0,1,0,1,1,1,0,24,24,24,,,,,,,,,,,,,,,,,,,,,,,,,,,,,,,,,,,,,,,,,,,,,,,,,,,,,,,,,,,,,,,,,,,,,,,,,,,,,,,1.88,582.6736840999802,None,None,1,,584.6851287999889,None,584.6851287999889,None,584.6851287999889,None,,,,,,,,,,,P037,fencog,1,Pre,2022_Apr_22_1032,Go No-Go Task,2021.1.4,119.99774403920365,
,"Rule: When you see a yellow image, do not press 'spacebar'.",Images/Scram2/HF05_NC.jpg,Scramble,Blue,Images/Blue.jpg,space,ParentConditions/YellowYellowBlue_v1.xlsx,YellowYellowBlue,Conditions/Version_1/YellowScramStop.xlsx,no,PASS,0.921711635827277,,,,,,,,,0,0,0,1,0,1,1,1,0,25,25,25,,,,,,,,,,,,,,,,,,,,,,,,,,,,,,,,,,,,,,,,,,,,,,,,,,,,,,,,,,,,,,,,,,,,,,,,,,,,,,,1.95,585.0675879000046,None,space,1,0.26827420000336133,587.1261021999817,None,587.1261021999817,None,587.1261021999817,None,,,,,,,,,,,P037,fencog,1,Pre,2022_Apr_22_1032,Go No-Go Task,2021.1.4,119.99774403920365,
,"Rule: When you see a yellow image, do not press 'spacebar'.",Images/Scram2/AF32NES.jpg,Scramble,Yellow,Images/Yellow.jpg,None,ParentConditions/YellowYellowBlue_v1.xlsx,YellowYellowBlue,Conditions/Version_1/YellowScramStop.xlsx,yes,PASS,0.017466824187156504,,,,,,,,,0,0,0,1,0,1,1,1,0,26,26,26,,,,,,,,,,,,,,,,,,,,,,,,,,,,,,,,,,,,,,,,,,,,,,,,,,,,,,,,,,,,,,,,,,,,,,,,,,,,,,,1.65,587.5251702999813,None,None,1,,589.2837697000068,None,589.2837697000068,None,589.2837697000068,None,,,,,,,,,,,P037,fencog,1,Pre,2022_Apr_22_1032,Go No-Go Task,2021.1.4,119.99774403920365,
,"Rule: When you see a yellow image, do not press 'spacebar'.",Images/Scram2/HM04_NC.jpg,Scramble,Blue,Images/Blue.jpg,space,ParentConditions/YellowYellowBlue_v1.xlsx,YellowYellowBlue,Conditions/Version_1/YellowScramStop.xlsx,no,PASS,0.5736341227927889,,,,,,,,,0,0,0,1,0,1,1,1,0,27,27,27,,,,,,,,,,,,,,,,,,,,,,,,,,,,,,,,,,,,,,,,,,,,,,,,,,,,,,,,,,,,,,,,,,,,,,,,,,,,,,,1.94,589.6829295000061,None,space,1,0.2052650999976322,591.7331609999819,None,591.7331609999819,None,591.7331609999819,None,,,,,,,,,,,P037,fencog,1,Pre,2022_Apr_22_1032,Go No-Go Task,2021.1.4,119.99774403920365,
,"Rule: When you see a yellow image, do not press 'spacebar'.",Images/Scram2/AF25NES.jpg,Scramble,Blue,Images/Blue.jpg,space,ParentConditions/YellowYellowBlue_v1.xlsx,YellowYellowBlue,Conditions/Version_1/YellowScramStop.xlsx,no,PASS,0.4815009065668029,,,,,,,,,0,0,0,1,0,1,1,1,0,28,28,28,,,,,,,,,,,,,,,,,,,,,,,,,,,,,,,,,,,,,,,,,,,,,,,,,,,,,,,,,,,,,,,,,,,,,,,,,,,,,,,1.22,592.1282427999831,None,space,1,0.2810592000023462,593.4492385000049,None,593.4492385000049,None,593.4492385000049,None,,,,,,,,,,,P037,fencog,1,Pre,2022_Apr_22_1032,Go No-Go Task,2021.1.4,119.99774403920365,
,"Rule: When you see a yellow image, do not press 'spacebar'.",Images/Scram1/AF34NES.jpg,Scramble,Blue,Images/Blue.jpg,space,ParentConditions/YellowYellowBlue_v1.xlsx,YellowYellowBlue,Conditions/Version_1/YellowScramStop.xlsx,no,PASS,0.16322109337010782,,,,,,,,,0,0,0,1,0,1,1,1,0,29,29,29,,,,,,,,,,,,,,,,,,,,,,,,,,,,,,,,,,,,,,,,,,,,,,,,,,,,,,,,,,,,,,,,,,,,,,,,,,,,,,,1.41,593.849874699983,None,space,1,0.2769673999864608,595.3736735999992,None,595.3736735999992,None,595.3736735999992,None,,,,,,,,,,,P037,fencog,1,Pre,2022_Apr_22_1032,Go No-Go Task,2021.1.4,119.99774403920365,
,"Rule: When you see a yellow image, do not press 'spacebar'.",Images/Scram2/AF11NES.jpg,Scramble,Blue,Images/Blue.jpg,space,ParentConditions/YellowYellowBlue_v1.xlsx,YellowYellowBlue,Conditions/Version_1/YellowScramStop.xlsx,no,PASS,0.863906943339551,,,,,,,,,0,0,0,1,0,1,1,1,0,30,30,30,,,,,,,,,,,,,,,,,,,,,,,,,,,,,,,,,,,,,,,,,,,,,,,,,,,,,,,,,,,,,,,,,,,,,,,,,,,,,,,1.89,595.7736173000012,None,space,1,0.2694533000176307,597.7729345999833,None,597.7729345999833,None,597.7729345999833,None,,,,,,,,,,,P037,fencog,1,Pre,2022_Apr_22_1032,Go No-Go Task,2021.1.4,119.99774403920365,
,"Rule: When you see a yellow image, do not press 'spacebar'.",Images/Scram2/AF34NES.jpg,Scramble,Yellow,Images/Yellow.jpg,None,ParentConditions/YellowYellowBlue_v1.xlsx,YellowYellowBlue,Conditions/Version_1/YellowScramStop.xlsx,yes,PASS,0.06159009202316168,,,,,,,,,0,0,0,1,0,1,1,1,0,31,31,31,,,,,,,,,,,,,,,,,,,,,,,,,,,,,,,,,,,,,,,,,,,,,,,,,,,,,,,,,,,,,,,,,,,,,,,,,,,,,,,1.25,598.1646718999837,None,None,1,,599.5308402999945,None,599.5308402999945,None,599.5308402999945,None,,,,,,,,,,,P037,fencog,1,Pre,2022_Apr_22_1032,Go No-Go Task,2021.1.4,119.99774403920365,
,"Rule: When you see a yellow image, do not press 'spacebar'.",Images/Scram1/AM02_NC.jpg,Scramble,Blue,Images/Blue.jpg,space,ParentConditions/YellowYellowBlue_v1.xlsx,YellowYellowBlue,Conditions/Version_1/YellowScramStop.xlsx,no,PASS,0.7758508003758968,,,,,,,,,0,0,0,1,0,1,1,1,0,32,32,32,,,,,,,,,,,,,,,,,,,,,,,,,,,,,,,,,,,,,,,,,,,,,,,,,,,,,,,,,,,,,,,,,,,,,,,,,,,,,,,1.5,599.9296597999928,None,space,1,0.2799384999962058,601.5384946999839,None,601.5384946999839,None,601.5384946999839,None,,,,,,,,,,,P037,fencog,1,Pre,2022_Apr_22_1032,Go No-Go Task,2021.1.4,119.99774403920365,
,"Rule: When you see a yellow image, do not press 'spacebar'.",Images/Scram2/AM13NES.jpg,Scramble,Yellow,Images/Yellow.jpg,None,ParentConditions/YellowYellowBlue_v1.xlsx,YellowYellowBlue,Conditions/Version_1/YellowScramStop.xlsx,yes,PASS,0.6726515097084437,,,,,,,,,0,0,0,1,0,1,1,1,0,33,33,33,,,,,,,,,,,,,,,,,,,,,,,,,,,,,,,,,,,,,,,,,,,,,,,,,,,,,,,,,,,,,,,,,,,,,,,,,,,,,,,1.51,601.9375435999827,None,None,1,,603.5630021999823,None,603.5630021999823,None,603.5630021999823,None,,,,,,,,,,,P037,fencog,1,Pre,2022_Apr_22_1032,Go No-Go Task,2021.1.4,119.99774403920365,
,"Rule: When you see a yellow image, do not press 'spacebar'.",Images/Scram1/AM03_NC.jpg,Scramble,Blue,Images/Blue.jpg,space,ParentConditions/YellowYellowBlue_v1.xlsx,YellowYellowBlue,Conditions/Version_1/YellowScramStop.xlsx,no,PASS,0.060310837369876635,,,,,,,,,0,0,0,1,0,1,1,1,0,34,34,34,,,,,,,,,,,,,,,,,,,,,,,,,,,,,,,,,,,,,,,,,,,,,,,,,,,,,,,,,,,,,,,,,,,,,,,,,,,,,,,1.46,603.9620063999901,None,space,1,0.3052257999952417,605.5290169999935,None,605.5290169999935,None,605.5290169999935,None,,,,,,,,,,,P037,fencog,1,Pre,2022_Apr_22_1032,Go No-Go Task,2021.1.4,119.99774403920365,
,"Rule: When you see a yellow image, do not press 'spacebar'.",Images/Scram1/AF33NES.jpg,Scramble,Blue,Images/Blue.jpg,space,ParentConditions/YellowYellowBlue_v1.xlsx,YellowYellowBlue,Conditions/Version_1/YellowScramStop.xlsx,no,PASS,0.9883395332949252,,,,,,,,,0,0,0,1,0,1,1,1,0,35,35,35,,,,,,,,,,,,,,,,,,,,,,,,,,,,,,,,,,,,,,,,,,,,,,,,,,,,,,,,,,,,,,,,,,,,,,,,,,,,,,,1.75,605.9297502999834,None,space,1,0.3516114999947604,607.7866398000042,None,607.7866398000042,None,607.7866398000042,None,,,,,,,,,,,P037,fencog,1,Pre,2022_Apr_22_1032,Go No-Go Task,2021.1.4,119.99774403920365,
,"Rule: When you see a yellow image, do not press 'spacebar'.",Images/Scram1/BF10_NC.jpg,Scramble,Blue,Images/Blue.jpg,space,ParentConditions/YellowYellowBlue_v1.xlsx,YellowYellowBlue,Conditions/Version_1/YellowScramStop.xlsx,no,PASS,0.832283926857634,,,,,,,,,0,0,0,1,0,1,1,1,0,36,36,36,,,,,,,,,,,,,,,,,,,,,,,,,,,,,,,,,,,,,,,,,,,,,,,,,,,,,,,,,,,,,,,,,,,,,,,,,,,,,,,1.52,608.1887983999914,None,space,1,0.27083970000967383,609.8194001000084,None,609.8194001000084,None,609.8194001000084,None,,,,,,,,,,,P037,fencog,1,Pre,2022_Apr_22_1032,Go No-Go Task,2021.1.4,119.99774403920365,
,"Rule: When you see a yellow image, do not press 'spacebar'.",Images/Scram1/AF07_NC.jpg,Scramble,Blue,Images/Blue.jpg,space,ParentConditions/YellowYellowBlue_v1.xlsx,YellowYellowBlue,Conditions/Version_1/YellowScramStop.xlsx,no,PASS,0.9763895949527831,,,,,,,,,0,0,0,1,0,1,1,1,0,37,37,37,,,,,,,,,,,,,,,,,,,,,,,,,,,,,,,,,,,,,,,,,,,,,,,,,,,,,,,,,,,,,,,,,,,,,,,,,,,,,,,1.96,610.2186179999844,None,space,1,0.28480180000769906,612.2853979000065,None,612.2853979000065,None,612.2853979000065,None,,,,,,,,,,,P037,fencog,1,Pre,2022_Apr_22_1032,Go No-Go Task,2021.1.4,119.99774403920365,
,"Rule: When you see a yellow image, do not press 'spacebar'.",Images/Scram2/AM23NES.jpg,Scramble,Yellow,Images/Yellow.jpg,None,ParentConditions/YellowYellowBlue_v1.xlsx,YellowYellowBlue,Conditions/Version_1/YellowScramStop.xlsx,yes,PASS,0.6002481140469051,,,,,,,,,0,0,0,1,0,1,1,1,0,38,38,38,,,,,,,,,,,,,,,,,,,,,,,,,,,,,,,,,,,,,,,,,,,,,,,,,,,,,,,,,,,,,,,,,,,,,,,,,,,,,,,1.62,612.6859178000013,None,None,1,,614.4181174999976,None,614.4181174999976,None,614.4181174999976,None,,,,,,,,,,,P037,fencog,1,Pre,2022_Apr_22_1032,Go No-Go Task,2021.1.4,119.99774403920365,
,"Rule: When you see a yellow image, do not press 'spacebar'.",Images/Scram1/AF24NES.jpg,Scramble,Blue,Images/Blue.jpg,space,ParentConditions/YellowYellowBlue_v1.xlsx,YellowYellowBlue,Conditions/Version_1/YellowScramStop.xlsx,no,PASS,0.1129494583795736,,,,,,,,,0,0,0,1,0,1,1,1,0,39,39,39,,,,,,,,,,,,,,,,,,,,,,,,,,,,,,,,,,,,,,,,,,,,,,,,,,,,,,,,,,,,,,,,,,,,,,,,,,,,,,,1.57,614.8172285000037,None,space,1,0.253999999986263,616.4841327999893,None,616.4841327999893,None,616.4841327999893,None,,,,,,,,,,,P037,fencog,1,Pre,2022_Apr_22_1032,Go No-Go Task,2021.1.4,119.99774403920365,
,"Rule: When you see a yellow image, do not press 'spacebar'.",Images/Scram2/AF33NES.jpg,Scramble,Yellow,Images/Yellow.jpg,None,ParentConditions/YellowYellowBlue_v1.xlsx,YellowYellowBlue,Conditions/Version_1/YellowScramStop.xlsx,yes,PASS,0.8037537420652296,,,,,,,,,0,0,0,1,0,1,1,1,0,40,40,40,,,,,,,,,,,,,,,,,,,,,,,,,,,,,,,,,,,,,,,,,,,,,,,,,,,,,,,,,,,,,,,,,,,,,,,,,,,,,,,1.53,616.888288999995,None,None,1,,618.5334731999901,None,618.5334731999901,None,618.5334731999901,None,,,,,,,,,,,P037,fencog,1,Pre,2022_Apr_22_1032,Go No-Go Task,2021.1.4,119.99774403920365,
,"Rule: When you see a yellow image, do not press 'spacebar'.",Images/Scram1/AF25NES.jpg,Scramble,Blue,Images/Blue.jpg,space,ParentConditions/YellowYellowBlue_v1.xlsx,YellowYellowBlue,Conditions/Version_1/YellowScramStop.xlsx,no,PASS,0.14378736257712743,,,,,,,,,0,0,0,1,0,1,1,1,0,41,41,41,,,,,,,,,,,,,,,,,,,,,,,,,,,,,,,,,,,,,,,,,,,,,,,,,,,,,,,,,,,,,,,,,,,,,,,,,,,,,,,1.2,618.9325309999986,None,space,1,0.24890700000105426,620.2413583000016,None,620.2413583000016,None,620.2413583000016,None,,,,,,,,,,,P037,fencog,1,Pre,2022_Apr_22_1032,Go No-Go Task,2021.1.4,119.99774403920365,
,"Rule: When you see a yellow image, do not press 'spacebar'.",Images/Scram2/AM10NES.jpg,Scramble,Yellow,Images/Yellow.jpg,None,ParentConditions/YellowYellowBlue_v1.xlsx,YellowYellowBlue,Conditions/Version_1/YellowScramStop.xlsx,yes,PASS,0.5820319295028303,,,,,,,,,0,0,0,1,0,1,1,1,0,42,42,42,,,,,,,,,,,,,,,,,,,,,,,,,,,,,,,,,,,,,,,,,,,,,,,,,,,,,,,,,,,,,,,,,,,,,,,,,,,,,,,1.76,620.6402748999826,None,None,1,,622.5156919999863,None,622.5156919999863,None,622.5156919999863,None,,,,,,,,,,,P037,fencog,1,Pre,2022_Apr_22_1032,Go No-Go Task,2021.1.4,119.99774403920365,
,"Rule: When you see a yellow image, do not press 'spacebar'.",Images/Scram2/BF10_NC.jpg,Scramble,Blue,Images/Blue.jpg,space,ParentConditions/YellowYellowBlue_v1.xlsx,YellowYellowBlue,Conditions/Version_1/YellowScramStop.xlsx,no,PASS,0.2078164907866934,,,,,,,,,0,0,0,1,0,1,1,1,0,43,43,43,,,,,,,,,,,,,,,,,,,,,,,,,,,,,,,,,,,,,,,,,,,,,,,,,,,,,,,,,,,,,,,,,,,,,,,,,,,,,,,1.67,622.9147699000023,None,space,1,0.2799024999840185,624.6983043999935,None,624.6983043999935,None,624.6983043999935,None,,,,,,,,,,,P037,fencog,1,Pre,2022_Apr_22_1032,Go No-Go Task,2021.1.4,119.99774403920365,
,"Rule: When you see a yellow image, do not press 'spacebar'.",Images/Scram1/BF18_NC.jpg,Scramble,Blue,Images/Blue.jpg,space,ParentConditions/YellowYellowBlue_v1.xlsx,YellowYellowBlue,Conditions/Version_1/YellowScramStop.xlsx,no,PASS,0.3689261099445472,,,,,,,,,0,0,0,1,0,1,1,1,0,44,44,44,,,,,,,,,,,,,,,,,,,,,,,,,,,,,,,,,,,,,,,,,,,,,,,,,,,,,,,,,,,,,,,,,,,,,,,,,,,,,,,1.63,625.0903964999889,None,space,1,0.259507599985227,626.8226855999965,None,626.8226855999965,None,626.8226855999965,None,,,,,,,,,,,P037,fencog,1,Pre,2022_Apr_22_1032,Go No-Go Task,2021.1.4,119.99774403920365,
,"Rule: When you see a yellow image, do not press 'spacebar'.",Images/Scram2/HF09_NC.jpg,Scramble,Blue,Images/Blue.jpg,space,ParentConditions/YellowYellowBlue_v1.xlsx,YellowYellowBlue,Conditions/Version_1/YellowScramStop.xlsx,no,PASS,0.286178806367275,,,,,,,,,0,0,0,1,0,1,1,1,0,45,45,45,,,,,,,,,,,,,,,,,,,,,,,,,,,,,,,,,,,,,,,,,,,,,,,,,,,,,,,,,,,,,,,,,,,,,,,,,,,,,,,1.6,627.2234594000038,None,space,1,0.28006449999520555,628.9304101000016,None,628.9304101000016,None,628.9304101000016,None,,,,,,,,,,,P037,fencog,1,Pre,2022_Apr_22_1032,Go No-Go Task,2021.1.4,119.99774403920365,
,"Rule: When you see a yellow image, do not press 'spacebar'.",Images/Scram1/BF05_NC.jpg,Scramble,Blue,Images/Blue.jpg,space,ParentConditions/YellowYellowBlue_v1.xlsx,YellowYellowBlue,Conditions/Version_1/YellowScramStop.xlsx,no,PASS,0.7692637816145413,,,,,,,,,0,0,0,1,0,1,1,1,0,46,46,46,,,,,,,,,,,,,,,,,,,,,,,,,,,,,,,,,,,,,,,,,,,,,,,,,,,,,,,,,,,,,,,,,,,,,,,,,,,,,,,1.74,629.3355869000079,None,space,1,0.2783796000003349,631.1797778999899,None,631.1797778999899,None,631.1797778999899,None,,,,,,,,,,,P037,fencog,1,Pre,2022_Apr_22_1032,Go No-Go Task,2021.1.4,119.99774403920365,
,"Rule: When you see a yellow image, do not press 'spacebar'.",Images/Scram1/AM17NES.jpg,Scramble,Blue,Images/Blue.jpg,space,ParentConditions/YellowYellowBlue_v1.xlsx,YellowYellowBlue,Conditions/Version_1/YellowScramStop.xlsx,no,PASS,0.7553300637440975,,,,,,,,,0,0,0,1,0,1,1,1,0,47,47,47,,,,,,,,,,,,,,,,,,,,,,,,,,,,,,,,,,,,,,,,,,,,,,,,,,,,,,,,,,,,,,,,,,,,,,,,,,,,,,,1.33,631.5803719999967,None,space,1,0.2695854000048712,633.0208553999837,None,633.0208553999837,None,633.0208553999837,None,,,,,,,,,,,P037,fencog,1,Pre,2022_Apr_22_1032,Go No-Go Task,2021.1.4,119.99774403920365,
,"Rule: When you see a yellow image, do not press 'spacebar'.",Images/Scram2/AM09_NC.jpg,Scramble,Yellow,Images/Yellow.jpg,None,ParentConditions/YellowYellowBlue_v1.xlsx,YellowYellowBlue,Conditions/Version_1/YellowScramStop.xlsx,yes,PASS,0.984865364539922,,,,,,,,,0,0,0,1,0,1,1,1,0,48,48,48,,,,,,,,,,,,,,,,,,,,,,,,,,,,,,,,,,,,,,,,,,,,,,,,,,,,,,,,,,,,,,,,,,,,,,,,,,,,,,,1.91,633.419763199985,None,None,1,,635.4452574999887,None,635.4452574999887,None,635.4452574999887,None,,,,,,,,,,,P037,fencog,1,Pre,2022_Apr_22_1032,Go No-Go Task,2021.1.4,119.99774403920365,
,"Rule: When you see a yellow image, do not press 'spacebar'.",Images/Scram2/AF09NES.jpg,Scramble,Blue,Images/Blue.jpg,space,ParentConditions/YellowYellowBlue_v1.xlsx,YellowYellowBlue,Conditions/Version_1/YellowScramStop.xlsx,no,PASS,0.2099853615180053,,,,,,,,,0,0,0,1,0,1,1,1,0,49,49,49,,,,,,,,,,,,,,,,,,,,,,,,,,,,,,,,,,,,,,,,,,,,,,,,,,,,,,,,,,,,,,,,,,,,,,,,,,,,,,,1.85,635.844007799984,None,space,1,0.3115121999871917,637.8027646999981,None,637.8027646999981,None,637.8027646999981,None,,,,,,,,,,,P037,fencog,1,Pre,2022_Apr_22_1032,Go No-Go Task,2021.1.4,119.99774403920365,
,"Rule: When you see a yellow image, do not press 'spacebar'.",Images/Scram2/AM04_NC.jpg,Scramble,Yellow,Images/Yellow.jpg,None,ParentConditions/YellowYellowBlue_v1.xlsx,YellowYellowBlue,Conditions/Version_1/YellowScramStop.xlsx,yes,PASS,0.8595632143536898,,,,,,,,,0,0,0,1,0,1,1,1,0,50,50,50,,,,,,,,,,,,,,,,,,,,,,,,,,,,,,,,,,,,,,,,,,,,,,,,,,,,,,,,,,,,,,,,,,,,,,,,,,,,,,,1.55,638.2000638000027,None,None,1,,639.8605793000024,None,639.8605793000024,None,639.8605793000024,None,,,,,,,,,,,P037,fencog,1,Pre,2022_Apr_22_1032,Go No-Go Task,2021.1.4,119.99774403920365,
,"Rule: When you see a yellow image, do not press 'spacebar'.",Images/Scram2/BF05_NC.jpg,Scramble,Yellow,Images/Yellow.jpg,None,ParentConditions/YellowYellowBlue_v1.xlsx,YellowYellowBlue,Conditions/Version_1/YellowScramStop.xlsx,yes,PASS,0.9038892448018151,,,,,,,,,0,0,0,1,0,1,1,1,0,51,51,51,,,,,,,,,,,,,,,,,,,,,,,,,,,,,,,,,,,,,,,,,,,,,,,,,,,,,,,,,,,,,,,,,,,,,,,,,,,,,,,1.48,640.2527899999986,None,None,1,,641.8432590999873,None,641.8432590999873,None,641.8432590999873,None,,,,,,,,,,,P037,fencog,1,Pre,2022_Apr_22_1032,Go No-Go Task,2021.1.4,119.99774403920365,
,"Rule: When you see a yellow image, do not press 'spacebar'.",Images/Scram1/HM06_NC.jpg,Scramble,Blue,Images/Blue.jpg,space,ParentConditions/YellowYellowBlue_v1.xlsx,YellowYellowBlue,Conditions/Version_1/YellowScramStop.xlsx,no,PASS,0.7183076447823791,,,,,,,,,0,0,0,1,0,1,1,1,0,52,52,52,,,,,,,,,,,,,,,,,,,,,,,,,,,,,,,,,,,,,,,,,,,,,,,,,,,,,,,,,,,,,,,,,,,,,,,,,,,,,,,1.23,642.2421184999985,None,space,1,0.2499101999856066,643.5844142999849,None,643.5844142999849,None,643.5844142999849,None,,,,,,,,,,,P037,fencog,1,Pre,2022_Apr_22_1032,Go No-Go Task,2021.1.4,119.99774403920365,
,"Rule: When you see a yellow image, do not press 'spacebar'.",Images/Scram2/AF07NES.jpg,Scramble,Blue,Images/Blue.jpg,space,ParentConditions/YellowYellowBlue_v1.xlsx,YellowYellowBlue,Conditions/Version_1/YellowScramStop.xlsx,no,PASS,0.8685827011476244,,,,,,,,,0,0,0,1,0,1,1,1,0,53,53,53,,,,,,,,,,,,,,,,,,,,,,,,,,,,,,,,,,,,,,,,,,,,,,,,,,,,,,,,,,,,,,,,,,,,,,,,,,,,,,,1.99,643.9834639999899,None,space,1,0.20677369998884387,646.0836620999908,None,646.0836620999908,None,646.0836620999908,None,,,,,,,,,,,P037,fencog,1,Pre,2022_Apr_22_1032,Go No-Go Task,2021.1.4,119.99774403920365,
,"Rule: When you see a yellow image, do not press 'spacebar'.",Images/Scram1/BM01_NC.jpg,Scramble,Blue,Images/Blue.jpg,space,ParentConditions/YellowYellowBlue_v1.xlsx,YellowYellowBlue,Conditions/Version_1/YellowScramStop.xlsx,no,PASS,0.7516161036696042,,,,,,,,,0,0,0,1,0,1,1,1,0,54,54,54,,,,,,,,,,,,,,,,,,,,,,,,,,,,,,,,,,,,,,,,,,,,,,,,,,,,,,,,,,,,,,,,,,,,,,,,,,,,,,,1.32,646.4810258999933,None,space,1,0.26211029998376034,647.9081538000028,None,647.9081538000028,None,647.9081538000028,None,,,,,,,,,,,P037,fencog,1,Pre,2022_Apr_22_1032,Go No-Go Task,2021.1.4,119.99774403920365,
