CondFileP,Instructions,FaceE,Express,ColourT,ColourF,CorrectAnsP,MasterCondFile,BlockOrder,CondFile,ColCheck,Triplicate_check,SORT_BY_SMALLEST,EPracticeOuterLoop.thisRepN,EPracticeOuterLoop.thisTrialN,EPracticeOuterLoop.thisN,EPracticeOuterLoop.thisIndex,EPracticeInnerLoop.thisRepN,EPracticeInnerLoop.thisTrialN,EPracticeInnerLoop.thisN,EPracticeInnerLoop.thisIndex,MasterLoop.thisRepN,MasterLoop.thisTrialN,MasterLoop.thisN,MasterLoop.thisIndex,OuterLoop.thisRepN,OuterLoop.thisTrialN,OuterLoop.thisN,OuterLoop.thisIndex,InnerLoop.thisRepN,InnerLoop.thisTrialN,InnerLoop.thisN,InnerLoop.thisIndex,text_13.started,text_13.stopped,key_resp_10.keys,key_resp_10.rt,key_resp_10.started,key_resp_10.stopped,text4.started,text4.stopped,EmotionTaskInstructions1.keys,EmotionTaskInstructions1.rt,EmotionTaskInstructions1.started,EmotionTaskInstructions1.stopped,text_4.started,text_4.stopped,key_resp_5.keys,key_resp_5.rt,key_resp_5.started,key_resp_5.stopped,Text_14.started,Text_14.stopped,key_resp_9.keys,key_resp_9.rt,key_resp_9.started,key_resp_9.stopped,text_5.started,text_5.stopped,text_6.started,text_6.stopped,key_resp_7.keys,key_resp_7.rt,key_resp_7.started,key_resp_7.stopped,text_10.started,text_10.stopped,text_11.started,text_11.stopped,text_12.started,text_12.stopped,ISIjitterPractice,EPracticeISIMarker.started,EPracticeISIMarker.stopped,Pract.keys,Pract.corr,Pract.started,Pract.stopped,PracticeFace.started,PracticeFace.stopped,ColourPractice.started,ColourPractice.stopped,text_7.started,text_7.stopped,Pract.rt,EndOfPractice.started,EndOfPractice.stopped,key_resp_8.keys,key_resp_8.rt,key_resp_8.started,key_resp_8.stopped,text_8.started,text_8.stopped,key_resp_6.keys,key_resp_6.rt,key_resp_6.started,key_resp_6.stopped,text_2.started,text_2.stopped,text_3.started,text_3.stopped,key_resp_3.keys,key_resp_3.rt,key_resp_3.started,key_resp_3.stopped,TaskBlock.started,TaskBlock.stopped,BlockNo1.started,BlockNo1.stopped,OfBlock.started,OfBlock.stopped,ISIjitter,ISImarker.started,ISImarker.stopped,key_resp.keys,key_resp.corr,key_resp.rt,key_resp.started,key_resp.stopped,FaceSet.started,FaceSet.stopped,Colour.started,Colour.stopped,EndBlockText.started,EndBlockText.stopped,key_resp_4.keys,key_resp_4.rt,key_resp_4.started,key_resp_4.stopped,BreakText2.started,BreakText2.stopped,PressToContinue.started,PressToContinue.stopped,participant,Study Name,Task Version (required to run),PRE/POST,date,expName,psychopyVersion,frameRate
,,,,,,,,,,,,,,,,,,,,,,,,,,,,,,,,,27.269942,None,space,20.4022846,28.2624823,None,,,,,,,,,,,,,,,,,,,,,,,,,,,,,,,,,,,,,,,,,,,,,,,,,,,,,,,,,,,,,,,,,,,,,,,,,,,,,,,,,,,,,,,,,,,,,,,P037,fencog,2,Post,2022_Apr_29_1109,Go No-Go Task,2021.1.4,120.4151916
,,,,,,,,,,,,,,,,,,,,,,,,,,,,,,,,,,,,,,,50.1787704,None,space,9.7101235,50.1787704,None,,,,,,,,,,,,,,,,,,,,,,,,,,,,,,,,,,,,,,,,,,,,,,,,,,,,,,,,,,,,,,,,,,,,,,,,,,,,,,,,,,,,,,,,,P037,fencog,2,Post,2022_Apr_29_1109,Go No-Go Task,2021.1.4,120.4151916
,,,,,,,,,,,,,,,,,,,,,,,,,,,,,,,,,,,,,,,,,,,,,59.9575422,None,space,8.8194234,59.9575422,None,,,,,,,,,,,,,,,,,,,,,,,,,,,,,,,,,,,,,,,,,,,,,,,,,,,,,,,,,,,,,,,,,,,,,,,,,,,,,,,,,,,P037,fencog,2,Post,2022_Apr_29_1109,Go No-Go Task,2021.1.4,120.4151916
,,,,,,,,,,,,,,,,,,,,,,,,,,,,,,,,,,,,,,,,,,,,,,,,,,,68.7859449,None,space,3.1669877,68.7859449,None,,,,,,,,,,,,,,,,,,,,,,,,,,,,,,,,,,,,,,,,,,,,,,,,,,,,,,,,,,,,,,,,,,,,,,,,,,,,,P037,fencog,2,Post,2022_Apr_29_1109,Go No-Go Task,2021.1.4,120.4151916
EPracticeConditions/BlueEyes.csv,"Rule: When you see a blue image, do not press 'spacebar'.",Images/Fearful/HM09_FC.jpg,Fear,Blue,Images/Blue.jpg,None,,,,,,,0,0,0,0,0,0,0,0,,,,,,,,,,,,,,,,,,,,,,,,,,,,,,,,,,,,,72.0402526,None,75.0321039,None,space,0.7605802,75.0321039,None,72.0402526,None,72.0402526,None,72.0402526,None,1.4,75.998608,None,None,1,77.5736349,None,77.5736349,None,77.5736349,None,78.9807303,None,,,,,,,,,,,,,,,,,,,,,,,,,,,,,,,,,,,,,,,,,,,,,,,,,,P037,fencog,2,Post,2022_Apr_29_1109,Go No-Go Task,2021.1.4,120.4151916
EPracticeConditions/BlueEyes.csv,"Rule: When you see a blue image, do not press 'spacebar'.",Images/Happy/HF04_HE.jpg,Happy,Yellow,Images/Yellow.jpg,space,,,,,,,0,0,0,0,0,1,1,4,,,,,,,,,,,,,,,,,,,,,,,,,,,,,,,,,,,,,,,,,,,,,,,,,,,1.5,80.4335121,None,space,1,82.0473629,None,82.0473629,None,82.0473629,None,82.9407364,None,0.2895376,,,,,,,,,,,,,,,,,,,,,,,,,,,,,,,,,,,,,,,,,,,,,,,,,P037,fencog,2,Post,2022_Apr_29_1109,Go No-Go Task,2021.1.4,120.4151916
EPracticeConditions/BlueEyes.csv,"Rule: When you see a blue image, do not press 'spacebar'.",Images/Happy/HF10_HE.jpg,Happy,Yellow,Images/Yellow.jpg,space,,,,,,,0,0,0,0,0,2,2,7,,,,,,,,,,,,,,,,,,,,,,,,,,,,,,,,,,,,,,,,,,,,,,,,,,,1.3,84.9454955,None,space,1,86.3543325,None,86.3543325,None,86.3543325,None,87.2419241,None,0.3184435,,,,,,,,,,,,,,,,,,,,,,,,,,,,,,,,,,,,,,,,,,,,,,,,,P037,fencog,2,Post,2022_Apr_29_1109,Go No-Go Task,2021.1.4,120.4151916
EPracticeConditions/BlueEyes.csv,"Rule: When you see a blue image, do not press 'spacebar'.",Images/Happy/BM02_HO.jpg,Happy,Yellow,Images/Yellow.jpg,space,,,,,,,0,0,0,0,0,3,3,2,,,,,,,,,,,,,,,,,,,,,,,,,,,,,,,,,,,,,,,,,,,,,,,,,,,1.6,89.2444527,None,space,1,90.9530377,None,90.9530377,None,90.9530377,None,91.8486742,None,0.3838112,,,,,,,,,,,,,,,,,,,,,,,,,,,,,,,,,,,,,,,,,,,,,,,,,P037,fencog,2,Post,2022_Apr_29_1109,Go No-Go Task,2021.1.4,120.4151916
EPracticeConditions/BlueEyes.csv,"Rule: When you see a blue image, do not press 'spacebar'.",Images/Happy/BM08_HO.jpg,Happy,Yellow,Images/Yellow.jpg,space,,,,,,,0,0,0,0,0,4,4,3,,,,,,,,,,,,,,,,,,,,,,,,,,,,,,,,,,,,,,,,,,,,,,,,,,,1.7,93.8511593,None,space,1,95.6599863,None,95.6599863,None,95.6599863,None,96.5543738,None,0.3248986,,,,,,,,,,,,,,,,,,,,,,,,,,,,,,,,,,,,,,,,,,,,,,,,,P037,fencog,2,Post,2022_Apr_29_1109,Go No-Go Task,2021.1.4,120.4151916
EPracticeConditions/BlueEyes.csv,"Rule: When you see a blue image, do not press 'spacebar'.",Images/Happy/HF05_HO.jpg,Happy,Yellow,Images/Yellow.jpg,space,,,,,,,0,0,0,0,0,5,5,5,,,,,,,,,,,,,,,,,,,,,,,,,,,,,,,,,,,,,,,,,,,,,,,,,,,1.8,98.5580114,None,space,1,100.4669058,None,100.4669058,None,100.4669058,None,101.3557377,None,0.3739803,,,,,,,,,,,,,,,,,,,,,,,,,,,,,,,,,,,,,,,,,,,,,,,,,P037,fencog,2,Post,2022_Apr_29_1109,Go No-Go Task,2021.1.4,120.4151916
EPracticeConditions/BlueEyes.csv,"Rule: When you see a blue image, do not press 'spacebar'.",Images/Happy/HF09_HE.jpg,Happy,Yellow,Images/Yellow.jpg,space,,,,,,,0,0,0,0,0,6,6,6,,,,,,,,,,,,,,,,,,,,,,,,,,,,,,,,,,,,,,,,,,,,,,,,,,,1.2,103.3580866,None,space,1,104.6656551,None,104.6656551,None,104.6656551,None,105.5580424,None,0.2870237,,,,,,,,,,,,,,,,,,,,,,,,,,,,,,,,,,,,,,,,,,,,,,,,,P037,fencog,2,Post,2022_Apr_29_1109,Go No-Go Task,2021.1.4,120.4151916
EPracticeConditions/BlueEyes.csv,"Rule: When you see a blue image, do not press 'spacebar'.",Images/Fearful/AF01_FO.jpg,Fear,Blue,Images/Blue.jpg,None,,,,,,,0,0,0,0,0,7,7,1,,,,,,,,,,,,,,,,,,,,,,,,,,,,,,,,,,,,,,,,,,,,,,,,,,,1.9,107.5638192,None,None,1,109.5641683,None,109.5641683,None,109.5641683,None,110.4547841,None,,,,,,,,,,,,,,,,,,,,,,,,,,,,,,,,,,,,,,,,,,,,,,,,,,P037,fencog,2,Post,2022_Apr_29_1109,Go No-Go Task,2021.1.4,120.4151916
EPracticeConditions/BlueEyes.csv,"Rule: When you see a blue image, do not press 'spacebar'.",,,,,,,,,,,,0,0,0,0,,,,,,,,,,,,,,,,,,,,,,,,,,,,,,,,,,,,,,,,,,,,,,,,,,,,,,,,,,,,,,,,,,,,,,,,,,,,,,,,,,,,,,,,,,,,,,,,,,,,,,,,,,,,,,,,,,,,,P037,fencog,2,Post,2022_Apr_29_1109,Go No-Go Task,2021.1.4,120.4151916
EPracticeConditions/YellowEyes.csv,"Rule: When you see a yellow image, do not press 'spacebar'.",Images/Fearful/AM17AFS.jpg,Fear,Blue,Images/Blue.jpg,space,,,,,,,0,1,1,1,0,0,0,3,,,,,,,,,,,,,,,,,,,,,,,,,,,,,,,,,,,,,112.4755521,None,115.4700805,None,space,0.4028393,115.4700805,None,112.4755521,None,112.4755521,None,112.4755521,None,1.7,115.8935253,None,space,1,117.7034067,None,117.7034067,None,117.7034067,None,118.5994093,None,0.3695566,,,,,,,,,,,,,,,,,,,,,,,,,,,,,,,,,,,,,,,,,,,,,,,,,P037,fencog,2,Post,2022_Apr_29_1109,Go No-Go Task,2021.1.4,120.4151916
EPracticeConditions/YellowEyes.csv,"Rule: When you see a yellow image, do not press 'spacebar'.",Images/Fearful/AM23AFS.jpg,Fear,Blue,Images/Blue.jpg,space,,,,,,,0,1,1,1,0,1,1,6,,,,,,,,,,,,,,,,,,,,,,,,,,,,,,,,,,,,,,,,,,,,,,,,,,,1.6,120.6016763,None,space,1,122.3103772,None,122.3103772,None,122.3103772,None,123.2061331,None,0.3145288,,,,,,,,,,,,,,,,,,,,,,,,,,,,,,,,,,,,,,,,,,,,,,,,,P037,fencog,2,Post,2022_Apr_29_1109,Go No-Go Task,2021.1.4,120.4151916
EPracticeConditions/YellowEyes.csv,"Rule: When you see a yellow image, do not press 'spacebar'.",Images/Happy/AM32HAS.jpg,Happy,Yellow,Images/Yellow.jpg,None,,,,,,,0,1,1,1,0,2,2,0,,,,,,,,,,,,,,,,,,,,,,,,,,,,,,,,,,,,,,,,,,,,,,,,,,,1.2,125.2086493,None,None,1,126.5175318,None,126.5175318,None,126.5175318,None,127.3995411,None,,,,,,,,,,,,,,,,,,,,,,,,,,,,,,,,,,,,,,,,,,,,,,,,,,P037,fencog,2,Post,2022_Apr_29_1109,Go No-Go Task,2021.1.4,120.4151916
EPracticeConditions/YellowEyes.csv,"Rule: When you see a yellow image, do not press 'spacebar'.",Images/Fearful/AM19AFS.jpg,Fear,Blue,Images/Blue.jpg,space,,,,,,,0,1,1,1,0,3,3,4,,,,,,,,,,,,,,,,,,,,,,,,,,,,,,,,,,,,,,,,,,,,,,,,,,,1.9,129.4004409,None,space,1,131.4077404,None,131.4077404,None,131.4077404,None,132.3059771,None,0.2410114,,,,,,,,,,,,,,,,,,,,,,,,,,,,,,,,,,,,,,,,,,,,,,,,,P037,fencog,2,Post,2022_Apr_29_1109,Go No-Go Task,2021.1.4,120.4151916
EPracticeConditions/YellowEyes.csv,"Rule: When you see a yellow image, do not press 'spacebar'.",Images/Happy/BF05_HO.jpg,Happy,Yellow,Images/Yellow.jpg,None,,,,,,,0,1,1,1,0,4,4,1,,,,,,,,,,,,,,,,,,,,,,,,,,,,,,,,,,,,,,,,,,,,,,,,,,,1.5,134.3063816,None,None,1,135.9064191,None,135.9064191,None,135.9064191,None,136.7969228,None,,,,,,,,,,,,,,,,,,,,,,,,,,,,,,,,,,,,,,,,,,,,,,,,,,P037,fencog,2,Post,2022_Apr_29_1109,Go No-Go Task,2021.1.4,120.4151916
EPracticeConditions/YellowEyes.csv,"Rule: When you see a yellow image, do not press 'spacebar'.",Images/Fearful/AM22AFS.jpg,Fear,Blue,Images/Blue.jpg,space,,,,,,,0,1,1,1,0,5,5,5,,,,,,,,,,,,,,,,,,,,,,,,,,,,,,,,,,,,,,,,,,,,,,,,,,,1.8,138.7975588,None,space,1,140.7132288,None,140.7132288,None,140.7132288,None,141.6037699,None,0.3594938,,,,,,,,,,,,,,,,,,,,,,,,,,,,,,,,,,,,,,,,,,,,,,,,,P037,fencog,2,Post,2022_Apr_29_1109,Go No-Go Task,2021.1.4,120.4151916
EPracticeConditions/YellowEyes.csv,"Rule: When you see a yellow image, do not press 'spacebar'.",Images/Fearful/AM24AFS.jpg,Fear,Blue,Images/Blue.jpg,space,,,,,,,0,1,1,1,0,6,6,7,,,,,,,,,,,,,,,,,,,,,,,,,,,,,,,,,,,,,,,,,,,,,,,,,,,1.3,143.6032047,None,space,1,145.0037383,None,145.0037383,None,145.0037383,None,145.8942128,None,0.3489593,,,,,,,,,,,,,,,,,,,,,,,,,,,,,,,,,,,,,,,,,,,,,,,,,P037,fencog,2,Post,2022_Apr_29_1109,Go No-Go Task,2021.1.4,120.4151916
EPracticeConditions/YellowEyes.csv,"Rule: When you see a yellow image, do not press 'spacebar'.",Images/Fearful/AM16AFS.jpg,Fear,Blue,Images/Blue.jpg,space,,,,,,,0,1,1,1,0,7,7,2,,,,,,,,,,,,,,,,,,,,,,,,,,,,,,,,,,,,,,,,,,,,,,,,,,,1.4,147.8948368,None,None,0,149.4106701,None,149.4106701,None,149.4106701,None,150.3254064,None,,,,,,,,,,,,,,,,,,,,,,,,,,,,,,,,,,,,,,,,,,,,,,,,,,P037,fencog,2,Post,2022_Apr_29_1109,Go No-Go Task,2021.1.4,120.4151916
EPracticeConditions/YellowEyes.csv,"Rule: When you see a yellow image, do not press 'spacebar'.",,,,,,,,,,,,0,1,1,1,,,,,,,,,,,,,,,,,,,,,,,,,,,,,,,,,,,,,,,,,,,,,,,,,,,,,,,,,,,,,,,,,,,,,,,,,,,,,,,,,,,,,,,,,,,,,,,,,,,,,,,,,,,,,,,,,,,,,P037,fencog,2,Post,2022_Apr_29_1109,Go No-Go Task,2021.1.4,120.4151916
EPracticeConditions/BlueScram.csv,"Rule: When you see a blue image, do not press 'spacebar'.",Images/Scram1/BF18_NC.jpg,Scramble,Blue,Images/Blue.jpg,None,,,,,,,0,2,2,2,0,0,0,1,,,,,,,,,,,,,,,,,,,,,,,,,,,,,,,,,,,,,152.3238232,None,155.308554,None,space,22.012018,155.308554,None,152.3238232,None,152.3238232,None,152.3238232,None,1.8,177.3399496,None,space,0,179.2519149,None,179.2519149,None,179.2519149,None,180.1568648,None,0.2286913,,,,,,,,,,,,,,,,,,,,,,,,,,,,,,,,,,,,,,,,,,,,,,,,,P037,fencog,2,Post,2022_Apr_29_1109,Go No-Go Task,2021.1.4,120.4151916
EPracticeConditions/BlueScram.csv,"Rule: When you see a blue image, do not press 'spacebar'.",Images/Scram1/AM13NES.jpg,Scramble,Yellow,Images/Yellow.jpg,space,,,,,,,0,2,2,2,0,1,1,5,,,,,,,,,,,,,,,,,,,,,,,,,,,,,,,,,,,,,,,,,,,,,,,,,,,1.6,182.150131,None,space,1,183.8587355,None,183.8587355,None,183.8587355,None,184.7558266,None,0.2539522,,,,,,,,,,,,,,,,,,,,,,,,,,,,,,,,,,,,,,,,,,,,,,,,,P037,fencog,2,Post,2022_Apr_29_1109,Go No-Go Task,2021.1.4,120.4151916
EPracticeConditions/BlueScram.csv,"Rule: When you see a blue image, do not press 'spacebar'.",Images/Scram1/BM08_NC.jpg,Scramble,Blue,Images/Blue.jpg,None,,,,,,,0,2,2,2,0,2,2,0,,,,,,,,,,,,,,,,,,,,,,,,,,,,,,,,,,,,,,,,,,,,,,,,,,,1.4,186.7570379,None,None,1,188.2575233,None,188.2575233,None,188.2575233,None,189.1477261,None,,,,,,,,,,,,,,,,,,,,,,,,,,,,,,,,,,,,,,,,,,,,,,,,,,P037,fencog,2,Post,2022_Apr_29_1109,Go No-Go Task,2021.1.4,120.4151916
EPracticeConditions/BlueScram.csv,"Rule: When you see a blue image, do not press 'spacebar'.",Images/Scram2/AF25NES.jpg,Scramble,Yellow,Images/Yellow.jpg,space,,,,,,,0,2,2,2,0,3,3,7,,,,,,,,,,,,,,,,,,,,,,,,,,,,,,,,,,,,,,,,,,,,,,,,,,,1.7,191.1479344,None,space,1,192.9562354,None,192.9562354,None,192.9562354,None,193.8510634,None,0.2764693,,,,,,,,,,,,,,,,,,,,,,,,,,,,,,,,,,,,,,,,,,,,,,,,,P037,fencog,2,Post,2022_Apr_29_1109,Go No-Go Task,2021.1.4,120.4151916
EPracticeConditions/BlueScram.csv,"Rule: When you see a blue image, do not press 'spacebar'.",Images/Scram2/AF10_NC.jpg,Scramble,Yellow,Images/Yellow.jpg,space,,,,,,,0,2,2,2,0,4,4,2,,,,,,,,,,,,,,,,,,,,,,,,,,,,,,,,,,,,,,,,,,,,,,,,,,,1.3,195.8543201,None,space,1,197.2549477,None,197.2549477,None,197.2549477,None,198.1516908,None,0.3056694,,,,,,,,,,,,,,,,,,,,,,,,,,,,,,,,,,,,,,,,,,,,,,,,,P037,fencog,2,Post,2022_Apr_29_1109,Go No-Go Task,2021.1.4,120.4151916
EPracticeConditions/BlueScram.csv,"Rule: When you see a blue image, do not press 'spacebar'.",Images/Scram1/AM04_NC.jpg,Scramble,Yellow,Images/Yellow.jpg,space,,,,,,,0,2,2,2,0,5,5,3,,,,,,,,,,,,,,,,,,,,,,,,,,,,,,,,,,,,,,,,,,,,,,,,,,,1.9,200.1542248,None,space,1,202.1700728,None,202.1700728,None,202.1700728,None,203.0603795,None,0.2708135,,,,,,,,,,,,,,,,,,,,,,,,,,,,,,,,,,,,,,,,,,,,,,,,,P037,fencog,2,Post,2022_Apr_29_1109,Go No-Go Task,2021.1.4,120.4151916
EPracticeConditions/BlueScram.csv,"Rule: When you see a blue image, do not press 'spacebar'.",Images/Scram1/AM03NES.jpg,Scramble,Yellow,Images/Yellow.jpg,space,,,,,,,0,2,2,2,0,6,6,4,,,,,,,,,,,,,,,,,,,,,,,,,,,,,,,,,,,,,,,,,,,,,,,,,,,1.2,205.0603243,None,space,1,206.3604837,None,206.3604837,None,206.3604837,None,207.2507734,None,0.3442136,,,,,,,,,,,,,,,,,,,,,,,,,,,,,,,,,,,,,,,,,,,,,,,,,P037,fencog,2,Post,2022_Apr_29_1109,Go No-Go Task,2021.1.4,120.4151916
EPracticeConditions/BlueScram.csv,"Rule: When you see a blue image, do not press 'spacebar'.",Images/Scram2/AM03_NC.jpg,Scramble,Yellow,Images/Yellow.jpg,space,,,,,,,0,2,2,2,0,7,7,6,,,,,,,,,,,,,,,,,,,,,,,,,,,,,,,,,,,,,,,,,,,,,,,,,,,1.5,209.2504407,None,space,1,210.8593638,None,210.8593638,None,210.8593638,None,211.747543,None,0.373524,,,,,,,,,,,,,,,,,,,,,,,,,,,,,,,,,,,,,,,,,,,,,,,,,P037,fencog,2,Post,2022_Apr_29_1109,Go No-Go Task,2021.1.4,120.4151916
EPracticeConditions/BlueScram.csv,"Rule: When you see a blue image, do not press 'spacebar'.",,,,,,,,,,,,0,2,2,2,,,,,,,,,,,,,,,,,,,,,,,,,,,,,,,,,,,,,,,,,,,,,,,,,,,,,,,,,,,,,,,,,,,,,,,,,,,,,,,,,,,,,,,,,,,,,,,,,,,,,,,,,,,,,,,,,,,,,P037,fencog,2,Post,2022_Apr_29_1109,Go No-Go Task,2021.1.4,120.4151916
EPracticeConditions/YellowScram.csv,"Rule: When you see a yellow image, do not press 'spacebar'.",Images/Scram1/AF24NES.jpg,Scramble,Blue,Images/Blue.jpg,space,,,,,,,0,3,3,3,0,0,0,7,,,,,,,,,,,,,,,,,,,,,,,,,,,,,,,,,,,,,213.7652274,None,216.756854,None,space,0.4838112,216.756854,None,213.7652274,None,213.7652274,None,213.7652274,None,1.9,217.2603953,None,None,0,219.273649,None,219.273649,None,219.273649,None,220.1794274,None,,,,,,,,,,,,,,,,,,,,,,,,,,,,,,,,,,,,,,,,,,,,,,,,,,P037,fencog,2,Post,2022_Apr_29_1109,Go No-Go Task,2021.1.4,120.4151916
EPracticeConditions/YellowScram.csv,"Rule: When you see a yellow image, do not press 'spacebar'.",Images/Scram1/BM01_NC.jpg,Scramble,Blue,Images/Blue.jpg,space,,,,,,,0,3,3,3,0,1,1,5,,,,,,,,,,,,,,,,,,,,,,,,,,,,,,,,,,,,,,,,,,,,,,,,,,,1.3,222.1716341,None,None,0,223.5804886,None,223.5804886,None,223.5804886,None,224.4778915,None,,,,,,,,,,,,,,,,,,,,,,,,,,,,,,,,,,,,,,,,,,,,,,,,,,P037,fencog,2,Post,2022_Apr_29_1109,Go No-Go Task,2021.1.4,120.4151916
EPracticeConditions/YellowScram.csv,"Rule: When you see a yellow image, do not press 'spacebar'.",Images/Scram1/AF30NES.JPG,Scramble,Blue,Images/Blue.jpg,space,,,,,,,0,3,3,3,0,2,2,4,,,,,,,,,,,,,,,,,,,,,,,,,,,,,,,,,,,,,,,,,,,,,,,,,,,1.5,226.4785347,None,space,1,228.0874997,None,228.0874997,None,228.0874997,None,228.9923007,None,0.3131742,,,,,,,,,,,,,,,,,,,,,,,,,,,,,,,,,,,,,,,,,,,,,,,,,P037,fencog,2,Post,2022_Apr_29_1109,Go No-Go Task,2021.1.4,120.4151916
EPracticeConditions/YellowScram.csv,"Rule: When you see a yellow image, do not press 'spacebar'.",Images/Scram1/AF07NES.jpg,Scramble,Blue,Images/Blue.jpg,space,,,,,,,0,3,3,3,0,3,3,3,,,,,,,,,,,,,,,,,,,,,,,,,,,,,,,,,,,,,,,,,,,,,,,,,,,1.4,230.9853449,None,None,0,232.4944606,None,232.4944606,None,232.4944606,None,233.3926263,None,,,,,,,,,,,,,,,,,,,,,,,,,,,,,,,,,,,,,,,,,,,,,,,,,,P037,fencog,2,Post,2022_Apr_29_1109,Go No-Go Task,2021.1.4,120.4151916
EPracticeConditions/YellowScram.csv,"Rule: When you see a yellow image, do not press 'spacebar'.",Images/Scram2/AM03NES.jpg,Scramble,Yellow,Images/Yellow.jpg,None,,,,,,,0,3,3,3,0,4,4,1,,,,,,,,,,,,,,,,,,,,,,,,,,,,,,,,,,,,,,,,,,,,,,,,,,,1.6,235.3925361,None,None,1,237.1014978,None,237.1014978,None,237.1014978,None,238.0058575,None,,,,,,,,,,,,,,,,,,,,,,,,,,,,,,,,,,,,,,,,,,,,,,,,,,P037,fencog,2,Post,2022_Apr_29_1109,Go No-Go Task,2021.1.4,120.4151916
EPracticeConditions/YellowScram.csv,"Rule: When you see a yellow image, do not press 'spacebar'.",Images/Scram2/HM06_NC.jpg,Scramble,Yellow,Images/Yellow.jpg,None,,,,,,,0,3,3,3,0,5,5,0,,,,,,,,,,,,,,,,,,,,,,,,,,,,,,,,,,,,,,,,,,,,,,,,,,,1.7,239.9997545,None,None,1,241.8000961,None,241.8000961,None,241.8000961,None,242.6923092,None,,,,,,,,,,,,,,,,,,,,,,,,,,,,,,,,,,,,,,,,,,,,,,,,,,P037,fencog,2,Post,2022_Apr_29_1109,Go No-Go Task,2021.1.4,120.4151916
EPracticeConditions/YellowScram.csv,"Rule: When you see a yellow image, do not press 'spacebar'.",Images/Scram1/AF10_NC.jpg,Scramble,Blue,Images/Blue.jpg,space,,,,,,,0,3,3,3,0,6,6,6,,,,,,,,,,,,,,,,,,,,,,,,,,,,,,,,,,,,,,,,,,,,,,,,,,,1.2,244.6996368,None,space,1,246.0067186,None,246.0067186,None,246.0067186,None,246.9000747,None,0.3620816,,,,,,,,,,,,,,,,,,,,,,,,,,,,,,,,,,,,,,,,,,,,,,,,,P037,fencog,2,Post,2022_Apr_29_1109,Go No-Go Task,2021.1.4,120.4151916
EPracticeConditions/YellowScram.csv,"Rule: When you see a yellow image, do not press 'spacebar'.",Images/Scram1/HF04_NC.jpg,Scramble,Blue,Images/Blue.jpg,space,,,,,,,0,3,3,3,0,7,7,2,,,,,,,,,,,,,,,,,,,,,,,,,,,,,,,,,,,,,,,,,,,,,,,,,,,1.8,248.9051968,None,space,1,250.8057792,None,250.8057792,None,250.8057792,None,251.7024992,None,0.3388337,,,,,,,,,,,,,,,,,,,,,,,,,,,,,,,,,,,,,,,,,,,,,,,,,P037,fencog,2,Post,2022_Apr_29_1109,Go No-Go Task,2021.1.4,120.4151916
EPracticeConditions/YellowScram.csv,"Rule: When you see a yellow image, do not press 'spacebar'.",,,,,,,,,,,,0,3,3,3,,,,,,,,,,,,,,,,,,,,,,,,,,,,,,,,,,,,,,,,,,,,,,,,,,,,,,,,,,,,,,,,,,,,,,,,,,,,,,,,,,,,,,,,,,,,,,,,,,,,,,,,,,,,,,,,,,,,,P037,fencog,2,Post,2022_Apr_29_1109,Go No-Go Task,2021.1.4,120.4151916
,,,,,,,,,,,,,,,,,,,,,,,,,,,,,,,,,,,,,,,,,,,,,,,,,,,,,,,,,,,,,,,,,,,,,,,,,,,,,,,,,,,,,255.0282595,None,space,1.5686302,255.5118074,None,,,,,,,,,,,,,,,,,,,,,,,,,,,,,,,,,,,,,,,,,,,P037,fencog,2,Post,2022_Apr_29_1109,Go No-Go Task,2021.1.4,120.4151916
,,,,,,,,,,,,,,,,,,,,,,,,,,,,,,,,,,,,,,,,,,,,,,,,,,,,,,,,,,,,,,,,,,,,,,,,,,,,,,,,,,,,,,,,,,,257.0958117,None,space,4.2248815,257.0958117,None,,,,,,,,,,,,,,,,,,,,,,,,,,,,,,,,,,,,,P037,fencog,2,Post,2022_Apr_29_1109,Go No-Go Task,2021.1.4,120.4151916
,"Rule: When you see a yellow image, do not press 'spacebar'.",Images/Fearful/BM02_FC.jpg,Fear,Blue,Images/Blue.jpg,space,ParentConditions/YellowBlueBlue_v2.xlsx,BlueBlueYellow,Conditions/Version_2/YellowHappyStop.xlsx,no,PASS,0.168586459,,,,,,,,,0,0,0,0,0,0,0,0,0,0,0,0,,,,,,,,,,,,,,,,,,,,,,,,,,,,,,,,,,,,,,,,,,,,,,,,,,,,,,,,,,,,,,,,,261.4129288,None,264.4010053,None,space,7.8237261,264.4010053,None,261.4129288,None,261.4129288,None,261.4129288,None,1.27,272.2857511,None,space,1,0.3034107,273.6652395,None,273.6652395,None,273.6652395,None,,,,,,,,,,,P037,fencog,2,Post,2022_Apr_29_1109,Go No-Go Task,2021.1.4,120.4151916
,"Rule: When you see a yellow image, do not press 'spacebar'.",Images/Fearful/HF05_FC.jpg,Fear,Blue,Images/Blue.jpg,space,ParentConditions/YellowBlueBlue_v2.xlsx,BlueBlueYellow,Conditions/Version_2/YellowHappyStop.xlsx,no,PASS,0.948405597,,,,,,,,,0,0,0,0,0,0,0,0,0,1,1,1,,,,,,,,,,,,,,,,,,,,,,,,,,,,,,,,,,,,,,,,,,,,,,,,,,,,,,,,,,,,,,,,,,,,,,,,,,,,,,,1.77,274.0608936,None,space,1,0.2367242,275.9399233,None,275.9399233,None,275.9399233,None,,,,,,,,,,,P037,fencog,2,Post,2022_Apr_29_1109,Go No-Go Task,2021.1.4,120.4151916
,"Rule: When you see a yellow image, do not press 'spacebar'.",Images/Happy/AF32HAS.jpg,Happy,Yellow,Images/Yellow.jpg,None,ParentConditions/YellowBlueBlue_v2.xlsx,BlueBlueYellow,Conditions/Version_2/YellowHappyStop.xlsx,yes,PASS,0.508887906,,,,,,,,,0,0,0,0,0,0,0,0,0,2,2,2,,,,,,,,,,,,,,,,,,,,,,,,,,,,,,,,,,,,,,,,,,,,,,,,,,,,,,,,,,,,,,,,,,,,,,,,,,,,,,,1.23,276.3388365,None,None,1,,277.6810771,None,277.6810771,None,277.6810771,None,,,,,,,,,,,P037,fencog,2,Post,2022_Apr_29_1109,Go No-Go Task,2021.1.4,120.4151916
,"Rule: When you see a yellow image, do not press 'spacebar'.",Images/Happy/AM32HAS.jpg,Happy,Yellow,Images/Yellow.jpg,None,ParentConditions/YellowBlueBlue_v2.xlsx,BlueBlueYellow,Conditions/Version_2/YellowHappyStop.xlsx,yes,PASS,0.128770076,,,,,,,,,0,0,0,0,0,0,0,0,0,3,3,3,,,,,,,,,,,,,,,,,,,,,,,,,,,,,,,,,,,,,,,,,,,,,,,,,,,,,,,,,,,,,,,,,,,,,,,,,,,,,,,1.85,278.0738322,None,space,0,0.2420915,280.0303624,None,280.0303624,None,280.0303624,None,,,,,,,,,,,P037,fencog,2,Post,2022_Apr_29_1109,Go No-Go Task,2021.1.4,120.4151916
,"Rule: When you see a yellow image, do not press 'spacebar'.",Images/Fearful/AF07FS.jpg,Fear,Blue,Images/Blue.jpg,space,ParentConditions/YellowBlueBlue_v2.xlsx,BlueBlueYellow,Conditions/Version_2/YellowHappyStop.xlsx,no,PASS,0.432038262,,,,,,,,,0,0,0,0,0,0,0,0,0,4,4,4,,,,,,,,,,,,,,,,,,,,,,,,,,,,,,,,,,,,,,,,,,,,,,,,,,,,,,,,,,,,,,,,,,,,,,,,,,,,,,,1.56,280.4311569,None,space,1,0.2801138,282.1045722,None,282.1045722,None,282.1045722,None,,,,,,,,,,,P037,fencog,2,Post,2022_Apr_29_1109,Go No-Go Task,2021.1.4,120.4151916
,"Rule: When you see a yellow image, do not press 'spacebar'.",Images/Fearful/AM30AFS.jpg,Fear,Blue,Images/Blue.jpg,space,ParentConditions/YellowBlueBlue_v2.xlsx,BlueBlueYellow,Conditions/Version_2/YellowHappyStop.xlsx,no,PASS,0.141645931,,,,,,,,,0,0,0,0,0,0,0,0,0,5,5,5,,,,,,,,,,,,,,,,,,,,,,,,,,,,,,,,,,,,,,,,,,,,,,,,,,,,,,,,,,,,,,,,,,,,,,,,,,,,,,,1.51,282.4961107,None,space,1,0.3279066,284.1208482,None,284.1208482,None,284.1208482,None,,,,,,,,,,,P037,fencog,2,Post,2022_Apr_29_1109,Go No-Go Task,2021.1.4,120.4151916
,"Rule: When you see a yellow image, do not press 'spacebar'.",Images/Happy/BM03_HO.jpg,Happy,Yellow,Images/Yellow.jpg,None,ParentConditions/YellowBlueBlue_v2.xlsx,BlueBlueYellow,Conditions/Version_2/YellowHappyStop.xlsx,yes,PASS,0.824528474,,,,,,,,,0,0,0,0,0,0,0,0,0,6,6,6,,,,,,,,,,,,,,,,,,,,,,,,,,,,,,,,,,,,,,,,,,,,,,,,,,,,,,,,,,,,,,,,,,,,,,,,,,,,,,,1.59,284.521514,None,None,1,,286.2201862,None,286.2201862,None,286.2201862,None,,,,,,,,,,,P037,fencog,2,Post,2022_Apr_29_1109,Go No-Go Task,2021.1.4,120.4151916
,"Rule: When you see a yellow image, do not press 'spacebar'.",Images/Fearful/HM06_FC.jpg,Fear,Blue,Images/Blue.jpg,space,ParentConditions/YellowBlueBlue_v2.xlsx,BlueBlueYellow,Conditions/Version_2/YellowHappyStop.xlsx,no,PASS,0.068814935,,,,,,,,,0,0,0,0,0,0,0,0,0,7,7,7,,,,,,,,,,,,,,,,,,,,,,,,,,,,,,,,,,,,,,,,,,,,,,,,,,,,,,,,,,,,,,,,,,,,,,,,,,,,,,,1.9,286.6190802,None,space,1,0.2847782,288.6277911,None,288.6277911,None,288.6277911,None,,,,,,,,,,,P037,fencog,2,Post,2022_Apr_29_1109,Go No-Go Task,2021.1.4,120.4151916
,"Rule: When you see a yellow image, do not press 'spacebar'.",Images/Fearful/AF19AFS.jpg,Fear,Blue,Images/Blue.jpg,space,ParentConditions/YellowBlueBlue_v2.xlsx,BlueBlueYellow,Conditions/Version_2/YellowHappyStop.xlsx,no,PASS,0.619451635,,,,,,,,,0,0,0,0,0,0,0,0,0,8,8,8,,,,,,,,,,,,,,,,,,,,,,,,,,,,,,,,,,,,,,,,,,,,,,,,,,,,,,,,,,,,,,,,,,,,,,,,,,,,,,,1.98,289.0268924,None,space,1,0.2338953,291.1187513,None,291.1187513,None,291.1187513,None,,,,,,,,,,,P037,fencog,2,Post,2022_Apr_29_1109,Go No-Go Task,2021.1.4,120.4151916
,"Rule: When you see a yellow image, do not press 'spacebar'.",Images/Happy/AF30HAS.jpg,Happy,Yellow,Images/Yellow.jpg,None,ParentConditions/YellowBlueBlue_v2.xlsx,BlueBlueYellow,Conditions/Version_2/YellowHappyStop.xlsx,yes,PASS,0.778372113,,,,,,,,,0,0,0,0,0,0,0,0,0,9,9,9,,,,,,,,,,,,,,,,,,,,,,,,,,,,,,,,,,,,,,,,,,,,,,,,,,,,,,,,,,,,,,,,,,,,,,,,,,,,,,,1.45,291.5177293,None,None,1,,293.068188,None,293.068188,None,293.068188,None,,,,,,,,,,,P037,fencog,2,Post,2022_Apr_29_1109,Go No-Go Task,2021.1.4,120.4151916
,"Rule: When you see a yellow image, do not press 'spacebar'.",Images/Fearful/AF25AFS.jpg,Fear,Blue,Images/Blue.jpg,space,ParentConditions/YellowBlueBlue_v2.xlsx,BlueBlueYellow,Conditions/Version_2/YellowHappyStop.xlsx,no,PASS,0.952811342,,,,,,,,,0,0,0,0,0,0,0,0,0,10,10,10,,,,,,,,,,,,,,,,,,,,,,,,,,,,,,,,,,,,,,,,,,,,,,,,,,,,,,,,,,,,,,,,,,,,,,,,,,,,,,,1.74,293.4713737,None,space,1,0.1548214,295.3258629,None,295.3258629,None,295.3258629,None,,,,,,,,,,,P037,fencog,2,Post,2022_Apr_29_1109,Go No-Go Task,2021.1.4,120.4151916
,"Rule: When you see a yellow image, do not press 'spacebar'.",Images/Fearful/AF30AFS.jpg,Fear,Blue,Images/Blue.jpg,space,ParentConditions/YellowBlueBlue_v2.xlsx,BlueBlueYellow,Conditions/Version_2/YellowHappyStop.xlsx,no,PASS,0.022094815,,,,,,,,,0,0,0,0,0,0,0,0,0,11,11,11,,,,,,,,,,,,,,,,,,,,,,,,,,,,,,,,,,,,,,,,,,,,,,,,,,,,,,,,,,,,,,,,,,,,,,,,,,,,,,,1.68,295.7247089,None,space,1,0.3081471,297.5164213,None,297.5164213,None,297.5164213,None,,,,,,,,,,,P037,fencog,2,Post,2022_Apr_29_1109,Go No-Go Task,2021.1.4,120.4151916
,"Rule: When you see a yellow image, do not press 'spacebar'.",Images/Happy/BF10_HO.jpg,Happy,Yellow,Images/Yellow.jpg,None,ParentConditions/YellowBlueBlue_v2.xlsx,BlueBlueYellow,Conditions/Version_2/YellowHappyStop.xlsx,yes,PASS,0.500160017,,,,,,,,,0,0,0,0,0,0,0,0,0,12,12,12,,,,,,,,,,,,,,,,,,,,,,,,,,,,,,,,,,,,,,,,,,,,,,,,,,,,,,,,,,,,,,,,,,,,,,,,,,,,,,,1.31,297.9158153,None,None,1,,299.3414682,None,299.3414682,None,299.3414682,None,,,,,,,,,,,P037,fencog,2,Post,2022_Apr_29_1109,Go No-Go Task,2021.1.4,120.4151916
,"Rule: When you see a yellow image, do not press 'spacebar'.",Images/Fearful/AM06_FO.jpg,Fear,Blue,Images/Blue.jpg,space,ParentConditions/YellowBlueBlue_v2.xlsx,BlueBlueYellow,Conditions/Version_2/YellowHappyStop.xlsx,no,PASS,0.578262378,,,,,,,,,0,0,0,0,0,0,0,0,0,13,13,13,,,,,,,,,,,,,,,,,,,,,,,,,,,,,,,,,,,,,,,,,,,,,,,,,,,,,,,,,,,,,,,,,,,,,,,,,,,,,,,1.66,299.7405264,None,space,1,0.3334066,301.5074304,None,301.5074304,None,301.5074304,None,,,,,,,,,,,P037,fencog,2,Post,2022_Apr_29_1109,Go No-Go Task,2021.1.4,120.4151916
,"Rule: When you see a yellow image, do not press 'spacebar'.",Images/Happy/AM24HAS.jpg,Happy,Yellow,Images/Yellow.jpg,None,ParentConditions/YellowBlueBlue_v2.xlsx,BlueBlueYellow,Conditions/Version_2/YellowHappyStop.xlsx,yes,PASS,0.394841844,,,,,,,,,0,0,0,0,0,0,0,0,0,14,14,14,,,,,,,,,,,,,,,,,,,,,,,,,,,,,,,,,,,,,,,,,,,,,,,,,,,,,,,,,,,,,,,,,,,,,,,,,,,,,,,1.48,301.9073879,None,None,1,,303.4985052,None,303.4985052,None,303.4985052,None,,,,,,,,,,,P037,fencog,2,Post,2022_Apr_29_1109,Go No-Go Task,2021.1.4,120.4151916
,"Rule: When you see a yellow image, do not press 'spacebar'.",Images/Fearful/AF21AFS.jpg,Fear,Blue,Images/Blue.jpg,space,ParentConditions/YellowBlueBlue_v2.xlsx,BlueBlueYellow,Conditions/Version_2/YellowHappyStop.xlsx,no,PASS,0.643223107,,,,,,,,,0,0,0,0,0,0,0,0,0,15,15,15,,,,,,,,,,,,,,,,,,,,,,,,,,,,,,,,,,,,,,,,,,,,,,,,,,,,,,,,,,,,,,,,,,,,,,,,,,,,,,,1.75,303.8981755,None,space,1,0.140048,305.76441,None,305.76441,None,305.76441,None,,,,,,,,,,,P037,fencog,2,Post,2022_Apr_29_1109,Go No-Go Task,2021.1.4,120.4151916
,"Rule: When you see a yellow image, do not press 'spacebar'.",Images/Happy/AM06_HC.jpg,Happy,Yellow,Images/Yellow.jpg,None,ParentConditions/YellowBlueBlue_v2.xlsx,BlueBlueYellow,Conditions/Version_2/YellowHappyStop.xlsx,yes,PASS,0.794397629,,,,,,,,,0,0,0,0,0,0,0,0,0,16,16,16,,,,,,,,,,,,,,,,,,,,,,,,,,,,,,,,,,,,,,,,,,,,,,,,,,,,,,,,,,,,,,,,,,,,,,,,,,,,,,,1.84,306.1652317,None,space,0,0.214964,308.1137413,None,308.1137413,None,308.1137413,None,,,,,,,,,,,P037,fencog,2,Post,2022_Apr_29_1109,Go No-Go Task,2021.1.4,120.4151916
,"Rule: When you see a yellow image, do not press 'spacebar'.",Images/Fearful/AF10_FC.jpg,Fear,Blue,Images/Blue.jpg,space,ParentConditions/YellowBlueBlue_v2.xlsx,BlueBlueYellow,Conditions/Version_2/YellowHappyStop.xlsx,no,PASS,0.438717206,,,,,,,,,0,0,0,0,0,0,0,0,0,17,17,17,,,,,,,,,,,,,,,,,,,,,,,,,,,,,,,,,,,,,,,,,,,,,,,,,,,,,,,,,,,,,,,,,,,,,,,,,,,,,,,1.78,308.5125794,None,None,0,,310.4048164,None,310.4048164,None,310.4048164,None,,,,,,,,,,,P037,fencog,2,Post,2022_Apr_29_1109,Go No-Go Task,2021.1.4,120.4151916
,"Rule: When you see a yellow image, do not press 'spacebar'.",Images/Fearful/BM03_FC.jpg,Fear,Blue,Images/Blue.jpg,space,ParentConditions/YellowBlueBlue_v2.xlsx,BlueBlueYellow,Conditions/Version_2/YellowHappyStop.xlsx,no,PASS,0.201702627,,,,,,,,,0,0,0,0,0,0,0,0,0,18,18,18,,,,,,,,,,,,,,,,,,,,,,,,,,,,,,,,,,,,,,,,,,,,,,,,,,,,,,,,,,,,,,,,,,,,,,,,,,,,,,,1.32,310.8023879,None,space,1,0.2594266,312.2291605,None,312.2291605,None,312.2291605,None,,,,,,,,,,,P037,fencog,2,Post,2022_Apr_29_1109,Go No-Go Task,2021.1.4,120.4151916
,"Rule: When you see a yellow image, do not press 'spacebar'.",Images/Fearful/HM09_FC.jpg,Fear,Blue,Images/Blue.jpg,space,ParentConditions/YellowBlueBlue_v2.xlsx,BlueBlueYellow,Conditions/Version_2/YellowHappyStop.xlsx,no,PASS,0.159769068,,,,,,,,,0,0,0,0,0,0,0,0,0,19,19,19,,,,,,,,,,,,,,,,,,,,,,,,,,,,,,,,,,,,,,,,,,,,,,,,,,,,,,,,,,,,,,,,,,,,,,,,,,,,,,,1.55,312.6286011,None,space,1,0.3140226,314.278561,None,314.278561,None,314.278561,None,,,,,,,,,,,P037,fencog,2,Post,2022_Apr_29_1109,Go No-Go Task,2021.1.4,120.4151916
,"Rule: When you see a yellow image, do not press 'spacebar'.",Images/Fearful/AM04_FO.jpg,Fear,Blue,Images/Blue.jpg,space,ParentConditions/YellowBlueBlue_v2.xlsx,BlueBlueYellow,Conditions/Version_2/YellowHappyStop.xlsx,no,PASS,0.78422328,,,,,,,,,0,0,0,0,0,0,0,0,0,20,20,20,,,,,,,,,,,,,,,,,,,,,,,,,,,,,,,,,,,,,,,,,,,,,,,,,,,,,,,,,,,,,,,,,,,,,,,,,,,,,,,1.86,314.6881776,None,None,0,,316.6611923,None,316.6611923,None,316.6611923,None,,,,,,,,,,,P037,fencog,2,Post,2022_Apr_29_1109,Go No-Go Task,2021.1.4,120.4151916
,"Rule: When you see a yellow image, do not press 'spacebar'.",Images/Fearful/AF11AFS.jpg,Fear,Blue,Images/Blue.jpg,space,ParentConditions/YellowBlueBlue_v2.xlsx,BlueBlueYellow,Conditions/Version_2/YellowHappyStop.xlsx,no,PASS,0.575894855,,,,,,,,,0,0,0,0,0,0,0,0,0,21,21,21,,,,,,,,,,,,,,,,,,,,,,,,,,,,,,,,,,,,,,,,,,,,,,,,,,,,,,,,,,,,,,,,,,,,,,,,,,,,,,,1.38,317.0603862,None,space,1,0.3046394,318.543957,None,318.543957,None,318.543957,None,,,,,,,,,,,P037,fencog,2,Post,2022_Apr_29_1109,Go No-Go Task,2021.1.4,120.4151916
,"Rule: When you see a yellow image, do not press 'spacebar'.",Images/Fearful/AM10_FO.jpg,Fear,Blue,Images/Blue.jpg,space,ParentConditions/YellowBlueBlue_v2.xlsx,BlueBlueYellow,Conditions/Version_2/YellowHappyStop.xlsx,no,PASS,0.751656074,,,,,,,,,0,0,0,0,0,0,0,0,0,22,22,22,,,,,,,,,,,,,,,,,,,,,,,,,,,,,,,,,,,,,,,,,,,,,,,,,,,,,,,,,,,,,,,,,,,,,,,,,,,,,,,1.73,318.9446181,None,space,1,0.2395618,320.7850033,None,320.7850033,None,320.7850033,None,,,,,,,,,,,P037,fencog,2,Post,2022_Apr_29_1109,Go No-Go Task,2021.1.4,120.4151916
,"Rule: When you see a yellow image, do not press 'spacebar'.",Images/Fearful/WF04_FC.jpg,Fear,Blue,Images/Blue.jpg,space,ParentConditions/YellowBlueBlue_v2.xlsx,BlueBlueYellow,Conditions/Version_2/YellowHappyStop.xlsx,no,PASS,0.862629925,,,,,,,,,0,0,0,0,0,0,0,0,0,23,23,23,,,,,,,,,,,,,,,,,,,,,,,,,,,,,,,,,,,,,,,,,,,,,,,,,,,,,,,,,,,,,,,,,,,,,,,,,,,,,,,1.6,321.1862128,None,space,1,0.3474954,322.9010076,None,322.9010076,None,322.9010076,None,,,,,,,,,,,P037,fencog,2,Post,2022_Apr_29_1109,Go No-Go Task,2021.1.4,120.4151916
,"Rule: When you see a yellow image, do not press 'spacebar'.",Images/Fearful/AF28AFS.jpg,Fear,Blue,Images/Blue.jpg,space,ParentConditions/YellowBlueBlue_v2.xlsx,BlueBlueYellow,Conditions/Version_2/YellowHappyStop.xlsx,no,PASS,0.732611763,,,,,,,,,0,0,0,0,0,0,0,0,0,24,24,24,,,,,,,,,,,,,,,,,,,,,,,,,,,,,,,,,,,,,,,,,,,,,,,,,,,,,,,,,,,,,,,,,,,,,,,,,,,,,,,1.91,323.3001191,None,space,1,0.1953317,325.3253059,None,325.3253059,None,325.3253059,None,,,,,,,,,,,P037,fencog,2,Post,2022_Apr_29_1109,Go No-Go Task,2021.1.4,120.4151916
,"Rule: When you see a yellow image, do not press 'spacebar'.",Images/Fearful/WF11_FC.jpg,Fear,Blue,Images/Blue.jpg,space,ParentConditions/YellowBlueBlue_v2.xlsx,BlueBlueYellow,Conditions/Version_2/YellowHappyStop.xlsx,no,PASS,0.328836988,,,,,,,,,0,0,0,0,0,0,0,0,0,25,25,25,,,,,,,,,,,,,,,,,,,,,,,,,,,,,,,,,,,,,,,,,,,,,,,,,,,,,,,,,,,,,,,,,,,,,,,,,,,,,,,1.76,325.728093,None,space,1,0.3372461,327.5993288,None,327.5993288,None,327.5993288,None,,,,,,,,,,,P037,fencog,2,Post,2022_Apr_29_1109,Go No-Go Task,2021.1.4,120.4151916
,"Rule: When you see a yellow image, do not press 'spacebar'.",Images/Fearful/AM17AFS.jpg,Fear,Blue,Images/Blue.jpg,space,ParentConditions/YellowBlueBlue_v2.xlsx,BlueBlueYellow,Conditions/Version_2/YellowHappyStop.xlsx,no,PASS,0.201145759,,,,,,,,,0,0,0,0,0,0,0,0,0,26,26,26,,,,,,,,,,,,,,,,,,,,,,,,,,,,,,,,,,,,,,,,,,,,,,,,,,,,,,,,,,,,,,,,,,,,,,,,,,,,,,,1.61,327.9985899,None,space,1,0.2050808,329.7156489,None,329.7156489,None,329.7156489,None,,,,,,,,,,,P037,fencog,2,Post,2022_Apr_29_1109,Go No-Go Task,2021.1.4,120.4151916
,"Rule: When you see a yellow image, do not press 'spacebar'.",Images/Happy/AF27HAS.jpg,Happy,Yellow,Images/Yellow.jpg,None,ParentConditions/YellowBlueBlue_v2.xlsx,BlueBlueYellow,Conditions/Version_2/YellowHappyStop.xlsx,yes,PASS,0.031134284,,,,,,,,,0,0,0,0,0,0,0,0,0,27,27,27,,,,,,,,,,,,,,,,,,,,,,,,,,,,,,,,,,,,,,,,,,,,,,,,,,,,,,,,,,,,,,,,,,,,,,,,,,,,,,,1.4,330.1221322,None,None,1,,331.6320807,None,331.6320807,None,331.6320807,None,,,,,,,,,,,P037,fencog,2,Post,2022_Apr_29_1109,Go No-Go Task,2021.1.4,120.4151916
,"Rule: When you see a yellow image, do not press 'spacebar'.",Images/Fearful/BF10_FO.jpg,Fear,Blue,Images/Blue.jpg,space,ParentConditions/YellowBlueBlue_v2.xlsx,BlueBlueYellow,Conditions/Version_2/YellowHappyStop.xlsx,no,PASS,0.882134405,,,,,,,,,0,0,0,0,0,0,0,0,0,28,28,28,,,,,,,,,,,,,,,,,,,,,,,,,,,,,,,,,,,,,,,,,,,,,,,,,,,,,,,,,,,,,,,,,,,,,,,,,,,,,,,1.34,332.0307719,None,space,1,0.3435521,333.481082,None,333.481082,None,333.481082,None,,,,,,,,,,,P037,fencog,2,Post,2022_Apr_29_1109,Go No-Go Task,2021.1.4,120.4151916
,"Rule: When you see a yellow image, do not press 'spacebar'.",Images/Fearful/HF04_FO.jpg,Fear,Blue,Images/Blue.jpg,space,ParentConditions/YellowBlueBlue_v2.xlsx,BlueBlueYellow,Conditions/Version_2/YellowHappyStop.xlsx,no,PASS,0.102369289,,,,,,,,,0,0,0,0,0,0,0,0,0,29,29,29,,,,,,,,,,,,,,,,,,,,,,,,,,,,,,,,,,,,,,,,,,,,,,,,,,,,,,,,,,,,,,,,,,,,,,,,,,,,,,,1.49,333.8812616,None,space,1,0.2082639,335.4723918,None,335.4723918,None,335.4723918,None,,,,,,,,,,,P037,fencog,2,Post,2022_Apr_29_1109,Go No-Go Task,2021.1.4,120.4151916
,"Rule: When you see a yellow image, do not press 'spacebar'.",Images/Happy/AF26HAS.jpg,Happy,Yellow,Images/Yellow.jpg,None,ParentConditions/YellowBlueBlue_v2.xlsx,BlueBlueYellow,Conditions/Version_2/YellowHappyStop.xlsx,yes,PASS,0.312277853,,,,,,,,,0,0,0,0,0,0,0,0,0,30,30,30,,,,,,,,,,,,,,,,,,,,,,,,,,,,,,,,,,,,,,,,,,,,,,,,,,,,,,,,,,,,,,,,,,,,,,,,,,,,,,,1.64,335.8731778,None,space,0,0.234836,337.6217126,None,337.6217126,None,337.6217126,None,,,,,,,,,,,P037,fencog,2,Post,2022_Apr_29_1109,Go No-Go Task,2021.1.4,120.4151916
,"Rule: When you see a yellow image, do not press 'spacebar'.",Images/Happy/HF09_HE.jpg,Happy,Yellow,Images/Yellow.jpg,None,ParentConditions/YellowBlueBlue_v2.xlsx,BlueBlueYellow,Conditions/Version_2/YellowHappyStop.xlsx,yes,PASS,0.888995458,,,,,,,,,0,0,0,0,0,0,0,0,0,31,31,31,,,,,,,,,,,,,,,,,,,,,,,,,,,,,,,,,,,,,,,,,,,,,,,,,,,,,,,,,,,,,,,,,,,,,,,,,,,,,,,1.96,338.0208519,None,None,1,,340.0876089,None,340.0876089,None,340.0876089,None,,,,,,,,,,,P037,fencog,2,Post,2022_Apr_29_1109,Go No-Go Task,2021.1.4,120.4151916
,"Rule: When you see a yellow image, do not press 'spacebar'.",Images/Fearful/AM16AFS.jpg,Fear,Blue,Images/Blue.jpg,space,ParentConditions/YellowBlueBlue_v2.xlsx,BlueBlueYellow,Conditions/Version_2/YellowHappyStop.xlsx,no,PASS,0.348563608,,,,,,,,,0,0,0,0,0,0,0,0,0,32,32,32,,,,,,,,,,,,,,,,,,,,,,,,,,,,,,,,,,,,,,,,,,,,,,,,,,,,,,,,,,,,,,,,,,,,,,,,,,,,,,,1.28,340.4880922,None,space,1,0.3224098,341.8620667,None,341.8620667,None,341.8620667,None,,,,,,,,,,,P037,fencog,2,Post,2022_Apr_29_1109,Go No-Go Task,2021.1.4,120.4151916
,"Rule: When you see a yellow image, do not press 'spacebar'.",Images/Fearful/WF05_FO.jpg,Fear,Blue,Images/Blue.jpg,space,ParentConditions/YellowBlueBlue_v2.xlsx,BlueBlueYellow,Conditions/Version_2/YellowHappyStop.xlsx,no,PASS,0.571161038,,,,,,,,,0,0,0,0,0,0,0,0,0,33,33,33,,,,,,,,,,,,,,,,,,,,,,,,,,,,,,,,,,,,,,,,,,,,,,,,,,,,,,,,,,,,,,,,,,,,,,,,,,,,,,,1.54,342.26418,None,space,1,0.3207058,343.9198324,None,343.9198324,None,343.9198324,None,,,,,,,,,,,P037,fencog,2,Post,2022_Apr_29_1109,Go No-Go Task,2021.1.4,120.4151916
,"Rule: When you see a yellow image, do not press 'spacebar'.",Images/Fearful/AM03_FC.jpg,Fear,Blue,Images/Blue.jpg,space,ParentConditions/YellowBlueBlue_v2.xlsx,BlueBlueYellow,Conditions/Version_2/YellowHappyStop.xlsx,no,PASS,0.795310309,,,,,,,,,0,0,0,0,0,0,0,0,0,34,34,34,,,,,,,,,,,,,,,,,,,,,,,,,,,,,,,,,,,,,,,,,,,,,,,,,,,,,,,,,,,,,,,,,,,,,,,,,,,,,,,1.52,344.313634,None,space,1,0.2881901,345.9442888,None,345.9442888,None,345.9442888,None,,,,,,,,,,,P037,fencog,2,Post,2022_Apr_29_1109,Go No-Go Task,2021.1.4,120.4151916
,"Rule: When you see a yellow image, do not press 'spacebar'.",Images/Fearful/AM01AFS.jpg,Fear,Blue,Images/Blue.jpg,space,ParentConditions/YellowBlueBlue_v2.xlsx,BlueBlueYellow,Conditions/Version_2/YellowHappyStop.xlsx,no,PASS,0.096065523,,,,,,,,,0,0,0,0,0,0,0,0,0,35,35,35,,,,,,,,,,,,,,,,,,,,,,,,,,,,,,,,,,,,,,,,,,,,,,,,,,,,,,,,,,,,,,,,,,,,,,,,,,,,,,,1.44,346.3411009,None,space,1,0.2748021,347.893636,None,347.893636,None,347.893636,None,,,,,,,,,,,P037,fencog,2,Post,2022_Apr_29_1109,Go No-Go Task,2021.1.4,120.4151916
,"Rule: When you see a yellow image, do not press 'spacebar'.",Images/Fearful/HM04_FC.jpg,Fear,Blue,Images/Blue.jpg,space,ParentConditions/YellowBlueBlue_v2.xlsx,BlueBlueYellow,Conditions/Version_2/YellowHappyStop.xlsx,no,PASS,0.267176525,,,,,,,,,0,0,0,0,0,0,0,0,0,36,36,36,,,,,,,,,,,,,,,,,,,,,,,,,,,,,,,,,,,,,,,,,,,,,,,,,,,,,,,,,,,,,,,,,,,,,,,,,,,,,,,1.35,348.2925692,None,space,1,0.3293226,349.7513835,None,349.7513835,None,349.7513835,None,,,,,,,,,,,P037,fencog,2,Post,2022_Apr_29_1109,Go No-Go Task,2021.1.4,120.4151916
,"Rule: When you see a yellow image, do not press 'spacebar'.",Images/Fearful/BF18_FC.jpg,Fear,Blue,Images/Blue.jpg,space,ParentConditions/YellowBlueBlue_v2.xlsx,BlueBlueYellow,Conditions/Version_2/YellowHappyStop.xlsx,no,PASS,0.304931994,,,,,,,,,0,0,0,0,0,0,0,0,0,37,37,37,,,,,,,,,,,,,,,,,,,,,,,,,,,,,,,,,,,,,,,,,,,,,,,,,,,,,,,,,,,,,,,,,,,,,,,,,,,,,,,1.99,350.150206,None,space,1,0.3178474,352.2506463,None,352.2506463,None,352.2506463,None,,,,,,,,,,,P037,fencog,2,Post,2022_Apr_29_1109,Go No-Go Task,2021.1.4,120.4151916
,"Rule: When you see a yellow image, do not press 'spacebar'.",Images/Fearful/AF07_FO.jpg,Fear,Blue,Images/Blue.jpg,space,ParentConditions/YellowBlueBlue_v2.xlsx,BlueBlueYellow,Conditions/Version_2/YellowHappyStop.xlsx,no,PASS,0.065719812,,,,,,,,,0,0,0,0,0,0,0,0,0,38,38,38,,,,,,,,,,,,,,,,,,,,,,,,,,,,,,,,,,,,,,,,,,,,,,,,,,,,,,,,,,,,,,,,,,,,,,,,,,,,,,,1.65,352.6518576,None,space,1,0.2882479,354.4084326,None,354.4084326,None,354.4084326,None,,,,,,,,,,,P037,fencog,2,Post,2022_Apr_29_1109,Go No-Go Task,2021.1.4,120.4151916
,"Rule: When you see a yellow image, do not press 'spacebar'.",Images/Fearful/AM24AFS.jpg,Fear,Blue,Images/Blue.jpg,space,ParentConditions/YellowBlueBlue_v2.xlsx,BlueBlueYellow,Conditions/Version_2/YellowHappyStop.xlsx,no,PASS,0.237386011,,,,,,,,,0,0,0,0,0,0,0,0,0,39,39,39,,,,,,,,,,,,,,,,,,,,,,,,,,,,,,,,,,,,,,,,,,,,,,,,,,,,,,,,,,,,,,,,,,,,,,,,,,,,,,,1.82,354.8090087,None,space,1,0.3401351,356.7243406,None,356.7243406,None,356.7243406,None,,,,,,,,,,,P037,fencog,2,Post,2022_Apr_29_1109,Go No-Go Task,2021.1.4,120.4151916
,"Rule: When you see a yellow image, do not press 'spacebar'.",Images/Fearful/AM03AFS.jpg,Fear,Blue,Images/Blue.jpg,space,ParentConditions/YellowBlueBlue_v2.xlsx,BlueBlueYellow,Conditions/Version_2/YellowHappyStop.xlsx,no,PASS,0.9496981,,,,,,,,,0,0,0,0,0,0,0,0,0,40,40,40,,,,,,,,,,,,,,,,,,,,,,,,,,,,,,,,,,,,,,,,,,,,,,,,,,,,,,,,,,,,,,,,,,,,,,,,,,,,,,,1.83,357.125655,None,space,1,0.3433446,359.0653003,None,359.0653003,None,359.0653003,None,,,,,,,,,,,P037,fencog,2,Post,2022_Apr_29_1109,Go No-Go Task,2021.1.4,120.4151916
,"Rule: When you see a yellow image, do not press 'spacebar'.",Images/Fearful/BM08_FC.jpg,Fear,Blue,Images/Blue.jpg,space,ParentConditions/YellowBlueBlue_v2.xlsx,BlueBlueYellow,Conditions/Version_2/YellowHappyStop.xlsx,no,PASS,0.973180617,,,,,,,,,0,0,0,0,0,0,0,0,0,41,41,41,,,,,,,,,,,,,,,,,,,,,,,,,,,,,,,,,,,,,,,,,,,,,,,,,,,,,,,,,,,,,,,,,,,,,,,,,,,,,,,1.22,359.4587252,None,space,1,0.2989028,360.781547,None,360.781547,None,360.781547,None,,,,,,,,,,,P037,fencog,2,Post,2022_Apr_29_1109,Go No-Go Task,2021.1.4,120.4151916
,"Rule: When you see a yellow image, do not press 'spacebar'.",Images/Fearful/AF32AFS.jpg,Fear,Blue,Images/Blue.jpg,space,ParentConditions/YellowBlueBlue_v2.xlsx,BlueBlueYellow,Conditions/Version_2/YellowHappyStop.xlsx,no,PASS,0.651679773,,,,,,,,,0,0,0,0,0,0,0,0,0,42,42,42,,,,,,,,,,,,,,,,,,,,,,,,,,,,,,,,,,,,,,,,,,,,,,,,,,,,,,,,,,,,,,,,,,,,,,,,,,,,,,,1.8,361.182325,None,space,1,0.2472593,363.0974668,None,363.0974668,None,363.0974668,None,,,,,,,,,,,P037,fencog,2,Post,2022_Apr_29_1109,Go No-Go Task,2021.1.4,120.4151916
,"Rule: When you see a yellow image, do not press 'spacebar'.",Images/Fearful/AF26AFS.jpg,Fear,Blue,Images/Blue.jpg,space,ParentConditions/YellowBlueBlue_v2.xlsx,BlueBlueYellow,Conditions/Version_2/YellowHappyStop.xlsx,no,PASS,0.764646403,,,,,,,,,0,0,0,0,0,0,0,0,0,43,43,43,,,,,,,,,,,,,,,,,,,,,,,,,,,,,,,,,,,,,,,,,,,,,,,,,,,,,,,,,,,,,,,,,,,,,,,,,,,,,,,1.26,363.5020552,None,space,1,0.3286888,364.8719394,None,364.8719394,None,364.8719394,None,,,,,,,,,,,P037,fencog,2,Post,2022_Apr_29_1109,Go No-Go Task,2021.1.4,120.4151916
,"Rule: When you see a yellow image, do not press 'spacebar'.",Images/Fearful/BF09_FC.jpg,Fear,Blue,Images/Blue.jpg,space,ParentConditions/YellowBlueBlue_v2.xlsx,BlueBlueYellow,Conditions/Version_2/YellowHappyStop.xlsx,no,PASS,0.026085525,,,,,,,,,0,0,0,0,0,0,0,0,0,44,44,44,,,,,,,,,,,,,,,,,,,,,,,,,,,,,,,,,,,,,,,,,,,,,,,,,,,,,,,,,,,,,,,,,,,,,,,,,,,,,,,1.7,365.2723333,None,space,1,0.2886258,367.0879279,None,367.0879279,None,367.0879279,None,,,,,,,,,,,P037,fencog,2,Post,2022_Apr_29_1109,Go No-Go Task,2021.1.4,120.4151916
,"Rule: When you see a yellow image, do not press 'spacebar'.",Images/Fearful/BM01_FO.jpg,Fear,Blue,Images/Blue.jpg,space,ParentConditions/YellowBlueBlue_v2.xlsx,BlueBlueYellow,Conditions/Version_2/YellowHappyStop.xlsx,no,PASS,0.554663224,,,,,,,,,0,0,0,0,0,0,0,0,0,45,45,45,,,,,,,,,,,,,,,,,,,,,,,,,,,,,,,,,,,,,,,,,,,,,,,,,,,,,,,,,,,,,,,,,,,,,,,,,,,,,,,1.47,367.4877487,None,space,1,0.3377314,369.070679,None,369.070679,None,369.070679,None,,,,,,,,,,,P037,fencog,2,Post,2022_Apr_29_1109,Go No-Go Task,2021.1.4,120.4151916
,"Rule: When you see a yellow image, do not press 'spacebar'.",Images/Happy/BF14_HO.jpg,Happy,Yellow,Images/Yellow.jpg,None,ParentConditions/YellowBlueBlue_v2.xlsx,BlueBlueYellow,Conditions/Version_2/YellowHappyStop.xlsx,yes,PASS,0.812818136,,,,,,,,,0,0,0,0,0,0,0,0,0,46,46,46,,,,,,,,,,,,,,,,,,,,,,,,,,,,,,,,,,,,,,,,,,,,,,,,,,,,,,,,,,,,,,,,,,,,,,,,,,,,,,,1.36,369.4701759,None,None,1,,370.9452252,None,370.9452252,None,370.9452252,None,,,,,,,,,,,P037,fencog,2,Post,2022_Apr_29_1109,Go No-Go Task,2021.1.4,120.4151916
,"Rule: When you see a yellow image, do not press 'spacebar'.",Images/Fearful/WM11_FC.jpg,Fear,Blue,Images/Blue.jpg,space,ParentConditions/YellowBlueBlue_v2.xlsx,BlueBlueYellow,Conditions/Version_2/YellowHappyStop.xlsx,no,PASS,0.925118701,,,,,,,,,0,0,0,0,0,0,0,0,0,47,47,47,,,,,,,,,,,,,,,,,,,,,,,,,,,,,,,,,,,,,,,,,,,,,,,,,,,,,,,,,,,,,,,,,,,,,,,,,,,,,,,1.79,371.3442502,None,space,1,0.228312,373.2361312,None,373.2361312,None,373.2361312,None,,,,,,,,,,,P037,fencog,2,Post,2022_Apr_29_1109,Go No-Go Task,2021.1.4,120.4151916
,"Rule: When you see a yellow image, do not press 'spacebar'.",Images/Fearful/AM02_FO.jpg,Fear,Blue,Images/Blue.jpg,space,ParentConditions/YellowBlueBlue_v2.xlsx,BlueBlueYellow,Conditions/Version_2/YellowHappyStop.xlsx,no,PASS,0.04558117,,,,,,,,,0,0,0,0,0,0,0,0,0,48,48,48,,,,,,,,,,,,,,,,,,,,,,,,,,,,,,,,,,,,,,,,,,,,,,,,,,,,,,,,,,,,,,,,,,,,,,,,,,,,,,,1.43,373.6393554,None,space,1,0.2948784,375.1855933,None,375.1855933,None,375.1855933,None,,,,,,,,,,,P037,fencog,2,Post,2022_Apr_29_1109,Go No-Go Task,2021.1.4,120.4151916
,"Rule: When you see a yellow image, do not press 'spacebar'.",Images/Happy/HM09_HO.jpg,Happy,Yellow,Images/Yellow.jpg,None,ParentConditions/YellowBlueBlue_v2.xlsx,BlueBlueYellow,Conditions/Version_2/YellowHappyStop.xlsx,yes,PASS,0.321997403,,,,,,,,,0,0,0,0,0,0,0,0,0,49,49,49,,,,,,,,,,,,,,,,,,,,,,,,,,,,,,,,,,,,,,,,,,,,,,,,,,,,,,,,,,,,,,,,,,,,,,,,,,,,,,,1.63,375.584495,None,None,1,,377.3265775,None,377.3265775,None,377.3265775,None,,,,,,,,,,,P037,fencog,2,Post,2022_Apr_29_1109,Go No-Go Task,2021.1.4,120.4151916
,"Rule: When you see a yellow image, do not press 'spacebar'.",Images/Happy/HF10_HE.jpg,Happy,Yellow,Images/Yellow.jpg,None,ParentConditions/YellowBlueBlue_v2.xlsx,BlueBlueYellow,Conditions/Version_2/YellowHappyStop.xlsx,yes,PASS,0.561353553,,,,,,,,,0,0,0,0,0,0,0,0,0,50,50,50,,,,,,,,,,,,,,,,,,,,,,,,,,,,,,,,,,,,,,,,,,,,,,,,,,,,,,,,,,,,,,,,,,,,,,,,,,,,,,,1.42,377.7289856,None,space,0,0.2060218,379.2426838,None,379.2426838,None,379.2426838,None,,,,,,,,,,,P037,fencog,2,Post,2022_Apr_29_1109,Go No-Go Task,2021.1.4,120.4151916
,"Rule: When you see a yellow image, do not press 'spacebar'.",Images/Fearful/AF09AFS.jpg,Fear,Blue,Images/Blue.jpg,space,ParentConditions/YellowBlueBlue_v2.xlsx,BlueBlueYellow,Conditions/Version_2/YellowHappyStop.xlsx,no,PASS,0.551149285,,,,,,,,,0,0,0,0,0,0,0,0,0,51,51,51,,,,,,,,,,,,,,,,,,,,,,,,,,,,,,,,,,,,,,,,,,,,,,,,,,,,,,,,,,,,,,,,,,,,,,,,,,,,,,,1.5,379.6431617,None,space,1,0.3097784,381.2587263,None,381.2587263,None,381.2587263,None,,,,,,,,,,,P037,fencog,2,Post,2022_Apr_29_1109,Go No-Go Task,2021.1.4,120.4151916
,"Rule: When you see a yellow image, do not press 'spacebar'.",Images/Fearful/AM23AFS.jpg,Fear,Blue,Images/Blue.jpg,space,ParentConditions/YellowBlueBlue_v2.xlsx,BlueBlueYellow,Conditions/Version_2/YellowHappyStop.xlsx,no,PASS,0.21599725,,,,,,,,,0,0,0,0,0,0,0,0,0,52,52,52,,,,,,,,,,,,,,,,,,,,,,,,,,,,,,,,,,,,,,,,,,,,,,,,,,,,,,,,,,,,,,,,,,,,,,,,,,,,,,,1.94,381.6578912,None,space,1,0.3490943,383.6914176,None,383.6914176,None,383.6914176,None,,,,,,,,,,,P037,fencog,2,Post,2022_Apr_29_1109,Go No-Go Task,2021.1.4,120.4151916
,"Rule: When you see a yellow image, do not press 'spacebar'.",Images/Fearful/AM05AFS.jpg,Fear,Blue,Images/Blue.jpg,space,ParentConditions/YellowBlueBlue_v2.xlsx,BlueBlueYellow,Conditions/Version_2/YellowHappyStop.xlsx,no,PASS,0.188273353,,,,,,,,,0,0,0,0,0,0,0,0,0,53,53,53,,,,,,,,,,,,,,,,,,,,,,,,,,,,,,,,,,,,,,,,,,,,,,,,,,,,,,,,,,,,,,,,,,,,,,,,,,,,,,,1.81,384.0936985,None,space,1,0.3450681,386.007393,None,386.007393,None,386.007393,None,,,,,,,,,,,P037,fencog,2,Post,2022_Apr_29_1109,Go No-Go Task,2021.1.4,120.4151916
,"Rule: When you see a yellow image, do not press 'spacebar'.",Images/Happy/AF28HAS.jpg,Happy,Yellow,Images/Yellow.jpg,None,ParentConditions/YellowBlueBlue_v2.xlsx,BlueBlueYellow,Conditions/Version_2/YellowHappyStop.xlsx,yes,PASS,0.744400867,,,,,,,,,0,0,0,0,0,0,0,0,0,54,54,54,,,,,,,,,,,,,,,,,,,,,,,,,,,,,,,,,,,,,,,,,,,,,,,,,,,,,,,,,,,,,,,,,,,,,,,,,,,,,,,1.95,386.4108494,None,None,1,,388.4732844,None,388.4732844,None,388.4732844,None,,,,,,,,,,,P037,fencog,2,Post,2022_Apr_29_1109,Go No-Go Task,2021.1.4,120.4151916
,"Rule: When you see a yellow image, do not press 'spacebar'.",Images/Fearful/BF14_FO.jpg,Fear,Blue,Images/Blue.jpg,space,ParentConditions/YellowBlueBlue_v2.xlsx,BlueBlueYellow,Conditions/Version_2/YellowHappyStop.xlsx,no,PASS,0.036114313,,,,,,,,,0,0,0,0,0,0,0,0,0,55,55,55,,,,,,,,,,,,,,,,,,,,,,,,,,,,,,,,,,,,,,,,,,,,,,,,,,,,,,,,,,,,,,,,,,,,,,,,,,,,,,,1.72,388.8720861,None,space,1,0.206467,390.7059525,None,390.7059525,None,390.7059525,None,,,,,,,,,,,P037,fencog,2,Post,2022_Apr_29_1109,Go No-Go Task,2021.1.4,120.4151916
,"Rule: When you see a yellow image, do not press 'spacebar'.",Images/Happy/AM30HAS.jpg,Happy,Yellow,Images/Yellow.jpg,None,ParentConditions/YellowBlueBlue_v2.xlsx,BlueBlueYellow,Conditions/Version_2/YellowHappyStop.xlsx,yes,PASS,0.927632349,,,,,,,,,0,0,0,0,0,0,0,0,0,56,56,56,,,,,,,,,,,,,,,,,,,,,,,,,,,,,,,,,,,,,,,,,,,,,,,,,,,,,,,,,,,,,,,,,,,,,,,,,,,,,,,1.89,391.1048469,None,None,1,,393.1052631,None,393.1052631,None,393.1052631,None,,,,,,,,,,,P037,fencog,2,Post,2022_Apr_29_1109,Go No-Go Task,2021.1.4,120.4151916
,"Rule: When you see a yellow image, do not press 'spacebar'.",Images/Fearful/AF27AFS.jpg,Fear,Blue,Images/Blue.jpg,space,ParentConditions/YellowBlueBlue_v2.xlsx,BlueBlueYellow,Conditions/Version_2/YellowHappyStop.xlsx,no,PASS,0.967433664,,,,,,,,,0,0,0,0,0,0,0,0,0,57,57,57,,,,,,,,,,,,,,,,,,,,,,,,,,,,,,,,,,,,,,,,,,,,,,,,,,,,,,,,,,,,,,,,,,,,,,,,,,,,,,,1.33,393.5049221,None,space,1,0.310043,394.9465099,None,394.9465099,None,394.9465099,None,,,,,,,,,,,P037,fencog,2,Post,2022_Apr_29_1109,Go No-Go Task,2021.1.4,120.4151916
,"Rule: When you see a yellow image, do not press 'spacebar'.",Images/Fearful/AM32AFS.jpg,Fear,Blue,Images/Blue.jpg,space,ParentConditions/YellowBlueBlue_v2.xlsx,BlueBlueYellow,Conditions/Version_2/YellowHappyStop.xlsx,no,PASS,0.542932083,,,,,,,,,0,0,0,0,0,0,0,0,0,58,58,58,,,,,,,,,,,,,,,,,,,,,,,,,,,,,,,,,,,,,,,,,,,,,,,,,,,,,,,,,,,,,,,,,,,,,,,,,,,,,,,1.29,395.3454831,None,space,1,0.2631387,396.7370947,None,396.7370947,None,396.7370947,None,,,,,,,,,,,P037,fencog,2,Post,2022_Apr_29_1109,Go No-Go Task,2021.1.4,120.4151916
,"Rule: When you see a yellow image, do not press 'spacebar'.",Images/Fearful/AM09_FO.jpg,Fear,Blue,Images/Blue.jpg,space,ParentConditions/YellowBlueBlue_v2.xlsx,BlueBlueYellow,Conditions/Version_2/YellowHappyStop.xlsx,no,PASS,0.524898923,,,,,,,,,0,0,0,0,0,0,0,0,0,59,59,59,,,,,,,,,,,,,,,,,,,,,,,,,,,,,,,,,,,,,,,,,,,,,,,,,,,,,,,,,,,,,,,,,,,,,,,,,,,,,,,1.92,397.1366658,None,space,1,0.3508564,399.1617825,None,399.1617825,None,399.1617825,None,,,,,,,,,,,P037,fencog,2,Post,2022_Apr_29_1109,Go No-Go Task,2021.1.4,120.4151916
,"Rule: When you see a yellow image, do not press 'spacebar'.",Images/Fearful/AF01_FO.jpg,Fear,Blue,Images/Blue.jpg,space,ParentConditions/YellowBlueBlue_v2.xlsx,BlueBlueYellow,Conditions/Version_2/YellowHappyStop.xlsx,no,PASS,0.007145119,,,,,,,,,0,0,0,0,0,0,0,0,0,60,60,60,,,,,,,,,,,,,,,,,,,,,,,,,,,,,,,,,,,,,,,,,,,,,,,,,,,,,,,,,,,,,,,,,,,,,,,,,,,,,,,1.71,399.5652273,None,space,1,0.3269852,401.3695123,None,401.3695123,None,401.3695123,None,,,,,,,,,,,P037,fencog,2,Post,2022_Apr_29_1109,Go No-Go Task,2021.1.4,120.4151916
,"Rule: When you see a yellow image, do not press 'spacebar'.",Images/Happy/AM10_HO.jpg,Happy,Yellow,Images/Yellow.jpg,None,ParentConditions/YellowBlueBlue_v2.xlsx,BlueBlueYellow,Conditions/Version_2/YellowHappyStop.xlsx,yes,PASS,0.834118648,,,,,,,,,0,0,0,0,0,0,0,0,0,61,61,61,,,,,,,,,,,,,,,,,,,,,,,,,,,,,,,,,,,,,,,,,,,,,,,,,,,,,,,,,,,,,,,,,,,,,,,,,,,,,,,1.24,401.7717365,None,None,1,,403.1273442,None,403.1273442,None,403.1273442,None,,,,,,,,,,,P037,fencog,2,Post,2022_Apr_29_1109,Go No-Go Task,2021.1.4,120.4151916
,"Rule: When you see a yellow image, do not press 'spacebar'.",Images/Happy/AM22HAS.jpg,Happy,Yellow,Images/Yellow.jpg,None,ParentConditions/YellowBlueBlue_v2.xlsx,BlueBlueYellow,Conditions/Version_2/YellowHappyStop.xlsx,yes,PASS,0.617241984,,,,,,,,,0,0,0,0,0,0,0,0,0,62,62,62,,,,,,,,,,,,,,,,,,,,,,,,,,,,,,,,,,,,,,,,,,,,,,,,,,,,,,,,,,,,,,,,,,,,,,,,,,,,,,,1.3,403.5261805,None,None,1,,404.9268879,None,404.9268879,None,404.9268879,None,,,,,,,,,,,P037,fencog,2,Post,2022_Apr_29_1109,Go No-Go Task,2021.1.4,120.4151916
,"Rule: When you see a yellow image, do not press 'spacebar'.",Images/Fearful/AM22AFS.jpg,Fear,Blue,Images/Blue.jpg,space,ParentConditions/YellowBlueBlue_v2.xlsx,BlueBlueYellow,Conditions/Version_2/YellowHappyStop.xlsx,no,PASS,0.137358446,,,,,,,,,0,0,0,0,0,0,0,0,0,63,63,63,,,,,,,,,,,,,,,,,,,,,,,,,,,,,,,,,,,,,,,,,,,,,,,,,,,,,,,,,,,,,,,,,,,,,,,,,,,,,,,1.37,405.327341,None,space,1,0.3592157,406.8012289,None,406.8012289,None,406.8012289,None,,,,,,,,,,,P037,fencog,2,Post,2022_Apr_29_1109,Go No-Go Task,2021.1.4,120.4151916
,"Rule: When you see a yellow image, do not press 'spacebar'.",Images/Happy/BM08_HO.jpg,Happy,Yellow,Images/Yellow.jpg,None,ParentConditions/YellowBlueBlue_v2.xlsx,BlueBlueYellow,Conditions/Version_2/YellowHappyStop.xlsx,yes,PASS,0.198226287,,,,,,,,,0,0,0,0,0,0,0,0,0,64,64,64,,,,,,,,,,,,,,,,,,,,,,,,,,,,,,,,,,,,,,,,,,,,,,,,,,,,,,,,,,,,,,,,,,,,,,,,,,,,,,,1.88,407.2019489,None,space,0,0.2087666,409.1838649,None,409.1838649,None,409.1838649,None,,,,,,,,,,,P037,fencog,2,Post,2022_Apr_29_1109,Go No-Go Task,2021.1.4,120.4151916
,"Rule: When you see a yellow image, do not press 'spacebar'.",Images/Fearful/AM19AFS.jpg,Fear,Blue,Images/Blue.jpg,space,ParentConditions/YellowBlueBlue_v2.xlsx,BlueBlueYellow,Conditions/Version_2/YellowHappyStop.xlsx,no,PASS,0.984653745,,,,,,,,,0,0,0,0,0,0,0,0,0,65,65,65,,,,,,,,,,,,,,,,,,,,,,,,,,,,,,,,,,,,,,,,,,,,,,,,,,,,,,,,,,,,,,,,,,,,,,,,,,,,,,,1.93,409.5864316,None,space,1,0.2802133,411.6081946,None,411.6081946,None,411.6081946,None,,,,,,,,,,,P037,fencog,2,Post,2022_Apr_29_1109,Go No-Go Task,2021.1.4,120.4151916
,"Rule: When you see a yellow image, do not press 'spacebar'.",Images/Fearful/AF23AFS.jpg,Fear,Blue,Images/Blue.jpg,space,ParentConditions/YellowBlueBlue_v2.xlsx,BlueBlueYellow,Conditions/Version_2/YellowHappyStop.xlsx,no,PASS,0.06538282,,,,,,,,,0,0,0,0,0,0,0,0,0,66,66,66,,,,,,,,,,,,,,,,,,,,,,,,,,,,,,,,,,,,,,,,,,,,,,,,,,,,,,,,,,,,,,,,,,,,,,,,,,,,,,,1.39,412.0124391,None,space,1,0.3405551,413.5159001,None,413.5159001,None,413.5159001,None,,,,,,,,,,,P037,fencog,2,Post,2022_Apr_29_1109,Go No-Go Task,2021.1.4,120.4151916
,"Rule: When you see a yellow image, do not press 'spacebar'.",Images/Fearful/AM13AFS.jpg,Fear,Blue,Images/Blue.jpg,space,ParentConditions/YellowBlueBlue_v2.xlsx,BlueBlueYellow,Conditions/Version_2/YellowHappyStop.xlsx,no,PASS,0.501942139,,,,,,,,,0,0,0,0,0,0,0,0,0,67,67,67,,,,,,,,,,,,,,,,,,,,,,,,,,,,,,,,,,,,,,,,,,,,,,,,,,,,,,,,,,,,,,,,,,,,,,,,,,,,,,,1.46,413.910677,None,space,1,0.3345425,415.4818507,None,415.4818507,None,415.4818507,None,,,,,,,,,,,P037,fencog,2,Post,2022_Apr_29_1109,Go No-Go Task,2021.1.4,120.4151916
,"Rule: When you see a yellow image, do not press 'spacebar'.",Images/Fearful/HF09_FC.jpg,Fear,Blue,Images/Blue.jpg,space,ParentConditions/YellowBlueBlue_v2.xlsx,BlueBlueYellow,Conditions/Version_2/YellowHappyStop.xlsx,no,PASS,0.586310131,,,,,,,,,0,0,0,0,0,0,0,0,0,68,68,68,,,,,,,,,,,,,,,,,,,,,,,,,,,,,,,,,,,,,,,,,,,,,,,,,,,,,,,,,,,,,,,,,,,,,,,,,,,,,,,1.57,415.8810067,None,space,1,0.3476282,417.5648189,None,417.5648189,None,417.5648189,None,,,,,,,,,,,P037,fencog,2,Post,2022_Apr_29_1109,Go No-Go Task,2021.1.4,120.4151916
,"Rule: When you see a yellow image, do not press 'spacebar'.",Images/Fearful/AM04AFS.jpg,Fear,Blue,Images/Blue.jpg,space,ParentConditions/YellowBlueBlue_v2.xlsx,BlueBlueYellow,Conditions/Version_2/YellowHappyStop.xlsx,no,PASS,0.946458816,,,,,,,,,0,0,0,0,0,0,0,0,0,69,69,69,,,,,,,,,,,,,,,,,,,,,,,,,,,,,,,,,,,,,,,,,,,,,,,,,,,,,,,,,,,,,,,,,,,,,,,,,,,,,,,1.97,417.9636295,None,space,1,0.2652027,420.0472902,None,420.0472902,None,420.0472902,None,,,,,,,,,,,P037,fencog,2,Post,2022_Apr_29_1109,Go No-Go Task,2021.1.4,120.4151916
,"Rule: When you see a yellow image, do not press 'spacebar'.",Images/Fearful/AF02AFS.jpg,Fear,Blue,Images/Blue.jpg,space,ParentConditions/YellowBlueBlue_v2.xlsx,BlueBlueYellow,Conditions/Version_2/YellowHappyStop.xlsx,no,PASS,0.74583501,,,,,,,,,0,0,0,0,0,0,0,0,0,70,70,70,,,,,,,,,,,,,,,,,,,,,,,,,,,,,,,,,,,,,,,,,,,,,,,,,,,,,,,,,,,,,,,,,,,,,,,,,,,,,,,1.67,420.447637,None,space,1,0.3624277,422.2300572,None,422.2300572,None,422.2300572,None,,,,,,,,,,,P037,fencog,2,Post,2022_Apr_29_1109,Go No-Go Task,2021.1.4,120.4151916
,"Rule: When you see a yellow image, do not press 'spacebar'.",Images/Fearful/AM09AFS.jpg,Fear,Blue,Images/Blue.jpg,space,ParentConditions/YellowBlueBlue_v2.xlsx,BlueBlueYellow,Conditions/Version_2/YellowHappyStop.xlsx,no,PASS,0.850189499,,,,,,,,,0,0,0,0,0,0,0,0,0,71,71,71,,,,,,,,,,,,,,,,,,,,,,,,,,,,,,,,,,,,,,,,,,,,,,,,,,,,,,,,,,,,,,,,,,,,,,,,,,,,,,,2,422.6219452,None,space,1,0.3752752,424.7292016,None,424.7292016,None,424.7292016,None,,,,,,,,,,,P037,fencog,2,Post,2022_Apr_29_1109,Go No-Go Task,2021.1.4,120.4151916
,"Rule: When you see a yellow image, do not press 'spacebar'.",Images/Fearful/BF05_FO.jpg,Fear,Blue,Images/Blue.jpg,space,ParentConditions/YellowBlueBlue_v2.xlsx,BlueBlueYellow,Conditions/Version_2/YellowHappyStop.xlsx,no,PASS,0.415524872,,,,,,,,,0,0,0,0,0,0,0,0,0,72,72,72,,,,,,,,,,,,,,,,,,,,,,,,,,,,,,,,,,,,,,,,,,,,,,,,,,,,,,,,,,,,,,,,,,,,,,,,,,,,,,,1.21,425.1333405,None,space,1,0.3786148,426.4537308,None,426.4537308,None,426.4537308,None,,,,,,,,,,,P037,fencog,2,Post,2022_Apr_29_1109,Go No-Go Task,2021.1.4,120.4151916
,"Rule: When you see a yellow image, do not press 'spacebar'.",Images/Fearful/AF22AFS.jpg,Fear,Blue,Images/Blue.jpg,space,ParentConditions/YellowBlueBlue_v2.xlsx,BlueBlueYellow,Conditions/Version_2/YellowHappyStop.xlsx,no,PASS,0.670101979,,,,,,,,,0,0,0,0,0,0,0,0,0,73,73,73,,,,,,,,,,,,,,,,,,,,,,,,,,,,,,,,,,,,,,,,,,,,,,,,,,,,,,,,,,,,,,,,,,,,,,,,,,,,,,,1.69,426.8526223,None,space,1,0.3472757,428.6530556,None,428.6530556,None,428.6530556,None,,,,,,,,,,,P037,fencog,2,Post,2022_Apr_29_1109,Go No-Go Task,2021.1.4,120.4151916
,"Rule: When you see a yellow image, do not press 'spacebar'.",Images/Happy/BF18_HO.jpg,Happy,Yellow,Images/Yellow.jpg,None,ParentConditions/YellowBlueBlue_v2.xlsx,BlueBlueYellow,Conditions/Version_2/YellowHappyStop.xlsx,yes,PASS,0.414379417,,,,,,,,,0,0,0,0,0,0,0,0,0,74,74,74,,,,,,,,,,,,,,,,,,,,,,,,,,,,,,,,,,,,,,,,,,,,,,,,,,,,,,,,,,,,,,,,,,,,,,,,,,,,,,,1.58,429.0521076,None,None,1,,430.7441291,None,430.7441291,None,430.7441291,None,,,,,,,,,,,P037,fencog,2,Post,2022_Apr_29_1109,Go No-Go Task,2021.1.4,120.4151916
,"Rule: When you see a yellow image, do not press 'spacebar'.",Images/Fearful/WM12_FO.jpg,Fear,Blue,Images/Blue.jpg,space,ParentConditions/YellowBlueBlue_v2.xlsx,BlueBlueYellow,Conditions/Version_2/YellowHappyStop.xlsx,no,PASS,0.577397465,,,,,,,,,0,0,0,0,0,0,0,0,0,75,75,75,,,,,,,,,,,,,,,,,,,,,,,,,,,,,,,,,,,,,,,,,,,,,,,,,,,,,,,,,,,,,,,,,,,,,,,,,,,,,,,1.87,431.1430255,None,space,1,0.2260187,433.1184121,None,433.1184121,None,433.1184121,None,,,,,,,,,,,P037,fencog,2,Post,2022_Apr_29_1109,Go No-Go Task,2021.1.4,120.4151916
,"Rule: When you see a yellow image, do not press 'spacebar'.",Images/Fearful/BF07_FO.jpg,Fear,Blue,Images/Blue.jpg,space,ParentConditions/YellowBlueBlue_v2.xlsx,BlueBlueYellow,Conditions/Version_2/YellowHappyStop.xlsx,no,PASS,0.317591001,,,,,,,,,0,0,0,0,0,0,0,0,0,76,76,76,,,,,,,,,,,,,,,,,,,,,,,,,,,,,,,,,,,,,,,,,,,,,,,,,,,,,,,,,,,,,,,,,,,,,,,,,,,,,,,1.53,433.5188038,None,space,1,0.2488767,435.1594767,None,435.1594767,None,435.1594767,None,,,,,,,,,,,P037,fencog,2,Post,2022_Apr_29_1109,Go No-Go Task,2021.1.4,120.4151916
,"Rule: When you see a yellow image, do not press 'spacebar'.",Images/Fearful/HF10_FO.jpg,Fear,Blue,Images/Blue.jpg,space,ParentConditions/YellowBlueBlue_v2.xlsx,BlueBlueYellow,Conditions/Version_2/YellowHappyStop.xlsx,no,PASS,0.551135604,,,,,,,,,0,0,0,0,0,0,0,0,0,77,77,77,,,,,,,,,,,,,,,,,,,,,,,,,,,,,,,,,,,,,,,,,,,,,,,,,,,,,,,,,,,,,,,,,,,,,,,,,,,,,,,1.41,435.5584114,None,space,1,0.2846064,437.083867,None,437.083867,None,437.083867,None,,,,,,,,,,,P037,fencog,2,Post,2022_Apr_29_1109,Go No-Go Task,2021.1.4,120.4151916
,"Rule: When you see a yellow image, do not press 'spacebar'.",Images/Fearful/AM10AFS.jpg,Fear,Blue,Images/Blue.jpg,space,ParentConditions/YellowBlueBlue_v2.xlsx,BlueBlueYellow,Conditions/Version_2/YellowHappyStop.xlsx,no,PASS,0.516543326,,,,,,,,,0,0,0,0,0,0,0,0,0,78,78,78,,,,,,,,,,,,,,,,,,,,,,,,,,,,,,,,,,,,,,,,,,,,,,,,,,,,,,,,,,,,,,,,,,,,,,,,,,,,,,,1.25,437.4828895,None,space,1,0.3187093,438.8417459,None,438.8417459,None,438.8417459,None,,,,,,,,,,,P037,fencog,2,Post,2022_Apr_29_1109,Go No-Go Task,2021.1.4,120.4151916
,"Rule: When you see a yellow image, do not press 'spacebar'.",Images/Happy/AM23HAS.jpg,Happy,Yellow,Images/Yellow.jpg,None,ParentConditions/YellowBlueBlue_v2.xlsx,BlueBlueYellow,Conditions/Version_2/YellowHappyStop.xlsx,yes,PASS,0.422368741,,,,,,,,,0,0,0,0,0,0,0,0,0,79,79,79,,,,,,,,,,,,,,,,,,,,,,,,,,,,,,,,,,,,,,,,,,,,,,,,,,,,,,,,,,,,,,,,,,,,,,,,,,,,,,,1.2,439.2406735,None,None,1,,440.5496125,None,440.5496125,None,440.5496125,None,,,,,,,,,,,P037,fencog,2,Post,2022_Apr_29_1109,Go No-Go Task,2021.1.4,120.4151916
,"Rule: When you see blue image, do not press 'spacebar'.",Images/Fearful/HM06_FC.jpg,Fear,Blue,Images/Blue.jpg,None,ParentConditions/YellowBlueBlue_v2.xlsx,BlueBlueYellow,Conditions/Version_2/BlueFearStop.xlsx,yes,PASS,0.290491045,,,,,,,,,0,0,0,0,0,1,1,1,0,0,0,0,,,,,,,,,,,,,,,,,,,,,,,,,,,,,,,,,,,,,,,,,,,,,,,,,,,,,,,,,,,,,,,,,445.0023655,None,447.9882828,None,space,45.1963062,447.9882828,None,445.0023655,None,445.0023655,None,445.0023655,None,1.69,493.2713876,None,None,1,,495.0750955,None,495.0750955,None,495.0750955,None,440.9628577,None,space,3.5274236,441.4570673,None,440.9628577,None,440.9628577,None,P037,fencog,2,Post,2022_Apr_29_1109,Go No-Go Task,2021.1.4,120.4151916
,"Rule: When you see blue image, do not press 'spacebar'.",Images/Happy/AF07HAS.jpg,Happy,Yellow,Images/Yellow.jpg,space,ParentConditions/YellowBlueBlue_v2.xlsx,BlueBlueYellow,Conditions/Version_2/BlueFearStop.xlsx,no,PASS,0.306016579,,,,,,,,,0,0,0,0,0,1,1,1,0,1,1,1,,,,,,,,,,,,,,,,,,,,,,,,,,,,,,,,,,,,,,,,,,,,,,,,,,,,,,,,,,,,,,,,,,,,,,,,,,,,,,,1.24,495.4761399,None,space,1,0.3517756,496.8245757,None,496.8245757,None,496.8245757,None,,,,,,,,,,,P037,fencog,2,Post,2022_Apr_29_1109,Go No-Go Task,2021.1.4,120.4151916
,"Rule: When you see blue image, do not press 'spacebar'.",Images/Happy/AF28HAS.jpg,Happy,Yellow,Images/Yellow.jpg,space,ParentConditions/YellowBlueBlue_v2.xlsx,BlueBlueYellow,Conditions/Version_2/BlueFearStop.xlsx,no,PASS,0.234586009,,,,,,,,,0,0,0,0,0,1,1,1,0,2,2,2,,,,,,,,,,,,,,,,,,,,,,,,,,,,,,,,,,,,,,,,,,,,,,,,,,,,,,,,,,,,,,,,,,,,,,,,,,,,,,,1.75,497.2234769,None,space,1,0.2705016,499.0739163,None,499.0739163,None,499.0739163,None,,,,,,,,,,,P037,fencog,2,Post,2022_Apr_29_1109,Go No-Go Task,2021.1.4,120.4151916
,"Rule: When you see blue image, do not press 'spacebar'.",Images/Happy/AF22HAS.jpg,Happy,Yellow,Images/Yellow.jpg,space,ParentConditions/YellowBlueBlue_v2.xlsx,BlueBlueYellow,Conditions/Version_2/BlueFearStop.xlsx,no,PASS,0.118991329,,,,,,,,,0,0,0,0,0,1,1,1,0,3,3,3,,,,,,,,,,,,,,,,,,,,,,,,,,,,,,,,,,,,,,,,,,,,,,,,,,,,,,,,,,,,,,,,,,,,,,,,,,,,,,,1.22,499.4746911,None,space,1,0.2895202,500.8067435,None,500.8067435,None,500.8067435,None,,,,,,,,,,,P037,fencog,2,Post,2022_Apr_29_1109,Go No-Go Task,2021.1.4,120.4151916
,"Rule: When you see blue image, do not press 'spacebar'.",Images/Fearful/AF27AFS.jpg,Fear,Blue,Images/Blue.jpg,None,ParentConditions/YellowBlueBlue_v2.xlsx,BlueBlueYellow,Conditions/Version_2/BlueFearStop.xlsx,yes,PASS,0.398825278,,,,,,,,,0,0,0,0,0,1,1,1,0,4,4,4,,,,,,,,,,,,,,,,,,,,,,,,,,,,,,,,,,,,,,,,,,,,,,,,,,,,,,,,,,,,,,,,,,,,,,,,,,,,,,,1.92,501.2055972,None,None,1,,503.2310219,None,503.2310219,None,503.2310219,None,,,,,,,,,,,P037,fencog,2,Post,2022_Apr_29_1109,Go No-Go Task,2021.1.4,120.4151916
,"Rule: When you see blue image, do not press 'spacebar'.",Images/Happy/AM24HAS.jpg,Happy,Yellow,Images/Yellow.jpg,space,ParentConditions/YellowBlueBlue_v2.xlsx,BlueBlueYellow,Conditions/Version_2/BlueFearStop.xlsx,no,PASS,0.654070177,,,,,,,,,0,0,0,0,0,1,1,1,0,5,5,5,,,,,,,,,,,,,,,,,,,,,,,,,,,,,,,,,,,,,,,,,,,,,,,,,,,,,,,,,,,,,,,,,,,,,,,,,,,,,,,1.9,503.6321046,None,space,1,0.2260716,505.6303393,None,505.6303393,None,505.6303393,None,,,,,,,,,,,P037,fencog,2,Post,2022_Apr_29_1109,Go No-Go Task,2021.1.4,120.4151916
,"Rule: When you see blue image, do not press 'spacebar'.",Images/Fearful/AF26AFS.jpg,Fear,Blue,Images/Blue.jpg,None,ParentConditions/YellowBlueBlue_v2.xlsx,BlueBlueYellow,Conditions/Version_2/BlueFearStop.xlsx,yes,PASS,0.672416726,,,,,,,,,0,0,0,0,0,1,1,1,0,6,6,6,,,,,,,,,,,,,,,,,,,,,,,,,,,,,,,,,,,,,,,,,,,,,,,,,,,,,,,,,,,,,,,,,,,,,,,,,,,,,,,1.5,506.0304519,None,None,1,,507.6380721,None,507.6380721,None,507.6380721,None,,,,,,,,,,,P037,fencog,2,Post,2022_Apr_29_1109,Go No-Go Task,2021.1.4,120.4151916
,"Rule: When you see blue image, do not press 'spacebar'.",Images/Happy/WM11_HC.jpg,Happy,Yellow,Images/Yellow.jpg,space,ParentConditions/YellowBlueBlue_v2.xlsx,BlueBlueYellow,Conditions/Version_2/BlueFearStop.xlsx,no,PASS,0.872259895,,,,,,,,,0,0,0,0,0,1,1,1,0,7,7,7,,,,,,,,,,,,,,,,,,,,,,,,,,,,,,,,,,,,,,,,,,,,,,,,,,,,,,,,,,,,,,,,,,,,,,,,,,,,,,,1.25,508.0380147,None,space,1,0.2280937,509.4043146,None,509.4043146,None,509.4043146,None,,,,,,,,,,,P037,fencog,2,Post,2022_Apr_29_1109,Go No-Go Task,2021.1.4,120.4151916
,"Rule: When you see blue image, do not press 'spacebar'.",Images/Happy/BM03_HO.jpg,Happy,Yellow,Images/Yellow.jpg,space,ParentConditions/YellowBlueBlue_v2.xlsx,BlueBlueYellow,Conditions/Version_2/BlueFearStop.xlsx,no,PASS,0.281866808,,,,,,,,,0,0,0,0,0,1,1,1,0,8,8,8,,,,,,,,,,,,,,,,,,,,,,,,,,,,,,,,,,,,,,,,,,,,,,,,,,,,,,,,,,,,,,,,,,,,,,,,,,,,,,,1.67,509.8006858,None,space,1,0.294039,511.570314,None,511.570314,None,511.570314,None,,,,,,,,,,,P037,fencog,2,Post,2022_Apr_29_1109,Go No-Go Task,2021.1.4,120.4151916
,"Rule: When you see blue image, do not press 'spacebar'.",Images/Happy/BF18_HO.jpg,Happy,Yellow,Images/Yellow.jpg,space,ParentConditions/YellowBlueBlue_v2.xlsx,BlueBlueYellow,Conditions/Version_2/BlueFearStop.xlsx,no,PASS,0.05626256,,,,,,,,,0,0,0,0,0,1,1,1,0,9,9,9,,,,,,,,,,,,,,,,,,,,,,,,,,,,,,,,,,,,,,,,,,,,,,,,,,,,,,,,,,,,,,,,,,,,,,,,,,,,,,,1.81,511.9736509,None,space,1,0.2581443,513.8863136,None,513.8863136,None,513.8863136,None,,,,,,,,,,,P037,fencog,2,Post,2022_Apr_29_1109,Go No-Go Task,2021.1.4,120.4151916
,"Rule: When you see blue image, do not press 'spacebar'.",Images/Happy/AM10HAS.jpg,Happy,Yellow,Images/Yellow.jpg,space,ParentConditions/YellowBlueBlue_v2.xlsx,BlueBlueYellow,Conditions/Version_2/BlueFearStop.xlsx,no,PASS,0.262348586,,,,,,,,,0,0,0,0,0,1,1,1,0,10,10,10,,,,,,,,,,,,,,,,,,,,,,,,,,,,,,,,,,,,,,,,,,,,,,,,,,,,,,,,,,,,,,,,,,,,,,,,,,,,,,,1.47,514.2872212,None,space,1,0.3234718,515.8689477,None,515.8689477,None,515.8689477,None,,,,,,,,,,,P037,fencog,2,Post,2022_Apr_29_1109,Go No-Go Task,2021.1.4,120.4151916
,"Rule: When you see blue image, do not press 'spacebar'.",Images/Happy/AM09HAS.jpg,Happy,Yellow,Images/Yellow.jpg,space,ParentConditions/YellowBlueBlue_v2.xlsx,BlueBlueYellow,Conditions/Version_2/BlueFearStop.xlsx,no,PASS,0.532285361,,,,,,,,,0,0,0,0,0,1,1,1,0,11,11,11,,,,,,,,,,,,,,,,,,,,,,,,,,,,,,,,,,,,,,,,,,,,,,,,,,,,,,,,,,,,,,,,,,,,,,,,,,,,,,,1.97,516.267799,None,space,1,0.3287541,518.3516214,None,518.3516214,None,518.3516214,None,,,,,,,,,,,P037,fencog,2,Post,2022_Apr_29_1109,Go No-Go Task,2021.1.4,120.4151916
,"Rule: When you see blue image, do not press 'spacebar'.",Images/Happy/AM16HAS.jpg,Happy,Yellow,Images/Yellow.jpg,space,ParentConditions/YellowBlueBlue_v2.xlsx,BlueBlueYellow,Conditions/Version_2/BlueFearStop.xlsx,no,PASS,0.873056012,,,,,,,,,0,0,0,0,0,1,1,1,0,12,12,12,,,,,,,,,,,,,,,,,,,,,,,,,,,,,,,,,,,,,,,,,,,,,,,,,,,,,,,,,,,,,,,,,,,,,,,,,,,,,,,1.48,518.7466885,None,space,1,0.297691,520.3427446,None,520.3427446,None,520.3427446,None,,,,,,,,,,,P037,fencog,2,Post,2022_Apr_29_1109,Go No-Go Task,2021.1.4,120.4151916
,"Rule: When you see blue image, do not press 'spacebar'.",Images/Happy/AF10_HE.jpg,Happy,Yellow,Images/Yellow.jpg,space,ParentConditions/YellowBlueBlue_v2.xlsx,BlueBlueYellow,Conditions/Version_2/BlueFearStop.xlsx,no,PASS,0.710334289,,,,,,,,,0,0,0,0,0,1,1,1,0,13,13,13,,,,,,,,,,,,,,,,,,,,,,,,,,,,,,,,,,,,,,,,,,,,,,,,,,,,,,,,,,,,,,,,,,,,,,,,,,,,,,,1.23,520.7404119,None,None,0,,522.0837875,None,522.0837875,None,522.0837875,None,,,,,,,,,,,P037,fencog,2,Post,2022_Apr_29_1109,Go No-Go Task,2021.1.4,120.4151916
,"Rule: When you see blue image, do not press 'spacebar'.",Images/Happy/AF27HAS.jpg,Happy,Yellow,Images/Yellow.jpg,space,ParentConditions/YellowBlueBlue_v2.xlsx,BlueBlueYellow,Conditions/Version_2/BlueFearStop.xlsx,no,PASS,0.893728981,,,,,,,,,0,0,0,0,0,1,1,1,0,14,14,14,,,,,,,,,,,,,,,,,,,,,,,,,,,,,,,,,,,,,,,,,,,,,,,,,,,,,,,,,,,,,,,,,,,,,,,,,,,,,,,1.2,522.4827568,None,space,1,0.2802117,523.7758903,None,523.7758903,None,523.7758903,None,,,,,,,,,,,P037,fencog,2,Post,2022_Apr_29_1109,Go No-Go Task,2021.1.4,120.4151916
,"Rule: When you see blue image, do not press 'spacebar'.",Images/Happy/BF10_HO.jpg,Happy,Yellow,Images/Yellow.jpg,space,ParentConditions/YellowBlueBlue_v2.xlsx,BlueBlueYellow,Conditions/Version_2/BlueFearStop.xlsx,no,PASS,0.415059737,,,,,,,,,0,0,0,0,0,1,1,1,0,15,15,15,,,,,,,,,,,,,,,,,,,,,,,,,,,,,,,,,,,,,,,,,,,,,,,,,,,,,,,,,,,,,,,,,,,,,,,,,,,,,,,1.61,524.1784604,None,space,1,0.2605336,525.9238785,None,525.9238785,None,525.9238785,None,,,,,,,,,,,P037,fencog,2,Post,2022_Apr_29_1109,Go No-Go Task,2021.1.4,120.4151916
,"Rule: When you see blue image, do not press 'spacebar'.",Images/Happy/BF14_HO.jpg,Happy,Yellow,Images/Yellow.jpg,space,ParentConditions/YellowBlueBlue_v2.xlsx,BlueBlueYellow,Conditions/Version_2/BlueFearStop.xlsx,no,PASS,0.38735807,,,,,,,,,0,0,0,0,0,1,1,1,0,16,16,16,,,,,,,,,,,,,,,,,,,,,,,,,,,,,,,,,,,,,,,,,,,,,,,,,,,,,,,,,,,,,,,,,,,,,,,,,,,,,,,1.51,526.2909215,None,space,1,0.3175892,527.8988177,None,527.8988177,None,527.8988177,None,,,,,,,,,,,P037,fencog,2,Post,2022_Apr_29_1109,Go No-Go Task,2021.1.4,120.4151916
,"Rule: When you see blue image, do not press 'spacebar'.",Images/Fearful/BM08_FC.jpg,Fear,Blue,Images/Blue.jpg,None,ParentConditions/YellowBlueBlue_v2.xlsx,BlueBlueYellow,Conditions/Version_2/BlueFearStop.xlsx,yes,PASS,0.790587934,,,,,,,,,0,0,0,0,0,1,1,1,0,17,17,17,,,,,,,,,,,,,,,,,,,,,,,,,,,,,,,,,,,,,,,,,,,,,,,,,,,,,,,,,,,,,,,,,,,,,,,,,,,,,,,1.53,528.2996515,None,None,1,,529.9231379,None,529.9231379,None,529.9231379,None,,,,,,,,,,,P037,fencog,2,Post,2022_Apr_29_1109,Go No-Go Task,2021.1.4,120.4151916
,"Rule: When you see blue image, do not press 'spacebar'.",Images/Happy/AM01HAS.jpg,Happy,Yellow,Images/Yellow.jpg,space,ParentConditions/YellowBlueBlue_v2.xlsx,BlueBlueYellow,Conditions/Version_2/BlueFearStop.xlsx,no,PASS,0.958970535,,,,,,,,,0,0,0,0,0,1,1,1,0,18,18,18,,,,,,,,,,,,,,,,,,,,,,,,,,,,,,,,,,,,,,,,,,,,,,,,,,,,,,,,,,,,,,,,,,,,,,,,,,,,,,,1.46,530.3287655,None,space,1,0.1907538,531.8976048,None,531.8976048,None,531.8976048,None,,,,,,,,,,,P037,fencog,2,Post,2022_Apr_29_1109,Go No-Go Task,2021.1.4,120.4151916
,"Rule: When you see blue image, do not press 'spacebar'.",Images/Happy/AF11HAS.jpg,Happy,Yellow,Images/Yellow.jpg,space,ParentConditions/YellowBlueBlue_v2.xlsx,BlueBlueYellow,Conditions/Version_2/BlueFearStop.xlsx,no,PASS,0.635888234,,,,,,,,,0,0,0,0,0,1,1,1,0,19,19,19,,,,,,,,,,,,,,,,,,,,,,,,,,,,,,,,,,,,,,,,,,,,,,,,,,,,,,,,,,,,,,,,,,,,,,,,,,,,,,,1.71,532.2964356,None,space,1,0.2143884,534.1219002,None,534.1219002,None,534.1219002,None,,,,,,,,,,,P037,fencog,2,Post,2022_Apr_29_1109,Go No-Go Task,2021.1.4,120.4151916
,"Rule: When you see blue image, do not press 'spacebar'.",Images/Happy/BM01_HO.jpg,Happy,Yellow,Images/Yellow.jpg,space,ParentConditions/YellowBlueBlue_v2.xlsx,BlueBlueYellow,Conditions/Version_2/BlueFearStop.xlsx,no,PASS,0.301040908,,,,,,,,,0,0,0,0,0,1,1,1,0,20,20,20,,,,,,,,,,,,,,,,,,,,,,,,,,,,,,,,,,,,,,,,,,,,,,,,,,,,,,,,,,,,,,,,,,,,,,,,,,,,,,,1.44,534.5207921,None,space,1,0.3533579,536.0713537,None,536.0713537,None,536.0713537,None,,,,,,,,,,,P037,fencog,2,Post,2022_Apr_29_1109,Go No-Go Task,2021.1.4,120.4151916
,"Rule: When you see blue image, do not press 'spacebar'.",Images/Happy/AF07_HO.jpg,Happy,Yellow,Images/Yellow.jpg,space,ParentConditions/YellowBlueBlue_v2.xlsx,BlueBlueYellow,Conditions/Version_2/BlueFearStop.xlsx,no,PASS,0.161468035,,,,,,,,,0,0,0,0,0,1,1,1,0,21,21,21,,,,,,,,,,,,,,,,,,,,,,,,,,,,,,,,,,,,,,,,,,,,,,,,,,,,,,,,,,,,,,,,,,,,,,,,,,,,,,,1.77,536.4740841,None,space,1,0.3102879,538.3539794,None,538.3539794,None,538.3539794,None,,,,,,,,,,,P037,fencog,2,Post,2022_Apr_29_1109,Go No-Go Task,2021.1.4,120.4151916
,"Rule: When you see blue image, do not press 'spacebar'.",Images/Happy/HM06_HO.jpg,Happy,Yellow,Images/Yellow.jpg,space,ParentConditions/YellowBlueBlue_v2.xlsx,BlueBlueYellow,Conditions/Version_2/BlueFearStop.xlsx,no,PASS,0.017367744,,,,,,,,,0,0,0,0,0,1,1,1,0,22,22,22,,,,,,,,,,,,,,,,,,,,,,,,,,,,,,,,,,,,,,,,,,,,,,,,,,,,,,,,,,,,,,,,,,,,,,,,,,,,,,,1.55,538.7528767,None,space,1,0.3007823,540.4116894,None,540.4116894,None,540.4116894,None,,,,,,,,,,,P037,fencog,2,Post,2022_Apr_29_1109,Go No-Go Task,2021.1.4,120.4151916
,"Rule: When you see blue image, do not press 'spacebar'.",Images/Fearful/AM09_FO.jpg,Fear,Blue,Images/Blue.jpg,None,ParentConditions/YellowBlueBlue_v2.xlsx,BlueBlueYellow,Conditions/Version_2/BlueFearStop.xlsx,yes,PASS,0.299727879,,,,,,,,,0,0,0,0,0,1,1,1,0,23,23,23,,,,,,,,,,,,,,,,,,,,,,,,,,,,,,,,,,,,,,,,,,,,,,,,,,,,,,,,,,,,,,,,,,,,,,,,,,,,,,,1.39,540.8122147,None,space,0,0.281428,542.3028449,None,542.3028449,None,542.3028449,None,,,,,,,,,,,P037,fencog,2,Post,2022_Apr_29_1109,Go No-Go Task,2021.1.4,120.4151916
,"Rule: When you see blue image, do not press 'spacebar'.",Images/Happy/AF09HAS.jpg,Happy,Yellow,Images/Yellow.jpg,space,ParentConditions/YellowBlueBlue_v2.xlsx,BlueBlueYellow,Conditions/Version_2/BlueFearStop.xlsx,no,PASS,0.82739002,,,,,,,,,0,0,0,0,0,1,1,1,0,24,24,24,,,,,,,,,,,,,,,,,,,,,,,,,,,,,,,,,,,,,,,,,,,,,,,,,,,,,,,,,,,,,,,,,,,,,,,,,,,,,,,1.99,542.7020573,None,space,1,0.2702276,544.8021444,None,544.8021444,None,544.8021444,None,,,,,,,,,,,P037,fencog,2,Post,2022_Apr_29_1109,Go No-Go Task,2021.1.4,120.4151916
,"Rule: When you see blue image, do not press 'spacebar'.",Images/Happy/AM04HAS.jpg,Happy,Yellow,Images/Yellow.jpg,space,ParentConditions/YellowBlueBlue_v2.xlsx,BlueBlueYellow,Conditions/Version_2/BlueFearStop.xlsx,no,PASS,0.749723634,,,,,,,,,0,0,0,0,0,1,1,1,0,25,25,25,,,,,,,,,,,,,,,,,,,,,,,,,,,,,,,,,,,,,,,,,,,,,,,,,,,,,,,,,,,,,,,,,,,,,,,,,,,,,,,1.88,545.203051,None,space,1,0.2471795,547.1930913,None,547.1930913,None,547.1930913,None,,,,,,,,,,,P037,fencog,2,Post,2022_Apr_29_1109,Go No-Go Task,2021.1.4,120.4151916
,"Rule: When you see blue image, do not press 'spacebar'.",Images/Happy/BF07_HO.jpg,Happy,Yellow,Images/Yellow.jpg,space,ParentConditions/YellowBlueBlue_v2.xlsx,BlueBlueYellow,Conditions/Version_2/BlueFearStop.xlsx,no,PASS,0.963197321,,,,,,,,,0,0,0,0,0,1,1,1,0,26,26,26,,,,,,,,,,,,,,,,,,,,,,,,,,,,,,,,,,,,,,,,,,,,,,,,,,,,,,,,,,,,,,,,,,,,,,,,,,,,,,,1.58,547.5919889,None,space,1,0.2920415,549.2841288,None,549.2841288,None,549.2841288,None,,,,,,,,,,,P037,fencog,2,Post,2022_Apr_29_1109,Go No-Go Task,2021.1.4,120.4151916
,"Rule: When you see blue image, do not press 'spacebar'.",Images/Happy/AF02HAS.jpg,Happy,Yellow,Images/Yellow.jpg,space,ParentConditions/YellowBlueBlue_v2.xlsx,BlueBlueYellow,Conditions/Version_2/BlueFearStop.xlsx,no,PASS,0.443162889,,,,,,,,,0,0,0,0,0,1,1,1,0,27,27,27,,,,,,,,,,,,,,,,,,,,,,,,,,,,,,,,,,,,,,,,,,,,,,,,,,,,,,,,,,,,,,,,,,,,,,,,,,,,,,,1.66,549.6830082,None,space,1,0.2217686,551.4584332,None,551.4584332,None,551.4584332,None,,,,,,,,,,,P037,fencog,2,Post,2022_Apr_29_1109,Go No-Go Task,2021.1.4,120.4151916
,"Rule: When you see blue image, do not press 'spacebar'.",Images/Happy/AM30HAS.jpg,Happy,Yellow,Images/Yellow.jpg,space,ParentConditions/YellowBlueBlue_v2.xlsx,BlueBlueYellow,Conditions/Version_2/BlueFearStop.xlsx,no,PASS,0.810116406,,,,,,,,,0,0,0,0,0,1,1,1,0,28,28,28,,,,,,,,,,,,,,,,,,,,,,,,,,,,,,,,,,,,,,,,,,,,,,,,,,,,,,,,,,,,,,,,,,,,,,,,,,,,,,,1.42,551.8502842,None,space,1,0.2500501,553.3745562,None,553.3745562,None,553.3745562,None,,,,,,,,,,,P037,fencog,2,Post,2022_Apr_29_1109,Go No-Go Task,2021.1.4,120.4151916
,"Rule: When you see blue image, do not press 'spacebar'.",Images/Happy/BF05_HO.jpg,Happy,Yellow,Images/Yellow.jpg,space,ParentConditions/YellowBlueBlue_v2.xlsx,BlueBlueYellow,Conditions/Version_2/BlueFearStop.xlsx,no,PASS,0.677060917,,,,,,,,,0,0,0,0,0,1,1,1,0,29,29,29,,,,,,,,,,,,,,,,,,,,,,,,,,,,,,,,,,,,,,,,,,,,,,,,,,,,,,,,,,,,,,,,,,,,,,,,,,,,,,,1.35,553.7743751,None,space,1,0.3116136,555.2406433,None,555.2406433,None,555.2406433,None,,,,,,,,,,,P037,fencog,2,Post,2022_Apr_29_1109,Go No-Go Task,2021.1.4,120.4151916
,"Rule: When you see blue image, do not press 'spacebar'.",Images/Fearful/AF25AFS.jpg,Fear,Blue,Images/Blue.jpg,None,ParentConditions/YellowBlueBlue_v2.xlsx,BlueBlueYellow,Conditions/Version_2/BlueFearStop.xlsx,yes,PASS,0.913732883,,,,,,,,,0,0,0,0,0,1,1,1,0,30,30,30,,,,,,,,,,,,,,,,,,,,,,,,,,,,,,,,,,,,,,,,,,,,,,,,,,,,,,,,,,,,,,,,,,,,,,,,,,,,,,,1.89,555.639518,None,space,0,0.2487715,557.6315659,None,557.6315659,None,557.6315659,None,,,,,,,,,,,P037,fencog,2,Post,2022_Apr_29_1109,Go No-Go Task,2021.1.4,120.4151916
,"Rule: When you see blue image, do not press 'spacebar'.",Images/Happy/BF09_HO.jpg,Happy,Yellow,Images/Yellow.jpg,space,ParentConditions/YellowBlueBlue_v2.xlsx,BlueBlueYellow,Conditions/Version_2/BlueFearStop.xlsx,no,PASS,0.723314842,,,,,,,,,0,0,0,0,0,1,1,1,0,31,31,31,,,,,,,,,,,,,,,,,,,,,,,,,,,,,,,,,,,,,,,,,,,,,,,,,,,,,,,,,,,,,,,,,,,,,,,,,,,,,,,1.57,558.0336488,None,space,1,0.3020836,559.7143101,None,559.7143101,None,559.7143101,None,,,,,,,,,,,P037,fencog,2,Post,2022_Apr_29_1109,Go No-Go Task,2021.1.4,120.4151916
,"Rule: When you see blue image, do not press 'spacebar'.",Images/Happy/AM09_HE.jpg,Happy,Yellow,Images/Yellow.jpg,space,ParentConditions/YellowBlueBlue_v2.xlsx,BlueBlueYellow,Conditions/Version_2/BlueFearStop.xlsx,no,PASS,0.703399732,,,,,,,,,0,0,0,0,0,1,1,1,0,32,32,32,,,,,,,,,,,,,,,,,,,,,,,,,,,,,,,,,,,,,,,,,,,,,,,,,,,,,,,,,,,,,,,,,,,,,,,,,,,,,,,1.63,560.1128031,None,space,1,0.2414038,561.8553626,None,561.8553626,None,561.8553626,None,,,,,,,,,,,P037,fencog,2,Post,2022_Apr_29_1109,Go No-Go Task,2021.1.4,120.4151916
,"Rule: When you see blue image, do not press 'spacebar'.",Images/Fearful/BF14_FO.jpg,Fear,Blue,Images/Blue.jpg,None,ParentConditions/YellowBlueBlue_v2.xlsx,BlueBlueYellow,Conditions/Version_2/BlueFearStop.xlsx,yes,PASS,0.641858344,,,,,,,,,0,0,0,0,0,1,1,1,0,33,33,33,,,,,,,,,,,,,,,,,,,,,,,,,,,,,,,,,,,,,,,,,,,,,,,,,,,,,,,,,,,,,,,,,,,,,,,,,,,,,,,1.38,562.2542865,None,None,1,,563.7298044,None,563.7298044,None,563.7298044,None,,,,,,,,,,,P037,fencog,2,Post,2022_Apr_29_1109,Go No-Go Task,2021.1.4,120.4151916
,"Rule: When you see blue image, do not press 'spacebar'.",Images/Fearful/HF05_FC.jpg,Fear,Blue,Images/Blue.jpg,None,ParentConditions/YellowBlueBlue_v2.xlsx,BlueBlueYellow,Conditions/Version_2/BlueFearStop.xlsx,yes,PASS,0.119355279,,,,,,,,,0,0,0,0,0,1,1,1,0,34,34,34,,,,,,,,,,,,,,,,,,,,,,,,,,,,,,,,,,,,,,,,,,,,,,,,,,,,,,,,,,,,,,,,,,,,,,,,,,,,,,,1.87,564.1306021,None,space,0,0.296216,566.1039914,None,566.1039914,None,566.1039914,None,,,,,,,,,,,P037,fencog,2,Post,2022_Apr_29_1109,Go No-Go Task,2021.1.4,120.4151916
,"Rule: When you see blue image, do not press 'spacebar'.",Images/Happy/AM23HAS.jpg,Happy,Yellow,Images/Yellow.jpg,space,ParentConditions/YellowBlueBlue_v2.xlsx,BlueBlueYellow,Conditions/Version_2/BlueFearStop.xlsx,no,PASS,0.431066372,,,,,,,,,0,0,0,0,0,1,1,1,0,35,35,35,,,,,,,,,,,,,,,,,,,,,,,,,,,,,,,,,,,,,,,,,,,,,,,,,,,,,,,,,,,,,,,,,,,,,,,,,,,,,,,1.49,566.503137,None,space,1,0.336774,568.1036154,None,568.1036154,None,568.1036154,None,,,,,,,,,,,P037,fencog,2,Post,2022_Apr_29_1109,Go No-Go Task,2021.1.4,120.4151916
,"Rule: When you see blue image, do not press 'spacebar'.",Images/Happy/AM03_HO.jpg,Happy,Yellow,Images/Yellow.jpg,space,ParentConditions/YellowBlueBlue_v2.xlsx,BlueBlueYellow,Conditions/Version_2/BlueFearStop.xlsx,no,PASS,0.027367774,,,,,,,,,0,0,0,0,0,1,1,1,0,36,36,36,,,,,,,,,,,,,,,,,,,,,,,,,,,,,,,,,,,,,,,,,,,,,,,,,,,,,,,,,,,,,,,,,,,,,,,,,,,,,,,1.85,568.4992799,None,space,1,0.2589863,570.461126,None,570.461126,None,570.461126,None,,,,,,,,,,,P037,fencog,2,Post,2022_Apr_29_1109,Go No-Go Task,2021.1.4,120.4151916
,"Rule: When you see blue image, do not press 'spacebar'.",Images/Happy/AF25HAS.jpg,Happy,Yellow,Images/Yellow.jpg,space,ParentConditions/YellowBlueBlue_v2.xlsx,BlueBlueYellow,Conditions/Version_2/BlueFearStop.xlsx,no,PASS,0.048703216,,,,,,,,,0,0,0,0,0,1,1,1,0,37,37,37,,,,,,,,,,,,,,,,,,,,,,,,,,,,,,,,,,,,,,,,,,,,,,,,,,,,,,,,,,,,,,,,,,,,,,,,,,,,,,,1.59,570.8600742,None,space,1,0.2400558,572.5522143,None,572.5522143,None,572.5522143,None,,,,,,,,,,,P037,fencog,2,Post,2022_Apr_29_1109,Go No-Go Task,2021.1.4,120.4151916
,"Rule: When you see blue image, do not press 'spacebar'.",Images/Happy/BM08_HO.jpg,Happy,Yellow,Images/Yellow.jpg,space,ParentConditions/YellowBlueBlue_v2.xlsx,BlueBlueYellow,Conditions/Version_2/BlueFearStop.xlsx,no,PASS,0.026169495,,,,,,,,,0,0,0,0,0,1,1,1,0,38,38,38,,,,,,,,,,,,,,,,,,,,,,,,,,,,,,,,,,,,,,,,,,,,,,,,,,,,,,,,,,,,,,,,,,,,,,,,,,,,,,,1.95,572.9539875,None,space,1,0.2790202,575.0093891,None,575.0093891,None,575.0093891,None,,,,,,,,,,,P037,fencog,2,Post,2022_Apr_29_1109,Go No-Go Task,2021.1.4,120.4151916
,"Rule: When you see blue image, do not press 'spacebar'.",Images/Happy/AF32HAS.jpg,Happy,Yellow,Images/Yellow.jpg,space,ParentConditions/YellowBlueBlue_v2.xlsx,BlueBlueYellow,Conditions/Version_2/BlueFearStop.xlsx,no,PASS,0.007662007,,,,,,,,,0,0,0,0,0,1,1,1,0,39,39,39,,,,,,,,,,,,,,,,,,,,,,,,,,,,,,,,,,,,,,,,,,,,,,,,,,,,,,,,,,,,,,,,,,,,,,,,,,,,,,,1.36,575.4102266,None,space,1,0.316606,576.8754836,None,576.8754836,None,576.8754836,None,,,,,,,,,,,P037,fencog,2,Post,2022_Apr_29_1109,Go No-Go Task,2021.1.4,120.4151916
,"Rule: When you see blue image, do not press 'spacebar'.",Images/Happy/AF23HAS.jpg,Happy,Yellow,Images/Yellow.jpg,space,ParentConditions/YellowBlueBlue_v2.xlsx,BlueBlueYellow,Conditions/Version_2/BlueFearStop.xlsx,no,PASS,0.133226592,,,,,,,,,0,0,0,0,0,1,1,1,0,40,40,40,,,,,,,,,,,,,,,,,,,,,,,,,,,,,,,,,,,,,,,,,,,,,,,,,,,,,,,,,,,,,,,,,,,,,,,,,,,,,,,1.3,577.274638,None,space,1,0.284786,578.675414,None,578.675414,None,578.675414,None,,,,,,,,,,,P037,fencog,2,Post,2022_Apr_29_1109,Go No-Go Task,2021.1.4,120.4151916
,"Rule: When you see blue image, do not press 'spacebar'.",Images/Happy/AM32HAS.jpg,Happy,Yellow,Images/Yellow.jpg,space,ParentConditions/YellowBlueBlue_v2.xlsx,BlueBlueYellow,Conditions/Version_2/BlueFearStop.xlsx,no,PASS,0.187905395,,,,,,,,,0,0,0,0,0,1,1,1,0,41,41,41,,,,,,,,,,,,,,,,,,,,,,,,,,,,,,,,,,,,,,,,,,,,,,,,,,,,,,,,,,,,,,,,,,,,,,,,,,,,,,,1.41,579.0780593,None,space,1,0.2729777,580.591526,None,580.591526,None,580.591526,None,,,,,,,,,,,P037,fencog,2,Post,2022_Apr_29_1109,Go No-Go Task,2021.1.4,120.4151916
,"Rule: When you see blue image, do not press 'spacebar'.",Images/Fearful/AM30AFS.jpg,Fear,Blue,Images/Blue.jpg,None,ParentConditions/YellowBlueBlue_v2.xlsx,BlueBlueYellow,Conditions/Version_2/BlueFearStop.xlsx,yes,PASS,0.389442832,,,,,,,,,0,0,0,0,0,1,1,1,0,42,42,42,,,,,,,,,,,,,,,,,,,,,,,,,,,,,,,,,,,,,,,,,,,,,,,,,,,,,,,,,,,,,,,,,,,,,,,,,,,,,,,1.84,580.9915938,None,space,0,0.2681946,582.9241033,None,582.9241033,None,582.9241033,None,,,,,,,,,,,P037,fencog,2,Post,2022_Apr_29_1109,Go No-Go Task,2021.1.4,120.4151916
,"Rule: When you see blue image, do not press 'spacebar'.",Images/Happy/BM02_HO.jpg,Happy,Yellow,Images/Yellow.jpg,space,ParentConditions/YellowBlueBlue_v2.xlsx,BlueBlueYellow,Conditions/Version_2/BlueFearStop.xlsx,no,PASS,0.800098491,,,,,,,,,0,0,0,0,0,1,1,1,0,43,43,43,,,,,,,,,,,,,,,,,,,,,,,,,,,,,,,,,,,,,,,,,,,,,,,,,,,,,,,,,,,,,,,,,,,,,,,,,,,,,,,1.62,583.3251918,None,space,1,0.2641309,585.040168,None,585.040168,None,585.040168,None,,,,,,,,,,,P037,fencog,2,Post,2022_Apr_29_1109,Go No-Go Task,2021.1.4,120.4151916
,"Rule: When you see blue image, do not press 'spacebar'.",Images/Happy/AM10_HO.jpg,Happy,Yellow,Images/Yellow.jpg,space,ParentConditions/YellowBlueBlue_v2.xlsx,BlueBlueYellow,Conditions/Version_2/BlueFearStop.xlsx,no,PASS,0.57179392,,,,,,,,,0,0,0,0,0,1,1,1,0,44,44,44,,,,,,,,,,,,,,,,,,,,,,,,,,,,,,,,,,,,,,,,,,,,,,,,,,,,,,,,,,,,,,,,,,,,,,,,,,,,,,,1.74,585.4508489,None,space,1,0.2384329,587.2978268,None,587.2978268,None,587.2978268,None,,,,,,,,,,,P037,fencog,2,Post,2022_Apr_29_1109,Go No-Go Task,2021.1.4,120.4151916
,"Rule: When you see blue image, do not press 'spacebar'.",Images/Fearful/AM10_FO.jpg,Fear,Blue,Images/Blue.jpg,None,ParentConditions/YellowBlueBlue_v2.xlsx,BlueBlueYellow,Conditions/Version_2/BlueFearStop.xlsx,yes,PASS,0.526970162,,,,,,,,,0,0,0,0,0,1,1,1,0,45,45,45,,,,,,,,,,,,,,,,,,,,,,,,,,,,,,,,,,,,,,,,,,,,,,,,,,,,,,,,,,,,,,,,,,,,,,,,,,,,,,,1.29,587.7008122,None,None,1,,589.097303,None,589.097303,None,589.097303,None,,,,,,,,,,,P037,fencog,2,Post,2022_Apr_29_1109,Go No-Go Task,2021.1.4,120.4151916
,"Rule: When you see blue image, do not press 'spacebar'.",Images/Happy/AF19HAS.jpg,Happy,Yellow,Images/Yellow.jpg,space,ParentConditions/YellowBlueBlue_v2.xlsx,BlueBlueYellow,Conditions/Version_2/BlueFearStop.xlsx,no,PASS,0.617083993,,,,,,,,,0,0,0,0,0,1,1,1,0,46,46,46,,,,,,,,,,,,,,,,,,,,,,,,,,,,,,,,,,,,,,,,,,,,,,,,,,,,,,,,,,,,,,,,,,,,,,,,,,,,,,,1.78,589.4975554,None,space,1,0.3884297,591.3799571,None,591.3799571,None,591.3799571,None,,,,,,,,,,,P037,fencog,2,Post,2022_Apr_29_1109,Go No-Go Task,2021.1.4,120.4151916
,"Rule: When you see blue image, do not press 'spacebar'.",Images/Fearful/HF09_FC.jpg,Fear,Blue,Images/Blue.jpg,None,ParentConditions/YellowBlueBlue_v2.xlsx,BlueBlueYellow,Conditions/Version_2/BlueFearStop.xlsx,yes,PASS,0.03424286,,,,,,,,,0,0,0,0,0,1,1,1,0,47,47,47,,,,,,,,,,,,,,,,,,,,,,,,,,,,,,,,,,,,,,,,,,,,,,,,,,,,,,,,,,,,,,,,,,,,,,,,,,,,,,,1.34,591.7843635,None,None,1,,593.2294524,None,593.2294524,None,593.2294524,None,,,,,,,,,,,P037,fencog,2,Post,2022_Apr_29_1109,Go No-Go Task,2021.1.4,120.4151916
,"Rule: When you see blue image, do not press 'spacebar'.",Images/Fearful/AM22AFS.jpg,Fear,Blue,Images/Blue.jpg,None,ParentConditions/YellowBlueBlue_v2.xlsx,BlueBlueYellow,Conditions/Version_2/BlueFearStop.xlsx,yes,PASS,0.994591907,,,,,,,,,0,0,0,0,0,1,1,1,0,48,48,48,,,,,,,,,,,,,,,,,,,,,,,,,,,,,,,,,,,,,,,,,,,,,,,,,,,,,,,,,,,,,,,,,,,,,,,,,,,,,,,1.28,593.6332278,None,None,1,,595.0205571,None,595.0205571,None,595.0205571,None,,,,,,,,,,,P037,fencog,2,Post,2022_Apr_29_1109,Go No-Go Task,2021.1.4,120.4151916
,"Rule: When you see blue image, do not press 'spacebar'.",Images/Happy/AM06_HC.jpg,Happy,Yellow,Images/Yellow.jpg,space,ParentConditions/YellowBlueBlue_v2.xlsx,BlueBlueYellow,Conditions/Version_2/BlueFearStop.xlsx,no,PASS,0.156390266,,,,,,,,,0,0,0,0,0,1,1,1,0,49,49,49,,,,,,,,,,,,,,,,,,,,,,,,,,,,,,,,,,,,,,,,,,,,,,,,,,,,,,,,,,,,,,,,,,,,,,,,,,,,,,,1.52,595.4216074,None,space,1,0.2274998,597.0449567,None,597.0449567,None,597.0449567,None,,,,,,,,,,,P037,fencog,2,Post,2022_Apr_29_1109,Go No-Go Task,2021.1.4,120.4151916
,"Rule: When you see blue image, do not press 'spacebar'.",Images/Fearful/AM32AFS.jpg,Fear,Blue,Images/Blue.jpg,None,ParentConditions/YellowBlueBlue_v2.xlsx,BlueBlueYellow,Conditions/Version_2/BlueFearStop.xlsx,yes,PASS,0.687952075,,,,,,,,,0,0,0,0,0,1,1,1,0,50,50,50,,,,,,,,,,,,,,,,,,,,,,,,,,,,,,,,,,,,,,,,,,,,,,,,,,,,,,,,,,,,,,,,,,,,,,,,,,,,,,,1.26,597.4446876,None,None,1,,598.8027975,None,598.8027975,None,598.8027975,None,,,,,,,,,,,P037,fencog,2,Post,2022_Apr_29_1109,Go No-Go Task,2021.1.4,120.4151916
,"Rule: When you see blue image, do not press 'spacebar'.",Images/Happy/WF11_HE.jpg,Happy,Yellow,Images/Yellow.jpg,space,ParentConditions/YellowBlueBlue_v2.xlsx,BlueBlueYellow,Conditions/Version_2/BlueFearStop.xlsx,no,PASS,0.058347926,,,,,,,,,0,0,0,0,0,1,1,1,0,51,51,51,,,,,,,,,,,,,,,,,,,,,,,,,,,,,,,,,,,,,,,,,,,,,,,,,,,,,,,,,,,,,,,,,,,,,,,,,,,,,,,1.6,599.2034214,None,space,1,0.305339,600.9188405,None,600.9188405,None,600.9188405,None,,,,,,,,,,,P037,fencog,2,Post,2022_Apr_29_1109,Go No-Go Task,2021.1.4,120.4151916
,"Rule: When you see blue image, do not press 'spacebar'.",Images/Fearful/AF28AFS.jpg,Fear,Blue,Images/Blue.jpg,None,ParentConditions/YellowBlueBlue_v2.xlsx,BlueBlueYellow,Conditions/Version_2/BlueFearStop.xlsx,yes,PASS,0.841527092,,,,,,,,,0,0,0,0,0,1,1,1,0,52,52,52,,,,,,,,,,,,,,,,,,,,,,,,,,,,,,,,,,,,,,,,,,,,,,,,,,,,,,,,,,,,,,,,,,,,,,,,,,,,,,,1.68,601.3177034,None,space,0,0.2910936,603.0932258,None,603.0932258,None,603.0932258,None,,,,,,,,,,,P037,fencog,2,Post,2022_Apr_29_1109,Go No-Go Task,2021.1.4,120.4151916
,"Rule: When you see blue image, do not press 'spacebar'.",Images/Happy/HF04_HE.jpg,Happy,Yellow,Images/Yellow.jpg,space,ParentConditions/YellowBlueBlue_v2.xlsx,BlueBlueYellow,Conditions/Version_2/BlueFearStop.xlsx,no,PASS,0.41191723,,,,,,,,,0,0,0,0,0,1,1,1,0,53,53,53,,,,,,,,,,,,,,,,,,,,,,,,,,,,,,,,,,,,,,,,,,,,,,,,,,,,,,,,,,,,,,,,,,,,,,,,,,,,,,,1.21,603.5024164,None,None,0,,604.8176529,None,604.8176529,None,604.8176529,None,,,,,,,,,,,P037,fencog,2,Post,2022_Apr_29_1109,Go No-Go Task,2021.1.4,120.4151916
,"Rule: When you see blue image, do not press 'spacebar'.",Images/Happy/AM13HAS.jpg,Happy,Yellow,Images/Yellow.jpg,space,ParentConditions/YellowBlueBlue_v2.xlsx,BlueBlueYellow,Conditions/Version_2/BlueFearStop.xlsx,no,PASS,0.148101608,,,,,,,,,0,0,0,0,0,1,1,1,0,54,54,54,,,,,,,,,,,,,,,,,,,,,,,,,,,,,,,,,,,,,,,,,,,,,,,,,,,,,,,,,,,,,,,,,,,,,,,,,,,,,,,1.76,605.2182858,None,None,0,,607.0919874,None,607.0919874,None,607.0919874,None,,,,,,,,,,,P037,fencog,2,Post,2022_Apr_29_1109,Go No-Go Task,2021.1.4,120.4151916
,"Rule: When you see blue image, do not press 'spacebar'.",Images/Happy/HF10_HE.jpg,Happy,Yellow,Images/Yellow.jpg,space,ParentConditions/YellowBlueBlue_v2.xlsx,BlueBlueYellow,Conditions/Version_2/BlueFearStop.xlsx,no,PASS,0.043888358,,,,,,,,,0,0,0,0,0,1,1,1,0,55,55,55,,,,,,,,,,,,,,,,,,,,,,,,,,,,,,,,,,,,,,,,,,,,,,,,,,,,,,,,,,,,,,,,,,,,,,,,,,,,,,,1.91,607.4929157,None,space,1,0.3482887,609.5079512,None,609.5079512,None,609.5079512,None,,,,,,,,,,,P037,fencog,2,Post,2022_Apr_29_1109,Go No-Go Task,2021.1.4,120.4151916
,"Rule: When you see blue image, do not press 'spacebar'.",Images/Happy/AM04_HE.jpg,Happy,Yellow,Images/Yellow.jpg,space,ParentConditions/YellowBlueBlue_v2.xlsx,BlueBlueYellow,Conditions/Version_2/BlueFearStop.xlsx,no,PASS,0.842568949,,,,,,,,,0,0,0,0,0,1,1,1,0,56,56,56,,,,,,,,,,,,,,,,,,,,,,,,,,,,,,,,,,,,,,,,,,,,,,,,,,,,,,,,,,,,,,,,,,,,,,,,,,,,,,,1.72,609.9084279,None,space,1,0.3235535,611.7406165,None,611.7406165,None,611.7406165,None,,,,,,,,,,,P037,fencog,2,Post,2022_Apr_29_1109,Go No-Go Task,2021.1.4,120.4151916
,"Rule: When you see blue image, do not press 'spacebar'.",Images/Happy/WF04_HC.jpg,Happy,Yellow,Images/Yellow.jpg,space,ParentConditions/YellowBlueBlue_v2.xlsx,BlueBlueYellow,Conditions/Version_2/BlueFearStop.xlsx,no,PASS,0.913284631,,,,,,,,,0,0,0,0,0,1,1,1,0,57,57,57,,,,,,,,,,,,,,,,,,,,,,,,,,,,,,,,,,,,,,,,,,,,,,,,,,,,,,,,,,,,,,,,,,,,,,,,,,,,,,,1.8,612.1351578,None,space,1,0.3200278,614.0483668,None,614.0483668,None,614.0483668,None,,,,,,,,,,,P037,fencog,2,Post,2022_Apr_29_1109,Go No-Go Task,2021.1.4,120.4151916
,"Rule: When you see blue image, do not press 'spacebar'.",Images/Happy/AF01_HE.jpg,Happy,Yellow,Images/Yellow.jpg,space,ParentConditions/YellowBlueBlue_v2.xlsx,BlueBlueYellow,Conditions/Version_2/BlueFearStop.xlsx,no,PASS,0.821840618,,,,,,,,,0,0,0,0,0,1,1,1,0,58,58,58,,,,,,,,,,,,,,,,,,,,,,,,,,,,,,,,,,,,,,,,,,,,,,,,,,,,,,,,,,,,,,,,,,,,,,,,,,,,,,,1.33,614.4409393,None,space,1,0.3674514,615.8727279,None,615.8727279,None,615.8727279,None,,,,,,,,,,,P037,fencog,2,Post,2022_Apr_29_1109,Go No-Go Task,2021.1.4,120.4151916
,"Rule: When you see blue image, do not press 'spacebar'.",Images/Happy/HM04_HO.jpg,Happy,Yellow,Images/Yellow.jpg,space,ParentConditions/YellowBlueBlue_v2.xlsx,BlueBlueYellow,Conditions/Version_2/BlueFearStop.xlsx,no,PASS,0.079511134,,,,,,,,,0,0,0,0,0,1,1,1,0,59,59,59,,,,,,,,,,,,,,,,,,,,,,,,,,,,,,,,,,,,,,,,,,,,,,,,,,,,,,,,,,,,,,,,,,,,,,,,,,,,,,,1.37,616.2764934,None,space,1,0.3007776,617.7555851,None,617.7555851,None,617.7555851,None,,,,,,,,,,,P037,fencog,2,Post,2022_Apr_29_1109,Go No-Go Task,2021.1.4,120.4151916
,"Rule: When you see blue image, do not press 'spacebar'.",Images/Happy/AM22HAS.jpg,Happy,Yellow,Images/Yellow.jpg,space,ParentConditions/YellowBlueBlue_v2.xlsx,BlueBlueYellow,Conditions/Version_2/BlueFearStop.xlsx,no,PASS,0.369225756,,,,,,,,,0,0,0,0,0,1,1,1,0,60,60,60,,,,,,,,,,,,,,,,,,,,,,,,,,,,,,,,,,,,,,,,,,,,,,,,,,,,,,,,,,,,,,,,,,,,,,,,,,,,,,,1.7,618.14918,None,None,0,,619.9465017,None,619.9465017,None,619.9465017,None,,,,,,,,,,,P037,fencog,2,Post,2022_Apr_29_1109,Go No-Go Task,2021.1.4,120.4151916
,"Rule: When you see blue image, do not press 'spacebar'.",Images/Happy/AF26HAS.jpg,Happy,Yellow,Images/Yellow.jpg,space,ParentConditions/YellowBlueBlue_v2.xlsx,BlueBlueYellow,Conditions/Version_2/BlueFearStop.xlsx,no,PASS,0.261516187,,,,,,,,,0,0,0,0,0,1,1,1,0,61,61,61,,,,,,,,,,,,,,,,,,,,,,,,,,,,,,,,,,,,,,,,,,,,,,,,,,,,,,,,,,,,,,,,,,,,,,,,,,,,,,,1.96,620.3472644,None,space,1,0.3560726,622.404115,None,622.404115,None,622.404115,None,,,,,,,,,,,P037,fencog,2,Post,2022_Apr_29_1109,Go No-Go Task,2021.1.4,120.4151916
,"Rule: When you see blue image, do not press 'spacebar'.",Images/Happy/HF05_HO.jpg,Happy,Yellow,Images/Yellow.jpg,space,ParentConditions/YellowBlueBlue_v2.xlsx,BlueBlueYellow,Conditions/Version_2/BlueFearStop.xlsx,no,PASS,0.915009632,,,,,,,,,0,0,0,0,0,1,1,1,0,62,62,62,,,,,,,,,,,,,,,,,,,,,,,,,,,,,,,,,,,,,,,,,,,,,,,,,,,,,,,,,,,,,,,,,,,,,,,,,,,,,,,1.32,622.8062503,None,space,1,0.3236414,624.2285789,None,624.2285789,None,624.2285789,None,,,,,,,,,,,P037,fencog,2,Post,2022_Apr_29_1109,Go No-Go Task,2021.1.4,120.4151916
,"Rule: When you see blue image, do not press 'spacebar'.",Images/Happy/AM02_HE.jpg,Happy,Yellow,Images/Yellow.jpg,space,ParentConditions/YellowBlueBlue_v2.xlsx,BlueBlueYellow,Conditions/Version_2/BlueFearStop.xlsx,no,PASS,0.556872479,,,,,,,,,0,0,0,0,0,1,1,1,0,63,63,63,,,,,,,,,,,,,,,,,,,,,,,,,,,,,,,,,,,,,,,,,,,,,,,,,,,,,,,,,,,,,,,,,,,,,,,,,,,,,,,1.94,624.6322291,None,space,1,0.3138261,626.6862331,None,626.6862331,None,626.6862331,None,,,,,,,,,,,P037,fencog,2,Post,2022_Apr_29_1109,Go No-Go Task,2021.1.4,120.4151916
,"Rule: When you see blue image, do not press 'spacebar'.",Images/Fearful/AF30AFS.jpg,Fear,Blue,Images/Blue.jpg,None,ParentConditions/YellowBlueBlue_v2.xlsx,BlueBlueYellow,Conditions/Version_2/BlueFearStop.xlsx,yes,PASS,0.110239229,,,,,,,,,0,0,0,0,0,1,1,1,0,64,64,64,,,,,,,,,,,,,,,,,,,,,,,,,,,,,,,,,,,,,,,,,,,,,,,,,,,,,,,,,,,,,,,,,,,,,,,,,,,,,,,1.86,627.0806394,None,None,1,,629.0437919,None,629.0437919,None,629.0437919,None,,,,,,,,,,,P037,fencog,2,Post,2022_Apr_29_1109,Go No-Go Task,2021.1.4,120.4151916
,"Rule: When you see blue image, do not press 'spacebar'.",Images/Happy/WF05_HC.jpg,Happy,Yellow,Images/Yellow.jpg,space,ParentConditions/YellowBlueBlue_v2.xlsx,BlueBlueYellow,Conditions/Version_2/BlueFearStop.xlsx,no,PASS,0.90332301,,,,,,,,,0,0,0,0,0,1,1,1,0,65,65,65,,,,,,,,,,,,,,,,,,,,,,,,,,,,,,,,,,,,,,,,,,,,,,,,,,,,,,,,,,,,,,,,,,,,,,,,,,,,,,,2,629.4442435,None,space,1,0.3282965,631.5597829,None,631.5597829,None,631.5597829,None,,,,,,,,,,,P037,fencog,2,Post,2022_Apr_29_1109,Go No-Go Task,2021.1.4,120.4151916
,"Rule: When you see blue image, do not press 'spacebar'.",Images/Fearful/AF10_FC.jpg,Fear,Blue,Images/Blue.jpg,None,ParentConditions/YellowBlueBlue_v2.xlsx,BlueBlueYellow,Conditions/Version_2/BlueFearStop.xlsx,yes,PASS,0.646227195,,,,,,,,,0,0,0,0,0,1,1,1,0,66,66,66,,,,,,,,,,,,,,,,,,,,,,,,,,,,,,,,,,,,,,,,,,,,,,,,,,,,,,,,,,,,,,,,,,,,,,,,,,,,,,,1.54,631.9586017,None,None,1,,633.6008138,None,633.6008138,None,633.6008138,None,,,,,,,,,,,P037,fencog,2,Post,2022_Apr_29_1109,Go No-Go Task,2021.1.4,120.4151916
,"Rule: When you see blue image, do not press 'spacebar'.",Images/Happy/AM03HAS.jpg,Happy,Yellow,Images/Yellow.jpg,space,ParentConditions/YellowBlueBlue_v2.xlsx,BlueBlueYellow,Conditions/Version_2/BlueFearStop.xlsx,no,PASS,0.391152628,,,,,,,,,0,0,0,0,0,1,1,1,0,67,67,67,,,,,,,,,,,,,,,,,,,,,,,,,,,,,,,,,,,,,,,,,,,,,,,,,,,,,,,,,,,,,,,,,,,,,,,,,,,,,,,1.56,634.0001127,None,space,1,0.2692716,635.6751902,None,635.6751902,None,635.6751902,None,,,,,,,,,,,P037,fencog,2,Post,2022_Apr_29_1109,Go No-Go Task,2021.1.4,120.4151916
,"Rule: When you see blue image, do not press 'spacebar'.",Images/Happy/AM17HAS.jpg,Happy,Yellow,Images/Yellow.jpg,space,ParentConditions/YellowBlueBlue_v2.xlsx,BlueBlueYellow,Conditions/Version_2/BlueFearStop.xlsx,no,PASS,0.241393995,,,,,,,,,0,0,0,0,0,1,1,1,0,68,68,68,,,,,,,,,,,,,,,,,,,,,,,,,,,,,,,,,,,,,,,,,,,,,,,,,,,,,,,,,,,,,,,,,,,,,,,,,,,,,,,1.79,636.0744057,None,space,1,0.3696737,637.9745302,None,637.9745302,None,637.9745302,None,,,,,,,,,,,P037,fencog,2,Post,2022_Apr_29_1109,Go No-Go Task,2021.1.4,120.4151916
,"Rule: When you see blue image, do not press 'spacebar'.",Images/Happy/AF30HAS.jpg,Happy,Yellow,Images/Yellow.jpg,space,ParentConditions/YellowBlueBlue_v2.xlsx,BlueBlueYellow,Conditions/Version_2/BlueFearStop.xlsx,no,PASS,0.252543571,,,,,,,,,0,0,0,0,0,1,1,1,0,69,69,69,,,,,,,,,,,,,,,,,,,,,,,,,,,,,,,,,,,,,,,,,,,,,,,,,,,,,,,,,,,,,,,,,,,,,,,,,,,,,,,1.45,638.3733737,None,space,1,0.3648857,639.9156104,None,639.9156104,None,639.9156104,None,,,,,,,,,,,P037,fencog,2,Post,2022_Apr_29_1109,Go No-Go Task,2021.1.4,120.4151916
,"Rule: When you see blue image, do not press 'spacebar'.",Images/Fearful/BF18_FC.jpg,Fear,Blue,Images/Blue.jpg,None,ParentConditions/YellowBlueBlue_v2.xlsx,BlueBlueYellow,Conditions/Version_2/BlueFearStop.xlsx,yes,PASS,0.793644001,,,,,,,,,0,0,0,0,0,1,1,1,0,70,70,70,,,,,,,,,,,,,,,,,,,,,,,,,,,,,,,,,,,,,,,,,,,,,,,,,,,,,,,,,,,,,,,,,,,,,,,,,,,,,,,1.82,640.3149407,None,None,1,,642.2399199,None,642.2399199,None,642.2399199,None,,,,,,,,,,,P037,fencog,2,Post,2022_Apr_29_1109,Go No-Go Task,2021.1.4,120.4151916
,"Rule: When you see blue image, do not press 'spacebar'.",Images/Fearful/HM09_FC.jpg,Fear,Blue,Images/Blue.jpg,None,ParentConditions/YellowBlueBlue_v2.xlsx,BlueBlueYellow,Conditions/Version_2/BlueFearStop.xlsx,yes,PASS,0.271373069,,,,,,,,,0,0,0,0,0,1,1,1,0,71,71,71,,,,,,,,,,,,,,,,,,,,,,,,,,,,,,,,,,,,,,,,,,,,,,,,,,,,,,,,,,,,,,,,,,,,,,,,,,,,,,,1.31,642.640906,None,space,0,0.2804412,644.0477141,None,644.0477141,None,644.0477141,None,,,,,,,,,,,P037,fencog,2,Post,2022_Apr_29_1109,Go No-Go Task,2021.1.4,120.4151916
,"Rule: When you see blue image, do not press 'spacebar'.",Images/Happy/HF09_HE.jpg,Happy,Yellow,Images/Yellow.jpg,space,ParentConditions/YellowBlueBlue_v2.xlsx,BlueBlueYellow,Conditions/Version_2/BlueFearStop.xlsx,no,PASS,0.96160606,,,,,,,,,0,0,0,0,0,1,1,1,0,72,72,72,,,,,,,,,,,,,,,,,,,,,,,,,,,,,,,,,,,,,,,,,,,,,,,,,,,,,,,,,,,,,,,,,,,,,,,,,,,,,,,1.93,644.4563268,None,space,1,0.3278034,646.4802681,None,646.4802681,None,646.4802681,None,,,,,,,,,,,P037,fencog,2,Post,2022_Apr_29_1109,Go No-Go Task,2021.1.4,120.4151916
