CondFileP,Instructions,FaceE,Express,ColourT,ColourF,CorrectAnsP,MasterCondFile,BlockOrder,CondFile,ColCheck,Triplicate_check,SORT_BY_SMALLEST,EPracticeOuterLoop.thisRepN,EPracticeOuterLoop.thisTrialN,EPracticeOuterLoop.thisN,EPracticeOuterLoop.thisIndex,EPracticeInnerLoop.thisRepN,EPracticeInnerLoop.thisTrialN,EPracticeInnerLoop.thisN,EPracticeInnerLoop.thisIndex,MasterLoop.thisRepN,MasterLoop.thisTrialN,MasterLoop.thisN,MasterLoop.thisIndex,OuterLoop.thisRepN,OuterLoop.thisTrialN,OuterLoop.thisN,OuterLoop.thisIndex,InnerLoop.thisRepN,InnerLoop.thisTrialN,InnerLoop.thisN,InnerLoop.thisIndex,text_13.started,text_13.stopped,key_resp_10.keys,key_resp_10.rt,key_resp_10.started,key_resp_10.stopped,text4.started,text4.stopped,EmotionTaskInstructions1.keys,EmotionTaskInstructions1.rt,EmotionTaskInstructions1.started,EmotionTaskInstructions1.stopped,text_4.started,text_4.stopped,key_resp_5.keys,key_resp_5.rt,key_resp_5.started,key_resp_5.stopped,Text_14.started,Text_14.stopped,key_resp_9.keys,key_resp_9.rt,key_resp_9.started,key_resp_9.stopped,text_5.started,text_5.stopped,text_6.started,text_6.stopped,key_resp_7.keys,key_resp_7.rt,key_resp_7.started,key_resp_7.stopped,text_10.started,text_10.stopped,text_11.started,text_11.stopped,text_12.started,text_12.stopped,ISIjitterPractice,EPracticeISIMarker.started,EPracticeISIMarker.stopped,Pract.keys,Pract.corr,Pract.started,Pract.stopped,PracticeFace.started,PracticeFace.stopped,ColourPractice.started,ColourPractice.stopped,text_7.started,text_7.stopped,Pract.rt,EndOfPractice.started,EndOfPractice.stopped,key_resp_8.keys,key_resp_8.rt,key_resp_8.started,key_resp_8.stopped,text_8.started,text_8.stopped,key_resp_6.keys,key_resp_6.rt,key_resp_6.started,key_resp_6.stopped,text_2.started,text_2.stopped,text_3.started,text_3.stopped,key_resp_3.keys,key_resp_3.rt,key_resp_3.started,key_resp_3.stopped,TaskBlock.started,TaskBlock.stopped,BlockNo1.started,BlockNo1.stopped,OfBlock.started,OfBlock.stopped,ISIjitter,ISImarker.started,ISImarker.stopped,key_resp.keys,key_resp.corr,key_resp.rt,key_resp.started,key_resp.stopped,FaceSet.started,FaceSet.stopped,Colour.started,Colour.stopped,EndBlockText.started,EndBlockText.stopped,key_resp_4.keys,key_resp_4.rt,key_resp_4.started,key_resp_4.stopped,BreakText2.started,BreakText2.stopped,PressToContinue.started,PressToContinue.stopped,participant,Study Name,Task Version (required to run),PRE/POST,date,expName,psychopyVersion,frameRate,
,,,,,,,,,,,,,,,,,,,,,,,,,,,,,,,,,25.29280870000366,None,space,80.94734439998865,26.28355480002938,None,,,,,,,,,,,,,,,,,,,,,,,,,,,,,,,,,,,,,,,,,,,,,,,,,,,,,,,,,,,,,,,,,,,,,,,,,,,,,,,,,,,,,,,,,,,,,,,P038,fencog,1,Pre,2022_Apr_26_1033,Go No-Go Task,2021.1.4,120.39663472220617,
,,,,,,,,,,,,,,,,,,,,,,,,,,,,,,,,,,,,,,,108.71696560003329,None,space,20.289973000006285,108.71696560003329,None,,,,,,,,,,,,,,,,,,,,,,,,,,,,,,,,,,,,,,,,,,,,,,,,,,,,,,,,,,,,,,,,,,,,,,,,,,,,,,,,,,,,,,,,,P038,fencog,1,Pre,2022_Apr_26_1033,Go No-Go Task,2021.1.4,120.39663472220617,
,,,,,,,,,,,,,,,,,,,,,,,,,,,,,,,,,,,,,,,,,,,,,129.07574840000598,None,space,6.0431377000059,129.07574840000598,None,,,,,,,,,,,,,,,,,,,,,,,,,,,,,,,,,,,,,,,,,,,,,,,,,,,,,,,,,,,,,,,,,,,,,,,,,,,,,,,,,,,P038,fencog,1,Pre,2022_Apr_26_1033,Go No-Go Task,2021.1.4,120.39663472220617,
,,,,,,,,,,,,,,,,,,,,,,,,,,,,,,,,,,,,,,,,,,,,,,,,,,,135.12789220002014,None,space,7.718940999999177,135.12789220002014,None,,,,,,,,,,,,,,,,,,,,,,,,,,,,,,,,,,,,,,,,,,,,,,,,,,,,,,,,,,,,,,,,,,,,,,,,,,,,,P038,fencog,1,Pre,2022_Apr_26_1033,Go No-Go Task,2021.1.4,120.39663472220617,
EPracticeConditions/BlueEyes.csv,"Rule: When you see a blue image, do not press 'spacebar'.",Images/Happy/HF04_HE.jpg,Happy,Yellow,Images/Yellow.jpg,space,,,,,,,0,0,0,0,0,0,0,4,,,,,,,,,,,,,,,,,,,,,,,,,,,,,,,,,,,,,142.9262462000479,None,145.9158513000002,None,space,2.8351172000402585,145.9158513000002,None,142.9262462000479,None,142.9262462000479,None,142.9262462000479,None,1.7,148.95711320004193,None,None,0,150.82425770000555,None,150.82425770000555,None,150.82425770000555,None,152.37555580004118,None,,,,,,,,,,,,,,,,,,,,,,,,,,,,,,,,,,,,,,,,,,,,,,,,,,P038,fencog,1,Pre,2022_Apr_26_1033,Go No-Go Task,2021.1.4,120.39663472220617,
EPracticeConditions/BlueEyes.csv,"Rule: When you see a blue image, do not press 'spacebar'.",Images/Happy/HF05_HO.jpg,Happy,Yellow,Images/Yellow.jpg,space,,,,,,,0,0,0,0,0,1,1,5,,,,,,,,,,,,,,,,,,,,,,,,,,,,,,,,,,,,,,,,,,,,,,,,,,,1.5,153.70060610002838,None,None,0,155.31287399999565,None,155.31287399999565,None,155.31287399999565,None,156.22294700000202,None,,,,,,,,,,,,,,,,,,,,,,,,,,,,,,,,,,,,,,,,,,,,,,,,,,P038,fencog,1,Pre,2022_Apr_26_1033,Go No-Go Task,2021.1.4,120.39663472220617,
EPracticeConditions/BlueEyes.csv,"Rule: When you see a blue image, do not press 'spacebar'.",Images/Happy/BM08_HO.jpg,Happy,Yellow,Images/Yellow.jpg,space,,,,,,,0,0,0,0,0,2,2,3,,,,,,,,,,,,,,,,,,,,,,,,,,,,,,,,,,,,,,,,,,,,,,,,,,,1.8,158.21112280001398,None,space,1,160.1114544000011,None,160.1114544000011,None,160.1114544000011,None,161.0102518000058,None,0.3196060999762267,,,,,,,,,,,,,,,,,,,,,,,,,,,,,,,,,,,,,,,,,,,,,,,,,P038,fencog,1,Pre,2022_Apr_26_1033,Go No-Go Task,2021.1.4,120.39663472220617,
EPracticeConditions/BlueEyes.csv,"Rule: When you see a blue image, do not press 'spacebar'.",Images/Happy/BM02_HO.jpg,Happy,Yellow,Images/Yellow.jpg,space,,,,,,,0,0,0,0,0,3,3,2,,,,,,,,,,,,,,,,,,,,,,,,,,,,,,,,,,,,,,,,,,,,,,,,,,,1.4,163.01083740004105,None,None,0,164.51835130003747,None,164.51835130003747,None,164.51835130003747,None,165.4242020000238,None,,,,,,,,,,,,,,,,,,,,,,,,,,,,,,,,,,,,,,,,,,,,,,,,,,P038,fencog,1,Pre,2022_Apr_26_1033,Go No-Go Task,2021.1.4,120.39663472220617,
EPracticeConditions/BlueEyes.csv,"Rule: When you see a blue image, do not press 'spacebar'.",Images/Happy/HF10_HE.jpg,Happy,Yellow,Images/Yellow.jpg,space,,,,,,,0,0,0,0,0,4,4,7,,,,,,,,,,,,,,,,,,,,,,,,,,,,,,,,,,,,,,,,,,,,,,,,,,,1.6,167.42501579999225,None,None,0,169.13329110003542,None,169.13329110003542,None,169.13329110003542,None,170.02526990004117,None,,,,,,,,,,,,,,,,,,,,,,,,,,,,,,,,,,,,,,,,,,,,,,,,,,P038,fencog,1,Pre,2022_Apr_26_1033,Go No-Go Task,2021.1.4,120.39663472220617,
EPracticeConditions/BlueEyes.csv,"Rule: When you see a blue image, do not press 'spacebar'.",Images/Happy/HF09_HE.jpg,Happy,Yellow,Images/Yellow.jpg,space,,,,,,,0,0,0,0,0,5,5,6,,,,,,,,,,,,,,,,,,,,,,,,,,,,,,,,,,,,,,,,,,,,,,,,,,,1.9,172.0320844000089,None,space,1,174.0401942000026,None,174.0401942000026,None,174.0401942000026,None,174.93670320004458,None,0.30280689999926835,,,,,,,,,,,,,,,,,,,,,,,,,,,,,,,,,,,,,,,,,,,,,,,,,P038,fencog,1,Pre,2022_Apr_26_1033,Go No-Go Task,2021.1.4,120.39663472220617,
EPracticeConditions/BlueEyes.csv,"Rule: When you see a blue image, do not press 'spacebar'.",Images/Fearful/AF01_FO.jpg,Fear,Blue,Images/Blue.jpg,None,,,,,,,0,0,0,0,0,6,6,1,,,,,,,,,,,,,,,,,,,,,,,,,,,,,,,,,,,,,,,,,,,,,,,,,,,1.3,176.93968930002302,None,None,1,178.37268590001622,None,178.37268590001622,None,178.37268590001622,None,179.25045880000107,None,,,,,,,,,,,,,,,,,,,,,,,,,,,,,,,,,,,,,,,,,,,,,,,,,,P038,fencog,1,Pre,2022_Apr_26_1033,Go No-Go Task,2021.1.4,120.39663472220617,
EPracticeConditions/BlueEyes.csv,"Rule: When you see a blue image, do not press 'spacebar'.",Images/Fearful/HM09_FC.jpg,Fear,Blue,Images/Blue.jpg,None,,,,,,,0,0,0,0,0,7,7,0,,,,,,,,,,,,,,,,,,,,,,,,,,,,,,,,,,,,,,,,,,,,,,,,,,,1.2,181.25436070002615,None,None,1,182.5631260999944,None,182.5631260999944,None,182.5631260999944,None,183.45348510000622,None,,,,,,,,,,,,,,,,,,,,,,,,,,,,,,,,,,,,,,,,,,,,,,,,,,P038,fencog,1,Pre,2022_Apr_26_1033,Go No-Go Task,2021.1.4,120.39663472220617,
EPracticeConditions/BlueEyes.csv,"Rule: When you see a blue image, do not press 'spacebar'.",,,,,,,,,,,,0,0,0,0,,,,,,,,,,,,,,,,,,,,,,,,,,,,,,,,,,,,,,,,,,,,,,,,,,,,,,,,,,,,,,,,,,,,,,,,,,,,,,,,,,,,,,,,,,,,,,,,,,,,,,,,,,,,,,,,,,,,,P038,fencog,1,Pre,2022_Apr_26_1033,Go No-Go Task,2021.1.4,120.39663472220617,
EPracticeConditions/YellowEyes.csv,"Rule: When you see a yellow image, do not press 'spacebar'.",Images/Fearful/AM22AFS.jpg,Fear,Blue,Images/Blue.jpg,space,,,,,,,0,1,1,1,0,0,0,5,,,,,,,,,,,,,,,,,,,,,,,,,,,,,,,,,,,,,185.47546230000444,None,188.4690840000403,None,space,2.2017011999851093,188.4690840000403,None,185.47546230000444,None,185.47546230000444,None,185.47546230000444,None,1.8,190.69653580000158,None,None,0,192.6101636000094,None,192.6101636000094,None,192.6101636000094,None,193.5003049999941,None,,,,,,,,,,,,,,,,,,,,,,,,,,,,,,,,,,,,,,,,,,,,,,,,,,P038,fencog,1,Pre,2022_Apr_26_1033,Go No-Go Task,2021.1.4,120.39663472220617,
EPracticeConditions/YellowEyes.csv,"Rule: When you see a yellow image, do not press 'spacebar'.",Images/Fearful/AM24AFS.jpg,Fear,Blue,Images/Blue.jpg,space,,,,,,,0,1,1,1,0,1,1,7,,,,,,,,,,,,,,,,,,,,,,,,,,,,,,,,,,,,,,,,,,,,,,,,,,,1.9,195.5014894999913,None,space,1,197.51702850003494,None,197.51702850003494,None,197.51702850003494,None,198.42206060001627,None,0.3218025000533089,,,,,,,,,,,,,,,,,,,,,,,,,,,,,,,,,,,,,,,,,,,,,,,,,P038,fencog,1,Pre,2022_Apr_26_1033,Go No-Go Task,2021.1.4,120.39663472220617,
EPracticeConditions/YellowEyes.csv,"Rule: When you see a yellow image, do not press 'spacebar'.",Images/Fearful/AM23AFS.jpg,Fear,Blue,Images/Blue.jpg,space,,,,,,,0,1,1,1,0,2,2,6,,,,,,,,,,,,,,,,,,,,,,,,,,,,,,,,,,,,,,,,,,,,,,,,,,,1.3,200.41518680000445,None,space,1,201.82409490004648,None,201.82409490004648,None,201.82409490004648,None,202.7117970000254,None,0.34302670002216473,,,,,,,,,,,,,,,,,,,,,,,,,,,,,,,,,,,,,,,,,,,,,,,,,P038,fencog,1,Pre,2022_Apr_26_1033,Go No-Go Task,2021.1.4,120.39663472220617,
EPracticeConditions/YellowEyes.csv,"Rule: When you see a yellow image, do not press 'spacebar'.",Images/Fearful/AM16AFS.jpg,Fear,Blue,Images/Blue.jpg,space,,,,,,,0,1,1,1,0,3,3,2,,,,,,,,,,,,,,,,,,,,,,,,,,,,,,,,,,,,,,,,,,,,,,,,,,,1.6,204.71432470000582,None,None,0,206.43100090004737,None,206.43100090004737,None,206.43100090004737,None,207.32645230001071,None,,,,,,,,,,,,,,,,,,,,,,,,,,,,,,,,,,,,,,,,,,,,,,,,,,P038,fencog,1,Pre,2022_Apr_26_1033,Go No-Go Task,2021.1.4,120.39663472220617,
EPracticeConditions/YellowEyes.csv,"Rule: When you see a yellow image, do not press 'spacebar'.",Images/Happy/AM32HAS.jpg,Happy,Yellow,Images/Yellow.jpg,None,,,,,,,0,1,1,1,0,4,4,0,,,,,,,,,,,,,,,,,,,,,,,,,,,,,,,,,,,,,,,,,,,,,,,,,,,1.7,209.3291026999941,None,None,1,211.13799900002778,None,211.13799900002778,None,211.13799900002778,None,212.03857979999157,None,,,,,,,,,,,,,,,,,,,,,,,,,,,,,,,,,,,,,,,,,,,,,,,,,,P038,fencog,1,Pre,2022_Apr_26_1033,Go No-Go Task,2021.1.4,120.39663472220617,
EPracticeConditions/YellowEyes.csv,"Rule: When you see a yellow image, do not press 'spacebar'.",Images/Fearful/AM19AFS.jpg,Fear,Blue,Images/Blue.jpg,space,,,,,,,0,1,1,1,0,5,5,4,,,,,,,,,,,,,,,,,,,,,,,,,,,,,,,,,,,,,,,,,,,,,,,,,,,1.5,214.03626970003825,None,space,1,215.6449121000478,None,215.6449121000478,None,215.6449121000478,None,216.53645000001416,None,0.37804540002252907,,,,,,,,,,,,,,,,,,,,,,,,,,,,,,,,,,,,,,,,,,,,,,,,,P038,fencog,1,Pre,2022_Apr_26_1033,Go No-Go Task,2021.1.4,120.39663472220617,
EPracticeConditions/YellowEyes.csv,"Rule: When you see a yellow image, do not press 'spacebar'.",Images/Fearful/AM17AFS.jpg,Fear,Blue,Images/Blue.jpg,space,,,,,,,0,1,1,1,0,6,6,3,,,,,,,,,,,,,,,,,,,,,,,,,,,,,,,,,,,,,,,,,,,,,,,,,,,1.4,218.5432254000334,None,None,0,220.0519186000456,None,220.0519186000456,None,220.0519186000456,None,220.94881400000304,None,,,,,,,,,,,,,,,,,,,,,,,,,,,,,,,,,,,,,,,,,,,,,,,,,,P038,fencog,1,Pre,2022_Apr_26_1033,Go No-Go Task,2021.1.4,120.39663472220617,
EPracticeConditions/YellowEyes.csv,"Rule: When you see a yellow image, do not press 'spacebar'.",Images/Happy/BF05_HO.jpg,Happy,Yellow,Images/Yellow.jpg,None,,,,,,,0,1,1,1,0,7,7,1,,,,,,,,,,,,,,,,,,,,,,,,,,,,,,,,,,,,,,,,,,,,,,,,,,,1.2,222.9502332000411,None,None,1,224.2590914000175,None,224.2590914000175,None,224.2590914000175,None,225.1520954000298,None,,,,,,,,,,,,,,,,,,,,,,,,,,,,,,,,,,,,,,,,,,,,,,,,,,P038,fencog,1,Pre,2022_Apr_26_1033,Go No-Go Task,2021.1.4,120.39663472220617,
EPracticeConditions/YellowEyes.csv,"Rule: When you see a yellow image, do not press 'spacebar'.",,,,,,,,,,,,0,1,1,1,,,,,,,,,,,,,,,,,,,,,,,,,,,,,,,,,,,,,,,,,,,,,,,,,,,,,,,,,,,,,,,,,,,,,,,,,,,,,,,,,,,,,,,,,,,,,,,,,,,,,,,,,,,,,,,,,,,,,P038,fencog,1,Pre,2022_Apr_26_1033,Go No-Go Task,2021.1.4,120.39663472220617,
EPracticeConditions/BlueScram.csv,"Rule: When you see a blue image, do not press 'spacebar'.",Images/Scram2/AF25NES.jpg,Scramble,Yellow,Images/Yellow.jpg,space,,,,,,,0,2,2,2,0,0,0,7,,,,,,,,,,,,,,,,,,,,,,,,,,,,,,,,,,,,,227.17053360003047,None,230.15638060000492,None,space,2.4342786999768578,230.15638060000492,None,227.17053360003047,None,227.17053360003047,None,227.17053360003047,None,1.7,232.61814959999174,None,None,0,234.43103969999356,None,234.43103969999356,None,234.43103969999356,None,235.32237880001776,None,,,,,,,,,,,,,,,,,,,,,,,,,,,,,,,,,,,,,,,,,,,,,,,,,,P038,fencog,1,Pre,2022_Apr_26_1033,Go No-Go Task,2021.1.4,120.39663472220617,
EPracticeConditions/BlueScram.csv,"Rule: When you see a blue image, do not press 'spacebar'.",Images/Scram2/AM03_NC.jpg,Scramble,Yellow,Images/Yellow.jpg,space,,,,,,,0,2,2,2,0,1,1,6,,,,,,,,,,,,,,,,,,,,,,,,,,,,,,,,,,,,,,,,,,,,,,,,,,,1.6,237.3305578000145,None,space,1,239.0464225000469,None,239.0464225000469,None,239.0464225000469,None,239.94915679999394,None,0.3524027999956161,,,,,,,,,,,,,,,,,,,,,,,,,,,,,,,,,,,,,,,,,,,,,,,,,P038,fencog,1,Pre,2022_Apr_26_1033,Go No-Go Task,2021.1.4,120.39663472220617,
EPracticeConditions/BlueScram.csv,"Rule: When you see a blue image, do not press 'spacebar'.",Images/Scram2/AF10_NC.jpg,Scramble,Yellow,Images/Yellow.jpg,space,,,,,,,0,2,2,2,0,2,2,2,,,,,,,,,,,,,,,,,,,,,,,,,,,,,,,,,,,,,,,,,,,,,,,,,,,1.4,241.94461440003943,None,space,1,243.45337400003336,None,243.45337400003336,None,243.45337400003336,None,244.34567810001317,None,0.3215238999691792,,,,,,,,,,,,,,,,,,,,,,,,,,,,,,,,,,,,,,,,,,,,,,,,,P038,fencog,1,Pre,2022_Apr_26_1033,Go No-Go Task,2021.1.4,120.39663472220617,
EPracticeConditions/BlueScram.csv,"Rule: When you see a blue image, do not press 'spacebar'.",Images/Scram1/AM04_NC.jpg,Scramble,Yellow,Images/Yellow.jpg,space,,,,,,,0,2,2,2,0,3,3,3,,,,,,,,,,,,,,,,,,,,,,,,,,,,,,,,,,,,,,,,,,,,,,,,,,,1.8,246.351714599994,None,space,1,248.2686389000155,None,248.2686389000155,None,248.2686389000155,None,249.15041510004085,None,0.35411009995732456,,,,,,,,,,,,,,,,,,,,,,,,,,,,,,,,,,,,,,,,,,,,,,,,,P038,fencog,1,Pre,2022_Apr_26_1033,Go No-Go Task,2021.1.4,120.39663472220617,
EPracticeConditions/BlueScram.csv,"Rule: When you see a blue image, do not press 'spacebar'.",Images/Scram1/AM13NES.jpg,Scramble,Yellow,Images/Yellow.jpg,space,,,,,,,0,2,2,2,0,4,4,5,,,,,,,,,,,,,,,,,,,,,,,,,,,,,,,,,,,,,,,,,,,,,,,,,,,1.3,251.15054840000812,None,space,1,252.5506963999942,None,252.5506963999942,None,252.5506963999942,None,253.4465466000256,None,0.35191090003354475,,,,,,,,,,,,,,,,,,,,,,,,,,,,,,,,,,,,,,,,,,,,,,,,,P038,fencog,1,Pre,2022_Apr_26_1033,Go No-Go Task,2021.1.4,120.39663472220617,
EPracticeConditions/BlueScram.csv,"Rule: When you see a blue image, do not press 'spacebar'.",Images/Scram1/BF18_NC.jpg,Scramble,Blue,Images/Blue.jpg,None,,,,,,,0,2,2,2,0,5,5,1,,,,,,,,,,,,,,,,,,,,,,,,,,,,,,,,,,,,,,,,,,,,,,,,,,,1.9,255.44970840000315,None,None,1,257.46589350001886,None,257.46589350001886,None,257.46589350001886,None,258.36249100003624,None,,,,,,,,,,,,,,,,,,,,,,,,,,,,,,,,,,,,,,,,,,,,,,,,,,P038,fencog,1,Pre,2022_Apr_26_1033,Go No-Go Task,2021.1.4,120.39663472220617,
EPracticeConditions/BlueScram.csv,"Rule: When you see a blue image, do not press 'spacebar'.",Images/Scram1/AM03NES.jpg,Scramble,Yellow,Images/Yellow.jpg,space,,,,,,,0,2,2,2,0,6,6,4,,,,,,,,,,,,,,,,,,,,,,,,,,,,,,,,,,,,,,,,,,,,,,,,,,,1.5,260.3641470000148,None,space,1,261.9729384999955,None,261.9729384999955,None,261.9729384999955,None,262.86383950000163,None,0.37807570002041757,,,,,,,,,,,,,,,,,,,,,,,,,,,,,,,,,,,,,,,,,,,,,,,,,P038,fencog,1,Pre,2022_Apr_26_1033,Go No-Go Task,2021.1.4,120.39663472220617,
EPracticeConditions/BlueScram.csv,"Rule: When you see a blue image, do not press 'spacebar'.",Images/Scram1/BM08_NC.jpg,Scramble,Blue,Images/Blue.jpg,None,,,,,,,0,2,2,2,0,7,7,0,,,,,,,,,,,,,,,,,,,,,,,,,,,,,,,,,,,,,,,,,,,,,,,,,,,1.2,264.87115680001443,None,None,1,266.1799780000001,None,266.1799780000001,None,266.1799780000001,None,267.07626820000587,None,,,,,,,,,,,,,,,,,,,,,,,,,,,,,,,,,,,,,,,,,,,,,,,,,,P038,fencog,1,Pre,2022_Apr_26_1033,Go No-Go Task,2021.1.4,120.39663472220617,
EPracticeConditions/BlueScram.csv,"Rule: When you see a blue image, do not press 'spacebar'.",,,,,,,,,,,,0,2,2,2,,,,,,,,,,,,,,,,,,,,,,,,,,,,,,,,,,,,,,,,,,,,,,,,,,,,,,,,,,,,,,,,,,,,,,,,,,,,,,,,,,,,,,,,,,,,,,,,,,,,,,,,,,,,,,,,,,,,,P038,fencog,1,Pre,2022_Apr_26_1033,Go No-Go Task,2021.1.4,120.39663472220617,
EPracticeConditions/YellowScram.csv,"Rule: When you see a yellow image, do not press 'spacebar'.",Images/Scram2/HM06_NC.jpg,Scramble,Yellow,Images/Yellow.jpg,None,,,,,,,0,3,3,3,0,0,0,0,,,,,,,,,,,,,,,,,,,,,,,,,,,,,,,,,,,,,269.0907348000328,None,272.0775938000297,None,space,0.7451379999984056,272.0775938000297,None,269.0907348000328,None,269.0907348000328,None,269.0907348000328,None,1.6,272.846039200027,None,None,1,274.5608082000399,None,274.5608082000399,None,274.5608082000399,None,275.44920980004827,None,,,,,,,,,,,,,,,,,,,,,,,,,,,,,,,,,,,,,,,,,,,,,,,,,,P038,fencog,1,Pre,2022_Apr_26_1033,Go No-Go Task,2021.1.4,120.39663472220617,
EPracticeConditions/YellowScram.csv,"Rule: When you see a yellow image, do not press 'spacebar'.",Images/Scram2/AM03NES.jpg,Scramble,Yellow,Images/Yellow.jpg,None,,,,,,,0,3,3,3,0,1,1,1,,,,,,,,,,,,,,,,,,,,,,,,,,,,,,,,,,,,,,,,,,,,,,,,,,,1.4,277.4542297000298,None,None,1,278.9677438000217,None,278.9677438000217,None,278.9677438000217,None,279.8645658000023,None,,,,,,,,,,,,,,,,,,,,,,,,,,,,,,,,,,,,,,,,,,,,,,,,,,P038,fencog,1,Pre,2022_Apr_26_1033,Go No-Go Task,2021.1.4,120.39663472220617,
EPracticeConditions/YellowScram.csv,"Rule: When you see a yellow image, do not press 'spacebar'.",Images/Scram1/AF07NES.jpg,Scramble,Blue,Images/Blue.jpg,space,,,,,,,0,3,3,3,0,2,2,3,,,,,,,,,,,,,,,,,,,,,,,,,,,,,,,,,,,,,,,,,,,,,,,,,,,1.5,281.8659200000111,None,None,0,283.47485280002,None,283.47485280002,None,283.47485280002,None,284.3653986999998,None,,,,,,,,,,,,,,,,,,,,,,,,,,,,,,,,,,,,,,,,,,,,,,,,,,P038,fencog,1,Pre,2022_Apr_26_1033,Go No-Go Task,2021.1.4,120.39663472220617,
EPracticeConditions/YellowScram.csv,"Rule: When you see a yellow image, do not press 'spacebar'.",Images/Scram1/HF04_NC.jpg,Scramble,Blue,Images/Blue.jpg,space,,,,,,,0,3,3,3,0,3,3,2,,,,,,,,,,,,,,,,,,,,,,,,,,,,,,,,,,,,,,,,,,,,,,,,,,,1.7,286.36601709999377,None,None,0,288.1818031000439,None,288.1818031000439,None,288.1818031000439,None,289.07957760000136,None,,,,,,,,,,,,,,,,,,,,,,,,,,,,,,,,,,,,,,,,,,,,,,,,,,P038,fencog,1,Pre,2022_Apr_26_1033,Go No-Go Task,2021.1.4,120.39663472220617,
EPracticeConditions/YellowScram.csv,"Rule: When you see a yellow image, do not press 'spacebar'.",Images/Scram1/AF24NES.jpg,Scramble,Blue,Images/Blue.jpg,space,,,,,,,0,3,3,3,0,4,4,7,,,,,,,,,,,,,,,,,,,,,,,,,,,,,,,,,,,,,,,,,,,,,,,,,,,1.8,291.08008720004,None,space,1,292.9804098000168,None,292.9804098000168,None,292.9804098000168,None,293.8879849000368,None,0.2663073999574408,,,,,,,,,,,,,,,,,,,,,,,,,,,,,,,,,,,,,,,,,,,,,,,,,P038,fencog,1,Pre,2022_Apr_26_1033,Go No-Go Task,2021.1.4,120.39663472220617,
EPracticeConditions/YellowScram.csv,"Rule: When you see a yellow image, do not press 'spacebar'.",Images/Scram1/AF10_NC.jpg,Scramble,Blue,Images/Blue.jpg,space,,,,,,,0,3,3,3,0,5,5,6,,,,,,,,,,,,,,,,,,,,,,,,,,,,,,,,,,,,,,,,,,,,,,,,,,,1.9,295.8869473999948,None,space,1,297.88725420000264,None,297.88725420000264,None,297.88725420000264,None,298.77808880002704,None,0.3194824999663979,,,,,,,,,,,,,,,,,,,,,,,,,,,,,,,,,,,,,,,,,,,,,,,,,P038,fencog,1,Pre,2022_Apr_26_1033,Go No-Go Task,2021.1.4,120.39663472220617,
EPracticeConditions/YellowScram.csv,"Rule: When you see a yellow image, do not press 'spacebar'.",Images/Scram1/BM01_NC.jpg,Scramble,Blue,Images/Blue.jpg,space,,,,,,,0,3,3,3,0,6,6,5,,,,,,,,,,,,,,,,,,,,,,,,,,,,,,,,,,,,,,,,,,,,,,,,,,,1.3,300.7853538999916,None,space,1,302.19429400004447,None,302.19429400004447,None,302.19429400004447,None,303.08525770000415,None,0.3644053000025451,,,,,,,,,,,,,,,,,,,,,,,,,,,,,,,,,,,,,,,,,,,,,,,,,P038,fencog,1,Pre,2022_Apr_26_1033,Go No-Go Task,2021.1.4,120.39663472220617,
EPracticeConditions/YellowScram.csv,"Rule: When you see a yellow image, do not press 'spacebar'.",Images/Scram1/AF30NES.JPG,Scramble,Blue,Images/Blue.jpg,space,,,,,,,0,3,3,3,0,7,7,4,,,,,,,,,,,,,,,,,,,,,,,,,,,,,,,,,,,,,,,,,,,,,,,,,,,1.2,305.09290770004736,None,space,1,306.4014022999909,None,306.4014022999909,None,306.4014022999909,None,307.29447520000394,None,0.35714969999389723,,,,,,,,,,,,,,,,,,,,,,,,,,,,,,,,,,,,,,,,,,,,,,,,,P038,fencog,1,Pre,2022_Apr_26_1033,Go No-Go Task,2021.1.4,120.39663472220617,
EPracticeConditions/YellowScram.csv,"Rule: When you see a yellow image, do not press 'spacebar'.",,,,,,,,,,,,0,3,3,3,,,,,,,,,,,,,,,,,,,,,,,,,,,,,,,,,,,,,,,,,,,,,,,,,,,,,,,,,,,,,,,,,,,,,,,,,,,,,,,,,,,,,,,,,,,,,,,,,,,,,,,,,,,,,,,,,,,,,P038,fencog,1,Pre,2022_Apr_26_1033,Go No-Go Task,2021.1.4,120.39663472220617,
,,,,,,,,,,,,,,,,,,,,,,,,,,,,,,,,,,,,,,,,,,,,,,,,,,,,,,,,,,,,,,,,,,,,,,,,,,,,,,,,,,,,,310.6897405000054,None,space,5.120701199979521,311.1659835000173,None,,,,,,,,,,,,,,,,,,,,,,,,,,,,,,,,,,,,,,,,,,,P038,fencog,1,Pre,2022_Apr_26_1033,Go No-Go Task,2021.1.4,120.39663472220617,
,,,,,,,,,,,,,,,,,,,,,,,,,,,,,,,,,,,,,,,,,,,,,,,,,,,,,,,,,,,,,,,,,,,,,,,,,,,,,,,,,,,,,,,,,,,316.2986669000238,None,space,1.9399227000540122,316.2986669000238,None,,,,,,,,,,,,,,,,,,,,,,,,,,,,,,,,,,,,,P038,fencog,1,Pre,2022_Apr_26_1033,Go No-Go Task,2021.1.4,120.39663472220617,
,"Rule: When you see a yellow image, do not press 'spacebar'.",Images/Happy/BF09_HO.jpg,Happy,Blue,Images/Blue.jpg,space,ParentConditions/YellowYellowBlue_v1.xlsx,YellowYellowBlue,Conditions/Version_1/YellowFearStop.xlsx,no,PASS,0.8264186213388923,,,,,,,,,0,0,0,1,0,0,0,0,0,0,0,0,,,,,,,,,,,,,,,,,,,,,,,,,,,,,,,,,,,,,,,,,,,,,,,,,,,,,,,,,,,,,,,,,318.330089199997,None,321.32097699999576,None,space,0.30970220000017434,321.32097699999576,None,318.330089199997,None,318.330089199997,None,318.330089199997,None,1.3,321.6903877000441,None,space,1,0.34983120003016666,323.10485290002543,None,323.10485290002543,None,323.10485290002543,None,,,,,,,,,,,P038,fencog,1,Pre,2022_Apr_26_1033,Go No-Go Task,2021.1.4,120.39663472220617,
,"Rule: When you see a yellow image, do not press 'spacebar'.",Images/Happy/AF30HAS.jpg,Happy,Blue,Images/Blue.jpg,space,ParentConditions/YellowYellowBlue_v1.xlsx,YellowYellowBlue,Conditions/Version_1/YellowFearStop.xlsx,no,PASS,0.17577164693776992,,,,,,,,,0,0,0,1,0,0,0,0,0,1,1,1,,,,,,,,,,,,,,,,,,,,,,,,,,,,,,,,,,,,,,,,,,,,,,,,,,,,,,,,,,,,,,,,,,,,,,,,,,,,,,,1.54,323.5042848000303,None,space,1,0.34819349995814264,325.1544286000426,None,325.1544286000426,None,325.1544286000426,None,,,,,,,,,,,P038,fencog,1,Pre,2022_Apr_26_1033,Go No-Go Task,2021.1.4,120.39663472220617,
,"Rule: When you see a yellow image, do not press 'spacebar'.",Images/Happy/AF27HAS.jpg,Happy,Blue,Images/Blue.jpg,space,ParentConditions/YellowYellowBlue_v1.xlsx,YellowYellowBlue,Conditions/Version_1/YellowFearStop.xlsx,no,PASS,0.9530234186227198,,,,,,,,,0,0,0,1,0,0,0,0,0,2,2,2,,,,,,,,,,,,,,,,,,,,,,,,,,,,,,,,,,,,,,,,,,,,,,,,,,,,,,,,,,,,,,,,,,,,,,,,,,,,,,,1.85,325.5531042999937,None,space,1,0.3508343000430614,327.5117757000262,None,327.5117757000262,None,327.5117757000262,None,,,,,,,,,,,P038,fencog,1,Pre,2022_Apr_26_1033,Go No-Go Task,2021.1.4,120.39663472220617,
,"Rule: When you see a yellow image, do not press 'spacebar'.",Images/Happy/AF22HAS.jpg,Happy,Blue,Images/Blue.jpg,space,ParentConditions/YellowYellowBlue_v1.xlsx,YellowYellowBlue,Conditions/Version_1/YellowFearStop.xlsx,no,PASS,0.38244231072686263,,,,,,,,,0,0,0,1,0,0,0,0,0,3,3,3,,,,,,,,,,,,,,,,,,,,,,,,,,,,,,,,,,,,,,,,,,,,,,,,,,,,,,,,,,,,,,,,,,,,,,,,,,,,,,,1.51,327.9153877000208,None,None,0,,329.5362289000186,None,329.5362289000186,None,329.5362289000186,None,,,,,,,,,,,P038,fencog,1,Pre,2022_Apr_26_1033,Go No-Go Task,2021.1.4,120.39663472220617,
,"Rule: When you see a yellow image, do not press 'spacebar'.",Images/Happy/WM11_HC.jpg,Happy,Blue,Images/Blue.jpg,space,ParentConditions/YellowYellowBlue_v1.xlsx,YellowYellowBlue,Conditions/Version_1/YellowFearStop.xlsx,no,PASS,0.4646194175443181,,,,,,,,,0,0,0,1,0,0,0,0,0,4,4,4,,,,,,,,,,,,,,,,,,,,,,,,,,,,,,,,,,,,,,,,,,,,,,,,,,,,,,,,,,,,,,,,,,,,,,,,,,,,,,,1.22,329.935011100024,None,space,1,0.32081229996401817,331.28561640001135,None,331.28561640001135,None,331.28561640001135,None,,,,,,,,,,,P038,fencog,1,Pre,2022_Apr_26_1033,Go No-Go Task,2021.1.4,120.39663472220617,
,"Rule: When you see a yellow image, do not press 'spacebar'.",Images/Happy/BF05_HO.jpg,Happy,Blue,Images/Blue.jpg,space,ParentConditions/YellowYellowBlue_v1.xlsx,YellowYellowBlue,Conditions/Version_1/YellowFearStop.xlsx,no,PASS,0.7872072262972759,,,,,,,,,0,0,0,1,0,0,0,0,0,5,5,5,,,,,,,,,,,,,,,,,,,,,,,,,,,,,,,,,,,,,,,,,,,,,,,,,,,,,,,,,,,,,,,,,,,,,,,,,,,,,,,1.47,331.6678733000299,None,space,1,0.37119689997052774,333.2433327000472,None,333.2433327000472,None,333.2433327000472,None,,,,,,,,,,,P038,fencog,1,Pre,2022_Apr_26_1033,Go No-Go Task,2021.1.4,120.39663472220617,
,"Rule: When you see a yellow image, do not press 'spacebar'.",Images/Fearful/AM01AFS.jpg,Fear,Yellow,Images/Yellow.jpg,None,ParentConditions/YellowYellowBlue_v1.xlsx,YellowYellowBlue,Conditions/Version_1/YellowFearStop.xlsx,yes,PASS,0.04646585469142872,,,,,,,,,0,0,0,1,0,0,0,0,0,6,6,6,,,,,,,,,,,,,,,,,,,,,,,,,,,,,,,,,,,,,,,,,,,,,,,,,,,,,,,,,,,,,,,,,,,,,,,,,,,,,,,1.62,333.6436987000052,None,None,1,,335.37603859999217,None,335.37603859999217,None,335.37603859999217,None,,,,,,,,,,,P038,fencog,1,Pre,2022_Apr_26_1033,Go No-Go Task,2021.1.4,120.39663472220617,
,"Rule: When you see a yellow image, do not press 'spacebar'.",Images/Happy/AF23HAS.jpg,Happy,Blue,Images/Blue.jpg,space,ParentConditions/YellowYellowBlue_v1.xlsx,YellowYellowBlue,Conditions/Version_1/YellowFearStop.xlsx,no,PASS,0.9566897784343521,,,,,,,,,0,0,0,1,0,0,0,0,0,7,7,7,,,,,,,,,,,,,,,,,,,,,,,,,,,,,,,,,,,,,,,,,,,,,,,,,,,,,,,,,,,,,,,,,,,,,,,,,,,,,,,1.98,335.7759999000118,None,None,0,,337.8835892000352,None,337.8835892000352,None,337.8835892000352,None,,,,,,,,,,,P038,fencog,1,Pre,2022_Apr_26_1033,Go No-Go Task,2021.1.4,120.39663472220617,
,"Rule: When you see a yellow image, do not press 'spacebar'.",Images/Happy/AM16HAS.jpg,Happy,Blue,Images/Blue.jpg,space,ParentConditions/YellowYellowBlue_v1.xlsx,YellowYellowBlue,Conditions/Version_1/YellowFearStop.xlsx,no,PASS,0.9715962743635901,,,,,,,,,0,0,0,1,0,0,0,0,0,8,8,8,,,,,,,,,,,,,,,,,,,,,,,,,,,,,,,,,,,,,,,,,,,,,,,,,,,,,,,,,,,,,,,,,,,,,,,,,,,,,,,1.97,338.26596770004835,None,None,0,,340.34962370002177,None,340.34962370002177,None,340.34962370002177,None,,,,,,,,,,,P038,fencog,1,Pre,2022_Apr_26_1033,Go No-Go Task,2021.1.4,120.39663472220617,
,"Rule: When you see a yellow image, do not press 'spacebar'.",Images/Happy/AM04HAS.jpg,Happy,Blue,Images/Blue.jpg,space,ParentConditions/YellowYellowBlue_v1.xlsx,YellowYellowBlue,Conditions/Version_1/YellowFearStop.xlsx,no,PASS,0.8834532829789966,,,,,,,,,0,0,0,1,0,0,0,0,0,9,9,9,,,,,,,,,,,,,,,,,,,,,,,,,,,,,,,,,,,,,,,,,,,,,,,,,,,,,,,,,,,,,,,,,,,,,,,,,,,,,,,1.65,340.74857019999763,None,space,1,0.3792886000010185,342.5073331000167,None,342.5073331000167,None,342.5073331000167,None,,,,,,,,,,,P038,fencog,1,Pre,2022_Apr_26_1033,Go No-Go Task,2021.1.4,120.39663472220617,
,"Rule: When you see a yellow image, do not press 'spacebar'.",Images/Happy/AF26HAS.jpg,Happy,Blue,Images/Blue.jpg,space,ParentConditions/YellowYellowBlue_v1.xlsx,YellowYellowBlue,Conditions/Version_1/YellowFearStop.xlsx,no,PASS,0.1837512616409066,,,,,,,,,0,0,0,1,0,0,0,0,0,10,10,10,,,,,,,,,,,,,,,,,,,,,,,,,,,,,,,,,,,,,,,,,,,,,,,,,,,,,,,,,,,,,,,,,,,,,,,,,,,,,,,1.64,342.9061856000335,None,None,0,,344.6566368000349,None,344.6566368000349,None,344.6566368000349,None,,,,,,,,,,,P038,fencog,1,Pre,2022_Apr_26_1033,Go No-Go Task,2021.1.4,120.39663472220617,
,"Rule: When you see a yellow image, do not press 'spacebar'.",Images/Fearful/AF10_FC.jpg,Fear,Yellow,Images/Yellow.jpg,None,ParentConditions/YellowYellowBlue_v1.xlsx,YellowYellowBlue,Conditions/Version_1/YellowFearStop.xlsx,yes,PASS,0.28017183869067563,,,,,,,,,0,0,0,1,0,0,0,0,0,11,11,11,,,,,,,,,,,,,,,,,,,,,,,,,,,,,,,,,,,,,,,,,,,,,,,,,,,,,,,,,,,,,,,,,,,,,,,,,,,,,,,1.28,345.05559160001576,None,None,1,,346.44779150001705,None,346.44779150001705,None,346.44779150001705,None,,,,,,,,,,,P038,fencog,1,Pre,2022_Apr_26_1033,Go No-Go Task,2021.1.4,120.39663472220617,
,"Rule: When you see a yellow image, do not press 'spacebar'.",Images/Fearful/AM09_FO.jpg,Fear,Yellow,Images/Yellow.jpg,None,ParentConditions/YellowYellowBlue_v1.xlsx,YellowYellowBlue,Conditions/Version_1/YellowFearStop.xlsx,yes,PASS,0.6630139915996167,,,,,,,,,0,0,0,1,0,0,0,0,0,12,12,12,,,,,,,,,,,,,,,,,,,,,,,,,,,,,,,,,,,,,,,,,,,,,,,,,,,,,,,,,,,,,,,,,,,,,,,,,,,,,,,1.34,346.848886199994,None,None,1,,348.2976919999928,None,348.2976919999928,None,348.2976919999928,None,,,,,,,,,,,P038,fencog,1,Pre,2022_Apr_26_1033,Go No-Go Task,2021.1.4,120.39663472220617,
,"Rule: When you see a yellow image, do not press 'spacebar'.",Images/Happy/HM04_HO.jpg,Happy,Blue,Images/Blue.jpg,space,ParentConditions/YellowYellowBlue_v1.xlsx,YellowYellowBlue,Conditions/Version_1/YellowFearStop.xlsx,no,PASS,0.9402314290963173,,,,,,,,,0,0,0,1,0,0,0,0,0,13,13,13,,,,,,,,,,,,,,,,,,,,,,,,,,,,,,,,,,,,,,,,,,,,,,,,,,,,,,,,,,,,,,,,,,,,,,,,,,,,,,,1.43,348.6962343000341,None,space,1,0.3280782999936491,350.2383089000359,None,350.2383089000359,None,350.2383089000359,None,,,,,,,,,,,P038,fencog,1,Pre,2022_Apr_26_1033,Go No-Go Task,2021.1.4,120.39663472220617,
,"Rule: When you see a yellow image, do not press 'spacebar'.",Images/Fearful/AM04_FO.jpg,Fear,Yellow,Images/Yellow.jpg,None,ParentConditions/YellowYellowBlue_v1.xlsx,YellowYellowBlue,Conditions/Version_1/YellowFearStop.xlsx,yes,PASS,0.3100490082037951,,,,,,,,,0,0,0,1,0,0,0,0,0,14,14,14,,,,,,,,,,,,,,,,,,,,,,,,,,,,,,,,,,,,,,,,,,,,,,,,,,,,,,,,,,,,,,,,,,,,,,,,,,,,,,,1.7,350.637032300001,None,None,1,,352.44602390000364,None,352.44602390000364,None,352.44602390000364,None,,,,,,,,,,,P038,fencog,1,Pre,2022_Apr_26_1033,Go No-Go Task,2021.1.4,120.39663472220617,
,"Rule: When you see a yellow image, do not press 'spacebar'.",Images/Happy/AM13HAS.jpg,Happy,Blue,Images/Blue.jpg,space,ParentConditions/YellowYellowBlue_v1.xlsx,YellowYellowBlue,Conditions/Version_1/YellowFearStop.xlsx,no,PASS,0.44314676907690376,,,,,,,,,0,0,0,1,0,0,0,0,0,15,15,15,,,,,,,,,,,,,,,,,,,,,,,,,,,,,,,,,,,,,,,,,,,,,,,,,,,,,,,,,,,,,,,,,,,,,,,,,,,,,,,1.39,352.84038100001635,None,None,0,,354.34542230004445,None,354.34542230004445,None,354.34542230004445,None,,,,,,,,,,,P038,fencog,1,Pre,2022_Apr_26_1033,Go No-Go Task,2021.1.4,120.39663472220617,
,"Rule: When you see a yellow image, do not press 'spacebar'.",Images/Fearful/AF09AFS.jpg,Fear,Yellow,Images/Yellow.jpg,None,ParentConditions/YellowYellowBlue_v1.xlsx,YellowYellowBlue,Conditions/Version_1/YellowFearStop.xlsx,yes,PASS,0.4498025699510172,,,,,,,,,0,0,0,1,0,0,0,0,0,16,16,16,,,,,,,,,,,,,,,,,,,,,,,,,,,,,,,,,,,,,,,,,,,,,,,,,,,,,,,,,,,,,,,,,,,,,,,,,,,,,,,1.9,354.7397304000333,None,None,1,,356.7530192999984,None,356.7530192999984,None,356.7530192999984,None,,,,,,,,,,,P038,fencog,1,Pre,2022_Apr_26_1033,Go No-Go Task,2021.1.4,120.39663472220617,
,"Rule: When you see a yellow image, do not press 'spacebar'.",Images/Fearful/BF05_FO.jpg,Fear,Yellow,Images/Yellow.jpg,None,ParentConditions/YellowYellowBlue_v1.xlsx,YellowYellowBlue,Conditions/Version_1/YellowFearStop.xlsx,yes,PASS,0.9080020582242041,,,,,,,,,0,0,0,1,0,0,0,0,0,17,17,17,,,,,,,,,,,,,,,,,,,,,,,,,,,,,,,,,,,,,,,,,,,,,,,,,,,,,,,,,,,,,,,,,,,,,,,,,,,,,,,1.5,357.1491951000062,None,None,1,,358.7606155000394,None,358.7606155000394,None,358.7606155000394,None,,,,,,,,,,,P038,fencog,1,Pre,2022_Apr_26_1033,Go No-Go Task,2021.1.4,120.39663472220617,
,"Rule: When you see a yellow image, do not press 'spacebar'.",Images/Happy/AM24HAS.jpg,Happy,Blue,Images/Blue.jpg,space,ParentConditions/YellowYellowBlue_v1.xlsx,YellowYellowBlue,Conditions/Version_1/YellowFearStop.xlsx,no,PASS,0.922071682303877,,,,,,,,,0,0,0,1,0,0,0,0,0,18,18,18,,,,,,,,,,,,,,,,,,,,,,,,,,,,,,,,,,,,,,,,,,,,,,,,,,,,,,,,,,,,,,,,,,,,,,,,,,,,,,,1.82,359.15544890001183,None,space,1,0.3222669000388123,361.07675520004705,None,361.07675520004705,None,361.07675520004705,None,,,,,,,,,,,P038,fencog,1,Pre,2022_Apr_26_1033,Go No-Go Task,2021.1.4,120.39663472220617,
,"Rule: When you see a yellow image, do not press 'spacebar'.",Images/Fearful/AF11AFS.jpg,Fear,Yellow,Images/Yellow.jpg,None,ParentConditions/YellowYellowBlue_v1.xlsx,YellowYellowBlue,Conditions/Version_1/YellowFearStop.xlsx,yes,PASS,0.9473352640697336,,,,,,,,,0,0,0,1,0,0,0,0,0,19,19,19,,,,,,,,,,,,,,,,,,,,,,,,,,,,,,,,,,,,,,,,,,,,,,,,,,,,,,,,,,,,,,,,,,,,,,,,,,,,,,,1.72,361.4773711000453,None,None,1,,363.30950279999524,None,363.30950279999524,None,363.30950279999524,None,,,,,,,,,,,P038,fencog,1,Pre,2022_Apr_26_1033,Go No-Go Task,2021.1.4,120.39663472220617,
,"Rule: When you see a yellow image, do not press 'spacebar'.",Images/Happy/AF01_HE.jpg,Happy,Blue,Images/Blue.jpg,space,ParentConditions/YellowYellowBlue_v1.xlsx,YellowYellowBlue,Conditions/Version_1/YellowFearStop.xlsx,no,PASS,0.975890070475601,,,,,,,,,0,0,0,1,0,0,0,0,0,20,20,20,,,,,,,,,,,,,,,,,,,,,,,,,,,,,,,,,,,,,,,,,,,,,,,,,,,,,,,,,,,,,,,,,,,,,,,,,,,,,,,1.96,363.70845570001984,None,None,0,,365.7836707000388,None,365.7836707000388,None,365.7836707000388,None,,,,,,,,,,,P038,fencog,1,Pre,2022_Apr_26_1033,Go No-Go Task,2021.1.4,120.39663472220617,
,"Rule: When you see a yellow image, do not press 'spacebar'.",Images/Happy/AM10_HO.jpg,Happy,Blue,Images/Blue.jpg,space,ParentConditions/YellowYellowBlue_v1.xlsx,YellowYellowBlue,Conditions/Version_1/YellowFearStop.xlsx,no,PASS,0.06323556568324906,,,,,,,,,0,0,0,1,0,0,0,0,0,21,21,21,,,,,,,,,,,,,,,,,,,,,,,,,,,,,,,,,,,,,,,,,,,,,,,,,,,,,,,,,,,,,,,,,,,,,,,,,,,,,,,1.94,366.1825663000345,None,space,1,0.36600460001500323,368.2246501999907,None,368.2246501999907,None,368.2246501999907,None,,,,,,,,,,,P038,fencog,1,Pre,2022_Apr_26_1033,Go No-Go Task,2021.1.4,120.39663472220617,
,"Rule: When you see a yellow image, do not press 'spacebar'.",Images/Happy/AF09HAS.jpg,Happy,Blue,Images/Blue.jpg,space,ParentConditions/YellowYellowBlue_v1.xlsx,YellowYellowBlue,Conditions/Version_1/YellowFearStop.xlsx,no,PASS,0.6962175902541581,,,,,,,,,0,0,0,1,0,0,0,0,0,22,22,22,,,,,,,,,,,,,,,,,,,,,,,,,,,,,,,,,,,,,,,,,,,,,,,,,,,,,,,,,,,,,,,,,,,,,,,,,,,,,,,1.84,368.6253389000194,None,space,1,0.36056310002459213,370.57392830000026,None,370.57392830000026,None,370.57392830000026,None,,,,,,,,,,,P038,fencog,1,Pre,2022_Apr_26_1033,Go No-Go Task,2021.1.4,120.39663472220617,
,"Rule: When you see a yellow image, do not press 'spacebar'.",Images/Happy/BM02_HO.jpg,Happy,Blue,Images/Blue.jpg,space,ParentConditions/YellowYellowBlue_v1.xlsx,YellowYellowBlue,Conditions/Version_1/YellowFearStop.xlsx,no,PASS,0.39611347700197175,,,,,,,,,0,0,0,1,0,0,0,0,0,23,23,23,,,,,,,,,,,,,,,,,,,,,,,,,,,,,,,,,,,,,,,,,,,,,,,,,,,,,,,,,,,,,,,,,,,,,,,,,,,,,,,1.74,370.9730539000011,None,space,1,0.29560899996431544,372.81493610003963,None,372.81493610003963,None,372.81493610003963,None,,,,,,,,,,,P038,fencog,1,Pre,2022_Apr_26_1033,Go No-Go Task,2021.1.4,120.39663472220617,
,"Rule: When you see a yellow image, do not press 'spacebar'.",Images/Happy/AM09_HE.jpg,Happy,Blue,Images/Blue.jpg,space,ParentConditions/YellowYellowBlue_v1.xlsx,YellowYellowBlue,Conditions/Version_1/YellowFearStop.xlsx,no,PASS,0.07757947711401492,,,,,,,,,0,0,0,1,0,0,0,0,0,24,24,24,,,,,,,,,,,,,,,,,,,,,,,,,,,,,,,,,,,,,,,,,,,,,,,,,,,,,,,,,,,,,,,,,,,,,,,,,,,,,,,1.24,373.2155728000216,None,space,1,0.2901533999829553,374.5644053000142,None,374.5644053000142,None,374.5644053000142,None,,,,,,,,,,,P038,fencog,1,Pre,2022_Apr_26_1033,Go No-Go Task,2021.1.4,120.39663472220617,
,"Rule: When you see a yellow image, do not press 'spacebar'.",Images/Happy/AF10_HE.jpg,Happy,Blue,Images/Blue.jpg,space,ParentConditions/YellowYellowBlue_v1.xlsx,YellowYellowBlue,Conditions/Version_1/YellowFearStop.xlsx,no,PASS,0.0317382475703174,,,,,,,,,0,0,0,1,0,0,0,0,0,25,25,25,,,,,,,,,,,,,,,,,,,,,,,,,,,,,,,,,,,,,,,,,,,,,,,,,,,,,,,,,,,,,,,,,,,,,,,,,,,,,,,1.59,374.96344600000884,None,space,1,0.2946014999761246,376.6639065000345,None,376.6639065000345,None,376.6639065000345,None,,,,,,,,,,,P038,fencog,1,Pre,2022_Apr_26_1033,Go No-Go Task,2021.1.4,120.39663472220617,
,"Rule: When you see a yellow image, do not press 'spacebar'.",Images/Happy/BM01_HO.jpg,Happy,Blue,Images/Blue.jpg,space,ParentConditions/YellowYellowBlue_v1.xlsx,YellowYellowBlue,Conditions/Version_1/YellowFearStop.xlsx,no,PASS,0.5236836345272965,,,,,,,,,0,0,0,1,0,0,0,0,0,26,26,26,,,,,,,,,,,,,,,,,,,,,,,,,,,,,,,,,,,,,,,,,,,,,,,,,,,,,,,,,,,,,,,,,,,,,,,,,,,,,,,1.4,377.0626648000325,None,space,1,0.30683670000871643,378.5715882999939,None,378.5715882999939,None,378.5715882999939,None,,,,,,,,,,,P038,fencog,1,Pre,2022_Apr_26_1033,Go No-Go Task,2021.1.4,120.39663472220617,
,"Rule: When you see a yellow image, do not press 'spacebar'.",Images/Fearful/AF07_FO.jpg,Fear,Yellow,Images/Yellow.jpg,None,ParentConditions/YellowYellowBlue_v1.xlsx,YellowYellowBlue,Conditions/Version_1/YellowFearStop.xlsx,yes,PASS,0.05460409726356086,,,,,,,,,0,0,0,1,0,0,0,0,0,27,27,27,,,,,,,,,,,,,,,,,,,,,,,,,,,,,,,,,,,,,,,,,,,,,,,,,,,,,,,,,,,,,,,,,,,,,,,,,,,,,,,1.33,378.9718795000226,None,None,1,,380.4126775000477,None,380.4126775000477,None,380.4126775000477,None,,,,,,,,,,,P038,fencog,1,Pre,2022_Apr_26_1033,Go No-Go Task,2021.1.4,120.39663472220617,
,"Rule: When you see a yellow image, do not press 'spacebar'.",Images/Happy/BF18_HO.jpg,Happy,Blue,Images/Blue.jpg,space,ParentConditions/YellowYellowBlue_v1.xlsx,YellowYellowBlue,Conditions/Version_1/YellowFearStop.xlsx,no,PASS,0.725547290944351,,,,,,,,,0,0,0,1,0,0,0,0,0,28,28,28,,,,,,,,,,,,,,,,,,,,,,,,,,,,,,,,,,,,,,,,,,,,,,,,,,,,,,,,,,,,,,,,,,,,,,,,,,,,,,,1.41,380.8115803000401,None,space,1,0.27733290003379807,382.33719580003526,None,382.33719580003526,None,382.33719580003526,None,,,,,,,,,,,P038,fencog,1,Pre,2022_Apr_26_1033,Go No-Go Task,2021.1.4,120.39663472220617,
,"Rule: When you see a yellow image, do not press 'spacebar'.",Images/Happy/AM03HAS.jpg,Happy,Blue,Images/Blue.jpg,space,ParentConditions/YellowYellowBlue_v1.xlsx,YellowYellowBlue,Conditions/Version_1/YellowFearStop.xlsx,no,PASS,0.25317968373868693,,,,,,,,,0,0,0,1,0,0,0,0,0,29,29,29,,,,,,,,,,,,,,,,,,,,,,,,,,,,,,,,,,,,,,,,,,,,,,,,,,,,,,,,,,,,,,,,,,,,,,,,,,,,,,,1.91,382.73599300003843,None,space,1,0.2850429000100121,384.76142029999755,None,384.76142029999755,None,384.76142029999755,None,,,,,,,,,,,P038,fencog,1,Pre,2022_Apr_26_1033,Go No-Go Task,2021.1.4,120.39663472220617,
,"Rule: When you see a yellow image, do not press 'spacebar'.",Images/Happy/BF10_HO.jpg,Happy,Blue,Images/Blue.jpg,space,ParentConditions/YellowYellowBlue_v1.xlsx,YellowYellowBlue,Conditions/Version_1/YellowFearStop.xlsx,no,PASS,0.49778397383761497,,,,,,,,,0,0,0,1,0,0,0,0,0,30,30,30,,,,,,,,,,,,,,,,,,,,,,,,,,,,,,,,,,,,,,,,,,,,,,,,,,,,,,,,,,,,,,,,,,,,,,,,,,,,,,,1.88,385.1608034000383,None,space,1,0.2540160999633372,387.1523549000267,None,387.1523549000267,None,387.1523549000267,None,,,,,,,,,,,P038,fencog,1,Pre,2022_Apr_26_1033,Go No-Go Task,2021.1.4,120.39663472220617,
,"Rule: When you see a yellow image, do not press 'spacebar'.",Images/Happy/BF07_HO.jpg,Happy,Blue,Images/Blue.jpg,space,ParentConditions/YellowYellowBlue_v1.xlsx,YellowYellowBlue,Conditions/Version_1/YellowFearStop.xlsx,no,PASS,0.8230931671283865,,,,,,,,,0,0,0,1,0,0,0,0,0,31,31,31,,,,,,,,,,,,,,,,,,,,,,,,,,,,,,,,,,,,,,,,,,,,,,,,,,,,,,,,,,,,,,,,,,,,,,,,,,,,,,,1.63,387.55125310004223,None,space,1,0.2811431000009179,389.2933644000441,None,389.2933644000441,None,389.2933644000441,None,,,,,,,,,,,P038,fencog,1,Pre,2022_Apr_26_1033,Go No-Go Task,2021.1.4,120.39663472220617,
,"Rule: When you see a yellow image, do not press 'spacebar'.",Images/Fearful/BF07_FO.jpg,Fear,Yellow,Images/Yellow.jpg,None,ParentConditions/YellowYellowBlue_v1.xlsx,YellowYellowBlue,Conditions/Version_1/YellowFearStop.xlsx,yes,PASS,0.2119409881246468,,,,,,,,,0,0,0,1,0,0,0,0,0,32,32,32,,,,,,,,,,,,,,,,,,,,,,,,,,,,,,,,,,,,,,,,,,,,,,,,,,,,,,,,,,,,,,,,,,,,,,,,,,,,,,,1.6,389.6923015000066,None,None,1,,391.4094296999974,None,391.4094296999974,None,391.4094296999974,None,,,,,,,,,,,P038,fencog,1,Pre,2022_Apr_26_1033,Go No-Go Task,2021.1.4,120.39663472220617,
,"Rule: When you see a yellow image, do not press 'spacebar'.",Images/Happy/WF04_HC.jpg,Happy,Blue,Images/Blue.jpg,space,ParentConditions/YellowYellowBlue_v1.xlsx,YellowYellowBlue,Conditions/Version_1/YellowFearStop.xlsx,no,PASS,0.26229612863468255,,,,,,,,,0,0,0,1,0,0,0,0,0,33,33,33,,,,,,,,,,,,,,,,,,,,,,,,,,,,,,,,,,,,,,,,,,,,,,,,,,,,,,,,,,,,,,,,,,,,,,,,,,,,,,,1.35,391.8000587000279,None,space,1,0.35555089998524636,393.25887130002957,None,393.25887130002957,None,393.25887130002957,None,,,,,,,,,,,P038,fencog,1,Pre,2022_Apr_26_1033,Go No-Go Task,2021.1.4,120.39663472220617,
,"Rule: When you see a yellow image, do not press 'spacebar'.",Images/Happy/AM23HAS.jpg,Happy,Blue,Images/Blue.jpg,space,ParentConditions/YellowYellowBlue_v1.xlsx,YellowYellowBlue,Conditions/Version_1/YellowFearStop.xlsx,no,PASS,0.6553077695853636,,,,,,,,,0,0,0,1,0,0,0,0,0,34,34,34,,,,,,,,,,,,,,,,,,,,,,,,,,,,,,,,,,,,,,,,,,,,,,,,,,,,,,,,,,,,,,,,,,,,,,,,,,,,,,,1.77,393.6576283000177,None,space,1,0.28113620000658557,395.54158700001426,None,395.54158700001426,None,395.54158700001426,None,,,,,,,,,,,P038,fencog,1,Pre,2022_Apr_26_1033,Go No-Go Task,2021.1.4,120.39663472220617,
,"Rule: When you see a yellow image, do not press 'spacebar'.",Images/Happy/AM09HAS.jpg,Happy,Blue,Images/Blue.jpg,space,ParentConditions/YellowYellowBlue_v1.xlsx,YellowYellowBlue,Conditions/Version_1/YellowFearStop.xlsx,no,PASS,0.3792451721627529,,,,,,,,,0,0,0,1,0,0,0,0,0,35,35,35,,,,,,,,,,,,,,,,,,,,,,,,,,,,,,,,,,,,,,,,,,,,,,,,,,,,,,,,,,,,,,,,,,,,,,,,,,,,,,,1.73,395.9423964000307,None,space,1,0.2718989999848418,397.7826016000472,None,397.7826016000472,None,397.7826016000472,None,,,,,,,,,,,P038,fencog,1,Pre,2022_Apr_26_1033,Go No-Go Task,2021.1.4,120.39663472220617,
,"Rule: When you see a yellow image, do not press 'spacebar'.",Images/Happy/AM10HAS.jpg,Happy,Blue,Images/Blue.jpg,space,ParentConditions/YellowYellowBlue_v1.xlsx,YellowYellowBlue,Conditions/Version_1/YellowFearStop.xlsx,no,PASS,0.9781550300020249,,,,,,,,,0,0,0,1,0,0,0,0,0,36,36,36,,,,,,,,,,,,,,,,,,,,,,,,,,,,,,,,,,,,,,,,,,,,,,,,,,,,,,,,,,,,,,,,,,,,,,,,,,,,,,,1.81,398.1814910999965,None,space,1,0.25159560004249215,400.1068312000134,None,400.1068312000134,None,400.1068312000134,None,,,,,,,,,,,P038,fencog,1,Pre,2022_Apr_26_1033,Go No-Go Task,2021.1.4,120.39663472220617,
,"Rule: When you see a yellow image, do not press 'spacebar'.",Images/Happy/AF07HAS.jpg,Happy,Blue,Images/Blue.jpg,space,ParentConditions/YellowYellowBlue_v1.xlsx,YellowYellowBlue,Conditions/Version_1/YellowFearStop.xlsx,no,PASS,0.9827710623676732,,,,,,,,,0,0,0,1,0,0,0,0,0,37,37,37,,,,,,,,,,,,,,,,,,,,,,,,,,,,,,,,,,,,,,,,,,,,,,,,,,,,,,,,,,,,,,,,,,,,,,,,,,,,,,,1.48,400.50581110001076,None,space,1,0.25255530001595616,402.0978793000104,None,402.0978793000104,None,402.0978793000104,None,,,,,,,,,,,P038,fencog,1,Pre,2022_Apr_26_1033,Go No-Go Task,2021.1.4,120.39663472220617,
,"Rule: When you see a yellow image, do not press 'spacebar'.",Images/Happy/AM03_HO.jpg,Happy,Blue,Images/Blue.jpg,space,ParentConditions/YellowYellowBlue_v1.xlsx,YellowYellowBlue,Conditions/Version_1/YellowFearStop.xlsx,no,PASS,0.6960883574837642,,,,,,,,,0,0,0,1,0,0,0,0,0,38,38,38,,,,,,,,,,,,,,,,,,,,,,,,,,,,,,,,,,,,,,,,,,,,,,,,,,,,,,,,,,,,,,,,,,,,,,,,,,,,,,,1.95,402.49669600004563,None,space,1,0.27494860003935173,404.5555157000199,None,404.5555157000199,None,404.5555157000199,None,,,,,,,,,,,P038,fencog,1,Pre,2022_Apr_26_1033,Go No-Go Task,2021.1.4,120.39663472220617,
,"Rule: When you see a yellow image, do not press 'spacebar'.",Images/Happy/AM05HAS.jpg,Happy,Blue,Images/Blue.jpg,space,ParentConditions/YellowYellowBlue_v1.xlsx,YellowYellowBlue,Conditions/Version_1/YellowFearStop.xlsx,no,PASS,0.8897547995150092,,,,,,,,,0,0,0,1,0,0,0,0,0,39,39,39,,,,,,,,,,,,,,,,,,,,,,,,,,,,,,,,,,,,,,,,,,,,,,,,,,,,,,,,,,,,,,,,,,,,,,,,,,,,,,,1.68,404.9547136000474,None,space,1,0.2039208000060171,406.74653010000475,None,406.74653010000475,None,406.74653010000475,None,,,,,,,,,,,P038,fencog,1,Pre,2022_Apr_26_1033,Go No-Go Task,2021.1.4,120.39663472220617,
,"Rule: When you see a yellow image, do not press 'spacebar'.",Images/Happy/AF02HAS.jpg,Happy,Blue,Images/Blue.jpg,space,ParentConditions/YellowYellowBlue_v1.xlsx,YellowYellowBlue,Conditions/Version_1/YellowFearStop.xlsx,no,PASS,0.25376599793626176,,,,,,,,,0,0,0,1,0,0,0,0,0,40,40,40,,,,,,,,,,,,,,,,,,,,,,,,,,,,,,,,,,,,,,,,,,,,,,,,,,,,,,,,,,,,,,,,,,,,,,,,,,,,,,,1.71,407.14641700003995,None,space,1,0.24384899996221066,408.9625000000233,None,408.9625000000233,None,408.9625000000233,None,,,,,,,,,,,P038,fencog,1,Pre,2022_Apr_26_1033,Go No-Go Task,2021.1.4,120.39663472220617,
,"Rule: When you see a yellow image, do not press 'spacebar'.",Images/Happy/BM08_HO.jpg,Happy,Blue,Images/Blue.jpg,space,ParentConditions/YellowYellowBlue_v1.xlsx,YellowYellowBlue,Conditions/Version_1/YellowFearStop.xlsx,no,PASS,0.999289280912827,,,,,,,,,0,0,0,1,0,0,0,0,0,41,41,41,,,,,,,,,,,,,,,,,,,,,,,,,,,,,,,,,,,,,,,,,,,,,,,,,,,,,,,,,,,,,,,,,,,,,,,,,,,,,,,1.55,409.3651896000374,None,space,1,0.25842079997528344,411.0199039000436,None,411.0199039000436,None,411.0199039000436,None,,,,,,,,,,,P038,fencog,1,Pre,2022_Apr_26_1033,Go No-Go Task,2021.1.4,120.39663472220617,
,"Rule: When you see a yellow image, do not press 'spacebar'.",Images/Happy/AM22HAS.jpg,Happy,Blue,Images/Blue.jpg,space,ParentConditions/YellowYellowBlue_v1.xlsx,YellowYellowBlue,Conditions/Version_1/YellowFearStop.xlsx,no,PASS,0.3243688929703894,,,,,,,,,0,0,0,1,0,0,0,0,0,42,42,42,,,,,,,,,,,,,,,,,,,,,,,,,,,,,,,,,,,,,,,,,,,,,,,,,,,,,,,,,,,,,,,,,,,,,,,,,,,,,,,1.76,411.41947600001004,None,space,1,0.28763370000524446,413.29464000003645,None,413.29464000003645,None,413.29464000003645,None,,,,,,,,,,,P038,fencog,1,Pre,2022_Apr_26_1033,Go No-Go Task,2021.1.4,120.39663472220617,
,"Rule: When you see a yellow image, do not press 'spacebar'.",Images/Happy/AM30HAS.jpg,Happy,Blue,Images/Blue.jpg,space,ParentConditions/YellowYellowBlue_v1.xlsx,YellowYellowBlue,Conditions/Version_1/YellowFearStop.xlsx,no,PASS,0.6329749014690744,,,,,,,,,0,0,0,1,0,0,0,0,0,43,43,43,,,,,,,,,,,,,,,,,,,,,,,,,,,,,,,,,,,,,,,,,,,,,,,,,,,,,,,,,,,,,,,,,,,,,,,,,,,,,,,1.89,413.69358000002103,None,space,1,0.26454679999733344,415.6938999000122,None,415.6938999000122,None,415.6938999000122,None,,,,,,,,,,,P038,fencog,1,Pre,2022_Apr_26_1033,Go No-Go Task,2021.1.4,120.39663472220617,
,"Rule: When you see a yellow image, do not press 'spacebar'.",Images/Fearful/BF09_FC.jpg,Fear,Yellow,Images/Yellow.jpg,None,ParentConditions/YellowYellowBlue_v1.xlsx,YellowYellowBlue,Conditions/Version_1/YellowFearStop.xlsx,yes,PASS,0.8490666234880494,,,,,,,,,0,0,0,1,0,0,0,0,0,44,44,44,,,,,,,,,,,,,,,,,,,,,,,,,,,,,,,,,,,,,,,,,,,,,,,,,,,,,,,,,,,,,,,,,,,,,,,,,,,,,,,1.53,416.0926802000031,None,space,0,0.23177689994918182,417.726658300031,None,417.726658300031,None,417.726658300031,None,,,,,,,,,,,P038,fencog,1,Pre,2022_Apr_26_1033,Go No-Go Task,2021.1.4,120.39663472220617,
,"Rule: When you see a yellow image, do not press 'spacebar'.",Images/Happy/WM12_HE.jpg,Happy,Blue,Images/Blue.jpg,space,ParentConditions/YellowYellowBlue_v1.xlsx,YellowYellowBlue,Conditions/Version_1/YellowFearStop.xlsx,no,PASS,0.11929099481185879,,,,,,,,,0,0,0,1,0,0,0,0,0,45,45,45,,,,,,,,,,,,,,,,,,,,,,,,,,,,,,,,,,,,,,,,,,,,,,,,,,,,,,,,,,,,,,,,,,,,,,,,,,,,,,,1.78,418.12871780002024,None,space,1,0.3086714999517426,420.01772290002555,None,420.01772290002555,None,420.01772290002555,None,,,,,,,,,,,P038,fencog,1,Pre,2022_Apr_26_1033,Go No-Go Task,2021.1.4,120.39663472220617,
,"Rule: When you see a yellow image, do not press 'spacebar'.",Images/Happy/HF10_HE.jpg,Happy,Blue,Images/Blue.jpg,space,ParentConditions/YellowYellowBlue_v1.xlsx,YellowYellowBlue,Conditions/Version_1/YellowFearStop.xlsx,no,PASS,0.835696516720082,,,,,,,,,0,0,0,1,0,0,0,0,0,46,46,46,,,,,,,,,,,,,,,,,,,,,,,,,,,,,,,,,,,,,,,,,,,,,,,,,,,,,,,,,,,,,,,,,,,,,,,,,,,,,,,1.2,420.41721750004217,None,space,1,0.3535871999920346,421.71712250000564,None,421.71712250000564,None,421.71712250000564,None,,,,,,,,,,,P038,fencog,1,Pre,2022_Apr_26_1033,Go No-Go Task,2021.1.4,120.39663472220617,
,"Rule: When you see a yellow image, do not press 'spacebar'.",Images/Happy/HM09_HO.jpg,Happy,Blue,Images/Blue.jpg,space,ParentConditions/YellowYellowBlue_v1.xlsx,YellowYellowBlue,Conditions/Version_1/YellowFearStop.xlsx,no,PASS,0.80615804446551,,,,,,,,,0,0,0,1,0,0,0,0,0,47,47,47,,,,,,,,,,,,,,,,,,,,,,,,,,,,,,,,,,,,,,,,,,,,,,,,,,,,,,,,,,,,,,,,,,,,,,,,,,,,,,,1.37,422.1159770000377,None,None,0,,423.5998619000311,None,423.5998619000311,None,423.5998619000311,None,,,,,,,,,,,P038,fencog,1,Pre,2022_Apr_26_1033,Go No-Go Task,2021.1.4,120.39663472220617,
,"Rule: When you see a yellow image, do not press 'spacebar'.",Images/Fearful/AM03_FC.jpg,Fear,Yellow,Images/Yellow.jpg,None,ParentConditions/YellowYellowBlue_v1.xlsx,YellowYellowBlue,Conditions/Version_1/YellowFearStop.xlsx,yes,PASS,0.14846567878901318,,,,,,,,,0,0,0,1,0,0,0,0,0,48,48,48,,,,,,,,,,,,,,,,,,,,,,,,,,,,,,,,,,,,,,,,,,,,,,,,,,,,,,,,,,,,,,,,,,,,,,,,,,,,,,,1.21,423.9989196000388,None,None,1,,425.32436900003813,None,425.32436900003813,None,425.32436900003813,None,,,,,,,,,,,P038,fencog,1,Pre,2022_Apr_26_1033,Go No-Go Task,2021.1.4,120.39663472220617,
,"Rule: When you see a yellow image, do not press 'spacebar'.",Images/Happy/HF04_HE.jpg,Happy,Blue,Images/Blue.jpg,space,ParentConditions/YellowYellowBlue_v1.xlsx,YellowYellowBlue,Conditions/Version_1/YellowFearStop.xlsx,no,PASS,0.49340132442678397,,,,,,,,,0,0,0,1,0,0,0,0,0,49,49,49,,,,,,,,,,,,,,,,,,,,,,,,,,,,,,,,,,,,,,,,,,,,,,,,,,,,,,,,,,,,,,,,,,,,,,,,,,,,,,,1.38,425.72387260000687,None,space,1,0.3275495999841951,427.19879560003756,None,427.19879560003756,None,427.19879560003756,None,,,,,,,,,,,P038,fencog,1,Pre,2022_Apr_26_1033,Go No-Go Task,2021.1.4,120.39663472220617,
,"Rule: When you see a yellow image, do not press 'spacebar'.",Images/Happy/AM17HAS.jpg,Happy,Blue,Images/Blue.jpg,space,ParentConditions/YellowYellowBlue_v1.xlsx,YellowYellowBlue,Conditions/Version_1/YellowFearStop.xlsx,no,PASS,0.47053997269579284,,,,,,,,,0,0,0,1,0,0,0,0,0,50,50,50,,,,,,,,,,,,,,,,,,,,,,,,,,,,,,,,,,,,,,,,,,,,,,,,,,,,,,,,,,,,,,,,,,,,,,,,,,,,,,,1.45,427.60184910002863,None,space,1,0.2976554000051692,429.1566291000345,None,429.1566291000345,None,429.1566291000345,None,,,,,,,,,,,P038,fencog,1,Pre,2022_Apr_26_1033,Go No-Go Task,2021.1.4,120.39663472220617,
,"Rule: When you see a yellow image, do not press 'spacebar'.",Images/Fearful/BM01_FO.jpg,Fear,Yellow,Images/Yellow.jpg,None,ParentConditions/YellowYellowBlue_v1.xlsx,YellowYellowBlue,Conditions/Version_1/YellowFearStop.xlsx,yes,PASS,0.31347174673362443,,,,,,,,,0,0,0,1,0,0,0,0,0,51,51,51,,,,,,,,,,,,,,,,,,,,,,,,,,,,,,,,,,,,,,,,,,,,,,,,,,,,,,,,,,,,,,,,,,,,,,,,,,,,,,,1.86,429.5559574000072,None,None,1,,431.522546000022,None,431.522546000022,None,431.522546000022,None,,,,,,,,,,,P038,fencog,1,Pre,2022_Apr_26_1033,Go No-Go Task,2021.1.4,120.39663472220617,
,"Rule: When you see a yellow image, do not press 'spacebar'.",Images/Happy/HF09_HE.jpg,Happy,Blue,Images/Blue.jpg,space,ParentConditions/YellowYellowBlue_v1.xlsx,YellowYellowBlue,Conditions/Version_1/YellowFearStop.xlsx,no,PASS,0.012739972194723559,,,,,,,,,0,0,0,1,0,0,0,0,0,52,52,52,,,,,,,,,,,,,,,,,,,,,,,,,,,,,,,,,,,,,,,,,,,,,,,,,,,,,,,,,,,,,,,,,,,,,,,,,,,,,,,1.58,431.9232801000471,None,space,1,0.29701580002438277,433.6052775999997,None,433.6052775999997,None,433.6052775999997,None,,,,,,,,,,,P038,fencog,1,Pre,2022_Apr_26_1033,Go No-Go Task,2021.1.4,120.39663472220617,
,"Rule: When you see a yellow image, do not press 'spacebar'.",Images/Happy/WF11_HE.jpg,Happy,Blue,Images/Blue.jpg,space,ParentConditions/YellowYellowBlue_v1.xlsx,YellowYellowBlue,Conditions/Version_1/YellowFearStop.xlsx,no,PASS,0.5128097154267254,,,,,,,,,0,0,0,1,0,0,0,0,0,53,53,53,,,,,,,,,,,,,,,,,,,,,,,,,,,,,,,,,,,,,,,,,,,,,,,,,,,,,,,,,,,,,,,,,,,,,,,,,,,,,,,2,434.00758630002383,None,space,1,0.32500459998846054,436.12948460003827,None,436.12948460003827,None,436.12948460003827,None,,,,,,,,,,,P038,fencog,1,Pre,2022_Apr_26_1033,Go No-Go Task,2021.1.4,120.39663472220617,
,"Rule: When you see a yellow image, do not press 'spacebar'.",Images/Fearful/AM04AFS.jpg,Fear,Yellow,Images/Yellow.jpg,None,ParentConditions/YellowYellowBlue_v1.xlsx,YellowYellowBlue,Conditions/Version_1/YellowFearStop.xlsx,yes,PASS,0.4808108011742167,,,,,,,,,0,0,0,1,0,0,0,0,0,54,54,54,,,,,,,,,,,,,,,,,,,,,,,,,,,,,,,,,,,,,,,,,,,,,,,,,,,,,,,,,,,,,,,,,,,,,,,,,,,,,,,1.46,436.51999350002734,None,None,1,,438.09565770003246,None,438.09565770003246,None,438.09565770003246,None,,,,,,,,,,,P038,fencog,1,Pre,2022_Apr_26_1033,Go No-Go Task,2021.1.4,120.39663472220617,
,"Rule: When you see a yellow image, do not press 'spacebar'.",Images/Happy/AF19HAS.jpg,Happy,Blue,Images/Blue.jpg,space,ParentConditions/YellowYellowBlue_v1.xlsx,YellowYellowBlue,Conditions/Version_1/YellowFearStop.xlsx,no,PASS,0.3252147007245795,,,,,,,,,0,0,0,1,0,0,0,0,0,55,55,55,,,,,,,,,,,,,,,,,,,,,,,,,,,,,,,,,,,,,,,,,,,,,,,,,,,,,,,,,,,,,,,,,,,,,,,,,,,,,,,1.29,438.49472730001435,None,space,1,0.25532599998405203,439.89508970000315,None,439.89508970000315,None,439.89508970000315,None,,,,,,,,,,,P038,fencog,1,Pre,2022_Apr_26_1033,Go No-Go Task,2021.1.4,120.39663472220617,
,"Rule: When you see a yellow image, do not press 'spacebar'.",Images/Happy/HM06_HO.jpg,Happy,Blue,Images/Blue.jpg,space,ParentConditions/YellowYellowBlue_v1.xlsx,YellowYellowBlue,Conditions/Version_1/YellowFearStop.xlsx,no,PASS,0.3282337486862341,,,,,,,,,0,0,0,1,0,0,0,0,0,56,56,56,,,,,,,,,,,,,,,,,,,,,,,,,,,,,,,,,,,,,,,,,,,,,,,,,,,,,,,,,,,,,,,,,,,,,,,,,,,,,,,1.42,440.2956368000014,None,space,1,0.33082329999888316,441.81953900004737,None,441.81953900004737,None,441.81953900004737,None,,,,,,,,,,,P038,fencog,1,Pre,2022_Apr_26_1033,Go No-Go Task,2021.1.4,120.39663472220617,
,"Rule: When you see a yellow image, do not press 'spacebar'.",Images/Happy/HF05_HO.jpg,Happy,Blue,Images/Blue.jpg,space,ParentConditions/YellowYellowBlue_v1.xlsx,YellowYellowBlue,Conditions/Version_1/YellowFearStop.xlsx,no,PASS,0.5833391709234322,,,,,,,,,0,0,0,1,0,0,0,0,0,57,57,57,,,,,,,,,,,,,,,,,,,,,,,,,,,,,,,,,,,,,,,,,,,,,,,,,,,,,,,,,,,,,,,,,,,,,,,,,,,,,,,1.83,442.22001770004863,None,None,0,,444.14379350002855,None,444.14379350002855,None,444.14379350002855,None,,,,,,,,,,,P038,fencog,1,Pre,2022_Apr_26_1033,Go No-Go Task,2021.1.4,120.39663472220617,
,"Rule: When you see a yellow image, do not press 'spacebar'.",Images/Fearful/AF01_FO.jpg,Fear,Yellow,Images/Yellow.jpg,None,ParentConditions/YellowYellowBlue_v1.xlsx,YellowYellowBlue,Conditions/Version_1/YellowFearStop.xlsx,yes,PASS,0.3034900725746609,,,,,,,,,0,0,0,1,0,0,0,0,0,58,58,58,,,,,,,,,,,,,,,,,,,,,,,,,,,,,,,,,,,,,,,,,,,,,,,,,,,,,,,,,,,,,,,,,,,,,,,,,,,,,,,1.67,444.5444969999953,None,None,1,,446.3181653000065,None,446.3181653000065,None,446.3181653000065,None,,,,,,,,,,,P038,fencog,1,Pre,2022_Apr_26_1033,Go No-Go Task,2021.1.4,120.39663472220617,
,"Rule: When you see a yellow image, do not press 'spacebar'.",Images/Happy/AF21HAS.jpg,Happy,Blue,Images/Blue.jpg,space,ParentConditions/YellowYellowBlue_v1.xlsx,YellowYellowBlue,Conditions/Version_1/YellowFearStop.xlsx,no,PASS,0.9799702127391234,,,,,,,,,0,0,0,1,0,0,0,0,0,59,59,59,,,,,,,,,,,,,,,,,,,,,,,,,,,,,,,,,,,,,,,,,,,,,,,,,,,,,,,,,,,,,,,,,,,,,,,,,,,,,,,1.66,446.72661080001853,None,space,1,0.305557299987413,448.50081640004646,None,448.50081640004646,None,448.50081640004646,None,,,,,,,,,,,P038,fencog,1,Pre,2022_Apr_26_1033,Go No-Go Task,2021.1.4,120.39663472220617,
,"Rule: When you see a yellow image, do not press 'spacebar'.",Images/Happy/AM06_HC.jpg,Happy,Blue,Images/Blue.jpg,space,ParentConditions/YellowYellowBlue_v1.xlsx,YellowYellowBlue,Conditions/Version_1/YellowFearStop.xlsx,no,PASS,0.29816427390759137,,,,,,,,,0,0,0,1,0,0,0,0,0,60,60,60,,,,,,,,,,,,,,,,,,,,,,,,,,,,,,,,,,,,,,,,,,,,,,,,,,,,,,,,,,,,,,,,,,,,,,,,,,,,,,,1.8,448.8980693000485,None,space,1,0.3336884999880567,450.8085056000273,None,450.8085056000273,None,450.8085056000273,None,,,,,,,,,,,P038,fencog,1,Pre,2022_Apr_26_1033,Go No-Go Task,2021.1.4,120.39663472220617,
,"Rule: When you see a yellow image, do not press 'spacebar'.",Images/Fearful/AF02AFS.jpg,Fear,Yellow,Images/Yellow.jpg,None,ParentConditions/YellowYellowBlue_v1.xlsx,YellowYellowBlue,Conditions/Version_1/YellowFearStop.xlsx,yes,PASS,0.15582520477375605,,,,,,,,,0,0,0,1,0,0,0,0,0,61,61,61,,,,,,,,,,,,,,,,,,,,,,,,,,,,,,,,,,,,,,,,,,,,,,,,,,,,,,,,,,,,,,,,,,,,,,,,,,,,,,,1.36,451.20931900001597,None,None,1,,452.68255800002953,None,452.68255800002953,None,452.68255800002953,None,,,,,,,,,,,P038,fencog,1,Pre,2022_Apr_26_1033,Go No-Go Task,2021.1.4,120.39663472220617,
,"Rule: When you see a yellow image, do not press 'spacebar'.",Images/Happy/AF25HAS.jpg,Happy,Blue,Images/Blue.jpg,space,ParentConditions/YellowYellowBlue_v1.xlsx,YellowYellowBlue,Conditions/Version_1/YellowFearStop.xlsx,no,PASS,0.7963653427272854,,,,,,,,,0,0,0,1,0,0,0,0,0,62,62,62,,,,,,,,,,,,,,,,,,,,,,,,,,,,,,,,,,,,,,,,,,,,,,,,,,,,,,,,,,,,,,,,,,,,,,,,,,,,,,,1.79,453.0818959000171,None,space,1,0.32042549998732284,454.97393989999546,None,454.97393989999546,None,454.97393989999546,None,,,,,,,,,,,P038,fencog,1,Pre,2022_Apr_26_1033,Go No-Go Task,2021.1.4,120.39663472220617,
,"Rule: When you see a yellow image, do not press 'spacebar'.",Images/Happy/AM32HAS.jpg,Happy,Blue,Images/Blue.jpg,space,ParentConditions/YellowYellowBlue_v1.xlsx,YellowYellowBlue,Conditions/Version_1/YellowFearStop.xlsx,no,PASS,0.2823557460482189,,,,,,,,,0,0,0,1,0,0,0,0,0,63,63,63,,,,,,,,,,,,,,,,,,,,,,,,,,,,,,,,,,,,,,,,,,,,,,,,,,,,,,,,,,,,,,,,,,,,,,,,,,,,,,,1.56,455.37463020003634,None,None,0,,457.0399652000051,None,457.0399652000051,None,457.0399652000051,None,,,,,,,,,,,P038,fencog,1,Pre,2022_Apr_26_1033,Go No-Go Task,2021.1.4,120.39663472220617,
,"Rule: When you see a yellow image, do not press 'spacebar'.",Images/Fearful/AM02_FO.jpg,Fear,Yellow,Images/Yellow.jpg,None,ParentConditions/YellowYellowBlue_v1.xlsx,YellowYellowBlue,Conditions/Version_1/YellowFearStop.xlsx,yes,PASS,0.8481624514007016,,,,,,,,,0,0,0,1,0,0,0,0,0,64,64,64,,,,,,,,,,,,,,,,,,,,,,,,,,,,,,,,,,,,,,,,,,,,,,,,,,,,,,,,,,,,,,,,,,,,,,,,,,,,,,,1.32,457.4420170999947,None,None,1,,458.8644273999962,None,458.8644273999962,None,458.8644273999962,None,,,,,,,,,,,P038,fencog,1,Pre,2022_Apr_26_1033,Go No-Go Task,2021.1.4,120.39663472220617,
,"Rule: When you see a yellow image, do not press 'spacebar'.",Images/Fearful/BM02_FC.jpg,Fear,Yellow,Images/Yellow.jpg,None,ParentConditions/YellowYellowBlue_v1.xlsx,YellowYellowBlue,Conditions/Version_1/YellowFearStop.xlsx,yes,PASS,0.7033474445186839,,,,,,,,,0,0,0,1,0,0,0,0,0,65,65,65,,,,,,,,,,,,,,,,,,,,,,,,,,,,,,,,,,,,,,,,,,,,,,,,,,,,,,,,,,,,,,,,,,,,,,,,,,,,,,,1.25,459.26381330000004,None,None,1,,460.6222290000296,None,460.6222290000296,None,460.6222290000296,None,,,,,,,,,,,P038,fencog,1,Pre,2022_Apr_26_1033,Go No-Go Task,2021.1.4,120.39663472220617,
,"Rule: When you see a yellow image, do not press 'spacebar'.",Images/Happy/AM04_HE.jpg,Happy,Blue,Images/Blue.jpg,space,ParentConditions/YellowYellowBlue_v1.xlsx,YellowYellowBlue,Conditions/Version_1/YellowFearStop.xlsx,no,PASS,0.1954454647057855,,,,,,,,,0,0,0,1,0,0,0,0,0,66,66,66,,,,,,,,,,,,,,,,,,,,,,,,,,,,,,,,,,,,,,,,,,,,,,,,,,,,,,,,,,,,,,,,,,,,,,,,,,,,,,,1.52,461.0211990000098,None,space,1,0.3194327999954112,462.654954800033,None,462.654954800033,None,462.654954800033,None,,,,,,,,,,,P038,fencog,1,Pre,2022_Apr_26_1033,Go No-Go Task,2021.1.4,120.39663472220617,
,"Rule: When you see a yellow image, do not press 'spacebar'.",Images/Fearful/AM05AFS.jpg,Fear,Yellow,Images/Yellow.jpg,None,ParentConditions/YellowYellowBlue_v1.xlsx,YellowYellowBlue,Conditions/Version_1/YellowFearStop.xlsx,yes,PASS,0.6459336406761428,,,,,,,,,0,0,0,1,0,0,0,0,0,67,67,67,,,,,,,,,,,,,,,,,,,,,,,,,,,,,,,,,,,,,,,,,,,,,,,,,,,,,,,,,,,,,,,,,,,,,,,,,,,,,,,1.57,463.05393759999424,None,None,1,,464.7292623000103,None,464.7292623000103,None,464.7292623000103,None,,,,,,,,,,,P038,fencog,1,Pre,2022_Apr_26_1033,Go No-Go Task,2021.1.4,120.39663472220617,
,"Rule: When you see a yellow image, do not press 'spacebar'.",Images/Happy/AF28HAS.jpg,Happy,Blue,Images/Blue.jpg,space,ParentConditions/YellowYellowBlue_v1.xlsx,YellowYellowBlue,Conditions/Version_1/YellowFearStop.xlsx,no,PASS,0.16840775809852682,,,,,,,,,0,0,0,1,0,0,0,0,0,68,68,68,,,,,,,,,,,,,,,,,,,,,,,,,,,,,,,,,,,,,,,,,,,,,,,,,,,,,,,,,,,,,,,,,,,,,,,,,,,,,,,1.69,465.1301005000132,None,None,0,,466.92866410000715,None,466.92866410000715,None,466.92866410000715,None,,,,,,,,,,,P038,fencog,1,Pre,2022_Apr_26_1033,Go No-Go Task,2021.1.4,120.39663472220617,
,"Rule: When you see a yellow image, do not press 'spacebar'.",Images/Happy/AF07_HO.jpg,Happy,Blue,Images/Blue.jpg,space,ParentConditions/YellowYellowBlue_v1.xlsx,YellowYellowBlue,Conditions/Version_1/YellowFearStop.xlsx,no,PASS,0.8921854253161821,,,,,,,,,0,0,0,1,0,0,0,0,0,69,69,69,,,,,,,,,,,,,,,,,,,,,,,,,,,,,,,,,,,,,,,,,,,,,,,,,,,,,,,,,,,,,,,,,,,,,,,,,,,,,,,1.61,467.32783429999836,None,space,1,0.31351760000688955,469.0530457000132,None,469.0530457000132,None,469.0530457000132,None,,,,,,,,,,,P038,fencog,1,Pre,2022_Apr_26_1033,Go No-Go Task,2021.1.4,120.39663472220617,
,"Rule: When you see a yellow image, do not press 'spacebar'.",Images/Happy/BF14_HO.jpg,Happy,Blue,Images/Blue.jpg,space,ParentConditions/YellowYellowBlue_v1.xlsx,YellowYellowBlue,Conditions/Version_1/YellowFearStop.xlsx,no,PASS,0.11340023271387378,,,,,,,,,0,0,0,1,0,0,0,0,0,70,70,70,,,,,,,,,,,,,,,,,,,,,,,,,,,,,,,,,,,,,,,,,,,,,,,,,,,,,,,,,,,,,,,,,,,,,,,,,,,,,,,1.92,469.4527881999966,None,space,1,0.3286769000114873,471.48545480001485,None,471.48545480001485,None,471.48545480001485,None,,,,,,,,,,,P038,fencog,1,Pre,2022_Apr_26_1033,Go No-Go Task,2021.1.4,120.39663472220617,
,"Rule: When you see a yellow image, do not press 'spacebar'.",Images/Fearful/AF07FS.jpg,Fear,Yellow,Images/Yellow.jpg,None,ParentConditions/YellowYellowBlue_v1.xlsx,YellowYellowBlue,Conditions/Version_1/YellowFearStop.xlsx,yes,PASS,0.01772114652951917,,,,,,,,,0,0,0,1,0,0,0,0,0,71,71,71,,,,,,,,,,,,,,,,,,,,,,,,,,,,,,,,,,,,,,,,,,,,,,,,,,,,,,,,,,,,,,,,,,,,,,,,,,,,,,,1.31,471.8847853000043,None,space,0,0.3601626000017859,473.31014960003085,None,473.31014960003085,None,473.31014960003085,None,,,,,,,,,,,P038,fencog,1,Pre,2022_Apr_26_1033,Go No-Go Task,2021.1.4,120.39663472220617,
,"Rule: When you see a yellow image, do not press 'spacebar'.",Images/Happy/AF32HAS.jpg,Happy,Blue,Images/Blue.jpg,space,ParentConditions/YellowYellowBlue_v1.xlsx,YellowYellowBlue,Conditions/Version_1/YellowFearStop.xlsx,no,PASS,0.351428612146247,,,,,,,,,0,0,0,1,0,0,0,0,0,72,72,72,,,,,,,,,,,,,,,,,,,,,,,,,,,,,,,,,,,,,,,,,,,,,,,,,,,,,,,,,,,,,,,,,,,,,,,,,,,,,,,1.93,473.70896690001246,None,space,1,0.28733700001612306,475.75105060002534,None,475.75105060002534,None,475.75105060002534,None,,,,,,,,,,,P038,fencog,1,Pre,2022_Apr_26_1033,Go No-Go Task,2021.1.4,120.39663472220617,
,"Rule: When you see a yellow image, do not press 'spacebar'.",Images/Happy/AF11HAS.jpg,Happy,Blue,Images/Blue.jpg,space,ParentConditions/YellowYellowBlue_v1.xlsx,YellowYellowBlue,Conditions/Version_1/YellowFearStop.xlsx,no,PASS,0.5437174345826498,,,,,,,,,0,0,0,1,0,0,0,0,0,73,73,73,,,,,,,,,,,,,,,,,,,,,,,,,,,,,,,,,,,,,,,,,,,,,,,,,,,,,,,,,,,,,,,,,,,,,,,,,,,,,,,1.27,476.1507021000143,None,space,1,0.31287919997703284,477.5255301000434,None,477.5255301000434,None,477.5255301000434,None,,,,,,,,,,,P038,fencog,1,Pre,2022_Apr_26_1033,Go No-Go Task,2021.1.4,120.39663472220617,
,"Rule: When you see a yellow image, do not press 'spacebar'.",Images/Happy/AM19HAS.jpg,Happy,Blue,Images/Blue.jpg,space,ParentConditions/YellowYellowBlue_v1.xlsx,YellowYellowBlue,Conditions/Version_1/YellowFearStop.xlsx,no,PASS,0.4048546584074827,,,,,,,,,0,0,0,1,0,0,0,0,0,74,74,74,,,,,,,,,,,,,,,,,,,,,,,,,,,,,,,,,,,,,,,,,,,,,,,,,,,,,,,,,,,,,,,,,,,,,,,,,,,,,,,1.99,477.9264236000017,None,space,1,0.30153579998295754,480.024818600039,None,480.024818600039,None,480.024818600039,None,,,,,,,,,,,P038,fencog,1,Pre,2022_Apr_26_1033,Go No-Go Task,2021.1.4,120.39663472220617,
,"Rule: When you see a yellow image, do not press 'spacebar'.",Images/Happy/AM01HAS.jpg,Happy,Blue,Images/Blue.jpg,space,ParentConditions/YellowYellowBlue_v1.xlsx,YellowYellowBlue,Conditions/Version_1/YellowFearStop.xlsx,no,PASS,0.668098744931977,,,,,,,,,0,0,0,1,0,0,0,0,0,75,75,75,,,,,,,,,,,,,,,,,,,,,,,,,,,,,,,,,,,,,,,,,,,,,,,,,,,,,,,,,,,,,,,,,,,,,,,,,,,,,,,1.23,480.4182109000394,None,space,1,0.28093940002145246,481.757608600019,None,481.757608600019,None,481.757608600019,None,,,,,,,,,,,P038,fencog,1,Pre,2022_Apr_26_1033,Go No-Go Task,2021.1.4,120.39663472220617,
,"Rule: When you see a yellow image, do not press 'spacebar'.",Images/Happy/WF05_HC.jpg,Happy,Blue,Images/Blue.jpg,space,ParentConditions/YellowYellowBlue_v1.xlsx,YellowYellowBlue,Conditions/Version_1/YellowFearStop.xlsx,no,PASS,0.3346503168901146,,,,,,,,,0,0,0,1,0,0,0,0,0,76,76,76,,,,,,,,,,,,,,,,,,,,,,,,,,,,,,,,,,,,,,,,,,,,,,,,,,,,,,,,,,,,,,,,,,,,,,,,,,,,,,,1.75,482.1498349000467,None,space,1,0.342940800008364,484.0152731999988,None,484.0152731999988,None,484.0152731999988,None,,,,,,,,,,,P038,fencog,1,Pre,2022_Apr_26_1033,Go No-Go Task,2021.1.4,120.39663472220617,
,"Rule: When you see a yellow image, do not press 'spacebar'.",Images/Happy/BM03_HO.jpg,Happy,Blue,Images/Blue.jpg,space,ParentConditions/YellowYellowBlue_v1.xlsx,YellowYellowBlue,Conditions/Version_1/YellowFearStop.xlsx,no,PASS,0.8309182769230548,,,,,,,,,0,0,0,1,0,0,0,0,0,77,77,77,,,,,,,,,,,,,,,,,,,,,,,,,,,,,,,,,,,,,,,,,,,,,,,,,,,,,,,,,,,,,,,,,,,,,,,,,,,,,,,1.87,484.4096228000126,None,space,1,0.32071780000114813,486.38961090001976,None,486.38961090001976,None,486.38961090001976,None,,,,,,,,,,,P038,fencog,1,Pre,2022_Apr_26_1033,Go No-Go Task,2021.1.4,120.39663472220617,
,"Rule: When you see a yellow image, do not press 'spacebar'.",Images/Happy/AM02_HE.jpg,Happy,Blue,Images/Blue.jpg,space,ParentConditions/YellowYellowBlue_v1.xlsx,YellowYellowBlue,Conditions/Version_1/YellowFearStop.xlsx,no,PASS,0.732833616031058,,,,,,,,,0,0,0,1,0,0,0,0,0,78,78,78,,,,,,,,,,,,,,,,,,,,,,,,,,,,,,,,,,,,,,,,,,,,,,,,,,,,,,,,,,,,,,,,,,,,,,,,,,,,,,,1.26,486.7904948000214,None,space,1,0.2899324999889359,488.1723744000192,None,488.1723744000192,None,488.1723744000192,None,,,,,,,,,,,P038,fencog,1,Pre,2022_Apr_26_1033,Go No-Go Task,2021.1.4,120.39663472220617,
,"Rule: When you see a yellow image, do not press 'spacebar'.",Images/Fearful/AM06_FO.jpg,Fear,Yellow,Images/Yellow.jpg,None,ParentConditions/YellowYellowBlue_v1.xlsx,YellowYellowBlue,Conditions/Version_1/YellowFearStop.xlsx,yes,PASS,0.2239834878173258,,,,,,,,,0,0,0,1,0,0,0,0,0,79,79,79,,,,,,,,,,,,,,,,,,,,,,,,,,,,,,,,,,,,,,,,,,,,,,,,,,,,,,,,,,,,,,,,,,,,,,,,,,,,,,,1.44,488.56465559999924,None,None,1,,490.113509399991,None,490.113509399991,None,490.113509399991,None,,,,,,,,,,,P038,fencog,1,Pre,2022_Apr_26_1033,Go No-Go Task,2021.1.4,120.39663472220617,
,"Rule: When you see a yellow image, do not press 'spacebar'.",Images/Scram2/HM09_NC.jpg,Scramble,Blue,Images/Blue.jpg,space,ParentConditions/YellowYellowBlue_v1.xlsx,YellowYellowBlue,Conditions/Version_1/YellowScramStop.xlsx,no,PASS,0.16546209529303746,,,,,,,,,0,0,0,1,0,1,1,1,0,0,0,0,,,,,,,,,,,,,,,,,,,,,,,,,,,,,,,,,,,,,,,,,,,,,,,,,,,,,,,,,,,,,,,,,498.8423737999983,None,501.83443730004365,None,space,9.915937800018582,501.83443730004365,None,498.8423737999983,None,498.8423737999983,None,498.8423737999983,None,1.77,511.81071700004395,None,None,0,,513.6897172000026,None,513.6897172000026,None,513.6897172000026,None,490.52935680001974,None,space,7.801166899967939,491.0208981000469,None,490.52935680001974,None,490.52935680001974,None,P038,fencog,1,Pre,2022_Apr_26_1033,Go No-Go Task,2021.1.4,120.39663472220617,
,"Rule: When you see a yellow image, do not press 'spacebar'.",Images/Scram2/HM06_NC.jpg,Scramble,Blue,Images/Blue.jpg,space,ParentConditions/YellowYellowBlue_v1.xlsx,YellowYellowBlue,Conditions/Version_1/YellowScramStop.xlsx,no,PASS,0.8979675286244925,,,,,,,,,0,0,0,1,0,1,1,1,0,1,1,1,,,,,,,,,,,,,,,,,,,,,,,,,,,,,,,,,,,,,,,,,,,,,,,,,,,,,,,,,,,,,,,,,,,,,,,,,,,,,,,1.9,514.0850217000116,None,space,1,0.2772327999700792,516.0973617000272,None,516.0973617000272,None,516.0973617000272,None,,,,,,,,,,,P038,fencog,1,Pre,2022_Apr_26_1033,Go No-Go Task,2021.1.4,120.39663472220617,
,"Rule: When you see a yellow image, do not press 'spacebar'.",Images/Scram1/AM31NES.jpg,Scramble,Blue,Images/Blue.jpg,space,ParentConditions/YellowYellowBlue_v1.xlsx,YellowYellowBlue,Conditions/Version_1/YellowScramStop.xlsx,no,PASS,0.9231879679928262,,,,,,,,,0,0,0,1,0,1,1,1,0,2,2,2,,,,,,,,,,,,,,,,,,,,,,,,,,,,,,,,,,,,,,,,,,,,,,,,,,,,,,,,,,,,,,,,,,,,,,,,,,,,,,,1.62,516.4979280999978,None,space,1,0.2640294000157155,518.2302506000269,None,518.2302506000269,None,518.2302506000269,None,,,,,,,,,,,P038,fencog,1,Pre,2022_Apr_26_1033,Go No-Go Task,2021.1.4,120.39663472220617,
,"Rule: When you see a yellow image, do not press 'spacebar'.",Images/Scram2/AM03NES.jpg,Scramble,Yellow,Images/Yellow.jpg,None,ParentConditions/YellowYellowBlue_v1.xlsx,YellowYellowBlue,Conditions/Version_1/YellowScramStop.xlsx,yes,PASS,0.5123844621609239,,,,,,,,,0,0,0,1,0,1,1,1,0,3,3,3,,,,,,,,,,,,,,,,,,,,,,,,,,,,,,,,,,,,,,,,,,,,,,,,,,,,,,,,,,,,,,,,,,,,,,,,,,,,,,,1.46,518.6229681000113,None,None,1,,520.1878241000231,None,520.1878241000231,None,520.1878241000231,None,,,,,,,,,,,P038,fencog,1,Pre,2022_Apr_26_1033,Go No-Go Task,2021.1.4,120.39663472220617,
,"Rule: When you see a yellow image, do not press 'spacebar'.",Images/Scram2/BM01_NC.jpg,Scramble,Blue,Images/Blue.jpg,space,ParentConditions/YellowYellowBlue_v1.xlsx,YellowYellowBlue,Conditions/Version_1/YellowScramStop.xlsx,no,PASS,0.9647622626448304,,,,,,,,,0,0,0,1,0,1,1,1,0,4,4,4,,,,,,,,,,,,,,,,,,,,,,,,,,,,,,,,,,,,,,,,,,,,,,,,,,,,,,,,,,,,,,,,,,,,,,,,,,,,,,,1.94,520.5882490000222,None,space,1,0.22513419995084405,522.6372036000248,None,522.6372036000248,None,522.6372036000248,None,,,,,,,,,,,P038,fencog,1,Pre,2022_Apr_26_1033,Go No-Go Task,2021.1.4,120.39663472220617,
,"Rule: When you see a yellow image, do not press 'spacebar'.",Images/Scram1/HM09_NC.jpg,Scramble,Blue,Images/Blue.jpg,space,ParentConditions/YellowYellowBlue_v1.xlsx,YellowYellowBlue,Conditions/Version_1/YellowScramStop.xlsx,no,PASS,0.0006879251870249847,,,,,,,,,0,0,0,1,0,1,1,1,0,5,5,5,,,,,,,,,,,,,,,,,,,,,,,,,,,,,,,,,,,,,,,,,,,,,,,,,,,,,,,,,,,,,,,,,,,,,,,,,,,,,,,1.99,523.036917200021,None,space,1,0.2855411999626085,525.1365111000487,None,525.1365111000487,None,525.1365111000487,None,,,,,,,,,,,P038,fencog,1,Pre,2022_Apr_26_1033,Go No-Go Task,2021.1.4,120.39663472220617,
,"Rule: When you see a yellow image, do not press 'spacebar'.",Images/Scram2/BF07_NC.jpg,Scramble,Blue,Images/Blue.jpg,space,ParentConditions/YellowYellowBlue_v1.xlsx,YellowYellowBlue,Conditions/Version_1/YellowScramStop.xlsx,no,PASS,0.9958823679259557,,,,,,,,,0,0,0,1,0,1,1,1,0,6,6,6,,,,,,,,,,,,,,,,,,,,,,,,,,,,,,,,,,,,,,,,,,,,,,,,,,,,,,,,,,,,,,,,,,,,,,,,,,,,,,,1.75,525.535328500031,None,space,1,0.2760651999851689,527.3941880000057,None,527.3941880000057,None,527.3941880000057,None,,,,,,,,,,,P038,fencog,1,Pre,2022_Apr_26_1033,Go No-Go Task,2021.1.4,120.39663472220617,
,"Rule: When you see a yellow image, do not press 'spacebar'.",Images/Scram1/BF14_NC.jpg,Scramble,Blue,Images/Blue.jpg,space,ParentConditions/YellowYellowBlue_v1.xlsx,YellowYellowBlue,Conditions/Version_1/YellowScramStop.xlsx,no,PASS,0.23975965807979494,,,,,,,,,0,0,0,1,0,1,1,1,0,7,7,7,,,,,,,,,,,,,,,,,,,,,,,,,,,,,,,,,,,,,,,,,,,,,,,,,,,,,,,,,,,,,,,,,,,,,,,,,,,,,,,1.35,527.7930314000114,None,space,1,0.29861040000105277,529.2435869000037,None,529.2435869000037,None,529.2435869000037,None,,,,,,,,,,,P038,fencog,1,Pre,2022_Apr_26_1033,Go No-Go Task,2021.1.4,120.39663472220617,
,"Rule: When you see a yellow image, do not press 'spacebar'.",Images/Scram2/AF10_NC.jpg,Scramble,Blue,Images/Blue.jpg,space,ParentConditions/YellowYellowBlue_v1.xlsx,YellowYellowBlue,Conditions/Version_1/YellowScramStop.xlsx,no,PASS,0.23192838167496266,,,,,,,,,0,0,0,1,0,1,1,1,0,8,8,8,,,,,,,,,,,,,,,,,,,,,,,,,,,,,,,,,,,,,,,,,,,,,,,,,,,,,,,,,,,,,,,,,,,,,,,,,,,,,,,1.91,529.6433675000444,None,space,1,0.32266050000907853,531.6593655000324,None,531.6593655000324,None,531.6593655000324,None,,,,,,,,,,,P038,fencog,1,Pre,2022_Apr_26_1033,Go No-Go Task,2021.1.4,120.39663472220617,
,"Rule: When you see a yellow image, do not press 'spacebar'.",Images/Scram2/AF01_NC.jpg,Scramble,Blue,Images/Blue.jpg,space,ParentConditions/YellowYellowBlue_v1.xlsx,YellowYellowBlue,Conditions/Version_1/YellowScramStop.xlsx,no,PASS,0.030564678936407685,,,,,,,,,0,0,0,1,0,1,1,1,0,9,9,9,,,,,,,,,,,,,,,,,,,,,,,,,,,,,,,,,,,,,,,,,,,,,,,,,,,,,,,,,,,,,,,,,,,,,,,,,,,,,,,1.79,532.0581727999961,None,space,1,0.3113963999785483,533.958804599999,None,533.958804599999,None,533.958804599999,None,,,,,,,,,,,P038,fencog,1,Pre,2022_Apr_26_1033,Go No-Go Task,2021.1.4,120.39663472220617,
,"Rule: When you see a yellow image, do not press 'spacebar'.",Images/Scram2/AF24NES.jpg,Scramble,Blue,Images/Blue.jpg,space,ParentConditions/YellowYellowBlue_v1.xlsx,YellowYellowBlue,Conditions/Version_1/YellowScramStop.xlsx,no,PASS,0.3257124610951796,,,,,,,,,0,0,0,1,0,1,1,1,0,10,10,10,,,,,,,,,,,,,,,,,,,,,,,,,,,,,,,,,,,,,,,,,,,,,,,,,,,,,,,,,,,,,,,,,,,,,,,,,,,,,,,1.6,534.357950900041,None,space,1,0.3075247000087984,536.0665658999933,None,536.0665658999933,None,536.0665658999933,None,,,,,,,,,,,P038,fencog,1,Pre,2022_Apr_26_1033,Go No-Go Task,2021.1.4,120.39663472220617,
,"Rule: When you see a yellow image, do not press 'spacebar'.",Images/Scram2/BF14_NC.jpg,Scramble,Blue,Images/Blue.jpg,space,ParentConditions/YellowYellowBlue_v1.xlsx,YellowYellowBlue,Conditions/Version_1/YellowScramStop.xlsx,no,PASS,0.7452625323265352,,,,,,,,,0,0,0,1,0,1,1,1,0,11,11,11,,,,,,,,,,,,,,,,,,,,,,,,,,,,,,,,,,,,,,,,,,,,,,,,,,,,,,,,,,,,,,,,,,,,,,,,,,,,,,,1.88,536.4655050000292,None,space,1,0.2687265000422485,538.457444700005,None,538.457444700005,None,538.457444700005,None,,,,,,,,,,,P038,fencog,1,Pre,2022_Apr_26_1033,Go No-Go Task,2021.1.4,120.39663472220617,
,"Rule: When you see a yellow image, do not press 'spacebar'.",Images/Scram1/AM13NES.jpg,Scramble,Blue,Images/Blue.jpg,space,ParentConditions/YellowYellowBlue_v1.xlsx,YellowYellowBlue,Conditions/Version_1/YellowScramStop.xlsx,no,PASS,0.49399354825257,,,,,,,,,0,0,0,1,0,1,1,1,0,12,12,12,,,,,,,,,,,,,,,,,,,,,,,,,,,,,,,,,,,,,,,,,,,,,,,,,,,,,,,,,,,,,,,,,,,,,,,,,,,,,,,1.78,538.856338600046,None,space,1,0.31392759998561814,540.7322343999986,None,540.7322343999986,None,540.7322343999986,None,,,,,,,,,,,P038,fencog,1,Pre,2022_Apr_26_1033,Go No-Go Task,2021.1.4,120.39663472220617,
,"Rule: When you see a yellow image, do not press 'spacebar'.",Images/Scram1/HM04_NC.jpg,Scramble,Blue,Images/Blue.jpg,space,ParentConditions/YellowYellowBlue_v1.xlsx,YellowYellowBlue,Conditions/Version_1/YellowScramStop.xlsx,no,PASS,0.18467466618813977,,,,,,,,,0,0,0,1,0,1,1,1,0,13,13,13,,,,,,,,,,,,,,,,,,,,,,,,,,,,,,,,,,,,,,,,,,,,,,,,,,,,,,,,,,,,,,,,,,,,,,,,,,,,,,,1.97,541.1367485999945,None,space,1,0.2714640999911353,543.2227620999911,None,543.2227620999911,None,543.2227620999911,None,,,,,,,,,,,P038,fencog,1,Pre,2022_Apr_26_1033,Go No-Go Task,2021.1.4,120.39663472220617,
,"Rule: When you see a yellow image, do not press 'spacebar'.",Images/Scram1/AM03NES.jpg,Scramble,Blue,Images/Blue.jpg,space,ParentConditions/YellowYellowBlue_v1.xlsx,YellowYellowBlue,Conditions/Version_1/YellowScramStop.xlsx,no,PASS,0.036392655954534225,,,,,,,,,0,0,0,1,0,1,1,1,0,14,14,14,,,,,,,,,,,,,,,,,,,,,,,,,,,,,,,,,,,,,,,,,,,,,,,,,,,,,,,,,,,,,,,,,,,,,,,,,,,,,,,1.54,543.621603000036,None,space,1,0.2706076999893412,545.2554680000176,None,545.2554680000176,None,545.2554680000176,None,,,,,,,,,,,P038,fencog,1,Pre,2022_Apr_26_1033,Go No-Go Task,2021.1.4,120.39663472220617,
,"Rule: When you see a yellow image, do not press 'spacebar'.",Images/Scram1/AM22NES.jpg,Scramble,Blue,Images/Blue.jpg,space,ParentConditions/YellowYellowBlue_v1.xlsx,YellowYellowBlue,Conditions/Version_1/YellowScramStop.xlsx,no,PASS,0.46426586463932284,,,,,,,,,0,0,0,1,0,1,1,1,0,15,15,15,,,,,,,,,,,,,,,,,,,,,,,,,,,,,,,,,,,,,,,,,,,,,,,,,,,,,,,,,,,,,,,,,,,,,,,,,,,,,,,1.95,545.6570928000147,None,space,1,0.2929102000198327,547.7214733000146,None,547.7214733000146,None,547.7214733000146,None,,,,,,,,,,,P038,fencog,1,Pre,2022_Apr_26_1033,Go No-Go Task,2021.1.4,120.39663472220617,
,"Rule: When you see a yellow image, do not press 'spacebar'.",Images/Scram2/AM17NES.jpg,Scramble,Yellow,Images/Yellow.jpg,None,ParentConditions/YellowYellowBlue_v1.xlsx,YellowYellowBlue,Conditions/Version_1/YellowScramStop.xlsx,yes,PASS,0.9679079792094736,,,,,,,,,0,0,0,1,0,1,1,1,0,16,16,16,,,,,,,,,,,,,,,,,,,,,,,,,,,,,,,,,,,,,,,,,,,,,,,,,,,,,,,,,,,,,,,,,,,,,,,,,,,,,,,1.5,548.1140171000152,None,None,1,,549.7374427000177,None,549.7374427000177,None,549.7374427000177,None,,,,,,,,,,,P038,fencog,1,Pre,2022_Apr_26_1033,Go No-Go Task,2021.1.4,120.39663472220617,
,"Rule: When you see a yellow image, do not press 'spacebar'.",Images/Scram1/AM10NES.jpg,Scramble,Blue,Images/Blue.jpg,space,ParentConditions/YellowYellowBlue_v1.xlsx,YellowYellowBlue,Conditions/Version_1/YellowScramStop.xlsx,no,PASS,0.60606204058038,,,,,,,,,0,0,0,1,0,1,1,1,0,17,17,17,,,,,,,,,,,,,,,,,,,,,,,,,,,,,,,,,,,,,,,,,,,,,,,,,,,,,,,,,,,,,,,,,,,,,,,,,,,,,,,1.39,550.128022400022,None,space,1,0.2097574999788776,551.6285349000245,None,551.6285349000245,None,551.6285349000245,None,,,,,,,,,,,P038,fencog,1,Pre,2022_Apr_26_1033,Go No-Go Task,2021.1.4,120.39663472220617,
,"Rule: When you see a yellow image, do not press 'spacebar'.",Images/Scram2/AM03_NC.jpg,Scramble,Yellow,Images/Yellow.jpg,None,ParentConditions/YellowYellowBlue_v1.xlsx,YellowYellowBlue,Conditions/Version_1/YellowScramStop.xlsx,yes,PASS,0.375029210281841,,,,,,,,,0,0,0,1,0,1,1,1,0,18,18,18,,,,,,,,,,,,,,,,,,,,,,,,,,,,,,,,,,,,,,,,,,,,,,,,,,,,,,,,,,,,,,,,,,,,,,,,,,,,,,,1.83,552.0223143000039,None,None,1,,553.9528636000468,None,553.9528636000468,None,553.9528636000468,None,,,,,,,,,,,P038,fencog,1,Pre,2022_Apr_26_1033,Go No-Go Task,2021.1.4,120.39663472220617,
,"Rule: When you see a yellow image, do not press 'spacebar'.",Images/Scram1/HF09_NC.jpg,Scramble,Blue,Images/Blue.jpg,space,ParentConditions/YellowYellowBlue_v1.xlsx,YellowYellowBlue,Conditions/Version_1/YellowScramStop.xlsx,no,PASS,0.5505947352432977,,,,,,,,,0,0,0,1,0,1,1,1,0,19,19,19,,,,,,,,,,,,,,,,,,,,,,,,,,,,,,,,,,,,,,,,,,,,,,,,,,,,,,,,,,,,,,,,,,,,,,,,,,,,,,,1.25,554.3545961999916,None,space,1,0.2954084000084549,555.7106962000253,None,555.7106962000253,None,555.7106962000253,None,,,,,,,,,,,P038,fencog,1,Pre,2022_Apr_26_1033,Go No-Go Task,2021.1.4,120.39663472220617,
,"Rule: When you see a yellow image, do not press 'spacebar'.",Images/Scram1/BM08_NC.jpg,Scramble,Blue,Images/Blue.jpg,space,ParentConditions/YellowYellowBlue_v1.xlsx,YellowYellowBlue,Conditions/Version_1/YellowScramStop.xlsx,no,PASS,0.1123919377407171,,,,,,,,,0,0,0,1,0,1,1,1,0,20,20,20,,,,,,,,,,,,,,,,,,,,,,,,,,,,,,,,,,,,,,,,,,,,,,,,,,,,,,,,,,,,,,,,,,,,,,,,,,,,,,,1.44,556.1141872000298,None,space,1,0.3458954999805428,557.660071499995,None,557.660071499995,None,557.660071499995,None,,,,,,,,,,,P038,fencog,1,Pre,2022_Apr_26_1033,Go No-Go Task,2021.1.4,120.39663472220617,
,"Rule: When you see a yellow image, do not press 'spacebar'.",Images/Scram1/AF32NES.jpg,Scramble,Blue,Images/Blue.jpg,space,ParentConditions/YellowYellowBlue_v1.xlsx,YellowYellowBlue,Conditions/Version_1/YellowScramStop.xlsx,no,PASS,0.6647641829322217,,,,,,,,,0,0,0,1,0,1,1,1,0,21,21,21,,,,,,,,,,,,,,,,,,,,,,,,,,,,,,,,,,,,,,,,,,,,,,,,,,,,,,,,,,,,,,,,,,,,,,,,,,,,,,,1.96,558.0604697000235,None,space,1,0.29565520002506673,560.134366000013,None,560.134366000013,None,560.134366000013,None,,,,,,,,,,,P038,fencog,1,Pre,2022_Apr_26_1033,Go No-Go Task,2021.1.4,120.39663472220617,
,"Rule: When you see a yellow image, do not press 'spacebar'.",Images/Scram2/AM06_NC.jpg,Scramble,Yellow,Images/Yellow.jpg,None,ParentConditions/YellowYellowBlue_v1.xlsx,YellowYellowBlue,Conditions/Version_1/YellowScramStop.xlsx,yes,PASS,0.3634874867374246,,,,,,,,,0,0,0,1,0,1,1,1,0,22,22,22,,,,,,,,,,,,,,,,,,,,,,,,,,,,,,,,,,,,,,,,,,,,,,,,,,,,,,,,,,,,,,,,,,,,,,,,,,,,,,,1.57,560.5370294000022,None,space,0,0.3650412999559194,562.2171079000109,None,562.2171079000109,None,562.2171079000109,None,,,,,,,,,,,P038,fencog,1,Pre,2022_Apr_26_1033,Go No-Go Task,2021.1.4,120.39663472220617,
,"Rule: When you see a yellow image, do not press 'spacebar'.",Images/Scram1/AM06_NC.jpg,Scramble,Blue,Images/Blue.jpg,space,ParentConditions/YellowYellowBlue_v1.xlsx,YellowYellowBlue,Conditions/Version_1/YellowScramStop.xlsx,no,PASS,0.9155941996303448,,,,,,,,,0,0,0,1,0,1,1,1,0,23,23,23,,,,,,,,,,,,,,,,,,,,,,,,,,,,,,,,,,,,,,,,,,,,,,,,,,,,,,,,,,,,,,,,,,,,,,,,,,,,,,,1.87,562.6171158000361,None,None,0,,564.5997528000153,None,564.5997528000153,None,564.5997528000153,None,,,,,,,,,,,P038,fencog,1,Pre,2022_Apr_26_1033,Go No-Go Task,2021.1.4,120.39663472220617,
,"Rule: When you see a yellow image, do not press 'spacebar'.",Images/Scram2/AM02_NC.jpg,Scramble,Yellow,Images/Yellow.jpg,None,ParentConditions/YellowYellowBlue_v1.xlsx,YellowYellowBlue,Conditions/Version_1/YellowScramStop.xlsx,yes,PASS,0.40349662212467063,,,,,,,,,0,0,0,1,0,1,1,1,0,24,24,24,,,,,,,,,,,,,,,,,,,,,,,,,,,,,,,,,,,,,,,,,,,,,,,,,,,,,,,,,,,,,,,,,,,,,,,,,,,,,,,1.41,564.9985626999987,None,None,1,,566.5158068000455,None,566.5158068000455,None,566.5158068000455,None,,,,,,,,,,,P038,fencog,1,Pre,2022_Apr_26_1033,Go No-Go Task,2021.1.4,120.39663472220617,
,"Rule: When you see a yellow image, do not press 'spacebar'.",Images/Scram2/HF05_NC.jpg,Scramble,Blue,Images/Blue.jpg,space,ParentConditions/YellowYellowBlue_v1.xlsx,YellowYellowBlue,Conditions/Version_1/YellowScramStop.xlsx,no,PASS,0.921711635827277,,,,,,,,,0,0,0,1,0,1,1,1,0,25,25,25,,,,,,,,,,,,,,,,,,,,,,,,,,,,,,,,,,,,,,,,,,,,,,,,,,,,,,,,,,,,,,,,,,,,,,,,,,,,,,,1.8,566.9185354000074,None,space,1,0.3108520000241697,568.8317749000271,None,568.8317749000271,None,568.8317749000271,None,,,,,,,,,,,P038,fencog,1,Pre,2022_Apr_26_1033,Go No-Go Task,2021.1.4,120.39663472220617,
,"Rule: When you see a yellow image, do not press 'spacebar'.",Images/Scram2/AF32NES.jpg,Scramble,Yellow,Images/Yellow.jpg,None,ParentConditions/YellowYellowBlue_v1.xlsx,YellowYellowBlue,Conditions/Version_1/YellowScramStop.xlsx,yes,PASS,0.017466824187156504,,,,,,,,,0,0,0,1,0,1,1,1,0,26,26,26,,,,,,,,,,,,,,,,,,,,,,,,,,,,,,,,,,,,,,,,,,,,,,,,,,,,,,,,,,,,,,,,,,,,,,,,,,,,,,,1.65,569.2345204000012,None,None,1,,570.9891192000359,None,570.9891192000359,None,570.9891192000359,None,,,,,,,,,,,P038,fencog,1,Pre,2022_Apr_26_1033,Go No-Go Task,2021.1.4,120.39663472220617,
,"Rule: When you see a yellow image, do not press 'spacebar'.",Images/Scram2/HM04_NC.jpg,Scramble,Blue,Images/Blue.jpg,space,ParentConditions/YellowYellowBlue_v1.xlsx,YellowYellowBlue,Conditions/Version_1/YellowScramStop.xlsx,no,PASS,0.5736341227927889,,,,,,,,,0,0,0,1,0,1,1,1,0,27,27,27,,,,,,,,,,,,,,,,,,,,,,,,,,,,,,,,,,,,,,,,,,,,,,,,,,,,,,,,,,,,,,,,,,,,,,,,,,,,,,,1.84,571.3903910000226,None,space,1,0.2909174999804236,573.3471353999921,None,573.3471353999921,None,573.3471353999921,None,,,,,,,,,,,P038,fencog,1,Pre,2022_Apr_26_1033,Go No-Go Task,2021.1.4,120.39663472220617,
,"Rule: When you see a yellow image, do not press 'spacebar'.",Images/Scram2/AF25NES.jpg,Scramble,Blue,Images/Blue.jpg,space,ParentConditions/YellowYellowBlue_v1.xlsx,YellowYellowBlue,Conditions/Version_1/YellowScramStop.xlsx,no,PASS,0.4815009065668029,,,,,,,,,0,0,0,1,0,1,1,1,0,28,28,28,,,,,,,,,,,,,,,,,,,,,,,,,,,,,,,,,,,,,,,,,,,,,,,,,,,,,,,,,,,,,,,,,,,,,,,,,,,,,,,1.51,573.7461959000211,None,None,0,,575.363182400004,None,575.363182400004,None,575.363182400004,None,,,,,,,,,,,P038,fencog,1,Pre,2022_Apr_26_1033,Go No-Go Task,2021.1.4,120.39663472220617,
,"Rule: When you see a yellow image, do not press 'spacebar'.",Images/Scram1/AF34NES.jpg,Scramble,Blue,Images/Blue.jpg,space,ParentConditions/YellowYellowBlue_v1.xlsx,YellowYellowBlue,Conditions/Version_1/YellowScramStop.xlsx,no,PASS,0.16322109337010782,,,,,,,,,0,0,0,1,0,1,1,1,0,29,29,29,,,,,,,,,,,,,,,,,,,,,,,,,,,,,,,,,,,,,,,,,,,,,,,,,,,,,,,,,,,,,,,,,,,,,,,,,,,,,,,1.26,575.7640377000207,None,space,1,0.3403233999852091,577.1376424000482,None,577.1376424000482,None,577.1376424000482,None,,,,,,,,,,,P038,fencog,1,Pre,2022_Apr_26_1033,Go No-Go Task,2021.1.4,120.39663472220617,
,"Rule: When you see a yellow image, do not press 'spacebar'.",Images/Scram2/AF11NES.jpg,Scramble,Blue,Images/Blue.jpg,space,ParentConditions/YellowYellowBlue_v1.xlsx,YellowYellowBlue,Conditions/Version_1/YellowScramStop.xlsx,no,PASS,0.863906943339551,,,,,,,,,0,0,0,1,0,1,1,1,0,30,30,30,,,,,,,,,,,,,,,,,,,,,,,,,,,,,,,,,,,,,,,,,,,,,,,,,,,,,,,,,,,,,,,,,,,,,,,,,,,,,,,1.89,577.5365766000468,None,space,1,0.3247710000141524,579.5369940000237,None,579.5369940000237,None,579.5369940000237,None,,,,,,,,,,,P038,fencog,1,Pre,2022_Apr_26_1033,Go No-Go Task,2021.1.4,120.39663472220617,
,"Rule: When you see a yellow image, do not press 'spacebar'.",Images/Scram2/AF34NES.jpg,Scramble,Yellow,Images/Yellow.jpg,None,ParentConditions/YellowYellowBlue_v1.xlsx,YellowYellowBlue,Conditions/Version_1/YellowScramStop.xlsx,yes,PASS,0.06159009202316168,,,,,,,,,0,0,0,1,0,1,1,1,0,31,31,31,,,,,,,,,,,,,,,,,,,,,,,,,,,,,,,,,,,,,,,,,,,,,,,,,,,,,,,,,,,,,,,,,,,,,,,,,,,,,,,1.72,579.935798600025,None,None,1,,581.7696134000435,None,581.7696134000435,None,581.7696134000435,None,,,,,,,,,,,P038,fencog,1,Pre,2022_Apr_26_1033,Go No-Go Task,2021.1.4,120.39663472220617,
,"Rule: When you see a yellow image, do not press 'spacebar'.",Images/Scram1/AM02_NC.jpg,Scramble,Blue,Images/Blue.jpg,space,ParentConditions/YellowYellowBlue_v1.xlsx,YellowYellowBlue,Conditions/Version_1/YellowScramStop.xlsx,no,PASS,0.7758508003758968,,,,,,,,,0,0,0,1,0,1,1,1,0,32,32,32,,,,,,,,,,,,,,,,,,,,,,,,,,,,,,,,,,,,,,,,,,,,,,,,,,,,,,,,,,,,,,,,,,,,,,,,,,,,,,,1.92,582.1692432000418,None,space,1,0.33967389998724684,584.2024042000412,None,584.2024042000412,None,584.2024042000412,None,,,,,,,,,,,P038,fencog,1,Pre,2022_Apr_26_1033,Go No-Go Task,2021.1.4,120.39663472220617,
,"Rule: When you see a yellow image, do not press 'spacebar'.",Images/Scram2/AM13NES.jpg,Scramble,Yellow,Images/Yellow.jpg,None,ParentConditions/YellowYellowBlue_v1.xlsx,YellowYellowBlue,Conditions/Version_1/YellowScramStop.xlsx,yes,PASS,0.6726515097084437,,,,,,,,,0,0,0,1,0,1,1,1,0,33,33,33,,,,,,,,,,,,,,,,,,,,,,,,,,,,,,,,,,,,,,,,,,,,,,,,,,,,,,,,,,,,,,,,,,,,,,,,,,,,,,,1.52,584.5947339000413,None,None,1,,586.22664790001,None,586.22664790001,None,586.22664790001,None,,,,,,,,,,,P038,fencog,1,Pre,2022_Apr_26_1033,Go No-Go Task,2021.1.4,120.39663472220617,
,"Rule: When you see a yellow image, do not press 'spacebar'.",Images/Scram1/AM03_NC.jpg,Scramble,Blue,Images/Blue.jpg,space,ParentConditions/YellowYellowBlue_v1.xlsx,YellowYellowBlue,Conditions/Version_1/YellowScramStop.xlsx,no,PASS,0.060310837369876635,,,,,,,,,0,0,0,1,0,1,1,1,0,34,34,34,,,,,,,,,,,,,,,,,,,,,,,,,,,,,,,,,,,,,,,,,,,,,,,,,,,,,,,,,,,,,,,,,,,,,,,,,,,,,,,1.55,586.6256079000304,None,space,1,0.27370080002583563,588.2843610999989,None,588.2843610999989,None,588.2843610999989,None,,,,,,,,,,,P038,fencog,1,Pre,2022_Apr_26_1033,Go No-Go Task,2021.1.4,120.39663472220617,
,"Rule: When you see a yellow image, do not press 'spacebar'.",Images/Scram1/AF33NES.jpg,Scramble,Blue,Images/Blue.jpg,space,ParentConditions/YellowYellowBlue_v1.xlsx,YellowYellowBlue,Conditions/Version_1/YellowScramStop.xlsx,no,PASS,0.9883395332949252,,,,,,,,,0,0,0,1,0,1,1,1,0,35,35,35,,,,,,,,,,,,,,,,,,,,,,,,,,,,,,,,,,,,,,,,,,,,,,,,,,,,,,,,,,,,,,,,,,,,,,,,,,,,,,,1.2,588.6833249999909,None,space,1,0.3339947999920696,589.9921653000056,None,589.9921653000056,None,589.9921653000056,None,,,,,,,,,,,P038,fencog,1,Pre,2022_Apr_26_1033,Go No-Go Task,2021.1.4,120.39663472220617,
,"Rule: When you see a yellow image, do not press 'spacebar'.",Images/Scram1/BF10_NC.jpg,Scramble,Blue,Images/Blue.jpg,space,ParentConditions/YellowYellowBlue_v1.xlsx,YellowYellowBlue,Conditions/Version_1/YellowScramStop.xlsx,no,PASS,0.832283926857634,,,,,,,,,0,0,0,1,0,1,1,1,0,36,36,36,,,,,,,,,,,,,,,,,,,,,,,,,,,,,,,,,,,,,,,,,,,,,,,,,,,,,,,,,,,,,,,,,,,,,,,,,,,,,,,1.3,590.391545600025,None,space,1,0.3018974000005983,591.8082134000142,None,591.8082134000142,None,591.8082134000142,None,,,,,,,,,,,P038,fencog,1,Pre,2022_Apr_26_1033,Go No-Go Task,2021.1.4,120.39663472220617,
,"Rule: When you see a yellow image, do not press 'spacebar'.",Images/Scram1/AF07_NC.jpg,Scramble,Blue,Images/Blue.jpg,space,ParentConditions/YellowYellowBlue_v1.xlsx,YellowYellowBlue,Conditions/Version_1/YellowScramStop.xlsx,no,PASS,0.9763895949527831,,,,,,,,,0,0,0,1,0,1,1,1,0,37,37,37,,,,,,,,,,,,,,,,,,,,,,,,,,,,,,,,,,,,,,,,,,,,,,,,,,,,,,,,,,,,,,,,,,,,,,,,,,,,,,,1.58,592.2078676000237,None,space,1,0.3305631999974139,593.8994463999989,None,593.8994463999989,None,593.8994463999989,None,,,,,,,,,,,P038,fencog,1,Pre,2022_Apr_26_1033,Go No-Go Task,2021.1.4,120.39663472220617,
,"Rule: When you see a yellow image, do not press 'spacebar'.",Images/Scram2/AM23NES.jpg,Scramble,Yellow,Images/Yellow.jpg,None,ParentConditions/YellowYellowBlue_v1.xlsx,YellowYellowBlue,Conditions/Version_1/YellowScramStop.xlsx,yes,PASS,0.6002481140469051,,,,,,,,,0,0,0,1,0,1,1,1,0,38,38,38,,,,,,,,,,,,,,,,,,,,,,,,,,,,,,,,,,,,,,,,,,,,,,,,,,,,,,,,,,,,,,,,,,,,,,,,,,,,,,,1.43,594.2922846000292,None,None,1,,595.8321991999983,None,595.8321991999983,None,595.8321991999983,None,,,,,,,,,,,P038,fencog,1,Pre,2022_Apr_26_1033,Go No-Go Task,2021.1.4,120.39663472220617,
,"Rule: When you see a yellow image, do not press 'spacebar'.",Images/Scram1/AF24NES.jpg,Scramble,Blue,Images/Blue.jpg,space,ParentConditions/YellowYellowBlue_v1.xlsx,YellowYellowBlue,Conditions/Version_1/YellowScramStop.xlsx,no,PASS,0.1129494583795736,,,,,,,,,0,0,0,1,0,1,1,1,0,39,39,39,,,,,,,,,,,,,,,,,,,,,,,,,,,,,,,,,,,,,,,,,,,,,,,,,,,,,,,,,,,,,,,,,,,,,,,,,,,,,,,1.85,596.2312136000255,None,space,1,0.216672100010328,598.1814985999954,None,598.1814985999954,None,598.1814985999954,None,,,,,,,,,,,P038,fencog,1,Pre,2022_Apr_26_1033,Go No-Go Task,2021.1.4,120.39663472220617,
,"Rule: When you see a yellow image, do not press 'spacebar'.",Images/Scram2/AF33NES.jpg,Scramble,Yellow,Images/Yellow.jpg,None,ParentConditions/YellowYellowBlue_v1.xlsx,YellowYellowBlue,Conditions/Version_1/YellowScramStop.xlsx,yes,PASS,0.8037537420652296,,,,,,,,,0,0,0,1,0,1,1,1,0,40,40,40,,,,,,,,,,,,,,,,,,,,,,,,,,,,,,,,,,,,,,,,,,,,,,,,,,,,,,,,,,,,,,,,,,,,,,,,,,,,,,,1.31,598.5821103000198,None,None,1,,600.0059200000251,None,600.0059200000251,None,600.0059200000251,None,,,,,,,,,,,P038,fencog,1,Pre,2022_Apr_26_1033,Go No-Go Task,2021.1.4,120.39663472220617,
,"Rule: When you see a yellow image, do not press 'spacebar'.",Images/Scram1/AF25NES.jpg,Scramble,Blue,Images/Blue.jpg,space,ParentConditions/YellowYellowBlue_v1.xlsx,YellowYellowBlue,Conditions/Version_1/YellowScramStop.xlsx,no,PASS,0.14378736257712743,,,,,,,,,0,0,0,1,0,1,1,1,0,41,41,41,,,,,,,,,,,,,,,,,,,,,,,,,,,,,,,,,,,,,,,,,,,,,,,,,,,,,,,,,,,,,,,,,,,,,,,,,,,,,,,1.24,600.4065990000381,None,space,1,0.28269449999788776,601.7553542000242,None,601.7553542000242,None,601.7553542000242,None,,,,,,,,,,,P038,fencog,1,Pre,2022_Apr_26_1033,Go No-Go Task,2021.1.4,120.39663472220617,
,"Rule: When you see a yellow image, do not press 'spacebar'.",Images/Scram2/AM10NES.jpg,Scramble,Yellow,Images/Yellow.jpg,None,ParentConditions/YellowYellowBlue_v1.xlsx,YellowYellowBlue,Conditions/Version_1/YellowScramStop.xlsx,yes,PASS,0.5820319295028303,,,,,,,,,0,0,0,1,0,1,1,1,0,42,42,42,,,,,,,,,,,,,,,,,,,,,,,,,,,,,,,,,,,,,,,,,,,,,,,,,,,,,,,,,,,,,,,,,,,,,,,,,,,,,,,1.4,602.1542805000208,None,None,1,,603.6631176000228,None,603.6631176000228,None,603.6631176000228,None,,,,,,,,,,,P038,fencog,1,Pre,2022_Apr_26_1033,Go No-Go Task,2021.1.4,120.39663472220617,
,"Rule: When you see a yellow image, do not press 'spacebar'.",Images/Scram2/BF10_NC.jpg,Scramble,Blue,Images/Blue.jpg,space,ParentConditions/YellowYellowBlue_v1.xlsx,YellowYellowBlue,Conditions/Version_1/YellowScramStop.xlsx,no,PASS,0.2078164907866934,,,,,,,,,0,0,0,1,0,1,1,1,0,43,43,43,,,,,,,,,,,,,,,,,,,,,,,,,,,,,,,,,,,,,,,,,,,,,,,,,,,,,,,,,,,,,,,,,,,,,,,,,,,,,,,1.59,604.0620012000436,None,space,1,0.12381920003099367,605.7624765000073,None,605.7624765000073,None,605.7624765000073,None,,,,,,,,,,,P038,fencog,1,Pre,2022_Apr_26_1033,Go No-Go Task,2021.1.4,120.39663472220617,
,"Rule: When you see a yellow image, do not press 'spacebar'.",Images/Scram1/BF18_NC.jpg,Scramble,Blue,Images/Blue.jpg,space,ParentConditions/YellowYellowBlue_v1.xlsx,YellowYellowBlue,Conditions/Version_1/YellowScramStop.xlsx,no,PASS,0.3689261099445472,,,,,,,,,0,0,0,1,0,1,1,1,0,44,44,44,,,,,,,,,,,,,,,,,,,,,,,,,,,,,,,,,,,,,,,,,,,,,,,,,,,,,,,,,,,,,,,,,,,,,,,,,,,,,,,1.74,606.1615153000457,None,space,1,0.31405779998749495,608.0118365000235,None,608.0118365000235,None,608.0118365000235,None,,,,,,,,,,,P038,fencog,1,Pre,2022_Apr_26_1033,Go No-Go Task,2021.1.4,120.39663472220617,
,"Rule: When you see a yellow image, do not press 'spacebar'.",Images/Scram2/HF09_NC.jpg,Scramble,Blue,Images/Blue.jpg,space,ParentConditions/YellowYellowBlue_v1.xlsx,YellowYellowBlue,Conditions/Version_1/YellowScramStop.xlsx,no,PASS,0.286178806367275,,,,,,,,,0,0,0,1,0,1,1,1,0,45,45,45,,,,,,,,,,,,,,,,,,,,,,,,,,,,,,,,,,,,,,,,,,,,,,,,,,,,,,,,,,,,,,,,,,,,,,,,,,,,,,,1.53,608.4108064000029,None,space,1,0.29700969997793436,610.0528258000268,None,610.0528258000268,None,610.0528258000268,None,,,,,,,,,,,P038,fencog,1,Pre,2022_Apr_26_1033,Go No-Go Task,2021.1.4,120.39663472220617,
,"Rule: When you see a yellow image, do not press 'spacebar'.",Images/Scram1/BF05_NC.jpg,Scramble,Blue,Images/Blue.jpg,space,ParentConditions/YellowYellowBlue_v1.xlsx,YellowYellowBlue,Conditions/Version_1/YellowScramStop.xlsx,no,PASS,0.7692637816145413,,,,,,,,,0,0,0,1,0,1,1,1,0,46,46,46,,,,,,,,,,,,,,,,,,,,,,,,,,,,,,,,,,,,,,,,,,,,,,,,,,,,,,,,,,,,,,,,,,,,,,,,,,,,,,,1.37,610.4517707999912,None,space,1,0.27042150002671406,611.9356615000288,None,611.9356615000288,None,611.9356615000288,None,,,,,,,,,,,P038,fencog,1,Pre,2022_Apr_26_1033,Go No-Go Task,2021.1.4,120.39663472220617,
,"Rule: When you see a yellow image, do not press 'spacebar'.",Images/Scram1/AM17NES.jpg,Scramble,Blue,Images/Blue.jpg,space,ParentConditions/YellowYellowBlue_v1.xlsx,YellowYellowBlue,Conditions/Version_1/YellowScramStop.xlsx,no,PASS,0.7553300637440975,,,,,,,,,0,0,0,1,0,1,1,1,0,47,47,47,,,,,,,,,,,,,,,,,,,,,,,,,,,,,,,,,,,,,,,,,,,,,,,,,,,,,,,,,,,,,,,,,,,,,,,,,,,,,,,1.67,612.3344412000151,None,space,1,0.2802242999896407,614.1182928000344,None,614.1182928000344,None,614.1182928000344,None,,,,,,,,,,,P038,fencog,1,Pre,2022_Apr_26_1033,Go No-Go Task,2021.1.4,120.39663472220617,
,"Rule: When you see a yellow image, do not press 'spacebar'.",Images/Scram2/AM09_NC.jpg,Scramble,Yellow,Images/Yellow.jpg,None,ParentConditions/YellowYellowBlue_v1.xlsx,YellowYellowBlue,Conditions/Version_1/YellowScramStop.xlsx,yes,PASS,0.984865364539922,,,,,,,,,0,0,0,1,0,1,1,1,0,48,48,48,,,,,,,,,,,,,,,,,,,,,,,,,,,,,,,,,,,,,,,,,,,,,,,,,,,,,,,,,,,,,,,,,,,,,,,,,,,,,,,1.66,614.5212297000107,None,space,0,0.26568130002124235,616.2842868000153,None,616.2842868000153,None,616.2842868000153,None,,,,,,,,,,,P038,fencog,1,Pre,2022_Apr_26_1033,Go No-Go Task,2021.1.4,120.39663472220617,
,"Rule: When you see a yellow image, do not press 'spacebar'.",Images/Scram2/AF09NES.jpg,Scramble,Blue,Images/Blue.jpg,space,ParentConditions/YellowYellowBlue_v1.xlsx,YellowYellowBlue,Conditions/Version_1/YellowScramStop.xlsx,no,PASS,0.2099853615180053,,,,,,,,,0,0,0,1,0,1,1,1,0,49,49,49,,,,,,,,,,,,,,,,,,,,,,,,,,,,,,,,,,,,,,,,,,,,,,,,,,,,,,,,,,,,,,,,,,,,,,,,,,,,,,,1.49,616.7269933000207,None,space,1,0.2645104000112042,618.3254437000141,None,618.3254437000141,None,618.3254437000141,None,,,,,,,,,,,P038,fencog,1,Pre,2022_Apr_26_1033,Go No-Go Task,2021.1.4,120.39663472220617,
,"Rule: When you see a yellow image, do not press 'spacebar'.",Images/Scram2/AM04_NC.jpg,Scramble,Yellow,Images/Yellow.jpg,None,ParentConditions/YellowYellowBlue_v1.xlsx,YellowYellowBlue,Conditions/Version_1/YellowScramStop.xlsx,yes,PASS,0.8595632143536898,,,,,,,,,0,0,0,1,0,1,1,1,0,50,50,50,,,,,,,,,,,,,,,,,,,,,,,,,,,,,,,,,,,,,,,,,,,,,,,,,,,,,,,,,,,,,,,,,,,,,,,,,,,,,,,1.81,618.7248653999995,None,None,1,,620.6497294000001,None,620.6497294000001,None,620.6497294000001,None,,,,,,,,,,,P038,fencog,1,Pre,2022_Apr_26_1033,Go No-Go Task,2021.1.4,120.39663472220617,
,"Rule: When you see a yellow image, do not press 'spacebar'.",Images/Scram2/BF05_NC.jpg,Scramble,Yellow,Images/Yellow.jpg,None,ParentConditions/YellowYellowBlue_v1.xlsx,YellowYellowBlue,Conditions/Version_1/YellowScramStop.xlsx,yes,PASS,0.9038892448018151,,,,,,,,,0,0,0,1,0,1,1,1,0,51,51,51,,,,,,,,,,,,,,,,,,,,,,,,,,,,,,,,,,,,,,,,,,,,,,,,,,,,,,,,,,,,,,,,,,,,,,,,,,,,,,,1.23,621.045463300019,None,space,0,0.1590686000417918,622.3908715000143,None,622.3908715000143,None,622.3908715000143,None,,,,,,,,,,,P038,fencog,1,Pre,2022_Apr_26_1033,Go No-Go Task,2021.1.4,120.39663472220617,
,"Rule: When you see a yellow image, do not press 'spacebar'.",Images/Scram1/HM06_NC.jpg,Scramble,Blue,Images/Blue.jpg,space,ParentConditions/YellowYellowBlue_v1.xlsx,YellowYellowBlue,Conditions/Version_1/YellowScramStop.xlsx,no,PASS,0.7183076447823791,,,,,,,,,0,0,0,1,0,1,1,1,0,52,52,52,,,,,,,,,,,,,,,,,,,,,,,,,,,,,,,,,,,,,,,,,,,,,,,,,,,,,,,,,,,,,,,,,,,,,,,,,,,,,,,1.69,622.7864474999951,None,space,1,0.33571969997137785,624.5902751000249,None,624.5902751000249,None,624.5902751000249,None,,,,,,,,,,,P038,fencog,1,Pre,2022_Apr_26_1033,Go No-Go Task,2021.1.4,120.39663472220617,
,"Rule: When you see a yellow image, do not press 'spacebar'.",Images/Scram2/AF07NES.jpg,Scramble,Blue,Images/Blue.jpg,space,ParentConditions/YellowYellowBlue_v1.xlsx,YellowYellowBlue,Conditions/Version_1/YellowScramStop.xlsx,no,PASS,0.8685827011476244,,,,,,,,,0,0,0,1,0,1,1,1,0,53,53,53,,,,,,,,,,,,,,,,,,,,,,,,,,,,,,,,,,,,,,,,,,,,,,,,,,,,,,,,,,,,,,,,,,,,,,,,,,,,,,,1.38,624.9895584000042,None,space,1,0.324564200011082,626.4813656000188,None,626.4813656000188,None,626.4813656000188,None,,,,,,,,,,,P038,fencog,1,Pre,2022_Apr_26_1033,Go No-Go Task,2021.1.4,120.39663472220617,
,"Rule: When you see a yellow image, do not press 'spacebar'.",Images/Scram1/BM01_NC.jpg,Scramble,Blue,Images/Blue.jpg,space,ParentConditions/YellowYellowBlue_v1.xlsx,YellowYellowBlue,Conditions/Version_1/YellowScramStop.xlsx,no,PASS,0.7516161036696042,,,,,,,,,0,0,0,1,0,1,1,1,0,54,54,54,,,,,,,,,,,,,,,,,,,,,,,,,,,,,,,,,,,,,,,,,,,,,,,,,,,,,,,,,,,,,,,,,,,,,,,,,,,,,,,1.32,626.880380000046,None,space,1,0.2843563000205904,628.2976223000442,None,628.2976223000442,None,628.2976223000442,None,,,,,,,,,,,P038,fencog,1,Pre,2022_Apr_26_1033,Go No-Go Task,2021.1.4,120.39663472220617,
,"Rule: When you see a yellow image, do not press 'spacebar'.",Images/Scram2/AF07_NC.jpg,Scramble,Blue,Images/Blue.jpg,space,ParentConditions/YellowYellowBlue_v1.xlsx,YellowYellowBlue,Conditions/Version_1/YellowScramStop.xlsx,no,PASS,0.609812891298236,,,,,,,,,0,0,0,1,0,1,1,1,0,55,55,55,,,,,,,,,,,,,,,,,,,,,,,,,,,,,,,,,,,,,,,,,,,,,,,,,,,,,,,,,,,,,,,,,,,,,,,,,,,,,,,1.22,628.6975815000478,None,space,1,0.2957763999584131,630.0302989000338,None,630.0302989000338,None,630.0302989000338,None,,,,,,,,,,,P038,fencog,1,Pre,2022_Apr_26_1033,Go No-Go Task,2021.1.4,120.39663472220617,
