CondFileP,Instructions,FaceE,Express,ColourT,ColourF,CorrectAnsP,MasterCondFile,BlockOrder,CondFile,ColCheck,Triplicate_check,SORT_BY_SMALLEST,EPracticeOuterLoop.thisRepN,EPracticeOuterLoop.thisTrialN,EPracticeOuterLoop.thisN,EPracticeOuterLoop.thisIndex,EPracticeInnerLoop.thisRepN,EPracticeInnerLoop.thisTrialN,EPracticeInnerLoop.thisN,EPracticeInnerLoop.thisIndex,MasterLoop.thisRepN,MasterLoop.thisTrialN,MasterLoop.thisN,MasterLoop.thisIndex,OuterLoop.thisRepN,OuterLoop.thisTrialN,OuterLoop.thisN,OuterLoop.thisIndex,InnerLoop.thisRepN,InnerLoop.thisTrialN,InnerLoop.thisN,InnerLoop.thisIndex,text_13.started,text_13.stopped,key_resp_10.keys,key_resp_10.rt,key_resp_10.started,key_resp_10.stopped,text4.started,text4.stopped,EmotionTaskInstructions1.keys,EmotionTaskInstructions1.rt,EmotionTaskInstructions1.started,EmotionTaskInstructions1.stopped,text_4.started,text_4.stopped,key_resp_5.keys,key_resp_5.rt,key_resp_5.started,key_resp_5.stopped,Text_14.started,Text_14.stopped,key_resp_9.keys,key_resp_9.rt,key_resp_9.started,key_resp_9.stopped,text_5.started,text_5.stopped,text_6.started,text_6.stopped,key_resp_7.keys,key_resp_7.rt,key_resp_7.started,key_resp_7.stopped,text_10.started,text_10.stopped,text_11.started,text_11.stopped,text_12.started,text_12.stopped,ISIjitterPractice,EPracticeISIMarker.started,EPracticeISIMarker.stopped,Pract.keys,Pract.corr,Pract.started,Pract.stopped,PracticeFace.started,PracticeFace.stopped,ColourPractice.started,ColourPractice.stopped,text_7.started,text_7.stopped,Pract.rt,EndOfPractice.started,EndOfPractice.stopped,key_resp_8.keys,key_resp_8.rt,key_resp_8.started,key_resp_8.stopped,text_8.started,text_8.stopped,key_resp_6.keys,key_resp_6.rt,key_resp_6.started,key_resp_6.stopped,text_2.started,text_2.stopped,text_3.started,text_3.stopped,key_resp_3.keys,key_resp_3.rt,key_resp_3.started,key_resp_3.stopped,TaskBlock.started,TaskBlock.stopped,BlockNo1.started,BlockNo1.stopped,OfBlock.started,OfBlock.stopped,ISIjitter,ISImarker.started,ISImarker.stopped,key_resp.keys,key_resp.corr,key_resp.rt,key_resp.started,key_resp.stopped,FaceSet.started,FaceSet.stopped,Colour.started,Colour.stopped,EndBlockText.started,EndBlockText.stopped,key_resp_4.keys,key_resp_4.rt,key_resp_4.started,key_resp_4.stopped,BreakText2.started,BreakText2.stopped,PressToContinue.started,PressToContinue.stopped,participant,Study Name,Task Version (required to run),PRE/POST,date,expName,psychopyVersion,frameRate,
,,,,,,,,,,,,,,,,,,,,,,,,,,,,,,,,,50.91077919999998,None,space,35.92222810000021,51.899608499999886,None,,,,,,,,,,,,,,,,,,,,,,,,,,,,,,,,,,,,,,,,,,,,,,,,,,,,,,,,,,,,,,,,,,,,,,,,,,,,,,,,,,,,,,,,,,,,,,,P039,FENCOG,2,Pre,2022_Apr_27_1040,Go No-Go Task,2021.1.4,120.06272076550806,
,,,,,,,,,,,,,,,,,,,,,,,,,,,,,,,,,,,,,,,89.37439350000022,None,space,14.65510570000015,89.37439350000022,None,,,,,,,,,,,,,,,,,,,,,,,,,,,,,,,,,,,,,,,,,,,,,,,,,,,,,,,,,,,,,,,,,,,,,,,,,,,,,,,,,,,,,,,,,P039,FENCOG,2,Pre,2022_Apr_27_1040,Go No-Go Task,2021.1.4,120.06272076550806,
,,,,,,,,,,,,,,,,,,,,,,,,,,,,,,,,,,,,,,,,,,,,,104.10504179999998,None,space,9.75641349999978,104.10504179999998,None,,,,,,,,,,,,,,,,,,,,,,,,,,,,,,,,,,,,,,,,,,,,,,,,,,,,,,,,,,,,,,,,,,,,,,,,,,,,,,,,,,,P039,FENCOG,2,Pre,2022_Apr_27_1040,Go No-Go Task,2021.1.4,120.06272076550806,
,,,,,,,,,,,,,,,,,,,,,,,,,,,,,,,,,,,,,,,,,,,,,,,,,,,113.8743601000001,None,space,7.379096599999684,113.8743601000001,None,,,,,,,,,,,,,,,,,,,,,,,,,,,,,,,,,,,,,,,,,,,,,,,,,,,,,,,,,,,,,,,,,,,,,,,,,,,,,P039,FENCOG,2,Pre,2022_Apr_27_1040,Go No-Go Task,2021.1.4,120.06272076550806,
EPracticeConditions/BlueEyes.csv,"Rule: When you see a blue image, do not press 'spacebar'.",Images/Happy/HF10_HE.jpg,Happy,Yellow,Images/Yellow.jpg,space,,,,,,,0,0,0,0,0,0,0,7,,,,,,,,,,,,,,,,,,,,,,,,,,,,,,,,,,,,,121.33012110000027,None,124.32004340000003,None,space,2.6212940000000344,124.32004340000003,None,121.33012110000027,None,121.33012110000027,None,121.33012110000027,None,1.4,127.1206602000002,None,None,0,128.68004599999995,None,128.68004599999995,None,128.68004599999995,None,130.21592360000022,None,,,,,,,,,,,,,,,,,,,,,,,,,,,,,,,,,,,,,,,,,,,,,,,,,,P039,FENCOG,2,Pre,2022_Apr_27_1040,Go No-Go Task,2021.1.4,120.06272076550806,
EPracticeConditions/BlueEyes.csv,"Rule: When you see a blue image, do not press 'spacebar'.",Images/Happy/HF04_HE.jpg,Happy,Yellow,Images/Yellow.jpg,space,,,,,,,0,0,0,0,0,1,1,4,,,,,,,,,,,,,,,,,,,,,,,,,,,,,,,,,,,,,,,,,,,,,,,,,,,1.3,131.56577610000022,None,None,0,132.97652229999994,None,132.97652229999994,None,132.97652229999994,None,133.88068310000017,None,,,,,,,,,,,,,,,,,,,,,,,,,,,,,,,,,,,,,,,,,,,,,,,,,,P039,FENCOG,2,Pre,2022_Apr_27_1040,Go No-Go Task,2021.1.4,120.06272076550806,
EPracticeConditions/BlueEyes.csv,"Rule: When you see a blue image, do not press 'spacebar'.",Images/Happy/HF09_HE.jpg,Happy,Yellow,Images/Yellow.jpg,space,,,,,,,0,0,0,0,0,2,2,6,,,,,,,,,,,,,,,,,,,,,,,,,,,,,,,,,,,,,,,,,,,,,,,,,,,1.7,135.87465010000005,None,space,1,137.68348530000003,None,137.68348530000003,None,137.68348530000003,None,138.5835065000001,None,0.3462021000000277,,,,,,,,,,,,,,,,,,,,,,,,,,,,,,,,,,,,,,,,,,,,,,,,,P039,FENCOG,2,Pre,2022_Apr_27_1040,Go No-Go Task,2021.1.4,120.06272076550806,
EPracticeConditions/BlueEyes.csv,"Rule: When you see a blue image, do not press 'spacebar'.",Images/Happy/BM02_HO.jpg,Happy,Yellow,Images/Yellow.jpg,space,,,,,,,0,0,0,0,0,3,3,2,,,,,,,,,,,,,,,,,,,,,,,,,,,,,,,,,,,,,,,,,,,,,,,,,,,1.8,140.58179010000003,None,space,1,142.49032639999996,None,142.49032639999996,None,142.49032639999996,None,143.3862180000001,None,0.2991102000000865,,,,,,,,,,,,,,,,,,,,,,,,,,,,,,,,,,,,,,,,,,,,,,,,,P039,FENCOG,2,Pre,2022_Apr_27_1040,Go No-Go Task,2021.1.4,120.06272076550806,
EPracticeConditions/BlueEyes.csv,"Rule: When you see a blue image, do not press 'spacebar'.",Images/Happy/BM08_HO.jpg,Happy,Yellow,Images/Yellow.jpg,space,,,,,,,0,0,0,0,0,4,4,3,,,,,,,,,,,,,,,,,,,,,,,,,,,,,,,,,,,,,,,,,,,,,,,,,,,1.2,145.39433069999995,None,space,1,146.70582460000014,None,146.70582460000014,None,146.70582460000014,None,147.59747819999984,None,0.34750919999987673,,,,,,,,,,,,,,,,,,,,,,,,,,,,,,,,,,,,,,,,,,,,,,,,,P039,FENCOG,2,Pre,2022_Apr_27_1040,Go No-Go Task,2021.1.4,120.06272076550806,
EPracticeConditions/BlueEyes.csv,"Rule: When you see a blue image, do not press 'spacebar'.",Images/Happy/HF05_HO.jpg,Happy,Yellow,Images/Yellow.jpg,space,,,,,,,0,0,0,0,0,5,5,5,,,,,,,,,,,,,,,,,,,,,,,,,,,,,,,,,,,,,,,,,,,,,,,,,,,1.5,149.60406950000015,None,space,1,151.21284400000013,None,151.21284400000013,None,151.21284400000013,None,152.1035998000002,None,0.33666619999985414,,,,,,,,,,,,,,,,,,,,,,,,,,,,,,,,,,,,,,,,,,,,,,,,,P039,FENCOG,2,Pre,2022_Apr_27_1040,Go No-Go Task,2021.1.4,120.06272076550806,
EPracticeConditions/BlueEyes.csv,"Rule: When you see a blue image, do not press 'spacebar'.",Images/Fearful/HM09_FC.jpg,Fear,Blue,Images/Blue.jpg,None,,,,,,,0,0,0,0,0,6,6,0,,,,,,,,,,,,,,,,,,,,,,,,,,,,,,,,,,,,,,,,,,,,,,,,,,,1.9,154.11763040000005,None,None,1,156.1364140999999,None,156.1364140999999,None,156.1364140999999,None,157.02394270000013,None,,,,,,,,,,,,,,,,,,,,,,,,,,,,,,,,,,,,,,,,,,,,,,,,,,P039,FENCOG,2,Pre,2022_Apr_27_1040,Go No-Go Task,2021.1.4,120.06272076550806,
EPracticeConditions/BlueEyes.csv,"Rule: When you see a blue image, do not press 'spacebar'.",Images/Fearful/AF01_FO.jpg,Fear,Blue,Images/Blue.jpg,None,,,,,,,0,0,0,0,0,7,7,1,,,,,,,,,,,,,,,,,,,,,,,,,,,,,,,,,,,,,,,,,,,,,,,,,,,1.6,159.02631640000027,None,None,1,160.73498440000003,None,160.73498440000003,None,160.73498440000003,None,161.63181639999993,None,,,,,,,,,,,,,,,,,,,,,,,,,,,,,,,,,,,,,,,,,,,,,,,,,,P039,FENCOG,2,Pre,2022_Apr_27_1040,Go No-Go Task,2021.1.4,120.06272076550806,
EPracticeConditions/BlueEyes.csv,"Rule: When you see a blue image, do not press 'spacebar'.",,,,,,,,,,,,0,0,0,0,,,,,,,,,,,,,,,,,,,,,,,,,,,,,,,,,,,,,,,,,,,,,,,,,,,,,,,,,,,,,,,,,,,,,,,,,,,,,,,,,,,,,,,,,,,,,,,,,,,,,,,,,,,,,,,,,,,,,P039,FENCOG,2,Pre,2022_Apr_27_1040,Go No-Go Task,2021.1.4,120.06272076550806,
EPracticeConditions/YellowEyes.csv,"Rule: When you see a yellow image, do not press 'spacebar'.",Images/Fearful/AM19AFS.jpg,Fear,Blue,Images/Blue.jpg,space,,,,,,,0,1,1,1,0,0,0,4,,,,,,,,,,,,,,,,,,,,,,,,,,,,,,,,,,,,,163.65258799999992,None,166.6412319000001,None,space,1.2122497000000294,166.6412319000001,None,163.65258799999992,None,163.65258799999992,None,163.65258799999992,None,1.7,167.87274460000026,None,None,0,169.6824160000001,None,169.6824160000001,None,169.6824160000001,None,170.57294600000023,None,,,,,,,,,,,,,,,,,,,,,,,,,,,,,,,,,,,,,,,,,,,,,,,,,,P039,FENCOG,2,Pre,2022_Apr_27_1040,Go No-Go Task,2021.1.4,120.06272076550806,
EPracticeConditions/YellowEyes.csv,"Rule: When you see a yellow image, do not press 'spacebar'.",Images/Happy/AM32HAS.jpg,Happy,Yellow,Images/Yellow.jpg,None,,,,,,,0,1,1,1,0,1,1,0,,,,,,,,,,,,,,,,,,,,,,,,,,,,,,,,,,,,,,,,,,,,,,,,,,,1.3,172.57228710000027,None,None,1,173.98114650000025,None,173.98114650000025,None,173.98114650000025,None,174.8716672999999,None,,,,,,,,,,,,,,,,,,,,,,,,,,,,,,,,,,,,,,,,,,,,,,,,,,P039,FENCOG,2,Pre,2022_Apr_27_1040,Go No-Go Task,2021.1.4,120.06272076550806,
EPracticeConditions/YellowEyes.csv,"Rule: When you see a yellow image, do not press 'spacebar'.",Images/Fearful/AM24AFS.jpg,Fear,Blue,Images/Blue.jpg,space,,,,,,,0,1,1,1,0,2,2,7,,,,,,,,,,,,,,,,,,,,,,,,,,,,,,,,,,,,,,,,,,,,,,,,,,,1.2,176.8712604000002,None,None,0,178.1799433000001,None,178.1799433000001,None,178.1799433000001,None,179.0812194,None,,,,,,,,,,,,,,,,,,,,,,,,,,,,,,,,,,,,,,,,,,,,,,,,,,P039,FENCOG,2,Pre,2022_Apr_27_1040,Go No-Go Task,2021.1.4,120.06272076550806,
EPracticeConditions/YellowEyes.csv,"Rule: When you see a yellow image, do not press 'spacebar'.",Images/Happy/BF05_HO.jpg,Happy,Yellow,Images/Yellow.jpg,None,,,,,,,0,1,1,1,0,3,3,1,,,,,,,,,,,,,,,,,,,,,,,,,,,,,,,,,,,,,,,,,,,,,,,,,,,1.8,181.0837400999999,None,None,1,182.99520870000015,None,182.99520870000015,None,182.99520870000015,None,183.8935962999999,None,,,,,,,,,,,,,,,,,,,,,,,,,,,,,,,,,,,,,,,,,,,,,,,,,,P039,FENCOG,2,Pre,2022_Apr_27_1040,Go No-Go Task,2021.1.4,120.06272076550806,
EPracticeConditions/YellowEyes.csv,"Rule: When you see a yellow image, do not press 'spacebar'.",Images/Fearful/AM17AFS.jpg,Fear,Blue,Images/Blue.jpg,space,,,,,,,0,1,1,1,0,4,4,3,,,,,,,,,,,,,,,,,,,,,,,,,,,,,,,,,,,,,,,,,,,,,,,,,,,1.4,185.89324339999985,None,space,1,187.4188790000003,None,187.4188790000003,None,187.4188790000003,None,188.30174020000004,None,0.2505903999999646,,,,,,,,,,,,,,,,,,,,,,,,,,,,,,,,,,,,,,,,,,,,,,,,,P039,FENCOG,2,Pre,2022_Apr_27_1040,Go No-Go Task,2021.1.4,120.06272076550806,
EPracticeConditions/YellowEyes.csv,"Rule: When you see a yellow image, do not press 'spacebar'.",Images/Fearful/AM22AFS.jpg,Fear,Blue,Images/Blue.jpg,space,,,,,,,0,1,1,1,0,5,5,5,,,,,,,,,,,,,,,,,,,,,,,,,,,,,,,,,,,,,,,,,,,,,,,,,,,1.9,190.30033730000014,None,space,1,192.3008044000003,None,192.3008044000003,None,192.3008044000003,None,193.19159780000018,None,0.28869769999982964,,,,,,,,,,,,,,,,,,,,,,,,,,,,,,,,,,,,,,,,,,,,,,,,,P039,FENCOG,2,Pre,2022_Apr_27_1040,Go No-Go Task,2021.1.4,120.06272076550806,
EPracticeConditions/YellowEyes.csv,"Rule: When you see a yellow image, do not press 'spacebar'.",Images/Fearful/AM23AFS.jpg,Fear,Blue,Images/Blue.jpg,space,,,,,,,0,1,1,1,0,6,6,6,,,,,,,,,,,,,,,,,,,,,,,,,,,,,,,,,,,,,,,,,,,,,,,,,,,1.6,195.19838299999992,None,space,1,196.89940690000003,None,196.89940690000003,None,196.89940690000003,None,197.80521640000006,None,0.2820825999997396,,,,,,,,,,,,,,,,,,,,,,,,,,,,,,,,,,,,,,,,,,,,,,,,,P039,FENCOG,2,Pre,2022_Apr_27_1040,Go No-Go Task,2021.1.4,120.06272076550806,
EPracticeConditions/YellowEyes.csv,"Rule: When you see a yellow image, do not press 'spacebar'.",Images/Fearful/AM16AFS.jpg,Fear,Blue,Images/Blue.jpg,space,,,,,,,0,1,1,1,0,7,7,2,,,,,,,,,,,,,,,,,,,,,,,,,,,,,,,,,,,,,,,,,,,,,,,,,,,1.5,199.81282439999995,None,None,0,201.42315390000022,None,201.42315390000022,None,201.42315390000022,None,202.31366230000003,None,,,,,,,,,,,,,,,,,,,,,,,,,,,,,,,,,,,,,,,,,,,,,,,,,,P039,FENCOG,2,Pre,2022_Apr_27_1040,Go No-Go Task,2021.1.4,120.06272076550806,
EPracticeConditions/YellowEyes.csv,"Rule: When you see a yellow image, do not press 'spacebar'.",,,,,,,,,,,,0,1,1,1,,,,,,,,,,,,,,,,,,,,,,,,,,,,,,,,,,,,,,,,,,,,,,,,,,,,,,,,,,,,,,,,,,,,,,,,,,,,,,,,,,,,,,,,,,,,,,,,,,,,,,,,,,,,,,,,,,,,,P039,FENCOG,2,Pre,2022_Apr_27_1040,Go No-Go Task,2021.1.4,120.06272076550806,
EPracticeConditions/BlueScram.csv,"Rule: When you see a blue image, do not press 'spacebar'.",Images/Scram2/AM03_NC.jpg,Scramble,Yellow,Images/Yellow.jpg,space,,,,,,,0,2,2,2,0,0,0,6,,,,,,,,,,,,,,,,,,,,,,,,,,,,,,,,,,,,,204.33388689999992,None,207.32051820000015,None,space,0.7888856999998097,207.32051820000015,None,204.33388689999992,None,204.33388689999992,None,204.33388689999992,None,1.2,208.1332910000001,None,space,1,209.44575340000029,None,209.44575340000029,None,209.44575340000029,None,210.35056540000005,None,0.31163809999998193,,,,,,,,,,,,,,,,,,,,,,,,,,,,,,,,,,,,,,,,,,,,,,,,,P039,FENCOG,2,Pre,2022_Apr_27_1040,Go No-Go Task,2021.1.4,120.06272076550806,
EPracticeConditions/BlueScram.csv,"Rule: When you see a blue image, do not press 'spacebar'.",Images/Scram1/AM04_NC.jpg,Scramble,Yellow,Images/Yellow.jpg,space,,,,,,,0,2,2,2,0,1,1,3,,,,,,,,,,,,,,,,,,,,,,,,,,,,,,,,,,,,,,,,,,,,,,,,,,,1.8,212.35073620000003,None,space,1,214.2609569000001,None,214.2609569000001,None,214.2609569000001,None,215.14925249999987,None,0.32869129999971847,,,,,,,,,,,,,,,,,,,,,,,,,,,,,,,,,,,,,,,,,,,,,,,,,P039,FENCOG,2,Pre,2022_Apr_27_1040,Go No-Go Task,2021.1.4,120.06272076550806,
EPracticeConditions/BlueScram.csv,"Rule: When you see a blue image, do not press 'spacebar'.",Images/Scram1/AM13NES.jpg,Scramble,Yellow,Images/Yellow.jpg,space,,,,,,,0,2,2,2,0,2,2,5,,,,,,,,,,,,,,,,,,,,,,,,,,,,,,,,,,,,,,,,,,,,,,,,,,,1.6,217.15817349999998,None,space,1,218.86788650000017,None,218.86788650000017,None,218.86788650000017,None,219.75852140000006,None,0.3137032999998155,,,,,,,,,,,,,,,,,,,,,,,,,,,,,,,,,,,,,,,,,,,,,,,,,P039,FENCOG,2,Pre,2022_Apr_27_1040,Go No-Go Task,2021.1.4,120.06272076550806,
EPracticeConditions/BlueScram.csv,"Rule: When you see a blue image, do not press 'spacebar'.",Images/Scram2/AF25NES.jpg,Scramble,Yellow,Images/Yellow.jpg,space,,,,,,,0,2,2,2,0,3,3,7,,,,,,,,,,,,,,,,,,,,,,,,,,,,,,,,,,,,,,,,,,,,,,,,,,,1.4,221.75813610000023,None,space,1,223.26664560000017,None,223.26664560000017,None,223.26664560000017,None,224.14887820000013,None,0.33124709999992774,,,,,,,,,,,,,,,,,,,,,,,,,,,,,,,,,,,,,,,,,,,,,,,,,P039,FENCOG,2,Pre,2022_Apr_27_1040,Go No-Go Task,2021.1.4,120.06272076550806,
EPracticeConditions/BlueScram.csv,"Rule: When you see a blue image, do not press 'spacebar'.",Images/Scram1/BF18_NC.jpg,Scramble,Blue,Images/Blue.jpg,None,,,,,,,0,2,2,2,0,4,4,1,,,,,,,,,,,,,,,,,,,,,,,,,,,,,,,,,,,,,,,,,,,,,,,,,,,1.5,226.14808850000009,None,None,1,227.7569923000001,None,227.7569923000001,None,227.7569923000001,None,228.65363119999984,None,,,,,,,,,,,,,,,,,,,,,,,,,,,,,,,,,,,,,,,,,,,,,,,,,,P039,FENCOG,2,Pre,2022_Apr_27_1040,Go No-Go Task,2021.1.4,120.06272076550806,
EPracticeConditions/BlueScram.csv,"Rule: When you see a blue image, do not press 'spacebar'.",Images/Scram2/AF10_NC.jpg,Scramble,Yellow,Images/Yellow.jpg,space,,,,,,,0,2,2,2,0,5,5,2,,,,,,,,,,,,,,,,,,,,,,,,,,,,,,,,,,,,,,,,,,,,,,,,,,,1.9,230.65527580000025,None,space,1,232.66394320000018,None,232.66394320000018,None,232.66394320000018,None,233.5537201000002,None,0.3257767000000058,,,,,,,,,,,,,,,,,,,,,,,,,,,,,,,,,,,,,,,,,,,,,,,,,P039,FENCOG,2,Pre,2022_Apr_27_1040,Go No-Go Task,2021.1.4,120.06272076550806,
EPracticeConditions/BlueScram.csv,"Rule: When you see a blue image, do not press 'spacebar'.",Images/Scram1/BM08_NC.jpg,Scramble,Blue,Images/Blue.jpg,None,,,,,,,0,2,2,2,0,6,6,0,,,,,,,,,,,,,,,,,,,,,,,,,,,,,,,,,,,,,,,,,,,,,,,,,,,1.7,235.55371680000007,None,None,1,237.35426480000024,None,237.35426480000024,None,237.35426480000024,None,238.25114639999993,None,,,,,,,,,,,,,,,,,,,,,,,,,,,,,,,,,,,,,,,,,,,,,,,,,,P039,FENCOG,2,Pre,2022_Apr_27_1040,Go No-Go Task,2021.1.4,120.06272076550806,
EPracticeConditions/BlueScram.csv,"Rule: When you see a blue image, do not press 'spacebar'.",Images/Scram1/AM03NES.jpg,Scramble,Yellow,Images/Yellow.jpg,space,,,,,,,0,2,2,2,0,7,7,4,,,,,,,,,,,,,,,,,,,,,,,,,,,,,,,,,,,,,,,,,,,,,,,,,,,1.3,240.2608607000002,None,space,1,241.66128419999995,None,241.66128419999995,None,241.66128419999995,None,242.56549410000025,None,0.2963536000002023,,,,,,,,,,,,,,,,,,,,,,,,,,,,,,,,,,,,,,,,,,,,,,,,,P039,FENCOG,2,Pre,2022_Apr_27_1040,Go No-Go Task,2021.1.4,120.06272076550806,
EPracticeConditions/BlueScram.csv,"Rule: When you see a blue image, do not press 'spacebar'.",,,,,,,,,,,,0,2,2,2,,,,,,,,,,,,,,,,,,,,,,,,,,,,,,,,,,,,,,,,,,,,,,,,,,,,,,,,,,,,,,,,,,,,,,,,,,,,,,,,,,,,,,,,,,,,,,,,,,,,,,,,,,,,,,,,,,,,,P039,FENCOG,2,Pre,2022_Apr_27_1040,Go No-Go Task,2021.1.4,120.06272076550806,
EPracticeConditions/YellowScram.csv,"Rule: When you see a yellow image, do not press 'spacebar'.",Images/Scram2/HM06_NC.jpg,Scramble,Yellow,Images/Yellow.jpg,None,,,,,,,0,3,3,3,0,0,0,0,,,,,,,,,,,,,,,,,,,,,,,,,,,,,,,,,,,,,244.58305000000018,None,247.5757868999999,None,space,0.3657498000002306,247.5757868999999,None,244.58305000000018,None,244.58305000000018,None,244.58305000000018,None,1.4,247.96409940000012,None,None,1,249.47568490000003,None,249.47568490000003,None,249.47568490000003,None,250.3714361000002,None,,,,,,,,,,,,,,,,,,,,,,,,,,,,,,,,,,,,,,,,,,,,,,,,,,P039,FENCOG,2,Pre,2022_Apr_27_1040,Go No-Go Task,2021.1.4,120.06272076550806,
EPracticeConditions/YellowScram.csv,"Rule: When you see a yellow image, do not press 'spacebar'.",Images/Scram1/AF10_NC.jpg,Scramble,Blue,Images/Blue.jpg,space,,,,,,,0,3,3,3,0,1,1,6,,,,,,,,,,,,,,,,,,,,,,,,,,,,,,,,,,,,,,,,,,,,,,,,,,,1.8,252.37897520000024,None,space,1,254.29091160000007,None,254.29091160000007,None,254.29091160000007,None,255.1832927999999,None,0.3226604999999836,,,,,,,,,,,,,,,,,,,,,,,,,,,,,,,,,,,,,,,,,,,,,,,,,P039,FENCOG,2,Pre,2022_Apr_27_1040,Go No-Go Task,2021.1.4,120.06272076550806,
EPracticeConditions/YellowScram.csv,"Rule: When you see a yellow image, do not press 'spacebar'.",Images/Scram1/BM01_NC.jpg,Scramble,Blue,Images/Blue.jpg,space,,,,,,,0,3,3,3,0,2,2,5,,,,,,,,,,,,,,,,,,,,,,,,,,,,,,,,,,,,,,,,,,,,,,,,,,,1.3,257.1891697000001,None,space,1,258.5979419,None,258.5979419,None,258.5979419,None,259.49439250000023,None,0.36773870000024544,,,,,,,,,,,,,,,,,,,,,,,,,,,,,,,,,,,,,,,,,,,,,,,,,P039,FENCOG,2,Pre,2022_Apr_27_1040,Go No-Go Task,2021.1.4,120.06272076550806,
EPracticeConditions/YellowScram.csv,"Rule: When you see a yellow image, do not press 'spacebar'.",Images/Scram2/AM03NES.jpg,Scramble,Yellow,Images/Yellow.jpg,None,,,,,,,0,3,3,3,0,3,3,1,,,,,,,,,,,,,,,,,,,,,,,,,,,,,,,,,,,,,,,,,,,,,,,,,,,1.5,261.49619770000027,None,None,1,263.1050273999999,None,263.1050273999999,None,263.1050273999999,None,264.0016948000002,None,,,,,,,,,,,,,,,,,,,,,,,,,,,,,,,,,,,,,,,,,,,,,,,,,,P039,FENCOG,2,Pre,2022_Apr_27_1040,Go No-Go Task,2021.1.4,120.06272076550806,
EPracticeConditions/YellowScram.csv,"Rule: When you see a yellow image, do not press 'spacebar'.",Images/Scram1/AF30NES.JPG,Scramble,Blue,Images/Blue.jpg,space,,,,,,,0,3,3,3,0,4,4,4,,,,,,,,,,,,,,,,,,,,,,,,,,,,,,,,,,,,,,,,,,,,,,,,,,,1.7,266.00322000000006,None,space,1,267.8036624000001,None,267.8036624000001,None,267.8036624000001,None,268.7055303000002,None,0.2980278999998518,,,,,,,,,,,,,,,,,,,,,,,,,,,,,,,,,,,,,,,,,,,,,,,,,P039,FENCOG,2,Pre,2022_Apr_27_1040,Go No-Go Task,2021.1.4,120.06272076550806,
EPracticeConditions/YellowScram.csv,"Rule: When you see a yellow image, do not press 'spacebar'.",Images/Scram1/AF07NES.jpg,Scramble,Blue,Images/Blue.jpg,space,,,,,,,0,3,3,3,0,5,5,3,,,,,,,,,,,,,,,,,,,,,,,,,,,,,,,,,,,,,,,,,,,,,,,,,,,1.9,270.71023990000003,None,space,1,272.7105617000002,None,272.7105617000002,None,272.7105617000002,None,273.6012086999999,None,0.37504589999980453,,,,,,,,,,,,,,,,,,,,,,,,,,,,,,,,,,,,,,,,,,,,,,,,,P039,FENCOG,2,Pre,2022_Apr_27_1040,Go No-Go Task,2021.1.4,120.06272076550806,
EPracticeConditions/YellowScram.csv,"Rule: When you see a yellow image, do not press 'spacebar'.",Images/Scram1/HF04_NC.jpg,Scramble,Blue,Images/Blue.jpg,space,,,,,,,0,3,3,3,0,6,6,2,,,,,,,,,,,,,,,,,,,,,,,,,,,,,,,,,,,,,,,,,,,,,,,,,,,1.2,275.60886949999986,None,space,1,276.91754900000024,None,276.91754900000024,None,276.91754900000024,None,277.8136417999999,None,0.36812270000018543,,,,,,,,,,,,,,,,,,,,,,,,,,,,,,,,,,,,,,,,,,,,,,,,,P039,FENCOG,2,Pre,2022_Apr_27_1040,Go No-Go Task,2021.1.4,120.06272076550806,
EPracticeConditions/YellowScram.csv,"Rule: When you see a yellow image, do not press 'spacebar'.",Images/Scram1/AF24NES.jpg,Scramble,Blue,Images/Blue.jpg,space,,,,,,,0,3,3,3,0,7,7,7,,,,,,,,,,,,,,,,,,,,,,,,,,,,,,,,,,,,,,,,,,,,,,,,,,,1.6,279.8159220000002,None,space,1,281.52461500000027,None,281.52461500000027,None,281.52461500000027,None,282.42081629999984,None,0.32098169999972015,,,,,,,,,,,,,,,,,,,,,,,,,,,,,,,,,,,,,,,,,,,,,,,,,P039,FENCOG,2,Pre,2022_Apr_27_1040,Go No-Go Task,2021.1.4,120.06272076550806,
EPracticeConditions/YellowScram.csv,"Rule: When you see a yellow image, do not press 'spacebar'.",,,,,,,,,,,,0,3,3,3,,,,,,,,,,,,,,,,,,,,,,,,,,,,,,,,,,,,,,,,,,,,,,,,,,,,,,,,,,,,,,,,,,,,,,,,,,,,,,,,,,,,,,,,,,,,,,,,,,,,,,,,,,,,,,,,,,,,,P039,FENCOG,2,Pre,2022_Apr_27_1040,Go No-Go Task,2021.1.4,120.06272076550806,
,,,,,,,,,,,,,,,,,,,,,,,,,,,,,,,,,,,,,,,,,,,,,,,,,,,,,,,,,,,,,,,,,,,,,,,,,,,,,,,,,,,,,285.72480700000006,None,space,8.359480099999928,286.20605220000016,None,,,,,,,,,,,,,,,,,,,,,,,,,,,,,,,,,,,,,,,,,,,P039,FENCOG,2,Pre,2022_Apr_27_1040,Go No-Go Task,2021.1.4,120.06272076550806,
,,,,,,,,,,,,,,,,,,,,,,,,,,,,,,,,,,,,,,,,,,,,,,,,,,,,,,,,,,,,,,,,,,,,,,,,,,,,,,,,,,,,,,,,,,,294.57961049999994,None,space,3.9939299999996365,294.57961049999994,None,,,,,,,,,,,,,,,,,,,,,,,,,,,,,,,,,,,,,P039,FENCOG,2,Pre,2022_Apr_27_1040,Go No-Go Task,2021.1.4,120.06272076550806,
,"Rule: When you see a yellow image, do not press 'spacebar'.",Images/Happy/BF09_HO.jpg,Happy,Blue,Images/Blue.jpg,space,ParentConditions/YellowYellowBlue_v2.xlsx,YellowYellowBlue,Conditions/Version_2/YellowFearStop.xlsx,no,PASS,0.2009685743777515,,,,,,,,,0,0,0,1,0,0,0,0,0,0,0,0,,,,,,,,,,,,,,,,,,,,,,,,,,,,,,,,,,,,,,,,,,,,,,,,,,,,,,,,,,,,,,,,,298.66752080000015,None,301.6694935999999,None,space,3.1202787999995962,301.6694935999999,None,298.66752080000015,None,298.66752080000015,None,298.66752080000015,None,1.9,304.84789,None,space,1,0.3707760000002054,306.85914,None,306.85914,None,306.85914,None,,,,,,,,,,,P039,FENCOG,2,Pre,2022_Apr_27_1040,Go No-Go Task,2021.1.4,120.06272076550806,
,"Rule: When you see a yellow image, do not press 'spacebar'.",Images/Happy/AF30HAS.jpg,Happy,Blue,Images/Blue.jpg,space,ParentConditions/YellowYellowBlue_v2.xlsx,YellowYellowBlue,Conditions/Version_2/YellowFearStop.xlsx,no,PASS,0.9679561444510932,,,,,,,,,0,0,0,1,0,0,0,0,0,1,1,1,,,,,,,,,,,,,,,,,,,,,,,,,,,,,,,,,,,,,,,,,,,,,,,,,,,,,,,,,,,,,,,,,,,,,,,,,,,,,,,1.41,307.25718400000005,None,space,1,0.3023881999997684,308.7832063000001,None,308.7832063000001,None,308.7832063000001,None,,,,,,,,,,,P039,FENCOG,2,Pre,2022_Apr_27_1040,Go No-Go Task,2021.1.4,120.06272076550806,
,"Rule: When you see a yellow image, do not press 'spacebar'.",Images/Happy/AF27HAS.jpg,Happy,Blue,Images/Blue.jpg,space,ParentConditions/YellowYellowBlue_v2.xlsx,YellowYellowBlue,Conditions/Version_2/YellowFearStop.xlsx,no,PASS,0.024466481670397555,,,,,,,,,0,0,0,1,0,0,0,0,0,2,2,2,,,,,,,,,,,,,,,,,,,,,,,,,,,,,,,,,,,,,,,,,,,,,,,,,,,,,,,,,,,,,,,,,,,,,,,,,,,,,,,1.26,309.18237279999994,None,space,1,0.28033339999956297,310.5576796999999,None,310.5576796999999,None,310.5576796999999,None,,,,,,,,,,,P039,FENCOG,2,Pre,2022_Apr_27_1040,Go No-Go Task,2021.1.4,120.06272076550806,
,"Rule: When you see a yellow image, do not press 'spacebar'.",Images/Happy/AF22HAS.jpg,Happy,Blue,Images/Blue.jpg,space,ParentConditions/YellowYellowBlue_v2.xlsx,YellowYellowBlue,Conditions/Version_2/YellowFearStop.xlsx,no,PASS,0.900419425166189,,,,,,,,,0,0,0,1,0,0,0,0,0,3,3,3,,,,,,,,,,,,,,,,,,,,,,,,,,,,,,,,,,,,,,,,,,,,,,,,,,,,,,,,,,,,,,,,,,,,,,,,,,,,,,,1.46,310.95815330000005,None,space,1,0.3136711000001924,312.5321036999999,None,312.5321036999999,None,312.5321036999999,None,,,,,,,,,,,P039,FENCOG,2,Pre,2022_Apr_27_1040,Go No-Go Task,2021.1.4,120.06272076550806,
,"Rule: When you see a yellow image, do not press 'spacebar'.",Images/Happy/WM11_HC.jpg,Happy,Blue,Images/Blue.jpg,space,ParentConditions/YellowYellowBlue_v2.xlsx,YellowYellowBlue,Conditions/Version_2/YellowFearStop.xlsx,no,PASS,0.5042081063795358,,,,,,,,,0,0,0,1,0,0,0,0,0,4,4,4,,,,,,,,,,,,,,,,,,,,,,,,,,,,,,,,,,,,,,,,,,,,,,,,,,,,,,,,,,,,,,,,,,,,,,,,,,,,,,,1.21,312.92747899999995,None,space,1,0.2453086999998959,314.2482715000001,None,314.2482715000001,None,314.2482715000001,None,,,,,,,,,,,P039,FENCOG,2,Pre,2022_Apr_27_1040,Go No-Go Task,2021.1.4,120.06272076550806,
,"Rule: When you see a yellow image, do not press 'spacebar'.",Images/Happy/BF05_HO.jpg,Happy,Blue,Images/Blue.jpg,space,ParentConditions/YellowYellowBlue_v2.xlsx,YellowYellowBlue,Conditions/Version_2/YellowFearStop.xlsx,no,PASS,0.6687720633168746,,,,,,,,,0,0,0,1,0,0,0,0,0,5,5,5,,,,,,,,,,,,,,,,,,,,,,,,,,,,,,,,,,,,,,,,,,,,,,,,,,,,,,,,,,,,,,,,,,,,,,,,,,,,,,,1.67,314.6472904000002,None,space,1,0.2956774000003861,316.41430279999986,None,316.41430279999986,None,316.41430279999986,None,,,,,,,,,,,P039,FENCOG,2,Pre,2022_Apr_27_1040,Go No-Go Task,2021.1.4,120.06272076550806,
,"Rule: When you see a yellow image, do not press 'spacebar'.",Images/Fearful/AM01AFS.jpg,Fear,Yellow,Images/Yellow.jpg,None,ParentConditions/YellowYellowBlue_v2.xlsx,YellowYellowBlue,Conditions/Version_2/YellowFearStop.xlsx,yes,PASS,0.008120847249678764,,,,,,,,,0,0,0,1,0,0,0,0,0,6,6,6,,,,,,,,,,,,,,,,,,,,,,,,,,,,,,,,,,,,,,,,,,,,,,,,,,,,,,,,,,,,,,,,,,,,,,,,,,,,,,,1.48,316.8214788999999,None,None,1,,318.41371830000026,None,318.41371830000026,None,318.41371830000026,None,,,,,,,,,,,P039,FENCOG,2,Pre,2022_Apr_27_1040,Go No-Go Task,2021.1.4,120.06272076550806,
,"Rule: When you see a yellow image, do not press 'spacebar'.",Images/Happy/AF23HAS.jpg,Happy,Blue,Images/Blue.jpg,space,ParentConditions/YellowYellowBlue_v2.xlsx,YellowYellowBlue,Conditions/Version_2/YellowFearStop.xlsx,no,PASS,0.07023198870971747,,,,,,,,,0,0,0,1,0,0,0,0,0,7,7,7,,,,,,,,,,,,,,,,,,,,,,,,,,,,,,,,,,,,,,,,,,,,,,,,,,,,,,,,,,,,,,,,,,,,,,,,,,,,,,,1.24,318.8125960000002,None,space,1,0.30645099999992453,320.1631898999999,None,320.1631898999999,None,320.1631898999999,None,,,,,,,,,,,P039,FENCOG,2,Pre,2022_Apr_27_1040,Go No-Go Task,2021.1.4,120.06272076550806,
,"Rule: When you see a yellow image, do not press 'spacebar'.",Images/Happy/AM16HAS.jpg,Happy,Blue,Images/Blue.jpg,space,ParentConditions/YellowYellowBlue_v2.xlsx,YellowYellowBlue,Conditions/Version_2/YellowFearStop.xlsx,no,PASS,0.031804034281165405,,,,,,,,,0,0,0,1,0,0,0,0,0,8,8,8,,,,,,,,,,,,,,,,,,,,,,,,,,,,,,,,,,,,,,,,,,,,,,,,,,,,,,,,,,,,,,,,,,,,,,,,,,,,,,,1.55,320.5620793000003,None,space,1,0.3287537000001066,322.22091520000004,None,322.22091520000004,None,322.22091520000004,None,,,,,,,,,,,P039,FENCOG,2,Pre,2022_Apr_27_1040,Go No-Go Task,2021.1.4,120.06272076550806,
,"Rule: When you see a yellow image, do not press 'spacebar'.",Images/Happy/AM04HAS.jpg,Happy,Blue,Images/Blue.jpg,space,ParentConditions/YellowYellowBlue_v2.xlsx,YellowYellowBlue,Conditions/Version_2/YellowFearStop.xlsx,no,PASS,0.0002121348500070397,,,,,,,,,0,0,0,1,0,0,0,0,0,9,9,9,,,,,,,,,,,,,,,,,,,,,,,,,,,,,,,,,,,,,,,,,,,,,,,,,,,,,,,,,,,,,,,,,,,,,,,,,,,,,,,1.78,322.6188646999999,None,space,1,0.2780979999997726,324.51195289999987,None,324.51195289999987,None,324.51195289999987,None,,,,,,,,,,,P039,FENCOG,2,Pre,2022_Apr_27_1040,Go No-Go Task,2021.1.4,120.06272076550806,
,"Rule: When you see a yellow image, do not press 'spacebar'.",Images/Happy/AF26HAS.jpg,Happy,Blue,Images/Blue.jpg,space,ParentConditions/YellowYellowBlue_v2.xlsx,YellowYellowBlue,Conditions/Version_2/YellowFearStop.xlsx,no,PASS,0.408079602030768,,,,,,,,,0,0,0,1,0,0,0,0,0,10,10,10,,,,,,,,,,,,,,,,,,,,,,,,,,,,,,,,,,,,,,,,,,,,,,,,,,,,,,,,,,,,,,,,,,,,,,,,,,,,,,,1.75,324.9034363999999,None,None,0,,326.7612478000001,None,326.7612478000001,None,326.7612478000001,None,,,,,,,,,,,P039,FENCOG,2,Pre,2022_Apr_27_1040,Go No-Go Task,2021.1.4,120.06272076550806,
,"Rule: When you see a yellow image, do not press 'spacebar'.",Images/Fearful/AF10_FC.jpg,Fear,Yellow,Images/Yellow.jpg,None,ParentConditions/YellowYellowBlue_v2.xlsx,YellowYellowBlue,Conditions/Version_2/YellowFearStop.xlsx,yes,PASS,0.43118367877877073,,,,,,,,,0,0,0,1,0,0,0,0,0,11,11,11,,,,,,,,,,,,,,,,,,,,,,,,,,,,,,,,,,,,,,,,,,,,,,,,,,,,,,,,,,,,,,,,,,,,,,,,,,,,,,,1.31,327.1614617,None,None,1,,328.5857670999999,None,328.5857670999999,None,328.5857670999999,None,,,,,,,,,,,P039,FENCOG,2,Pre,2022_Apr_27_1040,Go No-Go Task,2021.1.4,120.06272076550806,
,"Rule: When you see a yellow image, do not press 'spacebar'.",Images/Fearful/AM09_FO.jpg,Fear,Yellow,Images/Yellow.jpg,None,ParentConditions/YellowYellowBlue_v2.xlsx,YellowYellowBlue,Conditions/Version_2/YellowFearStop.xlsx,yes,PASS,0.25324381257324213,,,,,,,,,0,0,0,1,0,0,0,0,0,12,12,12,,,,,,,,,,,,,,,,,,,,,,,,,,,,,,,,,,,,,,,,,,,,,,,,,,,,,,,,,,,,,,,,,,,,,,,,,,,,,,,1.99,328.98268210000015,None,space,0,0.24057390000007217,331.0850725999999,None,331.0850725999999,None,331.0850725999999,None,,,,,,,,,,,P039,FENCOG,2,Pre,2022_Apr_27_1040,Go No-Go Task,2021.1.4,120.06272076550806,
,"Rule: When you see a yellow image, do not press 'spacebar'.",Images/Happy/HM04_HO.jpg,Happy,Blue,Images/Blue.jpg,space,ParentConditions/YellowYellowBlue_v2.xlsx,YellowYellowBlue,Conditions/Version_2/YellowFearStop.xlsx,no,PASS,0.4072425132028237,,,,,,,,,0,0,0,1,0,0,0,0,0,13,13,13,,,,,,,,,,,,,,,,,,,,,,,,,,,,,,,,,,,,,,,,,,,,,,,,,,,,,,,,,,,,,,,,,,,,,,,,,,,,,,,1.49,331.48397980000027,None,space,1,0.2572457999999642,333.0844557999999,None,333.0844557999999,None,333.0844557999999,None,,,,,,,,,,,P039,FENCOG,2,Pre,2022_Apr_27_1040,Go No-Go Task,2021.1.4,120.06272076550806,
,"Rule: When you see a yellow image, do not press 'spacebar'.",Images/Fearful/AM04_FO.jpg,Fear,Yellow,Images/Yellow.jpg,None,ParentConditions/YellowYellowBlue_v2.xlsx,YellowYellowBlue,Conditions/Version_2/YellowFearStop.xlsx,yes,PASS,0.7288256558461894,,,,,,,,,0,0,0,1,0,0,0,0,0,14,14,14,,,,,,,,,,,,,,,,,,,,,,,,,,,,,,,,,,,,,,,,,,,,,,,,,,,,,,,,,,,,,,,,,,,,,,,,,,,,,,,1.63,333.4833715,None,None,1,,335.2421076999999,None,335.2421076999999,None,335.2421076999999,None,,,,,,,,,,,P039,FENCOG,2,Pre,2022_Apr_27_1040,Go No-Go Task,2021.1.4,120.06272076550806,
,"Rule: When you see a yellow image, do not press 'spacebar'.",Images/Happy/AM13HAS.jpg,Happy,Blue,Images/Blue.jpg,space,ParentConditions/YellowYellowBlue_v2.xlsx,YellowYellowBlue,Conditions/Version_2/YellowFearStop.xlsx,no,PASS,0.9405484517370288,,,,,,,,,0,0,0,1,0,0,0,0,0,15,15,15,,,,,,,,,,,,,,,,,,,,,,,,,,,,,,,,,,,,,,,,,,,,,,,,,,,,,,,,,,,,,,,,,,,,,,,,,,,,,,,1.25,335.6282802999999,None,space,1,0.28697879999981524,336.9832172000001,None,336.9832172000001,None,336.9832172000001,None,,,,,,,,,,,P039,FENCOG,2,Pre,2022_Apr_27_1040,Go No-Go Task,2021.1.4,120.06272076550806,
,"Rule: When you see a yellow image, do not press 'spacebar'.",Images/Fearful/AF09AFS.jpg,Fear,Yellow,Images/Yellow.jpg,None,ParentConditions/YellowYellowBlue_v2.xlsx,YellowYellowBlue,Conditions/Version_2/YellowFearStop.xlsx,yes,PASS,0.6464881792541419,,,,,,,,,0,0,0,1,0,0,0,0,0,16,16,16,,,,,,,,,,,,,,,,,,,,,,,,,,,,,,,,,,,,,,,,,,,,,,,,,,,,,,,,,,,,,,,,,,,,,,,,,,,,,,,1.4,337.38314450000007,None,None,1,,338.8994227000003,None,338.8994227000003,None,338.8994227000003,None,,,,,,,,,,,P039,FENCOG,2,Pre,2022_Apr_27_1040,Go No-Go Task,2021.1.4,120.06272076550806,
,"Rule: When you see a yellow image, do not press 'spacebar'.",Images/Fearful/BF05_FO.jpg,Fear,Yellow,Images/Yellow.jpg,None,ParentConditions/YellowYellowBlue_v2.xlsx,YellowYellowBlue,Conditions/Version_2/YellowFearStop.xlsx,yes,PASS,0.37509261462312704,,,,,,,,,0,0,0,1,0,0,0,0,0,17,17,17,,,,,,,,,,,,,,,,,,,,,,,,,,,,,,,,,,,,,,,,,,,,,,,,,,,,,,,,,,,,,,,,,,,,,,,,,,,,,,,1.34,339.29846069999985,None,None,1,,340.74884269999984,None,340.74884269999984,None,340.74884269999984,None,,,,,,,,,,,P039,FENCOG,2,Pre,2022_Apr_27_1040,Go No-Go Task,2021.1.4,120.06272076550806,
,"Rule: When you see a yellow image, do not press 'spacebar'.",Images/Happy/AM24HAS.jpg,Happy,Blue,Images/Blue.jpg,space,ParentConditions/YellowYellowBlue_v2.xlsx,YellowYellowBlue,Conditions/Version_2/YellowFearStop.xlsx,no,PASS,0.016158036932588105,,,,,,,,,0,0,0,1,0,0,0,0,0,18,18,18,,,,,,,,,,,,,,,,,,,,,,,,,,,,,,,,,,,,,,,,,,,,,,,,,,,,,,,,,,,,,,,,,,,,,,,,,,,,,,,1.6,341.14796650000017,None,space,1,0.2530637999998362,342.8565490000001,None,342.8565490000001,None,342.8565490000001,None,,,,,,,,,,,P039,FENCOG,2,Pre,2022_Apr_27_1040,Go No-Go Task,2021.1.4,120.06272076550806,
,"Rule: When you see a yellow image, do not press 'spacebar'.",Images/Fearful/AF11AFS.jpg,Fear,Yellow,Images/Yellow.jpg,None,ParentConditions/YellowYellowBlue_v2.xlsx,YellowYellowBlue,Conditions/Version_2/YellowFearStop.xlsx,yes,PASS,0.3371554357894605,,,,,,,,,0,0,0,1,0,0,0,0,0,19,19,19,,,,,,,,,,,,,,,,,,,,,,,,,,,,,,,,,,,,,,,,,,,,,,,,,,,,,,,,,,,,,,,,,,,,,,,,,,,,,,,1.57,343.2586624999999,None,None,1,,344.93938449999996,None,344.93938449999996,None,344.93938449999996,None,,,,,,,,,,,P039,FENCOG,2,Pre,2022_Apr_27_1040,Go No-Go Task,2021.1.4,120.06272076550806,
,"Rule: When you see a yellow image, do not press 'spacebar'.",Images/Happy/AF01_HE.jpg,Happy,Blue,Images/Blue.jpg,space,ParentConditions/YellowYellowBlue_v2.xlsx,YellowYellowBlue,Conditions/Version_2/YellowFearStop.xlsx,no,PASS,0.09770872574206646,,,,,,,,,0,0,0,1,0,0,0,0,0,20,20,20,,,,,,,,,,,,,,,,,,,,,,,,,,,,,,,,,,,,,,,,,,,,,,,,,,,,,,,,,,,,,,,,,,,,,,,,,,,,,,,1.62,345.338522,None,space,1,0.2538859000001139,347.06373669999994,None,347.06373669999994,None,347.06373669999994,None,,,,,,,,,,,P039,FENCOG,2,Pre,2022_Apr_27_1040,Go No-Go Task,2021.1.4,120.06272076550806,
,"Rule: When you see a yellow image, do not press 'spacebar'.",Images/Happy/AM10_HO.jpg,Happy,Blue,Images/Blue.jpg,space,ParentConditions/YellowYellowBlue_v2.xlsx,YellowYellowBlue,Conditions/Version_2/YellowFearStop.xlsx,no,PASS,0.35803186882916893,,,,,,,,,0,0,0,1,0,0,0,0,0,21,21,21,,,,,,,,,,,,,,,,,,,,,,,,,,,,,,,,,,,,,,,,,,,,,,,,,,,,,,,,,,,,,,,,,,,,,,,,,,,,,,,1.97,347.4652378999999,None,space,1,0.26743390000001455,349.54623649999985,None,349.54623649999985,None,349.54623649999985,None,,,,,,,,,,,P039,FENCOG,2,Pre,2022_Apr_27_1040,Go No-Go Task,2021.1.4,120.06272076550806,
,"Rule: When you see a yellow image, do not press 'spacebar'.",Images/Happy/AF09HAS.jpg,Happy,Blue,Images/Blue.jpg,space,ParentConditions/YellowYellowBlue_v2.xlsx,YellowYellowBlue,Conditions/Version_2/YellowFearStop.xlsx,no,PASS,0.20902890792548556,,,,,,,,,0,0,0,1,0,0,0,0,0,22,22,22,,,,,,,,,,,,,,,,,,,,,,,,,,,,,,,,,,,,,,,,,,,,,,,,,,,,,,,,,,,,,,,,,,,,,,,,,,,,,,,1.33,349.94528960000025,None,space,1,0.2983641999999236,351.3873587000003,None,351.3873587000003,None,351.3873587000003,None,,,,,,,,,,,P039,FENCOG,2,Pre,2022_Apr_27_1040,Go No-Go Task,2021.1.4,120.06272076550806,
,"Rule: When you see a yellow image, do not press 'spacebar'.",Images/Happy/BM02_HO.jpg,Happy,Blue,Images/Blue.jpg,space,ParentConditions/YellowYellowBlue_v2.xlsx,YellowYellowBlue,Conditions/Version_2/YellowFearStop.xlsx,no,PASS,0.6732741052769042,,,,,,,,,0,0,0,1,0,0,0,0,0,23,23,23,,,,,,,,,,,,,,,,,,,,,,,,,,,,,,,,,,,,,,,,,,,,,,,,,,,,,,,,,,,,,,,,,,,,,,,,,,,,,,,1.92,351.78224230000023,None,space,1,0.2987579000000551,353.794938,None,353.794938,None,353.794938,None,,,,,,,,,,,P039,FENCOG,2,Pre,2022_Apr_27_1040,Go No-Go Task,2021.1.4,120.06272076550806,
,"Rule: When you see a yellow image, do not press 'spacebar'.",Images/Happy/AM09_HE.jpg,Happy,Blue,Images/Blue.jpg,space,ParentConditions/YellowYellowBlue_v2.xlsx,YellowYellowBlue,Conditions/Version_2/YellowFearStop.xlsx,no,PASS,0.6065078221259242,,,,,,,,,0,0,0,1,0,0,0,0,0,24,24,24,,,,,,,,,,,,,,,,,,,,,,,,,,,,,,,,,,,,,,,,,,,,,,,,,,,,,,,,,,,,,,,,,,,,,,,,,,,,,,,1.44,354.1943406999999,None,space,1,0.3334055000000262,355.74444059999996,None,355.74444059999996,None,355.74444059999996,None,,,,,,,,,,,P039,FENCOG,2,Pre,2022_Apr_27_1040,Go No-Go Task,2021.1.4,120.06272076550806,
,"Rule: When you see a yellow image, do not press 'spacebar'.",Images/Happy/AF10_HE.jpg,Happy,Blue,Images/Blue.jpg,space,ParentConditions/YellowYellowBlue_v2.xlsx,YellowYellowBlue,Conditions/Version_2/YellowFearStop.xlsx,no,PASS,0.6869968801100608,,,,,,,,,0,0,0,1,0,0,0,0,0,25,25,25,,,,,,,,,,,,,,,,,,,,,,,,,,,,,,,,,,,,,,,,,,,,,,,,,,,,,,,,,,,,,,,,,,,,,,,,,,,,,,,1.42,356.1433127999999,None,space,1,0.24861559999999372,357.67712040000015,None,357.67712040000015,None,357.67712040000015,None,,,,,,,,,,,P039,FENCOG,2,Pre,2022_Apr_27_1040,Go No-Go Task,2021.1.4,120.06272076550806,
,"Rule: When you see a yellow image, do not press 'spacebar'.",Images/Happy/BM01_HO.jpg,Happy,Blue,Images/Blue.jpg,space,ParentConditions/YellowYellowBlue_v2.xlsx,YellowYellowBlue,Conditions/Version_2/YellowFearStop.xlsx,no,PASS,0.5538207000686074,,,,,,,,,0,0,0,1,0,0,0,0,0,26,26,26,,,,,,,,,,,,,,,,,,,,,,,,,,,,,,,,,,,,,,,,,,,,,,,,,,,,,,,,,,,,,,,,,,,,,,,,,,,,,,,1.37,358.07600790000015,None,space,1,0.35825000000022555,359.5516415000002,None,359.5516415000002,None,359.5516415000002,None,,,,,,,,,,,P039,FENCOG,2,Pre,2022_Apr_27_1040,Go No-Go Task,2021.1.4,120.06272076550806,
,"Rule: When you see a yellow image, do not press 'spacebar'.",Images/Fearful/AF07_FO.jpg,Fear,Yellow,Images/Yellow.jpg,None,ParentConditions/YellowYellowBlue_v2.xlsx,YellowYellowBlue,Conditions/Version_2/YellowFearStop.xlsx,yes,PASS,0.5689879324899989,,,,,,,,,0,0,0,1,0,0,0,0,0,27,27,27,,,,,,,,,,,,,,,,,,,,,,,,,,,,,,,,,,,,,,,,,,,,,,,,,,,,,,,,,,,,,,,,,,,,,,,,,,,,,,,2,359.9508676999999,None,None,1,,362.0592566,None,362.0592566,None,362.0592566,None,,,,,,,,,,,P039,FENCOG,2,Pre,2022_Apr_27_1040,Go No-Go Task,2021.1.4,120.06272076550806,
,"Rule: When you see a yellow image, do not press 'spacebar'.",Images/Happy/BF18_HO.jpg,Happy,Blue,Images/Blue.jpg,space,ParentConditions/YellowYellowBlue_v2.xlsx,YellowYellowBlue,Conditions/Version_2/YellowFearStop.xlsx,no,PASS,0.2528908254284902,,,,,,,,,0,0,0,1,0,0,0,0,0,28,28,28,,,,,,,,,,,,,,,,,,,,,,,,,,,,,,,,,,,,,,,,,,,,,,,,,,,,,,,,,,,,,,,,,,,,,,,,,,,,,,,1.23,362.45818340000005,None,space,1,0.26975979999997435,363.7920889000002,None,363.7920889000002,None,363.7920889000002,None,,,,,,,,,,,P039,FENCOG,2,Pre,2022_Apr_27_1040,Go No-Go Task,2021.1.4,120.06272076550806,
,"Rule: When you see a yellow image, do not press 'spacebar'.",Images/Happy/AM03HAS.jpg,Happy,Blue,Images/Blue.jpg,space,ParentConditions/YellowYellowBlue_v2.xlsx,YellowYellowBlue,Conditions/Version_2/YellowFearStop.xlsx,no,PASS,0.6129705520501836,,,,,,,,,0,0,0,1,0,0,0,0,0,29,29,29,,,,,,,,,,,,,,,,,,,,,,,,,,,,,,,,,,,,,,,,,,,,,,,,,,,,,,,,,,,,,,,,,,,,,,,,,,,,,,,1.35,364.19238540000015,None,space,1,0.29178760000013426,365.65817259999994,None,365.65817259999994,None,365.65817259999994,None,,,,,,,,,,,P039,FENCOG,2,Pre,2022_Apr_27_1040,Go No-Go Task,2021.1.4,120.06272076550806,
,"Rule: When you see a yellow image, do not press 'spacebar'.",Images/Happy/BF10_HO.jpg,Happy,Blue,Images/Blue.jpg,space,ParentConditions/YellowYellowBlue_v2.xlsx,YellowYellowBlue,Conditions/Version_2/YellowFearStop.xlsx,no,PASS,0.6633214650414543,,,,,,,,,0,0,0,1,0,0,0,0,0,30,30,30,,,,,,,,,,,,,,,,,,,,,,,,,,,,,,,,,,,,,,,,,,,,,,,,,,,,,,,,,,,,,,,,,,,,,,,,,,,,,,,1.22,366.0576618,None,space,1,0.3429022000000259,367.3910700000001,None,367.3910700000001,None,367.3910700000001,None,,,,,,,,,,,P039,FENCOG,2,Pre,2022_Apr_27_1040,Go No-Go Task,2021.1.4,120.06272076550806,
,"Rule: When you see a yellow image, do not press 'spacebar'.",Images/Happy/BF07_HO.jpg,Happy,Blue,Images/Blue.jpg,space,ParentConditions/YellowYellowBlue_v2.xlsx,YellowYellowBlue,Conditions/Version_2/YellowFearStop.xlsx,no,PASS,0.38343441764823294,,,,,,,,,0,0,0,1,0,0,0,0,0,31,31,31,,,,,,,,,,,,,,,,,,,,,,,,,,,,,,,,,,,,,,,,,,,,,,,,,,,,,,,,,,,,,,,,,,,,,,,,,,,,,,,1.66,367.7947127000002,None,space,1,0.2723740000001271,369.56539740000017,None,369.56539740000017,None,369.56539740000017,None,,,,,,,,,,,P039,FENCOG,2,Pre,2022_Apr_27_1040,Go No-Go Task,2021.1.4,120.06272076550806,
,"Rule: When you see a yellow image, do not press 'spacebar'.",Images/Fearful/BF07_FO.jpg,Fear,Yellow,Images/Yellow.jpg,None,ParentConditions/YellowYellowBlue_v2.xlsx,YellowYellowBlue,Conditions/Version_2/YellowFearStop.xlsx,yes,PASS,0.00831620462665883,,,,,,,,,0,0,0,1,0,0,0,0,0,32,32,32,,,,,,,,,,,,,,,,,,,,,,,,,,,,,,,,,,,,,,,,,,,,,,,,,,,,,,,,,,,,,,,,,,,,,,,,,,,,,,,1.68,369.96425339999996,None,None,1,,371.7563801000001,None,371.7563801000001,None,371.7563801000001,None,,,,,,,,,,,P039,FENCOG,2,Pre,2022_Apr_27_1040,Go No-Go Task,2021.1.4,120.06272076550806,
,"Rule: When you see a yellow image, do not press 'spacebar'.",Images/Happy/WF04_HC.jpg,Happy,Blue,Images/Blue.jpg,space,ParentConditions/YellowYellowBlue_v2.xlsx,YellowYellowBlue,Conditions/Version_2/YellowFearStop.xlsx,no,PASS,0.6777495076385776,,,,,,,,,0,0,0,1,0,0,0,0,0,33,33,33,,,,,,,,,,,,,,,,,,,,,,,,,,,,,,,,,,,,,,,,,,,,,,,,,,,,,,,,,,,,,,,,,,,,,,,,,,,,,,,1.45,372.15526230000023,None,space,1,0.2594272000001183,373.7224804000002,None,373.7224804000002,None,373.7224804000002,None,,,,,,,,,,,P039,FENCOG,2,Pre,2022_Apr_27_1040,Go No-Go Task,2021.1.4,120.06272076550806,
,"Rule: When you see a yellow image, do not press 'spacebar'.",Images/Happy/AM23HAS.jpg,Happy,Blue,Images/Blue.jpg,space,ParentConditions/YellowYellowBlue_v2.xlsx,YellowYellowBlue,Conditions/Version_2/YellowFearStop.xlsx,no,PASS,0.04303712392230152,,,,,,,,,0,0,0,1,0,0,0,0,0,34,34,34,,,,,,,,,,,,,,,,,,,,,,,,,,,,,,,,,,,,,,,,,,,,,,,,,,,,,,,,,,,,,,,,,,,,,,,,,,,,,,,1.53,374.1131491000001,None,space,1,0.2987198000000717,375.7468960000001,None,375.7468960000001,None,375.7468960000001,None,,,,,,,,,,,P039,FENCOG,2,Pre,2022_Apr_27_1040,Go No-Go Task,2021.1.4,120.06272076550806,
,"Rule: When you see a yellow image, do not press 'spacebar'.",Images/Happy/AM09HAS.jpg,Happy,Blue,Images/Blue.jpg,space,ParentConditions/YellowYellowBlue_v2.xlsx,YellowYellowBlue,Conditions/Version_2/YellowFearStop.xlsx,no,PASS,0.09574836161041034,,,,,,,,,0,0,0,1,0,0,0,0,0,35,35,35,,,,,,,,,,,,,,,,,,,,,,,,,,,,,,,,,,,,,,,,,,,,,,,,,,,,,,,,,,,,,,,,,,,,,,,,,,,,,,,1.51,376.1492782,None,space,1,0.3302631999999903,377.77129349999996,None,377.77129349999996,None,377.77129349999996,None,,,,,,,,,,,P039,FENCOG,2,Pre,2022_Apr_27_1040,Go No-Go Task,2021.1.4,120.06272076550806,
,"Rule: When you see a yellow image, do not press 'spacebar'.",Images/Happy/AM10HAS.jpg,Happy,Blue,Images/Blue.jpg,space,ParentConditions/YellowYellowBlue_v2.xlsx,YellowYellowBlue,Conditions/Version_2/YellowFearStop.xlsx,no,PASS,0.1630912911655703,,,,,,,,,0,0,0,1,0,0,0,0,0,36,36,36,,,,,,,,,,,,,,,,,,,,,,,,,,,,,,,,,,,,,,,,,,,,,,,,,,,,,,,,,,,,,,,,,,,,,,,,,,,,,,,1.58,378.1627582000001,None,space,1,0.29578799999990224,379.85400290000007,None,379.85400290000007,None,379.85400290000007,None,,,,,,,,,,,P039,FENCOG,2,Pre,2022_Apr_27_1040,Go No-Go Task,2021.1.4,120.06272076550806,
,"Rule: When you see a yellow image, do not press 'spacebar'.",Images/Happy/AF07HAS.jpg,Happy,Blue,Images/Blue.jpg,space,ParentConditions/YellowYellowBlue_v2.xlsx,YellowYellowBlue,Conditions/Version_2/YellowFearStop.xlsx,no,PASS,0.34867471869559996,,,,,,,,,0,0,0,1,0,0,0,0,0,37,37,37,,,,,,,,,,,,,,,,,,,,,,,,,,,,,,,,,,,,,,,,,,,,,,,,,,,,,,,,,,,,,,,,,,,,,,,,,,,,,,,1.47,380.25308410000025,None,space,1,0.257104100000106,381.83680460000005,None,381.83680460000005,None,381.83680460000005,None,,,,,,,,,,,P039,FENCOG,2,Pre,2022_Apr_27_1040,Go No-Go Task,2021.1.4,120.06272076550806,
,"Rule: When you see a yellow image, do not press 'spacebar'.",Images/Happy/AM03_HO.jpg,Happy,Blue,Images/Blue.jpg,space,ParentConditions/YellowYellowBlue_v2.xlsx,YellowYellowBlue,Conditions/Version_2/YellowFearStop.xlsx,no,PASS,0.8852047943617631,,,,,,,,,0,0,0,1,0,0,0,0,0,38,38,38,,,,,,,,,,,,,,,,,,,,,,,,,,,,,,,,,,,,,,,,,,,,,,,,,,,,,,,,,,,,,,,,,,,,,,,,,,,,,,,1.29,382.23187910000024,None,space,1,0.2581018999999287,383.6279313,None,383.6279313,None,383.6279313,None,,,,,,,,,,,P039,FENCOG,2,Pre,2022_Apr_27_1040,Go No-Go Task,2021.1.4,120.06272076550806,
,"Rule: When you see a yellow image, do not press 'spacebar'.",Images/Happy/AM05HAS.jpg,Happy,Blue,Images/Blue.jpg,space,ParentConditions/YellowYellowBlue_v2.xlsx,YellowYellowBlue,Conditions/Version_2/YellowFearStop.xlsx,no,PASS,0.25496798119470154,,,,,,,,,0,0,0,1,0,0,0,0,0,39,39,39,,,,,,,,,,,,,,,,,,,,,,,,,,,,,,,,,,,,,,,,,,,,,,,,,,,,,,,,,,,,,,,,,,,,,,,,,,,,,,,1.77,384.0320766,None,space,1,0.36684740000009697,385.9188873000003,None,385.9188873000003,None,385.9188873000003,None,,,,,,,,,,,P039,FENCOG,2,Pre,2022_Apr_27_1040,Go No-Go Task,2021.1.4,120.06272076550806,
,"Rule: When you see a yellow image, do not press 'spacebar'.",Images/Happy/AF02HAS.jpg,Happy,Blue,Images/Blue.jpg,space,ParentConditions/YellowYellowBlue_v2.xlsx,YellowYellowBlue,Conditions/Version_2/YellowFearStop.xlsx,no,PASS,0.4518610007497229,,,,,,,,,0,0,0,1,0,0,0,0,0,40,40,40,,,,,,,,,,,,,,,,,,,,,,,,,,,,,,,,,,,,,,,,,,,,,,,,,,,,,,,,,,,,,,,,,,,,,,,,,,,,,,,1.88,386.3097130000001,None,space,1,0.3845626000002085,388.29317949999995,None,388.29317949999995,None,388.29317949999995,None,,,,,,,,,,,P039,FENCOG,2,Pre,2022_Apr_27_1040,Go No-Go Task,2021.1.4,120.06272076550806,
,"Rule: When you see a yellow image, do not press 'spacebar'.",Images/Happy/BM08_HO.jpg,Happy,Blue,Images/Blue.jpg,space,ParentConditions/YellowYellowBlue_v2.xlsx,YellowYellowBlue,Conditions/Version_2/YellowFearStop.xlsx,no,PASS,0.6109180265070229,,,,,,,,,0,0,0,1,0,0,0,0,0,41,41,41,,,,,,,,,,,,,,,,,,,,,,,,,,,,,,,,,,,,,,,,,,,,,,,,,,,,,,,,,,,,,,,,,,,,,,,,,,,,,,,1.59,388.69402390000005,None,space,1,0.33344179999994594,390.3843557,None,390.3843557,None,390.3843557,None,,,,,,,,,,,P039,FENCOG,2,Pre,2022_Apr_27_1040,Go No-Go Task,2021.1.4,120.06272076550806,
,"Rule: When you see a yellow image, do not press 'spacebar'.",Images/Happy/AM22HAS.jpg,Happy,Blue,Images/Blue.jpg,space,ParentConditions/YellowYellowBlue_v2.xlsx,YellowYellowBlue,Conditions/Version_2/YellowFearStop.xlsx,no,PASS,0.358808559720486,,,,,,,,,0,0,0,1,0,0,0,0,0,42,42,42,,,,,,,,,,,,,,,,,,,,,,,,,,,,,,,,,,,,,,,,,,,,,,,,,,,,,,,,,,,,,,,,,,,,,,,,,,,,,,,1.95,390.78369969999994,None,space,1,0.2603382999996029,392.8335913000001,None,392.8335913000001,None,392.8335913000001,None,,,,,,,,,,,P039,FENCOG,2,Pre,2022_Apr_27_1040,Go No-Go Task,2021.1.4,120.06272076550806,
,"Rule: When you see a yellow image, do not press 'spacebar'.",Images/Happy/AM30HAS.jpg,Happy,Blue,Images/Blue.jpg,space,ParentConditions/YellowYellowBlue_v2.xlsx,YellowYellowBlue,Conditions/Version_2/YellowFearStop.xlsx,no,PASS,0.02897569025915847,,,,,,,,,0,0,0,1,0,0,0,0,0,43,43,43,,,,,,,,,,,,,,,,,,,,,,,,,,,,,,,,,,,,,,,,,,,,,,,,,,,,,,,,,,,,,,,,,,,,,,,,,,,,,,,1.79,393.2341452999999,None,space,1,0.23294739999982994,395.1329571000001,None,395.1329571000001,None,395.1329571000001,None,,,,,,,,,,,P039,FENCOG,2,Pre,2022_Apr_27_1040,Go No-Go Task,2021.1.4,120.06272076550806,
,"Rule: When you see a yellow image, do not press 'spacebar'.",Images/Fearful/BF09_FC.jpg,Fear,Yellow,Images/Yellow.jpg,None,ParentConditions/YellowYellowBlue_v2.xlsx,YellowYellowBlue,Conditions/Version_2/YellowFearStop.xlsx,yes,PASS,0.33656912313274023,,,,,,,,,0,0,0,1,0,0,0,0,0,44,44,44,,,,,,,,,,,,,,,,,,,,,,,,,,,,,,,,,,,,,,,,,,,,,,,,,,,,,,,,,,,,,,,,,,,,,,,,,,,,,,,1.2,395.5315912000001,None,space,0,0.3250167999999576,396.8406964999999,None,396.8406964999999,None,396.8406964999999,None,,,,,,,,,,,P039,FENCOG,2,Pre,2022_Apr_27_1040,Go No-Go Task,2021.1.4,120.06272076550806,
,"Rule: When you see a yellow image, do not press 'spacebar'.",Images/Happy/WM12_HE.jpg,Happy,Blue,Images/Blue.jpg,space,ParentConditions/YellowYellowBlue_v2.xlsx,YellowYellowBlue,Conditions/Version_2/YellowFearStop.xlsx,no,PASS,0.7601850991054155,,,,,,,,,0,0,0,1,0,0,0,0,0,45,45,45,,,,,,,,,,,,,,,,,,,,,,,,,,,,,,,,,,,,,,,,,,,,,,,,,,,,,,,,,,,,,,,,,,,,,,,,,,,,,,,1.52,397.2321606999999,None,space,1,0.34890519999999015,398.85685520000015,None,398.85685520000015,None,398.85685520000015,None,,,,,,,,,,,P039,FENCOG,2,Pre,2022_Apr_27_1040,Go No-Go Task,2021.1.4,120.06272076550806,
,"Rule: When you see a yellow image, do not press 'spacebar'.",Images/Happy/HF10_HE.jpg,Happy,Blue,Images/Blue.jpg,space,ParentConditions/YellowYellowBlue_v2.xlsx,YellowYellowBlue,Conditions/Version_2/YellowFearStop.xlsx,no,PASS,0.6650727272929988,,,,,,,,,0,0,0,1,0,0,0,0,0,46,46,46,,,,,,,,,,,,,,,,,,,,,,,,,,,,,,,,,,,,,,,,,,,,,,,,,,,,,,,,,,,,,,,,,,,,,,,,,,,,,,,1.86,399.2560859,None,space,1,0.2473331999999573,401.2227594000001,None,401.2227594000001,None,401.2227594000001,None,,,,,,,,,,,P039,FENCOG,2,Pre,2022_Apr_27_1040,Go No-Go Task,2021.1.4,120.06272076550806,
,"Rule: When you see a yellow image, do not press 'spacebar'.",Images/Happy/HM09_HO.jpg,Happy,Blue,Images/Blue.jpg,space,ParentConditions/YellowYellowBlue_v2.xlsx,YellowYellowBlue,Conditions/Version_2/YellowFearStop.xlsx,no,PASS,0.7196619298468737,,,,,,,,,0,0,0,1,0,0,0,0,0,47,47,47,,,,,,,,,,,,,,,,,,,,,,,,,,,,,,,,,,,,,,,,,,,,,,,,,,,,,,,,,,,,,,,,,,,,,,,,,,,,,,,1.83,401.62176069999987,None,space,1,0.32238939999979266,403.5553269000002,None,403.5553269000002,None,403.5553269000002,None,,,,,,,,,,,P039,FENCOG,2,Pre,2022_Apr_27_1040,Go No-Go Task,2021.1.4,120.06272076550806,
,"Rule: When you see a yellow image, do not press 'spacebar'.",Images/Fearful/AM03_FC.jpg,Fear,Yellow,Images/Yellow.jpg,None,ParentConditions/YellowYellowBlue_v2.xlsx,YellowYellowBlue,Conditions/Version_2/YellowFearStop.xlsx,yes,PASS,0.9021154613913315,,,,,,,,,0,0,0,1,0,0,0,0,0,48,48,48,,,,,,,,,,,,,,,,,,,,,,,,,,,,,,,,,,,,,,,,,,,,,,,,,,,,,,,,,,,,,,,,,,,,,,,,,,,,,,,1.89,403.96068289999994,None,None,1,,405.96310399999993,None,405.96310399999993,None,405.96310399999993,None,,,,,,,,,,,P039,FENCOG,2,Pre,2022_Apr_27_1040,Go No-Go Task,2021.1.4,120.06272076550806,
,"Rule: When you see a yellow image, do not press 'spacebar'.",Images/Happy/HF04_HE.jpg,Happy,Blue,Images/Blue.jpg,space,ParentConditions/YellowYellowBlue_v2.xlsx,YellowYellowBlue,Conditions/Version_2/YellowFearStop.xlsx,no,PASS,0.6828282636628492,,,,,,,,,0,0,0,1,0,0,0,0,0,49,49,49,,,,,,,,,,,,,,,,,,,,,,,,,,,,,,,,,,,,,,,,,,,,,,,,,,,,,,,,,,,,,,,,,,,,,,,,,,,,,,,1.81,406.3619984000002,None,space,1,0.28667489999997997,408.27899879999995,None,408.27899879999995,None,408.27899879999995,None,,,,,,,,,,,P039,FENCOG,2,Pre,2022_Apr_27_1040,Go No-Go Task,2021.1.4,120.06272076550806,
,"Rule: When you see a yellow image, do not press 'spacebar'.",Images/Happy/AM17HAS.jpg,Happy,Blue,Images/Blue.jpg,space,ParentConditions/YellowYellowBlue_v2.xlsx,YellowYellowBlue,Conditions/Version_2/YellowFearStop.xlsx,no,PASS,0.7726840133197573,,,,,,,,,0,0,0,1,0,0,0,0,0,50,50,50,,,,,,,,,,,,,,,,,,,,,,,,,,,,,,,,,,,,,,,,,,,,,,,,,,,,,,,,,,,,,,,,,,,,,,,,,,,,,,,1.8,408.67927980000013,None,space,1,0.3706606999999167,410.59506610000017,None,410.59506610000017,None,410.59506610000017,None,,,,,,,,,,,P039,FENCOG,2,Pre,2022_Apr_27_1040,Go No-Go Task,2021.1.4,120.06272076550806,
,"Rule: When you see a yellow image, do not press 'spacebar'.",Images/Fearful/BM01_FO.jpg,Fear,Yellow,Images/Yellow.jpg,None,ParentConditions/YellowYellowBlue_v2.xlsx,YellowYellowBlue,Conditions/Version_2/YellowFearStop.xlsx,yes,PASS,0.029850228609631824,,,,,,,,,0,0,0,1,0,0,0,0,0,51,51,51,,,,,,,,,,,,,,,,,,,,,,,,,,,,,,,,,,,,,,,,,,,,,,,,,,,,,,,,,,,,,,,,,,,,,,,,,,,,,,,1.94,410.99412600000005,None,None,1,,413.04426109999986,None,413.04426109999986,None,413.04426109999986,None,,,,,,,,,,,P039,FENCOG,2,Pre,2022_Apr_27_1040,Go No-Go Task,2021.1.4,120.06272076550806,
,"Rule: When you see a yellow image, do not press 'spacebar'.",Images/Happy/HF09_HE.jpg,Happy,Blue,Images/Blue.jpg,space,ParentConditions/YellowYellowBlue_v2.xlsx,YellowYellowBlue,Conditions/Version_2/YellowFearStop.xlsx,no,PASS,0.5416297044271999,,,,,,,,,0,0,0,1,0,0,0,0,0,52,52,52,,,,,,,,,,,,,,,,,,,,,,,,,,,,,,,,,,,,,,,,,,,,,,,,,,,,,,,,,,,,,,,,,,,,,,,,,,,,,,,1.39,413.44298830000025,None,space,1,0.239298499999677,414.92708459999994,None,414.92708459999994,None,414.92708459999994,None,,,,,,,,,,,P039,FENCOG,2,Pre,2022_Apr_27_1040,Go No-Go Task,2021.1.4,120.06272076550806,
,"Rule: When you see a yellow image, do not press 'spacebar'.",Images/Happy/WF11_HE.jpg,Happy,Blue,Images/Blue.jpg,space,ParentConditions/YellowYellowBlue_v2.xlsx,YellowYellowBlue,Conditions/Version_2/YellowFearStop.xlsx,no,PASS,0.3923399468002319,,,,,,,,,0,0,0,1,0,0,0,0,0,53,53,53,,,,,,,,,,,,,,,,,,,,,,,,,,,,,,,,,,,,,,,,,,,,,,,,,,,,,,,,,,,,,,,,,,,,,,,,,,,,,,,1.28,415.33400740000025,None,space,1,0.26354639999999563,416.7265646999999,None,416.7265646999999,None,416.7265646999999,None,,,,,,,,,,,P039,FENCOG,2,Pre,2022_Apr_27_1040,Go No-Go Task,2021.1.4,120.06272076550806,
,"Rule: When you see a yellow image, do not press 'spacebar'.",Images/Fearful/AM04AFS.jpg,Fear,Yellow,Images/Yellow.jpg,None,ParentConditions/YellowYellowBlue_v2.xlsx,YellowYellowBlue,Conditions/Version_2/YellowFearStop.xlsx,yes,PASS,0.7106263735051498,,,,,,,,,0,0,0,1,0,0,0,0,0,54,54,54,,,,,,,,,,,,,,,,,,,,,,,,,,,,,,,,,,,,,,,,,,,,,,,,,,,,,,,,,,,,,,,,,,,,,,,,,,,,,,,1.85,417.12578699999995,None,None,1,,419.08423870000024,None,419.08423870000024,None,419.08423870000024,None,,,,,,,,,,,P039,FENCOG,2,Pre,2022_Apr_27_1040,Go No-Go Task,2021.1.4,120.06272076550806,
,"Rule: When you see a yellow image, do not press 'spacebar'.",Images/Happy/AF19HAS.jpg,Happy,Blue,Images/Blue.jpg,space,ParentConditions/YellowYellowBlue_v2.xlsx,YellowYellowBlue,Conditions/Version_2/YellowFearStop.xlsx,no,PASS,0.3419128984214137,,,,,,,,,0,0,0,1,0,0,0,0,0,55,55,55,,,,,,,,,,,,,,,,,,,,,,,,,,,,,,,,,,,,,,,,,,,,,,,,,,,,,,,,,,,,,,,,,,,,,,,,,,,,,,,1.65,419.4831024,None,space,1,0.2519474999999147,421.2419642,None,421.2419642,None,421.2419642,None,,,,,,,,,,,P039,FENCOG,2,Pre,2022_Apr_27_1040,Go No-Go Task,2021.1.4,120.06272076550806,
,"Rule: When you see a yellow image, do not press 'spacebar'.",Images/Happy/HM06_HO.jpg,Happy,Blue,Images/Blue.jpg,space,ParentConditions/YellowYellowBlue_v2.xlsx,YellowYellowBlue,Conditions/Version_2/YellowFearStop.xlsx,no,PASS,0.8215154078276994,,,,,,,,,0,0,0,1,0,0,0,0,0,56,56,56,,,,,,,,,,,,,,,,,,,,,,,,,,,,,,,,,,,,,,,,,,,,,,,,,,,,,,,,,,,,,,,,,,,,,,,,,,,,,,,1.7,421.6401249999999,None,space,1,0.29241060000003927,423.44960260000016,None,423.44960260000016,None,423.44960260000016,None,,,,,,,,,,,P039,FENCOG,2,Pre,2022_Apr_27_1040,Go No-Go Task,2021.1.4,120.06272076550806,
,"Rule: When you see a yellow image, do not press 'spacebar'.",Images/Happy/HF05_HO.jpg,Happy,Blue,Images/Blue.jpg,space,ParentConditions/YellowYellowBlue_v2.xlsx,YellowYellowBlue,Conditions/Version_2/YellowFearStop.xlsx,no,PASS,0.4418945189155604,,,,,,,,,0,0,0,1,0,0,0,0,0,57,57,57,,,,,,,,,,,,,,,,,,,,,,,,,,,,,,,,,,,,,,,,,,,,,,,,,,,,,,,,,,,,,,,,,,,,,,,,,,,,,,,1.38,423.84533090000014,None,space,1,0.27347099999997226,425.33234470000025,None,425.33234470000025,None,425.33234470000025,None,,,,,,,,,,,P039,FENCOG,2,Pre,2022_Apr_27_1040,Go No-Go Task,2021.1.4,120.06272076550806,
,"Rule: When you see a yellow image, do not press 'spacebar'.",Images/Fearful/AF01_FO.jpg,Fear,Yellow,Images/Yellow.jpg,None,ParentConditions/YellowYellowBlue_v2.xlsx,YellowYellowBlue,Conditions/Version_2/YellowFearStop.xlsx,yes,PASS,0.9630260753042453,,,,,,,,,0,0,0,1,0,0,0,0,0,58,58,58,,,,,,,,,,,,,,,,,,,,,,,,,,,,,,,,,,,,,,,,,,,,,,,,,,,,,,,,,,,,,,,,,,,,,,,,,,,,,,,1.54,425.7346480000001,None,None,1,,427.3818372999999,None,427.3818372999999,None,427.3818372999999,None,,,,,,,,,,,P039,FENCOG,2,Pre,2022_Apr_27_1040,Go No-Go Task,2021.1.4,120.06272076550806,
,"Rule: When you see a yellow image, do not press 'spacebar'.",Images/Happy/AF21HAS.jpg,Happy,Blue,Images/Blue.jpg,space,ParentConditions/YellowYellowBlue_v2.xlsx,YellowYellowBlue,Conditions/Version_2/YellowFearStop.xlsx,no,PASS,0.5410977161582079,,,,,,,,,0,0,0,1,0,0,0,0,0,59,59,59,,,,,,,,,,,,,,,,,,,,,,,,,,,,,,,,,,,,,,,,,,,,,,,,,,,,,,,,,,,,,,,,,,,,,,,,,,,,,,,1.87,427.7825235999999,None,space,1,0.242103699999916,429.7560219000002,None,429.7560219000002,None,429.7560219000002,None,,,,,,,,,,,P039,FENCOG,2,Pre,2022_Apr_27_1040,Go No-Go Task,2021.1.4,120.06272076550806,
,"Rule: When you see a yellow image, do not press 'spacebar'.",Images/Happy/AM06_HC.jpg,Happy,Blue,Images/Blue.jpg,space,ParentConditions/YellowYellowBlue_v2.xlsx,YellowYellowBlue,Conditions/Version_2/YellowFearStop.xlsx,no,PASS,0.8195458073624309,,,,,,,,,0,0,0,1,0,0,0,0,0,60,60,60,,,,,,,,,,,,,,,,,,,,,,,,,,,,,,,,,,,,,,,,,,,,,,,,,,,,,,,,,,,,,,,,,,,,,,,,,,,,,,,1.36,430.1548533,None,space,1,0.28751950000014403,431.63049869999986,None,431.63049869999986,None,431.63049869999986,None,,,,,,,,,,,P039,FENCOG,2,Pre,2022_Apr_27_1040,Go No-Go Task,2021.1.4,120.06272076550806,
,"Rule: When you see a yellow image, do not press 'spacebar'.",Images/Fearful/AF02AFS.jpg,Fear,Yellow,Images/Yellow.jpg,None,ParentConditions/YellowYellowBlue_v2.xlsx,YellowYellowBlue,Conditions/Version_2/YellowFearStop.xlsx,yes,PASS,0.43475605439224807,,,,,,,,,0,0,0,1,0,0,0,0,0,61,61,61,,,,,,,,,,,,,,,,,,,,,,,,,,,,,,,,,,,,,,,,,,,,,,,,,,,,,,,,,,,,,,,,,,,,,,,,,,,,,,,1.56,432.02624419999984,None,None,1,,433.69654330000003,None,433.69654330000003,None,433.69654330000003,None,,,,,,,,,,,P039,FENCOG,2,Pre,2022_Apr_27_1040,Go No-Go Task,2021.1.4,120.06272076550806,
,"Rule: When you see a yellow image, do not press 'spacebar'.",Images/Happy/AF25HAS.jpg,Happy,Blue,Images/Blue.jpg,space,ParentConditions/YellowYellowBlue_v2.xlsx,YellowYellowBlue,Conditions/Version_2/YellowFearStop.xlsx,no,PASS,0.35344562160834636,,,,,,,,,0,0,0,1,0,0,0,0,0,62,62,62,,,,,,,,,,,,,,,,,,,,,,,,,,,,,,,,,,,,,,,,,,,,,,,,,,,,,,,,,,,,,,,,,,,,,,,,,,,,,,,1.91,434.09745280000016,None,space,1,0.2610732999996799,436.12084649999997,None,436.12084649999997,None,436.12084649999997,None,,,,,,,,,,,P039,FENCOG,2,Pre,2022_Apr_27_1040,Go No-Go Task,2021.1.4,120.06272076550806,
,"Rule: When you see a yellow image, do not press 'spacebar'.",Images/Happy/AM32HAS.jpg,Happy,Blue,Images/Blue.jpg,space,ParentConditions/YellowYellowBlue_v2.xlsx,YellowYellowBlue,Conditions/Version_2/YellowFearStop.xlsx,no,PASS,0.10846156836896592,,,,,,,,,0,0,0,1,0,0,0,0,0,63,63,63,,,,,,,,,,,,,,,,,,,,,,,,,,,,,,,,,,,,,,,,,,,,,,,,,,,,,,,,,,,,,,,,,,,,,,,,,,,,,,,1.69,436.51994509999986,None,space,1,0.334118799999942,438.31185240000013,None,438.31185240000013,None,438.31185240000013,None,,,,,,,,,,,P039,FENCOG,2,Pre,2022_Apr_27_1040,Go No-Go Task,2021.1.4,120.06272076550806,
,"Rule: When you see a yellow image, do not press 'spacebar'.",Images/Fearful/AM02_FO.jpg,Fear,Yellow,Images/Yellow.jpg,None,ParentConditions/YellowYellowBlue_v2.xlsx,YellowYellowBlue,Conditions/Version_2/YellowFearStop.xlsx,yes,PASS,0.093492050295921,,,,,,,,,0,0,0,1,0,0,0,0,0,64,64,64,,,,,,,,,,,,,,,,,,,,,,,,,,,,,,,,,,,,,,,,,,,,,,,,,,,,,,,,,,,,,,,,,,,,,,,,,,,,,,,1.64,438.7118891,None,None,1,,440.4609782000002,None,440.4609782000002,None,440.4609782000002,None,,,,,,,,,,,P039,FENCOG,2,Pre,2022_Apr_27_1040,Go No-Go Task,2021.1.4,120.06272076550806,
,"Rule: When you see a yellow image, do not press 'spacebar'.",Images/Fearful/BM02_FC.jpg,Fear,Yellow,Images/Yellow.jpg,None,ParentConditions/YellowYellowBlue_v2.xlsx,YellowYellowBlue,Conditions/Version_2/YellowFearStop.xlsx,yes,PASS,0.8390777988560751,,,,,,,,,0,0,0,1,0,0,0,0,0,65,65,65,,,,,,,,,,,,,,,,,,,,,,,,,,,,,,,,,,,,,,,,,,,,,,,,,,,,,,,,,,,,,,,,,,,,,,,,,,,,,,,1.5,440.8583385000002,None,None,1,,442.46884290000025,None,442.46884290000025,None,442.46884290000025,None,,,,,,,,,,,P039,FENCOG,2,Pre,2022_Apr_27_1040,Go No-Go Task,2021.1.4,120.06272076550806,
,"Rule: When you see a yellow image, do not press 'spacebar'.",Images/Happy/AM04_HE.jpg,Happy,Blue,Images/Blue.jpg,space,ParentConditions/YellowYellowBlue_v2.xlsx,YellowYellowBlue,Conditions/Version_2/YellowFearStop.xlsx,no,PASS,0.268677407796428,,,,,,,,,0,0,0,1,0,0,0,0,0,66,66,66,,,,,,,,,,,,,,,,,,,,,,,,,,,,,,,,,,,,,,,,,,,,,,,,,,,,,,,,,,,,,,,,,,,,,,,,,,,,,,,1.73,442.86570440000014,None,space,1,0.27233220000016445,444.70169190000024,None,444.70169190000024,None,444.70169190000024,None,,,,,,,,,,,P039,FENCOG,2,Pre,2022_Apr_27_1040,Go No-Go Task,2021.1.4,120.06272076550806,
,"Rule: When you see a yellow image, do not press 'spacebar'.",Images/Fearful/AM05AFS.jpg,Fear,Yellow,Images/Yellow.jpg,None,ParentConditions/YellowYellowBlue_v2.xlsx,YellowYellowBlue,Conditions/Version_2/YellowFearStop.xlsx,yes,PASS,0.6951263252071049,,,,,,,,,0,0,0,1,0,0,0,0,0,67,67,67,,,,,,,,,,,,,,,,,,,,,,,,,,,,,,,,,,,,,,,,,,,,,,,,,,,,,,,,,,,,,,,,,,,,,,,,,,,,,,,1.32,445.1007614,None,None,1,,446.5260398999999,None,446.5260398999999,None,446.5260398999999,None,,,,,,,,,,,P039,FENCOG,2,Pre,2022_Apr_27_1040,Go No-Go Task,2021.1.4,120.06272076550806,
,"Rule: When you see a yellow image, do not press 'spacebar'.",Images/Happy/AF28HAS.jpg,Happy,Blue,Images/Blue.jpg,space,ParentConditions/YellowYellowBlue_v2.xlsx,YellowYellowBlue,Conditions/Version_2/YellowFearStop.xlsx,no,PASS,0.25032705960911217,,,,,,,,,0,0,0,1,0,0,0,0,0,68,68,68,,,,,,,,,,,,,,,,,,,,,,,,,,,,,,,,,,,,,,,,,,,,,,,,,,,,,,,,,,,,,,,,,,,,,,,,,,,,,,,1.71,446.92879949999997,None,space,1,0.26327500000024884,448.7505599000001,None,448.7505599000001,None,448.7505599000001,None,,,,,,,,,,,P039,FENCOG,2,Pre,2022_Apr_27_1040,Go No-Go Task,2021.1.4,120.06272076550806,
,"Rule: When you see a yellow image, do not press 'spacebar'.",Images/Happy/AF07_HO.jpg,Happy,Blue,Images/Blue.jpg,space,ParentConditions/YellowYellowBlue_v2.xlsx,YellowYellowBlue,Conditions/Version_2/YellowFearStop.xlsx,no,PASS,0.293841477080362,,,,,,,,,0,0,0,1,0,0,0,0,0,69,69,69,,,,,,,,,,,,,,,,,,,,,,,,,,,,,,,,,,,,,,,,,,,,,,,,,,,,,,,,,,,,,,,,,,,,,,,,,,,,,,,1.76,449.1502193000001,None,space,1,0.29298219999964203,451.02480400000013,None,451.02480400000013,None,451.02480400000013,None,,,,,,,,,,,P039,FENCOG,2,Pre,2022_Apr_27_1040,Go No-Go Task,2021.1.4,120.06272076550806,
,"Rule: When you see a yellow image, do not press 'spacebar'.",Images/Happy/BF14_HO.jpg,Happy,Blue,Images/Blue.jpg,space,ParentConditions/YellowYellowBlue_v2.xlsx,YellowYellowBlue,Conditions/Version_2/YellowFearStop.xlsx,no,PASS,0.40422519447396765,,,,,,,,,0,0,0,1,0,0,0,0,0,70,70,70,,,,,,,,,,,,,,,,,,,,,,,,,,,,,,,,,,,,,,,,,,,,,,,,,,,,,,,,,,,,,,,,,,,,,,,,,,,,,,,1.74,451.42496819999997,None,space,1,0.2837650000001304,453.27411710000024,None,453.27411710000024,None,453.27411710000024,None,,,,,,,,,,,P039,FENCOG,2,Pre,2022_Apr_27_1040,Go No-Go Task,2021.1.4,120.06272076550806,
,"Rule: When you see a yellow image, do not press 'spacebar'.",Images/Fearful/AF07FS.jpg,Fear,Yellow,Images/Yellow.jpg,None,ParentConditions/YellowYellowBlue_v2.xlsx,YellowYellowBlue,Conditions/Version_2/YellowFearStop.xlsx,yes,PASS,0.7059954464635801,,,,,,,,,0,0,0,1,0,0,0,0,0,71,71,71,,,,,,,,,,,,,,,,,,,,,,,,,,,,,,,,,,,,,,,,,,,,,,,,,,,,,,,,,,,,,,,,,,,,,,,,,,,,,,,1.27,453.6782109999999,None,None,1,,455.05699189999996,None,455.05699189999996,None,455.05699189999996,None,,,,,,,,,,,P039,FENCOG,2,Pre,2022_Apr_27_1040,Go No-Go Task,2021.1.4,120.06272076550806,
,"Rule: When you see a yellow image, do not press 'spacebar'.",Images/Happy/AF32HAS.jpg,Happy,Blue,Images/Blue.jpg,space,ParentConditions/YellowYellowBlue_v2.xlsx,YellowYellowBlue,Conditions/Version_2/YellowFearStop.xlsx,no,PASS,0.6505932127186488,,,,,,,,,0,0,0,1,0,0,0,0,0,72,72,72,,,,,,,,,,,,,,,,,,,,,,,,,,,,,,,,,,,,,,,,,,,,,,,,,,,,,,,,,,,,,,,,,,,,,,,,,,,,,,,1.93,455.4561840000001,None,space,1,0.28407709999964936,457.4979094999999,None,457.4979094999999,None,457.4979094999999,None,,,,,,,,,,,P039,FENCOG,2,Pre,2022_Apr_27_1040,Go No-Go Task,2021.1.4,120.06272076550806,
,"Rule: When you see a yellow image, do not press 'spacebar'.",Images/Happy/AF11HAS.jpg,Happy,Blue,Images/Blue.jpg,space,ParentConditions/YellowYellowBlue_v2.xlsx,YellowYellowBlue,Conditions/Version_2/YellowFearStop.xlsx,no,PASS,0.22413936824153813,,,,,,,,,0,0,0,1,0,0,0,0,0,73,73,73,,,,,,,,,,,,,,,,,,,,,,,,,,,,,,,,,,,,,,,,,,,,,,,,,,,,,,,,,,,,,,,,,,,,,,,,,,,,,,,1.96,457.89284739999994,None,space,1,0.2906591999999364,459.95556739999984,None,459.95556739999984,None,459.95556739999984,None,,,,,,,,,,,P039,FENCOG,2,Pre,2022_Apr_27_1040,Go No-Go Task,2021.1.4,120.06272076550806,
,"Rule: When you see a yellow image, do not press 'spacebar'.",Images/Happy/AM19HAS.jpg,Happy,Blue,Images/Blue.jpg,space,ParentConditions/YellowYellowBlue_v2.xlsx,YellowYellowBlue,Conditions/Version_2/YellowFearStop.xlsx,no,PASS,0.5367328627339492,,,,,,,,,0,0,0,1,0,0,0,0,0,74,74,74,,,,,,,,,,,,,,,,,,,,,,,,,,,,,,,,,,,,,,,,,,,,,,,,,,,,,,,,,,,,,,,,,,,,,,,,,,,,,,,1.84,460.3559091000002,None,space,1,0.3169292000002315,462.3048690999999,None,462.3048690999999,None,462.3048690999999,None,,,,,,,,,,,P039,FENCOG,2,Pre,2022_Apr_27_1040,Go No-Go Task,2021.1.4,120.06272076550806,
,"Rule: When you see a yellow image, do not press 'spacebar'.",Images/Happy/AM01HAS.jpg,Happy,Blue,Images/Blue.jpg,space,ParentConditions/YellowYellowBlue_v2.xlsx,YellowYellowBlue,Conditions/Version_2/YellowFearStop.xlsx,no,PASS,0.4512238869721793,,,,,,,,,0,0,0,1,0,0,0,0,0,75,75,75,,,,,,,,,,,,,,,,,,,,,,,,,,,,,,,,,,,,,,,,,,,,,,,,,,,,,,,,,,,,,,,,,,,,,,,,,,,,,,,1.61,462.7036763000001,None,space,1,0.25651920000018436,464.4292951000002,None,464.4292951000002,None,464.4292951000002,None,,,,,,,,,,,P039,FENCOG,2,Pre,2022_Apr_27_1040,Go No-Go Task,2021.1.4,120.06272076550806,
,"Rule: When you see a yellow image, do not press 'spacebar'.",Images/Happy/WF05_HC.jpg,Happy,Blue,Images/Blue.jpg,space,ParentConditions/YellowYellowBlue_v2.xlsx,YellowYellowBlue,Conditions/Version_2/YellowFearStop.xlsx,no,PASS,0.7681499259335962,,,,,,,,,0,0,0,1,0,0,0,0,0,76,76,76,,,,,,,,,,,,,,,,,,,,,,,,,,,,,,,,,,,,,,,,,,,,,,,,,,,,,,,,,,,,,,,,,,,,,,,,,,,,,,,1.43,464.83394069999986,None,space,1,0.2675496000001658,466.37028210000017,None,466.37028210000017,None,466.37028210000017,None,,,,,,,,,,,P039,FENCOG,2,Pre,2022_Apr_27_1040,Go No-Go Task,2021.1.4,120.06272076550806,
,"Rule: When you see a yellow image, do not press 'spacebar'.",Images/Happy/BM03_HO.jpg,Happy,Blue,Images/Blue.jpg,space,ParentConditions/YellowYellowBlue_v2.xlsx,YellowYellowBlue,Conditions/Version_2/YellowFearStop.xlsx,no,PASS,0.5824047138137685,,,,,,,,,0,0,0,1,0,0,0,0,0,77,77,77,,,,,,,,,,,,,,,,,,,,,,,,,,,,,,,,,,,,,,,,,,,,,,,,,,,,,,,,,,,,,,,,,,,,,,,,,,,,,,,1.72,466.77086529999997,None,space,1,0.2670287000000826,468.6030399000001,None,468.6030399000001,None,468.6030399000001,None,,,,,,,,,,,P039,FENCOG,2,Pre,2022_Apr_27_1040,Go No-Go Task,2021.1.4,120.06272076550806,
,"Rule: When you see a yellow image, do not press 'spacebar'.",Images/Happy/AM02_HE.jpg,Happy,Blue,Images/Blue.jpg,space,ParentConditions/YellowYellowBlue_v2.xlsx,YellowYellowBlue,Conditions/Version_2/YellowFearStop.xlsx,no,PASS,0.8791068347561973,,,,,,,,,0,0,0,1,0,0,0,0,0,78,78,78,,,,,,,,,,,,,,,,,,,,,,,,,,,,,,,,,,,,,,,,,,,,,,,,,,,,,,,,,,,,,,,,,,,,,,,,,,,,,,,1.82,469.00273500000003,None,space,1,0.26259390000041094,470.9273625000001,None,470.9273625000001,None,470.9273625000001,None,,,,,,,,,,,P039,FENCOG,2,Pre,2022_Apr_27_1040,Go No-Go Task,2021.1.4,120.06272076550806,
,"Rule: When you see a yellow image, do not press 'spacebar'.",Images/Fearful/AM06_FO.jpg,Fear,Yellow,Images/Yellow.jpg,None,ParentConditions/YellowYellowBlue_v2.xlsx,YellowYellowBlue,Conditions/Version_2/YellowFearStop.xlsx,yes,PASS,0.40627235988994603,,,,,,,,,0,0,0,1,0,0,0,0,0,79,79,79,,,,,,,,,,,,,,,,,,,,,,,,,,,,,,,,,,,,,,,,,,,,,,,,,,,,,,,,,,,,,,,,,,,,,,,,,,,,,,,1.3,471.3288098000003,None,None,1,,472.73508619999984,None,472.73508619999984,None,472.73508619999984,None,,,,,,,,,,,P039,FENCOG,2,Pre,2022_Apr_27_1040,Go No-Go Task,2021.1.4,120.06272076550806,
,"Rule: When you see a yellow image, do not press 'spacebar'.",Images/Scram2/HM09_NC.jpg,Scramble,Blue,Images/Blue.jpg,space,ParentConditions/YellowYellowBlue_v2.xlsx,YellowYellowBlue,Conditions/Version_2/YellowScramStop.xlsx,no,PASS,0.46719820189093064,,,,,,,,,0,0,0,1,0,1,1,1,0,0,0,0,,,,,,,,,,,,,,,,,,,,,,,,,,,,,,,,,,,,,,,,,,,,,,,,,,,,,,,,,,,,,,,,,478.02568710000014,None,481.0154531000003,None,space,8.14239950000001,481.0154531000003,None,478.02568710000014,None,478.02568710000014,None,478.02568710000014,None,1.23,489.21333159999995,None,None,0,,490.5548057000001,None,490.5548057000001,None,490.5548057000001,None,473.15312189999986,None,space,4.363139600000068,473.64259219999985,None,473.15312189999986,None,473.15312189999986,None,P039,FENCOG,2,Pre,2022_Apr_27_1040,Go No-Go Task,2021.1.4,120.06272076550806,
,"Rule: When you see a yellow image, do not press 'spacebar'.",Images/Scram2/HM06_NC.jpg,Scramble,Blue,Images/Blue.jpg,space,ParentConditions/YellowYellowBlue_v2.xlsx,YellowYellowBlue,Conditions/Version_2/YellowScramStop.xlsx,no,PASS,0.564231421897386,,,,,,,,,0,0,0,1,0,1,1,1,0,1,1,1,,,,,,,,,,,,,,,,,,,,,,,,,,,,,,,,,,,,,,,,,,,,,,,,,,,,,,,,,,,,,,,,,,,,,,,,,,,,,,,1.87,490.95372180000004,None,space,1,0.3082424999997784,492.9375832999999,None,492.9375832999999,None,492.9375832999999,None,,,,,,,,,,,P039,FENCOG,2,Pre,2022_Apr_27_1040,Go No-Go Task,2021.1.4,120.06272076550806,
,"Rule: When you see a yellow image, do not press 'spacebar'.",Images/Scram1/AM31NES.jpg,Scramble,Blue,Images/Blue.jpg,space,ParentConditions/YellowYellowBlue_v2.xlsx,YellowYellowBlue,Conditions/Version_2/YellowScramStop.xlsx,no,PASS,0.846238330522312,,,,,,,,,0,0,0,1,0,1,1,1,0,2,2,2,,,,,,,,,,,,,,,,,,,,,,,,,,,,,,,,,,,,,,,,,,,,,,,,,,,,,,,,,,,,,,,,,,,,,,,,,,,,,,,1.33,493.3395344999999,None,space,1,0.28353500000002896,494.77863190000016,None,494.77863190000016,None,494.77863190000016,None,,,,,,,,,,,P039,FENCOG,2,Pre,2022_Apr_27_1040,Go No-Go Task,2021.1.4,120.06272076550806,
,"Rule: When you see a yellow image, do not press 'spacebar'.",Images/Scram2/AM03NES.jpg,Scramble,Yellow,Images/Yellow.jpg,None,ParentConditions/YellowYellowBlue_v2.xlsx,YellowYellowBlue,Conditions/Version_2/YellowScramStop.xlsx,yes,PASS,0.3566483684653988,,,,,,,,,0,0,0,1,0,1,1,1,0,3,3,3,,,,,,,,,,,,,,,,,,,,,,,,,,,,,,,,,,,,,,,,,,,,,,,,,,,,,,,,,,,,,,,,,,,,,,,,,,,,,,,1.36,495.17777220000016,None,None,1,,496.6447511000001,None,496.6447511000001,None,496.6447511000001,None,,,,,,,,,,,P039,FENCOG,2,Pre,2022_Apr_27_1040,Go No-Go Task,2021.1.4,120.06272076550806,
,"Rule: When you see a yellow image, do not press 'spacebar'.",Images/Scram2/BM01_NC.jpg,Scramble,Blue,Images/Blue.jpg,space,ParentConditions/YellowYellowBlue_v2.xlsx,YellowYellowBlue,Conditions/Version_2/YellowScramStop.xlsx,no,PASS,0.6300515820310504,,,,,,,,,0,0,0,1,0,1,1,1,0,4,4,4,,,,,,,,,,,,,,,,,,,,,,,,,,,,,,,,,,,,,,,,,,,,,,,,,,,,,,,,,,,,,,,,,,,,,,,,,,,,,,,1.71,497.04378989999987,None,space,1,0.2809272999998029,498.8691088999999,None,498.8691088999999,None,498.8691088999999,None,,,,,,,,,,,P039,FENCOG,2,Pre,2022_Apr_27_1040,Go No-Go Task,2021.1.4,120.06272076550806,
,"Rule: When you see a yellow image, do not press 'spacebar'.",Images/Scram1/HM09_NC.jpg,Scramble,Blue,Images/Blue.jpg,space,ParentConditions/YellowYellowBlue_v2.xlsx,YellowYellowBlue,Conditions/Version_2/YellowScramStop.xlsx,no,PASS,0.9681952009545239,,,,,,,,,0,0,0,1,0,1,1,1,0,5,5,5,,,,,,,,,,,,,,,,,,,,,,,,,,,,,,,,,,,,,,,,,,,,,,,,,,,,,,,,,,,,,,,,,,,,,,,,,,,,,,,1.61,499.2680322000001,None,space,1,0.25230580000015834,500.99347260000013,None,500.99347260000013,None,500.99347260000013,None,,,,,,,,,,,P039,FENCOG,2,Pre,2022_Apr_27_1040,Go No-Go Task,2021.1.4,120.06272076550806,
,"Rule: When you see a yellow image, do not press 'spacebar'.",Images/Scram2/BF07_NC.jpg,Scramble,Blue,Images/Blue.jpg,space,ParentConditions/YellowYellowBlue_v2.xlsx,YellowYellowBlue,Conditions/Version_2/YellowScramStop.xlsx,no,PASS,0.21646267744166114,,,,,,,,,0,0,0,1,0,1,1,1,0,6,6,6,,,,,,,,,,,,,,,,,,,,,,,,,,,,,,,,,,,,,,,,,,,,,,,,,,,,,,,,,,,,,,,,,,,,,,,,,,,,,,,1.95,501.39079459999994,None,space,1,0.33087899999964066,503.4510823999999,None,503.4510823999999,None,503.4510823999999,None,,,,,,,,,,,P039,FENCOG,2,Pre,2022_Apr_27_1040,Go No-Go Task,2021.1.4,120.06272076550806,
,"Rule: When you see a yellow image, do not press 'spacebar'.",Images/Scram1/BF14_NC.jpg,Scramble,Blue,Images/Blue.jpg,space,ParentConditions/YellowYellowBlue_v2.xlsx,YellowYellowBlue,Conditions/Version_2/YellowScramStop.xlsx,no,PASS,0.9846643703258401,,,,,,,,,0,0,0,1,0,1,1,1,0,7,7,7,,,,,,,,,,,,,,,,,,,,,,,,,,,,,,,,,,,,,,,,,,,,,,,,,,,,,,,,,,,,,,,,,,,,,,,,,,,,,,,1.41,503.8501503000002,None,space,1,0.31892519999973956,505.3673008999999,None,505.3673008999999,None,505.3673008999999,None,,,,,,,,,,,P039,FENCOG,2,Pre,2022_Apr_27_1040,Go No-Go Task,2021.1.4,120.06272076550806,
,"Rule: When you see a yellow image, do not press 'spacebar'.",Images/Scram2/AF10_NC.jpg,Scramble,Blue,Images/Blue.jpg,space,ParentConditions/YellowYellowBlue_v2.xlsx,YellowYellowBlue,Conditions/Version_2/YellowScramStop.xlsx,no,PASS,0.2443614348279377,,,,,,,,,0,0,0,1,0,1,1,1,0,8,8,8,,,,,,,,,,,,,,,,,,,,,,,,,,,,,,,,,,,,,,,,,,,,,,,,,,,,,,,,,,,,,,,,,,,,,,,,,,,,,,,1.73,505.7666918,None,space,1,0.24595170000020516,507.5998966000002,None,507.5998966000002,None,507.5998966000002,None,,,,,,,,,,,P039,FENCOG,2,Pre,2022_Apr_27_1040,Go No-Go Task,2021.1.4,120.06272076550806,
,"Rule: When you see a yellow image, do not press 'spacebar'.",Images/Scram2/AF01_NC.jpg,Scramble,Blue,Images/Blue.jpg,space,ParentConditions/YellowYellowBlue_v2.xlsx,YellowYellowBlue,Conditions/Version_2/YellowScramStop.xlsx,no,PASS,0.5418077894665677,,,,,,,,,0,0,0,1,0,1,1,1,0,9,9,9,,,,,,,,,,,,,,,,,,,,,,,,,,,,,,,,,,,,,,,,,,,,,,,,,,,,,,,,,,,,,,,,,,,,,,,,,,,,,,,1.76,507.99900030000026,None,space,1,0.22771359999978813,509.87437339999997,None,509.87437339999997,None,509.87437339999997,None,,,,,,,,,,,P039,FENCOG,2,Pre,2022_Apr_27_1040,Go No-Go Task,2021.1.4,120.06272076550806,
,"Rule: When you see a yellow image, do not press 'spacebar'.",Images/Scram2/AF24NES.jpg,Scramble,Blue,Images/Blue.jpg,space,ParentConditions/YellowYellowBlue_v2.xlsx,YellowYellowBlue,Conditions/Version_2/YellowScramStop.xlsx,no,PASS,0.5679342954932528,,,,,,,,,0,0,0,1,0,1,1,1,0,10,10,10,,,,,,,,,,,,,,,,,,,,,,,,,,,,,,,,,,,,,,,,,,,,,,,,,,,,,,,,,,,,,,,,,,,,,,,,,,,,,,,1.91,510.27318809999997,None,space,1,0.3231556000000637,512.3069335,None,512.3069335,None,512.3069335,None,,,,,,,,,,,P039,FENCOG,2,Pre,2022_Apr_27_1040,Go No-Go Task,2021.1.4,120.06272076550806,
,"Rule: When you see a yellow image, do not press 'spacebar'.",Images/Scram2/BF14_NC.jpg,Scramble,Blue,Images/Blue.jpg,space,ParentConditions/YellowYellowBlue_v2.xlsx,YellowYellowBlue,Conditions/Version_2/YellowScramStop.xlsx,no,PASS,0.8825179199303765,,,,,,,,,0,0,0,1,0,1,1,1,0,11,11,11,,,,,,,,,,,,,,,,,,,,,,,,,,,,,,,,,,,,,,,,,,,,,,,,,,,,,,,,,,,,,,,,,,,,,,,,,,,,,,,1.25,512.7029637999999,None,space,1,0.2533195999999407,514.0646375000001,None,514.0646375000001,None,514.0646375000001,None,,,,,,,,,,,P039,FENCOG,2,Pre,2022_Apr_27_1040,Go No-Go Task,2021.1.4,120.06272076550806,
,"Rule: When you see a yellow image, do not press 'spacebar'.",Images/Scram1/AM13NES.jpg,Scramble,Blue,Images/Blue.jpg,space,ParentConditions/YellowYellowBlue_v2.xlsx,YellowYellowBlue,Conditions/Version_2/YellowScramStop.xlsx,no,PASS,0.21043647733489834,,,,,,,,,0,0,0,1,0,1,1,1,0,12,12,12,,,,,,,,,,,,,,,,,,,,,,,,,,,,,,,,,,,,,,,,,,,,,,,,,,,,,,,,,,,,,,,,,,,,,,,,,,,,,,,1.54,514.4613262000003,None,space,1,0.3162422999998853,516.1057417000002,None,516.1057417000002,None,516.1057417000002,None,,,,,,,,,,,P039,FENCOG,2,Pre,2022_Apr_27_1040,Go No-Go Task,2021.1.4,120.06272076550806,
,"Rule: When you see a yellow image, do not press 'spacebar'.",Images/Scram1/HM04_NC.jpg,Scramble,Blue,Images/Blue.jpg,space,ParentConditions/YellowYellowBlue_v2.xlsx,YellowYellowBlue,Conditions/Version_2/YellowScramStop.xlsx,no,PASS,0.048118244636673246,,,,,,,,,0,0,0,1,0,1,1,1,0,13,13,13,,,,,,,,,,,,,,,,,,,,,,,,,,,,,,,,,,,,,,,,,,,,,,,,,,,,,,,,,,,,,,,,,,,,,,,,,,,,,,,1.34,516.5146496000002,None,space,1,0.24240140000028987,517.9635441999999,None,517.9635441999999,None,517.9635441999999,None,,,,,,,,,,,P039,FENCOG,2,Pre,2022_Apr_27_1040,Go No-Go Task,2021.1.4,120.06272076550806,
,"Rule: When you see a yellow image, do not press 'spacebar'.",Images/Scram1/AM03NES.jpg,Scramble,Blue,Images/Blue.jpg,space,ParentConditions/YellowYellowBlue_v2.xlsx,YellowYellowBlue,Conditions/Version_2/YellowScramStop.xlsx,no,PASS,0.5072407620323995,,,,,,,,,0,0,0,1,0,1,1,1,0,14,14,14,,,,,,,,,,,,,,,,,,,,,,,,,,,,,,,,,,,,,,,,,,,,,,,,,,,,,,,,,,,,,,,,,,,,,,,,,,,,,,,1.42,518.3625049000002,None,space,1,0.22995350000019243,519.8880609000003,None,519.8880609000003,None,519.8880609000003,None,,,,,,,,,,,P039,FENCOG,2,Pre,2022_Apr_27_1040,Go No-Go Task,2021.1.4,120.06272076550806,
,"Rule: When you see a yellow image, do not press 'spacebar'.",Images/Scram1/AM22NES.jpg,Scramble,Blue,Images/Blue.jpg,space,ParentConditions/YellowYellowBlue_v2.xlsx,YellowYellowBlue,Conditions/Version_2/YellowScramStop.xlsx,no,PASS,0.8332736468200919,,,,,,,,,0,0,0,1,0,1,1,1,0,15,15,15,,,,,,,,,,,,,,,,,,,,,,,,,,,,,,,,,,,,,,,,,,,,,,,,,,,,,,,,,,,,,,,,,,,,,,,,,,,,,,,1.74,520.2886626,None,space,1,0.2927212999998119,522.1372644000003,None,522.1372644000003,None,522.1372644000003,None,,,,,,,,,,,P039,FENCOG,2,Pre,2022_Apr_27_1040,Go No-Go Task,2021.1.4,120.06272076550806,
,"Rule: When you see a yellow image, do not press 'spacebar'.",Images/Scram2/AM17NES.jpg,Scramble,Yellow,Images/Yellow.jpg,None,ParentConditions/YellowYellowBlue_v2.xlsx,YellowYellowBlue,Conditions/Version_2/YellowScramStop.xlsx,yes,PASS,0.5524440306249002,,,,,,,,,0,0,0,1,0,1,1,1,0,16,16,16,,,,,,,,,,,,,,,,,,,,,,,,,,,,,,,,,,,,,,,,,,,,,,,,,,,,,,,,,,,,,,,,,,,,,,,,,,,,,,,1.29,522.5827745000001,None,space,0,0.2597077000000354,523.9867825000001,None,523.9867825000001,None,523.9867825000001,None,,,,,,,,,,,P039,FENCOG,2,Pre,2022_Apr_27_1040,Go No-Go Task,2021.1.4,120.06272076550806,
,"Rule: When you see a yellow image, do not press 'spacebar'.",Images/Scram1/AM10NES.jpg,Scramble,Blue,Images/Blue.jpg,space,ParentConditions/YellowYellowBlue_v2.xlsx,YellowYellowBlue,Conditions/Version_2/YellowScramStop.xlsx,no,PASS,0.13699730503466545,,,,,,,,,0,0,0,1,0,1,1,1,0,17,17,17,,,,,,,,,,,,,,,,,,,,,,,,,,,,,,,,,,,,,,,,,,,,,,,,,,,,,,,,,,,,,,,,,,,,,,,,,,,,,,,1.75,524.3856866000001,None,space,1,0.21759639999982028,526.2444768999999,None,526.2444768999999,None,526.2444768999999,None,,,,,,,,,,,P039,FENCOG,2,Pre,2022_Apr_27_1040,Go No-Go Task,2021.1.4,120.06272076550806,
,"Rule: When you see a yellow image, do not press 'spacebar'.",Images/Scram2/AM03_NC.jpg,Scramble,Yellow,Images/Yellow.jpg,None,ParentConditions/YellowYellowBlue_v2.xlsx,YellowYellowBlue,Conditions/Version_2/YellowScramStop.xlsx,yes,PASS,0.2886954903206703,,,,,,,,,0,0,0,1,0,1,1,1,0,18,18,18,,,,,,,,,,,,,,,,,,,,,,,,,,,,,,,,,,,,,,,,,,,,,,,,,,,,,,,,,,,,,,,,,,,,,,,,,,,,,,,1.24,526.6433852,None,space,0,0.22042080000028363,527.9855536,None,527.9855536,None,527.9855536,None,,,,,,,,,,,P039,FENCOG,2,Pre,2022_Apr_27_1040,Go No-Go Task,2021.1.4,120.06272076550806,
,"Rule: When you see a yellow image, do not press 'spacebar'.",Images/Scram1/HF09_NC.jpg,Scramble,Blue,Images/Blue.jpg,space,ParentConditions/YellowYellowBlue_v2.xlsx,YellowYellowBlue,Conditions/Version_2/YellowScramStop.xlsx,no,PASS,0.5210471780653185,,,,,,,,,0,0,0,1,0,1,1,1,0,19,19,19,,,,,,,,,,,,,,,,,,,,,,,,,,,,,,,,,,,,,,,,,,,,,,,,,,,,,,,,,,,,,,,,,,,,,,,,,,,,,,,1.86,528.3844365,None,space,1,0.309991699999955,530.3682297,None,530.3682297,None,530.3682297,None,,,,,,,,,,,P039,FENCOG,2,Pre,2022_Apr_27_1040,Go No-Go Task,2021.1.4,120.06272076550806,
,"Rule: When you see a yellow image, do not press 'spacebar'.",Images/Scram1/BM08_NC.jpg,Scramble,Blue,Images/Blue.jpg,space,ParentConditions/YellowYellowBlue_v2.xlsx,YellowYellowBlue,Conditions/Version_2/YellowScramStop.xlsx,no,PASS,0.7192207106921986,,,,,,,,,0,0,0,1,0,1,1,1,0,20,20,20,,,,,,,,,,,,,,,,,,,,,,,,,,,,,,,,,,,,,,,,,,,,,,,,,,,,,,,,,,,,,,,,,,,,,,,,,,,,,,,1.72,530.7636704000001,None,space,1,0.31791059999977733,532.5842347000003,None,532.5842347000003,None,532.5842347000003,None,,,,,,,,,,,P039,FENCOG,2,Pre,2022_Apr_27_1040,Go No-Go Task,2021.1.4,120.06272076550806,
,"Rule: When you see a yellow image, do not press 'spacebar'.",Images/Scram1/AF32NES.jpg,Scramble,Blue,Images/Blue.jpg,space,ParentConditions/YellowYellowBlue_v2.xlsx,YellowYellowBlue,Conditions/Version_2/YellowScramStop.xlsx,no,PASS,0.3856706921106089,,,,,,,,,0,0,0,1,0,1,1,1,0,21,21,21,,,,,,,,,,,,,,,,,,,,,,,,,,,,,,,,,,,,,,,,,,,,,,,,,,,,,,,,,,,,,,,,,,,,,,,,,,,,,,,1.9,532.9959858000002,None,space,1,0.25366359999998167,535.0002356999998,None,535.0002356999998,None,535.0002356999998,None,,,,,,,,,,,P039,FENCOG,2,Pre,2022_Apr_27_1040,Go No-Go Task,2021.1.4,120.06272076550806,
,"Rule: When you see a yellow image, do not press 'spacebar'.",Images/Scram2/AM06_NC.jpg,Scramble,Yellow,Images/Yellow.jpg,None,ParentConditions/YellowYellowBlue_v2.xlsx,YellowYellowBlue,Conditions/Version_2/YellowScramStop.xlsx,yes,PASS,0.593844606938259,,,,,,,,,0,0,0,1,0,1,1,1,0,22,22,22,,,,,,,,,,,,,,,,,,,,,,,,,,,,,,,,,,,,,,,,,,,,,,,,,,,,,,,,,,,,,,,,,,,,,,,,,,,,,,,1.58,535.4010668000001,None,None,1,,537.0910064,None,537.0910064,None,537.0910064,None,,,,,,,,,,,P039,FENCOG,2,Pre,2022_Apr_27_1040,Go No-Go Task,2021.1.4,120.06272076550806,
,"Rule: When you see a yellow image, do not press 'spacebar'.",Images/Scram1/AM06_NC.jpg,Scramble,Blue,Images/Blue.jpg,space,ParentConditions/YellowYellowBlue_v2.xlsx,YellowYellowBlue,Conditions/Version_2/YellowScramStop.xlsx,no,PASS,0.5597751985943138,,,,,,,,,0,0,0,1,0,1,1,1,0,23,23,23,,,,,,,,,,,,,,,,,,,,,,,,,,,,,,,,,,,,,,,,,,,,,,,,,,,,,,,,,,,,,,,,,,,,,,,,,,,,,,,1.46,537.48938,None,space,1,0.2767269999999371,539.0573171999999,None,539.0573171999999,None,539.0573171999999,None,,,,,,,,,,,P039,FENCOG,2,Pre,2022_Apr_27_1040,Go No-Go Task,2021.1.4,120.06272076550806,
,"Rule: When you see a yellow image, do not press 'spacebar'.",Images/Scram2/AM02_NC.jpg,Scramble,Yellow,Images/Yellow.jpg,None,ParentConditions/YellowYellowBlue_v2.xlsx,YellowYellowBlue,Conditions/Version_2/YellowScramStop.xlsx,yes,PASS,0.21014535444537008,,,,,,,,,0,0,0,1,0,1,1,1,0,24,24,24,,,,,,,,,,,,,,,,,,,,,,,,,,,,,,,,,,,,,,,,,,,,,,,,,,,,,,,,,,,,,,,,,,,,,,,,,,,,,,,1.82,539.4576127999999,None,None,1,,541.3899535999999,None,541.3899535999999,None,541.3899535999999,None,,,,,,,,,,,P039,FENCOG,2,Pre,2022_Apr_27_1040,Go No-Go Task,2021.1.4,120.06272076550806,
,"Rule: When you see a yellow image, do not press 'spacebar'.",Images/Scram2/HF05_NC.jpg,Scramble,Blue,Images/Blue.jpg,space,ParentConditions/YellowYellowBlue_v2.xlsx,YellowYellowBlue,Conditions/Version_2/YellowScramStop.xlsx,no,PASS,0.0025091428399978133,,,,,,,,,0,0,0,1,0,1,1,1,0,25,25,25,,,,,,,,,,,,,,,,,,,,,,,,,,,,,,,,,,,,,,,,,,,,,,,,,,,,,,,,,,,,,,,,,,,,,,,,,,,,,,,1.4,541.7866543,None,space,1,0.27676689999998416,543.2890467000002,None,543.2890467000002,None,543.2890467000002,None,,,,,,,,,,,P039,FENCOG,2,Pre,2022_Apr_27_1040,Go No-Go Task,2021.1.4,120.06272076550806,
,"Rule: When you see a yellow image, do not press 'spacebar'.",Images/Scram2/AF32NES.jpg,Scramble,Yellow,Images/Yellow.jpg,None,ParentConditions/YellowYellowBlue_v2.xlsx,YellowYellowBlue,Conditions/Version_2/YellowScramStop.xlsx,yes,PASS,0.5621638043526047,,,,,,,,,0,0,0,1,0,1,1,1,0,26,26,26,,,,,,,,,,,,,,,,,,,,,,,,,,,,,,,,,,,,,,,,,,,,,,,,,,,,,,,,,,,,,,,,,,,,,,,,,,,,,,,1.47,543.6881294,None,None,1,,545.2637042000001,None,545.2637042000001,None,545.2637042000001,None,,,,,,,,,,,P039,FENCOG,2,Pre,2022_Apr_27_1040,Go No-Go Task,2021.1.4,120.06272076550806,
,"Rule: When you see a yellow image, do not press 'spacebar'.",Images/Scram2/HM04_NC.jpg,Scramble,Blue,Images/Blue.jpg,space,ParentConditions/YellowYellowBlue_v2.xlsx,YellowYellowBlue,Conditions/Version_2/YellowScramStop.xlsx,no,PASS,0.3656961779732233,,,,,,,,,0,0,0,1,0,1,1,1,0,27,27,27,,,,,,,,,,,,,,,,,,,,,,,,,,,,,,,,,,,,,,,,,,,,,,,,,,,,,,,,,,,,,,,,,,,,,,,,,,,,,,,1.35,545.6638155,None,space,1,0.29201929999999265,547.1297872,None,547.1297872,None,547.1297872,None,,,,,,,,,,,P039,FENCOG,2,Pre,2022_Apr_27_1040,Go No-Go Task,2021.1.4,120.06272076550806,
,"Rule: When you see a yellow image, do not press 'spacebar'.",Images/Scram2/AF25NES.jpg,Scramble,Blue,Images/Blue.jpg,space,ParentConditions/YellowYellowBlue_v2.xlsx,YellowYellowBlue,Conditions/Version_2/YellowScramStop.xlsx,no,PASS,0.24296732370581886,,,,,,,,,0,0,0,1,0,1,1,1,0,28,28,28,,,,,,,,,,,,,,,,,,,,,,,,,,,,,,,,,,,,,,,,,,,,,,,,,,,,,,,,,,,,,,,,,,,,,,,,,,,,,,,1.67,547.5298581000002,None,space,1,0.3338281999999708,549.2959808999999,None,549.2959808999999,None,549.2959808999999,None,,,,,,,,,,,P039,FENCOG,2,Pre,2022_Apr_27_1040,Go No-Go Task,2021.1.4,120.06272076550806,
,"Rule: When you see a yellow image, do not press 'spacebar'.",Images/Scram1/AF34NES.jpg,Scramble,Blue,Images/Blue.jpg,space,ParentConditions/YellowYellowBlue_v2.xlsx,YellowYellowBlue,Conditions/Version_2/YellowScramStop.xlsx,no,PASS,0.2947970947694444,,,,,,,,,0,0,0,1,0,1,1,1,0,29,29,29,,,,,,,,,,,,,,,,,,,,,,,,,,,,,,,,,,,,,,,,,,,,,,,,,,,,,,,,,,,,,,,,,,,,,,,,,,,,,,,1.62,549.6983190000001,None,space,1,0.2735518000004049,551.4286886999998,None,551.4286886999998,None,551.4286886999998,None,,,,,,,,,,,P039,FENCOG,2,Pre,2022_Apr_27_1040,Go No-Go Task,2021.1.4,120.06272076550806,
,"Rule: When you see a yellow image, do not press 'spacebar'.",Images/Scram2/AF11NES.jpg,Scramble,Blue,Images/Blue.jpg,space,ParentConditions/YellowYellowBlue_v2.xlsx,YellowYellowBlue,Conditions/Version_2/YellowScramStop.xlsx,no,PASS,0.06112693600308039,,,,,,,,,0,0,0,1,0,1,1,1,0,30,30,30,,,,,,,,,,,,,,,,,,,,,,,,,,,,,,,,,,,,,,,,,,,,,,,,,,,,,,,,,,,,,,,,,,,,,,,,,,,,,,,1.45,551.8291927999999,None,space,1,0.3316350000000057,553.3864260999999,None,553.3864260999999,None,553.3864260999999,None,,,,,,,,,,,P039,FENCOG,2,Pre,2022_Apr_27_1040,Go No-Go Task,2021.1.4,120.06272076550806,
,"Rule: When you see a yellow image, do not press 'spacebar'.",Images/Scram2/AF34NES.jpg,Scramble,Yellow,Images/Yellow.jpg,None,ParentConditions/YellowYellowBlue_v2.xlsx,YellowYellowBlue,Conditions/Version_2/YellowScramStop.xlsx,yes,PASS,0.36837427021744795,,,,,,,,,0,0,0,1,0,1,1,1,0,31,31,31,,,,,,,,,,,,,,,,,,,,,,,,,,,,,,,,,,,,,,,,,,,,,,,,,,,,,,,,,,,,,,,,,,,,,,,,,,,,,,,1.27,553.7855644000001,None,None,1,,555.1692966999999,None,555.1692966999999,None,555.1692966999999,None,,,,,,,,,,,P039,FENCOG,2,Pre,2022_Apr_27_1040,Go No-Go Task,2021.1.4,120.06272076550806,
,"Rule: When you see a yellow image, do not press 'spacebar'.",Images/Scram1/AM02_NC.jpg,Scramble,Blue,Images/Blue.jpg,space,ParentConditions/YellowYellowBlue_v2.xlsx,YellowYellowBlue,Conditions/Version_2/YellowScramStop.xlsx,no,PASS,0.7004017432139685,,,,,,,,,0,0,0,1,0,1,1,1,0,32,32,32,,,,,,,,,,,,,,,,,,,,,,,,,,,,,,,,,,,,,,,,,,,,,,,,,,,,,,,,,,,,,,,,,,,,,,,,,,,,,,,1.56,555.5683303999999,None,space,1,0.2825019000001703,557.2436897000002,None,557.2436897000002,None,557.2436897000002,None,,,,,,,,,,,P039,FENCOG,2,Pre,2022_Apr_27_1040,Go No-Go Task,2021.1.4,120.06272076550806,
,"Rule: When you see a yellow image, do not press 'spacebar'.",Images/Scram2/AM13NES.jpg,Scramble,Yellow,Images/Yellow.jpg,None,ParentConditions/YellowYellowBlue_v2.xlsx,YellowYellowBlue,Conditions/Version_2/YellowScramStop.xlsx,yes,PASS,0.7037668434542473,,,,,,,,,0,0,0,1,0,1,1,1,0,33,33,33,,,,,,,,,,,,,,,,,,,,,,,,,,,,,,,,,,,,,,,,,,,,,,,,,,,,,,,,,,,,,,,,,,,,,,,,,,,,,,,1.79,557.6474492000002,None,None,1,,559.5512739999999,None,559.5512739999999,None,559.5512739999999,None,,,,,,,,,,,P039,FENCOG,2,Pre,2022_Apr_27_1040,Go No-Go Task,2021.1.4,120.06272076550806,
,"Rule: When you see a yellow image, do not press 'spacebar'.",Images/Scram1/AM03_NC.jpg,Scramble,Blue,Images/Blue.jpg,space,ParentConditions/YellowYellowBlue_v2.xlsx,YellowYellowBlue,Conditions/Version_2/YellowScramStop.xlsx,no,PASS,0.13984736132192788,,,,,,,,,0,0,0,1,0,1,1,1,0,34,34,34,,,,,,,,,,,,,,,,,,,,,,,,,,,,,,,,,,,,,,,,,,,,,,,,,,,,,,,,,,,,,,,,,,,,,,,,,,,,,,,1.98,559.9502020999998,None,space,1,0.27586509999991904,562.0421962999999,None,562.0421962999999,None,562.0421962999999,None,,,,,,,,,,,P039,FENCOG,2,Pre,2022_Apr_27_1040,Go No-Go Task,2021.1.4,120.06272076550806,
,"Rule: When you see a yellow image, do not press 'spacebar'.",Images/Scram1/AF33NES.jpg,Scramble,Blue,Images/Blue.jpg,space,ParentConditions/YellowYellowBlue_v2.xlsx,YellowYellowBlue,Conditions/Version_2/YellowScramStop.xlsx,no,PASS,0.7479968675198729,,,,,,,,,0,0,0,1,0,1,1,1,0,35,35,35,,,,,,,,,,,,,,,,,,,,,,,,,,,,,,,,,,,,,,,,,,,,,,,,,,,,,,,,,,,,,,,,,,,,,,,,,,,,,,,1.83,562.4411069000002,None,space,1,0.3426046999998107,564.3833091000001,None,564.3833091000001,None,564.3833091000001,None,,,,,,,,,,,P039,FENCOG,2,Pre,2022_Apr_27_1040,Go No-Go Task,2021.1.4,120.06272076550806,
,"Rule: When you see a yellow image, do not press 'spacebar'.",Images/Scram1/BF10_NC.jpg,Scramble,Blue,Images/Blue.jpg,space,ParentConditions/YellowYellowBlue_v2.xlsx,YellowYellowBlue,Conditions/Version_2/YellowScramStop.xlsx,no,PASS,0.5225639267337787,,,,,,,,,0,0,0,1,0,1,1,1,0,36,36,36,,,,,,,,,,,,,,,,,,,,,,,,,,,,,,,,,,,,,,,,,,,,,,,,,,,,,,,,,,,,,,,,,,,,,,,,,,,,,,,1.84,564.7823364999999,None,space,1,0.2975303999996868,566.7325762,None,566.7325762,None,566.7325762,None,,,,,,,,,,,P039,FENCOG,2,Pre,2022_Apr_27_1040,Go No-Go Task,2021.1.4,120.06272076550806,
,"Rule: When you see a yellow image, do not press 'spacebar'.",Images/Scram1/AF07_NC.jpg,Scramble,Blue,Images/Blue.jpg,space,ParentConditions/YellowYellowBlue_v2.xlsx,YellowYellowBlue,Conditions/Version_2/YellowScramStop.xlsx,no,PASS,0.5221002530466395,,,,,,,,,0,0,0,1,0,1,1,1,0,37,37,37,,,,,,,,,,,,,,,,,,,,,,,,,,,,,,,,,,,,,,,,,,,,,,,,,,,,,,,,,,,,,,,,,,,,,,,,,,,,,,,1.7,567.1282077999999,None,space,1,0.2900684999999612,568.9318722000003,None,568.9318722000003,None,568.9318722000003,None,,,,,,,,,,,P039,FENCOG,2,Pre,2022_Apr_27_1040,Go No-Go Task,2021.1.4,120.06272076550806,
,"Rule: When you see a yellow image, do not press 'spacebar'.",Images/Scram2/AM23NES.jpg,Scramble,Yellow,Images/Yellow.jpg,None,ParentConditions/YellowYellowBlue_v2.xlsx,YellowYellowBlue,Conditions/Version_2/YellowScramStop.xlsx,yes,PASS,0.18195499113806335,,,,,,,,,0,0,0,1,0,1,1,1,0,38,38,38,,,,,,,,,,,,,,,,,,,,,,,,,,,,,,,,,,,,,,,,,,,,,,,,,,,,,,,,,,,,,,,,,,,,,,,,,,,,,,,1.32,569.3366574000001,None,None,1,,570.7729926000002,None,570.7729926000002,None,570.7729926000002,None,,,,,,,,,,,P039,FENCOG,2,Pre,2022_Apr_27_1040,Go No-Go Task,2021.1.4,120.06272076550806,
,"Rule: When you see a yellow image, do not press 'spacebar'.",Images/Scram1/AF24NES.jpg,Scramble,Blue,Images/Blue.jpg,space,ParentConditions/YellowYellowBlue_v2.xlsx,YellowYellowBlue,Conditions/Version_2/YellowScramStop.xlsx,no,PASS,0.6640389388315467,,,,,,,,,0,0,0,1,0,1,1,1,0,39,39,39,,,,,,,,,,,,,,,,,,,,,,,,,,,,,,,,,,,,,,,,,,,,,,,,,,,,,,,,,,,,,,,,,,,,,,,,,,,,,,,1.81,571.1720694,None,space,1,0.2529967000000397,573.0890103000002,None,573.0890103000002,None,573.0890103000002,None,,,,,,,,,,,P039,FENCOG,2,Pre,2022_Apr_27_1040,Go No-Go Task,2021.1.4,120.06272076550806,
,"Rule: When you see a yellow image, do not press 'spacebar'.",Images/Scram2/AF33NES.jpg,Scramble,Yellow,Images/Yellow.jpg,None,ParentConditions/YellowYellowBlue_v2.xlsx,YellowYellowBlue,Conditions/Version_2/YellowScramStop.xlsx,yes,PASS,0.6203826022283658,,,,,,,,,0,0,0,1,0,1,1,1,0,40,40,40,,,,,,,,,,,,,,,,,,,,,,,,,,,,,,,,,,,,,,,,,,,,,,,,,,,,,,,,,,,,,,,,,,,,,,,,,,,,,,,1.2,573.4922145,None,None,1,,574.7969361999999,None,574.7969361999999,None,574.7969361999999,None,,,,,,,,,,,P039,FENCOG,2,Pre,2022_Apr_27_1040,Go No-Go Task,2021.1.4,120.06272076550806,
,"Rule: When you see a yellow image, do not press 'spacebar'.",Images/Scram1/AF25NES.jpg,Scramble,Blue,Images/Blue.jpg,space,ParentConditions/YellowYellowBlue_v2.xlsx,YellowYellowBlue,Conditions/Version_2/YellowScramStop.xlsx,no,PASS,0.05141546475857928,,,,,,,,,0,0,0,1,0,1,1,1,0,41,41,41,,,,,,,,,,,,,,,,,,,,,,,,,,,,,,,,,,,,,,,,,,,,,,,,,,,,,,,,,,,,,,,,,,,,,,,,,,,,,,,1.48,575.2007429999999,None,space,1,0.25001120000024457,576.7963331999999,None,576.7963331999999,None,576.7963331999999,None,,,,,,,,,,,P039,FENCOG,2,Pre,2022_Apr_27_1040,Go No-Go Task,2021.1.4,120.06272076550806,
,"Rule: When you see a yellow image, do not press 'spacebar'.",Images/Scram2/AM10NES.jpg,Scramble,Yellow,Images/Yellow.jpg,None,ParentConditions/YellowYellowBlue_v2.xlsx,YellowYellowBlue,Conditions/Version_2/YellowScramStop.xlsx,yes,PASS,0.1267743006232639,,,,,,,,,0,0,0,1,0,1,1,1,0,42,42,42,,,,,,,,,,,,,,,,,,,,,,,,,,,,,,,,,,,,,,,,,,,,,,,,,,,,,,,,,,,,,,,,,,,,,,,,,,,,,,,1.64,577.1929178999999,None,None,1,,578.9372917000001,None,578.9372917000001,None,578.9372917000001,None,,,,,,,,,,,P039,FENCOG,2,Pre,2022_Apr_27_1040,Go No-Go Task,2021.1.4,120.06272076550806,
,"Rule: When you see a yellow image, do not press 'spacebar'.",Images/Scram2/BF10_NC.jpg,Scramble,Blue,Images/Blue.jpg,space,ParentConditions/YellowYellowBlue_v2.xlsx,YellowYellowBlue,Conditions/Version_2/YellowScramStop.xlsx,no,PASS,0.22016560502147287,,,,,,,,,0,0,0,1,0,1,1,1,0,43,43,43,,,,,,,,,,,,,,,,,,,,,,,,,,,,,,,,,,,,,,,,,,,,,,,,,,,,,,,,,,,,,,,,,,,,,,,,,,,,,,,1.21,579.3396364,None,space,1,0.26400139999987005,580.6619157,None,580.6619157,None,580.6619157,None,,,,,,,,,,,P039,FENCOG,2,Pre,2022_Apr_27_1040,Go No-Go Task,2021.1.4,120.06272076550806,
,"Rule: When you see a yellow image, do not press 'spacebar'.",Images/Scram1/BF18_NC.jpg,Scramble,Blue,Images/Blue.jpg,space,ParentConditions/YellowYellowBlue_v2.xlsx,YellowYellowBlue,Conditions/Version_2/YellowScramStop.xlsx,no,PASS,0.11487631985977975,,,,,,,,,0,0,0,1,0,1,1,1,0,44,44,44,,,,,,,,,,,,,,,,,,,,,,,,,,,,,,,,,,,,,,,,,,,,,,,,,,,,,,,,,,,,,,,,,,,,,,,,,,,,,,,1.66,581.0546236,None,space,1,0.37843359999988024,582.8194683000002,None,582.8194683000002,None,582.8194683000002,None,,,,,,,,,,,P039,FENCOG,2,Pre,2022_Apr_27_1040,Go No-Go Task,2021.1.4,120.06272076550806,
,"Rule: When you see a yellow image, do not press 'spacebar'.",Images/Scram2/HF09_NC.jpg,Scramble,Blue,Images/Blue.jpg,space,ParentConditions/YellowYellowBlue_v2.xlsx,YellowYellowBlue,Conditions/Version_2/YellowScramStop.xlsx,no,PASS,0.20475492045840804,,,,,,,,,0,0,0,1,0,1,1,1,0,45,45,45,,,,,,,,,,,,,,,,,,,,,,,,,,,,,,,,,,,,,,,,,,,,,,,,,,,,,,,,,,,,,,,,,,,,,,,,,,,,,,,1.52,583.2198458000003,None,space,1,0.3061102000001483,584.8521848,None,584.8521848,None,584.8521848,None,,,,,,,,,,,P039,FENCOG,2,Pre,2022_Apr_27_1040,Go No-Go Task,2021.1.4,120.06272076550806,
,"Rule: When you see a yellow image, do not press 'spacebar'.",Images/Scram1/BF05_NC.jpg,Scramble,Blue,Images/Blue.jpg,space,ParentConditions/YellowYellowBlue_v2.xlsx,YellowYellowBlue,Conditions/Version_2/YellowScramStop.xlsx,no,PASS,0.6685497116677461,,,,,,,,,0,0,0,1,0,1,1,1,0,46,46,46,,,,,,,,,,,,,,,,,,,,,,,,,,,,,,,,,,,,,,,,,,,,,,,,,,,,,,,,,,,,,,,,,,,,,,,,,,,,,,,1.96,585.2512035,None,space,1,0.2959049999999479,587.3181465000002,None,587.3181465000002,None,587.3181465000002,None,,,,,,,,,,,P039,FENCOG,2,Pre,2022_Apr_27_1040,Go No-Go Task,2021.1.4,120.06272076550806,
,"Rule: When you see a yellow image, do not press 'spacebar'.",Images/Scram1/AM17NES.jpg,Scramble,Blue,Images/Blue.jpg,space,ParentConditions/YellowYellowBlue_v2.xlsx,YellowYellowBlue,Conditions/Version_2/YellowScramStop.xlsx,no,PASS,0.5575549831069895,,,,,,,,,0,0,0,1,0,1,1,1,0,47,47,47,,,,,,,,,,,,,,,,,,,,,,,,,,,,,,,,,,,,,,,,,,,,,,,,,,,,,,,,,,,,,,,,,,,,,,,,,,,,,,,1.92,587.7189450999999,None,space,1,0.26350860000002285,589.7424452,None,589.7424452,None,589.7424452,None,,,,,,,,,,,P039,FENCOG,2,Pre,2022_Apr_27_1040,Go No-Go Task,2021.1.4,120.06272076550806,
,"Rule: When you see a yellow image, do not press 'spacebar'.",Images/Scram2/AM09_NC.jpg,Scramble,Yellow,Images/Yellow.jpg,None,ParentConditions/YellowYellowBlue_v2.xlsx,YellowYellowBlue,Conditions/Version_2/YellowScramStop.xlsx,yes,PASS,0.08490473937246712,,,,,,,,,0,0,0,1,0,1,1,1,0,48,48,48,,,,,,,,,,,,,,,,,,,,,,,,,,,,,,,,,,,,,,,,,,,,,,,,,,,,,,,,,,,,,,,,,,,,,,,,,,,,,,,1.3,590.1416465000002,None,None,1,,591.5419246000001,None,591.5419246000001,None,591.5419246000001,None,,,,,,,,,,,P039,FENCOG,2,Pre,2022_Apr_27_1040,Go No-Go Task,2021.1.4,120.06272076550806,
,"Rule: When you see a yellow image, do not press 'spacebar'.",Images/Scram2/AF09NES.jpg,Scramble,Blue,Images/Blue.jpg,space,ParentConditions/YellowYellowBlue_v2.xlsx,YellowYellowBlue,Conditions/Version_2/YellowScramStop.xlsx,no,PASS,0.8511922023884788,,,,,,,,,0,0,0,1,0,1,1,1,0,49,49,49,,,,,,,,,,,,,,,,,,,,,,,,,,,,,,,,,,,,,,,,,,,,,,,,,,,,,,,,,,,,,,,,,,,,,,,,,,,,,,,1.99,591.9495757,None,space,1,0.26854759999969247,594.0495240999999,None,594.0495240999999,None,594.0495240999999,None,,,,,,,,,,,P039,FENCOG,2,Pre,2022_Apr_27_1040,Go No-Go Task,2021.1.4,120.06272076550806,
,"Rule: When you see a yellow image, do not press 'spacebar'.",Images/Scram2/AM04_NC.jpg,Scramble,Yellow,Images/Yellow.jpg,None,ParentConditions/YellowYellowBlue_v2.xlsx,YellowYellowBlue,Conditions/Version_2/YellowScramStop.xlsx,yes,PASS,0.9711738915701108,,,,,,,,,0,0,0,1,0,1,1,1,0,50,50,50,,,,,,,,,,,,,,,,,,,,,,,,,,,,,,,,,,,,,,,,,,,,,,,,,,,,,,,,,,,,,,,,,,,,,,,,,,,,,,,1.39,594.4492789000001,None,None,1,,595.9489116,None,595.9489116,None,595.9489116,None,,,,,,,,,,,P039,FENCOG,2,Pre,2022_Apr_27_1040,Go No-Go Task,2021.1.4,120.06272076550806,
,"Rule: When you see a yellow image, do not press 'spacebar'.",Images/Scram2/BF05_NC.jpg,Scramble,Yellow,Images/Yellow.jpg,None,ParentConditions/YellowYellowBlue_v2.xlsx,YellowYellowBlue,Conditions/Version_2/YellowScramStop.xlsx,yes,PASS,0.3684660889098009,,,,,,,,,0,0,0,1,0,1,1,1,0,51,51,51,,,,,,,,,,,,,,,,,,,,,,,,,,,,,,,,,,,,,,,,,,,,,,,,,,,,,,,,,,,,,,,,,,,,,,,,,,,,,,,1.68,596.3481164,None,None,1,,598.1402263,None,598.1402263,None,598.1402263,None,,,,,,,,,,,P039,FENCOG,2,Pre,2022_Apr_27_1040,Go No-Go Task,2021.1.4,120.06272076550806,
,"Rule: When you see a yellow image, do not press 'spacebar'.",Images/Scram1/HM06_NC.jpg,Scramble,Blue,Images/Blue.jpg,space,ParentConditions/YellowYellowBlue_v2.xlsx,YellowYellowBlue,Conditions/Version_2/YellowScramStop.xlsx,no,PASS,0.5754528995111275,,,,,,,,,0,0,0,1,0,1,1,1,0,52,52,52,,,,,,,,,,,,,,,,,,,,,,,,,,,,,,,,,,,,,,,,,,,,,,,,,,,,,,,,,,,,,,,,,,,,,,,,,,,,,,,1.89,598.5389502000003,None,space,1,0.28315139999995154,600.5309397999999,None,600.5309397999999,None,600.5309397999999,None,,,,,,,,,,,P039,FENCOG,2,Pre,2022_Apr_27_1040,Go No-Go Task,2021.1.4,120.06272076550806,
,"Rule: When you see a yellow image, do not press 'spacebar'.",Images/Scram2/AF07NES.jpg,Scramble,Blue,Images/Blue.jpg,space,ParentConditions/YellowYellowBlue_v2.xlsx,YellowYellowBlue,Conditions/Version_2/YellowScramStop.xlsx,no,PASS,0.5077779466511061,,,,,,,,,0,0,0,1,0,1,1,1,0,53,53,53,,,,,,,,,,,,,,,,,,,,,,,,,,,,,,,,,,,,,,,,,,,,,,,,,,,,,,,,,,,,,,,,,,,,,,,,,,,,,,,1.59,600.9317114,None,space,1,0.24045849999993152,602.6219783000001,None,602.6219783000001,None,602.6219783000001,None,,,,,,,,,,,P039,FENCOG,2,Pre,2022_Apr_27_1040,Go No-Go Task,2021.1.4,120.06272076550806,
,"Rule: When you see a yellow image, do not press 'spacebar'.",Images/Scram1/BM01_NC.jpg,Scramble,Blue,Images/Blue.jpg,space,ParentConditions/YellowYellowBlue_v2.xlsx,YellowYellowBlue,Conditions/Version_2/YellowScramStop.xlsx,no,PASS,0.6162286290631079,,,,,,,,,0,0,0,1,0,1,1,1,0,54,54,54,,,,,,,,,,,,,,,,,,,,,,,,,,,,,,,,,,,,,,,,,,,,,,,,,,,,,,,,,,,,,,,,,,,,,,,,,,,,,,,1.94,603.022868,None,space,1,0.24795319999975618,605.0625296000003,None,605.0625296000003,None,605.0625296000003,None,,,,,,,,,,,P039,FENCOG,2,Pre,2022_Apr_27_1040,Go No-Go Task,2021.1.4,120.06272076550806,
,"Rule: When you see a yellow image, do not press 'spacebar'.",Images/Scram2/AF07_NC.jpg,Scramble,Blue,Images/Blue.jpg,space,ParentConditions/YellowYellowBlue_v2.xlsx,YellowYellowBlue,Conditions/Version_2/YellowScramStop.xlsx,no,PASS,0.1394775454550986,,,,,,,,,0,0,0,1,0,1,1,1,0,55,55,55,,,,,,,,,,,,,,,,,,,,,,,,,,,,,,,,,,,,,,,,,,,,,,,,,,,,,,,,,,,,,,,,,,,,,,,,,,,,,,,1.8,605.4610871999998,None,space,1,0.27536289999989094,607.3706078999999,None,607.3706078999999,None,607.3706078999999,None,,,,,,,,,,,P039,FENCOG,2,Pre,2022_Apr_27_1040,Go No-Go Task,2021.1.4,120.06272076550806,
