CondFileP,Instructions,FaceE,Express,ColourT,ColourF,CorrectAnsP,MasterCondFile,BlockOrder,CondFile,ColCheck,Triplicate_check,SORT_BY_SMALLEST,EPracticeOuterLoop.thisRepN,EPracticeOuterLoop.thisTrialN,EPracticeOuterLoop.thisN,EPracticeOuterLoop.thisIndex,EPracticeInnerLoop.thisRepN,EPracticeInnerLoop.thisTrialN,EPracticeInnerLoop.thisN,EPracticeInnerLoop.thisIndex,MasterLoop.thisRepN,MasterLoop.thisTrialN,MasterLoop.thisN,MasterLoop.thisIndex,OuterLoop.thisRepN,OuterLoop.thisTrialN,OuterLoop.thisN,OuterLoop.thisIndex,InnerLoop.thisRepN,InnerLoop.thisTrialN,InnerLoop.thisN,InnerLoop.thisIndex,text_13.started,text_13.stopped,key_resp_10.keys,key_resp_10.rt,key_resp_10.started,key_resp_10.stopped,text4.started,text4.stopped,EmotionTaskInstructions1.keys,EmotionTaskInstructions1.rt,EmotionTaskInstructions1.started,EmotionTaskInstructions1.stopped,text_4.started,text_4.stopped,key_resp_5.keys,key_resp_5.rt,key_resp_5.started,key_resp_5.stopped,Text_14.started,Text_14.stopped,key_resp_9.keys,key_resp_9.rt,key_resp_9.started,key_resp_9.stopped,text_5.started,text_5.stopped,text_6.started,text_6.stopped,key_resp_7.keys,key_resp_7.rt,key_resp_7.started,key_resp_7.stopped,text_10.started,text_10.stopped,text_11.started,text_11.stopped,text_12.started,text_12.stopped,ISIjitterPractice,EPracticeISIMarker.started,EPracticeISIMarker.stopped,Pract.keys,Pract.corr,Pract.started,Pract.stopped,PracticeFace.started,PracticeFace.stopped,ColourPractice.started,ColourPractice.stopped,text_7.started,text_7.stopped,Pract.rt,EndOfPractice.started,EndOfPractice.stopped,key_resp_8.keys,key_resp_8.rt,key_resp_8.started,key_resp_8.stopped,text_8.started,text_8.stopped,key_resp_6.keys,key_resp_6.rt,key_resp_6.started,key_resp_6.stopped,text_2.started,text_2.stopped,text_3.started,text_3.stopped,key_resp_3.keys,key_resp_3.rt,key_resp_3.started,key_resp_3.stopped,TaskBlock.started,TaskBlock.stopped,BlockNo1.started,BlockNo1.stopped,OfBlock.started,OfBlock.stopped,ISIjitter,ISImarker.started,ISImarker.stopped,key_resp.keys,key_resp.corr,key_resp.started,key_resp.stopped,FaceSet.started,FaceSet.stopped,Colour.started,Colour.stopped,key_resp.rt,EndBlockText.started,EndBlockText.stopped,key_resp_4.keys,key_resp_4.rt,key_resp_4.started,key_resp_4.stopped,BreakText2.started,BreakText2.stopped,PressToContinue.started,PressToContinue.stopped,participant,Study Name,Task Version (required to run),PRE/POST,date,expName,psychopyVersion,frameRate,
,,,,,,,,,,,,,,,,,,,,,,,,,,,,,,,,,38.259548200000154,None,space,44.77573900000016,39.25360219999993,None,,,,,,,,,,,,,,,,,,,,,,,,,,,,,,,,,,,,,,,,,,,,,,,,,,,,,,,,,,,,,,,,,,,,,,,,,,,,,,,,,,,,,,,,,,,,,,,P040,FENCOG,1,Pre,2022_Apr_28_1041,Go No-Go Task,2021.1.4,120.15750245381335,
,,,,,,,,,,,,,,,,,,,,,,,,,,,,,,,,,,,,,,,85.48164099999985,None,space,9.331377099999827,85.48164099999985,None,,,,,,,,,,,,,,,,,,,,,,,,,,,,,,,,,,,,,,,,,,,,,,,,,,,,,,,,,,,,,,,,,,,,,,,,,,,,,,,,,,,,,,,,,P040,FENCOG,1,Pre,2022_Apr_28_1041,Go No-Go Task,2021.1.4,120.15750245381335,
,,,,,,,,,,,,,,,,,,,,,,,,,,,,,,,,,,,,,,,,,,,,,94.88969320000024,None,space,13.875585299999784,94.88969320000024,None,,,,,,,,,,,,,,,,,,,,,,,,,,,,,,,,,,,,,,,,,,,,,,,,,,,,,,,,,,,,,,,,,,,,,,,,,,,,,,,,,,,P040,FENCOG,1,Pre,2022_Apr_28_1041,Go No-Go Task,2021.1.4,120.15750245381335,
,,,,,,,,,,,,,,,,,,,,,,,,,,,,,,,,,,,,,,,,,,,,,,,,,,,108.78055910000012,None,space,7.432488899999953,108.78055910000012,None,,,,,,,,,,,,,,,,,,,,,,,,,,,,,,,,,,,,,,,,,,,,,,,,,,,,,,,,,,,,,,,,,,,,,,,,,,,,,P040,FENCOG,1,Pre,2022_Apr_28_1041,Go No-Go Task,2021.1.4,120.15750245381335,
EPracticeConditions/BlueEyes.csv,"Rule: When you see a blue image, do not press 'spacebar'.",Images/Happy/HF09_HE.jpg,Happy,Yellow,Images/Yellow.jpg,space,,,,,,,0,0,0,0,0,0,0,6,,,,,,,,,,,,,,,,,,,,,,,,,,,,,,,,,,,,,116.29512389999991,None,119.27983489999997,None,space,2.9572508999999627,119.27983489999997,None,116.29512389999991,None,116.29512389999991,None,116.29512389999991,None,1.8,122.36528690000023,None,None,0,124.32167609999988,None,124.32167609999988,None,124.32167609999988,None,125.84037949999993,None,,,,,,,,,,,,,,,,,,,,,,,,,,,,,,,,,,,,,,,,,,,,,,,,,,P040,FENCOG,1,Pre,2022_Apr_28_1041,Go No-Go Task,2021.1.4,120.15750245381335,
EPracticeConditions/BlueEyes.csv,"Rule: When you see a blue image, do not press 'spacebar'.",Images/Happy/HF10_HE.jpg,Happy,Yellow,Images/Yellow.jpg,space,,,,,,,0,0,0,0,0,1,1,7,,,,,,,,,,,,,,,,,,,,,,,,,,,,,,,,,,,,,,,,,,,,,,,,,,,1.7,127.20665790000021,None,None,0,129.01097429999982,None,129.01097429999982,None,129.01097429999982,None,129.9223780000002,None,,,,,,,,,,,,,,,,,,,,,,,,,,,,,,,,,,,,,,,,,,,,,,,,,,P040,FENCOG,1,Pre,2022_Apr_28_1041,Go No-Go Task,2021.1.4,120.15750245381335,
EPracticeConditions/BlueEyes.csv,"Rule: When you see a blue image, do not press 'spacebar'.",Images/Happy/BM08_HO.jpg,Happy,Yellow,Images/Yellow.jpg,space,,,,,,,0,0,0,0,0,2,2,3,,,,,,,,,,,,,,,,,,,,,,,,,,,,,,,,,,,,,,,,,,,,,,,,,,,1.9,131.9175098999999,None,space,1,133.91792870000018,None,133.91792870000018,None,133.91792870000018,None,134.81686609999997,None,0.20746750000034808,,,,,,,,,,,,,,,,,,,,,,,,,,,,,,,,,,,,,,,,,,,,,,,,,P040,FENCOG,1,Pre,2022_Apr_28_1041,Go No-Go Task,2021.1.4,120.15750245381335,
EPracticeConditions/BlueEyes.csv,"Rule: When you see a blue image, do not press 'spacebar'.",Images/Fearful/HM09_FC.jpg,Fear,Blue,Images/Blue.jpg,None,,,,,,,0,0,0,0,0,3,3,0,,,,,,,,,,,,,,,,,,,,,,,,,,,,,,,,,,,,,,,,,,,,,,,,,,,1.6,136.81914700000016,None,space,0,138.5248932999998,None,138.5248932999998,None,138.5248932999998,None,139.42950329999985,None,0.25595849999990605,,,,,,,,,,,,,,,,,,,,,,,,,,,,,,,,,,,,,,,,,,,,,,,,,P040,FENCOG,1,Pre,2022_Apr_28_1041,Go No-Go Task,2021.1.4,120.15750245381335,
EPracticeConditions/BlueEyes.csv,"Rule: When you see a blue image, do not press 'spacebar'.",Images/Happy/HF04_HE.jpg,Happy,Yellow,Images/Yellow.jpg,space,,,,,,,0,0,0,0,0,4,4,4,,,,,,,,,,,,,,,,,,,,,,,,,,,,,,,,,,,,,,,,,,,,,,,,,,,1.4,141.4314687000001,None,space,1,142.9319132999999,None,142.9319132999999,None,142.9319132999999,None,143.83054429999993,None,0.30510770000000775,,,,,,,,,,,,,,,,,,,,,,,,,,,,,,,,,,,,,,,,,,,,,,,,,P040,FENCOG,1,Pre,2022_Apr_28_1041,Go No-Go Task,2021.1.4,120.15750245381335,
EPracticeConditions/BlueEyes.csv,"Rule: When you see a blue image, do not press 'spacebar'.",Images/Happy/BM02_HO.jpg,Happy,Yellow,Images/Yellow.jpg,space,,,,,,,0,0,0,0,0,5,5,2,,,,,,,,,,,,,,,,,,,,,,,,,,,,,,,,,,,,,,,,,,,,,,,,,,,1.5,145.8311692000002,None,space,1,147.4388638999999,None,147.4388638999999,None,147.4388638999999,None,148.33432459999995,None,0.26994050000030256,,,,,,,,,,,,,,,,,,,,,,,,,,,,,,,,,,,,,,,,,,,,,,,,,P040,FENCOG,1,Pre,2022_Apr_28_1041,Go No-Go Task,2021.1.4,120.15750245381335,
EPracticeConditions/BlueEyes.csv,"Rule: When you see a blue image, do not press 'spacebar'.",Images/Happy/HF05_HO.jpg,Happy,Yellow,Images/Yellow.jpg,space,,,,,,,0,0,0,0,0,6,6,5,,,,,,,,,,,,,,,,,,,,,,,,,,,,,,,,,,,,,,,,,,,,,,,,,,,1.2,150.34589259999984,None,space,1,151.6375551000001,None,151.6375551000001,None,151.6375551000001,None,152.55103659999986,None,0.26351629999999204,,,,,,,,,,,,,,,,,,,,,,,,,,,,,,,,,,,,,,,,,,,,,,,,,P040,FENCOG,1,Pre,2022_Apr_28_1041,Go No-Go Task,2021.1.4,120.15750245381335,
EPracticeConditions/BlueEyes.csv,"Rule: When you see a blue image, do not press 'spacebar'.",Images/Fearful/AF01_FO.jpg,Fear,Blue,Images/Blue.jpg,None,,,,,,,0,0,0,0,0,7,7,1,,,,,,,,,,,,,,,,,,,,,,,,,,,,,,,,,,,,,,,,,,,,,,,,,,,1.3,154.55250650000016,None,space,0,155.96130240000002,None,155.96130240000002,None,155.96130240000002,None,156.85840240000016,None,0.22764180000012857,,,,,,,,,,,,,,,,,,,,,,,,,,,,,,,,,,,,,,,,,,,,,,,,,P040,FENCOG,1,Pre,2022_Apr_28_1041,Go No-Go Task,2021.1.4,120.15750245381335,
EPracticeConditions/BlueEyes.csv,"Rule: When you see a blue image, do not press 'spacebar'.",,,,,,,,,,,,0,0,0,0,,,,,,,,,,,,,,,,,,,,,,,,,,,,,,,,,,,,,,,,,,,,,,,,,,,,,,,,,,,,,,,,,,,,,,,,,,,,,,,,,,,,,,,,,,,,,,,,,,,,,,,,,,,,,,,,,,,,,P040,FENCOG,1,Pre,2022_Apr_28_1041,Go No-Go Task,2021.1.4,120.15750245381335,
EPracticeConditions/YellowEyes.csv,"Rule: When you see a yellow image, do not press 'spacebar'.",Images/Fearful/AM23AFS.jpg,Fear,Blue,Images/Blue.jpg,space,,,,,,,0,1,1,1,0,0,0,6,,,,,,,,,,,,,,,,,,,,,,,,,,,,,,,,,,,,,158.89252020000004,None,161.87550180000017,None,space,1.6972562000000835,161.87550180000017,None,158.89252020000004,None,158.89252020000004,None,158.89252020000004,None,1.3,163.59029370000007,None,space,1,164.99204360000022,None,164.99204360000022,None,164.99204360000022,None,165.89648130000023,None,0.2609938999999031,,,,,,,,,,,,,,,,,,,,,,,,,,,,,,,,,,,,,,,,,,,,,,,,,P040,FENCOG,1,Pre,2022_Apr_28_1041,Go No-Go Task,2021.1.4,120.15750245381335,
EPracticeConditions/YellowEyes.csv,"Rule: When you see a yellow image, do not press 'spacebar'.",Images/Fearful/AM24AFS.jpg,Fear,Blue,Images/Blue.jpg,space,,,,,,,0,1,1,1,0,1,1,7,,,,,,,,,,,,,,,,,,,,,,,,,,,,,,,,,,,,,,,,,,,,,,,,,,,1.5,167.89864320000015,None,space,1,169.5073997999998,None,169.5073997999998,None,169.5073997999998,None,170.4035186000001,None,0.22546950000014476,,,,,,,,,,,,,,,,,,,,,,,,,,,,,,,,,,,,,,,,,,,,,,,,,P040,FENCOG,1,Pre,2022_Apr_28_1041,Go No-Go Task,2021.1.4,120.15750245381335,
EPracticeConditions/YellowEyes.csv,"Rule: When you see a yellow image, do not press 'spacebar'.",Images/Fearful/AM17AFS.jpg,Fear,Blue,Images/Blue.jpg,space,,,,,,,0,1,1,1,0,2,2,3,,,,,,,,,,,,,,,,,,,,,,,,,,,,,,,,,,,,,,,,,,,,,,,,,,,1.7,172.4056817999999,None,space,1,174.20599129999982,None,174.20599129999982,None,174.20599129999982,None,175.10348609999983,None,0.3110098000001926,,,,,,,,,,,,,,,,,,,,,,,,,,,,,,,,,,,,,,,,,,,,,,,,,P040,FENCOG,1,Pre,2022_Apr_28_1041,Go No-Go Task,2021.1.4,120.15750245381335,
EPracticeConditions/YellowEyes.csv,"Rule: When you see a yellow image, do not press 'spacebar'.",Images/Fearful/AM19AFS.jpg,Fear,Blue,Images/Blue.jpg,space,,,,,,,0,1,1,1,0,3,3,4,,,,,,,,,,,,,,,,,,,,,,,,,,,,,,,,,,,,,,,,,,,,,,,,,,,1.4,177.1128345000002,None,space,1,178.6212931,None,178.6212931,None,178.6212931,None,179.51754829999982,None,0.29560029999993276,,,,,,,,,,,,,,,,,,,,,,,,,,,,,,,,,,,,,,,,,,,,,,,,,P040,FENCOG,1,Pre,2022_Apr_28_1041,Go No-Go Task,2021.1.4,120.15750245381335,
EPracticeConditions/YellowEyes.csv,"Rule: When you see a yellow image, do not press 'spacebar'.",Images/Fearful/AM22AFS.jpg,Fear,Blue,Images/Blue.jpg,space,,,,,,,0,1,1,1,0,4,4,5,,,,,,,,,,,,,,,,,,,,,,,,,,,,,,,,,,,,,,,,,,,,,,,,,,,1.6,181.5196059,None,space,1,183.2200072999999,None,183.2200072999999,None,183.2200072999999,None,184.1114160000002,None,0.33707349999986036,,,,,,,,,,,,,,,,,,,,,,,,,,,,,,,,,,,,,,,,,,,,,,,,,P040,FENCOG,1,Pre,2022_Apr_28_1041,Go No-Go Task,2021.1.4,120.15750245381335,
EPracticeConditions/YellowEyes.csv,"Rule: When you see a yellow image, do not press 'spacebar'.",Images/Fearful/AM16AFS.jpg,Fear,Blue,Images/Blue.jpg,space,,,,,,,0,1,1,1,0,5,5,2,,,,,,,,,,,,,,,,,,,,,,,,,,,,,,,,,,,,,,,,,,,,,,,,,,,1.2,186.11837090000017,None,space,1,187.41871619999984,None,187.41871619999984,None,187.41871619999984,None,188.32401200000004,None,0.22609929999998712,,,,,,,,,,,,,,,,,,,,,,,,,,,,,,,,,,,,,,,,,,,,,,,,,P040,FENCOG,1,Pre,2022_Apr_28_1041,Go No-Go Task,2021.1.4,120.15750245381335,
EPracticeConditions/YellowEyes.csv,"Rule: When you see a yellow image, do not press 'spacebar'.",Images/Happy/AM32HAS.jpg,Happy,Yellow,Images/Yellow.jpg,None,,,,,,,0,1,1,1,0,6,6,0,,,,,,,,,,,,,,,,,,,,,,,,,,,,,,,,,,,,,,,,,,,,,,,,,,,1.8,190.32531960000006,None,space,0,192.2255543000001,None,192.2255543000001,None,192.2255543000001,None,193.12444099999993,None,0.25127770000017335,,,,,,,,,,,,,,,,,,,,,,,,,,,,,,,,,,,,,,,,,,,,,,,,,P040,FENCOG,1,Pre,2022_Apr_28_1041,Go No-Go Task,2021.1.4,120.15750245381335,
EPracticeConditions/YellowEyes.csv,"Rule: When you see a yellow image, do not press 'spacebar'.",Images/Happy/BF05_HO.jpg,Happy,Yellow,Images/Yellow.jpg,None,,,,,,,0,1,1,1,0,7,7,1,,,,,,,,,,,,,,,,,,,,,,,,,,,,,,,,,,,,,,,,,,,,,,,,,,,1.9,195.1237888999999,None,space,0,197.12411070000007,None,197.12411070000007,None,197.12411070000007,None,198.01604309999993,None,0.22475309999981619,,,,,,,,,,,,,,,,,,,,,,,,,,,,,,,,,,,,,,,,,,,,,,,,,P040,FENCOG,1,Pre,2022_Apr_28_1041,Go No-Go Task,2021.1.4,120.15750245381335,
EPracticeConditions/YellowEyes.csv,"Rule: When you see a yellow image, do not press 'spacebar'.",,,,,,,,,,,,0,1,1,1,,,,,,,,,,,,,,,,,,,,,,,,,,,,,,,,,,,,,,,,,,,,,,,,,,,,,,,,,,,,,,,,,,,,,,,,,,,,,,,,,,,,,,,,,,,,,,,,,,,,,,,,,,,,,,,,,,,,,P040,FENCOG,1,Pre,2022_Apr_28_1041,Go No-Go Task,2021.1.4,120.15750245381335,
EPracticeConditions/BlueScram.csv,"Rule: When you see a blue image, do not press 'spacebar'.",Images/Scram1/AM13NES.jpg,Scramble,Yellow,Images/Yellow.jpg,space,,,,,,,0,2,2,2,0,0,0,5,,,,,,,,,,,,,,,,,,,,,,,,,,,,,,,,,,,,,200.03945740000017,None,203.02990899999986,None,space,0.5188477999995484,203.02990899999986,None,200.03945740000017,None,200.03945740000017,None,200.03945740000017,None,1.7,203.56927410000026,None,space,1,205.3716459000002,None,205.3716459000002,None,205.3716459000002,None,206.2705976000002,None,0.3293708000001061,,,,,,,,,,,,,,,,,,,,,,,,,,,,,,,,,,,,,,,,,,,,,,,,,P040,FENCOG,1,Pre,2022_Apr_28_1041,Go No-Go Task,2021.1.4,120.15750245381335,
EPracticeConditions/BlueScram.csv,"Rule: When you see a blue image, do not press 'spacebar'.",Images/Scram2/AF25NES.jpg,Scramble,Yellow,Images/Yellow.jpg,space,,,,,,,0,2,2,2,0,1,1,7,,,,,,,,,,,,,,,,,,,,,,,,,,,,,,,,,,,,,,,,,,,,,,,,,,,1.8,208.27142689999982,None,space,1,210.17867939999996,None,210.17867939999996,None,210.17867939999996,None,211.06891910000013,None,0.2661283000002186,,,,,,,,,,,,,,,,,,,,,,,,,,,,,,,,,,,,,,,,,,,,,,,,,P040,FENCOG,1,Pre,2022_Apr_28_1041,Go No-Go Task,2021.1.4,120.15750245381335,
EPracticeConditions/BlueScram.csv,"Rule: When you see a blue image, do not press 'spacebar'.",Images/Scram1/AM04_NC.jpg,Scramble,Yellow,Images/Yellow.jpg,space,,,,,,,0,2,2,2,0,2,2,3,,,,,,,,,,,,,,,,,,,,,,,,,,,,,,,,,,,,,,,,,,,,,,,,,,,1.3,213.06907709999996,None,space,1,214.46905030000016,None,214.46905030000016,None,214.46905030000016,None,215.36597269999993,None,0.2877300000000105,,,,,,,,,,,,,,,,,,,,,,,,,,,,,,,,,,,,,,,,,,,,,,,,,P040,FENCOG,1,Pre,2022_Apr_28_1041,Go No-Go Task,2021.1.4,120.15750245381335,
EPracticeConditions/BlueScram.csv,"Rule: When you see a blue image, do not press 'spacebar'.",Images/Scram2/AF10_NC.jpg,Scramble,Yellow,Images/Yellow.jpg,space,,,,,,,0,2,2,2,0,3,3,2,,,,,,,,,,,,,,,,,,,,,,,,,,,,,,,,,,,,,,,,,,,,,,,,,,,1.2,217.372613,None,space,1,218.68446730000005,None,218.68446730000005,None,218.68446730000005,None,219.5812922,None,0.32059709999975894,,,,,,,,,,,,,,,,,,,,,,,,,,,,,,,,,,,,,,,,,,,,,,,,,P040,FENCOG,1,Pre,2022_Apr_28_1041,Go No-Go Task,2021.1.4,120.15750245381335,
EPracticeConditions/BlueScram.csv,"Rule: When you see a blue image, do not press 'spacebar'.",Images/Scram1/BF18_NC.jpg,Scramble,Blue,Images/Blue.jpg,None,,,,,,,0,2,2,2,0,4,4,1,,,,,,,,,,,,,,,,,,,,,,,,,,,,,,,,,,,,,,,,,,,,,,,,,,,1.6,221.58259390000012,None,None,1,223.28300350000018,None,223.28300350000018,None,223.28300350000018,None,224.17360430000008,None,,,,,,,,,,,,,,,,,,,,,,,,,,,,,,,,,,,,,,,,,,,,,,,,,,P040,FENCOG,1,Pre,2022_Apr_28_1041,Go No-Go Task,2021.1.4,120.15750245381335,
EPracticeConditions/BlueScram.csv,"Rule: When you see a blue image, do not press 'spacebar'.",Images/Scram1/BM08_NC.jpg,Scramble,Blue,Images/Blue.jpg,None,,,,,,,0,2,2,2,0,5,5,0,,,,,,,,,,,,,,,,,,,,,,,,,,,,,,,,,,,,,,,,,,,,,,,,,,,1.9,226.17299860000003,None,None,1,228.17331190000004,None,228.17331190000004,None,228.17331190000004,None,229.06383790000018,None,,,,,,,,,,,,,,,,,,,,,,,,,,,,,,,,,,,,,,,,,,,,,,,,,,P040,FENCOG,1,Pre,2022_Apr_28_1041,Go No-Go Task,2021.1.4,120.15750245381335,
EPracticeConditions/BlueScram.csv,"Rule: When you see a blue image, do not press 'spacebar'.",Images/Scram2/AM03_NC.jpg,Scramble,Yellow,Images/Yellow.jpg,space,,,,,,,0,2,2,2,0,6,6,6,,,,,,,,,,,,,,,,,,,,,,,,,,,,,,,,,,,,,,,,,,,,,,,,,,,1.5,231.06310710000025,None,space,1,232.66373239999984,None,232.66373239999984,None,232.66373239999984,None,233.56840730000022,None,0.34914100000014514,,,,,,,,,,,,,,,,,,,,,,,,,,,,,,,,,,,,,,,,,,,,,,,,,P040,FENCOG,1,Pre,2022_Apr_28_1041,Go No-Go Task,2021.1.4,120.15750245381335,
EPracticeConditions/BlueScram.csv,"Rule: When you see a blue image, do not press 'spacebar'.",Images/Scram1/AM03NES.jpg,Scramble,Yellow,Images/Yellow.jpg,space,,,,,,,0,2,2,2,0,7,7,4,,,,,,,,,,,,,,,,,,,,,,,,,,,,,,,,,,,,,,,,,,,,,,,,,,,1.4,235.57022540000025,None,space,1,237.07069050000018,None,237.07069050000018,None,237.07069050000018,None,237.97581330000003,None,0.30224889999999505,,,,,,,,,,,,,,,,,,,,,,,,,,,,,,,,,,,,,,,,,,,,,,,,,P040,FENCOG,1,Pre,2022_Apr_28_1041,Go No-Go Task,2021.1.4,120.15750245381335,
EPracticeConditions/BlueScram.csv,"Rule: When you see a blue image, do not press 'spacebar'.",,,,,,,,,,,,0,2,2,2,,,,,,,,,,,,,,,,,,,,,,,,,,,,,,,,,,,,,,,,,,,,,,,,,,,,,,,,,,,,,,,,,,,,,,,,,,,,,,,,,,,,,,,,,,,,,,,,,,,,,,,,,,,,,,,,,,,,,P040,FENCOG,1,Pre,2022_Apr_28_1041,Go No-Go Task,2021.1.4,120.15750245381335,
EPracticeConditions/YellowScram.csv,"Rule: When you see a yellow image, do not press 'spacebar'.",Images/Scram2/HM06_NC.jpg,Scramble,Yellow,Images/Yellow.jpg,None,,,,,,,0,3,3,3,0,0,0,0,,,,,,,,,,,,,,,,,,,,,,,,,,,,,,,,,,,,,239.98955549999982,None,242.97664149999991,None,space,1.275975600000038,242.97664149999991,None,239.98955549999982,None,239.98955549999982,None,239.98955549999982,None,1.2,244.27399909999986,None,None,1,245.5848721000002,None,245.5848721000002,None,245.5848721000002,None,246.48114440000018,None,,,,,,,,,,,,,,,,,,,,,,,,,,,,,,,,,,,,,,,,,,,,,,,,,,P040,FENCOG,1,Pre,2022_Apr_28_1041,Go No-Go Task,2021.1.4,120.15750245381335,
EPracticeConditions/YellowScram.csv,"Rule: When you see a yellow image, do not press 'spacebar'.",Images/Scram1/AF10_NC.jpg,Scramble,Blue,Images/Blue.jpg,space,,,,,,,0,3,3,3,0,1,1,6,,,,,,,,,,,,,,,,,,,,,,,,,,,,,,,,,,,,,,,,,,,,,,,,,,,1.3,248.48285690000012,None,None,0,249.8835494,None,249.8835494,None,249.8835494,None,250.78241059999982,None,,,,,,,,,,,,,,,,,,,,,,,,,,,,,,,,,,,,,,,,,,,,,,,,,,P040,FENCOG,1,Pre,2022_Apr_28_1041,Go No-Go Task,2021.1.4,120.15750245381335,
EPracticeConditions/YellowScram.csv,"Rule: When you see a yellow image, do not press 'spacebar'.",Images/Scram1/HF04_NC.jpg,Scramble,Blue,Images/Blue.jpg,space,,,,,,,0,3,3,3,0,2,2,2,,,,,,,,,,,,,,,,,,,,,,,,,,,,,,,,,,,,,,,,,,,,,,,,,,,1.5,252.78170369999998,None,space,1,254.38221810000005,None,254.38221810000005,None,254.38221810000005,None,255.27915859999985,None,0.22277690000009898,,,,,,,,,,,,,,,,,,,,,,,,,,,,,,,,,,,,,,,,,,,,,,,,,P040,FENCOG,1,Pre,2022_Apr_28_1041,Go No-Go Task,2021.1.4,120.15750245381335,
EPracticeConditions/YellowScram.csv,"Rule: When you see a yellow image, do not press 'spacebar'.",Images/Scram2/AM03NES.jpg,Scramble,Yellow,Images/Yellow.jpg,None,,,,,,,0,3,3,3,0,3,3,1,,,,,,,,,,,,,,,,,,,,,,,,,,,,,,,,,,,,,,,,,,,,,,,,,,,1.6,257.2807690999998,None,None,1,258.98919149999983,None,258.98919149999983,None,258.98919149999983,None,259.8795596,None,,,,,,,,,,,,,,,,,,,,,,,,,,,,,,,,,,,,,,,,,,,,,,,,,,P040,FENCOG,1,Pre,2022_Apr_28_1041,Go No-Go Task,2021.1.4,120.15750245381335,
EPracticeConditions/YellowScram.csv,"Rule: When you see a yellow image, do not press 'spacebar'.",Images/Scram1/BM01_NC.jpg,Scramble,Blue,Images/Blue.jpg,space,,,,,,,0,3,3,3,0,4,4,5,,,,,,,,,,,,,,,,,,,,,,,,,,,,,,,,,,,,,,,,,,,,,,,,,,,1.4,261.88198120000015,None,space,1,263.3961826999998,None,263.3961826999998,None,263.3961826999998,None,264.2839488999998,None,0.2565124999996442,,,,,,,,,,,,,,,,,,,,,,,,,,,,,,,,,,,,,,,,,,,,,,,,,P040,FENCOG,1,Pre,2022_Apr_28_1041,Go No-Go Task,2021.1.4,120.15750245381335,
EPracticeConditions/YellowScram.csv,"Rule: When you see a yellow image, do not press 'spacebar'.",Images/Scram1/AF24NES.jpg,Scramble,Blue,Images/Blue.jpg,space,,,,,,,0,3,3,3,0,5,5,7,,,,,,,,,,,,,,,,,,,,,,,,,,,,,,,,,,,,,,,,,,,,,,,,,,,1.7,266.2870567,None,space,1,268.09483360000013,None,268.09483360000013,None,268.09483360000013,None,268.99800989999994,None,0.2379396999999699,,,,,,,,,,,,,,,,,,,,,,,,,,,,,,,,,,,,,,,,,,,,,,,,,P040,FENCOG,1,Pre,2022_Apr_28_1041,Go No-Go Task,2021.1.4,120.15750245381335,
EPracticeConditions/YellowScram.csv,"Rule: When you see a yellow image, do not press 'spacebar'.",Images/Scram1/AF30NES.JPG,Scramble,Blue,Images/Blue.jpg,space,,,,,,,0,3,3,3,0,6,6,4,,,,,,,,,,,,,,,,,,,,,,,,,,,,,,,,,,,,,,,,,,,,,,,,,,,1.9,271.0070501,None,space,1,273.01002640000024,None,273.01002640000024,None,273.01002640000024,None,273.90878470000007,None,0.23471239999980753,,,,,,,,,,,,,,,,,,,,,,,,,,,,,,,,,,,,,,,,,,,,,,,,,P040,FENCOG,1,Pre,2022_Apr_28_1041,Go No-Go Task,2021.1.4,120.15750245381335,
EPracticeConditions/YellowScram.csv,"Rule: When you see a yellow image, do not press 'spacebar'.",Images/Scram1/AF07NES.jpg,Scramble,Blue,Images/Blue.jpg,space,,,,,,,0,3,3,3,0,7,7,3,,,,,,,,,,,,,,,,,,,,,,,,,,,,,,,,,,,,,,,,,,,,,,,,,,,1.8,275.90829399999984,None,space,1,277.8085231,None,277.8085231,None,277.8085231,None,278.7058683999999,None,0.3561365000000478,,,,,,,,,,,,,,,,,,,,,,,,,,,,,,,,,,,,,,,,,,,,,,,,,P040,FENCOG,1,Pre,2022_Apr_28_1041,Go No-Go Task,2021.1.4,120.15750245381335,
EPracticeConditions/YellowScram.csv,"Rule: When you see a yellow image, do not press 'spacebar'.",,,,,,,,,,,,0,3,3,3,,,,,,,,,,,,,,,,,,,,,,,,,,,,,,,,,,,,,,,,,,,,,,,,,,,,,,,,,,,,,,,,,,,,,,,,,,,,,,,,,,,,,,,,,,,,,,,,,,,,,,,,,,,,,,,,,,,,,P040,FENCOG,1,Pre,2022_Apr_28_1041,Go No-Go Task,2021.1.4,120.15750245381335,
,,,,,,,,,,,,,,,,,,,,,,,,,,,,,,,,,,,,,,,,,,,,,,,,,,,,,,,,,,,,,,,,,,,,,,,,,,,,,,,,,,,,,281.8635287000002,None,space,3.2882196000000476,282.34833449999996,None,,,,,,,,,,,,,,,,,,,,,,,,,,,,,,,,,,,,,,,,,,,P040,FENCOG,1,Pre,2022_Apr_28_1041,Go No-Go Task,2021.1.4,120.15750245381335,
,,,,,,,,,,,,,,,,,,,,,,,,,,,,,,,,,,,,,,,,,,,,,,,,,,,,,,,,,,,,,,,,,,,,,,,,,,,,,,,,,,,,,,,,,,,285.6485855000001,None,space,1.1560632999999143,285.6485855000001,None,,,,,,,,,,,,,,,,,,,,,,,,,,,,,,,,,,,,,P040,FENCOG,1,Pre,2022_Apr_28_1041,Go No-Go Task,2021.1.4,120.15750245381335,
,"Rule: When you see a yellow image, do not press 'spacebar'.",Images/Happy/BF09_HO.jpg,Happy,Blue,Images/Blue.jpg,space,ParentConditions/YellowYellowBlue_v1.xlsx,YellowYellowBlue,Conditions/Version_1/YellowFearStop.xlsx,no,PASS,0.8264186213388923,,,,,,,,,0,0,0,1,0,0,0,0,0,0,0,0,,,,,,,,,,,,,,,,,,,,,,,,,,,,,,,,,,,,,,,,,,,,,,,,,,,,,,,,,,,,,,,,,286.89100670000016,None,289.8795150000001,None,space,1.197088100000201,289.8795150000001,None,286.89100670000016,None,286.89100670000016,None,286.89100670000016,None,1.38,291.1377004000001,None,None,0,292.62089620000006,None,292.62089620000006,None,292.62089620000006,None,,,,,,,,,,,,P040,FENCOG,1,Pre,2022_Apr_28_1041,Go No-Go Task,2021.1.4,120.15750245381335,
,"Rule: When you see a yellow image, do not press 'spacebar'.",Images/Happy/AF30HAS.jpg,Happy,Blue,Images/Blue.jpg,space,ParentConditions/YellowYellowBlue_v1.xlsx,YellowYellowBlue,Conditions/Version_1/YellowFearStop.xlsx,no,PASS,0.17577164693776992,,,,,,,,,0,0,0,1,0,0,0,0,0,1,1,1,,,,,,,,,,,,,,,,,,,,,,,,,,,,,,,,,,,,,,,,,,,,,,,,,,,,,,,,,,,,,,,,,,,,,,,,,,,,,,,2,293.0236235000002,None,space,1,295.12842950000004,None,295.12842950000004,None,295.12842950000004,None,0.2761937999998736,,,,,,,,,,,P040,FENCOG,1,Pre,2022_Apr_28_1041,Go No-Go Task,2021.1.4,120.15750245381335,
,"Rule: When you see a yellow image, do not press 'spacebar'.",Images/Happy/AF27HAS.jpg,Happy,Blue,Images/Blue.jpg,space,ParentConditions/YellowYellowBlue_v1.xlsx,YellowYellowBlue,Conditions/Version_1/YellowFearStop.xlsx,no,PASS,0.9530234186227198,,,,,,,,,0,0,0,1,0,0,0,0,0,2,2,2,,,,,,,,,,,,,,,,,,,,,,,,,,,,,,,,,,,,,,,,,,,,,,,,,,,,,,,,,,,,,,,,,,,,,,,,,,,,,,,1.36,295.53127510000013,None,space,1,296.99448759999996,None,296.99448759999996,None,296.99448759999996,None,0.31416810000018813,,,,,,,,,,,P040,FENCOG,1,Pre,2022_Apr_28_1041,Go No-Go Task,2021.1.4,120.15750245381335,
,"Rule: When you see a yellow image, do not press 'spacebar'.",Images/Happy/AF22HAS.jpg,Happy,Blue,Images/Blue.jpg,space,ParentConditions/YellowYellowBlue_v1.xlsx,YellowYellowBlue,Conditions/Version_1/YellowFearStop.xlsx,no,PASS,0.38244231072686263,,,,,,,,,0,0,0,1,0,0,0,0,0,3,3,3,,,,,,,,,,,,,,,,,,,,,,,,,,,,,,,,,,,,,,,,,,,,,,,,,,,,,,,,,,,,,,,,,,,,,,,,,,,,,,,1.25,297.3944534000002,None,space,1,298.7523593000001,None,298.7523593000001,None,298.7523593000001,None,0.2846862000001238,,,,,,,,,,,P040,FENCOG,1,Pre,2022_Apr_28_1041,Go No-Go Task,2021.1.4,120.15750245381335,
,"Rule: When you see a yellow image, do not press 'spacebar'.",Images/Happy/WM11_HC.jpg,Happy,Blue,Images/Blue.jpg,space,ParentConditions/YellowYellowBlue_v1.xlsx,YellowYellowBlue,Conditions/Version_1/YellowFearStop.xlsx,no,PASS,0.4646194175443181,,,,,,,,,0,0,0,1,0,0,0,0,0,4,4,4,,,,,,,,,,,,,,,,,,,,,,,,,,,,,,,,,,,,,,,,,,,,,,,,,,,,,,,,,,,,,,,,,,,,,,,,,,,,,,,1.73,299.15551430000005,None,space,1,300.9935381,None,300.9935381,None,300.9935381,None,0.25912620000008246,,,,,,,,,,,P040,FENCOG,1,Pre,2022_Apr_28_1041,Go No-Go Task,2021.1.4,120.15750245381335,
,"Rule: When you see a yellow image, do not press 'spacebar'.",Images/Happy/BF05_HO.jpg,Happy,Blue,Images/Blue.jpg,space,ParentConditions/YellowYellowBlue_v1.xlsx,YellowYellowBlue,Conditions/Version_1/YellowFearStop.xlsx,no,PASS,0.7872072262972759,,,,,,,,,0,0,0,1,0,0,0,0,0,5,5,5,,,,,,,,,,,,,,,,,,,,,,,,,,,,,,,,,,,,,,,,,,,,,,,,,,,,,,,,,,,,,,,,,,,,,,,,,,,,,,,1.92,301.3975596,None,space,1,303.4176287,None,303.4176287,None,303.4176287,None,0.28292019999980766,,,,,,,,,,,P040,FENCOG,1,Pre,2022_Apr_28_1041,Go No-Go Task,2021.1.4,120.15750245381335,
,"Rule: When you see a yellow image, do not press 'spacebar'.",Images/Fearful/AM01AFS.jpg,Fear,Yellow,Images/Yellow.jpg,None,ParentConditions/YellowYellowBlue_v1.xlsx,YellowYellowBlue,Conditions/Version_1/YellowFearStop.xlsx,yes,PASS,0.04646585469142872,,,,,,,,,0,0,0,1,0,0,0,0,0,6,6,6,,,,,,,,,,,,,,,,,,,,,,,,,,,,,,,,,,,,,,,,,,,,,,,,,,,,,,,,,,,,,,,,,,,,,,,,,,,,,,,1.32,303.8237144,None,None,1,305.258789,None,305.258789,None,305.258789,None,,,,,,,,,,,,P040,FENCOG,1,Pre,2022_Apr_28_1041,Go No-Go Task,2021.1.4,120.15750245381335,
,"Rule: When you see a yellow image, do not press 'spacebar'.",Images/Happy/AF23HAS.jpg,Happy,Blue,Images/Blue.jpg,space,ParentConditions/YellowYellowBlue_v1.xlsx,YellowYellowBlue,Conditions/Version_1/YellowFearStop.xlsx,no,PASS,0.9566897784343521,,,,,,,,,0,0,0,1,0,0,0,0,0,7,7,7,,,,,,,,,,,,,,,,,,,,,,,,,,,,,,,,,,,,,,,,,,,,,,,,,,,,,,,,,,,,,,,,,,,,,,,,,,,,,,,1.22,305.6578978000002,None,space,1,306.98321209999995,None,306.98321209999995,None,306.98321209999995,None,0.22948679999990418,,,,,,,,,,,P040,FENCOG,1,Pre,2022_Apr_28_1041,Go No-Go Task,2021.1.4,120.15750245381335,
,"Rule: When you see a yellow image, do not press 'spacebar'.",Images/Happy/AM16HAS.jpg,Happy,Blue,Images/Blue.jpg,space,ParentConditions/YellowYellowBlue_v1.xlsx,YellowYellowBlue,Conditions/Version_1/YellowFearStop.xlsx,no,PASS,0.9715962743635901,,,,,,,,,0,0,0,1,0,0,0,0,0,8,8,8,,,,,,,,,,,,,,,,,,,,,,,,,,,,,,,,,,,,,,,,,,,,,,,,,,,,,,,,,,,,,,,,,,,,,,,,,,,,,,,1.75,307.3836996,None,space,1,309.2492072,None,309.2492072,None,309.2492072,None,0.2832656999999017,,,,,,,,,,,P040,FENCOG,1,Pre,2022_Apr_28_1041,Go No-Go Task,2021.1.4,120.15750245381335,
,"Rule: When you see a yellow image, do not press 'spacebar'.",Images/Happy/AM04HAS.jpg,Happy,Blue,Images/Blue.jpg,space,ParentConditions/YellowYellowBlue_v1.xlsx,YellowYellowBlue,Conditions/Version_1/YellowFearStop.xlsx,no,PASS,0.8834532829789966,,,,,,,,,0,0,0,1,0,0,0,0,0,9,9,9,,,,,,,,,,,,,,,,,,,,,,,,,,,,,,,,,,,,,,,,,,,,,,,,,,,,,,,,,,,,,,,,,,,,,,,,,,,,,,,1.23,309.64836749999995,None,space,1,310.9820473,None,310.9820473,None,310.9820473,None,0.2466401000001497,,,,,,,,,,,P040,FENCOG,1,Pre,2022_Apr_28_1041,Go No-Go Task,2021.1.4,120.15750245381335,
,"Rule: When you see a yellow image, do not press 'spacebar'.",Images/Happy/AF26HAS.jpg,Happy,Blue,Images/Blue.jpg,space,ParentConditions/YellowYellowBlue_v1.xlsx,YellowYellowBlue,Conditions/Version_1/YellowFearStop.xlsx,no,PASS,0.1837512616409066,,,,,,,,,0,0,0,1,0,0,0,0,0,10,10,10,,,,,,,,,,,,,,,,,,,,,,,,,,,,,,,,,,,,,,,,,,,,,,,,,,,,,,,,,,,,,,,,,,,,,,,,,,,,,,,1.72,311.3809701,None,space,1,313.2065094999998,None,313.2065094999998,None,313.2065094999998,None,0.31820580000021437,,,,,,,,,,,P040,FENCOG,1,Pre,2022_Apr_28_1041,Go No-Go Task,2021.1.4,120.15750245381335,
,"Rule: When you see a yellow image, do not press 'spacebar'.",Images/Fearful/AF10_FC.jpg,Fear,Yellow,Images/Yellow.jpg,None,ParentConditions/YellowYellowBlue_v1.xlsx,YellowYellowBlue,Conditions/Version_1/YellowFearStop.xlsx,yes,PASS,0.28017183869067563,,,,,,,,,0,0,0,1,0,0,0,0,0,11,11,11,,,,,,,,,,,,,,,,,,,,,,,,,,,,,,,,,,,,,,,,,,,,,,,,,,,,,,,,,,,,,,,,,,,,,,,,,,,,,,,1.33,313.6131276000001,None,None,1,315.04749690000017,None,315.04749690000017,None,315.04749690000017,None,,,,,,,,,,,,P040,FENCOG,1,Pre,2022_Apr_28_1041,Go No-Go Task,2021.1.4,120.15750245381335,
,"Rule: When you see a yellow image, do not press 'spacebar'.",Images/Fearful/AM09_FO.jpg,Fear,Yellow,Images/Yellow.jpg,None,ParentConditions/YellowYellowBlue_v1.xlsx,YellowYellowBlue,Conditions/Version_1/YellowFearStop.xlsx,yes,PASS,0.6630139915996167,,,,,,,,,0,0,0,1,0,0,0,0,0,12,12,12,,,,,,,,,,,,,,,,,,,,,,,,,,,,,,,,,,,,,,,,,,,,,,,,,,,,,,,,,,,,,,,,,,,,,,,,,,,,,,,1.34,315.4562724000002,None,space,0,316.8969213999999,None,316.8969213999999,None,316.8969213999999,None,0.21980269999994562,,,,,,,,,,,P040,FENCOG,1,Pre,2022_Apr_28_1041,Go No-Go Task,2021.1.4,120.15750245381335,
,"Rule: When you see a yellow image, do not press 'spacebar'.",Images/Happy/HM04_HO.jpg,Happy,Blue,Images/Blue.jpg,space,ParentConditions/YellowYellowBlue_v1.xlsx,YellowYellowBlue,Conditions/Version_1/YellowFearStop.xlsx,no,PASS,0.9402314290963173,,,,,,,,,0,0,0,1,0,0,0,0,0,13,13,13,,,,,,,,,,,,,,,,,,,,,,,,,,,,,,,,,,,,,,,,,,,,,,,,,,,,,,,,,,,,,,,,,,,,,,,,,,,,,,,1.97,317.29702050000014,None,space,1,319.3712175999999,None,319.3712175999999,None,319.3712175999999,None,0.2892649000000347,,,,,,,,,,,P040,FENCOG,1,Pre,2022_Apr_28_1041,Go No-Go Task,2021.1.4,120.15750245381335,
,"Rule: When you see a yellow image, do not press 'spacebar'.",Images/Fearful/AM04_FO.jpg,Fear,Yellow,Images/Yellow.jpg,None,ParentConditions/YellowYellowBlue_v1.xlsx,YellowYellowBlue,Conditions/Version_1/YellowFearStop.xlsx,yes,PASS,0.3100490082037951,,,,,,,,,0,0,0,1,0,0,0,0,0,14,14,14,,,,,,,,,,,,,,,,,,,,,,,,,,,,,,,,,,,,,,,,,,,,,,,,,,,,,,,,,,,,,,,,,,,,,,,,,,,,,,,1.86,319.77268159999994,None,None,1,321.73717450000004,None,321.73717450000004,None,321.73717450000004,None,,,,,,,,,,,,P040,FENCOG,1,Pre,2022_Apr_28_1041,Go No-Go Task,2021.1.4,120.15750245381335,
,"Rule: When you see a yellow image, do not press 'spacebar'.",Images/Happy/AM13HAS.jpg,Happy,Blue,Images/Blue.jpg,space,ParentConditions/YellowYellowBlue_v1.xlsx,YellowYellowBlue,Conditions/Version_1/YellowFearStop.xlsx,no,PASS,0.44314676907690376,,,,,,,,,0,0,0,1,0,0,0,0,0,15,15,15,,,,,,,,,,,,,,,,,,,,,,,,,,,,,,,,,,,,,,,,,,,,,,,,,,,,,,,,,,,,,,,,,,,,,,,,,,,,,,,1.98,322.1433698999999,None,space,1,324.2281042999998,None,324.2281042999998,None,324.2281042999998,None,0.24053810000032172,,,,,,,,,,,P040,FENCOG,1,Pre,2022_Apr_28_1041,Go No-Go Task,2021.1.4,120.15750245381335,
,"Rule: When you see a yellow image, do not press 'spacebar'.",Images/Fearful/AF09AFS.jpg,Fear,Yellow,Images/Yellow.jpg,None,ParentConditions/YellowYellowBlue_v1.xlsx,YellowYellowBlue,Conditions/Version_1/YellowFearStop.xlsx,yes,PASS,0.4498025699510172,,,,,,,,,0,0,0,1,0,0,0,0,0,16,16,16,,,,,,,,,,,,,,,,,,,,,,,,,,,,,,,,,,,,,,,,,,,,,,,,,,,,,,,,,,,,,,,,,,,,,,,,,,,,,,,1.76,324.6272278000001,None,space,0,326.49410050000006,None,326.49410050000006,None,326.49410050000006,None,0.2385629999998855,,,,,,,,,,,P040,FENCOG,1,Pre,2022_Apr_28_1041,Go No-Go Task,2021.1.4,120.15750245381335,
,"Rule: When you see a yellow image, do not press 'spacebar'.",Images/Fearful/BF05_FO.jpg,Fear,Yellow,Images/Yellow.jpg,None,ParentConditions/YellowYellowBlue_v1.xlsx,YellowYellowBlue,Conditions/Version_1/YellowFearStop.xlsx,yes,PASS,0.9080020582242041,,,,,,,,,0,0,0,1,0,0,0,0,0,17,17,17,,,,,,,,,,,,,,,,,,,,,,,,,,,,,,,,,,,,,,,,,,,,,,,,,,,,,,,,,,,,,,,,,,,,,,,,,,,,,,,1.47,326.89624790000016,None,space,0,328.46852149999995,None,328.46852149999995,None,328.46852149999995,None,0.24807810000038444,,,,,,,,,,,P040,FENCOG,1,Pre,2022_Apr_28_1041,Go No-Go Task,2021.1.4,120.15750245381335,
,"Rule: When you see a yellow image, do not press 'spacebar'.",Images/Happy/AM24HAS.jpg,Happy,Blue,Images/Blue.jpg,space,ParentConditions/YellowYellowBlue_v1.xlsx,YellowYellowBlue,Conditions/Version_1/YellowFearStop.xlsx,no,PASS,0.922071682303877,,,,,,,,,0,0,0,1,0,0,0,0,0,18,18,18,,,,,,,,,,,,,,,,,,,,,,,,,,,,,,,,,,,,,,,,,,,,,,,,,,,,,,,,,,,,,,,,,,,,,,,,,,,,,,,1.88,328.86726210000006,None,space,1,330.8512252999999,None,330.8512252999999,None,330.8512252999999,None,0.2973554000000149,,,,,,,,,,,P040,FENCOG,1,Pre,2022_Apr_28_1041,Go No-Go Task,2021.1.4,120.15750245381335,
,"Rule: When you see a yellow image, do not press 'spacebar'.",Images/Fearful/AF11AFS.jpg,Fear,Yellow,Images/Yellow.jpg,None,ParentConditions/YellowYellowBlue_v1.xlsx,YellowYellowBlue,Conditions/Version_1/YellowFearStop.xlsx,yes,PASS,0.9473352640697336,,,,,,,,,0,0,0,1,0,0,0,0,0,19,19,19,,,,,,,,,,,,,,,,,,,,,,,,,,,,,,,,,,,,,,,,,,,,,,,,,,,,,,,,,,,,,,,,,,,,,,,,,,,,,,,1.44,331.25156229999993,None,None,1,332.7922490000001,None,332.7922490000001,None,332.7922490000001,None,,,,,,,,,,,,P040,FENCOG,1,Pre,2022_Apr_28_1041,Go No-Go Task,2021.1.4,120.15750245381335,
,"Rule: When you see a yellow image, do not press 'spacebar'.",Images/Happy/AF01_HE.jpg,Happy,Blue,Images/Blue.jpg,space,ParentConditions/YellowYellowBlue_v1.xlsx,YellowYellowBlue,Conditions/Version_1/YellowFearStop.xlsx,no,PASS,0.975890070475601,,,,,,,,,0,0,0,1,0,0,0,0,0,20,20,20,,,,,,,,,,,,,,,,,,,,,,,,,,,,,,,,,,,,,,,,,,,,,,,,,,,,,,,,,,,,,,,,,,,,,,,,,,,,,,,1.54,333.1987048000001,None,space,1,334.84159120000004,None,334.84159120000004,None,334.84159120000004,None,0.26675890000024083,,,,,,,,,,,P040,FENCOG,1,Pre,2022_Apr_28_1041,Go No-Go Task,2021.1.4,120.15750245381335,
,"Rule: When you see a yellow image, do not press 'spacebar'.",Images/Happy/AM10_HO.jpg,Happy,Blue,Images/Blue.jpg,space,ParentConditions/YellowYellowBlue_v1.xlsx,YellowYellowBlue,Conditions/Version_1/YellowFearStop.xlsx,no,PASS,0.06323556568324906,,,,,,,,,0,0,0,1,0,0,0,0,0,21,21,21,,,,,,,,,,,,,,,,,,,,,,,,,,,,,,,,,,,,,,,,,,,,,,,,,,,,,,,,,,,,,,,,,,,,,,,,,,,,,,,1.93,335.2504242,None,space,1,337.28256310000006,None,337.28256310000006,None,337.28256310000006,None,0.2900242000000617,,,,,,,,,,,P040,FENCOG,1,Pre,2022_Apr_28_1041,Go No-Go Task,2021.1.4,120.15750245381335,
,"Rule: When you see a yellow image, do not press 'spacebar'.",Images/Happy/AF09HAS.jpg,Happy,Blue,Images/Blue.jpg,space,ParentConditions/YellowYellowBlue_v1.xlsx,YellowYellowBlue,Conditions/Version_1/YellowFearStop.xlsx,no,PASS,0.6962175902541581,,,,,,,,,0,0,0,1,0,0,0,0,0,22,22,22,,,,,,,,,,,,,,,,,,,,,,,,,,,,,,,,,,,,,,,,,,,,,,,,,,,,,,,,,,,,,,,,,,,,,,,,,,,,,,,1.45,337.68256310000015,None,space,1,339.2403798999999,None,339.2403798999999,None,339.2403798999999,None,0.340317000000141,,,,,,,,,,,P040,FENCOG,1,Pre,2022_Apr_28_1041,Go No-Go Task,2021.1.4,120.15750245381335,
,"Rule: When you see a yellow image, do not press 'spacebar'.",Images/Happy/BM02_HO.jpg,Happy,Blue,Images/Blue.jpg,space,ParentConditions/YellowYellowBlue_v1.xlsx,YellowYellowBlue,Conditions/Version_1/YellowFearStop.xlsx,no,PASS,0.39611347700197175,,,,,,,,,0,0,0,1,0,0,0,0,0,23,23,23,,,,,,,,,,,,,,,,,,,,,,,,,,,,,,,,,,,,,,,,,,,,,,,,,,,,,,,,,,,,,,,,,,,,,,,,,,,,,,,1.99,339.6447871999999,None,space,1,341.7313643000002,None,341.7313643000002,None,341.7313643000002,None,0.33748519999971904,,,,,,,,,,,P040,FENCOG,1,Pre,2022_Apr_28_1041,Go No-Go Task,2021.1.4,120.15750245381335,
,"Rule: When you see a yellow image, do not press 'spacebar'.",Images/Happy/AM09_HE.jpg,Happy,Blue,Images/Blue.jpg,space,ParentConditions/YellowYellowBlue_v1.xlsx,YellowYellowBlue,Conditions/Version_1/YellowFearStop.xlsx,no,PASS,0.07757947711401492,,,,,,,,,0,0,0,1,0,0,0,0,0,24,24,24,,,,,,,,,,,,,,,,,,,,,,,,,,,,,,,,,,,,,,,,,,,,,,,,,,,,,,,,,,,,,,,,,,,,,,,,,,,,,,,1.94,342.13781689999996,None,space,1,344.18888270000025,None,344.18888270000025,None,344.18888270000025,None,0.24775069999986954,,,,,,,,,,,P040,FENCOG,1,Pre,2022_Apr_28_1041,Go No-Go Task,2021.1.4,120.15750245381335,
,"Rule: When you see a yellow image, do not press 'spacebar'.",Images/Happy/AF10_HE.jpg,Happy,Blue,Images/Blue.jpg,space,ParentConditions/YellowYellowBlue_v1.xlsx,YellowYellowBlue,Conditions/Version_1/YellowFearStop.xlsx,no,PASS,0.0317382475703174,,,,,,,,,0,0,0,1,0,0,0,0,0,25,25,25,,,,,,,,,,,,,,,,,,,,,,,,,,,,,,,,,,,,,,,,,,,,,,,,,,,,,,,,,,,,,,,,,,,,,,,,,,,,,,,1.31,344.58790739999995,None,space,1,346.0050083000001,None,346.0050083000001,None,346.0050083000001,None,0.3675026999999318,,,,,,,,,,,P040,FENCOG,1,Pre,2022_Apr_28_1041,Go No-Go Task,2021.1.4,120.15750245381335,
,"Rule: When you see a yellow image, do not press 'spacebar'.",Images/Happy/BM01_HO.jpg,Happy,Blue,Images/Blue.jpg,space,ParentConditions/YellowYellowBlue_v1.xlsx,YellowYellowBlue,Conditions/Version_1/YellowFearStop.xlsx,no,PASS,0.5236836345272965,,,,,,,,,0,0,0,1,0,0,0,0,0,26,26,26,,,,,,,,,,,,,,,,,,,,,,,,,,,,,,,,,,,,,,,,,,,,,,,,,,,,,,,,,,,,,,,,,,,,,,,,,,,,,,,1.63,346.4041121999999,None,space,1,348.1376415999998,None,348.1376415999998,None,348.1376415999998,None,0.29081219999989116,,,,,,,,,,,P040,FENCOG,1,Pre,2022_Apr_28_1041,Go No-Go Task,2021.1.4,120.15750245381335,
,"Rule: When you see a yellow image, do not press 'spacebar'.",Images/Fearful/AF07_FO.jpg,Fear,Yellow,Images/Yellow.jpg,None,ParentConditions/YellowYellowBlue_v1.xlsx,YellowYellowBlue,Conditions/Version_1/YellowFearStop.xlsx,yes,PASS,0.05460409726356086,,,,,,,,,0,0,0,1,0,0,0,0,0,27,27,27,,,,,,,,,,,,,,,,,,,,,,,,,,,,,,,,,,,,,,,,,,,,,,,,,,,,,,,,,,,,,,,,,,,,,,,,,,,,,,,1.42,348.53643280000006,None,None,1,350.06216760000007,None,350.06216760000007,None,350.06216760000007,None,,,,,,,,,,,,P040,FENCOG,1,Pre,2022_Apr_28_1041,Go No-Go Task,2021.1.4,120.15750245381335,
,"Rule: When you see a yellow image, do not press 'spacebar'.",Images/Happy/BF18_HO.jpg,Happy,Blue,Images/Blue.jpg,space,ParentConditions/YellowYellowBlue_v1.xlsx,YellowYellowBlue,Conditions/Version_1/YellowFearStop.xlsx,no,PASS,0.725547290944351,,,,,,,,,0,0,0,1,0,0,0,0,0,28,28,28,,,,,,,,,,,,,,,,,,,,,,,,,,,,,,,,,,,,,,,,,,,,,,,,,,,,,,,,,,,,,,,,,,,,,,,,,,,,,,,1.71,350.46768710000015,None,space,1,352.27821140000015,None,352.27821140000015,None,352.27821140000015,None,0.24666819999993095,,,,,,,,,,,P040,FENCOG,1,Pre,2022_Apr_28_1041,Go No-Go Task,2021.1.4,120.15750245381335,
,"Rule: When you see a yellow image, do not press 'spacebar'.",Images/Happy/AM03HAS.jpg,Happy,Blue,Images/Blue.jpg,space,ParentConditions/YellowYellowBlue_v1.xlsx,YellowYellowBlue,Conditions/Version_1/YellowFearStop.xlsx,no,PASS,0.25317968373868693,,,,,,,,,0,0,0,1,0,0,0,0,0,29,29,29,,,,,,,,,,,,,,,,,,,,,,,,,,,,,,,,,,,,,,,,,,,,,,,,,,,,,,,,,,,,,,,,,,,,,,,,,,,,,,,1.46,352.6773515,None,space,1,354.2443091,None,354.2443091,None,354.2443091,None,0.3205041999999594,,,,,,,,,,,P040,FENCOG,1,Pre,2022_Apr_28_1041,Go No-Go Task,2021.1.4,120.15750245381335,
,"Rule: When you see a yellow image, do not press 'spacebar'.",Images/Happy/BF10_HO.jpg,Happy,Blue,Images/Blue.jpg,space,ParentConditions/YellowYellowBlue_v1.xlsx,YellowYellowBlue,Conditions/Version_1/YellowFearStop.xlsx,no,PASS,0.49778397383761497,,,,,,,,,0,0,0,1,0,0,0,0,0,30,30,30,,,,,,,,,,,,,,,,,,,,,,,,,,,,,,,,,,,,,,,,,,,,,,,,,,,,,,,,,,,,,,,,,,,,,,,,,,,,,,,1.95,354.6543449999999,None,space,1,356.71861320000016,None,356.71861320000016,None,356.71861320000016,None,0.24589370000012423,,,,,,,,,,,P040,FENCOG,1,Pre,2022_Apr_28_1041,Go No-Go Task,2021.1.4,120.15750245381335,
,"Rule: When you see a yellow image, do not press 'spacebar'.",Images/Happy/BF07_HO.jpg,Happy,Blue,Images/Blue.jpg,space,ParentConditions/YellowYellowBlue_v1.xlsx,YellowYellowBlue,Conditions/Version_1/YellowFearStop.xlsx,no,PASS,0.8230931671283865,,,,,,,,,0,0,0,1,0,0,0,0,0,31,31,31,,,,,,,,,,,,,,,,,,,,,,,,,,,,,,,,,,,,,,,,,,,,,,,,,,,,,,,,,,,,,,,,,,,,,,,,,,,,,,,1.24,357.11879709999994,None,space,1,358.4596326000001,None,358.4596326000001,None,358.4596326000001,None,0.3530134000002363,,,,,,,,,,,P040,FENCOG,1,Pre,2022_Apr_28_1041,Go No-Go Task,2021.1.4,120.15750245381335,
,"Rule: When you see a yellow image, do not press 'spacebar'.",Images/Fearful/BF07_FO.jpg,Fear,Yellow,Images/Yellow.jpg,None,ParentConditions/YellowYellowBlue_v1.xlsx,YellowYellowBlue,Conditions/Version_1/YellowFearStop.xlsx,yes,PASS,0.2119409881246468,,,,,,,,,0,0,0,1,0,0,0,0,0,32,32,32,,,,,,,,,,,,,,,,,,,,,,,,,,,,,,,,,,,,,,,,,,,,,,,,,,,,,,,,,,,,,,,,,,,,,,,,,,,,,,,1.2,358.8601966000001,None,None,1,360.1757980000002,None,360.1757980000002,None,360.1757980000002,None,,,,,,,,,,,,P040,FENCOG,1,Pre,2022_Apr_28_1041,Go No-Go Task,2021.1.4,120.15750245381335,
,"Rule: When you see a yellow image, do not press 'spacebar'.",Images/Happy/WF04_HC.jpg,Happy,Blue,Images/Blue.jpg,space,ParentConditions/YellowYellowBlue_v1.xlsx,YellowYellowBlue,Conditions/Version_1/YellowFearStop.xlsx,no,PASS,0.26229612863468255,,,,,,,,,0,0,0,1,0,0,0,0,0,33,33,33,,,,,,,,,,,,,,,,,,,,,,,,,,,,,,,,,,,,,,,,,,,,,,,,,,,,,,,,,,,,,,,,,,,,,,,,,,,,,,,1.27,360.57479120000016,None,space,1,361.9502342999999,None,361.9502342999999,None,361.9502342999999,None,0.26264949999995224,,,,,,,,,,,P040,FENCOG,1,Pre,2022_Apr_28_1041,Go No-Go Task,2021.1.4,120.15750245381335,
,"Rule: When you see a yellow image, do not press 'spacebar'.",Images/Happy/AM23HAS.jpg,Happy,Blue,Images/Blue.jpg,space,ParentConditions/YellowYellowBlue_v1.xlsx,YellowYellowBlue,Conditions/Version_1/YellowFearStop.xlsx,no,PASS,0.6553077695853636,,,,,,,,,0,0,0,1,0,0,0,0,0,34,34,34,,,,,,,,,,,,,,,,,,,,,,,,,,,,,,,,,,,,,,,,,,,,,,,,,,,,,,,,,,,,,,,,,,,,,,,,,,,,,,,1.9,362.35384650000015,None,space,1,364.3579023000002,None,364.3579023000002,None,364.3579023000002,None,0.2384372000001349,,,,,,,,,,,P040,FENCOG,1,Pre,2022_Apr_28_1041,Go No-Go Task,2021.1.4,120.15750245381335,
,"Rule: When you see a yellow image, do not press 'spacebar'.",Images/Happy/AM09HAS.jpg,Happy,Blue,Images/Blue.jpg,space,ParentConditions/YellowYellowBlue_v1.xlsx,YellowYellowBlue,Conditions/Version_1/YellowFearStop.xlsx,no,PASS,0.3792451721627529,,,,,,,,,0,0,0,1,0,0,0,0,0,35,35,35,,,,,,,,,,,,,,,,,,,,,,,,,,,,,,,,,,,,,,,,,,,,,,,,,,,,,,,,,,,,,,,,,,,,,,,,,,,,,,,1.4,364.75847190000013,None,space,1,366.26567750000004,None,366.26567750000004,None,366.26567750000004,None,0.2509254999999939,,,,,,,,,,,P040,FENCOG,1,Pre,2022_Apr_28_1041,Go No-Go Task,2021.1.4,120.15750245381335,
,"Rule: When you see a yellow image, do not press 'spacebar'.",Images/Happy/AM10HAS.jpg,Happy,Blue,Images/Blue.jpg,space,ParentConditions/YellowYellowBlue_v1.xlsx,YellowYellowBlue,Conditions/Version_1/YellowFearStop.xlsx,no,PASS,0.9781550300020249,,,,,,,,,0,0,0,1,0,0,0,0,0,36,36,36,,,,,,,,,,,,,,,,,,,,,,,,,,,,,,,,,,,,,,,,,,,,,,,,,,,,,,,,,,,,,,,,,,,,,,,,,,,,,,,1.78,366.66636659999995,None,space,1,368.55658829999993,None,368.55658829999993,None,368.55658829999993,None,0.31995809999989433,,,,,,,,,,,P040,FENCOG,1,Pre,2022_Apr_28_1041,Go No-Go Task,2021.1.4,120.15750245381335,
,"Rule: When you see a yellow image, do not press 'spacebar'.",Images/Happy/AF07HAS.jpg,Happy,Blue,Images/Blue.jpg,space,ParentConditions/YellowYellowBlue_v1.xlsx,YellowYellowBlue,Conditions/Version_1/YellowFearStop.xlsx,no,PASS,0.9827710623676732,,,,,,,,,0,0,0,1,0,0,0,0,0,37,37,37,,,,,,,,,,,,,,,,,,,,,,,,,,,,,,,,,,,,,,,,,,,,,,,,,,,,,,,,,,,,,,,,,,,,,,,,,,,,,,,1.29,368.9555651999999,None,space,1,370.3478077999998,None,370.3478077999998,None,370.3478077999998,None,0.2567175000003772,,,,,,,,,,,P040,FENCOG,1,Pre,2022_Apr_28_1041,Go No-Go Task,2021.1.4,120.15750245381335,
,"Rule: When you see a yellow image, do not press 'spacebar'.",Images/Happy/AM03_HO.jpg,Happy,Blue,Images/Blue.jpg,space,ParentConditions/YellowYellowBlue_v1.xlsx,YellowYellowBlue,Conditions/Version_1/YellowFearStop.xlsx,no,PASS,0.6960883574837642,,,,,,,,,0,0,0,1,0,0,0,0,0,38,38,38,,,,,,,,,,,,,,,,,,,,,,,,,,,,,,,,,,,,,,,,,,,,,,,,,,,,,,,,,,,,,,,,,,,,,,,,,,,,,,,1.65,370.74840440000025,None,space,1,372.5137553999998,None,372.5137553999998,None,372.5137553999998,None,0.3547982999998567,,,,,,,,,,,P040,FENCOG,1,Pre,2022_Apr_28_1041,Go No-Go Task,2021.1.4,120.15750245381335,
,"Rule: When you see a yellow image, do not press 'spacebar'.",Images/Happy/AM05HAS.jpg,Happy,Blue,Images/Blue.jpg,space,ParentConditions/YellowYellowBlue_v1.xlsx,YellowYellowBlue,Conditions/Version_1/YellowFearStop.xlsx,no,PASS,0.8897547995150092,,,,,,,,,0,0,0,1,0,0,0,0,0,39,39,39,,,,,,,,,,,,,,,,,,,,,,,,,,,,,,,,,,,,,,,,,,,,,,,,,,,,,,,,,,,,,,,,,,,,,,,,,,,,,,,1.37,372.9126317,None,None,0,374.3882927999998,None,374.3882927999998,None,374.3882927999998,None,,,,,,,,,,,,P040,FENCOG,1,Pre,2022_Apr_28_1041,Go No-Go Task,2021.1.4,120.15750245381335,
,"Rule: When you see a yellow image, do not press 'spacebar'.",Images/Happy/AF02HAS.jpg,Happy,Blue,Images/Blue.jpg,space,ParentConditions/YellowYellowBlue_v1.xlsx,YellowYellowBlue,Conditions/Version_1/YellowFearStop.xlsx,no,PASS,0.25376599793626176,,,,,,,,,0,0,0,1,0,0,0,0,0,40,40,40,,,,,,,,,,,,,,,,,,,,,,,,,,,,,,,,,,,,,,,,,,,,,,,,,,,,,,,,,,,,,,,,,,,,,,,,,,,,,,,1.56,374.78870000000006,None,space,1,376.4543414999998,None,376.4543414999998,None,376.4543414999998,None,0.24606189999985872,,,,,,,,,,,P040,FENCOG,1,Pre,2022_Apr_28_1041,Go No-Go Task,2021.1.4,120.15750245381335,
,"Rule: When you see a yellow image, do not press 'spacebar'.",Images/Happy/BM08_HO.jpg,Happy,Blue,Images/Blue.jpg,space,ParentConditions/YellowYellowBlue_v1.xlsx,YellowYellowBlue,Conditions/Version_1/YellowFearStop.xlsx,no,PASS,0.999289280912827,,,,,,,,,0,0,0,1,0,0,0,0,0,41,41,41,,,,,,,,,,,,,,,,,,,,,,,,,,,,,,,,,,,,,,,,,,,,,,,,,,,,,,,,,,,,,,,,,,,,,,,,,,,,,,,1.81,376.85343650000004,None,space,1,378.77859249999983,None,378.77859249999983,None,378.77859249999983,None,0.29830909999964206,,,,,,,,,,,P040,FENCOG,1,Pre,2022_Apr_28_1041,Go No-Go Task,2021.1.4,120.15750245381335,
,"Rule: When you see a yellow image, do not press 'spacebar'.",Images/Happy/AM22HAS.jpg,Happy,Blue,Images/Blue.jpg,space,ParentConditions/YellowYellowBlue_v1.xlsx,YellowYellowBlue,Conditions/Version_1/YellowFearStop.xlsx,no,PASS,0.3243688929703894,,,,,,,,,0,0,0,1,0,0,0,0,0,42,42,42,,,,,,,,,,,,,,,,,,,,,,,,,,,,,,,,,,,,,,,,,,,,,,,,,,,,,,,,,,,,,,,,,,,,,,,,,,,,,,,1.39,379.17134309999983,None,space,1,380.66136830000005,None,380.66136830000005,None,380.66136830000005,None,0.24697629999991477,,,,,,,,,,,P040,FENCOG,1,Pre,2022_Apr_28_1041,Go No-Go Task,2021.1.4,120.15750245381335,
,"Rule: When you see a yellow image, do not press 'spacebar'.",Images/Happy/AM30HAS.jpg,Happy,Blue,Images/Blue.jpg,space,ParentConditions/YellowYellowBlue_v1.xlsx,YellowYellowBlue,Conditions/Version_1/YellowFearStop.xlsx,no,PASS,0.6329749014690744,,,,,,,,,0,0,0,1,0,0,0,0,0,43,43,43,,,,,,,,,,,,,,,,,,,,,,,,,,,,,,,,,,,,,,,,,,,,,,,,,,,,,,,,,,,,,,,,,,,,,,,,,,,,,,,1.26,381.0623488000001,None,space,1,382.4359651,None,382.4359651,None,382.4359651,None,0.27268499999991036,,,,,,,,,,,P040,FENCOG,1,Pre,2022_Apr_28_1041,Go No-Go Task,2021.1.4,120.15750245381335,
,"Rule: When you see a yellow image, do not press 'spacebar'.",Images/Fearful/BF09_FC.jpg,Fear,Yellow,Images/Yellow.jpg,None,ParentConditions/YellowYellowBlue_v1.xlsx,YellowYellowBlue,Conditions/Version_1/YellowFearStop.xlsx,yes,PASS,0.8490666234880494,,,,,,,,,0,0,0,1,0,0,0,0,0,44,44,44,,,,,,,,,,,,,,,,,,,,,,,,,,,,,,,,,,,,,,,,,,,,,,,,,,,,,,,,,,,,,,,,,,,,,,,,,,,,,,,1.8,382.8349640000001,None,space,0,384.7351600000002,None,384.7351600000002,None,384.7351600000002,None,0.2132062999999107,,,,,,,,,,,P040,FENCOG,1,Pre,2022_Apr_28_1041,Go No-Go Task,2021.1.4,120.15750245381335,
,"Rule: When you see a yellow image, do not press 'spacebar'.",Images/Happy/WM12_HE.jpg,Happy,Blue,Images/Blue.jpg,space,ParentConditions/YellowYellowBlue_v1.xlsx,YellowYellowBlue,Conditions/Version_1/YellowFearStop.xlsx,no,PASS,0.11929099481185879,,,,,,,,,0,0,0,1,0,0,0,0,0,45,45,45,,,,,,,,,,,,,,,,,,,,,,,,,,,,,,,,,,,,,,,,,,,,,,,,,,,,,,,,,,,,,,,,,,,,,,,,,,,,,,,1.83,385.1353610000001,None,space,1,387.0678005,None,387.0678005,None,387.0678005,None,0.31253960000003644,,,,,,,,,,,P040,FENCOG,1,Pre,2022_Apr_28_1041,Go No-Go Task,2021.1.4,120.15750245381335,
,"Rule: When you see a yellow image, do not press 'spacebar'.",Images/Happy/HF10_HE.jpg,Happy,Blue,Images/Blue.jpg,space,ParentConditions/YellowYellowBlue_v1.xlsx,YellowYellowBlue,Conditions/Version_1/YellowFearStop.xlsx,no,PASS,0.835696516720082,,,,,,,,,0,0,0,1,0,0,0,0,0,46,46,46,,,,,,,,,,,,,,,,,,,,,,,,,,,,,,,,,,,,,,,,,,,,,,,,,,,,,,,,,,,,,,,,,,,,,,,,,,,,,,,1.68,387.4685006999998,None,space,1,389.2504973,None,389.2504973,None,389.2504973,None,0.34587459999966086,,,,,,,,,,,P040,FENCOG,1,Pre,2022_Apr_28_1041,Go No-Go Task,2021.1.4,120.15750245381335,
,"Rule: When you see a yellow image, do not press 'spacebar'.",Images/Happy/HM09_HO.jpg,Happy,Blue,Images/Blue.jpg,space,ParentConditions/YellowYellowBlue_v1.xlsx,YellowYellowBlue,Conditions/Version_1/YellowFearStop.xlsx,no,PASS,0.80615804446551,,,,,,,,,0,0,0,1,0,0,0,0,0,47,47,47,,,,,,,,,,,,,,,,,,,,,,,,,,,,,,,,,,,,,,,,,,,,,,,,,,,,,,,,,,,,,,,,,,,,,,,,,,,,,,,1.53,389.65130020000015,None,space,1,391.2833171000002,None,391.2833171000002,None,391.2833171000002,None,0.36935200000016266,,,,,,,,,,,P040,FENCOG,1,Pre,2022_Apr_28_1041,Go No-Go Task,2021.1.4,120.15750245381335,
,"Rule: When you see a yellow image, do not press 'spacebar'.",Images/Fearful/AM03_FC.jpg,Fear,Yellow,Images/Yellow.jpg,None,ParentConditions/YellowYellowBlue_v1.xlsx,YellowYellowBlue,Conditions/Version_1/YellowFearStop.xlsx,yes,PASS,0.14846567878901318,,,,,,,,,0,0,0,1,0,0,0,0,0,48,48,48,,,,,,,,,,,,,,,,,,,,,,,,,,,,,,,,,,,,,,,,,,,,,,,,,,,,,,,,,,,,,,,,,,,,,,,,,,,,,,,1.62,391.68447349999997,None,None,1,393.40757870000016,None,393.40757870000016,None,393.40757870000016,None,,,,,,,,,,,,P040,FENCOG,1,Pre,2022_Apr_28_1041,Go No-Go Task,2021.1.4,120.15750245381335,
,"Rule: When you see a yellow image, do not press 'spacebar'.",Images/Happy/HF04_HE.jpg,Happy,Blue,Images/Blue.jpg,space,ParentConditions/YellowYellowBlue_v1.xlsx,YellowYellowBlue,Conditions/Version_1/YellowFearStop.xlsx,no,PASS,0.49340132442678397,,,,,,,,,0,0,0,1,0,0,0,0,0,49,49,49,,,,,,,,,,,,,,,,,,,,,,,,,,,,,,,,,,,,,,,,,,,,,,,,,,,,,,,,,,,,,,,,,,,,,,,,,,,,,,,1.61,393.8080420000001,None,space,1,395.52367790000017,None,395.52367790000017,None,395.52367790000017,None,0.2886938999999984,,,,,,,,,,,P040,FENCOG,1,Pre,2022_Apr_28_1041,Go No-Go Task,2021.1.4,120.15750245381335,
,"Rule: When you see a yellow image, do not press 'spacebar'.",Images/Happy/AM17HAS.jpg,Happy,Blue,Images/Blue.jpg,space,ParentConditions/YellowYellowBlue_v1.xlsx,YellowYellowBlue,Conditions/Version_1/YellowFearStop.xlsx,no,PASS,0.47053997269579284,,,,,,,,,0,0,0,1,0,0,0,0,0,50,50,50,,,,,,,,,,,,,,,,,,,,,,,,,,,,,,,,,,,,,,,,,,,,,,,,,,,,,,,,,,,,,,,,,,,,,,,,,,,,,,,1.57,395.9232545,None,space,1,397.6064182,None,397.6064182,None,397.6064182,None,0.26997190000020055,,,,,,,,,,,P040,FENCOG,1,Pre,2022_Apr_28_1041,Go No-Go Task,2021.1.4,120.15750245381335,
,"Rule: When you see a yellow image, do not press 'spacebar'.",Images/Fearful/BM01_FO.jpg,Fear,Yellow,Images/Yellow.jpg,None,ParentConditions/YellowYellowBlue_v1.xlsx,YellowYellowBlue,Conditions/Version_1/YellowFearStop.xlsx,yes,PASS,0.31347174673362443,,,,,,,,,0,0,0,1,0,0,0,0,0,51,51,51,,,,,,,,,,,,,,,,,,,,,,,,,,,,,,,,,,,,,,,,,,,,,,,,,,,,,,,,,,,,,,,,,,,,,,,,,,,,,,,1.28,398.00499020000007,None,None,1,399.39741330000015,None,399.39741330000015,None,399.39741330000015,None,,,,,,,,,,,,P040,FENCOG,1,Pre,2022_Apr_28_1041,Go No-Go Task,2021.1.4,120.15750245381335,
,"Rule: When you see a yellow image, do not press 'spacebar'.",Images/Happy/HF09_HE.jpg,Happy,Blue,Images/Blue.jpg,space,ParentConditions/YellowYellowBlue_v1.xlsx,YellowYellowBlue,Conditions/Version_1/YellowFearStop.xlsx,no,PASS,0.012739972194723559,,,,,,,,,0,0,0,1,0,0,0,0,0,52,52,52,,,,,,,,,,,,,,,,,,,,,,,,,,,,,,,,,,,,,,,,,,,,,,,,,,,,,,,,,,,,,,,,,,,,,,,,,,,,,,,1.48,399.79747270000007,None,space,1,401.38031790000014,None,401.38031790000014,None,401.38031790000014,None,0.2402353000002222,,,,,,,,,,,P040,FENCOG,1,Pre,2022_Apr_28_1041,Go No-Go Task,2021.1.4,120.15750245381335,
,"Rule: When you see a yellow image, do not press 'spacebar'.",Images/Happy/WF11_HE.jpg,Happy,Blue,Images/Blue.jpg,space,ParentConditions/YellowYellowBlue_v1.xlsx,YellowYellowBlue,Conditions/Version_1/YellowFearStop.xlsx,no,PASS,0.5128097154267254,,,,,,,,,0,0,0,1,0,0,0,0,0,53,53,53,,,,,,,,,,,,,,,,,,,,,,,,,,,,,,,,,,,,,,,,,,,,,,,,,,,,,,,,,,,,,,,,,,,,,,,,,,,,,,,1.91,401.7904179000002,None,space,1,403.8045310000002,None,403.8045310000002,None,403.8045310000002,None,0.23996450000004188,,,,,,,,,,,P040,FENCOG,1,Pre,2022_Apr_28_1041,Go No-Go Task,2021.1.4,120.15750245381335,
,"Rule: When you see a yellow image, do not press 'spacebar'.",Images/Fearful/AM04AFS.jpg,Fear,Yellow,Images/Yellow.jpg,None,ParentConditions/YellowYellowBlue_v1.xlsx,YellowYellowBlue,Conditions/Version_1/YellowFearStop.xlsx,yes,PASS,0.4808108011742167,,,,,,,,,0,0,0,1,0,0,0,0,0,54,54,54,,,,,,,,,,,,,,,,,,,,,,,,,,,,,,,,,,,,,,,,,,,,,,,,,,,,,,,,,,,,,,,,,,,,,,,,,,,,,,,1.51,404.2034699999999,None,space,0,405.8205962000002,None,405.8205962000002,None,405.8205962000002,None,0.239990200000193,,,,,,,,,,,P040,FENCOG,1,Pre,2022_Apr_28_1041,Go No-Go Task,2021.1.4,120.15750245381335,
,"Rule: When you see a yellow image, do not press 'spacebar'.",Images/Happy/AF19HAS.jpg,Happy,Blue,Images/Blue.jpg,space,ParentConditions/YellowYellowBlue_v1.xlsx,YellowYellowBlue,Conditions/Version_1/YellowFearStop.xlsx,no,PASS,0.3252147007245795,,,,,,,,,0,0,0,1,0,0,0,0,0,55,55,55,,,,,,,,,,,,,,,,,,,,,,,,,,,,,,,,,,,,,,,,,,,,,,,,,,,,,,,,,,,,,,,,,,,,,,,,,,,,,,,1.77,406.2294455000001,None,space,1,408.1032503000001,None,408.1032503000001,None,408.1032503000001,None,0.33335269999997763,,,,,,,,,,,P040,FENCOG,1,Pre,2022_Apr_28_1041,Go No-Go Task,2021.1.4,120.15750245381335,
,"Rule: When you see a yellow image, do not press 'spacebar'.",Images/Happy/HM06_HO.jpg,Happy,Blue,Images/Blue.jpg,space,ParentConditions/YellowYellowBlue_v1.xlsx,YellowYellowBlue,Conditions/Version_1/YellowFearStop.xlsx,no,PASS,0.3282337486862341,,,,,,,,,0,0,0,1,0,0,0,0,0,56,56,56,,,,,,,,,,,,,,,,,,,,,,,,,,,,,,,,,,,,,,,,,,,,,,,,,,,,,,,,,,,,,,,,,,,,,,,,,,,,,,,1.58,408.5039409000001,None,space,1,410.1943937000001,None,410.1943937000001,None,410.1943937000001,None,0.2502218999998149,,,,,,,,,,,P040,FENCOG,1,Pre,2022_Apr_28_1041,Go No-Go Task,2021.1.4,120.15750245381335,
,"Rule: When you see a yellow image, do not press 'spacebar'.",Images/Happy/HF05_HO.jpg,Happy,Blue,Images/Blue.jpg,space,ParentConditions/YellowYellowBlue_v1.xlsx,YellowYellowBlue,Conditions/Version_1/YellowFearStop.xlsx,no,PASS,0.5833391709234322,,,,,,,,,0,0,0,1,0,0,0,0,0,57,57,57,,,,,,,,,,,,,,,,,,,,,,,,,,,,,,,,,,,,,,,,,,,,,,,,,,,,,,,,,,,,,,,,,,,,,,,,,,,,,,,1.49,410.59411150000005,None,space,1,412.1853818999998,None,412.1853818999998,None,412.1853818999998,None,0.2670459999999366,,,,,,,,,,,P040,FENCOG,1,Pre,2022_Apr_28_1041,Go No-Go Task,2021.1.4,120.15750245381335,
,"Rule: When you see a yellow image, do not press 'spacebar'.",Images/Fearful/AF01_FO.jpg,Fear,Yellow,Images/Yellow.jpg,None,ParentConditions/YellowYellowBlue_v1.xlsx,YellowYellowBlue,Conditions/Version_1/YellowFearStop.xlsx,yes,PASS,0.3034900725746609,,,,,,,,,0,0,0,1,0,0,0,0,0,58,58,58,,,,,,,,,,,,,,,,,,,,,,,,,,,,,,,,,,,,,,,,,,,,,,,,,,,,,,,,,,,,,,,,,,,,,,,,,,,,,,,1.5,412.5875369999999,None,None,1,414.1847994,None,414.1847994,None,414.1847994,None,,,,,,,,,,,,P040,FENCOG,1,Pre,2022_Apr_28_1041,Go No-Go Task,2021.1.4,120.15750245381335,
,"Rule: When you see a yellow image, do not press 'spacebar'.",Images/Happy/AF21HAS.jpg,Happy,Blue,Images/Blue.jpg,space,ParentConditions/YellowYellowBlue_v1.xlsx,YellowYellowBlue,Conditions/Version_1/YellowFearStop.xlsx,no,PASS,0.9799702127391234,,,,,,,,,0,0,0,1,0,0,0,0,0,59,59,59,,,,,,,,,,,,,,,,,,,,,,,,,,,,,,,,,,,,,,,,,,,,,,,,,,,,,,,,,,,,,,,,,,,,,,,,,,,,,,,1.64,414.58919849999984,None,space,1,416.34256110000024,None,416.34256110000024,None,416.34256110000024,None,0.23782359999995606,,,,,,,,,,,P040,FENCOG,1,Pre,2022_Apr_28_1041,Go No-Go Task,2021.1.4,120.15750245381335,
,"Rule: When you see a yellow image, do not press 'spacebar'.",Images/Happy/AM06_HC.jpg,Happy,Blue,Images/Blue.jpg,space,ParentConditions/YellowYellowBlue_v1.xlsx,YellowYellowBlue,Conditions/Version_1/YellowFearStop.xlsx,no,PASS,0.29816427390759137,,,,,,,,,0,0,0,1,0,0,0,0,0,60,60,60,,,,,,,,,,,,,,,,,,,,,,,,,,,,,,,,,,,,,,,,,,,,,,,,,,,,,,,,,,,,,,,,,,,,,,,,,,,,,,,1.35,416.74320979999993,None,space,1,418.21695009999985,None,418.21695009999985,None,418.21695009999985,None,0.3234831999998278,,,,,,,,,,,P040,FENCOG,1,Pre,2022_Apr_28_1041,Go No-Go Task,2021.1.4,120.15750245381335,
,"Rule: When you see a yellow image, do not press 'spacebar'.",Images/Fearful/AF02AFS.jpg,Fear,Yellow,Images/Yellow.jpg,None,ParentConditions/YellowYellowBlue_v1.xlsx,YellowYellowBlue,Conditions/Version_1/YellowFearStop.xlsx,yes,PASS,0.15582520477375605,,,,,,,,,0,0,0,1,0,0,0,0,0,61,61,61,,,,,,,,,,,,,,,,,,,,,,,,,,,,,,,,,,,,,,,,,,,,,,,,,,,,,,,,,,,,,,,,,,,,,,,,,,,,,,,1.55,418.60746470000004,None,space,0,420.2580662999999,None,420.2580662999999,None,420.2580662999999,None,0.23445009999977628,,,,,,,,,,,P040,FENCOG,1,Pre,2022_Apr_28_1041,Go No-Go Task,2021.1.4,120.15750245381335,
,"Rule: When you see a yellow image, do not press 'spacebar'.",Images/Happy/AF25HAS.jpg,Happy,Blue,Images/Blue.jpg,space,ParentConditions/YellowYellowBlue_v1.xlsx,YellowYellowBlue,Conditions/Version_1/YellowFearStop.xlsx,no,PASS,0.7963653427272854,,,,,,,,,0,0,0,1,0,0,0,0,0,62,62,62,,,,,,,,,,,,,,,,,,,,,,,,,,,,,,,,,,,,,,,,,,,,,,,,,,,,,,,,,,,,,,,,,,,,,,,,,,,,,,,1.85,420.6600351000002,None,space,1,422.61562379999987,None,422.61562379999987,None,422.61562379999987,None,0.30136389999961466,,,,,,,,,,,P040,FENCOG,1,Pre,2022_Apr_28_1041,Go No-Go Task,2021.1.4,120.15750245381335,
,"Rule: When you see a yellow image, do not press 'spacebar'.",Images/Happy/AM32HAS.jpg,Happy,Blue,Images/Blue.jpg,space,ParentConditions/YellowYellowBlue_v1.xlsx,YellowYellowBlue,Conditions/Version_1/YellowFearStop.xlsx,no,PASS,0.2823557460482189,,,,,,,,,0,0,0,1,0,0,0,0,0,63,63,63,,,,,,,,,,,,,,,,,,,,,,,,,,,,,,,,,,,,,,,,,,,,,,,,,,,,,,,,,,,,,,,,,,,,,,,,,,,,,,,1.3,423.02590439999994,None,space,1,424.43177849999984,None,424.43177849999984,None,424.43177849999984,None,0.32486850000032064,,,,,,,,,,,P040,FENCOG,1,Pre,2022_Apr_28_1041,Go No-Go Task,2021.1.4,120.15750245381335,
,"Rule: When you see a yellow image, do not press 'spacebar'.",Images/Fearful/AM02_FO.jpg,Fear,Yellow,Images/Yellow.jpg,None,ParentConditions/YellowYellowBlue_v1.xlsx,YellowYellowBlue,Conditions/Version_1/YellowFearStop.xlsx,yes,PASS,0.8481624514007016,,,,,,,,,0,0,0,1,0,0,0,0,0,64,64,64,,,,,,,,,,,,,,,,,,,,,,,,,,,,,,,,,,,,,,,,,,,,,,,,,,,,,,,,,,,,,,,,,,,,,,,,,,,,,,,1.74,424.83164160000024,None,None,1,426.67282209999985,None,426.67282209999985,None,426.67282209999985,None,,,,,,,,,,,,P040,FENCOG,1,Pre,2022_Apr_28_1041,Go No-Go Task,2021.1.4,120.15750245381335,
,"Rule: When you see a yellow image, do not press 'spacebar'.",Images/Fearful/BM02_FC.jpg,Fear,Yellow,Images/Yellow.jpg,None,ParentConditions/YellowYellowBlue_v1.xlsx,YellowYellowBlue,Conditions/Version_1/YellowFearStop.xlsx,yes,PASS,0.7033474445186839,,,,,,,,,0,0,0,1,0,0,0,0,0,65,65,65,,,,,,,,,,,,,,,,,,,,,,,,,,,,,,,,,,,,,,,,,,,,,,,,,,,,,,,,,,,,,,,,,,,,,,,,,,,,,,,1.69,427.0720136,None,space,0,428.86390789999996,None,428.86390789999996,None,428.86390789999996,None,0.2524972000001071,,,,,,,,,,,P040,FENCOG,1,Pre,2022_Apr_28_1041,Go No-Go Task,2021.1.4,120.15750245381335,
,"Rule: When you see a yellow image, do not press 'spacebar'.",Images/Happy/AM04_HE.jpg,Happy,Blue,Images/Blue.jpg,space,ParentConditions/YellowYellowBlue_v1.xlsx,YellowYellowBlue,Conditions/Version_1/YellowFearStop.xlsx,no,PASS,0.1954454647057855,,,,,,,,,0,0,0,1,0,0,0,0,0,66,66,66,,,,,,,,,,,,,,,,,,,,,,,,,,,,,,,,,,,,,,,,,,,,,,,,,,,,,,,,,,,,,,,,,,,,,,,,,,,,,,,1.67,429.2642214000002,None,space,1,431.0381304000002,None,431.0381304000002,None,431.0381304000002,None,0.36627339999995456,,,,,,,,,,,P040,FENCOG,1,Pre,2022_Apr_28_1041,Go No-Go Task,2021.1.4,120.15750245381335,
,"Rule: When you see a yellow image, do not press 'spacebar'.",Images/Fearful/AM05AFS.jpg,Fear,Yellow,Images/Yellow.jpg,None,ParentConditions/YellowYellowBlue_v1.xlsx,YellowYellowBlue,Conditions/Version_1/YellowFearStop.xlsx,yes,PASS,0.6459336406761428,,,,,,,,,0,0,0,1,0,0,0,0,0,67,67,67,,,,,,,,,,,,,,,,,,,,,,,,,,,,,,,,,,,,,,,,,,,,,,,,,,,,,,,,,,,,,,,,,,,,,,,,,,,,,,,1.79,431.43954010000016,None,None,1,433.34545130000015,None,433.34545130000015,None,433.34545130000015,None,,,,,,,,,,,,P040,FENCOG,1,Pre,2022_Apr_28_1041,Go No-Go Task,2021.1.4,120.15750245381335,
,"Rule: When you see a yellow image, do not press 'spacebar'.",Images/Happy/AF28HAS.jpg,Happy,Blue,Images/Blue.jpg,space,ParentConditions/YellowYellowBlue_v1.xlsx,YellowYellowBlue,Conditions/Version_1/YellowFearStop.xlsx,no,PASS,0.16840775809852682,,,,,,,,,0,0,0,1,0,0,0,0,0,68,68,68,,,,,,,,,,,,,,,,,,,,,,,,,,,,,,,,,,,,,,,,,,,,,,,,,,,,,,,,,,,,,,,,,,,,,,,,,,,,,,,1.41,433.74256049999985,None,space,1,435.25353600000017,None,435.25353600000017,None,435.25353600000017,None,0.26305090000005293,,,,,,,,,,,P040,FENCOG,1,Pre,2022_Apr_28_1041,Go No-Go Task,2021.1.4,120.15750245381335,
,"Rule: When you see a yellow image, do not press 'spacebar'.",Images/Happy/AF07_HO.jpg,Happy,Blue,Images/Blue.jpg,space,ParentConditions/YellowYellowBlue_v1.xlsx,YellowYellowBlue,Conditions/Version_1/YellowFearStop.xlsx,no,PASS,0.8921854253161821,,,,,,,,,0,0,0,1,0,0,0,0,0,69,69,69,,,,,,,,,,,,,,,,,,,,,,,,,,,,,,,,,,,,,,,,,,,,,,,,,,,,,,,,,,,,,,,,,,,,,,,,,,,,,,,1.66,435.6542125000001,None,space,1,437.41958569999997,None,437.41958569999997,None,437.41958569999997,None,0.27277189999995244,,,,,,,,,,,P040,FENCOG,1,Pre,2022_Apr_28_1041,Go No-Go Task,2021.1.4,120.15750245381335,
,"Rule: When you see a yellow image, do not press 'spacebar'.",Images/Happy/BF14_HO.jpg,Happy,Blue,Images/Blue.jpg,space,ParentConditions/YellowYellowBlue_v1.xlsx,YellowYellowBlue,Conditions/Version_1/YellowFearStop.xlsx,no,PASS,0.11340023271387378,,,,,,,,,0,0,0,1,0,0,0,0,0,70,70,70,,,,,,,,,,,,,,,,,,,,,,,,,,,,,,,,,,,,,,,,,,,,,,,,,,,,,,,,,,,,,,,,,,,,,,,,,,,,,,,1.82,437.8205836000002,None,space,1,439.74398340000016,None,439.74398340000016,None,439.74398340000016,None,0.2764756000001398,,,,,,,,,,,P040,FENCOG,1,Pre,2022_Apr_28_1041,Go No-Go Task,2021.1.4,120.15750245381335,
,"Rule: When you see a yellow image, do not press 'spacebar'.",Images/Fearful/AF07FS.jpg,Fear,Yellow,Images/Yellow.jpg,None,ParentConditions/YellowYellowBlue_v1.xlsx,YellowYellowBlue,Conditions/Version_1/YellowFearStop.xlsx,yes,PASS,0.01772114652951917,,,,,,,,,0,0,0,1,0,0,0,0,0,71,71,71,,,,,,,,,,,,,,,,,,,,,,,,,,,,,,,,,,,,,,,,,,,,,,,,,,,,,,,,,,,,,,,,,,,,,,,,,,,,,,,1.59,440.1493307999999,None,None,1,441.8432877,None,441.8432877,None,441.8432877,None,,,,,,,,,,,,P040,FENCOG,1,Pre,2022_Apr_28_1041,Go No-Go Task,2021.1.4,120.15750245381335,
,"Rule: When you see a yellow image, do not press 'spacebar'.",Images/Happy/AF32HAS.jpg,Happy,Blue,Images/Blue.jpg,space,ParentConditions/YellowYellowBlue_v1.xlsx,YellowYellowBlue,Conditions/Version_1/YellowFearStop.xlsx,no,PASS,0.351428612146247,,,,,,,,,0,0,0,1,0,0,0,0,0,72,72,72,,,,,,,,,,,,,,,,,,,,,,,,,,,,,,,,,,,,,,,,,,,,,,,,,,,,,,,,,,,,,,,,,,,,,,,,,,,,,,,1.52,442.25469550000025,None,space,1,443.8759943,None,443.8759943,None,443.8759943,None,0.25629849999995713,,,,,,,,,,,P040,FENCOG,1,Pre,2022_Apr_28_1041,Go No-Go Task,2021.1.4,120.15750245381335,
,"Rule: When you see a yellow image, do not press 'spacebar'.",Images/Happy/AF11HAS.jpg,Happy,Blue,Images/Blue.jpg,space,ParentConditions/YellowYellowBlue_v1.xlsx,YellowYellowBlue,Conditions/Version_1/YellowFearStop.xlsx,no,PASS,0.5437174345826498,,,,,,,,,0,0,0,1,0,0,0,0,0,73,73,73,,,,,,,,,,,,,,,,,,,,,,,,,,,,,,,,,,,,,,,,,,,,,,,,,,,,,,,,,,,,,,,,,,,,,,,,,,,,,,,1.89,444.2812248,None,space,1,446.2837284000002,None,446.2837284000002,None,446.2837284000002,None,0.28078869999990275,,,,,,,,,,,P040,FENCOG,1,Pre,2022_Apr_28_1041,Go No-Go Task,2021.1.4,120.15750245381335,
,"Rule: When you see a yellow image, do not press 'spacebar'.",Images/Happy/AM19HAS.jpg,Happy,Blue,Images/Blue.jpg,space,ParentConditions/YellowYellowBlue_v1.xlsx,YellowYellowBlue,Conditions/Version_1/YellowFearStop.xlsx,no,PASS,0.4048546584074827,,,,,,,,,0,0,0,1,0,0,0,0,0,74,74,74,,,,,,,,,,,,,,,,,,,,,,,,,,,,,,,,,,,,,,,,,,,,,,,,,,,,,,,,,,,,,,,,,,,,,,,,,,,,,,,1.21,446.6764711999999,None,space,1,447.9998596999999,None,447.9998596999999,None,447.9998596999999,None,0.2766310000001795,,,,,,,,,,,P040,FENCOG,1,Pre,2022_Apr_28_1041,Go No-Go Task,2021.1.4,120.15750245381335,
,"Rule: When you see a yellow image, do not press 'spacebar'.",Images/Happy/AM01HAS.jpg,Happy,Blue,Images/Blue.jpg,space,ParentConditions/YellowYellowBlue_v1.xlsx,YellowYellowBlue,Conditions/Version_1/YellowFearStop.xlsx,no,PASS,0.668098744931977,,,,,,,,,0,0,0,1,0,0,0,0,0,75,75,75,,,,,,,,,,,,,,,,,,,,,,,,,,,,,,,,,,,,,,,,,,,,,,,,,,,,,,,,,,,,,,,,,,,,,,,,,,,,,,,1.43,448.3986325000001,None,space,1,449.9325297999999,None,449.9325297999999,None,449.9325297999999,None,0.3440491999999722,,,,,,,,,,,P040,FENCOG,1,Pre,2022_Apr_28_1041,Go No-Go Task,2021.1.4,120.15750245381335,
,"Rule: When you see a yellow image, do not press 'spacebar'.",Images/Happy/WF05_HC.jpg,Happy,Blue,Images/Blue.jpg,space,ParentConditions/YellowYellowBlue_v1.xlsx,YellowYellowBlue,Conditions/Version_1/YellowFearStop.xlsx,no,PASS,0.3346503168901146,,,,,,,,,0,0,0,1,0,0,0,0,0,76,76,76,,,,,,,,,,,,,,,,,,,,,,,,,,,,,,,,,,,,,,,,,,,,,,,,,,,,,,,,,,,,,,,,,,,,,,,,,,,,,,,1.87,450.33427299999994,None,space,1,452.31516539999984,None,452.31516539999984,None,452.31516539999984,None,0.29782150000028196,,,,,,,,,,,P040,FENCOG,1,Pre,2022_Apr_28_1041,Go No-Go Task,2021.1.4,120.15750245381335,
,"Rule: When you see a yellow image, do not press 'spacebar'.",Images/Happy/BM03_HO.jpg,Happy,Blue,Images/Blue.jpg,space,ParentConditions/YellowYellowBlue_v1.xlsx,YellowYellowBlue,Conditions/Version_1/YellowFearStop.xlsx,no,PASS,0.8309182769230548,,,,,,,,,0,0,0,1,0,0,0,0,0,77,77,77,,,,,,,,,,,,,,,,,,,,,,,,,,,,,,,,,,,,,,,,,,,,,,,,,,,,,,,,,,,,,,,,,,,,,,,,,,,,,,,1.6,452.7161070000002,None,space,1,454.4229759,None,454.4229759,None,454.4229759,None,0.2933863999996902,,,,,,,,,,,P040,FENCOG,1,Pre,2022_Apr_28_1041,Go No-Go Task,2021.1.4,120.15750245381335,
,"Rule: When you see a yellow image, do not press 'spacebar'.",Images/Happy/AM02_HE.jpg,Happy,Blue,Images/Blue.jpg,space,ParentConditions/YellowYellowBlue_v1.xlsx,YellowYellowBlue,Conditions/Version_1/YellowFearStop.xlsx,no,PASS,0.732833616031058,,,,,,,,,0,0,0,1,0,0,0,0,0,78,78,78,,,,,,,,,,,,,,,,,,,,,,,,,,,,,,,,,,,,,,,,,,,,,,,,,,,,,,,,,,,,,,,,,,,,,,,,,,,,,,,1.96,454.82190149999997,None,space,1,456.8889002000001,None,456.8889002000001,None,456.8889002000001,None,0.2914854999999079,,,,,,,,,,,P040,FENCOG,1,Pre,2022_Apr_28_1041,Go No-Go Task,2021.1.4,120.15750245381335,
,"Rule: When you see a yellow image, do not press 'spacebar'.",Images/Fearful/AM06_FO.jpg,Fear,Yellow,Images/Yellow.jpg,None,ParentConditions/YellowYellowBlue_v1.xlsx,YellowYellowBlue,Conditions/Version_1/YellowFearStop.xlsx,yes,PASS,0.2239834878173258,,,,,,,,,0,0,0,1,0,0,0,0,0,79,79,79,,,,,,,,,,,,,,,,,,,,,,,,,,,,,,,,,,,,,,,,,,,,,,,,,,,,,,,,,,,,,,,,,,,,,,,,,,,,,,,1.84,457.2896205000002,None,space,0,459.2309457000001,None,459.2309457000001,None,459.2309457000001,None,0.245836899999631,,,,,,,,,,,P040,FENCOG,1,Pre,2022_Apr_28_1041,Go No-Go Task,2021.1.4,120.15750245381335,
,"Rule: When you see a yellow image, do not press 'spacebar'.",Images/Scram2/HM09_NC.jpg,Scramble,Blue,Images/Blue.jpg,space,ParentConditions/YellowYellowBlue_v1.xlsx,YellowYellowBlue,Conditions/Version_1/YellowScramStop.xlsx,no,PASS,0.16546209529303746,,,,,,,,,0,0,0,1,0,1,1,1,0,0,0,0,,,,,,,,,,,,,,,,,,,,,,,,,,,,,,,,,,,,,,,,,,,,,,,,,,,,,,,,,,,,,,,,,462.65412100000003,None,465.64401469999984,None,space,2.272303599999759,465.64401469999984,None,462.65412100000003,None,462.65412100000003,None,462.65412100000003,None,1.71,467.96943469999997,None,space,1,469.78502830000025,None,469.78502830000025,None,469.78502830000025,None,0.3313285000003816,459.6455138000001,None,space,2.507325800000217,460.12890210000023,None,459.6455138000001,None,459.6455138000001,None,P040,FENCOG,1,Pre,2022_Apr_28_1041,Go No-Go Task,2021.1.4,120.15750245381335,
,"Rule: When you see a yellow image, do not press 'spacebar'.",Images/Scram2/HM06_NC.jpg,Scramble,Blue,Images/Blue.jpg,space,ParentConditions/YellowYellowBlue_v1.xlsx,YellowYellowBlue,Conditions/Version_1/YellowScramStop.xlsx,no,PASS,0.8979675286244925,,,,,,,,,0,0,0,1,0,1,1,1,0,1,1,1,,,,,,,,,,,,,,,,,,,,,,,,,,,,,,,,,,,,,,,,,,,,,,,,,,,,,,,,,,,,,,,,,,,,,,,,,,,,,,,1.25,470.18572489999997,None,space,1,471.54284289999987,None,471.54284289999987,None,471.54284289999987,None,0.30175409999992553,,,,,,,,,,,P040,FENCOG,1,Pre,2022_Apr_28_1041,Go No-Go Task,2021.1.4,120.15750245381335,
,"Rule: When you see a yellow image, do not press 'spacebar'.",Images/Scram1/AM31NES.jpg,Scramble,Blue,Images/Blue.jpg,space,ParentConditions/YellowYellowBlue_v1.xlsx,YellowYellowBlue,Conditions/Version_1/YellowScramStop.xlsx,no,PASS,0.9231879679928262,,,,,,,,,0,0,0,1,0,1,1,1,0,2,2,2,,,,,,,,,,,,,,,,,,,,,,,,,,,,,,,,,,,,,,,,,,,,,,,,,,,,,,,,,,,,,,,,,,,,,,,,,,,,,,,1.68,471.9418347999999,None,space,1,473.7256053000001,None,473.7256053000001,None,473.7256053000001,None,0.24672149999969406,,,,,,,,,,,P040,FENCOG,1,Pre,2022_Apr_28_1041,Go No-Go Task,2021.1.4,120.15750245381335,
,"Rule: When you see a yellow image, do not press 'spacebar'.",Images/Scram2/AM03NES.jpg,Scramble,Yellow,Images/Yellow.jpg,None,ParentConditions/YellowYellowBlue_v1.xlsx,YellowYellowBlue,Conditions/Version_1/YellowScramStop.xlsx,yes,PASS,0.5123844621609239,,,,,,,,,0,0,0,1,0,1,1,1,0,3,3,3,,,,,,,,,,,,,,,,,,,,,,,,,,,,,,,,,,,,,,,,,,,,,,,,,,,,,,,,,,,,,,,,,,,,,,,,,,,,,,,1.96,474.12669719999985,None,None,1,476.1831026,None,476.1831026,None,476.1831026,None,,,,,,,,,,,,P040,FENCOG,1,Pre,2022_Apr_28_1041,Go No-Go Task,2021.1.4,120.15750245381335,
,"Rule: When you see a yellow image, do not press 'spacebar'.",Images/Scram2/BM01_NC.jpg,Scramble,Blue,Images/Blue.jpg,space,ParentConditions/YellowYellowBlue_v1.xlsx,YellowYellowBlue,Conditions/Version_1/YellowScramStop.xlsx,no,PASS,0.9647622626448304,,,,,,,,,0,0,0,1,0,1,1,1,0,4,4,4,,,,,,,,,,,,,,,,,,,,,,,,,,,,,,,,,,,,,,,,,,,,,,,,,,,,,,,,,,,,,,,,,,,,,,,,,,,,,,,1.6,476.5836684000001,None,space,1,478.29076540000005,None,478.29076540000005,None,478.29076540000005,None,0.35355289999961315,,,,,,,,,,,P040,FENCOG,1,Pre,2022_Apr_28_1041,Go No-Go Task,2021.1.4,120.15750245381335,
,"Rule: When you see a yellow image, do not press 'spacebar'.",Images/Scram1/HM09_NC.jpg,Scramble,Blue,Images/Blue.jpg,space,ParentConditions/YellowYellowBlue_v1.xlsx,YellowYellowBlue,Conditions/Version_1/YellowScramStop.xlsx,no,PASS,0.0006879251870249847,,,,,,,,,0,0,0,1,0,1,1,1,0,5,5,5,,,,,,,,,,,,,,,,,,,,,,,,,,,,,,,,,,,,,,,,,,,,,,,,,,,,,,,,,,,,,,,,,,,,,,,,,,,,,,,1.58,478.691644,None,space,1,480.3901725999999,None,480.3901725999999,None,480.3901725999999,None,0.23824710000008054,,,,,,,,,,,P040,FENCOG,1,Pre,2022_Apr_28_1041,Go No-Go Task,2021.1.4,120.15750245381335,
,"Rule: When you see a yellow image, do not press 'spacebar'.",Images/Scram2/BF07_NC.jpg,Scramble,Blue,Images/Blue.jpg,space,ParentConditions/YellowYellowBlue_v1.xlsx,YellowYellowBlue,Conditions/Version_1/YellowScramStop.xlsx,no,PASS,0.9958823679259557,,,,,,,,,0,0,0,1,0,1,1,1,0,6,6,6,,,,,,,,,,,,,,,,,,,,,,,,,,,,,,,,,,,,,,,,,,,,,,,,,,,,,,,,,,,,,,,,,,,,,,,,,,,,,,,1.88,480.7844048000002,None,space,1,482.76457470000014,None,482.76457470000014,None,482.76457470000014,None,0.2801177999999709,,,,,,,,,,,P040,FENCOG,1,Pre,2022_Apr_28_1041,Go No-Go Task,2021.1.4,120.15750245381335,
,"Rule: When you see a yellow image, do not press 'spacebar'.",Images/Scram1/BF14_NC.jpg,Scramble,Blue,Images/Blue.jpg,space,ParentConditions/YellowYellowBlue_v1.xlsx,YellowYellowBlue,Conditions/Version_1/YellowScramStop.xlsx,no,PASS,0.23975965807979494,,,,,,,,,0,0,0,1,0,1,1,1,0,7,7,7,,,,,,,,,,,,,,,,,,,,,,,,,,,,,,,,,,,,,,,,,,,,,,,,,,,,,,,,,,,,,,,,,,,,,,,,,,,,,,,1.43,483.1690610999999,None,space,1,484.70555650000006,None,484.70555650000006,None,484.70555650000006,None,0.3071273000000474,,,,,,,,,,,P040,FENCOG,1,Pre,2022_Apr_28_1041,Go No-Go Task,2021.1.4,120.15750245381335,
,"Rule: When you see a yellow image, do not press 'spacebar'.",Images/Scram2/AF10_NC.jpg,Scramble,Blue,Images/Blue.jpg,space,ParentConditions/YellowYellowBlue_v1.xlsx,YellowYellowBlue,Conditions/Version_1/YellowScramStop.xlsx,no,PASS,0.23192838167496266,,,,,,,,,0,0,0,1,0,1,1,1,0,8,8,8,,,,,,,,,,,,,,,,,,,,,,,,,,,,,,,,,,,,,,,,,,,,,,,,,,,,,,,,,,,,,,,,,,,,,,,,,,,,,,,1.66,485.1125849,None,space,1,486.8800526,None,486.8800526,None,486.8800526,None,0.25267669999993814,,,,,,,,,,,P040,FENCOG,1,Pre,2022_Apr_28_1041,Go No-Go Task,2021.1.4,120.15750245381335,
,"Rule: When you see a yellow image, do not press 'spacebar'.",Images/Scram2/AF01_NC.jpg,Scramble,Blue,Images/Blue.jpg,space,ParentConditions/YellowYellowBlue_v1.xlsx,YellowYellowBlue,Conditions/Version_1/YellowScramStop.xlsx,no,PASS,0.030564678936407685,,,,,,,,,0,0,0,1,0,1,1,1,0,9,9,9,,,,,,,,,,,,,,,,,,,,,,,,,,,,,,,,,,,,,,,,,,,,,,,,,,,,,,,,,,,,,,,,,,,,,,,,,,,,,,,1.36,487.2887946000001,None,space,1,488.7543249999999,None,488.7543249999999,None,488.7543249999999,None,0.22631000000001222,,,,,,,,,,,P040,FENCOG,1,Pre,2022_Apr_28_1041,Go No-Go Task,2021.1.4,120.15750245381335,
,"Rule: When you see a yellow image, do not press 'spacebar'.",Images/Scram2/AF24NES.jpg,Scramble,Blue,Images/Blue.jpg,space,ParentConditions/YellowYellowBlue_v1.xlsx,YellowYellowBlue,Conditions/Version_1/YellowScramStop.xlsx,no,PASS,0.3257124610951796,,,,,,,,,0,0,0,1,0,1,1,1,0,10,10,10,,,,,,,,,,,,,,,,,,,,,,,,,,,,,,,,,,,,,,,,,,,,,,,,,,,,,,,,,,,,,,,,,,,,,,,,,,,,,,,1.35,489.15405009999995,None,space,1,490.60380620000024,None,490.60380620000024,None,490.60380620000024,None,0.368674700000156,,,,,,,,,,,P040,FENCOG,1,Pre,2022_Apr_28_1041,Go No-Go Task,2021.1.4,120.15750245381335,
,"Rule: When you see a yellow image, do not press 'spacebar'.",Images/Scram2/BF14_NC.jpg,Scramble,Blue,Images/Blue.jpg,space,ParentConditions/YellowYellowBlue_v1.xlsx,YellowYellowBlue,Conditions/Version_1/YellowScramStop.xlsx,no,PASS,0.7452625323265352,,,,,,,,,0,0,0,1,0,1,1,1,0,11,11,11,,,,,,,,,,,,,,,,,,,,,,,,,,,,,,,,,,,,,,,,,,,,,,,,,,,,,,,,,,,,,,,,,,,,,,,,,,,,,,,1.98,491.0075697000002,None,space,1,493.09476369999993,None,493.09476369999993,None,493.09476369999993,None,0.2936319000000367,,,,,,,,,,,P040,FENCOG,1,Pre,2022_Apr_28_1041,Go No-Go Task,2021.1.4,120.15750245381335,
,"Rule: When you see a yellow image, do not press 'spacebar'.",Images/Scram1/AM13NES.jpg,Scramble,Blue,Images/Blue.jpg,space,ParentConditions/YellowYellowBlue_v1.xlsx,YellowYellowBlue,Conditions/Version_1/YellowScramStop.xlsx,no,PASS,0.49399354825257,,,,,,,,,0,0,0,1,0,1,1,1,0,12,12,12,,,,,,,,,,,,,,,,,,,,,,,,,,,,,,,,,,,,,,,,,,,,,,,,,,,,,,,,,,,,,,,,,,,,,,,,,,,,,,,1.22,493.49674760000016,None,space,1,494.8192300999999,None,494.8192300999999,None,494.8192300999999,None,0.26508590000003096,,,,,,,,,,,P040,FENCOG,1,Pre,2022_Apr_28_1041,Go No-Go Task,2021.1.4,120.15750245381335,
,"Rule: When you see a yellow image, do not press 'spacebar'.",Images/Scram1/HM04_NC.jpg,Scramble,Blue,Images/Blue.jpg,space,ParentConditions/YellowYellowBlue_v1.xlsx,YellowYellowBlue,Conditions/Version_1/YellowScramStop.xlsx,no,PASS,0.18467466618813977,,,,,,,,,0,0,0,1,0,1,1,1,0,13,13,13,,,,,,,,,,,,,,,,,,,,,,,,,,,,,,,,,,,,,,,,,,,,,,,,,,,,,,,,,,,,,,,,,,,,,,,,,,,,,,,1.55,495.2277199,None,space,1,496.88527090000025,None,496.88527090000025,None,496.88527090000025,None,0.21500439999999799,,,,,,,,,,,P040,FENCOG,1,Pre,2022_Apr_28_1041,Go No-Go Task,2021.1.4,120.15750245381335,
,"Rule: When you see a yellow image, do not press 'spacebar'.",Images/Scram1/AM03NES.jpg,Scramble,Blue,Images/Blue.jpg,space,ParentConditions/YellowYellowBlue_v1.xlsx,YellowYellowBlue,Conditions/Version_1/YellowScramStop.xlsx,no,PASS,0.036392655954534225,,,,,,,,,0,0,0,1,0,1,1,1,0,14,14,14,,,,,,,,,,,,,,,,,,,,,,,,,,,,,,,,,,,,,,,,,,,,,,,,,,,,,,,,,,,,,,,,,,,,,,,,,,,,,,,1.24,497.2853527000002,None,space,1,498.6264408000002,None,498.6264408000002,None,498.6264408000002,None,0.23381560000007084,,,,,,,,,,,P040,FENCOG,1,Pre,2022_Apr_28_1041,Go No-Go Task,2021.1.4,120.15750245381335,
,"Rule: When you see a yellow image, do not press 'spacebar'.",Images/Scram1/AM22NES.jpg,Scramble,Blue,Images/Blue.jpg,space,ParentConditions/YellowYellowBlue_v1.xlsx,YellowYellowBlue,Conditions/Version_1/YellowScramStop.xlsx,no,PASS,0.46426586463932284,,,,,,,,,0,0,0,1,0,1,1,1,0,15,15,15,,,,,,,,,,,,,,,,,,,,,,,,,,,,,,,,,,,,,,,,,,,,,,,,,,,,,,,,,,,,,,,,,,,,,,,,,,,,,,,1.72,499.0282694000002,None,space,1,500.85077820000015,None,500.85077820000015,None,500.85077820000015,None,0.22574009999971167,,,,,,,,,,,P040,FENCOG,1,Pre,2022_Apr_28_1041,Go No-Go Task,2021.1.4,120.15750245381335,
,"Rule: When you see a yellow image, do not press 'spacebar'.",Images/Scram2/AM17NES.jpg,Scramble,Yellow,Images/Yellow.jpg,None,ParentConditions/YellowYellowBlue_v1.xlsx,YellowYellowBlue,Conditions/Version_1/YellowScramStop.xlsx,yes,PASS,0.9679079792094736,,,,,,,,,0,0,0,1,0,1,1,1,0,16,16,16,,,,,,,,,,,,,,,,,,,,,,,,,,,,,,,,,,,,,,,,,,,,,,,,,,,,,,,,,,,,,,,,,,,,,,,,,,,,,,,1.37,501.25605429999996,None,None,1,502.7335664000002,None,502.7335664000002,None,502.7335664000002,None,,,,,,,,,,,,P040,FENCOG,1,Pre,2022_Apr_28_1041,Go No-Go Task,2021.1.4,120.15750245381335,
,"Rule: When you see a yellow image, do not press 'spacebar'.",Images/Scram1/AM10NES.jpg,Scramble,Blue,Images/Blue.jpg,space,ParentConditions/YellowYellowBlue_v1.xlsx,YellowYellowBlue,Conditions/Version_1/YellowScramStop.xlsx,no,PASS,0.60606204058038,,,,,,,,,0,0,0,1,0,1,1,1,0,17,17,17,,,,,,,,,,,,,,,,,,,,,,,,,,,,,,,,,,,,,,,,,,,,,,,,,,,,,,,,,,,,,,,,,,,,,,,,,,,,,,,1.91,503.13270550000016,None,space,1,505.1495060000002,None,505.1495060000002,None,505.1495060000002,None,0.19086160000006203,,,,,,,,,,,P040,FENCOG,1,Pre,2022_Apr_28_1041,Go No-Go Task,2021.1.4,120.15750245381335,
,"Rule: When you see a yellow image, do not press 'spacebar'.",Images/Scram2/AM03_NC.jpg,Scramble,Yellow,Images/Yellow.jpg,None,ParentConditions/YellowYellowBlue_v1.xlsx,YellowYellowBlue,Conditions/Version_1/YellowScramStop.xlsx,yes,PASS,0.375029210281841,,,,,,,,,0,0,0,1,0,1,1,1,0,18,18,18,,,,,,,,,,,,,,,,,,,,,,,,,,,,,,,,,,,,,,,,,,,,,,,,,,,,,,,,,,,,,,,,,,,,,,,,,,,,,,,1.41,505.55020330000025,None,space,0,507.06562369999983,None,507.06562369999983,None,507.06562369999983,None,0.24294599999984712,,,,,,,,,,,P040,FENCOG,1,Pre,2022_Apr_28_1041,Go No-Go Task,2021.1.4,120.15750245381335,
,"Rule: When you see a yellow image, do not press 'spacebar'.",Images/Scram1/HF09_NC.jpg,Scramble,Blue,Images/Blue.jpg,space,ParentConditions/YellowYellowBlue_v1.xlsx,YellowYellowBlue,Conditions/Version_1/YellowScramStop.xlsx,no,PASS,0.5505947352432977,,,,,,,,,0,0,0,1,0,1,1,1,0,19,19,19,,,,,,,,,,,,,,,,,,,,,,,,,,,,,,,,,,,,,,,,,,,,,,,,,,,,,,,,,,,,,,,,,,,,,,,,,,,,,,,1.5,507.4662893999998,None,space,1,509.0733488000001,None,509.0733488000001,None,509.0733488000001,None,0.25890350000008766,,,,,,,,,,,P040,FENCOG,1,Pre,2022_Apr_28_1041,Go No-Go Task,2021.1.4,120.15750245381335,
,"Rule: When you see a yellow image, do not press 'spacebar'.",Images/Scram1/BM08_NC.jpg,Scramble,Blue,Images/Blue.jpg,space,ParentConditions/YellowYellowBlue_v1.xlsx,YellowYellowBlue,Conditions/Version_1/YellowScramStop.xlsx,no,PASS,0.1123919377407171,,,,,,,,,0,0,0,1,0,1,1,1,0,20,20,20,,,,,,,,,,,,,,,,,,,,,,,,,,,,,,,,,,,,,,,,,,,,,,,,,,,,,,,,,,,,,,,,,,,,,,,,,,,,,,,1.76,509.4736237000002,None,space,1,511.3394247000001,None,511.3394247000001,None,511.3394247000001,None,0.23321480000004158,,,,,,,,,,,P040,FENCOG,1,Pre,2022_Apr_28_1041,Go No-Go Task,2021.1.4,120.15750245381335,
,"Rule: When you see a yellow image, do not press 'spacebar'.",Images/Scram1/AF32NES.jpg,Scramble,Blue,Images/Blue.jpg,space,ParentConditions/YellowYellowBlue_v1.xlsx,YellowYellowBlue,Conditions/Version_1/YellowScramStop.xlsx,no,PASS,0.6647641829322217,,,,,,,,,0,0,0,1,0,1,1,1,0,21,21,21,,,,,,,,,,,,,,,,,,,,,,,,,,,,,,,,,,,,,,,,,,,,,,,,,,,,,,,,,,,,,,,,,,,,,,,,,,,,,,,1.87,511.7414904000002,None,space,1,513.7303197000001,None,513.7303197000001,None,513.7303197000001,None,0.2901277000000846,,,,,,,,,,,P040,FENCOG,1,Pre,2022_Apr_28_1041,Go No-Go Task,2021.1.4,120.15750245381335,
,"Rule: When you see a yellow image, do not press 'spacebar'.",Images/Scram2/AM06_NC.jpg,Scramble,Yellow,Images/Yellow.jpg,None,ParentConditions/YellowYellowBlue_v1.xlsx,YellowYellowBlue,Conditions/Version_1/YellowScramStop.xlsx,yes,PASS,0.3634874867374246,,,,,,,,,0,0,0,1,0,1,1,1,0,22,22,22,,,,,,,,,,,,,,,,,,,,,,,,,,,,,,,,,,,,,,,,,,,,,,,,,,,,,,,,,,,,,,,,,,,,,,,,,,,,,,,1.64,514.1209662000001,None,None,1,515.8630996000002,None,515.8630996000002,None,515.8630996000002,None,,,,,,,,,,,,P040,FENCOG,1,Pre,2022_Apr_28_1041,Go No-Go Task,2021.1.4,120.15750245381335,
,"Rule: When you see a yellow image, do not press 'spacebar'.",Images/Scram1/AM06_NC.jpg,Scramble,Blue,Images/Blue.jpg,space,ParentConditions/YellowYellowBlue_v1.xlsx,YellowYellowBlue,Conditions/Version_1/YellowScramStop.xlsx,no,PASS,0.9155941996303448,,,,,,,,,0,0,0,1,0,1,1,1,0,23,23,23,,,,,,,,,,,,,,,,,,,,,,,,,,,,,,,,,,,,,,,,,,,,,,,,,,,,,,,,,,,,,,,,,,,,,,,,,,,,,,,1.99,516.2705676,None,space,1,518.3622418999998,None,518.3622418999998,None,518.3622418999998,None,0.2502113999998983,,,,,,,,,,,P040,FENCOG,1,Pre,2022_Apr_28_1041,Go No-Go Task,2021.1.4,120.15750245381335,
,"Rule: When you see a yellow image, do not press 'spacebar'.",Images/Scram2/AM02_NC.jpg,Scramble,Yellow,Images/Yellow.jpg,None,ParentConditions/YellowYellowBlue_v1.xlsx,YellowYellowBlue,Conditions/Version_1/YellowScramStop.xlsx,yes,PASS,0.40349662212467063,,,,,,,,,0,0,0,1,0,1,1,1,0,24,24,24,,,,,,,,,,,,,,,,,,,,,,,,,,,,,,,,,,,,,,,,,,,,,,,,,,,,,,,,,,,,,,,,,,,,,,,,,,,,,,,1.86,518.7692875000002,None,space,0,520.7448734,None,520.7448734,None,520.7448734,None,0.21947419999969497,,,,,,,,,,,P040,FENCOG,1,Pre,2022_Apr_28_1041,Go No-Go Task,2021.1.4,120.15750245381335,
,"Rule: When you see a yellow image, do not press 'spacebar'.",Images/Scram2/HF05_NC.jpg,Scramble,Blue,Images/Blue.jpg,space,ParentConditions/YellowYellowBlue_v1.xlsx,YellowYellowBlue,Conditions/Version_1/YellowScramStop.xlsx,no,PASS,0.921711635827277,,,,,,,,,0,0,0,1,0,1,1,1,0,25,25,25,,,,,,,,,,,,,,,,,,,,,,,,,,,,,,,,,,,,,,,,,,,,,,,,,,,,,,,,,,,,,,,,,,,,,,,,,,,,,,,1.53,521.1371921,None,space,1,522.769225,None,522.769225,None,522.769225,None,0.37116139999989173,,,,,,,,,,,P040,FENCOG,1,Pre,2022_Apr_28_1041,Go No-Go Task,2021.1.4,120.15750245381335,
,"Rule: When you see a yellow image, do not press 'spacebar'.",Images/Scram2/AF32NES.jpg,Scramble,Yellow,Images/Yellow.jpg,None,ParentConditions/YellowYellowBlue_v1.xlsx,YellowYellowBlue,Conditions/Version_1/YellowScramStop.xlsx,yes,PASS,0.017466824187156504,,,,,,,,,0,0,0,1,0,1,1,1,0,26,26,26,,,,,,,,,,,,,,,,,,,,,,,,,,,,,,,,,,,,,,,,,,,,,,,,,,,,,,,,,,,,,,,,,,,,,,,,,,,,,,,1.26,523.1743897000001,None,None,1,524.5354275,None,524.5354275,None,524.5354275,None,,,,,,,,,,,,P040,FENCOG,1,Pre,2022_Apr_28_1041,Go No-Go Task,2021.1.4,120.15750245381335,
,"Rule: When you see a yellow image, do not press 'spacebar'.",Images/Scram2/HM04_NC.jpg,Scramble,Blue,Images/Blue.jpg,space,ParentConditions/YellowYellowBlue_v1.xlsx,YellowYellowBlue,Conditions/Version_1/YellowScramStop.xlsx,no,PASS,0.5736341227927889,,,,,,,,,0,0,0,1,0,1,1,1,0,27,27,27,,,,,,,,,,,,,,,,,,,,,,,,,,,,,,,,,,,,,,,,,,,,,,,,,,,,,,,,,,,,,,,,,,,,,,,,,,,,,,,1.4,524.9398519000001,None,space,1,526.4515086000001,None,526.4515086000001,None,526.4515086000001,None,0.22471989999985453,,,,,,,,,,,P040,FENCOG,1,Pre,2022_Apr_28_1041,Go No-Go Task,2021.1.4,120.15750245381335,
,"Rule: When you see a yellow image, do not press 'spacebar'.",Images/Scram2/AF25NES.jpg,Scramble,Blue,Images/Blue.jpg,space,ParentConditions/YellowYellowBlue_v1.xlsx,YellowYellowBlue,Conditions/Version_1/YellowScramStop.xlsx,no,PASS,0.4815009065668029,,,,,,,,,0,0,0,1,0,1,1,1,0,28,28,28,,,,,,,,,,,,,,,,,,,,,,,,,,,,,,,,,,,,,,,,,,,,,,,,,,,,,,,,,,,,,,,,,,,,,,,,,,,,,,,1.63,526.8538509,None,space,1,528.5842003000002,None,528.5842003000002,None,528.5842003000002,None,0.23619950000011158,,,,,,,,,,,P040,FENCOG,1,Pre,2022_Apr_28_1041,Go No-Go Task,2021.1.4,120.15750245381335,
,"Rule: When you see a yellow image, do not press 'spacebar'.",Images/Scram1/AF34NES.jpg,Scramble,Blue,Images/Blue.jpg,space,ParentConditions/YellowYellowBlue_v1.xlsx,YellowYellowBlue,Conditions/Version_1/YellowScramStop.xlsx,no,PASS,0.16322109337010782,,,,,,,,,0,0,0,1,0,1,1,1,0,29,29,29,,,,,,,,,,,,,,,,,,,,,,,,,,,,,,,,,,,,,,,,,,,,,,,,,,,,,,,,,,,,,,,,,,,,,,,,,,,,,,,1.89,528.9847273999999,None,space,1,530.9752133000002,None,530.9752133000002,None,530.9752133000002,None,0.2212773000001107,,,,,,,,,,,P040,FENCOG,1,Pre,2022_Apr_28_1041,Go No-Go Task,2021.1.4,120.15750245381335,
,"Rule: When you see a yellow image, do not press 'spacebar'.",Images/Scram2/AF11NES.jpg,Scramble,Blue,Images/Blue.jpg,space,ParentConditions/YellowYellowBlue_v1.xlsx,YellowYellowBlue,Conditions/Version_1/YellowScramStop.xlsx,no,PASS,0.863906943339551,,,,,,,,,0,0,0,1,0,1,1,1,0,30,30,30,,,,,,,,,,,,,,,,,,,,,,,,,,,,,,,,,,,,,,,,,,,,,,,,,,,,,,,,,,,,,,,,,,,,,,,,,,,,,,,1.48,531.3819492000002,None,space,1,532.9662661000002,None,532.9662661000002,None,532.9662661000002,None,0.24583039999970424,,,,,,,,,,,P040,FENCOG,1,Pre,2022_Apr_28_1041,Go No-Go Task,2021.1.4,120.15750245381335,
,"Rule: When you see a yellow image, do not press 'spacebar'.",Images/Scram2/AF34NES.jpg,Scramble,Yellow,Images/Yellow.jpg,None,ParentConditions/YellowYellowBlue_v1.xlsx,YellowYellowBlue,Conditions/Version_1/YellowScramStop.xlsx,yes,PASS,0.06159009202316168,,,,,,,,,0,0,0,1,0,1,1,1,0,31,31,31,,,,,,,,,,,,,,,,,,,,,,,,,,,,,,,,,,,,,,,,,,,,,,,,,,,,,,,,,,,,,,,,,,,,,,,,,,,,,,,1.77,533.3713068000002,None,None,1,535.2489678000002,None,535.2489678000002,None,535.2489678000002,None,,,,,,,,,,,,P040,FENCOG,1,Pre,2022_Apr_28_1041,Go No-Go Task,2021.1.4,120.15750245381335,
,"Rule: When you see a yellow image, do not press 'spacebar'.",Images/Scram1/AM02_NC.jpg,Scramble,Blue,Images/Blue.jpg,space,ParentConditions/YellowYellowBlue_v1.xlsx,YellowYellowBlue,Conditions/Version_1/YellowScramStop.xlsx,no,PASS,0.7758508003758968,,,,,,,,,0,0,0,1,0,1,1,1,0,32,32,32,,,,,,,,,,,,,,,,,,,,,,,,,,,,,,,,,,,,,,,,,,,,,,,,,,,,,,,,,,,,,,,,,,,,,,,,,,,,,,,1.38,535.6535245999999,None,space,1,537.1400564999999,None,537.1400564999999,None,537.1400564999999,None,0.24818420000019614,,,,,,,,,,,P040,FENCOG,1,Pre,2022_Apr_28_1041,Go No-Go Task,2021.1.4,120.15750245381335,
,"Rule: When you see a yellow image, do not press 'spacebar'.",Images/Scram2/AM13NES.jpg,Scramble,Yellow,Images/Yellow.jpg,None,ParentConditions/YellowYellowBlue_v1.xlsx,YellowYellowBlue,Conditions/Version_1/YellowScramStop.xlsx,yes,PASS,0.6726515097084437,,,,,,,,,0,0,0,1,0,1,1,1,0,33,33,33,,,,,,,,,,,,,,,,,,,,,,,,,,,,,,,,,,,,,,,,,,,,,,,,,,,,,,,,,,,,,,,,,,,,,,,,,,,,,,,1.29,537.5490924000001,None,None,1,538.9311607,None,538.9311607,None,538.9311607,None,,,,,,,,,,,,P040,FENCOG,1,Pre,2022_Apr_28_1041,Go No-Go Task,2021.1.4,120.15750245381335,
,"Rule: When you see a yellow image, do not press 'spacebar'.",Images/Scram1/AM03_NC.jpg,Scramble,Blue,Images/Blue.jpg,space,ParentConditions/YellowYellowBlue_v1.xlsx,YellowYellowBlue,Conditions/Version_1/YellowScramStop.xlsx,no,PASS,0.060310837369876635,,,,,,,,,0,0,0,1,0,1,1,1,0,34,34,34,,,,,,,,,,,,,,,,,,,,,,,,,,,,,,,,,,,,,,,,,,,,,,,,,,,,,,,,,,,,,,,,,,,,,,,,,,,,,,,2,539.3354004000003,None,space,1,541.4388279,None,541.4388279,None,541.4388279,None,0.23759049999989656,,,,,,,,,,,P040,FENCOG,1,Pre,2022_Apr_28_1041,Go No-Go Task,2021.1.4,120.15750245381335,
,"Rule: When you see a yellow image, do not press 'spacebar'.",Images/Scram1/AF33NES.jpg,Scramble,Blue,Images/Blue.jpg,space,ParentConditions/YellowYellowBlue_v1.xlsx,YellowYellowBlue,Conditions/Version_1/YellowScramStop.xlsx,no,PASS,0.9883395332949252,,,,,,,,,0,0,0,1,0,1,1,1,0,35,35,35,,,,,,,,,,,,,,,,,,,,,,,,,,,,,,,,,,,,,,,,,,,,,,,,,,,,,,,,,,,,,,,,,,,,,,,,,,,,,,,1.7,541.8406521000002,None,space,1,543.6548088,None,543.6548088,None,543.6548088,None,0.2935652000001028,,,,,,,,,,,P040,FENCOG,1,Pre,2022_Apr_28_1041,Go No-Go Task,2021.1.4,120.15750245381335,
,"Rule: When you see a yellow image, do not press 'spacebar'.",Images/Scram1/BF10_NC.jpg,Scramble,Blue,Images/Blue.jpg,space,ParentConditions/YellowYellowBlue_v1.xlsx,YellowYellowBlue,Conditions/Version_1/YellowScramStop.xlsx,no,PASS,0.832283926857634,,,,,,,,,0,0,0,1,0,1,1,1,0,36,36,36,,,,,,,,,,,,,,,,,,,,,,,,,,,,,,,,,,,,,,,,,,,,,,,,,,,,,,,,,,,,,,,,,,,,,,,,,,,,,,,1.51,544.04853,None,space,1,545.6623893000001,None,545.6623893000001,None,545.6623893000001,None,0.2544058000003133,,,,,,,,,,,P040,FENCOG,1,Pre,2022_Apr_28_1041,Go No-Go Task,2021.1.4,120.15750245381335,
,"Rule: When you see a yellow image, do not press 'spacebar'.",Images/Scram1/AF07_NC.jpg,Scramble,Blue,Images/Blue.jpg,space,ParentConditions/YellowYellowBlue_v1.xlsx,YellowYellowBlue,Conditions/Version_1/YellowScramStop.xlsx,no,PASS,0.9763895949527831,,,,,,,,,0,0,0,1,0,1,1,1,0,37,37,37,,,,,,,,,,,,,,,,,,,,,,,,,,,,,,,,,,,,,,,,,,,,,,,,,,,,,,,,,,,,,,,,,,,,,,,,,,,,,,,1.21,546.0628701999999,None,space,1,547.3870891000001,None,547.3870891000001,None,547.3870891000001,None,0.22498880000011923,,,,,,,,,,,P040,FENCOG,1,Pre,2022_Apr_28_1041,Go No-Go Task,2021.1.4,120.15750245381335,
,"Rule: When you see a yellow image, do not press 'spacebar'.",Images/Scram2/AM23NES.jpg,Scramble,Yellow,Images/Yellow.jpg,None,ParentConditions/YellowYellowBlue_v1.xlsx,YellowYellowBlue,Conditions/Version_1/YellowScramStop.xlsx,yes,PASS,0.6002481140469051,,,,,,,,,0,0,0,1,0,1,1,1,0,38,38,38,,,,,,,,,,,,,,,,,,,,,,,,,,,,,,,,,,,,,,,,,,,,,,,,,,,,,,,,,,,,,,,,,,,,,,,,,,,,,,,1.46,547.7858304000001,None,None,1,549.3530693000002,None,549.3530693000002,None,549.3530693000002,None,,,,,,,,,,,,P040,FENCOG,1,Pre,2022_Apr_28_1041,Go No-Go Task,2021.1.4,120.15750245381335,
,"Rule: When you see a yellow image, do not press 'spacebar'.",Images/Scram1/AF24NES.jpg,Scramble,Blue,Images/Blue.jpg,space,ParentConditions/YellowYellowBlue_v1.xlsx,YellowYellowBlue,Conditions/Version_1/YellowScramStop.xlsx,no,PASS,0.1129494583795736,,,,,,,,,0,0,0,1,0,1,1,1,0,39,39,39,,,,,,,,,,,,,,,,,,,,,,,,,,,,,,,,,,,,,,,,,,,,,,,,,,,,,,,,,,,,,,,,,,,,,,,,,,,,,,,1.75,549.7576963000001,None,space,1,551.6107302999999,None,551.6107302999999,None,551.6107302999999,None,0.289486499999839,,,,,,,,,,,P040,FENCOG,1,Pre,2022_Apr_28_1041,Go No-Go Task,2021.1.4,120.15750245381335,
,"Rule: When you see a yellow image, do not press 'spacebar'.",Images/Scram2/AF33NES.jpg,Scramble,Yellow,Images/Yellow.jpg,None,ParentConditions/YellowYellowBlue_v1.xlsx,YellowYellowBlue,Conditions/Version_1/YellowScramStop.xlsx,yes,PASS,0.8037537420652296,,,,,,,,,0,0,0,1,0,1,1,1,0,40,40,40,,,,,,,,,,,,,,,,,,,,,,,,,,,,,,,,,,,,,,,,,,,,,,,,,,,,,,,,,,,,,,,,,,,,,,,,,,,,,,,1.79,552.0159472,None,None,1,553.9101624,None,553.9101624,None,553.9101624,None,,,,,,,,,,,,P040,FENCOG,1,Pre,2022_Apr_28_1041,Go No-Go Task,2021.1.4,120.15750245381335,
,"Rule: When you see a yellow image, do not press 'spacebar'.",Images/Scram1/AF25NES.jpg,Scramble,Blue,Images/Blue.jpg,space,ParentConditions/YellowYellowBlue_v1.xlsx,YellowYellowBlue,Conditions/Version_1/YellowScramStop.xlsx,no,PASS,0.14378736257712743,,,,,,,,,0,0,0,1,0,1,1,1,0,41,41,41,,,,,,,,,,,,,,,,,,,,,,,,,,,,,,,,,,,,,,,,,,,,,,,,,,,,,,,,,,,,,,,,,,,,,,,,,,,,,,,1.97,554.3093090000002,None,space,1,556.3843247999998,None,556.3843247999998,None,556.3843247999998,None,0.15584679999983564,,,,,,,,,,,P040,FENCOG,1,Pre,2022_Apr_28_1041,Go No-Go Task,2021.1.4,120.15750245381335,
,"Rule: When you see a yellow image, do not press 'spacebar'.",Images/Scram2/AM10NES.jpg,Scramble,Yellow,Images/Yellow.jpg,None,ParentConditions/YellowYellowBlue_v1.xlsx,YellowYellowBlue,Conditions/Version_1/YellowScramStop.xlsx,yes,PASS,0.5820319295028303,,,,,,,,,0,0,0,1,0,1,1,1,0,42,42,42,,,,,,,,,,,,,,,,,,,,,,,,,,,,,,,,,,,,,,,,,,,,,,,,,,,,,,,,,,,,,,,,,,,,,,,,,,,,,,,1.92,556.7862018000001,None,None,1,558.8086017999999,None,558.8086017999999,None,558.8086017999999,None,,,,,,,,,,,,P040,FENCOG,1,Pre,2022_Apr_28_1041,Go No-Go Task,2021.1.4,120.15750245381335,
,"Rule: When you see a yellow image, do not press 'spacebar'.",Images/Scram2/BF10_NC.jpg,Scramble,Blue,Images/Blue.jpg,space,ParentConditions/YellowYellowBlue_v1.xlsx,YellowYellowBlue,Conditions/Version_1/YellowScramStop.xlsx,no,PASS,0.2078164907866934,,,,,,,,,0,0,0,1,0,1,1,1,0,43,43,43,,,,,,,,,,,,,,,,,,,,,,,,,,,,,,,,,,,,,,,,,,,,,,,,,,,,,,,,,,,,,,,,,,,,,,,,,,,,,,,1.9,559.2141588,None,space,1,561.2162320000002,None,561.2162320000002,None,561.2162320000002,None,0.1642385000000104,,,,,,,,,,,P040,FENCOG,1,Pre,2022_Apr_28_1041,Go No-Go Task,2021.1.4,120.15750245381335,
,"Rule: When you see a yellow image, do not press 'spacebar'.",Images/Scram1/BF18_NC.jpg,Scramble,Blue,Images/Blue.jpg,space,ParentConditions/YellowYellowBlue_v1.xlsx,YellowYellowBlue,Conditions/Version_1/YellowScramStop.xlsx,no,PASS,0.3689261099445472,,,,,,,,,0,0,0,1,0,1,1,1,0,44,44,44,,,,,,,,,,,,,,,,,,,,,,,,,,,,,,,,,,,,,,,,,,,,,,,,,,,,,,,,,,,,,,,,,,,,,,,,,,,,,,,1.39,561.6155062000003,None,space,1,563.1073446999999,None,563.1073446999999,None,563.1073446999999,None,0.26511389999996027,,,,,,,,,,,P040,FENCOG,1,Pre,2022_Apr_28_1041,Go No-Go Task,2021.1.4,120.15750245381335,
,"Rule: When you see a yellow image, do not press 'spacebar'.",Images/Scram2/HF09_NC.jpg,Scramble,Blue,Images/Blue.jpg,space,ParentConditions/YellowYellowBlue_v1.xlsx,YellowYellowBlue,Conditions/Version_1/YellowScramStop.xlsx,no,PASS,0.286178806367275,,,,,,,,,0,0,0,1,0,1,1,1,0,45,45,45,,,,,,,,,,,,,,,,,,,,,,,,,,,,,,,,,,,,,,,,,,,,,,,,,,,,,,,,,,,,,,,,,,,,,,,,,,,,,,,1.45,563.5133218000001,None,space,1,565.0734492000001,None,565.0734492000001,None,565.0734492000001,None,0.28280820000009044,,,,,,,,,,,P040,FENCOG,1,Pre,2022_Apr_28_1041,Go No-Go Task,2021.1.4,120.15750245381335,
,"Rule: When you see a yellow image, do not press 'spacebar'.",Images/Scram1/BF05_NC.jpg,Scramble,Blue,Images/Blue.jpg,space,ParentConditions/YellowYellowBlue_v1.xlsx,YellowYellowBlue,Conditions/Version_1/YellowScramStop.xlsx,no,PASS,0.7692637816145413,,,,,,,,,0,0,0,1,0,1,1,1,0,46,46,46,,,,,,,,,,,,,,,,,,,,,,,,,,,,,,,,,,,,,,,,,,,,,,,,,,,,,,,,,,,,,,,,,,,,,,,,,,,,,,,1.3,565.4724356000002,None,space,1,566.8729205999998,None,566.8729205999998,None,566.8729205999998,None,0.24342120000028444,,,,,,,,,,,P040,FENCOG,1,Pre,2022_Apr_28_1041,Go No-Go Task,2021.1.4,120.15750245381335,
,"Rule: When you see a yellow image, do not press 'spacebar'.",Images/Scram1/AM17NES.jpg,Scramble,Blue,Images/Blue.jpg,space,ParentConditions/YellowYellowBlue_v1.xlsx,YellowYellowBlue,Conditions/Version_1/YellowScramStop.xlsx,no,PASS,0.7553300637440975,,,,,,,,,0,0,0,1,0,1,1,1,0,47,47,47,,,,,,,,,,,,,,,,,,,,,,,,,,,,,,,,,,,,,,,,,,,,,,,,,,,,,,,,,,,,,,,,,,,,,,,,,,,,,,,1.74,567.2724244999999,None,space,1,569.1138940000001,None,569.1138940000001,None,569.1138940000001,None,0.3221514999995634,,,,,,,,,,,P040,FENCOG,1,Pre,2022_Apr_28_1041,Go No-Go Task,2021.1.4,120.15750245381335,
,"Rule: When you see a yellow image, do not press 'spacebar'.",Images/Scram2/AM09_NC.jpg,Scramble,Yellow,Images/Yellow.jpg,None,ParentConditions/YellowYellowBlue_v1.xlsx,YellowYellowBlue,Conditions/Version_1/YellowScramStop.xlsx,yes,PASS,0.984865364539922,,,,,,,,,0,0,0,1,0,1,1,1,0,48,48,48,,,,,,,,,,,,,,,,,,,,,,,,,,,,,,,,,,,,,,,,,,,,,,,,,,,,,,,,,,,,,,,,,,,,,,,,,,,,,,,1.54,569.5141549999998,None,None,1,571.1633786000002,None,571.1633786000002,None,571.1633786000002,None,,,,,,,,,,,,P040,FENCOG,1,Pre,2022_Apr_28_1041,Go No-Go Task,2021.1.4,120.15750245381335,
,"Rule: When you see a yellow image, do not press 'spacebar'.",Images/Scram2/AF09NES.jpg,Scramble,Blue,Images/Blue.jpg,space,ParentConditions/YellowYellowBlue_v1.xlsx,YellowYellowBlue,Conditions/Version_1/YellowScramStop.xlsx,no,PASS,0.2099853615180053,,,,,,,,,0,0,0,1,0,1,1,1,0,49,49,49,,,,,,,,,,,,,,,,,,,,,,,,,,,,,,,,,,,,,,,,,,,,,,,,,,,,,,,,,,,,,,,,,,,,,,,,,,,,,,,1.8,571.5622042999998,None,space,1,573.4625944,None,573.4625944,None,573.4625944,None,0.2536301000000094,,,,,,,,,,,P040,FENCOG,1,Pre,2022_Apr_28_1041,Go No-Go Task,2021.1.4,120.15750245381335,
,"Rule: When you see a yellow image, do not press 'spacebar'.",Images/Scram2/AM04_NC.jpg,Scramble,Yellow,Images/Yellow.jpg,None,ParentConditions/YellowYellowBlue_v1.xlsx,YellowYellowBlue,Conditions/Version_1/YellowScramStop.xlsx,yes,PASS,0.8595632143536898,,,,,,,,,0,0,0,1,0,1,1,1,0,50,50,50,,,,,,,,,,,,,,,,,,,,,,,,,,,,,,,,,,,,,,,,,,,,,,,,,,,,,,,,,,,,,,,,,,,,,,,,,,,,,,,1.59,573.8615642999998,None,None,1,575.5536585999998,None,575.5536585999998,None,575.5536585999998,None,,,,,,,,,,,,P040,FENCOG,1,Pre,2022_Apr_28_1041,Go No-Go Task,2021.1.4,120.15750245381335,
,"Rule: When you see a yellow image, do not press 'spacebar'.",Images/Scram2/BF05_NC.jpg,Scramble,Yellow,Images/Yellow.jpg,None,ParentConditions/YellowYellowBlue_v1.xlsx,YellowYellowBlue,Conditions/Version_1/YellowScramStop.xlsx,yes,PASS,0.9038892448018151,,,,,,,,,0,0,0,1,0,1,1,1,0,51,51,51,,,,,,,,,,,,,,,,,,,,,,,,,,,,,,,,,,,,,,,,,,,,,,,,,,,,,,,,,,,,,,,,,,,,,,,,,,,,,,,1.73,575.9536939999998,None,space,0,577.7947536000001,None,577.7947536000001,None,577.7947536000001,None,0.22542429999975866,,,,,,,,,,,P040,FENCOG,1,Pre,2022_Apr_28_1041,Go No-Go Task,2021.1.4,120.15750245381335,
,"Rule: When you see a yellow image, do not press 'spacebar'.",Images/Scram1/HM06_NC.jpg,Scramble,Blue,Images/Blue.jpg,space,ParentConditions/YellowYellowBlue_v1.xlsx,YellowYellowBlue,Conditions/Version_1/YellowScramStop.xlsx,no,PASS,0.7183076447823791,,,,,,,,,0,0,0,1,0,1,1,1,0,52,52,52,,,,,,,,,,,,,,,,,,,,,,,,,,,,,,,,,,,,,,,,,,,,,,,,,,,,,,,,,,,,,,,,,,,,,,,,,,,,,,,1.93,578.1937173000001,None,space,1,580.2273211000002,None,580.2273211000002,None,580.2273211000002,None,0.25686380000024656,,,,,,,,,,,P040,FENCOG,1,Pre,2022_Apr_28_1041,Go No-Go Task,2021.1.4,120.15750245381335,
,"Rule: When you see a yellow image, do not press 'spacebar'.",Images/Scram2/AF07NES.jpg,Scramble,Blue,Images/Blue.jpg,space,ParentConditions/YellowYellowBlue_v1.xlsx,YellowYellowBlue,Conditions/Version_1/YellowScramStop.xlsx,no,PASS,0.8685827011476244,,,,,,,,,0,0,0,1,0,1,1,1,0,53,53,53,,,,,,,,,,,,,,,,,,,,,,,,,,,,,,,,,,,,,,,,,,,,,,,,,,,,,,,,,,,,,,,,,,,,,,,,,,,,,,,1.65,580.6325135000002,None,space,1,582.3933683,None,582.3933683,None,582.3933683,None,0.3627181000001656,,,,,,,,,,,P040,FENCOG,1,Pre,2022_Apr_28_1041,Go No-Go Task,2021.1.4,120.15750245381335,
,"Rule: When you see a yellow image, do not press 'spacebar'.",Images/Scram1/BM01_NC.jpg,Scramble,Blue,Images/Blue.jpg,space,ParentConditions/YellowYellowBlue_v1.xlsx,YellowYellowBlue,Conditions/Version_1/YellowScramStop.xlsx,no,PASS,0.7516161036696042,,,,,,,,,0,0,0,1,0,1,1,1,0,54,54,54,,,,,,,,,,,,,,,,,,,,,,,,,,,,,,,,,,,,,,,,,,,,,,,,,,,,,,,,,,,,,,,,,,,,,,,,,,,,,,,1.78,582.7935213000001,None,space,1,584.676058,None,584.676058,None,584.676058,None,0.3841385000000628,,,,,,,,,,,P040,FENCOG,1,Pre,2022_Apr_28_1041,Go No-Go Task,2021.1.4,120.15750245381335,
,"Rule: When you see a yellow image, do not press 'spacebar'.",Images/Scram2/AF07_NC.jpg,Scramble,Blue,Images/Blue.jpg,space,ParentConditions/YellowYellowBlue_v1.xlsx,YellowYellowBlue,Conditions/Version_1/YellowScramStop.xlsx,no,PASS,0.609812891298236,,,,,,,,,0,0,0,1,0,1,1,1,0,55,55,55,,,,,,,,,,,,,,,,,,,,,,,,,,,,,,,,,,,,,,,,,,,,,,,,,,,,,,,,,,,,,,,,,,,,,,,,,,,,,,,1.33,585.0767784999998,None,space,1,586.5087269999999,None,586.5087269999999,None,586.5087269999999,None,0.2395995000001676,,,,,,,,,,,P040,FENCOG,1,Pre,2022_Apr_28_1041,Go No-Go Task,2021.1.4,120.15750245381335,
