CondFileP,Instructions,FaceE,Express,ColourT,ColourF,CorrectAnsP,MasterCondFile,BlockOrder,CondFile,ColCheck,Triplicate_check,SORT_BY_SMALLEST,EPracticeOuterLoop.thisRepN,EPracticeOuterLoop.thisTrialN,EPracticeOuterLoop.thisN,EPracticeOuterLoop.thisIndex,EPracticeInnerLoop.thisRepN,EPracticeInnerLoop.thisTrialN,EPracticeInnerLoop.thisN,EPracticeInnerLoop.thisIndex,MasterLoop.thisRepN,MasterLoop.thisTrialN,MasterLoop.thisN,MasterLoop.thisIndex,OuterLoop.thisRepN,OuterLoop.thisTrialN,OuterLoop.thisN,OuterLoop.thisIndex,InnerLoop.thisRepN,InnerLoop.thisTrialN,InnerLoop.thisN,InnerLoop.thisIndex,text_13.started,text_13.stopped,key_resp_10.keys,key_resp_10.rt,key_resp_10.started,key_resp_10.stopped,text4.started,text4.stopped,EmotionTaskInstructions1.keys,EmotionTaskInstructions1.rt,EmotionTaskInstructions1.started,EmotionTaskInstructions1.stopped,text_4.started,text_4.stopped,key_resp_5.keys,key_resp_5.rt,key_resp_5.started,key_resp_5.stopped,Text_14.started,Text_14.stopped,key_resp_9.keys,key_resp_9.rt,key_resp_9.started,key_resp_9.stopped,text_5.started,text_5.stopped,text_6.started,text_6.stopped,key_resp_7.keys,key_resp_7.rt,key_resp_7.started,key_resp_7.stopped,text_10.started,text_10.stopped,text_11.started,text_11.stopped,text_12.started,text_12.stopped,ISIjitterPractice,EPracticeISIMarker.started,EPracticeISIMarker.stopped,Pract.keys,Pract.corr,Pract.started,Pract.stopped,PracticeFace.started,PracticeFace.stopped,ColourPractice.started,ColourPractice.stopped,text_7.started,text_7.stopped,Pract.rt,EndOfPractice.started,EndOfPractice.stopped,key_resp_8.keys,key_resp_8.rt,key_resp_8.started,key_resp_8.stopped,text_8.started,text_8.stopped,key_resp_6.keys,key_resp_6.rt,key_resp_6.started,key_resp_6.stopped,text_2.started,text_2.stopped,text_3.started,text_3.stopped,key_resp_3.keys,key_resp_3.rt,key_resp_3.started,key_resp_3.stopped,TaskBlock.started,TaskBlock.stopped,BlockNo1.started,BlockNo1.stopped,OfBlock.started,OfBlock.stopped,ISIjitter,ISImarker.started,ISImarker.stopped,key_resp.keys,key_resp.corr,key_resp.rt,key_resp.started,key_resp.stopped,FaceSet.started,FaceSet.stopped,Colour.started,Colour.stopped,EndBlockText.started,EndBlockText.stopped,key_resp_4.keys,key_resp_4.rt,key_resp_4.started,key_resp_4.stopped,BreakText2.started,BreakText2.stopped,PressToContinue.started,PressToContinue.stopped,participant,Study Name,Task Version (required to run),PRE/POST,date,expName,psychopyVersion,frameRate
,,,,,,,,,,,,,,,,,,,,,,,,,,,,,,,,,219.0546245,None,space,14.2304875,220.0473303,None,,,,,,,,,,,,,,,,,,,,,,,,,,,,,,,,,,,,,,,,,,,,,,,,,,,,,,,,,,,,,,,,,,,,,,,,,,,,,,,,,,,,,,,,,,,,,,,P041,FENCOG,2,Pre,2022_May_09_1051,Go No-Go Task,2021.1.4,120.2525785
,,,,,,,,,,,,,,,,,,,,,,,,,,,,,,,,,,,,,,,235.7988768,None,space,31.0069429,235.7988768,None,,,,,,,,,,,,,,,,,,,,,,,,,,,,,,,,,,,,,,,,,,,,,,,,,,,,,,,,,,,,,,,,,,,,,,,,,,,,,,,,,,,,,,,,,P041,FENCOG,2,Pre,2022_May_09_1051,Go No-Go Task,2021.1.4,120.2525785
,,,,,,,,,,,,,,,,,,,,,,,,,,,,,,,,,,,,,,,,,,,,,266.8713631,None,space,13.4385817,266.8713631,None,,,,,,,,,,,,,,,,,,,,,,,,,,,,,,,,,,,,,,,,,,,,,,,,,,,,,,,,,,,,,,,,,,,,,,,,,,,,,,,,,,,P041,FENCOG,2,Pre,2022_May_09_1051,Go No-Go Task,2021.1.4,120.2525785
,,,,,,,,,,,,,,,,,,,,,,,,,,,,,,,,,,,,,,,,,,,,,,,,,,,280.3218227,None,space,24.0200243,280.3218227,None,,,,,,,,,,,,,,,,,,,,,,,,,,,,,,,,,,,,,,,,,,,,,,,,,,,,,,,,,,,,,,,,,,,,,,,,,,,,,P041,FENCOG,2,Pre,2022_May_09_1051,Go No-Go Task,2021.1.4,120.2525785
EPracticeConditions/BlueEyes.csv,"Rule: When you see a blue image, do not press 'spacebar'.",Images/Fearful/AF01_FO.jpg,Fear,Blue,Images/Blue.jpg,None,,,,,,,0,0,0,0,0,0,0,1,,,,,,,,,,,,,,,,,,,,,,,,,,,,,,,,,,,,,304.4224697,None,307.4131237,None,space,6.6004788,307.4131237,None,304.4224697,None,304.4224697,None,304.4224697,None,1.9,314.1878538,None,None,1,316.2482366,None,316.2482366,None,316.2482366,None,317.6644105,None,,,,,,,,,,,,,,,,,,,,,,,,,,,,,,,,,,,,,,,,,,,,,,,,,,P041,FENCOG,2,Pre,2022_May_09_1051,Go No-Go Task,2021.1.4,120.2525785
EPracticeConditions/BlueEyes.csv,"Rule: When you see a blue image, do not press 'spacebar'.",Images/Happy/BM08_HO.jpg,Happy,Yellow,Images/Yellow.jpg,space,,,,,,,0,0,0,0,0,1,1,3,,,,,,,,,,,,,,,,,,,,,,,,,,,,,,,,,,,,,,,,,,,,,,,,,,,1.8,319.136013,None,None,0,321.0760449,None,321.0760449,None,321.0760449,None,321.966355,None,,,,,,,,,,,,,,,,,,,,,,,,,,,,,,,,,,,,,,,,,,,,,,,,,,P041,FENCOG,2,Pre,2022_May_09_1051,Go No-Go Task,2021.1.4,120.2525785
EPracticeConditions/BlueEyes.csv,"Rule: When you see a blue image, do not press 'spacebar'.",Images/Happy/HF04_HE.jpg,Happy,Yellow,Images/Yellow.jpg,space,,,,,,,0,0,0,0,0,2,2,4,,,,,,,,,,,,,,,,,,,,,,,,,,,,,,,,,,,,,,,,,,,,,,,,,,,1.3,323.952282,None,space,1,325.3666282,None,325.3666282,None,325.3666282,None,326.2682359,None,0.2953357,,,,,,,,,,,,,,,,,,,,,,,,,,,,,,,,,,,,,,,,,,,,,,,,,P041,FENCOG,2,Pre,2022_May_09_1051,Go No-Go Task,2021.1.4,120.2525785
EPracticeConditions/BlueEyes.csv,"Rule: When you see a blue image, do not press 'spacebar'.",Images/Happy/HF05_HO.jpg,Happy,Yellow,Images/Yellow.jpg,space,,,,,,,0,0,0,0,0,3,3,5,,,,,,,,,,,,,,,,,,,,,,,,,,,,,,,,,,,,,,,,,,,,,,,,,,,1.5,328.2651645,None,None,0,329.8655769,None,329.8655769,None,329.8655769,None,330.7789759,None,,,,,,,,,,,,,,,,,,,,,,,,,,,,,,,,,,,,,,,,,,,,,,,,,,P041,FENCOG,2,Pre,2022_May_09_1051,Go No-Go Task,2021.1.4,120.2525785
EPracticeConditions/BlueEyes.csv,"Rule: When you see a blue image, do not press 'spacebar'.",Images/Happy/BM02_HO.jpg,Happy,Yellow,Images/Yellow.jpg,space,,,,,,,0,0,0,0,0,4,4,2,,,,,,,,,,,,,,,,,,,,,,,,,,,,,,,,,,,,,,,,,,,,,,,,,,,1.4,332.7777775,None,space,1,334.2892864,None,334.2892864,None,334.2892864,None,335.1801229,None,0.2925221,,,,,,,,,,,,,,,,,,,,,,,,,,,,,,,,,,,,,,,,,,,,,,,,,P041,FENCOG,2,Pre,2022_May_09_1051,Go No-Go Task,2021.1.4,120.2525785
EPracticeConditions/BlueEyes.csv,"Rule: When you see a blue image, do not press 'spacebar'.",Images/Happy/HF10_HE.jpg,Happy,Yellow,Images/Yellow.jpg,space,,,,,,,0,0,0,0,0,5,5,7,,,,,,,,,,,,,,,,,,,,,,,,,,,,,,,,,,,,,,,,,,,,,,,,,,,1.2,337.1874781,None,space,1,338.4962699,None,338.4962699,None,338.4962699,None,339.392451,None,0.3174367,,,,,,,,,,,,,,,,,,,,,,,,,,,,,,,,,,,,,,,,,,,,,,,,,P041,FENCOG,2,Pre,2022_May_09_1051,Go No-Go Task,2021.1.4,120.2525785
EPracticeConditions/BlueEyes.csv,"Rule: When you see a blue image, do not press 'spacebar'.",Images/Fearful/HM09_FC.jpg,Fear,Blue,Images/Blue.jpg,None,,,,,,,0,0,0,0,0,6,6,0,,,,,,,,,,,,,,,,,,,,,,,,,,,,,,,,,,,,,,,,,,,,,,,,,,,1.7,341.3946196,None,space,0,343.2031982,None,343.2031982,None,343.2031982,None,344.1074252,None,0.3226006,,,,,,,,,,,,,,,,,,,,,,,,,,,,,,,,,,,,,,,,,,,,,,,,,P041,FENCOG,2,Pre,2022_May_09_1051,Go No-Go Task,2021.1.4,120.2525785
EPracticeConditions/BlueEyes.csv,"Rule: When you see a blue image, do not press 'spacebar'.",Images/Happy/HF09_HE.jpg,Happy,Yellow,Images/Yellow.jpg,space,,,,,,,0,0,0,0,0,7,7,6,,,,,,,,,,,,,,,,,,,,,,,,,,,,,,,,,,,,,,,,,,,,,,,,,,,1.6,346.1015376,None,None,0,347.8102605,None,347.8102605,None,347.8102605,None,348.7084933,None,,,,,,,,,,,,,,,,,,,,,,,,,,,,,,,,,,,,,,,,,,,,,,,,,,P041,FENCOG,2,Pre,2022_May_09_1051,Go No-Go Task,2021.1.4,120.2525785
EPracticeConditions/BlueEyes.csv,"Rule: When you see a blue image, do not press 'spacebar'.",,,,,,,,,,,,0,0,0,0,,,,,,,,,,,,,,,,,,,,,,,,,,,,,,,,,,,,,,,,,,,,,,,,,,,,,,,,,,,,,,,,,,,,,,,,,,,,,,,,,,,,,,,,,,,,,,,,,,,,,,,,,,,,,,,,,,,,,P041,FENCOG,2,Pre,2022_May_09_1051,Go No-Go Task,2021.1.4,120.2525785
EPracticeConditions/YellowEyes.csv,"Rule: When you see a yellow image, do not press 'spacebar'.",Images/Fearful/AM22AFS.jpg,Fear,Blue,Images/Blue.jpg,space,,,,,,,0,1,1,1,0,0,0,5,,,,,,,,,,,,,,,,,,,,,,,,,,,,,,,,,,,,,350.7268776,None,353.716322,None,space,9.62524,353.716322,None,350.7268776,None,350.7268776,None,350.7268776,None,1.4,363.363449,None,space,1,364.8719086,None,364.8719086,None,364.8719086,None,365.7771333,None,0.2376509,,,,,,,,,,,,,,,,,,,,,,,,,,,,,,,,,,,,,,,,,,,,,,,,,P041,FENCOG,2,Pre,2022_May_09_1051,Go No-Go Task,2021.1.4,120.2525785
EPracticeConditions/YellowEyes.csv,"Rule: When you see a yellow image, do not press 'spacebar'.",Images/Happy/AM32HAS.jpg,Happy,Yellow,Images/Yellow.jpg,None,,,,,,,0,1,1,1,0,1,1,0,,,,,,,,,,,,,,,,,,,,,,,,,,,,,,,,,,,,,,,,,,,,,,,,,,,1.5,367.7700636,None,None,1,369.3788259,None,369.3788259,None,369.3788259,None,370.2670089,None,,,,,,,,,,,,,,,,,,,,,,,,,,,,,,,,,,,,,,,,,,,,,,,,,,P041,FENCOG,2,Pre,2022_May_09_1051,Go No-Go Task,2021.1.4,120.2525785
EPracticeConditions/YellowEyes.csv,"Rule: When you see a yellow image, do not press 'spacebar'.",Images/Fearful/AM23AFS.jpg,Fear,Blue,Images/Blue.jpg,space,,,,,,,0,1,1,1,0,2,2,6,,,,,,,,,,,,,,,,,,,,,,,,,,,,,,,,,,,,,,,,,,,,,,,,,,,1.3,372.2760079,None,space,1,373.6855451,None,373.6855451,None,373.6855451,None,374.5829048,None,0.3120407,,,,,,,,,,,,,,,,,,,,,,,,,,,,,,,,,,,,,,,,,,,,,,,,,P041,FENCOG,2,Pre,2022_May_09_1051,Go No-Go Task,2021.1.4,120.2525785
EPracticeConditions/YellowEyes.csv,"Rule: When you see a yellow image, do not press 'spacebar'.",Images/Happy/BF05_HO.jpg,Happy,Yellow,Images/Yellow.jpg,None,,,,,,,0,1,1,1,0,3,3,1,,,,,,,,,,,,,,,,,,,,,,,,,,,,,,,,,,,,,,,,,,,,,,,,,,,1.8,376.5857437,None,None,1,378.5011609,None,378.5011609,None,378.5011609,None,379.3972274,None,,,,,,,,,,,,,,,,,,,,,,,,,,,,,,,,,,,,,,,,,,,,,,,,,,P041,FENCOG,2,Pre,2022_May_09_1051,Go No-Go Task,2021.1.4,120.2525785
EPracticeConditions/YellowEyes.csv,"Rule: When you see a yellow image, do not press 'spacebar'.",Images/Fearful/AM24AFS.jpg,Fear,Blue,Images/Blue.jpg,space,,,,,,,0,1,1,1,0,4,4,7,,,,,,,,,,,,,,,,,,,,,,,,,,,,,,,,,,,,,,,,,,,,,,,,,,,1.7,381.3991538,None,space,1,383.1998351,None,383.1998351,None,383.1998351,None,384.0945925,None,0.2461058,,,,,,,,,,,,,,,,,,,,,,,,,,,,,,,,,,,,,,,,,,,,,,,,,P041,FENCOG,2,Pre,2022_May_09_1051,Go No-Go Task,2021.1.4,120.2525785
EPracticeConditions/YellowEyes.csv,"Rule: When you see a yellow image, do not press 'spacebar'.",Images/Fearful/AM16AFS.jpg,Fear,Blue,Images/Blue.jpg,space,,,,,,,0,1,1,1,0,5,5,2,,,,,,,,,,,,,,,,,,,,,,,,,,,,,,,,,,,,,,,,,,,,,,,,,,,1.6,386.0979542,None,space,1,387.7984131,None,387.7984131,None,387.7984131,None,388.6890235,None,0.3435383,,,,,,,,,,,,,,,,,,,,,,,,,,,,,,,,,,,,,,,,,,,,,,,,,P041,FENCOG,2,Pre,2022_May_09_1051,Go No-Go Task,2021.1.4,120.2525785
EPracticeConditions/YellowEyes.csv,"Rule: When you see a yellow image, do not press 'spacebar'.",Images/Fearful/AM17AFS.jpg,Fear,Blue,Images/Blue.jpg,space,,,,,,,0,1,1,1,0,6,6,3,,,,,,,,,,,,,,,,,,,,,,,,,,,,,,,,,,,,,,,,,,,,,,,,,,,1.9,390.6885248,None,space,1,392.6968492,None,392.6968492,None,392.6968492,None,393.5933465,None,0.3327856,,,,,,,,,,,,,,,,,,,,,,,,,,,,,,,,,,,,,,,,,,,,,,,,,P041,FENCOG,2,Pre,2022_May_09_1051,Go No-Go Task,2021.1.4,120.2525785
EPracticeConditions/YellowEyes.csv,"Rule: When you see a yellow image, do not press 'spacebar'.",Images/Fearful/AM19AFS.jpg,Fear,Blue,Images/Blue.jpg,space,,,,,,,0,1,1,1,0,7,7,4,,,,,,,,,,,,,,,,,,,,,,,,,,,,,,,,,,,,,,,,,,,,,,,,,,,1.2,395.5969109,None,space,1,396.9119572,None,396.9119572,None,396.9119572,None,397.8025507,None,0.3015748,,,,,,,,,,,,,,,,,,,,,,,,,,,,,,,,,,,,,,,,,,,,,,,,,P041,FENCOG,2,Pre,2022_May_09_1051,Go No-Go Task,2021.1.4,120.2525785
EPracticeConditions/YellowEyes.csv,"Rule: When you see a yellow image, do not press 'spacebar'.",,,,,,,,,,,,0,1,1,1,,,,,,,,,,,,,,,,,,,,,,,,,,,,,,,,,,,,,,,,,,,,,,,,,,,,,,,,,,,,,,,,,,,,,,,,,,,,,,,,,,,,,,,,,,,,,,,,,,,,,,,,,,,,,,,,,,,,,P041,FENCOG,2,Pre,2022_May_09_1051,Go No-Go Task,2021.1.4,120.2525785
EPracticeConditions/BlueScram.csv,"Rule: When you see a blue image, do not press 'spacebar'.",Images/Scram2/AF10_NC.jpg,Scramble,Yellow,Images/Yellow.jpg,space,,,,,,,0,2,2,2,0,0,0,2,,,,,,,,,,,,,,,,,,,,,,,,,,,,,,,,,,,,,399.8141006,None,402.8017584,None,space,5.8838879,402.8017584,None,399.8141006,None,399.8141006,None,399.8141006,None,1.7,408.7084499,None,space,1,410.5165411,None,410.5165411,None,410.5165411,None,411.4160773,None,0.2092994,,,,,,,,,,,,,,,,,,,,,,,,,,,,,,,,,,,,,,,,,,,,,,,,,P041,FENCOG,2,Pre,2022_May_09_1051,Go No-Go Task,2021.1.4,120.2525785
EPracticeConditions/BlueScram.csv,"Rule: When you see a blue image, do not press 'spacebar'.",Images/Scram2/AM03_NC.jpg,Scramble,Yellow,Images/Yellow.jpg,space,,,,,,,0,2,2,2,0,1,1,6,,,,,,,,,,,,,,,,,,,,,,,,,,,,,,,,,,,,,,,,,,,,,,,,,,,1.2,413.4148955,None,space,1,414.7154918,None,414.7154918,None,414.7154918,None,415.6211569,None,0.2580667,,,,,,,,,,,,,,,,,,,,,,,,,,,,,,,,,,,,,,,,,,,,,,,,,P041,FENCOG,2,Pre,2022_May_09_1051,Go No-Go Task,2021.1.4,120.2525785
EPracticeConditions/BlueScram.csv,"Rule: When you see a blue image, do not press 'spacebar'.",Images/Scram1/AM13NES.jpg,Scramble,Yellow,Images/Yellow.jpg,space,,,,,,,0,2,2,2,0,2,2,5,,,,,,,,,,,,,,,,,,,,,,,,,,,,,,,,,,,,,,,,,,,,,,,,,,,1.5,417.6217799,None,space,1,419.2308672,None,419.2308672,None,419.2308672,None,420.1250002,None,0.2866418,,,,,,,,,,,,,,,,,,,,,,,,,,,,,,,,,,,,,,,,,,,,,,,,,P041,FENCOG,2,Pre,2022_May_09_1051,Go No-Go Task,2021.1.4,120.2525785
EPracticeConditions/BlueScram.csv,"Rule: When you see a blue image, do not press 'spacebar'.",Images/Scram1/AM03NES.jpg,Scramble,Yellow,Images/Yellow.jpg,space,,,,,,,0,2,2,2,0,3,3,4,,,,,,,,,,,,,,,,,,,,,,,,,,,,,,,,,,,,,,,,,,,,,,,,,,,1.4,422.1287992,None,space,1,423.6378005,None,423.6378005,None,423.6378005,None,424.5281672,None,0.2317626,,,,,,,,,,,,,,,,,,,,,,,,,,,,,,,,,,,,,,,,,,,,,,,,,P041,FENCOG,2,Pre,2022_May_09_1051,Go No-Go Task,2021.1.4,120.2525785
EPracticeConditions/BlueScram.csv,"Rule: When you see a blue image, do not press 'spacebar'.",Images/Scram1/BF18_NC.jpg,Scramble,Blue,Images/Blue.jpg,None,,,,,,,0,2,2,2,0,4,4,1,,,,,,,,,,,,,,,,,,,,,,,,,,,,,,,,,,,,,,,,,,,,,,,,,,,1.8,426.5276571,None,space,0,428.4445787,None,428.4445787,None,428.4445787,None,429.3327119,None,0.2168761,,,,,,,,,,,,,,,,,,,,,,,,,,,,,,,,,,,,,,,,,,,,,,,,,P041,FENCOG,2,Pre,2022_May_09_1051,Go No-Go Task,2021.1.4,120.2525785
EPracticeConditions/BlueScram.csv,"Rule: When you see a blue image, do not press 'spacebar'.",Images/Scram1/AM04_NC.jpg,Scramble,Yellow,Images/Yellow.jpg,space,,,,,,,0,2,2,2,0,5,5,3,,,,,,,,,,,,,,,,,,,,,,,,,,,,,,,,,,,,,,,,,,,,,,,,,,,1.3,431.3346994,None,space,1,432.7434668,None,432.7434668,None,432.7434668,None,433.633735,None,0.2621603,,,,,,,,,,,,,,,,,,,,,,,,,,,,,,,,,,,,,,,,,,,,,,,,,P041,FENCOG,2,Pre,2022_May_09_1051,Go No-Go Task,2021.1.4,120.2525785
EPracticeConditions/BlueScram.csv,"Rule: When you see a blue image, do not press 'spacebar'.",Images/Scram2/AF25NES.jpg,Scramble,Yellow,Images/Yellow.jpg,space,,,,,,,0,2,2,2,0,6,6,7,,,,,,,,,,,,,,,,,,,,,,,,,,,,,,,,,,,,,,,,,,,,,,,,,,,1.6,435.6336586,None,space,1,437.3421425,None,437.3421425,None,437.3421425,None,438.2336945,None,0.264015,,,,,,,,,,,,,,,,,,,,,,,,,,,,,,,,,,,,,,,,,,,,,,,,,P041,FENCOG,2,Pre,2022_May_09_1051,Go No-Go Task,2021.1.4,120.2525785
EPracticeConditions/BlueScram.csv,"Rule: When you see a blue image, do not press 'spacebar'.",Images/Scram1/BM08_NC.jpg,Scramble,Blue,Images/Blue.jpg,None,,,,,,,0,2,2,2,0,7,7,0,,,,,,,,,,,,,,,,,,,,,,,,,,,,,,,,,,,,,,,,,,,,,,,,,,,1.9,440.2443243,None,None,1,442.2573749,None,442.2573749,None,442.2573749,None,443.1542967,None,,,,,,,,,,,,,,,,,,,,,,,,,,,,,,,,,,,,,,,,,,,,,,,,,,P041,FENCOG,2,Pre,2022_May_09_1051,Go No-Go Task,2021.1.4,120.2525785
EPracticeConditions/BlueScram.csv,"Rule: When you see a blue image, do not press 'spacebar'.",,,,,,,,,,,,0,2,2,2,,,,,,,,,,,,,,,,,,,,,,,,,,,,,,,,,,,,,,,,,,,,,,,,,,,,,,,,,,,,,,,,,,,,,,,,,,,,,,,,,,,,,,,,,,,,,,,,,,,,,,,,,,,,,,,,,,,,,P041,FENCOG,2,Pre,2022_May_09_1051,Go No-Go Task,2021.1.4,120.2525785
EPracticeConditions/YellowScram.csv,"Rule: When you see a yellow image, do not press 'spacebar'.",Images/Scram1/HF04_NC.jpg,Scramble,Blue,Images/Blue.jpg,space,,,,,,,0,3,3,3,0,0,0,2,,,,,,,,,,,,,,,,,,,,,,,,,,,,,,,,,,,,,445.1646095,None,448.1550347,None,space,6.2987188,448.1550347,None,445.1646095,None,445.1646095,None,445.1646095,None,1.4,454.482464,None,space,1,455.9949923,None,455.9949923,None,455.9949923,None,456.8853292,None,0.290613,,,,,,,,,,,,,,,,,,,,,,,,,,,,,,,,,,,,,,,,,,,,,,,,,P041,FENCOG,2,Pre,2022_May_09_1051,Go No-Go Task,2021.1.4,120.2525785
EPracticeConditions/YellowScram.csv,"Rule: When you see a yellow image, do not press 'spacebar'.",Images/Scram1/AF10_NC.jpg,Scramble,Blue,Images/Blue.jpg,space,,,,,,,0,3,3,3,0,1,1,6,,,,,,,,,,,,,,,,,,,,,,,,,,,,,,,,,,,,,,,,,,,,,,,,,,,1.3,458.8847647,None,space,1,460.2938722,None,460.2938722,None,460.2938722,None,461.1813589,None,0.3358179,,,,,,,,,,,,,,,,,,,,,,,,,,,,,,,,,,,,,,,,,,,,,,,,,P041,FENCOG,2,Pre,2022_May_09_1051,Go No-Go Task,2021.1.4,120.2525785
EPracticeConditions/YellowScram.csv,"Rule: When you see a yellow image, do not press 'spacebar'.",Images/Scram1/AF30NES.JPG,Scramble,Blue,Images/Blue.jpg,space,,,,,,,0,3,3,3,0,2,2,4,,,,,,,,,,,,,,,,,,,,,,,,,,,,,,,,,,,,,,,,,,,,,,,,,,,1.6,463.1845021,None,space,1,464.9006998,None,464.9006998,None,464.9006998,None,465.7942016,None,0.2488907,,,,,,,,,,,,,,,,,,,,,,,,,,,,,,,,,,,,,,,,,,,,,,,,,P041,FENCOG,2,Pre,2022_May_09_1051,Go No-Go Task,2021.1.4,120.2525785
EPracticeConditions/YellowScram.csv,"Rule: When you see a yellow image, do not press 'spacebar'.",Images/Scram2/AM03NES.jpg,Scramble,Yellow,Images/Yellow.jpg,None,,,,,,,0,3,3,3,0,3,3,1,,,,,,,,,,,,,,,,,,,,,,,,,,,,,,,,,,,,,,,,,,,,,,,,,,,1.8,467.8005365,None,None,1,469.7076296,None,469.7076296,None,469.7076296,None,470.6039913,None,,,,,,,,,,,,,,,,,,,,,,,,,,,,,,,,,,,,,,,,,,,,,,,,,,P041,FENCOG,2,Pre,2022_May_09_1051,Go No-Go Task,2021.1.4,120.2525785
EPracticeConditions/YellowScram.csv,"Rule: When you see a yellow image, do not press 'spacebar'.",Images/Scram2/HM06_NC.jpg,Scramble,Yellow,Images/Yellow.jpg,None,,,,,,,0,3,3,3,0,4,4,0,,,,,,,,,,,,,,,,,,,,,,,,,,,,,,,,,,,,,,,,,,,,,,,,,,,1.2,472.6144229,None,None,1,473.9230627,None,473.9230627,None,473.9230627,None,474.8057087,None,,,,,,,,,,,,,,,,,,,,,,,,,,,,,,,,,,,,,,,,,,,,,,,,,,P041,FENCOG,2,Pre,2022_May_09_1051,Go No-Go Task,2021.1.4,120.2525785
EPracticeConditions/YellowScram.csv,"Rule: When you see a yellow image, do not press 'spacebar'.",Images/Scram1/AF24NES.jpg,Scramble,Blue,Images/Blue.jpg,space,,,,,,,0,3,3,3,0,5,5,7,,,,,,,,,,,,,,,,,,,,,,,,,,,,,,,,,,,,,,,,,,,,,,,,,,,1.7,476.8129329,None,space,1,478.6216822,None,478.6216822,None,478.6216822,None,479.5105067,None,0.2638205,,,,,,,,,,,,,,,,,,,,,,,,,,,,,,,,,,,,,,,,,,,,,,,,,P041,FENCOG,2,Pre,2022_May_09_1051,Go No-Go Task,2021.1.4,120.2525785
EPracticeConditions/YellowScram.csv,"Rule: When you see a yellow image, do not press 'spacebar'.",Images/Scram1/AF07NES.jpg,Scramble,Blue,Images/Blue.jpg,space,,,,,,,0,3,3,3,0,6,6,3,,,,,,,,,,,,,,,,,,,,,,,,,,,,,,,,,,,,,,,,,,,,,,,,,,,1.5,481.5115164,None,space,1,483.1120078,None,483.1120078,None,483.1120078,None,484.0090429,None,0.3176199,,,,,,,,,,,,,,,,,,,,,,,,,,,,,,,,,,,,,,,,,,,,,,,,,P041,FENCOG,2,Pre,2022_May_09_1051,Go No-Go Task,2021.1.4,120.2525785
EPracticeConditions/YellowScram.csv,"Rule: When you see a yellow image, do not press 'spacebar'.",Images/Scram1/BM01_NC.jpg,Scramble,Blue,Images/Blue.jpg,space,,,,,,,0,3,3,3,0,7,7,5,,,,,,,,,,,,,,,,,,,,,,,,,,,,,,,,,,,,,,,,,,,,,,,,,,,1.9,486.0104556,None,space,1,488.010585,None,488.010585,None,488.010585,None,488.9148525,None,0.2749134,,,,,,,,,,,,,,,,,,,,,,,,,,,,,,,,,,,,,,,,,,,,,,,,,P041,FENCOG,2,Pre,2022_May_09_1051,Go No-Go Task,2021.1.4,120.2525785
EPracticeConditions/YellowScram.csv,"Rule: When you see a yellow image, do not press 'spacebar'.",,,,,,,,,,,,0,3,3,3,,,,,,,,,,,,,,,,,,,,,,,,,,,,,,,,,,,,,,,,,,,,,,,,,,,,,,,,,,,,,,,,,,,,,,,,,,,,,,,,,,,,,,,,,,,,,,,,,,,,,,,,,,,,,,,,,,,,,P041,FENCOG,2,Pre,2022_May_09_1051,Go No-Go Task,2021.1.4,120.2525785
,,,,,,,,,,,,,,,,,,,,,,,,,,,,,,,,,,,,,,,,,,,,,,,,,,,,,,,,,,,,,,,,,,,,,,,,,,,,,,,,,,,,,492.2630029,None,space,9.5356509,492.7420809,None,,,,,,,,,,,,,,,,,,,,,,,,,,,,,,,,,,,,,,,,,,,P041,FENCOG,2,Pre,2022_May_09_1051,Go No-Go Task,2021.1.4,120.2525785
,,,,,,,,,,,,,,,,,,,,,,,,,,,,,,,,,,,,,,,,,,,,,,,,,,,,,,,,,,,,,,,,,,,,,,,,,,,,,,,,,,,,,,,,,,,502.2900613,None,space,4.3076558,502.2900613,None,,,,,,,,,,,,,,,,,,,,,,,,,,,,,,,,,,,,,P041,FENCOG,2,Pre,2022_May_09_1051,Go No-Go Task,2021.1.4,120.2525785
,"Rule: When you see a yellow image, do not press 'spacebar'.",Images/Happy/BF09_HO.jpg,Happy,Blue,Images/Blue.jpg,space,ParentConditions/YellowYellowBlue_v2.xlsx,YellowYellowBlue,Conditions/Version_2/YellowFearStop.xlsx,no,PASS,0.200968574,,,,,,,,,0,0,0,1,0,0,0,0,0,0,0,0,,,,,,,,,,,,,,,,,,,,,,,,,,,,,,,,,,,,,,,,,,,,,,,,,,,,,,,,,,,,,,,,,506.703759,None,509.7066172,None,space,7.3791002,509.7066172,None,506.703759,None,506.703759,None,506.703759,None,1.77,517.141461,None,space,1,0.3631959,519.0265919,None,519.0265919,None,519.0265919,None,,,,,,,,,,,P041,FENCOG,2,Pre,2022_May_09_1051,Go No-Go Task,2021.1.4,120.2525785
,"Rule: When you see a yellow image, do not press 'spacebar'.",Images/Happy/AF30HAS.jpg,Happy,Blue,Images/Blue.jpg,space,ParentConditions/YellowYellowBlue_v2.xlsx,YellowYellowBlue,Conditions/Version_2/YellowFearStop.xlsx,no,PASS,0.967956144,,,,,,,,,0,0,0,1,0,0,0,0,0,1,1,1,,,,,,,,,,,,,,,,,,,,,,,,,,,,,,,,,,,,,,,,,,,,,,,,,,,,,,,,,,,,,,,,,,,,,,,,,,,,,,,1.95,519.4180707,None,space,1,0.2656599,521.4839417,None,521.4839417,None,521.4839417,None,,,,,,,,,,,P041,FENCOG,2,Pre,2022_May_09_1051,Go No-Go Task,2021.1.4,120.2525785
,"Rule: When you see a yellow image, do not press 'spacebar'.",Images/Happy/AF27HAS.jpg,Happy,Blue,Images/Blue.jpg,space,ParentConditions/YellowYellowBlue_v2.xlsx,YellowYellowBlue,Conditions/Version_2/YellowFearStop.xlsx,no,PASS,0.024466482,,,,,,,,,0,0,0,1,0,0,0,0,0,2,2,2,,,,,,,,,,,,,,,,,,,,,,,,,,,,,,,,,,,,,,,,,,,,,,,,,,,,,,,,,,,,,,,,,,,,,,,,,,,,,,,1.39,521.8833762,None,space,1,0.3021657,523.3833522,None,523.3833522,None,523.3833522,None,,,,,,,,,,,P041,FENCOG,2,Pre,2022_May_09_1051,Go No-Go Task,2021.1.4,120.2525785
,"Rule: When you see a yellow image, do not press 'spacebar'.",Images/Happy/AF22HAS.jpg,Happy,Blue,Images/Blue.jpg,space,ParentConditions/YellowYellowBlue_v2.xlsx,YellowYellowBlue,Conditions/Version_2/YellowFearStop.xlsx,no,PASS,0.900419425,,,,,,,,,0,0,0,1,0,0,0,0,0,3,3,3,,,,,,,,,,,,,,,,,,,,,,,,,,,,,,,,,,,,,,,,,,,,,,,,,,,,,,,,,,,,,,,,,,,,,,,,,,,,,,,1.56,523.7822708,None,space,1,0.2517307,525.4578354,None,525.4578354,None,525.4578354,None,,,,,,,,,,,P041,FENCOG,2,Pre,2022_May_09_1051,Go No-Go Task,2021.1.4,120.2525785
,"Rule: When you see a yellow image, do not press 'spacebar'.",Images/Happy/WM11_HC.jpg,Happy,Blue,Images/Blue.jpg,space,ParentConditions/YellowYellowBlue_v2.xlsx,YellowYellowBlue,Conditions/Version_2/YellowFearStop.xlsx,no,PASS,0.504208106,,,,,,,,,0,0,0,1,0,0,0,0,0,4,4,4,,,,,,,,,,,,,,,,,,,,,,,,,,,,,,,,,,,,,,,,,,,,,,,,,,,,,,,,,,,,,,,,,,,,,,,,,,,,,,,1.96,525.8567103,None,space,1,0.2335721,527.9320575,None,527.9320575,None,527.9320575,None,,,,,,,,,,,P041,FENCOG,2,Pre,2022_May_09_1051,Go No-Go Task,2021.1.4,120.2525785
,"Rule: When you see a yellow image, do not press 'spacebar'.",Images/Happy/BF05_HO.jpg,Happy,Blue,Images/Blue.jpg,space,ParentConditions/YellowYellowBlue_v2.xlsx,YellowYellowBlue,Conditions/Version_2/YellowFearStop.xlsx,no,PASS,0.668772063,,,,,,,,,0,0,0,1,0,0,0,0,0,5,5,5,,,,,,,,,,,,,,,,,,,,,,,,,,,,,,,,,,,,,,,,,,,,,,,,,,,,,,,,,,,,,,,,,,,,,,,,,,,,,,,1.66,528.3308866,None,space,1,0.3476389,530.0980379,None,530.0980379,None,530.0980379,None,,,,,,,,,,,P041,FENCOG,2,Pre,2022_May_09_1051,Go No-Go Task,2021.1.4,120.2525785
,"Rule: When you see a yellow image, do not press 'spacebar'.",Images/Fearful/AM01AFS.jpg,Fear,Yellow,Images/Yellow.jpg,None,ParentConditions/YellowYellowBlue_v2.xlsx,YellowYellowBlue,Conditions/Version_2/YellowFearStop.xlsx,yes,PASS,0.008120847,,,,,,,,,0,0,0,1,0,0,0,0,0,6,6,6,,,,,,,,,,,,,,,,,,,,,,,,,,,,,,,,,,,,,,,,,,,,,,,,,,,,,,,,,,,,,,,,,,,,,,,,,,,,,,,1.52,530.497241,None,None,1,,532.1391395,None,532.1391395,None,532.1391395,None,,,,,,,,,,,P041,FENCOG,2,Pre,2022_May_09_1051,Go No-Go Task,2021.1.4,120.2525785
,"Rule: When you see a yellow image, do not press 'spacebar'.",Images/Happy/AF23HAS.jpg,Happy,Blue,Images/Blue.jpg,space,ParentConditions/YellowYellowBlue_v2.xlsx,YellowYellowBlue,Conditions/Version_2/YellowFearStop.xlsx,no,PASS,0.070231989,,,,,,,,,0,0,0,1,0,0,0,0,0,7,7,7,,,,,,,,,,,,,,,,,,,,,,,,,,,,,,,,,,,,,,,,,,,,,,,,,,,,,,,,,,,,,,,,,,,,,,,,,,,,,,,1.62,532.5297613,None,space,1,0.3022059,534.2634698,None,534.2634698,None,534.2634698,None,,,,,,,,,,,P041,FENCOG,2,Pre,2022_May_09_1051,Go No-Go Task,2021.1.4,120.2525785
,"Rule: When you see a yellow image, do not press 'spacebar'.",Images/Happy/AM16HAS.jpg,Happy,Blue,Images/Blue.jpg,space,ParentConditions/YellowYellowBlue_v2.xlsx,YellowYellowBlue,Conditions/Version_2/YellowFearStop.xlsx,no,PASS,0.031804034,,,,,,,,,0,0,0,1,0,0,0,0,0,8,8,8,,,,,,,,,,,,,,,,,,,,,,,,,,,,,,,,,,,,,,,,,,,,,,,,,,,,,,,,,,,,,,,,,,,,,,,,,,,,,,,1.28,534.6626646,None,space,1,0.2948323,536.0546231,None,536.0546231,None,536.0546231,None,,,,,,,,,,,P041,FENCOG,2,Pre,2022_May_09_1051,Go No-Go Task,2021.1.4,120.2525785
,"Rule: When you see a yellow image, do not press 'spacebar'.",Images/Happy/AM04HAS.jpg,Happy,Blue,Images/Blue.jpg,space,ParentConditions/YellowYellowBlue_v2.xlsx,YellowYellowBlue,Conditions/Version_2/YellowFearStop.xlsx,no,PASS,0.000212135,,,,,,,,,0,0,0,1,0,0,0,0,0,9,9,9,,,,,,,,,,,,,,,,,,,,,,,,,,,,,,,,,,,,,,,,,,,,,,,,,,,,,,,,,,,,,,,,,,,,,,,,,,,,,,,1.86,536.4535276,None,space,1,0.2561923,538.4373709,None,538.4373709,None,538.4373709,None,,,,,,,,,,,P041,FENCOG,2,Pre,2022_May_09_1051,Go No-Go Task,2021.1.4,120.2525785
,"Rule: When you see a yellow image, do not press 'spacebar'.",Images/Happy/AF26HAS.jpg,Happy,Blue,Images/Blue.jpg,space,ParentConditions/YellowYellowBlue_v2.xlsx,YellowYellowBlue,Conditions/Version_2/YellowFearStop.xlsx,no,PASS,0.408079602,,,,,,,,,0,0,0,1,0,0,0,0,0,10,10,10,,,,,,,,,,,,,,,,,,,,,,,,,,,,,,,,,,,,,,,,,,,,,,,,,,,,,,,,,,,,,,,,,,,,,,,,,,,,,,,1.98,538.8278159,None,space,1,0.3817123,540.9198446,None,540.9198446,None,540.9198446,None,,,,,,,,,,,P041,FENCOG,2,Pre,2022_May_09_1051,Go No-Go Task,2021.1.4,120.2525785
,"Rule: When you see a yellow image, do not press 'spacebar'.",Images/Fearful/AF10_FC.jpg,Fear,Yellow,Images/Yellow.jpg,None,ParentConditions/YellowYellowBlue_v2.xlsx,YellowYellowBlue,Conditions/Version_2/YellowFearStop.xlsx,yes,PASS,0.431183679,,,,,,,,,0,0,0,1,0,0,0,0,0,11,11,11,,,,,,,,,,,,,,,,,,,,,,,,,,,,,,,,,,,,,,,,,,,,,,,,,,,,,,,,,,,,,,,,,,,,,,,,,,,,,,,1.41,541.318877,None,None,1,,542.8358934,None,542.8358934,None,542.8358934,None,,,,,,,,,,,P041,FENCOG,2,Pre,2022_May_09_1051,Go No-Go Task,2021.1.4,120.2525785
,"Rule: When you see a yellow image, do not press 'spacebar'.",Images/Fearful/AM09_FO.jpg,Fear,Yellow,Images/Yellow.jpg,None,ParentConditions/YellowYellowBlue_v2.xlsx,YellowYellowBlue,Conditions/Version_2/YellowFearStop.xlsx,yes,PASS,0.253243813,,,,,,,,,0,0,0,1,0,0,0,0,0,12,12,12,,,,,,,,,,,,,,,,,,,,,,,,,,,,,,,,,,,,,,,,,,,,,,,,,,,,,,,,,,,,,,,,,,,,,,,,,,,,,,,1.67,543.2352858,None,space,0,0.2509047,545.0186273,None,545.0186273,None,545.0186273,None,,,,,,,,,,,P041,FENCOG,2,Pre,2022_May_09_1051,Go No-Go Task,2021.1.4,120.2525785
,"Rule: When you see a yellow image, do not press 'spacebar'.",Images/Happy/HM04_HO.jpg,Happy,Blue,Images/Blue.jpg,space,ParentConditions/YellowYellowBlue_v2.xlsx,YellowYellowBlue,Conditions/Version_2/YellowFearStop.xlsx,no,PASS,0.407242513,,,,,,,,,0,0,0,1,0,0,0,0,0,13,13,13,,,,,,,,,,,,,,,,,,,,,,,,,,,,,,,,,,,,,,,,,,,,,,,,,,,,,,,,,,,,,,,,,,,,,,,,,,,,,,,1.31,545.4176717,None,space,1,0.2743742,546.8432403,None,546.8432403,None,546.8432403,None,,,,,,,,,,,P041,FENCOG,2,Pre,2022_May_09_1051,Go No-Go Task,2021.1.4,120.2525785
,"Rule: When you see a yellow image, do not press 'spacebar'.",Images/Fearful/AM04_FO.jpg,Fear,Yellow,Images/Yellow.jpg,None,ParentConditions/YellowYellowBlue_v2.xlsx,YellowYellowBlue,Conditions/Version_2/YellowFearStop.xlsx,yes,PASS,0.728825656,,,,,,,,,0,0,0,1,0,0,0,0,0,14,14,14,,,,,,,,,,,,,,,,,,,,,,,,,,,,,,,,,,,,,,,,,,,,,,,,,,,,,,,,,,,,,,,,,,,,,,,,,,,,,,,1.38,547.2459693,None,None,1,,548.7341963,None,548.7341963,None,548.7341963,None,,,,,,,,,,,P041,FENCOG,2,Pre,2022_May_09_1051,Go No-Go Task,2021.1.4,120.2525785
,"Rule: When you see a yellow image, do not press 'spacebar'.",Images/Happy/AM13HAS.jpg,Happy,Blue,Images/Blue.jpg,space,ParentConditions/YellowYellowBlue_v2.xlsx,YellowYellowBlue,Conditions/Version_2/YellowFearStop.xlsx,no,PASS,0.940548452,,,,,,,,,0,0,0,1,0,0,0,0,0,15,15,15,,,,,,,,,,,,,,,,,,,,,,,,,,,,,,,,,,,,,,,,,,,,,,,,,,,,,,,,,,,,,,,,,,,,,,,,,,,,,,,1.7,549.1333383,None,space,1,0.264151,550.9335766,None,550.9335766,None,550.9335766,None,,,,,,,,,,,P041,FENCOG,2,Pre,2022_May_09_1051,Go No-Go Task,2021.1.4,120.2525785
,"Rule: When you see a yellow image, do not press 'spacebar'.",Images/Fearful/AF09AFS.jpg,Fear,Yellow,Images/Yellow.jpg,None,ParentConditions/YellowYellowBlue_v2.xlsx,YellowYellowBlue,Conditions/Version_2/YellowFearStop.xlsx,yes,PASS,0.646488179,,,,,,,,,0,0,0,1,0,0,0,0,0,16,16,16,,,,,,,,,,,,,,,,,,,,,,,,,,,,,,,,,,,,,,,,,,,,,,,,,,,,,,,,,,,,,,,,,,,,,,,,,,,,,,,1.99,551.3384065,None,None,1,,553.4412406,None,553.4412406,None,553.4412406,None,,,,,,,,,,,P041,FENCOG,2,Pre,2022_May_09_1051,Go No-Go Task,2021.1.4,120.2525785
,"Rule: When you see a yellow image, do not press 'spacebar'.",Images/Fearful/BF05_FO.jpg,Fear,Yellow,Images/Yellow.jpg,None,ParentConditions/YellowYellowBlue_v2.xlsx,YellowYellowBlue,Conditions/Version_2/YellowFearStop.xlsx,yes,PASS,0.375092615,,,,,,,,,0,0,0,1,0,0,0,0,0,17,17,17,,,,,,,,,,,,,,,,,,,,,,,,,,,,,,,,,,,,,,,,,,,,,,,,,,,,,,,,,,,,,,,,,,,,,,,,,,,,,,,1.59,553.8367369,None,None,1,,555.5405169,None,555.5405169,None,555.5405169,None,,,,,,,,,,,P041,FENCOG,2,Pre,2022_May_09_1051,Go No-Go Task,2021.1.4,120.2525785
,"Rule: When you see a yellow image, do not press 'spacebar'.",Images/Happy/AM24HAS.jpg,Happy,Blue,Images/Blue.jpg,space,ParentConditions/YellowYellowBlue_v2.xlsx,YellowYellowBlue,Conditions/Version_2/YellowFearStop.xlsx,no,PASS,0.016158037,,,,,,,,,0,0,0,1,0,0,0,0,0,18,18,18,,,,,,,,,,,,,,,,,,,,,,,,,,,,,,,,,,,,,,,,,,,,,,,,,,,,,,,,,,,,,,,,,,,,,,,,,,,,,,,1.5,555.9421033,None,space,1,0.3287235,557.5648878,None,557.5648878,None,557.5648878,None,,,,,,,,,,,P041,FENCOG,2,Pre,2022_May_09_1051,Go No-Go Task,2021.1.4,120.2525785
,"Rule: When you see a yellow image, do not press 'spacebar'.",Images/Fearful/AF11AFS.jpg,Fear,Yellow,Images/Yellow.jpg,None,ParentConditions/YellowYellowBlue_v2.xlsx,YellowYellowBlue,Conditions/Version_2/YellowFearStop.xlsx,yes,PASS,0.337155436,,,,,,,,,0,0,0,1,0,0,0,0,0,19,19,19,,,,,,,,,,,,,,,,,,,,,,,,,,,,,,,,,,,,,,,,,,,,,,,,,,,,,,,,,,,,,,,,,,,,,,,,,,,,,,,1.87,557.9553684,None,None,1,,559.9559342,None,559.9559342,None,559.9559342,None,,,,,,,,,,,P041,FENCOG,2,Pre,2022_May_09_1051,Go No-Go Task,2021.1.4,120.2525785
,"Rule: When you see a yellow image, do not press 'spacebar'.",Images/Happy/AF01_HE.jpg,Happy,Blue,Images/Blue.jpg,space,ParentConditions/YellowYellowBlue_v2.xlsx,YellowYellowBlue,Conditions/Version_2/YellowFearStop.xlsx,no,PASS,0.097708726,,,,,,,,,0,0,0,1,0,0,0,0,0,20,20,20,,,,,,,,,,,,,,,,,,,,,,,,,,,,,,,,,,,,,,,,,,,,,,,,,,,,,,,,,,,,,,,,,,,,,,,,,,,,,,,1.24,560.3383071,None,space,1,0.2449904,561.6888457,None,561.6888457,None,561.6888457,None,,,,,,,,,,,P041,FENCOG,2,Pre,2022_May_09_1051,Go No-Go Task,2021.1.4,120.2525785
,"Rule: When you see a yellow image, do not press 'spacebar'.",Images/Happy/AM10_HO.jpg,Happy,Blue,Images/Blue.jpg,space,ParentConditions/YellowYellowBlue_v2.xlsx,YellowYellowBlue,Conditions/Version_2/YellowFearStop.xlsx,no,PASS,0.358031869,,,,,,,,,0,0,0,1,0,0,0,0,0,21,21,21,,,,,,,,,,,,,,,,,,,,,,,,,,,,,,,,,,,,,,,,,,,,,,,,,,,,,,,,,,,,,,,,,,,,,,,,,,,,,,,1.27,562.0878061,None,space,1,0.2939541,563.4715053,None,563.4715053,None,563.4715053,None,,,,,,,,,,,P041,FENCOG,2,Pre,2022_May_09_1051,Go No-Go Task,2021.1.4,120.2525785
,"Rule: When you see a yellow image, do not press 'spacebar'.",Images/Happy/AF09HAS.jpg,Happy,Blue,Images/Blue.jpg,space,ParentConditions/YellowYellowBlue_v2.xlsx,YellowYellowBlue,Conditions/Version_2/YellowFearStop.xlsx,no,PASS,0.209028908,,,,,,,,,0,0,0,1,0,0,0,0,0,22,22,22,,,,,,,,,,,,,,,,,,,,,,,,,,,,,,,,,,,,,,,,,,,,,,,,,,,,,,,,,,,,,,,,,,,,,,,,,,,,,,,2,563.8704115,None,space,1,0.2984883,565.9791073,None,565.9791073,None,565.9791073,None,,,,,,,,,,,P041,FENCOG,2,Pre,2022_May_09_1051,Go No-Go Task,2021.1.4,120.2525785
,"Rule: When you see a yellow image, do not press 'spacebar'.",Images/Happy/BM02_HO.jpg,Happy,Blue,Images/Blue.jpg,space,ParentConditions/YellowYellowBlue_v2.xlsx,YellowYellowBlue,Conditions/Version_2/YellowFearStop.xlsx,no,PASS,0.673274105,,,,,,,,,0,0,0,1,0,0,0,0,0,23,23,23,,,,,,,,,,,,,,,,,,,,,,,,,,,,,,,,,,,,,,,,,,,,,,,,,,,,,,,,,,,,,,,,,,,,,,,,,,,,,,,1.72,566.3781341,None,space,1,0.2897478,568.2035319,None,568.2035319,None,568.2035319,None,,,,,,,,,,,P041,FENCOG,2,Pre,2022_May_09_1051,Go No-Go Task,2021.1.4,120.2525785
,"Rule: When you see a yellow image, do not press 'spacebar'.",Images/Happy/AM09_HE.jpg,Happy,Blue,Images/Blue.jpg,space,ParentConditions/YellowYellowBlue_v2.xlsx,YellowYellowBlue,Conditions/Version_2/YellowFearStop.xlsx,no,PASS,0.606507822,,,,,,,,,0,0,0,1,0,0,0,0,0,24,24,24,,,,,,,,,,,,,,,,,,,,,,,,,,,,,,,,,,,,,,,,,,,,,,,,,,,,,,,,,,,,,,,,,,,,,,,,,,,,,,,1.76,568.6021888,None,space,1,0.2715247,570.4777921,None,570.4777921,None,570.4777921,None,,,,,,,,,,,P041,FENCOG,2,Pre,2022_May_09_1051,Go No-Go Task,2021.1.4,120.2525785
,"Rule: When you see a yellow image, do not press 'spacebar'.",Images/Happy/AF10_HE.jpg,Happy,Blue,Images/Blue.jpg,space,ParentConditions/YellowYellowBlue_v2.xlsx,YellowYellowBlue,Conditions/Version_2/YellowFearStop.xlsx,no,PASS,0.68699688,,,,,,,,,0,0,0,1,0,0,0,0,0,25,25,25,,,,,,,,,,,,,,,,,,,,,,,,,,,,,,,,,,,,,,,,,,,,,,,,,,,,,,,,,,,,,,,,,,,,,,,,,,,,,,,1.78,570.87682,None,space,1,0.2693785,572.7600609,None,572.7600609,None,572.7600609,None,,,,,,,,,,,P041,FENCOG,2,Pre,2022_May_09_1051,Go No-Go Task,2021.1.4,120.2525785
,"Rule: When you see a yellow image, do not press 'spacebar'.",Images/Happy/BM01_HO.jpg,Happy,Blue,Images/Blue.jpg,space,ParentConditions/YellowYellowBlue_v2.xlsx,YellowYellowBlue,Conditions/Version_2/YellowFearStop.xlsx,no,PASS,0.5538207,,,,,,,,,0,0,0,1,0,0,0,0,0,26,26,26,,,,,,,,,,,,,,,,,,,,,,,,,,,,,,,,,,,,,,,,,,,,,,,,,,,,,,,,,,,,,,,,,,,,,,,,,,,,,,,1.48,573.1591632,None,space,1,0.3266353,574.742812,None,574.742812,None,574.742812,None,,,,,,,,,,,P041,FENCOG,2,Pre,2022_May_09_1051,Go No-Go Task,2021.1.4,120.2525785
,"Rule: When you see a yellow image, do not press 'spacebar'.",Images/Fearful/AF07_FO.jpg,Fear,Yellow,Images/Yellow.jpg,None,ParentConditions/YellowYellowBlue_v2.xlsx,YellowYellowBlue,Conditions/Version_2/YellowFearStop.xlsx,yes,PASS,0.568987932,,,,,,,,,0,0,0,1,0,0,0,0,0,27,27,27,,,,,,,,,,,,,,,,,,,,,,,,,,,,,,,,,,,,,,,,,,,,,,,,,,,,,,,,,,,,,,,,,,,,,,,,,,,,,,,1.85,575.1418867,None,None,1,,577.0922831,None,577.0922831,None,577.0922831,None,,,,,,,,,,,P041,FENCOG,2,Pre,2022_May_09_1051,Go No-Go Task,2021.1.4,120.2525785
,"Rule: When you see a yellow image, do not press 'spacebar'.",Images/Happy/BF18_HO.jpg,Happy,Blue,Images/Blue.jpg,space,ParentConditions/YellowYellowBlue_v2.xlsx,YellowYellowBlue,Conditions/Version_2/YellowFearStop.xlsx,no,PASS,0.252890825,,,,,,,,,0,0,0,1,0,0,0,0,0,28,28,28,,,,,,,,,,,,,,,,,,,,,,,,,,,,,,,,,,,,,,,,,,,,,,,,,,,,,,,,,,,,,,,,,,,,,,,,,,,,,,,1.44,577.4912196,None,space,1,0.2922176,579.0331944,None,579.0331944,None,579.0331944,None,,,,,,,,,,,P041,FENCOG,2,Pre,2022_May_09_1051,Go No-Go Task,2021.1.4,120.2525785
,"Rule: When you see a yellow image, do not press 'spacebar'.",Images/Happy/AM03HAS.jpg,Happy,Blue,Images/Blue.jpg,space,ParentConditions/YellowYellowBlue_v2.xlsx,YellowYellowBlue,Conditions/Version_2/YellowFearStop.xlsx,no,PASS,0.612970552,,,,,,,,,0,0,0,1,0,0,0,0,0,29,29,29,,,,,,,,,,,,,,,,,,,,,,,,,,,,,,,,,,,,,,,,,,,,,,,,,,,,,,,,,,,,,,,,,,,,,,,,,,,,,,,1.58,579.4322929,None,space,1,0.2814769,581.1159116,None,581.1159116,None,581.1159116,None,,,,,,,,,,,P041,FENCOG,2,Pre,2022_May_09_1051,Go No-Go Task,2021.1.4,120.2525785
,"Rule: When you see a yellow image, do not press 'spacebar'.",Images/Happy/BF10_HO.jpg,Happy,Blue,Images/Blue.jpg,space,ParentConditions/YellowYellowBlue_v2.xlsx,YellowYellowBlue,Conditions/Version_2/YellowFearStop.xlsx,no,PASS,0.663321465,,,,,,,,,0,0,0,1,0,0,0,0,0,30,30,30,,,,,,,,,,,,,,,,,,,,,,,,,,,,,,,,,,,,,,,,,,,,,,,,,,,,,,,,,,,,,,,,,,,,,,,,,,,,,,,1.74,581.5150289,None,space,1,0.3123092,583.3571134,None,583.3571134,None,583.3571134,None,,,,,,,,,,,P041,FENCOG,2,Pre,2022_May_09_1051,Go No-Go Task,2021.1.4,120.2525785
,"Rule: When you see a yellow image, do not press 'spacebar'.",Images/Happy/BF07_HO.jpg,Happy,Blue,Images/Blue.jpg,space,ParentConditions/YellowYellowBlue_v2.xlsx,YellowYellowBlue,Conditions/Version_2/YellowFearStop.xlsx,no,PASS,0.383434418,,,,,,,,,0,0,0,1,0,0,0,0,0,31,31,31,,,,,,,,,,,,,,,,,,,,,,,,,,,,,,,,,,,,,,,,,,,,,,,,,,,,,,,,,,,,,,,,,,,,,,,,,,,,,,,1.45,583.7559745,None,space,1,0.2586254,585.3147332,None,585.3147332,None,585.3147332,None,,,,,,,,,,,P041,FENCOG,2,Pre,2022_May_09_1051,Go No-Go Task,2021.1.4,120.2525785
,"Rule: When you see a yellow image, do not press 'spacebar'.",Images/Fearful/BF07_FO.jpg,Fear,Yellow,Images/Yellow.jpg,None,ParentConditions/YellowYellowBlue_v2.xlsx,YellowYellowBlue,Conditions/Version_2/YellowFearStop.xlsx,yes,PASS,0.008316205,,,,,,,,,0,0,0,1,0,0,0,0,0,32,32,32,,,,,,,,,,,,,,,,,,,,,,,,,,,,,,,,,,,,,,,,,,,,,,,,,,,,,,,,,,,,,,,,,,,,,,,,,,,,,,,1.64,585.7138002,None,None,1,,587.4644315,None,587.4644315,None,587.4644315,None,,,,,,,,,,,P041,FENCOG,2,Pre,2022_May_09_1051,Go No-Go Task,2021.1.4,120.2525785
,"Rule: When you see a yellow image, do not press 'spacebar'.",Images/Happy/WF04_HC.jpg,Happy,Blue,Images/Blue.jpg,space,ParentConditions/YellowYellowBlue_v2.xlsx,YellowYellowBlue,Conditions/Version_2/YellowFearStop.xlsx,no,PASS,0.677749508,,,,,,,,,0,0,0,1,0,0,0,0,0,33,33,33,,,,,,,,,,,,,,,,,,,,,,,,,,,,,,,,,,,,,,,,,,,,,,,,,,,,,,,,,,,,,,,,,,,,,,,,,,,,,,,1.79,587.8634797,None,space,1,0.2900087,589.7554702,None,589.7554702,None,589.7554702,None,,,,,,,,,,,P041,FENCOG,2,Pre,2022_May_09_1051,Go No-Go Task,2021.1.4,120.2525785
,"Rule: When you see a yellow image, do not press 'spacebar'.",Images/Happy/AM23HAS.jpg,Happy,Blue,Images/Blue.jpg,space,ParentConditions/YellowYellowBlue_v2.xlsx,YellowYellowBlue,Conditions/Version_2/YellowFearStop.xlsx,no,PASS,0.043037124,,,,,,,,,0,0,0,1,0,0,0,0,0,34,34,34,,,,,,,,,,,,,,,,,,,,,,,,,,,,,,,,,,,,,,,,,,,,,,,,,,,,,,,,,,,,,,,,,,,,,,,,,,,,,,,1.42,590.1567789,None,space,1,0.3101033,591.6795962,None,591.6795962,None,591.6795962,None,,,,,,,,,,,P041,FENCOG,2,Pre,2022_May_09_1051,Go No-Go Task,2021.1.4,120.2525785
,"Rule: When you see a yellow image, do not press 'spacebar'.",Images/Happy/AM09HAS.jpg,Happy,Blue,Images/Blue.jpg,space,ParentConditions/YellowYellowBlue_v2.xlsx,YellowYellowBlue,Conditions/Version_2/YellowFearStop.xlsx,no,PASS,0.095748362,,,,,,,,,0,0,0,1,0,0,0,0,0,35,35,35,,,,,,,,,,,,,,,,,,,,,,,,,,,,,,,,,,,,,,,,,,,,,,,,,,,,,,,,,,,,,,,,,,,,,,,,,,,,,,,1.68,592.0842101,None,space,1,0.2948383,593.8705477,None,593.8705477,None,593.8705477,None,,,,,,,,,,,P041,FENCOG,2,Pre,2022_May_09_1051,Go No-Go Task,2021.1.4,120.2525785
,"Rule: When you see a yellow image, do not press 'spacebar'.",Images/Happy/AM10HAS.jpg,Happy,Blue,Images/Blue.jpg,space,ParentConditions/YellowYellowBlue_v2.xlsx,YellowYellowBlue,Conditions/Version_2/YellowFearStop.xlsx,no,PASS,0.163091291,,,,,,,,,0,0,0,1,0,0,0,0,0,36,36,36,,,,,,,,,,,,,,,,,,,,,,,,,,,,,,,,,,,,,,,,,,,,,,,,,,,,,,,,,,,,,,,,,,,,,,,,,,,,,,,1.89,594.2696566,None,None,0,,596.3451572,None,596.3451572,None,596.3451572,None,,,,,,,,,,,P041,FENCOG,2,Pre,2022_May_09_1051,Go No-Go Task,2021.1.4,120.2525785
,"Rule: When you see a yellow image, do not press 'spacebar'.",Images/Happy/AF07HAS.jpg,Happy,Blue,Images/Blue.jpg,space,ParentConditions/YellowYellowBlue_v2.xlsx,YellowYellowBlue,Conditions/Version_2/YellowFearStop.xlsx,no,PASS,0.348674719,,,,,,,,,0,0,0,1,0,0,0,0,0,37,37,37,,,,,,,,,,,,,,,,,,,,,,,,,,,,,,,,,,,,,,,,,,,,,,,,,,,,,,,,,,,,,,,,,,,,,,,,,,,,,,,1.21,596.6699253,None,space,1,0.2674612,597.9863188,None,597.9863188,None,597.9863188,None,,,,,,,,,,,P041,FENCOG,2,Pre,2022_May_09_1051,Go No-Go Task,2021.1.4,120.2525785
,"Rule: When you see a yellow image, do not press 'spacebar'.",Images/Happy/AM03_HO.jpg,Happy,Blue,Images/Blue.jpg,space,ParentConditions/YellowYellowBlue_v2.xlsx,YellowYellowBlue,Conditions/Version_2/YellowFearStop.xlsx,no,PASS,0.885204794,,,,,,,,,0,0,0,1,0,0,0,0,0,38,38,38,,,,,,,,,,,,,,,,,,,,,,,,,,,,,,,,,,,,,,,,,,,,,,,,,,,,,,,,,,,,,,,,,,,,,,,,,,,,,,,1.9,598.3872477,None,space,1,0.268072,600.3935503,None,600.3935503,None,600.3935503,None,,,,,,,,,,,P041,FENCOG,2,Pre,2022_May_09_1051,Go No-Go Task,2021.1.4,120.2525785
,"Rule: When you see a yellow image, do not press 'spacebar'.",Images/Happy/AM05HAS.jpg,Happy,Blue,Images/Blue.jpg,space,ParentConditions/YellowYellowBlue_v2.xlsx,YellowYellowBlue,Conditions/Version_2/YellowFearStop.xlsx,no,PASS,0.254967981,,,,,,,,,0,0,0,1,0,0,0,0,0,39,39,39,,,,,,,,,,,,,,,,,,,,,,,,,,,,,,,,,,,,,,,,,,,,,,,,,,,,,,,,,,,,,,,,,,,,,,,,,,,,,,,1.91,600.7946369,None,space,1,0.2983588,602.8191121,None,602.8191121,None,602.8191121,None,,,,,,,,,,,P041,FENCOG,2,Pre,2022_May_09_1051,Go No-Go Task,2021.1.4,120.2525785
,"Rule: When you see a yellow image, do not press 'spacebar'.",Images/Happy/AF02HAS.jpg,Happy,Blue,Images/Blue.jpg,space,ParentConditions/YellowYellowBlue_v2.xlsx,YellowYellowBlue,Conditions/Version_2/YellowFearStop.xlsx,no,PASS,0.451861001,,,,,,,,,0,0,0,1,0,0,0,0,0,40,40,40,,,,,,,,,,,,,,,,,,,,,,,,,,,,,,,,,,,,,,,,,,,,,,,,,,,,,,,,,,,,,,,,,,,,,,,,,,,,,,,1.35,603.2172986,None,space,1,0.2420314,604.667723,None,604.667723,None,604.667723,None,,,,,,,,,,,P041,FENCOG,2,Pre,2022_May_09_1051,Go No-Go Task,2021.1.4,120.2525785
,"Rule: When you see a yellow image, do not press 'spacebar'.",Images/Happy/BM08_HO.jpg,Happy,Blue,Images/Blue.jpg,space,ParentConditions/YellowYellowBlue_v2.xlsx,YellowYellowBlue,Conditions/Version_2/YellowFearStop.xlsx,no,PASS,0.610918027,,,,,,,,,0,0,0,1,0,0,0,0,0,41,41,41,,,,,,,,,,,,,,,,,,,,,,,,,,,,,,,,,,,,,,,,,,,,,,,,,,,,,,,,,,,,,,,,,,,,,,,,,,,,,,,1.23,605.0680918,None,space,1,0.284513,606.4088623,None,606.4088623,None,606.4088623,None,,,,,,,,,,,P041,FENCOG,2,Pre,2022_May_09_1051,Go No-Go Task,2021.1.4,120.2525785
,"Rule: When you see a yellow image, do not press 'spacebar'.",Images/Happy/AM22HAS.jpg,Happy,Blue,Images/Blue.jpg,space,ParentConditions/YellowYellowBlue_v2.xlsx,YellowYellowBlue,Conditions/Version_2/YellowFearStop.xlsx,no,PASS,0.35880856,,,,,,,,,0,0,0,1,0,0,0,0,0,42,42,42,,,,,,,,,,,,,,,,,,,,,,,,,,,,,,,,,,,,,,,,,,,,,,,,,,,,,,,,,,,,,,,,,,,,,,,,,,,,,,,1.25,606.8105211,None,space,1,0.2627587,608.1666437,None,608.1666437,None,608.1666437,None,,,,,,,,,,,P041,FENCOG,2,Pre,2022_May_09_1051,Go No-Go Task,2021.1.4,120.2525785
,"Rule: When you see a yellow image, do not press 'spacebar'.",Images/Happy/AM30HAS.jpg,Happy,Blue,Images/Blue.jpg,space,ParentConditions/YellowYellowBlue_v2.xlsx,YellowYellowBlue,Conditions/Version_2/YellowFearStop.xlsx,no,PASS,0.02897569,,,,,,,,,0,0,0,1,0,0,0,0,0,43,43,43,,,,,,,,,,,,,,,,,,,,,,,,,,,,,,,,,,,,,,,,,,,,,,,,,,,,,,,,,,,,,,,,,,,,,,,,,,,,,,,1.71,608.5672632,None,space,1,0.3424934,610.3910115,None,610.3910115,None,610.3910115,None,,,,,,,,,,,P041,FENCOG,2,Pre,2022_May_09_1051,Go No-Go Task,2021.1.4,120.2525785
,"Rule: When you see a yellow image, do not press 'spacebar'.",Images/Fearful/BF09_FC.jpg,Fear,Yellow,Images/Yellow.jpg,None,ParentConditions/YellowYellowBlue_v2.xlsx,YellowYellowBlue,Conditions/Version_2/YellowFearStop.xlsx,yes,PASS,0.336569123,,,,,,,,,0,0,0,1,0,0,0,0,0,44,44,44,,,,,,,,,,,,,,,,,,,,,,,,,,,,,,,,,,,,,,,,,,,,,,,,,,,,,,,,,,,,,,,,,,,,,,,,,,,,,,,1.3,610.7870542,None,None,1,,612.1987797,None,612.1987797,None,612.1987797,None,,,,,,,,,,,P041,FENCOG,2,Pre,2022_May_09_1051,Go No-Go Task,2021.1.4,120.2525785
,"Rule: When you see a yellow image, do not press 'spacebar'.",Images/Happy/WM12_HE.jpg,Happy,Blue,Images/Blue.jpg,space,ParentConditions/YellowYellowBlue_v2.xlsx,YellowYellowBlue,Conditions/Version_2/YellowFearStop.xlsx,no,PASS,0.760185099,,,,,,,,,0,0,0,1,0,0,0,0,0,45,45,45,,,,,,,,,,,,,,,,,,,,,,,,,,,,,,,,,,,,,,,,,,,,,,,,,,,,,,,,,,,,,,,,,,,,,,,,,,,,,,,1.36,612.5976948,None,space,1,0.2203114,614.0733049,None,614.0733049,None,614.0733049,None,,,,,,,,,,,P041,FENCOG,2,Pre,2022_May_09_1051,Go No-Go Task,2021.1.4,120.2525785
,"Rule: When you see a yellow image, do not press 'spacebar'.",Images/Happy/HF10_HE.jpg,Happy,Blue,Images/Blue.jpg,space,ParentConditions/YellowYellowBlue_v2.xlsx,YellowYellowBlue,Conditions/Version_2/YellowFearStop.xlsx,no,PASS,0.665072727,,,,,,,,,0,0,0,1,0,0,0,0,0,46,46,46,,,,,,,,,,,,,,,,,,,,,,,,,,,,,,,,,,,,,,,,,,,,,,,,,,,,,,,,,,,,,,,,,,,,,,,,,,,,,,,1.54,614.4720936,None,space,1,0.2430586,616.1226297,None,616.1226297,None,616.1226297,None,,,,,,,,,,,P041,FENCOG,2,Pre,2022_May_09_1051,Go No-Go Task,2021.1.4,120.2525785
,"Rule: When you see a yellow image, do not press 'spacebar'.",Images/Happy/HM09_HO.jpg,Happy,Blue,Images/Blue.jpg,space,ParentConditions/YellowYellowBlue_v2.xlsx,YellowYellowBlue,Conditions/Version_2/YellowFearStop.xlsx,no,PASS,0.71966193,,,,,,,,,0,0,0,1,0,0,0,0,0,47,47,47,,,,,,,,,,,,,,,,,,,,,,,,,,,,,,,,,,,,,,,,,,,,,,,,,,,,,,,,,,,,,,,,,,,,,,,,,,,,,,,1.26,616.5215525,None,space,1,0.2687578,617.8885541,None,617.8885541,None,617.8885541,None,,,,,,,,,,,P041,FENCOG,2,Pre,2022_May_09_1051,Go No-Go Task,2021.1.4,120.2525785
,"Rule: When you see a yellow image, do not press 'spacebar'.",Images/Fearful/AM03_FC.jpg,Fear,Yellow,Images/Yellow.jpg,None,ParentConditions/YellowYellowBlue_v2.xlsx,YellowYellowBlue,Conditions/Version_2/YellowFearStop.xlsx,yes,PASS,0.902115461,,,,,,,,,0,0,0,1,0,0,0,0,0,48,48,48,,,,,,,,,,,,,,,,,,,,,,,,,,,,,,,,,,,,,,,,,,,,,,,,,,,,,,,,,,,,,,,,,,,,,,,,,,,,,,,1.82,618.2874764,None,None,1,,620.213027,None,620.213027,None,620.213027,None,,,,,,,,,,,P041,FENCOG,2,Pre,2022_May_09_1051,Go No-Go Task,2021.1.4,120.2525785
,"Rule: When you see a yellow image, do not press 'spacebar'.",Images/Happy/HF04_HE.jpg,Happy,Blue,Images/Blue.jpg,space,ParentConditions/YellowYellowBlue_v2.xlsx,YellowYellowBlue,Conditions/Version_2/YellowFearStop.xlsx,no,PASS,0.682828264,,,,,,,,,0,0,0,1,0,0,0,0,0,49,49,49,,,,,,,,,,,,,,,,,,,,,,,,,,,,,,,,,,,,,,,,,,,,,,,,,,,,,,,,,,,,,,,,,,,,,,,,,,,,,,,1.61,620.6119055,None,space,1,0.2441761,622.337139,None,622.337139,None,622.337139,None,,,,,,,,,,,P041,FENCOG,2,Pre,2022_May_09_1051,Go No-Go Task,2021.1.4,120.2525785
,"Rule: When you see a yellow image, do not press 'spacebar'.",Images/Happy/AM17HAS.jpg,Happy,Blue,Images/Blue.jpg,space,ParentConditions/YellowYellowBlue_v2.xlsx,YellowYellowBlue,Conditions/Version_2/YellowFearStop.xlsx,no,PASS,0.772684013,,,,,,,,,0,0,0,1,0,0,0,0,0,50,50,50,,,,,,,,,,,,,,,,,,,,,,,,,,,,,,,,,,,,,,,,,,,,,,,,,,,,,,,,,,,,,,,,,,,,,,,,,,,,,,,1.34,622.7361211,None,space,1,0.2671694,624.1782768,None,624.1782768,None,624.1782768,None,,,,,,,,,,,P041,FENCOG,2,Pre,2022_May_09_1051,Go No-Go Task,2021.1.4,120.2525785
,"Rule: When you see a yellow image, do not press 'spacebar'.",Images/Fearful/BM01_FO.jpg,Fear,Yellow,Images/Yellow.jpg,None,ParentConditions/YellowYellowBlue_v2.xlsx,YellowYellowBlue,Conditions/Version_2/YellowFearStop.xlsx,yes,PASS,0.029850229,,,,,,,,,0,0,0,1,0,0,0,0,0,51,51,51,,,,,,,,,,,,,,,,,,,,,,,,,,,,,,,,,,,,,,,,,,,,,,,,,,,,,,,,,,,,,,,,,,,,,,,,,,,,,,,1.94,624.5773724,None,None,1,,626.6279494,None,626.6279494,None,626.6279494,None,,,,,,,,,,,P041,FENCOG,2,Pre,2022_May_09_1051,Go No-Go Task,2021.1.4,120.2525785
,"Rule: When you see a yellow image, do not press 'spacebar'.",Images/Happy/HF09_HE.jpg,Happy,Blue,Images/Blue.jpg,space,ParentConditions/YellowYellowBlue_v2.xlsx,YellowYellowBlue,Conditions/Version_2/YellowFearStop.xlsx,no,PASS,0.541629704,,,,,,,,,0,0,0,1,0,0,0,0,0,52,52,52,,,,,,,,,,,,,,,,,,,,,,,,,,,,,,,,,,,,,,,,,,,,,,,,,,,,,,,,,,,,,,,,,,,,,,,,,,,,,,,1.63,627.027524,None,space,1,0.2764223,628.7688995,None,628.7688995,None,628.7688995,None,,,,,,,,,,,P041,FENCOG,2,Pre,2022_May_09_1051,Go No-Go Task,2021.1.4,120.2525785
,"Rule: When you see a yellow image, do not press 'spacebar'.",Images/Happy/WF11_HE.jpg,Happy,Blue,Images/Blue.jpg,space,ParentConditions/YellowYellowBlue_v2.xlsx,YellowYellowBlue,Conditions/Version_2/YellowFearStop.xlsx,no,PASS,0.392339947,,,,,,,,,0,0,0,1,0,0,0,0,0,53,53,53,,,,,,,,,,,,,,,,,,,,,,,,,,,,,,,,,,,,,,,,,,,,,,,,,,,,,,,,,,,,,,,,,,,,,,,,,,,,,,,1.49,629.1679724,None,space,1,0.2532422,630.7683474,None,630.7683474,None,630.7683474,None,,,,,,,,,,,P041,FENCOG,2,Pre,2022_May_09_1051,Go No-Go Task,2021.1.4,120.2525785
,"Rule: When you see a yellow image, do not press 'spacebar'.",Images/Fearful/AM04AFS.jpg,Fear,Yellow,Images/Yellow.jpg,None,ParentConditions/YellowYellowBlue_v2.xlsx,YellowYellowBlue,Conditions/Version_2/YellowFearStop.xlsx,yes,PASS,0.710626374,,,,,,,,,0,0,0,1,0,0,0,0,0,54,54,54,,,,,,,,,,,,,,,,,,,,,,,,,,,,,,,,,,,,,,,,,,,,,,,,,,,,,,,,,,,,,,,,,,,,,,,,,,,,,,,1.83,631.1732589,None,None,1,,633.1176321,None,633.1176321,None,633.1176321,None,,,,,,,,,,,P041,FENCOG,2,Pre,2022_May_09_1051,Go No-Go Task,2021.1.4,120.2525785
,"Rule: When you see a yellow image, do not press 'spacebar'.",Images/Happy/AF19HAS.jpg,Happy,Blue,Images/Blue.jpg,space,ParentConditions/YellowYellowBlue_v2.xlsx,YellowYellowBlue,Conditions/Version_2/YellowFearStop.xlsx,no,PASS,0.341912898,,,,,,,,,0,0,0,1,0,0,0,0,0,55,55,55,,,,,,,,,,,,,,,,,,,,,,,,,,,,,,,,,,,,,,,,,,,,,,,,,,,,,,,,,,,,,,,,,,,,,,,,,,,,,,,1.93,633.5170655,None,space,1,0.2633654,635.5501828,None,635.5501828,None,635.5501828,None,,,,,,,,,,,P041,FENCOG,2,Pre,2022_May_09_1051,Go No-Go Task,2021.1.4,120.2525785
,"Rule: When you see a yellow image, do not press 'spacebar'.",Images/Happy/HM06_HO.jpg,Happy,Blue,Images/Blue.jpg,space,ParentConditions/YellowYellowBlue_v2.xlsx,YellowYellowBlue,Conditions/Version_2/YellowFearStop.xlsx,no,PASS,0.821515408,,,,,,,,,0,0,0,1,0,0,0,0,0,56,56,56,,,,,,,,,,,,,,,,,,,,,,,,,,,,,,,,,,,,,,,,,,,,,,,,,,,,,,,,,,,,,,,,,,,,,,,,,,,,,,,1.22,635.9494568,None,space,1,0.3227055,637.2748239,None,637.2748239,None,637.2748239,None,,,,,,,,,,,P041,FENCOG,2,Pre,2022_May_09_1051,Go No-Go Task,2021.1.4,120.2525785
,"Rule: When you see a yellow image, do not press 'spacebar'.",Images/Happy/HF05_HO.jpg,Happy,Blue,Images/Blue.jpg,space,ParentConditions/YellowYellowBlue_v2.xlsx,YellowYellowBlue,Conditions/Version_2/YellowFearStop.xlsx,no,PASS,0.441894519,,,,,,,,,0,0,0,1,0,0,0,0,0,57,57,57,,,,,,,,,,,,,,,,,,,,,,,,,,,,,,,,,,,,,,,,,,,,,,,,,,,,,,,,,,,,,,,,,,,,,,,,,,,,,,,1.46,637.6812973,None,space,1,0.3002862,639.2492166,None,639.2492166,None,639.2492166,None,,,,,,,,,,,P041,FENCOG,2,Pre,2022_May_09_1051,Go No-Go Task,2021.1.4,120.2525785
,"Rule: When you see a yellow image, do not press 'spacebar'.",Images/Fearful/AF01_FO.jpg,Fear,Yellow,Images/Yellow.jpg,None,ParentConditions/YellowYellowBlue_v2.xlsx,YellowYellowBlue,Conditions/Version_2/YellowFearStop.xlsx,yes,PASS,0.963026075,,,,,,,,,0,0,0,1,0,0,0,0,0,58,58,58,,,,,,,,,,,,,,,,,,,,,,,,,,,,,,,,,,,,,,,,,,,,,,,,,,,,,,,,,,,,,,,,,,,,,,,,,,,,,,,1.69,639.6478932,None,None,1,,641.4401639,None,641.4401639,None,641.4401639,None,,,,,,,,,,,P041,FENCOG,2,Pre,2022_May_09_1051,Go No-Go Task,2021.1.4,120.2525785
,"Rule: When you see a yellow image, do not press 'spacebar'.",Images/Happy/AF21HAS.jpg,Happy,Blue,Images/Blue.jpg,space,ParentConditions/YellowYellowBlue_v2.xlsx,YellowYellowBlue,Conditions/Version_2/YellowFearStop.xlsx,no,PASS,0.541097716,,,,,,,,,0,0,0,1,0,0,0,0,0,59,59,59,,,,,,,,,,,,,,,,,,,,,,,,,,,,,,,,,,,,,,,,,,,,,,,,,,,,,,,,,,,,,,,,,,,,,,,,,,,,,,,1.53,641.8394592,None,space,1,0.2682723,643.481229,None,643.481229,None,643.481229,None,,,,,,,,,,,P041,FENCOG,2,Pre,2022_May_09_1051,Go No-Go Task,2021.1.4,120.2525785
,"Rule: When you see a yellow image, do not press 'spacebar'.",Images/Happy/AM06_HC.jpg,Happy,Blue,Images/Blue.jpg,space,ParentConditions/YellowYellowBlue_v2.xlsx,YellowYellowBlue,Conditions/Version_2/YellowFearStop.xlsx,no,PASS,0.819545807,,,,,,,,,0,0,0,1,0,0,0,0,0,60,60,60,,,,,,,,,,,,,,,,,,,,,,,,,,,,,,,,,,,,,,,,,,,,,,,,,,,,,,,,,,,,,,,,,,,,,,,,,,,,,,,1.6,643.8812949,None,space,1,0.2884223,645.5973199,None,645.5973199,None,645.5973199,None,,,,,,,,,,,P041,FENCOG,2,Pre,2022_May_09_1051,Go No-Go Task,2021.1.4,120.2525785
,"Rule: When you see a yellow image, do not press 'spacebar'.",Images/Fearful/AF02AFS.jpg,Fear,Yellow,Images/Yellow.jpg,None,ParentConditions/YellowYellowBlue_v2.xlsx,YellowYellowBlue,Conditions/Version_2/YellowFearStop.xlsx,yes,PASS,0.434756054,,,,,,,,,0,0,0,1,0,0,0,0,0,61,61,61,,,,,,,,,,,,,,,,,,,,,,,,,,,,,,,,,,,,,,,,,,,,,,,,,,,,,,,,,,,,,,,,,,,,,,,,,,,,,,,1.97,645.9876685,None,space,0,0.3023873,648.0628458,None,648.0628458,None,648.0628458,None,,,,,,,,,,,P041,FENCOG,2,Pre,2022_May_09_1051,Go No-Go Task,2021.1.4,120.2525785
,"Rule: When you see a yellow image, do not press 'spacebar'.",Images/Happy/AF25HAS.jpg,Happy,Blue,Images/Blue.jpg,space,ParentConditions/YellowYellowBlue_v2.xlsx,YellowYellowBlue,Conditions/Version_2/YellowFearStop.xlsx,no,PASS,0.353445622,,,,,,,,,0,0,0,1,0,0,0,0,0,62,62,62,,,,,,,,,,,,,,,,,,,,,,,,,,,,,,,,,,,,,,,,,,,,,,,,,,,,,,,,,,,,,,,,,,,,,,,,,,,,,,,1.81,648.4620421,None,space,1,0.3065287,650.3788341,None,650.3788341,None,650.3788341,None,,,,,,,,,,,P041,FENCOG,2,Pre,2022_May_09_1051,Go No-Go Task,2021.1.4,120.2525785
,"Rule: When you see a yellow image, do not press 'spacebar'.",Images/Happy/AM32HAS.jpg,Happy,Blue,Images/Blue.jpg,space,ParentConditions/YellowYellowBlue_v2.xlsx,YellowYellowBlue,Conditions/Version_2/YellowFearStop.xlsx,no,PASS,0.108461568,,,,,,,,,0,0,0,1,0,0,0,0,0,63,63,63,,,,,,,,,,,,,,,,,,,,,,,,,,,,,,,,,,,,,,,,,,,,,,,,,,,,,,,,,,,,,,,,,,,,,,,,,,,,,,,1.73,650.7779357,None,space,1,0.2897916,652.6114637,None,652.6114637,None,652.6114637,None,,,,,,,,,,,P041,FENCOG,2,Pre,2022_May_09_1051,Go No-Go Task,2021.1.4,120.2525785
,"Rule: When you see a yellow image, do not press 'spacebar'.",Images/Fearful/AM02_FO.jpg,Fear,Yellow,Images/Yellow.jpg,None,ParentConditions/YellowYellowBlue_v2.xlsx,YellowYellowBlue,Conditions/Version_2/YellowFearStop.xlsx,yes,PASS,0.09349205,,,,,,,,,0,0,0,1,0,0,0,0,0,64,64,64,,,,,,,,,,,,,,,,,,,,,,,,,,,,,,,,,,,,,,,,,,,,,,,,,,,,,,,,,,,,,,,,,,,,,,,,,,,,,,,1.88,653.0106279,None,None,1,,654.9940999,None,654.9940999,None,654.9940999,None,,,,,,,,,,,P041,FENCOG,2,Pre,2022_May_09_1051,Go No-Go Task,2021.1.4,120.2525785
,"Rule: When you see a yellow image, do not press 'spacebar'.",Images/Fearful/BM02_FC.jpg,Fear,Yellow,Images/Yellow.jpg,None,ParentConditions/YellowYellowBlue_v2.xlsx,YellowYellowBlue,Conditions/Version_2/YellowFearStop.xlsx,yes,PASS,0.839077799,,,,,,,,,0,0,0,1,0,0,0,0,0,65,65,65,,,,,,,,,,,,,,,,,,,,,,,,,,,,,,,,,,,,,,,,,,,,,,,,,,,,,,,,,,,,,,,,,,,,,,,,,,,,,,,1.65,655.3932883,None,None,1,,657.1436308,None,657.1436308,None,657.1436308,None,,,,,,,,,,,P041,FENCOG,2,Pre,2022_May_09_1051,Go No-Go Task,2021.1.4,120.2525785
,"Rule: When you see a yellow image, do not press 'spacebar'.",Images/Happy/AM04_HE.jpg,Happy,Blue,Images/Blue.jpg,space,ParentConditions/YellowYellowBlue_v2.xlsx,YellowYellowBlue,Conditions/Version_2/YellowFearStop.xlsx,no,PASS,0.268677408,,,,,,,,,0,0,0,1,0,0,0,0,0,66,66,66,,,,,,,,,,,,,,,,,,,,,,,,,,,,,,,,,,,,,,,,,,,,,,,,,,,,,,,,,,,,,,,,,,,,,,,,,,,,,,,1.75,657.5426501,None,space,1,0.2604169,659.392806,None,659.392806,None,659.392806,None,,,,,,,,,,,P041,FENCOG,2,Pre,2022_May_09_1051,Go No-Go Task,2021.1.4,120.2525785
,"Rule: When you see a yellow image, do not press 'spacebar'.",Images/Fearful/AM05AFS.jpg,Fear,Yellow,Images/Yellow.jpg,None,ParentConditions/YellowYellowBlue_v2.xlsx,YellowYellowBlue,Conditions/Version_2/YellowFearStop.xlsx,yes,PASS,0.695126325,,,,,,,,,0,0,0,1,0,0,0,0,0,67,67,67,,,,,,,,,,,,,,,,,,,,,,,,,,,,,,,,,,,,,,,,,,,,,,,,,,,,,,,,,,,,,,,,,,,,,,,,,,,,,,,1.92,659.7919808,None,None,1,,661.8171674,None,661.8171674,None,661.8171674,None,,,,,,,,,,,P041,FENCOG,2,Pre,2022_May_09_1051,Go No-Go Task,2021.1.4,120.2525785
,"Rule: When you see a yellow image, do not press 'spacebar'.",Images/Happy/AF28HAS.jpg,Happy,Blue,Images/Blue.jpg,space,ParentConditions/YellowYellowBlue_v2.xlsx,YellowYellowBlue,Conditions/Version_2/YellowFearStop.xlsx,no,PASS,0.25032706,,,,,,,,,0,0,0,1,0,0,0,0,0,68,68,68,,,,,,,,,,,,,,,,,,,,,,,,,,,,,,,,,,,,,,,,,,,,,,,,,,,,,,,,,,,,,,,,,,,,,,,,,,,,,,,1.55,662.2161659,None,space,1,0.2908488,663.8665649,None,663.8665649,None,663.8665649,None,,,,,,,,,,,P041,FENCOG,2,Pre,2022_May_09_1051,Go No-Go Task,2021.1.4,120.2525785
,"Rule: When you see a yellow image, do not press 'spacebar'.",Images/Happy/AF07_HO.jpg,Happy,Blue,Images/Blue.jpg,space,ParentConditions/YellowYellowBlue_v2.xlsx,YellowYellowBlue,Conditions/Version_2/YellowFearStop.xlsx,no,PASS,0.293841477,,,,,,,,,0,0,0,1,0,0,0,0,0,69,69,69,,,,,,,,,,,,,,,,,,,,,,,,,,,,,,,,,,,,,,,,,,,,,,,,,,,,,,,,,,,,,,,,,,,,,,,,,,,,,,,1.29,664.2656192,None,space,1,0.299759,665.6576444,None,665.6576444,None,665.6576444,None,,,,,,,,,,,P041,FENCOG,2,Pre,2022_May_09_1051,Go No-Go Task,2021.1.4,120.2525785
,"Rule: When you see a yellow image, do not press 'spacebar'.",Images/Happy/BF14_HO.jpg,Happy,Blue,Images/Blue.jpg,space,ParentConditions/YellowYellowBlue_v2.xlsx,YellowYellowBlue,Conditions/Version_2/YellowFearStop.xlsx,no,PASS,0.404225194,,,,,,,,,0,0,0,1,0,0,0,0,0,70,70,70,,,,,,,,,,,,,,,,,,,,,,,,,,,,,,,,,,,,,,,,,,,,,,,,,,,,,,,,,,,,,,,,,,,,,,,,,,,,,,,1.33,666.0566932,None,space,1,0.2749514,667.4905214,None,667.4905214,None,667.4905214,None,,,,,,,,,,,P041,FENCOG,2,Pre,2022_May_09_1051,Go No-Go Task,2021.1.4,120.2525785
,"Rule: When you see a yellow image, do not press 'spacebar'.",Images/Fearful/AF07FS.jpg,Fear,Yellow,Images/Yellow.jpg,None,ParentConditions/YellowYellowBlue_v2.xlsx,YellowYellowBlue,Conditions/Version_2/YellowFearStop.xlsx,yes,PASS,0.705995446,,,,,,,,,0,0,0,1,0,0,0,0,0,71,71,71,,,,,,,,,,,,,,,,,,,,,,,,,,,,,,,,,,,,,,,,,,,,,,,,,,,,,,,,,,,,,,,,,,,,,,,,,,,,,,,1.51,667.8895176,None,None,1,,669.5067192,None,669.5067192,None,669.5067192,None,,,,,,,,,,,P041,FENCOG,2,Pre,2022_May_09_1051,Go No-Go Task,2021.1.4,120.2525785
,"Rule: When you see a yellow image, do not press 'spacebar'.",Images/Happy/AF32HAS.jpg,Happy,Blue,Images/Blue.jpg,space,ParentConditions/YellowYellowBlue_v2.xlsx,YellowYellowBlue,Conditions/Version_2/YellowFearStop.xlsx,no,PASS,0.650593213,,,,,,,,,0,0,0,1,0,0,0,0,0,72,72,72,,,,,,,,,,,,,,,,,,,,,,,,,,,,,,,,,,,,,,,,,,,,,,,,,,,,,,,,,,,,,,,,,,,,,,,,,,,,,,,1.47,669.9057676,None,space,1,0.2924129,671.4808956,None,671.4808956,None,671.4808956,None,,,,,,,,,,,P041,FENCOG,2,Pre,2022_May_09_1051,Go No-Go Task,2021.1.4,120.2525785
,"Rule: When you see a yellow image, do not press 'spacebar'.",Images/Happy/AF11HAS.jpg,Happy,Blue,Images/Blue.jpg,space,ParentConditions/YellowYellowBlue_v2.xlsx,YellowYellowBlue,Conditions/Version_2/YellowFearStop.xlsx,no,PASS,0.224139368,,,,,,,,,0,0,0,1,0,0,0,0,0,73,73,73,,,,,,,,,,,,,,,,,,,,,,,,,,,,,,,,,,,,,,,,,,,,,,,,,,,,,,,,,,,,,,,,,,,,,,,,,,,,,,,1.43,671.8800479,None,space,1,0.2876004,673.4137112,None,673.4137112,None,673.4137112,None,,,,,,,,,,,P041,FENCOG,2,Pre,2022_May_09_1051,Go No-Go Task,2021.1.4,120.2525785
,"Rule: When you see a yellow image, do not press 'spacebar'.",Images/Happy/AM19HAS.jpg,Happy,Blue,Images/Blue.jpg,space,ParentConditions/YellowYellowBlue_v2.xlsx,YellowYellowBlue,Conditions/Version_2/YellowFearStop.xlsx,no,PASS,0.536732863,,,,,,,,,0,0,0,1,0,0,0,0,0,74,74,74,,,,,,,,,,,,,,,,,,,,,,,,,,,,,,,,,,,,,,,,,,,,,,,,,,,,,,,,,,,,,,,,,,,,,,,,,,,,,,,1.2,673.8127374,None,space,1,0.2842137,675.1131615,None,675.1131615,None,675.1131615,None,,,,,,,,,,,P041,FENCOG,2,Pre,2022_May_09_1051,Go No-Go Task,2021.1.4,120.2525785
,"Rule: When you see a yellow image, do not press 'spacebar'.",Images/Happy/AM01HAS.jpg,Happy,Blue,Images/Blue.jpg,space,ParentConditions/YellowYellowBlue_v2.xlsx,YellowYellowBlue,Conditions/Version_2/YellowFearStop.xlsx,no,PASS,0.451223887,,,,,,,,,0,0,0,1,0,0,0,0,0,75,75,75,,,,,,,,,,,,,,,,,,,,,,,,,,,,,,,,,,,,,,,,,,,,,,,,,,,,,,,,,,,,,,,,,,,,,,,,,,,,,,,1.37,675.5122281,None,space,1,0.2976763,676.9876908,None,676.9876908,None,676.9876908,None,,,,,,,,,,,P041,FENCOG,2,Pre,2022_May_09_1051,Go No-Go Task,2021.1.4,120.2525785
,"Rule: When you see a yellow image, do not press 'spacebar'.",Images/Happy/WF05_HC.jpg,Happy,Blue,Images/Blue.jpg,space,ParentConditions/YellowYellowBlue_v2.xlsx,YellowYellowBlue,Conditions/Version_2/YellowFearStop.xlsx,no,PASS,0.768149926,,,,,,,,,0,0,0,1,0,0,0,0,0,76,76,76,,,,,,,,,,,,,,,,,,,,,,,,,,,,,,,,,,,,,,,,,,,,,,,,,,,,,,,,,,,,,,,,,,,,,,,,,,,,,,,1.57,677.3866947,None,space,1,0.2871823,679.0620854,None,679.0620854,None,679.0620854,None,,,,,,,,,,,P041,FENCOG,2,Pre,2022_May_09_1051,Go No-Go Task,2021.1.4,120.2525785
,"Rule: When you see a yellow image, do not press 'spacebar'.",Images/Happy/BM03_HO.jpg,Happy,Blue,Images/Blue.jpg,space,ParentConditions/YellowYellowBlue_v2.xlsx,YellowYellowBlue,Conditions/Version_2/YellowFearStop.xlsx,no,PASS,0.582404714,,,,,,,,,0,0,0,1,0,0,0,0,0,77,77,77,,,,,,,,,,,,,,,,,,,,,,,,,,,,,,,,,,,,,,,,,,,,,,,,,,,,,,,,,,,,,,,,,,,,,,,,,,,,,,,1.8,679.4611035,None,space,1,0.2680829,681.3612763,None,681.3612763,None,681.3612763,None,,,,,,,,,,,P041,FENCOG,2,Pre,2022_May_09_1051,Go No-Go Task,2021.1.4,120.2525785
,"Rule: When you see a yellow image, do not press 'spacebar'.",Images/Happy/AM02_HE.jpg,Happy,Blue,Images/Blue.jpg,space,ParentConditions/YellowYellowBlue_v2.xlsx,YellowYellowBlue,Conditions/Version_2/YellowFearStop.xlsx,no,PASS,0.879106835,,,,,,,,,0,0,0,1,0,0,0,0,0,78,78,78,,,,,,,,,,,,,,,,,,,,,,,,,,,,,,,,,,,,,,,,,,,,,,,,,,,,,,,,,,,,,,,,,,,,,,,,,,,,,,,1.4,681.7604779,None,space,1,0.2564565,683.2608213,None,683.2608213,None,683.2608213,None,,,,,,,,,,,P041,FENCOG,2,Pre,2022_May_09_1051,Go No-Go Task,2021.1.4,120.2525785
,"Rule: When you see a yellow image, do not press 'spacebar'.",Images/Fearful/AM06_FO.jpg,Fear,Yellow,Images/Yellow.jpg,None,ParentConditions/YellowYellowBlue_v2.xlsx,YellowYellowBlue,Conditions/Version_2/YellowFearStop.xlsx,yes,PASS,0.40627236,,,,,,,,,0,0,0,1,0,0,0,0,0,79,79,79,,,,,,,,,,,,,,,,,,,,,,,,,,,,,,,,,,,,,,,,,,,,,,,,,,,,,,,,,,,,,,,,,,,,,,,,,,,,,,,1.84,683.6598795,None,None,1,,685.601854,None,685.601854,None,685.601854,None,,,,,,,,,,,P041,FENCOG,2,Pre,2022_May_09_1051,Go No-Go Task,2021.1.4,120.2525785
,"Rule: When you see a yellow image, do not press 'spacebar'.",Images/Scram2/HM09_NC.jpg,Scramble,Blue,Images/Blue.jpg,space,ParentConditions/YellowYellowBlue_v2.xlsx,YellowYellowBlue,Conditions/Version_2/YellowScramStop.xlsx,no,PASS,0.467198202,,,,,,,,,0,0,0,1,0,1,1,1,0,0,0,0,,,,,,,,,,,,,,,,,,,,,,,,,,,,,,,,,,,,,,,,,,,,,,,,,,,,,,,,,,,,,,,,,699.8274903,None,702.821093,None,space,6.2242752,702.821093,None,699.8274903,None,699.8274903,None,699.8274903,None,1.66,709.0963065,None,space,1,0.2723169,710.8609407,None,710.8609407,None,710.8609407,None,686.0094513,None,space,13.3123806,686.5008658,None,686.0094513,None,686.0094513,None,P041,FENCOG,2,Pre,2022_May_09_1051,Go No-Go Task,2021.1.4,120.2525785
,"Rule: When you see a yellow image, do not press 'spacebar'.",Images/Scram2/HM06_NC.jpg,Scramble,Blue,Images/Blue.jpg,space,ParentConditions/YellowYellowBlue_v2.xlsx,YellowYellowBlue,Conditions/Version_2/YellowScramStop.xlsx,no,PASS,0.564231422,,,,,,,,,0,0,0,1,0,1,1,1,0,1,1,1,,,,,,,,,,,,,,,,,,,,,,,,,,,,,,,,,,,,,,,,,,,,,,,,,,,,,,,,,,,,,,,,,,,,,,,,,,,,,,,1.5,711.260032,None,space,1,0.3448001,712.8603693,None,712.8603693,None,712.8603693,None,,,,,,,,,,,P041,FENCOG,2,Pre,2022_May_09_1051,Go No-Go Task,2021.1.4,120.2525785
,"Rule: When you see a yellow image, do not press 'spacebar'.",Images/Scram1/AM31NES.jpg,Scramble,Blue,Images/Blue.jpg,space,ParentConditions/YellowYellowBlue_v2.xlsx,YellowYellowBlue,Conditions/Version_2/YellowScramStop.xlsx,no,PASS,0.846238331,,,,,,,,,0,0,0,1,0,1,1,1,0,2,2,2,,,,,,,,,,,,,,,,,,,,,,,,,,,,,,,,,,,,,,,,,,,,,,,,,,,,,,,,,,,,,,,,,,,,,,,,,,,,,,,1.53,713.2594372,None,space,1,0.2721303,714.8930755,None,714.8930755,None,714.8930755,None,,,,,,,,,,,P041,FENCOG,2,Pre,2022_May_09_1051,Go No-Go Task,2021.1.4,120.2525785
,"Rule: When you see a yellow image, do not press 'spacebar'.",Images/Scram2/AM03NES.jpg,Scramble,Yellow,Images/Yellow.jpg,None,ParentConditions/YellowYellowBlue_v2.xlsx,YellowYellowBlue,Conditions/Version_2/YellowScramStop.xlsx,yes,PASS,0.356648368,,,,,,,,,0,0,0,1,0,1,1,1,0,3,3,3,,,,,,,,,,,,,,,,,,,,,,,,,,,,,,,,,,,,,,,,,,,,,,,,,,,,,,,,,,,,,,,,,,,,,,,,,,,,,,,1.62,715.2922893,None,None,1,,717.0174874,None,717.0174874,None,717.0174874,None,,,,,,,,,,,P041,FENCOG,2,Pre,2022_May_09_1051,Go No-Go Task,2021.1.4,120.2525785
,"Rule: When you see a yellow image, do not press 'spacebar'.",Images/Scram2/BM01_NC.jpg,Scramble,Blue,Images/Blue.jpg,space,ParentConditions/YellowYellowBlue_v2.xlsx,YellowYellowBlue,Conditions/Version_2/YellowScramStop.xlsx,no,PASS,0.630051582,,,,,,,,,0,0,0,1,0,1,1,1,0,4,4,4,,,,,,,,,,,,,,,,,,,,,,,,,,,,,,,,,,,,,,,,,,,,,,,,,,,,,,,,,,,,,,,,,,,,,,,,,,,,,,,1.38,717.4165459,None,space,1,0.2650322,718.9002317,None,718.9002317,None,718.9002317,None,,,,,,,,,,,P041,FENCOG,2,Pre,2022_May_09_1051,Go No-Go Task,2021.1.4,120.2525785
,"Rule: When you see a yellow image, do not press 'spacebar'.",Images/Scram1/HM09_NC.jpg,Scramble,Blue,Images/Blue.jpg,space,ParentConditions/YellowYellowBlue_v2.xlsx,YellowYellowBlue,Conditions/Version_2/YellowScramStop.xlsx,no,PASS,0.968195201,,,,,,,,,0,0,0,1,0,1,1,1,0,5,5,5,,,,,,,,,,,,,,,,,,,,,,,,,,,,,,,,,,,,,,,,,,,,,,,,,,,,,,,,,,,,,,,,,,,,,,,,,,,,,,,1.75,719.299296,None,space,1,0.2554927,721.1496794,None,721.1496794,None,721.1496794,None,,,,,,,,,,,P041,FENCOG,2,Pre,2022_May_09_1051,Go No-Go Task,2021.1.4,120.2525785
,"Rule: When you see a yellow image, do not press 'spacebar'.",Images/Scram2/BF07_NC.jpg,Scramble,Blue,Images/Blue.jpg,space,ParentConditions/YellowYellowBlue_v2.xlsx,YellowYellowBlue,Conditions/Version_2/YellowScramStop.xlsx,no,PASS,0.216462677,,,,,,,,,0,0,0,1,0,1,1,1,0,6,6,6,,,,,,,,,,,,,,,,,,,,,,,,,,,,,,,,,,,,,,,,,,,,,,,,,,,,,,,,,,,,,,,,,,,,,,,,,,,,,,,1.65,721.5486538,None,space,1,0.2742701,723.2990067,None,723.2990067,None,723.2990067,None,,,,,,,,,,,P041,FENCOG,2,Pre,2022_May_09_1051,Go No-Go Task,2021.1.4,120.2525785
,"Rule: When you see a yellow image, do not press 'spacebar'.",Images/Scram1/BF14_NC.jpg,Scramble,Blue,Images/Blue.jpg,space,ParentConditions/YellowYellowBlue_v2.xlsx,YellowYellowBlue,Conditions/Version_2/YellowScramStop.xlsx,no,PASS,0.98466437,,,,,,,,,0,0,0,1,0,1,1,1,0,7,7,7,,,,,,,,,,,,,,,,,,,,,,,,,,,,,,,,,,,,,,,,,,,,,,,,,,,,,,,,,,,,,,,,,,,,,,,,,,,,,,,1.52,723.6980019,None,space,1,0.2502351,725.3234263,None,725.3234263,None,725.3234263,None,,,,,,,,,,,P041,FENCOG,2,Pre,2022_May_09_1051,Go No-Go Task,2021.1.4,120.2525785
,"Rule: When you see a yellow image, do not press 'spacebar'.",Images/Scram2/AF10_NC.jpg,Scramble,Blue,Images/Blue.jpg,space,ParentConditions/YellowYellowBlue_v2.xlsx,YellowYellowBlue,Conditions/Version_2/YellowScramStop.xlsx,no,PASS,0.244361435,,,,,,,,,0,0,0,1,0,1,1,1,0,8,8,8,,,,,,,,,,,,,,,,,,,,,,,,,,,,,,,,,,,,,,,,,,,,,,,,,,,,,,,,,,,,,,,,,,,,,,,,,,,,,,,1.49,725.7224178,None,space,1,0.3621209,727.3232643,None,727.3232643,None,727.3232643,None,,,,,,,,,,,P041,FENCOG,2,Pre,2022_May_09_1051,Go No-Go Task,2021.1.4,120.2525785
,"Rule: When you see a yellow image, do not press 'spacebar'.",Images/Scram2/AF01_NC.jpg,Scramble,Blue,Images/Blue.jpg,space,ParentConditions/YellowYellowBlue_v2.xlsx,YellowYellowBlue,Conditions/Version_2/YellowScramStop.xlsx,no,PASS,0.541807789,,,,,,,,,0,0,0,1,0,1,1,1,0,9,9,9,,,,,,,,,,,,,,,,,,,,,,,,,,,,,,,,,,,,,,,,,,,,,,,,,,,,,,,,,,,,,,,,,,,,,,,,,,,,,,,1.93,727.7256934,None,space,1,0.3050363,729.7641703,None,729.7641703,None,729.7641703,None,,,,,,,,,,,P041,FENCOG,2,Pre,2022_May_09_1051,Go No-Go Task,2021.1.4,120.2525785
,"Rule: When you see a yellow image, do not press 'spacebar'.",Images/Scram2/AF24NES.jpg,Scramble,Blue,Images/Blue.jpg,space,ParentConditions/YellowYellowBlue_v2.xlsx,YellowYellowBlue,Conditions/Version_2/YellowScramStop.xlsx,no,PASS,0.567934295,,,,,,,,,0,0,0,1,0,1,1,1,0,10,10,10,,,,,,,,,,,,,,,,,,,,,,,,,,,,,,,,,,,,,,,,,,,,,,,,,,,,,,,,,,,,,,,,,,,,,,,,,,,,,,,1.58,730.1629127,None,space,1,0.2547085,731.8468126,None,731.8468126,None,731.8468126,None,,,,,,,,,,,P041,FENCOG,2,Pre,2022_May_09_1051,Go No-Go Task,2021.1.4,120.2525785
,"Rule: When you see a yellow image, do not press 'spacebar'.",Images/Scram2/BF14_NC.jpg,Scramble,Blue,Images/Blue.jpg,space,ParentConditions/YellowYellowBlue_v2.xlsx,YellowYellowBlue,Conditions/Version_2/YellowScramStop.xlsx,no,PASS,0.88251792,,,,,,,,,0,0,0,1,0,1,1,1,0,11,11,11,,,,,,,,,,,,,,,,,,,,,,,,,,,,,,,,,,,,,,,,,,,,,,,,,,,,,,,,,,,,,,,,,,,,,,,,,,,,,,,1.4,732.2461065,None,space,1,0.259002,733.7545429,None,733.7545429,None,733.7545429,None,,,,,,,,,,,P041,FENCOG,2,Pre,2022_May_09_1051,Go No-Go Task,2021.1.4,120.2525785
,"Rule: When you see a yellow image, do not press 'spacebar'.",Images/Scram1/AM13NES.jpg,Scramble,Blue,Images/Blue.jpg,space,ParentConditions/YellowYellowBlue_v2.xlsx,YellowYellowBlue,Conditions/Version_2/YellowScramStop.xlsx,no,PASS,0.210436477,,,,,,,,,0,0,0,1,0,1,1,1,0,12,12,12,,,,,,,,,,,,,,,,,,,,,,,,,,,,,,,,,,,,,,,,,,,,,,,,,,,,,,,,,,,,,,,,,,,,,,,,,,,,,,,2,734.1537179,None,space,1,0.311255,736.2704895,None,736.2704895,None,736.2704895,None,,,,,,,,,,,P041,FENCOG,2,Pre,2022_May_09_1051,Go No-Go Task,2021.1.4,120.2525785
,"Rule: When you see a yellow image, do not press 'spacebar'.",Images/Scram1/HM04_NC.jpg,Scramble,Blue,Images/Blue.jpg,space,ParentConditions/YellowYellowBlue_v2.xlsx,YellowYellowBlue,Conditions/Version_2/YellowScramStop.xlsx,no,PASS,0.048118245,,,,,,,,,0,0,0,1,0,1,1,1,0,13,13,13,,,,,,,,,,,,,,,,,,,,,,,,,,,,,,,,,,,,,,,,,,,,,,,,,,,,,,,,,,,,,,,,,,,,,,,,,,,,,,,1.39,736.6650207,None,space,1,0.2197196,738.1699366,None,738.1699366,None,738.1699366,None,,,,,,,,,,,P041,FENCOG,2,Pre,2022_May_09_1051,Go No-Go Task,2021.1.4,120.2525785
,"Rule: When you see a yellow image, do not press 'spacebar'.",Images/Scram1/AM03NES.jpg,Scramble,Blue,Images/Blue.jpg,space,ParentConditions/YellowYellowBlue_v2.xlsx,YellowYellowBlue,Conditions/Version_2/YellowScramStop.xlsx,no,PASS,0.507240762,,,,,,,,,0,0,0,1,0,1,1,1,0,14,14,14,,,,,,,,,,,,,,,,,,,,,,,,,,,,,,,,,,,,,,,,,,,,,,,,,,,,,,,,,,,,,,,,,,,,,,,,,,,,,,,1.44,738.5696831,None,space,1,0.2705341,740.1111285,None,740.1111285,None,740.1111285,None,,,,,,,,,,,P041,FENCOG,2,Pre,2022_May_09_1051,Go No-Go Task,2021.1.4,120.2525785
,"Rule: When you see a yellow image, do not press 'spacebar'.",Images/Scram1/AM22NES.jpg,Scramble,Blue,Images/Blue.jpg,space,ParentConditions/YellowYellowBlue_v2.xlsx,YellowYellowBlue,Conditions/Version_2/YellowScramStop.xlsx,no,PASS,0.833273647,,,,,,,,,0,0,0,1,0,1,1,1,0,15,15,15,,,,,,,,,,,,,,,,,,,,,,,,,,,,,,,,,,,,,,,,,,,,,,,,,,,,,,,,,,,,,,,,,,,,,,,,,,,,,,,1.46,740.5124307,None,space,1,0.2302709,742.1271511,None,742.1271511,None,742.1271511,None,,,,,,,,,,,P041,FENCOG,2,Pre,2022_May_09_1051,Go No-Go Task,2021.1.4,120.2525785
,"Rule: When you see a yellow image, do not press 'spacebar'.",Images/Scram2/AM17NES.jpg,Scramble,Yellow,Images/Yellow.jpg,None,ParentConditions/YellowYellowBlue_v2.xlsx,YellowYellowBlue,Conditions/Version_2/YellowScramStop.xlsx,yes,PASS,0.552444031,,,,,,,,,0,0,0,1,0,1,1,1,0,16,16,16,,,,,,,,,,,,,,,,,,,,,,,,,,,,,,,,,,,,,,,,,,,,,,,,,,,,,,,,,,,,,,,,,,,,,,,,,,,,,,,1.76,742.4793994,None,None,1,,744.3516026,None,744.3516026,None,744.3516026,None,,,,,,,,,,,P041,FENCOG,2,Pre,2022_May_09_1051,Go No-Go Task,2021.1.4,120.2525785
,"Rule: When you see a yellow image, do not press 'spacebar'.",Images/Scram1/AM10NES.jpg,Scramble,Blue,Images/Blue.jpg,space,ParentConditions/YellowYellowBlue_v2.xlsx,YellowYellowBlue,Conditions/Version_2/YellowScramStop.xlsx,no,PASS,0.136997305,,,,,,,,,0,0,0,1,0,1,1,1,0,17,17,17,,,,,,,,,,,,,,,,,,,,,,,,,,,,,,,,,,,,,,,,,,,,,,,,,,,,,,,,,,,,,,,,,,,,,,,,,,,,,,,1.42,744.7432449,None,space,1,0.2574998,746.2760351,None,746.2760351,None,746.2760351,None,,,,,,,,,,,P041,FENCOG,2,Pre,2022_May_09_1051,Go No-Go Task,2021.1.4,120.2525785
,"Rule: When you see a yellow image, do not press 'spacebar'.",Images/Scram2/AM03_NC.jpg,Scramble,Yellow,Images/Yellow.jpg,None,ParentConditions/YellowYellowBlue_v2.xlsx,YellowYellowBlue,Conditions/Version_2/YellowScramStop.xlsx,yes,PASS,0.28869549,,,,,,,,,0,0,0,1,0,1,1,1,0,18,18,18,,,,,,,,,,,,,,,,,,,,,,,,,,,,,,,,,,,,,,,,,,,,,,,,,,,,,,,,,,,,,,,,,,,,,,,,,,,,,,,1.22,746.6748426,None,space,0,0.2930587,748.0004024,None,748.0004024,None,748.0004024,None,,,,,,,,,,,P041,FENCOG,2,Pre,2022_May_09_1051,Go No-Go Task,2021.1.4,120.2525785
,"Rule: When you see a yellow image, do not press 'spacebar'.",Images/Scram1/HF09_NC.jpg,Scramble,Blue,Images/Blue.jpg,space,ParentConditions/YellowYellowBlue_v2.xlsx,YellowYellowBlue,Conditions/Version_2/YellowScramStop.xlsx,no,PASS,0.521047178,,,,,,,,,0,0,0,1,0,1,1,1,0,19,19,19,,,,,,,,,,,,,,,,,,,,,,,,,,,,,,,,,,,,,,,,,,,,,,,,,,,,,,,,,,,,,,,,,,,,,,,,,,,,,,,1.68,748.4004797,None,space,1,0.294008,750.191458,None,750.191458,None,750.191458,None,,,,,,,,,,,P041,FENCOG,2,Pre,2022_May_09_1051,Go No-Go Task,2021.1.4,120.2525785
,"Rule: When you see a yellow image, do not press 'spacebar'.",Images/Scram1/BM08_NC.jpg,Scramble,Blue,Images/Blue.jpg,space,ParentConditions/YellowYellowBlue_v2.xlsx,YellowYellowBlue,Conditions/Version_2/YellowScramStop.xlsx,no,PASS,0.719220711,,,,,,,,,0,0,0,1,0,1,1,1,0,20,20,20,,,,,,,,,,,,,,,,,,,,,,,,,,,,,,,,,,,,,,,,,,,,,,,,,,,,,,,,,,,,,,,,,,,,,,,,,,,,,,,1.87,750.5935119,None,space,1,0.2794098,752.5741017,None,752.5741017,None,752.5741017,None,,,,,,,,,,,P041,FENCOG,2,Pre,2022_May_09_1051,Go No-Go Task,2021.1.4,120.2525785
,"Rule: When you see a yellow image, do not press 'spacebar'.",Images/Scram1/AF32NES.jpg,Scramble,Blue,Images/Blue.jpg,space,ParentConditions/YellowYellowBlue_v2.xlsx,YellowYellowBlue,Conditions/Version_2/YellowScramStop.xlsx,no,PASS,0.385670692,,,,,,,,,0,0,0,1,0,1,1,1,0,21,21,21,,,,,,,,,,,,,,,,,,,,,,,,,,,,,,,,,,,,,,,,,,,,,,,,,,,,,,,,,,,,,,,,,,,,,,,,,,,,,,,1.79,752.9712431,None,space,1,0.2687219,754.8730112,None,754.8730112,None,754.8730112,None,,,,,,,,,,,P041,FENCOG,2,Pre,2022_May_09_1051,Go No-Go Task,2021.1.4,120.2525785
,"Rule: When you see a yellow image, do not press 'spacebar'.",Images/Scram2/AM06_NC.jpg,Scramble,Yellow,Images/Yellow.jpg,None,ParentConditions/YellowYellowBlue_v2.xlsx,YellowYellowBlue,Conditions/Version_2/YellowScramStop.xlsx,yes,PASS,0.593844607,,,,,,,,,0,0,0,1,0,1,1,1,0,22,22,22,,,,,,,,,,,,,,,,,,,,,,,,,,,,,,,,,,,,,,,,,,,,,,,,,,,,,,,,,,,,,,,,,,,,,,,,,,,,,,,1.89,755.2704809,None,None,1,,757.272622,None,757.272622,None,757.272622,None,,,,,,,,,,,P041,FENCOG,2,Pre,2022_May_09_1051,Go No-Go Task,2021.1.4,120.2525785
,"Rule: When you see a yellow image, do not press 'spacebar'.",Images/Scram1/AM06_NC.jpg,Scramble,Blue,Images/Blue.jpg,space,ParentConditions/YellowYellowBlue_v2.xlsx,YellowYellowBlue,Conditions/Version_2/YellowScramStop.xlsx,no,PASS,0.559775199,,,,,,,,,0,0,0,1,0,1,1,1,0,23,23,23,,,,,,,,,,,,,,,,,,,,,,,,,,,,,,,,,,,,,,,,,,,,,,,,,,,,,,,,,,,,,,,,,,,,,,,,,,,,,,,1.3,757.663725,None,space,1,0.268967,759.080402,None,759.080402,None,759.080402,None,,,,,,,,,,,P041,FENCOG,2,Pre,2022_May_09_1051,Go No-Go Task,2021.1.4,120.2525785
,"Rule: When you see a yellow image, do not press 'spacebar'.",Images/Scram2/AM02_NC.jpg,Scramble,Yellow,Images/Yellow.jpg,None,ParentConditions/YellowYellowBlue_v2.xlsx,YellowYellowBlue,Conditions/Version_2/YellowScramStop.xlsx,yes,PASS,0.210145354,,,,,,,,,0,0,0,1,0,1,1,1,0,24,24,24,,,,,,,,,,,,,,,,,,,,,,,,,,,,,,,,,,,,,,,,,,,,,,,,,,,,,,,,,,,,,,,,,,,,,,,,,,,,,,,1.63,759.4710301,None,None,1,,761.2047713,None,761.2047713,None,761.2047713,None,,,,,,,,,,,P041,FENCOG,2,Pre,2022_May_09_1051,Go No-Go Task,2021.1.4,120.2525785
,"Rule: When you see a yellow image, do not press 'spacebar'.",Images/Scram2/HF05_NC.jpg,Scramble,Blue,Images/Blue.jpg,space,ParentConditions/YellowYellowBlue_v2.xlsx,YellowYellowBlue,Conditions/Version_2/YellowScramStop.xlsx,no,PASS,0.002509143,,,,,,,,,0,0,0,1,0,1,1,1,0,25,25,25,,,,,,,,,,,,,,,,,,,,,,,,,,,,,,,,,,,,,,,,,,,,,,,,,,,,,,,,,,,,,,,,,,,,,,,,,,,,,,,1.21,761.604929,None,space,1,0.2762618,762.9293018,None,762.9293018,None,762.9293018,None,,,,,,,,,,,P041,FENCOG,2,Pre,2022_May_09_1051,Go No-Go Task,2021.1.4,120.2525785
,"Rule: When you see a yellow image, do not press 'spacebar'.",Images/Scram2/AF32NES.jpg,Scramble,Yellow,Images/Yellow.jpg,None,ParentConditions/YellowYellowBlue_v2.xlsx,YellowYellowBlue,Conditions/Version_2/YellowScramStop.xlsx,yes,PASS,0.562163804,,,,,,,,,0,0,0,1,0,1,1,1,0,26,26,26,,,,,,,,,,,,,,,,,,,,,,,,,,,,,,,,,,,,,,,,,,,,,,,,,,,,,,,,,,,,,,,,,,,,,,,,,,,,,,,1.86,763.3283466,None,None,1,,765.2953181,None,765.2953181,None,765.2953181,None,,,,,,,,,,,P041,FENCOG,2,Pre,2022_May_09_1051,Go No-Go Task,2021.1.4,120.2525785
,"Rule: When you see a yellow image, do not press 'spacebar'.",Images/Scram2/HM04_NC.jpg,Scramble,Blue,Images/Blue.jpg,space,ParentConditions/YellowYellowBlue_v2.xlsx,YellowYellowBlue,Conditions/Version_2/YellowScramStop.xlsx,no,PASS,0.365696178,,,,,,,,,0,0,0,1,0,1,1,1,0,27,27,27,,,,,,,,,,,,,,,,,,,,,,,,,,,,,,,,,,,,,,,,,,,,,,,,,,,,,,,,,,,,,,,,,,,,,,,,,,,,,,,1.37,765.6978879,None,space,1,0.2674452,767.1781164,None,767.1781164,None,767.1781164,None,,,,,,,,,,,P041,FENCOG,2,Pre,2022_May_09_1051,Go No-Go Task,2021.1.4,120.2525785
,"Rule: When you see a yellow image, do not press 'spacebar'.",Images/Scram2/AF25NES.jpg,Scramble,Blue,Images/Blue.jpg,space,ParentConditions/YellowYellowBlue_v2.xlsx,YellowYellowBlue,Conditions/Version_2/YellowScramStop.xlsx,no,PASS,0.242967324,,,,,,,,,0,0,0,1,0,1,1,1,0,28,28,28,,,,,,,,,,,,,,,,,,,,,,,,,,,,,,,,,,,,,,,,,,,,,,,,,,,,,,,,,,,,,,,,,,,,,,,,,,,,,,,1.47,767.5766929,None,space,1,0.2769208,769.1605785,None,769.1605785,None,769.1605785,None,,,,,,,,,,,P041,FENCOG,2,Pre,2022_May_09_1051,Go No-Go Task,2021.1.4,120.2525785
,"Rule: When you see a yellow image, do not press 'spacebar'.",Images/Scram1/AF34NES.jpg,Scramble,Blue,Images/Blue.jpg,space,ParentConditions/YellowYellowBlue_v2.xlsx,YellowYellowBlue,Conditions/Version_2/YellowScramStop.xlsx,no,PASS,0.294797095,,,,,,,,,0,0,0,1,0,1,1,1,0,29,29,29,,,,,,,,,,,,,,,,,,,,,,,,,,,,,,,,,,,,,,,,,,,,,,,,,,,,,,,,,,,,,,,,,,,,,,,,,,,,,,,1.7,769.5597943,None,space,1,0.2851139,771.3685102,None,771.3685102,None,771.3685102,None,,,,,,,,,,,P041,FENCOG,2,Pre,2022_May_09_1051,Go No-Go Task,2021.1.4,120.2525785
,"Rule: When you see a yellow image, do not press 'spacebar'.",Images/Scram2/AF11NES.jpg,Scramble,Blue,Images/Blue.jpg,space,ParentConditions/YellowYellowBlue_v2.xlsx,YellowYellowBlue,Conditions/Version_2/YellowScramStop.xlsx,no,PASS,0.061126936,,,,,,,,,0,0,0,1,0,1,1,1,0,30,30,30,,,,,,,,,,,,,,,,,,,,,,,,,,,,,,,,,,,,,,,,,,,,,,,,,,,,,,,,,,,,,,,,,,,,,,,,,,,,,,,1.77,771.7676386,None,space,1,0.3143553,773.6594987,None,773.6594987,None,773.6594987,None,,,,,,,,,,,P041,FENCOG,2,Pre,2022_May_09_1051,Go No-Go Task,2021.1.4,120.2525785
,"Rule: When you see a yellow image, do not press 'spacebar'.",Images/Scram2/AF34NES.jpg,Scramble,Yellow,Images/Yellow.jpg,None,ParentConditions/YellowYellowBlue_v2.xlsx,YellowYellowBlue,Conditions/Version_2/YellowScramStop.xlsx,yes,PASS,0.36837427,,,,,,,,,0,0,0,1,0,1,1,1,0,31,31,31,,,,,,,,,,,,,,,,,,,,,,,,,,,,,,,,,,,,,,,,,,,,,,,,,,,,,,,,,,,,,,,,,,,,,,,,,,,,,,,1.33,774.0541845,None,None,1,,775.5004283,None,775.5004283,None,775.5004283,None,,,,,,,,,,,P041,FENCOG,2,Pre,2022_May_09_1051,Go No-Go Task,2021.1.4,120.2525785
,"Rule: When you see a yellow image, do not press 'spacebar'.",Images/Scram1/AM02_NC.jpg,Scramble,Blue,Images/Blue.jpg,space,ParentConditions/YellowYellowBlue_v2.xlsx,YellowYellowBlue,Conditions/Version_2/YellowScramStop.xlsx,no,PASS,0.700401743,,,,,,,,,0,0,0,1,0,1,1,1,0,32,32,32,,,,,,,,,,,,,,,,,,,,,,,,,,,,,,,,,,,,,,,,,,,,,,,,,,,,,,,,,,,,,,,,,,,,,,,,,,,,,,,1.25,775.9056013,None,space,1,0.2505581,777.266731,None,777.266731,None,777.266731,None,,,,,,,,,,,P041,FENCOG,2,Pre,2022_May_09_1051,Go No-Go Task,2021.1.4,120.2525785
,"Rule: When you see a yellow image, do not press 'spacebar'.",Images/Scram2/AM13NES.jpg,Scramble,Yellow,Images/Yellow.jpg,None,ParentConditions/YellowYellowBlue_v2.xlsx,YellowYellowBlue,Conditions/Version_2/YellowScramStop.xlsx,yes,PASS,0.703766843,,,,,,,,,0,0,0,1,0,1,1,1,0,33,33,33,,,,,,,,,,,,,,,,,,,,,,,,,,,,,,,,,,,,,,,,,,,,,,,,,,,,,,,,,,,,,,,,,,,,,,,,,,,,,,,1.74,777.6667448,None,None,1,,779.5160398,None,779.5160398,None,779.5160398,None,,,,,,,,,,,P041,FENCOG,2,Pre,2022_May_09_1051,Go No-Go Task,2021.1.4,120.2525785
,"Rule: When you see a yellow image, do not press 'spacebar'.",Images/Scram1/AM03_NC.jpg,Scramble,Blue,Images/Blue.jpg,space,ParentConditions/YellowYellowBlue_v2.xlsx,YellowYellowBlue,Conditions/Version_2/YellowScramStop.xlsx,no,PASS,0.139847361,,,,,,,,,0,0,0,1,0,1,1,1,0,34,34,34,,,,,,,,,,,,,,,,,,,,,,,,,,,,,,,,,,,,,,,,,,,,,,,,,,,,,,,,,,,,,,,,,,,,,,,,,,,,,,,1.98,779.9151447,None,space,1,0.2703768,782.0069984,None,782.0069984,None,782.0069984,None,,,,,,,,,,,P041,FENCOG,2,Pre,2022_May_09_1051,Go No-Go Task,2021.1.4,120.2525785
,"Rule: When you see a yellow image, do not press 'spacebar'.",Images/Scram1/AF33NES.jpg,Scramble,Blue,Images/Blue.jpg,space,ParentConditions/YellowYellowBlue_v2.xlsx,YellowYellowBlue,Conditions/Version_2/YellowScramStop.xlsx,no,PASS,0.747996868,,,,,,,,,0,0,0,1,0,1,1,1,0,35,35,35,,,,,,,,,,,,,,,,,,,,,,,,,,,,,,,,,,,,,,,,,,,,,,,,,,,,,,,,,,,,,,,,,,,,,,,,,,,,,,,1.91,782.410266,None,space,1,0.2701343,784.4312962,None,784.4312962,None,784.4312962,None,,,,,,,,,,,P041,FENCOG,2,Pre,2022_May_09_1051,Go No-Go Task,2021.1.4,120.2525785
,"Rule: When you see a yellow image, do not press 'spacebar'.",Images/Scram1/BF10_NC.jpg,Scramble,Blue,Images/Blue.jpg,space,ParentConditions/YellowYellowBlue_v2.xlsx,YellowYellowBlue,Conditions/Version_2/YellowScramStop.xlsx,no,PASS,0.522563927,,,,,,,,,0,0,0,1,0,1,1,1,0,36,36,36,,,,,,,,,,,,,,,,,,,,,,,,,,,,,,,,,,,,,,,,,,,,,,,,,,,,,,,,,,,,,,,,,,,,,,,,,,,,,,,1.81,784.8302711,None,space,1,0.3216737,786.7556392,None,786.7556392,None,786.7556392,None,,,,,,,,,,,P041,FENCOG,2,Pre,2022_May_09_1051,Go No-Go Task,2021.1.4,120.2525785
,"Rule: When you see a yellow image, do not press 'spacebar'.",Images/Scram1/AF07_NC.jpg,Scramble,Blue,Images/Blue.jpg,space,ParentConditions/YellowYellowBlue_v2.xlsx,YellowYellowBlue,Conditions/Version_2/YellowScramStop.xlsx,no,PASS,0.522100253,,,,,,,,,0,0,0,1,0,1,1,1,0,37,37,37,,,,,,,,,,,,,,,,,,,,,,,,,,,,,,,,,,,,,,,,,,,,,,,,,,,,,,,,,,,,,,,,,,,,,,,,,,,,,,,1.9,787.1544667,None,space,1,0.2979851,789.1632277,None,789.1632277,None,789.1632277,None,,,,,,,,,,,P041,FENCOG,2,Pre,2022_May_09_1051,Go No-Go Task,2021.1.4,120.2525785
,"Rule: When you see a yellow image, do not press 'spacebar'.",Images/Scram2/AM23NES.jpg,Scramble,Yellow,Images/Yellow.jpg,None,ParentConditions/YellowYellowBlue_v2.xlsx,YellowYellowBlue,Conditions/Version_2/YellowScramStop.xlsx,yes,PASS,0.181954991,,,,,,,,,0,0,0,1,0,1,1,1,0,38,38,38,,,,,,,,,,,,,,,,,,,,,,,,,,,,,,,,,,,,,,,,,,,,,,,,,,,,,,,,,,,,,,,,,,,,,,,,,,,,,,,1.48,789.5629752,None,None,1,,791.1542723,None,791.1542723,None,791.1542723,None,,,,,,,,,,,P041,FENCOG,2,Pre,2022_May_09_1051,Go No-Go Task,2021.1.4,120.2525785
,"Rule: When you see a yellow image, do not press 'spacebar'.",Images/Scram1/AF24NES.jpg,Scramble,Blue,Images/Blue.jpg,space,ParentConditions/YellowYellowBlue_v2.xlsx,YellowYellowBlue,Conditions/Version_2/YellowScramStop.xlsx,no,PASS,0.664038939,,,,,,,,,0,0,0,1,0,1,1,1,0,39,39,39,,,,,,,,,,,,,,,,,,,,,,,,,,,,,,,,,,,,,,,,,,,,,,,,,,,,,,,,,,,,,,,,,,,,,,,,,,,,,,,1.35,791.5585137,None,space,1,0.2487631,793.0287795,None,793.0287795,None,793.0287795,None,,,,,,,,,,,P041,FENCOG,2,Pre,2022_May_09_1051,Go No-Go Task,2021.1.4,120.2525785
,"Rule: When you see a yellow image, do not press 'spacebar'.",Images/Scram2/AF33NES.jpg,Scramble,Yellow,Images/Yellow.jpg,None,ParentConditions/YellowYellowBlue_v2.xlsx,YellowYellowBlue,Conditions/Version_2/YellowScramStop.xlsx,yes,PASS,0.620382602,,,,,,,,,0,0,0,1,0,1,1,1,0,40,40,40,,,,,,,,,,,,,,,,,,,,,,,,,,,,,,,,,,,,,,,,,,,,,,,,,,,,,,,,,,,,,,,,,,,,,,,,,,,,,,,1.95,793.4195625,None,None,1,,795.4780038,None,795.4780038,None,795.4780038,None,,,,,,,,,,,P041,FENCOG,2,Pre,2022_May_09_1051,Go No-Go Task,2021.1.4,120.2525785
,"Rule: When you see a yellow image, do not press 'spacebar'.",Images/Scram1/AF25NES.jpg,Scramble,Blue,Images/Blue.jpg,space,ParentConditions/YellowYellowBlue_v2.xlsx,YellowYellowBlue,Conditions/Version_2/YellowScramStop.xlsx,no,PASS,0.051415465,,,,,,,,,0,0,0,1,0,1,1,1,0,41,41,41,,,,,,,,,,,,,,,,,,,,,,,,,,,,,,,,,,,,,,,,,,,,,,,,,,,,,,,,,,,,,,,,,,,,,,,,,,,,,,,1.41,795.8768931,None,space,1,0.234966,797.4025354,None,797.4025354,None,797.4025354,None,,,,,,,,,,,P041,FENCOG,2,Pre,2022_May_09_1051,Go No-Go Task,2021.1.4,120.2525785
,"Rule: When you see a yellow image, do not press 'spacebar'.",Images/Scram2/AM10NES.jpg,Scramble,Yellow,Images/Yellow.jpg,None,ParentConditions/YellowYellowBlue_v2.xlsx,YellowYellowBlue,Conditions/Version_2/YellowScramStop.xlsx,yes,PASS,0.126774301,,,,,,,,,0,0,0,1,0,1,1,1,0,42,42,42,,,,,,,,,,,,,,,,,,,,,,,,,,,,,,,,,,,,,,,,,,,,,,,,,,,,,,,,,,,,,,,,,,,,,,,,,,,,,,,1.43,797.7986856,None,None,1,,799.3352601,None,799.3352601,None,799.3352601,None,,,,,,,,,,,P041,FENCOG,2,Pre,2022_May_09_1051,Go No-Go Task,2021.1.4,120.2525785
,"Rule: When you see a yellow image, do not press 'spacebar'.",Images/Scram2/BF10_NC.jpg,Scramble,Blue,Images/Blue.jpg,space,ParentConditions/YellowYellowBlue_v2.xlsx,YellowYellowBlue,Conditions/Version_2/YellowScramStop.xlsx,no,PASS,0.220165605,,,,,,,,,0,0,0,1,0,1,1,1,0,43,43,43,,,,,,,,,,,,,,,,,,,,,,,,,,,,,,,,,,,,,,,,,,,,,,,,,,,,,,,,,,,,,,,,,,,,,,,,,,,,,,,1.45,799.7352246,None,space,1,0.2644761,801.2930348,None,801.2930348,None,801.2930348,None,,,,,,,,,,,P041,FENCOG,2,Pre,2022_May_09_1051,Go No-Go Task,2021.1.4,120.2525785
,"Rule: When you see a yellow image, do not press 'spacebar'.",Images/Scram1/BF18_NC.jpg,Scramble,Blue,Images/Blue.jpg,space,ParentConditions/YellowYellowBlue_v2.xlsx,YellowYellowBlue,Conditions/Version_2/YellowScramStop.xlsx,no,PASS,0.11487632,,,,,,,,,0,0,0,1,0,1,1,1,0,44,44,44,,,,,,,,,,,,,,,,,,,,,,,,,,,,,,,,,,,,,,,,,,,,,,,,,,,,,,,,,,,,,,,,,,,,,,,,,,,,,,,1.8,801.6923233,None,space,1,0.2777923,803.5922839,None,803.5922839,None,803.5922839,None,,,,,,,,,,,P041,FENCOG,2,Pre,2022_May_09_1051,Go No-Go Task,2021.1.4,120.2525785
,"Rule: When you see a yellow image, do not press 'spacebar'.",Images/Scram2/HF09_NC.jpg,Scramble,Blue,Images/Blue.jpg,space,ParentConditions/YellowYellowBlue_v2.xlsx,YellowYellowBlue,Conditions/Version_2/YellowScramStop.xlsx,no,PASS,0.20475492,,,,,,,,,0,0,0,1,0,1,1,1,0,45,45,45,,,,,,,,,,,,,,,,,,,,,,,,,,,,,,,,,,,,,,,,,,,,,,,,,,,,,,,,,,,,,,,,,,,,,,,,,,,,,,,1.56,803.9966697,None,space,1,0.2666075,805.6667244,None,805.6667244,None,805.6667244,None,,,,,,,,,,,P041,FENCOG,2,Pre,2022_May_09_1051,Go No-Go Task,2021.1.4,120.2525785
,"Rule: When you see a yellow image, do not press 'spacebar'.",Images/Scram1/BF05_NC.jpg,Scramble,Blue,Images/Blue.jpg,space,ParentConditions/YellowYellowBlue_v2.xlsx,YellowYellowBlue,Conditions/Version_2/YellowScramStop.xlsx,no,PASS,0.668549712,,,,,,,,,0,0,0,1,0,1,1,1,0,46,46,46,,,,,,,,,,,,,,,,,,,,,,,,,,,,,,,,,,,,,,,,,,,,,,,,,,,,,,,,,,,,,,,,,,,,,,,,,,,,,,,1.2,806.0657782,None,space,1,0.2393019,807.3661632,None,807.3661632,None,807.3661632,None,,,,,,,,,,,P041,FENCOG,2,Pre,2022_May_09_1051,Go No-Go Task,2021.1.4,120.2525785
,"Rule: When you see a yellow image, do not press 'spacebar'.",Images/Scram1/AM17NES.jpg,Scramble,Blue,Images/Blue.jpg,space,ParentConditions/YellowYellowBlue_v2.xlsx,YellowYellowBlue,Conditions/Version_2/YellowScramStop.xlsx,no,PASS,0.557554983,,,,,,,,,0,0,0,1,0,1,1,1,0,47,47,47,,,,,,,,,,,,,,,,,,,,,,,,,,,,,,,,,,,,,,,,,,,,,,,,,,,,,,,,,,,,,,,,,,,,,,,,,,,,,,,1.28,807.7714271,None,space,1,0.3355709,809.1658029,None,809.1658029,None,809.1658029,None,,,,,,,,,,,P041,FENCOG,2,Pre,2022_May_09_1051,Go No-Go Task,2021.1.4,120.2525785
,"Rule: When you see a yellow image, do not press 'spacebar'.",Images/Scram2/AM09_NC.jpg,Scramble,Yellow,Images/Yellow.jpg,None,ParentConditions/YellowYellowBlue_v2.xlsx,YellowYellowBlue,Conditions/Version_2/YellowScramStop.xlsx,yes,PASS,0.084904739,,,,,,,,,0,0,0,1,0,1,1,1,0,48,48,48,,,,,,,,,,,,,,,,,,,,,,,,,,,,,,,,,,,,,,,,,,,,,,,,,,,,,,,,,,,,,,,,,,,,,,,,,,,,,,,1.99,809.5645745,None,None,1,,811.6565707,None,811.6565707,None,811.6565707,None,,,,,,,,,,,P041,FENCOG,2,Pre,2022_May_09_1051,Go No-Go Task,2021.1.4,120.2525785
,"Rule: When you see a yellow image, do not press 'spacebar'.",Images/Scram2/AF09NES.jpg,Scramble,Blue,Images/Blue.jpg,space,ParentConditions/YellowYellowBlue_v2.xlsx,YellowYellowBlue,Conditions/Version_2/YellowScramStop.xlsx,no,PASS,0.851192202,,,,,,,,,0,0,0,1,0,1,1,1,0,49,49,49,,,,,,,,,,,,,,,,,,,,,,,,,,,,,,,,,,,,,,,,,,,,,,,,,,,,,,,,,,,,,,,,,,,,,,,,,,,,,,,1.61,812.0574353,None,space,1,0.2327883,813.7726291,None,813.7726291,None,813.7726291,None,,,,,,,,,,,P041,FENCOG,2,Pre,2022_May_09_1051,Go No-Go Task,2021.1.4,120.2525785
,"Rule: When you see a yellow image, do not press 'spacebar'.",Images/Scram2/AM04_NC.jpg,Scramble,Yellow,Images/Yellow.jpg,None,ParentConditions/YellowYellowBlue_v2.xlsx,YellowYellowBlue,Conditions/Version_2/YellowScramStop.xlsx,yes,PASS,0.971173892,,,,,,,,,0,0,0,1,0,1,1,1,0,50,50,50,,,,,,,,,,,,,,,,,,,,,,,,,,,,,,,,,,,,,,,,,,,,,,,,,,,,,,,,,,,,,,,,,,,,,,,,,,,,,,,1.72,814.1733762,None,None,1,,816.021959,None,816.021959,None,816.021959,None,,,,,,,,,,,P041,FENCOG,2,Pre,2022_May_09_1051,Go No-Go Task,2021.1.4,120.2525785
,"Rule: When you see a yellow image, do not press 'spacebar'.",Images/Scram2/BF05_NC.jpg,Scramble,Yellow,Images/Yellow.jpg,None,ParentConditions/YellowYellowBlue_v2.xlsx,YellowYellowBlue,Conditions/Version_2/YellowScramStop.xlsx,yes,PASS,0.368466089,,,,,,,,,0,0,0,1,0,1,1,1,0,51,51,51,,,,,,,,,,,,,,,,,,,,,,,,,,,,,,,,,,,,,,,,,,,,,,,,,,,,,,,,,,,,,,,,,,,,,,,,,,,,,,,1.24,816.4045909,None,space,0,0.2506144,817.7547959,None,817.7547959,None,817.7547959,None,,,,,,,,,,,P041,FENCOG,2,Pre,2022_May_09_1051,Go No-Go Task,2021.1.4,120.2525785
,"Rule: When you see a yellow image, do not press 'spacebar'.",Images/Scram1/HM06_NC.jpg,Scramble,Blue,Images/Blue.jpg,space,ParentConditions/YellowYellowBlue_v2.xlsx,YellowYellowBlue,Conditions/Version_2/YellowScramStop.xlsx,no,PASS,0.5754529,,,,,,,,,0,0,0,1,0,1,1,1,0,52,52,52,,,,,,,,,,,,,,,,,,,,,,,,,,,,,,,,,,,,,,,,,,,,,,,,,,,,,,,,,,,,,,,,,,,,,,,,,,,,,,,1.27,818.1511296,None,space,1,0.2525499,819.520884,None,819.520884,None,819.520884,None,,,,,,,,,,,P041,FENCOG,2,Pre,2022_May_09_1051,Go No-Go Task,2021.1.4,120.2525785
,"Rule: When you see a yellow image, do not press 'spacebar'.",Images/Scram2/AF07NES.jpg,Scramble,Blue,Images/Blue.jpg,space,ParentConditions/YellowYellowBlue_v2.xlsx,YellowYellowBlue,Conditions/Version_2/YellowScramStop.xlsx,no,PASS,0.507777947,,,,,,,,,0,0,0,1,0,1,1,1,0,53,53,53,,,,,,,,,,,,,,,,,,,,,,,,,,,,,,,,,,,,,,,,,,,,,,,,,,,,,,,,,,,,,,,,,,,,,,,,,,,,,,,1.31,819.9263988,None,space,1,0.2927117,821.3366566,None,821.3366566,None,821.3366566,None,,,,,,,,,,,P041,FENCOG,2,Pre,2022_May_09_1051,Go No-Go Task,2021.1.4,120.2525785
,"Rule: When you see a yellow image, do not press 'spacebar'.",Images/Scram1/BM01_NC.jpg,Scramble,Blue,Images/Blue.jpg,space,ParentConditions/YellowYellowBlue_v2.xlsx,YellowYellowBlue,Conditions/Version_2/YellowScramStop.xlsx,no,PASS,0.616228629,,,,,,,,,0,0,0,1,0,1,1,1,0,54,54,54,,,,,,,,,,,,,,,,,,,,,,,,,,,,,,,,,,,,,,,,,,,,,,,,,,,,,,,,,,,,,,,,,,,,,,,,,,,,,,,1.64,821.7378905,None,space,1,0.2475467,823.4780751,None,823.4780751,None,823.4780751,None,,,,,,,,,,,P041,FENCOG,2,Pre,2022_May_09_1051,Go No-Go Task,2021.1.4,120.2525785
,"Rule: When you see a yellow image, do not press 'spacebar'.",Images/Scram2/AF07_NC.jpg,Scramble,Blue,Images/Blue.jpg,space,ParentConditions/YellowYellowBlue_v2.xlsx,YellowYellowBlue,Conditions/Version_2/YellowScramStop.xlsx,no,PASS,0.139477545,,,,,,,,,0,0,0,1,0,1,1,1,0,55,55,55,,,,,,,,,,,,,,,,,,,,,,,,,,,,,,,,,,,,,,,,,,,,,,,,,,,,,,,,,,,,,,,,,,,,,,,,,,,,,,,1.32,823.8776491,None,space,1,0.2467185,825.3108226,None,825.3108226,None,825.3108226,None,,,,,,,,,,,P041,FENCOG,2,Pre,2022_May_09_1051,Go No-Go Task,2021.1.4,120.2525785
,"Rule: When you see a yellow image, do not press 'spacebar'.",Images/Scram1/AF10_NC.jpg,Scramble,Blue,Images/Blue.jpg,space,ParentConditions/YellowYellowBlue_v2.xlsx,YellowYellowBlue,Conditions/Version_2/YellowScramStop.xlsx,no,PASS,0.816406664,,,,,,,,,0,0,0,1,0,1,1,1,0,56,56,56,,,,,,,,,,,,,,,,,,,,,,,,,,,,,,,,,,,,,,,,,,,,,,,,,,,,,,,,,,,,,,,,,,,,,,,,,,,,,,,1.51,825.7097879,None,space,1,0.2381416,827.3352511,None,827.3352511,None,827.3352511,None,,,,,,,,,,,P041,FENCOG,2,Pre,2022_May_09_1051,Go No-Go Task,2021.1.4,120.2525785
,"Rule: When you see a yellow image, do not press 'spacebar'.",Images/Scram1/AM09NES.jpg,Scramble,Blue,Images/Blue.jpg,space,ParentConditions/YellowYellowBlue_v2.xlsx,YellowYellowBlue,Conditions/Version_2/YellowScramStop.xlsx,no,PASS,0.22221234,,,,,,,,,0,0,0,1,0,1,1,1,0,57,57,57,,,,,,,,,,,,,,,,,,,,,,,,,,,,,,,,,,,,,,,,,,,,,,,,,,,,,,,,,,,,,,,,,,,,,,,,,,,,,,,1.29,827.7341485,None,space,1,0.2627059,829.1347302,None,829.1347302,None,829.1347302,None,,,,,,,,,,,P041,FENCOG,2,Pre,2022_May_09_1051,Go No-Go Task,2021.1.4,120.2525785
,"Rule: When you see a yellow image, do not press 'spacebar'.",Images/Scram1/AF01_NC.jpg,Scramble,Blue,Images/Blue.jpg,space,ParentConditions/YellowYellowBlue_v2.xlsx,YellowYellowBlue,Conditions/Version_2/YellowScramStop.xlsx,no,PASS,0.246774092,,,,,,,,,0,0,0,1,0,1,1,1,0,58,58,58,,,,,,,,,,,,,,,,,,,,,,,,,,,,,,,,,,,,,,,,,,,,,,,,,,,,,,,,,,,,,,,,,,,,,,,,,,,,,,,1.96,829.5392547,None,space,1,0.3244115,831.6090069,None,831.6090069,None,831.6090069,None,,,,,,,,,,,P041,FENCOG,2,Pre,2022_May_09_1051,Go No-Go Task,2021.1.4,120.2525785
,"Rule: When you see a yellow image, do not press 'spacebar'.",Images/Scram1/AM09_NC.jpg,Scramble,Blue,Images/Blue.jpg,space,ParentConditions/YellowYellowBlue_v2.xlsx,YellowYellowBlue,Conditions/Version_2/YellowScramStop.xlsx,no,PASS,0.094765065,,,,,,,,,0,0,0,1,0,1,1,1,0,59,59,59,,,,,,,,,,,,,,,,,,,,,,,,,,,,,,,,,,,,,,,,,,,,,,,,,,,,,,,,,,,,,,,,,,,,,,,,,,,,,,,1.94,832.0079589,None,space,1,0.2990361,834.0665977,None,834.0665977,None,834.0665977,None,,,,,,,,,,,P041,FENCOG,2,Pre,2022_May_09_1051,Go No-Go Task,2021.1.4,120.2525785
,"Rule: When you see a yellow image, do not press 'spacebar'.",Images/Scram1/AF11NES.jpg,Scramble,Blue,Images/Blue.jpg,space,ParentConditions/YellowYellowBlue_v2.xlsx,YellowYellowBlue,Conditions/Version_2/YellowScramStop.xlsx,no,PASS,0.816203215,,,,,,,,,0,0,0,1,0,1,1,1,0,60,60,60,,,,,,,,,,,,,,,,,,,,,,,,,,,,,,,,,,,,,,,,,,,,,,,,,,,,,,,,,,,,,,,,,,,,,,,,,,,,,,,1.84,834.4573981,None,space,1,0.2297555,836.4076363,None,836.4076363,None,836.4076363,None,,,,,,,,,,,P041,FENCOG,2,Pre,2022_May_09_1051,Go No-Go Task,2021.1.4,120.2525785
,"Rule: When you see a yellow image, do not press 'spacebar'.",Images/Scram1/BF07_NC.jpg,Scramble,Blue,Images/Blue.jpg,space,ParentConditions/YellowYellowBlue_v2.xlsx,YellowYellowBlue,Conditions/Version_2/YellowScramStop.xlsx,no,PASS,0.861380317,,,,,,,,,0,0,0,1,0,1,1,1,0,61,61,61,,,,,,,,,,,,,,,,,,,,,,,,,,,,,,,,,,,,,,,,,,,,,,,,,,,,,,,,,,,,,,,,,,,,,,,,,,,,,,,1.78,836.8065468,None,space,1,0.2427906,838.6986097,None,838.6986097,None,838.6986097,None,,,,,,,,,,,P041,FENCOG,2,Pre,2022_May_09_1051,Go No-Go Task,2021.1.4,120.2525785
,"Rule: When you see a yellow image, do not press 'spacebar'.",Images/Scram2/AM34NES.JPG,Scramble,Yellow,Images/Yellow.jpg,None,ParentConditions/YellowYellowBlue_v2.xlsx,YellowYellowBlue,Conditions/Version_2/YellowScramStop.xlsx,yes,PASS,0.763888663,,,,,,,,,0,0,0,1,0,1,1,1,0,62,62,62,,,,,,,,,,,,,,,,,,,,,,,,,,,,,,,,,,,,,,,,,,,,,,,,,,,,,,,,,,,,,,,,,,,,,,,,,,,,,,,1.59,839.1007014,None,space,0,0.2152777,840.8063729,None,840.8063729,None,840.8063729,None,,,,,,,,,,,P041,FENCOG,2,Pre,2022_May_09_1051,Go No-Go Task,2021.1.4,120.2525785
,"Rule: When you see a yellow image, do not press 'spacebar'.",Images/Scram1/AM04_NC.jpg,Scramble,Blue,Images/Blue.jpg,space,ParentConditions/YellowYellowBlue_v2.xlsx,YellowYellowBlue,Conditions/Version_2/YellowScramStop.xlsx,no,PASS,0.164498839,,,,,,,,,0,0,0,1,0,1,1,1,0,63,63,63,,,,,,,,,,,,,,,,,,,,,,,,,,,,,,,,,,,,,,,,,,,,,,,,,,,,,,,,,,,,,,,,,,,,,,,,,,,,,,,1.67,841.2053928,None,space,1,0.3047837,842.9806453,None,842.9806453,None,842.9806453,None,,,,,,,,,,,P041,FENCOG,2,Pre,2022_May_09_1051,Go No-Go Task,2021.1.4,120.2525785
,"Rule: When you see a yellow image, do not press 'spacebar'.",Images/Scram1/AM23NES.jpg,Scramble,Blue,Images/Blue.jpg,space,ParentConditions/YellowYellowBlue_v2.xlsx,YellowYellowBlue,Conditions/Version_2/YellowScramStop.xlsx,no,PASS,0.89755373,,,,,,,,,0,0,0,1,0,1,1,1,0,64,64,64,,,,,,,,,,,,,,,,,,,,,,,,,,,,,,,,,,,,,,,,,,,,,,,,,,,,,,,,,,,,,,,,,,,,,,,,,,,,,,,1.82,843.3798717,None,space,1,0.3159881,845.3133437,None,845.3133437,None,845.3133437,None,,,,,,,,,,,P041,FENCOG,2,Pre,2022_May_09_1051,Go No-Go Task,2021.1.4,120.2525785
,"Rule: When you see a yellow image, do not press 'spacebar'.",Images/Scram2/HF10_NO.jpg,Scramble,Blue,Images/Blue.jpg,space,ParentConditions/YellowYellowBlue_v2.xlsx,YellowYellowBlue,Conditions/Version_2/YellowScramStop.xlsx,no,PASS,0.213307383,,,,,,,,,0,0,0,1,0,1,1,1,0,65,65,65,,,,,,,,,,,,,,,,,,,,,,,,,,,,,,,,,,,,,,,,,,,,,,,,,,,,,,,,,,,,,,,,,,,,,,,,,,,,,,,1.73,845.7122467,None,space,1,0.2595428,847.5460096,None,847.5460096,None,847.5460096,None,,,,,,,,,,,P041,FENCOG,2,Pre,2022_May_09_1051,Go No-Go Task,2021.1.4,120.2525785
,"Rule: When you see a yellow image, do not press 'spacebar'.",Images/Scram1/AF07NES.jpg,Scramble,Blue,Images/Blue.jpg,space,ParentConditions/YellowYellowBlue_v2.xlsx,YellowYellowBlue,Conditions/Version_2/YellowScramStop.xlsx,no,PASS,0.89486803,,,,,,,,,0,0,0,1,0,1,1,1,0,66,66,66,,,,,,,,,,,,,,,,,,,,,,,,,,,,,,,,,,,,,,,,,,,,,,,,,,,,,,,,,,,,,,,,,,,,,,,,,,,,,,,1.85,847.9475919,None,space,1,0.2535757,849.9036416,None,849.9036416,None,849.9036416,None,,,,,,,,,,,P041,FENCOG,2,Pre,2022_May_09_1051,Go No-Go Task,2021.1.4,120.2525785
,"Rule: When you see a yellow image, do not press 'spacebar'.",Images/Scram2/AM09NES.jpg,Scramble,Yellow,Images/Yellow.jpg,None,ParentConditions/YellowYellowBlue_v2.xlsx,YellowYellowBlue,Conditions/Version_2/YellowScramStop.xlsx,yes,PASS,0.022411188,,,,,,,,,0,0,0,1,0,1,1,1,0,67,67,67,,,,,,,,,,,,,,,,,,,,,,,,,,,,,,,,,,,,,,,,,,,,,,,,,,,,,,,,,,,,,,,,,,,,,,,,,,,,,,,1.23,850.3027628,None,space,0,0.2405553,851.6448488,None,851.6448488,None,851.6448488,None,,,,,,,,,,,P041,FENCOG,2,Pre,2022_May_09_1051,Go No-Go Task,2021.1.4,120.2525785
,"Rule: When you see a yellow image, do not press 'spacebar'.",Images/Scram2/BM08_NC.jpg,Scramble,Blue,Images/Blue.jpg,space,ParentConditions/YellowYellowBlue_v2.xlsx,YellowYellowBlue,Conditions/Version_2/YellowScramStop.xlsx,no,PASS,0.037962351,,,,,,,,,0,0,0,1,0,1,1,1,0,68,68,68,,,,,,,,,,,,,,,,,,,,,,,,,,,,,,,,,,,,,,,,,,,,,,,,,,,,,,,,,,,,,,,,,,,,,,,,,,,,,,,1.69,852.0445416,None,space,1,0.2652755,853.8440968,None,853.8440968,None,853.8440968,None,,,,,,,,,,,P041,FENCOG,2,Pre,2022_May_09_1051,Go No-Go Task,2021.1.4,120.2525785
,"Rule: When you see a yellow image, do not press 'spacebar'.",Images/Scram2/AF30NES.JPG,Scramble,Yellow,Images/Yellow.jpg,None,ParentConditions/YellowYellowBlue_v2.xlsx,YellowYellowBlue,Conditions/Version_2/YellowScramStop.xlsx,yes,PASS,0.453117145,,,,,,,,,0,0,0,1,0,1,1,1,0,69,69,69,,,,,,,,,,,,,,,,,,,,,,,,,,,,,,,,,,,,,,,,,,,,,,,,,,,,,,,,,,,,,,,,,,,,,,,,,,,,,,,1.6,854.243052,None,None,1,,855.9518856,None,855.9518856,None,855.9518856,None,,,,,,,,,,,P041,FENCOG,2,Pre,2022_May_09_1051,Go No-Go Task,2021.1.4,120.2525785
,"Rule: When you see a yellow image, do not press 'spacebar'.",Images/Scram1/AM34NES.JPG,Scramble,Blue,Images/Blue.jpg,space,ParentConditions/YellowYellowBlue_v2.xlsx,YellowYellowBlue,Conditions/Version_2/YellowScramStop.xlsx,no,PASS,0.334727558,,,,,,,,,0,0,0,1,0,1,1,1,0,70,70,70,,,,,,,,,,,,,,,,,,,,,,,,,,,,,,,,,,,,,,,,,,,,,,,,,,,,,,,,,,,,,,,,,,,,,,,,,,,,,,,1.92,856.350742,None,space,1,0.2931822,858.3763503,None,858.3763503,None,858.3763503,None,,,,,,,,,,,P041,FENCOG,2,Pre,2022_May_09_1051,Go No-Go Task,2021.1.4,120.2525785
