CondFileP,Instructions,FaceE,Express,ColourT,ColourF,CorrectAnsP,MasterCondFile,BlockOrder,CondFile,ColCheck,Triplicate_check,SORT_BY_SMALLEST,EPracticeOuterLoop.thisRepN,EPracticeOuterLoop.thisTrialN,EPracticeOuterLoop.thisN,EPracticeOuterLoop.thisIndex,EPracticeInnerLoop.thisRepN,EPracticeInnerLoop.thisTrialN,EPracticeInnerLoop.thisN,EPracticeInnerLoop.thisIndex,MasterLoop.thisRepN,MasterLoop.thisTrialN,MasterLoop.thisN,MasterLoop.thisIndex,OuterLoop.thisRepN,OuterLoop.thisTrialN,OuterLoop.thisN,OuterLoop.thisIndex,InnerLoop.thisRepN,InnerLoop.thisTrialN,InnerLoop.thisN,InnerLoop.thisIndex,text_13.started,text_13.stopped,key_resp_10.keys,key_resp_10.rt,key_resp_10.started,key_resp_10.stopped,text4.started,text4.stopped,EmotionTaskInstructions1.keys,EmotionTaskInstructions1.rt,EmotionTaskInstructions1.started,EmotionTaskInstructions1.stopped,text_4.started,text_4.stopped,key_resp_5.keys,key_resp_5.rt,key_resp_5.started,key_resp_5.stopped,Text_14.started,Text_14.stopped,key_resp_9.keys,key_resp_9.rt,key_resp_9.started,key_resp_9.stopped,text_5.started,text_5.stopped,text_6.started,text_6.stopped,key_resp_7.keys,key_resp_7.rt,key_resp_7.started,key_resp_7.stopped,text_10.started,text_10.stopped,text_11.started,text_11.stopped,text_12.started,text_12.stopped,ISIjitterPractice,EPracticeISIMarker.started,EPracticeISIMarker.stopped,Pract.keys,Pract.corr,Pract.started,Pract.stopped,PracticeFace.started,PracticeFace.stopped,ColourPractice.started,ColourPractice.stopped,text_7.started,text_7.stopped,Pract.rt,EndOfPractice.started,EndOfPractice.stopped,key_resp_8.keys,key_resp_8.rt,key_resp_8.started,key_resp_8.stopped,text_8.started,text_8.stopped,key_resp_6.keys,key_resp_6.rt,key_resp_6.started,key_resp_6.stopped,text_2.started,text_2.stopped,text_3.started,text_3.stopped,key_resp_3.keys,key_resp_3.rt,key_resp_3.started,key_resp_3.stopped,TaskBlock.started,TaskBlock.stopped,BlockNo1.started,BlockNo1.stopped,OfBlock.started,OfBlock.stopped,ISIjitter,ISImarker.started,ISImarker.stopped,key_resp.keys,key_resp.corr,key_resp.started,key_resp.stopped,FaceSet.started,FaceSet.stopped,Colour.started,Colour.stopped,key_resp.rt,EndBlockText.started,EndBlockText.stopped,key_resp_4.keys,key_resp_4.rt,key_resp_4.started,key_resp_4.stopped,BreakText2.started,BreakText2.stopped,PressToContinue.started,PressToContinue.stopped,participant,Study Name,Task Version (required to run),PRE/POST,date,expName,psychopyVersion,frameRate
,,,,,,,,,,,,,,,,,,,,,,,,,,,,,,,,,70.2424808,None,space,37.4429163,71.2349135,None,,,,,,,,,,,,,,,,,,,,,,,,,,,,,,,,,,,,,,,,,,,,,,,,,,,,,,,,,,,,,,,,,,,,,,,,,,,,,,,,,,,,,,,,,,,,,,,P042,FENCOG,2,Pre,2022_May_10_1029,Go No-Go Task,2021.1.4,119.8744675
,,,,,,,,,,,,,,,,,,,,,,,,,,,,,,,,,,,,,,,110.2017975,None,space,-0.0680393,110.2017975,None,,,,,,,,,,,,,,,,,,,,,,,,,,,,,,,,,,,,,,,,,,,,,,,,,,,,,,,,,,,,,,,,,,,,,,,,,,,,,,,,,,,,,,,,,P042,FENCOG,2,Pre,2022_May_10_1029,Go No-Go Task,2021.1.4,119.8744675
,,,,,,,,,,,,,,,,,,,,,,,,,,,,,,,,,,,,,,,,,,,,,110.2635168,None,space,14.8783046,110.2635168,None,,,,,,,,,,,,,,,,,,,,,,,,,,,,,,,,,,,,,,,,,,,,,,,,,,,,,,,,,,,,,,,,,,,,,,,,,,,,,,,,,,,P042,FENCOG,2,Pre,2022_May_10_1029,Go No-Go Task,2021.1.4,119.8744675
,,,,,,,,,,,,,,,,,,,,,,,,,,,,,,,,,,,,,,,,,,,,,,,,,,,125.1537708,None,space,8.836129,125.1537708,None,,,,,,,,,,,,,,,,,,,,,,,,,,,,,,,,,,,,,,,,,,,,,,,,,,,,,,,,,,,,,,,,,,,,,,,,,,,,,P042,FENCOG,2,Pre,2022_May_10_1029,Go No-Go Task,2021.1.4,119.8744675
EPracticeConditions/BlueEyes.csv,"Rule: When you see a blue image, do not press 'spacebar'.",Images/Happy/HF09_HE.jpg,Happy,Yellow,Images/Yellow.jpg,space,,,,,,,0,0,0,0,0,0,0,6,,,,,,,,,,,,,,,,,,,,,,,,,,,,,,,,,,,,,134.0662122,None,137.0571183,None,space,5.0609647,137.0571183,None,134.0662122,None,134.0662122,None,134.0662122,None,1.4,142.3242042,None,None,0,143.8902992,None,143.8902992,None,143.8902992,None,145.4277206,None,,,,,,,,,,,,,,,,,,,,,,,,,,,,,,,,,,,,,,,,,,,,,,,,,,P042,FENCOG,2,Pre,2022_May_10_1029,Go No-Go Task,2021.1.4,119.8744675
EPracticeConditions/BlueEyes.csv,"Rule: When you see a blue image, do not press 'spacebar'.",Images/Fearful/HM09_FC.jpg,Fear,Blue,Images/Blue.jpg,None,,,,,,,0,0,0,0,0,1,1,0,,,,,,,,,,,,,,,,,,,,,,,,,,,,,,,,,,,,,,,,,,,,,,,,,,,1.9,146.7658443,None,None,1,148.7790858,None,148.7790858,None,148.7790858,None,149.677997,None,,,,,,,,,,,,,,,,,,,,,,,,,,,,,,,,,,,,,,,,,,,,,,,,,,P042,FENCOG,2,Pre,2022_May_10_1029,Go No-Go Task,2021.1.4,119.8744675
EPracticeConditions/BlueEyes.csv,"Rule: When you see a blue image, do not press 'spacebar'.",Images/Happy/BM02_HO.jpg,Happy,Yellow,Images/Yellow.jpg,space,,,,,,,0,0,0,0,0,2,2,2,,,,,,,,,,,,,,,,,,,,,,,,,,,,,,,,,,,,,,,,,,,,,,,,,,,1.3,151.6771493,None,None,0,153.0775627,None,153.0775627,None,153.0775627,None,153.9768873,None,,,,,,,,,,,,,,,,,,,,,,,,,,,,,,,,,,,,,,,,,,,,,,,,,,P042,FENCOG,2,Pre,2022_May_10_1029,Go No-Go Task,2021.1.4,119.8744675
EPracticeConditions/BlueEyes.csv,"Rule: When you see a blue image, do not press 'spacebar'.",Images/Happy/BM08_HO.jpg,Happy,Yellow,Images/Yellow.jpg,space,,,,,,,0,0,0,0,0,3,3,3,,,,,,,,,,,,,,,,,,,,,,,,,,,,,,,,,,,,,,,,,,,,,,,,,,,1.7,155.9761212,None,None,0,157.7849424,None,157.7849424,None,157.7849424,None,158.679437,None,,,,,,,,,,,,,,,,,,,,,,,,,,,,,,,,,,,,,,,,,,,,,,,,,,P042,FENCOG,2,Pre,2022_May_10_1029,Go No-Go Task,2021.1.4,119.8744675
EPracticeConditions/BlueEyes.csv,"Rule: When you see a blue image, do not press 'spacebar'.",Images/Happy/HF04_HE.jpg,Happy,Yellow,Images/Yellow.jpg,space,,,,,,,0,0,0,0,0,4,4,4,,,,,,,,,,,,,,,,,,,,,,,,,,,,,,,,,,,,,,,,,,,,,,,,,,,1.8,160.6832188,None,None,0,162.591742,None,162.591742,None,162.591742,None,163.4896856,None,,,,,,,,,,,,,,,,,,,,,,,,,,,,,,,,,,,,,,,,,,,,,,,,,,P042,FENCOG,2,Pre,2022_May_10_1029,Go No-Go Task,2021.1.4,119.8744675
EPracticeConditions/BlueEyes.csv,"Rule: When you see a blue image, do not press 'spacebar'.",Images/Happy/HF05_HO.jpg,Happy,Yellow,Images/Yellow.jpg,space,,,,,,,0,0,0,0,0,5,5,5,,,,,,,,,,,,,,,,,,,,,,,,,,,,,,,,,,,,,,,,,,,,,,,,,,,1.2,165.4897869,None,None,0,166.7988061,None,166.7988061,None,166.7988061,None,167.6874691,None,,,,,,,,,,,,,,,,,,,,,,,,,,,,,,,,,,,,,,,,,,,,,,,,,,P042,FENCOG,2,Pre,2022_May_10_1029,Go No-Go Task,2021.1.4,119.8744675
EPracticeConditions/BlueEyes.csv,"Rule: When you see a blue image, do not press 'spacebar'.",Images/Fearful/AF01_FO.jpg,Fear,Blue,Images/Blue.jpg,None,,,,,,,0,0,0,0,0,6,6,1,,,,,,,,,,,,,,,,,,,,,,,,,,,,,,,,,,,,,,,,,,,,,,,,,,,1.5,169.6892843,None,None,1,171.2893346,None,171.2893346,None,171.2893346,None,172.1943352,None,,,,,,,,,,,,,,,,,,,,,,,,,,,,,,,,,,,,,,,,,,,,,,,,,,P042,FENCOG,2,Pre,2022_May_10_1029,Go No-Go Task,2021.1.4,119.8744675
EPracticeConditions/BlueEyes.csv,"Rule: When you see a blue image, do not press 'spacebar'.",Images/Happy/HF10_HE.jpg,Happy,Yellow,Images/Yellow.jpg,space,,,,,,,0,0,0,0,0,7,7,7,,,,,,,,,,,,,,,,,,,,,,,,,,,,,,,,,,,,,,,,,,,,,,,,,,,1.6,174.1958835,None,space,1,175.904616,None,175.904616,None,175.904616,None,176.8013753,None,0.3572452,,,,,,,,,,,,,,,,,,,,,,,,,,,,,,,,,,,,,,,,,,,,,,,,,P042,FENCOG,2,Pre,2022_May_10_1029,Go No-Go Task,2021.1.4,119.8744675
EPracticeConditions/BlueEyes.csv,"Rule: When you see a blue image, do not press 'spacebar'.",,,,,,,,,,,,0,0,0,0,,,,,,,,,,,,,,,,,,,,,,,,,,,,,,,,,,,,,,,,,,,,,,,,,,,,,,,,,,,,,,,,,,,,,,,,,,,,,,,,,,,,,,,,,,,,,,,,,,,,,,,,,,,,,,,,,,,,,P042,FENCOG,2,Pre,2022_May_10_1029,Go No-Go Task,2021.1.4,119.8744675
EPracticeConditions/YellowEyes.csv,"Rule: When you see a yellow image, do not press 'spacebar'.",Images/Happy/BF05_HO.jpg,Happy,Yellow,Images/Yellow.jpg,None,,,,,,,0,1,1,1,0,0,0,1,,,,,,,,,,,,,,,,,,,,,,,,,,,,,,,,,,,,,178.8221646,None,181.8105668,None,space,0.1391335,181.8105668,None,178.8221646,None,178.8221646,None,178.8221646,None,1.9,181.9754812,None,None,1,183.9854913,None,183.9854913,None,183.9854913,None,184.878392,None,,,,,,,,,,,,,,,,,,,,,,,,,,,,,,,,,,,,,,,,,,,,,,,,,,P042,FENCOG,2,Pre,2022_May_10_1029,Go No-Go Task,2021.1.4,119.8744675
EPracticeConditions/YellowEyes.csv,"Rule: When you see a yellow image, do not press 'spacebar'.",Images/Fearful/AM24AFS.jpg,Fear,Blue,Images/Blue.jpg,space,,,,,,,0,1,1,1,0,1,1,7,,,,,,,,,,,,,,,,,,,,,,,,,,,,,,,,,,,,,,,,,,,,,,,,,,,1.6,186.8839094,None,space,1,188.5925532,None,188.5925532,None,188.5925532,None,189.4827451,None,0.3014651,,,,,,,,,,,,,,,,,,,,,,,,,,,,,,,,,,,,,,,,,,,,,,,,,P042,FENCOG,2,Pre,2022_May_10_1029,Go No-Go Task,2021.1.4,119.8744675
EPracticeConditions/YellowEyes.csv,"Rule: When you see a yellow image, do not press 'spacebar'.",Images/Happy/AM32HAS.jpg,Happy,Yellow,Images/Yellow.jpg,None,,,,,,,0,1,1,1,0,2,2,0,,,,,,,,,,,,,,,,,,,,,,,,,,,,,,,,,,,,,,,,,,,,,,,,,,,1.5,191.48564,None,None,1,193.0995462,None,193.0995462,None,193.0995462,None,193.9962311,None,,,,,,,,,,,,,,,,,,,,,,,,,,,,,,,,,,,,,,,,,,,,,,,,,,P042,FENCOG,2,Pre,2022_May_10_1029,Go No-Go Task,2021.1.4,119.8744675
EPracticeConditions/YellowEyes.csv,"Rule: When you see a yellow image, do not press 'spacebar'.",Images/Fearful/AM16AFS.jpg,Fear,Blue,Images/Blue.jpg,space,,,,,,,0,1,1,1,0,3,3,2,,,,,,,,,,,,,,,,,,,,,,,,,,,,,,,,,,,,,,,,,,,,,,,,,,,1.3,195.9976955,None,space,1,197.4065477,None,197.4065477,None,197.4065477,None,198.3028393,None,0.3752672,,,,,,,,,,,,,,,,,,,,,,,,,,,,,,,,,,,,,,,,,,,,,,,,,P042,FENCOG,2,Pre,2022_May_10_1029,Go No-Go Task,2021.1.4,119.8744675
EPracticeConditions/YellowEyes.csv,"Rule: When you see a yellow image, do not press 'spacebar'.",Images/Fearful/AM19AFS.jpg,Fear,Blue,Images/Blue.jpg,space,,,,,,,0,1,1,1,0,4,4,4,,,,,,,,,,,,,,,,,,,,,,,,,,,,,,,,,,,,,,,,,,,,,,,,,,,1.4,200.3048653,None,None,0,201.8135659,None,201.8135659,None,201.8135659,None,202.718332,None,,,,,,,,,,,,,,,,,,,,,,,,,,,,,,,,,,,,,,,,,,,,,,,,,,P042,FENCOG,2,Pre,2022_May_10_1029,Go No-Go Task,2021.1.4,119.8744675
EPracticeConditions/YellowEyes.csv,"Rule: When you see a yellow image, do not press 'spacebar'.",Images/Fearful/AM23AFS.jpg,Fear,Blue,Images/Blue.jpg,space,,,,,,,0,1,1,1,0,5,5,6,,,,,,,,,,,,,,,,,,,,,,,,,,,,,,,,,,,,,,,,,,,,,,,,,,,1.7,204.7117975,None,None,0,206.5205976,None,206.5205976,None,206.5205976,None,207.4046999,None,,,,,,,,,,,,,,,,,,,,,,,,,,,,,,,,,,,,,,,,,,,,,,,,,,P042,FENCOG,2,Pre,2022_May_10_1029,Go No-Go Task,2021.1.4,119.8744675
EPracticeConditions/YellowEyes.csv,"Rule: When you see a yellow image, do not press 'spacebar'.",Images/Fearful/AM22AFS.jpg,Fear,Blue,Images/Blue.jpg,space,,,,,,,0,1,1,1,0,6,6,5,,,,,,,,,,,,,,,,,,,,,,,,,,,,,,,,,,,,,,,,,,,,,,,,,,,1.8,209.4104028,None,space,1,211.3191943,None,211.3191943,None,211.3191943,None,212.2247057,None,0.3505132,,,,,,,,,,,,,,,,,,,,,,,,,,,,,,,,,,,,,,,,,,,,,,,,,P042,FENCOG,2,Pre,2022_May_10_1029,Go No-Go Task,2021.1.4,119.8744675
EPracticeConditions/YellowEyes.csv,"Rule: When you see a yellow image, do not press 'spacebar'.",Images/Fearful/AM17AFS.jpg,Fear,Blue,Images/Blue.jpg,space,,,,,,,0,1,1,1,0,7,7,3,,,,,,,,,,,,,,,,,,,,,,,,,,,,,,,,,,,,,,,,,,,,,,,,,,,1.2,214.2177995,None,None,0,215.5345732,None,215.5345732,None,215.5345732,None,216.4325529,None,,,,,,,,,,,,,,,,,,,,,,,,,,,,,,,,,,,,,,,,,,,,,,,,,,P042,FENCOG,2,Pre,2022_May_10_1029,Go No-Go Task,2021.1.4,119.8744675
EPracticeConditions/YellowEyes.csv,"Rule: When you see a yellow image, do not press 'spacebar'.",,,,,,,,,,,,0,1,1,1,,,,,,,,,,,,,,,,,,,,,,,,,,,,,,,,,,,,,,,,,,,,,,,,,,,,,,,,,,,,,,,,,,,,,,,,,,,,,,,,,,,,,,,,,,,,,,,,,,,,,,,,,,,,,,,,,,,,,P042,FENCOG,2,Pre,2022_May_10_1029,Go No-Go Task,2021.1.4,119.8744675
EPracticeConditions/BlueScram.csv,"Rule: When you see a blue image, do not press 'spacebar'.",Images/Scram2/AM03_NC.jpg,Scramble,Yellow,Images/Yellow.jpg,space,,,,,,,0,2,2,2,0,0,0,6,,,,,,,,,,,,,,,,,,,,,,,,,,,,,,,,,,,,,218.4366996,None,221.4239872,None,space,1.0538695,221.4239872,None,218.4366996,None,218.4366996,None,218.4366996,None,1.2,222.5009752,None,None,0,223.8235025,None,223.8235025,None,223.8235025,None,224.7117457,None,,,,,,,,,,,,,,,,,,,,,,,,,,,,,,,,,,,,,,,,,,,,,,,,,,P042,FENCOG,2,Pre,2022_May_10_1029,Go No-Go Task,2021.1.4,119.8744675
EPracticeConditions/BlueScram.csv,"Rule: When you see a blue image, do not press 'spacebar'.",Images/Scram1/BM08_NC.jpg,Scramble,Blue,Images/Blue.jpg,None,,,,,,,0,2,2,2,0,1,1,0,,,,,,,,,,,,,,,,,,,,,,,,,,,,,,,,,,,,,,,,,,,,,,,,,,,1.5,226.7137241,None,None,1,228.322433,None,228.322433,None,228.322433,None,229.2274517,None,,,,,,,,,,,,,,,,,,,,,,,,,,,,,,,,,,,,,,,,,,,,,,,,,,P042,FENCOG,2,Pre,2022_May_10_1029,Go No-Go Task,2021.1.4,119.8744675
EPracticeConditions/BlueScram.csv,"Rule: When you see a blue image, do not press 'spacebar'.",Images/Scram1/AM13NES.jpg,Scramble,Yellow,Images/Yellow.jpg,space,,,,,,,0,2,2,2,0,2,2,5,,,,,,,,,,,,,,,,,,,,,,,,,,,,,,,,,,,,,,,,,,,,,,,,,,,1.9,231.2206422,None,space,1,233.2293786,None,233.2293786,None,233.2293786,None,234.1198238,None,0.3525547,,,,,,,,,,,,,,,,,,,,,,,,,,,,,,,,,,,,,,,,,,,,,,,,,P042,FENCOG,2,Pre,2022_May_10_1029,Go No-Go Task,2021.1.4,119.8744675
EPracticeConditions/BlueScram.csv,"Rule: When you see a blue image, do not press 'spacebar'.",Images/Scram1/BF18_NC.jpg,Scramble,Blue,Images/Blue.jpg,None,,,,,,,0,2,2,2,0,3,3,1,,,,,,,,,,,,,,,,,,,,,,,,,,,,,,,,,,,,,,,,,,,,,,,,,,,1.6,236.1226244,None,None,1,237.8364039,None,237.8364039,None,237.8364039,None,238.7276977,None,,,,,,,,,,,,,,,,,,,,,,,,,,,,,,,,,,,,,,,,,,,,,,,,,,P042,FENCOG,2,Pre,2022_May_10_1029,Go No-Go Task,2021.1.4,119.8744675
EPracticeConditions/BlueScram.csv,"Rule: When you see a blue image, do not press 'spacebar'.",Images/Scram1/AM03NES.jpg,Scramble,Yellow,Images/Yellow.jpg,space,,,,,,,0,2,2,2,0,4,4,4,,,,,,,,,,,,,,,,,,,,,,,,,,,,,,,,,,,,,,,,,,,,,,,,,,,1.8,240.7345666,None,space,1,242.6432451,None,242.6432451,None,242.6432451,None,243.5365085,None,0.2825499,,,,,,,,,,,,,,,,,,,,,,,,,,,,,,,,,,,,,,,,,,,,,,,,,P042,FENCOG,2,Pre,2022_May_10_1029,Go No-Go Task,2021.1.4,119.8744675
EPracticeConditions/BlueScram.csv,"Rule: When you see a blue image, do not press 'spacebar'.",Images/Scram2/AF25NES.jpg,Scramble,Yellow,Images/Yellow.jpg,space,,,,,,,0,2,2,2,0,5,5,7,,,,,,,,,,,,,,,,,,,,,,,,,,,,,,,,,,,,,,,,,,,,,,,,,,,1.7,245.5418484,None,space,1,247.3501978,None,247.3501978,None,247.3501978,None,248.246418,None,0.3277231,,,,,,,,,,,,,,,,,,,,,,,,,,,,,,,,,,,,,,,,,,,,,,,,,P042,FENCOG,2,Pre,2022_May_10_1029,Go No-Go Task,2021.1.4,119.8744675
EPracticeConditions/BlueScram.csv,"Rule: When you see a blue image, do not press 'spacebar'.",Images/Scram2/AF10_NC.jpg,Scramble,Yellow,Images/Yellow.jpg,space,,,,,,,0,2,2,2,0,6,6,2,,,,,,,,,,,,,,,,,,,,,,,,,,,,,,,,,,,,,,,,,,,,,,,,,,,1.3,250.2483438,None,space,1,251.6572712,None,251.6572712,None,251.6572712,None,252.547564,None,0.3087598,,,,,,,,,,,,,,,,,,,,,,,,,,,,,,,,,,,,,,,,,,,,,,,,,P042,FENCOG,2,Pre,2022_May_10_1029,Go No-Go Task,2021.1.4,119.8744675
EPracticeConditions/BlueScram.csv,"Rule: When you see a blue image, do not press 'spacebar'.",Images/Scram1/AM04_NC.jpg,Scramble,Yellow,Images/Yellow.jpg,space,,,,,,,0,2,2,2,0,7,7,3,,,,,,,,,,,,,,,,,,,,,,,,,,,,,,,,,,,,,,,,,,,,,,,,,,,1.4,254.5513853,None,None,0,256.0643176,None,256.0643176,None,256.0643176,None,256.9575094,None,,,,,,,,,,,,,,,,,,,,,,,,,,,,,,,,,,,,,,,,,,,,,,,,,,P042,FENCOG,2,Pre,2022_May_10_1029,Go No-Go Task,2021.1.4,119.8744675
EPracticeConditions/BlueScram.csv,"Rule: When you see a blue image, do not press 'spacebar'.",,,,,,,,,,,,0,2,2,2,,,,,,,,,,,,,,,,,,,,,,,,,,,,,,,,,,,,,,,,,,,,,,,,,,,,,,,,,,,,,,,,,,,,,,,,,,,,,,,,,,,,,,,,,,,,,,,,,,,,,,,,,,,,,,,,,,,,,P042,FENCOG,2,Pre,2022_May_10_1029,Go No-Go Task,2021.1.4,119.8744675
EPracticeConditions/YellowScram.csv,"Rule: When you see a yellow image, do not press 'spacebar'.",Images/Scram1/HF04_NC.jpg,Scramble,Blue,Images/Blue.jpg,space,,,,,,,0,3,3,3,0,0,0,2,,,,,,,,,,,,,,,,,,,,,,,,,,,,,,,,,,,,,258.9755459,None,261.9618035,None,space,0.5479612,261.9618035,None,258.9755459,None,258.9755459,None,258.9755459,None,1.9,262.5308293,None,space,1,264.5450644,None,264.5450644,None,264.5450644,None,265.4502139,None,0.3487143,,,,,,,,,,,,,,,,,,,,,,,,,,,,,,,,,,,,,,,,,,,,,,,,,P042,FENCOG,2,Pre,2022_May_10_1029,Go No-Go Task,2021.1.4,119.8744675
EPracticeConditions/YellowScram.csv,"Rule: When you see a yellow image, do not press 'spacebar'.",Images/Scram1/AF30NES.JPG,Scramble,Blue,Images/Blue.jpg,space,,,,,,,0,3,3,3,0,1,1,4,,,,,,,,,,,,,,,,,,,,,,,,,,,,,,,,,,,,,,,,,,,,,,,,,,,1.7,267.4446291,None,space,1,269.2604437,None,269.2604437,None,269.2604437,None,270.1425814,None,0.3454159,,,,,,,,,,,,,,,,,,,,,,,,,,,,,,,,,,,,,,,,,,,,,,,,,P042,FENCOG,2,Pre,2022_May_10_1029,Go No-Go Task,2021.1.4,119.8744675
EPracticeConditions/YellowScram.csv,"Rule: When you see a yellow image, do not press 'spacebar'.",Images/Scram1/AF24NES.jpg,Scramble,Blue,Images/Blue.jpg,space,,,,,,,0,3,3,3,0,2,2,7,,,,,,,,,,,,,,,,,,,,,,,,,,,,,,,,,,,,,,,,,,,,,,,,,,,1.3,272.1422874,None,None,0,273.5507858,None,273.5507858,None,273.5507858,None,274.4489591,None,,,,,,,,,,,,,,,,,,,,,,,,,,,,,,,,,,,,,,,,,,,,,,,,,,P042,FENCOG,2,Pre,2022_May_10_1029,Go No-Go Task,2021.1.4,119.8744675
EPracticeConditions/YellowScram.csv,"Rule: When you see a yellow image, do not press 'spacebar'.",Images/Scram1/AF07NES.jpg,Scramble,Blue,Images/Blue.jpg,space,,,,,,,0,3,3,3,0,3,3,3,,,,,,,,,,,,,,,,,,,,,,,,,,,,,,,,,,,,,,,,,,,,,,,,,,,1.2,276.4489492,None,space,1,277.7578338,None,277.7578338,None,277.7578338,None,278.6637207,None,0.35997,,,,,,,,,,,,,,,,,,,,,,,,,,,,,,,,,,,,,,,,,,,,,,,,,P042,FENCOG,2,Pre,2022_May_10_1029,Go No-Go Task,2021.1.4,119.8744675
EPracticeConditions/YellowScram.csv,"Rule: When you see a yellow image, do not press 'spacebar'.",Images/Scram1/AF10_NC.jpg,Scramble,Blue,Images/Blue.jpg,space,,,,,,,0,3,3,3,0,4,4,6,,,,,,,,,,,,,,,,,,,,,,,,,,,,,,,,,,,,,,,,,,,,,,,,,,,1.4,280.6562038,None,space,1,282.1565986,None,282.1565986,None,282.1565986,None,283.0537165,None,0.3131085,,,,,,,,,,,,,,,,,,,,,,,,,,,,,,,,,,,,,,,,,,,,,,,,,P042,FENCOG,2,Pre,2022_May_10_1029,Go No-Go Task,2021.1.4,119.8744675
EPracticeConditions/YellowScram.csv,"Rule: When you see a yellow image, do not press 'spacebar'.",Images/Scram2/AM03NES.jpg,Scramble,Yellow,Images/Yellow.jpg,None,,,,,,,0,3,3,3,0,5,5,1,,,,,,,,,,,,,,,,,,,,,,,,,,,,,,,,,,,,,,,,,,,,,,,,,,,1.8,285.0550132,None,None,1,286.9551147,None,286.9551147,None,286.9551147,None,287.8454173,None,,,,,,,,,,,,,,,,,,,,,,,,,,,,,,,,,,,,,,,,,,,,,,,,,,P042,FENCOG,2,Pre,2022_May_10_1029,Go No-Go Task,2021.1.4,119.8744675
EPracticeConditions/YellowScram.csv,"Rule: When you see a yellow image, do not press 'spacebar'.",Images/Scram2/HM06_NC.jpg,Scramble,Yellow,Images/Yellow.jpg,None,,,,,,,0,3,3,3,0,6,6,0,,,,,,,,,,,,,,,,,,,,,,,,,,,,,,,,,,,,,,,,,,,,,,,,,,,1.5,289.8452992,None,None,1,291.453822,None,291.453822,None,291.453822,None,292.3443287,None,,,,,,,,,,,,,,,,,,,,,,,,,,,,,,,,,,,,,,,,,,,,,,,,,,P042,FENCOG,2,Pre,2022_May_10_1029,Go No-Go Task,2021.1.4,119.8744675
EPracticeConditions/YellowScram.csv,"Rule: When you see a yellow image, do not press 'spacebar'.",Images/Scram1/BM01_NC.jpg,Scramble,Blue,Images/Blue.jpg,space,,,,,,,0,3,3,3,0,7,7,5,,,,,,,,,,,,,,,,,,,,,,,,,,,,,,,,,,,,,,,,,,,,,,,,,,,1.6,294.3435653,None,space,1,296.0524677,None,296.0524677,None,296.0524677,None,296.9429042,None,0.3134182,,,,,,,,,,,,,,,,,,,,,,,,,,,,,,,,,,,,,,,,,,,,,,,,,P042,FENCOG,2,Pre,2022_May_10_1029,Go No-Go Task,2021.1.4,119.8744675
EPracticeConditions/YellowScram.csv,"Rule: When you see a yellow image, do not press 'spacebar'.",,,,,,,,,,,,0,3,3,3,,,,,,,,,,,,,,,,,,,,,,,,,,,,,,,,,,,,,,,,,,,,,,,,,,,,,,,,,,,,,,,,,,,,,,,,,,,,,,,,,,,,,,,,,,,,,,,,,,,,,,,,,,,,,,,,,,,,,P042,FENCOG,2,Pre,2022_May_10_1029,Go No-Go Task,2021.1.4,119.8744675
,,,,,,,,,,,,,,,,,,,,,,,,,,,,,,,,,,,,,,,,,,,,,,,,,,,,,,,,,,,,,,,,,,,,,,,,,,,,,,,,,,,,,300.2302108,None,space,5.5444783,300.7173939,None,,,,,,,,,,,,,,,,,,,,,,,,,,,,,,,,,,,,,,,,,,,P042,FENCOG,2,Pre,2022_May_10_1029,Go No-Go Task,2021.1.4,119.8744675
,,,,,,,,,,,,,,,,,,,,,,,,,,,,,,,,,,,,,,,,,,,,,,,,,,,,,,,,,,,,,,,,,,,,,,,,,,,,,,,,,,,,,,,,,,,306.274727,None,space,1.6989972,306.274727,None,,,,,,,,,,,,,,,,,,,,,,,,,,,,,,,,,,,,,P042,FENCOG,2,Pre,2022_May_10_1029,Go No-Go Task,2021.1.4,119.8744675
,"Rule: When you see a yellow image, do not press 'spacebar'.",Images/Happy/BF09_HO.jpg,Happy,Blue,Images/Blue.jpg,space,ParentConditions/YellowYellowBlue_v2.xlsx,YellowYellowBlue,Conditions/Version_2/YellowFearStop.xlsx,no,PASS,0.200968574,,,,,,,,,0,0,0,1,0,0,0,0,0,0,0,0,,,,,,,,,,,,,,,,,,,,,,,,,,,,,,,,,,,,,,,,,,,,,,,,,,,,,,,,,,,,,,,,,308.0679646,None,311.0557168,None,space,2.3261413,311.0557168,None,308.0679646,None,308.0679646,None,308.0679646,None,1.92,313.448767,None,None,0,315.480537,None,315.480537,None,315.480537,None,,,,,,,,,,,,P042,FENCOG,2,Pre,2022_May_10_1029,Go No-Go Task,2021.1.4,119.8744675
,"Rule: When you see a yellow image, do not press 'spacebar'.",Images/Happy/AF30HAS.jpg,Happy,Blue,Images/Blue.jpg,space,ParentConditions/YellowYellowBlue_v2.xlsx,YellowYellowBlue,Conditions/Version_2/YellowFearStop.xlsx,no,PASS,0.967956144,,,,,,,,,0,0,0,1,0,0,0,0,0,1,1,1,,,,,,,,,,,,,,,,,,,,,,,,,,,,,,,,,,,,,,,,,,,,,,,,,,,,,,,,,,,,,,,,,,,,,,,,,,,,,,,1.6,315.875154,None,None,0,317.5876913,None,317.5876913,None,317.5876913,None,,,,,,,,,,,,P042,FENCOG,2,Pre,2022_May_10_1029,Go No-Go Task,2021.1.4,119.8744675
,"Rule: When you see a yellow image, do not press 'spacebar'.",Images/Happy/AF27HAS.jpg,Happy,Blue,Images/Blue.jpg,space,ParentConditions/YellowYellowBlue_v2.xlsx,YellowYellowBlue,Conditions/Version_2/YellowFearStop.xlsx,no,PASS,0.024466482,,,,,,,,,0,0,0,1,0,0,0,0,0,2,2,2,,,,,,,,,,,,,,,,,,,,,,,,,,,,,,,,,,,,,,,,,,,,,,,,,,,,,,,,,,,,,,,,,,,,,,,,,,,,,,,1.29,317.9866325,None,space,1,319.3871975,None,319.3871975,None,319.3871975,None,0.3066655,,,,,,,,,,,P042,FENCOG,2,Pre,2022_May_10_1029,Go No-Go Task,2021.1.4,119.8744675
,"Rule: When you see a yellow image, do not press 'spacebar'.",Images/Happy/AF22HAS.jpg,Happy,Blue,Images/Blue.jpg,space,ParentConditions/YellowYellowBlue_v2.xlsx,YellowYellowBlue,Conditions/Version_2/YellowFearStop.xlsx,no,PASS,0.900419425,,,,,,,,,0,0,0,1,0,0,0,0,0,3,3,3,,,,,,,,,,,,,,,,,,,,,,,,,,,,,,,,,,,,,,,,,,,,,,,,,,,,,,,,,,,,,,,,,,,,,,,,,,,,,,,1.27,319.7856939,None,space,1,321.1699423,None,321.1699423,None,321.1699423,None,0.3557058,,,,,,,,,,,P042,FENCOG,2,Pre,2022_May_10_1029,Go No-Go Task,2021.1.4,119.8744675
,"Rule: When you see a yellow image, do not press 'spacebar'.",Images/Happy/WM11_HC.jpg,Happy,Blue,Images/Blue.jpg,space,ParentConditions/YellowYellowBlue_v2.xlsx,YellowYellowBlue,Conditions/Version_2/YellowFearStop.xlsx,no,PASS,0.504208106,,,,,,,,,0,0,0,1,0,0,0,0,0,4,4,4,,,,,,,,,,,,,,,,,,,,,,,,,,,,,,,,,,,,,,,,,,,,,,,,,,,,,,,,,,,,,,,,,,,,,,,,,,,,,,,1.98,321.561123,None,space,1,323.6526294,None,323.6526294,None,323.6526294,None,0.2891726,,,,,,,,,,,P042,FENCOG,2,Pre,2022_May_10_1029,Go No-Go Task,2021.1.4,119.8744675
,"Rule: When you see a yellow image, do not press 'spacebar'.",Images/Happy/BF05_HO.jpg,Happy,Blue,Images/Blue.jpg,space,ParentConditions/YellowYellowBlue_v2.xlsx,YellowYellowBlue,Conditions/Version_2/YellowFearStop.xlsx,no,PASS,0.668772063,,,,,,,,,0,0,0,1,0,0,0,0,0,5,5,5,,,,,,,,,,,,,,,,,,,,,,,,,,,,,,,,,,,,,,,,,,,,,,,,,,,,,,,,,,,,,,,,,,,,,,,,,,,,,,,1.5,324.051479,None,space,1,325.6520127,None,325.6520127,None,325.6520127,None,0.265838,,,,,,,,,,,P042,FENCOG,2,Pre,2022_May_10_1029,Go No-Go Task,2021.1.4,119.8744675
,"Rule: When you see a yellow image, do not press 'spacebar'.",Images/Fearful/AM01AFS.jpg,Fear,Yellow,Images/Yellow.jpg,None,ParentConditions/YellowYellowBlue_v2.xlsx,YellowYellowBlue,Conditions/Version_2/YellowFearStop.xlsx,yes,PASS,0.008120847,,,,,,,,,0,0,0,1,0,0,0,0,0,6,6,6,,,,,,,,,,,,,,,,,,,,,,,,,,,,,,,,,,,,,,,,,,,,,,,,,,,,,,,,,,,,,,,,,,,,,,,,,,,,,,,2,326.0555827,None,None,1,328.1679349,None,328.1679349,None,328.1679349,None,,,,,,,,,,,,P042,FENCOG,2,Pre,2022_May_10_1029,Go No-Go Task,2021.1.4,119.8744675
,"Rule: When you see a yellow image, do not press 'spacebar'.",Images/Happy/AF23HAS.jpg,Happy,Blue,Images/Blue.jpg,space,ParentConditions/YellowYellowBlue_v2.xlsx,YellowYellowBlue,Conditions/Version_2/YellowFearStop.xlsx,no,PASS,0.070231989,,,,,,,,,0,0,0,1,0,0,0,0,0,7,7,7,,,,,,,,,,,,,,,,,,,,,,,,,,,,,,,,,,,,,,,,,,,,,,,,,,,,,,,,,,,,,,,,,,,,,,,,,,,,,,,1.83,328.5676753,None,space,1,330.5089898,None,330.5089898,None,330.5089898,None,0.3611048,,,,,,,,,,,P042,FENCOG,2,Pre,2022_May_10_1029,Go No-Go Task,2021.1.4,119.8744675
,"Rule: When you see a yellow image, do not press 'spacebar'.",Images/Happy/AM16HAS.jpg,Happy,Blue,Images/Blue.jpg,space,ParentConditions/YellowYellowBlue_v2.xlsx,YellowYellowBlue,Conditions/Version_2/YellowFearStop.xlsx,no,PASS,0.031804034,,,,,,,,,0,0,0,1,0,0,0,0,0,8,8,8,,,,,,,,,,,,,,,,,,,,,,,,,,,,,,,,,,,,,,,,,,,,,,,,,,,,,,,,,,,,,,,,,,,,,,,,,,,,,,,1.25,330.910584,None,space,1,332.2751576,None,332.2751576,None,332.2751576,None,0.2984483,,,,,,,,,,,P042,FENCOG,2,Pre,2022_May_10_1029,Go No-Go Task,2021.1.4,119.8744675
,"Rule: When you see a yellow image, do not press 'spacebar'.",Images/Happy/AM04HAS.jpg,Happy,Blue,Images/Blue.jpg,space,ParentConditions/YellowYellowBlue_v2.xlsx,YellowYellowBlue,Conditions/Version_2/YellowFearStop.xlsx,no,PASS,0.000212135,,,,,,,,,0,0,0,1,0,0,0,0,0,9,9,9,,,,,,,,,,,,,,,,,,,,,,,,,,,,,,,,,,,,,,,,,,,,,,,,,,,,,,,,,,,,,,,,,,,,,,,,,,,,,,,1.87,332.6740468,None,space,1,334.6575084,None,334.6575084,None,334.6575084,None,0.3643312,,,,,,,,,,,P042,FENCOG,2,Pre,2022_May_10_1029,Go No-Go Task,2021.1.4,119.8744675
,"Rule: When you see a yellow image, do not press 'spacebar'.",Images/Happy/AF26HAS.jpg,Happy,Blue,Images/Blue.jpg,space,ParentConditions/YellowYellowBlue_v2.xlsx,YellowYellowBlue,Conditions/Version_2/YellowFearStop.xlsx,no,PASS,0.408079602,,,,,,,,,0,0,0,1,0,0,0,0,0,10,10,10,,,,,,,,,,,,,,,,,,,,,,,,,,,,,,,,,,,,,,,,,,,,,,,,,,,,,,,,,,,,,,,,,,,,,,,,,,,,,,,1.38,335.0585293,None,space,1,336.5487575,None,336.5487575,None,336.5487575,None,0.2250257,,,,,,,,,,,P042,FENCOG,2,Pre,2022_May_10_1029,Go No-Go Task,2021.1.4,119.8744675
,"Rule: When you see a yellow image, do not press 'spacebar'.",Images/Fearful/AF10_FC.jpg,Fear,Yellow,Images/Yellow.jpg,None,ParentConditions/YellowYellowBlue_v2.xlsx,YellowYellowBlue,Conditions/Version_2/YellowFearStop.xlsx,yes,PASS,0.431183679,,,,,,,,,0,0,0,1,0,0,0,0,0,11,11,11,,,,,,,,,,,,,,,,,,,,,,,,,,,,,,,,,,,,,,,,,,,,,,,,,,,,,,,,,,,,,,,,,,,,,,,,,,,,,,,1.51,336.947848,None,space,0,338.5731599,None,338.5731599,None,338.5731599,None,0.2087276,,,,,,,,,,,P042,FENCOG,2,Pre,2022_May_10_1029,Go No-Go Task,2021.1.4,119.8744675
,"Rule: When you see a yellow image, do not press 'spacebar'.",Images/Fearful/AM09_FO.jpg,Fear,Yellow,Images/Yellow.jpg,None,ParentConditions/YellowYellowBlue_v2.xlsx,YellowYellowBlue,Conditions/Version_2/YellowFearStop.xlsx,yes,PASS,0.253243813,,,,,,,,,0,0,0,1,0,0,0,0,0,12,12,12,,,,,,,,,,,,,,,,,,,,,,,,,,,,,,,,,,,,,,,,,,,,,,,,,,,,,,,,,,,,,,,,,,,,,,,,,,,,,,,1.63,338.9754519,None,space,0,340.7141072,None,340.7141072,None,340.7141072,None,0.2919223,,,,,,,,,,,P042,FENCOG,2,Pre,2022_May_10_1029,Go No-Go Task,2021.1.4,119.8744675
,"Rule: When you see a yellow image, do not press 'spacebar'.",Images/Happy/HM04_HO.jpg,Happy,Blue,Images/Blue.jpg,space,ParentConditions/YellowYellowBlue_v2.xlsx,YellowYellowBlue,Conditions/Version_2/YellowFearStop.xlsx,no,PASS,0.407242513,,,,,,,,,0,0,0,1,0,0,0,0,0,13,13,13,,,,,,,,,,,,,,,,,,,,,,,,,,,,,,,,,,,,,,,,,,,,,,,,,,,,,,,,,,,,,,,,,,,,,,,,,,,,,,,1.79,341.1132773,None,None,0,343.0135409,None,343.0135409,None,343.0135409,None,,,,,,,,,,,,P042,FENCOG,2,Pre,2022_May_10_1029,Go No-Go Task,2021.1.4,119.8744675
,"Rule: When you see a yellow image, do not press 'spacebar'.",Images/Fearful/AM04_FO.jpg,Fear,Yellow,Images/Yellow.jpg,None,ParentConditions/YellowYellowBlue_v2.xlsx,YellowYellowBlue,Conditions/Version_2/YellowFearStop.xlsx,yes,PASS,0.728825656,,,,,,,,,0,0,0,1,0,0,0,0,0,14,14,14,,,,,,,,,,,,,,,,,,,,,,,,,,,,,,,,,,,,,,,,,,,,,,,,,,,,,,,,,,,,,,,,,,,,,,,,,,,,,,,1.68,343.4123888,None,None,1,345.204535,None,345.204535,None,345.204535,None,,,,,,,,,,,,P042,FENCOG,2,Pre,2022_May_10_1029,Go No-Go Task,2021.1.4,119.8744675
,"Rule: When you see a yellow image, do not press 'spacebar'.",Images/Happy/AM13HAS.jpg,Happy,Blue,Images/Blue.jpg,space,ParentConditions/YellowYellowBlue_v2.xlsx,YellowYellowBlue,Conditions/Version_2/YellowFearStop.xlsx,no,PASS,0.940548452,,,,,,,,,0,0,0,1,0,0,0,0,0,15,15,15,,,,,,,,,,,,,,,,,,,,,,,,,,,,,,,,,,,,,,,,,,,,,,,,,,,,,,,,,,,,,,,,,,,,,,,,,,,,,,,1.69,345.5967282,None,None,0,347.3955569,None,347.3955569,None,347.3955569,None,,,,,,,,,,,,P042,FENCOG,2,Pre,2022_May_10_1029,Go No-Go Task,2021.1.4,119.8744675
,"Rule: When you see a yellow image, do not press 'spacebar'.",Images/Fearful/AF09AFS.jpg,Fear,Yellow,Images/Yellow.jpg,None,ParentConditions/YellowYellowBlue_v2.xlsx,YellowYellowBlue,Conditions/Version_2/YellowFearStop.xlsx,yes,PASS,0.646488179,,,,,,,,,0,0,0,1,0,0,0,0,0,16,16,16,,,,,,,,,,,,,,,,,,,,,,,,,,,,,,,,,,,,,,,,,,,,,,,,,,,,,,,,,,,,,,,,,,,,,,,,,,,,,,,1.85,347.7945857,None,None,1,349.7532257,None,349.7532257,None,349.7532257,None,,,,,,,,,,,,P042,FENCOG,2,Pre,2022_May_10_1029,Go No-Go Task,2021.1.4,119.8744675
,"Rule: When you see a yellow image, do not press 'spacebar'.",Images/Fearful/BF05_FO.jpg,Fear,Yellow,Images/Yellow.jpg,None,ParentConditions/YellowYellowBlue_v2.xlsx,YellowYellowBlue,Conditions/Version_2/YellowFearStop.xlsx,yes,PASS,0.375092615,,,,,,,,,0,0,0,1,0,0,0,0,0,17,17,17,,,,,,,,,,,,,,,,,,,,,,,,,,,,,,,,,,,,,,,,,,,,,,,,,,,,,,,,,,,,,,,,,,,,,,,,,,,,,,,1.24,350.1531494,None,None,1,351.4943393,None,351.4943393,None,351.4943393,None,,,,,,,,,,,,P042,FENCOG,2,Pre,2022_May_10_1029,Go No-Go Task,2021.1.4,119.8744675
,"Rule: When you see a yellow image, do not press 'spacebar'.",Images/Happy/AM24HAS.jpg,Happy,Blue,Images/Blue.jpg,space,ParentConditions/YellowYellowBlue_v2.xlsx,YellowYellowBlue,Conditions/Version_2/YellowFearStop.xlsx,no,PASS,0.016158037,,,,,,,,,0,0,0,1,0,0,0,0,0,18,18,18,,,,,,,,,,,,,,,,,,,,,,,,,,,,,,,,,,,,,,,,,,,,,,,,,,,,,,,,,,,,,,,,,,,,,,,,,,,,,,,1.93,351.8951263,None,space,1,353.9352736,None,353.9352736,None,353.9352736,None,0.2630521,,,,,,,,,,,P042,FENCOG,2,Pre,2022_May_10_1029,Go No-Go Task,2021.1.4,119.8744675
,"Rule: When you see a yellow image, do not press 'spacebar'.",Images/Fearful/AF11AFS.jpg,Fear,Yellow,Images/Yellow.jpg,None,ParentConditions/YellowYellowBlue_v2.xlsx,YellowYellowBlue,Conditions/Version_2/YellowFearStop.xlsx,yes,PASS,0.337155436,,,,,,,,,0,0,0,1,0,0,0,0,0,19,19,19,,,,,,,,,,,,,,,,,,,,,,,,,,,,,,,,,,,,,,,,,,,,,,,,,,,,,,,,,,,,,,,,,,,,,,,,,,,,,,,1.43,354.3275507,None,space,0,355.8688158,None,355.8688158,None,355.8688158,None,0.3690237,,,,,,,,,,,P042,FENCOG,2,Pre,2022_May_10_1029,Go No-Go Task,2021.1.4,119.8744675
,"Rule: When you see a yellow image, do not press 'spacebar'.",Images/Happy/AF01_HE.jpg,Happy,Blue,Images/Blue.jpg,space,ParentConditions/YellowYellowBlue_v2.xlsx,YellowYellowBlue,Conditions/Version_2/YellowFearStop.xlsx,no,PASS,0.097708726,,,,,,,,,0,0,0,1,0,0,0,0,0,20,20,20,,,,,,,,,,,,,,,,,,,,,,,,,,,,,,,,,,,,,,,,,,,,,,,,,,,,,,,,,,,,,,,,,,,,,,,,,,,,,,,1.49,356.2648346,None,space,1,357.8676234,None,357.8676234,None,357.8676234,None,0.2660753,,,,,,,,,,,P042,FENCOG,2,Pre,2022_May_10_1029,Go No-Go Task,2021.1.4,119.8744675
,"Rule: When you see a yellow image, do not press 'spacebar'.",Images/Happy/AM10_HO.jpg,Happy,Blue,Images/Blue.jpg,space,ParentConditions/YellowYellowBlue_v2.xlsx,YellowYellowBlue,Conditions/Version_2/YellowFearStop.xlsx,no,PASS,0.358031869,,,,,,,,,0,0,0,1,0,0,0,0,0,21,21,21,,,,,,,,,,,,,,,,,,,,,,,,,,,,,,,,,,,,,,,,,,,,,,,,,,,,,,,,,,,,,,,,,,,,,,,,,,,,,,,1.45,358.2663258,None,space,1,359.8253106,None,359.8253106,None,359.8253106,None,0.2925811,,,,,,,,,,,P042,FENCOG,2,Pre,2022_May_10_1029,Go No-Go Task,2021.1.4,119.8744675
,"Rule: When you see a yellow image, do not press 'spacebar'.",Images/Happy/AF09HAS.jpg,Happy,Blue,Images/Blue.jpg,space,ParentConditions/YellowYellowBlue_v2.xlsx,YellowYellowBlue,Conditions/Version_2/YellowFearStop.xlsx,no,PASS,0.209028908,,,,,,,,,0,0,0,1,0,0,0,0,0,22,22,22,,,,,,,,,,,,,,,,,,,,,,,,,,,,,,,,,,,,,,,,,,,,,,,,,,,,,,,,,,,,,,,,,,,,,,,,,,,,,,,1.34,360.2241408,None,space,1,361.674798,None,361.674798,None,361.674798,None,0.2989447,,,,,,,,,,,P042,FENCOG,2,Pre,2022_May_10_1029,Go No-Go Task,2021.1.4,119.8744675
,"Rule: When you see a yellow image, do not press 'spacebar'.",Images/Happy/BM02_HO.jpg,Happy,Blue,Images/Blue.jpg,space,ParentConditions/YellowYellowBlue_v2.xlsx,YellowYellowBlue,Conditions/Version_2/YellowFearStop.xlsx,no,PASS,0.673274105,,,,,,,,,0,0,0,1,0,0,0,0,0,23,23,23,,,,,,,,,,,,,,,,,,,,,,,,,,,,,,,,,,,,,,,,,,,,,,,,,,,,,,,,,,,,,,,,,,,,,,,,,,,,,,,1.95,362.0738201,None,space,1,364.1238371,None,364.1238371,None,364.1238371,None,0.281975,,,,,,,,,,,P042,FENCOG,2,Pre,2022_May_10_1029,Go No-Go Task,2021.1.4,119.8744675
,"Rule: When you see a yellow image, do not press 'spacebar'.",Images/Happy/AM09_HE.jpg,Happy,Blue,Images/Blue.jpg,space,ParentConditions/YellowYellowBlue_v2.xlsx,YellowYellowBlue,Conditions/Version_2/YellowFearStop.xlsx,no,PASS,0.606507822,,,,,,,,,0,0,0,1,0,0,0,0,0,24,24,24,,,,,,,,,,,,,,,,,,,,,,,,,,,,,,,,,,,,,,,,,,,,,,,,,,,,,,,,,,,,,,,,,,,,,,,,,,,,,,,1.58,364.5258995,None,space,1,366.215106,None,366.215106,None,366.215106,None,0.3186571,,,,,,,,,,,P042,FENCOG,2,Pre,2022_May_10_1029,Go No-Go Task,2021.1.4,119.8744675
,"Rule: When you see a yellow image, do not press 'spacebar'.",Images/Happy/AF10_HE.jpg,Happy,Blue,Images/Blue.jpg,space,ParentConditions/YellowYellowBlue_v2.xlsx,YellowYellowBlue,Conditions/Version_2/YellowFearStop.xlsx,no,PASS,0.68699688,,,,,,,,,0,0,0,1,0,0,0,0,0,25,25,25,,,,,,,,,,,,,,,,,,,,,,,,,,,,,,,,,,,,,,,,,,,,,,,,,,,,,,,,,,,,,,,,,,,,,,,,,,,,,,,1.41,366.6154454,None,space,1,368.1311347,None,368.1311347,None,368.1311347,None,0.306575,,,,,,,,,,,P042,FENCOG,2,Pre,2022_May_10_1029,Go No-Go Task,2021.1.4,119.8744675
,"Rule: When you see a yellow image, do not press 'spacebar'.",Images/Happy/BM01_HO.jpg,Happy,Blue,Images/Blue.jpg,space,ParentConditions/YellowYellowBlue_v2.xlsx,YellowYellowBlue,Conditions/Version_2/YellowFearStop.xlsx,no,PASS,0.5538207,,,,,,,,,0,0,0,1,0,0,0,0,0,26,26,26,,,,,,,,,,,,,,,,,,,,,,,,,,,,,,,,,,,,,,,,,,,,,,,,,,,,,,,,,,,,,,,,,,,,,,,,,,,,,,,1.54,368.5302319,None,space,1,370.1804768,None,370.1804768,None,370.1804768,None,0.3052758,,,,,,,,,,,P042,FENCOG,2,Pre,2022_May_10_1029,Go No-Go Task,2021.1.4,119.8744675
,"Rule: When you see a yellow image, do not press 'spacebar'.",Images/Fearful/AF07_FO.jpg,Fear,Yellow,Images/Yellow.jpg,None,ParentConditions/YellowYellowBlue_v2.xlsx,YellowYellowBlue,Conditions/Version_2/YellowFearStop.xlsx,yes,PASS,0.568987932,,,,,,,,,0,0,0,1,0,0,0,0,0,27,27,27,,,,,,,,,,,,,,,,,,,,,,,,,,,,,,,,,,,,,,,,,,,,,,,,,,,,,,,,,,,,,,,,,,,,,,,,,,,,,,,1.88,370.579495,None,None,1,372.571465,None,372.571465,None,372.571465,None,,,,,,,,,,,,P042,FENCOG,2,Pre,2022_May_10_1029,Go No-Go Task,2021.1.4,119.8744675
,"Rule: When you see a yellow image, do not press 'spacebar'.",Images/Happy/BF18_HO.jpg,Happy,Blue,Images/Blue.jpg,space,ParentConditions/YellowYellowBlue_v2.xlsx,YellowYellowBlue,Conditions/Version_2/YellowFearStop.xlsx,no,PASS,0.252890825,,,,,,,,,0,0,0,1,0,0,0,0,0,28,28,28,,,,,,,,,,,,,,,,,,,,,,,,,,,,,,,,,,,,,,,,,,,,,,,,,,,,,,,,,,,,,,,,,,,,,,,,,,,,,,,1.84,372.9704125,None,space,1,374.9203968,None,374.9203968,None,374.9203968,None,0.3493051,,,,,,,,,,,P042,FENCOG,2,Pre,2022_May_10_1029,Go No-Go Task,2021.1.4,119.8744675
,"Rule: When you see a yellow image, do not press 'spacebar'.",Images/Happy/AM03HAS.jpg,Happy,Blue,Images/Blue.jpg,space,ParentConditions/YellowYellowBlue_v2.xlsx,YellowYellowBlue,Conditions/Version_2/YellowFearStop.xlsx,no,PASS,0.612970552,,,,,,,,,0,0,0,1,0,0,0,0,0,29,29,29,,,,,,,,,,,,,,,,,,,,,,,,,,,,,,,,,,,,,,,,,,,,,,,,,,,,,,,,,,,,,,,,,,,,,,,,,,,,,,,1.72,375.3199096,None,None,0,377.1534411,None,377.1534411,None,377.1534411,None,,,,,,,,,,,,P042,FENCOG,2,Pre,2022_May_10_1029,Go No-Go Task,2021.1.4,119.8744675
,"Rule: When you see a yellow image, do not press 'spacebar'.",Images/Happy/BF10_HO.jpg,Happy,Blue,Images/Blue.jpg,space,ParentConditions/YellowYellowBlue_v2.xlsx,YellowYellowBlue,Conditions/Version_2/YellowFearStop.xlsx,no,PASS,0.663321465,,,,,,,,,0,0,0,1,0,0,0,0,0,30,30,30,,,,,,,,,,,,,,,,,,,,,,,,,,,,,,,,,,,,,,,,,,,,,,,,,,,,,,,,,,,,,,,,,,,,,,,,,,,,,,,1.39,377.5483508,None,space,1,379.0528759,None,379.0528759,None,379.0528759,None,0.2810568,,,,,,,,,,,P042,FENCOG,2,Pre,2022_May_10_1029,Go No-Go Task,2021.1.4,119.8744675
,"Rule: When you see a yellow image, do not press 'spacebar'.",Images/Happy/BF07_HO.jpg,Happy,Blue,Images/Blue.jpg,space,ParentConditions/YellowYellowBlue_v2.xlsx,YellowYellowBlue,Conditions/Version_2/YellowFearStop.xlsx,no,PASS,0.383434418,,,,,,,,,0,0,0,1,0,0,0,0,0,31,31,31,,,,,,,,,,,,,,,,,,,,,,,,,,,,,,,,,,,,,,,,,,,,,,,,,,,,,,,,,,,,,,,,,,,,,,,,,,,,,,,1.4,379.4523688,None,space,1,380.9606604,None,380.9606604,None,380.9606604,None,0.2931228,,,,,,,,,,,P042,FENCOG,2,Pre,2022_May_10_1029,Go No-Go Task,2021.1.4,119.8744675
,"Rule: When you see a yellow image, do not press 'spacebar'.",Images/Fearful/BF07_FO.jpg,Fear,Yellow,Images/Yellow.jpg,None,ParentConditions/YellowYellowBlue_v2.xlsx,YellowYellowBlue,Conditions/Version_2/YellowFearStop.xlsx,yes,PASS,0.008316205,,,,,,,,,0,0,0,1,0,0,0,0,0,32,32,32,,,,,,,,,,,,,,,,,,,,,,,,,,,,,,,,,,,,,,,,,,,,,,,,,,,,,,,,,,,,,,,,,,,,,,,,,,,,,,,1.53,381.356691,None,None,1,382.9934007,None,382.9934007,None,382.9934007,None,,,,,,,,,,,,P042,FENCOG,2,Pre,2022_May_10_1029,Go No-Go Task,2021.1.4,119.8744675
,"Rule: When you see a yellow image, do not press 'spacebar'.",Images/Happy/WF04_HC.jpg,Happy,Blue,Images/Blue.jpg,space,ParentConditions/YellowYellowBlue_v2.xlsx,YellowYellowBlue,Conditions/Version_2/YellowFearStop.xlsx,no,PASS,0.677749508,,,,,,,,,0,0,0,1,0,0,0,0,0,33,33,33,,,,,,,,,,,,,,,,,,,,,,,,,,,,,,,,,,,,,,,,,,,,,,,,,,,,,,,,,,,,,,,,,,,,,,,,,,,,,,,1.48,383.3939557,None,None,0,384.9844677,None,384.9844677,None,384.9844677,None,,,,,,,,,,,,P042,FENCOG,2,Pre,2022_May_10_1029,Go No-Go Task,2021.1.4,119.8744675
,"Rule: When you see a yellow image, do not press 'spacebar'.",Images/Happy/AM23HAS.jpg,Happy,Blue,Images/Blue.jpg,space,ParentConditions/YellowYellowBlue_v2.xlsx,YellowYellowBlue,Conditions/Version_2/YellowFearStop.xlsx,no,PASS,0.043037124,,,,,,,,,0,0,0,1,0,0,0,0,0,34,34,34,,,,,,,,,,,,,,,,,,,,,,,,,,,,,,,,,,,,,,,,,,,,,,,,,,,,,,,,,,,,,,,,,,,,,,,,,,,,,,,1.56,385.3833581,None,space,1,387.0588536,None,387.0588536,None,387.0588536,None,0.3152396,,,,,,,,,,,P042,FENCOG,2,Pre,2022_May_10_1029,Go No-Go Task,2021.1.4,119.8744675
,"Rule: When you see a yellow image, do not press 'spacebar'.",Images/Happy/AM09HAS.jpg,Happy,Blue,Images/Blue.jpg,space,ParentConditions/YellowYellowBlue_v2.xlsx,YellowYellowBlue,Conditions/Version_2/YellowFearStop.xlsx,no,PASS,0.095748362,,,,,,,,,0,0,0,1,0,0,0,0,0,35,35,35,,,,,,,,,,,,,,,,,,,,,,,,,,,,,,,,,,,,,,,,,,,,,,,,,,,,,,,,,,,,,,,,,,,,,,,,,,,,,,,1.47,387.4565317,None,space,1,389.0416962,None,389.0416962,None,389.0416962,None,0.2521526,,,,,,,,,,,P042,FENCOG,2,Pre,2022_May_10_1029,Go No-Go Task,2021.1.4,119.8744675
,"Rule: When you see a yellow image, do not press 'spacebar'.",Images/Happy/AM10HAS.jpg,Happy,Blue,Images/Blue.jpg,space,ParentConditions/YellowYellowBlue_v2.xlsx,YellowYellowBlue,Conditions/Version_2/YellowFearStop.xlsx,no,PASS,0.163091291,,,,,,,,,0,0,0,1,0,0,0,0,0,36,36,36,,,,,,,,,,,,,,,,,,,,,,,,,,,,,,,,,,,,,,,,,,,,,,,,,,,,,,,,,,,,,,,,,,,,,,,,,,,,,,,1.46,389.4435832,None,space,1,391.0157038,None,391.0157038,None,391.0157038,None,0.2541174,,,,,,,,,,,P042,FENCOG,2,Pre,2022_May_10_1029,Go No-Go Task,2021.1.4,119.8744675
,"Rule: When you see a yellow image, do not press 'spacebar'.",Images/Happy/AF07HAS.jpg,Happy,Blue,Images/Blue.jpg,space,ParentConditions/YellowYellowBlue_v2.xlsx,YellowYellowBlue,Conditions/Version_2/YellowFearStop.xlsx,no,PASS,0.348674719,,,,,,,,,0,0,0,1,0,0,0,0,0,37,37,37,,,,,,,,,,,,,,,,,,,,,,,,,,,,,,,,,,,,,,,,,,,,,,,,,,,,,,,,,,,,,,,,,,,,,,,,,,,,,,,1.44,391.4149523,None,space,1,392.9654284,None,392.9654284,None,392.9654284,None,0.2570649,,,,,,,,,,,P042,FENCOG,2,Pre,2022_May_10_1029,Go No-Go Task,2021.1.4,119.8744675
,"Rule: When you see a yellow image, do not press 'spacebar'.",Images/Happy/AM03_HO.jpg,Happy,Blue,Images/Blue.jpg,space,ParentConditions/YellowYellowBlue_v2.xlsx,YellowYellowBlue,Conditions/Version_2/YellowFearStop.xlsx,no,PASS,0.885204794,,,,,,,,,0,0,0,1,0,0,0,0,0,38,38,38,,,,,,,,,,,,,,,,,,,,,,,,,,,,,,,,,,,,,,,,,,,,,,,,,,,,,,,,,,,,,,,,,,,,,,,,,,,,,,,1.36,393.3623958,None,space,1,394.8313747,None,394.8313747,None,394.8313747,None,0.2624005,,,,,,,,,,,P042,FENCOG,2,Pre,2022_May_10_1029,Go No-Go Task,2021.1.4,119.8744675
,"Rule: When you see a yellow image, do not press 'spacebar'.",Images/Happy/AM05HAS.jpg,Happy,Blue,Images/Blue.jpg,space,ParentConditions/YellowYellowBlue_v2.xlsx,YellowYellowBlue,Conditions/Version_2/YellowFearStop.xlsx,no,PASS,0.254967981,,,,,,,,,0,0,0,1,0,0,0,0,0,39,39,39,,,,,,,,,,,,,,,,,,,,,,,,,,,,,,,,,,,,,,,,,,,,,,,,,,,,,,,,,,,,,,,,,,,,,,,,,,,,,,,1.66,395.2307383,None,space,1,397.005943,None,397.005943,None,397.005943,None,0.2797628,,,,,,,,,,,P042,FENCOG,2,Pre,2022_May_10_1029,Go No-Go Task,2021.1.4,119.8744675
,"Rule: When you see a yellow image, do not press 'spacebar'.",Images/Happy/AF02HAS.jpg,Happy,Blue,Images/Blue.jpg,space,ParentConditions/YellowYellowBlue_v2.xlsx,YellowYellowBlue,Conditions/Version_2/YellowFearStop.xlsx,no,PASS,0.451861001,,,,,,,,,0,0,0,1,0,0,0,0,0,40,40,40,,,,,,,,,,,,,,,,,,,,,,,,,,,,,,,,,,,,,,,,,,,,,,,,,,,,,,,,,,,,,,,,,,,,,,,,,,,,,,,1.67,397.4051567,None,space,1,399.1886088,None,399.1886088,None,399.1886088,None,0.3133508,,,,,,,,,,,P042,FENCOG,2,Pre,2022_May_10_1029,Go No-Go Task,2021.1.4,119.8744675
,"Rule: When you see a yellow image, do not press 'spacebar'.",Images/Happy/BM08_HO.jpg,Happy,Blue,Images/Blue.jpg,space,ParentConditions/YellowYellowBlue_v2.xlsx,YellowYellowBlue,Conditions/Version_2/YellowFearStop.xlsx,no,PASS,0.610918027,,,,,,,,,0,0,0,1,0,0,0,0,0,41,41,41,,,,,,,,,,,,,,,,,,,,,,,,,,,,,,,,,,,,,,,,,,,,,,,,,,,,,,,,,,,,,,,,,,,,,,,,,,,,,,,1.55,399.5849427,None,space,1,401.2380406,None,401.2380406,None,401.2380406,None,0.3116368,,,,,,,,,,,P042,FENCOG,2,Pre,2022_May_10_1029,Go No-Go Task,2021.1.4,119.8744675
,"Rule: When you see a yellow image, do not press 'spacebar'.",Images/Happy/AM22HAS.jpg,Happy,Blue,Images/Blue.jpg,space,ParentConditions/YellowYellowBlue_v2.xlsx,YellowYellowBlue,Conditions/Version_2/YellowFearStop.xlsx,no,PASS,0.35880856,,,,,,,,,0,0,0,1,0,0,0,0,0,42,42,42,,,,,,,,,,,,,,,,,,,,,,,,,,,,,,,,,,,,,,,,,,,,,,,,,,,,,,,,,,,,,,,,,,,,,,,,,,,,,,,1.28,401.6390666,None,space,1,403.020821,None,403.020821,None,403.020821,None,0.2648729,,,,,,,,,,,P042,FENCOG,2,Pre,2022_May_10_1029,Go No-Go Task,2021.1.4,119.8744675
,"Rule: When you see a yellow image, do not press 'spacebar'.",Images/Happy/AM30HAS.jpg,Happy,Blue,Images/Blue.jpg,space,ParentConditions/YellowYellowBlue_v2.xlsx,YellowYellowBlue,Conditions/Version_2/YellowFearStop.xlsx,no,PASS,0.02897569,,,,,,,,,0,0,0,1,0,0,0,0,0,43,43,43,,,,,,,,,,,,,,,,,,,,,,,,,,,,,,,,,,,,,,,,,,,,,,,,,,,,,,,,,,,,,,,,,,,,,,,,,,,,,,,1.37,403.4228655,None,space,1,404.9035503,None,404.9035503,None,404.9035503,None,0.2943064,,,,,,,,,,,P042,FENCOG,2,Pre,2022_May_10_1029,Go No-Go Task,2021.1.4,119.8744675
,"Rule: When you see a yellow image, do not press 'spacebar'.",Images/Fearful/BF09_FC.jpg,Fear,Yellow,Images/Yellow.jpg,None,ParentConditions/YellowYellowBlue_v2.xlsx,YellowYellowBlue,Conditions/Version_2/YellowFearStop.xlsx,yes,PASS,0.336569123,,,,,,,,,0,0,0,1,0,0,0,0,0,44,44,44,,,,,,,,,,,,,,,,,,,,,,,,,,,,,,,,,,,,,,,,,,,,,,,,,,,,,,,,,,,,,,,,,,,,,,,,,,,,,,,1.99,405.3028958,None,None,1,407.4028446,None,407.4028446,None,407.4028446,None,,,,,,,,,,,,P042,FENCOG,2,Pre,2022_May_10_1029,Go No-Go Task,2021.1.4,119.8744675
,"Rule: When you see a yellow image, do not press 'spacebar'.",Images/Happy/WM12_HE.jpg,Happy,Blue,Images/Blue.jpg,space,ParentConditions/YellowYellowBlue_v2.xlsx,YellowYellowBlue,Conditions/Version_2/YellowFearStop.xlsx,no,PASS,0.760185099,,,,,,,,,0,0,0,1,0,0,0,0,0,45,45,45,,,,,,,,,,,,,,,,,,,,,,,,,,,,,,,,,,,,,,,,,,,,,,,,,,,,,,,,,,,,,,,,,,,,,,,,,,,,,,,1.31,407.8019585,None,space,1,409.227134,None,409.227134,None,409.227134,None,0.3390428,,,,,,,,,,,P042,FENCOG,2,Pre,2022_May_10_1029,Go No-Go Task,2021.1.4,119.8744675
,"Rule: When you see a yellow image, do not press 'spacebar'.",Images/Happy/HF10_HE.jpg,Happy,Blue,Images/Blue.jpg,space,ParentConditions/YellowYellowBlue_v2.xlsx,YellowYellowBlue,Conditions/Version_2/YellowFearStop.xlsx,no,PASS,0.665072727,,,,,,,,,0,0,0,1,0,0,0,0,0,46,46,46,,,,,,,,,,,,,,,,,,,,,,,,,,,,,,,,,,,,,,,,,,,,,,,,,,,,,,,,,,,,,,,,,,,,,,,,,,,,,,,1.77,409.6273754,None,space,1,411.501651,None,411.501651,None,411.501651,None,0.3122463,,,,,,,,,,,P042,FENCOG,2,Pre,2022_May_10_1029,Go No-Go Task,2021.1.4,119.8744675
,"Rule: When you see a yellow image, do not press 'spacebar'.",Images/Happy/HM09_HO.jpg,Happy,Blue,Images/Blue.jpg,space,ParentConditions/YellowYellowBlue_v2.xlsx,YellowYellowBlue,Conditions/Version_2/YellowFearStop.xlsx,no,PASS,0.71966193,,,,,,,,,0,0,0,1,0,0,0,0,0,47,47,47,,,,,,,,,,,,,,,,,,,,,,,,,,,,,,,,,,,,,,,,,,,,,,,,,,,,,,,,,,,,,,,,,,,,,,,,,,,,,,,1.71,411.9003517,None,space,1,413.7176482,None,413.7176482,None,413.7176482,None,0.3119464,,,,,,,,,,,P042,FENCOG,2,Pre,2022_May_10_1029,Go No-Go Task,2021.1.4,119.8744675
,"Rule: When you see a yellow image, do not press 'spacebar'.",Images/Fearful/AM03_FC.jpg,Fear,Yellow,Images/Yellow.jpg,None,ParentConditions/YellowYellowBlue_v2.xlsx,YellowYellowBlue,Conditions/Version_2/YellowFearStop.xlsx,yes,PASS,0.902115461,,,,,,,,,0,0,0,1,0,0,0,0,0,48,48,48,,,,,,,,,,,,,,,,,,,,,,,,,,,,,,,,,,,,,,,,,,,,,,,,,,,,,,,,,,,,,,,,,,,,,,,,,,,,,,,1.86,414.1184724,None,None,1,416.0919755,None,416.0919755,None,416.0919755,None,,,,,,,,,,,,P042,FENCOG,2,Pre,2022_May_10_1029,Go No-Go Task,2021.1.4,119.8744675
,"Rule: When you see a yellow image, do not press 'spacebar'.",Images/Happy/HF04_HE.jpg,Happy,Blue,Images/Blue.jpg,space,ParentConditions/YellowYellowBlue_v2.xlsx,YellowYellowBlue,Conditions/Version_2/YellowFearStop.xlsx,no,PASS,0.682828264,,,,,,,,,0,0,0,1,0,0,0,0,0,49,49,49,,,,,,,,,,,,,,,,,,,,,,,,,,,,,,,,,,,,,,,,,,,,,,,,,,,,,,,,,,,,,,,,,,,,,,,,,,,,,,,1.8,416.4885792,None,space,1,418.3912411,None,418.3912411,None,418.3912411,None,0.2785069,,,,,,,,,,,P042,FENCOG,2,Pre,2022_May_10_1029,Go No-Go Task,2021.1.4,119.8744675
,"Rule: When you see a yellow image, do not press 'spacebar'.",Images/Happy/AM17HAS.jpg,Happy,Blue,Images/Blue.jpg,space,ParentConditions/YellowYellowBlue_v2.xlsx,YellowYellowBlue,Conditions/Version_2/YellowFearStop.xlsx,no,PASS,0.772684013,,,,,,,,,0,0,0,1,0,0,0,0,0,50,50,50,,,,,,,,,,,,,,,,,,,,,,,,,,,,,,,,,,,,,,,,,,,,,,,,,,,,,,,,,,,,,,,,,,,,,,,,,,,,,,,1.32,418.7927684,None,space,1,420.2324232,None,420.2324232,None,420.2324232,None,0.2693431,,,,,,,,,,,P042,FENCOG,2,Pre,2022_May_10_1029,Go No-Go Task,2021.1.4,119.8744675
,"Rule: When you see a yellow image, do not press 'spacebar'.",Images/Fearful/BM01_FO.jpg,Fear,Yellow,Images/Yellow.jpg,None,ParentConditions/YellowYellowBlue_v2.xlsx,YellowYellowBlue,Conditions/Version_2/YellowFearStop.xlsx,yes,PASS,0.029850229,,,,,,,,,0,0,0,1,0,0,0,0,0,51,51,51,,,,,,,,,,,,,,,,,,,,,,,,,,,,,,,,,,,,,,,,,,,,,,,,,,,,,,,,,,,,,,,,,,,,,,,,,,,,,,,1.42,420.6193344,None,None,1,422.1484842,None,422.1484842,None,422.1484842,None,,,,,,,,,,,,P042,FENCOG,2,Pre,2022_May_10_1029,Go No-Go Task,2021.1.4,119.8744675
,"Rule: When you see a yellow image, do not press 'spacebar'.",Images/Happy/HF09_HE.jpg,Happy,Blue,Images/Blue.jpg,space,ParentConditions/YellowYellowBlue_v2.xlsx,YellowYellowBlue,Conditions/Version_2/YellowFearStop.xlsx,no,PASS,0.541629704,,,,,,,,,0,0,0,1,0,0,0,0,0,52,52,52,,,,,,,,,,,,,,,,,,,,,,,,,,,,,,,,,,,,,,,,,,,,,,,,,,,,,,,,,,,,,,,,,,,,,,,,,,,,,,,1.52,422.5474312,None,space,1,424.1730186,None,424.1730186,None,424.1730186,None,0.3607706,,,,,,,,,,,P042,FENCOG,2,Pre,2022_May_10_1029,Go No-Go Task,2021.1.4,119.8744675
,"Rule: When you see a yellow image, do not press 'spacebar'.",Images/Happy/WF11_HE.jpg,Happy,Blue,Images/Blue.jpg,space,ParentConditions/YellowYellowBlue_v2.xlsx,YellowYellowBlue,Conditions/Version_2/YellowFearStop.xlsx,no,PASS,0.392339947,,,,,,,,,0,0,0,1,0,0,0,0,0,53,53,53,,,,,,,,,,,,,,,,,,,,,,,,,,,,,,,,,,,,,,,,,,,,,,,,,,,,,,,,,,,,,,,,,,,,,,,,,,,,,,,1.97,424.5735514,None,None,0,426.6555807,None,426.6555807,None,426.6555807,None,,,,,,,,,,,,P042,FENCOG,2,Pre,2022_May_10_1029,Go No-Go Task,2021.1.4,119.8744675
,"Rule: When you see a yellow image, do not press 'spacebar'.",Images/Fearful/AM04AFS.jpg,Fear,Yellow,Images/Yellow.jpg,None,ParentConditions/YellowYellowBlue_v2.xlsx,YellowYellowBlue,Conditions/Version_2/YellowFearStop.xlsx,yes,PASS,0.710626374,,,,,,,,,0,0,0,1,0,0,0,0,0,54,54,54,,,,,,,,,,,,,,,,,,,,,,,,,,,,,,,,,,,,,,,,,,,,,,,,,,,,,,,,,,,,,,,,,,,,,,,,,,,,,,,1.96,427.0543618,None,None,1,429.1380851,None,429.1380851,None,429.1380851,None,,,,,,,,,,,,P042,FENCOG,2,Pre,2022_May_10_1029,Go No-Go Task,2021.1.4,119.8744675
,"Rule: When you see a yellow image, do not press 'spacebar'.",Images/Happy/AF19HAS.jpg,Happy,Blue,Images/Blue.jpg,space,ParentConditions/YellowYellowBlue_v2.xlsx,YellowYellowBlue,Conditions/Version_2/YellowFearStop.xlsx,no,PASS,0.341912898,,,,,,,,,0,0,0,1,0,0,0,0,0,55,55,55,,,,,,,,,,,,,,,,,,,,,,,,,,,,,,,,,,,,,,,,,,,,,,,,,,,,,,,,,,,,,,,,,,,,,,,,,,,,,,,1.35,429.5286517,None,space,1,430.9793661,None,430.9793661,None,430.9793661,None,0.2744366,,,,,,,,,,,P042,FENCOG,2,Pre,2022_May_10_1029,Go No-Go Task,2021.1.4,119.8744675
,"Rule: When you see a yellow image, do not press 'spacebar'.",Images/Happy/HM06_HO.jpg,Happy,Blue,Images/Blue.jpg,space,ParentConditions/YellowYellowBlue_v2.xlsx,YellowYellowBlue,Conditions/Version_2/YellowFearStop.xlsx,no,PASS,0.821515408,,,,,,,,,0,0,0,1,0,0,0,0,0,56,56,56,,,,,,,,,,,,,,,,,,,,,,,,,,,,,,,,,,,,,,,,,,,,,,,,,,,,,,,,,,,,,,,,,,,,,,,,,,,,,,,1.23,431.3814315,None,space,1,432.720395,None,432.720395,None,432.720395,None,0.3412967,,,,,,,,,,,P042,FENCOG,2,Pre,2022_May_10_1029,Go No-Go Task,2021.1.4,119.8744675
,"Rule: When you see a yellow image, do not press 'spacebar'.",Images/Happy/HF05_HO.jpg,Happy,Blue,Images/Blue.jpg,space,ParentConditions/YellowYellowBlue_v2.xlsx,YellowYellowBlue,Conditions/Version_2/YellowFearStop.xlsx,no,PASS,0.441894519,,,,,,,,,0,0,0,1,0,0,0,0,0,57,57,57,,,,,,,,,,,,,,,,,,,,,,,,,,,,,,,,,,,,,,,,,,,,,,,,,,,,,,,,,,,,,,,,,,,,,,,,,,,,,,,1.21,433.1194478,None,space,1,434.4364778,None,434.4364778,None,434.4364778,None,0.3292186,,,,,,,,,,,P042,FENCOG,2,Pre,2022_May_10_1029,Go No-Go Task,2021.1.4,119.8744675
,"Rule: When you see a yellow image, do not press 'spacebar'.",Images/Fearful/AF01_FO.jpg,Fear,Yellow,Images/Yellow.jpg,None,ParentConditions/YellowYellowBlue_v2.xlsx,YellowYellowBlue,Conditions/Version_2/YellowFearStop.xlsx,yes,PASS,0.963026075,,,,,,,,,0,0,0,1,0,0,0,0,0,58,58,58,,,,,,,,,,,,,,,,,,,,,,,,,,,,,,,,,,,,,,,,,,,,,,,,,,,,,,,,,,,,,,,,,,,,,,,,,,,,,,,1.7,434.8373173,None,None,1,436.644202,None,436.644202,None,436.644202,None,,,,,,,,,,,,P042,FENCOG,2,Pre,2022_May_10_1029,Go No-Go Task,2021.1.4,119.8744675
,"Rule: When you see a yellow image, do not press 'spacebar'.",Images/Happy/AF21HAS.jpg,Happy,Blue,Images/Blue.jpg,space,ParentConditions/YellowYellowBlue_v2.xlsx,YellowYellowBlue,Conditions/Version_2/YellowFearStop.xlsx,no,PASS,0.541097716,,,,,,,,,0,0,0,1,0,0,0,0,0,59,59,59,,,,,,,,,,,,,,,,,,,,,,,,,,,,,,,,,,,,,,,,,,,,,,,,,,,,,,,,,,,,,,,,,,,,,,,,,,,,,,,1.65,437.0494578,None,space,1,438.8101941,None,438.8101941,None,438.8101941,None,0.2996144,,,,,,,,,,,P042,FENCOG,2,Pre,2022_May_10_1029,Go No-Go Task,2021.1.4,119.8744675
,"Rule: When you see a yellow image, do not press 'spacebar'.",Images/Happy/AM06_HC.jpg,Happy,Blue,Images/Blue.jpg,space,ParentConditions/YellowYellowBlue_v2.xlsx,YellowYellowBlue,Conditions/Version_2/YellowFearStop.xlsx,no,PASS,0.819545807,,,,,,,,,0,0,0,1,0,0,0,0,0,60,60,60,,,,,,,,,,,,,,,,,,,,,,,,,,,,,,,,,,,,,,,,,,,,,,,,,,,,,,,,,,,,,,,,,,,,,,,,,,,,,,,1.75,439.2091755,None,space,1,441.0762773,None,441.0762773,None,441.0762773,None,0.2654112,,,,,,,,,,,P042,FENCOG,2,Pre,2022_May_10_1029,Go No-Go Task,2021.1.4,119.8744675
,"Rule: When you see a yellow image, do not press 'spacebar'.",Images/Fearful/AF02AFS.jpg,Fear,Yellow,Images/Yellow.jpg,None,ParentConditions/YellowYellowBlue_v2.xlsx,YellowYellowBlue,Conditions/Version_2/YellowFearStop.xlsx,yes,PASS,0.434756054,,,,,,,,,0,0,0,1,0,0,0,0,0,61,61,61,,,,,,,,,,,,,,,,,,,,,,,,,,,,,,,,,,,,,,,,,,,,,,,,,,,,,,,,,,,,,,,,,,,,,,,,,,,,,,,1.9,441.4683008,None,None,1,443.4921927,None,443.4921927,None,443.4921927,None,,,,,,,,,,,,P042,FENCOG,2,Pre,2022_May_10_1029,Go No-Go Task,2021.1.4,119.8744675
,"Rule: When you see a yellow image, do not press 'spacebar'.",Images/Happy/AF25HAS.jpg,Happy,Blue,Images/Blue.jpg,space,ParentConditions/YellowYellowBlue_v2.xlsx,YellowYellowBlue,Conditions/Version_2/YellowFearStop.xlsx,no,PASS,0.353445622,,,,,,,,,0,0,0,1,0,0,0,0,0,62,62,62,,,,,,,,,,,,,,,,,,,,,,,,,,,,,,,,,,,,,,,,,,,,,,,,,,,,,,,,,,,,,,,,,,,,,,,,,,,,,,,1.76,443.8798688,None,space,1,445.7498519,None,445.7498519,None,445.7498519,None,0.3037098,,,,,,,,,,,P042,FENCOG,2,Pre,2022_May_10_1029,Go No-Go Task,2021.1.4,119.8744675
,"Rule: When you see a yellow image, do not press 'spacebar'.",Images/Happy/AM32HAS.jpg,Happy,Blue,Images/Blue.jpg,space,ParentConditions/YellowYellowBlue_v2.xlsx,YellowYellowBlue,Conditions/Version_2/YellowFearStop.xlsx,no,PASS,0.108461568,,,,,,,,,0,0,0,1,0,0,0,0,0,63,63,63,,,,,,,,,,,,,,,,,,,,,,,,,,,,,,,,,,,,,,,,,,,,,,,,,,,,,,,,,,,,,,,,,,,,,,,,,,,,,,,1.82,446.148753,None,space,1,448.0742133,None,448.0742133,None,448.0742133,None,0.315518,,,,,,,,,,,P042,FENCOG,2,Pre,2022_May_10_1029,Go No-Go Task,2021.1.4,119.8744675
,"Rule: When you see a yellow image, do not press 'spacebar'.",Images/Fearful/AM02_FO.jpg,Fear,Yellow,Images/Yellow.jpg,None,ParentConditions/YellowYellowBlue_v2.xlsx,YellowYellowBlue,Conditions/Version_2/YellowFearStop.xlsx,yes,PASS,0.09349205,,,,,,,,,0,0,0,1,0,0,0,0,0,64,64,64,,,,,,,,,,,,,,,,,,,,,,,,,,,,,,,,,,,,,,,,,,,,,,,,,,,,,,,,,,,,,,,,,,,,,,,,,,,,,,,1.94,448.4749715,None,None,1,450.5234363,None,450.5234363,None,450.5234363,None,,,,,,,,,,,,P042,FENCOG,2,Pre,2022_May_10_1029,Go No-Go Task,2021.1.4,119.8744675
,"Rule: When you see a yellow image, do not press 'spacebar'.",Images/Fearful/BM02_FC.jpg,Fear,Yellow,Images/Yellow.jpg,None,ParentConditions/YellowYellowBlue_v2.xlsx,YellowYellowBlue,Conditions/Version_2/YellowFearStop.xlsx,yes,PASS,0.839077799,,,,,,,,,0,0,0,1,0,0,0,0,0,65,65,65,,,,,,,,,,,,,,,,,,,,,,,,,,,,,,,,,,,,,,,,,,,,,,,,,,,,,,,,,,,,,,,,,,,,,,,,,,,,,,,1.26,450.9225376,None,None,1,452.2896001,None,452.2896001,None,452.2896001,None,,,,,,,,,,,,P042,FENCOG,2,Pre,2022_May_10_1029,Go No-Go Task,2021.1.4,119.8744675
,"Rule: When you see a yellow image, do not press 'spacebar'.",Images/Happy/AM04_HE.jpg,Happy,Blue,Images/Blue.jpg,space,ParentConditions/YellowYellowBlue_v2.xlsx,YellowYellowBlue,Conditions/Version_2/YellowFearStop.xlsx,no,PASS,0.268677408,,,,,,,,,0,0,0,1,0,0,0,0,0,66,66,66,,,,,,,,,,,,,,,,,,,,,,,,,,,,,,,,,,,,,,,,,,,,,,,,,,,,,,,,,,,,,,,,,,,,,,,,,,,,,,,1.62,452.6947981,None,space,1,454.4306242,None,454.4306242,None,454.4306242,None,0.2958426,,,,,,,,,,,P042,FENCOG,2,Pre,2022_May_10_1029,Go No-Go Task,2021.1.4,119.8744675
,"Rule: When you see a yellow image, do not press 'spacebar'.",Images/Fearful/AM05AFS.jpg,Fear,Yellow,Images/Yellow.jpg,None,ParentConditions/YellowYellowBlue_v2.xlsx,YellowYellowBlue,Conditions/Version_2/YellowFearStop.xlsx,yes,PASS,0.695126325,,,,,,,,,0,0,0,1,0,0,0,0,0,67,67,67,,,,,,,,,,,,,,,,,,,,,,,,,,,,,,,,,,,,,,,,,,,,,,,,,,,,,,,,,,,,,,,,,,,,,,,,,,,,,,,1.81,454.8295544,None,None,1,456.7549311,None,456.7549311,None,456.7549311,None,,,,,,,,,,,,P042,FENCOG,2,Pre,2022_May_10_1029,Go No-Go Task,2021.1.4,119.8744675
,"Rule: When you see a yellow image, do not press 'spacebar'.",Images/Happy/AF28HAS.jpg,Happy,Blue,Images/Blue.jpg,space,ParentConditions/YellowYellowBlue_v2.xlsx,YellowYellowBlue,Conditions/Version_2/YellowFearStop.xlsx,no,PASS,0.25032706,,,,,,,,,0,0,0,1,0,0,0,0,0,68,68,68,,,,,,,,,,,,,,,,,,,,,,,,,,,,,,,,,,,,,,,,,,,,,,,,,,,,,,,,,,,,,,,,,,,,,,,,,,,,,,,1.74,457.1538809,None,space,1,459.0042218,None,459.0042218,None,459.0042218,None,0.3057938,,,,,,,,,,,P042,FENCOG,2,Pre,2022_May_10_1029,Go No-Go Task,2021.1.4,119.8744675
,"Rule: When you see a yellow image, do not press 'spacebar'.",Images/Happy/AF07_HO.jpg,Happy,Blue,Images/Blue.jpg,space,ParentConditions/YellowYellowBlue_v2.xlsx,YellowYellowBlue,Conditions/Version_2/YellowFearStop.xlsx,no,PASS,0.293841477,,,,,,,,,0,0,0,1,0,0,0,0,0,69,69,69,,,,,,,,,,,,,,,,,,,,,,,,,,,,,,,,,,,,,,,,,,,,,,,,,,,,,,,,,,,,,,,,,,,,,,,,,,,,,,,1.33,459.4034907,None,space,1,460.8453963,None,460.8453963,None,460.8453963,None,0.3041099,,,,,,,,,,,P042,FENCOG,2,Pre,2022_May_10_1029,Go No-Go Task,2021.1.4,119.8744675
,"Rule: When you see a yellow image, do not press 'spacebar'.",Images/Happy/BF14_HO.jpg,Happy,Blue,Images/Blue.jpg,space,ParentConditions/YellowYellowBlue_v2.xlsx,YellowYellowBlue,Conditions/Version_2/YellowFearStop.xlsx,no,PASS,0.404225194,,,,,,,,,0,0,0,1,0,0,0,0,0,70,70,70,,,,,,,,,,,,,,,,,,,,,,,,,,,,,,,,,,,,,,,,,,,,,,,,,,,,,,,,,,,,,,,,,,,,,,,,,,,,,,,1.2,461.2442755,None,space,1,462.5533274,None,462.5533274,None,462.5533274,None,0.3083751,,,,,,,,,,,P042,FENCOG,2,Pre,2022_May_10_1029,Go No-Go Task,2021.1.4,119.8744675
,"Rule: When you see a yellow image, do not press 'spacebar'.",Images/Fearful/AF07FS.jpg,Fear,Yellow,Images/Yellow.jpg,None,ParentConditions/YellowYellowBlue_v2.xlsx,YellowYellowBlue,Conditions/Version_2/YellowFearStop.xlsx,yes,PASS,0.705995446,,,,,,,,,0,0,0,1,0,0,0,0,0,71,71,71,,,,,,,,,,,,,,,,,,,,,,,,,,,,,,,,,,,,,,,,,,,,,,,,,,,,,,,,,,,,,,,,,,,,,,,,,,,,,,,1.91,462.9523403,None,None,1,464.9775043,None,464.9775043,None,464.9775043,None,,,,,,,,,,,,P042,FENCOG,2,Pre,2022_May_10_1029,Go No-Go Task,2021.1.4,119.8744675
,"Rule: When you see a yellow image, do not press 'spacebar'.",Images/Happy/AF32HAS.jpg,Happy,Blue,Images/Blue.jpg,space,ParentConditions/YellowYellowBlue_v2.xlsx,YellowYellowBlue,Conditions/Version_2/YellowFearStop.xlsx,no,PASS,0.650593213,,,,,,,,,0,0,0,1,0,0,0,0,0,72,72,72,,,,,,,,,,,,,,,,,,,,,,,,,,,,,,,,,,,,,,,,,,,,,,,,,,,,,,,,,,,,,,,,,,,,,,,,,,,,,,,1.64,465.3714504,None,space,1,467.1268573,None,467.1268573,None,467.1268573,None,0.3028643,,,,,,,,,,,P042,FENCOG,2,Pre,2022_May_10_1029,Go No-Go Task,2021.1.4,119.8744675
,"Rule: When you see a yellow image, do not press 'spacebar'.",Images/Happy/AF11HAS.jpg,Happy,Blue,Images/Blue.jpg,space,ParentConditions/YellowYellowBlue_v2.xlsx,YellowYellowBlue,Conditions/Version_2/YellowFearStop.xlsx,no,PASS,0.224139368,,,,,,,,,0,0,0,1,0,0,0,0,0,73,73,73,,,,,,,,,,,,,,,,,,,,,,,,,,,,,,,,,,,,,,,,,,,,,,,,,,,,,,,,,,,,,,,,,,,,,,,,,,,,,,,1.59,467.526064,None,space,1,469.2179691,None,469.2179691,None,469.2179691,None,0.3077689,,,,,,,,,,,P042,FENCOG,2,Pre,2022_May_10_1029,Go No-Go Task,2021.1.4,119.8744675
,"Rule: When you see a yellow image, do not press 'spacebar'.",Images/Happy/AM19HAS.jpg,Happy,Blue,Images/Blue.jpg,space,ParentConditions/YellowYellowBlue_v2.xlsx,YellowYellowBlue,Conditions/Version_2/YellowFearStop.xlsx,no,PASS,0.536732863,,,,,,,,,0,0,0,1,0,0,0,0,0,74,74,74,,,,,,,,,,,,,,,,,,,,,,,,,,,,,,,,,,,,,,,,,,,,,,,,,,,,,,,,,,,,,,,,,,,,,,,,,,,,,,,1.73,469.617098,None,space,1,471.4590275,None,471.4590275,None,471.4590275,None,0.3307397,,,,,,,,,,,P042,FENCOG,2,Pre,2022_May_10_1029,Go No-Go Task,2021.1.4,119.8744675
,"Rule: When you see a yellow image, do not press 'spacebar'.",Images/Happy/AM01HAS.jpg,Happy,Blue,Images/Blue.jpg,space,ParentConditions/YellowYellowBlue_v2.xlsx,YellowYellowBlue,Conditions/Version_2/YellowFearStop.xlsx,no,PASS,0.451223887,,,,,,,,,0,0,0,1,0,0,0,0,0,75,75,75,,,,,,,,,,,,,,,,,,,,,,,,,,,,,,,,,,,,,,,,,,,,,,,,,,,,,,,,,,,,,,,,,,,,,,,,,,,,,,,1.57,471.8541868,None,space,1,473.5333523,None,473.5333523,None,473.5333523,None,0.3205295,,,,,,,,,,,P042,FENCOG,2,Pre,2022_May_10_1029,Go No-Go Task,2021.1.4,119.8744675
,"Rule: When you see a yellow image, do not press 'spacebar'.",Images/Happy/WF05_HC.jpg,Happy,Blue,Images/Blue.jpg,space,ParentConditions/YellowYellowBlue_v2.xlsx,YellowYellowBlue,Conditions/Version_2/YellowFearStop.xlsx,no,PASS,0.768149926,,,,,,,,,0,0,0,1,0,0,0,0,0,76,76,76,,,,,,,,,,,,,,,,,,,,,,,,,,,,,,,,,,,,,,,,,,,,,,,,,,,,,,,,,,,,,,,,,,,,,,,,,,,,,,,1.22,473.9368534,None,space,1,475.2663654,None,475.2663654,None,475.2663654,None,0.3073536,,,,,,,,,,,P042,FENCOG,2,Pre,2022_May_10_1029,Go No-Go Task,2021.1.4,119.8744675
,"Rule: When you see a yellow image, do not press 'spacebar'.",Images/Happy/BM03_HO.jpg,Happy,Blue,Images/Blue.jpg,space,ParentConditions/YellowYellowBlue_v2.xlsx,YellowYellowBlue,Conditions/Version_2/YellowFearStop.xlsx,no,PASS,0.582404714,,,,,,,,,0,0,0,1,0,0,0,0,0,77,77,77,,,,,,,,,,,,,,,,,,,,,,,,,,,,,,,,,,,,,,,,,,,,,,,,,,,,,,,,,,,,,,,,,,,,,,,,,,,,,,,1.61,475.6650547,None,space,1,477.3905054,None,477.3905054,None,477.3905054,None,0.327225,,,,,,,,,,,P042,FENCOG,2,Pre,2022_May_10_1029,Go No-Go Task,2021.1.4,119.8744675
,"Rule: When you see a yellow image, do not press 'spacebar'.",Images/Happy/AM02_HE.jpg,Happy,Blue,Images/Blue.jpg,space,ParentConditions/YellowYellowBlue_v2.xlsx,YellowYellowBlue,Conditions/Version_2/YellowFearStop.xlsx,no,PASS,0.879106835,,,,,,,,,0,0,0,1,0,0,0,0,0,78,78,78,,,,,,,,,,,,,,,,,,,,,,,,,,,,,,,,,,,,,,,,,,,,,,,,,,,,,,,,,,,,,,,,,,,,,,,,,,,,,,,1.3,477.7901742,None,space,1,479.1984255,None,479.1984255,None,479.1984255,None,0.3031421,,,,,,,,,,,P042,FENCOG,2,Pre,2022_May_10_1029,Go No-Go Task,2021.1.4,119.8744675
,"Rule: When you see a yellow image, do not press 'spacebar'.",Images/Fearful/AM06_FO.jpg,Fear,Yellow,Images/Yellow.jpg,None,ParentConditions/YellowYellowBlue_v2.xlsx,YellowYellowBlue,Conditions/Version_2/YellowFearStop.xlsx,yes,PASS,0.40627236,,,,,,,,,0,0,0,1,0,0,0,0,0,79,79,79,,,,,,,,,,,,,,,,,,,,,,,,,,,,,,,,,,,,,,,,,,,,,,,,,,,,,,,,,,,,,,,,,,,,,,,,,,,,,,,1.89,479.5969988,None,None,1,481.5976362,None,481.5976362,None,481.5976362,None,,,,,,,,,,,,P042,FENCOG,2,Pre,2022_May_10_1029,Go No-Go Task,2021.1.4,119.8744675
,"Rule: When you see a yellow image, do not press 'spacebar'.",Images/Scram2/HM09_NC.jpg,Scramble,Blue,Images/Blue.jpg,space,ParentConditions/YellowYellowBlue_v2.xlsx,YellowYellowBlue,Conditions/Version_2/YellowScramStop.xlsx,no,PASS,0.467198202,,,,,,,,,0,0,0,1,0,1,1,1,0,0,0,0,,,,,,,,,,,,,,,,,,,,,,,,,,,,,,,,,,,,,,,,,,,,,,,,,,,,,,,,,,,,,,,,,495.008121,None,498.0005503,None,space,1.8929814,498.0005503,None,495.008121,None,495.008121,None,495.008121,None,1.6,499.9526141,None,space,1,501.6668349,None,501.6668349,None,501.6668349,None,0.3469135,482.0082852,None,space,12.4928901,482.496711,None,482.0082852,None,482.0082852,None,P042,FENCOG,2,Pre,2022_May_10_1029,Go No-Go Task,2021.1.4,119.8744675
,"Rule: When you see a yellow image, do not press 'spacebar'.",Images/Scram2/HM06_NC.jpg,Scramble,Blue,Images/Blue.jpg,space,ParentConditions/YellowYellowBlue_v2.xlsx,YellowYellowBlue,Conditions/Version_2/YellowScramStop.xlsx,no,PASS,0.564231422,,,,,,,,,0,0,0,1,0,1,1,1,0,1,1,1,,,,,,,,,,,,,,,,,,,,,,,,,,,,,,,,,,,,,,,,,,,,,,,,,,,,,,,,,,,,,,,,,,,,,,,,,,,,,,,1.71,502.0647518,None,None,0,503.8827209,None,503.8827209,None,503.8827209,None,,,,,,,,,,,,P042,FENCOG,2,Pre,2022_May_10_1029,Go No-Go Task,2021.1.4,119.8744675
,"Rule: When you see a yellow image, do not press 'spacebar'.",Images/Scram1/AM31NES.jpg,Scramble,Blue,Images/Blue.jpg,space,ParentConditions/YellowYellowBlue_v2.xlsx,YellowYellowBlue,Conditions/Version_2/YellowScramStop.xlsx,no,PASS,0.846238331,,,,,,,,,0,0,0,1,0,1,1,1,0,2,2,2,,,,,,,,,,,,,,,,,,,,,,,,,,,,,,,,,,,,,,,,,,,,,,,,,,,,,,,,,,,,,,,,,,,,,,,,,,,,,,,1.42,504.2901656,None,space,1,505.8237515,None,505.8237515,None,505.8237515,None,0.3180009,,,,,,,,,,,P042,FENCOG,2,Pre,2022_May_10_1029,Go No-Go Task,2021.1.4,119.8744675
,"Rule: When you see a yellow image, do not press 'spacebar'.",Images/Scram2/AM03NES.jpg,Scramble,Yellow,Images/Yellow.jpg,None,ParentConditions/YellowYellowBlue_v2.xlsx,YellowYellowBlue,Conditions/Version_2/YellowScramStop.xlsx,yes,PASS,0.356648368,,,,,,,,,0,0,0,1,0,1,1,1,0,3,3,3,,,,,,,,,,,,,,,,,,,,,,,,,,,,,,,,,,,,,,,,,,,,,,,,,,,,,,,,,,,,,,,,,,,,,,,,,,,,,,,1.91,506.2226786,None,None,1,508.2399078,None,508.2399078,None,508.2399078,None,,,,,,,,,,,,P042,FENCOG,2,Pre,2022_May_10_1029,Go No-Go Task,2021.1.4,119.8744675
,"Rule: When you see a yellow image, do not press 'spacebar'.",Images/Scram2/BM01_NC.jpg,Scramble,Blue,Images/Blue.jpg,space,ParentConditions/YellowYellowBlue_v2.xlsx,YellowYellowBlue,Conditions/Version_2/YellowScramStop.xlsx,no,PASS,0.630051582,,,,,,,,,0,0,0,1,0,1,1,1,0,4,4,4,,,,,,,,,,,,,,,,,,,,,,,,,,,,,,,,,,,,,,,,,,,,,,,,,,,,,,,,,,,,,,,,,,,,,,,,,,,,,,,1.23,508.6450882,None,space,1,509.9892498,None,509.9892498,None,509.9892498,None,0.2653254,,,,,,,,,,,P042,FENCOG,2,Pre,2022_May_10_1029,Go No-Go Task,2021.1.4,119.8744675
,"Rule: When you see a yellow image, do not press 'spacebar'.",Images/Scram1/HM09_NC.jpg,Scramble,Blue,Images/Blue.jpg,space,ParentConditions/YellowYellowBlue_v2.xlsx,YellowYellowBlue,Conditions/Version_2/YellowScramStop.xlsx,no,PASS,0.968195201,,,,,,,,,0,0,0,1,0,1,1,1,0,5,5,5,,,,,,,,,,,,,,,,,,,,,,,,,,,,,,,,,,,,,,,,,,,,,,,,,,,,,,,,,,,,,,,,,,,,,,,,,,,,,,,1.51,510.3881745,None,None,0,512.0049959,None,512.0049959,None,512.0049959,None,,,,,,,,,,,,P042,FENCOG,2,Pre,2022_May_10_1029,Go No-Go Task,2021.1.4,119.8744675
,"Rule: When you see a yellow image, do not press 'spacebar'.",Images/Scram2/BF07_NC.jpg,Scramble,Blue,Images/Blue.jpg,space,ParentConditions/YellowYellowBlue_v2.xlsx,YellowYellowBlue,Conditions/Version_2/YellowScramStop.xlsx,no,PASS,0.216462677,,,,,,,,,0,0,0,1,0,1,1,1,0,6,6,6,,,,,,,,,,,,,,,,,,,,,,,,,,,,,,,,,,,,,,,,,,,,,,,,,,,,,,,,,,,,,,,,,,,,,,,,,,,,,,,1.75,512.4103496,None,space,1,514.2712469,None,514.2712469,None,514.2712469,None,0.238725,,,,,,,,,,,P042,FENCOG,2,Pre,2022_May_10_1029,Go No-Go Task,2021.1.4,119.8744675
,"Rule: When you see a yellow image, do not press 'spacebar'.",Images/Scram1/BF14_NC.jpg,Scramble,Blue,Images/Blue.jpg,space,ParentConditions/YellowYellowBlue_v2.xlsx,YellowYellowBlue,Conditions/Version_2/YellowScramStop.xlsx,no,PASS,0.98466437,,,,,,,,,0,0,0,1,0,1,1,1,0,7,7,7,,,,,,,,,,,,,,,,,,,,,,,,,,,,,,,,,,,,,,,,,,,,,,,,,,,,,,,,,,,,,,,,,,,,,,,,,,,,,,,1.47,514.6703167,None,space,1,516.2540279,None,516.2540279,None,516.2540279,None,0.2476309,,,,,,,,,,,P042,FENCOG,2,Pre,2022_May_10_1029,Go No-Go Task,2021.1.4,119.8744675
,"Rule: When you see a yellow image, do not press 'spacebar'.",Images/Scram2/AF10_NC.jpg,Scramble,Blue,Images/Blue.jpg,space,ParentConditions/YellowYellowBlue_v2.xlsx,YellowYellowBlue,Conditions/Version_2/YellowScramStop.xlsx,no,PASS,0.244361435,,,,,,,,,0,0,0,1,0,1,1,1,0,8,8,8,,,,,,,,,,,,,,,,,,,,,,,,,,,,,,,,,,,,,,,,,,,,,,,,,,,,,,,,,,,,,,,,,,,,,,,,,,,,,,,1.83,516.6532533,None,space,1,518.5783454,None,518.5783454,None,518.5783454,None,0.2352581,,,,,,,,,,,P042,FENCOG,2,Pre,2022_May_10_1029,Go No-Go Task,2021.1.4,119.8744675
,"Rule: When you see a yellow image, do not press 'spacebar'.",Images/Scram2/AF01_NC.jpg,Scramble,Blue,Images/Blue.jpg,space,ParentConditions/YellowYellowBlue_v2.xlsx,YellowYellowBlue,Conditions/Version_2/YellowScramStop.xlsx,no,PASS,0.541807789,,,,,,,,,0,0,0,1,0,1,1,1,0,9,9,9,,,,,,,,,,,,,,,,,,,,,,,,,,,,,,,,,,,,,,,,,,,,,,,,,,,,,,,,,,,,,,,,,,,,,,,,,,,,,,,1.39,518.9835652,None,space,1,520.4861032,None,520.4861032,None,520.4861032,None,0.2319343,,,,,,,,,,,P042,FENCOG,2,Pre,2022_May_10_1029,Go No-Go Task,2021.1.4,119.8744675
,"Rule: When you see a yellow image, do not press 'spacebar'.",Images/Scram2/AF24NES.jpg,Scramble,Blue,Images/Blue.jpg,space,ParentConditions/YellowYellowBlue_v2.xlsx,YellowYellowBlue,Conditions/Version_2/YellowScramStop.xlsx,no,PASS,0.567934295,,,,,,,,,0,0,0,1,0,1,1,1,0,10,10,10,,,,,,,,,,,,,,,,,,,,,,,,,,,,,,,,,,,,,,,,,,,,,,,,,,,,,,,,,,,,,,,,,,,,,,,,,,,,,,,1.32,520.8849949,None,space,1,522.3189642,None,522.3189642,None,522.3189642,None,0.2467913,,,,,,,,,,,P042,FENCOG,2,Pre,2022_May_10_1029,Go No-Go Task,2021.1.4,119.8744675
,"Rule: When you see a yellow image, do not press 'spacebar'.",Images/Scram2/BF14_NC.jpg,Scramble,Blue,Images/Blue.jpg,space,ParentConditions/YellowYellowBlue_v2.xlsx,YellowYellowBlue,Conditions/Version_2/YellowScramStop.xlsx,no,PASS,0.88251792,,,,,,,,,0,0,0,1,0,1,1,1,0,11,11,11,,,,,,,,,,,,,,,,,,,,,,,,,,,,,,,,,,,,,,,,,,,,,,,,,,,,,,,,,,,,,,,,,,,,,,,,,,,,,,,1.53,522.7203816,None,space,1,524.3598905,None,524.3598905,None,524.3598905,None,0.2538391,,,,,,,,,,,P042,FENCOG,2,Pre,2022_May_10_1029,Go No-Go Task,2021.1.4,119.8744675
,"Rule: When you see a yellow image, do not press 'spacebar'.",Images/Scram1/AM13NES.jpg,Scramble,Blue,Images/Blue.jpg,space,ParentConditions/YellowYellowBlue_v2.xlsx,YellowYellowBlue,Conditions/Version_2/YellowScramStop.xlsx,no,PASS,0.210436477,,,,,,,,,0,0,0,1,0,1,1,1,0,12,12,12,,,,,,,,,,,,,,,,,,,,,,,,,,,,,,,,,,,,,,,,,,,,,,,,,,,,,,,,,,,,,,,,,,,,,,,,,,,,,,,1.99,524.7590547,None,space,1,526.8509039,None,526.8509039,None,526.8509039,None,0.2587752,,,,,,,,,,,P042,FENCOG,2,Pre,2022_May_10_1029,Go No-Go Task,2021.1.4,119.8744675
,"Rule: When you see a yellow image, do not press 'spacebar'.",Images/Scram1/HM04_NC.jpg,Scramble,Blue,Images/Blue.jpg,space,ParentConditions/YellowYellowBlue_v2.xlsx,YellowYellowBlue,Conditions/Version_2/YellowScramStop.xlsx,no,PASS,0.048118245,,,,,,,,,0,0,0,1,0,1,1,1,0,13,13,13,,,,,,,,,,,,,,,,,,,,,,,,,,,,,,,,,,,,,,,,,,,,,,,,,,,,,,,,,,,,,,,,,,,,,,,,,,,,,,,1.46,527.2566593,None,space,1,528.8253502,None,528.8253502,None,528.8253502,None,0.2604326,,,,,,,,,,,P042,FENCOG,2,Pre,2022_May_10_1029,Go No-Go Task,2021.1.4,119.8744675
,"Rule: When you see a yellow image, do not press 'spacebar'.",Images/Scram1/AM03NES.jpg,Scramble,Blue,Images/Blue.jpg,space,ParentConditions/YellowYellowBlue_v2.xlsx,YellowYellowBlue,Conditions/Version_2/YellowScramStop.xlsx,no,PASS,0.507240762,,,,,,,,,0,0,0,1,0,1,1,1,0,14,14,14,,,,,,,,,,,,,,,,,,,,,,,,,,,,,,,,,,,,,,,,,,,,,,,,,,,,,,,,,,,,,,,,,,,,,,,,,,,,,,,1.67,529.2262454,None,space,1,530.9996603,None,530.9996603,None,530.9996603,None,0.2541447,,,,,,,,,,,P042,FENCOG,2,Pre,2022_May_10_1029,Go No-Go Task,2021.1.4,119.8744675
,"Rule: When you see a yellow image, do not press 'spacebar'.",Images/Scram1/AM22NES.jpg,Scramble,Blue,Images/Blue.jpg,space,ParentConditions/YellowYellowBlue_v2.xlsx,YellowYellowBlue,Conditions/Version_2/YellowScramStop.xlsx,no,PASS,0.833273647,,,,,,,,,0,0,0,1,0,1,1,1,0,15,15,15,,,,,,,,,,,,,,,,,,,,,,,,,,,,,,,,,,,,,,,,,,,,,,,,,,,,,,,,,,,,,,,,,,,,,,,,,,,,,,,1.33,531.4004192,None,space,1,532.8408018,None,532.8408018,None,532.8408018,None,0.2528756,,,,,,,,,,,P042,FENCOG,2,Pre,2022_May_10_1029,Go No-Go Task,2021.1.4,119.8744675
,"Rule: When you see a yellow image, do not press 'spacebar'.",Images/Scram2/AM17NES.jpg,Scramble,Yellow,Images/Yellow.jpg,None,ParentConditions/YellowYellowBlue_v2.xlsx,YellowYellowBlue,Conditions/Version_2/YellowScramStop.xlsx,yes,PASS,0.552444031,,,,,,,,,0,0,0,1,0,1,1,1,0,16,16,16,,,,,,,,,,,,,,,,,,,,,,,,,,,,,,,,,,,,,,,,,,,,,,,,,,,,,,,,,,,,,,,,,,,,,,,,,,,,,,,1.4,533.2901785,None,None,1,534.7986065,None,534.7986065,None,534.7986065,None,,,,,,,,,,,,P042,FENCOG,2,Pre,2022_May_10_1029,Go No-Go Task,2021.1.4,119.8744675
,"Rule: When you see a yellow image, do not press 'spacebar'.",Images/Scram1/AM10NES.jpg,Scramble,Blue,Images/Blue.jpg,space,ParentConditions/YellowYellowBlue_v2.xlsx,YellowYellowBlue,Conditions/Version_2/YellowScramStop.xlsx,no,PASS,0.136997305,,,,,,,,,0,0,0,1,0,1,1,1,0,17,17,17,,,,,,,,,,,,,,,,,,,,,,,,,,,,,,,,,,,,,,,,,,,,,,,,,,,,,,,,,,,,,,,,,,,,,,,,,,,,,,,1.7,535.1975168,None,space,1,536.9979298,None,536.9979298,None,536.9979298,None,0.2556505,,,,,,,,,,,P042,FENCOG,2,Pre,2022_May_10_1029,Go No-Go Task,2021.1.4,119.8744675
,"Rule: When you see a yellow image, do not press 'spacebar'.",Images/Scram2/AM03_NC.jpg,Scramble,Yellow,Images/Yellow.jpg,None,ParentConditions/YellowYellowBlue_v2.xlsx,YellowYellowBlue,Conditions/Version_2/YellowScramStop.xlsx,yes,PASS,0.28869549,,,,,,,,,0,0,0,1,0,1,1,1,0,18,18,18,,,,,,,,,,,,,,,,,,,,,,,,,,,,,,,,,,,,,,,,,,,,,,,,,,,,,,,,,,,,,,,,,,,,,,,,,,,,,,,1.2,537.3997219,None,None,1,538.7057478,None,538.7057478,None,538.7057478,None,,,,,,,,,,,,P042,FENCOG,2,Pre,2022_May_10_1029,Go No-Go Task,2021.1.4,119.8744675
,"Rule: When you see a yellow image, do not press 'spacebar'.",Images/Scram1/HF09_NC.jpg,Scramble,Blue,Images/Blue.jpg,space,ParentConditions/YellowYellowBlue_v2.xlsx,YellowYellowBlue,Conditions/Version_2/YellowScramStop.xlsx,no,PASS,0.521047178,,,,,,,,,0,0,0,1,0,1,1,1,0,19,19,19,,,,,,,,,,,,,,,,,,,,,,,,,,,,,,,,,,,,,,,,,,,,,,,,,,,,,,,,,,,,,,,,,,,,,,,,,,,,,,,1.35,539.1069338,None,space,1,540.5718958,None,540.5718958,None,540.5718958,None,0.378162,,,,,,,,,,,P042,FENCOG,2,Pre,2022_May_10_1029,Go No-Go Task,2021.1.4,119.8744675
,"Rule: When you see a yellow image, do not press 'spacebar'.",Images/Scram1/BM08_NC.jpg,Scramble,Blue,Images/Blue.jpg,space,ParentConditions/YellowYellowBlue_v2.xlsx,YellowYellowBlue,Conditions/Version_2/YellowScramStop.xlsx,no,PASS,0.719220711,,,,,,,,,0,0,0,1,0,1,1,1,0,20,20,20,,,,,,,,,,,,,,,,,,,,,,,,,,,,,,,,,,,,,,,,,,,,,,,,,,,,,,,,,,,,,,,,,,,,,,,,,,,,,,,1.28,540.9707825,None,space,1,542.3461561,None,542.3461561,None,542.3461561,None,0.2840417,,,,,,,,,,,P042,FENCOG,2,Pre,2022_May_10_1029,Go No-Go Task,2021.1.4,119.8744675
,"Rule: When you see a yellow image, do not press 'spacebar'.",Images/Scram1/AF32NES.jpg,Scramble,Blue,Images/Blue.jpg,space,ParentConditions/YellowYellowBlue_v2.xlsx,YellowYellowBlue,Conditions/Version_2/YellowScramStop.xlsx,no,PASS,0.385670692,,,,,,,,,0,0,0,1,0,1,1,1,0,21,21,21,,,,,,,,,,,,,,,,,,,,,,,,,,,,,,,,,,,,,,,,,,,,,,,,,,,,,,,,,,,,,,,,,,,,,,,,,,,,,,,1.72,542.7526255,None,space,1,544.5874262,None,544.5874262,None,544.5874262,None,0.2901956,,,,,,,,,,,P042,FENCOG,2,Pre,2022_May_10_1029,Go No-Go Task,2021.1.4,119.8744675
,"Rule: When you see a yellow image, do not press 'spacebar'.",Images/Scram2/AM06_NC.jpg,Scramble,Yellow,Images/Yellow.jpg,None,ParentConditions/YellowYellowBlue_v2.xlsx,YellowYellowBlue,Conditions/Version_2/YellowScramStop.xlsx,yes,PASS,0.593844607,,,,,,,,,0,0,0,1,0,1,1,1,0,22,22,22,,,,,,,,,,,,,,,,,,,,,,,,,,,,,,,,,,,,,,,,,,,,,,,,,,,,,,,,,,,,,,,,,,,,,,,,,,,,,,,1.77,544.9862556,None,None,1,546.869985,None,546.869985,None,546.869985,None,,,,,,,,,,,,P042,FENCOG,2,Pre,2022_May_10_1029,Go No-Go Task,2021.1.4,119.8744675
,"Rule: When you see a yellow image, do not press 'spacebar'.",Images/Scram1/AM06_NC.jpg,Scramble,Blue,Images/Blue.jpg,space,ParentConditions/YellowYellowBlue_v2.xlsx,YellowYellowBlue,Conditions/Version_2/YellowScramStop.xlsx,no,PASS,0.559775199,,,,,,,,,0,0,0,1,0,1,1,1,0,23,23,23,,,,,,,,,,,,,,,,,,,,,,,,,,,,,,,,,,,,,,,,,,,,,,,,,,,,,,,,,,,,,,,,,,,,,,,,,,,,,,,1.78,547.2696197,None,space,1,549.1620942,None,549.1620942,None,549.1620942,None,0.2995822,,,,,,,,,,,P042,FENCOG,2,Pre,2022_May_10_1029,Go No-Go Task,2021.1.4,119.8744675
,"Rule: When you see a yellow image, do not press 'spacebar'.",Images/Scram2/AM02_NC.jpg,Scramble,Yellow,Images/Yellow.jpg,None,ParentConditions/YellowYellowBlue_v2.xlsx,YellowYellowBlue,Conditions/Version_2/YellowScramStop.xlsx,yes,PASS,0.210145354,,,,,,,,,0,0,0,1,0,1,1,1,0,24,24,24,,,,,,,,,,,,,,,,,,,,,,,,,,,,,,,,,,,,,,,,,,,,,,,,,,,,,,,,,,,,,,,,,,,,,,,,,,,,,,,1.29,549.5619157,None,None,1,550.960536,None,550.960536,None,550.960536,None,,,,,,,,,,,,P042,FENCOG,2,Pre,2022_May_10_1029,Go No-Go Task,2021.1.4,119.8744675
,"Rule: When you see a yellow image, do not press 'spacebar'.",Images/Scram2/HF05_NC.jpg,Scramble,Blue,Images/Blue.jpg,space,ParentConditions/YellowYellowBlue_v2.xlsx,YellowYellowBlue,Conditions/Version_2/YellowScramStop.xlsx,no,PASS,0.002509143,,,,,,,,,0,0,0,1,0,1,1,1,0,25,25,25,,,,,,,,,,,,,,,,,,,,,,,,,,,,,,,,,,,,,,,,,,,,,,,,,,,,,,,,,,,,,,,,,,,,,,,,,,,,,,,1.88,551.3601317,None,space,1,553.3514226,None,553.3514226,None,553.3514226,None,0.2783235,,,,,,,,,,,P042,FENCOG,2,Pre,2022_May_10_1029,Go No-Go Task,2021.1.4,119.8744675
,"Rule: When you see a yellow image, do not press 'spacebar'.",Images/Scram2/AF32NES.jpg,Scramble,Yellow,Images/Yellow.jpg,None,ParentConditions/YellowYellowBlue_v2.xlsx,YellowYellowBlue,Conditions/Version_2/YellowScramStop.xlsx,yes,PASS,0.562163804,,,,,,,,,0,0,0,1,0,1,1,1,0,26,26,26,,,,,,,,,,,,,,,,,,,,,,,,,,,,,,,,,,,,,,,,,,,,,,,,,,,,,,,,,,,,,,,,,,,,,,,,,,,,,,,1.85,553.7558229,None,None,1,555.717473,None,555.717473,None,555.717473,None,,,,,,,,,,,,P042,FENCOG,2,Pre,2022_May_10_1029,Go No-Go Task,2021.1.4,119.8744675
,"Rule: When you see a yellow image, do not press 'spacebar'.",Images/Scram2/HM04_NC.jpg,Scramble,Blue,Images/Blue.jpg,space,ParentConditions/YellowYellowBlue_v2.xlsx,YellowYellowBlue,Conditions/Version_2/YellowScramStop.xlsx,no,PASS,0.365696178,,,,,,,,,0,0,0,1,0,1,1,1,0,27,27,27,,,,,,,,,,,,,,,,,,,,,,,,,,,,,,,,,,,,,,,,,,,,,,,,,,,,,,,,,,,,,,,,,,,,,,,,,,,,,,,1.76,556.1135239,None,space,1,557.9750635,None,557.9750635,None,557.9750635,None,0.2623898,,,,,,,,,,,P042,FENCOG,2,Pre,2022_May_10_1029,Go No-Go Task,2021.1.4,119.8744675
,"Rule: When you see a yellow image, do not press 'spacebar'.",Images/Scram2/AF25NES.jpg,Scramble,Blue,Images/Blue.jpg,space,ParentConditions/YellowYellowBlue_v2.xlsx,YellowYellowBlue,Conditions/Version_2/YellowScramStop.xlsx,no,PASS,0.242967324,,,,,,,,,0,0,0,1,0,1,1,1,0,28,28,28,,,,,,,,,,,,,,,,,,,,,,,,,,,,,,,,,,,,,,,,,,,,,,,,,,,,,,,,,,,,,,,,,,,,,,,,,,,,,,,1.69,558.3754633,None,space,1,560.1660638,None,560.1660638,None,560.1660638,None,0.2874721,,,,,,,,,,,P042,FENCOG,2,Pre,2022_May_10_1029,Go No-Go Task,2021.1.4,119.8744675
,"Rule: When you see a yellow image, do not press 'spacebar'.",Images/Scram1/AF34NES.jpg,Scramble,Blue,Images/Blue.jpg,space,ParentConditions/YellowYellowBlue_v2.xlsx,YellowYellowBlue,Conditions/Version_2/YellowScramStop.xlsx,no,PASS,0.294797095,,,,,,,,,0,0,0,1,0,1,1,1,0,29,29,29,,,,,,,,,,,,,,,,,,,,,,,,,,,,,,,,,,,,,,,,,,,,,,,,,,,,,,,,,,,,,,,,,,,,,,,,,,,,,,,1.9,560.5689992,None,space,1,562.582406,None,562.582406,None,562.582406,None,0.3192079,,,,,,,,,,,P042,FENCOG,2,Pre,2022_May_10_1029,Go No-Go Task,2021.1.4,119.8744675
,"Rule: When you see a yellow image, do not press 'spacebar'.",Images/Scram2/AF11NES.jpg,Scramble,Blue,Images/Blue.jpg,space,ParentConditions/YellowYellowBlue_v2.xlsx,YellowYellowBlue,Conditions/Version_2/YellowScramStop.xlsx,no,PASS,0.061126936,,,,,,,,,0,0,0,1,0,1,1,1,0,30,30,30,,,,,,,,,,,,,,,,,,,,,,,,,,,,,,,,,,,,,,,,,,,,,,,,,,,,,,,,,,,,,,,,,,,,,,,,,,,,,,,1.93,562.9809846,None,space,1,565.0229939,None,565.0229939,None,565.0229939,None,0.2785631,,,,,,,,,,,P042,FENCOG,2,Pre,2022_May_10_1029,Go No-Go Task,2021.1.4,119.8744675
,"Rule: When you see a yellow image, do not press 'spacebar'.",Images/Scram2/AF34NES.jpg,Scramble,Yellow,Images/Yellow.jpg,None,ParentConditions/YellowYellowBlue_v2.xlsx,YellowYellowBlue,Conditions/Version_2/YellowScramStop.xlsx,yes,PASS,0.36837427,,,,,,,,,0,0,0,1,0,1,1,1,0,31,31,31,,,,,,,,,,,,,,,,,,,,,,,,,,,,,,,,,,,,,,,,,,,,,,,,,,,,,,,,,,,,,,,,,,,,,,,,,,,,,,,1.27,565.4150723,None,None,1,566.805818,None,566.805818,None,566.805818,None,,,,,,,,,,,,P042,FENCOG,2,Pre,2022_May_10_1029,Go No-Go Task,2021.1.4,119.8744675
,"Rule: When you see a yellow image, do not press 'spacebar'.",Images/Scram1/AM02_NC.jpg,Scramble,Blue,Images/Blue.jpg,space,ParentConditions/YellowYellowBlue_v2.xlsx,YellowYellowBlue,Conditions/Version_2/YellowScramStop.xlsx,no,PASS,0.700401743,,,,,,,,,0,0,0,1,0,1,1,1,0,32,32,32,,,,,,,,,,,,,,,,,,,,,,,,,,,,,,,,,,,,,,,,,,,,,,,,,,,,,,,,,,,,,,,,,,,,,,,,,,,,,,,1.92,567.1964768,None,space,1,569.2301068,None,569.2301068,None,569.2301068,None,0.263545,,,,,,,,,,,P042,FENCOG,2,Pre,2022_May_10_1029,Go No-Go Task,2021.1.4,119.8744675
,"Rule: When you see a yellow image, do not press 'spacebar'.",Images/Scram2/AM13NES.jpg,Scramble,Yellow,Images/Yellow.jpg,None,ParentConditions/YellowYellowBlue_v2.xlsx,YellowYellowBlue,Conditions/Version_2/YellowScramStop.xlsx,yes,PASS,0.703766843,,,,,,,,,0,0,0,1,0,1,1,1,0,33,33,33,,,,,,,,,,,,,,,,,,,,,,,,,,,,,,,,,,,,,,,,,,,,,,,,,,,,,,,,,,,,,,,,,,,,,,,,,,,,,,,1.8,569.6290342,None,None,1,571.5377087,None,571.5377087,None,571.5377087,None,,,,,,,,,,,,P042,FENCOG,2,Pre,2022_May_10_1029,Go No-Go Task,2021.1.4,119.8744675
,"Rule: When you see a yellow image, do not press 'spacebar'.",Images/Scram1/AM03_NC.jpg,Scramble,Blue,Images/Blue.jpg,space,ParentConditions/YellowYellowBlue_v2.xlsx,YellowYellowBlue,Conditions/Version_2/YellowScramStop.xlsx,no,PASS,0.139847361,,,,,,,,,0,0,0,1,0,1,1,1,0,34,34,34,,,,,,,,,,,,,,,,,,,,,,,,,,,,,,,,,,,,,,,,,,,,,,,,,,,,,,,,,,,,,,,,,,,,,,,,,,,,,,,1.54,571.9313483,None,space,1,573.5787579,None,573.5787579,None,573.5787579,None,0.2667789,,,,,,,,,,,P042,FENCOG,2,Pre,2022_May_10_1029,Go No-Go Task,2021.1.4,119.8744675
,"Rule: When you see a yellow image, do not press 'spacebar'.",Images/Scram1/AF33NES.jpg,Scramble,Blue,Images/Blue.jpg,space,ParentConditions/YellowYellowBlue_v2.xlsx,YellowYellowBlue,Conditions/Version_2/YellowScramStop.xlsx,no,PASS,0.747996868,,,,,,,,,0,0,0,1,0,1,1,1,0,35,35,35,,,,,,,,,,,,,,,,,,,,,,,,,,,,,,,,,,,,,,,,,,,,,,,,,,,,,,,,,,,,,,,,,,,,,,,,,,,,,,,1.24,573.9795849,None,space,1,575.3282589,None,575.3282589,None,575.3282589,None,0.3413119,,,,,,,,,,,P042,FENCOG,2,Pre,2022_May_10_1029,Go No-Go Task,2021.1.4,119.8744675
,"Rule: When you see a yellow image, do not press 'spacebar'.",Images/Scram1/BF10_NC.jpg,Scramble,Blue,Images/Blue.jpg,space,ParentConditions/YellowYellowBlue_v2.xlsx,YellowYellowBlue,Conditions/Version_2/YellowScramStop.xlsx,no,PASS,0.522563927,,,,,,,,,0,0,0,1,0,1,1,1,0,36,36,36,,,,,,,,,,,,,,,,,,,,,,,,,,,,,,,,,,,,,,,,,,,,,,,,,,,,,,,,,,,,,,,,,,,,,,,,,,,,,,,1.48,575.7273926,None,space,1,577.3193539,None,577.3193539,None,577.3193539,None,0.2463133,,,,,,,,,,,P042,FENCOG,2,Pre,2022_May_10_1029,Go No-Go Task,2021.1.4,119.8744675
,"Rule: When you see a yellow image, do not press 'spacebar'.",Images/Scram1/AF07_NC.jpg,Scramble,Blue,Images/Blue.jpg,space,ParentConditions/YellowYellowBlue_v2.xlsx,YellowYellowBlue,Conditions/Version_2/YellowScramStop.xlsx,no,PASS,0.522100253,,,,,,,,,0,0,0,1,0,1,1,1,0,37,37,37,,,,,,,,,,,,,,,,,,,,,,,,,,,,,,,,,,,,,,,,,,,,,,,,,,,,,,,,,,,,,,,,,,,,,,,,,,,,,,,1.3,577.7240709,None,space,1,579.1354368,None,579.1354368,None,579.1354368,None,0.2700676,,,,,,,,,,,P042,FENCOG,2,Pre,2022_May_10_1029,Go No-Go Task,2021.1.4,119.8744675
,"Rule: When you see a yellow image, do not press 'spacebar'.",Images/Scram2/AM23NES.jpg,Scramble,Yellow,Images/Yellow.jpg,None,ParentConditions/YellowYellowBlue_v2.xlsx,YellowYellowBlue,Conditions/Version_2/YellowScramStop.xlsx,yes,PASS,0.181954991,,,,,,,,,0,0,0,1,0,1,1,1,0,38,38,38,,,,,,,,,,,,,,,,,,,,,,,,,,,,,,,,,,,,,,,,,,,,,,,,,,,,,,,,,,,,,,,,,,,,,,,,,,,,,,,1.74,579.5344124,None,None,1,581.3848675,None,581.3848675,None,581.3848675,None,,,,,,,,,,,,P042,FENCOG,2,Pre,2022_May_10_1029,Go No-Go Task,2021.1.4,119.8744675
,"Rule: When you see a yellow image, do not press 'spacebar'.",Images/Scram1/AF24NES.jpg,Scramble,Blue,Images/Blue.jpg,space,ParentConditions/YellowYellowBlue_v2.xlsx,YellowYellowBlue,Conditions/Version_2/YellowScramStop.xlsx,no,PASS,0.664038939,,,,,,,,,0,0,0,1,0,1,1,1,0,39,39,39,,,,,,,,,,,,,,,,,,,,,,,,,,,,,,,,,,,,,,,,,,,,,,,,,,,,,,,,,,,,,,,,,,,,,,,,,,,,,,,1.87,581.7837303,None,space,1,583.7598783,None,583.7598783,None,583.7598783,None,0.2697906,,,,,,,,,,,P042,FENCOG,2,Pre,2022_May_10_1029,Go No-Go Task,2021.1.4,119.8744675
,"Rule: When you see a yellow image, do not press 'spacebar'.",Images/Scram2/AF33NES.jpg,Scramble,Yellow,Images/Yellow.jpg,None,ParentConditions/YellowYellowBlue_v2.xlsx,YellowYellowBlue,Conditions/Version_2/YellowScramStop.xlsx,yes,PASS,0.620382602,,,,,,,,,0,0,0,1,0,1,1,1,0,40,40,40,,,,,,,,,,,,,,,,,,,,,,,,,,,,,,,,,,,,,,,,,,,,,,,,,,,,,,,,,,,,,,,,,,,,,,,,,,,,,,,1.65,584.1658382,None,None,1,585.924995,None,585.924995,None,585.924995,None,,,,,,,,,,,,P042,FENCOG,2,Pre,2022_May_10_1029,Go No-Go Task,2021.1.4,119.8744675
,"Rule: When you see a yellow image, do not press 'spacebar'.",Images/Scram1/AF25NES.jpg,Scramble,Blue,Images/Blue.jpg,space,ParentConditions/YellowYellowBlue_v2.xlsx,YellowYellowBlue,Conditions/Version_2/YellowScramStop.xlsx,no,PASS,0.051415465,,,,,,,,,0,0,0,1,0,1,1,1,0,41,41,41,,,,,,,,,,,,,,,,,,,,,,,,,,,,,,,,,,,,,,,,,,,,,,,,,,,,,,,,,,,,,,,,,,,,,,,,,,,,,,,1.49,586.3240371,None,space,1,587.9247357,None,587.9247357,None,587.9247357,None,0.2971063,,,,,,,,,,,P042,FENCOG,2,Pre,2022_May_10_1029,Go No-Go Task,2021.1.4,119.8744675
,"Rule: When you see a yellow image, do not press 'spacebar'.",Images/Scram2/AM10NES.jpg,Scramble,Yellow,Images/Yellow.jpg,None,ParentConditions/YellowYellowBlue_v2.xlsx,YellowYellowBlue,Conditions/Version_2/YellowScramStop.xlsx,yes,PASS,0.126774301,,,,,,,,,0,0,0,1,0,1,1,1,0,42,42,42,,,,,,,,,,,,,,,,,,,,,,,,,,,,,,,,,,,,,,,,,,,,,,,,,,,,,,,,,,,,,,,,,,,,,,,,,,,,,,,1.94,588.316403,None,None,1,590.3654987,None,590.3654987,None,590.3654987,None,,,,,,,,,,,,P042,FENCOG,2,Pre,2022_May_10_1029,Go No-Go Task,2021.1.4,119.8744675
,"Rule: When you see a yellow image, do not press 'spacebar'.",Images/Scram2/BF10_NC.jpg,Scramble,Blue,Images/Blue.jpg,space,ParentConditions/YellowYellowBlue_v2.xlsx,YellowYellowBlue,Conditions/Version_2/YellowScramStop.xlsx,no,PASS,0.220165605,,,,,,,,,0,0,0,1,0,1,1,1,0,43,43,43,,,,,,,,,,,,,,,,,,,,,,,,,,,,,,,,,,,,,,,,,,,,,,,,,,,,,,,,,,,,,,,,,,,,,,,,,,,,,,,1.43,590.7644068,None,space,1,592.3066919,None,592.3066919,None,592.3066919,None,0.2669824,,,,,,,,,,,P042,FENCOG,2,Pre,2022_May_10_1029,Go No-Go Task,2021.1.4,119.8744675
,"Rule: When you see a yellow image, do not press 'spacebar'.",Images/Scram1/BF18_NC.jpg,Scramble,Blue,Images/Blue.jpg,space,ParentConditions/YellowYellowBlue_v2.xlsx,YellowYellowBlue,Conditions/Version_2/YellowScramStop.xlsx,no,PASS,0.11487632,,,,,,,,,0,0,0,1,0,1,1,1,0,44,44,44,,,,,,,,,,,,,,,,,,,,,,,,,,,,,,,,,,,,,,,,,,,,,,,,,,,,,,,,,,,,,,,,,,,,,,,,,,,,,,,1.84,592.7055697,None,space,1,594.6476711,None,594.6476711,None,594.6476711,None,0.3419361,,,,,,,,,,,P042,FENCOG,2,Pre,2022_May_10_1029,Go No-Go Task,2021.1.4,119.8744675
,"Rule: When you see a yellow image, do not press 'spacebar'.",Images/Scram2/HF09_NC.jpg,Scramble,Blue,Images/Blue.jpg,space,ParentConditions/YellowYellowBlue_v2.xlsx,YellowYellowBlue,Conditions/Version_2/YellowScramStop.xlsx,no,PASS,0.20475492,,,,,,,,,0,0,0,1,0,1,1,1,0,45,45,45,,,,,,,,,,,,,,,,,,,,,,,,,,,,,,,,,,,,,,,,,,,,,,,,,,,,,,,,,,,,,,,,,,,,,,,,,,,,,,,1.58,595.0498977,None,space,1,596.7385171,None,596.7385171,None,596.7385171,None,0.3311347,,,,,,,,,,,P042,FENCOG,2,Pre,2022_May_10_1029,Go No-Go Task,2021.1.4,119.8744675
,"Rule: When you see a yellow image, do not press 'spacebar'.",Images/Scram1/BF05_NC.jpg,Scramble,Blue,Images/Blue.jpg,space,ParentConditions/YellowYellowBlue_v2.xlsx,YellowYellowBlue,Conditions/Version_2/YellowScramStop.xlsx,no,PASS,0.668549712,,,,,,,,,0,0,0,1,0,1,1,1,0,46,46,46,,,,,,,,,,,,,,,,,,,,,,,,,,,,,,,,,,,,,,,,,,,,,,,,,,,,,,,,,,,,,,,,,,,,,,,,,,,,,,,1.38,597.1376092,None,space,1,598.6295985,None,598.6295985,None,598.6295985,None,0.2800331,,,,,,,,,,,P042,FENCOG,2,Pre,2022_May_10_1029,Go No-Go Task,2021.1.4,119.8744675
,"Rule: When you see a yellow image, do not press 'spacebar'.",Images/Scram1/AM17NES.jpg,Scramble,Blue,Images/Blue.jpg,space,ParentConditions/YellowYellowBlue_v2.xlsx,YellowYellowBlue,Conditions/Version_2/YellowScramStop.xlsx,no,PASS,0.557554983,,,,,,,,,0,0,0,1,0,1,1,1,0,47,47,47,,,,,,,,,,,,,,,,,,,,,,,,,,,,,,,,,,,,,,,,,,,,,,,,,,,,,,,,,,,,,,,,,,,,,,,,,,,,,,,1.25,599.0286742,None,space,1,600.3874106,None,600.3874106,None,600.3874106,None,0.2902013,,,,,,,,,,,P042,FENCOG,2,Pre,2022_May_10_1029,Go No-Go Task,2021.1.4,119.8744675
,"Rule: When you see a yellow image, do not press 'spacebar'.",Images/Scram2/AM09_NC.jpg,Scramble,Yellow,Images/Yellow.jpg,None,ParentConditions/YellowYellowBlue_v2.xlsx,YellowYellowBlue,Conditions/Version_2/YellowScramStop.xlsx,yes,PASS,0.084904739,,,,,,,,,0,0,0,1,0,1,1,1,0,48,48,48,,,,,,,,,,,,,,,,,,,,,,,,,,,,,,,,,,,,,,,,,,,,,,,,,,,,,,,,,,,,,,,,,,,,,,,,,,,,,,,1.34,600.7882041,None,None,1,602.2370106,None,602.2370106,None,602.2370106,None,,,,,,,,,,,,P042,FENCOG,2,Pre,2022_May_10_1029,Go No-Go Task,2021.1.4,119.8744675
,"Rule: When you see a yellow image, do not press 'spacebar'.",Images/Scram2/AF09NES.jpg,Scramble,Blue,Images/Blue.jpg,space,ParentConditions/YellowYellowBlue_v2.xlsx,YellowYellowBlue,Conditions/Version_2/YellowScramStop.xlsx,no,PASS,0.851192202,,,,,,,,,0,0,0,1,0,1,1,1,0,49,49,49,,,,,,,,,,,,,,,,,,,,,,,,,,,,,,,,,,,,,,,,,,,,,,,,,,,,,,,,,,,,,,,,,,,,,,,,,,,,,,,1.73,602.6291288,None,space,1,604.4697037,None,604.4697037,None,604.4697037,None,0.2800062,,,,,,,,,,,P042,FENCOG,2,Pre,2022_May_10_1029,Go No-Go Task,2021.1.4,119.8744675
,"Rule: When you see a yellow image, do not press 'spacebar'.",Images/Scram2/AM04_NC.jpg,Scramble,Yellow,Images/Yellow.jpg,None,ParentConditions/YellowYellowBlue_v2.xlsx,YellowYellowBlue,Conditions/Version_2/YellowScramStop.xlsx,yes,PASS,0.971173892,,,,,,,,,0,0,0,1,0,1,1,1,0,50,50,50,,,,,,,,,,,,,,,,,,,,,,,,,,,,,,,,,,,,,,,,,,,,,,,,,,,,,,,,,,,,,,,,,,,,,,,,,,,,,,,1.41,604.8627653,None,None,1,606.3857205,None,606.3857205,None,606.3857205,None,,,,,,,,,,,,P042,FENCOG,2,Pre,2022_May_10_1029,Go No-Go Task,2021.1.4,119.8744675
,"Rule: When you see a yellow image, do not press 'spacebar'.",Images/Scram2/BF05_NC.jpg,Scramble,Yellow,Images/Yellow.jpg,None,ParentConditions/YellowYellowBlue_v2.xlsx,YellowYellowBlue,Conditions/Version_2/YellowScramStop.xlsx,yes,PASS,0.368466089,,,,,,,,,0,0,0,1,0,1,1,1,0,51,51,51,,,,,,,,,,,,,,,,,,,,,,,,,,,,,,,,,,,,,,,,,,,,,,,,,,,,,,,,,,,,,,,,,,,,,,,,,,,,,,,1.82,606.7850096,None,None,1,608.7184645,None,608.7184645,None,608.7184645,None,,,,,,,,,,,,P042,FENCOG,2,Pre,2022_May_10_1029,Go No-Go Task,2021.1.4,119.8744675
,"Rule: When you see a yellow image, do not press 'spacebar'.",Images/Scram1/HM06_NC.jpg,Scramble,Blue,Images/Blue.jpg,space,ParentConditions/YellowYellowBlue_v2.xlsx,YellowYellowBlue,Conditions/Version_2/YellowScramStop.xlsx,no,PASS,0.5754529,,,,,,,,,0,0,0,1,0,1,1,1,0,52,52,52,,,,,,,,,,,,,,,,,,,,,,,,,,,,,,,,,,,,,,,,,,,,,,,,,,,,,,,,,,,,,,,,,,,,,,,,,,,,,,,1.89,609.1175661,None,space,1,611.1173788,None,611.1173788,None,611.1173788,None,0.2640738,,,,,,,,,,,P042,FENCOG,2,Pre,2022_May_10_1029,Go No-Go Task,2021.1.4,119.8744675
,"Rule: When you see a yellow image, do not press 'spacebar'.",Images/Scram2/AF07NES.jpg,Scramble,Blue,Images/Blue.jpg,space,ParentConditions/YellowYellowBlue_v2.xlsx,YellowYellowBlue,Conditions/Version_2/YellowScramStop.xlsx,no,PASS,0.507777947,,,,,,,,,0,0,0,1,0,1,1,1,0,53,53,53,,,,,,,,,,,,,,,,,,,,,,,,,,,,,,,,,,,,,,,,,,,,,,,,,,,,,,,,,,,,,,,,,,,,,,,,,,,,,,,1.81,611.5163555,None,space,1,613.4501362,None,613.4501362,None,613.4501362,None,0.291391,,,,,,,,,,,P042,FENCOG,2,Pre,2022_May_10_1029,Go No-Go Task,2021.1.4,119.8744675
,"Rule: When you see a yellow image, do not press 'spacebar'.",Images/Scram1/BM01_NC.jpg,Scramble,Blue,Images/Blue.jpg,space,ParentConditions/YellowYellowBlue_v2.xlsx,YellowYellowBlue,Conditions/Version_2/YellowScramStop.xlsx,no,PASS,0.616228629,,,,,,,,,0,0,0,1,0,1,1,1,0,54,54,54,,,,,,,,,,,,,,,,,,,,,,,,,,,,,,,,,,,,,,,,,,,,,,,,,,,,,,,,,,,,,,,,,,,,,,,,,,,,,,,1.98,613.8407824,None,space,1,615.9242666,None,615.9242666,None,615.9242666,None,0.3214433,,,,,,,,,,,P042,FENCOG,2,Pre,2022_May_10_1029,Go No-Go Task,2021.1.4,119.8744675
,"Rule: When you see a yellow image, do not press 'spacebar'.",Images/Scram2/AF07_NC.jpg,Scramble,Blue,Images/Blue.jpg,space,ParentConditions/YellowYellowBlue_v2.xlsx,YellowYellowBlue,Conditions/Version_2/YellowScramStop.xlsx,no,PASS,0.139477545,,,,,,,,,0,0,0,1,0,1,1,1,0,55,55,55,,,,,,,,,,,,,,,,,,,,,,,,,,,,,,,,,,,,,,,,,,,,,,,,,,,,,,,,,,,,,,,,,,,,,,,,,,,,,,,1.22,616.3239552,None,space,1,617.657335,None,617.657335,None,617.657335,None,0.3242035,,,,,,,,,,,P042,FENCOG,2,Pre,2022_May_10_1029,Go No-Go Task,2021.1.4,119.8744675
,"Rule: When you see a yellow image, do not press 'spacebar'.",Images/Scram1/AF10_NC.jpg,Scramble,Blue,Images/Blue.jpg,space,ParentConditions/YellowYellowBlue_v2.xlsx,YellowYellowBlue,Conditions/Version_2/YellowScramStop.xlsx,no,PASS,0.816406664,,,,,,,,,0,0,0,1,0,1,1,1,0,56,56,56,,,,,,,,,,,,,,,,,,,,,,,,,,,,,,,,,,,,,,,,,,,,,,,,,,,,,,,,,,,,,,,,,,,,,,,,,,,,,,,1.21,618.0561805,None,space,1,619.3649202,None,619.3649202,None,619.3649202,None,0.3124626,,,,,,,,,,,P042,FENCOG,2,Pre,2022_May_10_1029,Go No-Go Task,2021.1.4,119.8744675
,"Rule: When you see a yellow image, do not press 'spacebar'.",Images/Scram1/AM09NES.jpg,Scramble,Blue,Images/Blue.jpg,space,ParentConditions/YellowYellowBlue_v2.xlsx,YellowYellowBlue,Conditions/Version_2/YellowScramStop.xlsx,no,PASS,0.22221234,,,,,,,,,0,0,0,1,0,1,1,1,0,57,57,57,,,,,,,,,,,,,,,,,,,,,,,,,,,,,,,,,,,,,,,,,,,,,,,,,,,,,,,,,,,,,,,,,,,,,,,,,,,,,,,1.64,619.7639776,None,space,1,621.5143244,None,621.5143244,None,621.5143244,None,0.323216,,,,,,,,,,,P042,FENCOG,2,Pre,2022_May_10_1029,Go No-Go Task,2021.1.4,119.8744675
,"Rule: When you see a yellow image, do not press 'spacebar'.",Images/Scram1/AF01_NC.jpg,Scramble,Blue,Images/Blue.jpg,space,ParentConditions/YellowYellowBlue_v2.xlsx,YellowYellowBlue,Conditions/Version_2/YellowScramStop.xlsx,no,PASS,0.246774092,,,,,,,,,0,0,0,1,0,1,1,1,0,58,58,58,,,,,,,,,,,,,,,,,,,,,,,,,,,,,,,,,,,,,,,,,,,,,,,,,,,,,,,,,,,,,,,,,,,,,,,,,,,,,,,1.26,621.9134808,None,space,1,623.2891074,None,623.2891074,None,623.2891074,None,0.236226,,,,,,,,,,,P042,FENCOG,2,Pre,2022_May_10_1029,Go No-Go Task,2021.1.4,119.8744675
,"Rule: When you see a yellow image, do not press 'spacebar'.",Images/Scram1/AM09_NC.jpg,Scramble,Blue,Images/Blue.jpg,space,ParentConditions/YellowYellowBlue_v2.xlsx,YellowYellowBlue,Conditions/Version_2/YellowScramStop.xlsx,no,PASS,0.094765065,,,,,,,,,0,0,0,1,0,1,1,1,0,59,59,59,,,,,,,,,,,,,,,,,,,,,,,,,,,,,,,,,,,,,,,,,,,,,,,,,,,,,,,,,,,,,,,,,,,,,,,,,,,,,,,1.56,623.6878231,None,space,1,625.3631494,None,625.3631494,None,625.3631494,None,0.3304961,,,,,,,,,,,P042,FENCOG,2,Pre,2022_May_10_1029,Go No-Go Task,2021.1.4,119.8744675
,"Rule: When you see a yellow image, do not press 'spacebar'.",Images/Scram1/AF11NES.jpg,Scramble,Blue,Images/Blue.jpg,space,ParentConditions/YellowYellowBlue_v2.xlsx,YellowYellowBlue,Conditions/Version_2/YellowScramStop.xlsx,no,PASS,0.816203215,,,,,,,,,0,0,0,1,0,1,1,1,0,60,60,60,,,,,,,,,,,,,,,,,,,,,,,,,,,,,,,,,,,,,,,,,,,,,,,,,,,,,,,,,,,,,,,,,,,,,,,,,,,,,,,1.96,625.7626555,None,space,1,627.8377382,None,627.8377382,None,627.8377382,None,0.3598819,,,,,,,,,,,P042,FENCOG,2,Pre,2022_May_10_1029,Go No-Go Task,2021.1.4,119.8744675
,"Rule: When you see a yellow image, do not press 'spacebar'.",Images/Scram1/BF07_NC.jpg,Scramble,Blue,Images/Blue.jpg,space,ParentConditions/YellowYellowBlue_v2.xlsx,YellowYellowBlue,Conditions/Version_2/YellowScramStop.xlsx,no,PASS,0.861380317,,,,,,,,,0,0,0,1,0,1,1,1,0,61,61,61,,,,,,,,,,,,,,,,,,,,,,,,,,,,,,,,,,,,,,,,,,,,,,,,,,,,,,,,,,,,,,,,,,,,,,,,,,,,,,,1.97,628.2367989,None,space,1,630.3199648,None,630.3199648,None,630.3199648,None,0.2454289,,,,,,,,,,,P042,FENCOG,2,Pre,2022_May_10_1029,Go No-Go Task,2021.1.4,119.8744675
,"Rule: When you see a yellow image, do not press 'spacebar'.",Images/Scram2/AM34NES.JPG,Scramble,Yellow,Images/Yellow.jpg,None,ParentConditions/YellowYellowBlue_v2.xlsx,YellowYellowBlue,Conditions/Version_2/YellowScramStop.xlsx,yes,PASS,0.763888663,,,,,,,,,0,0,0,1,0,1,1,1,0,62,62,62,,,,,,,,,,,,,,,,,,,,,,,,,,,,,,,,,,,,,,,,,,,,,,,,,,,,,,,,,,,,,,,,,,,,,,,,,,,,,,,1.5,630.7190966,None,space,0,632.3278401,None,632.3278401,None,632.3278401,None,0.1817614,,,,,,,,,,,P042,FENCOG,2,Pre,2022_May_10_1029,Go No-Go Task,2021.1.4,119.8744675
,"Rule: When you see a yellow image, do not press 'spacebar'.",Images/Scram1/AM04_NC.jpg,Scramble,Blue,Images/Blue.jpg,space,ParentConditions/YellowYellowBlue_v2.xlsx,YellowYellowBlue,Conditions/Version_2/YellowScramStop.xlsx,no,PASS,0.164498839,,,,,,,,,0,0,0,1,0,1,1,1,0,63,63,63,,,,,,,,,,,,,,,,,,,,,,,,,,,,,,,,,,,,,,,,,,,,,,,,,,,,,,,,,,,,,,,,,,,,,,,,,,,,,,,1.68,632.7268269,None,space,1,634.5104323,None,634.5104323,None,634.5104323,None,0.3190754,,,,,,,,,,,P042,FENCOG,2,Pre,2022_May_10_1029,Go No-Go Task,2021.1.4,119.8744675
,"Rule: When you see a yellow image, do not press 'spacebar'.",Images/Scram1/AM23NES.jpg,Scramble,Blue,Images/Blue.jpg,space,ParentConditions/YellowYellowBlue_v2.xlsx,YellowYellowBlue,Conditions/Version_2/YellowScramStop.xlsx,no,PASS,0.89755373,,,,,,,,,0,0,0,1,0,1,1,1,0,64,64,64,,,,,,,,,,,,,,,,,,,,,,,,,,,,,,,,,,,,,,,,,,,,,,,,,,,,,,,,,,,,,,,,,,,,,,,,,,,,,,,1.57,634.9095472,None,space,1,636.5847735,None,636.5847735,None,636.5847735,None,0.2366199,,,,,,,,,,,P042,FENCOG,2,Pre,2022_May_10_1029,Go No-Go Task,2021.1.4,119.8744675
,"Rule: When you see a yellow image, do not press 'spacebar'.",Images/Scram2/HF10_NO.jpg,Scramble,Blue,Images/Blue.jpg,space,ParentConditions/YellowYellowBlue_v2.xlsx,YellowYellowBlue,Conditions/Version_2/YellowScramStop.xlsx,no,PASS,0.213307383,,,,,,,,,0,0,0,1,0,1,1,1,0,65,65,65,,,,,,,,,,,,,,,,,,,,,,,,,,,,,,,,,,,,,,,,,,,,,,,,,,,,,,,,,,,,,,,,,,,,,,,,,,,,,,,1.37,636.9838602,None,space,1,638.4592377,None,638.4592377,None,638.4592377,None,0.274254,,,,,,,,,,,P042,FENCOG,2,Pre,2022_May_10_1029,Go No-Go Task,2021.1.4,119.8744675
,"Rule: When you see a yellow image, do not press 'spacebar'.",Images/Scram1/AF07NES.jpg,Scramble,Blue,Images/Blue.jpg,space,ParentConditions/YellowYellowBlue_v2.xlsx,YellowYellowBlue,Conditions/Version_2/YellowScramStop.xlsx,no,PASS,0.89486803,,,,,,,,,0,0,0,1,0,1,1,1,0,66,66,66,,,,,,,,,,,,,,,,,,,,,,,,,,,,,,,,,,,,,,,,,,,,,,,,,,,,,,,,,,,,,,,,,,,,,,,,,,,,,,,1.66,638.8583029,None,space,1,640.6253031,None,640.6253031,None,640.6253031,None,0.2601267,,,,,,,,,,,P042,FENCOG,2,Pre,2022_May_10_1029,Go No-Go Task,2021.1.4,119.8744675
,"Rule: When you see a yellow image, do not press 'spacebar'.",Images/Scram2/AM09NES.jpg,Scramble,Yellow,Images/Yellow.jpg,None,ParentConditions/YellowYellowBlue_v2.xlsx,YellowYellowBlue,Conditions/Version_2/YellowScramStop.xlsx,yes,PASS,0.022411188,,,,,,,,,0,0,0,1,0,1,1,1,0,67,67,67,,,,,,,,,,,,,,,,,,,,,,,,,,,,,,,,,,,,,,,,,,,,,,,,,,,,,,,,,,,,,,,,,,,,,,,,,,,,,,,1.62,641.0243472,None,None,1,642.7495772,None,642.7495772,None,642.7495772,None,,,,,,,,,,,,P042,FENCOG,2,Pre,2022_May_10_1029,Go No-Go Task,2021.1.4,119.8744675
,"Rule: When you see a yellow image, do not press 'spacebar'.",Images/Scram2/BM08_NC.jpg,Scramble,Blue,Images/Blue.jpg,space,ParentConditions/YellowYellowBlue_v2.xlsx,YellowYellowBlue,Conditions/Version_2/YellowScramStop.xlsx,no,PASS,0.037962351,,,,,,,,,0,0,0,1,0,1,1,1,0,68,68,68,,,,,,,,,,,,,,,,,,,,,,,,,,,,,,,,,,,,,,,,,,,,,,,,,,,,,,,,,,,,,,,,,,,,,,,,,,,,,,,2,643.1487132,None,space,1,645.2490537,None,645.2490537,None,645.2490537,None,0.2442663,,,,,,,,,,,P042,FENCOG,2,Pre,2022_May_10_1029,Go No-Go Task,2021.1.4,119.8744675
,"Rule: When you see a yellow image, do not press 'spacebar'.",Images/Scram2/AF30NES.JPG,Scramble,Yellow,Images/Yellow.jpg,None,ParentConditions/YellowYellowBlue_v2.xlsx,YellowYellowBlue,Conditions/Version_2/YellowScramStop.xlsx,yes,PASS,0.453117145,,,,,,,,,0,0,0,1,0,1,1,1,0,69,69,69,,,,,,,,,,,,,,,,,,,,,,,,,,,,,,,,,,,,,,,,,,,,,,,,,,,,,,,,,,,,,,,,,,,,,,,,,,,,,,,1.52,645.6480553,None,None,1,647.2900719,None,647.2900719,None,647.2900719,None,,,,,,,,,,,,P042,FENCOG,2,Pre,2022_May_10_1029,Go No-Go Task,2021.1.4,119.8744675
,"Rule: When you see a yellow image, do not press 'spacebar'.",Images/Scram1/AM34NES.JPG,Scramble,Blue,Images/Blue.jpg,space,ParentConditions/YellowYellowBlue_v2.xlsx,YellowYellowBlue,Conditions/Version_2/YellowScramStop.xlsx,no,PASS,0.334727558,,,,,,,,,0,0,0,1,0,1,1,1,0,70,70,70,,,,,,,,,,,,,,,,,,,,,,,,,,,,,,,,,,,,,,,,,,,,,,,,,,,,,,,,,,,,,,,,,,,,,,,,,,,,,,,1.79,647.6806955,None,space,1,649.590535,None,649.590535,None,649.590535,None,0.2630564,,,,,,,,,,,P042,FENCOG,2,Pre,2022_May_10_1029,Go No-Go Task,2021.1.4,119.8744675
,"Rule: When you see a yellow image, do not press 'spacebar'.",Images/Scram1/HF04_NC.jpg,Scramble,Blue,Images/Blue.jpg,space,ParentConditions/YellowYellowBlue_v2.xlsx,YellowYellowBlue,Conditions/Version_2/YellowScramStop.xlsx,no,PASS,0.06392328,,,,,,,,,0,0,0,1,0,1,1,1,0,71,71,71,,,,,,,,,,,,,,,,,,,,,,,,,,,,,,,,,,,,,,,,,,,,,,,,,,,,,,,,,,,,,,,,,,,,,,,,,,,,,,,1.61,649.9802395,None,space,1,651.6970093,None,651.6970093,None,651.6970093,None,0.3004498,,,,,,,,,,,P042,FENCOG,2,Pre,2022_May_10_1029,Go No-Go Task,2021.1.4,119.8744675
