CondFileP,Instructions,FaceE,Express,ColourT,ColourF,CorrectAnsP,MasterCondFile,BlockOrder,CondFile,ColCheck,Triplicate_check,SORT_BY_SMALLEST,EPracticeOuterLoop.thisRepN,EPracticeOuterLoop.thisTrialN,EPracticeOuterLoop.thisN,EPracticeOuterLoop.thisIndex,EPracticeInnerLoop.thisRepN,EPracticeInnerLoop.thisTrialN,EPracticeInnerLoop.thisN,EPracticeInnerLoop.thisIndex,MasterLoop.thisRepN,MasterLoop.thisTrialN,MasterLoop.thisN,MasterLoop.thisIndex,OuterLoop.thisRepN,OuterLoop.thisTrialN,OuterLoop.thisN,OuterLoop.thisIndex,InnerLoop.thisRepN,InnerLoop.thisTrialN,InnerLoop.thisN,InnerLoop.thisIndex,text_13.started,text_13.stopped,key_resp_10.keys,key_resp_10.rt,key_resp_10.started,key_resp_10.stopped,text4.started,text4.stopped,EmotionTaskInstructions1.keys,EmotionTaskInstructions1.rt,EmotionTaskInstructions1.started,EmotionTaskInstructions1.stopped,text_4.started,text_4.stopped,key_resp_5.keys,key_resp_5.rt,key_resp_5.started,key_resp_5.stopped,Text_14.started,Text_14.stopped,key_resp_9.keys,key_resp_9.rt,key_resp_9.started,key_resp_9.stopped,text_5.started,text_5.stopped,text_6.started,text_6.stopped,key_resp_7.keys,key_resp_7.rt,key_resp_7.started,key_resp_7.stopped,text_10.started,text_10.stopped,text_11.started,text_11.stopped,text_12.started,text_12.stopped,ISIjitterPractice,EPracticeISIMarker.started,EPracticeISIMarker.stopped,Pract.keys,Pract.corr,Pract.started,Pract.stopped,PracticeFace.started,PracticeFace.stopped,ColourPractice.started,ColourPractice.stopped,text_7.started,text_7.stopped,Pract.rt,EndOfPractice.started,EndOfPractice.stopped,key_resp_8.keys,key_resp_8.rt,key_resp_8.started,key_resp_8.stopped,text_8.started,text_8.stopped,key_resp_6.keys,key_resp_6.rt,key_resp_6.started,key_resp_6.stopped,text_2.started,text_2.stopped,text_3.started,text_3.stopped,key_resp_3.keys,key_resp_3.rt,key_resp_3.started,key_resp_3.stopped,TaskBlock.started,TaskBlock.stopped,BlockNo1.started,BlockNo1.stopped,OfBlock.started,OfBlock.stopped,ISIjitter,ISImarker.started,ISImarker.stopped,key_resp.keys,key_resp.corr,key_resp.rt,key_resp.started,key_resp.stopped,FaceSet.started,FaceSet.stopped,Colour.started,Colour.stopped,EndBlockText.started,EndBlockText.stopped,key_resp_4.keys,key_resp_4.rt,key_resp_4.started,key_resp_4.stopped,BreakText2.started,BreakText2.stopped,PressToContinue.started,PressToContinue.stopped,participant,Study Name,Task Version (required to run),PRE/POST,date,expName,psychopyVersion,frameRate,
,,,,,,,,,,,,,,,,,,,,,,,,,,,,,,,,,30.842006299999866,None,space,77.07339129999991,31.83125619999987,None,,,,,,,,,,,,,,,,,,,,,,,,,,,,,,,,,,,,,,,,,,,,,,,,,,,,,,,,,,,,,,,,,,,,,,,,,,,,,,,,,,,,,,,,,,,,,,,P052,fencog,2,Pre,2022_Jun_11_1059,Go No-Go Task,2021.1.4,119.74642497048015,
,,,,,,,,,,,,,,,,,,,,,,,,,,,,,,,,,,,,,,,110.42115609999996,None,space,7.0672658999999385,110.42115609999996,None,,,,,,,,,,,,,,,,,,,,,,,,,,,,,,,,,,,,,,,,,,,,,,,,,,,,,,,,,,,,,,,,,,,,,,,,,,,,,,,,,,,,,,,,,P052,fencog,2,Pre,2022_Jun_11_1059,Go No-Go Task,2021.1.4,119.74642497048015,
,,,,,,,,,,,,,,,,,,,,,,,,,,,,,,,,,,,,,,,,,,,,,117.55258509999999,None,space,5.0317221999998765,117.55258509999999,None,,,,,,,,,,,,,,,,,,,,,,,,,,,,,,,,,,,,,,,,,,,,,,,,,,,,,,,,,,,,,,,,,,,,,,,,,,,,,,,,,,,P052,fencog,2,Pre,2022_Jun_11_1059,Go No-Go Task,2021.1.4,119.74642497048015,
,,,,,,,,,,,,,,,,,,,,,,,,,,,,,,,,,,,,,,,,,,,,,,,,,,,122.59763309999994,None,space,4.922714699999915,122.59763309999994,None,,,,,,,,,,,,,,,,,,,,,,,,,,,,,,,,,,,,,,,,,,,,,,,,,,,,,,,,,,,,,,,,,,,,,,,,,,,,,P052,fencog,2,Pre,2022_Jun_11_1059,Go No-Go Task,2021.1.4,119.74642497048015,
EPracticeConditions/BlueEyes.csv,"Rule: When you see a blue image, do not press 'spacebar'.",Images/Fearful/AF01_FO.jpg,Fear,Blue,Images/Blue.jpg,None,,,,,,,0,0,0,0,0,0,0,1,,,,,,,,,,,,,,,,,,,,,,,,,,,,,,,,,,,,,127.59603249999986,None,130.58537189999993,None,space,7.7749392999999145,130.58537189999993,None,127.59603249999986,None,127.59603249999986,None,127.59603249999986,None,1.8,138.53681129999995,None,None,1,140.49150259999988,None,140.49150259999988,None,140.49150259999988,None,141.90184929999987,None,,,,,,,,,,,,,,,,,,,,,,,,,,,,,,,,,,,,,,,,,,,,,,,,,,P052,fencog,2,Pre,2022_Jun_11_1059,Go No-Go Task,2021.1.4,119.74642497048015,
EPracticeConditions/BlueEyes.csv,"Rule: When you see a blue image, do not press 'spacebar'.",Images/Happy/HF09_HE.jpg,Happy,Yellow,Images/Yellow.jpg,space,,,,,,,0,0,0,0,0,1,1,6,,,,,,,,,,,,,,,,,,,,,,,,,,,,,,,,,,,,,,,,,,,,,,,,,,,1.2,143.3760691,None,None,0,144.69865989999994,None,144.69865989999994,None,144.69865989999994,None,145.60166649999996,None,,,,,,,,,,,,,,,,,,,,,,,,,,,,,,,,,,,,,,,,,,,,,,,,,,P052,fencog,2,Pre,2022_Jun_11_1059,Go No-Go Task,2021.1.4,119.74642497048015,
EPracticeConditions/BlueEyes.csv,"Rule: When you see a blue image, do not press 'spacebar'.",Images/Happy/HF05_HO.jpg,Happy,Yellow,Images/Yellow.jpg,space,,,,,,,0,0,0,0,0,2,2,5,,,,,,,,,,,,,,,,,,,,,,,,,,,,,,,,,,,,,,,,,,,,,,,,,,,1.3,147.5883475999999,None,space,1,148.99738039999988,None,148.99738039999988,None,148.99738039999988,None,149.90156579999984,None,0.3390071999999691,,,,,,,,,,,,,,,,,,,,,,,,,,,,,,,,,,,,,,,,,,,,,,,,,P052,fencog,2,Pre,2022_Jun_11_1059,Go No-Go Task,2021.1.4,119.74642497048015,
EPracticeConditions/BlueEyes.csv,"Rule: When you see a blue image, do not press 'spacebar'.",Images/Happy/BM08_HO.jpg,Happy,Yellow,Images/Yellow.jpg,space,,,,,,,0,0,0,0,0,3,3,3,,,,,,,,,,,,,,,,,,,,,,,,,,,,,,,,,,,,,,,,,,,,,,,,,,,1.4,151.8955908999999,None,space,1,153.39602820000005,None,153.39602820000005,None,153.39602820000005,None,154.28852589999997,None,0.3162959999999657,,,,,,,,,,,,,,,,,,,,,,,,,,,,,,,,,,,,,,,,,,,,,,,,,P052,fencog,2,Pre,2022_Jun_11_1059,Go No-Go Task,2021.1.4,119.74642497048015,
EPracticeConditions/BlueEyes.csv,"Rule: When you see a blue image, do not press 'spacebar'.",Images/Happy/HF10_HE.jpg,Happy,Yellow,Images/Yellow.jpg,space,,,,,,,0,0,0,0,0,4,4,7,,,,,,,,,,,,,,,,,,,,,,,,,,,,,,,,,,,,,,,,,,,,,,,,,,,1.7,156.29412479999996,None,space,1,158.10303709999994,None,158.10303709999994,None,158.10303709999994,None,158.99068349999993,None,0.3133007000001271,,,,,,,,,,,,,,,,,,,,,,,,,,,,,,,,,,,,,,,,,,,,,,,,,P052,fencog,2,Pre,2022_Jun_11_1059,Go No-Go Task,2021.1.4,119.74642497048015,
EPracticeConditions/BlueEyes.csv,"Rule: When you see a blue image, do not press 'spacebar'.",Images/Happy/HF04_HE.jpg,Happy,Yellow,Images/Yellow.jpg,space,,,,,,,0,0,0,0,0,5,5,4,,,,,,,,,,,,,,,,,,,,,,,,,,,,,,,,,,,,,,,,,,,,,,,,,,,1.6,160.99297249999995,None,space,1,162.6932961,None,162.6932961,None,162.6932961,None,163.5954056999999,None,0.26691760000016984,,,,,,,,,,,,,,,,,,,,,,,,,,,,,,,,,,,,,,,,,,,,,,,,,P052,fencog,2,Pre,2022_Jun_11_1059,Go No-Go Task,2021.1.4,119.74642497048015,
EPracticeConditions/BlueEyes.csv,"Rule: When you see a blue image, do not press 'spacebar'.",Images/Happy/BM02_HO.jpg,Happy,Yellow,Images/Yellow.jpg,space,,,,,,,0,0,0,0,0,6,6,2,,,,,,,,,,,,,,,,,,,,,,,,,,,,,,,,,,,,,,,,,,,,,,,,,,,1.5,165.59990730000004,None,space,1,167.2003302999999,None,167.2003302999999,None,167.2003302999999,None,168.0971500999999,None,0.2880912000000535,,,,,,,,,,,,,,,,,,,,,,,,,,,,,,,,,,,,,,,,,,,,,,,,,P052,fencog,2,Pre,2022_Jun_11_1059,Go No-Go Task,2021.1.4,119.74642497048015,
EPracticeConditions/BlueEyes.csv,"Rule: When you see a blue image, do not press 'spacebar'.",Images/Fearful/HM09_FC.jpg,Fear,Blue,Images/Blue.jpg,None,,,,,,,0,0,0,0,0,7,7,0,,,,,,,,,,,,,,,,,,,,,,,,,,,,,,,,,,,,,,,,,,,,,,,,,,,1.9,170.09845159999986,None,None,1,172.10717369999998,None,172.10717369999998,None,172.10717369999998,None,172.99602729999992,None,,,,,,,,,,,,,,,,,,,,,,,,,,,,,,,,,,,,,,,,,,,,,,,,,,P052,fencog,2,Pre,2022_Jun_11_1059,Go No-Go Task,2021.1.4,119.74642497048015,
EPracticeConditions/BlueEyes.csv,"Rule: When you see a blue image, do not press 'spacebar'.",,,,,,,,,,,,0,0,0,0,,,,,,,,,,,,,,,,,,,,,,,,,,,,,,,,,,,,,,,,,,,,,,,,,,,,,,,,,,,,,,,,,,,,,,,,,,,,,,,,,,,,,,,,,,,,,,,,,,,,,,,,,,,,,,,,,,,,,P052,fencog,2,Pre,2022_Jun_11_1059,Go No-Go Task,2021.1.4,119.74642497048015,
EPracticeConditions/YellowEyes.csv,"Rule: When you see a yellow image, do not press 'spacebar'.",Images/Happy/AM32HAS.jpg,Happy,Yellow,Images/Yellow.jpg,None,,,,,,,0,1,1,1,0,0,0,0,,,,,,,,,,,,,,,,,,,,,,,,,,,,,,,,,,,,,175.02006340000003,None,178.0132033,None,space,1.8032782999998744,178.0132033,None,175.02006340000003,None,175.02006340000003,None,175.02006340000003,None,1.9,179.83591449999994,None,space,0,181.8543041999999,None,181.8543041999999,None,181.8543041999999,None,182.7530870999999,None,0.20198489999984304,,,,,,,,,,,,,,,,,,,,,,,,,,,,,,,,,,,,,,,,,,,,,,,,,P052,fencog,2,Pre,2022_Jun_11_1059,Go No-Go Task,2021.1.4,119.74642497048015,
EPracticeConditions/YellowEyes.csv,"Rule: When you see a yellow image, do not press 'spacebar'.",Images/Fearful/AM19AFS.jpg,Fear,Blue,Images/Blue.jpg,space,,,,,,,0,1,1,1,0,1,1,4,,,,,,,,,,,,,,,,,,,,,,,,,,,,,,,,,,,,,,,,,,,,,,,,,,,1.7,184.7442936,None,space,1,186.5528961,None,186.5528961,None,186.5528961,None,187.45781609999995,None,0.20761170000014317,,,,,,,,,,,,,,,,,,,,,,,,,,,,,,,,,,,,,,,,,,,,,,,,,P052,fencog,2,Pre,2022_Jun_11_1059,Go No-Go Task,2021.1.4,119.74642497048015,
EPracticeConditions/YellowEyes.csv,"Rule: When you see a yellow image, do not press 'spacebar'.",Images/Happy/BF05_HO.jpg,Happy,Yellow,Images/Yellow.jpg,None,,,,,,,0,1,1,1,0,2,2,1,,,,,,,,,,,,,,,,,,,,,,,,,,,,,,,,,,,,,,,,,,,,,,,,,,,1.8,189.45301459999996,None,None,1,191.3764896,None,191.3764896,None,191.3764896,None,192.26499869999998,None,,,,,,,,,,,,,,,,,,,,,,,,,,,,,,,,,,,,,,,,,,,,,,,,,,P052,fencog,2,Pre,2022_Jun_11_1059,Go No-Go Task,2021.1.4,119.74642497048015,
EPracticeConditions/YellowEyes.csv,"Rule: When you see a yellow image, do not press 'spacebar'.",Images/Fearful/AM23AFS.jpg,Fear,Blue,Images/Blue.jpg,space,,,,,,,0,1,1,1,0,3,3,6,,,,,,,,,,,,,,,,,,,,,,,,,,,,,,,,,,,,,,,,,,,,,,,,,,,1.5,194.2663989,None,space,1,195.87515529999996,None,195.87515529999996,None,195.87515529999996,None,196.77191560000006,None,0.20522429999982705,,,,,,,,,,,,,,,,,,,,,,,,,,,,,,,,,,,,,,,,,,,,,,,,,P052,fencog,2,Pre,2022_Jun_11_1059,Go No-Go Task,2021.1.4,119.74642497048015,
EPracticeConditions/YellowEyes.csv,"Rule: When you see a yellow image, do not press 'spacebar'.",Images/Fearful/AM17AFS.jpg,Fear,Blue,Images/Blue.jpg,space,,,,,,,0,1,1,1,0,4,4,3,,,,,,,,,,,,,,,,,,,,,,,,,,,,,,,,,,,,,,,,,,,,,,,,,,,1.6,198.77346539999985,None,space,1,200.47382100000004,None,200.47382100000004,None,200.47382100000004,None,201.3726423999999,None,0.24660999999991873,,,,,,,,,,,,,,,,,,,,,,,,,,,,,,,,,,,,,,,,,,,,,,,,,P052,fencog,2,Pre,2022_Jun_11_1059,Go No-Go Task,2021.1.4,119.74642497048015,
EPracticeConditions/YellowEyes.csv,"Rule: When you see a yellow image, do not press 'spacebar'.",Images/Fearful/AM16AFS.jpg,Fear,Blue,Images/Blue.jpg,space,,,,,,,0,1,1,1,0,5,5,2,,,,,,,,,,,,,,,,,,,,,,,,,,,,,,,,,,,,,,,,,,,,,,,,,,,1.4,203.37234979999994,None,space,1,204.87251930000002,None,204.87251930000002,None,204.87251930000002,None,205.76602479999997,None,0.2798058000000765,,,,,,,,,,,,,,,,,,,,,,,,,,,,,,,,,,,,,,,,,,,,,,,,,P052,fencog,2,Pre,2022_Jun_11_1059,Go No-Go Task,2021.1.4,119.74642497048015,
EPracticeConditions/YellowEyes.csv,"Rule: When you see a yellow image, do not press 'spacebar'.",Images/Fearful/AM22AFS.jpg,Fear,Blue,Images/Blue.jpg,space,,,,,,,0,1,1,1,0,6,6,5,,,,,,,,,,,,,,,,,,,,,,,,,,,,,,,,,,,,,,,,,,,,,,,,,,,1.2,207.77146240000002,None,None,0,209.08795399999985,None,209.08795399999985,None,209.08795399999985,None,209.98681450000004,None,,,,,,,,,,,,,,,,,,,,,,,,,,,,,,,,,,,,,,,,,,,,,,,,,,P052,fencog,2,Pre,2022_Jun_11_1059,Go No-Go Task,2021.1.4,119.74642497048015,
EPracticeConditions/YellowEyes.csv,"Rule: When you see a yellow image, do not press 'spacebar'.",Images/Fearful/AM24AFS.jpg,Fear,Blue,Images/Blue.jpg,space,,,,,,,0,1,1,1,0,7,7,7,,,,,,,,,,,,,,,,,,,,,,,,,,,,,,,,,,,,,,,,,,,,,,,,,,,1.3,211.98615519999998,None,space,1,213.3950041999999,None,213.3950041999999,None,213.3950041999999,None,214.29984079999986,None,0.28527029999986553,,,,,,,,,,,,,,,,,,,,,,,,,,,,,,,,,,,,,,,,,,,,,,,,,P052,fencog,2,Pre,2022_Jun_11_1059,Go No-Go Task,2021.1.4,119.74642497048015,
EPracticeConditions/YellowEyes.csv,"Rule: When you see a yellow image, do not press 'spacebar'.",,,,,,,,,,,,0,1,1,1,,,,,,,,,,,,,,,,,,,,,,,,,,,,,,,,,,,,,,,,,,,,,,,,,,,,,,,,,,,,,,,,,,,,,,,,,,,,,,,,,,,,,,,,,,,,,,,,,,,,,,,,,,,,,,,,,,,,,P052,fencog,2,Pre,2022_Jun_11_1059,Go No-Go Task,2021.1.4,119.74642497048015,
EPracticeConditions/BlueScram.csv,"Rule: When you see a blue image, do not press 'spacebar'.",Images/Scram1/AM13NES.jpg,Scramble,Yellow,Images/Yellow.jpg,space,,,,,,,0,2,2,2,0,0,0,5,,,,,,,,,,,,,,,,,,,,,,,,,,,,,,,,,,,,,216.3048647999999,None,219.2927021999999,None,space,4.41177770000013,219.2927021999999,None,216.3048647999999,None,216.3048647999999,None,216.3048647999999,None,1.2,223.7293413,None,None,0,225.0414879,None,225.0414879,None,225.0414879,None,225.94808399999988,None,,,,,,,,,,,,,,,,,,,,,,,,,,,,,,,,,,,,,,,,,,,,,,,,,,P052,fencog,2,Pre,2022_Jun_11_1059,Go No-Go Task,2021.1.4,119.74642497048015,
EPracticeConditions/BlueScram.csv,"Rule: When you see a blue image, do not press 'spacebar'.",Images/Scram1/AM04_NC.jpg,Scramble,Yellow,Images/Yellow.jpg,space,,,,,,,0,2,2,2,0,1,1,3,,,,,,,,,,,,,,,,,,,,,,,,,,,,,,,,,,,,,,,,,,,,,,,,,,,1.3,227.93971739999984,None,space,1,229.34855059999995,None,229.34855059999995,None,229.34855059999995,None,230.23870650000003,None,0.23615029999996295,,,,,,,,,,,,,,,,,,,,,,,,,,,,,,,,,,,,,,,,,,,,,,,,,P052,fencog,2,Pre,2022_Jun_11_1059,Go No-Go Task,2021.1.4,119.74642497048015,
EPracticeConditions/BlueScram.csv,"Rule: When you see a blue image, do not press 'spacebar'.",Images/Scram1/AM03NES.jpg,Scramble,Yellow,Images/Yellow.jpg,space,,,,,,,0,2,2,2,0,2,2,4,,,,,,,,,,,,,,,,,,,,,,,,,,,,,,,,,,,,,,,,,,,,,,,,,,,1.9,232.23839679999992,None,space,1,234.23835929999996,None,234.23835929999996,None,234.23835929999996,None,235.13367900000003,None,0.32180220000009285,,,,,,,,,,,,,,,,,,,,,,,,,,,,,,,,,,,,,,,,,,,,,,,,,P052,fencog,2,Pre,2022_Jun_11_1059,Go No-Go Task,2021.1.4,119.74642497048015,
EPracticeConditions/BlueScram.csv,"Rule: When you see a blue image, do not press 'spacebar'.",Images/Scram2/AF25NES.jpg,Scramble,Yellow,Images/Yellow.jpg,space,,,,,,,0,2,2,2,0,3,3,7,,,,,,,,,,,,,,,,,,,,,,,,,,,,,,,,,,,,,,,,,,,,,,,,,,,1.6,237.13694199999986,None,space,1,238.84579089999988,None,238.84579089999988,None,238.84579089999988,None,239.7362639999999,None,0.24263200000018514,,,,,,,,,,,,,,,,,,,,,,,,,,,,,,,,,,,,,,,,,,,,,,,,,P052,fencog,2,Pre,2022_Jun_11_1059,Go No-Go Task,2021.1.4,119.74642497048015,
EPracticeConditions/BlueScram.csv,"Rule: When you see a blue image, do not press 'spacebar'.",Images/Scram1/BF18_NC.jpg,Scramble,Blue,Images/Blue.jpg,None,,,,,,,0,2,2,2,0,4,4,1,,,,,,,,,,,,,,,,,,,,,,,,,,,,,,,,,,,,,,,,,,,,,,,,,,,1.5,241.73727169999984,None,None,1,243.35349169999995,None,243.35349169999995,None,243.35349169999995,None,244.24969239999996,None,,,,,,,,,,,,,,,,,,,,,,,,,,,,,,,,,,,,,,,,,,,,,,,,,,P052,fencog,2,Pre,2022_Jun_11_1059,Go No-Go Task,2021.1.4,119.74642497048015,
EPracticeConditions/BlueScram.csv,"Rule: When you see a blue image, do not press 'spacebar'.",Images/Scram2/AM03_NC.jpg,Scramble,Yellow,Images/Yellow.jpg,space,,,,,,,0,2,2,2,0,5,5,6,,,,,,,,,,,,,,,,,,,,,,,,,,,,,,,,,,,,,,,,,,,,,,,,,,,1.7,246.25764349999986,None,space,1,248.068538,None,248.068538,None,248.068538,None,248.95933360000004,None,0.23567630000002282,,,,,,,,,,,,,,,,,,,,,,,,,,,,,,,,,,,,,,,,,,,,,,,,,P052,fencog,2,Pre,2022_Jun_11_1059,Go No-Go Task,2021.1.4,119.74642497048015,
EPracticeConditions/BlueScram.csv,"Rule: When you see a blue image, do not press 'spacebar'.",Images/Scram1/BM08_NC.jpg,Scramble,Blue,Images/Blue.jpg,None,,,,,,,0,2,2,2,0,6,6,0,,,,,,,,,,,,,,,,,,,,,,,,,,,,,,,,,,,,,,,,,,,,,,,,,,,1.4,250.96623039999986,None,None,1,252.47513719999984,None,252.47513719999984,None,252.47513719999984,None,253.37114229999997,None,,,,,,,,,,,,,,,,,,,,,,,,,,,,,,,,,,,,,,,,,,,,,,,,,,P052,fencog,2,Pre,2022_Jun_11_1059,Go No-Go Task,2021.1.4,119.74642497048015,
EPracticeConditions/BlueScram.csv,"Rule: When you see a blue image, do not press 'spacebar'.",Images/Scram2/AF10_NC.jpg,Scramble,Yellow,Images/Yellow.jpg,space,,,,,,,0,2,2,2,0,7,7,2,,,,,,,,,,,,,,,,,,,,,,,,,,,,,,,,,,,,,,,,,,,,,,,,,,,1.8,255.37342820000003,None,space,1,257.2820325,None,257.2820325,None,257.2820325,None,258.17821619999995,None,0.24627609999993183,,,,,,,,,,,,,,,,,,,,,,,,,,,,,,,,,,,,,,,,,,,,,,,,,P052,fencog,2,Pre,2022_Jun_11_1059,Go No-Go Task,2021.1.4,119.74642497048015,
EPracticeConditions/BlueScram.csv,"Rule: When you see a blue image, do not press 'spacebar'.",,,,,,,,,,,,0,2,2,2,,,,,,,,,,,,,,,,,,,,,,,,,,,,,,,,,,,,,,,,,,,,,,,,,,,,,,,,,,,,,,,,,,,,,,,,,,,,,,,,,,,,,,,,,,,,,,,,,,,,,,,,,,,,,,,,,,,,,P052,fencog,2,Pre,2022_Jun_11_1059,Go No-Go Task,2021.1.4,119.74642497048015,
EPracticeConditions/YellowScram.csv,"Rule: When you see a yellow image, do not press 'spacebar'.",Images/Scram1/AF10_NC.jpg,Scramble,Blue,Images/Blue.jpg,space,,,,,,,0,3,3,3,0,0,0,6,,,,,,,,,,,,,,,,,,,,,,,,,,,,,,,,,,,,,260.1894156999999,None,263.1794236999999,None,space,0.4369908999999552,263.1794236999999,None,260.1894156999999,None,260.1894156999999,None,260.1894156999999,None,1.6,263.63645610000003,None,space,1,265.3545577,None,265.3545577,None,265.3545577,None,266.24130289999994,None,0.2056897999998455,,,,,,,,,,,,,,,,,,,,,,,,,,,,,,,,,,,,,,,,,,,,,,,,,P052,fencog,2,Pre,2022_Jun_11_1059,Go No-Go Task,2021.1.4,119.74642497048015,
EPracticeConditions/YellowScram.csv,"Rule: When you see a yellow image, do not press 'spacebar'.",Images/Scram2/AM03NES.jpg,Scramble,Yellow,Images/Yellow.jpg,None,,,,,,,0,3,3,3,0,1,1,1,,,,,,,,,,,,,,,,,,,,,,,,,,,,,,,,,,,,,,,,,,,,,,,,,,,1.9,268.24456869999995,None,None,1,270.2615662999999,None,270.2615662999999,None,270.2615662999999,None,271.14432239999996,None,,,,,,,,,,,,,,,,,,,,,,,,,,,,,,,,,,,,,,,,,,,,,,,,,,P052,fencog,2,Pre,2022_Jun_11_1059,Go No-Go Task,2021.1.4,119.74642497048015,
EPracticeConditions/YellowScram.csv,"Rule: When you see a yellow image, do not press 'spacebar'.",Images/Scram1/AF07NES.jpg,Scramble,Blue,Images/Blue.jpg,space,,,,,,,0,3,3,3,0,2,2,3,,,,,,,,,,,,,,,,,,,,,,,,,,,,,,,,,,,,,,,,,,,,,,,,,,,1.4,273.1514992,None,space,1,274.6597113,None,274.6597113,None,274.6597113,None,275.55030569999985,None,0.2524293999999827,,,,,,,,,,,,,,,,,,,,,,,,,,,,,,,,,,,,,,,,,,,,,,,,,P052,fencog,2,Pre,2022_Jun_11_1059,Go No-Go Task,2021.1.4,119.74642497048015,
EPracticeConditions/YellowScram.csv,"Rule: When you see a yellow image, do not press 'spacebar'.",Images/Scram1/AF30NES.JPG,Scramble,Blue,Images/Blue.jpg,space,,,,,,,0,3,3,3,0,3,3,4,,,,,,,,,,,,,,,,,,,,,,,,,,,,,,,,,,,,,,,,,,,,,,,,,,,1.7,277.5504205,None,space,1,279.3586777999999,None,279.3586777999999,None,279.3586777999999,None,280.25901909999993,None,0.2738730000000942,,,,,,,,,,,,,,,,,,,,,,,,,,,,,,,,,,,,,,,,,,,,,,,,,P052,fencog,2,Pre,2022_Jun_11_1059,Go No-Go Task,2021.1.4,119.74642497048015,
EPracticeConditions/YellowScram.csv,"Rule: When you see a yellow image, do not press 'spacebar'.",Images/Scram1/HF04_NC.jpg,Scramble,Blue,Images/Blue.jpg,space,,,,,,,0,3,3,3,0,4,4,2,,,,,,,,,,,,,,,,,,,,,,,,,,,,,,,,,,,,,,,,,,,,,,,,,,,1.5,282.25711869999986,None,space,1,283.86572669999987,None,283.86572669999987,None,283.86572669999987,None,284.7602784999999,None,0.326519099999814,,,,,,,,,,,,,,,,,,,,,,,,,,,,,,,,,,,,,,,,,,,,,,,,,P052,fencog,2,Pre,2022_Jun_11_1059,Go No-Go Task,2021.1.4,119.74642497048015,
EPracticeConditions/YellowScram.csv,"Rule: When you see a yellow image, do not press 'spacebar'.",Images/Scram1/BM01_NC.jpg,Scramble,Blue,Images/Blue.jpg,space,,,,,,,0,3,3,3,0,5,5,5,,,,,,,,,,,,,,,,,,,,,,,,,,,,,,,,,,,,,,,,,,,,,,,,,,,1.3,286.7640535999999,None,space,1,288.1728499999999,None,288.1728499999999,None,288.1728499999999,None,289.0612581999999,None,0.2514158999999836,,,,,,,,,,,,,,,,,,,,,,,,,,,,,,,,,,,,,,,,,,,,,,,,,P052,fencog,2,Pre,2022_Jun_11_1059,Go No-Go Task,2021.1.4,119.74642497048015,
EPracticeConditions/YellowScram.csv,"Rule: When you see a yellow image, do not press 'spacebar'.",Images/Scram2/HM06_NC.jpg,Scramble,Yellow,Images/Yellow.jpg,None,,,,,,,0,3,3,3,0,6,6,0,,,,,,,,,,,,,,,,,,,,,,,,,,,,,,,,,,,,,,,,,,,,,,,,,,,1.8,291.07035870000004,None,None,1,292.97981749999985,None,292.97981749999985,None,292.97981749999985,None,293.8759304,None,,,,,,,,,,,,,,,,,,,,,,,,,,,,,,,,,,,,,,,,,,,,,,,,,,P052,fencog,2,Pre,2022_Jun_11_1059,Go No-Go Task,2021.1.4,119.74642497048015,
EPracticeConditions/YellowScram.csv,"Rule: When you see a yellow image, do not press 'spacebar'.",Images/Scram1/AF24NES.jpg,Scramble,Blue,Images/Blue.jpg,space,,,,,,,0,3,3,3,0,7,7,7,,,,,,,,,,,,,,,,,,,,,,,,,,,,,,,,,,,,,,,,,,,,,,,,,,,1.2,295.8780265999999,None,space,1,297.1868904999999,None,297.1868904999999,None,297.1868904999999,None,298.07456579999985,None,0.205577299999959,,,,,,,,,,,,,,,,,,,,,,,,,,,,,,,,,,,,,,,,,,,,,,,,,P052,fencog,2,Pre,2022_Jun_11_1059,Go No-Go Task,2021.1.4,119.74642497048015,
EPracticeConditions/YellowScram.csv,"Rule: When you see a yellow image, do not press 'spacebar'.",,,,,,,,,,,,0,3,3,3,,,,,,,,,,,,,,,,,,,,,,,,,,,,,,,,,,,,,,,,,,,,,,,,,,,,,,,,,,,,,,,,,,,,,,,,,,,,,,,,,,,,,,,,,,,,,,,,,,,,,,,,,,,,,,,,,,,,,P052,fencog,2,Pre,2022_Jun_11_1059,Go No-Go Task,2021.1.4,119.74642497048015,
,,,,,,,,,,,,,,,,,,,,,,,,,,,,,,,,,,,,,,,,,,,,,,,,,,,,,,,,,,,,,,,,,,,,,,,,,,,,,,,,,,,,,301.46432000000004,None,space,6.577482700000019,301.94316990000016,None,,,,,,,,,,,,,,,,,,,,,,,,,,,,,,,,,,,,,,,,,,,P052,fencog,2,Pre,2022_Jun_11_1059,Go No-Go Task,2021.1.4,119.74642497048015,
,,,,,,,,,,,,,,,,,,,,,,,,,,,,,,,,,,,,,,,,,,,,,,,,,,,,,,,,,,,,,,,,,,,,,,,,,,,,,,,,,,,,,,,,,,,308.5335976000001,None,space,2.0426652000001013,308.5335976000001,None,,,,,,,,,,,,,,,,,,,,,,,,,,,,,,,,,,,,,P052,fencog,2,Pre,2022_Jun_11_1059,Go No-Go Task,2021.1.4,119.74642497048015,
,"Rule: When you see a yellow image, do not press 'spacebar'.",Images/Fearful/BM02_FC.jpg,Fear,Blue,Images/Blue.jpg,space,ParentConditions/YellowBlueBlue_v2.xlsx,BlueBlueYellow,Conditions/Version_2/YellowHappyStop.xlsx,no,PASS,0.16858645908030467,,,,,,,,,0,0,0,0,0,0,0,0,0,0,0,0,,,,,,,,,,,,,,,,,,,,,,,,,,,,,,,,,,,,,,,,,,,,,,,,,,,,,,,,,,,,,,,,,310.6703791,None,313.65659909999977,None,space,4.063453199999913,313.65659909999977,None,310.6703791,None,310.6703791,None,310.6703791,None,1.75,317.7790721000001,None,space,1,0.2095542000001842,319.6386394000001,None,319.6386394000001,None,319.6386394000001,None,,,,,,,,,,,P052,fencog,2,Pre,2022_Jun_11_1059,Go No-Go Task,2021.1.4,119.74642497048015,
,"Rule: When you see a yellow image, do not press 'spacebar'.",Images/Fearful/HF05_FC.jpg,Fear,Blue,Images/Blue.jpg,space,ParentConditions/YellowBlueBlue_v2.xlsx,BlueBlueYellow,Conditions/Version_2/YellowHappyStop.xlsx,no,PASS,0.9484055972569129,,,,,,,,,0,0,0,0,0,0,0,0,0,1,1,1,,,,,,,,,,,,,,,,,,,,,,,,,,,,,,,,,,,,,,,,,,,,,,,,,,,,,,,,,,,,,,,,,,,,,,,,,,,,,,,1.55,320.04419629999984,None,space,1,0.2637726000002658,321.70453039999984,None,321.70453039999984,None,321.70453039999984,None,,,,,,,,,,,P052,fencog,2,Pre,2022_Jun_11_1059,Go No-Go Task,2021.1.4,119.74642497048015,
,"Rule: When you see a yellow image, do not press 'spacebar'.",Images/Happy/AF32HAS.jpg,Happy,Yellow,Images/Yellow.jpg,None,ParentConditions/YellowBlueBlue_v2.xlsx,BlueBlueYellow,Conditions/Version_2/YellowHappyStop.xlsx,yes,PASS,0.508887905761459,,,,,,,,,0,0,0,0,0,0,0,0,0,2,2,2,,,,,,,,,,,,,,,,,,,,,,,,,,,,,,,,,,,,,,,,,,,,,,,,,,,,,,,,,,,,,,,,,,,,,,,,,,,,,,,1.94,322.1077314999998,None,None,1,,324.1621519999999,None,324.1621519999999,None,324.1621519999999,None,,,,,,,,,,,P052,fencog,2,Pre,2022_Jun_11_1059,Go No-Go Task,2021.1.4,119.74642497048015,
,"Rule: When you see a yellow image, do not press 'spacebar'.",Images/Happy/AM32HAS.jpg,Happy,Yellow,Images/Yellow.jpg,None,ParentConditions/YellowBlueBlue_v2.xlsx,BlueBlueYellow,Conditions/Version_2/YellowHappyStop.xlsx,yes,PASS,0.12877007601010582,,,,,,,,,0,0,0,0,0,0,0,0,0,3,3,3,,,,,,,,,,,,,,,,,,,,,,,,,,,,,,,,,,,,,,,,,,,,,,,,,,,,,,,,,,,,,,,,,,,,,,,,,,,,,,,1.97,324.5610738999999,None,None,1,,326.63631829999986,None,326.63631829999986,None,326.63631829999986,None,,,,,,,,,,,P052,fencog,2,Pre,2022_Jun_11_1059,Go No-Go Task,2021.1.4,119.74642497048015,
,"Rule: When you see a yellow image, do not press 'spacebar'.",Images/Fearful/AF07FS.jpg,Fear,Blue,Images/Blue.jpg,space,ParentConditions/YellowBlueBlue_v2.xlsx,BlueBlueYellow,Conditions/Version_2/YellowHappyStop.xlsx,no,PASS,0.4320382618493961,,,,,,,,,0,0,0,0,0,0,0,0,0,4,4,4,,,,,,,,,,,,,,,,,,,,,,,,,,,,,,,,,,,,,,,,,,,,,,,,,,,,,,,,,,,,,,,,,,,,,,,,,,,,,,,1.98,327.03976109999985,None,space,1,0.22447179999971922,329.13571490000004,None,329.13571490000004,None,329.13571490000004,None,,,,,,,,,,,P052,fencog,2,Pre,2022_Jun_11_1059,Go No-Go Task,2021.1.4,119.74642497048015,
,"Rule: When you see a yellow image, do not press 'spacebar'.",Images/Fearful/AM30AFS.jpg,Fear,Blue,Images/Blue.jpg,space,ParentConditions/YellowBlueBlue_v2.xlsx,BlueBlueYellow,Conditions/Version_2/YellowHappyStop.xlsx,no,PASS,0.14164593092902533,,,,,,,,,0,0,0,0,0,0,0,0,0,5,5,5,,,,,,,,,,,,,,,,,,,,,,,,,,,,,,,,,,,,,,,,,,,,,,,,,,,,,,,,,,,,,,,,,,,,,,,,,,,,,,,1.37,329.53473799999983,None,space,1,0.22974530000010418,331.01857689999997,None,331.01857689999997,None,331.01857689999997,None,,,,,,,,,,,P052,fencog,2,Pre,2022_Jun_11_1059,Go No-Go Task,2021.1.4,119.74642497048015,
,"Rule: When you see a yellow image, do not press 'spacebar'.",Images/Happy/BM03_HO.jpg,Happy,Yellow,Images/Yellow.jpg,None,ParentConditions/YellowBlueBlue_v2.xlsx,BlueBlueYellow,Conditions/Version_2/YellowHappyStop.xlsx,yes,PASS,0.824528473694533,,,,,,,,,0,0,0,0,0,0,0,0,0,6,6,6,,,,,,,,,,,,,,,,,,,,,,,,,,,,,,,,,,,,,,,,,,,,,,,,,,,,,,,,,,,,,,,,,,,,,,,,,,,,,,,1.4,331.4180720999998,None,None,1,,332.9262985999999,None,332.9262985999999,None,332.9262985999999,None,,,,,,,,,,,P052,fencog,2,Pre,2022_Jun_11_1059,Go No-Go Task,2021.1.4,119.74642497048015,
,"Rule: When you see a yellow image, do not press 'spacebar'.",Images/Fearful/HM06_FC.jpg,Fear,Blue,Images/Blue.jpg,space,ParentConditions/YellowBlueBlue_v2.xlsx,BlueBlueYellow,Conditions/Version_2/YellowHappyStop.xlsx,no,PASS,0.06881493513979675,,,,,,,,,0,0,0,0,0,0,0,0,0,7,7,7,,,,,,,,,,,,,,,,,,,,,,,,,,,,,,,,,,,,,,,,,,,,,,,,,,,,,,,,,,,,,,,,,,,,,,,,,,,,,,,1.39,333.32723069999975,None,space,1,0.2303885999999693,334.82565710000017,None,334.82565710000017,None,334.82565710000017,None,,,,,,,,,,,P052,fencog,2,Pre,2022_Jun_11_1059,Go No-Go Task,2021.1.4,119.74642497048015,
,"Rule: When you see a yellow image, do not press 'spacebar'.",Images/Fearful/AF19AFS.jpg,Fear,Blue,Images/Blue.jpg,space,ParentConditions/YellowBlueBlue_v2.xlsx,BlueBlueYellow,Conditions/Version_2/YellowHappyStop.xlsx,no,PASS,0.6194516353064884,,,,,,,,,0,0,0,0,0,0,0,0,0,8,8,8,,,,,,,,,,,,,,,,,,,,,,,,,,,,,,,,,,,,,,,,,,,,,,,,,,,,,,,,,,,,,,,,,,,,,,,,,,,,,,,1.28,335.22462940000014,None,space,1,0.22383910000007745,336.6084857000001,None,336.6084857000001,None,336.6084857000001,None,,,,,,,,,,,P052,fencog,2,Pre,2022_Jun_11_1059,Go No-Go Task,2021.1.4,119.74642497048015,
,"Rule: When you see a yellow image, do not press 'spacebar'.",Images/Happy/AF30HAS.jpg,Happy,Yellow,Images/Yellow.jpg,None,ParentConditions/YellowBlueBlue_v2.xlsx,BlueBlueYellow,Conditions/Version_2/YellowHappyStop.xlsx,yes,PASS,0.7783721125891628,,,,,,,,,0,0,0,0,0,0,0,0,0,9,9,9,,,,,,,,,,,,,,,,,,,,,,,,,,,,,,,,,,,,,,,,,,,,,,,,,,,,,,,,,,,,,,,,,,,,,,,,,,,,,,,1.42,337.00879870000017,None,None,1,,338.54127340000014,None,338.54127340000014,None,338.54127340000014,None,,,,,,,,,,,P052,fencog,2,Pre,2022_Jun_11_1059,Go No-Go Task,2021.1.4,119.74642497048015,
,"Rule: When you see a yellow image, do not press 'spacebar'.",Images/Fearful/AF25AFS.jpg,Fear,Blue,Images/Blue.jpg,space,ParentConditions/YellowBlueBlue_v2.xlsx,BlueBlueYellow,Conditions/Version_2/YellowHappyStop.xlsx,no,PASS,0.9528113424204139,,,,,,,,,0,0,0,0,0,0,0,0,0,10,10,10,,,,,,,,,,,,,,,,,,,,,,,,,,,,,,,,,,,,,,,,,,,,,,,,,,,,,,,,,,,,,,,,,,,,,,,,,,,,,,,1.6,338.94037709999975,None,space,1,0.2793987999998535,340.64900050000006,None,340.64900050000006,None,340.64900050000006,None,,,,,,,,,,,P052,fencog,2,Pre,2022_Jun_11_1059,Go No-Go Task,2021.1.4,119.74642497048015,
,"Rule: When you see a yellow image, do not press 'spacebar'.",Images/Fearful/AF30AFS.jpg,Fear,Blue,Images/Blue.jpg,space,ParentConditions/YellowBlueBlue_v2.xlsx,BlueBlueYellow,Conditions/Version_2/YellowHappyStop.xlsx,no,PASS,0.022094815080431318,,,,,,,,,0,0,0,0,0,0,0,0,0,11,11,11,,,,,,,,,,,,,,,,,,,,,,,,,,,,,,,,,,,,,,,,,,,,,,,,,,,,,,,,,,,,,,,,,,,,,,,,,,,,,,,1.32,341.05022629999985,None,space,1,0.3584108000000015,342.4817450999999,None,342.4817450999999,None,342.4817450999999,None,,,,,,,,,,,P052,fencog,2,Pre,2022_Jun_11_1059,Go No-Go Task,2021.1.4,119.74642497048015,
,"Rule: When you see a yellow image, do not press 'spacebar'.",Images/Happy/BF10_HO.jpg,Happy,Yellow,Images/Yellow.jpg,None,ParentConditions/YellowBlueBlue_v2.xlsx,BlueBlueYellow,Conditions/Version_2/YellowHappyStop.xlsx,yes,PASS,0.5001600173303757,,,,,,,,,0,0,0,0,0,0,0,0,0,12,12,12,,,,,,,,,,,,,,,,,,,,,,,,,,,,,,,,,,,,,,,,,,,,,,,,,,,,,,,,,,,,,,,,,,,,,,,,,,,,,,,1.93,342.8818812999998,None,None,1,,344.9226653999999,None,344.9226653999999,None,344.9226653999999,None,,,,,,,,,,,P052,fencog,2,Pre,2022_Jun_11_1059,Go No-Go Task,2021.1.4,119.74642497048015,
,"Rule: When you see a yellow image, do not press 'spacebar'.",Images/Fearful/AM06_FO.jpg,Fear,Blue,Images/Blue.jpg,space,ParentConditions/YellowBlueBlue_v2.xlsx,BlueBlueYellow,Conditions/Version_2/YellowHappyStop.xlsx,no,PASS,0.578262378462087,,,,,,,,,0,0,0,0,0,0,0,0,0,13,13,13,,,,,,,,,,,,,,,,,,,,,,,,,,,,,,,,,,,,,,,,,,,,,,,,,,,,,,,,,,,,,,,,,,,,,,,,,,,,,,,1.62,345.31767450000007,None,space,1,0.24903740000036123,347.04712400000017,None,347.04712400000017,None,347.04712400000017,None,,,,,,,,,,,P052,fencog,2,Pre,2022_Jun_11_1059,Go No-Go Task,2021.1.4,119.74642497048015,
,"Rule: When you see a yellow image, do not press 'spacebar'.",Images/Happy/AM24HAS.jpg,Happy,Yellow,Images/Yellow.jpg,None,ParentConditions/YellowBlueBlue_v2.xlsx,BlueBlueYellow,Conditions/Version_2/YellowHappyStop.xlsx,yes,PASS,0.39484184444569004,,,,,,,,,0,0,0,0,0,0,0,0,0,14,14,14,,,,,,,,,,,,,,,,,,,,,,,,,,,,,,,,,,,,,,,,,,,,,,,,,,,,,,,,,,,,,,,,,,,,,,,,,,,,,,,1.95,347.44605479999973,None,None,1,,349.50465780000013,None,349.50465780000013,None,349.50465780000013,None,,,,,,,,,,,P052,fencog,2,Pre,2022_Jun_11_1059,Go No-Go Task,2021.1.4,119.74642497048015,
,"Rule: When you see a yellow image, do not press 'spacebar'.",Images/Fearful/AF21AFS.jpg,Fear,Blue,Images/Blue.jpg,space,ParentConditions/YellowBlueBlue_v2.xlsx,BlueBlueYellow,Conditions/Version_2/YellowHappyStop.xlsx,no,PASS,0.6432231069793333,,,,,,,,,0,0,0,0,0,0,0,0,0,15,15,15,,,,,,,,,,,,,,,,,,,,,,,,,,,,,,,,,,,,,,,,,,,,,,,,,,,,,,,,,,,,,,,,,,,,,,,,,,,,,,,1.48,349.90361219999977,None,space,1,0.23299520000000484,351.48741710000013,None,351.48741710000013,None,351.48741710000013,None,,,,,,,,,,,P052,fencog,2,Pre,2022_Jun_11_1059,Go No-Go Task,2021.1.4,119.74642497048015,
,"Rule: When you see a yellow image, do not press 'spacebar'.",Images/Happy/AM06_HC.jpg,Happy,Yellow,Images/Yellow.jpg,None,ParentConditions/YellowBlueBlue_v2.xlsx,BlueBlueYellow,Conditions/Version_2/YellowHappyStop.xlsx,yes,PASS,0.7943976294198472,,,,,,,,,0,0,0,0,0,0,0,0,0,16,16,16,,,,,,,,,,,,,,,,,,,,,,,,,,,,,,,,,,,,,,,,,,,,,,,,,,,,,,,,,,,,,,,,,,,,,,,,,,,,,,,1.61,351.8917802000001,None,None,1,,353.6116886,None,353.6116886,None,353.6116886,None,,,,,,,,,,,P052,fencog,2,Pre,2022_Jun_11_1059,Go No-Go Task,2021.1.4,119.74642497048015,
,"Rule: When you see a yellow image, do not press 'spacebar'.",Images/Fearful/AF10_FC.jpg,Fear,Blue,Images/Blue.jpg,space,ParentConditions/YellowBlueBlue_v2.xlsx,BlueBlueYellow,Conditions/Version_2/YellowHappyStop.xlsx,no,PASS,0.4387172057805456,,,,,,,,,0,0,0,0,0,0,0,0,0,17,17,17,,,,,,,,,,,,,,,,,,,,,,,,,,,,,,,,,,,,,,,,,,,,,,,,,,,,,,,,,,,,,,,,,,,,,,,,,,,,,,,1.21,354.00815379999995,None,space,1,0.3042120000000068,355.32795410000017,None,355.32795410000017,None,355.32795410000017,None,,,,,,,,,,,P052,fencog,2,Pre,2022_Jun_11_1059,Go No-Go Task,2021.1.4,119.74642497048015,
,"Rule: When you see a yellow image, do not press 'spacebar'.",Images/Fearful/BM03_FC.jpg,Fear,Blue,Images/Blue.jpg,space,ParentConditions/YellowBlueBlue_v2.xlsx,BlueBlueYellow,Conditions/Version_2/YellowHappyStop.xlsx,no,PASS,0.20170262712346598,,,,,,,,,0,0,0,0,0,0,0,0,0,18,18,18,,,,,,,,,,,,,,,,,,,,,,,,,,,,,,,,,,,,,,,,,,,,,,,,,,,,,,,,,,,,,,,,,,,,,,,,,,,,,,,1.26,355.7269001999998,None,space,1,0.24204980000013165,357.10240239999985,None,357.10240239999985,None,357.10240239999985,None,,,,,,,,,,,P052,fencog,2,Pre,2022_Jun_11_1059,Go No-Go Task,2021.1.4,119.74642497048015,
,"Rule: When you see a yellow image, do not press 'spacebar'.",Images/Fearful/HM09_FC.jpg,Fear,Blue,Images/Blue.jpg,space,ParentConditions/YellowBlueBlue_v2.xlsx,BlueBlueYellow,Conditions/Version_2/YellowHappyStop.xlsx,no,PASS,0.15976906823467862,,,,,,,,,0,0,0,0,0,0,0,0,0,19,19,19,,,,,,,,,,,,,,,,,,,,,,,,,,,,,,,,,,,,,,,,,,,,,,,,,,,,,,,,,,,,,,,,,,,,,,,,,,,,,,,1.92,357.4954502999999,None,space,1,0.32154869999976654,359.52670850000004,None,359.52670850000004,None,359.52670850000004,None,,,,,,,,,,,P052,fencog,2,Pre,2022_Jun_11_1059,Go No-Go Task,2021.1.4,119.74642497048015,
,"Rule: When you see a yellow image, do not press 'spacebar'.",Images/Fearful/AM04_FO.jpg,Fear,Blue,Images/Blue.jpg,space,ParentConditions/YellowBlueBlue_v2.xlsx,BlueBlueYellow,Conditions/Version_2/YellowHappyStop.xlsx,no,PASS,0.7842232797128176,,,,,,,,,0,0,0,0,0,0,0,0,0,20,20,20,,,,,,,,,,,,,,,,,,,,,,,,,,,,,,,,,,,,,,,,,,,,,,,,,,,,,,,,,,,,,,,,,,,,,,,,,,,,,,,1.46,359.9259747000001,None,space,1,0.267056500000308,361.50111689999994,None,361.50111689999994,None,361.50111689999994,None,,,,,,,,,,,P052,fencog,2,Pre,2022_Jun_11_1059,Go No-Go Task,2021.1.4,119.74642497048015,
,"Rule: When you see a yellow image, do not press 'spacebar'.",Images/Fearful/AF11AFS.jpg,Fear,Blue,Images/Blue.jpg,space,ParentConditions/YellowBlueBlue_v2.xlsx,BlueBlueYellow,Conditions/Version_2/YellowHappyStop.xlsx,no,PASS,0.5758948553509043,,,,,,,,,0,0,0,0,0,0,0,0,0,21,21,21,,,,,,,,,,,,,,,,,,,,,,,,,,,,,,,,,,,,,,,,,,,,,,,,,,,,,,,,,,,,,,,,,,,,,,,,,,,,,,,1.87,361.9053979999999,None,space,1,0.2848085999999057,363.87543129999995,None,363.87543129999995,None,363.87543129999995,None,,,,,,,,,,,P052,fencog,2,Pre,2022_Jun_11_1059,Go No-Go Task,2021.1.4,119.74642497048015,
,"Rule: When you see a yellow image, do not press 'spacebar'.",Images/Fearful/AM10_FO.jpg,Fear,Blue,Images/Blue.jpg,space,ParentConditions/YellowBlueBlue_v2.xlsx,BlueBlueYellow,Conditions/Version_2/YellowHappyStop.xlsx,no,PASS,0.7516560744284169,,,,,,,,,0,0,0,0,0,0,0,0,0,22,22,22,,,,,,,,,,,,,,,,,,,,,,,,,,,,,,,,,,,,,,,,,,,,,,,,,,,,,,,,,,,,,,,,,,,,,,,,,,,,,,,1.73,364.2752509000002,None,space,1,0.2682838000000629,366.11642500000016,None,366.11642500000016,None,366.11642500000016,None,,,,,,,,,,,P052,fencog,2,Pre,2022_Jun_11_1059,Go No-Go Task,2021.1.4,119.74642497048015,
,"Rule: When you see a yellow image, do not press 'spacebar'.",Images/Fearful/WF04_FC.jpg,Fear,Blue,Images/Blue.jpg,space,ParentConditions/YellowBlueBlue_v2.xlsx,BlueBlueYellow,Conditions/Version_2/YellowHappyStop.xlsx,no,PASS,0.8626299251261901,,,,,,,,,0,0,0,0,0,0,0,0,0,23,23,23,,,,,,,,,,,,,,,,,,,,,,,,,,,,,,,,,,,,,,,,,,,,,,,,,,,,,,,,,,,,,,,,,,,,,,,,,,,,,,,1.35,366.5209682999998,None,space,1,0.2739310000001751,367.9825949000001,None,367.9825949000001,None,367.9825949000001,None,,,,,,,,,,,P052,fencog,2,Pre,2022_Jun_11_1059,Go No-Go Task,2021.1.4,119.74642497048015,
,"Rule: When you see a yellow image, do not press 'spacebar'.",Images/Fearful/AF28AFS.jpg,Fear,Blue,Images/Blue.jpg,space,ParentConditions/YellowBlueBlue_v2.xlsx,BlueBlueYellow,Conditions/Version_2/YellowHappyStop.xlsx,no,PASS,0.7326117629083128,,,,,,,,,0,0,0,0,0,0,0,0,0,24,24,24,,,,,,,,,,,,,,,,,,,,,,,,,,,,,,,,,,,,,,,,,,,,,,,,,,,,,,,,,,,,,,,,,,,,,,,,,,,,,,,1.82,368.37954869999976,None,space,1,0.29310820000000604,370.3068939,None,370.3068939,None,370.3068939,None,,,,,,,,,,,P052,fencog,2,Pre,2022_Jun_11_1059,Go No-Go Task,2021.1.4,119.74642497048015,
,"Rule: When you see a yellow image, do not press 'spacebar'.",Images/Fearful/WF11_FC.jpg,Fear,Blue,Images/Blue.jpg,space,ParentConditions/YellowBlueBlue_v2.xlsx,BlueBlueYellow,Conditions/Version_2/YellowHappyStop.xlsx,no,PASS,0.32883698788558013,,,,,,,,,0,0,0,0,0,0,0,0,0,25,25,25,,,,,,,,,,,,,,,,,,,,,,,,,,,,,,,,,,,,,,,,,,,,,,,,,,,,,,,,,,,,,,,,,,,,,,,,,,,,,,,1.76,370.7113324000002,None,space,1,0.2669140999996671,372.58123590000014,None,372.58123590000014,None,372.58123590000014,None,,,,,,,,,,,P052,fencog,2,Pre,2022_Jun_11_1059,Go No-Go Task,2021.1.4,119.74642497048015,
,"Rule: When you see a yellow image, do not press 'spacebar'.",Images/Fearful/AM17AFS.jpg,Fear,Blue,Images/Blue.jpg,space,ParentConditions/YellowBlueBlue_v2.xlsx,BlueBlueYellow,Conditions/Version_2/YellowHappyStop.xlsx,no,PASS,0.2011457593950874,,,,,,,,,0,0,0,0,0,0,0,0,0,26,26,26,,,,,,,,,,,,,,,,,,,,,,,,,,,,,,,,,,,,,,,,,,,,,,,,,,,,,,,,,,,,,,,,,,,,,,,,,,,,,,,1.25,372.9818786999999,None,space,1,0.28502879999996367,374.33904500000017,None,374.33904500000017,None,374.33904500000017,None,,,,,,,,,,,P052,fencog,2,Pre,2022_Jun_11_1059,Go No-Go Task,2021.1.4,119.74642497048015,
,"Rule: When you see a yellow image, do not press 'spacebar'.",Images/Happy/AF27HAS.jpg,Happy,Yellow,Images/Yellow.jpg,None,ParentConditions/YellowBlueBlue_v2.xlsx,BlueBlueYellow,Conditions/Version_2/YellowHappyStop.xlsx,yes,PASS,0.03113428438097654,,,,,,,,,0,0,0,0,0,0,0,0,0,27,27,27,,,,,,,,,,,,,,,,,,,,,,,,,,,,,,,,,,,,,,,,,,,,,,,,,,,,,,,,,,,,,,,,,,,,,,,,,,,,,,,1.24,374.7390368000001,None,None,1,,376.08806700000014,None,376.08806700000014,None,376.08806700000014,None,,,,,,,,,,,P052,fencog,2,Pre,2022_Jun_11_1059,Go No-Go Task,2021.1.4,119.74642497048015,
,"Rule: When you see a yellow image, do not press 'spacebar'.",Images/Fearful/BF10_FO.jpg,Fear,Blue,Images/Blue.jpg,space,ParentConditions/YellowBlueBlue_v2.xlsx,BlueBlueYellow,Conditions/Version_2/YellowHappyStop.xlsx,no,PASS,0.8821344053441019,,,,,,,,,0,0,0,0,0,0,0,0,0,28,28,28,,,,,,,,,,,,,,,,,,,,,,,,,,,,,,,,,,,,,,,,,,,,,,,,,,,,,,,,,,,,,,,,,,,,,,,,,,,,,,,1.64,376.48819049999975,None,space,1,0.2740797000001294,378.2379722999999,None,378.2379722999999,None,378.2379722999999,None,,,,,,,,,,,P052,fencog,2,Pre,2022_Jun_11_1059,Go No-Go Task,2021.1.4,119.74642497048015,
,"Rule: When you see a yellow image, do not press 'spacebar'.",Images/Fearful/HF04_FO.jpg,Fear,Blue,Images/Blue.jpg,space,ParentConditions/YellowBlueBlue_v2.xlsx,BlueBlueYellow,Conditions/Version_2/YellowHappyStop.xlsx,no,PASS,0.10236928865186712,,,,,,,,,0,0,0,0,0,0,0,0,0,29,29,29,,,,,,,,,,,,,,,,,,,,,,,,,,,,,,,,,,,,,,,,,,,,,,,,,,,,,,,,,,,,,,,,,,,,,,,,,,,,,,,1.49,378.64089220000005,None,space,1,0.2668362999997953,380.2456225000001,None,380.2456225000001,None,380.2456225000001,None,,,,,,,,,,,P052,fencog,2,Pre,2022_Jun_11_1059,Go No-Go Task,2021.1.4,119.74642497048015,
,"Rule: When you see a yellow image, do not press 'spacebar'.",Images/Happy/AF26HAS.jpg,Happy,Yellow,Images/Yellow.jpg,None,ParentConditions/YellowBlueBlue_v2.xlsx,BlueBlueYellow,Conditions/Version_2/YellowHappyStop.xlsx,yes,PASS,0.3122778532266225,,,,,,,,,0,0,0,0,0,0,0,0,0,30,30,30,,,,,,,,,,,,,,,,,,,,,,,,,,,,,,,,,,,,,,,,,,,,,,,,,,,,,,,,,,,,,,,,,,,,,,,,,,,,,,,1.29,380.64066249999996,None,None,1,,382.0450735999998,None,382.0450735999998,None,382.0450735999998,None,,,,,,,,,,,P052,fencog,2,Pre,2022_Jun_11_1059,Go No-Go Task,2021.1.4,119.74642497048015,
,"Rule: When you see a yellow image, do not press 'spacebar'.",Images/Happy/HF09_HE.jpg,Happy,Yellow,Images/Yellow.jpg,None,ParentConditions/YellowBlueBlue_v2.xlsx,BlueBlueYellow,Conditions/Version_2/YellowHappyStop.xlsx,yes,PASS,0.8889954581367391,,,,,,,,,0,0,0,0,0,0,0,0,0,31,31,31,,,,,,,,,,,,,,,,,,,,,,,,,,,,,,,,,,,,,,,,,,,,,,,,,,,,,,,,,,,,,,,,,,,,,,,,,,,,,,,1.63,382.4439354000001,None,None,1,,384.17774899999995,None,384.17774899999995,None,384.17774899999995,None,,,,,,,,,,,P052,fencog,2,Pre,2022_Jun_11_1059,Go No-Go Task,2021.1.4,119.74642497048015,
,"Rule: When you see a yellow image, do not press 'spacebar'.",Images/Fearful/AM16AFS.jpg,Fear,Blue,Images/Blue.jpg,space,ParentConditions/YellowBlueBlue_v2.xlsx,BlueBlueYellow,Conditions/Version_2/YellowHappyStop.xlsx,no,PASS,0.3485636078399603,,,,,,,,,0,0,0,0,0,0,0,0,0,32,32,32,,,,,,,,,,,,,,,,,,,,,,,,,,,,,,,,,,,,,,,,,,,,,,,,,,,,,,,,,,,,,,,,,,,,,,,,,,,,,,,1.31,384.5780985000001,None,space,1,0.28616439999996146,385.99393680000003,None,385.99393680000003,None,385.99393680000003,None,,,,,,,,,,,P052,fencog,2,Pre,2022_Jun_11_1059,Go No-Go Task,2021.1.4,119.74642497048015,
,"Rule: When you see a yellow image, do not press 'spacebar'.",Images/Fearful/WF05_FO.jpg,Fear,Blue,Images/Blue.jpg,space,ParentConditions/YellowBlueBlue_v2.xlsx,BlueBlueYellow,Conditions/Version_2/YellowHappyStop.xlsx,no,PASS,0.571161037699378,,,,,,,,,0,0,0,0,0,0,0,0,0,33,33,33,,,,,,,,,,,,,,,,,,,,,,,,,,,,,,,,,,,,,,,,,,,,,,,,,,,,,,,,,,,,,,,,,,,,,,,,,,,,,,,1.59,386.3942474999999,None,space,1,0.2588887999995677,388.0933252,None,388.0933252,None,388.0933252,None,,,,,,,,,,,P052,fencog,2,Pre,2022_Jun_11_1059,Go No-Go Task,2021.1.4,119.74642497048015,
,"Rule: When you see a yellow image, do not press 'spacebar'.",Images/Fearful/AM03_FC.jpg,Fear,Blue,Images/Blue.jpg,space,ParentConditions/YellowBlueBlue_v2.xlsx,BlueBlueYellow,Conditions/Version_2/YellowHappyStop.xlsx,no,PASS,0.795310308756252,,,,,,,,,0,0,0,0,0,0,0,0,0,34,34,34,,,,,,,,,,,,,,,,,,,,,,,,,,,,,,,,,,,,,,,,,,,,,,,,,,,,,,,,,,,,,,,,,,,,,,,,,,,,,,,1.79,388.48969750000015,None,space,1,0.25538779999988037,390.392699,None,390.392699,None,390.392699,None,,,,,,,,,,,P052,fencog,2,Pre,2022_Jun_11_1059,Go No-Go Task,2021.1.4,119.74642497048015,
,"Rule: When you see a yellow image, do not press 'spacebar'.",Images/Fearful/AM01AFS.jpg,Fear,Blue,Images/Blue.jpg,space,ParentConditions/YellowBlueBlue_v2.xlsx,BlueBlueYellow,Conditions/Version_2/YellowHappyStop.xlsx,no,PASS,0.0960655228006344,,,,,,,,,0,0,0,0,0,0,0,0,0,35,35,35,,,,,,,,,,,,,,,,,,,,,,,,,,,,,,,,,,,,,,,,,,,,,,,,,,,,,,,,,,,,,,,,,,,,,,,,,,,,,,,1.51,390.79148859999987,None,space,1,0.25526040000022476,392.4086948999998,None,392.4086948999998,None,392.4086948999998,None,,,,,,,,,,,P052,fencog,2,Pre,2022_Jun_11_1059,Go No-Go Task,2021.1.4,119.74642497048015,
,"Rule: When you see a yellow image, do not press 'spacebar'.",Images/Fearful/HM04_FC.jpg,Fear,Blue,Images/Blue.jpg,space,ParentConditions/YellowBlueBlue_v2.xlsx,BlueBlueYellow,Conditions/Version_2/YellowHappyStop.xlsx,no,PASS,0.2671765254267089,,,,,,,,,0,0,0,0,0,0,0,0,0,36,36,36,,,,,,,,,,,,,,,,,,,,,,,,,,,,,,,,,,,,,,,,,,,,,,,,,,,,,,,,,,,,,,,,,,,,,,,,,,,,,,,1.85,392.8138761,None,space,1,0.25856290000001536,394.7663140999998,None,394.7663140999998,None,394.7663140999998,None,,,,,,,,,,,P052,fencog,2,Pre,2022_Jun_11_1059,Go No-Go Task,2021.1.4,119.74642497048015,
,"Rule: When you see a yellow image, do not press 'spacebar'.",Images/Fearful/BF18_FC.jpg,Fear,Blue,Images/Blue.jpg,space,ParentConditions/YellowBlueBlue_v2.xlsx,BlueBlueYellow,Conditions/Version_2/YellowHappyStop.xlsx,no,PASS,0.30493199358976686,,,,,,,,,0,0,0,0,0,0,0,0,0,37,37,37,,,,,,,,,,,,,,,,,,,,,,,,,,,,,,,,,,,,,,,,,,,,,,,,,,,,,,,,,,,,,,,,,,,,,,,,,,,,,,,1.9,395.16630510000005,None,space,1,0.2821235000001252,397.18228850000014,None,397.18228850000014,None,397.18228850000014,None,,,,,,,,,,,P052,fencog,2,Pre,2022_Jun_11_1059,Go No-Go Task,2021.1.4,119.74642497048015,
,"Rule: When you see a yellow image, do not press 'spacebar'.",Images/Fearful/AF07_FO.jpg,Fear,Blue,Images/Blue.jpg,space,ParentConditions/YellowBlueBlue_v2.xlsx,BlueBlueYellow,Conditions/Version_2/YellowHappyStop.xlsx,no,PASS,0.06571981152440787,,,,,,,,,0,0,0,0,0,0,0,0,0,38,38,38,,,,,,,,,,,,,,,,,,,,,,,,,,,,,,,,,,,,,,,,,,,,,,,,,,,,,,,,,,,,,,,,,,,,,,,,,,,,,,,1.83,397.5813856,None,space,1,0.2610211999999592,399.52319290000014,None,399.52319290000014,None,399.52319290000014,None,,,,,,,,,,,P052,fencog,2,Pre,2022_Jun_11_1059,Go No-Go Task,2021.1.4,119.74642497048015,
,"Rule: When you see a yellow image, do not press 'spacebar'.",Images/Fearful/AM24AFS.jpg,Fear,Blue,Images/Blue.jpg,space,ParentConditions/YellowBlueBlue_v2.xlsx,BlueBlueYellow,Conditions/Version_2/YellowHappyStop.xlsx,no,PASS,0.23738601052691555,,,,,,,,,0,0,0,0,0,0,0,0,0,39,39,39,,,,,,,,,,,,,,,,,,,,,,,,,,,,,,,,,,,,,,,,,,,,,,,,,,,,,,,,,,,,,,,,,,,,,,,,,,,,,,,1.53,399.9230585999999,None,space,1,0.23612219999995432,401.55600259999983,None,401.55600259999983,None,401.55600259999983,None,,,,,,,,,,,P052,fencog,2,Pre,2022_Jun_11_1059,Go No-Go Task,2021.1.4,119.74642497048015,
,"Rule: When you see a yellow image, do not press 'spacebar'.",Images/Fearful/AM03AFS.jpg,Fear,Blue,Images/Blue.jpg,space,ParentConditions/YellowBlueBlue_v2.xlsx,BlueBlueYellow,Conditions/Version_2/YellowHappyStop.xlsx,no,PASS,0.9496981002344779,,,,,,,,,0,0,0,0,0,0,0,0,0,40,40,40,,,,,,,,,,,,,,,,,,,,,,,,,,,,,,,,,,,,,,,,,,,,,,,,,,,,,,,,,,,,,,,,,,,,,,,,,,,,,,,1.27,401.95567870000013,None,space,1,0.25402530000019397,403.33027260000017,None,403.33027260000017,None,403.33027260000017,None,,,,,,,,,,,P052,fencog,2,Pre,2022_Jun_11_1059,Go No-Go Task,2021.1.4,119.74642497048015,
,"Rule: When you see a yellow image, do not press 'spacebar'.",Images/Fearful/BM08_FC.jpg,Fear,Blue,Images/Blue.jpg,space,ParentConditions/YellowBlueBlue_v2.xlsx,BlueBlueYellow,Conditions/Version_2/YellowHappyStop.xlsx,no,PASS,0.9731806168242675,,,,,,,,,0,0,0,0,0,0,0,0,0,41,41,41,,,,,,,,,,,,,,,,,,,,,,,,,,,,,,,,,,,,,,,,,,,,,,,,,,,,,,,,,,,,,,,,,,,,,,,,,,,,,,,1.3,403.73000920000004,None,space,1,0.23047790000009627,405.12969710000016,None,405.12969710000016,None,405.12969710000016,None,,,,,,,,,,,P052,fencog,2,Pre,2022_Jun_11_1059,Go No-Go Task,2021.1.4,119.74642497048015,
,"Rule: When you see a yellow image, do not press 'spacebar'.",Images/Fearful/AF32AFS.jpg,Fear,Blue,Images/Blue.jpg,space,ParentConditions/YellowBlueBlue_v2.xlsx,BlueBlueYellow,Conditions/Version_2/YellowHappyStop.xlsx,no,PASS,0.6516797726115628,,,,,,,,,0,0,0,0,0,0,0,0,0,42,42,42,,,,,,,,,,,,,,,,,,,,,,,,,,,,,,,,,,,,,,,,,,,,,,,,,,,,,,,,,,,,,,,,,,,,,,,,,,,,,,,1.71,405.5324900999999,None,space,1,0.26195940000025075,407.35422900000003,None,407.35422900000003,None,407.35422900000003,None,,,,,,,,,,,P052,fencog,2,Pre,2022_Jun_11_1059,Go No-Go Task,2021.1.4,119.74642497048015,
,"Rule: When you see a yellow image, do not press 'spacebar'.",Images/Fearful/AF26AFS.jpg,Fear,Blue,Images/Blue.jpg,space,ParentConditions/YellowBlueBlue_v2.xlsx,BlueBlueYellow,Conditions/Version_2/YellowHappyStop.xlsx,no,PASS,0.7646464028460872,,,,,,,,,0,0,0,0,0,0,0,0,0,43,43,43,,,,,,,,,,,,,,,,,,,,,,,,,,,,,,,,,,,,,,,,,,,,,,,,,,,,,,,,,,,,,,,,,,,,,,,,,,,,,,,1.34,407.74946910000017,None,space,1,0.30892610000000786,409.19541249999975,None,409.19541249999975,None,409.19541249999975,None,,,,,,,,,,,P052,fencog,2,Pre,2022_Jun_11_1059,Go No-Go Task,2021.1.4,119.74642497048015,
,"Rule: When you see a yellow image, do not press 'spacebar'.",Images/Fearful/BF09_FC.jpg,Fear,Blue,Images/Blue.jpg,space,ParentConditions/YellowBlueBlue_v2.xlsx,BlueBlueYellow,Conditions/Version_2/YellowHappyStop.xlsx,no,PASS,0.026085524820318784,,,,,,,,,0,0,0,0,0,0,0,0,0,44,44,44,,,,,,,,,,,,,,,,,,,,,,,,,,,,,,,,,,,,,,,,,,,,,,,,,,,,,,,,,,,,,,,,,,,,,,,,,,,,,,,1.58,409.59918749999997,None,space,1,0.24891959999968094,411.30311729999994,None,411.30311729999994,None,411.30311729999994,None,,,,,,,,,,,P052,fencog,2,Pre,2022_Jun_11_1059,Go No-Go Task,2021.1.4,119.74642497048015,
,"Rule: When you see a yellow image, do not press 'spacebar'.",Images/Fearful/BM01_FO.jpg,Fear,Blue,Images/Blue.jpg,space,ParentConditions/YellowBlueBlue_v2.xlsx,BlueBlueYellow,Conditions/Version_2/YellowHappyStop.xlsx,no,PASS,0.5546632244892579,,,,,,,,,0,0,0,0,0,0,0,0,0,45,45,45,,,,,,,,,,,,,,,,,,,,,,,,,,,,,,,,,,,,,,,,,,,,,,,,,,,,,,,,,,,,,,,,,,,,,,,,,,,,,,,1.33,411.69363829999975,None,space,1,0.28030009999974936,413.13592930000004,None,413.13592930000004,None,413.13592930000004,None,,,,,,,,,,,P052,fencog,2,Pre,2022_Jun_11_1059,Go No-Go Task,2021.1.4,119.74642497048015,
,"Rule: When you see a yellow image, do not press 'spacebar'.",Images/Happy/BF14_HO.jpg,Happy,Yellow,Images/Yellow.jpg,None,ParentConditions/YellowBlueBlue_v2.xlsx,BlueBlueYellow,Conditions/Version_2/YellowHappyStop.xlsx,yes,PASS,0.8128181362801364,,,,,,,,,0,0,0,0,0,0,0,0,0,46,46,46,,,,,,,,,,,,,,,,,,,,,,,,,,,,,,,,,,,,,,,,,,,,,,,,,,,,,,,,,,,,,,,,,,,,,,,,,,,,,,,1.45,413.5278462000001,None,None,1,,415.0936345,None,415.0936345,None,415.0936345,None,,,,,,,,,,,P052,fencog,2,Pre,2022_Jun_11_1059,Go No-Go Task,2021.1.4,119.74642497048015,
,"Rule: When you see a yellow image, do not press 'spacebar'.",Images/Fearful/WM11_FC.jpg,Fear,Blue,Images/Blue.jpg,space,ParentConditions/YellowBlueBlue_v2.xlsx,BlueBlueYellow,Conditions/Version_2/YellowHappyStop.xlsx,no,PASS,0.9251187011996334,,,,,,,,,0,0,0,0,0,0,0,0,0,47,47,47,,,,,,,,,,,,,,,,,,,,,,,,,,,,,,,,,,,,,,,,,,,,,,,,,,,,,,,,,,,,,,,,,,,,,,,,,,,,,,,1.68,415.4924906000001,None,space,1,0.30763279999973747,417.28473759999997,None,417.28473759999997,None,417.28473759999997,None,,,,,,,,,,,P052,fencog,2,Pre,2022_Jun_11_1059,Go No-Go Task,2021.1.4,119.74642497048015,
,"Rule: When you see a yellow image, do not press 'spacebar'.",Images/Fearful/AM02_FO.jpg,Fear,Blue,Images/Blue.jpg,space,ParentConditions/YellowBlueBlue_v2.xlsx,BlueBlueYellow,Conditions/Version_2/YellowHappyStop.xlsx,no,PASS,0.0455811702140666,,,,,,,,,0,0,0,0,0,0,0,0,0,48,48,48,,,,,,,,,,,,,,,,,,,,,,,,,,,,,,,,,,,,,,,,,,,,,,,,,,,,,,,,,,,,,,,,,,,,,,,,,,,,,,,1.72,417.67974219999996,None,space,1,0.25934349999988626,419.50895619999983,None,419.50895619999983,None,419.50895619999983,None,,,,,,,,,,,P052,fencog,2,Pre,2022_Jun_11_1059,Go No-Go Task,2021.1.4,119.74642497048015,
,"Rule: When you see a yellow image, do not press 'spacebar'.",Images/Happy/HM09_HO.jpg,Happy,Yellow,Images/Yellow.jpg,None,ParentConditions/YellowBlueBlue_v2.xlsx,BlueBlueYellow,Conditions/Version_2/YellowHappyStop.xlsx,yes,PASS,0.3219974030212036,,,,,,,,,0,0,0,0,0,0,0,0,0,49,49,49,,,,,,,,,,,,,,,,,,,,,,,,,,,,,,,,,,,,,,,,,,,,,,,,,,,,,,,,,,,,,,,,,,,,,,,,,,,,,,,1.81,419.9078749999999,None,None,1,,421.84161749999976,None,421.84161749999976,None,421.84161749999976,None,,,,,,,,,,,P052,fencog,2,Pre,2022_Jun_11_1059,Go No-Go Task,2021.1.4,119.74642497048015,
,"Rule: When you see a yellow image, do not press 'spacebar'.",Images/Happy/HF10_HE.jpg,Happy,Yellow,Images/Yellow.jpg,None,ParentConditions/YellowBlueBlue_v2.xlsx,BlueBlueYellow,Conditions/Version_2/YellowHappyStop.xlsx,yes,PASS,0.5613535526914523,,,,,,,,,0,0,0,0,0,0,0,0,0,50,50,50,,,,,,,,,,,,,,,,,,,,,,,,,,,,,,,,,,,,,,,,,,,,,,,,,,,,,,,,,,,,,,,,,,,,,,,,,,,,,,,1.8,422.2324414999998,None,None,1,,424.13269919999993,None,424.13269919999993,None,424.13269919999993,None,,,,,,,,,,,P052,fencog,2,Pre,2022_Jun_11_1059,Go No-Go Task,2021.1.4,119.74642497048015,
,"Rule: When you see a yellow image, do not press 'spacebar'.",Images/Fearful/AF09AFS.jpg,Fear,Blue,Images/Blue.jpg,space,ParentConditions/YellowBlueBlue_v2.xlsx,BlueBlueYellow,Conditions/Version_2/YellowHappyStop.xlsx,no,PASS,0.5511492847876154,,,,,,,,,0,0,0,0,0,0,0,0,0,51,51,51,,,,,,,,,,,,,,,,,,,,,,,,,,,,,,,,,,,,,,,,,,,,,,,,,,,,,,,,,,,,,,,,,,,,,,,,,,,,,,,1.44,424.53722199999993,None,space,1,0.3024257000001853,426.0821707,None,426.0821707,None,426.0821707,None,,,,,,,,,,,P052,fencog,2,Pre,2022_Jun_11_1059,Go No-Go Task,2021.1.4,119.74642497048015,
,"Rule: When you see a yellow image, do not press 'spacebar'.",Images/Fearful/AM23AFS.jpg,Fear,Blue,Images/Blue.jpg,space,ParentConditions/YellowBlueBlue_v2.xlsx,BlueBlueYellow,Conditions/Version_2/YellowHappyStop.xlsx,no,PASS,0.2159972500516506,,,,,,,,,0,0,0,0,0,0,0,0,0,52,52,52,,,,,,,,,,,,,,,,,,,,,,,,,,,,,,,,,,,,,,,,,,,,,,,,,,,,,,,,,,,,,,,,,,,,,,,,,,,,,,,1.5,426.4870216999998,None,space,1,0.2546396999996432,428.08978720000005,None,428.08978720000005,None,428.08978720000005,None,,,,,,,,,,,P052,fencog,2,Pre,2022_Jun_11_1059,Go No-Go Task,2021.1.4,119.74642497048015,
,"Rule: When you see a yellow image, do not press 'spacebar'.",Images/Fearful/AM05AFS.jpg,Fear,Blue,Images/Blue.jpg,space,ParentConditions/YellowBlueBlue_v2.xlsx,BlueBlueYellow,Conditions/Version_2/YellowHappyStop.xlsx,no,PASS,0.18827335330329198,,,,,,,,,0,0,0,0,0,0,0,0,0,53,53,53,,,,,,,,,,,,,,,,,,,,,,,,,,,,,,,,,,,,,,,,,,,,,,,,,,,,,,,,,,,,,,,,,,,,,,,,,,,,,,,1.38,428.50114399999984,None,space,1,0.28306449999990946,429.9892565,None,429.9892565,None,429.9892565,None,,,,,,,,,,,P052,fencog,2,Pre,2022_Jun_11_1059,Go No-Go Task,2021.1.4,119.74642497048015,
,"Rule: When you see a yellow image, do not press 'spacebar'.",Images/Happy/AF28HAS.jpg,Happy,Yellow,Images/Yellow.jpg,None,ParentConditions/YellowBlueBlue_v2.xlsx,BlueBlueYellow,Conditions/Version_2/YellowHappyStop.xlsx,yes,PASS,0.7444008667159328,,,,,,,,,0,0,0,0,0,0,0,0,0,54,54,54,,,,,,,,,,,,,,,,,,,,,,,,,,,,,,,,,,,,,,,,,,,,,,,,,,,,,,,,,,,,,,,,,,,,,,,,,,,,,,,1.96,430.38277960000005,None,None,1,,432.4550377999999,None,432.4550377999999,None,432.4550377999999,None,,,,,,,,,,,P052,fencog,2,Pre,2022_Jun_11_1059,Go No-Go Task,2021.1.4,119.74642497048015,
,"Rule: When you see a yellow image, do not press 'spacebar'.",Images/Fearful/BF14_FO.jpg,Fear,Blue,Images/Blue.jpg,space,ParentConditions/YellowBlueBlue_v2.xlsx,BlueBlueYellow,Conditions/Version_2/YellowHappyStop.xlsx,no,PASS,0.036114312510467594,,,,,,,,,0,0,0,0,0,0,0,0,0,55,55,55,,,,,,,,,,,,,,,,,,,,,,,,,,,,,,,,,,,,,,,,,,,,,,,,,,,,,,,,,,,,,,,,,,,,,,,,,,,,,,,1.57,432.8538109000001,None,space,1,0.29425439999977243,434.5378617000001,None,434.5378617000001,None,434.5378617000001,None,,,,,,,,,,,P052,fencog,2,Pre,2022_Jun_11_1059,Go No-Go Task,2021.1.4,119.74642497048015,
,"Rule: When you see a yellow image, do not press 'spacebar'.",Images/Happy/AM30HAS.jpg,Happy,Yellow,Images/Yellow.jpg,None,ParentConditions/YellowBlueBlue_v2.xlsx,BlueBlueYellow,Conditions/Version_2/YellowHappyStop.xlsx,yes,PASS,0.9276323490247724,,,,,,,,,0,0,0,0,0,0,0,0,0,56,56,56,,,,,,,,,,,,,,,,,,,,,,,,,,,,,,,,,,,,,,,,,,,,,,,,,,,,,,,,,,,,,,,,,,,,,,,,,,,,,,,1.7,434.9370804,None,None,1,,436.73697119999997,None,436.73697119999997,None,436.73697119999997,None,,,,,,,,,,,P052,fencog,2,Pre,2022_Jun_11_1059,Go No-Go Task,2021.1.4,119.74642497048015,
,"Rule: When you see a yellow image, do not press 'spacebar'.",Images/Fearful/AF27AFS.jpg,Fear,Blue,Images/Blue.jpg,space,ParentConditions/YellowBlueBlue_v2.xlsx,BlueBlueYellow,Conditions/Version_2/YellowHappyStop.xlsx,no,PASS,0.9674336643747157,,,,,,,,,0,0,0,0,0,0,0,0,0,57,57,57,,,,,,,,,,,,,,,,,,,,,,,,,,,,,,,,,,,,,,,,,,,,,,,,,,,,,,,,,,,,,,,,,,,,,,,,,,,,,,,1.23,437.1405755999999,None,space,1,0.23356190000004062,438.48675449999973,None,438.48675449999973,None,438.48675449999973,None,,,,,,,,,,,P052,fencog,2,Pre,2022_Jun_11_1059,Go No-Go Task,2021.1.4,119.74642497048015,
,"Rule: When you see a yellow image, do not press 'spacebar'.",Images/Fearful/AM32AFS.jpg,Fear,Blue,Images/Blue.jpg,space,ParentConditions/YellowBlueBlue_v2.xlsx,BlueBlueYellow,Conditions/Version_2/YellowHappyStop.xlsx,no,PASS,0.5429320828851499,,,,,,,,,0,0,0,0,0,0,0,0,0,58,58,58,,,,,,,,,,,,,,,,,,,,,,,,,,,,,,,,,,,,,,,,,,,,,,,,,,,,,,,,,,,,,,,,,,,,,,,,,,,,,,,1.36,438.8789587000001,None,space,1,0.2634868000000097,440.3528145,None,440.3528145,None,440.3528145,None,,,,,,,,,,,P052,fencog,2,Pre,2022_Jun_11_1059,Go No-Go Task,2021.1.4,119.74642497048015,
,"Rule: When you see a yellow image, do not press 'spacebar'.",Images/Fearful/AM09_FO.jpg,Fear,Blue,Images/Blue.jpg,space,ParentConditions/YellowBlueBlue_v2.xlsx,BlueBlueYellow,Conditions/Version_2/YellowHappyStop.xlsx,no,PASS,0.5248989229975377,,,,,,,,,0,0,0,0,0,0,0,0,0,59,59,59,,,,,,,,,,,,,,,,,,,,,,,,,,,,,,,,,,,,,,,,,,,,,,,,,,,,,,,,,,,,,,,,,,,,,,,,,,,,,,,2,440.7524457999998,None,space,1,0.29124129999991055,442.8688253,None,442.8688253,None,442.8688253,None,,,,,,,,,,,P052,fencog,2,Pre,2022_Jun_11_1059,Go No-Go Task,2021.1.4,119.74642497048015,
,"Rule: When you see a yellow image, do not press 'spacebar'.",Images/Fearful/AF01_FO.jpg,Fear,Blue,Images/Blue.jpg,space,ParentConditions/YellowBlueBlue_v2.xlsx,BlueBlueYellow,Conditions/Version_2/YellowHappyStop.xlsx,no,PASS,0.007145119379767917,,,,,,,,,0,0,0,0,0,0,0,0,0,60,60,60,,,,,,,,,,,,,,,,,,,,,,,,,,,,,,,,,,,,,,,,,,,,,,,,,,,,,,,,,,,,,,,,,,,,,,,,,,,,,,,1.67,443.2677730999999,None,space,1,0.23740040000029694,445.03482600000007,None,445.03482600000007,None,445.03482600000007,None,,,,,,,,,,,P052,fencog,2,Pre,2022_Jun_11_1059,Go No-Go Task,2021.1.4,119.74642497048015,
,"Rule: When you see a yellow image, do not press 'spacebar'.",Images/Happy/AM10_HO.jpg,Happy,Yellow,Images/Yellow.jpg,None,ParentConditions/YellowBlueBlue_v2.xlsx,BlueBlueYellow,Conditions/Version_2/YellowHappyStop.xlsx,yes,PASS,0.8341186478720962,,,,,,,,,0,0,0,0,0,0,0,0,0,61,61,61,,,,,,,,,,,,,,,,,,,,,,,,,,,,,,,,,,,,,,,,,,,,,,,,,,,,,,,,,,,,,,,,,,,,,,,,,,,,,,,1.54,445.4457708,None,None,1,,447.10082999999986,None,447.10082999999986,None,447.10082999999986,None,,,,,,,,,,,P052,fencog,2,Pre,2022_Jun_11_1059,Go No-Go Task,2021.1.4,119.74642497048015,
,"Rule: When you see a yellow image, do not press 'spacebar'.",Images/Happy/AM22HAS.jpg,Happy,Yellow,Images/Yellow.jpg,None,ParentConditions/YellowBlueBlue_v2.xlsx,BlueBlueYellow,Conditions/Version_2/YellowHappyStop.xlsx,yes,PASS,0.6172419840647391,,,,,,,,,0,0,0,0,0,0,0,0,0,62,62,62,,,,,,,,,,,,,,,,,,,,,,,,,,,,,,,,,,,,,,,,,,,,,,,,,,,,,,,,,,,,,,,,,,,,,,,,,,,,,,,1.65,447.49998289999985,None,None,1,,449.2501865999998,None,449.2501865999998,None,449.2501865999998,None,,,,,,,,,,,P052,fencog,2,Pre,2022_Jun_11_1059,Go No-Go Task,2021.1.4,119.74642497048015,
,"Rule: When you see a yellow image, do not press 'spacebar'.",Images/Fearful/AM22AFS.jpg,Fear,Blue,Images/Blue.jpg,space,ParentConditions/YellowBlueBlue_v2.xlsx,BlueBlueYellow,Conditions/Version_2/YellowHappyStop.xlsx,no,PASS,0.13735844586330215,,,,,,,,,0,0,0,0,0,0,0,0,0,63,63,63,,,,,,,,,,,,,,,,,,,,,,,,,,,,,,,,,,,,,,,,,,,,,,,,,,,,,,,,,,,,,,,,,,,,,,,,,,,,,,,1.84,449.65489339999976,None,space,1,0.2967385000001741,451.59911729999976,None,451.59911729999976,None,451.59911729999976,None,,,,,,,,,,,P052,fencog,2,Pre,2022_Jun_11_1059,Go No-Go Task,2021.1.4,119.74642497048015,
,"Rule: When you see a yellow image, do not press 'spacebar'.",Images/Happy/BM08_HO.jpg,Happy,Yellow,Images/Yellow.jpg,None,ParentConditions/YellowBlueBlue_v2.xlsx,BlueBlueYellow,Conditions/Version_2/YellowHappyStop.xlsx,yes,PASS,0.19822628709829182,,,,,,,,,0,0,0,0,0,0,0,0,0,64,64,64,,,,,,,,,,,,,,,,,,,,,,,,,,,,,,,,,,,,,,,,,,,,,,,,,,,,,,,,,,,,,,,,,,,,,,,,,,,,,,,1.56,451.99820069999987,None,None,1,,453.65700149999975,None,453.65700149999975,None,453.65700149999975,None,,,,,,,,,,,P052,fencog,2,Pre,2022_Jun_11_1059,Go No-Go Task,2021.1.4,119.74642497048015,
,"Rule: When you see a yellow image, do not press 'spacebar'.",Images/Fearful/AM19AFS.jpg,Fear,Blue,Images/Blue.jpg,space,ParentConditions/YellowBlueBlue_v2.xlsx,BlueBlueYellow,Conditions/Version_2/YellowHappyStop.xlsx,no,PASS,0.9846537447676192,,,,,,,,,0,0,0,0,0,0,0,0,0,65,65,65,,,,,,,,,,,,,,,,,,,,,,,,,,,,,,,,,,,,,,,,,,,,,,,,,,,,,,,,,,,,,,,,,,,,,,,,,,,,,,,1.41,454.05607069999996,None,space,1,0.2910789000002296,455.5729760999998,None,455.5729760999998,None,455.5729760999998,None,,,,,,,,,,,P052,fencog,2,Pre,2022_Jun_11_1059,Go No-Go Task,2021.1.4,119.74642497048015,
,"Rule: When you see a yellow image, do not press 'spacebar'.",Images/Fearful/AF23AFS.jpg,Fear,Blue,Images/Blue.jpg,space,ParentConditions/YellowBlueBlue_v2.xlsx,BlueBlueYellow,Conditions/Version_2/YellowHappyStop.xlsx,no,PASS,0.06538281980323435,,,,,,,,,0,0,0,0,0,0,0,0,0,66,66,66,,,,,,,,,,,,,,,,,,,,,,,,,,,,,,,,,,,,,,,,,,,,,,,,,,,,,,,,,,,,,,,,,,,,,,,,,,,,,,,1.66,455.97271899999987,None,space,1,0.3169209000002411,457.7390135999999,None,457.7390135999999,None,457.7390135999999,None,,,,,,,,,,,P052,fencog,2,Pre,2022_Jun_11_1059,Go No-Go Task,2021.1.4,119.74642497048015,
,"Rule: When you see a yellow image, do not press 'spacebar'.",Images/Fearful/AM13AFS.jpg,Fear,Blue,Images/Blue.jpg,space,ParentConditions/YellowBlueBlue_v2.xlsx,BlueBlueYellow,Conditions/Version_2/YellowHappyStop.xlsx,no,PASS,0.501942139065686,,,,,,,,,0,0,0,0,0,0,0,0,0,67,67,67,,,,,,,,,,,,,,,,,,,,,,,,,,,,,,,,,,,,,,,,,,,,,,,,,,,,,,,,,,,,,,,,,,,,,,,,,,,,,,,1.88,458.1388625999998,None,space,1,0.2942166000002544,460.12159729999985,None,460.12159729999985,None,460.12159729999985,None,,,,,,,,,,,P052,fencog,2,Pre,2022_Jun_11_1059,Go No-Go Task,2021.1.4,119.74642497048015,
,"Rule: When you see a yellow image, do not press 'spacebar'.",Images/Fearful/HF09_FC.jpg,Fear,Blue,Images/Blue.jpg,space,ParentConditions/YellowBlueBlue_v2.xlsx,BlueBlueYellow,Conditions/Version_2/YellowHappyStop.xlsx,no,PASS,0.5863101312226996,,,,,,,,,0,0,0,0,0,0,0,0,0,68,68,68,,,,,,,,,,,,,,,,,,,,,,,,,,,,,,,,,,,,,,,,,,,,,,,,,,,,,,,,,,,,,,,,,,,,,,,,,,,,,,,1.78,460.52071739999974,None,space,1,0.2916700000000674,462.4042519999998,None,462.4042519999998,None,462.4042519999998,None,,,,,,,,,,,P052,fencog,2,Pre,2022_Jun_11_1059,Go No-Go Task,2021.1.4,119.74642497048015,
,"Rule: When you see a yellow image, do not press 'spacebar'.",Images/Fearful/AM04AFS.jpg,Fear,Blue,Images/Blue.jpg,space,ParentConditions/YellowBlueBlue_v2.xlsx,BlueBlueYellow,Conditions/Version_2/YellowHappyStop.xlsx,no,PASS,0.9464588162199873,,,,,,,,,0,0,0,0,0,0,0,0,0,69,69,69,,,,,,,,,,,,,,,,,,,,,,,,,,,,,,,,,,,,,,,,,,,,,,,,,,,,,,,,,,,,,,,,,,,,,,,,,,,,,,,1.74,462.8033025,None,space,1,0.27444569999988744,464.6454650999999,None,464.6454650999999,None,464.6454650999999,None,,,,,,,,,,,P052,fencog,2,Pre,2022_Jun_11_1059,Go No-Go Task,2021.1.4,119.74642497048015,
,"Rule: When you see a yellow image, do not press 'spacebar'.",Images/Fearful/AF02AFS.jpg,Fear,Blue,Images/Blue.jpg,space,ParentConditions/YellowBlueBlue_v2.xlsx,BlueBlueYellow,Conditions/Version_2/YellowHappyStop.xlsx,no,PASS,0.745835010449707,,,,,,,,,0,0,0,0,0,0,0,0,0,70,70,70,,,,,,,,,,,,,,,,,,,,,,,,,,,,,,,,,,,,,,,,,,,,,,,,,,,,,,,,,,,,,,,,,,,,,,,,,,,,,,,1.89,465.0443012999999,None,space,1,0.30759649999981775,467.03625550000015,None,467.03625550000015,None,467.03625550000015,None,,,,,,,,,,,P052,fencog,2,Pre,2022_Jun_11_1059,Go No-Go Task,2021.1.4,119.74642497048015,
,"Rule: When you see a yellow image, do not press 'spacebar'.",Images/Fearful/AM09AFS.jpg,Fear,Blue,Images/Blue.jpg,space,ParentConditions/YellowBlueBlue_v2.xlsx,BlueBlueYellow,Conditions/Version_2/YellowHappyStop.xlsx,no,PASS,0.8501894993195995,,,,,,,,,0,0,0,0,0,0,0,0,0,71,71,71,,,,,,,,,,,,,,,,,,,,,,,,,,,,,,,,,,,,,,,,,,,,,,,,,,,,,,,,,,,,,,,,,,,,,,,,,,,,,,,1.47,467.43527989999984,None,space,1,0.24508670000022903,469.0107954,None,469.0107954,None,469.0107954,None,,,,,,,,,,,P052,fencog,2,Pre,2022_Jun_11_1059,Go No-Go Task,2021.1.4,119.74642497048015,
,"Rule: When you see a yellow image, do not press 'spacebar'.",Images/Fearful/BF05_FO.jpg,Fear,Blue,Images/Blue.jpg,space,ParentConditions/YellowBlueBlue_v2.xlsx,BlueBlueYellow,Conditions/Version_2/YellowHappyStop.xlsx,no,PASS,0.41552487186891285,,,,,,,,,0,0,0,0,0,0,0,0,0,72,72,72,,,,,,,,,,,,,,,,,,,,,,,,,,,,,,,,,,,,,,,,,,,,,,,,,,,,,,,,,,,,,,,,,,,,,,,,,,,,,,,1.52,469.4097913999999,None,space,1,0.2689322000001084,471.0350094999999,None,471.0350094999999,None,471.0350094999999,None,,,,,,,,,,,P052,fencog,2,Pre,2022_Jun_11_1059,Go No-Go Task,2021.1.4,119.74642497048015,
,"Rule: When you see a yellow image, do not press 'spacebar'.",Images/Fearful/AF22AFS.jpg,Fear,Blue,Images/Blue.jpg,space,ParentConditions/YellowBlueBlue_v2.xlsx,BlueBlueYellow,Conditions/Version_2/YellowHappyStop.xlsx,no,PASS,0.6701019786706065,,,,,,,,,0,0,0,0,0,0,0,0,0,73,73,73,,,,,,,,,,,,,,,,,,,,,,,,,,,,,,,,,,,,,,,,,,,,,,,,,,,,,,,,,,,,,,,,,,,,,,,,,,,,,,,1.99,471.434076,None,space,1,0.27349499999991167,473.53441680000014,None,473.53441680000014,None,473.53441680000014,None,,,,,,,,,,,P052,fencog,2,Pre,2022_Jun_11_1059,Go No-Go Task,2021.1.4,119.74642497048015,
,"Rule: When you see a yellow image, do not press 'spacebar'.",Images/Happy/BF18_HO.jpg,Happy,Yellow,Images/Yellow.jpg,None,ParentConditions/YellowBlueBlue_v2.xlsx,BlueBlueYellow,Conditions/Version_2/YellowHappyStop.xlsx,yes,PASS,0.41437941694275227,,,,,,,,,0,0,0,0,0,0,0,0,0,74,74,74,,,,,,,,,,,,,,,,,,,,,,,,,,,,,,,,,,,,,,,,,,,,,,,,,,,,,,,,,,,,,,,,,,,,,,,,,,,,,,,1.69,473.93338140000014,None,space,0,0.2425720999999612,475.7252967999998,None,475.7252967999998,None,475.7252967999998,None,,,,,,,,,,,P052,fencog,2,Pre,2022_Jun_11_1059,Go No-Go Task,2021.1.4,119.74642497048015,
,"Rule: When you see a yellow image, do not press 'spacebar'.",Images/Fearful/WM12_FO.jpg,Fear,Blue,Images/Blue.jpg,space,ParentConditions/YellowBlueBlue_v2.xlsx,BlueBlueYellow,Conditions/Version_2/YellowHappyStop.xlsx,no,PASS,0.577397464904033,,,,,,,,,0,0,0,0,0,0,0,0,0,75,75,75,,,,,,,,,,,,,,,,,,,,,,,,,,,,,,,,,,,,,,,,,,,,,,,,,,,,,,,,,,,,,,,,,,,,,,,,,,,,,,,1.43,476.12443619999976,None,space,1,0.26976369999965755,477.65813720000006,None,477.65813720000006,None,477.65813720000006,None,,,,,,,,,,,P052,fencog,2,Pre,2022_Jun_11_1059,Go No-Go Task,2021.1.4,119.74642497048015,
,"Rule: When you see a yellow image, do not press 'spacebar'.",Images/Fearful/BF07_FO.jpg,Fear,Blue,Images/Blue.jpg,space,ParentConditions/YellowBlueBlue_v2.xlsx,BlueBlueYellow,Conditions/Version_2/YellowHappyStop.xlsx,no,PASS,0.3175910009200418,,,,,,,,,0,0,0,0,0,0,0,0,0,76,76,76,,,,,,,,,,,,,,,,,,,,,,,,,,,,,,,,,,,,,,,,,,,,,,,,,,,,,,,,,,,,,,,,,,,,,,,,,,,,,,,1.2,478.05717079999977,None,space,1,0.26644179999993867,479.35758970000006,None,479.35758970000006,None,479.35758970000006,None,,,,,,,,,,,P052,fencog,2,Pre,2022_Jun_11_1059,Go No-Go Task,2021.1.4,119.74642497048015,
,"Rule: When you see a yellow image, do not press 'spacebar'.",Images/Fearful/HF10_FO.jpg,Fear,Blue,Images/Blue.jpg,space,ParentConditions/YellowBlueBlue_v2.xlsx,BlueBlueYellow,Conditions/Version_2/YellowHappyStop.xlsx,no,PASS,0.5511356040110476,,,,,,,,,0,0,0,0,0,0,0,0,0,77,77,77,,,,,,,,,,,,,,,,,,,,,,,,,,,,,,,,,,,,,,,,,,,,,,,,,,,,,,,,,,,,,,,,,,,,,,,,,,,,,,,1.91,479.75685220000014,None,space,1,0.31403759999966496,481.78193150000016,None,481.78193150000016,None,481.78193150000016,None,,,,,,,,,,,P052,fencog,2,Pre,2022_Jun_11_1059,Go No-Go Task,2021.1.4,119.74642497048015,
,"Rule: When you see a yellow image, do not press 'spacebar'.",Images/Fearful/AM10AFS.jpg,Fear,Blue,Images/Blue.jpg,space,ParentConditions/YellowBlueBlue_v2.xlsx,BlueBlueYellow,Conditions/Version_2/YellowHappyStop.xlsx,no,PASS,0.516543326357497,,,,,,,,,0,0,0,0,0,0,0,0,0,78,78,78,,,,,,,,,,,,,,,,,,,,,,,,,,,,,,,,,,,,,,,,,,,,,,,,,,,,,,,,,,,,,,,,,,,,,,,,,,,,,,,1.86,482.1809401999999,None,space,1,0.28400950000013836,484.14784640000016,None,484.14784640000016,None,484.14784640000016,None,,,,,,,,,,,P052,fencog,2,Pre,2022_Jun_11_1059,Go No-Go Task,2021.1.4,119.74642497048015,
,"Rule: When you see a yellow image, do not press 'spacebar'.",Images/Happy/AM23HAS.jpg,Happy,Yellow,Images/Yellow.jpg,None,ParentConditions/YellowBlueBlue_v2.xlsx,BlueBlueYellow,Conditions/Version_2/YellowHappyStop.xlsx,yes,PASS,0.4223687412850129,,,,,,,,,0,0,0,0,0,0,0,0,0,79,79,79,,,,,,,,,,,,,,,,,,,,,,,,,,,,,,,,,,,,,,,,,,,,,,,,,,,,,,,,,,,,,,,,,,,,,,,,,,,,,,,1.22,484.54692680000016,None,None,1,,485.87231740000016,None,485.87231740000016,None,485.87231740000016,None,,,,,,,,,,,P052,fencog,2,Pre,2022_Jun_11_1059,Go No-Go Task,2021.1.4,119.74642497048015,
,"Rule: When you see blue image, do not press 'spacebar'.",Images/Fearful/HM06_FC.jpg,Fear,Blue,Images/Blue.jpg,None,ParentConditions/YellowBlueBlue_v2.xlsx,BlueBlueYellow,Conditions/Version_2/BlueFearStop.xlsx,yes,PASS,0.29049104493206235,,,,,,,,,0,0,0,0,0,1,1,1,0,0,0,0,,,,,,,,,,,,,,,,,,,,,,,,,,,,,,,,,,,,,,,,,,,,,,,,,,,,,,,,,,,,,,,,,498.0614892999997,None,501.0505739,None,space,0.733277199999975,501.0505739,None,498.0614892999997,None,498.0614892999997,None,498.0614892999997,None,1.81,501.83336899999995,None,None,1,,503.75036520000003,None,503.75036520000003,None,503.75036520000003,None,486.28014600000006,None,space,11.268504599999687,486.77137330000005,None,486.28014600000006,None,486.28014600000006,None,P052,fencog,2,Pre,2022_Jun_11_1059,Go No-Go Task,2021.1.4,119.74642497048015,
,"Rule: When you see blue image, do not press 'spacebar'.",Images/Happy/AF07HAS.jpg,Happy,Yellow,Images/Yellow.jpg,space,ParentConditions/YellowBlueBlue_v2.xlsx,BlueBlueYellow,Conditions/Version_2/BlueFearStop.xlsx,no,PASS,0.3060165792014795,,,,,,,,,0,0,0,0,0,1,1,1,0,1,1,1,,,,,,,,,,,,,,,,,,,,,,,,,,,,,,,,,,,,,,,,,,,,,,,,,,,,,,,,,,,,,,,,,,,,,,,,,,,,,,,1.94,504.14947470000016,None,space,1,0.27188840000007986,506.20017329999973,None,506.20017329999973,None,506.20017329999973,None,,,,,,,,,,,P052,fencog,2,Pre,2022_Jun_11_1059,Go No-Go Task,2021.1.4,119.74642497048015,
,"Rule: When you see blue image, do not press 'spacebar'.",Images/Happy/AF28HAS.jpg,Happy,Yellow,Images/Yellow.jpg,space,ParentConditions/YellowBlueBlue_v2.xlsx,BlueBlueYellow,Conditions/Version_2/BlueFearStop.xlsx,no,PASS,0.23458600871698787,,,,,,,,,0,0,0,0,0,1,1,1,0,2,2,2,,,,,,,,,,,,,,,,,,,,,,,,,,,,,,,,,,,,,,,,,,,,,,,,,,,,,,,,,,,,,,,,,,,,,,,,,,,,,,,1.99,506.5989804999999,None,space,1,0.29340300000012576,508.6827235999999,None,508.6827235999999,None,508.6827235999999,None,,,,,,,,,,,P052,fencog,2,Pre,2022_Jun_11_1059,Go No-Go Task,2021.1.4,119.74642497048015,
,"Rule: When you see blue image, do not press 'spacebar'.",Images/Happy/AF22HAS.jpg,Happy,Yellow,Images/Yellow.jpg,space,ParentConditions/YellowBlueBlue_v2.xlsx,BlueBlueYellow,Conditions/Version_2/BlueFearStop.xlsx,no,PASS,0.11899132917260535,,,,,,,,,0,0,0,0,0,1,1,1,0,3,3,3,,,,,,,,,,,,,,,,,,,,,,,,,,,,,,,,,,,,,,,,,,,,,,,,,,,,,,,,,,,,,,,,,,,,,,,,,,,,,,,1.84,509.08452420000003,None,space,1,0.34386410000024625,511.0403465999998,None,511.0403465999998,None,511.0403465999998,None,,,,,,,,,,,P052,fencog,2,Pre,2022_Jun_11_1059,Go No-Go Task,2021.1.4,119.74642497048015,
,"Rule: When you see blue image, do not press 'spacebar'.",Images/Fearful/AF27AFS.jpg,Fear,Blue,Images/Blue.jpg,None,ParentConditions/YellowBlueBlue_v2.xlsx,BlueBlueYellow,Conditions/Version_2/BlueFearStop.xlsx,yes,PASS,0.3988252776358663,,,,,,,,,0,0,0,0,0,1,1,1,0,4,4,4,,,,,,,,,,,,,,,,,,,,,,,,,,,,,,,,,,,,,,,,,,,,,,,,,,,,,,,,,,,,,,,,,,,,,,,,,,,,,,,1.27,511.4361015999998,None,None,1,,512.8147567999999,None,512.8147567999999,None,512.8147567999999,None,,,,,,,,,,,P052,fencog,2,Pre,2022_Jun_11_1059,Go No-Go Task,2021.1.4,119.74642497048015,
,"Rule: When you see blue image, do not press 'spacebar'.",Images/Happy/AM24HAS.jpg,Happy,Yellow,Images/Yellow.jpg,space,ParentConditions/YellowBlueBlue_v2.xlsx,BlueBlueYellow,Conditions/Version_2/BlueFearStop.xlsx,no,PASS,0.6540701766357542,,,,,,,,,0,0,0,0,0,1,1,1,0,5,5,5,,,,,,,,,,,,,,,,,,,,,,,,,,,,,,,,,,,,,,,,,,,,,,,,,,,,,,,,,,,,,,,,,,,,,,,,,,,,,,,1.93,513.2157802000002,None,space,1,0.2883390000001782,515.2557649999999,None,515.2557649999999,None,515.2557649999999,None,,,,,,,,,,,P052,fencog,2,Pre,2022_Jun_11_1059,Go No-Go Task,2021.1.4,119.74642497048015,
,"Rule: When you see blue image, do not press 'spacebar'.",Images/Fearful/AF26AFS.jpg,Fear,Blue,Images/Blue.jpg,None,ParentConditions/YellowBlueBlue_v2.xlsx,BlueBlueYellow,Conditions/Version_2/BlueFearStop.xlsx,yes,PASS,0.672416725983861,,,,,,,,,0,0,0,0,0,1,1,1,0,6,6,6,,,,,,,,,,,,,,,,,,,,,,,,,,,,,,,,,,,,,,,,,,,,,,,,,,,,,,,,,,,,,,,,,,,,,,,,,,,,,,,1.31,515.6546026000001,None,None,1,,517.0801530999997,None,517.0801530999997,None,517.0801530999997,None,,,,,,,,,,,P052,fencog,2,Pre,2022_Jun_11_1059,Go No-Go Task,2021.1.4,119.74642497048015,
,"Rule: When you see blue image, do not press 'spacebar'.",Images/Happy/WM11_HC.jpg,Happy,Yellow,Images/Yellow.jpg,space,ParentConditions/YellowBlueBlue_v2.xlsx,BlueBlueYellow,Conditions/Version_2/BlueFearStop.xlsx,no,PASS,0.8722598945732238,,,,,,,,,0,0,0,0,0,1,1,1,0,7,7,7,,,,,,,,,,,,,,,,,,,,,,,,,,,,,,,,,,,,,,,,,,,,,,,,,,,,,,,,,,,,,,,,,,,,,,,,,,,,,,,1.9,517.4793040999998,None,space,1,0.31225969999968584,519.4878184999998,None,519.4878184999998,None,519.4878184999998,None,,,,,,,,,,,P052,fencog,2,Pre,2022_Jun_11_1059,Go No-Go Task,2021.1.4,119.74642497048015,
,"Rule: When you see blue image, do not press 'spacebar'.",Images/Happy/BM03_HO.jpg,Happy,Yellow,Images/Yellow.jpg,space,ParentConditions/YellowBlueBlue_v2.xlsx,BlueBlueYellow,Conditions/Version_2/BlueFearStop.xlsx,no,PASS,0.281866807892032,,,,,,,,,0,0,0,0,0,1,1,1,0,8,8,8,,,,,,,,,,,,,,,,,,,,,,,,,,,,,,,,,,,,,,,,,,,,,,,,,,,,,,,,,,,,,,,,,,,,,,,,,,,,,,,1.97,519.8881258000001,None,space,1,0.349885500000255,521.9620547999998,None,521.9620547999998,None,521.9620547999998,None,,,,,,,,,,,P052,fencog,2,Pre,2022_Jun_11_1059,Go No-Go Task,2021.1.4,119.74642497048015,
,"Rule: When you see blue image, do not press 'spacebar'.",Images/Happy/BF18_HO.jpg,Happy,Yellow,Images/Yellow.jpg,space,ParentConditions/YellowBlueBlue_v2.xlsx,BlueBlueYellow,Conditions/Version_2/BlueFearStop.xlsx,no,PASS,0.056262560303186104,,,,,,,,,0,0,0,0,0,1,1,1,0,9,9,9,,,,,,,,,,,,,,,,,,,,,,,,,,,,,,,,,,,,,,,,,,,,,,,,,,,,,,,,,,,,,,,,,,,,,,,,,,,,,,,1.52,522.3626346000001,None,space,1,0.28586140000015803,523.9864284999999,None,523.9864284999999,None,523.9864284999999,None,,,,,,,,,,,P052,fencog,2,Pre,2022_Jun_11_1059,Go No-Go Task,2021.1.4,119.74642497048015,
,"Rule: When you see blue image, do not press 'spacebar'.",Images/Happy/AM10HAS.jpg,Happy,Yellow,Images/Yellow.jpg,space,ParentConditions/YellowBlueBlue_v2.xlsx,BlueBlueYellow,Conditions/Version_2/BlueFearStop.xlsx,no,PASS,0.26234858566298536,,,,,,,,,0,0,0,0,0,1,1,1,0,10,10,10,,,,,,,,,,,,,,,,,,,,,,,,,,,,,,,,,,,,,,,,,,,,,,,,,,,,,,,,,,,,,,,,,,,,,,,,,,,,,,,1.67,524.3876216999997,None,space,1,0.2866484000001037,526.1692361999999,None,526.1692361999999,None,526.1692361999999,None,,,,,,,,,,,P052,fencog,2,Pre,2022_Jun_11_1059,Go No-Go Task,2021.1.4,119.74642497048015,
,"Rule: When you see blue image, do not press 'spacebar'.",Images/Happy/AM09HAS.jpg,Happy,Yellow,Images/Yellow.jpg,space,ParentConditions/YellowBlueBlue_v2.xlsx,BlueBlueYellow,Conditions/Version_2/BlueFearStop.xlsx,no,PASS,0.5322853606558464,,,,,,,,,0,0,0,0,0,1,1,1,0,11,11,11,,,,,,,,,,,,,,,,,,,,,,,,,,,,,,,,,,,,,,,,,,,,,,,,,,,,,,,,,,,,,,,,,,,,,,,,,,,,,,,1.74,526.5682572000001,None,space,1,0.3094492000000173,528.4184912999999,None,528.4184912999999,None,528.4184912999999,None,,,,,,,,,,,P052,fencog,2,Pre,2022_Jun_11_1059,Go No-Go Task,2021.1.4,119.74642497048015,
,"Rule: When you see blue image, do not press 'spacebar'.",Images/Happy/AM16HAS.jpg,Happy,Yellow,Images/Yellow.jpg,space,ParentConditions/YellowBlueBlue_v2.xlsx,BlueBlueYellow,Conditions/Version_2/BlueFearStop.xlsx,no,PASS,0.8730560121673133,,,,,,,,,0,0,0,0,0,1,1,1,0,12,12,12,,,,,,,,,,,,,,,,,,,,,,,,,,,,,,,,,,,,,,,,,,,,,,,,,,,,,,,,,,,,,,,,,,,,,,,,,,,,,,,1.41,528.8184833,None,space,1,0.28884729999981573,530.3430789999998,None,530.3430789999998,None,530.3430789999998,None,,,,,,,,,,,P052,fencog,2,Pre,2022_Jun_11_1059,Go No-Go Task,2021.1.4,119.74642497048015,
,"Rule: When you see blue image, do not press 'spacebar'.",Images/Happy/AF10_HE.jpg,Happy,Yellow,Images/Yellow.jpg,space,ParentConditions/YellowBlueBlue_v2.xlsx,BlueBlueYellow,Conditions/Version_2/BlueFearStop.xlsx,no,PASS,0.7103342893987146,,,,,,,,,0,0,0,0,0,1,1,1,0,13,13,13,,,,,,,,,,,,,,,,,,,,,,,,,,,,,,,,,,,,,,,,,,,,,,,,,,,,,,,,,,,,,,,,,,,,,,,,,,,,,,,1.66,530.7419927000001,None,space,1,0.26668870000003153,532.5255994999998,None,532.5255994999998,None,532.5255994999998,None,,,,,,,,,,,P052,fencog,2,Pre,2022_Jun_11_1059,Go No-Go Task,2021.1.4,119.74642497048015,
,"Rule: When you see blue image, do not press 'spacebar'.",Images/Happy/AF27HAS.jpg,Happy,Yellow,Images/Yellow.jpg,space,ParentConditions/YellowBlueBlue_v2.xlsx,BlueBlueYellow,Conditions/Version_2/BlueFearStop.xlsx,no,PASS,0.8937289807404983,,,,,,,,,0,0,0,0,0,1,1,1,0,14,14,14,,,,,,,,,,,,,,,,,,,,,,,,,,,,,,,,,,,,,,,,,,,,,,,,,,,,,,,,,,,,,,,,,,,,,,,,,,,,,,,1.83,532.9105954000001,None,space,1,0.30262979999997697,534.8415786999999,None,534.8415786999999,None,534.8415786999999,None,,,,,,,,,,,P052,fencog,2,Pre,2022_Jun_11_1059,Go No-Go Task,2021.1.4,119.74642497048015,
,"Rule: When you see blue image, do not press 'spacebar'.",Images/Happy/BF10_HO.jpg,Happy,Yellow,Images/Yellow.jpg,space,ParentConditions/YellowBlueBlue_v2.xlsx,BlueBlueYellow,Conditions/Version_2/BlueFearStop.xlsx,no,PASS,0.41505973664432705,,,,,,,,,0,0,0,0,0,1,1,1,0,15,15,15,,,,,,,,,,,,,,,,,,,,,,,,,,,,,,,,,,,,,,,,,,,,,,,,,,,,,,,,,,,,,,,,,,,,,,,,,,,,,,,1.3,535.2421135,None,space,1,0.26134619999993447,536.6826803999998,None,536.6826803999998,None,536.6826803999998,None,,,,,,,,,,,P052,fencog,2,Pre,2022_Jun_11_1059,Go No-Go Task,2021.1.4,119.74642497048015,
,"Rule: When you see blue image, do not press 'spacebar'.",Images/Happy/BF14_HO.jpg,Happy,Yellow,Images/Yellow.jpg,space,ParentConditions/YellowBlueBlue_v2.xlsx,BlueBlueYellow,Conditions/Version_2/BlueFearStop.xlsx,no,PASS,0.38735807018105894,,,,,,,,,0,0,0,0,0,1,1,1,0,16,16,16,,,,,,,,,,,,,,,,,,,,,,,,,,,,,,,,,,,,,,,,,,,,,,,,,,,,,,,,,,,,,,,,,,,,,,,,,,,,,,,1.46,537.0567313000001,None,space,1,0.3204209999998966,538.6154691000002,None,538.6154691000002,None,538.6154691000002,None,,,,,,,,,,,P052,fencog,2,Pre,2022_Jun_11_1059,Go No-Go Task,2021.1.4,119.74642497048015,
,"Rule: When you see blue image, do not press 'spacebar'.",Images/Fearful/BM08_FC.jpg,Fear,Blue,Images/Blue.jpg,None,ParentConditions/YellowBlueBlue_v2.xlsx,BlueBlueYellow,Conditions/Version_2/BlueFearStop.xlsx,yes,PASS,0.7905879335514261,,,,,,,,,0,0,0,0,0,1,1,1,0,17,17,17,,,,,,,,,,,,,,,,,,,,,,,,,,,,,,,,,,,,,,,,,,,,,,,,,,,,,,,,,,,,,,,,,,,,,,,,,,,,,,,1.88,539.0170607999999,None,None,1,,540.9980583000001,None,540.9980583000001,None,540.9980583000001,None,,,,,,,,,,,P052,fencog,2,Pre,2022_Jun_11_1059,Go No-Go Task,2021.1.4,119.74642497048015,
,"Rule: When you see blue image, do not press 'spacebar'.",Images/Happy/AM01HAS.jpg,Happy,Yellow,Images/Yellow.jpg,space,ParentConditions/YellowBlueBlue_v2.xlsx,BlueBlueYellow,Conditions/Version_2/BlueFearStop.xlsx,no,PASS,0.9589705349559869,,,,,,,,,0,0,0,0,0,1,1,1,0,18,18,18,,,,,,,,,,,,,,,,,,,,,,,,,,,,,,,,,,,,,,,,,,,,,,,,,,,,,,,,,,,,,,,,,,,,,,,,,,,,,,,1.55,541.4035153999998,None,space,1,0.25615970000035304,543.0638708000001,None,543.0638708000001,None,543.0638708000001,None,,,,,,,,,,,P052,fencog,2,Pre,2022_Jun_11_1059,Go No-Go Task,2021.1.4,119.74642497048015,
,"Rule: When you see blue image, do not press 'spacebar'.",Images/Happy/AF11HAS.jpg,Happy,Yellow,Images/Yellow.jpg,space,ParentConditions/YellowBlueBlue_v2.xlsx,BlueBlueYellow,Conditions/Version_2/BlueFearStop.xlsx,no,PASS,0.6358882343202421,,,,,,,,,0,0,0,0,0,1,1,1,0,19,19,19,,,,,,,,,,,,,,,,,,,,,,,,,,,,,,,,,,,,,,,,,,,,,,,,,,,,,,,,,,,,,,,,,,,,,,,,,,,,,,,1.38,543.4630778999999,None,space,1,0.2289730999996209,544.9553083999999,None,544.9553083999999,None,544.9553083999999,None,,,,,,,,,,,P052,fencog,2,Pre,2022_Jun_11_1059,Go No-Go Task,2021.1.4,119.74642497048015,
,"Rule: When you see blue image, do not press 'spacebar'.",Images/Happy/BM01_HO.jpg,Happy,Yellow,Images/Yellow.jpg,space,ParentConditions/YellowBlueBlue_v2.xlsx,BlueBlueYellow,Conditions/Version_2/BlueFearStop.xlsx,no,PASS,0.301040907790301,,,,,,,,,0,0,0,0,0,1,1,1,0,20,20,20,,,,,,,,,,,,,,,,,,,,,,,,,,,,,,,,,,,,,,,,,,,,,,,,,,,,,,,,,,,,,,,,,,,,,,,,,,,,,,,1.44,545.3559273999999,None,space,1,0.22328160000006392,546.9130660000001,None,546.9130660000001,None,546.9130660000001,None,,,,,,,,,,,P052,fencog,2,Pre,2022_Jun_11_1059,Go No-Go Task,2021.1.4,119.74642497048015,
,"Rule: When you see blue image, do not press 'spacebar'.",Images/Happy/AF07_HO.jpg,Happy,Yellow,Images/Yellow.jpg,space,ParentConditions/YellowBlueBlue_v2.xlsx,BlueBlueYellow,Conditions/Version_2/BlueFearStop.xlsx,no,PASS,0.16146803476355298,,,,,,,,,0,0,0,0,0,1,1,1,0,21,21,21,,,,,,,,,,,,,,,,,,,,,,,,,,,,,,,,,,,,,,,,,,,,,,,,,,,,,,,,,,,,,,,,,,,,,,,,,,,,,,,1.42,547.2982769,None,space,1,0.23509029999968334,548.8207416999999,None,548.8207416999999,None,548.8207416999999,None,,,,,,,,,,,P052,fencog,2,Pre,2022_Jun_11_1059,Go No-Go Task,2021.1.4,119.74642497048015,
,"Rule: When you see blue image, do not press 'spacebar'.",Images/Happy/HM06_HO.jpg,Happy,Yellow,Images/Yellow.jpg,space,ParentConditions/YellowBlueBlue_v2.xlsx,BlueBlueYellow,Conditions/Version_2/BlueFearStop.xlsx,no,PASS,0.017367743981932304,,,,,,,,,0,0,0,0,0,1,1,1,0,22,22,22,,,,,,,,,,,,,,,,,,,,,,,,,,,,,,,,,,,,,,,,,,,,,,,,,,,,,,,,,,,,,,,,,,,,,,,,,,,,,,,1.59,549.2214718999999,None,space,1,0.2719267000002219,550.9201720000001,None,550.9201720000001,None,550.9201720000001,None,,,,,,,,,,,P052,fencog,2,Pre,2022_Jun_11_1059,Go No-Go Task,2021.1.4,119.74642497048015,
,"Rule: When you see blue image, do not press 'spacebar'.",Images/Fearful/AM09_FO.jpg,Fear,Blue,Images/Blue.jpg,None,ParentConditions/YellowBlueBlue_v2.xlsx,BlueBlueYellow,Conditions/Version_2/BlueFearStop.xlsx,yes,PASS,0.2997278789301355,,,,,,,,,0,0,0,0,0,1,1,1,0,23,23,23,,,,,,,,,,,,,,,,,,,,,,,,,,,,,,,,,,,,,,,,,,,,,,,,,,,,,,,,,,,,,,,,,,,,,,,,,,,,,,,1.95,551.3190930999999,None,None,1,,553.3694895999997,None,553.3694895999997,None,553.3694895999997,None,,,,,,,,,,,P052,fencog,2,Pre,2022_Jun_11_1059,Go No-Go Task,2021.1.4,119.74642497048015,
,"Rule: When you see blue image, do not press 'spacebar'.",Images/Happy/AF09HAS.jpg,Happy,Yellow,Images/Yellow.jpg,space,ParentConditions/YellowBlueBlue_v2.xlsx,BlueBlueYellow,Conditions/Version_2/BlueFearStop.xlsx,no,PASS,0.8273900201130844,,,,,,,,,0,0,0,0,0,1,1,1,0,24,24,24,,,,,,,,,,,,,,,,,,,,,,,,,,,,,,,,,,,,,,,,,,,,,,,,,,,,,,,,,,,,,,,,,,,,,,,,,,,,,,,1.45,553.7711503,None,space,1,0.2651189999996859,555.3270478999998,None,555.3270478999998,None,555.3270478999998,None,,,,,,,,,,,P052,fencog,2,Pre,2022_Jun_11_1059,Go No-Go Task,2021.1.4,119.74642497048015,
,"Rule: When you see blue image, do not press 'spacebar'.",Images/Happy/AM04HAS.jpg,Happy,Yellow,Images/Yellow.jpg,space,ParentConditions/YellowBlueBlue_v2.xlsx,BlueBlueYellow,Conditions/Version_2/BlueFearStop.xlsx,no,PASS,0.7497236344439144,,,,,,,,,0,0,0,0,0,1,1,1,0,25,25,25,,,,,,,,,,,,,,,,,,,,,,,,,,,,,,,,,,,,,,,,,,,,,,,,,,,,,,,,,,,,,,,,,,,,,,,,,,,,,,,1.62,555.7301650999998,None,space,1,0.29969389999996565,557.4682389999998,None,557.4682389999998,None,557.4682389999998,None,,,,,,,,,,,P052,fencog,2,Pre,2022_Jun_11_1059,Go No-Go Task,2021.1.4,119.74642497048015,
,"Rule: When you see blue image, do not press 'spacebar'.",Images/Happy/BF07_HO.jpg,Happy,Yellow,Images/Yellow.jpg,space,ParentConditions/YellowBlueBlue_v2.xlsx,BlueBlueYellow,Conditions/Version_2/BlueFearStop.xlsx,no,PASS,0.9631973209169931,,,,,,,,,0,0,0,0,0,1,1,1,0,26,26,26,,,,,,,,,,,,,,,,,,,,,,,,,,,,,,,,,,,,,,,,,,,,,,,,,,,,,,,,,,,,,,,,,,,,,,,,,,,,,,,1.49,557.8587861000001,None,space,1,0.2689988000001904,559.4509868999999,None,559.4509868999999,None,559.4509868999999,None,,,,,,,,,,,P052,fencog,2,Pre,2022_Jun_11_1059,Go No-Go Task,2021.1.4,119.74642497048015,
,"Rule: When you see blue image, do not press 'spacebar'.",Images/Happy/AF02HAS.jpg,Happy,Yellow,Images/Yellow.jpg,space,ParentConditions/YellowBlueBlue_v2.xlsx,BlueBlueYellow,Conditions/Version_2/BlueFearStop.xlsx,no,PASS,0.44316288931410874,,,,,,,,,0,0,0,0,0,1,1,1,0,27,27,27,,,,,,,,,,,,,,,,,,,,,,,,,,,,,,,,,,,,,,,,,,,,,,,,,,,,,,,,,,,,,,,,,,,,,,,,,,,,,,,1.24,559.8502635,None,space,1,0.2796032999999625,561.2005094000001,None,561.2005094000001,None,561.2005094000001,None,,,,,,,,,,,P052,fencog,2,Pre,2022_Jun_11_1059,Go No-Go Task,2021.1.4,119.74642497048015,
,"Rule: When you see blue image, do not press 'spacebar'.",Images/Happy/AM30HAS.jpg,Happy,Yellow,Images/Yellow.jpg,space,ParentConditions/YellowBlueBlue_v2.xlsx,BlueBlueYellow,Conditions/Version_2/BlueFearStop.xlsx,no,PASS,0.8101164063536405,,,,,,,,,0,0,0,0,0,1,1,1,0,28,28,28,,,,,,,,,,,,,,,,,,,,,,,,,,,,,,,,,,,,,,,,,,,,,,,,,,,,,,,,,,,,,,,,,,,,,,,,,,,,,,,1.4,561.6042329000002,None,space,1,0.25991549999980634,563.1082188,None,563.1082188,None,563.1082188,None,,,,,,,,,,,P052,fencog,2,Pre,2022_Jun_11_1059,Go No-Go Task,2021.1.4,119.74642497048015,
,"Rule: When you see blue image, do not press 'spacebar'.",Images/Happy/BF05_HO.jpg,Happy,Yellow,Images/Yellow.jpg,space,ParentConditions/YellowBlueBlue_v2.xlsx,BlueBlueYellow,Conditions/Version_2/BlueFearStop.xlsx,no,PASS,0.6770609167729968,,,,,,,,,0,0,0,0,0,1,1,1,0,29,29,29,,,,,,,,,,,,,,,,,,,,,,,,,,,,,,,,,,,,,,,,,,,,,,,,,,,,,,,,,,,,,,,,,,,,,,,,,,,,,,,1.73,563.5086750999999,None,space,1,0.2908225000001039,565.3492342,None,565.3492342,None,565.3492342,None,,,,,,,,,,,P052,fencog,2,Pre,2022_Jun_11_1059,Go No-Go Task,2021.1.4,119.74642497048015,
,"Rule: When you see blue image, do not press 'spacebar'.",Images/Fearful/AF25AFS.jpg,Fear,Blue,Images/Blue.jpg,None,ParentConditions/YellowBlueBlue_v2.xlsx,BlueBlueYellow,Conditions/Version_2/BlueFearStop.xlsx,yes,PASS,0.9137328829424104,,,,,,,,,0,0,0,0,0,1,1,1,0,30,30,30,,,,,,,,,,,,,,,,,,,,,,,,,,,,,,,,,,,,,,,,,,,,,,,,,,,,,,,,,,,,,,,,,,,,,,,,,,,,,,,1.7,565.7500424999998,None,None,1,,567.5486725000001,None,567.5486725000001,None,567.5486725000001,None,,,,,,,,,,,P052,fencog,2,Pre,2022_Jun_11_1059,Go No-Go Task,2021.1.4,119.74642497048015,
,"Rule: When you see blue image, do not press 'spacebar'.",Images/Happy/BF09_HO.jpg,Happy,Yellow,Images/Yellow.jpg,space,ParentConditions/YellowBlueBlue_v2.xlsx,BlueBlueYellow,Conditions/Version_2/BlueFearStop.xlsx,no,PASS,0.7233148419047607,,,,,,,,,0,0,0,0,0,1,1,1,0,31,31,31,,,,,,,,,,,,,,,,,,,,,,,,,,,,,,,,,,,,,,,,,,,,,,,,,,,,,,,,,,,,,,,,,,,,,,,,,,,,,,,1.22,567.9557593,None,space,1,0.2620974000001297,569.2980159999997,None,569.2980159999997,None,569.2980159999997,None,,,,,,,,,,,P052,fencog,2,Pre,2022_Jun_11_1059,Go No-Go Task,2021.1.4,119.74642497048015,
,"Rule: When you see blue image, do not press 'spacebar'.",Images/Happy/AM09_HE.jpg,Happy,Yellow,Images/Yellow.jpg,space,ParentConditions/YellowBlueBlue_v2.xlsx,BlueBlueYellow,Conditions/Version_2/BlueFearStop.xlsx,no,PASS,0.703399731728546,,,,,,,,,0,0,0,0,0,1,1,1,0,32,32,32,,,,,,,,,,,,,,,,,,,,,,,,,,,,,,,,,,,,,,,,,,,,,,,,,,,,,,,,,,,,,,,,,,,,,,,,,,,,,,,1.61,569.6886836999997,None,space,1,0.26590029999988474,571.4139068,None,571.4139068,None,571.4139068,None,,,,,,,,,,,P052,fencog,2,Pre,2022_Jun_11_1059,Go No-Go Task,2021.1.4,119.74642497048015,
,"Rule: When you see blue image, do not press 'spacebar'.",Images/Fearful/BF14_FO.jpg,Fear,Blue,Images/Blue.jpg,None,ParentConditions/YellowBlueBlue_v2.xlsx,BlueBlueYellow,Conditions/Version_2/BlueFearStop.xlsx,yes,PASS,0.641858343679783,,,,,,,,,0,0,0,0,0,1,1,1,0,33,33,33,,,,,,,,,,,,,,,,,,,,,,,,,,,,,,,,,,,,,,,,,,,,,,,,,,,,,,,,,,,,,,,,,,,,,,,,,,,,,,,1.25,571.8128505999998,None,None,1,,573.163556,None,573.163556,None,573.163556,None,,,,,,,,,,,P052,fencog,2,Pre,2022_Jun_11_1059,Go No-Go Task,2021.1.4,119.74642497048015,
,"Rule: When you see blue image, do not press 'spacebar'.",Images/Fearful/HF05_FC.jpg,Fear,Blue,Images/Blue.jpg,None,ParentConditions/YellowBlueBlue_v2.xlsx,BlueBlueYellow,Conditions/Version_2/BlueFearStop.xlsx,yes,PASS,0.11935527908981858,,,,,,,,,0,0,0,0,0,1,1,1,0,34,34,34,,,,,,,,,,,,,,,,,,,,,,,,,,,,,,,,,,,,,,,,,,,,,,,,,,,,,,,,,,,,,,,,,,,,,,,,,,,,,,,1.64,573.5639668999997,None,None,1,,575.3045907999999,None,575.3045907999999,None,575.3045907999999,None,,,,,,,,,,,P052,fencog,2,Pre,2022_Jun_11_1059,Go No-Go Task,2021.1.4,119.74642497048015,
,"Rule: When you see blue image, do not press 'spacebar'.",Images/Happy/AM23HAS.jpg,Happy,Yellow,Images/Yellow.jpg,space,ParentConditions/YellowBlueBlue_v2.xlsx,BlueBlueYellow,Conditions/Version_2/BlueFearStop.xlsx,no,PASS,0.4310663721908784,,,,,,,,,0,0,0,0,0,1,1,1,0,35,35,35,,,,,,,,,,,,,,,,,,,,,,,,,,,,,,,,,,,,,,,,,,,,,,,,,,,,,,,,,,,,,,,,,,,,,,,,,,,,,,,1.89,575.7069077000001,None,space,1,0.2798760000000584,577.7039744999997,None,577.7039744999997,None,577.7039744999997,None,,,,,,,,,,,P052,fencog,2,Pre,2022_Jun_11_1059,Go No-Go Task,2021.1.4,119.74642497048015,
,"Rule: When you see blue image, do not press 'spacebar'.",Images/Happy/AM03_HO.jpg,Happy,Yellow,Images/Yellow.jpg,space,ParentConditions/YellowBlueBlue_v2.xlsx,BlueBlueYellow,Conditions/Version_2/BlueFearStop.xlsx,no,PASS,0.027367773514368476,,,,,,,,,0,0,0,0,0,1,1,1,0,36,36,36,,,,,,,,,,,,,,,,,,,,,,,,,,,,,,,,,,,,,,,,,,,,,,,,,,,,,,,,,,,,,,,,,,,,,,,,,,,,,,,1.63,578.1061931999998,None,space,1,0.26690270000017335,579.8452068000001,None,579.8452068000001,None,579.8452068000001,None,,,,,,,,,,,P052,fencog,2,Pre,2022_Jun_11_1059,Go No-Go Task,2021.1.4,119.74642497048015,
,"Rule: When you see blue image, do not press 'spacebar'.",Images/Happy/AF25HAS.jpg,Happy,Yellow,Images/Yellow.jpg,space,ParentConditions/YellowBlueBlue_v2.xlsx,BlueBlueYellow,Conditions/Version_2/BlueFearStop.xlsx,no,PASS,0.04870321560414337,,,,,,,,,0,0,0,0,0,1,1,1,0,37,37,37,,,,,,,,,,,,,,,,,,,,,,,,,,,,,,,,,,,,,,,,,,,,,,,,,,,,,,,,,,,,,,,,,,,,,,,,,,,,,,,1.87,580.2496504000001,None,space,1,0.29234219999989364,582.2356028999998,None,582.2356028999998,None,582.2356028999998,None,,,,,,,,,,,P052,fencog,2,Pre,2022_Jun_11_1059,Go No-Go Task,2021.1.4,119.74642497048015,
,"Rule: When you see blue image, do not press 'spacebar'.",Images/Happy/BM08_HO.jpg,Happy,Yellow,Images/Yellow.jpg,space,ParentConditions/YellowBlueBlue_v2.xlsx,BlueBlueYellow,Conditions/Version_2/BlueFearStop.xlsx,no,PASS,0.026169495354104844,,,,,,,,,0,0,0,0,0,1,1,1,0,38,38,38,,,,,,,,,,,,,,,,,,,,,,,,,,,,,,,,,,,,,,,,,,,,,,,,,,,,,,,,,,,,,,,,,,,,,,,,,,,,,,,1.28,582.6348420999998,None,space,1,0.28465639999967607,584.0271367999999,None,584.0271367999999,None,584.0271367999999,None,,,,,,,,,,,P052,fencog,2,Pre,2022_Jun_11_1059,Go No-Go Task,2021.1.4,119.74642497048015,
,"Rule: When you see blue image, do not press 'spacebar'.",Images/Happy/AF32HAS.jpg,Happy,Yellow,Images/Yellow.jpg,space,ParentConditions/YellowBlueBlue_v2.xlsx,BlueBlueYellow,Conditions/Version_2/BlueFearStop.xlsx,no,PASS,0.007662007482450273,,,,,,,,,0,0,0,0,0,1,1,1,0,39,39,39,,,,,,,,,,,,,,,,,,,,,,,,,,,,,,,,,,,,,,,,,,,,,,,,,,,,,,,,,,,,,,,,,,,,,,,,,,,,,,,1.21,584.4264941000001,None,space,1,0.24113030000034996,585.7348526000001,None,585.7348526000001,None,585.7348526000001,None,,,,,,,,,,,P052,fencog,2,Pre,2022_Jun_11_1059,Go No-Go Task,2021.1.4,119.74642497048015,
,"Rule: When you see blue image, do not press 'spacebar'.",Images/Happy/AF23HAS.jpg,Happy,Yellow,Images/Yellow.jpg,space,ParentConditions/YellowBlueBlue_v2.xlsx,BlueBlueYellow,Conditions/Version_2/BlueFearStop.xlsx,no,PASS,0.13322659163638806,,,,,,,,,0,0,0,0,0,1,1,1,0,40,40,40,,,,,,,,,,,,,,,,,,,,,,,,,,,,,,,,,,,,,,,,,,,,,,,,,,,,,,,,,,,,,,,,,,,,,,,,,,,,,,,1.76,586.1354941,None,space,1,0.31102310000005673,588.0092120999998,None,588.0092120999998,None,588.0092120999998,None,,,,,,,,,,,P052,fencog,2,Pre,2022_Jun_11_1059,Go No-Go Task,2021.1.4,119.74642497048015,
,"Rule: When you see blue image, do not press 'spacebar'.",Images/Happy/AM32HAS.jpg,Happy,Yellow,Images/Yellow.jpg,space,ParentConditions/YellowBlueBlue_v2.xlsx,BlueBlueYellow,Conditions/Version_2/BlueFearStop.xlsx,no,PASS,0.18790539518346805,,,,,,,,,0,0,0,0,0,1,1,1,0,41,41,41,,,,,,,,,,,,,,,,,,,,,,,,,,,,,,,,,,,,,,,,,,,,,,,,,,,,,,,,,,,,,,,,,,,,,,,,,,,,,,,1.36,588.4022059999998,None,space,1,0.28525719999970534,589.8667058999999,None,589.8667058999999,None,589.8667058999999,None,,,,,,,,,,,P052,fencog,2,Pre,2022_Jun_11_1059,Go No-Go Task,2021.1.4,119.74642497048015,
,"Rule: When you see blue image, do not press 'spacebar'.",Images/Fearful/AM30AFS.jpg,Fear,Blue,Images/Blue.jpg,None,ParentConditions/YellowBlueBlue_v2.xlsx,BlueBlueYellow,Conditions/Version_2/BlueFearStop.xlsx,yes,PASS,0.3894428318578558,,,,,,,,,0,0,0,0,0,1,1,1,0,42,42,42,,,,,,,,,,,,,,,,,,,,,,,,,,,,,,,,,,,,,,,,,,,,,,,,,,,,,,,,,,,,,,,,,,,,,,,,,,,,,,,1.58,590.270434,None,None,1,,591.9497096999999,None,591.9497096999999,None,591.9497096999999,None,,,,,,,,,,,P052,fencog,2,Pre,2022_Jun_11_1059,Go No-Go Task,2021.1.4,119.74642497048015,
,"Rule: When you see blue image, do not press 'spacebar'.",Images/Happy/BM02_HO.jpg,Happy,Yellow,Images/Yellow.jpg,space,ParentConditions/YellowBlueBlue_v2.xlsx,BlueBlueYellow,Conditions/Version_2/BlueFearStop.xlsx,no,PASS,0.8000984906086622,,,,,,,,,0,0,0,0,0,1,1,1,0,43,43,43,,,,,,,,,,,,,,,,,,,,,,,,,,,,,,,,,,,,,,,,,,,,,,,,,,,,,,,,,,,,,,,,,,,,,,,,,,,,,,,1.54,592.3488775000001,None,space,1,0.29703139999992345,593.9989443,None,593.9989443,None,593.9989443,None,,,,,,,,,,,P052,fencog,2,Pre,2022_Jun_11_1059,Go No-Go Task,2021.1.4,119.74642497048015,
,"Rule: When you see blue image, do not press 'spacebar'.",Images/Happy/AM10_HO.jpg,Happy,Yellow,Images/Yellow.jpg,space,ParentConditions/YellowBlueBlue_v2.xlsx,BlueBlueYellow,Conditions/Version_2/BlueFearStop.xlsx,no,PASS,0.5717939201397183,,,,,,,,,0,0,0,0,0,1,1,1,0,44,44,44,,,,,,,,,,,,,,,,,,,,,,,,,,,,,,,,,,,,,,,,,,,,,,,,,,,,,,,,,,,,,,,,,,,,,,,,,,,,,,,1.69,594.3988697,None,space,1,0.29026410000005853,596.1817510999999,None,596.1817510999999,None,596.1817510999999,None,,,,,,,,,,,P052,fencog,2,Pre,2022_Jun_11_1059,Go No-Go Task,2021.1.4,119.74642497048015,
,"Rule: When you see blue image, do not press 'spacebar'.",Images/Fearful/AM10_FO.jpg,Fear,Blue,Images/Blue.jpg,None,ParentConditions/YellowBlueBlue_v2.xlsx,BlueBlueYellow,Conditions/Version_2/BlueFearStop.xlsx,yes,PASS,0.5269701617606191,,,,,,,,,0,0,0,0,0,1,1,1,0,45,45,45,,,,,,,,,,,,,,,,,,,,,,,,,,,,,,,,,,,,,,,,,,,,,,,,,,,,,,,,,,,,,,,,,,,,,,,,,,,,,,,1.79,596.5862117000001,None,None,1,,598.4811229000002,None,598.4811229000002,None,598.4811229000002,None,,,,,,,,,,,P052,fencog,2,Pre,2022_Jun_11_1059,Go No-Go Task,2021.1.4,119.74642497048015,
,"Rule: When you see blue image, do not press 'spacebar'.",Images/Happy/AF19HAS.jpg,Happy,Yellow,Images/Yellow.jpg,space,ParentConditions/YellowBlueBlue_v2.xlsx,BlueBlueYellow,Conditions/Version_2/BlueFearStop.xlsx,no,PASS,0.6170839926730745,,,,,,,,,0,0,0,0,0,1,1,1,0,46,46,46,,,,,,,,,,,,,,,,,,,,,,,,,,,,,,,,,,,,,,,,,,,,,,,,,,,,,,,,,,,,,,,,,,,,,,,,,,,,,,,1.33,598.8919169999999,None,space,1,0.27783220000037545,600.3221954,None,600.3221954,None,600.3221954,None,,,,,,,,,,,P052,fencog,2,Pre,2022_Jun_11_1059,Go No-Go Task,2021.1.4,119.74642497048015,
,"Rule: When you see blue image, do not press 'spacebar'.",Images/Fearful/HF09_FC.jpg,Fear,Blue,Images/Blue.jpg,None,ParentConditions/YellowBlueBlue_v2.xlsx,BlueBlueYellow,Conditions/Version_2/BlueFearStop.xlsx,yes,PASS,0.03424286048079783,,,,,,,,,0,0,0,0,0,1,1,1,0,47,47,47,,,,,,,,,,,,,,,,,,,,,,,,,,,,,,,,,,,,,,,,,,,,,,,,,,,,,,,,,,,,,,,,,,,,,,,,,,,,,,,1.26,600.7327692999997,None,None,1,,602.0966964999998,None,602.0966964999998,None,602.0966964999998,None,,,,,,,,,,,P052,fencog,2,Pre,2022_Jun_11_1059,Go No-Go Task,2021.1.4,119.74642497048015,
,"Rule: When you see blue image, do not press 'spacebar'.",Images/Fearful/AM22AFS.jpg,Fear,Blue,Images/Blue.jpg,None,ParentConditions/YellowBlueBlue_v2.xlsx,BlueBlueYellow,Conditions/Version_2/BlueFearStop.xlsx,yes,PASS,0.9945919074829972,,,,,,,,,0,0,0,0,0,1,1,1,0,48,48,48,,,,,,,,,,,,,,,,,,,,,,,,,,,,,,,,,,,,,,,,,,,,,,,,,,,,,,,,,,,,,,,,,,,,,,,,,,,,,,,1.65,602.4976115,None,None,1,,604.254492,None,604.254492,None,604.254492,None,,,,,,,,,,,P052,fencog,2,Pre,2022_Jun_11_1059,Go No-Go Task,2021.1.4,119.74642497048015,
,"Rule: When you see blue image, do not press 'spacebar'.",Images/Happy/AM06_HC.jpg,Happy,Yellow,Images/Yellow.jpg,space,ParentConditions/YellowBlueBlue_v2.xlsx,BlueBlueYellow,Conditions/Version_2/BlueFearStop.xlsx,no,PASS,0.15639026645094434,,,,,,,,,0,0,0,0,0,1,1,1,0,49,49,49,,,,,,,,,,,,,,,,,,,,,,,,,,,,,,,,,,,,,,,,,,,,,,,,,,,,,,,,,,,,,,,,,,,,,,,,,,,,,,,1.29,604.6535432999999,None,space,1,0.2664815000002818,606.0538090999999,None,606.0538090999999,None,606.0538090999999,None,,,,,,,,,,,P052,fencog,2,Pre,2022_Jun_11_1059,Go No-Go Task,2021.1.4,119.74642497048015,
,"Rule: When you see blue image, do not press 'spacebar'.",Images/Fearful/AM32AFS.jpg,Fear,Blue,Images/Blue.jpg,None,ParentConditions/YellowBlueBlue_v2.xlsx,BlueBlueYellow,Conditions/Version_2/BlueFearStop.xlsx,yes,PASS,0.6879520753296126,,,,,,,,,0,0,0,0,0,1,1,1,0,50,50,50,,,,,,,,,,,,,,,,,,,,,,,,,,,,,,,,,,,,,,,,,,,,,,,,,,,,,,,,,,,,,,,,,,,,,,,,,,,,,,,1.77,606.4513904999999,None,None,1,,608.3282098,None,608.3282098,None,608.3282098,None,,,,,,,,,,,P052,fencog,2,Pre,2022_Jun_11_1059,Go No-Go Task,2021.1.4,119.74642497048015,
,"Rule: When you see blue image, do not press 'spacebar'.",Images/Happy/WF11_HE.jpg,Happy,Yellow,Images/Yellow.jpg,space,ParentConditions/YellowBlueBlue_v2.xlsx,BlueBlueYellow,Conditions/Version_2/BlueFearStop.xlsx,no,PASS,0.0583479260669304,,,,,,,,,0,0,0,0,0,1,1,1,0,51,51,51,,,,,,,,,,,,,,,,,,,,,,,,,,,,,,,,,,,,,,,,,,,,,,,,,,,,,,,,,,,,,,,,,,,,,,,,,,,,,,,1.32,608.7272662,None,space,1,0.29494179999983317,610.1609976,None,610.1609976,None,610.1609976,None,,,,,,,,,,,P052,fencog,2,Pre,2022_Jun_11_1059,Go No-Go Task,2021.1.4,119.74642497048015,
,"Rule: When you see blue image, do not press 'spacebar'.",Images/Fearful/AF28AFS.jpg,Fear,Blue,Images/Blue.jpg,None,ParentConditions/YellowBlueBlue_v2.xlsx,BlueBlueYellow,Conditions/Version_2/BlueFearStop.xlsx,yes,PASS,0.84152709172785,,,,,,,,,0,0,0,0,0,1,1,1,0,52,52,52,,,,,,,,,,,,,,,,,,,,,,,,,,,,,,,,,,,,,,,,,,,,,,,,,,,,,,,,,,,,,,,,,,,,,,,,,,,,,,,1.34,610.5598338999998,None,None,1,,612.0020639999998,None,612.0020639999998,None,612.0020639999998,None,,,,,,,,,,,P052,fencog,2,Pre,2022_Jun_11_1059,Go No-Go Task,2021.1.4,119.74642497048015,
,"Rule: When you see blue image, do not press 'spacebar'.",Images/Happy/HF04_HE.jpg,Happy,Yellow,Images/Yellow.jpg,space,ParentConditions/YellowBlueBlue_v2.xlsx,BlueBlueYellow,Conditions/Version_2/BlueFearStop.xlsx,no,PASS,0.4119172299729392,,,,,,,,,0,0,0,0,0,1,1,1,0,53,53,53,,,,,,,,,,,,,,,,,,,,,,,,,,,,,,,,,,,,,,,,,,,,,,,,,,,,,,,,,,,,,,,,,,,,,,,,,,,,,,,1.71,612.4012862,None,space,1,0.30961859999979424,614.2264403999998,None,614.2264403999998,None,614.2264403999998,None,,,,,,,,,,,P052,fencog,2,Pre,2022_Jun_11_1059,Go No-Go Task,2021.1.4,119.74642497048015,
,"Rule: When you see blue image, do not press 'spacebar'.",Images/Happy/AM13HAS.jpg,Happy,Yellow,Images/Yellow.jpg,space,ParentConditions/YellowBlueBlue_v2.xlsx,BlueBlueYellow,Conditions/Version_2/BlueFearStop.xlsx,no,PASS,0.1481016084905541,,,,,,,,,0,0,0,0,0,1,1,1,0,54,54,54,,,,,,,,,,,,,,,,,,,,,,,,,,,,,,,,,,,,,,,,,,,,,,,,,,,,,,,,,,,,,,,,,,,,,,,,,,,,,,,2,614.6253007,None,space,1,0.362483599999905,616.7256788999998,None,616.7256788999998,None,616.7256788999998,None,,,,,,,,,,,P052,fencog,2,Pre,2022_Jun_11_1059,Go No-Go Task,2021.1.4,119.74642497048015,
,"Rule: When you see blue image, do not press 'spacebar'.",Images/Happy/HF10_HE.jpg,Happy,Yellow,Images/Yellow.jpg,space,ParentConditions/YellowBlueBlue_v2.xlsx,BlueBlueYellow,Conditions/Version_2/BlueFearStop.xlsx,no,PASS,0.04388835754455167,,,,,,,,,0,0,0,0,0,1,1,1,0,55,55,55,,,,,,,,,,,,,,,,,,,,,,,,,,,,,,,,,,,,,,,,,,,,,,,,,,,,,,,,,,,,,,,,,,,,,,,,,,,,,,,1.86,617.1320889999997,None,space,1,0.28374369999983173,619.1000607000001,None,619.1000607000001,None,619.1000607000001,None,,,,,,,,,,,P052,fencog,2,Pre,2022_Jun_11_1059,Go No-Go Task,2021.1.4,119.74642497048015,
,"Rule: When you see blue image, do not press 'spacebar'.",Images/Happy/AM04_HE.jpg,Happy,Yellow,Images/Yellow.jpg,space,ParentConditions/YellowBlueBlue_v2.xlsx,BlueBlueYellow,Conditions/Version_2/BlueFearStop.xlsx,no,PASS,0.8425689490019698,,,,,,,,,0,0,0,0,0,1,1,1,0,56,56,56,,,,,,,,,,,,,,,,,,,,,,,,,,,,,,,,,,,,,,,,,,,,,,,,,,,,,,,,,,,,,,,,,,,,,,,,,,,,,,,1.56,619.4995598,None,space,1,0.27428150000014284,621.1660670000001,None,621.1660670000001,None,621.1660670000001,None,,,,,,,,,,,P052,fencog,2,Pre,2022_Jun_11_1059,Go No-Go Task,2021.1.4,119.74642497048015,
,"Rule: When you see blue image, do not press 'spacebar'.",Images/Happy/WF04_HC.jpg,Happy,Yellow,Images/Yellow.jpg,space,ParentConditions/YellowBlueBlue_v2.xlsx,BlueBlueYellow,Conditions/Version_2/BlueFearStop.xlsx,no,PASS,0.9132846307792184,,,,,,,,,0,0,0,0,0,1,1,1,0,57,57,57,,,,,,,,,,,,,,,,,,,,,,,,,,,,,,,,,,,,,,,,,,,,,,,,,,,,,,,,,,,,,,,,,,,,,,,,,,,,,,,1.57,621.5679709000001,None,space,1,0.2635382999997091,623.2404449999999,None,623.2404449999999,None,623.2404449999999,None,,,,,,,,,,,P052,fencog,2,Pre,2022_Jun_11_1059,Go No-Go Task,2021.1.4,119.74642497048015,
