CondFileP,Instructions,FaceE,Express,ColourT,ColourF,CorrectAnsP,MasterCondFile,BlockOrder,CondFile,ColCheck,Triplicate_check,SORT_BY_SMALLEST,EPracticeOuterLoop.thisRepN,EPracticeOuterLoop.thisTrialN,EPracticeOuterLoop.thisN,EPracticeOuterLoop.thisIndex,EPracticeInnerLoop.thisRepN,EPracticeInnerLoop.thisTrialN,EPracticeInnerLoop.thisN,EPracticeInnerLoop.thisIndex,MasterLoop.thisRepN,MasterLoop.thisTrialN,MasterLoop.thisN,MasterLoop.thisIndex,OuterLoop.thisRepN,OuterLoop.thisTrialN,OuterLoop.thisN,OuterLoop.thisIndex,InnerLoop.thisRepN,InnerLoop.thisTrialN,InnerLoop.thisN,InnerLoop.thisIndex,text_13.started,text_13.stopped,key_resp_10.keys,key_resp_10.rt,key_resp_10.started,key_resp_10.stopped,text4.started,text4.stopped,EmotionTaskInstructions1.keys,EmotionTaskInstructions1.rt,EmotionTaskInstructions1.started,EmotionTaskInstructions1.stopped,text_4.started,text_4.stopped,key_resp_5.keys,key_resp_5.rt,key_resp_5.started,key_resp_5.stopped,Text_14.started,Text_14.stopped,key_resp_9.keys,key_resp_9.rt,key_resp_9.started,key_resp_9.stopped,text_5.started,text_5.stopped,text_6.started,text_6.stopped,key_resp_7.keys,key_resp_7.rt,key_resp_7.started,key_resp_7.stopped,text_10.started,text_10.stopped,text_11.started,text_11.stopped,text_12.started,text_12.stopped,ISIjitterPractice,EPracticeISIMarker.started,EPracticeISIMarker.stopped,Pract.keys,Pract.corr,Pract.started,Pract.stopped,PracticeFace.started,PracticeFace.stopped,ColourPractice.started,ColourPractice.stopped,text_7.started,text_7.stopped,Pract.rt,EndOfPractice.started,EndOfPractice.stopped,key_resp_8.keys,key_resp_8.rt,key_resp_8.started,key_resp_8.stopped,text_8.started,text_8.stopped,key_resp_6.keys,key_resp_6.rt,key_resp_6.started,key_resp_6.stopped,text_2.started,text_2.stopped,text_3.started,text_3.stopped,key_resp_3.keys,key_resp_3.rt,key_resp_3.started,key_resp_3.stopped,TaskBlock.started,TaskBlock.stopped,BlockNo1.started,BlockNo1.stopped,OfBlock.started,OfBlock.stopped,ISIjitter,ISImarker.started,ISImarker.stopped,key_resp.keys,key_resp.corr,key_resp.started,key_resp.stopped,FaceSet.started,FaceSet.stopped,Colour.started,Colour.stopped,key_resp.rt,EndBlockText.started,EndBlockText.stopped,key_resp_4.keys,key_resp_4.rt,key_resp_4.started,key_resp_4.stopped,BreakText2.started,BreakText2.stopped,PressToContinue.started,PressToContinue.stopped,participant,Study Name,Task Version (required to run),PRE/POST,date,expName,psychopyVersion,frameRate
,,,,,,,,,,,,,,,,,,,,,,,,,,,,,,,,,64.5115035,None,space,18.3392495,65.4948328,None,,,,,,,,,,,,,,,,,,,,,,,,,,,,,,,,,,,,,,,,,,,,,,,,,,,,,,,,,,,,,,,,,,,,,,,,,,,,,,,,,,,,,,,,,,,,,,,P053,FENCOG,2,Post,2022_Jun_21_1058,Go No-Go Task,2021.1.4,119.8283579
,,,,,,,,,,,,,,,,,,,,,,,,,,,,,,,,,,,,,,,85.5752819,None,space,-0.2178609,85.5752819,None,,,,,,,,,,,,,,,,,,,,,,,,,,,,,,,,,,,,,,,,,,,,,,,,,,,,,,,,,,,,,,,,,,,,,,,,,,,,,,,,,,,,,,,,,P053,FENCOG,2,Post,2022_Jun_21_1058,Go No-Go Task,2021.1.4,119.8283579
,,,,,,,,,,,,,,,,,,,,,,,,,,,,,,,,,,,,,,,,,,,,,85.6444889,None,space,23.4812388,85.6444889,None,,,,,,,,,,,,,,,,,,,,,,,,,,,,,,,,,,,,,,,,,,,,,,,,,,,,,,,,,,,,,,,,,,,,,,,,,,,,,,,,,,,P053,FENCOG,2,Post,2022_Jun_21_1058,Go No-Go Task,2021.1.4,119.8283579
,,,,,,,,,,,,,,,,,,,,,,,,,,,,,,,,,,,,,,,,,,,,,,,,,,,109.1454423,None,space,5.6120301,109.1454423,None,,,,,,,,,,,,,,,,,,,,,,,,,,,,,,,,,,,,,,,,,,,,,,,,,,,,,,,,,,,,,,,,,,,,,,,,,,,,,P053,FENCOG,2,Post,2022_Jun_21_1058,Go No-Go Task,2021.1.4,119.8283579
EPracticeConditions/BlueEyes.csv,"Rule: When you see a blue image, do not press 'spacebar'.",Images/Happy/HF09_HE.jpg,Happy,Yellow,Images/Yellow.jpg,space,,,,,,,0,0,0,0,0,0,0,6,,,,,,,,,,,,,,,,,,,,,,,,,,,,,,,,,,,,,114.8553394,None,117.8375816,None,space,0.5836556,117.8375816,None,114.8553394,None,114.8553394,None,114.8553394,None,1.3,118.6763998,None,None,0,120.1509476,None,120.1509476,None,120.1509476,None,121.7951454,None,,,,,,,,,,,,,,,,,,,,,,,,,,,,,,,,,,,,,,,,,,,,,,,,,,P053,FENCOG,2,Post,2022_Jun_21_1058,Go No-Go Task,2021.1.4,119.8283579
EPracticeConditions/BlueEyes.csv,"Rule: When you see a blue image, do not press 'spacebar'.",Images/Happy/HF05_HO.jpg,Happy,Yellow,Images/Yellow.jpg,space,,,,,,,0,0,0,0,0,1,1,5,,,,,,,,,,,,,,,,,,,,,,,,,,,,,,,,,,,,,,,,,,,,,,,,,,,1.5,123.0298244,None,space,1,124.6530925,None,124.6530925,None,124.6530925,None,125.5742544,None,0.2727081,,,,,,,,,,,,,,,,,,,,,,,,,,,,,,,,,,,,,,,,,,,,,,,,,P053,FENCOG,2,Post,2022_Jun_21_1058,Go No-Go Task,2021.1.4,119.8283579
EPracticeConditions/BlueEyes.csv,"Rule: When you see a blue image, do not press 'spacebar'.",Images/Happy/BM08_HO.jpg,Happy,Yellow,Images/Yellow.jpg,space,,,,,,,0,0,0,0,0,2,2,3,,,,,,,,,,,,,,,,,,,,,,,,,,,,,,,,,,,,,,,,,,,,,,,,,,,1.2,127.5471,None,space,1,128.8600394,None,128.8600394,None,128.8600394,None,129.7644821,None,0.3057962,,,,,,,,,,,,,,,,,,,,,,,,,,,,,,,,,,,,,,,,,,,,,,,,,P053,FENCOG,2,Post,2022_Jun_21_1058,Go No-Go Task,2021.1.4,119.8283579
EPracticeConditions/BlueEyes.csv,"Rule: When you see a blue image, do not press 'spacebar'.",Images/Fearful/HM09_FC.jpg,Fear,Blue,Images/Blue.jpg,None,,,,,,,0,0,0,0,0,3,3,0,,,,,,,,,,,,,,,,,,,,,,,,,,,,,,,,,,,,,,,,,,,,,,,,,,,1.4,131.7600839,None,None,1,133.3004424,None,133.3004424,None,133.3004424,None,134.17161,None,,,,,,,,,,,,,,,,,,,,,,,,,,,,,,,,,,,,,,,,,,,,,,,,,,P053,FENCOG,2,Post,2022_Jun_21_1058,Go No-Go Task,2021.1.4,119.8283579
EPracticeConditions/BlueEyes.csv,"Rule: When you see a blue image, do not press 'spacebar'.",Images/Happy/HF04_HE.jpg,Happy,Yellow,Images/Yellow.jpg,space,,,,,,,0,0,0,0,0,4,4,4,,,,,,,,,,,,,,,,,,,,,,,,,,,,,,,,,,,,,,,,,,,,,,,,,,,1.8,136.1809844,None,space,1,138.0990437,None,138.0990437,None,138.0990437,None,138.9868044,None,0.306959,,,,,,,,,,,,,,,,,,,,,,,,,,,,,,,,,,,,,,,,,,,,,,,,,P053,FENCOG,2,Post,2022_Jun_21_1058,Go No-Go Task,2021.1.4,119.8283579
EPracticeConditions/BlueEyes.csv,"Rule: When you see a blue image, do not press 'spacebar'.",Images/Happy/BM02_HO.jpg,Happy,Yellow,Images/Yellow.jpg,space,,,,,,,0,0,0,0,0,5,5,2,,,,,,,,,,,,,,,,,,,,,,,,,,,,,,,,,,,,,,,,,,,,,,,,,,,1.6,140.9926353,None,space,1,142.7227022,None,142.7227022,None,142.7227022,None,143.6034548,None,0.3313437,,,,,,,,,,,,,,,,,,,,,,,,,,,,,,,,,,,,,,,,,,,,,,,,,P053,FENCOG,2,Post,2022_Jun_21_1058,Go No-Go Task,2021.1.4,119.8283579
EPracticeConditions/BlueEyes.csv,"Rule: When you see a blue image, do not press 'spacebar'.",Images/Fearful/AF01_FO.jpg,Fear,Blue,Images/Blue.jpg,None,,,,,,,0,0,0,0,0,6,6,1,,,,,,,,,,,,,,,,,,,,,,,,,,,,,,,,,,,,,,,,,,,,,,,,,,,1.7,145.6067662,None,None,1,147.4296012,None,147.4296012,None,147.4296012,None,148.3182992,None,,,,,,,,,,,,,,,,,,,,,,,,,,,,,,,,,,,,,,,,,,,,,,,,,,P053,FENCOG,2,Post,2022_Jun_21_1058,Go No-Go Task,2021.1.4,119.8283579
EPracticeConditions/BlueEyes.csv,"Rule: When you see a blue image, do not press 'spacebar'.",Images/Happy/HF10_HE.jpg,Happy,Yellow,Images/Yellow.jpg,space,,,,,,,0,0,0,0,0,7,7,7,,,,,,,,,,,,,,,,,,,,,,,,,,,,,,,,,,,,,,,,,,,,,,,,,,,1.9,150.3229124,None,space,1,152.3448809,None,152.3448809,None,152.3448809,None,153.2327405,None,0.3329302,,,,,,,,,,,,,,,,,,,,,,,,,,,,,,,,,,,,,,,,,,,,,,,,,P053,FENCOG,2,Post,2022_Jun_21_1058,Go No-Go Task,2021.1.4,119.8283579
EPracticeConditions/BlueEyes.csv,"Rule: When you see a blue image, do not press 'spacebar'.",,,,,,,,,,,,0,0,0,0,,,,,,,,,,,,,,,,,,,,,,,,,,,,,,,,,,,,,,,,,,,,,,,,,,,,,,,,,,,,,,,,,,,,,,,,,,,,,,,,,,,,,,,,,,,,,,,,,,,,,,,,,,,,,,,,,,,,,P053,FENCOG,2,Post,2022_Jun_21_1058,Go No-Go Task,2021.1.4,119.8283579
EPracticeConditions/YellowEyes.csv,"Rule: When you see a yellow image, do not press 'spacebar'.",Images/Fearful/AM19AFS.jpg,Fear,Blue,Images/Blue.jpg,space,,,,,,,0,1,1,1,0,0,0,4,,,,,,,,,,,,,,,,,,,,,,,,,,,,,,,,,,,,,155.300474,None,158.2922922,None,space,0.4571675,158.2922922,None,155.300474,None,155.300474,None,155.300474,None,1.8,158.7735262,None,None,0,160.7006179,None,160.7006179,None,160.7006179,None,161.5989324,None,,,,,,,,,,,,,,,,,,,,,,,,,,,,,,,,,,,,,,,,,,,,,,,,,,P053,FENCOG,2,Post,2022_Jun_21_1058,Go No-Go Task,2021.1.4,119.8283579
EPracticeConditions/YellowEyes.csv,"Rule: When you see a yellow image, do not press 'spacebar'.",Images/Fearful/AM17AFS.jpg,Fear,Blue,Images/Blue.jpg,space,,,,,,,0,1,1,1,0,1,1,3,,,,,,,,,,,,,,,,,,,,,,,,,,,,,,,,,,,,,,,,,,,,,,,,,,,1.2,163.5873059,None,space,1,164.9078129,None,164.9078129,None,164.9078129,None,165.7963569,None,0.3140212,,,,,,,,,,,,,,,,,,,,,,,,,,,,,,,,,,,,,,,,,,,,,,,,,P053,FENCOG,2,Post,2022_Jun_21_1058,Go No-Go Task,2021.1.4,119.8283579
EPracticeConditions/YellowEyes.csv,"Rule: When you see a yellow image, do not press 'spacebar'.",Images/Happy/AM32HAS.jpg,Happy,Yellow,Images/Yellow.jpg,None,,,,,,,0,1,1,1,0,2,2,0,,,,,,,,,,,,,,,,,,,,,,,,,,,,,,,,,,,,,,,,,,,,,,,,,,,1.5,167.8009419,None,None,1,169.4398159,None,169.4398159,None,169.4398159,None,170.3106982,None,,,,,,,,,,,,,,,,,,,,,,,,,,,,,,,,,,,,,,,,,,,,,,,,,,P053,FENCOG,2,Post,2022_Jun_21_1058,Go No-Go Task,2021.1.4,119.8283579
EPracticeConditions/YellowEyes.csv,"Rule: When you see a yellow image, do not press 'spacebar'.",Images/Fearful/AM24AFS.jpg,Fear,Blue,Images/Blue.jpg,space,,,,,,,0,1,1,1,0,3,3,7,,,,,,,,,,,,,,,,,,,,,,,,,,,,,,,,,,,,,,,,,,,,,,,,,,,1.3,172.3177595,None,space,1,173.7404287,None,173.7404287,None,173.7404287,None,174.6278342,None,0.2013304,,,,,,,,,,,,,,,,,,,,,,,,,,,,,,,,,,,,,,,,,,,,,,,,,P053,FENCOG,2,Post,2022_Jun_21_1058,Go No-Go Task,2021.1.4,119.8283579
EPracticeConditions/YellowEyes.csv,"Rule: When you see a yellow image, do not press 'spacebar'.",Images/Fearful/AM23AFS.jpg,Fear,Blue,Images/Blue.jpg,space,,,,,,,0,1,1,1,0,4,4,6,,,,,,,,,,,,,,,,,,,,,,,,,,,,,,,,,,,,,,,,,,,,,,,,,,,1.9,176.631649,None,space,1,178.6537244,None,178.6537244,None,178.6537244,None,179.5424618,None,0.3124967,,,,,,,,,,,,,,,,,,,,,,,,,,,,,,,,,,,,,,,,,,,,,,,,,P053,FENCOG,2,Post,2022_Jun_21_1058,Go No-Go Task,2021.1.4,119.8283579
EPracticeConditions/YellowEyes.csv,"Rule: When you see a yellow image, do not press 'spacebar'.",Images/Happy/BF05_HO.jpg,Happy,Yellow,Images/Yellow.jpg,None,,,,,,,0,1,1,1,0,5,5,1,,,,,,,,,,,,,,,,,,,,,,,,,,,,,,,,,,,,,,,,,,,,,,,,,,,1.4,181.5465969,None,None,1,183.0607909,None,183.0607909,None,183.0607909,None,183.9577529,None,,,,,,,,,,,,,,,,,,,,,,,,,,,,,,,,,,,,,,,,,,,,,,,,,,P053,FENCOG,2,Post,2022_Jun_21_1058,Go No-Go Task,2021.1.4,119.8283579
EPracticeConditions/YellowEyes.csv,"Rule: When you see a yellow image, do not press 'spacebar'.",Images/Fearful/AM16AFS.jpg,Fear,Blue,Images/Blue.jpg,space,,,,,,,0,1,1,1,0,6,6,2,,,,,,,,,,,,,,,,,,,,,,,,,,,,,,,,,,,,,,,,,,,,,,,,,,,1.6,185.9610328,None,space,1,187.6843146,None,187.6843146,None,187.6843146,None,188.5724037,None,0.2894627,,,,,,,,,,,,,,,,,,,,,,,,,,,,,,,,,,,,,,,,,,,,,,,,,P053,FENCOG,2,Post,2022_Jun_21_1058,Go No-Go Task,2021.1.4,119.8283579
EPracticeConditions/YellowEyes.csv,"Rule: When you see a yellow image, do not press 'spacebar'.",Images/Fearful/AM22AFS.jpg,Fear,Blue,Images/Blue.jpg,space,,,,,,,0,1,1,1,0,7,7,5,,,,,,,,,,,,,,,,,,,,,,,,,,,,,,,,,,,,,,,,,,,,,,,,,,,1.7,190.5762648,None,space,1,192.4080328,None,192.4080328,None,192.4080328,None,193.2814715,None,0.3170516,,,,,,,,,,,,,,,,,,,,,,,,,,,,,,,,,,,,,,,,,,,,,,,,,P053,FENCOG,2,Post,2022_Jun_21_1058,Go No-Go Task,2021.1.4,119.8283579
EPracticeConditions/YellowEyes.csv,"Rule: When you see a yellow image, do not press 'spacebar'.",,,,,,,,,,,,0,1,1,1,,,,,,,,,,,,,,,,,,,,,,,,,,,,,,,,,,,,,,,,,,,,,,,,,,,,,,,,,,,,,,,,,,,,,,,,,,,,,,,,,,,,,,,,,,,,,,,,,,,,,,,,,,,,,,,,,,,,,P053,FENCOG,2,Post,2022_Jun_21_1058,Go No-Go Task,2021.1.4,119.8283579
EPracticeConditions/BlueScram.csv,"Rule: When you see a blue image, do not press 'spacebar'.",Images/Scram1/BF18_NC.jpg,Scramble,Blue,Images/Blue.jpg,None,,,,,,,0,2,2,2,0,0,0,1,,,,,,,,,,,,,,,,,,,,,,,,,,,,,,,,,,,,,195.3046929,None,198.288821,None,space,0.5243061,198.288821,None,195.3046929,None,195.3046929,None,195.3046929,None,1.4,198.8438667,None,None,1,200.3473547,None,200.3473547,None,200.3473547,None,201.2461591,None,,,,,,,,,,,,,,,,,,,,,,,,,,,,,,,,,,,,,,,,,,,,,,,,,,P053,FENCOG,2,Post,2022_Jun_21_1058,Go No-Go Task,2021.1.4,119.8283579
EPracticeConditions/BlueScram.csv,"Rule: When you see a blue image, do not press 'spacebar'.",Images/Scram2/AF25NES.jpg,Scramble,Yellow,Images/Yellow.jpg,space,,,,,,,0,2,2,2,0,1,1,7,,,,,,,,,,,,,,,,,,,,,,,,,,,,,,,,,,,,,,,,,,,,,,,,,,,1.3,203.2504076,None,space,1,204.6709552,None,204.6709552,None,204.6709552,None,205.5597268,None,0.2709825,,,,,,,,,,,,,,,,,,,,,,,,,,,,,,,,,,,,,,,,,,,,,,,,,P053,FENCOG,2,Post,2022_Jun_21_1058,Go No-Go Task,2021.1.4,119.8283579
EPracticeConditions/BlueScram.csv,"Rule: When you see a blue image, do not press 'spacebar'.",Images/Scram2/AF10_NC.jpg,Scramble,Yellow,Images/Yellow.jpg,space,,,,,,,0,2,2,2,0,2,2,2,,,,,,,,,,,,,,,,,,,,,,,,,,,,,,,,,,,,,,,,,,,,,,,,,,,1.8,207.5647879,None,space,1,209.4945937,None,209.4945937,None,209.4945937,None,210.3759436,None,0.2712787,,,,,,,,,,,,,,,,,,,,,,,,,,,,,,,,,,,,,,,,,,,,,,,,,P053,FENCOG,2,Post,2022_Jun_21_1058,Go No-Go Task,2021.1.4,119.8283579
EPracticeConditions/BlueScram.csv,"Rule: When you see a blue image, do not press 'spacebar'.",Images/Scram1/BM08_NC.jpg,Scramble,Blue,Images/Blue.jpg,None,,,,,,,0,2,2,2,0,3,3,0,,,,,,,,,,,,,,,,,,,,,,,,,,,,,,,,,,,,,,,,,,,,,,,,,,,1.7,212.3792106,None,None,1,214.2020154,None,214.2020154,None,214.2020154,None,215.0898928,None,,,,,,,,,,,,,,,,,,,,,,,,,,,,,,,,,,,,,,,,,,,,,,,,,,P053,FENCOG,2,Post,2022_Jun_21_1058,Go No-Go Task,2021.1.4,119.8283579
EPracticeConditions/BlueScram.csv,"Rule: When you see a blue image, do not press 'spacebar'.",Images/Scram1/AM04_NC.jpg,Scramble,Yellow,Images/Yellow.jpg,space,,,,,,,0,2,2,2,0,4,4,3,,,,,,,,,,,,,,,,,,,,,,,,,,,,,,,,,,,,,,,,,,,,,,,,,,,1.9,217.0987224,None,space,1,219.1168305,None,219.1168305,None,219.1168305,None,220.0053231,None,0.2809562,,,,,,,,,,,,,,,,,,,,,,,,,,,,,,,,,,,,,,,,,,,,,,,,,P053,FENCOG,2,Post,2022_Jun_21_1058,Go No-Go Task,2021.1.4,119.8283579
EPracticeConditions/BlueScram.csv,"Rule: When you see a blue image, do not press 'spacebar'.",Images/Scram1/AM03NES.jpg,Scramble,Yellow,Images/Yellow.jpg,space,,,,,,,0,2,2,2,0,5,5,4,,,,,,,,,,,,,,,,,,,,,,,,,,,,,,,,,,,,,,,,,,,,,,,,,,,1.2,222.0066106,None,space,1,223.3321232,None,223.3321232,None,223.3321232,None,224.2207151,None,0.3138306,,,,,,,,,,,,,,,,,,,,,,,,,,,,,,,,,,,,,,,,,,,,,,,,,P053,FENCOG,2,Post,2022_Jun_21_1058,Go No-Go Task,2021.1.4,119.8283579
EPracticeConditions/BlueScram.csv,"Rule: When you see a blue image, do not press 'spacebar'.",Images/Scram2/AM03_NC.jpg,Scramble,Yellow,Images/Yellow.jpg,space,,,,,,,0,2,2,2,0,6,6,6,,,,,,,,,,,,,,,,,,,,,,,,,,,,,,,,,,,,,,,,,,,,,,,,,,,1.6,226.2168727,None,space,1,227.9392091,None,227.9392091,None,227.9392091,None,228.8285504,None,0.3149234,,,,,,,,,,,,,,,,,,,,,,,,,,,,,,,,,,,,,,,,,,,,,,,,,P053,FENCOG,2,Post,2022_Jun_21_1058,Go No-Go Task,2021.1.4,119.8283579
EPracticeConditions/BlueScram.csv,"Rule: When you see a blue image, do not press 'spacebar'.",Images/Scram1/AM13NES.jpg,Scramble,Yellow,Images/Yellow.jpg,space,,,,,,,0,2,2,2,0,7,7,5,,,,,,,,,,,,,,,,,,,,,,,,,,,,,,,,,,,,,,,,,,,,,,,,,,,1.5,230.8288384,None,space,1,232.4373821,None,232.4373821,None,232.4373821,None,233.3279439,None,0.3278016,,,,,,,,,,,,,,,,,,,,,,,,,,,,,,,,,,,,,,,,,,,,,,,,,P053,FENCOG,2,Post,2022_Jun_21_1058,Go No-Go Task,2021.1.4,119.8283579
EPracticeConditions/BlueScram.csv,"Rule: When you see a blue image, do not press 'spacebar'.",,,,,,,,,,,,0,2,2,2,,,,,,,,,,,,,,,,,,,,,,,,,,,,,,,,,,,,,,,,,,,,,,,,,,,,,,,,,,,,,,,,,,,,,,,,,,,,,,,,,,,,,,,,,,,,,,,,,,,,,,,,,,,,,,,,,,,,,P053,FENCOG,2,Post,2022_Jun_21_1058,Go No-Go Task,2021.1.4,119.8283579
EPracticeConditions/YellowScram.csv,"Rule: When you see a yellow image, do not press 'spacebar'.",Images/Scram1/AF07NES.jpg,Scramble,Blue,Images/Blue.jpg,space,,,,,,,0,3,3,3,0,0,0,3,,,,,,,,,,,,,,,,,,,,,,,,,,,,,,,,,,,,,235.338491,None,238.3271196,None,space,0.3579362,238.3271196,None,235.338491,None,235.338491,None,235.338491,None,1.8,238.7137852,None,space,1,240.6353549,None,240.6353549,None,240.6353549,None,241.5318803,None,0.3467235,,,,,,,,,,,,,,,,,,,,,,,,,,,,,,,,,,,,,,,,,,,,,,,,,P053,FENCOG,2,Post,2022_Jun_21_1058,Go No-Go Task,2021.1.4,119.8283579
EPracticeConditions/YellowScram.csv,"Rule: When you see a yellow image, do not press 'spacebar'.",Images/Scram1/AF10_NC.jpg,Scramble,Blue,Images/Blue.jpg,space,,,,,,,0,3,3,3,0,1,1,6,,,,,,,,,,,,,,,,,,,,,,,,,,,,,,,,,,,,,,,,,,,,,,,,,,,1.7,243.5287705,None,space,1,245.350675,None,245.350675,None,245.350675,None,246.2402359,None,0.2870519,,,,,,,,,,,,,,,,,,,,,,,,,,,,,,,,,,,,,,,,,,,,,,,,,P053,FENCOG,2,Post,2022_Jun_21_1058,Go No-Go Task,2021.1.4,119.8283579
EPracticeConditions/YellowScram.csv,"Rule: When you see a yellow image, do not press 'spacebar'.",Images/Scram2/HM06_NC.jpg,Scramble,Yellow,Images/Yellow.jpg,None,,,,,,,0,3,3,3,0,2,2,0,,,,,,,,,,,,,,,,,,,,,,,,,,,,,,,,,,,,,,,,,,,,,,,,,,,1.9,248.2438777,None,None,1,250.2659651,None,250.2659651,None,250.2659651,None,251.155916,None,,,,,,,,,,,,,,,,,,,,,,,,,,,,,,,,,,,,,,,,,,,,,,,,,,P053,FENCOG,2,Post,2022_Jun_21_1058,Go No-Go Task,2021.1.4,119.8283579
EPracticeConditions/YellowScram.csv,"Rule: When you see a yellow image, do not press 'spacebar'.",Images/Scram1/AF24NES.jpg,Scramble,Blue,Images/Blue.jpg,space,,,,,,,0,3,3,3,0,3,3,7,,,,,,,,,,,,,,,,,,,,,,,,,,,,,,,,,,,,,,,,,,,,,,,,,,,1.6,253.159169,None,space,1,254.8812461,None,254.8812461,None,254.8812461,None,255.7691219,None,0.2603989,,,,,,,,,,,,,,,,,,,,,,,,,,,,,,,,,,,,,,,,,,,,,,,,,P053,FENCOG,2,Post,2022_Jun_21_1058,Go No-Go Task,2021.1.4,119.8283579
EPracticeConditions/YellowScram.csv,"Rule: When you see a yellow image, do not press 'spacebar'.",Images/Scram1/HF04_NC.jpg,Scramble,Blue,Images/Blue.jpg,space,,,,,,,0,3,3,3,0,4,4,2,,,,,,,,,,,,,,,,,,,,,,,,,,,,,,,,,,,,,,,,,,,,,,,,,,,1.2,257.7754875,None,None,0,259.0966712,None,259.0966712,None,259.0966712,None,259.9863889,None,,,,,,,,,,,,,,,,,,,,,,,,,,,,,,,,,,,,,,,,,,,,,,,,,,P053,FENCOG,2,Post,2022_Jun_21_1058,Go No-Go Task,2021.1.4,119.8283579
EPracticeConditions/YellowScram.csv,"Rule: When you see a yellow image, do not press 'spacebar'.",Images/Scram2/AM03NES.jpg,Scramble,Yellow,Images/Yellow.jpg,None,,,,,,,0,3,3,3,0,5,5,1,,,,,,,,,,,,,,,,,,,,,,,,,,,,,,,,,,,,,,,,,,,,,,,,,,,1.3,261.9897235,None,None,1,263.4121032,None,263.4121032,None,263.4121032,None,264.3004647,None,,,,,,,,,,,,,,,,,,,,,,,,,,,,,,,,,,,,,,,,,,,,,,,,,,P053,FENCOG,2,Post,2022_Jun_21_1058,Go No-Go Task,2021.1.4,119.8283579
EPracticeConditions/YellowScram.csv,"Rule: When you see a yellow image, do not press 'spacebar'.",Images/Scram1/AF30NES.JPG,Scramble,Blue,Images/Blue.jpg,space,,,,,,,0,3,3,3,0,6,6,4,,,,,,,,,,,,,,,,,,,,,,,,,,,,,,,,,,,,,,,,,,,,,,,,,,,1.5,266.3072062,None,space,1,267.9273095,None,267.9273095,None,267.9273095,None,268.8163208,None,0.2623665,,,,,,,,,,,,,,,,,,,,,,,,,,,,,,,,,,,,,,,,,,,,,,,,,P053,FENCOG,2,Post,2022_Jun_21_1058,Go No-Go Task,2021.1.4,119.8283579
EPracticeConditions/YellowScram.csv,"Rule: When you see a yellow image, do not press 'spacebar'.",Images/Scram1/BM01_NC.jpg,Scramble,Blue,Images/Blue.jpg,space,,,,,,,0,3,3,3,0,7,7,5,,,,,,,,,,,,,,,,,,,,,,,,,,,,,,,,,,,,,,,,,,,,,,,,,,,1.4,270.8209456,None,space,1,272.3510876,None,272.3510876,None,272.3510876,None,273.2236952,None,0.2468413,,,,,,,,,,,,,,,,,,,,,,,,,,,,,,,,,,,,,,,,,,,,,,,,,P053,FENCOG,2,Post,2022_Jun_21_1058,Go No-Go Task,2021.1.4,119.8283579
EPracticeConditions/YellowScram.csv,"Rule: When you see a yellow image, do not press 'spacebar'.",,,,,,,,,,,,0,3,3,3,,,,,,,,,,,,,,,,,,,,,,,,,,,,,,,,,,,,,,,,,,,,,,,,,,,,,,,,,,,,,,,,,,,,,,,,,,,,,,,,,,,,,,,,,,,,,,,,,,,,,,,,,,,,,,,,,,,,,P053,FENCOG,2,Post,2022_Jun_21_1058,Go No-Go Task,2021.1.4,119.8283579
,,,,,,,,,,,,,,,,,,,,,,,,,,,,,,,,,,,,,,,,,,,,,,,,,,,,,,,,,,,,,,,,,,,,,,,,,,,,,,,,,,,,,276.7739773,None,space,6.2863126,277.2550903,None,,,,,,,,,,,,,,,,,,,,,,,,,,,,,,,,,,,,,,,,,,,P053,FENCOG,2,Post,2022_Jun_21_1058,Go No-Go Task,2021.1.4,119.8283579
,,,,,,,,,,,,,,,,,,,,,,,,,,,,,,,,,,,,,,,,,,,,,,,,,,,,,,,,,,,,,,,,,,,,,,,,,,,,,,,,,,,,,,,,,,,283.5547382,None,space,1.0199621,283.5547382,None,,,,,,,,,,,,,,,,,,,,,,,,,,,,,,,,,,,,,P053,FENCOG,2,Post,2022_Jun_21_1058,Go No-Go Task,2021.1.4,119.8283579
,"Rule: When you see a yellow image, do not press 'spacebar'.",Images/Happy/BF09_HO.jpg,Happy,Blue,Images/Blue.jpg,space,ParentConditions/YellowYellowBlue_v2.xlsx,YellowYellowBlue,Conditions/Version_2/YellowFearStop.xlsx,no,PASS,0.200968574,,,,,,,,,0,0,0,1,0,0,0,0,0,0,0,0,,,,,,,,,,,,,,,,,,,,,,,,,,,,,,,,,,,,,,,,,,,,,,,,,,,,,,,,,,,,,,,,,284.6966229,None,287.6790689,None,space,0.566052,287.6790689,None,284.6966229,None,284.6966229,None,284.6966229,None,1.35,288.3137187,None,None,0,289.7795854,None,289.7795854,None,289.7795854,None,,,,,,,,,,,,P053,FENCOG,2,Post,2022_Jun_21_1058,Go No-Go Task,2021.1.4,119.8283579
,"Rule: When you see a yellow image, do not press 'spacebar'.",Images/Happy/AF30HAS.jpg,Happy,Blue,Images/Blue.jpg,space,ParentConditions/YellowYellowBlue_v2.xlsx,YellowYellowBlue,Conditions/Version_2/YellowFearStop.xlsx,no,PASS,0.967956144,,,,,,,,,0,0,0,1,0,0,0,0,0,1,1,1,,,,,,,,,,,,,,,,,,,,,,,,,,,,,,,,,,,,,,,,,,,,,,,,,,,,,,,,,,,,,,,,,,,,,,,,,,,,,,,1.83,290.1861901,None,space,1,292.1452283,None,292.1452283,None,292.1452283,None,0.3325249,,,,,,,,,,,P053,FENCOG,2,Post,2022_Jun_21_1058,Go No-Go Task,2021.1.4,119.8283579
,"Rule: When you see a yellow image, do not press 'spacebar'.",Images/Happy/AF27HAS.jpg,Happy,Blue,Images/Blue.jpg,space,ParentConditions/YellowYellowBlue_v2.xlsx,YellowYellowBlue,Conditions/Version_2/YellowFearStop.xlsx,no,PASS,0.024466482,,,,,,,,,0,0,0,1,0,0,0,0,0,2,2,2,,,,,,,,,,,,,,,,,,,,,,,,,,,,,,,,,,,,,,,,,,,,,,,,,,,,,,,,,,,,,,,,,,,,,,,,,,,,,,,1.48,292.5343915,None,space,1,294.1363084,None,294.1363084,None,294.1363084,None,0.2612418,,,,,,,,,,,P053,FENCOG,2,Post,2022_Jun_21_1058,Go No-Go Task,2021.1.4,119.8283579
,"Rule: When you see a yellow image, do not press 'spacebar'.",Images/Happy/AF22HAS.jpg,Happy,Blue,Images/Blue.jpg,space,ParentConditions/YellowYellowBlue_v2.xlsx,YellowYellowBlue,Conditions/Version_2/YellowFearStop.xlsx,no,PASS,0.900419425,,,,,,,,,0,0,0,1,0,0,0,0,0,3,3,3,,,,,,,,,,,,,,,,,,,,,,,,,,,,,,,,,,,,,,,,,,,,,,,,,,,,,,,,,,,,,,,,,,,,,,,,,,,,,,,1.97,294.5268238,None,space,1,296.6272512,None,296.6272512,None,296.6272512,None,0.258485,,,,,,,,,,,P053,FENCOG,2,Post,2022_Jun_21_1058,Go No-Go Task,2021.1.4,119.8283579
,"Rule: When you see a yellow image, do not press 'spacebar'.",Images/Happy/WM11_HC.jpg,Happy,Blue,Images/Blue.jpg,space,ParentConditions/YellowYellowBlue_v2.xlsx,YellowYellowBlue,Conditions/Version_2/YellowFearStop.xlsx,no,PASS,0.504208106,,,,,,,,,0,0,0,1,0,0,0,0,0,4,4,4,,,,,,,,,,,,,,,,,,,,,,,,,,,,,,,,,,,,,,,,,,,,,,,,,,,,,,,,,,,,,,,,,,,,,,,,,,,,,,,1.96,297.0097146,None,space,1,299.0847447,None,299.0847447,None,299.0847447,None,0.232951,,,,,,,,,,,P053,FENCOG,2,Post,2022_Jun_21_1058,Go No-Go Task,2021.1.4,119.8283579
,"Rule: When you see a yellow image, do not press 'spacebar'.",Images/Happy/BF05_HO.jpg,Happy,Blue,Images/Blue.jpg,space,ParentConditions/YellowYellowBlue_v2.xlsx,YellowYellowBlue,Conditions/Version_2/YellowFearStop.xlsx,no,PASS,0.668772063,,,,,,,,,0,0,0,1,0,0,0,0,0,5,5,5,,,,,,,,,,,,,,,,,,,,,,,,,,,,,,,,,,,,,,,,,,,,,,,,,,,,,,,,,,,,,,,,,,,,,,,,,,,,,,,1.21,299.4838335,None,space,1,300.8092256,None,300.8092256,None,300.8092256,None,0.3163346,,,,,,,,,,,P053,FENCOG,2,Post,2022_Jun_21_1058,Go No-Go Task,2021.1.4,119.8283579
,"Rule: When you see a yellow image, do not press 'spacebar'.",Images/Fearful/AM01AFS.jpg,Fear,Yellow,Images/Yellow.jpg,None,ParentConditions/YellowYellowBlue_v2.xlsx,YellowYellowBlue,Conditions/Version_2/YellowFearStop.xlsx,yes,PASS,0.008120847,,,,,,,,,0,0,0,1,0,0,0,0,0,6,6,6,,,,,,,,,,,,,,,,,,,,,,,,,,,,,,,,,,,,,,,,,,,,,,,,,,,,,,,,,,,,,,,,,,,,,,,,,,,,,,,1.87,301.2143952,None,space,0,303.2168181,None,303.2168181,None,303.2168181,None,0.2372043,,,,,,,,,,,P053,FENCOG,2,Post,2022_Jun_21_1058,Go No-Go Task,2021.1.4,119.8283579
,"Rule: When you see a yellow image, do not press 'spacebar'.",Images/Happy/AF23HAS.jpg,Happy,Blue,Images/Blue.jpg,space,ParentConditions/YellowYellowBlue_v2.xlsx,YellowYellowBlue,Conditions/Version_2/YellowFearStop.xlsx,no,PASS,0.070231989,,,,,,,,,0,0,0,1,0,0,0,0,0,7,7,7,,,,,,,,,,,,,,,,,,,,,,,,,,,,,,,,,,,,,,,,,,,,,,,,,,,,,,,,,,,,,,,,,,,,,,,,,,,,,,,1.91,303.5967683,None,space,1,305.6328061,None,305.6328061,None,305.6328061,None,0.2766937,,,,,,,,,,,P053,FENCOG,2,Post,2022_Jun_21_1058,Go No-Go Task,2021.1.4,119.8283579
,"Rule: When you see a yellow image, do not press 'spacebar'.",Images/Happy/AM16HAS.jpg,Happy,Blue,Images/Blue.jpg,space,ParentConditions/YellowYellowBlue_v2.xlsx,YellowYellowBlue,Conditions/Version_2/YellowFearStop.xlsx,no,PASS,0.031804034,,,,,,,,,0,0,0,1,0,0,0,0,0,8,8,8,,,,,,,,,,,,,,,,,,,,,,,,,,,,,,,,,,,,,,,,,,,,,,,,,,,,,,,,,,,,,,,,,,,,,,,,,,,,,,,1.28,306.0134724,None,space,1,307.4240074,None,307.4240074,None,307.4240074,None,0.3336753,,,,,,,,,,,P053,FENCOG,2,Post,2022_Jun_21_1058,Go No-Go Task,2021.1.4,119.8283579
,"Rule: When you see a yellow image, do not press 'spacebar'.",Images/Happy/AM04HAS.jpg,Happy,Blue,Images/Blue.jpg,space,ParentConditions/YellowYellowBlue_v2.xlsx,YellowYellowBlue,Conditions/Version_2/YellowFearStop.xlsx,no,PASS,0.000212135,,,,,,,,,0,0,0,1,0,0,0,0,0,9,9,9,,,,,,,,,,,,,,,,,,,,,,,,,,,,,,,,,,,,,,,,,,,,,,,,,,,,,,,,,,,,,,,,,,,,,,,,,,,,,,,1.9,307.8038718,None,space,1,309.8315561,None,309.8315561,None,309.8315561,None,0.2221523,,,,,,,,,,,P053,FENCOG,2,Post,2022_Jun_21_1058,Go No-Go Task,2021.1.4,119.8283579
,"Rule: When you see a yellow image, do not press 'spacebar'.",Images/Happy/AF26HAS.jpg,Happy,Blue,Images/Blue.jpg,space,ParentConditions/YellowYellowBlue_v2.xlsx,YellowYellowBlue,Conditions/Version_2/YellowFearStop.xlsx,no,PASS,0.408079602,,,,,,,,,0,0,0,1,0,0,0,0,0,10,10,10,,,,,,,,,,,,,,,,,,,,,,,,,,,,,,,,,,,,,,,,,,,,,,,,,,,,,,,,,,,,,,,,,,,,,,,,,,,,,,,1.42,310.2205441,None,space,1,311.7726488,None,311.7726488,None,311.7726488,None,0.2888509,,,,,,,,,,,P053,FENCOG,2,Post,2022_Jun_21_1058,Go No-Go Task,2021.1.4,119.8283579
,"Rule: When you see a yellow image, do not press 'spacebar'.",Images/Fearful/AF10_FC.jpg,Fear,Yellow,Images/Yellow.jpg,None,ParentConditions/YellowYellowBlue_v2.xlsx,YellowYellowBlue,Conditions/Version_2/YellowFearStop.xlsx,yes,PASS,0.431183679,,,,,,,,,0,0,0,1,0,0,0,0,0,11,11,11,,,,,,,,,,,,,,,,,,,,,,,,,,,,,,,,,,,,,,,,,,,,,,,,,,,,,,,,,,,,,,,,,,,,,,,,,,,,,,,1.53,312.1621281,None,space,0,313.8137234,None,313.8137234,None,313.8137234,None,0.2480281,,,,,,,,,,,P053,FENCOG,2,Post,2022_Jun_21_1058,Go No-Go Task,2021.1.4,119.8283579
,"Rule: When you see a yellow image, do not press 'spacebar'.",Images/Fearful/AM09_FO.jpg,Fear,Yellow,Images/Yellow.jpg,None,ParentConditions/YellowYellowBlue_v2.xlsx,YellowYellowBlue,Conditions/Version_2/YellowFearStop.xlsx,yes,PASS,0.253243813,,,,,,,,,0,0,0,1,0,0,0,0,0,12,12,12,,,,,,,,,,,,,,,,,,,,,,,,,,,,,,,,,,,,,,,,,,,,,,,,,,,,,,,,,,,,,,,,,,,,,,,,,,,,,,,1.77,314.2058991,None,None,1,316.09643,None,316.09643,None,316.09643,None,,,,,,,,,,,,P053,FENCOG,2,Post,2022_Jun_21_1058,Go No-Go Task,2021.1.4,119.8283579
,"Rule: When you see a yellow image, do not press 'spacebar'.",Images/Happy/HM04_HO.jpg,Happy,Blue,Images/Blue.jpg,space,ParentConditions/YellowYellowBlue_v2.xlsx,YellowYellowBlue,Conditions/Version_2/YellowFearStop.xlsx,no,PASS,0.407242513,,,,,,,,,0,0,0,1,0,0,0,0,0,13,13,13,,,,,,,,,,,,,,,,,,,,,,,,,,,,,,,,,,,,,,,,,,,,,,,,,,,,,,,,,,,,,,,,,,,,,,,,,,,,,,,1.24,316.4848632,None,space,1,317.8542588,None,317.8542588,None,317.8542588,None,0.287306,,,,,,,,,,,P053,FENCOG,2,Post,2022_Jun_21_1058,Go No-Go Task,2021.1.4,119.8283579
,"Rule: When you see a yellow image, do not press 'spacebar'.",Images/Fearful/AM04_FO.jpg,Fear,Yellow,Images/Yellow.jpg,None,ParentConditions/YellowYellowBlue_v2.xlsx,YellowYellowBlue,Conditions/Version_2/YellowFearStop.xlsx,yes,PASS,0.728825656,,,,,,,,,0,0,0,1,0,0,0,0,0,14,14,14,,,,,,,,,,,,,,,,,,,,,,,,,,,,,,,,,,,,,,,,,,,,,,,,,,,,,,,,,,,,,,,,,,,,,,,,,,,,,,,1.37,318.2369176,None,None,1,319.7369408,None,319.7369408,None,319.7369408,None,,,,,,,,,,,,P053,FENCOG,2,Post,2022_Jun_21_1058,Go No-Go Task,2021.1.4,119.8283579
,"Rule: When you see a yellow image, do not press 'spacebar'.",Images/Happy/AM13HAS.jpg,Happy,Blue,Images/Blue.jpg,space,ParentConditions/YellowYellowBlue_v2.xlsx,YellowYellowBlue,Conditions/Version_2/YellowFearStop.xlsx,no,PASS,0.940548452,,,,,,,,,0,0,0,1,0,0,0,0,0,15,15,15,,,,,,,,,,,,,,,,,,,,,,,,,,,,,,,,,,,,,,,,,,,,,,,,,,,,,,,,,,,,,,,,,,,,,,,,,,,,,,,1.25,320.1171279,None,space,1,321.4948565,None,321.4948565,None,321.4948565,None,0.1588039,,,,,,,,,,,P053,FENCOG,2,Post,2022_Jun_21_1058,Go No-Go Task,2021.1.4,119.8283579
,"Rule: When you see a yellow image, do not press 'spacebar'.",Images/Fearful/AF09AFS.jpg,Fear,Yellow,Images/Yellow.jpg,None,ParentConditions/YellowYellowBlue_v2.xlsx,YellowYellowBlue,Conditions/Version_2/YellowFearStop.xlsx,yes,PASS,0.646488179,,,,,,,,,0,0,0,1,0,0,0,0,0,16,16,16,,,,,,,,,,,,,,,,,,,,,,,,,,,,,,,,,,,,,,,,,,,,,,,,,,,,,,,,,,,,,,,,,,,,,,,,,,,,,,,1.39,321.8760565,None,space,0,323.4025623,None,323.4025623,None,323.4025623,None,0.2431177,,,,,,,,,,,P053,FENCOG,2,Post,2022_Jun_21_1058,Go No-Go Task,2021.1.4,119.8283579
,"Rule: When you see a yellow image, do not press 'spacebar'.",Images/Fearful/BF05_FO.jpg,Fear,Yellow,Images/Yellow.jpg,None,ParentConditions/YellowYellowBlue_v2.xlsx,YellowYellowBlue,Conditions/Version_2/YellowFearStop.xlsx,yes,PASS,0.375092615,,,,,,,,,0,0,0,1,0,0,0,0,0,17,17,17,,,,,,,,,,,,,,,,,,,,,,,,,,,,,,,,,,,,,,,,,,,,,,,,,,,,,,,,,,,,,,,,,,,,,,,,,,,,,,,1.71,323.7831458,None,None,1,325.6191508,None,325.6191508,None,325.6191508,None,,,,,,,,,,,,P053,FENCOG,2,Post,2022_Jun_21_1058,Go No-Go Task,2021.1.4,119.8283579
,"Rule: When you see a yellow image, do not press 'spacebar'.",Images/Happy/AM24HAS.jpg,Happy,Blue,Images/Blue.jpg,space,ParentConditions/YellowYellowBlue_v2.xlsx,YellowYellowBlue,Conditions/Version_2/YellowFearStop.xlsx,no,PASS,0.016158037,,,,,,,,,0,0,0,1,0,0,0,0,0,18,18,18,,,,,,,,,,,,,,,,,,,,,,,,,,,,,,,,,,,,,,,,,,,,,,,,,,,,,,,,,,,,,,,,,,,,,,,,,,,,,,,1.85,326.0062738,None,space,1,327.9761877,None,327.9761877,None,327.9761877,None,0.2775585,,,,,,,,,,,P053,FENCOG,2,Post,2022_Jun_21_1058,Go No-Go Task,2021.1.4,119.8283579
,"Rule: When you see a yellow image, do not press 'spacebar'.",Images/Fearful/AF11AFS.jpg,Fear,Yellow,Images/Yellow.jpg,None,ParentConditions/YellowYellowBlue_v2.xlsx,YellowYellowBlue,Conditions/Version_2/YellowFearStop.xlsx,yes,PASS,0.337155436,,,,,,,,,0,0,0,1,0,0,0,0,0,19,19,19,,,,,,,,,,,,,,,,,,,,,,,,,,,,,,,,,,,,,,,,,,,,,,,,,,,,,,,,,,,,,,,,,,,,,,,,,,,,,,,1.57,328.3684623,None,None,1,330.0589783,None,330.0589783,None,330.0589783,None,,,,,,,,,,,,P053,FENCOG,2,Post,2022_Jun_21_1058,Go No-Go Task,2021.1.4,119.8283579
,"Rule: When you see a yellow image, do not press 'spacebar'.",Images/Happy/AF01_HE.jpg,Happy,Blue,Images/Blue.jpg,space,ParentConditions/YellowYellowBlue_v2.xlsx,YellowYellowBlue,Conditions/Version_2/YellowFearStop.xlsx,no,PASS,0.097708726,,,,,,,,,0,0,0,1,0,0,0,0,0,20,20,20,,,,,,,,,,,,,,,,,,,,,,,,,,,,,,,,,,,,,,,,,,,,,,,,,,,,,,,,,,,,,,,,,,,,,,,,,,,,,,,1.81,330.4538465,None,space,1,332.3832206,None,332.3832206,None,332.3832206,None,0.2786734,,,,,,,,,,,P053,FENCOG,2,Post,2022_Jun_21_1058,Go No-Go Task,2021.1.4,119.8283579
,"Rule: When you see a yellow image, do not press 'spacebar'.",Images/Happy/AM10_HO.jpg,Happy,Blue,Images/Blue.jpg,space,ParentConditions/YellowYellowBlue_v2.xlsx,YellowYellowBlue,Conditions/Version_2/YellowFearStop.xlsx,no,PASS,0.358031869,,,,,,,,,0,0,0,1,0,0,0,0,0,21,21,21,,,,,,,,,,,,,,,,,,,,,,,,,,,,,,,,,,,,,,,,,,,,,,,,,,,,,,,,,,,,,,,,,,,,,,,,,,,,,,,1.36,332.7770623,None,space,1,334.2576674,None,334.2576674,None,334.2576674,None,0.3001974,,,,,,,,,,,P053,FENCOG,2,Post,2022_Jun_21_1058,Go No-Go Task,2021.1.4,119.8283579
,"Rule: When you see a yellow image, do not press 'spacebar'.",Images/Happy/AF09HAS.jpg,Happy,Blue,Images/Blue.jpg,space,ParentConditions/YellowYellowBlue_v2.xlsx,YellowYellowBlue,Conditions/Version_2/YellowFearStop.xlsx,no,PASS,0.209028908,,,,,,,,,0,0,0,1,0,0,0,0,0,22,22,22,,,,,,,,,,,,,,,,,,,,,,,,,,,,,,,,,,,,,,,,,,,,,,,,,,,,,,,,,,,,,,,,,,,,,,,,,,,,,,,1.89,334.6536248,None,space,1,336.665294,None,336.665294,None,336.665294,None,0.2605429,,,,,,,,,,,P053,FENCOG,2,Post,2022_Jun_21_1058,Go No-Go Task,2021.1.4,119.8283579
,"Rule: When you see a yellow image, do not press 'spacebar'.",Images/Happy/BM02_HO.jpg,Happy,Blue,Images/Blue.jpg,space,ParentConditions/YellowYellowBlue_v2.xlsx,YellowYellowBlue,Conditions/Version_2/YellowFearStop.xlsx,no,PASS,0.673274105,,,,,,,,,0,0,0,1,0,0,0,0,0,23,23,23,,,,,,,,,,,,,,,,,,,,,,,,,,,,,,,,,,,,,,,,,,,,,,,,,,,,,,,,,,,,,,,,,,,,,,,,,,,,,,,1.84,337.0563775,None,space,1,339.0063833,None,339.0063833,None,339.0063833,None,0.2472572,,,,,,,,,,,P053,FENCOG,2,Post,2022_Jun_21_1058,Go No-Go Task,2021.1.4,119.8283579
,"Rule: When you see a yellow image, do not press 'spacebar'.",Images/Happy/AM09_HE.jpg,Happy,Blue,Images/Blue.jpg,space,ParentConditions/YellowYellowBlue_v2.xlsx,YellowYellowBlue,Conditions/Version_2/YellowFearStop.xlsx,no,PASS,0.606507822,,,,,,,,,0,0,0,1,0,0,0,0,0,24,24,24,,,,,,,,,,,,,,,,,,,,,,,,,,,,,,,,,,,,,,,,,,,,,,,,,,,,,,,,,,,,,,,,,,,,,,,,,,,,,,,1.64,339.4070004,None,space,1,341.1556466,None,341.1556466,None,341.1556466,None,0.2901036,,,,,,,,,,,P053,FENCOG,2,Post,2022_Jun_21_1058,Go No-Go Task,2021.1.4,119.8283579
,"Rule: When you see a yellow image, do not press 'spacebar'.",Images/Happy/AF10_HE.jpg,Happy,Blue,Images/Blue.jpg,space,ParentConditions/YellowYellowBlue_v2.xlsx,YellowYellowBlue,Conditions/Version_2/YellowFearStop.xlsx,no,PASS,0.68699688,,,,,,,,,0,0,0,1,0,0,0,0,0,25,25,25,,,,,,,,,,,,,,,,,,,,,,,,,,,,,,,,,,,,,,,,,,,,,,,,,,,,,,,,,,,,,,,,,,,,,,,,,,,,,,,1.86,341.5553447,None,space,1,343.5382594,None,343.5382594,None,343.5382594,None,0.2197674,,,,,,,,,,,P053,FENCOG,2,Post,2022_Jun_21_1058,Go No-Go Task,2021.1.4,119.8283579
,"Rule: When you see a yellow image, do not press 'spacebar'.",Images/Happy/BM01_HO.jpg,Happy,Blue,Images/Blue.jpg,space,ParentConditions/YellowYellowBlue_v2.xlsx,YellowYellowBlue,Conditions/Version_2/YellowFearStop.xlsx,no,PASS,0.5538207,,,,,,,,,0,0,0,1,0,0,0,0,0,26,26,26,,,,,,,,,,,,,,,,,,,,,,,,,,,,,,,,,,,,,,,,,,,,,,,,,,,,,,,,,,,,,,,,,,,,,,,,,,,,,,,1.46,343.925737,None,space,1,345.5126706,None,345.5126706,None,345.5126706,None,0.2685105,,,,,,,,,,,P053,FENCOG,2,Post,2022_Jun_21_1058,Go No-Go Task,2021.1.4,119.8283579
,"Rule: When you see a yellow image, do not press 'spacebar'.",Images/Fearful/AF07_FO.jpg,Fear,Yellow,Images/Yellow.jpg,None,ParentConditions/YellowYellowBlue_v2.xlsx,YellowYellowBlue,Conditions/Version_2/YellowFearStop.xlsx,yes,PASS,0.568987932,,,,,,,,,0,0,0,1,0,0,0,0,0,27,27,27,,,,,,,,,,,,,,,,,,,,,,,,,,,,,,,,,,,,,,,,,,,,,,,,,,,,,,,,,,,,,,,,,,,,,,,,,,,,,,,1.34,345.9011996,None,None,1,347.3704387,None,347.3704387,None,347.3704387,None,,,,,,,,,,,,P053,FENCOG,2,Post,2022_Jun_21_1058,Go No-Go Task,2021.1.4,119.8283579
,"Rule: When you see a yellow image, do not press 'spacebar'.",Images/Happy/BF18_HO.jpg,Happy,Blue,Images/Blue.jpg,space,ParentConditions/YellowYellowBlue_v2.xlsx,YellowYellowBlue,Conditions/Version_2/YellowFearStop.xlsx,no,PASS,0.252890825,,,,,,,,,0,0,0,1,0,0,0,0,0,28,28,28,,,,,,,,,,,,,,,,,,,,,,,,,,,,,,,,,,,,,,,,,,,,,,,,,,,,,,,,,,,,,,,,,,,,,,,,,,,,,,,1.73,347.7555193,None,space,1,349.6032038,None,349.6032038,None,349.6032038,None,0.1940254,,,,,,,,,,,P053,FENCOG,2,Post,2022_Jun_21_1058,Go No-Go Task,2021.1.4,119.8283579
,"Rule: When you see a yellow image, do not press 'spacebar'.",Images/Happy/AM03HAS.jpg,Happy,Blue,Images/Blue.jpg,space,ParentConditions/YellowYellowBlue_v2.xlsx,YellowYellowBlue,Conditions/Version_2/YellowFearStop.xlsx,no,PASS,0.612970552,,,,,,,,,0,0,0,1,0,0,0,0,0,29,29,29,,,,,,,,,,,,,,,,,,,,,,,,,,,,,,,,,,,,,,,,,,,,,,,,,,,,,,,,,,,,,,,,,,,,,,,,,,,,,,,1.66,349.9972946,None,space,1,351.7858367,None,351.7858367,None,351.7858367,None,0.2755228,,,,,,,,,,,P053,FENCOG,2,Post,2022_Jun_21_1058,Go No-Go Task,2021.1.4,119.8283579
,"Rule: When you see a yellow image, do not press 'spacebar'.",Images/Happy/BF10_HO.jpg,Happy,Blue,Images/Blue.jpg,space,ParentConditions/YellowYellowBlue_v2.xlsx,YellowYellowBlue,Conditions/Version_2/YellowFearStop.xlsx,no,PASS,0.663321465,,,,,,,,,0,0,0,1,0,0,0,0,0,30,30,30,,,,,,,,,,,,,,,,,,,,,,,,,,,,,,,,,,,,,,,,,,,,,,,,,,,,,,,,,,,,,,,,,,,,,,,,,,,,,,,1.69,352.173432,None,space,1,353.9935469,None,353.9935469,None,353.9935469,None,0.2848263,,,,,,,,,,,P053,FENCOG,2,Post,2022_Jun_21_1058,Go No-Go Task,2021.1.4,119.8283579
,"Rule: When you see a yellow image, do not press 'spacebar'.",Images/Happy/BF07_HO.jpg,Happy,Blue,Images/Blue.jpg,space,ParentConditions/YellowYellowBlue_v2.xlsx,YellowYellowBlue,Conditions/Version_2/YellowFearStop.xlsx,no,PASS,0.383434418,,,,,,,,,0,0,0,1,0,0,0,0,0,31,31,31,,,,,,,,,,,,,,,,,,,,,,,,,,,,,,,,,,,,,,,,,,,,,,,,,,,,,,,,,,,,,,,,,,,,,,,,,,,,,,,1.59,354.3828259,None,space,1,356.1012151,None,356.1012151,None,356.1012151,None,0.1843648,,,,,,,,,,,P053,FENCOG,2,Post,2022_Jun_21_1058,Go No-Go Task,2021.1.4,119.8283579
,"Rule: When you see a yellow image, do not press 'spacebar'.",Images/Fearful/BF07_FO.jpg,Fear,Yellow,Images/Yellow.jpg,None,ParentConditions/YellowYellowBlue_v2.xlsx,YellowYellowBlue,Conditions/Version_2/YellowFearStop.xlsx,yes,PASS,0.008316205,,,,,,,,,0,0,0,1,0,0,0,0,0,32,32,32,,,,,,,,,,,,,,,,,,,,,,,,,,,,,,,,,,,,,,,,,,,,,,,,,,,,,,,,,,,,,,,,,,,,,,,,,,,,,,,1.72,356.4851994,None,None,1,358.3255679,None,358.3255679,None,358.3255679,None,,,,,,,,,,,,P053,FENCOG,2,Post,2022_Jun_21_1058,Go No-Go Task,2021.1.4,119.8283579
,"Rule: When you see a yellow image, do not press 'spacebar'.",Images/Happy/WF04_HC.jpg,Happy,Blue,Images/Blue.jpg,space,ParentConditions/YellowYellowBlue_v2.xlsx,YellowYellowBlue,Conditions/Version_2/YellowFearStop.xlsx,no,PASS,0.677749508,,,,,,,,,0,0,0,1,0,0,0,0,0,33,33,33,,,,,,,,,,,,,,,,,,,,,,,,,,,,,,,,,,,,,,,,,,,,,,,,,,,,,,,,,,,,,,,,,,,,,,,,,,,,,,,1.23,358.7168604,None,space,1,360.0751376,None,360.0751376,None,360.0751376,None,0.2985518,,,,,,,,,,,P053,FENCOG,2,Post,2022_Jun_21_1058,Go No-Go Task,2021.1.4,119.8283579
,"Rule: When you see a yellow image, do not press 'spacebar'.",Images/Happy/AM23HAS.jpg,Happy,Blue,Images/Blue.jpg,space,ParentConditions/YellowYellowBlue_v2.xlsx,YellowYellowBlue,Conditions/Version_2/YellowFearStop.xlsx,no,PASS,0.043037124,,,,,,,,,0,0,0,1,0,0,0,0,0,34,34,34,,,,,,,,,,,,,,,,,,,,,,,,,,,,,,,,,,,,,,,,,,,,,,,,,,,,,,,,,,,,,,,,,,,,,,,,,,,,,,,1.52,360.4563969,None,space,1,362.1077699,None,362.1077699,None,362.1077699,None,0.2337704,,,,,,,,,,,P053,FENCOG,2,Post,2022_Jun_21_1058,Go No-Go Task,2021.1.4,119.8283579
,"Rule: When you see a yellow image, do not press 'spacebar'.",Images/Happy/AM09HAS.jpg,Happy,Blue,Images/Blue.jpg,space,ParentConditions/YellowYellowBlue_v2.xlsx,YellowYellowBlue,Conditions/Version_2/YellowFearStop.xlsx,no,PASS,0.095748362,,,,,,,,,0,0,0,1,0,0,0,0,0,35,35,35,,,,,,,,,,,,,,,,,,,,,,,,,,,,,,,,,,,,,,,,,,,,,,,,,,,,,,,,,,,,,,,,,,,,,,,,,,,,,,,1.99,362.4906462,None,space,1,364.5987,None,364.5987,None,364.5987,None,0.2546302,,,,,,,,,,,P053,FENCOG,2,Post,2022_Jun_21_1058,Go No-Go Task,2021.1.4,119.8283579
,"Rule: When you see a yellow image, do not press 'spacebar'.",Images/Happy/AM10HAS.jpg,Happy,Blue,Images/Blue.jpg,space,ParentConditions/YellowYellowBlue_v2.xlsx,YellowYellowBlue,Conditions/Version_2/YellowFearStop.xlsx,no,PASS,0.163091291,,,,,,,,,0,0,0,1,0,0,0,0,0,36,36,36,,,,,,,,,,,,,,,,,,,,,,,,,,,,,,,,,,,,,,,,,,,,,,,,,,,,,,,,,,,,,,,,,,,,,,,,,,,,,,,1.47,364.9883007,None,space,1,366.5814509,None,366.5814509,None,366.5814509,None,0.2721317,,,,,,,,,,,P053,FENCOG,2,Post,2022_Jun_21_1058,Go No-Go Task,2021.1.4,119.8283579
,"Rule: When you see a yellow image, do not press 'spacebar'.",Images/Happy/AF07HAS.jpg,Happy,Blue,Images/Blue.jpg,space,ParentConditions/YellowYellowBlue_v2.xlsx,YellowYellowBlue,Conditions/Version_2/YellowFearStop.xlsx,no,PASS,0.348674719,,,,,,,,,0,0,0,1,0,0,0,0,0,37,37,37,,,,,,,,,,,,,,,,,,,,,,,,,,,,,,,,,,,,,,,,,,,,,,,,,,,,,,,,,,,,,,,,,,,,,,,,,,,,,,,1.68,366.971582,None,space,1,368.7724747,None,368.7724747,None,368.7724747,None,0.2892084,,,,,,,,,,,P053,FENCOG,2,Post,2022_Jun_21_1058,Go No-Go Task,2021.1.4,119.8283579
,"Rule: When you see a yellow image, do not press 'spacebar'.",Images/Happy/AM03_HO.jpg,Happy,Blue,Images/Blue.jpg,space,ParentConditions/YellowYellowBlue_v2.xlsx,YellowYellowBlue,Conditions/Version_2/YellowFearStop.xlsx,no,PASS,0.885204794,,,,,,,,,0,0,0,1,0,0,0,0,0,38,38,38,,,,,,,,,,,,,,,,,,,,,,,,,,,,,,,,,,,,,,,,,,,,,,,,,,,,,,,,,,,,,,,,,,,,,,,,,,,,,,,1.3,369.1579928,None,space,1,370.5802564,None,370.5802564,None,370.5802564,None,0.3054737,,,,,,,,,,,P053,FENCOG,2,Post,2022_Jun_21_1058,Go No-Go Task,2021.1.4,119.8283579
,"Rule: When you see a yellow image, do not press 'spacebar'.",Images/Happy/AM05HAS.jpg,Happy,Blue,Images/Blue.jpg,space,ParentConditions/YellowYellowBlue_v2.xlsx,YellowYellowBlue,Conditions/Version_2/YellowFearStop.xlsx,no,PASS,0.254967981,,,,,,,,,0,0,0,1,0,0,0,0,0,39,39,39,,,,,,,,,,,,,,,,,,,,,,,,,,,,,,,,,,,,,,,,,,,,,,,,,,,,,,,,,,,,,,,,,,,,,,,,,,,,,,,1.44,370.968937,None,space,1,372.529712,None,372.529712,None,372.529712,None,0.2198025,,,,,,,,,,,P053,FENCOG,2,Post,2022_Jun_21_1058,Go No-Go Task,2021.1.4,119.8283579
,"Rule: When you see a yellow image, do not press 'spacebar'.",Images/Happy/AF02HAS.jpg,Happy,Blue,Images/Blue.jpg,space,ParentConditions/YellowYellowBlue_v2.xlsx,YellowYellowBlue,Conditions/Version_2/YellowFearStop.xlsx,no,PASS,0.451861001,,,,,,,,,0,0,0,1,0,0,0,0,0,40,40,40,,,,,,,,,,,,,,,,,,,,,,,,,,,,,,,,,,,,,,,,,,,,,,,,,,,,,,,,,,,,,,,,,,,,,,,,,,,,,,,1.4,372.9198773,None,space,1,374.4374626,None,374.4374626,None,374.4374626,None,0.2237623,,,,,,,,,,,P053,FENCOG,2,Post,2022_Jun_21_1058,Go No-Go Task,2021.1.4,119.8283579
,"Rule: When you see a yellow image, do not press 'spacebar'.",Images/Happy/BM08_HO.jpg,Happy,Blue,Images/Blue.jpg,space,ParentConditions/YellowYellowBlue_v2.xlsx,YellowYellowBlue,Conditions/Version_2/YellowFearStop.xlsx,no,PASS,0.610918027,,,,,,,,,0,0,0,1,0,0,0,0,0,41,41,41,,,,,,,,,,,,,,,,,,,,,,,,,,,,,,,,,,,,,,,,,,,,,,,,,,,,,,,,,,,,,,,,,,,,,,,,,,,,,,,1.88,374.832118,None,space,1,376.8203256,None,376.8203256,None,376.8203256,None,0.274092,,,,,,,,,,,P053,FENCOG,2,Post,2022_Jun_21_1058,Go No-Go Task,2021.1.4,119.8283579
,"Rule: When you see a yellow image, do not press 'spacebar'.",Images/Happy/AM22HAS.jpg,Happy,Blue,Images/Blue.jpg,space,ParentConditions/YellowYellowBlue_v2.xlsx,YellowYellowBlue,Conditions/Version_2/YellowFearStop.xlsx,no,PASS,0.35880856,,,,,,,,,0,0,0,1,0,0,0,0,0,42,42,42,,,,,,,,,,,,,,,,,,,,,,,,,,,,,,,,,,,,,,,,,,,,,,,,,,,,,,,,,,,,,,,,,,,,,,,,,,,,,,,1.31,377.2178543,None,space,1,378.6529597,None,378.6529597,None,378.6529597,None,0.2964981,,,,,,,,,,,P053,FENCOG,2,Post,2022_Jun_21_1058,Go No-Go Task,2021.1.4,119.8283579
,"Rule: When you see a yellow image, do not press 'spacebar'.",Images/Happy/AM30HAS.jpg,Happy,Blue,Images/Blue.jpg,space,ParentConditions/YellowYellowBlue_v2.xlsx,YellowYellowBlue,Conditions/Version_2/YellowFearStop.xlsx,no,PASS,0.02897569,,,,,,,,,0,0,0,1,0,0,0,0,0,43,43,43,,,,,,,,,,,,,,,,,,,,,,,,,,,,,,,,,,,,,,,,,,,,,,,,,,,,,,,,,,,,,,,,,,,,,,,,,,,,,,,1.49,379.0414103,None,space,1,380.6522929,None,380.6522929,None,380.6522929,None,0.2659107,,,,,,,,,,,P053,FENCOG,2,Post,2022_Jun_21_1058,Go No-Go Task,2021.1.4,119.8283579
,"Rule: When you see a yellow image, do not press 'spacebar'.",Images/Fearful/BF09_FC.jpg,Fear,Yellow,Images/Yellow.jpg,None,ParentConditions/YellowYellowBlue_v2.xlsx,YellowYellowBlue,Conditions/Version_2/YellowFearStop.xlsx,yes,PASS,0.336569123,,,,,,,,,0,0,0,1,0,0,0,0,0,44,44,44,,,,,,,,,,,,,,,,,,,,,,,,,,,,,,,,,,,,,,,,,,,,,,,,,,,,,,,,,,,,,,,,,,,,,,,,,,,,,,,1.65,381.0410526,None,space,0,382.8184756,None,382.8184756,None,382.8184756,None,0.2674865,,,,,,,,,,,P053,FENCOG,2,Post,2022_Jun_21_1058,Go No-Go Task,2021.1.4,119.8283579
,"Rule: When you see a yellow image, do not press 'spacebar'.",Images/Happy/WM12_HE.jpg,Happy,Blue,Images/Blue.jpg,space,ParentConditions/YellowYellowBlue_v2.xlsx,YellowYellowBlue,Conditions/Version_2/YellowFearStop.xlsx,no,PASS,0.760185099,,,,,,,,,0,0,0,1,0,0,0,0,0,45,45,45,,,,,,,,,,,,,,,,,,,,,,,,,,,,,,,,,,,,,,,,,,,,,,,,,,,,,,,,,,,,,,,,,,,,,,,,,,,,,,,2,383.2039231,None,space,1,385.3342503,None,385.3342503,None,385.3342503,None,0.247538,,,,,,,,,,,P053,FENCOG,2,Post,2022_Jun_21_1058,Go No-Go Task,2021.1.4,119.8283579
,"Rule: When you see a yellow image, do not press 'spacebar'.",Images/Happy/HF10_HE.jpg,Happy,Blue,Images/Blue.jpg,space,ParentConditions/YellowYellowBlue_v2.xlsx,YellowYellowBlue,Conditions/Version_2/YellowFearStop.xlsx,no,PASS,0.665072727,,,,,,,,,0,0,0,1,0,0,0,0,0,46,46,46,,,,,,,,,,,,,,,,,,,,,,,,,,,,,,,,,,,,,,,,,,,,,,,,,,,,,,,,,,,,,,,,,,,,,,,,,,,,,,,1.79,385.7166001,None,space,1,387.6169159,None,387.6169159,None,387.6169159,None,0.3090559,,,,,,,,,,,P053,FENCOG,2,Post,2022_Jun_21_1058,Go No-Go Task,2021.1.4,119.8283579
,"Rule: When you see a yellow image, do not press 'spacebar'.",Images/Happy/HM09_HO.jpg,Happy,Blue,Images/Blue.jpg,space,ParentConditions/YellowYellowBlue_v2.xlsx,YellowYellowBlue,Conditions/Version_2/YellowFearStop.xlsx,no,PASS,0.71966193,,,,,,,,,0,0,0,1,0,0,0,0,0,47,47,47,,,,,,,,,,,,,,,,,,,,,,,,,,,,,,,,,,,,,,,,,,,,,,,,,,,,,,,,,,,,,,,,,,,,,,,,,,,,,,,1.41,388.0159752,None,space,1,389.5496832,None,389.5496832,None,389.5496832,None,0.239656,,,,,,,,,,,P053,FENCOG,2,Post,2022_Jun_21_1058,Go No-Go Task,2021.1.4,119.8283579
,"Rule: When you see a yellow image, do not press 'spacebar'.",Images/Fearful/AM03_FC.jpg,Fear,Yellow,Images/Yellow.jpg,None,ParentConditions/YellowYellowBlue_v2.xlsx,YellowYellowBlue,Conditions/Version_2/YellowFearStop.xlsx,yes,PASS,0.902115461,,,,,,,,,0,0,0,1,0,0,0,0,0,48,48,48,,,,,,,,,,,,,,,,,,,,,,,,,,,,,,,,,,,,,,,,,,,,,,,,,,,,,,,,,,,,,,,,,,,,,,,,,,,,,,,1.58,389.9396744,None,space,0,391.6490384,None,391.6490384,None,391.6490384,None,0.2364125,,,,,,,,,,,P053,FENCOG,2,Post,2022_Jun_21_1058,Go No-Go Task,2021.1.4,119.8283579
,"Rule: When you see a yellow image, do not press 'spacebar'.",Images/Happy/HF04_HE.jpg,Happy,Blue,Images/Blue.jpg,space,ParentConditions/YellowYellowBlue_v2.xlsx,YellowYellowBlue,Conditions/Version_2/YellowFearStop.xlsx,no,PASS,0.682828264,,,,,,,,,0,0,0,1,0,0,0,0,0,49,49,49,,,,,,,,,,,,,,,,,,,,,,,,,,,,,,,,,,,,,,,,,,,,,,,,,,,,,,,,,,,,,,,,,,,,,,,,,,,,,,,1.67,392.0342041,None,space,1,393.815072,None,393.815072,None,393.815072,None,0.2947542,,,,,,,,,,,P053,FENCOG,2,Post,2022_Jun_21_1058,Go No-Go Task,2021.1.4,119.8283579
,"Rule: When you see a yellow image, do not press 'spacebar'.",Images/Happy/AM17HAS.jpg,Happy,Blue,Images/Blue.jpg,space,ParentConditions/YellowYellowBlue_v2.xlsx,YellowYellowBlue,Conditions/Version_2/YellowFearStop.xlsx,no,PASS,0.772684013,,,,,,,,,0,0,0,1,0,0,0,0,0,50,50,50,,,,,,,,,,,,,,,,,,,,,,,,,,,,,,,,,,,,,,,,,,,,,,,,,,,,,,,,,,,,,,,,,,,,,,,,,,,,,,,1.63,394.2149624,None,space,1,395.9727403,None,395.9727403,None,395.9727403,None,0.25714,,,,,,,,,,,P053,FENCOG,2,Post,2022_Jun_21_1058,Go No-Go Task,2021.1.4,119.8283579
,"Rule: When you see a yellow image, do not press 'spacebar'.",Images/Fearful/BM01_FO.jpg,Fear,Yellow,Images/Yellow.jpg,None,ParentConditions/YellowYellowBlue_v2.xlsx,YellowYellowBlue,Conditions/Version_2/YellowFearStop.xlsx,yes,PASS,0.029850229,,,,,,,,,0,0,0,1,0,0,0,0,0,51,51,51,,,,,,,,,,,,,,,,,,,,,,,,,,,,,,,,,,,,,,,,,,,,,,,,,,,,,,,,,,,,,,,,,,,,,,,,,,,,,,,1.74,396.3584357,None,None,1,398.2221403,None,398.2221403,None,398.2221403,None,,,,,,,,,,,,P053,FENCOG,2,Post,2022_Jun_21_1058,Go No-Go Task,2021.1.4,119.8283579
,"Rule: When you see a yellow image, do not press 'spacebar'.",Images/Happy/HF09_HE.jpg,Happy,Blue,Images/Blue.jpg,space,ParentConditions/YellowYellowBlue_v2.xlsx,YellowYellowBlue,Conditions/Version_2/YellowFearStop.xlsx,no,PASS,0.541629704,,,,,,,,,0,0,0,1,0,0,0,0,0,52,52,52,,,,,,,,,,,,,,,,,,,,,,,,,,,,,,,,,,,,,,,,,,,,,,,,,,,,,,,,,,,,,,,,,,,,,,,,,,,,,,,1.95,398.6127991,None,space,1,400.6713726,None,400.6713726,None,400.6713726,None,0.2463408,,,,,,,,,,,P053,FENCOG,2,Post,2022_Jun_21_1058,Go No-Go Task,2021.1.4,119.8283579
,"Rule: When you see a yellow image, do not press 'spacebar'.",Images/Happy/WF11_HE.jpg,Happy,Blue,Images/Blue.jpg,space,ParentConditions/YellowYellowBlue_v2.xlsx,YellowYellowBlue,Conditions/Version_2/YellowFearStop.xlsx,no,PASS,0.392339947,,,,,,,,,0,0,0,1,0,0,0,0,0,53,53,53,,,,,,,,,,,,,,,,,,,,,,,,,,,,,,,,,,,,,,,,,,,,,,,,,,,,,,,,,,,,,,,,,,,,,,,,,,,,,,,1.2,401.0691236,None,space,1,402.3956667,None,402.3956667,None,402.3956667,None,0.3379714,,,,,,,,,,,P053,FENCOG,2,Post,2022_Jun_21_1058,Go No-Go Task,2021.1.4,119.8283579
,"Rule: When you see a yellow image, do not press 'spacebar'.",Images/Fearful/AM04AFS.jpg,Fear,Yellow,Images/Yellow.jpg,None,ParentConditions/YellowYellowBlue_v2.xlsx,YellowYellowBlue,Conditions/Version_2/YellowFearStop.xlsx,yes,PASS,0.710626374,,,,,,,,,0,0,0,1,0,0,0,0,0,54,54,54,,,,,,,,,,,,,,,,,,,,,,,,,,,,,,,,,,,,,,,,,,,,,,,,,,,,,,,,,,,,,,,,,,,,,,,,,,,,,,,1.54,402.7823963,None,None,1,404.4535664,None,404.4535664,None,404.4535664,None,,,,,,,,,,,,P053,FENCOG,2,Post,2022_Jun_21_1058,Go No-Go Task,2021.1.4,119.8283579
,"Rule: When you see a yellow image, do not press 'spacebar'.",Images/Happy/AF19HAS.jpg,Happy,Blue,Images/Blue.jpg,space,ParentConditions/YellowYellowBlue_v2.xlsx,YellowYellowBlue,Conditions/Version_2/YellowFearStop.xlsx,no,PASS,0.341912898,,,,,,,,,0,0,0,1,0,0,0,0,0,55,55,55,,,,,,,,,,,,,,,,,,,,,,,,,,,,,,,,,,,,,,,,,,,,,,,,,,,,,,,,,,,,,,,,,,,,,,,,,,,,,,,1.7,404.8341802,None,space,1,406.6528544,None,406.6528544,None,406.6528544,None,0.2246513,,,,,,,,,,,P053,FENCOG,2,Post,2022_Jun_21_1058,Go No-Go Task,2021.1.4,119.8283579
,"Rule: When you see a yellow image, do not press 'spacebar'.",Images/Happy/HM06_HO.jpg,Happy,Blue,Images/Blue.jpg,space,ParentConditions/YellowYellowBlue_v2.xlsx,YellowYellowBlue,Conditions/Version_2/YellowFearStop.xlsx,no,PASS,0.821515408,,,,,,,,,0,0,0,1,0,0,0,0,0,56,56,56,,,,,,,,,,,,,,,,,,,,,,,,,,,,,,,,,,,,,,,,,,,,,,,,,,,,,,,,,,,,,,,,,,,,,,,,,,,,,,,1.93,407.0436631,None,space,1,409.0938895,None,409.0938895,None,409.0938895,None,0.2235983,,,,,,,,,,,P053,FENCOG,2,Post,2022_Jun_21_1058,Go No-Go Task,2021.1.4,119.8283579
,"Rule: When you see a yellow image, do not press 'spacebar'.",Images/Happy/HF05_HO.jpg,Happy,Blue,Images/Blue.jpg,space,ParentConditions/YellowYellowBlue_v2.xlsx,YellowYellowBlue,Conditions/Version_2/YellowFearStop.xlsx,no,PASS,0.441894519,,,,,,,,,0,0,0,1,0,0,0,0,0,57,57,57,,,,,,,,,,,,,,,,,,,,,,,,,,,,,,,,,,,,,,,,,,,,,,,,,,,,,,,,,,,,,,,,,,,,,,,,,,,,,,,1.82,409.4903403,None,space,1,411.426633,None,411.426633,None,411.426633,None,0.2588236,,,,,,,,,,,P053,FENCOG,2,Post,2022_Jun_21_1058,Go No-Go Task,2021.1.4,119.8283579
,"Rule: When you see a yellow image, do not press 'spacebar'.",Images/Fearful/AF01_FO.jpg,Fear,Yellow,Images/Yellow.jpg,None,ParentConditions/YellowYellowBlue_v2.xlsx,YellowYellowBlue,Conditions/Version_2/YellowFearStop.xlsx,yes,PASS,0.963026075,,,,,,,,,0,0,0,1,0,0,0,0,0,58,58,58,,,,,,,,,,,,,,,,,,,,,,,,,,,,,,,,,,,,,,,,,,,,,,,,,,,,,,,,,,,,,,,,,,,,,,,,,,,,,,,1.38,411.8297117,None,None,1,413.3259816,None,413.3259816,None,413.3259816,None,,,,,,,,,,,,P053,FENCOG,2,Post,2022_Jun_21_1058,Go No-Go Task,2021.1.4,119.8283579
,"Rule: When you see a yellow image, do not press 'spacebar'.",Images/Happy/AF21HAS.jpg,Happy,Blue,Images/Blue.jpg,space,ParentConditions/YellowYellowBlue_v2.xlsx,YellowYellowBlue,Conditions/Version_2/YellowFearStop.xlsx,no,PASS,0.541097716,,,,,,,,,0,0,0,1,0,0,0,0,0,59,59,59,,,,,,,,,,,,,,,,,,,,,,,,,,,,,,,,,,,,,,,,,,,,,,,,,,,,,,,,,,,,,,,,,,,,,,,,,,,,,,,1.75,413.7246885,None,space,1,415.5920141,None,415.5920141,None,415.5920141,None,0.2457905,,,,,,,,,,,P053,FENCOG,2,Post,2022_Jun_21_1058,Go No-Go Task,2021.1.4,119.8283579
,"Rule: When you see a yellow image, do not press 'spacebar'.",Images/Happy/AM06_HC.jpg,Happy,Blue,Images/Blue.jpg,space,ParentConditions/YellowYellowBlue_v2.xlsx,YellowYellowBlue,Conditions/Version_2/YellowFearStop.xlsx,no,PASS,0.819545807,,,,,,,,,0,0,0,1,0,0,0,0,0,60,60,60,,,,,,,,,,,,,,,,,,,,,,,,,,,,,,,,,,,,,,,,,,,,,,,,,,,,,,,,,,,,,,,,,,,,,,,,,,,,,,,1.8,415.9807144,None,space,1,417.9079604,None,417.9079604,None,417.9079604,None,0.2254947,,,,,,,,,,,P053,FENCOG,2,Post,2022_Jun_21_1058,Go No-Go Task,2021.1.4,119.8283579
,"Rule: When you see a yellow image, do not press 'spacebar'.",Images/Fearful/AF02AFS.jpg,Fear,Yellow,Images/Yellow.jpg,None,ParentConditions/YellowYellowBlue_v2.xlsx,YellowYellowBlue,Conditions/Version_2/YellowFearStop.xlsx,yes,PASS,0.434756054,,,,,,,,,0,0,0,1,0,0,0,0,0,61,61,61,,,,,,,,,,,,,,,,,,,,,,,,,,,,,,,,,,,,,,,,,,,,,,,,,,,,,,,,,,,,,,,,,,,,,,,,,,,,,,,1.29,418.2898628,None,space,0,419.7070739,None,419.7070739,None,419.7070739,None,0.2421941,,,,,,,,,,,P053,FENCOG,2,Post,2022_Jun_21_1058,Go No-Go Task,2021.1.4,119.8283579
,"Rule: When you see a yellow image, do not press 'spacebar'.",Images/Happy/AF25HAS.jpg,Happy,Blue,Images/Blue.jpg,space,ParentConditions/YellowYellowBlue_v2.xlsx,YellowYellowBlue,Conditions/Version_2/YellowFearStop.xlsx,no,PASS,0.353445622,,,,,,,,,0,0,0,1,0,0,0,0,0,62,62,62,,,,,,,,,,,,,,,,,,,,,,,,,,,,,,,,,,,,,,,,,,,,,,,,,,,,,,,,,,,,,,,,,,,,,,,,,,,,,,,1.62,420.0894929,None,space,1,421.8317738,None,421.8317738,None,421.8317738,None,0.221839,,,,,,,,,,,P053,FENCOG,2,Post,2022_Jun_21_1058,Go No-Go Task,2021.1.4,119.8283579
,"Rule: When you see a yellow image, do not press 'spacebar'.",Images/Happy/AM32HAS.jpg,Happy,Blue,Images/Blue.jpg,space,ParentConditions/YellowYellowBlue_v2.xlsx,YellowYellowBlue,Conditions/Version_2/YellowFearStop.xlsx,no,PASS,0.108461568,,,,,,,,,0,0,0,1,0,0,0,0,0,63,63,63,,,,,,,,,,,,,,,,,,,,,,,,,,,,,,,,,,,,,,,,,,,,,,,,,,,,,,,,,,,,,,,,,,,,,,,,,,,,,,,1.27,422.2221434,None,space,1,423.6062674,None,423.6062674,None,423.6062674,None,0.207133,,,,,,,,,,,P053,FENCOG,2,Post,2022_Jun_21_1058,Go No-Go Task,2021.1.4,119.8283579
,"Rule: When you see a yellow image, do not press 'spacebar'.",Images/Fearful/AM02_FO.jpg,Fear,Yellow,Images/Yellow.jpg,None,ParentConditions/YellowYellowBlue_v2.xlsx,YellowYellowBlue,Conditions/Version_2/YellowFearStop.xlsx,yes,PASS,0.09349205,,,,,,,,,0,0,0,1,0,0,0,0,0,64,64,64,,,,,,,,,,,,,,,,,,,,,,,,,,,,,,,,,,,,,,,,,,,,,,,,,,,,,,,,,,,,,,,,,,,,,,,,,,,,,,,1.43,424.0051573,None,space,0,425.5640316,None,425.5640316,None,425.5640316,None,0.1775338,,,,,,,,,,,P053,FENCOG,2,Post,2022_Jun_21_1058,Go No-Go Task,2021.1.4,119.8283579
,"Rule: When you see a yellow image, do not press 'spacebar'.",Images/Fearful/BM02_FC.jpg,Fear,Yellow,Images/Yellow.jpg,None,ParentConditions/YellowYellowBlue_v2.xlsx,YellowYellowBlue,Conditions/Version_2/YellowFearStop.xlsx,yes,PASS,0.839077799,,,,,,,,,0,0,0,1,0,0,0,0,0,65,65,65,,,,,,,,,,,,,,,,,,,,,,,,,,,,,,,,,,,,,,,,,,,,,,,,,,,,,,,,,,,,,,,,,,,,,,,,,,,,,,,1.22,425.9465808,None,space,0,427.2968431,None,427.2968431,None,427.2968431,None,0.300566,,,,,,,,,,,P053,FENCOG,2,Post,2022_Jun_21_1058,Go No-Go Task,2021.1.4,119.8283579
,"Rule: When you see a yellow image, do not press 'spacebar'.",Images/Happy/AM04_HE.jpg,Happy,Blue,Images/Blue.jpg,space,ParentConditions/YellowYellowBlue_v2.xlsx,YellowYellowBlue,Conditions/Version_2/YellowFearStop.xlsx,no,PASS,0.268677408,,,,,,,,,0,0,0,1,0,0,0,0,0,66,66,66,,,,,,,,,,,,,,,,,,,,,,,,,,,,,,,,,,,,,,,,,,,,,,,,,,,,,,,,,,,,,,,,,,,,,,,,,,,,,,,1.32,427.682911,None,space,1,429.1213204,None,429.1213204,None,429.1213204,None,0.2604832,,,,,,,,,,,P053,FENCOG,2,Post,2022_Jun_21_1058,Go No-Go Task,2021.1.4,119.8283579
,"Rule: When you see a yellow image, do not press 'spacebar'.",Images/Fearful/AM05AFS.jpg,Fear,Yellow,Images/Yellow.jpg,None,ParentConditions/YellowYellowBlue_v2.xlsx,YellowYellowBlue,Conditions/Version_2/YellowFearStop.xlsx,yes,PASS,0.695126325,,,,,,,,,0,0,0,1,0,0,0,0,0,67,67,67,,,,,,,,,,,,,,,,,,,,,,,,,,,,,,,,,,,,,,,,,,,,,,,,,,,,,,,,,,,,,,,,,,,,,,,,,,,,,,,1.5,429.5118896,None,space,0,431.1290646,None,431.1290646,None,431.1290646,None,0.1326593,,,,,,,,,,,P053,FENCOG,2,Post,2022_Jun_21_1058,Go No-Go Task,2021.1.4,119.8283579
,"Rule: When you see a yellow image, do not press 'spacebar'.",Images/Happy/AF28HAS.jpg,Happy,Blue,Images/Blue.jpg,space,ParentConditions/YellowYellowBlue_v2.xlsx,YellowYellowBlue,Conditions/Version_2/YellowFearStop.xlsx,no,PASS,0.25032706,,,,,,,,,0,0,0,1,0,0,0,0,0,68,68,68,,,,,,,,,,,,,,,,,,,,,,,,,,,,,,,,,,,,,,,,,,,,,,,,,,,,,,,,,,,,,,,,,,,,,,,,,,,,,,,1.6,431.5237421,None,space,1,433.25346,None,433.25346,None,433.25346,None,0.2159565,,,,,,,,,,,P053,FENCOG,2,Post,2022_Jun_21_1058,Go No-Go Task,2021.1.4,119.8283579
,"Rule: When you see a yellow image, do not press 'spacebar'.",Images/Happy/AF07_HO.jpg,Happy,Blue,Images/Blue.jpg,space,ParentConditions/YellowYellowBlue_v2.xlsx,YellowYellowBlue,Conditions/Version_2/YellowFearStop.xlsx,no,PASS,0.293841477,,,,,,,,,0,0,0,1,0,0,0,0,0,69,69,69,,,,,,,,,,,,,,,,,,,,,,,,,,,,,,,,,,,,,,,,,,,,,,,,,,,,,,,,,,,,,,,,,,,,,,,,,,,,,,,1.33,433.6396201,None,space,1,435.0945474,None,435.0945474,None,435.0945474,None,0.2304018,,,,,,,,,,,P053,FENCOG,2,Post,2022_Jun_21_1058,Go No-Go Task,2021.1.4,119.8283579
,"Rule: When you see a yellow image, do not press 'spacebar'.",Images/Happy/BF14_HO.jpg,Happy,Blue,Images/Blue.jpg,space,ParentConditions/YellowYellowBlue_v2.xlsx,YellowYellowBlue,Conditions/Version_2/YellowFearStop.xlsx,no,PASS,0.404225194,,,,,,,,,0,0,0,1,0,0,0,0,0,70,70,70,,,,,,,,,,,,,,,,,,,,,,,,,,,,,,,,,,,,,,,,,,,,,,,,,,,,,,,,,,,,,,,,,,,,,,,,,,,,,,,1.56,435.4784122,None,space,1,437.1606641,None,437.1606641,None,437.1606641,None,0.3089497,,,,,,,,,,,P053,FENCOG,2,Post,2022_Jun_21_1058,Go No-Go Task,2021.1.4,119.8283579
,"Rule: When you see a yellow image, do not press 'spacebar'.",Images/Fearful/AF07FS.jpg,Fear,Yellow,Images/Yellow.jpg,None,ParentConditions/YellowYellowBlue_v2.xlsx,YellowYellowBlue,Conditions/Version_2/YellowFearStop.xlsx,yes,PASS,0.705995446,,,,,,,,,0,0,0,1,0,0,0,0,0,71,71,71,,,,,,,,,,,,,,,,,,,,,,,,,,,,,,,,,,,,,,,,,,,,,,,,,,,,,,,,,,,,,,,,,,,,,,,,,,,,,,,1.61,437.546161,None,None,1,439.2766764,None,439.2766764,None,439.2766764,None,,,,,,,,,,,,P053,FENCOG,2,Post,2022_Jun_21_1058,Go No-Go Task,2021.1.4,119.8283579
,"Rule: When you see a yellow image, do not press 'spacebar'.",Images/Happy/AF32HAS.jpg,Happy,Blue,Images/Blue.jpg,space,ParentConditions/YellowYellowBlue_v2.xlsx,YellowYellowBlue,Conditions/Version_2/YellowFearStop.xlsx,no,PASS,0.650593213,,,,,,,,,0,0,0,1,0,0,0,0,0,72,72,72,,,,,,,,,,,,,,,,,,,,,,,,,,,,,,,,,,,,,,,,,,,,,,,,,,,,,,,,,,,,,,,,,,,,,,,,,,,,,,,1.98,439.6664609,None,space,1,441.7675669,None,441.7675669,None,441.7675669,None,0.285901,,,,,,,,,,,P053,FENCOG,2,Post,2022_Jun_21_1058,Go No-Go Task,2021.1.4,119.8283579
,"Rule: When you see a yellow image, do not press 'spacebar'.",Images/Happy/AF11HAS.jpg,Happy,Blue,Images/Blue.jpg,space,ParentConditions/YellowYellowBlue_v2.xlsx,YellowYellowBlue,Conditions/Version_2/YellowFearStop.xlsx,no,PASS,0.224139368,,,,,,,,,0,0,0,1,0,0,0,0,0,73,73,73,,,,,,,,,,,,,,,,,,,,,,,,,,,,,,,,,,,,,,,,,,,,,,,,,,,,,,,,,,,,,,,,,,,,,,,,,,,,,,,1.78,442.1649601,None,space,1,444.0752382,None,444.0752382,None,444.0752382,None,0.1941217,,,,,,,,,,,P053,FENCOG,2,Post,2022_Jun_21_1058,Go No-Go Task,2021.1.4,119.8283579
,"Rule: When you see a yellow image, do not press 'spacebar'.",Images/Happy/AM19HAS.jpg,Happy,Blue,Images/Blue.jpg,space,ParentConditions/YellowYellowBlue_v2.xlsx,YellowYellowBlue,Conditions/Version_2/YellowFearStop.xlsx,no,PASS,0.536732863,,,,,,,,,0,0,0,1,0,0,0,0,0,74,74,74,,,,,,,,,,,,,,,,,,,,,,,,,,,,,,,,,,,,,,,,,,,,,,,,,,,,,,,,,,,,,,,,,,,,,,,,,,,,,,,1.94,444.4629098,None,None,0,446.5245001,None,446.5245001,None,446.5245001,None,,,,,,,,,,,,P053,FENCOG,2,Post,2022_Jun_21_1058,Go No-Go Task,2021.1.4,119.8283579
,"Rule: When you see a yellow image, do not press 'spacebar'.",Images/Happy/AM01HAS.jpg,Happy,Blue,Images/Blue.jpg,space,ParentConditions/YellowYellowBlue_v2.xlsx,YellowYellowBlue,Conditions/Version_2/YellowFearStop.xlsx,no,PASS,0.451223887,,,,,,,,,0,0,0,1,0,0,0,0,0,75,75,75,,,,,,,,,,,,,,,,,,,,,,,,,,,,,,,,,,,,,,,,,,,,,,,,,,,,,,,,,,,,,,,,,,,,,,,,,,,,,,,1.51,446.9135395,None,space,1,448.5322801,None,448.5322801,None,448.5322801,None,0.2492069,,,,,,,,,,,P053,FENCOG,2,Post,2022_Jun_21_1058,Go No-Go Task,2021.1.4,119.8283579
,"Rule: When you see a yellow image, do not press 'spacebar'.",Images/Happy/WF05_HC.jpg,Happy,Blue,Images/Blue.jpg,space,ParentConditions/YellowYellowBlue_v2.xlsx,YellowYellowBlue,Conditions/Version_2/YellowFearStop.xlsx,no,PASS,0.768149926,,,,,,,,,0,0,0,1,0,0,0,0,0,76,76,76,,,,,,,,,,,,,,,,,,,,,,,,,,,,,,,,,,,,,,,,,,,,,,,,,,,,,,,,,,,,,,,,,,,,,,,,,,,,,,,1.45,448.9328044,None,space,1,450.5150429,None,450.5150429,None,450.5150429,None,0.210513,,,,,,,,,,,P053,FENCOG,2,Post,2022_Jun_21_1058,Go No-Go Task,2021.1.4,119.8283579
,"Rule: When you see a yellow image, do not press 'spacebar'.",Images/Happy/BM03_HO.jpg,Happy,Blue,Images/Blue.jpg,space,ParentConditions/YellowYellowBlue_v2.xlsx,YellowYellowBlue,Conditions/Version_2/YellowFearStop.xlsx,no,PASS,0.582404714,,,,,,,,,0,0,0,1,0,0,0,0,0,77,77,77,,,,,,,,,,,,,,,,,,,,,,,,,,,,,,,,,,,,,,,,,,,,,,,,,,,,,,,,,,,,,,,,,,,,,,,,,,,,,,,1.76,450.8967748,None,space,1,452.7809885,None,452.7809885,None,452.7809885,None,0.312542,,,,,,,,,,,P053,FENCOG,2,Post,2022_Jun_21_1058,Go No-Go Task,2021.1.4,119.8283579
,"Rule: When you see a yellow image, do not press 'spacebar'.",Images/Happy/AM02_HE.jpg,Happy,Blue,Images/Blue.jpg,space,ParentConditions/YellowYellowBlue_v2.xlsx,YellowYellowBlue,Conditions/Version_2/YellowFearStop.xlsx,no,PASS,0.879106835,,,,,,,,,0,0,0,1,0,0,0,0,0,78,78,78,,,,,,,,,,,,,,,,,,,,,,,,,,,,,,,,,,,,,,,,,,,,,,,,,,,,,,,,,,,,,,,,,,,,,,,,,,,,,,,1.26,453.1759949,None,space,1,454.5471371,None,454.5471371,None,454.5471371,None,0.2982825,,,,,,,,,,,P053,FENCOG,2,Post,2022_Jun_21_1058,Go No-Go Task,2021.1.4,119.8283579
,"Rule: When you see a yellow image, do not press 'spacebar'.",Images/Fearful/AM06_FO.jpg,Fear,Yellow,Images/Yellow.jpg,None,ParentConditions/YellowYellowBlue_v2.xlsx,YellowYellowBlue,Conditions/Version_2/YellowFearStop.xlsx,yes,PASS,0.40627236,,,,,,,,,0,0,0,1,0,0,0,0,0,79,79,79,,,,,,,,,,,,,,,,,,,,,,,,,,,,,,,,,,,,,,,,,,,,,,,,,,,,,,,,,,,,,,,,,,,,,,,,,,,,,,,1.92,454.9483628,None,None,1,456.9880512,None,456.9880512,None,456.9880512,None,,,,,,,,,,,,P053,FENCOG,2,Post,2022_Jun_21_1058,Go No-Go Task,2021.1.4,119.8283579
,"Rule: When you see a yellow image, do not press 'spacebar'.",Images/Scram2/HM09_NC.jpg,Scramble,Blue,Images/Blue.jpg,space,ParentConditions/YellowYellowBlue_v2.xlsx,YellowYellowBlue,Conditions/Version_2/YellowScramStop.xlsx,no,PASS,0.467198202,,,,,,,,,0,0,0,1,0,1,1,1,0,0,0,0,,,,,,,,,,,,,,,,,,,,,,,,,,,,,,,,,,,,,,,,,,,,,,,,,,,,,,,,,,,,,,,,,458.5571228,None,461.5528026,None,space,0.3561731,461.5528026,None,458.5571228,None,458.5571228,None,458.5571228,None,1.36,461.9722529,None,space,1,463.4528175,None,463.4528175,None,463.4528175,None,0.3606304,457.4052424,None,space,0.6455884,457.8955466,None,457.4052424,None,457.4052424,None,P053,FENCOG,2,Post,2022_Jun_21_1058,Go No-Go Task,2021.1.4,119.8283579
,"Rule: When you see a yellow image, do not press 'spacebar'.",Images/Scram2/HM06_NC.jpg,Scramble,Blue,Images/Blue.jpg,space,ParentConditions/YellowYellowBlue_v2.xlsx,YellowYellowBlue,Conditions/Version_2/YellowScramStop.xlsx,no,PASS,0.564231422,,,,,,,,,0,0,0,1,0,1,1,1,0,1,1,1,,,,,,,,,,,,,,,,,,,,,,,,,,,,,,,,,,,,,,,,,,,,,,,,,,,,,,,,,,,,,,,,,,,,,,,,,,,,,,,1.39,463.8474407,None,space,1,465.3522678,None,465.3522678,None,465.3522678,None,0.1653433,,,,,,,,,,,P053,FENCOG,2,Post,2022_Jun_21_1058,Go No-Go Task,2021.1.4,119.8283579
,"Rule: When you see a yellow image, do not press 'spacebar'.",Images/Scram1/AM31NES.jpg,Scramble,Blue,Images/Blue.jpg,space,ParentConditions/YellowYellowBlue_v2.xlsx,YellowYellowBlue,Conditions/Version_2/YellowScramStop.xlsx,no,PASS,0.846238331,,,,,,,,,0,0,0,1,0,1,1,1,0,2,2,2,,,,,,,,,,,,,,,,,,,,,,,,,,,,,,,,,,,,,,,,,,,,,,,,,,,,,,,,,,,,,,,,,,,,,,,,,,,,,,,1.31,465.7582984,None,space,1,467.1850548,None,467.1850548,None,467.1850548,None,0.1407708,,,,,,,,,,,P053,FENCOG,2,Post,2022_Jun_21_1058,Go No-Go Task,2021.1.4,119.8283579
,"Rule: When you see a yellow image, do not press 'spacebar'.",Images/Scram2/AM03NES.jpg,Scramble,Yellow,Images/Yellow.jpg,None,ParentConditions/YellowYellowBlue_v2.xlsx,YellowYellowBlue,Conditions/Version_2/YellowScramStop.xlsx,yes,PASS,0.356648368,,,,,,,,,0,0,0,1,0,1,1,1,0,3,3,3,,,,,,,,,,,,,,,,,,,,,,,,,,,,,,,,,,,,,,,,,,,,,,,,,,,,,,,,,,,,,,,,,,,,,,,,,,,,,,,1.69,467.5757951,None,space,0,469.3760671,None,469.3760671,None,469.3760671,None,0.0691211,,,,,,,,,,,P053,FENCOG,2,Post,2022_Jun_21_1058,Go No-Go Task,2021.1.4,119.8283579
,"Rule: When you see a yellow image, do not press 'spacebar'.",Images/Scram2/BM01_NC.jpg,Scramble,Blue,Images/Blue.jpg,space,ParentConditions/YellowYellowBlue_v2.xlsx,YellowYellowBlue,Conditions/Version_2/YellowScramStop.xlsx,no,PASS,0.630051582,,,,,,,,,0,0,0,1,0,1,1,1,0,4,4,4,,,,,,,,,,,,,,,,,,,,,,,,,,,,,,,,,,,,,,,,,,,,,,,,,,,,,,,,,,,,,,,,,,,,,,,,,,,,,,,1.44,469.7739224,None,space,1,471.341997,None,471.341997,None,471.341997,None,0.1673863,,,,,,,,,,,P053,FENCOG,2,Post,2022_Jun_21_1058,Go No-Go Task,2021.1.4,119.8283579
,"Rule: When you see a yellow image, do not press 'spacebar'.",Images/Scram1/HM09_NC.jpg,Scramble,Blue,Images/Blue.jpg,space,ParentConditions/YellowYellowBlue_v2.xlsx,YellowYellowBlue,Conditions/Version_2/YellowScramStop.xlsx,no,PASS,0.968195201,,,,,,,,,0,0,0,1,0,1,1,1,0,5,5,5,,,,,,,,,,,,,,,,,,,,,,,,,,,,,,,,,,,,,,,,,,,,,,,,,,,,,,,,,,,,,,,,,,,,,,,,,,,,,,,1.4,471.7233208,None,None,0,473.2332476,None,473.2332476,None,473.2332476,None,,,,,,,,,,,,P053,FENCOG,2,Post,2022_Jun_21_1058,Go No-Go Task,2021.1.4,119.8283579
,"Rule: When you see a yellow image, do not press 'spacebar'.",Images/Scram2/BF07_NC.jpg,Scramble,Blue,Images/Blue.jpg,space,ParentConditions/YellowYellowBlue_v2.xlsx,YellowYellowBlue,Conditions/Version_2/YellowScramStop.xlsx,no,PASS,0.216462677,,,,,,,,,0,0,0,1,0,1,1,1,0,6,6,6,,,,,,,,,,,,,,,,,,,,,,,,,,,,,,,,,,,,,,,,,,,,,,,,,,,,,,,,,,,,,,,,,,,,,,,,,,,,,,,1.73,473.6336324,None,space,1,475.4826069,None,475.4826069,None,475.4826069,None,0.251105,,,,,,,,,,,P053,FENCOG,2,Post,2022_Jun_21_1058,Go No-Go Task,2021.1.4,119.8283579
,"Rule: When you see a yellow image, do not press 'spacebar'.",Images/Scram1/BF14_NC.jpg,Scramble,Blue,Images/Blue.jpg,space,ParentConditions/YellowYellowBlue_v2.xlsx,YellowYellowBlue,Conditions/Version_2/YellowScramStop.xlsx,no,PASS,0.98466437,,,,,,,,,0,0,0,1,0,1,1,1,0,7,7,7,,,,,,,,,,,,,,,,,,,,,,,,,,,,,,,,,,,,,,,,,,,,,,,,,,,,,,,,,,,,,,,,,,,,,,,,,,,,,,,1.79,475.8720362,None,space,1,477.7902545,None,477.7902545,None,477.7902545,None,0.1671851,,,,,,,,,,,P053,FENCOG,2,Post,2022_Jun_21_1058,Go No-Go Task,2021.1.4,119.8283579
,"Rule: When you see a yellow image, do not press 'spacebar'.",Images/Scram2/AF10_NC.jpg,Scramble,Blue,Images/Blue.jpg,space,ParentConditions/YellowYellowBlue_v2.xlsx,YellowYellowBlue,Conditions/Version_2/YellowScramStop.xlsx,no,PASS,0.244361435,,,,,,,,,0,0,0,1,0,1,1,1,0,8,8,8,,,,,,,,,,,,,,,,,,,,,,,,,,,,,,,,,,,,,,,,,,,,,,,,,,,,,,,,,,,,,,,,,,,,,,,,,,,,,,,1.97,478.1712193,None,None,0,480.2562297,None,480.2562297,None,480.2562297,None,,,,,,,,,,,,P053,FENCOG,2,Post,2022_Jun_21_1058,Go No-Go Task,2021.1.4,119.8283579
,"Rule: When you see a yellow image, do not press 'spacebar'.",Images/Scram2/AF01_NC.jpg,Scramble,Blue,Images/Blue.jpg,space,ParentConditions/YellowYellowBlue_v2.xlsx,YellowYellowBlue,Conditions/Version_2/YellowScramStop.xlsx,no,PASS,0.541807789,,,,,,,,,0,0,0,1,0,1,1,1,0,9,9,9,,,,,,,,,,,,,,,,,,,,,,,,,,,,,,,,,,,,,,,,,,,,,,,,,,,,,,,,,,,,,,,,,,,,,,,,,,,,,,,1.65,480.6549137,None,space,1,482.4305834,None,482.4305834,None,482.4305834,None,0.2628393,,,,,,,,,,,P053,FENCOG,2,Post,2022_Jun_21_1058,Go No-Go Task,2021.1.4,119.8283579
,"Rule: When you see a yellow image, do not press 'spacebar'.",Images/Scram2/AF24NES.jpg,Scramble,Blue,Images/Blue.jpg,space,ParentConditions/YellowYellowBlue_v2.xlsx,YellowYellowBlue,Conditions/Version_2/YellowScramStop.xlsx,no,PASS,0.567934295,,,,,,,,,0,0,0,1,0,1,1,1,0,10,10,10,,,,,,,,,,,,,,,,,,,,,,,,,,,,,,,,,,,,,,,,,,,,,,,,,,,,,,,,,,,,,,,,,,,,,,,,,,,,,,,1.45,482.8200598,None,space,1,484.3884034,None,484.3884034,None,484.3884034,None,0.2410957,,,,,,,,,,,P053,FENCOG,2,Post,2022_Jun_21_1058,Go No-Go Task,2021.1.4,119.8283579
,"Rule: When you see a yellow image, do not press 'spacebar'.",Images/Scram2/BF14_NC.jpg,Scramble,Blue,Images/Blue.jpg,space,ParentConditions/YellowYellowBlue_v2.xlsx,YellowYellowBlue,Conditions/Version_2/YellowScramStop.xlsx,no,PASS,0.88251792,,,,,,,,,0,0,0,1,0,1,1,1,0,11,11,11,,,,,,,,,,,,,,,,,,,,,,,,,,,,,,,,,,,,,,,,,,,,,,,,,,,,,,,,,,,,,,,,,,,,,,,,,,,,,,,1.29,484.7813621,None,space,1,486.1878023,None,486.1878023,None,486.1878023,None,0.2976417,,,,,,,,,,,P053,FENCOG,2,Post,2022_Jun_21_1058,Go No-Go Task,2021.1.4,119.8283579
,"Rule: When you see a yellow image, do not press 'spacebar'.",Images/Scram1/AM13NES.jpg,Scramble,Blue,Images/Blue.jpg,space,ParentConditions/YellowYellowBlue_v2.xlsx,YellowYellowBlue,Conditions/Version_2/YellowScramStop.xlsx,no,PASS,0.210436477,,,,,,,,,0,0,0,1,0,1,1,1,0,12,12,12,,,,,,,,,,,,,,,,,,,,,,,,,,,,,,,,,,,,,,,,,,,,,,,,,,,,,,,,,,,,,,,,,,,,,,,,,,,,,,,1.64,486.5792859,None,space,1,488.3288197,None,488.3288197,None,488.3288197,None,0.2526028,,,,,,,,,,,P053,FENCOG,2,Post,2022_Jun_21_1058,Go No-Go Task,2021.1.4,119.8283579
,"Rule: When you see a yellow image, do not press 'spacebar'.",Images/Scram1/HM04_NC.jpg,Scramble,Blue,Images/Blue.jpg,space,ParentConditions/YellowYellowBlue_v2.xlsx,YellowYellowBlue,Conditions/Version_2/YellowScramStop.xlsx,no,PASS,0.048118245,,,,,,,,,0,0,0,1,0,1,1,1,0,13,13,13,,,,,,,,,,,,,,,,,,,,,,,,,,,,,,,,,,,,,,,,,,,,,,,,,,,,,,,,,,,,,,,,,,,,,,,,,,,,,,,1.71,488.7273866,None,space,1,490.5614462,None,490.5614462,None,490.5614462,None,0.3399109,,,,,,,,,,,P053,FENCOG,2,Post,2022_Jun_21_1058,Go No-Go Task,2021.1.4,119.8283579
,"Rule: When you see a yellow image, do not press 'spacebar'.",Images/Scram1/AM03NES.jpg,Scramble,Blue,Images/Blue.jpg,space,ParentConditions/YellowYellowBlue_v2.xlsx,YellowYellowBlue,Conditions/Version_2/YellowScramStop.xlsx,no,PASS,0.507240762,,,,,,,,,0,0,0,1,0,1,1,1,0,14,14,14,,,,,,,,,,,,,,,,,,,,,,,,,,,,,,,,,,,,,,,,,,,,,,,,,,,,,,,,,,,,,,,,,,,,,,,,,,,,,,,1.76,490.9580397,None,space,1,492.8274965,None,492.8274965,None,492.8274965,None,0.2979392,,,,,,,,,,,P053,FENCOG,2,Post,2022_Jun_21_1058,Go No-Go Task,2021.1.4,119.8283579
,"Rule: When you see a yellow image, do not press 'spacebar'.",Images/Scram1/AM22NES.jpg,Scramble,Blue,Images/Blue.jpg,space,ParentConditions/YellowYellowBlue_v2.xlsx,YellowYellowBlue,Conditions/Version_2/YellowScramStop.xlsx,no,PASS,0.833273647,,,,,,,,,0,0,0,1,0,1,1,1,0,15,15,15,,,,,,,,,,,,,,,,,,,,,,,,,,,,,,,,,,,,,,,,,,,,,,,,,,,,,,,,,,,,,,,,,,,,,,,,,,,,,,,1.5,493.2281609,None,space,1,494.8603662,None,494.8603662,None,494.8603662,None,0.2648527,,,,,,,,,,,P053,FENCOG,2,Post,2022_Jun_21_1058,Go No-Go Task,2021.1.4,119.8283579
,"Rule: When you see a yellow image, do not press 'spacebar'.",Images/Scram2/AM17NES.jpg,Scramble,Yellow,Images/Yellow.jpg,None,ParentConditions/YellowYellowBlue_v2.xlsx,YellowYellowBlue,Conditions/Version_2/YellowScramStop.xlsx,yes,PASS,0.552444031,,,,,,,,,0,0,0,1,0,1,1,1,0,16,16,16,,,,,,,,,,,,,,,,,,,,,,,,,,,,,,,,,,,,,,,,,,,,,,,,,,,,,,,,,,,,,,,,,,,,,,,,,,,,,,,1.84,495.2440543,None,None,1,497.2011876,None,497.2011876,None,497.2011876,None,,,,,,,,,,,,P053,FENCOG,2,Post,2022_Jun_21_1058,Go No-Go Task,2021.1.4,119.8283579
,"Rule: When you see a yellow image, do not press 'spacebar'.",Images/Scram1/AM10NES.jpg,Scramble,Blue,Images/Blue.jpg,space,ParentConditions/YellowYellowBlue_v2.xlsx,YellowYellowBlue,Conditions/Version_2/YellowScramStop.xlsx,no,PASS,0.136997305,,,,,,,,,0,0,0,1,0,1,1,1,0,17,17,17,,,,,,,,,,,,,,,,,,,,,,,,,,,,,,,,,,,,,,,,,,,,,,,,,,,,,,,,,,,,,,,,,,,,,,,,,,,,,,,1.75,497.5884834,None,space,1,499.4671945,None,499.4671945,None,499.4671945,None,0.2663176,,,,,,,,,,,P053,FENCOG,2,Post,2022_Jun_21_1058,Go No-Go Task,2021.1.4,119.8283579
,"Rule: When you see a yellow image, do not press 'spacebar'.",Images/Scram2/AM03_NC.jpg,Scramble,Yellow,Images/Yellow.jpg,None,ParentConditions/YellowYellowBlue_v2.xlsx,YellowYellowBlue,Conditions/Version_2/YellowScramStop.xlsx,yes,PASS,0.28869549,,,,,,,,,0,0,0,1,0,1,1,1,0,18,18,18,,,,,,,,,,,,,,,,,,,,,,,,,,,,,,,,,,,,,,,,,,,,,,,,,,,,,,,,,,,,,,,,,,,,,,,,,,,,,,,2,499.8550361,None,space,0,501.9664913,None,501.9664913,None,501.9664913,None,0.2548535,,,,,,,,,,,P053,FENCOG,2,Post,2022_Jun_21_1058,Go No-Go Task,2021.1.4,119.8283579
,"Rule: When you see a yellow image, do not press 'spacebar'.",Images/Scram1/HF09_NC.jpg,Scramble,Blue,Images/Blue.jpg,space,ParentConditions/YellowYellowBlue_v2.xlsx,YellowYellowBlue,Conditions/Version_2/YellowScramStop.xlsx,no,PASS,0.521047178,,,,,,,,,0,0,0,1,0,1,1,1,0,19,19,19,,,,,,,,,,,,,,,,,,,,,,,,,,,,,,,,,,,,,,,,,,,,,,,,,,,,,,,,,,,,,,,,,,,,,,,,,,,,,,,1.74,502.3669732,None,space,1,504.2241825,None,504.2241825,None,504.2241825,None,0.2134036,,,,,,,,,,,P053,FENCOG,2,Post,2022_Jun_21_1058,Go No-Go Task,2021.1.4,119.8283579
,"Rule: When you see a yellow image, do not press 'spacebar'.",Images/Scram1/BM08_NC.jpg,Scramble,Blue,Images/Blue.jpg,space,ParentConditions/YellowYellowBlue_v2.xlsx,YellowYellowBlue,Conditions/Version_2/YellowScramStop.xlsx,no,PASS,0.719220711,,,,,,,,,0,0,0,1,0,1,1,1,0,20,20,20,,,,,,,,,,,,,,,,,,,,,,,,,,,,,,,,,,,,,,,,,,,,,,,,,,,,,,,,,,,,,,,,,,,,,,,,,,,,,,,1.91,504.6162884,None,space,1,506.6317279,None,506.6317279,None,506.6317279,None,0.2294863,,,,,,,,,,,P053,FENCOG,2,Post,2022_Jun_21_1058,Go No-Go Task,2021.1.4,119.8283579
,"Rule: When you see a yellow image, do not press 'spacebar'.",Images/Scram1/AF32NES.jpg,Scramble,Blue,Images/Blue.jpg,space,ParentConditions/YellowYellowBlue_v2.xlsx,YellowYellowBlue,Conditions/Version_2/YellowScramStop.xlsx,no,PASS,0.385670692,,,,,,,,,0,0,0,1,0,1,1,1,0,21,21,21,,,,,,,,,,,,,,,,,,,,,,,,,,,,,,,,,,,,,,,,,,,,,,,,,,,,,,,,,,,,,,,,,,,,,,,,,,,,,,,1.81,507.0405536,None,space,1,508.9727179,None,508.9727179,None,508.9727179,None,0.3607711,,,,,,,,,,,P053,FENCOG,2,Post,2022_Jun_21_1058,Go No-Go Task,2021.1.4,119.8283579
,"Rule: When you see a yellow image, do not press 'spacebar'.",Images/Scram2/AM06_NC.jpg,Scramble,Yellow,Images/Yellow.jpg,None,ParentConditions/YellowYellowBlue_v2.xlsx,YellowYellowBlue,Conditions/Version_2/YellowScramStop.xlsx,yes,PASS,0.593844607,,,,,,,,,0,0,0,1,0,1,1,1,0,22,22,22,,,,,,,,,,,,,,,,,,,,,,,,,,,,,,,,,,,,,,,,,,,,,,,,,,,,,,,,,,,,,,,,,,,,,,,,,,,,,,,1.42,509.3650466,None,None,1,510.9054432,None,510.9054432,None,510.9054432,None,,,,,,,,,,,,P053,FENCOG,2,Post,2022_Jun_21_1058,Go No-Go Task,2021.1.4,119.8283579
,"Rule: When you see a yellow image, do not press 'spacebar'.",Images/Scram1/AM06_NC.jpg,Scramble,Blue,Images/Blue.jpg,space,ParentConditions/YellowYellowBlue_v2.xlsx,YellowYellowBlue,Conditions/Version_2/YellowScramStop.xlsx,no,PASS,0.559775199,,,,,,,,,0,0,0,1,0,1,1,1,0,23,23,23,,,,,,,,,,,,,,,,,,,,,,,,,,,,,,,,,,,,,,,,,,,,,,,,,,,,,,,,,,,,,,,,,,,,,,,,,,,,,,,1.89,511.3005516,None,space,1,513.3130894,None,513.3130894,None,513.3130894,None,0.2444044,,,,,,,,,,,P053,FENCOG,2,Post,2022_Jun_21_1058,Go No-Go Task,2021.1.4,119.8283579
,"Rule: When you see a yellow image, do not press 'spacebar'.",Images/Scram2/AM02_NC.jpg,Scramble,Yellow,Images/Yellow.jpg,None,ParentConditions/YellowYellowBlue_v2.xlsx,YellowYellowBlue,Conditions/Version_2/YellowScramStop.xlsx,yes,PASS,0.210145354,,,,,,,,,0,0,0,1,0,1,1,1,0,24,24,24,,,,,,,,,,,,,,,,,,,,,,,,,,,,,,,,,,,,,,,,,,,,,,,,,,,,,,,,,,,,,,,,,,,,,,,,,,,,,,,1.28,513.7029635,None,None,1,515.1042409,None,515.1042409,None,515.1042409,None,,,,,,,,,,,,P053,FENCOG,2,Post,2022_Jun_21_1058,Go No-Go Task,2021.1.4,119.8283579
,"Rule: When you see a yellow image, do not press 'spacebar'.",Images/Scram2/HF05_NC.jpg,Scramble,Blue,Images/Blue.jpg,space,ParentConditions/YellowYellowBlue_v2.xlsx,YellowYellowBlue,Conditions/Version_2/YellowScramStop.xlsx,no,PASS,0.002509143,,,,,,,,,0,0,0,1,0,1,1,1,0,25,25,25,,,,,,,,,,,,,,,,,,,,,,,,,,,,,,,,,,,,,,,,,,,,,,,,,,,,,,,,,,,,,,,,,,,,,,,,,,,,,,,1.78,515.4945712,None,space,1,517.3952922,None,517.3952922,None,517.3952922,None,0.2821896,,,,,,,,,,,P053,FENCOG,2,Post,2022_Jun_21_1058,Go No-Go Task,2021.1.4,119.8283579
,"Rule: When you see a yellow image, do not press 'spacebar'.",Images/Scram2/AF32NES.jpg,Scramble,Yellow,Images/Yellow.jpg,None,ParentConditions/YellowYellowBlue_v2.xlsx,YellowYellowBlue,Conditions/Version_2/YellowScramStop.xlsx,yes,PASS,0.562163804,,,,,,,,,0,0,0,1,0,1,1,1,0,26,26,26,,,,,,,,,,,,,,,,,,,,,,,,,,,,,,,,,,,,,,,,,,,,,,,,,,,,,,,,,,,,,,,,,,,,,,,,,,,,,,,1.87,517.7874347,None,space,0,519.7861732,None,519.7861732,None,519.7861732,None,0.1955091,,,,,,,,,,,P053,FENCOG,2,Post,2022_Jun_21_1058,Go No-Go Task,2021.1.4,119.8283579
,"Rule: When you see a yellow image, do not press 'spacebar'.",Images/Scram2/HM04_NC.jpg,Scramble,Blue,Images/Blue.jpg,space,ParentConditions/YellowYellowBlue_v2.xlsx,YellowYellowBlue,Conditions/Version_2/YellowScramStop.xlsx,no,PASS,0.365696178,,,,,,,,,0,0,0,1,0,1,1,1,0,27,27,27,,,,,,,,,,,,,,,,,,,,,,,,,,,,,,,,,,,,,,,,,,,,,,,,,,,,,,,,,,,,,,,,,,,,,,,,,,,,,,,1.8,520.1757274,None,space,1,522.09384,None,522.09384,None,522.09384,None,0.2875952,,,,,,,,,,,P053,FENCOG,2,Post,2022_Jun_21_1058,Go No-Go Task,2021.1.4,119.8283579
,"Rule: When you see a yellow image, do not press 'spacebar'.",Images/Scram2/AF25NES.jpg,Scramble,Blue,Images/Blue.jpg,space,ParentConditions/YellowYellowBlue_v2.xlsx,YellowYellowBlue,Conditions/Version_2/YellowScramStop.xlsx,no,PASS,0.242967324,,,,,,,,,0,0,0,1,0,1,1,1,0,28,28,28,,,,,,,,,,,,,,,,,,,,,,,,,,,,,,,,,,,,,,,,,,,,,,,,,,,,,,,,,,,,,,,,,,,,,,,,,,,,,,,1.94,522.491241,None,space,1,524.5429591,None,524.5429591,None,524.5429591,None,0.3023525,,,,,,,,,,,P053,FENCOG,2,Post,2022_Jun_21_1058,Go No-Go Task,2021.1.4,119.8283579
,"Rule: When you see a yellow image, do not press 'spacebar'.",Images/Scram1/AF34NES.jpg,Scramble,Blue,Images/Blue.jpg,space,ParentConditions/YellowYellowBlue_v2.xlsx,YellowYellowBlue,Conditions/Version_2/YellowScramStop.xlsx,no,PASS,0.294797095,,,,,,,,,0,0,0,1,0,1,1,1,0,29,29,29,,,,,,,,,,,,,,,,,,,,,,,,,,,,,,,,,,,,,,,,,,,,,,,,,,,,,,,,,,,,,,,,,,,,,,,,,,,,,,,1.37,524.9402496,None,space,1,526.4341601,None,526.4341601,None,526.4341601,None,0.2672312,,,,,,,,,,,P053,FENCOG,2,Post,2022_Jun_21_1058,Go No-Go Task,2021.1.4,119.8283579
,"Rule: When you see a yellow image, do not press 'spacebar'.",Images/Scram2/AF11NES.jpg,Scramble,Blue,Images/Blue.jpg,space,ParentConditions/YellowYellowBlue_v2.xlsx,YellowYellowBlue,Conditions/Version_2/YellowScramStop.xlsx,no,PASS,0.061126936,,,,,,,,,0,0,0,1,0,1,1,1,0,30,30,30,,,,,,,,,,,,,,,,,,,,,,,,,,,,,,,,,,,,,,,,,,,,,,,,,,,,,,,,,,,,,,,,,,,,,,,,,,,,,,,1.46,526.8243068,None,space,1,528.4169884,None,528.4169884,None,528.4169884,None,0.1804534,,,,,,,,,,,P053,FENCOG,2,Post,2022_Jun_21_1058,Go No-Go Task,2021.1.4,119.8283579
,"Rule: When you see a yellow image, do not press 'spacebar'.",Images/Scram2/AF34NES.jpg,Scramble,Yellow,Images/Yellow.jpg,None,ParentConditions/YellowYellowBlue_v2.xlsx,YellowYellowBlue,Conditions/Version_2/YellowScramStop.xlsx,yes,PASS,0.36837427,,,,,,,,,0,0,0,1,0,1,1,1,0,31,31,31,,,,,,,,,,,,,,,,,,,,,,,,,,,,,,,,,,,,,,,,,,,,,,,,,,,,,,,,,,,,,,,,,,,,,,,,,,,,,,,1.59,528.7977234,None,space,0,530.5163396,None,530.5163396,None,530.5163396,None,0.1530883,,,,,,,,,,,P053,FENCOG,2,Post,2022_Jun_21_1058,Go No-Go Task,2021.1.4,119.8283579
,"Rule: When you see a yellow image, do not press 'spacebar'.",Images/Scram1/AM02_NC.jpg,Scramble,Blue,Images/Blue.jpg,space,ParentConditions/YellowYellowBlue_v2.xlsx,YellowYellowBlue,Conditions/Version_2/YellowScramStop.xlsx,no,PASS,0.700401743,,,,,,,,,0,0,0,1,0,1,1,1,0,32,32,32,,,,,,,,,,,,,,,,,,,,,,,,,,,,,,,,,,,,,,,,,,,,,,,,,,,,,,,,,,,,,,,,,,,,,,,,,,,,,,,1.86,530.8934446,None,space,1,532.8823165,None,532.8823165,None,532.8823165,None,0.1549707,,,,,,,,,,,P053,FENCOG,2,Post,2022_Jun_21_1058,Go No-Go Task,2021.1.4,119.8283579
,"Rule: When you see a yellow image, do not press 'spacebar'.",Images/Scram2/AM13NES.jpg,Scramble,Yellow,Images/Yellow.jpg,None,ParentConditions/YellowYellowBlue_v2.xlsx,YellowYellowBlue,Conditions/Version_2/YellowScramStop.xlsx,yes,PASS,0.703766843,,,,,,,,,0,0,0,1,0,1,1,1,0,33,33,33,,,,,,,,,,,,,,,,,,,,,,,,,,,,,,,,,,,,,,,,,,,,,,,,,,,,,,,,,,,,,,,,,,,,,,,,,,,,,,,1.38,533.2635637,None,space,0,534.7735118,None,534.7735118,None,534.7735118,None,0.2318064,,,,,,,,,,,P053,FENCOG,2,Post,2022_Jun_21_1058,Go No-Go Task,2021.1.4,119.8283579
,"Rule: When you see a yellow image, do not press 'spacebar'.",Images/Scram1/AM03_NC.jpg,Scramble,Blue,Images/Blue.jpg,space,ParentConditions/YellowYellowBlue_v2.xlsx,YellowYellowBlue,Conditions/Version_2/YellowScramStop.xlsx,no,PASS,0.139847361,,,,,,,,,0,0,0,1,0,1,1,1,0,34,34,34,,,,,,,,,,,,,,,,,,,,,,,,,,,,,,,,,,,,,,,,,,,,,,,,,,,,,,,,,,,,,,,,,,,,,,,,,,,,,,,1.88,535.1598805,None,space,1,537.1644585,None,537.1644585,None,537.1644585,None,0.2809071,,,,,,,,,,,P053,FENCOG,2,Post,2022_Jun_21_1058,Go No-Go Task,2021.1.4,119.8283579
,"Rule: When you see a yellow image, do not press 'spacebar'.",Images/Scram1/AF33NES.jpg,Scramble,Blue,Images/Blue.jpg,space,ParentConditions/YellowYellowBlue_v2.xlsx,YellowYellowBlue,Conditions/Version_2/YellowScramStop.xlsx,no,PASS,0.747996868,,,,,,,,,0,0,0,1,0,1,1,1,0,35,35,35,,,,,,,,,,,,,,,,,,,,,,,,,,,,,,,,,,,,,,,,,,,,,,,,,,,,,,,,,,,,,,,,,,,,,,,,,,,,,,,1.67,537.5590873,None,space,1,539.3470715,None,539.3470715,None,539.3470715,None,0.2424171,,,,,,,,,,,P053,FENCOG,2,Post,2022_Jun_21_1058,Go No-Go Task,2021.1.4,119.8283579
,"Rule: When you see a yellow image, do not press 'spacebar'.",Images/Scram1/BF10_NC.jpg,Scramble,Blue,Images/Blue.jpg,space,ParentConditions/YellowYellowBlue_v2.xlsx,YellowYellowBlue,Conditions/Version_2/YellowScramStop.xlsx,no,PASS,0.522563927,,,,,,,,,0,0,0,1,0,1,1,1,0,36,36,36,,,,,,,,,,,,,,,,,,,,,,,,,,,,,,,,,,,,,,,,,,,,,,,,,,,,,,,,,,,,,,,,,,,,,,,,,,,,,,,1.47,539.7392903,None,space,1,541.3214866,None,541.3214866,None,541.3214866,None,0.2754008,,,,,,,,,,,P053,FENCOG,2,Post,2022_Jun_21_1058,Go No-Go Task,2021.1.4,119.8283579
,"Rule: When you see a yellow image, do not press 'spacebar'.",Images/Scram1/AF07_NC.jpg,Scramble,Blue,Images/Blue.jpg,space,ParentConditions/YellowYellowBlue_v2.xlsx,YellowYellowBlue,Conditions/Version_2/YellowScramStop.xlsx,no,PASS,0.522100253,,,,,,,,,0,0,0,1,0,1,1,1,0,37,37,37,,,,,,,,,,,,,,,,,,,,,,,,,,,,,,,,,,,,,,,,,,,,,,,,,,,,,,,,,,,,,,,,,,,,,,,,,,,,,,,1.33,541.7204539,None,space,1,543.1710004,None,543.1710004,None,543.1710004,None,0.2104393,,,,,,,,,,,P053,FENCOG,2,Post,2022_Jun_21_1058,Go No-Go Task,2021.1.4,119.8283579
,"Rule: When you see a yellow image, do not press 'spacebar'.",Images/Scram2/AM23NES.jpg,Scramble,Yellow,Images/Yellow.jpg,None,ParentConditions/YellowYellowBlue_v2.xlsx,YellowYellowBlue,Conditions/Version_2/YellowScramStop.xlsx,yes,PASS,0.181954991,,,,,,,,,0,0,0,1,0,1,1,1,0,38,38,38,,,,,,,,,,,,,,,,,,,,,,,,,,,,,,,,,,,,,,,,,,,,,,,,,,,,,,,,,,,,,,,,,,,,,,,,,,,,,,,1.35,543.5609626,None,space,0,545.037045,None,545.037045,None,545.037045,None,0.1683401,,,,,,,,,,,P053,FENCOG,2,Post,2022_Jun_21_1058,Go No-Go Task,2021.1.4,119.8283579
,"Rule: When you see a yellow image, do not press 'spacebar'.",Images/Scram1/AF24NES.jpg,Scramble,Blue,Images/Blue.jpg,space,ParentConditions/YellowYellowBlue_v2.xlsx,YellowYellowBlue,Conditions/Version_2/YellowScramStop.xlsx,no,PASS,0.664038939,,,,,,,,,0,0,0,1,0,1,1,1,0,39,39,39,,,,,,,,,,,,,,,,,,,,,,,,,,,,,,,,,,,,,,,,,,,,,,,,,,,,,,,,,,,,,,,,,,,,,,,,,,,,,,,1.53,545.4178903,None,space,1,547.0614765,None,547.0614765,None,547.0614765,None,0.2398726,,,,,,,,,,,P053,FENCOG,2,Post,2022_Jun_21_1058,Go No-Go Task,2021.1.4,119.8283579
,"Rule: When you see a yellow image, do not press 'spacebar'.",Images/Scram2/AF33NES.jpg,Scramble,Yellow,Images/Yellow.jpg,None,ParentConditions/YellowYellowBlue_v2.xlsx,YellowYellowBlue,Conditions/Version_2/YellowScramStop.xlsx,yes,PASS,0.620382602,,,,,,,,,0,0,0,1,0,1,1,1,0,40,40,40,,,,,,,,,,,,,,,,,,,,,,,,,,,,,,,,,,,,,,,,,,,,,,,,,,,,,,,,,,,,,,,,,,,,,,,,,,,,,,,1.41,547.466769,None,space,0,549.0025746,None,549.0025746,None,549.0025746,None,0.2434427,,,,,,,,,,,P053,FENCOG,2,Post,2022_Jun_21_1058,Go No-Go Task,2021.1.4,119.8283579
,"Rule: When you see a yellow image, do not press 'spacebar'.",Images/Scram1/AF25NES.jpg,Scramble,Blue,Images/Blue.jpg,space,ParentConditions/YellowYellowBlue_v2.xlsx,YellowYellowBlue,Conditions/Version_2/YellowScramStop.xlsx,no,PASS,0.051415465,,,,,,,,,0,0,0,1,0,1,1,1,0,41,41,41,,,,,,,,,,,,,,,,,,,,,,,,,,,,,,,,,,,,,,,,,,,,,,,,,,,,,,,,,,,,,,,,,,,,,,,,,,,,,,,1.48,549.3892194,None,space,1,550.9936269,None,550.9936269,None,550.9936269,None,0.2279319,,,,,,,,,,,P053,FENCOG,2,Post,2022_Jun_21_1058,Go No-Go Task,2021.1.4,119.8283579
,"Rule: When you see a yellow image, do not press 'spacebar'.",Images/Scram2/AM10NES.jpg,Scramble,Yellow,Images/Yellow.jpg,None,ParentConditions/YellowYellowBlue_v2.xlsx,YellowYellowBlue,Conditions/Version_2/YellowScramStop.xlsx,yes,PASS,0.126774301,,,,,,,,,0,0,0,1,0,1,1,1,0,42,42,42,,,,,,,,,,,,,,,,,,,,,,,,,,,,,,,,,,,,,,,,,,,,,,,,,,,,,,,,,,,,,,,,,,,,,,,,,,,,,,,1.27,551.3841319,None,space,0,552.7933899,None,552.7933899,None,552.7933899,None,0.227941,,,,,,,,,,,P053,FENCOG,2,Post,2022_Jun_21_1058,Go No-Go Task,2021.1.4,119.8283579
,"Rule: When you see a yellow image, do not press 'spacebar'.",Images/Scram2/BF10_NC.jpg,Scramble,Blue,Images/Blue.jpg,space,ParentConditions/YellowYellowBlue_v2.xlsx,YellowYellowBlue,Conditions/Version_2/YellowScramStop.xlsx,no,PASS,0.220165605,,,,,,,,,0,0,0,1,0,1,1,1,0,43,43,43,,,,,,,,,,,,,,,,,,,,,,,,,,,,,,,,,,,,,,,,,,,,,,,,,,,,,,,,,,,,,,,,,,,,,,,,,,,,,,,1.55,553.1728791,None,space,1,554.8342741,None,554.8342741,None,554.8342741,None,0.2831781,,,,,,,,,,,P053,FENCOG,2,Post,2022_Jun_21_1058,Go No-Go Task,2021.1.4,119.8283579
,"Rule: When you see a yellow image, do not press 'spacebar'.",Images/Scram1/BF18_NC.jpg,Scramble,Blue,Images/Blue.jpg,space,ParentConditions/YellowYellowBlue_v2.xlsx,YellowYellowBlue,Conditions/Version_2/YellowScramStop.xlsx,no,PASS,0.11487632,,,,,,,,,0,0,0,1,0,1,1,1,0,44,44,44,,,,,,,,,,,,,,,,,,,,,,,,,,,,,,,,,,,,,,,,,,,,,,,,,,,,,,,,,,,,,,,,,,,,,,,,,,,,,,,1.23,555.2363042,None,None,0,556.5753345,None,556.5753345,None,556.5753345,None,,,,,,,,,,,,P053,FENCOG,2,Post,2022_Jun_21_1058,Go No-Go Task,2021.1.4,119.8283579
,"Rule: When you see a yellow image, do not press 'spacebar'.",Images/Scram2/HF09_NC.jpg,Scramble,Blue,Images/Blue.jpg,space,ParentConditions/YellowYellowBlue_v2.xlsx,YellowYellowBlue,Conditions/Version_2/YellowScramStop.xlsx,no,PASS,0.20475492,,,,,,,,,0,0,0,1,0,1,1,1,0,45,45,45,,,,,,,,,,,,,,,,,,,,,,,,,,,,,,,,,,,,,,,,,,,,,,,,,,,,,,,,,,,,,,,,,,,,,,,,,,,,,,,1.49,556.9808159,None,None,0,558.5914013,None,558.5914013,None,558.5914013,None,,,,,,,,,,,,P053,FENCOG,2,Post,2022_Jun_21_1058,Go No-Go Task,2021.1.4,119.8283579
,"Rule: When you see a yellow image, do not press 'spacebar'.",Images/Scram1/BF05_NC.jpg,Scramble,Blue,Images/Blue.jpg,space,ParentConditions/YellowYellowBlue_v2.xlsx,YellowYellowBlue,Conditions/Version_2/YellowScramStop.xlsx,no,PASS,0.668549712,,,,,,,,,0,0,0,1,0,1,1,1,0,46,46,46,,,,,,,,,,,,,,,,,,,,,,,,,,,,,,,,,,,,,,,,,,,,,,,,,,,,,,,,,,,,,,,,,,,,,,,,,,,,,,,1.96,558.9889697,None,space,1,561.0656521,None,561.0656521,None,561.0656521,None,0.1961591,,,,,,,,,,,P053,FENCOG,2,Post,2022_Jun_21_1058,Go No-Go Task,2021.1.4,119.8283579
,"Rule: When you see a yellow image, do not press 'spacebar'.",Images/Scram1/AM17NES.jpg,Scramble,Blue,Images/Blue.jpg,space,ParentConditions/YellowYellowBlue_v2.xlsx,YellowYellowBlue,Conditions/Version_2/YellowScramStop.xlsx,no,PASS,0.557554983,,,,,,,,,0,0,0,1,0,1,1,1,0,47,47,47,,,,,,,,,,,,,,,,,,,,,,,,,,,,,,,,,,,,,,,,,,,,,,,,,,,,,,,,,,,,,,,,,,,,,,,,,,,,,,,1.2,561.4541715,None,space,1,562.7735863,None,562.7735863,None,562.7735863,None,0.3518794,,,,,,,,,,,P053,FENCOG,2,Post,2022_Jun_21_1058,Go No-Go Task,2021.1.4,119.8283579
,"Rule: When you see a yellow image, do not press 'spacebar'.",Images/Scram2/AM09_NC.jpg,Scramble,Yellow,Images/Yellow.jpg,None,ParentConditions/YellowYellowBlue_v2.xlsx,YellowYellowBlue,Conditions/Version_2/YellowScramStop.xlsx,yes,PASS,0.084904739,,,,,,,,,0,0,0,1,0,1,1,1,0,48,48,48,,,,,,,,,,,,,,,,,,,,,,,,,,,,,,,,,,,,,,,,,,,,,,,,,,,,,,,,,,,,,,,,,,,,,,,,,,,,,,,1.6,563.163253,None,space,0,564.8978815,None,564.8978815,None,564.8978815,None,0.2596027,,,,,,,,,,,P053,FENCOG,2,Post,2022_Jun_21_1058,Go No-Go Task,2021.1.4,119.8283579
,"Rule: When you see a yellow image, do not press 'spacebar'.",Images/Scram2/AF09NES.jpg,Scramble,Blue,Images/Blue.jpg,space,ParentConditions/YellowYellowBlue_v2.xlsx,YellowYellowBlue,Conditions/Version_2/YellowScramStop.xlsx,no,PASS,0.851192202,,,,,,,,,0,0,0,1,0,1,1,1,0,49,49,49,,,,,,,,,,,,,,,,,,,,,,,,,,,,,,,,,,,,,,,,,,,,,,,,,,,,,,,,,,,,,,,,,,,,,,,,,,,,,,,1.58,565.2790043,None,space,1,566.9805738,None,566.9805738,None,566.9805738,None,0.3131626,,,,,,,,,,,P053,FENCOG,2,Post,2022_Jun_21_1058,Go No-Go Task,2021.1.4,119.8283579
,"Rule: When you see a yellow image, do not press 'spacebar'.",Images/Scram2/AM04_NC.jpg,Scramble,Yellow,Images/Yellow.jpg,None,ParentConditions/YellowYellowBlue_v2.xlsx,YellowYellowBlue,Conditions/Version_2/YellowScramStop.xlsx,yes,PASS,0.971173892,,,,,,,,,0,0,0,1,0,1,1,1,0,50,50,50,,,,,,,,,,,,,,,,,,,,,,,,,,,,,,,,,,,,,,,,,,,,,,,,,,,,,,,,,,,,,,,,,,,,,,,,,,,,,,,1.77,567.4209316,None,space,0,569.3215814,None,569.3215814,None,569.3215814,None,0.2676576,,,,,,,,,,,P053,FENCOG,2,Post,2022_Jun_21_1058,Go No-Go Task,2021.1.4,119.8283579
,"Rule: When you see a yellow image, do not press 'spacebar'.",Images/Scram2/BF05_NC.jpg,Scramble,Yellow,Images/Yellow.jpg,None,ParentConditions/YellowYellowBlue_v2.xlsx,YellowYellowBlue,Conditions/Version_2/YellowScramStop.xlsx,yes,PASS,0.368466089,,,,,,,,,0,0,0,1,0,1,1,1,0,51,51,51,,,,,,,,,,,,,,,,,,,,,,,,,,,,,,,,,,,,,,,,,,,,,,,,,,,,,,,,,,,,,,,,,,,,,,,,,,,,,,,1.25,569.710003,None,None,1,571.0793637,None,571.0793637,None,571.0793637,None,,,,,,,,,,,,P053,FENCOG,2,Post,2022_Jun_21_1058,Go No-Go Task,2021.1.4,119.8283579
,"Rule: When you see a yellow image, do not press 'spacebar'.",Images/Scram1/HM06_NC.jpg,Scramble,Blue,Images/Blue.jpg,space,ParentConditions/YellowYellowBlue_v2.xlsx,YellowYellowBlue,Conditions/Version_2/YellowScramStop.xlsx,no,PASS,0.5754529,,,,,,,,,0,0,0,1,0,1,1,1,0,52,52,52,,,,,,,,,,,,,,,,,,,,,,,,,,,,,,,,,,,,,,,,,,,,,,,,,,,,,,,,,,,,,,,,,,,,,,,,,,,,,,,1.85,571.4766902,None,space,1,573.4453232,None,573.4453232,None,573.4453232,None,0.3280149,,,,,,,,,,,P053,FENCOG,2,Post,2022_Jun_21_1058,Go No-Go Task,2021.1.4,119.8283579
,"Rule: When you see a yellow image, do not press 'spacebar'.",Images/Scram2/AF07NES.jpg,Scramble,Blue,Images/Blue.jpg,space,ParentConditions/YellowYellowBlue_v2.xlsx,YellowYellowBlue,Conditions/Version_2/YellowScramStop.xlsx,no,PASS,0.507777947,,,,,,,,,0,0,0,1,0,1,1,1,0,53,53,53,,,,,,,,,,,,,,,,,,,,,,,,,,,,,,,,,,,,,,,,,,,,,,,,,,,,,,,,,,,,,,,,,,,,,,,,,,,,,,,1.83,573.8421222,None,space,1,575.8030446,None,575.8030446,None,575.8030446,None,0.2982293,,,,,,,,,,,P053,FENCOG,2,Post,2022_Jun_21_1058,Go No-Go Task,2021.1.4,119.8283579
,"Rule: When you see a yellow image, do not press 'spacebar'.",Images/Scram1/BM01_NC.jpg,Scramble,Blue,Images/Blue.jpg,space,ParentConditions/YellowYellowBlue_v2.xlsx,YellowYellowBlue,Conditions/Version_2/YellowScramStop.xlsx,no,PASS,0.616228629,,,,,,,,,0,0,0,1,0,1,1,1,0,54,54,54,,,,,,,,,,,,,,,,,,,,,,,,,,,,,,,,,,,,,,,,,,,,,,,,,,,,,,,,,,,,,,,,,,,,,,,,,,,,,,,1.66,576.1849861,None,space,1,577.9608303,None,577.9608303,None,577.9608303,None,0.1564516,,,,,,,,,,,P053,FENCOG,2,Post,2022_Jun_21_1058,Go No-Go Task,2021.1.4,119.8283579
,"Rule: When you see a yellow image, do not press 'spacebar'.",Images/Scram2/AF07_NC.jpg,Scramble,Blue,Images/Blue.jpg,space,ParentConditions/YellowYellowBlue_v2.xlsx,YellowYellowBlue,Conditions/Version_2/YellowScramStop.xlsx,no,PASS,0.139477545,,,,,,,,,0,0,0,1,0,1,1,1,0,55,55,55,,,,,,,,,,,,,,,,,,,,,,,,,,,,,,,,,,,,,,,,,,,,,,,,,,,,,,,,,,,,,,,,,,,,,,,,,,,,,,,1.92,578.3594242,None,space,1,580.4016617,None,580.4016617,None,580.4016617,None,0.1957189,,,,,,,,,,,P053,FENCOG,2,Post,2022_Jun_21_1058,Go No-Go Task,2021.1.4,119.8283579
,"Rule: When you see a yellow image, do not press 'spacebar'.",Images/Scram1/AF10_NC.jpg,Scramble,Blue,Images/Blue.jpg,space,ParentConditions/YellowYellowBlue_v2.xlsx,YellowYellowBlue,Conditions/Version_2/YellowScramStop.xlsx,no,PASS,0.816406664,,,,,,,,,0,0,0,1,0,1,1,1,0,56,56,56,,,,,,,,,,,,,,,,,,,,,,,,,,,,,,,,,,,,,,,,,,,,,,,,,,,,,,,,,,,,,,,,,,,,,,,,,,,,,,,1.57,580.7942178,None,space,1,582.4760032,None,582.4760032,None,582.4760032,None,0.2250338,,,,,,,,,,,P053,FENCOG,2,Post,2022_Jun_21_1058,Go No-Go Task,2021.1.4,119.8283579
,"Rule: When you see a yellow image, do not press 'spacebar'.",Images/Scram1/AM09NES.jpg,Scramble,Blue,Images/Blue.jpg,space,ParentConditions/YellowYellowBlue_v2.xlsx,YellowYellowBlue,Conditions/Version_2/YellowScramStop.xlsx,no,PASS,0.22221234,,,,,,,,,0,0,0,1,0,1,1,1,0,57,57,57,,,,,,,,,,,,,,,,,,,,,,,,,,,,,,,,,,,,,,,,,,,,,,,,,,,,,,,,,,,,,,,,,,,,,,,,,,,,,,,1.52,582.8730424,None,space,1,584.5170591,None,584.5170591,None,584.5170591,None,0.2482796,,,,,,,,,,,P053,FENCOG,2,Post,2022_Jun_21_1058,Go No-Go Task,2021.1.4,119.8283579
,"Rule: When you see a yellow image, do not press 'spacebar'.",Images/Scram1/AF01_NC.jpg,Scramble,Blue,Images/Blue.jpg,space,ParentConditions/YellowYellowBlue_v2.xlsx,YellowYellowBlue,Conditions/Version_2/YellowScramStop.xlsx,no,PASS,0.246774092,,,,,,,,,0,0,0,1,0,1,1,1,0,58,58,58,,,,,,,,,,,,,,,,,,,,,,,,,,,,,,,,,,,,,,,,,,,,,,,,,,,,,,,,,,,,,,,,,,,,,,,,,,,,,,,1.56,584.9060796,None,space,1,586.5914358,None,586.5914358,None,586.5914358,None,0.2538888,,,,,,,,,,,P053,FENCOG,2,Post,2022_Jun_21_1058,Go No-Go Task,2021.1.4,119.8283579
,"Rule: When you see a yellow image, do not press 'spacebar'.",Images/Scram1/AM09_NC.jpg,Scramble,Blue,Images/Blue.jpg,space,ParentConditions/YellowYellowBlue_v2.xlsx,YellowYellowBlue,Conditions/Version_2/YellowScramStop.xlsx,no,PASS,0.094765065,,,,,,,,,0,0,0,1,0,1,1,1,0,59,59,59,,,,,,,,,,,,,,,,,,,,,,,,,,,,,,,,,,,,,,,,,,,,,,,,,,,,,,,,,,,,,,,,,,,,,,,,,,,,,,,1.68,586.9802625,None,space,1,588.7824593,None,588.7824593,None,588.7824593,None,0.3749444,,,,,,,,,,,P053,FENCOG,2,Post,2022_Jun_21_1058,Go No-Go Task,2021.1.4,119.8283579
,"Rule: When you see a yellow image, do not press 'spacebar'.",Images/Scram1/AF11NES.jpg,Scramble,Blue,Images/Blue.jpg,space,ParentConditions/YellowYellowBlue_v2.xlsx,YellowYellowBlue,Conditions/Version_2/YellowScramStop.xlsx,no,PASS,0.816203215,,,,,,,,,0,0,0,1,0,1,1,1,0,60,60,60,,,,,,,,,,,,,,,,,,,,,,,,,,,,,,,,,,,,,,,,,,,,,,,,,,,,,,,,,,,,,,,,,,,,,,,,,,,,,,,1.51,589.1798339,None,space,1,590.815209,None,590.815209,None,590.815209,None,0.3342859,,,,,,,,,,,P053,FENCOG,2,Post,2022_Jun_21_1058,Go No-Go Task,2021.1.4,119.8283579
,"Rule: When you see a yellow image, do not press 'spacebar'.",Images/Scram1/BF07_NC.jpg,Scramble,Blue,Images/Blue.jpg,space,ParentConditions/YellowYellowBlue_v2.xlsx,YellowYellowBlue,Conditions/Version_2/YellowScramStop.xlsx,no,PASS,0.861380317,,,,,,,,,0,0,0,1,0,1,1,1,0,61,61,61,,,,,,,,,,,,,,,,,,,,,,,,,,,,,,,,,,,,,,,,,,,,,,,,,,,,,,,,,,,,,,,,,,,,,,,,,,,,,,,1.7,591.2039117,None,space,1,593.0145727,None,593.0145727,None,593.0145727,None,0.2790668,,,,,,,,,,,P053,FENCOG,2,Post,2022_Jun_21_1058,Go No-Go Task,2021.1.4,119.8283579
,"Rule: When you see a yellow image, do not press 'spacebar'.",Images/Scram2/AM34NES.JPG,Scramble,Yellow,Images/Yellow.jpg,None,ParentConditions/YellowYellowBlue_v2.xlsx,YellowYellowBlue,Conditions/Version_2/YellowScramStop.xlsx,yes,PASS,0.763888663,,,,,,,,,0,0,0,1,0,1,1,1,0,62,62,62,,,,,,,,,,,,,,,,,,,,,,,,,,,,,,,,,,,,,,,,,,,,,,,,,,,,,,,,,,,,,,,,,,,,,,,,,,,,,,,1.9,593.4135031,None,space,0,595.4304671,None,595.4304671,None,595.4304671,None,0.2628135,,,,,,,,,,,P053,FENCOG,2,Post,2022_Jun_21_1058,Go No-Go Task,2021.1.4,119.8283579
,"Rule: When you see a yellow image, do not press 'spacebar'.",Images/Scram1/AM04_NC.jpg,Scramble,Blue,Images/Blue.jpg,space,ParentConditions/YellowYellowBlue_v2.xlsx,YellowYellowBlue,Conditions/Version_2/YellowScramStop.xlsx,no,PASS,0.164498839,,,,,,,,,0,0,0,1,0,1,1,1,0,63,63,63,,,,,,,,,,,,,,,,,,,,,,,,,,,,,,,,,,,,,,,,,,,,,,,,,,,,,,,,,,,,,,,,,,,,,,,,,,,,,,,1.98,595.8191309,None,space,1,597.913102,None,597.913102,None,597.913102,None,0.2761551,,,,,,,,,,,P053,FENCOG,2,Post,2022_Jun_21_1058,Go No-Go Task,2021.1.4,119.8283579
,"Rule: When you see a yellow image, do not press 'spacebar'.",Images/Scram1/AM23NES.jpg,Scramble,Blue,Images/Blue.jpg,space,ParentConditions/YellowYellowBlue_v2.xlsx,YellowYellowBlue,Conditions/Version_2/YellowScramStop.xlsx,no,PASS,0.89755373,,,,,,,,,0,0,0,1,0,1,1,1,0,64,64,64,,,,,,,,,,,,,,,,,,,,,,,,,,,,,,,,,,,,,,,,,,,,,,,,,,,,,,,,,,,,,,,,,,,,,,,,,,,,,,,1.54,598.3142893,None,space,1,599.9709276,None,599.9709276,None,599.9709276,None,0.2583304,,,,,,,,,,,P053,FENCOG,2,Post,2022_Jun_21_1058,Go No-Go Task,2021.1.4,119.8283579
,"Rule: When you see a yellow image, do not press 'spacebar'.",Images/Scram2/HF10_NO.jpg,Scramble,Blue,Images/Blue.jpg,space,ParentConditions/YellowYellowBlue_v2.xlsx,YellowYellowBlue,Conditions/Version_2/YellowScramStop.xlsx,no,PASS,0.213307383,,,,,,,,,0,0,0,1,0,1,1,1,0,65,65,65,,,,,,,,,,,,,,,,,,,,,,,,,,,,,,,,,,,,,,,,,,,,,,,,,,,,,,,,,,,,,,,,,,,,,,,,,,,,,,,1.95,600.3725801,None,space,1,602.4367697,None,602.4367697,None,602.4367697,None,0.2808011,,,,,,,,,,,P053,FENCOG,2,Post,2022_Jun_21_1058,Go No-Go Task,2021.1.4,119.8283579
,"Rule: When you see a yellow image, do not press 'spacebar'.",Images/Scram1/AF07NES.jpg,Scramble,Blue,Images/Blue.jpg,space,ParentConditions/YellowYellowBlue_v2.xlsx,YellowYellowBlue,Conditions/Version_2/YellowScramStop.xlsx,no,PASS,0.89486803,,,,,,,,,0,0,0,1,0,1,1,1,0,66,66,66,,,,,,,,,,,,,,,,,,,,,,,,,,,,,,,,,,,,,,,,,,,,,,,,,,,,,,,,,,,,,,,,,,,,,,,,,,,,,,,1.93,602.8377612,None,space,1,604.8777171,None,604.8777171,None,604.8777171,None,0.2956887,,,,,,,,,,,P053,FENCOG,2,Post,2022_Jun_21_1058,Go No-Go Task,2021.1.4,119.8283579
,"Rule: When you see a yellow image, do not press 'spacebar'.",Images/Scram2/AM09NES.jpg,Scramble,Yellow,Images/Yellow.jpg,None,ParentConditions/YellowYellowBlue_v2.xlsx,YellowYellowBlue,Conditions/Version_2/YellowScramStop.xlsx,yes,PASS,0.022411188,,,,,,,,,0,0,0,1,0,1,1,1,0,67,67,67,,,,,,,,,,,,,,,,,,,,,,,,,,,,,,,,,,,,,,,,,,,,,,,,,,,,,,,,,,,,,,,,,,,,,,,,,,,,,,,1.24,605.2833155,None,None,1,606.6521673,None,606.6521673,None,606.6521673,None,,,,,,,,,,,,P053,FENCOG,2,Post,2022_Jun_21_1058,Go No-Go Task,2021.1.4,119.8283579
,"Rule: When you see a yellow image, do not press 'spacebar'.",Images/Scram2/BM08_NC.jpg,Scramble,Blue,Images/Blue.jpg,space,ParentConditions/YellowYellowBlue_v2.xlsx,YellowYellowBlue,Conditions/Version_2/YellowScramStop.xlsx,no,PASS,0.037962351,,,,,,,,,0,0,0,1,0,1,1,1,0,68,68,68,,,,,,,,,,,,,,,,,,,,,,,,,,,,,,,,,,,,,,,,,,,,,,,,,,,,,,,,,,,,,,,,,,,,,,,,,,,,,,,1.43,607.0400451,None,space,1,608.5933746,None,608.5933746,None,608.5933746,None,0.3636907,,,,,,,,,,,P053,FENCOG,2,Post,2022_Jun_21_1058,Go No-Go Task,2021.1.4,119.8283579
,"Rule: When you see a yellow image, do not press 'spacebar'.",Images/Scram2/AF30NES.JPG,Scramble,Yellow,Images/Yellow.jpg,None,ParentConditions/YellowYellowBlue_v2.xlsx,YellowYellowBlue,Conditions/Version_2/YellowScramStop.xlsx,yes,PASS,0.453117145,,,,,,,,,0,0,0,1,0,1,1,1,0,69,69,69,,,,,,,,,,,,,,,,,,,,,,,,,,,,,,,,,,,,,,,,,,,,,,,,,,,,,,,,,,,,,,,,,,,,,,,,,,,,,,,1.99,608.9860337,None,None,1,611.0925208,None,611.0925208,None,611.0925208,None,,,,,,,,,,,,P053,FENCOG,2,Post,2022_Jun_21_1058,Go No-Go Task,2021.1.4,119.8283579
,"Rule: When you see a yellow image, do not press 'spacebar'.",Images/Scram1/AM34NES.JPG,Scramble,Blue,Images/Blue.jpg,space,ParentConditions/YellowYellowBlue_v2.xlsx,YellowYellowBlue,Conditions/Version_2/YellowScramStop.xlsx,no,PASS,0.334727558,,,,,,,,,0,0,0,1,0,1,1,1,0,70,70,70,,,,,,,,,,,,,,,,,,,,,,,,,,,,,,,,,,,,,,,,,,,,,,,,,,,,,,,,,,,,,,,,,,,,,,,,,,,,,,,1.62,611.4809118,None,space,1,613.2252389,None,613.2252389,None,613.2252389,None,0.2200231,,,,,,,,,,,P053,FENCOG,2,Post,2022_Jun_21_1058,Go No-Go Task,2021.1.4,119.8283579
