CondFileP,Instructions,FaceE,Express,ColourT,ColourF,CorrectAnsP,MasterCondFile,BlockOrder,CondFile,ColCheck,Triplicate_check,SORT_BY_SMALLEST,EPracticeOuterLoop.thisRepN,EPracticeOuterLoop.thisTrialN,EPracticeOuterLoop.thisN,EPracticeOuterLoop.thisIndex,EPracticeInnerLoop.thisRepN,EPracticeInnerLoop.thisTrialN,EPracticeInnerLoop.thisN,EPracticeInnerLoop.thisIndex,MasterLoop.thisRepN,MasterLoop.thisTrialN,MasterLoop.thisN,MasterLoop.thisIndex,OuterLoop.thisRepN,OuterLoop.thisTrialN,OuterLoop.thisN,OuterLoop.thisIndex,InnerLoop.thisRepN,InnerLoop.thisTrialN,InnerLoop.thisN,InnerLoop.thisIndex,text_13.started,text_13.stopped,key_resp_10.keys,key_resp_10.rt,key_resp_10.started,key_resp_10.stopped,text4.started,text4.stopped,EmotionTaskInstructions1.keys,EmotionTaskInstructions1.rt,EmotionTaskInstructions1.started,EmotionTaskInstructions1.stopped,text_4.started,text_4.stopped,key_resp_5.keys,key_resp_5.rt,key_resp_5.started,key_resp_5.stopped,Text_14.started,Text_14.stopped,key_resp_9.keys,key_resp_9.rt,key_resp_9.started,key_resp_9.stopped,text_5.started,text_5.stopped,text_6.started,text_6.stopped,key_resp_7.keys,key_resp_7.rt,key_resp_7.started,key_resp_7.stopped,text_10.started,text_10.stopped,text_11.started,text_11.stopped,text_12.started,text_12.stopped,ISIjitterPractice,EPracticeISIMarker.started,EPracticeISIMarker.stopped,Pract.keys,Pract.corr,Pract.started,Pract.stopped,PracticeFace.started,PracticeFace.stopped,ColourPractice.started,ColourPractice.stopped,text_7.started,text_7.stopped,Pract.rt,EndOfPractice.started,EndOfPractice.stopped,key_resp_8.keys,key_resp_8.rt,key_resp_8.started,key_resp_8.stopped,text_8.started,text_8.stopped,key_resp_6.keys,key_resp_6.rt,key_resp_6.started,key_resp_6.stopped,text_2.started,text_2.stopped,text_3.started,text_3.stopped,key_resp_3.keys,key_resp_3.rt,key_resp_3.started,key_resp_3.stopped,TaskBlock.started,TaskBlock.stopped,BlockNo1.started,BlockNo1.stopped,OfBlock.started,OfBlock.stopped,ISIjitter,ISImarker.started,ISImarker.stopped,key_resp.keys,key_resp.corr,key_resp.rt,key_resp.started,key_resp.stopped,FaceSet.started,FaceSet.stopped,Colour.started,Colour.stopped,EndBlockText.started,EndBlockText.stopped,key_resp_4.keys,key_resp_4.rt,key_resp_4.started,key_resp_4.stopped,BreakText2.started,BreakText2.stopped,PressToContinue.started,PressToContinue.stopped,participant,Study Name,Task Version (required to run),PRE/POST,date,expName,psychopyVersion,frameRate,
,,,,,,,,,,,,,,,,,,,,,,,,,,,,,,,,,55.3135881999915,None,space,1.643971400000737,56.30579719999514,None,,,,,,,,,,,,,,,,,,,,,,,,,,,,,,,,,,,,,,,,,,,,,,,,,,,,,,,,,,,,,,,,,,,,,,,,,,,,,,,,,,,,,,,,,,,,,,,P053,FENCOG,1,Pre,2022_Jun_14_1043,Go No-Go Task,2021.1.4,119.98089905605373,
,,,,,,,,,,,,,,,,,,,,,,,,,,,,,,,,,,,,,,,59.478365499991924,None,space,22.368230599997332,59.478365499991924,None,,,,,,,,,,,,,,,,,,,,,,,,,,,,,,,,,,,,,,,,,,,,,,,,,,,,,,,,,,,,,,,,,,,,,,,,,,,,,,,,,,,,,,,,,P053,FENCOG,1,Pre,2022_Jun_14_1043,Go No-Go Task,2021.1.4,119.98089905605373,
,,,,,,,,,,,,,,,,,,,,,,,,,,,,,,,,,,,,,,,,,,,,,81.91751469999144,None,space,9.432122600002913,81.91751469999144,None,,,,,,,,,,,,,,,,,,,,,,,,,,,,,,,,,,,,,,,,,,,,,,,,,,,,,,,,,,,,,,,,,,,,,,,,,,,,,,,,,,,P053,FENCOG,1,Pre,2022_Jun_14_1043,Go No-Go Task,2021.1.4,119.98089905605373,
,,,,,,,,,,,,,,,,,,,,,,,,,,,,,,,,,,,,,,,,,,,,,,,,,,,91.36582720000297,None,space,6.719874699992943,91.36582720000297,None,,,,,,,,,,,,,,,,,,,,,,,,,,,,,,,,,,,,,,,,,,,,,,,,,,,,,,,,,,,,,,,,,,,,,,,,,,,,,P053,FENCOG,1,Pre,2022_Jun_14_1043,Go No-Go Task,2021.1.4,119.98089905605373,
EPracticeConditions/BlueEyes.csv,"Rule: When you see a blue image, do not press 'spacebar'.",Images/Fearful/HM09_FC.jpg,Fear,Blue,Images/Blue.jpg,None,,,,,,,0,0,0,0,0,0,0,0,,,,,,,,,,,,,,,,,,,,,,,,,,,,,,,,,,,,,98.16272999999637,None,101.16000519999943,None,space,4.781563600001391,101.16000519999943,None,98.16272999999637,None,98.16272999999637,None,98.16272999999637,None,1.7,106.15841730000102,None,None,1,108.02053529999102,None,108.02053529999102,None,108.02053529999102,None,109.4447264999908,None,,,,,,,,,,,,,,,,,,,,,,,,,,,,,,,,,,,,,,,,,,,,,,,,,,P053,FENCOG,1,Pre,2022_Jun_14_1043,Go No-Go Task,2021.1.4,119.98089905605373,
EPracticeConditions/BlueEyes.csv,"Rule: When you see a blue image, do not press 'spacebar'.",Images/Happy/BM02_HO.jpg,Happy,Yellow,Images/Yellow.jpg,space,,,,,,,0,0,0,0,0,1,1,2,,,,,,,,,,,,,,,,,,,,,,,,,,,,,,,,,,,,,,,,,,,,,,,,,,,1.2,110.90155460000096,None,None,0,112.22332979999192,None,112.22332979999192,None,112.22332979999192,None,113.12199119999423,None,,,,,,,,,,,,,,,,,,,,,,,,,,,,,,,,,,,,,,,,,,,,,,,,,,P053,FENCOG,1,Pre,2022_Jun_14_1043,Go No-Go Task,2021.1.4,119.98089905605373,
EPracticeConditions/BlueEyes.csv,"Rule: When you see a blue image, do not press 'spacebar'.",Images/Fearful/AF01_FO.jpg,Fear,Blue,Images/Blue.jpg,None,,,,,,,0,0,0,0,0,2,2,1,,,,,,,,,,,,,,,,,,,,,,,,,,,,,,,,,,,,,,,,,,,,,,,,,,,1.9,115.11313660000451,None,None,1,117.11352089999127,None,117.11352089999127,None,117.11352089999127,None,118.02559720000136,None,,,,,,,,,,,,,,,,,,,,,,,,,,,,,,,,,,,,,,,,,,,,,,,,,,P053,FENCOG,1,Pre,2022_Jun_14_1043,Go No-Go Task,2021.1.4,119.98089905605373,
EPracticeConditions/BlueEyes.csv,"Rule: When you see a blue image, do not press 'spacebar'.",Images/Happy/HF05_HO.jpg,Happy,Yellow,Images/Yellow.jpg,space,,,,,,,0,0,0,0,0,3,3,5,,,,,,,,,,,,,,,,,,,,,,,,,,,,,,,,,,,,,,,,,,,,,,,,,,,1.5,120.02027579999412,None,space,1,121.62898080000014,None,121.62898080000014,None,121.62898080000014,None,122.52280049999536,None,0.3530408999940846,,,,,,,,,,,,,,,,,,,,,,,,,,,,,,,,,,,,,,,,,,,,,,,,,P053,FENCOG,1,Pre,2022_Jun_14_1043,Go No-Go Task,2021.1.4,119.98089905605373,
EPracticeConditions/BlueEyes.csv,"Rule: When you see a blue image, do not press 'spacebar'.",Images/Happy/HF09_HE.jpg,Happy,Yellow,Images/Yellow.jpg,space,,,,,,,0,0,0,0,0,4,4,6,,,,,,,,,,,,,,,,,,,,,,,,,,,,,,,,,,,,,,,,,,,,,,,,,,,1.4,124.52718769999046,None,None,0,126.0358997000003,None,126.0358997000003,None,126.0358997000003,None,126.93997959999251,None,,,,,,,,,,,,,,,,,,,,,,,,,,,,,,,,,,,,,,,,,,,,,,,,,,P053,FENCOG,1,Pre,2022_Jun_14_1043,Go No-Go Task,2021.1.4,119.98089905605373,
EPracticeConditions/BlueEyes.csv,"Rule: When you see a blue image, do not press 'spacebar'.",Images/Happy/HF04_HE.jpg,Happy,Yellow,Images/Yellow.jpg,space,,,,,,,0,0,0,0,0,5,5,4,,,,,,,,,,,,,,,,,,,,,,,,,,,,,,,,,,,,,,,,,,,,,,,,,,,1.8,128.9342245000007,None,space,1,130.84290489999694,None,130.84290489999694,None,130.84290489999694,None,131.7333523999987,None,0.3628910000115866,,,,,,,,,,,,,,,,,,,,,,,,,,,,,,,,,,,,,,,,,,,,,,,,,P053,FENCOG,1,Pre,2022_Jun_14_1043,Go No-Go Task,2021.1.4,119.98089905605373,
EPracticeConditions/BlueEyes.csv,"Rule: When you see a blue image, do not press 'spacebar'.",Images/Happy/BM08_HO.jpg,Happy,Yellow,Images/Yellow.jpg,space,,,,,,,0,0,0,0,0,6,6,3,,,,,,,,,,,,,,,,,,,,,,,,,,,,,,,,,,,,,,,,,,,,,,,,,,,1.3,133.73296179999306,None,space,1,135.14999479999824,None,135.14999479999824,None,135.14999479999824,None,136.03215990000172,None,0.3355310000042664,,,,,,,,,,,,,,,,,,,,,,,,,,,,,,,,,,,,,,,,,,,,,,,,,P053,FENCOG,1,Pre,2022_Jun_14_1043,Go No-Go Task,2021.1.4,119.98089905605373,
EPracticeConditions/BlueEyes.csv,"Rule: When you see a blue image, do not press 'spacebar'.",Images/Happy/HF10_HE.jpg,Happy,Yellow,Images/Yellow.jpg,space,,,,,,,0,0,0,0,0,7,7,7,,,,,,,,,,,,,,,,,,,,,,,,,,,,,,,,,,,,,,,,,,,,,,,,,,,1.6,138.03185369999846,None,None,0,139.7403187000018,None,139.7403187000018,None,139.7403187000018,None,140.63802240000223,None,,,,,,,,,,,,,,,,,,,,,,,,,,,,,,,,,,,,,,,,,,,,,,,,,,P053,FENCOG,1,Pre,2022_Jun_14_1043,Go No-Go Task,2021.1.4,119.98089905605373,
EPracticeConditions/BlueEyes.csv,"Rule: When you see a blue image, do not press 'spacebar'.",,,,,,,,,,,,0,0,0,0,,,,,,,,,,,,,,,,,,,,,,,,,,,,,,,,,,,,,,,,,,,,,,,,,,,,,,,,,,,,,,,,,,,,,,,,,,,,,,,,,,,,,,,,,,,,,,,,,,,,,,,,,,,,,,,,,,,,,P053,FENCOG,1,Pre,2022_Jun_14_1043,Go No-Go Task,2021.1.4,119.98089905605373,
EPracticeConditions/YellowEyes.csv,"Rule: When you see a yellow image, do not press 'spacebar'.",Images/Happy/AM32HAS.jpg,Happy,Yellow,Images/Yellow.jpg,None,,,,,,,0,1,1,1,0,0,0,0,,,,,,,,,,,,,,,,,,,,,,,,,,,,,,,,,,,,,142.65793859999394,None,145.64628829999128,None,space,0.6953171000059228,145.64628829999128,None,142.65793859999394,None,142.65793859999394,None,142.65793859999394,None,1.3,146.36210539999593,None,None,1,147.77126449999923,None,147.77126449999923,None,147.77126449999923,None,148.66154590000224,None,,,,,,,,,,,,,,,,,,,,,,,,,,,,,,,,,,,,,,,,,,,,,,,,,,P053,FENCOG,1,Pre,2022_Jun_14_1043,Go No-Go Task,2021.1.4,119.98089905605373,
EPracticeConditions/YellowEyes.csv,"Rule: When you see a yellow image, do not press 'spacebar'.",Images/Fearful/AM19AFS.jpg,Fear,Blue,Images/Blue.jpg,space,,,,,,,0,1,1,1,0,1,1,4,,,,,,,,,,,,,,,,,,,,,,,,,,,,,,,,,,,,,,,,,,,,,,,,,,,1.8,150.66368389999843,None,space,1,152.57771949999733,None,152.57771949999733,None,152.57771949999733,None,153.47428589999618,None,0.3484173000033479,,,,,,,,,,,,,,,,,,,,,,,,,,,,,,,,,,,,,,,,,,,,,,,,,P053,FENCOG,1,Pre,2022_Jun_14_1043,Go No-Go Task,2021.1.4,119.98089905605373,
EPracticeConditions/YellowEyes.csv,"Rule: When you see a yellow image, do not press 'spacebar'.",Images/Fearful/AM16AFS.jpg,Fear,Blue,Images/Blue.jpg,space,,,,,,,0,1,1,1,0,2,2,2,,,,,,,,,,,,,,,,,,,,,,,,,,,,,,,,,,,,,,,,,,,,,,,,,,,1.9,155.47621459999937,None,None,0,157.48506110000017,None,157.48506110000017,None,157.48506110000017,None,158.38479919999372,None,,,,,,,,,,,,,,,,,,,,,,,,,,,,,,,,,,,,,,,,,,,,,,,,,,P053,FENCOG,1,Pre,2022_Jun_14_1043,Go No-Go Task,2021.1.4,119.98089905605373,
EPracticeConditions/YellowEyes.csv,"Rule: When you see a yellow image, do not press 'spacebar'.",Images/Fearful/AM23AFS.jpg,Fear,Blue,Images/Blue.jpg,space,,,,,,,0,1,1,1,0,3,3,6,,,,,,,,,,,,,,,,,,,,,,,,,,,,,,,,,,,,,,,,,,,,,,,,,,,1.5,160.3900938000006,None,space,1,162.00867399999697,None,162.00867399999697,None,162.00867399999697,None,162.89385089999996,None,0.33319260001007933,,,,,,,,,,,,,,,,,,,,,,,,,,,,,,,,,,,,,,,,,,,,,,,,,P053,FENCOG,1,Pre,2022_Jun_14_1043,Go No-Go Task,2021.1.4,119.98089905605373,
EPracticeConditions/YellowEyes.csv,"Rule: When you see a yellow image, do not press 'spacebar'.",Images/Fearful/AM17AFS.jpg,Fear,Blue,Images/Blue.jpg,space,,,,,,,0,1,1,1,0,4,4,3,,,,,,,,,,,,,,,,,,,,,,,,,,,,,,,,,,,,,,,,,,,,,,,,,,,1.2,164.8987766999926,None,space,1,166.2075182999979,None,166.2075182999979,None,166.2075182999979,None,167.10355269999127,None,0.2539418999949703,,,,,,,,,,,,,,,,,,,,,,,,,,,,,,,,,,,,,,,,,,,,,,,,,P053,FENCOG,1,Pre,2022_Jun_14_1043,Go No-Go Task,2021.1.4,119.98089905605373,
EPracticeConditions/YellowEyes.csv,"Rule: When you see a yellow image, do not press 'spacebar'.",Images/Fearful/AM24AFS.jpg,Fear,Blue,Images/Blue.jpg,space,,,,,,,0,1,1,1,0,5,5,7,,,,,,,,,,,,,,,,,,,,,,,,,,,,,,,,,,,,,,,,,,,,,,,,,,,1.6,169.1057318999956,None,space,1,170.8143557000003,None,170.8143557000003,None,170.8143557000003,None,171.70494949999556,None,0.2709800000011455,,,,,,,,,,,,,,,,,,,,,,,,,,,,,,,,,,,,,,,,,,,,,,,,,P053,FENCOG,1,Pre,2022_Jun_14_1043,Go No-Go Task,2021.1.4,119.98089905605373,
EPracticeConditions/YellowEyes.csv,"Rule: When you see a yellow image, do not press 'spacebar'.",Images/Happy/BF05_HO.jpg,Happy,Yellow,Images/Yellow.jpg,None,,,,,,,0,1,1,1,0,6,6,1,,,,,,,,,,,,,,,,,,,,,,,,,,,,,,,,,,,,,,,,,,,,,,,,,,,1.4,173.70568909999565,None,space,0,175.22941630000423,None,175.22941630000423,None,175.22941630000423,None,176.11994550000236,None,0.24032460000307765,,,,,,,,,,,,,,,,,,,,,,,,,,,,,,,,,,,,,,,,,,,,,,,,,P053,FENCOG,1,Pre,2022_Jun_14_1043,Go No-Go Task,2021.1.4,119.98089905605373,
EPracticeConditions/YellowEyes.csv,"Rule: When you see a yellow image, do not press 'spacebar'.",Images/Fearful/AM22AFS.jpg,Fear,Blue,Images/Blue.jpg,space,,,,,,,0,1,1,1,0,7,7,5,,,,,,,,,,,,,,,,,,,,,,,,,,,,,,,,,,,,,,,,,,,,,,,,,,,1.7,178.12548439999227,None,space,1,179.93676749999577,None,179.93676749999577,None,179.93676749999577,None,180.82712549999997,None,0.3731857999955537,,,,,,,,,,,,,,,,,,,,,,,,,,,,,,,,,,,,,,,,,,,,,,,,,P053,FENCOG,1,Pre,2022_Jun_14_1043,Go No-Go Task,2021.1.4,119.98089905605373,
EPracticeConditions/YellowEyes.csv,"Rule: When you see a yellow image, do not press 'spacebar'.",,,,,,,,,,,,0,1,1,1,,,,,,,,,,,,,,,,,,,,,,,,,,,,,,,,,,,,,,,,,,,,,,,,,,,,,,,,,,,,,,,,,,,,,,,,,,,,,,,,,,,,,,,,,,,,,,,,,,,,,,,,,,,,,,,,,,,,,P053,FENCOG,1,Pre,2022_Jun_14_1043,Go No-Go Task,2021.1.4,119.98089905605373,
EPracticeConditions/BlueScram.csv,"Rule: When you see a blue image, do not press 'spacebar'.",Images/Scram2/AF10_NC.jpg,Scramble,Yellow,Images/Yellow.jpg,space,,,,,,,0,2,2,2,0,0,0,2,,,,,,,,,,,,,,,,,,,,,,,,,,,,,,,,,,,,,182.8454958999937,None,185.8343550999998,None,space,0.7631715000024997,185.8343550999998,None,182.8454958999937,None,182.8454958999937,None,182.8454958999937,None,1.9,186.61874759999046,None,None,0,188.6342452999961,None,188.6342452999961,None,188.6342452999961,None,189.5410327999998,None,,,,,,,,,,,,,,,,,,,,,,,,,,,,,,,,,,,,,,,,,,,,,,,,,,P053,FENCOG,1,Pre,2022_Jun_14_1043,Go No-Go Task,2021.1.4,119.98089905605373,
EPracticeConditions/BlueScram.csv,"Rule: When you see a blue image, do not press 'spacebar'.",Images/Scram1/AM04_NC.jpg,Scramble,Yellow,Images/Yellow.jpg,space,,,,,,,0,2,2,2,0,1,1,3,,,,,,,,,,,,,,,,,,,,,,,,,,,,,,,,,,,,,,,,,,,,,,,,,,,1.3,191.53253889999178,None,space,1,192.94126049999613,None,192.94126049999613,None,192.94126049999613,None,193.84654410000076,None,0.36171169999579433,,,,,,,,,,,,,,,,,,,,,,,,,,,,,,,,,,,,,,,,,,,,,,,,,P053,FENCOG,1,Pre,2022_Jun_14_1043,Go No-Go Task,2021.1.4,119.98089905605373,
EPracticeConditions/BlueScram.csv,"Rule: When you see a blue image, do not press 'spacebar'.",Images/Scram1/BF18_NC.jpg,Scramble,Blue,Images/Blue.jpg,None,,,,,,,0,2,2,2,0,2,2,1,,,,,,,,,,,,,,,,,,,,,,,,,,,,,,,,,,,,,,,,,,,,,,,,,,,1.7,195.84102540000458,None,space,0,197.64823839999735,None,197.64823839999735,None,197.64823839999735,None,198.54042609999306,None,0.278366400001687,,,,,,,,,,,,,,,,,,,,,,,,,,,,,,,,,,,,,,,,,,,,,,,,,P053,FENCOG,1,Pre,2022_Jun_14_1043,Go No-Go Task,2021.1.4,119.98089905605373,
EPracticeConditions/BlueScram.csv,"Rule: When you see a blue image, do not press 'spacebar'.",Images/Scram1/AM13NES.jpg,Scramble,Yellow,Images/Yellow.jpg,space,,,,,,,0,2,2,2,0,3,3,5,,,,,,,,,,,,,,,,,,,,,,,,,,,,,,,,,,,,,,,,,,,,,,,,,,,1.6,200.54630469999393,None,space,1,202.25520489999326,None,202.25520489999326,None,202.25520489999326,None,203.15224949999538,None,0.3342916000110563,,,,,,,,,,,,,,,,,,,,,,,,,,,,,,,,,,,,,,,,,,,,,,,,,P053,FENCOG,1,Pre,2022_Jun_14_1043,Go No-Go Task,2021.1.4,119.98089905605373,
EPracticeConditions/BlueScram.csv,"Rule: When you see a blue image, do not press 'spacebar'.",Images/Scram1/BM08_NC.jpg,Scramble,Blue,Images/Blue.jpg,None,,,,,,,0,2,2,2,0,4,4,0,,,,,,,,,,,,,,,,,,,,,,,,,,,,,,,,,,,,,,,,,,,,,,,,,,,1.2,205.15345050000178,None,None,1,206.4618855000008,None,206.4618855000008,None,206.4618855000008,None,207.35852870000235,None,,,,,,,,,,,,,,,,,,,,,,,,,,,,,,,,,,,,,,,,,,,,,,,,,,P053,FENCOG,1,Pre,2022_Jun_14_1043,Go No-Go Task,2021.1.4,119.98089905605373,
EPracticeConditions/BlueScram.csv,"Rule: When you see a blue image, do not press 'spacebar'.",Images/Scram1/AM03NES.jpg,Scramble,Yellow,Images/Yellow.jpg,space,,,,,,,0,2,2,2,0,5,5,4,,,,,,,,,,,,,,,,,,,,,,,,,,,,,,,,,,,,,,,,,,,,,,,,,,,1.5,209.3605635999993,None,space,1,210.96929739999177,None,210.96929739999177,None,210.96929739999177,None,211.85967019999225,None,0.2364540999988094,,,,,,,,,,,,,,,,,,,,,,,,,,,,,,,,,,,,,,,,,,,,,,,,,P053,FENCOG,1,Pre,2022_Jun_14_1043,Go No-Go Task,2021.1.4,119.98089905605373,
EPracticeConditions/BlueScram.csv,"Rule: When you see a blue image, do not press 'spacebar'.",Images/Scram2/AM03_NC.jpg,Scramble,Yellow,Images/Yellow.jpg,space,,,,,,,0,2,2,2,0,6,6,6,,,,,,,,,,,,,,,,,,,,,,,,,,,,,,,,,,,,,,,,,,,,,,,,,,,1.4,213.85973179999564,None,None,0,215.3680338999984,None,215.3680338999984,None,215.3680338999984,None,216.26644269999815,None,,,,,,,,,,,,,,,,,,,,,,,,,,,,,,,,,,,,,,,,,,,,,,,,,,P053,FENCOG,1,Pre,2022_Jun_14_1043,Go No-Go Task,2021.1.4,119.98089905605373,
EPracticeConditions/BlueScram.csv,"Rule: When you see a blue image, do not press 'spacebar'.",Images/Scram2/AF25NES.jpg,Scramble,Yellow,Images/Yellow.jpg,space,,,,,,,0,2,2,2,0,7,7,7,,,,,,,,,,,,,,,,,,,,,,,,,,,,,,,,,,,,,,,,,,,,,,,,,,,1.8,218.26618079999753,None,space,1,220.17480599999544,None,220.17480599999544,None,220.17480599999544,None,221.06879489999847,None,0.3829159000015352,,,,,,,,,,,,,,,,,,,,,,,,,,,,,,,,,,,,,,,,,,,,,,,,,P053,FENCOG,1,Pre,2022_Jun_14_1043,Go No-Go Task,2021.1.4,119.98089905605373,
EPracticeConditions/BlueScram.csv,"Rule: When you see a blue image, do not press 'spacebar'.",,,,,,,,,,,,0,2,2,2,,,,,,,,,,,,,,,,,,,,,,,,,,,,,,,,,,,,,,,,,,,,,,,,,,,,,,,,,,,,,,,,,,,,,,,,,,,,,,,,,,,,,,,,,,,,,,,,,,,,,,,,,,,,,,,,,,,,,P053,FENCOG,1,Pre,2022_Jun_14_1043,Go No-Go Task,2021.1.4,119.98089905605373,
EPracticeConditions/YellowScram.csv,"Rule: When you see a yellow image, do not press 'spacebar'.",Images/Scram2/AM03NES.jpg,Scramble,Yellow,Images/Yellow.jpg,None,,,,,,,0,3,3,3,0,0,0,1,,,,,,,,,,,,,,,,,,,,,,,,,,,,,,,,,,,,,223.08122490000096,None,226.0725986000034,None,space,0.5811017999949399,226.0725986000034,None,223.08122490000096,None,223.08122490000096,None,223.08122490000096,None,1.7,226.67447620000166,None,None,1,228.48064789999626,None,228.48064789999626,None,228.48064789999626,None,229.38234539999394,None,,,,,,,,,,,,,,,,,,,,,,,,,,,,,,,,,,,,,,,,,,,,,,,,,,P053,FENCOG,1,Pre,2022_Jun_14_1043,Go No-Go Task,2021.1.4,119.98089905605373,
EPracticeConditions/YellowScram.csv,"Rule: When you see a yellow image, do not press 'spacebar'.",Images/Scram1/AF24NES.jpg,Scramble,Blue,Images/Blue.jpg,space,,,,,,,0,3,3,3,0,1,1,7,,,,,,,,,,,,,,,,,,,,,,,,,,,,,,,,,,,,,,,,,,,,,,,,,,,1.3,231.38749369999277,None,space,1,232.79627659999824,None,232.79627659999824,None,232.79627659999824,None,233.69265440000163,None,0.2500185999961104,,,,,,,,,,,,,,,,,,,,,,,,,,,,,,,,,,,,,,,,,,,,,,,,,P053,FENCOG,1,Pre,2022_Jun_14_1043,Go No-Go Task,2021.1.4,119.98089905605373,
EPracticeConditions/YellowScram.csv,"Rule: When you see a yellow image, do not press 'spacebar'.",Images/Scram1/AF07NES.jpg,Scramble,Blue,Images/Blue.jpg,space,,,,,,,0,3,3,3,0,2,2,3,,,,,,,,,,,,,,,,,,,,,,,,,,,,,,,,,,,,,,,,,,,,,,,,,,,1.5,235.69431259999692,None,space,1,237.30323999999382,None,237.30323999999382,None,237.30323999999382,None,238.1952820000006,None,0.34232100000372157,,,,,,,,,,,,,,,,,,,,,,,,,,,,,,,,,,,,,,,,,,,,,,,,,P053,FENCOG,1,Pre,2022_Jun_14_1043,Go No-Go Task,2021.1.4,119.98089905605373,
EPracticeConditions/YellowScram.csv,"Rule: When you see a yellow image, do not press 'spacebar'.",Images/Scram2/HM06_NC.jpg,Scramble,Yellow,Images/Yellow.jpg,None,,,,,,,0,3,3,3,0,3,3,0,,,,,,,,,,,,,,,,,,,,,,,,,,,,,,,,,,,,,,,,,,,,,,,,,,,1.6,240.20141799999692,None,None,1,241.91023959999438,None,241.91023959999438,None,241.91023959999438,None,242.8048060000001,None,,,,,,,,,,,,,,,,,,,,,,,,,,,,,,,,,,,,,,,,,,,,,,,,,,P053,FENCOG,1,Pre,2022_Jun_14_1043,Go No-Go Task,2021.1.4,119.98089905605373,
EPracticeConditions/YellowScram.csv,"Rule: When you see a yellow image, do not press 'spacebar'.",Images/Scram1/AF30NES.JPG,Scramble,Blue,Images/Blue.jpg,space,,,,,,,0,3,3,3,0,4,4,4,,,,,,,,,,,,,,,,,,,,,,,,,,,,,,,,,,,,,,,,,,,,,,,,,,,1.9,244.8129520999937,None,space,1,246.8254120999918,None,246.8254120999918,None,246.8254120999918,None,247.7313587999961,None,0.2279780000098981,,,,,,,,,,,,,,,,,,,,,,,,,,,,,,,,,,,,,,,,,,,,,,,,,P053,FENCOG,1,Pre,2022_Jun_14_1043,Go No-Go Task,2021.1.4,119.98089905605373,
EPracticeConditions/YellowScram.csv,"Rule: When you see a yellow image, do not press 'spacebar'.",Images/Scram1/AF10_NC.jpg,Scramble,Blue,Images/Blue.jpg,space,,,,,,,0,3,3,3,0,5,5,6,,,,,,,,,,,,,,,,,,,,,,,,,,,,,,,,,,,,,,,,,,,,,,,,,,,1.4,249.7269607999915,None,space,1,251.2407811000012,None,251.2407811000012,None,251.2407811000012,None,252.1373678999953,None,0.308876799987047,,,,,,,,,,,,,,,,,,,,,,,,,,,,,,,,,,,,,,,,,,,,,,,,,P053,FENCOG,1,Pre,2022_Jun_14_1043,Go No-Go Task,2021.1.4,119.98089905605373,
EPracticeConditions/YellowScram.csv,"Rule: When you see a yellow image, do not press 'spacebar'.",Images/Scram1/BM01_NC.jpg,Scramble,Blue,Images/Blue.jpg,space,,,,,,,0,3,3,3,0,6,6,5,,,,,,,,,,,,,,,,,,,,,,,,,,,,,,,,,,,,,,,,,,,,,,,,,,,1.2,254.13953050000418,None,space,1,255.44789070000115,None,255.44789070000115,None,255.44789070000115,None,256.3450612000015,None,0.3819035999913467,,,,,,,,,,,,,,,,,,,,,,,,,,,,,,,,,,,,,,,,,,,,,,,,,P053,FENCOG,1,Pre,2022_Jun_14_1043,Go No-Go Task,2021.1.4,119.98089905605373,
EPracticeConditions/YellowScram.csv,"Rule: When you see a yellow image, do not press 'spacebar'.",Images/Scram1/HF04_NC.jpg,Scramble,Blue,Images/Blue.jpg,space,,,,,,,0,3,3,3,0,7,7,2,,,,,,,,,,,,,,,,,,,,,,,,,,,,,,,,,,,,,,,,,,,,,,,,,,,1.8,258.34609649999766,None,None,0,260.2547482999944,None,260.2547482999944,None,260.2547482999944,None,261.1477261999971,None,,,,,,,,,,,,,,,,,,,,,,,,,,,,,,,,,,,,,,,,,,,,,,,,,,P053,FENCOG,1,Pre,2022_Jun_14_1043,Go No-Go Task,2021.1.4,119.98089905605373,
EPracticeConditions/YellowScram.csv,"Rule: When you see a yellow image, do not press 'spacebar'.",,,,,,,,,,,,0,3,3,3,,,,,,,,,,,,,,,,,,,,,,,,,,,,,,,,,,,,,,,,,,,,,,,,,,,,,,,,,,,,,,,,,,,,,,,,,,,,,,,,,,,,,,,,,,,,,,,,,,,,,,,,,,,,,,,,,,,,,P053,FENCOG,1,Pre,2022_Jun_14_1043,Go No-Go Task,2021.1.4,119.98089905605373,
,,,,,,,,,,,,,,,,,,,,,,,,,,,,,,,,,,,,,,,,,,,,,,,,,,,,,,,,,,,,,,,,,,,,,,,,,,,,,,,,,,,,,264.5544740000041,None,space,5.737255800006096,265.0443852000026,None,,,,,,,,,,,,,,,,,,,,,,,,,,,,,,,,,,,,,,,,,,,P053,FENCOG,1,Pre,2022_Jun_14_1043,Go No-Go Task,2021.1.4,119.98089905605373,
,,,,,,,,,,,,,,,,,,,,,,,,,,,,,,,,,,,,,,,,,,,,,,,,,,,,,,,,,,,,,,,,,,,,,,,,,,,,,,,,,,,,,,,,,,,270.79362379999657,None,space,1.9169215000001714,270.79362379999657,None,,,,,,,,,,,,,,,,,,,,,,,,,,,,,,,,,,,,,P053,FENCOG,1,Pre,2022_Jun_14_1043,Go No-Go Task,2021.1.4,119.98089905605373,
,"Rule: When you see a yellow image, do not press 'spacebar'.",Images/Happy/BF09_HO.jpg,Happy,Blue,Images/Blue.jpg,space,ParentConditions/YellowYellowBlue_v1.xlsx,YellowYellowBlue,Conditions/Version_1/YellowFearStop.xlsx,no,PASS,0.8264186213388923,,,,,,,,,0,0,0,1,0,0,0,0,0,0,0,0,,,,,,,,,,,,,,,,,,,,,,,,,,,,,,,,,,,,,,,,,,,,,,,,,,,,,,,,,,,,,,,,,272.8088468999922,None,275.7996916999982,None,space,0.48611670000536833,275.7996916999982,None,272.8088468999922,None,272.8088468999922,None,272.8088468999922,None,1.5,276.3409482999996,None,space,1,0.3446925000025658,277.94958359999873,None,277.94958359999873,None,277.94958359999873,None,,,,,,,,,,,P053,FENCOG,1,Pre,2022_Jun_14_1043,Go No-Go Task,2021.1.4,119.98089905605373,
,"Rule: When you see a yellow image, do not press 'spacebar'.",Images/Happy/AF30HAS.jpg,Happy,Blue,Images/Blue.jpg,space,ParentConditions/YellowYellowBlue_v1.xlsx,YellowYellowBlue,Conditions/Version_1/YellowFearStop.xlsx,no,PASS,0.17577164693776992,,,,,,,,,0,0,0,1,0,0,0,0,0,1,1,1,,,,,,,,,,,,,,,,,,,,,,,,,,,,,,,,,,,,,,,,,,,,,,,,,,,,,,,,,,,,,,,,,,,,,,,,,,,,,,,1.39,278.3430351999996,None,space,1,0.28498189999663737,279.8406520999997,None,279.8406520999997,None,279.8406520999997,None,,,,,,,,,,,P053,FENCOG,1,Pre,2022_Jun_14_1043,Go No-Go Task,2021.1.4,119.98089905605373,
,"Rule: When you see a yellow image, do not press 'spacebar'.",Images/Happy/AF27HAS.jpg,Happy,Blue,Images/Blue.jpg,space,ParentConditions/YellowYellowBlue_v1.xlsx,YellowYellowBlue,Conditions/Version_1/YellowFearStop.xlsx,no,PASS,0.9530234186227198,,,,,,,,,0,0,0,1,0,0,0,0,0,2,2,2,,,,,,,,,,,,,,,,,,,,,,,,,,,,,,,,,,,,,,,,,,,,,,,,,,,,,,,,,,,,,,,,,,,,,,,,,,,,,,,1.25,280.24155320000136,None,space,1,0.2470893999998225,281.6067702,None,281.6067702,None,281.6067702,None,,,,,,,,,,,P053,FENCOG,1,Pre,2022_Jun_14_1043,Go No-Go Task,2021.1.4,119.98089905605373,
,"Rule: When you see a yellow image, do not press 'spacebar'.",Images/Happy/AF22HAS.jpg,Happy,Blue,Images/Blue.jpg,space,ParentConditions/YellowYellowBlue_v1.xlsx,YellowYellowBlue,Conditions/Version_1/YellowFearStop.xlsx,no,PASS,0.38244231072686263,,,,,,,,,0,0,0,1,0,0,0,0,0,3,3,3,,,,,,,,,,,,,,,,,,,,,,,,,,,,,,,,,,,,,,,,,,,,,,,,,,,,,,,,,,,,,,,,,,,,,,,,,,,,,,,1.3,282.0093809999962,None,space,1,0.271484099997906,283.42291049999767,None,283.42291049999767,None,283.42291049999767,None,,,,,,,,,,,P053,FENCOG,1,Pre,2022_Jun_14_1043,Go No-Go Task,2021.1.4,119.98089905605373,
,"Rule: When you see a yellow image, do not press 'spacebar'.",Images/Happy/WM11_HC.jpg,Happy,Blue,Images/Blue.jpg,space,ParentConditions/YellowYellowBlue_v1.xlsx,YellowYellowBlue,Conditions/Version_1/YellowFearStop.xlsx,no,PASS,0.4646194175443181,,,,,,,,,0,0,0,1,0,0,0,0,0,4,4,4,,,,,,,,,,,,,,,,,,,,,,,,,,,,,,,,,,,,,,,,,,,,,,,,,,,,,,,,,,,,,,,,,,,,,,,,,,,,,,,1.85,283.822073000003,None,space,1,0.2492977000074461,285.7805015999911,None,285.7805015999911,None,285.7805015999911,None,,,,,,,,,,,P053,FENCOG,1,Pre,2022_Jun_14_1043,Go No-Go Task,2021.1.4,119.98089905605373,
,"Rule: When you see a yellow image, do not press 'spacebar'.",Images/Happy/BF05_HO.jpg,Happy,Blue,Images/Blue.jpg,space,ParentConditions/YellowYellowBlue_v1.xlsx,YellowYellowBlue,Conditions/Version_1/YellowFearStop.xlsx,no,PASS,0.7872072262972759,,,,,,,,,0,0,0,1,0,0,0,0,0,5,5,5,,,,,,,,,,,,,,,,,,,,,,,,,,,,,,,,,,,,,,,,,,,,,,,,,,,,,,,,,,,,,,,,,,,,,,,,,,,,,,,1.63,286.1797881999955,None,space,1,0.23663569999916945,287.9133043000038,None,287.9133043000038,None,287.9133043000038,None,,,,,,,,,,,P053,FENCOG,1,Pre,2022_Jun_14_1043,Go No-Go Task,2021.1.4,119.98089905605373,
,"Rule: When you see a yellow image, do not press 'spacebar'.",Images/Fearful/AM01AFS.jpg,Fear,Yellow,Images/Yellow.jpg,None,ParentConditions/YellowYellowBlue_v1.xlsx,YellowYellowBlue,Conditions/Version_1/YellowFearStop.xlsx,yes,PASS,0.04646585469142872,,,,,,,,,0,0,0,1,0,0,0,0,0,6,6,6,,,,,,,,,,,,,,,,,,,,,,,,,,,,,,,,,,,,,,,,,,,,,,,,,,,,,,,,,,,,,,,,,,,,,,,,,,,,,,,1.64,288.3142632999952,None,None,1,,290.06274130000384,None,290.06274130000384,None,290.06274130000384,None,,,,,,,,,,,P053,FENCOG,1,Pre,2022_Jun_14_1043,Go No-Go Task,2021.1.4,119.98089905605373,
,"Rule: When you see a yellow image, do not press 'spacebar'.",Images/Happy/AF23HAS.jpg,Happy,Blue,Images/Blue.jpg,space,ParentConditions/YellowYellowBlue_v1.xlsx,YellowYellowBlue,Conditions/Version_1/YellowFearStop.xlsx,no,PASS,0.9566897784343521,,,,,,,,,0,0,0,1,0,0,0,0,0,7,7,7,,,,,,,,,,,,,,,,,,,,,,,,,,,,,,,,,,,,,,,,,,,,,,,,,,,,,,,,,,,,,,,,,,,,,,,,,,,,,,,1.38,290.4640223000024,None,space,1,0.30112459999509156,291.953774900001,None,291.953774900001,None,291.953774900001,None,,,,,,,,,,,P053,FENCOG,1,Pre,2022_Jun_14_1043,Go No-Go Task,2021.1.4,119.98089905605373,
,"Rule: When you see a yellow image, do not press 'spacebar'.",Images/Happy/AM16HAS.jpg,Happy,Blue,Images/Blue.jpg,space,ParentConditions/YellowYellowBlue_v1.xlsx,YellowYellowBlue,Conditions/Version_1/YellowFearStop.xlsx,no,PASS,0.9715962743635901,,,,,,,,,0,0,0,1,0,0,0,0,0,8,8,8,,,,,,,,,,,,,,,,,,,,,,,,,,,,,,,,,,,,,,,,,,,,,,,,,,,,,,,,,,,,,,,,,,,,,,,,,,,,,,,1.43,292.35829370000283,None,space,1,0.27124539999931585,293.90314670000225,None,293.90314670000225,None,293.90314670000225,None,,,,,,,,,,,P053,FENCOG,1,Pre,2022_Jun_14_1043,Go No-Go Task,2021.1.4,119.98089905605373,
,"Rule: When you see a yellow image, do not press 'spacebar'.",Images/Happy/AM04HAS.jpg,Happy,Blue,Images/Blue.jpg,space,ParentConditions/YellowYellowBlue_v1.xlsx,YellowYellowBlue,Conditions/Version_1/YellowFearStop.xlsx,no,PASS,0.8834532829789966,,,,,,,,,0,0,0,1,0,0,0,0,0,9,9,9,,,,,,,,,,,,,,,,,,,,,,,,,,,,,,,,,,,,,,,,,,,,,,,,,,,,,,,,,,,,,,,,,,,,,,,,,,,,,,,1.31,294.3059887999989,None,space,1,0.2461674999940442,295.72762999999395,None,295.72762999999395,None,295.72762999999395,None,,,,,,,,,,,P053,FENCOG,1,Pre,2022_Jun_14_1043,Go No-Go Task,2021.1.4,119.98089905605373,
,"Rule: When you see a yellow image, do not press 'spacebar'.",Images/Happy/AF26HAS.jpg,Happy,Blue,Images/Blue.jpg,space,ParentConditions/YellowYellowBlue_v1.xlsx,YellowYellowBlue,Conditions/Version_1/YellowFearStop.xlsx,no,PASS,0.1837512616409066,,,,,,,,,0,0,0,1,0,0,0,0,0,10,10,10,,,,,,,,,,,,,,,,,,,,,,,,,,,,,,,,,,,,,,,,,,,,,,,,,,,,,,,,,,,,,,,,,,,,,,,,,,,,,,,1.36,296.12656109999807,None,space,1,0.26837659999728203,297.6020614000008,None,297.6020614000008,None,297.6020614000008,None,,,,,,,,,,,P053,FENCOG,1,Pre,2022_Jun_14_1043,Go No-Go Task,2021.1.4,119.98089905605373,
,"Rule: When you see a yellow image, do not press 'spacebar'.",Images/Fearful/AF10_FC.jpg,Fear,Yellow,Images/Yellow.jpg,None,ParentConditions/YellowYellowBlue_v1.xlsx,YellowYellowBlue,Conditions/Version_1/YellowFearStop.xlsx,yes,PASS,0.28017183869067563,,,,,,,,,0,0,0,1,0,0,0,0,0,11,11,11,,,,,,,,,,,,,,,,,,,,,,,,,,,,,,,,,,,,,,,,,,,,,,,,,,,,,,,,,,,,,,,,,,,,,,,,,,,,,,,1.24,298.00120129999414,None,space,0,0.23874780000187457,299.3515891999996,None,299.3515891999996,None,299.3515891999996,None,,,,,,,,,,,P053,FENCOG,1,Pre,2022_Jun_14_1043,Go No-Go Task,2021.1.4,119.98089905605373,
,"Rule: When you see a yellow image, do not press 'spacebar'.",Images/Fearful/AM09_FO.jpg,Fear,Yellow,Images/Yellow.jpg,None,ParentConditions/YellowYellowBlue_v1.xlsx,YellowYellowBlue,Conditions/Version_1/YellowFearStop.xlsx,yes,PASS,0.6630139915996167,,,,,,,,,0,0,0,1,0,0,0,0,0,12,12,12,,,,,,,,,,,,,,,,,,,,,,,,,,,,,,,,,,,,,,,,,,,,,,,,,,,,,,,,,,,,,,,,,,,,,,,,,,,,,,,1.68,299.74561040000117,None,space,0,0.23131499999726657,301.5342435999919,None,301.5342435999919,None,301.5342435999919,None,,,,,,,,,,,P053,FENCOG,1,Pre,2022_Jun_14_1043,Go No-Go Task,2021.1.4,119.98089905605373,
,"Rule: When you see a yellow image, do not press 'spacebar'.",Images/Happy/HM04_HO.jpg,Happy,Blue,Images/Blue.jpg,space,ParentConditions/YellowYellowBlue_v1.xlsx,YellowYellowBlue,Conditions/Version_1/YellowFearStop.xlsx,no,PASS,0.9402314290963173,,,,,,,,,0,0,0,1,0,0,0,0,0,13,13,13,,,,,,,,,,,,,,,,,,,,,,,,,,,,,,,,,,,,,,,,,,,,,,,,,,,,,,,,,,,,,,,,,,,,,,,,,,,,,,,1.47,301.9334220000019,None,space,1,0.28114479999931064,303.5251078000001,None,303.5251078000001,None,303.5251078000001,None,,,,,,,,,,,P053,FENCOG,1,Pre,2022_Jun_14_1043,Go No-Go Task,2021.1.4,119.98089905605373,
,"Rule: When you see a yellow image, do not press 'spacebar'.",Images/Fearful/AM04_FO.jpg,Fear,Yellow,Images/Yellow.jpg,None,ParentConditions/YellowYellowBlue_v1.xlsx,YellowYellowBlue,Conditions/Version_1/YellowFearStop.xlsx,yes,PASS,0.3100490082037951,,,,,,,,,0,0,0,1,0,0,0,0,0,14,14,14,,,,,,,,,,,,,,,,,,,,,,,,,,,,,,,,,,,,,,,,,,,,,,,,,,,,,,,,,,,,,,,,,,,,,,,,,,,,,,,1.66,303.91618250000465,None,None,1,,305.691407899998,None,305.691407899998,None,305.691407899998,None,,,,,,,,,,,P053,FENCOG,1,Pre,2022_Jun_14_1043,Go No-Go Task,2021.1.4,119.98089905605373,
,"Rule: When you see a yellow image, do not press 'spacebar'.",Images/Happy/AM13HAS.jpg,Happy,Blue,Images/Blue.jpg,space,ParentConditions/YellowYellowBlue_v1.xlsx,YellowYellowBlue,Conditions/Version_1/YellowFearStop.xlsx,no,PASS,0.44314676907690376,,,,,,,,,0,0,0,1,0,0,0,0,0,15,15,15,,,,,,,,,,,,,,,,,,,,,,,,,,,,,,,,,,,,,,,,,,,,,,,,,,,,,,,,,,,,,,,,,,,,,,,,,,,,,,,1.54,306.0932877000014,None,space,1,0.27260300000489224,307.7490767999989,None,307.7490767999989,None,307.7490767999989,None,,,,,,,,,,,P053,FENCOG,1,Pre,2022_Jun_14_1043,Go No-Go Task,2021.1.4,119.98089905605373,
,"Rule: When you see a yellow image, do not press 'spacebar'.",Images/Fearful/AF09AFS.jpg,Fear,Yellow,Images/Yellow.jpg,None,ParentConditions/YellowYellowBlue_v1.xlsx,YellowYellowBlue,Conditions/Version_1/YellowFearStop.xlsx,yes,PASS,0.4498025699510172,,,,,,,,,0,0,0,1,0,0,0,0,0,16,16,16,,,,,,,,,,,,,,,,,,,,,,,,,,,,,,,,,,,,,,,,,,,,,,,,,,,,,,,,,,,,,,,,,,,,,,,,,,,,,,,1.46,308.1481872000004,None,None,1,,309.72352139999566,None,309.72352139999566,None,309.72352139999566,None,,,,,,,,,,,P053,FENCOG,1,Pre,2022_Jun_14_1043,Go No-Go Task,2021.1.4,119.98089905605373,
,"Rule: When you see a yellow image, do not press 'spacebar'.",Images/Fearful/BF05_FO.jpg,Fear,Yellow,Images/Yellow.jpg,None,ParentConditions/YellowYellowBlue_v1.xlsx,YellowYellowBlue,Conditions/Version_1/YellowFearStop.xlsx,yes,PASS,0.9080020582242041,,,,,,,,,0,0,0,1,0,0,0,0,0,17,17,17,,,,,,,,,,,,,,,,,,,,,,,,,,,,,,,,,,,,,,,,,,,,,,,,,,,,,,,,,,,,,,,,,,,,,,,,,,,,,,,1.2,310.1227618999983,None,space,0,0.30266699999629054,311.42300799999794,None,311.42300799999794,None,311.42300799999794,None,,,,,,,,,,,P053,FENCOG,1,Pre,2022_Jun_14_1043,Go No-Go Task,2021.1.4,119.98089905605373,
,"Rule: When you see a yellow image, do not press 'spacebar'.",Images/Happy/AM24HAS.jpg,Happy,Blue,Images/Blue.jpg,space,ParentConditions/YellowYellowBlue_v1.xlsx,YellowYellowBlue,Conditions/Version_1/YellowFearStop.xlsx,no,PASS,0.922071682303877,,,,,,,,,0,0,0,1,0,0,0,0,0,18,18,18,,,,,,,,,,,,,,,,,,,,,,,,,,,,,,,,,,,,,,,,,,,,,,,,,,,,,,,,,,,,,,,,,,,,,,,,,,,,,,,1.87,311.8236174999911,None,space,1,0.3119723999989219,313.8056402999937,None,313.8056402999937,None,313.8056402999937,None,,,,,,,,,,,P053,FENCOG,1,Pre,2022_Jun_14_1043,Go No-Go Task,2021.1.4,119.98089905605373,
,"Rule: When you see a yellow image, do not press 'spacebar'.",Images/Fearful/AF11AFS.jpg,Fear,Yellow,Images/Yellow.jpg,None,ParentConditions/YellowYellowBlue_v1.xlsx,YellowYellowBlue,Conditions/Version_1/YellowFearStop.xlsx,yes,PASS,0.9473352640697336,,,,,,,,,0,0,0,1,0,0,0,0,0,19,19,19,,,,,,,,,,,,,,,,,,,,,,,,,,,,,,,,,,,,,,,,,,,,,,,,,,,,,,,,,,,,,,,,,,,,,,,,,,,,,,,1.6,314.2045865999971,None,None,1,,315.9134248000046,None,315.9134248000046,None,315.9134248000046,None,,,,,,,,,,,P053,FENCOG,1,Pre,2022_Jun_14_1043,Go No-Go Task,2021.1.4,119.98089905605373,
,"Rule: When you see a yellow image, do not press 'spacebar'.",Images/Happy/AF01_HE.jpg,Happy,Blue,Images/Blue.jpg,space,ParentConditions/YellowYellowBlue_v1.xlsx,YellowYellowBlue,Conditions/Version_1/YellowFearStop.xlsx,no,PASS,0.975890070475601,,,,,,,,,0,0,0,1,0,0,0,0,0,20,20,20,,,,,,,,,,,,,,,,,,,,,,,,,,,,,,,,,,,,,,,,,,,,,,,,,,,,,,,,,,,,,,,,,,,,,,,,,,,,,,,1.78,316.3123412999994,None,space,1,0.2732711999997264,318.2045000999933,None,318.2045000999933,None,318.2045000999933,None,,,,,,,,,,,P053,FENCOG,1,Pre,2022_Jun_14_1043,Go No-Go Task,2021.1.4,119.98089905605373,
,"Rule: When you see a yellow image, do not press 'spacebar'.",Images/Happy/AM10_HO.jpg,Happy,Blue,Images/Blue.jpg,space,ParentConditions/YellowYellowBlue_v1.xlsx,YellowYellowBlue,Conditions/Version_1/YellowFearStop.xlsx,no,PASS,0.06323556568324906,,,,,,,,,0,0,0,1,0,0,0,0,0,21,21,21,,,,,,,,,,,,,,,,,,,,,,,,,,,,,,,,,,,,,,,,,,,,,,,,,,,,,,,,,,,,,,,,,,,,,,,,,,,,,,,1.42,318.5951347999944,None,space,1,0.2928613999974914,320.13720789999934,None,320.13720789999934,None,320.13720789999934,None,,,,,,,,,,,P053,FENCOG,1,Pre,2022_Jun_14_1043,Go No-Go Task,2021.1.4,119.98089905605373,
,"Rule: When you see a yellow image, do not press 'spacebar'.",Images/Happy/AF09HAS.jpg,Happy,Blue,Images/Blue.jpg,space,ParentConditions/YellowYellowBlue_v1.xlsx,YellowYellowBlue,Conditions/Version_1/YellowFearStop.xlsx,no,PASS,0.6962175902541581,,,,,,,,,0,0,0,1,0,0,0,0,0,22,22,22,,,,,,,,,,,,,,,,,,,,,,,,,,,,,,,,,,,,,,,,,,,,,,,,,,,,,,,,,,,,,,,,,,,,,,,,,,,,,,,1.32,320.5320664000028,None,space,1,0.3001021999953082,321.9616881999973,None,321.9616881999973,None,321.9616881999973,None,,,,,,,,,,,P053,FENCOG,1,Pre,2022_Jun_14_1043,Go No-Go Task,2021.1.4,119.98089905605373,
,"Rule: When you see a yellow image, do not press 'spacebar'.",Images/Happy/BM02_HO.jpg,Happy,Blue,Images/Blue.jpg,space,ParentConditions/YellowYellowBlue_v1.xlsx,YellowYellowBlue,Conditions/Version_1/YellowFearStop.xlsx,no,PASS,0.39611347700197175,,,,,,,,,0,0,0,1,0,0,0,0,0,23,23,23,,,,,,,,,,,,,,,,,,,,,,,,,,,,,,,,,,,,,,,,,,,,,,,,,,,,,,,,,,,,,,,,,,,,,,,,,,,,,,,1.48,322.360594999991,None,space,1,0.34193119998963084,323.94433139999455,None,323.94433139999455,None,323.94433139999455,None,,,,,,,,,,,P053,FENCOG,1,Pre,2022_Jun_14_1043,Go No-Go Task,2021.1.4,119.98089905605373,
,"Rule: When you see a yellow image, do not press 'spacebar'.",Images/Happy/AM09_HE.jpg,Happy,Blue,Images/Blue.jpg,space,ParentConditions/YellowYellowBlue_v1.xlsx,YellowYellowBlue,Conditions/Version_1/YellowFearStop.xlsx,no,PASS,0.07757947711401492,,,,,,,,,0,0,0,1,0,0,0,0,0,24,24,24,,,,,,,,,,,,,,,,,,,,,,,,,,,,,,,,,,,,,,,,,,,,,,,,,,,,,,,,,,,,,,,,,,,,,,,,,,,,,,,1.33,324.35016149999865,None,space,1,0.31629719999909867,325.7937990999926,None,325.7937990999926,None,325.7937990999926,None,,,,,,,,,,,P053,FENCOG,1,Pre,2022_Jun_14_1043,Go No-Go Task,2021.1.4,119.98089905605373,
,"Rule: When you see a yellow image, do not press 'spacebar'.",Images/Happy/AF10_HE.jpg,Happy,Blue,Images/Blue.jpg,space,ParentConditions/YellowYellowBlue_v1.xlsx,YellowYellowBlue,Conditions/Version_1/YellowFearStop.xlsx,no,PASS,0.0317382475703174,,,,,,,,,0,0,0,1,0,0,0,0,0,25,25,25,,,,,,,,,,,,,,,,,,,,,,,,,,,,,,,,,,,,,,,,,,,,,,,,,,,,,,,,,,,,,,,,,,,,,,,,,,,,,,,1.77,326.19489139999496,None,space,1,0.36144310000236146,328.07650149999245,None,328.07650149999245,None,328.07650149999245,None,,,,,,,,,,,P053,FENCOG,1,Pre,2022_Jun_14_1043,Go No-Go Task,2021.1.4,119.98089905605373,
,"Rule: When you see a yellow image, do not press 'spacebar'.",Images/Happy/BM01_HO.jpg,Happy,Blue,Images/Blue.jpg,space,ParentConditions/YellowYellowBlue_v1.xlsx,YellowYellowBlue,Conditions/Version_1/YellowFearStop.xlsx,no,PASS,0.5236836345272965,,,,,,,,,0,0,0,1,0,0,0,0,0,26,26,26,,,,,,,,,,,,,,,,,,,,,,,,,,,,,,,,,,,,,,,,,,,,,,,,,,,,,,,,,,,,,,,,,,,,,,,,,,,,,,,1.44,328.4755850999936,None,space,1,0.33282640000106767,330.0258705000015,None,330.0258705000015,None,330.0258705000015,None,,,,,,,,,,,P053,FENCOG,1,Pre,2022_Jun_14_1043,Go No-Go Task,2021.1.4,119.98089905605373,
,"Rule: When you see a yellow image, do not press 'spacebar'.",Images/Fearful/AF07_FO.jpg,Fear,Yellow,Images/Yellow.jpg,None,ParentConditions/YellowYellowBlue_v1.xlsx,YellowYellowBlue,Conditions/Version_1/YellowFearStop.xlsx,yes,PASS,0.05460409726356086,,,,,,,,,0,0,0,1,0,0,0,0,0,27,27,27,,,,,,,,,,,,,,,,,,,,,,,,,,,,,,,,,,,,,,,,,,,,,,,,,,,,,,,,,,,,,,,,,,,,,,,,,,,,,,,1.71,330.4291513999924,None,space,0,0.2839320999919437,332.250323500004,None,332.250323500004,None,332.250323500004,None,,,,,,,,,,,P053,FENCOG,1,Pre,2022_Jun_14_1043,Go No-Go Task,2021.1.4,119.98089905605373,
,"Rule: When you see a yellow image, do not press 'spacebar'.",Images/Happy/BF18_HO.jpg,Happy,Blue,Images/Blue.jpg,space,ParentConditions/YellowYellowBlue_v1.xlsx,YellowYellowBlue,Conditions/Version_1/YellowFearStop.xlsx,no,PASS,0.725547290944351,,,,,,,,,0,0,0,1,0,0,0,0,0,28,28,28,,,,,,,,,,,,,,,,,,,,,,,,,,,,,,,,,,,,,,,,,,,,,,,,,,,,,,,,,,,,,,,,,,,,,,,,,,,,,,,1.65,332.64702170000237,None,space,1,0.2617043999925954,334.4078998000041,None,334.4078998000041,None,334.4078998000041,None,,,,,,,,,,,P053,FENCOG,1,Pre,2022_Jun_14_1043,Go No-Go Task,2021.1.4,119.98089905605373,
,"Rule: When you see a yellow image, do not press 'spacebar'.",Images/Happy/AM03HAS.jpg,Happy,Blue,Images/Blue.jpg,space,ParentConditions/YellowYellowBlue_v1.xlsx,YellowYellowBlue,Conditions/Version_1/YellowFearStop.xlsx,no,PASS,0.25317968373868693,,,,,,,,,0,0,0,1,0,0,0,0,0,29,29,29,,,,,,,,,,,,,,,,,,,,,,,,,,,,,,,,,,,,,,,,,,,,,,,,,,,,,,,,,,,,,,,,,,,,,,,,,,,,,,,1.29,334.8121766999975,None,None,0,,336.22406530000444,None,336.22406530000444,None,336.22406530000444,None,,,,,,,,,,,P053,FENCOG,1,Pre,2022_Jun_14_1043,Go No-Go Task,2021.1.4,119.98089905605373,
,"Rule: When you see a yellow image, do not press 'spacebar'.",Images/Happy/BF10_HO.jpg,Happy,Blue,Images/Blue.jpg,space,ParentConditions/YellowYellowBlue_v1.xlsx,YellowYellowBlue,Conditions/Version_1/YellowFearStop.xlsx,no,PASS,0.49778397383761497,,,,,,,,,0,0,0,1,0,0,0,0,0,30,30,30,,,,,,,,,,,,,,,,,,,,,,,,,,,,,,,,,,,,,,,,,,,,,,,,,,,,,,,,,,,,,,,,,,,,,,,,,,,,,,,1.55,336.6180316999962,None,space,1,0.26859110000077635,338.2818327999994,None,338.2818327999994,None,338.2818327999994,None,,,,,,,,,,,P053,FENCOG,1,Pre,2022_Jun_14_1043,Go No-Go Task,2021.1.4,119.98089905605373,
,"Rule: When you see a yellow image, do not press 'spacebar'.",Images/Happy/BF07_HO.jpg,Happy,Blue,Images/Blue.jpg,space,ParentConditions/YellowYellowBlue_v1.xlsx,YellowYellowBlue,Conditions/Version_1/YellowFearStop.xlsx,no,PASS,0.8230931671283865,,,,,,,,,0,0,0,1,0,0,0,0,0,31,31,31,,,,,,,,,,,,,,,,,,,,,,,,,,,,,,,,,,,,,,,,,,,,,,,,,,,,,,,,,,,,,,,,,,,,,,,,,,,,,,,1.82,338.6845541999937,None,space,1,0.2953295000042999,340.6144403999933,None,340.6144403999933,None,340.6144403999933,None,,,,,,,,,,,P053,FENCOG,1,Pre,2022_Jun_14_1043,Go No-Go Task,2021.1.4,119.98089905605373,
,"Rule: When you see a yellow image, do not press 'spacebar'.",Images/Fearful/BF07_FO.jpg,Fear,Yellow,Images/Yellow.jpg,None,ParentConditions/YellowYellowBlue_v1.xlsx,YellowYellowBlue,Conditions/Version_1/YellowFearStop.xlsx,yes,PASS,0.2119409881246468,,,,,,,,,0,0,0,1,0,0,0,0,0,32,32,32,,,,,,,,,,,,,,,,,,,,,,,,,,,,,,,,,,,,,,,,,,,,,,,,,,,,,,,,,,,,,,,,,,,,,,,,,,,,,,,1.56,341.01499290000356,None,space,0,0.2367690999963088,342.6888831999968,None,342.6888831999968,None,342.6888831999968,None,,,,,,,,,,,P053,FENCOG,1,Pre,2022_Jun_14_1043,Go No-Go Task,2021.1.4,119.98089905605373,
,"Rule: When you see a yellow image, do not press 'spacebar'.",Images/Happy/WF04_HC.jpg,Happy,Blue,Images/Blue.jpg,space,ParentConditions/YellowYellowBlue_v1.xlsx,YellowYellowBlue,Conditions/Version_1/YellowFearStop.xlsx,no,PASS,0.26229612863468255,,,,,,,,,0,0,0,1,0,0,0,0,0,33,33,33,,,,,,,,,,,,,,,,,,,,,,,,,,,,,,,,,,,,,,,,,,,,,,,,,,,,,,,,,,,,,,,,,,,,,,,,,,,,,,,2,343.0878381999937,None,space,1,0.27350809999916237,345.20473830000265,None,345.20473830000265,None,345.20473830000265,None,,,,,,,,,,,P053,FENCOG,1,Pre,2022_Jun_14_1043,Go No-Go Task,2021.1.4,119.98089905605373,
,"Rule: When you see a yellow image, do not press 'spacebar'.",Images/Happy/AM23HAS.jpg,Happy,Blue,Images/Blue.jpg,space,ParentConditions/YellowYellowBlue_v1.xlsx,YellowYellowBlue,Conditions/Version_1/YellowFearStop.xlsx,no,PASS,0.6553077695853636,,,,,,,,,0,0,0,1,0,0,0,0,0,34,34,34,,,,,,,,,,,,,,,,,,,,,,,,,,,,,,,,,,,,,,,,,,,,,,,,,,,,,,,,,,,,,,,,,,,,,,,,,,,,,,,1.84,345.5986414999934,None,space,1,0.2917301999987103,347.55401579999307,None,347.55401579999307,None,347.55401579999307,None,,,,,,,,,,,P053,FENCOG,1,Pre,2022_Jun_14_1043,Go No-Go Task,2021.1.4,119.98089905605373,
,"Rule: When you see a yellow image, do not press 'spacebar'.",Images/Happy/AM09HAS.jpg,Happy,Blue,Images/Blue.jpg,space,ParentConditions/YellowYellowBlue_v1.xlsx,YellowYellowBlue,Conditions/Version_1/YellowFearStop.xlsx,no,PASS,0.3792451721627529,,,,,,,,,0,0,0,1,0,0,0,0,0,35,35,35,,,,,,,,,,,,,,,,,,,,,,,,,,,,,,,,,,,,,,,,,,,,,,,,,,,,,,,,,,,,,,,,,,,,,,,,,,,,,,,1.89,347.95353169999726,None,space,1,0.2521656000026269,349.9700432999962,None,349.9700432999962,None,349.9700432999962,None,,,,,,,,,,,P053,FENCOG,1,Pre,2022_Jun_14_1043,Go No-Go Task,2021.1.4,119.98089905605373,
,"Rule: When you see a yellow image, do not press 'spacebar'.",Images/Happy/AM10HAS.jpg,Happy,Blue,Images/Blue.jpg,space,ParentConditions/YellowYellowBlue_v1.xlsx,YellowYellowBlue,Conditions/Version_1/YellowFearStop.xlsx,no,PASS,0.9781550300020249,,,,,,,,,0,0,0,1,0,0,0,0,0,36,36,36,,,,,,,,,,,,,,,,,,,,,,,,,,,,,,,,,,,,,,,,,,,,,,,,,,,,,,,,,,,,,,,,,,,,,,,,,,,,,,,1.99,350.34801639999205,None,space,1,0.354246000002604,352.45260899999994,None,352.45260899999994,None,352.45260899999994,None,,,,,,,,,,,P053,FENCOG,1,Pre,2022_Jun_14_1043,Go No-Go Task,2021.1.4,119.98089905605373,
,"Rule: When you see a yellow image, do not press 'spacebar'.",Images/Happy/AF07HAS.jpg,Happy,Blue,Images/Blue.jpg,space,ParentConditions/YellowYellowBlue_v1.xlsx,YellowYellowBlue,Conditions/Version_1/YellowFearStop.xlsx,no,PASS,0.9827710623676732,,,,,,,,,0,0,0,1,0,0,0,0,0,37,37,37,,,,,,,,,,,,,,,,,,,,,,,,,,,,,,,,,,,,,,,,,,,,,,,,,,,,,,,,,,,,,,,,,,,,,,,,,,,,,,,1.76,352.8505565999949,None,space,1,0.27120909999939613,354.7269379999925,None,354.7269379999925,None,354.7269379999925,None,,,,,,,,,,,P053,FENCOG,1,Pre,2022_Jun_14_1043,Go No-Go Task,2021.1.4,119.98089905605373,
,"Rule: When you see a yellow image, do not press 'spacebar'.",Images/Happy/AM03_HO.jpg,Happy,Blue,Images/Blue.jpg,space,ParentConditions/YellowYellowBlue_v1.xlsx,YellowYellowBlue,Conditions/Version_1/YellowFearStop.xlsx,no,PASS,0.6960883574837642,,,,,,,,,0,0,0,1,0,0,0,0,0,38,38,38,,,,,,,,,,,,,,,,,,,,,,,,,,,,,,,,,,,,,,,,,,,,,,,,,,,,,,,,,,,,,,,,,,,,,,,,,,,,,,,1.34,355.1281633000035,None,space,1,0.3255342000047676,356.584726599991,None,356.584726599991,None,356.584726599991,None,,,,,,,,,,,P053,FENCOG,1,Pre,2022_Jun_14_1043,Go No-Go Task,2021.1.4,119.98089905605373,
,"Rule: When you see a yellow image, do not press 'spacebar'.",Images/Happy/AM05HAS.jpg,Happy,Blue,Images/Blue.jpg,space,ParentConditions/YellowYellowBlue_v1.xlsx,YellowYellowBlue,Conditions/Version_1/YellowFearStop.xlsx,no,PASS,0.8897547995150092,,,,,,,,,0,0,0,1,0,0,0,0,0,39,39,39,,,,,,,,,,,,,,,,,,,,,,,,,,,,,,,,,,,,,,,,,,,,,,,,,,,,,,,,,,,,,,,,,,,,,,,,,,,,,,,1.37,356.97342619999836,None,space,1,0.29028240000479855,358.4592352000036,None,358.4592352000036,None,358.4592352000036,None,,,,,,,,,,,P053,FENCOG,1,Pre,2022_Jun_14_1043,Go No-Go Task,2021.1.4,119.98089905605373,
,"Rule: When you see a yellow image, do not press 'spacebar'.",Images/Happy/AF02HAS.jpg,Happy,Blue,Images/Blue.jpg,space,ParentConditions/YellowYellowBlue_v1.xlsx,YellowYellowBlue,Conditions/Version_1/YellowFearStop.xlsx,no,PASS,0.25376599793626176,,,,,,,,,0,0,0,1,0,0,0,0,0,40,40,40,,,,,,,,,,,,,,,,,,,,,,,,,,,,,,,,,,,,,,,,,,,,,,,,,,,,,,,,,,,,,,,,,,,,,,,,,,,,,,,1.23,358.8620050000027,None,space,1,0.23793380000279285,360.19197449999047,None,360.19197449999047,None,360.19197449999047,None,,,,,,,,,,,P053,FENCOG,1,Pre,2022_Jun_14_1043,Go No-Go Task,2021.1.4,119.98089905605373,
,"Rule: When you see a yellow image, do not press 'spacebar'.",Images/Happy/BM08_HO.jpg,Happy,Blue,Images/Blue.jpg,space,ParentConditions/YellowYellowBlue_v1.xlsx,YellowYellowBlue,Conditions/Version_1/YellowFearStop.xlsx,no,PASS,0.999289280912827,,,,,,,,,0,0,0,1,0,0,0,0,0,41,41,41,,,,,,,,,,,,,,,,,,,,,,,,,,,,,,,,,,,,,,,,,,,,,,,,,,,,,,,,,,,,,,,,,,,,,,,,,,,,,,,1.86,360.60048449999886,None,space,1,0.2718116000032751,362.5662850999943,None,362.5662850999943,None,362.5662850999943,None,,,,,,,,,,,P053,FENCOG,1,Pre,2022_Jun_14_1043,Go No-Go Task,2021.1.4,119.98089905605373,
,"Rule: When you see a yellow image, do not press 'spacebar'.",Images/Happy/AM22HAS.jpg,Happy,Blue,Images/Blue.jpg,space,ParentConditions/YellowYellowBlue_v1.xlsx,YellowYellowBlue,Conditions/Version_1/YellowFearStop.xlsx,no,PASS,0.3243688929703894,,,,,,,,,0,0,0,1,0,0,0,0,0,42,42,42,,,,,,,,,,,,,,,,,,,,,,,,,,,,,,,,,,,,,,,,,,,,,,,,,,,,,,,,,,,,,,,,,,,,,,,,,,,,,,,1.93,362.9655102999968,None,space,1,0.27824720001081005,365.00723049999215,None,365.00723049999215,None,365.00723049999215,None,,,,,,,,,,,P053,FENCOG,1,Pre,2022_Jun_14_1043,Go No-Go Task,2021.1.4,119.98089905605373,
,"Rule: When you see a yellow image, do not press 'spacebar'.",Images/Happy/AM30HAS.jpg,Happy,Blue,Images/Blue.jpg,space,ParentConditions/YellowYellowBlue_v1.xlsx,YellowYellowBlue,Conditions/Version_1/YellowFearStop.xlsx,no,PASS,0.6329749014690744,,,,,,,,,0,0,0,1,0,0,0,0,0,43,43,43,,,,,,,,,,,,,,,,,,,,,,,,,,,,,,,,,,,,,,,,,,,,,,,,,,,,,,,,,,,,,,,,,,,,,,,,,,,,,,,1.74,365.4060110999999,None,space,1,0.2049674000008963,367.2566928000015,None,367.2566928000015,None,367.2566928000015,None,,,,,,,,,,,P053,FENCOG,1,Pre,2022_Jun_14_1043,Go No-Go Task,2021.1.4,119.98089905605373,
,"Rule: When you see a yellow image, do not press 'spacebar'.",Images/Fearful/BF09_FC.jpg,Fear,Yellow,Images/Yellow.jpg,None,ParentConditions/YellowYellowBlue_v1.xlsx,YellowYellowBlue,Conditions/Version_1/YellowFearStop.xlsx,yes,PASS,0.8490666234880494,,,,,,,,,0,0,0,1,0,0,0,0,0,44,44,44,,,,,,,,,,,,,,,,,,,,,,,,,,,,,,,,,,,,,,,,,,,,,,,,,,,,,,,,,,,,,,,,,,,,,,,,,,,,,,,1.45,367.6554432999983,None,space,0,0.20736770000075921,369.21431139999186,None,369.21431139999186,None,369.21431139999186,None,,,,,,,,,,,P053,FENCOG,1,Pre,2022_Jun_14_1043,Go No-Go Task,2021.1.4,119.98089905605373,
,"Rule: When you see a yellow image, do not press 'spacebar'.",Images/Happy/WM12_HE.jpg,Happy,Blue,Images/Blue.jpg,space,ParentConditions/YellowYellowBlue_v1.xlsx,YellowYellowBlue,Conditions/Version_1/YellowFearStop.xlsx,no,PASS,0.11929099481185879,,,,,,,,,0,0,0,1,0,0,0,0,0,45,45,45,,,,,,,,,,,,,,,,,,,,,,,,,,,,,,,,,,,,,,,,,,,,,,,,,,,,,,,,,,,,,,,,,,,,,,,,,,,,,,,1.69,369.6138334999996,None,space,1,0.24806310000712983,371.41367919999175,None,371.41367919999175,None,371.41367919999175,None,,,,,,,,,,,P053,FENCOG,1,Pre,2022_Jun_14_1043,Go No-Go Task,2021.1.4,119.98089905605373,
,"Rule: When you see a yellow image, do not press 'spacebar'.",Images/Happy/HF10_HE.jpg,Happy,Blue,Images/Blue.jpg,space,ParentConditions/YellowYellowBlue_v1.xlsx,YellowYellowBlue,Conditions/Version_1/YellowFearStop.xlsx,no,PASS,0.835696516720082,,,,,,,,,0,0,0,1,0,0,0,0,0,46,46,46,,,,,,,,,,,,,,,,,,,,,,,,,,,,,,,,,,,,,,,,,,,,,,,,,,,,,,,,,,,,,,,,,,,,,,,,,,,,,,,1.21,371.8168452999962,None,space,1,0.2763462000002619,373.1297770999954,None,373.1297770999954,None,373.1297770999954,None,,,,,,,,,,,P053,FENCOG,1,Pre,2022_Jun_14_1043,Go No-Go Task,2021.1.4,119.98089905605373,
,"Rule: When you see a yellow image, do not press 'spacebar'.",Images/Happy/HM09_HO.jpg,Happy,Blue,Images/Blue.jpg,space,ParentConditions/YellowYellowBlue_v1.xlsx,YellowYellowBlue,Conditions/Version_1/YellowFearStop.xlsx,no,PASS,0.80615804446551,,,,,,,,,0,0,0,1,0,0,0,0,0,47,47,47,,,,,,,,,,,,,,,,,,,,,,,,,,,,,,,,,,,,,,,,,,,,,,,,,,,,,,,,,,,,,,,,,,,,,,,,,,,,,,,1.79,373.5303399999975,None,space,1,0.25657630000205245,375.4291641000018,None,375.4291641000018,None,375.4291641000018,None,,,,,,,,,,,P053,FENCOG,1,Pre,2022_Jun_14_1043,Go No-Go Task,2021.1.4,119.98089905605373,
,"Rule: When you see a yellow image, do not press 'spacebar'.",Images/Fearful/AM03_FC.jpg,Fear,Yellow,Images/Yellow.jpg,None,ParentConditions/YellowYellowBlue_v1.xlsx,YellowYellowBlue,Conditions/Version_1/YellowFearStop.xlsx,yes,PASS,0.14846567878901318,,,,,,,,,0,0,0,1,0,0,0,0,0,48,48,48,,,,,,,,,,,,,,,,,,,,,,,,,,,,,,,,,,,,,,,,,,,,,,,,,,,,,,,,,,,,,,,,,,,,,,,,,,,,,,,1.35,375.8289556999953,None,space,0,0.2624588000035146,377.29538409999805,None,377.29538409999805,None,377.29538409999805,None,,,,,,,,,,,P053,FENCOG,1,Pre,2022_Jun_14_1043,Go No-Go Task,2021.1.4,119.98089905605373,
,"Rule: When you see a yellow image, do not press 'spacebar'.",Images/Happy/HF04_HE.jpg,Happy,Blue,Images/Blue.jpg,space,ParentConditions/YellowYellowBlue_v1.xlsx,YellowYellowBlue,Conditions/Version_1/YellowFearStop.xlsx,no,PASS,0.49340132442678397,,,,,,,,,0,0,0,1,0,0,0,0,0,49,49,49,,,,,,,,,,,,,,,,,,,,,,,,,,,,,,,,,,,,,,,,,,,,,,,,,,,,,,,,,,,,,,,,,,,,,,,,,,,,,,,1.72,377.69429970000056,None,space,1,0.3341859000065597,379.519398599994,None,379.519398599994,None,379.519398599994,None,,,,,,,,,,,P053,FENCOG,1,Pre,2022_Jun_14_1043,Go No-Go Task,2021.1.4,119.98089905605373,
,"Rule: When you see a yellow image, do not press 'spacebar'.",Images/Happy/AM17HAS.jpg,Happy,Blue,Images/Blue.jpg,space,ParentConditions/YellowYellowBlue_v1.xlsx,YellowYellowBlue,Conditions/Version_1/YellowFearStop.xlsx,no,PASS,0.47053997269579284,,,,,,,,,0,0,0,1,0,0,0,0,0,50,50,50,,,,,,,,,,,,,,,,,,,,,,,,,,,,,,,,,,,,,,,,,,,,,,,,,,,,,,,,,,,,,,,,,,,,,,,,,,,,,,,1.88,379.92022810000344,None,space,1,0.351115800003754,381.9106327000045,None,381.9106327000045,None,381.9106327000045,None,,,,,,,,,,,P053,FENCOG,1,Pre,2022_Jun_14_1043,Go No-Go Task,2021.1.4,119.98089905605373,
,"Rule: When you see a yellow image, do not press 'spacebar'.",Images/Fearful/BM01_FO.jpg,Fear,Yellow,Images/Yellow.jpg,None,ParentConditions/YellowYellowBlue_v1.xlsx,YellowYellowBlue,Conditions/Version_1/YellowFearStop.xlsx,yes,PASS,0.31347174673362443,,,,,,,,,0,0,0,1,0,0,0,0,0,51,51,51,,,,,,,,,,,,,,,,,,,,,,,,,,,,,,,,,,,,,,,,,,,,,,,,,,,,,,,,,,,,,,,,,,,,,,,,,,,,,,,1.27,382.30951880000066,None,None,1,,383.69417950000206,None,383.69417950000206,None,383.69417950000206,None,,,,,,,,,,,P053,FENCOG,1,Pre,2022_Jun_14_1043,Go No-Go Task,2021.1.4,119.98089905605373,
,"Rule: When you see a yellow image, do not press 'spacebar'.",Images/Happy/HF09_HE.jpg,Happy,Blue,Images/Blue.jpg,space,ParentConditions/YellowYellowBlue_v1.xlsx,YellowYellowBlue,Conditions/Version_1/YellowFearStop.xlsx,no,PASS,0.012739972194723559,,,,,,,,,0,0,0,1,0,0,0,0,0,52,52,52,,,,,,,,,,,,,,,,,,,,,,,,,,,,,,,,,,,,,,,,,,,,,,,,,,,,,,,,,,,,,,,,,,,,,,,,,,,,,,,1.51,384.0879491999949,None,space,1,0.2970274000108475,385.7011607000022,None,385.7011607000022,None,385.7011607000022,None,,,,,,,,,,,P053,FENCOG,1,Pre,2022_Jun_14_1043,Go No-Go Task,2021.1.4,119.98089905605373,
,"Rule: When you see a yellow image, do not press 'spacebar'.",Images/Happy/WF11_HE.jpg,Happy,Blue,Images/Blue.jpg,space,ParentConditions/YellowYellowBlue_v1.xlsx,YellowYellowBlue,Conditions/Version_1/YellowFearStop.xlsx,no,PASS,0.5128097154267254,,,,,,,,,0,0,0,1,0,0,0,0,0,53,53,53,,,,,,,,,,,,,,,,,,,,,,,,,,,,,,,,,,,,,,,,,,,,,,,,,,,,,,,,,,,,,,,,,,,,,,,,,,,,,,,1.8,386.10172360000433,None,None,0,,388.02549759999965,None,388.02549759999965,None,388.02549759999965,None,,,,,,,,,,,P053,FENCOG,1,Pre,2022_Jun_14_1043,Go No-Go Task,2021.1.4,119.98089905605373,
,"Rule: When you see a yellow image, do not press 'spacebar'.",Images/Fearful/AM04AFS.jpg,Fear,Yellow,Images/Yellow.jpg,None,ParentConditions/YellowYellowBlue_v1.xlsx,YellowYellowBlue,Conditions/Version_1/YellowFearStop.xlsx,yes,PASS,0.4808108011742167,,,,,,,,,0,0,0,1,0,0,0,0,0,54,54,54,,,,,,,,,,,,,,,,,,,,,,,,,,,,,,,,,,,,,,,,,,,,,,,,,,,,,,,,,,,,,,,,,,,,,,,,,,,,,,,1.4,388.41243779999786,None,None,1,,389.92478509999637,None,389.92478509999637,None,389.92478509999637,None,,,,,,,,,,,P053,FENCOG,1,Pre,2022_Jun_14_1043,Go No-Go Task,2021.1.4,119.98089905605373,
,"Rule: When you see a yellow image, do not press 'spacebar'.",Images/Happy/AF19HAS.jpg,Happy,Blue,Images/Blue.jpg,space,ParentConditions/YellowYellowBlue_v1.xlsx,YellowYellowBlue,Conditions/Version_1/YellowFearStop.xlsx,no,PASS,0.3252147007245795,,,,,,,,,0,0,0,1,0,0,0,0,0,55,55,55,,,,,,,,,,,,,,,,,,,,,,,,,,,,,,,,,,,,,,,,,,,,,,,,,,,,,,,,,,,,,,,,,,,,,,,,,,,,,,,1.73,390.32216450000124,None,space,1,0.2397583999991184,392.1658902999916,None,392.1658902999916,None,392.1658902999916,None,,,,,,,,,,,P053,FENCOG,1,Pre,2022_Jun_14_1043,Go No-Go Task,2021.1.4,119.98089905605373,
,"Rule: When you see a yellow image, do not press 'spacebar'.",Images/Happy/HM06_HO.jpg,Happy,Blue,Images/Blue.jpg,space,ParentConditions/YellowYellowBlue_v1.xlsx,YellowYellowBlue,Conditions/Version_1/YellowFearStop.xlsx,no,PASS,0.3282337486862341,,,,,,,,,0,0,0,1,0,0,0,0,0,56,56,56,,,,,,,,,,,,,,,,,,,,,,,,,,,,,,,,,,,,,,,,,,,,,,,,,,,,,,,,,,,,,,,,,,,,,,,,,,,,,,,1.9,392.5649650999985,None,space,1,0.28818909999972675,394.57353429999785,None,394.57353429999785,None,394.57353429999785,None,,,,,,,,,,,P053,FENCOG,1,Pre,2022_Jun_14_1043,Go No-Go Task,2021.1.4,119.98089905605373,
,"Rule: When you see a yellow image, do not press 'spacebar'.",Images/Happy/HF05_HO.jpg,Happy,Blue,Images/Blue.jpg,space,ParentConditions/YellowYellowBlue_v1.xlsx,YellowYellowBlue,Conditions/Version_1/YellowFearStop.xlsx,no,PASS,0.5833391709234322,,,,,,,,,0,0,0,1,0,0,0,0,0,57,57,57,,,,,,,,,,,,,,,,,,,,,,,,,,,,,,,,,,,,,,,,,,,,,,,,,,,,,,,,,,,,,,,,,,,,,,,,,,,,,,,1.98,394.9726421999949,None,space,1,0.26148960000136867,397.05633999999554,None,397.05633999999554,None,397.05633999999554,None,,,,,,,,,,,P053,FENCOG,1,Pre,2022_Jun_14_1043,Go No-Go Task,2021.1.4,119.98089905605373,
,"Rule: When you see a yellow image, do not press 'spacebar'.",Images/Fearful/AF01_FO.jpg,Fear,Yellow,Images/Yellow.jpg,None,ParentConditions/YellowYellowBlue_v1.xlsx,YellowYellowBlue,Conditions/Version_1/YellowFearStop.xlsx,yes,PASS,0.3034900725746609,,,,,,,,,0,0,0,1,0,0,0,0,0,58,58,58,,,,,,,,,,,,,,,,,,,,,,,,,,,,,,,,,,,,,,,,,,,,,,,,,,,,,,,,,,,,,,,,,,,,,,,,,,,,,,,1.81,397.4567137999984,None,None,1,,399.3804613999964,None,399.3804613999964,None,399.3804613999964,None,,,,,,,,,,,P053,FENCOG,1,Pre,2022_Jun_14_1043,Go No-Go Task,2021.1.4,119.98089905605373,
,"Rule: When you see a yellow image, do not press 'spacebar'.",Images/Happy/AF21HAS.jpg,Happy,Blue,Images/Blue.jpg,space,ParentConditions/YellowYellowBlue_v1.xlsx,YellowYellowBlue,Conditions/Version_1/YellowFearStop.xlsx,no,PASS,0.9799702127391234,,,,,,,,,0,0,0,1,0,0,0,0,0,59,59,59,,,,,,,,,,,,,,,,,,,,,,,,,,,,,,,,,,,,,,,,,,,,,,,,,,,,,,,,,,,,,,,,,,,,,,,,,,,,,,,1.92,399.77300719999766,None,space,1,0.28144399999291636,401.7964241000009,None,401.7964241000009,None,401.7964241000009,None,,,,,,,,,,,P053,FENCOG,1,Pre,2022_Jun_14_1043,Go No-Go Task,2021.1.4,119.98089905605373,
,"Rule: When you see a yellow image, do not press 'spacebar'.",Images/Happy/AM06_HC.jpg,Happy,Blue,Images/Blue.jpg,space,ParentConditions/YellowYellowBlue_v1.xlsx,YellowYellowBlue,Conditions/Version_1/YellowFearStop.xlsx,no,PASS,0.29816427390759137,,,,,,,,,0,0,0,1,0,0,0,0,0,60,60,60,,,,,,,,,,,,,,,,,,,,,,,,,,,,,,,,,,,,,,,,,,,,,,,,,,,,,,,,,,,,,,,,,,,,,,,,,,,,,,,1.94,402.20660219999263,None,space,1,0.28793880000011995,404.2624160999985,None,404.2624160999985,None,404.2624160999985,None,,,,,,,,,,,P053,FENCOG,1,Pre,2022_Jun_14_1043,Go No-Go Task,2021.1.4,119.98089905605373,
,"Rule: When you see a yellow image, do not press 'spacebar'.",Images/Fearful/AF02AFS.jpg,Fear,Yellow,Images/Yellow.jpg,None,ParentConditions/YellowYellowBlue_v1.xlsx,YellowYellowBlue,Conditions/Version_1/YellowFearStop.xlsx,yes,PASS,0.15582520477375605,,,,,,,,,0,0,0,1,0,0,0,0,0,61,61,61,,,,,,,,,,,,,,,,,,,,,,,,,,,,,,,,,,,,,,,,,,,,,,,,,,,,,,,,,,,,,,,,,,,,,,,,,,,,,,,1.83,404.6630315999937,None,None,1,,406.60339580000436,None,406.60339580000436,None,406.60339580000436,None,,,,,,,,,,,P053,FENCOG,1,Pre,2022_Jun_14_1043,Go No-Go Task,2021.1.4,119.98089905605373,
,"Rule: When you see a yellow image, do not press 'spacebar'.",Images/Happy/AF25HAS.jpg,Happy,Blue,Images/Blue.jpg,space,ParentConditions/YellowYellowBlue_v1.xlsx,YellowYellowBlue,Conditions/Version_1/YellowFearStop.xlsx,no,PASS,0.7963653427272854,,,,,,,,,0,0,0,1,0,0,0,0,0,62,62,62,,,,,,,,,,,,,,,,,,,,,,,,,,,,,,,,,,,,,,,,,,,,,,,,,,,,,,,,,,,,,,,,,,,,,,,,,,,,,,,1.52,407.0023643000022,None,None,0,,408.6277268999984,None,408.6277268999984,None,408.6277268999984,None,,,,,,,,,,,P053,FENCOG,1,Pre,2022_Jun_14_1043,Go No-Go Task,2021.1.4,119.98089905605373,
,"Rule: When you see a yellow image, do not press 'spacebar'.",Images/Happy/AM32HAS.jpg,Happy,Blue,Images/Blue.jpg,space,ParentConditions/YellowYellowBlue_v1.xlsx,YellowYellowBlue,Conditions/Version_1/YellowFearStop.xlsx,no,PASS,0.2823557460482189,,,,,,,,,0,0,0,1,0,0,0,0,0,63,63,63,,,,,,,,,,,,,,,,,,,,,,,,,,,,,,,,,,,,,,,,,,,,,,,,,,,,,,,,,,,,,,,,,,,,,,,,,,,,,,,1.53,409.0267085999949,None,space,1,0.2809121000027517,410.6605051999941,None,410.6605051999941,None,410.6605051999941,None,,,,,,,,,,,P053,FENCOG,1,Pre,2022_Jun_14_1043,Go No-Go Task,2021.1.4,119.98089905605373,
,"Rule: When you see a yellow image, do not press 'spacebar'.",Images/Fearful/AM02_FO.jpg,Fear,Yellow,Images/Yellow.jpg,None,ParentConditions/YellowYellowBlue_v1.xlsx,YellowYellowBlue,Conditions/Version_1/YellowFearStop.xlsx,yes,PASS,0.8481624514007016,,,,,,,,,0,0,0,1,0,0,0,0,0,64,64,64,,,,,,,,,,,,,,,,,,,,,,,,,,,,,,,,,,,,,,,,,,,,,,,,,,,,,,,,,,,,,,,,,,,,,,,,,,,,,,,1.97,411.06032499999856,None,None,1,,413.1432296999992,None,413.1432296999992,None,413.1432296999992,None,,,,,,,,,,,P053,FENCOG,1,Pre,2022_Jun_14_1043,Go No-Go Task,2021.1.4,119.98089905605373,
,"Rule: When you see a yellow image, do not press 'spacebar'.",Images/Fearful/BM02_FC.jpg,Fear,Yellow,Images/Yellow.jpg,None,ParentConditions/YellowYellowBlue_v1.xlsx,YellowYellowBlue,Conditions/Version_1/YellowFearStop.xlsx,yes,PASS,0.7033474445186839,,,,,,,,,0,0,0,1,0,0,0,0,0,65,65,65,,,,,,,,,,,,,,,,,,,,,,,,,,,,,,,,,,,,,,,,,,,,,,,,,,,,,,,,,,,,,,,,,,,,,,,,,,,,,,,1.59,413.5453095999983,None,None,1,,415.25079579999147,None,415.25079579999147,None,415.25079579999147,None,,,,,,,,,,,P053,FENCOG,1,Pre,2022_Jun_14_1043,Go No-Go Task,2021.1.4,119.98089905605373,
,"Rule: When you see a yellow image, do not press 'spacebar'.",Images/Happy/AM04_HE.jpg,Happy,Blue,Images/Blue.jpg,space,ParentConditions/YellowYellowBlue_v1.xlsx,YellowYellowBlue,Conditions/Version_1/YellowFearStop.xlsx,no,PASS,0.1954454647057855,,,,,,,,,0,0,0,1,0,0,0,0,0,66,66,66,,,,,,,,,,,,,,,,,,,,,,,,,,,,,,,,,,,,,,,,,,,,,,,,,,,,,,,,,,,,,,,,,,,,,,,,,,,,,,,1.41,415.6499567999999,None,space,1,0.3425001000141492,417.1752123999904,None,417.1752123999904,None,417.1752123999904,None,,,,,,,,,,,P053,FENCOG,1,Pre,2022_Jun_14_1043,Go No-Go Task,2021.1.4,119.98089905605373,
,"Rule: When you see a yellow image, do not press 'spacebar'.",Images/Fearful/AM05AFS.jpg,Fear,Yellow,Images/Yellow.jpg,None,ParentConditions/YellowYellowBlue_v1.xlsx,YellowYellowBlue,Conditions/Version_1/YellowFearStop.xlsx,yes,PASS,0.6459336406761428,,,,,,,,,0,0,0,1,0,0,0,0,0,67,67,67,,,,,,,,,,,,,,,,,,,,,,,,,,,,,,,,,,,,,,,,,,,,,,,,,,,,,,,,,,,,,,,,,,,,,,,,,,,,,,,1.57,417.5743206999905,None,None,1,,419.2580250000028,None,419.2580250000028,None,419.2580250000028,None,,,,,,,,,,,P053,FENCOG,1,Pre,2022_Jun_14_1043,Go No-Go Task,2021.1.4,119.98089905605373,
,"Rule: When you see a yellow image, do not press 'spacebar'.",Images/Happy/AF28HAS.jpg,Happy,Blue,Images/Blue.jpg,space,ParentConditions/YellowYellowBlue_v1.xlsx,YellowYellowBlue,Conditions/Version_1/YellowFearStop.xlsx,no,PASS,0.16840775809852682,,,,,,,,,0,0,0,1,0,0,0,0,0,68,68,68,,,,,,,,,,,,,,,,,,,,,,,,,,,,,,,,,,,,,,,,,,,,,,,,,,,,,,,,,,,,,,,,,,,,,,,,,,,,,,,1.49,419.65710460000264,None,space,1,0.3413472000102047,421.2491327000025,None,421.2491327000025,None,421.2491327000025,None,,,,,,,,,,,P053,FENCOG,1,Pre,2022_Jun_14_1043,Go No-Go Task,2021.1.4,119.98089905605373,
,"Rule: When you see a yellow image, do not press 'spacebar'.",Images/Happy/AF07_HO.jpg,Happy,Blue,Images/Blue.jpg,space,ParentConditions/YellowYellowBlue_v1.xlsx,YellowYellowBlue,Conditions/Version_1/YellowFearStop.xlsx,no,PASS,0.8921854253161821,,,,,,,,,0,0,0,1,0,0,0,0,0,69,69,69,,,,,,,,,,,,,,,,,,,,,,,,,,,,,,,,,,,,,,,,,,,,,,,,,,,,,,,,,,,,,,,,,,,,,,,,,,,,,,,1.96,421.6544121999905,None,space,1,0.298177200005739,423.7236391000042,None,423.7236391000042,None,423.7236391000042,None,,,,,,,,,,,P053,FENCOG,1,Pre,2022_Jun_14_1043,Go No-Go Task,2021.1.4,119.98089905605373,
,"Rule: When you see a yellow image, do not press 'spacebar'.",Images/Happy/BF14_HO.jpg,Happy,Blue,Images/Blue.jpg,space,ParentConditions/YellowYellowBlue_v1.xlsx,YellowYellowBlue,Conditions/Version_1/YellowFearStop.xlsx,no,PASS,0.11340023271387378,,,,,,,,,0,0,0,1,0,0,0,0,0,70,70,70,,,,,,,,,,,,,,,,,,,,,,,,,,,,,,,,,,,,,,,,,,,,,,,,,,,,,,,,,,,,,,,,,,,,,,,,,,,,,,,1.28,424.11871809999866,None,space,1,0.3233209000027273,425.51446370000485,None,425.51446370000485,None,425.51446370000485,None,,,,,,,,,,,P053,FENCOG,1,Pre,2022_Jun_14_1043,Go No-Go Task,2021.1.4,119.98089905605373,
,"Rule: When you see a yellow image, do not press 'spacebar'.",Images/Fearful/AF07FS.jpg,Fear,Yellow,Images/Yellow.jpg,None,ParentConditions/YellowYellowBlue_v1.xlsx,YellowYellowBlue,Conditions/Version_1/YellowFearStop.xlsx,yes,PASS,0.01772114652951917,,,,,,,,,0,0,0,1,0,0,0,0,0,71,71,71,,,,,,,,,,,,,,,,,,,,,,,,,,,,,,,,,,,,,,,,,,,,,,,,,,,,,,,,,,,,,,,,,,,,,,,,,,,,,,,1.58,425.91314799999236,None,None,1,,427.5971974999993,None,427.5971974999993,None,427.5971974999993,None,,,,,,,,,,,P053,FENCOG,1,Pre,2022_Jun_14_1043,Go No-Go Task,2021.1.4,119.98089905605373,
,"Rule: When you see a yellow image, do not press 'spacebar'.",Images/Happy/AF32HAS.jpg,Happy,Blue,Images/Blue.jpg,space,ParentConditions/YellowYellowBlue_v1.xlsx,YellowYellowBlue,Conditions/Version_1/YellowFearStop.xlsx,no,PASS,0.351428612146247,,,,,,,,,0,0,0,1,0,0,0,0,0,72,72,72,,,,,,,,,,,,,,,,,,,,,,,,,,,,,,,,,,,,,,,,,,,,,,,,,,,,,,,,,,,,,,,,,,,,,,,,,,,,,,,1.26,427.9975370000029,None,space,1,0.3707557000016095,429.37161590000323,None,429.37161590000323,None,429.37161590000323,None,,,,,,,,,,,P053,FENCOG,1,Pre,2022_Jun_14_1043,Go No-Go Task,2021.1.4,119.98089905605373,
,"Rule: When you see a yellow image, do not press 'spacebar'.",Images/Happy/AF11HAS.jpg,Happy,Blue,Images/Blue.jpg,space,ParentConditions/YellowYellowBlue_v1.xlsx,YellowYellowBlue,Conditions/Version_1/YellowFearStop.xlsx,no,PASS,0.5437174345826498,,,,,,,,,0,0,0,1,0,0,0,0,0,73,73,73,,,,,,,,,,,,,,,,,,,,,,,,,,,,,,,,,,,,,,,,,,,,,,,,,,,,,,,,,,,,,,,,,,,,,,,,,,,,,,,1.62,429.7626115000021,None,space,1,0.27052229999389965,431.4960104999918,None,431.4960104999918,None,431.4960104999918,None,,,,,,,,,,,P053,FENCOG,1,Pre,2022_Jun_14_1043,Go No-Go Task,2021.1.4,119.98089905605373,
,"Rule: When you see a yellow image, do not press 'spacebar'.",Images/Happy/AM19HAS.jpg,Happy,Blue,Images/Blue.jpg,space,ParentConditions/YellowYellowBlue_v1.xlsx,YellowYellowBlue,Conditions/Version_1/YellowFearStop.xlsx,no,PASS,0.4048546584074827,,,,,,,,,0,0,0,1,0,0,0,0,0,74,74,74,,,,,,,,,,,,,,,,,,,,,,,,,,,,,,,,,,,,,,,,,,,,,,,,,,,,,,,,,,,,,,,,,,,,,,,,,,,,,,,1.91,431.89514300000155,None,space,1,0.29340229999797884,433.9203157000011,None,433.9203157000011,None,433.9203157000011,None,,,,,,,,,,,P053,FENCOG,1,Pre,2022_Jun_14_1043,Go No-Go Task,2021.1.4,119.98089905605373,
,"Rule: When you see a yellow image, do not press 'spacebar'.",Images/Happy/AM01HAS.jpg,Happy,Blue,Images/Blue.jpg,space,ParentConditions/YellowYellowBlue_v1.xlsx,YellowYellowBlue,Conditions/Version_1/YellowFearStop.xlsx,no,PASS,0.668098744931977,,,,,,,,,0,0,0,1,0,0,0,0,0,75,75,75,,,,,,,,,,,,,,,,,,,,,,,,,,,,,,,,,,,,,,,,,,,,,,,,,,,,,,,,,,,,,,,,,,,,,,,,,,,,,,,1.61,434.3227198999957,None,space,1,0.2569867999991402,436.0527402000007,None,436.0527402000007,None,436.0527402000007,None,,,,,,,,,,,P053,FENCOG,1,Pre,2022_Jun_14_1043,Go No-Go Task,2021.1.4,119.98089905605373,
,"Rule: When you see a yellow image, do not press 'spacebar'.",Images/Happy/WF05_HC.jpg,Happy,Blue,Images/Blue.jpg,space,ParentConditions/YellowYellowBlue_v1.xlsx,YellowYellowBlue,Conditions/Version_1/YellowFearStop.xlsx,no,PASS,0.3346503168901146,,,,,,,,,0,0,0,1,0,0,0,0,0,76,76,76,,,,,,,,,,,,,,,,,,,,,,,,,,,,,,,,,,,,,,,,,,,,,,,,,,,,,,,,,,,,,,,,,,,,,,,,,,,,,,,1.67,436.44359959999565,None,space,1,0.2992138999979943,438.2273358999955,None,438.2273358999955,None,438.2273358999955,None,,,,,,,,,,,P053,FENCOG,1,Pre,2022_Jun_14_1043,Go No-Go Task,2021.1.4,119.98089905605373,
,"Rule: When you see a yellow image, do not press 'spacebar'.",Images/Happy/BM03_HO.jpg,Happy,Blue,Images/Blue.jpg,space,ParentConditions/YellowYellowBlue_v1.xlsx,YellowYellowBlue,Conditions/Version_1/YellowFearStop.xlsx,no,PASS,0.8309182769230548,,,,,,,,,0,0,0,1,0,0,0,0,0,77,77,77,,,,,,,,,,,,,,,,,,,,,,,,,,,,,,,,,,,,,,,,,,,,,,,,,,,,,,,,,,,,,,,,,,,,,,,,,,,,,,,1.22,438.63166040000215,None,space,1,0.26220589999866206,439.96024359999865,None,439.96024359999865,None,439.96024359999865,None,,,,,,,,,,,P053,FENCOG,1,Pre,2022_Jun_14_1043,Go No-Go Task,2021.1.4,119.98089905605373,
,"Rule: When you see a yellow image, do not press 'spacebar'.",Images/Happy/AM02_HE.jpg,Happy,Blue,Images/Blue.jpg,space,ParentConditions/YellowYellowBlue_v1.xlsx,YellowYellowBlue,Conditions/Version_1/YellowFearStop.xlsx,no,PASS,0.732833616031058,,,,,,,,,0,0,0,1,0,0,0,0,0,78,78,78,,,,,,,,,,,,,,,,,,,,,,,,,,,,,,,,,,,,,,,,,,,,,,,,,,,,,,,,,,,,,,,,,,,,,,,,,,,,,,,1.95,440.353723799999,None,None,0,,442.4178524000017,None,442.4178524000017,None,442.4178524000017,None,,,,,,,,,,,P053,FENCOG,1,Pre,2022_Jun_14_1043,Go No-Go Task,2021.1.4,119.98089905605373,
,"Rule: When you see a yellow image, do not press 'spacebar'.",Images/Fearful/AM06_FO.jpg,Fear,Yellow,Images/Yellow.jpg,None,ParentConditions/YellowYellowBlue_v1.xlsx,YellowYellowBlue,Conditions/Version_1/YellowFearStop.xlsx,yes,PASS,0.2239834878173258,,,,,,,,,0,0,0,1,0,0,0,0,0,79,79,79,,,,,,,,,,,,,,,,,,,,,,,,,,,,,,,,,,,,,,,,,,,,,,,,,,,,,,,,,,,,,,,,,,,,,,,,,,,,,,,1.7,442.8177003000019,None,None,1,,444.63378649999504,None,444.63378649999504,None,444.63378649999504,None,,,,,,,,,,,P053,FENCOG,1,Pre,2022_Jun_14_1043,Go No-Go Task,2021.1.4,119.98089905605373,
,"Rule: When you see a yellow image, do not press 'spacebar'.",Images/Scram2/HM09_NC.jpg,Scramble,Blue,Images/Blue.jpg,space,ParentConditions/YellowYellowBlue_v1.xlsx,YellowYellowBlue,Conditions/Version_1/YellowScramStop.xlsx,no,PASS,0.16546209529303746,,,,,,,,,0,0,0,1,0,1,1,1,0,0,0,0,,,,,,,,,,,,,,,,,,,,,,,,,,,,,,,,,,,,,,,,,,,,,,,,,,,,,,,,,,,,,,,,,446.7877145999955,None,449.78154599999834,None,space,1.016126999995322,449.78154599999834,None,446.7877145999955,None,446.7877145999955,None,446.7877145999955,None,1.5,450.8517842000001,None,None,0,,452.464613499993,None,452.464613499993,None,452.464613499993,None,445.04968939999526,None,space,1.2245396999933291,445.54122479999205,None,445.04968939999526,None,445.04968939999526,None,P053,FENCOG,1,Pre,2022_Jun_14_1043,Go No-Go Task,2021.1.4,119.98089905605373,
,"Rule: When you see a yellow image, do not press 'spacebar'.",Images/Scram2/HM06_NC.jpg,Scramble,Blue,Images/Blue.jpg,space,ParentConditions/YellowYellowBlue_v1.xlsx,YellowYellowBlue,Conditions/Version_1/YellowScramStop.xlsx,no,PASS,0.8979675286244925,,,,,,,,,0,0,0,1,0,1,1,1,0,1,1,1,,,,,,,,,,,,,,,,,,,,,,,,,,,,,,,,,,,,,,,,,,,,,,,,,,,,,,,,,,,,,,,,,,,,,,,,,,,,,,,1.33,452.8661934999982,None,space,1,0.29150390000722837,454.297662099998,None,454.297662099998,None,454.297662099998,None,,,,,,,,,,,P053,FENCOG,1,Pre,2022_Jun_14_1043,Go No-Go Task,2021.1.4,119.98089905605373,
,"Rule: When you see a yellow image, do not press 'spacebar'.",Images/Scram1/AM31NES.jpg,Scramble,Blue,Images/Blue.jpg,space,ParentConditions/YellowYellowBlue_v1.xlsx,YellowYellowBlue,Conditions/Version_1/YellowScramStop.xlsx,no,PASS,0.9231879679928262,,,,,,,,,0,0,0,1,0,1,1,1,0,2,2,2,,,,,,,,,,,,,,,,,,,,,,,,,,,,,,,,,,,,,,,,,,,,,,,,,,,,,,,,,,,,,,,,,,,,,,,,,,,,,,,1.24,454.6962618999969,None,space,1,0.2625709999992978,456.0471438999957,None,456.0471438999957,None,456.0471438999957,None,,,,,,,,,,,P053,FENCOG,1,Pre,2022_Jun_14_1043,Go No-Go Task,2021.1.4,119.98089905605373,
,"Rule: When you see a yellow image, do not press 'spacebar'.",Images/Scram2/AM03NES.jpg,Scramble,Yellow,Images/Yellow.jpg,None,ParentConditions/YellowYellowBlue_v1.xlsx,YellowYellowBlue,Conditions/Version_1/YellowScramStop.xlsx,yes,PASS,0.5123844621609239,,,,,,,,,0,0,0,1,0,1,1,1,0,3,3,3,,,,,,,,,,,,,,,,,,,,,,,,,,,,,,,,,,,,,,,,,,,,,,,,,,,,,,,,,,,,,,,,,,,,,,,,,,,,,,,1.87,456.4417734000017,None,space,0,0.28940559999318793,458.41307419999794,None,458.41307419999794,None,458.41307419999794,None,,,,,,,,,,,P053,FENCOG,1,Pre,2022_Jun_14_1043,Go No-Go Task,2021.1.4,119.98089905605373,
,"Rule: When you see a yellow image, do not press 'spacebar'.",Images/Scram2/BM01_NC.jpg,Scramble,Blue,Images/Blue.jpg,space,ParentConditions/YellowYellowBlue_v1.xlsx,YellowYellowBlue,Conditions/Version_1/YellowScramStop.xlsx,no,PASS,0.9647622626448304,,,,,,,,,0,0,0,1,0,1,1,1,0,4,4,4,,,,,,,,,,,,,,,,,,,,,,,,,,,,,,,,,,,,,,,,,,,,,,,,,,,,,,,,,,,,,,,,,,,,,,,,,,,,,,,1.76,458.8172856000019,None,space,1,0.31957770000735763,460.687522799999,None,460.687522799999,None,460.687522799999,None,,,,,,,,,,,P053,FENCOG,1,Pre,2022_Jun_14_1043,Go No-Go Task,2021.1.4,119.98089905605373,
,"Rule: When you see a yellow image, do not press 'spacebar'.",Images/Scram1/HM09_NC.jpg,Scramble,Blue,Images/Blue.jpg,space,ParentConditions/YellowYellowBlue_v1.xlsx,YellowYellowBlue,Conditions/Version_1/YellowScramStop.xlsx,no,PASS,0.0006879251870249847,,,,,,,,,0,0,0,1,0,1,1,1,0,5,5,5,,,,,,,,,,,,,,,,,,,,,,,,,,,,,,,,,,,,,,,,,,,,,,,,,,,,,,,,,,,,,,,,,,,,,,,,,,,,,,,1.23,461.0806828999921,None,space,1,0.3619722000003094,462.4203547999932,None,462.4203547999932,None,462.4203547999932,None,,,,,,,,,,,P053,FENCOG,1,Pre,2022_Jun_14_1043,Go No-Go Task,2021.1.4,119.98089905605373,
,"Rule: When you see a yellow image, do not press 'spacebar'.",Images/Scram2/BF07_NC.jpg,Scramble,Blue,Images/Blue.jpg,space,ParentConditions/YellowYellowBlue_v1.xlsx,YellowYellowBlue,Conditions/Version_1/YellowScramStop.xlsx,no,PASS,0.9958823679259557,,,,,,,,,0,0,0,1,0,1,1,1,0,6,6,6,,,,,,,,,,,,,,,,,,,,,,,,,,,,,,,,,,,,,,,,,,,,,,,,,,,,,,,,,,,,,,,,,,,,,,,,,,,,,,,1.35,462.82317960000364,None,space,1,0.3603489999950398,464.2863260000013,None,464.2863260000013,None,464.2863260000013,None,,,,,,,,,,,P053,FENCOG,1,Pre,2022_Jun_14_1043,Go No-Go Task,2021.1.4,119.98089905605373,
,"Rule: When you see a yellow image, do not press 'spacebar'.",Images/Scram1/BF14_NC.jpg,Scramble,Blue,Images/Blue.jpg,space,ParentConditions/YellowYellowBlue_v1.xlsx,YellowYellowBlue,Conditions/Version_1/YellowScramStop.xlsx,no,PASS,0.23975965807979494,,,,,,,,,0,0,0,1,0,1,1,1,0,7,7,7,,,,,,,,,,,,,,,,,,,,,,,,,,,,,,,,,,,,,,,,,,,,,,,,,,,,,,,,,,,,,,,,,,,,,,,,,,,,,,,1.26,464.6779380999942,None,space,1,0.3057587999937823,466.05252420000033,None,466.05252420000033,None,466.05252420000033,None,,,,,,,,,,,P053,FENCOG,1,Pre,2022_Jun_14_1043,Go No-Go Task,2021.1.4,119.98089905605373,
,"Rule: When you see a yellow image, do not press 'spacebar'.",Images/Scram2/AF10_NC.jpg,Scramble,Blue,Images/Blue.jpg,space,ParentConditions/YellowYellowBlue_v1.xlsx,YellowYellowBlue,Conditions/Version_1/YellowScramStop.xlsx,no,PASS,0.23192838167496266,,,,,,,,,0,0,0,1,0,1,1,1,0,8,8,8,,,,,,,,,,,,,,,,,,,,,,,,,,,,,,,,,,,,,,,,,,,,,,,,,,,,,,,,,,,,,,,,,,,,,,,,,,,,,,,1.9,466.4515967999905,None,None,0,,468.45186059999105,None,468.45186059999105,None,468.45186059999105,None,,,,,,,,,,,P053,FENCOG,1,Pre,2022_Jun_14_1043,Go No-Go Task,2021.1.4,119.98089905605373,
,"Rule: When you see a yellow image, do not press 'spacebar'.",Images/Scram2/AF01_NC.jpg,Scramble,Blue,Images/Blue.jpg,space,ParentConditions/YellowYellowBlue_v1.xlsx,YellowYellowBlue,Conditions/Version_1/YellowScramStop.xlsx,no,PASS,0.030564678936407685,,,,,,,,,0,0,0,1,0,1,1,1,0,9,9,9,,,,,,,,,,,,,,,,,,,,,,,,,,,,,,,,,,,,,,,,,,,,,,,,,,,,,,,,,,,,,,,,,,,,,,,,,,,,,,,1.58,468.8543145000003,None,space,1,0.335337199998321,470.55118359999324,None,470.55118359999324,None,470.55118359999324,None,,,,,,,,,,,P053,FENCOG,1,Pre,2022_Jun_14_1043,Go No-Go Task,2021.1.4,119.98089905605373,
,"Rule: When you see a yellow image, do not press 'spacebar'.",Images/Scram2/AF24NES.jpg,Scramble,Blue,Images/Blue.jpg,space,ParentConditions/YellowYellowBlue_v1.xlsx,YellowYellowBlue,Conditions/Version_1/YellowScramStop.xlsx,no,PASS,0.3257124610951796,,,,,,,,,0,0,0,1,0,1,1,1,0,10,10,10,,,,,,,,,,,,,,,,,,,,,,,,,,,,,,,,,,,,,,,,,,,,,,,,,,,,,,,,,,,,,,,,,,,,,,,,,,,,,,,1.28,470.94614379999985,None,space,1,0.28746310000133235,472.34240140000475,None,472.34240140000475,None,472.34240140000475,None,,,,,,,,,,,P053,FENCOG,1,Pre,2022_Jun_14_1043,Go No-Go Task,2021.1.4,119.98089905605373,
,"Rule: When you see a yellow image, do not press 'spacebar'.",Images/Scram2/BF14_NC.jpg,Scramble,Blue,Images/Blue.jpg,space,ParentConditions/YellowYellowBlue_v1.xlsx,YellowYellowBlue,Conditions/Version_1/YellowScramStop.xlsx,no,PASS,0.7452625323265352,,,,,,,,,0,0,0,1,0,1,1,1,0,11,11,11,,,,,,,,,,,,,,,,,,,,,,,,,,,,,,,,,,,,,,,,,,,,,,,,,,,,,,,,,,,,,,,,,,,,,,,,,,,,,,,1.22,472.7413041999971,None,space,1,0.29075090000696946,474.0751258999953,None,474.0751258999953,None,474.0751258999953,None,,,,,,,,,,,P053,FENCOG,1,Pre,2022_Jun_14_1043,Go No-Go Task,2021.1.4,119.98089905605373,
,"Rule: When you see a yellow image, do not press 'spacebar'.",Images/Scram1/AM13NES.jpg,Scramble,Blue,Images/Blue.jpg,space,ParentConditions/YellowYellowBlue_v1.xlsx,YellowYellowBlue,Conditions/Version_1/YellowScramStop.xlsx,no,PASS,0.49399354825257,,,,,,,,,0,0,0,1,0,1,1,1,0,12,12,12,,,,,,,,,,,,,,,,,,,,,,,,,,,,,,,,,,,,,,,,,,,,,,,,,,,,,,,,,,,,,,,,,,,,,,,,,,,,,,,1.51,474.4739954999968,None,space,1,0.26659809998818673,476.09120090000215,None,476.09120090000215,None,476.09120090000215,None,,,,,,,,,,,P053,FENCOG,1,Pre,2022_Jun_14_1043,Go No-Go Task,2021.1.4,119.98089905605373,
,"Rule: When you see a yellow image, do not press 'spacebar'.",Images/Scram1/HM04_NC.jpg,Scramble,Blue,Images/Blue.jpg,space,ParentConditions/YellowYellowBlue_v1.xlsx,YellowYellowBlue,Conditions/Version_1/YellowScramStop.xlsx,no,PASS,0.18467466618813977,,,,,,,,,0,0,0,1,0,1,1,1,0,13,13,13,,,,,,,,,,,,,,,,,,,,,,,,,,,,,,,,,,,,,,,,,,,,,,,,,,,,,,,,,,,,,,,,,,,,,,,,,,,,,,,1.21,476.49061219999567,None,space,1,0.3186132999981055,477.8157529000018,None,477.8157529000018,None,477.8157529000018,None,,,,,,,,,,,P053,FENCOG,1,Pre,2022_Jun_14_1043,Go No-Go Task,2021.1.4,119.98089905605373,
,"Rule: When you see a yellow image, do not press 'spacebar'.",Images/Scram1/AM03NES.jpg,Scramble,Blue,Images/Blue.jpg,space,ParentConditions/YellowYellowBlue_v1.xlsx,YellowYellowBlue,Conditions/Version_1/YellowScramStop.xlsx,no,PASS,0.036392655954534225,,,,,,,,,0,0,0,1,0,1,1,1,0,14,14,14,,,,,,,,,,,,,,,,,,,,,,,,,,,,,,,,,,,,,,,,,,,,,,,,,,,,,,,,,,,,,,,,,,,,,,,,,,,,,,,1.61,478.21083719999297,None,space,1,0.29826280000270344,479.9234171999997,None,479.9234171999997,None,479.9234171999997,None,,,,,,,,,,,P053,FENCOG,1,Pre,2022_Jun_14_1043,Go No-Go Task,2021.1.4,119.98089905605373,
,"Rule: When you see a yellow image, do not press 'spacebar'.",Images/Scram1/AM22NES.jpg,Scramble,Blue,Images/Blue.jpg,space,ParentConditions/YellowYellowBlue_v1.xlsx,YellowYellowBlue,Conditions/Version_1/YellowScramStop.xlsx,no,PASS,0.46426586463932284,,,,,,,,,0,0,0,1,0,1,1,1,0,15,15,15,,,,,,,,,,,,,,,,,,,,,,,,,,,,,,,,,,,,,,,,,,,,,,,,,,,,,,,,,,,,,,,,,,,,,,,,,,,,,,,1.93,480.32405379999545,None,space,1,0.2734844999940833,482.36443970000255,None,482.36443970000255,None,482.36443970000255,None,,,,,,,,,,,P053,FENCOG,1,Pre,2022_Jun_14_1043,Go No-Go Task,2021.1.4,119.98089905605373,
,"Rule: When you see a yellow image, do not press 'spacebar'.",Images/Scram2/AM17NES.jpg,Scramble,Yellow,Images/Yellow.jpg,None,ParentConditions/YellowYellowBlue_v1.xlsx,YellowYellowBlue,Conditions/Version_1/YellowScramStop.xlsx,yes,PASS,0.9679079792094736,,,,,,,,,0,0,0,1,0,1,1,1,0,16,16,16,,,,,,,,,,,,,,,,,,,,,,,,,,,,,,,,,,,,,,,,,,,,,,,,,,,,,,,,,,,,,,,,,,,,,,,,,,,,,,,1.55,482.76432719999866,None,None,1,,484.42210939999495,None,484.42210939999495,None,484.42210939999495,None,,,,,,,,,,,P053,FENCOG,1,Pre,2022_Jun_14_1043,Go No-Go Task,2021.1.4,119.98089905605373,
,"Rule: When you see a yellow image, do not press 'spacebar'.",Images/Scram1/AM10NES.jpg,Scramble,Blue,Images/Blue.jpg,space,ParentConditions/YellowYellowBlue_v1.xlsx,YellowYellowBlue,Conditions/Version_1/YellowScramStop.xlsx,no,PASS,0.60606204058038,,,,,,,,,0,0,0,1,0,1,1,1,0,17,17,17,,,,,,,,,,,,,,,,,,,,,,,,,,,,,,,,,,,,,,,,,,,,,,,,,,,,,,,,,,,,,,,,,,,,,,,,,,,,,,,1.96,484.82171849999577,None,space,1,0.2776951999985613,486.8880585000006,None,486.8880585000006,None,486.8880585000006,None,,,,,,,,,,,P053,FENCOG,1,Pre,2022_Jun_14_1043,Go No-Go Task,2021.1.4,119.98089905605373,
,"Rule: When you see a yellow image, do not press 'spacebar'.",Images/Scram2/AM03_NC.jpg,Scramble,Yellow,Images/Yellow.jpg,None,ParentConditions/YellowYellowBlue_v1.xlsx,YellowYellowBlue,Conditions/Version_1/YellowScramStop.xlsx,yes,PASS,0.375029210281841,,,,,,,,,0,0,0,1,0,1,1,1,0,18,18,18,,,,,,,,,,,,,,,,,,,,,,,,,,,,,,,,,,,,,,,,,,,,,,,,,,,,,,,,,,,,,,,,,,,,,,,,,,,,,,,2,487.2872025999968,None,space,0,0.2503017999988515,489.38730139999825,None,489.38730139999825,None,489.38730139999825,None,,,,,,,,,,,P053,FENCOG,1,Pre,2022_Jun_14_1043,Go No-Go Task,2021.1.4,119.98089905605373,
,"Rule: When you see a yellow image, do not press 'spacebar'.",Images/Scram1/HF09_NC.jpg,Scramble,Blue,Images/Blue.jpg,space,ParentConditions/YellowYellowBlue_v1.xlsx,YellowYellowBlue,Conditions/Version_1/YellowScramStop.xlsx,no,PASS,0.5505947352432977,,,,,,,,,0,0,0,1,0,1,1,1,0,19,19,19,,,,,,,,,,,,,,,,,,,,,,,,,,,,,,,,,,,,,,,,,,,,,,,,,,,,,,,,,,,,,,,,,,,,,,,,,,,,,,,1.47,489.7864324999973,None,space,1,0.2999139000021387,491.3701785000012,None,491.3701785000012,None,491.3701785000012,None,,,,,,,,,,,P053,FENCOG,1,Pre,2022_Jun_14_1043,Go No-Go Task,2021.1.4,119.98089905605373,
,"Rule: When you see a yellow image, do not press 'spacebar'.",Images/Scram1/BM08_NC.jpg,Scramble,Blue,Images/Blue.jpg,space,ParentConditions/YellowYellowBlue_v1.xlsx,YellowYellowBlue,Conditions/Version_1/YellowScramStop.xlsx,no,PASS,0.1123919377407171,,,,,,,,,0,0,0,1,0,1,1,1,0,20,20,20,,,,,,,,,,,,,,,,,,,,,,,,,,,,,,,,,,,,,,,,,,,,,,,,,,,,,,,,,,,,,,,,,,,,,,,,,,,,,,,1.45,491.76781000000483,None,space,1,0.2945629000023473,493.31114379999053,None,493.31114379999053,None,493.31114379999053,None,,,,,,,,,,,P053,FENCOG,1,Pre,2022_Jun_14_1043,Go No-Go Task,2021.1.4,119.98089905605373,
,"Rule: When you see a yellow image, do not press 'spacebar'.",Images/Scram1/AF32NES.jpg,Scramble,Blue,Images/Blue.jpg,space,ParentConditions/YellowYellowBlue_v1.xlsx,YellowYellowBlue,Conditions/Version_1/YellowScramStop.xlsx,no,PASS,0.6647641829322217,,,,,,,,,0,0,0,1,0,1,1,1,0,21,21,21,,,,,,,,,,,,,,,,,,,,,,,,,,,,,,,,,,,,,,,,,,,,,,,,,,,,,,,,,,,,,,,,,,,,,,,,,,,,,,,1.79,493.71097420000297,None,space,1,0.26764299999922514,495.60213739999745,None,495.60213739999745,None,495.60213739999745,None,,,,,,,,,,,P053,FENCOG,1,Pre,2022_Jun_14_1043,Go No-Go Task,2021.1.4,119.98089905605373,
,"Rule: When you see a yellow image, do not press 'spacebar'.",Images/Scram2/AM06_NC.jpg,Scramble,Yellow,Images/Yellow.jpg,None,ParentConditions/YellowYellowBlue_v1.xlsx,YellowYellowBlue,Conditions/Version_1/YellowScramStop.xlsx,yes,PASS,0.3634874867374246,,,,,,,,,0,0,0,1,0,1,1,1,0,22,22,22,,,,,,,,,,,,,,,,,,,,,,,,,,,,,,,,,,,,,,,,,,,,,,,,,,,,,,,,,,,,,,,,,,,,,,,,,,,,,,,1.66,496.0040309000033,None,None,1,,497.7764959999913,None,497.7764959999913,None,497.7764959999913,None,,,,,,,,,,,P053,FENCOG,1,Pre,2022_Jun_14_1043,Go No-Go Task,2021.1.4,119.98089905605373,
,"Rule: When you see a yellow image, do not press 'spacebar'.",Images/Scram1/AM06_NC.jpg,Scramble,Blue,Images/Blue.jpg,space,ParentConditions/YellowYellowBlue_v1.xlsx,YellowYellowBlue,Conditions/Version_1/YellowScramStop.xlsx,no,PASS,0.9155941996303448,,,,,,,,,0,0,0,1,0,1,1,1,0,23,23,23,,,,,,,,,,,,,,,,,,,,,,,,,,,,,,,,,,,,,,,,,,,,,,,,,,,,,,,,,,,,,,,,,,,,,,,,,,,,,,,1.86,498.17430319999403,None,space,1,0.335628100001486,500.14249899999413,None,500.14249899999413,None,500.14249899999413,None,,,,,,,,,,,P053,FENCOG,1,Pre,2022_Jun_14_1043,Go No-Go Task,2021.1.4,119.98089905605373,
,"Rule: When you see a yellow image, do not press 'spacebar'.",Images/Scram2/AM02_NC.jpg,Scramble,Yellow,Images/Yellow.jpg,None,ParentConditions/YellowYellowBlue_v1.xlsx,YellowYellowBlue,Conditions/Version_1/YellowScramStop.xlsx,yes,PASS,0.40349662212467063,,,,,,,,,0,0,0,1,0,1,1,1,0,24,24,24,,,,,,,,,,,,,,,,,,,,,,,,,,,,,,,,,,,,,,,,,,,,,,,,,,,,,,,,,,,,,,,,,,,,,,,,,,,,,,,1.3,500.5439250999916,None,None,1,,501.95859320000454,None,501.95859320000454,None,501.95859320000454,None,,,,,,,,,,,P053,FENCOG,1,Pre,2022_Jun_14_1043,Go No-Go Task,2021.1.4,119.98089905605373,
,"Rule: When you see a yellow image, do not press 'spacebar'.",Images/Scram2/HF05_NC.jpg,Scramble,Blue,Images/Blue.jpg,space,ParentConditions/YellowYellowBlue_v1.xlsx,YellowYellowBlue,Conditions/Version_1/YellowScramStop.xlsx,no,PASS,0.921711635827277,,,,,,,,,0,0,0,1,0,1,1,1,0,25,25,25,,,,,,,,,,,,,,,,,,,,,,,,,,,,,,,,,,,,,,,,,,,,,,,,,,,,,,,,,,,,,,,,,,,,,,,,,,,,,,,1.32,502.3623387999978,None,space,1,0.3024831999937305,503.79138019999664,None,503.79138019999664,None,503.79138019999664,None,,,,,,,,,,,P053,FENCOG,1,Pre,2022_Jun_14_1043,Go No-Go Task,2021.1.4,119.98089905605373,
,"Rule: When you see a yellow image, do not press 'spacebar'.",Images/Scram2/AF32NES.jpg,Scramble,Yellow,Images/Yellow.jpg,None,ParentConditions/YellowYellowBlue_v1.xlsx,YellowYellowBlue,Conditions/Version_1/YellowScramStop.xlsx,yes,PASS,0.017466824187156504,,,,,,,,,0,0,0,1,0,1,1,1,0,26,26,26,,,,,,,,,,,,,,,,,,,,,,,,,,,,,,,,,,,,,,,,,,,,,,,,,,,,,,,,,,,,,,,,,,,,,,,,,,,,,,,1.44,504.1909971999994,None,None,1,,505.74084440000297,None,505.74084440000297,None,505.74084440000297,None,,,,,,,,,,,P053,FENCOG,1,Pre,2022_Jun_14_1043,Go No-Go Task,2021.1.4,119.98089905605373,
,"Rule: When you see a yellow image, do not press 'spacebar'.",Images/Scram2/HM04_NC.jpg,Scramble,Blue,Images/Blue.jpg,space,ParentConditions/YellowYellowBlue_v1.xlsx,YellowYellowBlue,Conditions/Version_1/YellowScramStop.xlsx,no,PASS,0.5736341227927889,,,,,,,,,0,0,0,1,0,1,1,1,0,27,27,27,,,,,,,,,,,,,,,,,,,,,,,,,,,,,,,,,,,,,,,,,,,,,,,,,,,,,,,,,,,,,,,,,,,,,,,,,,,,,,,1.48,506.13999799999874,None,space,1,0.36253579999902286,507.7319470999937,None,507.7319470999937,None,507.7319470999937,None,,,,,,,,,,,P053,FENCOG,1,Pre,2022_Jun_14_1043,Go No-Go Task,2021.1.4,119.98089905605373,
,"Rule: When you see a yellow image, do not press 'spacebar'.",Images/Scram2/AF25NES.jpg,Scramble,Blue,Images/Blue.jpg,space,ParentConditions/YellowYellowBlue_v1.xlsx,YellowYellowBlue,Conditions/Version_1/YellowScramStop.xlsx,no,PASS,0.4815009065668029,,,,,,,,,0,0,0,1,0,1,1,1,0,28,28,28,,,,,,,,,,,,,,,,,,,,,,,,,,,,,,,,,,,,,,,,,,,,,,,,,,,,,,,,,,,,,,,,,,,,,,,,,,,,,,,1.31,508.129356999998,None,space,1,0.31401439999172,509.5397410000005,None,509.5397410000005,None,509.5397410000005,None,,,,,,,,,,,P053,FENCOG,1,Pre,2022_Jun_14_1043,Go No-Go Task,2021.1.4,119.98089905605373,
,"Rule: When you see a yellow image, do not press 'spacebar'.",Images/Scram1/AF34NES.jpg,Scramble,Blue,Images/Blue.jpg,space,ParentConditions/YellowYellowBlue_v1.xlsx,YellowYellowBlue,Conditions/Version_1/YellowScramStop.xlsx,no,PASS,0.16322109337010782,,,,,,,,,0,0,0,1,0,1,1,1,0,29,29,29,,,,,,,,,,,,,,,,,,,,,,,,,,,,,,,,,,,,,,,,,,,,,,,,,,,,,,,,,,,,,,,,,,,,,,,,,,,,,,,1.56,509.94001659999776,None,space,1,0.3200477999926079,511.6138452000014,None,511.6138452000014,None,511.6138452000014,None,,,,,,,,,,,P053,FENCOG,1,Pre,2022_Jun_14_1043,Go No-Go Task,2021.1.4,119.98089905605373,
,"Rule: When you see a yellow image, do not press 'spacebar'.",Images/Scram2/AF11NES.jpg,Scramble,Blue,Images/Blue.jpg,space,ParentConditions/YellowYellowBlue_v1.xlsx,YellowYellowBlue,Conditions/Version_1/YellowScramStop.xlsx,no,PASS,0.863906943339551,,,,,,,,,0,0,0,1,0,1,1,1,0,30,30,30,,,,,,,,,,,,,,,,,,,,,,,,,,,,,,,,,,,,,,,,,,,,,,,,,,,,,,,,,,,,,,,,,,,,,,,,,,,,,,,1.6,512.0153299999947,None,space,1,0.339746900004684,513.7301253000041,None,513.7301253000041,None,513.7301253000041,None,,,,,,,,,,,P053,FENCOG,1,Pre,2022_Jun_14_1043,Go No-Go Task,2021.1.4,119.98089905605373,
,"Rule: When you see a yellow image, do not press 'spacebar'.",Images/Scram2/AF34NES.jpg,Scramble,Yellow,Images/Yellow.jpg,None,ParentConditions/YellowYellowBlue_v1.xlsx,YellowYellowBlue,Conditions/Version_1/YellowScramStop.xlsx,yes,PASS,0.06159009202316168,,,,,,,,,0,0,0,1,0,1,1,1,0,31,31,31,,,,,,,,,,,,,,,,,,,,,,,,,,,,,,,,,,,,,,,,,,,,,,,,,,,,,,,,,,,,,,,,,,,,,,,,,,,,,,,1.78,514.1342642999953,None,space,0,0.26451320000342093,516.0294764999999,None,516.0294764999999,None,516.0294764999999,None,,,,,,,,,,,P053,FENCOG,1,Pre,2022_Jun_14_1043,Go No-Go Task,2021.1.4,119.98089905605373,
,"Rule: When you see a yellow image, do not press 'spacebar'.",Images/Scram1/AM02_NC.jpg,Scramble,Blue,Images/Blue.jpg,space,ParentConditions/YellowYellowBlue_v1.xlsx,YellowYellowBlue,Conditions/Version_1/YellowScramStop.xlsx,no,PASS,0.7758508003758968,,,,,,,,,0,0,0,1,0,1,1,1,0,32,32,32,,,,,,,,,,,,,,,,,,,,,,,,,,,,,,,,,,,,,,,,,,,,,,,,,,,,,,,,,,,,,,,,,,,,,,,,,,,,,,,1.2,516.427229199995,None,space,1,0.2925545000034617,517.7372853999987,None,517.7372853999987,None,517.7372853999987,None,,,,,,,,,,,P053,FENCOG,1,Pre,2022_Jun_14_1043,Go No-Go Task,2021.1.4,119.98089905605373,
,"Rule: When you see a yellow image, do not press 'spacebar'.",Images/Scram2/AM13NES.jpg,Scramble,Yellow,Images/Yellow.jpg,None,ParentConditions/YellowYellowBlue_v1.xlsx,YellowYellowBlue,Conditions/Version_1/YellowScramStop.xlsx,yes,PASS,0.6726515097084437,,,,,,,,,0,0,0,1,0,1,1,1,0,33,33,33,,,,,,,,,,,,,,,,,,,,,,,,,,,,,,,,,,,,,,,,,,,,,,,,,,,,,,,,,,,,,,,,,,,,,,,,,,,,,,,1.94,518.1398629000032,None,None,1,,520.1948147999938,None,520.1948147999938,None,520.1948147999938,None,,,,,,,,,,,P053,FENCOG,1,Pre,2022_Jun_14_1043,Go No-Go Task,2021.1.4,119.98089905605373,
,"Rule: When you see a yellow image, do not press 'spacebar'.",Images/Scram1/AM03_NC.jpg,Scramble,Blue,Images/Blue.jpg,space,ParentConditions/YellowYellowBlue_v1.xlsx,YellowYellowBlue,Conditions/Version_1/YellowScramStop.xlsx,no,PASS,0.060310837369876635,,,,,,,,,0,0,0,1,0,1,1,1,0,34,34,34,,,,,,,,,,,,,,,,,,,,,,,,,,,,,,,,,,,,,,,,,,,,,,,,,,,,,,,,,,,,,,,,,,,,,,,,,,,,,,,1.7,520.5939876000048,None,space,1,0.3711756999982754,522.4026471999969,None,522.4026471999969,None,522.4026471999969,None,,,,,,,,,,,P053,FENCOG,1,Pre,2022_Jun_14_1043,Go No-Go Task,2021.1.4,119.98089905605373,
,"Rule: When you see a yellow image, do not press 'spacebar'.",Images/Scram1/AF33NES.jpg,Scramble,Blue,Images/Blue.jpg,space,ParentConditions/YellowYellowBlue_v1.xlsx,YellowYellowBlue,Conditions/Version_1/YellowScramStop.xlsx,no,PASS,0.9883395332949252,,,,,,,,,0,0,0,1,0,1,1,1,0,35,35,35,,,,,,,,,,,,,,,,,,,,,,,,,,,,,,,,,,,,,,,,,,,,,,,,,,,,,,,,,,,,,,,,,,,,,,,,,,,,,,,1.98,522.8016910000006,None,space,1,0.30406339999171905,524.8935371999978,None,524.8935371999978,None,524.8935371999978,None,,,,,,,,,,,P053,FENCOG,1,Pre,2022_Jun_14_1043,Go No-Go Task,2021.1.4,119.98089905605373,
,"Rule: When you see a yellow image, do not press 'spacebar'.",Images/Scram1/BF10_NC.jpg,Scramble,Blue,Images/Blue.jpg,space,ParentConditions/YellowYellowBlue_v1.xlsx,YellowYellowBlue,Conditions/Version_1/YellowScramStop.xlsx,no,PASS,0.832283926857634,,,,,,,,,0,0,0,1,0,1,1,1,0,36,36,36,,,,,,,,,,,,,,,,,,,,,,,,,,,,,,,,,,,,,,,,,,,,,,,,,,,,,,,,,,,,,,,,,,,,,,,,,,,,,,,1.54,525.2925366999989,None,space,1,0.2634046000021044,526.9429171999946,None,526.9429171999946,None,526.9429171999946,None,,,,,,,,,,,P053,FENCOG,1,Pre,2022_Jun_14_1043,Go No-Go Task,2021.1.4,119.98089905605373,
,"Rule: When you see a yellow image, do not press 'spacebar'.",Images/Scram1/AF07_NC.jpg,Scramble,Blue,Images/Blue.jpg,space,ParentConditions/YellowYellowBlue_v1.xlsx,YellowYellowBlue,Conditions/Version_1/YellowScramStop.xlsx,no,PASS,0.9763895949527831,,,,,,,,,0,0,0,1,0,1,1,1,0,37,37,37,,,,,,,,,,,,,,,,,,,,,,,,,,,,,,,,,,,,,,,,,,,,,,,,,,,,,,,,,,,,,,,,,,,,,,,,,,,,,,,1.68,527.3392284000001,None,space,1,0.24025869999604765,529.1339276999934,None,529.1339276999934,None,529.1339276999934,None,,,,,,,,,,,P053,FENCOG,1,Pre,2022_Jun_14_1043,Go No-Go Task,2021.1.4,119.98089905605373,
,"Rule: When you see a yellow image, do not press 'spacebar'.",Images/Scram2/AM23NES.jpg,Scramble,Yellow,Images/Yellow.jpg,None,ParentConditions/YellowYellowBlue_v1.xlsx,YellowYellowBlue,Conditions/Version_1/YellowScramStop.xlsx,yes,PASS,0.6002481140469051,,,,,,,,,0,0,0,1,0,1,1,1,0,38,38,38,,,,,,,,,,,,,,,,,,,,,,,,,,,,,,,,,,,,,,,,,,,,,,,,,,,,,,,,,,,,,,,,,,,,,,,,,,,,,,,1.83,529.5331120999908,None,None,1,,531.4749532999995,None,531.4749532999995,None,531.4749532999995,None,,,,,,,,,,,P053,FENCOG,1,Pre,2022_Jun_14_1043,Go No-Go Task,2021.1.4,119.98089905605373,
,"Rule: When you see a yellow image, do not press 'spacebar'.",Images/Scram1/AF24NES.jpg,Scramble,Blue,Images/Blue.jpg,space,ParentConditions/YellowYellowBlue_v1.xlsx,YellowYellowBlue,Conditions/Version_1/YellowScramStop.xlsx,no,PASS,0.1129494583795736,,,,,,,,,0,0,0,1,0,1,1,1,0,39,39,39,,,,,,,,,,,,,,,,,,,,,,,,,,,,,,,,,,,,,,,,,,,,,,,,,,,,,,,,,,,,,,,,,,,,,,,,,,,,,,,1.62,531.8712006999995,None,space,1,0.28746289999980945,533.5909890000039,None,533.5909890000039,None,533.5909890000039,None,,,,,,,,,,,P053,FENCOG,1,Pre,2022_Jun_14_1043,Go No-Go Task,2021.1.4,119.98089905605373,
,"Rule: When you see a yellow image, do not press 'spacebar'.",Images/Scram2/AF33NES.jpg,Scramble,Yellow,Images/Yellow.jpg,None,ParentConditions/YellowYellowBlue_v1.xlsx,YellowYellowBlue,Conditions/Version_1/YellowScramStop.xlsx,yes,PASS,0.8037537420652296,,,,,,,,,0,0,0,1,0,1,1,1,0,40,40,40,,,,,,,,,,,,,,,,,,,,,,,,,,,,,,,,,,,,,,,,,,,,,,,,,,,,,,,,,,,,,,,,,,,,,,,,,,,,,,,1.97,533.9914766000002,None,space,0,0.2691317999997409,536.0818580999912,None,536.0818580999912,None,536.0818580999912,None,,,,,,,,,,,P053,FENCOG,1,Pre,2022_Jun_14_1043,Go No-Go Task,2021.1.4,119.98089905605373,
,"Rule: When you see a yellow image, do not press 'spacebar'.",Images/Scram1/AF25NES.jpg,Scramble,Blue,Images/Blue.jpg,space,ParentConditions/YellowYellowBlue_v1.xlsx,YellowYellowBlue,Conditions/Version_1/YellowScramStop.xlsx,no,PASS,0.14378736257712743,,,,,,,,,0,0,0,1,0,1,1,1,0,41,41,41,,,,,,,,,,,,,,,,,,,,,,,,,,,,,,,,,,,,,,,,,,,,,,,,,,,,,,,,,,,,,,,,,,,,,,,,,,,,,,,1.49,536.4749173000018,None,space,1,0.30108230000769254,538.0813104999979,None,538.0813104999979,None,538.0813104999979,None,,,,,,,,,,,P053,FENCOG,1,Pre,2022_Jun_14_1043,Go No-Go Task,2021.1.4,119.98089905605373,
,"Rule: When you see a yellow image, do not press 'spacebar'.",Images/Scram2/AM10NES.jpg,Scramble,Yellow,Images/Yellow.jpg,None,ParentConditions/YellowYellowBlue_v1.xlsx,YellowYellowBlue,Conditions/Version_1/YellowScramStop.xlsx,yes,PASS,0.5820319295028303,,,,,,,,,0,0,0,1,0,1,1,1,0,42,42,42,,,,,,,,,,,,,,,,,,,,,,,,,,,,,,,,,,,,,,,,,,,,,,,,,,,,,,,,,,,,,,,,,,,,,,,,,,,,,,,1.41,538.4798242999968,None,None,1,,540.0058466000046,None,540.0058466000046,None,540.0058466000046,None,,,,,,,,,,,P053,FENCOG,1,Pre,2022_Jun_14_1043,Go No-Go Task,2021.1.4,119.98089905605373,
,"Rule: When you see a yellow image, do not press 'spacebar'.",Images/Scram2/BF10_NC.jpg,Scramble,Blue,Images/Blue.jpg,space,ParentConditions/YellowYellowBlue_v1.xlsx,YellowYellowBlue,Conditions/Version_1/YellowScramStop.xlsx,no,PASS,0.2078164907866934,,,,,,,,,0,0,0,1,0,1,1,1,0,43,43,43,,,,,,,,,,,,,,,,,,,,,,,,,,,,,,,,,,,,,,,,,,,,,,,,,,,,,,,,,,,,,,,,,,,,,,,,,,,,,,,1.72,540.4047449999925,None,space,1,0.3273060999927111,542.2384467999946,None,542.2384467999946,None,542.2384467999946,None,,,,,,,,,,,P053,FENCOG,1,Pre,2022_Jun_14_1043,Go No-Go Task,2021.1.4,119.98089905605373,
,"Rule: When you see a yellow image, do not press 'spacebar'.",Images/Scram1/BF18_NC.jpg,Scramble,Blue,Images/Blue.jpg,space,ParentConditions/YellowYellowBlue_v1.xlsx,YellowYellowBlue,Conditions/Version_1/YellowScramStop.xlsx,no,PASS,0.3689261099445472,,,,,,,,,0,0,0,1,0,1,1,1,0,44,44,44,,,,,,,,,,,,,,,,,,,,,,,,,,,,,,,,,,,,,,,,,,,,,,,,,,,,,,,,,,,,,,,,,,,,,,,,,,,,,,,1.77,542.6415582999907,None,space,1,0.3333178000029875,544.5127437999909,None,544.5127437999909,None,544.5127437999909,None,,,,,,,,,,,P053,FENCOG,1,Pre,2022_Jun_14_1043,Go No-Go Task,2021.1.4,119.98089905605373,
,"Rule: When you see a yellow image, do not press 'spacebar'.",Images/Scram2/HF09_NC.jpg,Scramble,Blue,Images/Blue.jpg,space,ParentConditions/YellowYellowBlue_v1.xlsx,YellowYellowBlue,Conditions/Version_1/YellowScramStop.xlsx,no,PASS,0.286178806367275,,,,,,,,,0,0,0,1,0,1,1,1,0,45,45,45,,,,,,,,,,,,,,,,,,,,,,,,,,,,,,,,,,,,,,,,,,,,,,,,,,,,,,,,,,,,,,,,,,,,,,,,,,,,,,,1.37,544.9153613999952,None,space,1,0.31417270000383724,546.3955403,None,546.3955403,None,546.3955403,None,,,,,,,,,,,P053,FENCOG,1,Pre,2022_Jun_14_1043,Go No-Go Task,2021.1.4,119.98089905605373,
,"Rule: When you see a yellow image, do not press 'spacebar'.",Images/Scram1/BF05_NC.jpg,Scramble,Blue,Images/Blue.jpg,space,ParentConditions/YellowYellowBlue_v1.xlsx,YellowYellowBlue,Conditions/Version_1/YellowScramStop.xlsx,no,PASS,0.7692637816145413,,,,,,,,,0,0,0,1,0,1,1,1,0,46,46,46,,,,,,,,,,,,,,,,,,,,,,,,,,,,,,,,,,,,,,,,,,,,,,,,,,,,,,,,,,,,,,,,,,,,,,,,,,,,,,,1.69,546.7963845999911,None,space,1,0.30749950000608806,548.5948780000035,None,548.5948780000035,None,548.5948780000035,None,,,,,,,,,,,P053,FENCOG,1,Pre,2022_Jun_14_1043,Go No-Go Task,2021.1.4,119.98089905605373,
,"Rule: When you see a yellow image, do not press 'spacebar'.",Images/Scram1/AM17NES.jpg,Scramble,Blue,Images/Blue.jpg,space,ParentConditions/YellowYellowBlue_v1.xlsx,YellowYellowBlue,Conditions/Version_1/YellowScramStop.xlsx,no,PASS,0.7553300637440975,,,,,,,,,0,0,0,1,0,1,1,1,0,47,47,47,,,,,,,,,,,,,,,,,,,,,,,,,,,,,,,,,,,,,,,,,,,,,,,,,,,,,,,,,,,,,,,,,,,,,,,,,,,,,,,1.46,548.993413499993,None,space,1,0.2524922000011429,550.5692809000029,None,550.5692809000029,None,550.5692809000029,None,,,,,,,,,,,P053,FENCOG,1,Pre,2022_Jun_14_1043,Go No-Go Task,2021.1.4,119.98089905605373,
,"Rule: When you see a yellow image, do not press 'spacebar'.",Images/Scram2/AM09_NC.jpg,Scramble,Yellow,Images/Yellow.jpg,None,ParentConditions/YellowYellowBlue_v1.xlsx,YellowYellowBlue,Conditions/Version_1/YellowScramStop.xlsx,yes,PASS,0.984865364539922,,,,,,,,,0,0,0,1,0,1,1,1,0,48,48,48,,,,,,,,,,,,,,,,,,,,,,,,,,,,,,,,,,,,,,,,,,,,,,,,,,,,,,,,,,,,,,,,,,,,,,,,,,,,,,,1.52,550.9680318000028,None,None,1,,552.5937256000034,None,552.5937256000034,None,552.5937256000034,None,,,,,,,,,,,P053,FENCOG,1,Pre,2022_Jun_14_1043,Go No-Go Task,2021.1.4,119.98089905605373,
,"Rule: When you see a yellow image, do not press 'spacebar'.",Images/Scram2/AF09NES.jpg,Scramble,Blue,Images/Blue.jpg,space,ParentConditions/YellowYellowBlue_v1.xlsx,YellowYellowBlue,Conditions/Version_1/YellowScramStop.xlsx,no,PASS,0.2099853615180053,,,,,,,,,0,0,0,1,0,1,1,1,0,49,49,49,,,,,,,,,,,,,,,,,,,,,,,,,,,,,,,,,,,,,,,,,,,,,,,,,,,,,,,,,,,,,,,,,,,,,,,,,,,,,,,1.64,553.0342801999941,None,space,1,0.3098549999995157,554.7846780999971,None,554.7846780999971,None,554.7846780999971,None,,,,,,,,,,,P053,FENCOG,1,Pre,2022_Jun_14_1043,Go No-Go Task,2021.1.4,119.98089905605373,
,"Rule: When you see a yellow image, do not press 'spacebar'.",Images/Scram2/AM04_NC.jpg,Scramble,Yellow,Images/Yellow.jpg,None,ParentConditions/YellowYellowBlue_v1.xlsx,YellowYellowBlue,Conditions/Version_1/YellowScramStop.xlsx,yes,PASS,0.8595632143536898,,,,,,,,,0,0,0,1,0,1,1,1,0,50,50,50,,,,,,,,,,,,,,,,,,,,,,,,,,,,,,,,,,,,,,,,,,,,,,,,,,,,,,,,,,,,,,,,,,,,,,,,,,,,,,,1.59,555.1890471999941,None,None,1,,556.8924498999986,None,556.8924498999986,None,556.8924498999986,None,,,,,,,,,,,P053,FENCOG,1,Pre,2022_Jun_14_1043,Go No-Go Task,2021.1.4,119.98089905605373,
,"Rule: When you see a yellow image, do not press 'spacebar'.",Images/Scram2/BF05_NC.jpg,Scramble,Yellow,Images/Yellow.jpg,None,ParentConditions/YellowYellowBlue_v1.xlsx,YellowYellowBlue,Conditions/Version_1/YellowScramStop.xlsx,yes,PASS,0.9038892448018151,,,,,,,,,0,0,0,1,0,1,1,1,0,51,51,51,,,,,,,,,,,,,,,,,,,,,,,,,,,,,,,,,,,,,,,,,,,,,,,,,,,,,,,,,,,,,,,,,,,,,,,,,,,,,,,1.39,557.2864649999974,None,None,1,,558.7918515999918,None,558.7918515999918,None,558.7918515999918,None,,,,,,,,,,,P053,FENCOG,1,Pre,2022_Jun_14_1043,Go No-Go Task,2021.1.4,119.98089905605373,
,"Rule: When you see a yellow image, do not press 'spacebar'.",Images/Scram1/HM06_NC.jpg,Scramble,Blue,Images/Blue.jpg,space,ParentConditions/YellowYellowBlue_v1.xlsx,YellowYellowBlue,Conditions/Version_1/YellowScramStop.xlsx,no,PASS,0.7183076447823791,,,,,,,,,0,0,0,1,0,1,1,1,0,52,52,52,,,,,,,,,,,,,,,,,,,,,,,,,,,,,,,,,,,,,,,,,,,,,,,,,,,,,,,,,,,,,,,,,,,,,,,,,,,,,,,1.92,559.1891196999932,None,space,1,0.3092441000044346,561.2244800000044,None,561.2244800000044,None,561.2244800000044,None,,,,,,,,,,,P053,FENCOG,1,Pre,2022_Jun_14_1043,Go No-Go Task,2021.1.4,119.98089905605373,
,"Rule: When you see a yellow image, do not press 'spacebar'.",Images/Scram2/AF07NES.jpg,Scramble,Blue,Images/Blue.jpg,space,ParentConditions/YellowYellowBlue_v1.xlsx,YellowYellowBlue,Conditions/Version_1/YellowScramStop.xlsx,no,PASS,0.8685827011476244,,,,,,,,,0,0,0,1,0,1,1,1,0,53,53,53,,,,,,,,,,,,,,,,,,,,,,,,,,,,,,,,,,,,,,,,,,,,,,,,,,,,,,,,,,,,,,,,,,,,,,,,,,,,,,,1.29,561.6259681999945,None,space,1,0.30153349999454804,563.0323311999964,None,563.0323311999964,None,563.0323311999964,None,,,,,,,,,,,P053,FENCOG,1,Pre,2022_Jun_14_1043,Go No-Go Task,2021.1.4,119.98089905605373,
,"Rule: When you see a yellow image, do not press 'spacebar'.",Images/Scram1/BM01_NC.jpg,Scramble,Blue,Images/Blue.jpg,space,ParentConditions/YellowYellowBlue_v1.xlsx,YellowYellowBlue,Conditions/Version_1/YellowScramStop.xlsx,no,PASS,0.7516161036696042,,,,,,,,,0,0,0,1,0,1,1,1,0,54,54,54,,,,,,,,,,,,,,,,,,,,,,,,,,,,,,,,,,,,,,,,,,,,,,,,,,,,,,,,,,,,,,,,,,,,,,,,,,,,,,,1.89,563.4321629000042,None,space,1,0.27061029999458697,565.4232483999949,None,565.4232483999949,None,565.4232483999949,None,,,,,,,,,,,P053,FENCOG,1,Pre,2022_Jun_14_1043,Go No-Go Task,2021.1.4,119.98089905605373,
