CondFileP,Instructions,FaceE,Express,ColourT,ColourF,CorrectAnsP,MasterCondFile,BlockOrder,CondFile,ColCheck,Triplicate_check,SORT_BY_SMALLEST,EPracticeOuterLoop.thisRepN,EPracticeOuterLoop.thisTrialN,EPracticeOuterLoop.thisN,EPracticeOuterLoop.thisIndex,EPracticeInnerLoop.thisRepN,EPracticeInnerLoop.thisTrialN,EPracticeInnerLoop.thisN,EPracticeInnerLoop.thisIndex,MasterLoop.thisRepN,MasterLoop.thisTrialN,MasterLoop.thisN,MasterLoop.thisIndex,OuterLoop.thisRepN,OuterLoop.thisTrialN,OuterLoop.thisN,OuterLoop.thisIndex,InnerLoop.thisRepN,InnerLoop.thisTrialN,InnerLoop.thisN,InnerLoop.thisIndex,text_13.started,text_13.stopped,key_resp_10.keys,key_resp_10.rt,key_resp_10.started,key_resp_10.stopped,text4.started,text4.stopped,EmotionTaskInstructions1.keys,EmotionTaskInstructions1.rt,EmotionTaskInstructions1.started,EmotionTaskInstructions1.stopped,text_4.started,text_4.stopped,key_resp_5.keys,key_resp_5.rt,key_resp_5.started,key_resp_5.stopped,Text_14.started,Text_14.stopped,key_resp_9.keys,key_resp_9.rt,key_resp_9.started,key_resp_9.stopped,text_5.started,text_5.stopped,text_6.started,text_6.stopped,key_resp_7.keys,key_resp_7.rt,key_resp_7.started,key_resp_7.stopped,text_10.started,text_10.stopped,text_11.started,text_11.stopped,text_12.started,text_12.stopped,ISIjitterPractice,EPracticeISIMarker.started,EPracticeISIMarker.stopped,Pract.keys,Pract.corr,Pract.rt,Pract.started,Pract.stopped,PracticeFace.started,PracticeFace.stopped,ColourPractice.started,ColourPractice.stopped,text_7.started,text_7.stopped,EndOfPractice.started,EndOfPractice.stopped,key_resp_8.keys,key_resp_8.rt,key_resp_8.started,key_resp_8.stopped,text_8.started,text_8.stopped,key_resp_6.keys,key_resp_6.rt,key_resp_6.started,key_resp_6.stopped,text_2.started,text_2.stopped,text_3.started,text_3.stopped,key_resp_3.keys,key_resp_3.rt,key_resp_3.started,key_resp_3.stopped,TaskBlock.started,TaskBlock.stopped,BlockNo1.started,BlockNo1.stopped,OfBlock.started,OfBlock.stopped,ISIjitter,ISImarker.started,ISImarker.stopped,key_resp.keys,key_resp.corr,key_resp.rt,key_resp.started,key_resp.stopped,FaceSet.started,FaceSet.stopped,Colour.started,Colour.stopped,EndBlockText.started,EndBlockText.stopped,key_resp_4.keys,key_resp_4.rt,key_resp_4.started,key_resp_4.stopped,BreakText2.started,BreakText2.stopped,PressToContinue.started,PressToContinue.stopped,participant,Study Name,Task Version (required to run),PRE/POST,date,expName,psychopyVersion,frameRate
,,,,,,,,,,,,,,,,,,,,,,,,,,,,,,,,,99.7494041,None,space,1.2114916,100.7413252,None,,,,,,,,,,,,,,,,,,,,,,,,,,,,,,,,,,,,,,,,,,,,,,,,,,,,,,,,,,,,,,,,,,,,,,,,,,,,,,,,,,,,,,,,,,,,,,,P054,FENCOG,2,Post,2022_Jun_22_1130,Go No-Go Task,2021.1.4,120.1892741
,,,,,,,,,,,,,,,,,,,,,,,,,,,,,,,,,,,,,,,103.4708545,None,space,2.4180435,103.4708545,None,,,,,,,,,,,,,,,,,,,,,,,,,,,,,,,,,,,,,,,,,,,,,,,,,,,,,,,,,,,,,,,,,,,,,,,,,,,,,,,,,,,,,,,,,P054,FENCOG,2,Post,2022_Jun_22_1130,Go No-Go Task,2021.1.4,120.1892741
,,,,,,,,,,,,,,,,,,,,,,,,,,,,,,,,,,,,,,,,,,,,,105.9506819,None,space,1.1061392,105.9506819,None,,,,,,,,,,,,,,,,,,,,,,,,,,,,,,,,,,,,,,,,,,,,,,,,,,,,,,,,,,,,,,,,,,,,,,,,,,,,,,,,,,,P054,FENCOG,2,Post,2022_Jun_22_1130,Go No-Go Task,2021.1.4,120.1892741
,,,,,,,,,,,,,,,,,,,,,,,,,,,,,,,,,,,,,,,,,,,,,,,,,,,107.0664846,None,space,9.3182695,107.0664846,None,,,,,,,,,,,,,,,,,,,,,,,,,,,,,,,,,,,,,,,,,,,,,,,,,,,,,,,,,,,,,,,,,,,,,,,,,,,,,P054,FENCOG,2,Post,2022_Jun_22_1130,Go No-Go Task,2021.1.4,120.1892741
EPracticeConditions/BlueEyes.csv,"Rule: When you see a blue image, do not press 'spacebar'.",Images/Happy/HF10_HE.jpg,Happy,Yellow,Images/Yellow.jpg,space,,,,,,,0,0,0,0,0,0,0,7,,,,,,,,,,,,,,,,,,,,,,,,,,,,,,,,,,,,,116.4624823,None,119.4525151,None,space,0.6842314,119.4525151,None,116.4624823,None,116.4624823,None,116.4624823,None,1.9,120.3476316,None,space,1,0.3222317,122.4145118,None,122.4145118,None,122.4145118,None,123.8017271,None,,,,,,,,,,,,,,,,,,,,,,,,,,,,,,,,,,,,,,,,,,,,,,,,,P054,FENCOG,2,Post,2022_Jun_22_1130,Go No-Go Task,2021.1.4,120.1892741
EPracticeConditions/BlueEyes.csv,"Rule: When you see a blue image, do not press 'spacebar'.",Images/Happy/HF09_HE.jpg,Happy,Yellow,Images/Yellow.jpg,space,,,,,,,0,0,0,0,0,1,1,6,,,,,,,,,,,,,,,,,,,,,,,,,,,,,,,,,,,,,,,,,,,,,,,,,,,1.5,125.2894128,None,space,1,0.355876,126.9009067,None,126.9009067,None,126.9009067,None,127.8013573,None,,,,,,,,,,,,,,,,,,,,,,,,,,,,,,,,,,,,,,,,,,,,,,,,,P054,FENCOG,2,Post,2022_Jun_22_1130,Go No-Go Task,2021.1.4,120.1892741
EPracticeConditions/BlueEyes.csv,"Rule: When you see a blue image, do not press 'spacebar'.",Images/Fearful/AF01_FO.jpg,Fear,Blue,Images/Blue.jpg,None,,,,,,,0,0,0,0,0,2,2,1,,,,,,,,,,,,,,,,,,,,,,,,,,,,,,,,,,,,,,,,,,,,,,,,,,,1.4,129.7989204,None,None,1,,131.3162505,None,131.3162505,None,131.3162505,None,132.1984993,None,,,,,,,,,,,,,,,,,,,,,,,,,,,,,,,,,,,,,,,,,,,,,,,,,P054,FENCOG,2,Post,2022_Jun_22_1130,Go No-Go Task,2021.1.4,120.1892741
EPracticeConditions/BlueEyes.csv,"Rule: When you see a blue image, do not press 'spacebar'.",Images/Happy/HF04_HE.jpg,Happy,Yellow,Images/Yellow.jpg,space,,,,,,,0,0,0,0,0,3,3,4,,,,,,,,,,,,,,,,,,,,,,,,,,,,,,,,,,,,,,,,,,,,,,,,,,,1.3,134.1981108,None,space,1,0.3142376,135.6066218,None,135.6066218,None,135.6066218,None,136.5025734,None,,,,,,,,,,,,,,,,,,,,,,,,,,,,,,,,,,,,,,,,,,,,,,,,,P054,FENCOG,2,Post,2022_Jun_22_1130,Go No-Go Task,2021.1.4,120.1892741
EPracticeConditions/BlueEyes.csv,"Rule: When you see a blue image, do not press 'spacebar'.",Images/Happy/HF05_HO.jpg,Happy,Yellow,Images/Yellow.jpg,space,,,,,,,0,0,0,0,0,4,4,5,,,,,,,,,,,,,,,,,,,,,,,,,,,,,,,,,,,,,,,,,,,,,,,,,,,1.8,138.5045776,None,space,1,0.2591389,140.4135767,None,140.4135767,None,140.4135767,None,141.3091157,None,,,,,,,,,,,,,,,,,,,,,,,,,,,,,,,,,,,,,,,,,,,,,,,,,P054,FENCOG,2,Post,2022_Jun_22_1130,Go No-Go Task,2021.1.4,120.1892741
EPracticeConditions/BlueEyes.csv,"Rule: When you see a blue image, do not press 'spacebar'.",Images/Fearful/HM09_FC.jpg,Fear,Blue,Images/Blue.jpg,None,,,,,,,0,0,0,0,0,5,5,0,,,,,,,,,,,,,,,,,,,,,,,,,,,,,,,,,,,,,,,,,,,,,,,,,,,1.7,143.3118555,None,space,0,0.3117908,145.128946,None,145.128946,None,145.128946,None,146.0252748,None,,,,,,,,,,,,,,,,,,,,,,,,,,,,,,,,,,,,,,,,,,,,,,,,,P054,FENCOG,2,Post,2022_Jun_22_1130,Go No-Go Task,2021.1.4,120.1892741
EPracticeConditions/BlueEyes.csv,"Rule: When you see a blue image, do not press 'spacebar'.",Images/Happy/BM08_HO.jpg,Happy,Yellow,Images/Yellow.jpg,space,,,,,,,0,0,0,0,0,6,6,3,,,,,,,,,,,,,,,,,,,,,,,,,,,,,,,,,,,,,,,,,,,,,,,,,,,1.2,148.0187814,None,space,1,0.2890348,149.3276897,None,149.3276897,None,149.3276897,None,150.2328056,None,,,,,,,,,,,,,,,,,,,,,,,,,,,,,,,,,,,,,,,,,,,,,,,,,P054,FENCOG,2,Post,2022_Jun_22_1130,Go No-Go Task,2021.1.4,120.1892741
EPracticeConditions/BlueEyes.csv,"Rule: When you see a blue image, do not press 'spacebar'.",Images/Happy/BM02_HO.jpg,Happy,Yellow,Images/Yellow.jpg,space,,,,,,,0,0,0,0,0,7,7,2,,,,,,,,,,,,,,,,,,,,,,,,,,,,,,,,,,,,,,,,,,,,,,,,,,,1.6,152.2256817,None,space,1,0.346232,153.9345593,None,153.9345593,None,153.9345593,None,154.829834,None,,,,,,,,,,,,,,,,,,,,,,,,,,,,,,,,,,,,,,,,,,,,,,,,,P054,FENCOG,2,Post,2022_Jun_22_1130,Go No-Go Task,2021.1.4,120.1892741
EPracticeConditions/BlueEyes.csv,"Rule: When you see a blue image, do not press 'spacebar'.",,,,,,,,,,,,0,0,0,0,,,,,,,,,,,,,,,,,,,,,,,,,,,,,,,,,,,,,,,,,,,,,,,,,,,,,,,,,,,,,,,,,,,,,,,,,,,,,,,,,,,,,,,,,,,,,,,,,,,,,,,,,,,,,,,,,,,,,P054,FENCOG,2,Post,2022_Jun_22_1130,Go No-Go Task,2021.1.4,120.1892741
EPracticeConditions/YellowEyes.csv,"Rule: When you see a yellow image, do not press 'spacebar'.",Images/Fearful/AM24AFS.jpg,Fear,Blue,Images/Blue.jpg,space,,,,,,,0,1,1,1,0,0,0,7,,,,,,,,,,,,,,,,,,,,,,,,,,,,,,,,,,,,,156.8517372,None,159.8405278,None,space,3.1202203,159.8405278,None,156.8517372,None,156.8517372,None,156.8517372,None,1.6,162.9830899,None,space,1,0.318749,164.6981033,None,164.6981033,None,164.6981033,None,165.5850945,None,,,,,,,,,,,,,,,,,,,,,,,,,,,,,,,,,,,,,,,,,,,,,,,,,P054,FENCOG,2,Post,2022_Jun_22_1130,Go No-Go Task,2021.1.4,120.1892741
EPracticeConditions/YellowEyes.csv,"Rule: When you see a yellow image, do not press 'spacebar'.",Images/Happy/BF05_HO.jpg,Happy,Yellow,Images/Yellow.jpg,None,,,,,,,0,1,1,1,0,1,1,1,,,,,,,,,,,,,,,,,,,,,,,,,,,,,,,,,,,,,,,,,,,,,,,,,,,1.8,167.5879056,None,None,1,,169.4966806,None,169.4966806,None,169.4966806,None,170.39031,None,,,,,,,,,,,,,,,,,,,,,,,,,,,,,,,,,,,,,,,,,,,,,,,,,P054,FENCOG,2,Post,2022_Jun_22_1130,Go No-Go Task,2021.1.4,120.1892741
EPracticeConditions/YellowEyes.csv,"Rule: When you see a yellow image, do not press 'spacebar'.",Images/Fearful/AM16AFS.jpg,Fear,Blue,Images/Blue.jpg,space,,,,,,,0,1,1,1,0,2,2,2,,,,,,,,,,,,,,,,,,,,,,,,,,,,,,,,,,,,,,,,,,,,,,,,,,,1.5,172.3947642,None,space,1,0.2771818,174.0035846,None,174.0035846,None,174.0035846,None,174.8995022,None,,,,,,,,,,,,,,,,,,,,,,,,,,,,,,,,,,,,,,,,,,,,,,,,,P054,FENCOG,2,Post,2022_Jun_22_1130,Go No-Go Task,2021.1.4,120.1892741
EPracticeConditions/YellowEyes.csv,"Rule: When you see a yellow image, do not press 'spacebar'.",Images/Fearful/AM17AFS.jpg,Fear,Blue,Images/Blue.jpg,space,,,,,,,0,1,1,1,0,3,3,3,,,,,,,,,,,,,,,,,,,,,,,,,,,,,,,,,,,,,,,,,,,,,,,,,,,1.2,176.9020057,None,space,1,0.2706287,178.2107911,None,178.2107911,None,178.2107911,None,179.1011733,None,,,,,,,,,,,,,,,,,,,,,,,,,,,,,,,,,,,,,,,,,,,,,,,,,P054,FENCOG,2,Post,2022_Jun_22_1130,Go No-Go Task,2021.1.4,120.1892741
EPracticeConditions/YellowEyes.csv,"Rule: When you see a yellow image, do not press 'spacebar'.",Images/Happy/AM32HAS.jpg,Happy,Yellow,Images/Yellow.jpg,None,,,,,,,0,1,1,1,0,4,4,0,,,,,,,,,,,,,,,,,,,,,,,,,,,,,,,,,,,,,,,,,,,,,,,,,,,1.3,181.1007722,None,space,0,0.3312098,182.5095187,None,182.5095187,None,182.5095187,None,183.4032482,None,,,,,,,,,,,,,,,,,,,,,,,,,,,,,,,,,,,,,,,,,,,,,,,,,P054,FENCOG,2,Post,2022_Jun_22_1130,Go No-Go Task,2021.1.4,120.1892741
EPracticeConditions/YellowEyes.csv,"Rule: When you see a yellow image, do not press 'spacebar'.",Images/Fearful/AM23AFS.jpg,Fear,Blue,Images/Blue.jpg,space,,,,,,,0,1,1,1,0,5,5,6,,,,,,,,,,,,,,,,,,,,,,,,,,,,,,,,,,,,,,,,,,,,,,,,,,,1.9,185.407585,None,space,1,0.2884932,187.4163962,None,187.4163962,None,187.4163962,None,188.3184507,None,,,,,,,,,,,,,,,,,,,,,,,,,,,,,,,,,,,,,,,,,,,,,,,,,P054,FENCOG,2,Post,2022_Jun_22_1130,Go No-Go Task,2021.1.4,120.1892741
EPracticeConditions/YellowEyes.csv,"Rule: When you see a yellow image, do not press 'spacebar'.",Images/Fearful/AM22AFS.jpg,Fear,Blue,Images/Blue.jpg,space,,,,,,,0,1,1,1,0,6,6,5,,,,,,,,,,,,,,,,,,,,,,,,,,,,,,,,,,,,,,,,,,,,,,,,,,,1.7,190.3146413,None,space,1,0.3014673,192.1233779,None,192.1233779,None,192.1233779,None,193.013433,None,,,,,,,,,,,,,,,,,,,,,,,,,,,,,,,,,,,,,,,,,,,,,,,,,P054,FENCOG,2,Post,2022_Jun_22_1130,Go No-Go Task,2021.1.4,120.1892741
EPracticeConditions/YellowEyes.csv,"Rule: When you see a yellow image, do not press 'spacebar'.",Images/Fearful/AM19AFS.jpg,Fear,Blue,Images/Blue.jpg,space,,,,,,,0,1,1,1,0,7,7,4,,,,,,,,,,,,,,,,,,,,,,,,,,,,,,,,,,,,,,,,,,,,,,,,,,,1.4,195.0130981,None,space,1,0.3347447,196.522065,None,196.522065,None,196.522065,None,197.4196481,None,,,,,,,,,,,,,,,,,,,,,,,,,,,,,,,,,,,,,,,,,,,,,,,,,P054,FENCOG,2,Post,2022_Jun_22_1130,Go No-Go Task,2021.1.4,120.1892741
EPracticeConditions/YellowEyes.csv,"Rule: When you see a yellow image, do not press 'spacebar'.",,,,,,,,,,,,0,1,1,1,,,,,,,,,,,,,,,,,,,,,,,,,,,,,,,,,,,,,,,,,,,,,,,,,,,,,,,,,,,,,,,,,,,,,,,,,,,,,,,,,,,,,,,,,,,,,,,,,,,,,,,,,,,,,,,,,,,,,P054,FENCOG,2,Post,2022_Jun_22_1130,Go No-Go Task,2021.1.4,120.1892741
EPracticeConditions/BlueScram.csv,"Rule: When you see a blue image, do not press 'spacebar'.",Images/Scram1/BF18_NC.jpg,Scramble,Blue,Images/Blue.jpg,None,,,,,,,0,2,2,2,0,0,0,1,,,,,,,,,,,,,,,,,,,,,,,,,,,,,,,,,,,,,199.4271928,None,202.419411,None,space,0.5172851,202.419411,None,199.4271928,None,199.4271928,None,199.4271928,None,1.3,202.9635455,None,None,1,,204.3779285,None,204.3779285,None,204.3779285,None,205.2626138,None,,,,,,,,,,,,,,,,,,,,,,,,,,,,,,,,,,,,,,,,,,,,,,,,,P054,FENCOG,2,Post,2022_Jun_22_1130,Go No-Go Task,2021.1.4,120.1892741
EPracticeConditions/BlueScram.csv,"Rule: When you see a blue image, do not press 'spacebar'.",Images/Scram2/AF10_NC.jpg,Scramble,Yellow,Images/Yellow.jpg,space,,,,,,,0,2,2,2,0,1,1,2,,,,,,,,,,,,,,,,,,,,,,,,,,,,,,,,,,,,,,,,,,,,,,,,,,,1.8,207.2694701,None,space,1,0.2472038,209.20163,None,209.20163,None,209.20163,None,210.0733182,None,,,,,,,,,,,,,,,,,,,,,,,,,,,,,,,,,,,,,,,,,,,,,,,,,P054,FENCOG,2,Post,2022_Jun_22_1130,Go No-Go Task,2021.1.4,120.1892741
EPracticeConditions/BlueScram.csv,"Rule: When you see a blue image, do not press 'spacebar'.",Images/Scram1/AM03NES.jpg,Scramble,Yellow,Images/Yellow.jpg,space,,,,,,,0,2,2,2,0,2,2,4,,,,,,,,,,,,,,,,,,,,,,,,,,,,,,,,,,,,,,,,,,,,,,,,,,,1.6,212.0748668,None,space,1,0.2893154,213.7834632,None,213.7834632,None,213.7834632,None,214.6791014,None,,,,,,,,,,,,,,,,,,,,,,,,,,,,,,,,,,,,,,,,,,,,,,,,,P054,FENCOG,2,Post,2022_Jun_22_1130,Go No-Go Task,2021.1.4,120.1892741
EPracticeConditions/BlueScram.csv,"Rule: When you see a blue image, do not press 'spacebar'.",Images/Scram1/AM13NES.jpg,Scramble,Yellow,Images/Yellow.jpg,space,,,,,,,0,2,2,2,0,3,3,5,,,,,,,,,,,,,,,,,,,,,,,,,,,,,,,,,,,,,,,,,,,,,,,,,,,1.2,216.6818513,None,space,1,0.2979923,217.990723,None,217.990723,None,217.990723,None,218.8785929,None,,,,,,,,,,,,,,,,,,,,,,,,,,,,,,,,,,,,,,,,,,,,,,,,,P054,FENCOG,2,Post,2022_Jun_22_1130,Go No-Go Task,2021.1.4,120.1892741
EPracticeConditions/BlueScram.csv,"Rule: When you see a blue image, do not press 'spacebar'.",Images/Scram1/AM04_NC.jpg,Scramble,Yellow,Images/Yellow.jpg,space,,,,,,,0,2,2,2,0,4,4,3,,,,,,,,,,,,,,,,,,,,,,,,,,,,,,,,,,,,,,,,,,,,,,,,,,,1.4,220.8809817,None,space,1,0.2993215,222.389357,None,222.389357,None,222.389357,None,223.2863126,None,,,,,,,,,,,,,,,,,,,,,,,,,,,,,,,,,,,,,,,,,,,,,,,,,P054,FENCOG,2,Post,2022_Jun_22_1130,Go No-Go Task,2021.1.4,120.1892741
EPracticeConditions/BlueScram.csv,"Rule: When you see a blue image, do not press 'spacebar'.",Images/Scram2/AM03_NC.jpg,Scramble,Yellow,Images/Yellow.jpg,space,,,,,,,0,2,2,2,0,5,5,6,,,,,,,,,,,,,,,,,,,,,,,,,,,,,,,,,,,,,,,,,,,,,,,,,,,1.5,225.2877173,None,space,1,0.2884529,226.8963825,None,226.8963825,None,226.8963825,None,227.7934253,None,,,,,,,,,,,,,,,,,,,,,,,,,,,,,,,,,,,,,,,,,,,,,,,,,P054,FENCOG,2,Post,2022_Jun_22_1130,Go No-Go Task,2021.1.4,120.1892741
EPracticeConditions/BlueScram.csv,"Rule: When you see a blue image, do not press 'spacebar'.",Images/Scram2/AF25NES.jpg,Scramble,Yellow,Images/Yellow.jpg,space,,,,,,,0,2,2,2,0,6,6,7,,,,,,,,,,,,,,,,,,,,,,,,,,,,,,,,,,,,,,,,,,,,,,,,,,,1.9,229.7946766,None,space,1,0.277551,231.8032179,None,231.8032179,None,231.8032179,None,232.7002594,None,,,,,,,,,,,,,,,,,,,,,,,,,,,,,,,,,,,,,,,,,,,,,,,,,P054,FENCOG,2,Post,2022_Jun_22_1130,Go No-Go Task,2021.1.4,120.1892741
EPracticeConditions/BlueScram.csv,"Rule: When you see a blue image, do not press 'spacebar'.",Images/Scram1/BM08_NC.jpg,Scramble,Blue,Images/Blue.jpg,None,,,,,,,0,2,2,2,0,7,7,0,,,,,,,,,,,,,,,,,,,,,,,,,,,,,,,,,,,,,,,,,,,,,,,,,,,1.7,234.7014981,None,None,1,,236.5102693,None,236.5102693,None,236.5102693,None,237.4059558,None,,,,,,,,,,,,,,,,,,,,,,,,,,,,,,,,,,,,,,,,,,,,,,,,,P054,FENCOG,2,Post,2022_Jun_22_1130,Go No-Go Task,2021.1.4,120.1892741
EPracticeConditions/BlueScram.csv,"Rule: When you see a blue image, do not press 'spacebar'.",,,,,,,,,,,,0,2,2,2,,,,,,,,,,,,,,,,,,,,,,,,,,,,,,,,,,,,,,,,,,,,,,,,,,,,,,,,,,,,,,,,,,,,,,,,,,,,,,,,,,,,,,,,,,,,,,,,,,,,,,,,,,,,,,,,,,,,,P054,FENCOG,2,Post,2022_Jun_22_1130,Go No-Go Task,2021.1.4,120.1892741
EPracticeConditions/YellowScram.csv,"Rule: When you see a yellow image, do not press 'spacebar'.",Images/Scram2/AM03NES.jpg,Scramble,Yellow,Images/Yellow.jpg,None,,,,,,,0,3,3,3,0,0,0,1,,,,,,,,,,,,,,,,,,,,,,,,,,,,,,,,,,,,,239.4208061,None,242.407788,None,space,0.3128363,242.407788,None,239.4208061,None,239.4208061,None,239.4208061,None,1.8,242.7449537,None,None,1,,244.6577747,None,244.6577747,None,244.6577747,None,245.5544418,None,,,,,,,,,,,,,,,,,,,,,,,,,,,,,,,,,,,,,,,,,,,,,,,,,P054,FENCOG,2,Post,2022_Jun_22_1130,Go No-Go Task,2021.1.4,120.1892741
EPracticeConditions/YellowScram.csv,"Rule: When you see a yellow image, do not press 'spacebar'.",Images/Scram1/AF30NES.JPG,Scramble,Blue,Images/Blue.jpg,space,,,,,,,0,3,3,3,0,1,1,4,,,,,,,,,,,,,,,,,,,,,,,,,,,,,,,,,,,,,,,,,,,,,,,,,,,1.6,247.5564684,None,space,1,0.2401014,249.2646782,None,249.2646782,None,249.2646782,None,250.1622644,None,,,,,,,,,,,,,,,,,,,,,,,,,,,,,,,,,,,,,,,,,,,,,,,,,P054,FENCOG,2,Post,2022_Jun_22_1130,Go No-Go Task,2021.1.4,120.1892741
EPracticeConditions/YellowScram.csv,"Rule: When you see a yellow image, do not press 'spacebar'.",Images/Scram1/AF10_NC.jpg,Scramble,Blue,Images/Blue.jpg,space,,,,,,,0,3,3,3,0,2,2,6,,,,,,,,,,,,,,,,,,,,,,,,,,,,,,,,,,,,,,,,,,,,,,,,,,,1.2,252.168778,None,space,1,0.2565897,253.4801161,None,253.4801161,None,253.4801161,None,254.3707319,None,,,,,,,,,,,,,,,,,,,,,,,,,,,,,,,,,,,,,,,,,,,,,,,,,P054,FENCOG,2,Post,2022_Jun_22_1130,Go No-Go Task,2021.1.4,120.1892741
EPracticeConditions/YellowScram.csv,"Rule: When you see a yellow image, do not press 'spacebar'.",Images/Scram1/HF04_NC.jpg,Scramble,Blue,Images/Blue.jpg,space,,,,,,,0,3,3,3,0,3,3,2,,,,,,,,,,,,,,,,,,,,,,,,,,,,,,,,,,,,,,,,,,,,,,,,,,,1.7,256.3733069,None,space,1,0.3019126,258.1870972,None,258.1870972,None,258.1870972,None,259.0767096,None,,,,,,,,,,,,,,,,,,,,,,,,,,,,,,,,,,,,,,,,,,,,,,,,,P054,FENCOG,2,Post,2022_Jun_22_1130,Go No-Go Task,2021.1.4,120.1892741
EPracticeConditions/YellowScram.csv,"Rule: When you see a yellow image, do not press 'spacebar'.",Images/Scram1/BM01_NC.jpg,Scramble,Blue,Images/Blue.jpg,space,,,,,,,0,3,3,3,0,4,4,5,,,,,,,,,,,,,,,,,,,,,,,,,,,,,,,,,,,,,,,,,,,,,,,,,,,1.9,261.0776969,None,space,1,0.3549531,263.0939633,None,263.0939633,None,263.0939633,None,263.9911214,None,,,,,,,,,,,,,,,,,,,,,,,,,,,,,,,,,,,,,,,,,,,,,,,,,P054,FENCOG,2,Post,2022_Jun_22_1130,Go No-Go Task,2021.1.4,120.1892741
EPracticeConditions/YellowScram.csv,"Rule: When you see a yellow image, do not press 'spacebar'.",Images/Scram2/HM06_NC.jpg,Scramble,Yellow,Images/Yellow.jpg,None,,,,,,,0,3,3,3,0,5,5,0,,,,,,,,,,,,,,,,,,,,,,,,,,,,,,,,,,,,,,,,,,,,,,,,,,,1.3,265.9921683,None,space,0,0.3595982,267.4011304,None,267.4011304,None,267.4011304,None,268.3062045,None,,,,,,,,,,,,,,,,,,,,,,,,,,,,,,,,,,,,,,,,,,,,,,,,,P054,FENCOG,2,Post,2022_Jun_22_1130,Go No-Go Task,2021.1.4,120.1892741
EPracticeConditions/YellowScram.csv,"Rule: When you see a yellow image, do not press 'spacebar'.",Images/Scram1/AF07NES.jpg,Scramble,Blue,Images/Blue.jpg,space,,,,,,,0,3,3,3,0,6,6,3,,,,,,,,,,,,,,,,,,,,,,,,,,,,,,,,,,,,,,,,,,,,,,,,,,,1.4,270.2992666,None,space,1,0.3045512,271.8080685,None,271.8080685,None,271.8080685,None,272.7042197,None,,,,,,,,,,,,,,,,,,,,,,,,,,,,,,,,,,,,,,,,,,,,,,,,,P054,FENCOG,2,Post,2022_Jun_22_1130,Go No-Go Task,2021.1.4,120.1892741
EPracticeConditions/YellowScram.csv,"Rule: When you see a yellow image, do not press 'spacebar'.",Images/Scram1/AF24NES.jpg,Scramble,Blue,Images/Blue.jpg,space,,,,,,,0,3,3,3,0,7,7,7,,,,,,,,,,,,,,,,,,,,,,,,,,,,,,,,,,,,,,,,,,,,,,,,,,,1.5,274.7063603,None,space,1,0.3738107,276.3151755,None,276.3151755,None,276.3151755,None,277.2103784,None,,,,,,,,,,,,,,,,,,,,,,,,,,,,,,,,,,,,,,,,,,,,,,,,,P054,FENCOG,2,Post,2022_Jun_22_1130,Go No-Go Task,2021.1.4,120.1892741
EPracticeConditions/YellowScram.csv,"Rule: When you see a yellow image, do not press 'spacebar'.",,,,,,,,,,,,0,3,3,3,,,,,,,,,,,,,,,,,,,,,,,,,,,,,,,,,,,,,,,,,,,,,,,,,,,,,,,,,,,,,,,,,,,,,,,,,,,,,,,,,,,,,,,,,,,,,,,,,,,,,,,,,,,,,,,,,,,,,P054,FENCOG,2,Post,2022_Jun_22_1130,Go No-Go Task,2021.1.4,120.1892741
,,,,,,,,,,,,,,,,,,,,,,,,,,,,,,,,,,,,,,,,,,,,,,,,,,,,,,,,,,,,,,,,,,,,,,,,,,,,,,,,,,,,,280.4831661,None,space,1.7095745,280.9631566,None,,,,,,,,,,,,,,,,,,,,,,,,,,,,,,,,,,,,,,,,,,,P054,FENCOG,2,Post,2022_Jun_22_1130,Go No-Go Task,2021.1.4,120.1892741
,,,,,,,,,,,,,,,,,,,,,,,,,,,,,,,,,,,,,,,,,,,,,,,,,,,,,,,,,,,,,,,,,,,,,,,,,,,,,,,,,,,,,,,,,,,282.6882314,None,space,0.9764931,282.6882314,None,,,,,,,,,,,,,,,,,,,,,,,,,,,,,,,,,,,,,P054,FENCOG,2,Post,2022_Jun_22_1130,Go No-Go Task,2021.1.4,120.1892741
,"Rule: When you see a yellow image, do not press 'spacebar'.",Images/Happy/BF09_HO.jpg,Happy,Blue,Images/Blue.jpg,space,ParentConditions/YellowYellowBlue_v2.xlsx,YellowYellowBlue,Conditions/Version_2/YellowFearStop.xlsx,no,PASS,0.200968574,,,,,,,,,0,0,0,1,0,0,0,0,0,0,0,0,,,,,,,,,,,,,,,,,,,,,,,,,,,,,,,,,,,,,,,,,,,,,,,,,,,,,,,,,,,,,,,,,283.767683,None,286.7530951,None,space,0.2877276,286.7530951,None,283.767683,None,283.767683,None,283.767683,None,1.9,287.1043424,None,space,1,0.3033246,289.1215473,None,289.1215473,None,289.1215473,None,,,,,,,,,,,P054,FENCOG,2,Post,2022_Jun_22_1130,Go No-Go Task,2021.1.4,120.1892741
,"Rule: When you see a yellow image, do not press 'spacebar'.",Images/Happy/AF30HAS.jpg,Happy,Blue,Images/Blue.jpg,space,ParentConditions/YellowYellowBlue_v2.xlsx,YellowYellowBlue,Conditions/Version_2/YellowFearStop.xlsx,no,PASS,0.967956144,,,,,,,,,0,0,0,1,0,0,0,0,0,1,1,1,,,,,,,,,,,,,,,,,,,,,,,,,,,,,,,,,,,,,,,,,,,,,,,,,,,,,,,,,,,,,,,,,,,,,,,,,,,,,,,1.63,289.5194687,None,space,1,0.2680749,291.2606239,None,291.2606239,None,291.2606239,None,,,,,,,,,,,P054,FENCOG,2,Post,2022_Jun_22_1130,Go No-Go Task,2021.1.4,120.1892741
,"Rule: When you see a yellow image, do not press 'spacebar'.",Images/Happy/AF27HAS.jpg,Happy,Blue,Images/Blue.jpg,space,ParentConditions/YellowYellowBlue_v2.xlsx,YellowYellowBlue,Conditions/Version_2/YellowFearStop.xlsx,no,PASS,0.024466482,,,,,,,,,0,0,0,1,0,0,0,0,0,2,2,2,,,,,,,,,,,,,,,,,,,,,,,,,,,,,,,,,,,,,,,,,,,,,,,,,,,,,,,,,,,,,,,,,,,,,,,,,,,,,,,1.46,291.6596678,None,space,1,0.2777106,293.2350286,None,293.2350286,None,293.2350286,None,,,,,,,,,,,P054,FENCOG,2,Post,2022_Jun_22_1130,Go No-Go Task,2021.1.4,120.1892741
,"Rule: When you see a yellow image, do not press 'spacebar'.",Images/Happy/AF22HAS.jpg,Happy,Blue,Images/Blue.jpg,space,ParentConditions/YellowYellowBlue_v2.xlsx,YellowYellowBlue,Conditions/Version_2/YellowFearStop.xlsx,no,PASS,0.900419425,,,,,,,,,0,0,0,1,0,0,0,0,0,3,3,3,,,,,,,,,,,,,,,,,,,,,,,,,,,,,,,,,,,,,,,,,,,,,,,,,,,,,,,,,,,,,,,,,,,,,,,,,,,,,,,1.76,293.6344782,None,space,1,0.3153363,295.5094512,None,295.5094512,None,295.5094512,None,,,,,,,,,,,P054,FENCOG,2,Post,2022_Jun_22_1130,Go No-Go Task,2021.1.4,120.1892741
,"Rule: When you see a yellow image, do not press 'spacebar'.",Images/Happy/WM11_HC.jpg,Happy,Blue,Images/Blue.jpg,space,ParentConditions/YellowYellowBlue_v2.xlsx,YellowYellowBlue,Conditions/Version_2/YellowFearStop.xlsx,no,PASS,0.504208106,,,,,,,,,0,0,0,1,0,0,0,0,0,4,4,4,,,,,,,,,,,,,,,,,,,,,,,,,,,,,,,,,,,,,,,,,,,,,,,,,,,,,,,,,,,,,,,,,,,,,,,,,,,,,,,1.88,295.9030483,None,space,1,0.3567186,297.8920088,None,297.8920088,None,297.8920088,None,,,,,,,,,,,P054,FENCOG,2,Post,2022_Jun_22_1130,Go No-Go Task,2021.1.4,120.1892741
,"Rule: When you see a yellow image, do not press 'spacebar'.",Images/Happy/BF05_HO.jpg,Happy,Blue,Images/Blue.jpg,space,ParentConditions/YellowYellowBlue_v2.xlsx,YellowYellowBlue,Conditions/Version_2/YellowFearStop.xlsx,no,PASS,0.668772063,,,,,,,,,0,0,0,1,0,0,0,0,0,5,5,5,,,,,,,,,,,,,,,,,,,,,,,,,,,,,,,,,,,,,,,,,,,,,,,,,,,,,,,,,,,,,,,,,,,,,,,,,,,,,,,1.64,298.2910401,None,space,1,0.2800932,300.0246905,None,300.0246905,None,300.0246905,None,,,,,,,,,,,P054,FENCOG,2,Post,2022_Jun_22_1130,Go No-Go Task,2021.1.4,120.1892741
,"Rule: When you see a yellow image, do not press 'spacebar'.",Images/Fearful/AM01AFS.jpg,Fear,Yellow,Images/Yellow.jpg,None,ParentConditions/YellowYellowBlue_v2.xlsx,YellowYellowBlue,Conditions/Version_2/YellowFearStop.xlsx,yes,PASS,0.008120847,,,,,,,,,0,0,0,1,0,0,0,0,0,6,6,6,,,,,,,,,,,,,,,,,,,,,,,,,,,,,,,,,,,,,,,,,,,,,,,,,,,,,,,,,,,,,,,,,,,,,,,,,,,,,,,1.34,300.4253658,None,None,1,,301.8658247,None,301.8658247,None,301.8658247,None,,,,,,,,,,,P054,FENCOG,2,Post,2022_Jun_22_1130,Go No-Go Task,2021.1.4,120.1892741
,"Rule: When you see a yellow image, do not press 'spacebar'.",Images/Happy/AF23HAS.jpg,Happy,Blue,Images/Blue.jpg,space,ParentConditions/YellowYellowBlue_v2.xlsx,YellowYellowBlue,Conditions/Version_2/YellowFearStop.xlsx,no,PASS,0.070231989,,,,,,,,,0,0,0,1,0,0,0,0,0,7,7,7,,,,,,,,,,,,,,,,,,,,,,,,,,,,,,,,,,,,,,,,,,,,,,,,,,,,,,,,,,,,,,,,,,,,,,,,,,,,,,,1.24,302.2652232,None,space,1,0.2494537,303.6152858,None,303.6152858,None,303.6152858,None,,,,,,,,,,,P054,FENCOG,2,Post,2022_Jun_22_1130,Go No-Go Task,2021.1.4,120.1892741
,"Rule: When you see a yellow image, do not press 'spacebar'.",Images/Happy/AM16HAS.jpg,Happy,Blue,Images/Blue.jpg,space,ParentConditions/YellowYellowBlue_v2.xlsx,YellowYellowBlue,Conditions/Version_2/YellowFearStop.xlsx,no,PASS,0.031804034,,,,,,,,,0,0,0,1,0,0,0,0,0,8,8,8,,,,,,,,,,,,,,,,,,,,,,,,,,,,,,,,,,,,,,,,,,,,,,,,,,,,,,,,,,,,,,,,,,,,,,,,,,,,,,,1.36,304.0085019,None,space,1,0.2871152,305.4814256,None,305.4814256,None,305.4814256,None,,,,,,,,,,,P054,FENCOG,2,Post,2022_Jun_22_1130,Go No-Go Task,2021.1.4,120.1892741
,"Rule: When you see a yellow image, do not press 'spacebar'.",Images/Happy/AM04HAS.jpg,Happy,Blue,Images/Blue.jpg,space,ParentConditions/YellowYellowBlue_v2.xlsx,YellowYellowBlue,Conditions/Version_2/YellowFearStop.xlsx,no,PASS,0.000212135,,,,,,,,,0,0,0,1,0,0,0,0,0,9,9,9,,,,,,,,,,,,,,,,,,,,,,,,,,,,,,,,,,,,,,,,,,,,,,,,,,,,,,,,,,,,,,,,,,,,,,,,,,,,,,,1.84,305.8803962,None,space,1,0.2815914,307.831066,None,307.831066,None,307.831066,None,,,,,,,,,,,P054,FENCOG,2,Post,2022_Jun_22_1130,Go No-Go Task,2021.1.4,120.1892741
,"Rule: When you see a yellow image, do not press 'spacebar'.",Images/Happy/AF26HAS.jpg,Happy,Blue,Images/Blue.jpg,space,ParentConditions/YellowYellowBlue_v2.xlsx,YellowYellowBlue,Conditions/Version_2/YellowFearStop.xlsx,no,PASS,0.408079602,,,,,,,,,0,0,0,1,0,0,0,0,0,10,10,10,,,,,,,,,,,,,,,,,,,,,,,,,,,,,,,,,,,,,,,,,,,,,,,,,,,,,,,,,,,,,,,,,,,,,,,,,,,,,,,1.56,308.2297926,None,space,1,0.2879386,309.896824,None,309.896824,None,309.896824,None,,,,,,,,,,,P054,FENCOG,2,Post,2022_Jun_22_1130,Go No-Go Task,2021.1.4,120.1892741
,"Rule: When you see a yellow image, do not press 'spacebar'.",Images/Fearful/AF10_FC.jpg,Fear,Yellow,Images/Yellow.jpg,None,ParentConditions/YellowYellowBlue_v2.xlsx,YellowYellowBlue,Conditions/Version_2/YellowFearStop.xlsx,yes,PASS,0.431183679,,,,,,,,,0,0,0,1,0,0,0,0,0,11,11,11,,,,,,,,,,,,,,,,,,,,,,,,,,,,,,,,,,,,,,,,,,,,,,,,,,,,,,,,,,,,,,,,,,,,,,,,,,,,,,,1.49,310.2972751,None,None,1,,311.8960264,None,311.8960264,None,311.8960264,None,,,,,,,,,,,P054,FENCOG,2,Post,2022_Jun_22_1130,Go No-Go Task,2021.1.4,120.1892741
,"Rule: When you see a yellow image, do not press 'spacebar'.",Images/Fearful/AM09_FO.jpg,Fear,Yellow,Images/Yellow.jpg,None,ParentConditions/YellowYellowBlue_v2.xlsx,YellowYellowBlue,Conditions/Version_2/YellowFearStop.xlsx,yes,PASS,0.253243813,,,,,,,,,0,0,0,1,0,0,0,0,0,12,12,12,,,,,,,,,,,,,,,,,,,,,,,,,,,,,,,,,,,,,,,,,,,,,,,,,,,,,,,,,,,,,,,,,,,,,,,,,,,,,,,1.77,312.2884143,None,None,1,,314.1705698,None,314.1705698,None,314.1705698,None,,,,,,,,,,,P054,FENCOG,2,Post,2022_Jun_22_1130,Go No-Go Task,2021.1.4,120.1892741
,"Rule: When you see a yellow image, do not press 'spacebar'.",Images/Happy/HM04_HO.jpg,Happy,Blue,Images/Blue.jpg,space,ParentConditions/YellowYellowBlue_v2.xlsx,YellowYellowBlue,Conditions/Version_2/YellowFearStop.xlsx,no,PASS,0.407242513,,,,,,,,,0,0,0,1,0,0,0,0,0,13,13,13,,,,,,,,,,,,,,,,,,,,,,,,,,,,,,,,,,,,,,,,,,,,,,,,,,,,,,,,,,,,,,,,,,,,,,,,,,,,,,,1.91,314.5695468,None,space,1,0.270045,316.5947962,None,316.5947962,None,316.5947962,None,,,,,,,,,,,P054,FENCOG,2,Post,2022_Jun_22_1130,Go No-Go Task,2021.1.4,120.1892741
,"Rule: When you see a yellow image, do not press 'spacebar'.",Images/Fearful/AM04_FO.jpg,Fear,Yellow,Images/Yellow.jpg,None,ParentConditions/YellowYellowBlue_v2.xlsx,YellowYellowBlue,Conditions/Version_2/YellowFearStop.xlsx,yes,PASS,0.728825656,,,,,,,,,0,0,0,1,0,0,0,0,0,14,14,14,,,,,,,,,,,,,,,,,,,,,,,,,,,,,,,,,,,,,,,,,,,,,,,,,,,,,,,,,,,,,,,,,,,,,,,,,,,,,,,1.78,316.9950652,None,None,1,,318.8857888,None,318.8857888,None,318.8857888,None,,,,,,,,,,,P054,FENCOG,2,Post,2022_Jun_22_1130,Go No-Go Task,2021.1.4,120.1892741
,"Rule: When you see a yellow image, do not press 'spacebar'.",Images/Happy/AM13HAS.jpg,Happy,Blue,Images/Blue.jpg,space,ParentConditions/YellowYellowBlue_v2.xlsx,YellowYellowBlue,Conditions/Version_2/YellowFearStop.xlsx,no,PASS,0.940548452,,,,,,,,,0,0,0,1,0,0,0,0,0,15,15,15,,,,,,,,,,,,,,,,,,,,,,,,,,,,,,,,,,,,,,,,,,,,,,,,,,,,,,,,,,,,,,,,,,,,,,,,,,,,,,,1.8,319.284715,None,space,1,0.2471569,321.1934413,None,321.1934413,None,321.1934413,None,,,,,,,,,,,P054,FENCOG,2,Post,2022_Jun_22_1130,Go No-Go Task,2021.1.4,120.1892741
,"Rule: When you see a yellow image, do not press 'spacebar'.",Images/Fearful/AF09AFS.jpg,Fear,Yellow,Images/Yellow.jpg,None,ParentConditions/YellowYellowBlue_v2.xlsx,YellowYellowBlue,Conditions/Version_2/YellowFearStop.xlsx,yes,PASS,0.646488179,,,,,,,,,0,0,0,1,0,0,0,0,0,16,16,16,,,,,,,,,,,,,,,,,,,,,,,,,,,,,,,,,,,,,,,,,,,,,,,,,,,,,,,,,,,,,,,,,,,,,,,,,,,,,,,1.21,321.5923423,None,space,0,0.3386907,322.917943,None,322.917943,None,322.917943,None,,,,,,,,,,,P054,FENCOG,2,Post,2022_Jun_22_1130,Go No-Go Task,2021.1.4,120.1892741
,"Rule: When you see a yellow image, do not press 'spacebar'.",Images/Fearful/BF05_FO.jpg,Fear,Yellow,Images/Yellow.jpg,None,ParentConditions/YellowYellowBlue_v2.xlsx,YellowYellowBlue,Conditions/Version_2/YellowFearStop.xlsx,yes,PASS,0.375092615,,,,,,,,,0,0,0,1,0,0,0,0,0,17,17,17,,,,,,,,,,,,,,,,,,,,,,,,,,,,,,,,,,,,,,,,,,,,,,,,,,,,,,,,,,,,,,,,,,,,,,,,,,,,,,,1.31,323.3169126,None,None,1,,324.7423748,None,324.7423748,None,324.7423748,None,,,,,,,,,,,P054,FENCOG,2,Post,2022_Jun_22_1130,Go No-Go Task,2021.1.4,120.1892741
,"Rule: When you see a yellow image, do not press 'spacebar'.",Images/Happy/AM24HAS.jpg,Happy,Blue,Images/Blue.jpg,space,ParentConditions/YellowYellowBlue_v2.xlsx,YellowYellowBlue,Conditions/Version_2/YellowFearStop.xlsx,no,PASS,0.016158037,,,,,,,,,0,0,0,1,0,0,0,0,0,18,18,18,,,,,,,,,,,,,,,,,,,,,,,,,,,,,,,,,,,,,,,,,,,,,,,,,,,,,,,,,,,,,,,,,,,,,,,,,,,,,,,1.83,325.1379498,None,space,1,0.3252611,327.0833425,None,327.0833425,None,327.0833425,None,,,,,,,,,,,P054,FENCOG,2,Post,2022_Jun_22_1130,Go No-Go Task,2021.1.4,120.1892741
,"Rule: When you see a yellow image, do not press 'spacebar'.",Images/Fearful/AF11AFS.jpg,Fear,Yellow,Images/Yellow.jpg,None,ParentConditions/YellowYellowBlue_v2.xlsx,YellowYellowBlue,Conditions/Version_2/YellowFearStop.xlsx,yes,PASS,0.337155436,,,,,,,,,0,0,0,1,0,0,0,0,0,19,19,19,,,,,,,,,,,,,,,,,,,,,,,,,,,,,,,,,,,,,,,,,,,,,,,,,,,,,,,,,,,,,,,,,,,,,,,,,,,,,,,1.79,327.4822473,None,None,1,,329.3911318,None,329.3911318,None,329.3911318,None,,,,,,,,,,,P054,FENCOG,2,Post,2022_Jun_22_1130,Go No-Go Task,2021.1.4,120.1892741
,"Rule: When you see a yellow image, do not press 'spacebar'.",Images/Happy/AF01_HE.jpg,Happy,Blue,Images/Blue.jpg,space,ParentConditions/YellowYellowBlue_v2.xlsx,YellowYellowBlue,Conditions/Version_2/YellowFearStop.xlsx,no,PASS,0.097708726,,,,,,,,,0,0,0,1,0,0,0,0,0,20,20,20,,,,,,,,,,,,,,,,,,,,,,,,,,,,,,,,,,,,,,,,,,,,,,,,,,,,,,,,,,,,,,,,,,,,,,,,,,,,,,,1.26,329.7815439,None,space,1,0.2594109,331.1571919,None,331.1571919,None,331.1571919,None,,,,,,,,,,,P054,FENCOG,2,Post,2022_Jun_22_1130,Go No-Go Task,2021.1.4,120.1892741
,"Rule: When you see a yellow image, do not press 'spacebar'.",Images/Happy/AM10_HO.jpg,Happy,Blue,Images/Blue.jpg,space,ParentConditions/YellowYellowBlue_v2.xlsx,YellowYellowBlue,Conditions/Version_2/YellowFearStop.xlsx,no,PASS,0.358031869,,,,,,,,,0,0,0,1,0,0,0,0,0,21,21,21,,,,,,,,,,,,,,,,,,,,,,,,,,,,,,,,,,,,,,,,,,,,,,,,,,,,,,,,,,,,,,,,,,,,,,,,,,,,,,,1.59,331.5561533,None,space,1,0.3762543,333.2565357,None,333.2565357,None,333.2565357,None,,,,,,,,,,,P054,FENCOG,2,Post,2022_Jun_22_1130,Go No-Go Task,2021.1.4,120.1892741
,"Rule: When you see a yellow image, do not press 'spacebar'.",Images/Happy/AF09HAS.jpg,Happy,Blue,Images/Blue.jpg,space,ParentConditions/YellowYellowBlue_v2.xlsx,YellowYellowBlue,Conditions/Version_2/YellowFearStop.xlsx,no,PASS,0.209028908,,,,,,,,,0,0,0,1,0,0,0,0,0,22,22,22,,,,,,,,,,,,,,,,,,,,,,,,,,,,,,,,,,,,,,,,,,,,,,,,,,,,,,,,,,,,,,,,,,,,,,,,,,,,,,,1.5,333.6484079,None,space,1,0.2486704,335.2559413,None,335.2559413,None,335.2559413,None,,,,,,,,,,,P054,FENCOG,2,Post,2022_Jun_22_1130,Go No-Go Task,2021.1.4,120.1892741
,"Rule: When you see a yellow image, do not press 'spacebar'.",Images/Happy/BM02_HO.jpg,Happy,Blue,Images/Blue.jpg,space,ParentConditions/YellowYellowBlue_v2.xlsx,YellowYellowBlue,Conditions/Version_2/YellowFearStop.xlsx,no,PASS,0.673274105,,,,,,,,,0,0,0,1,0,0,0,0,0,23,23,23,,,,,,,,,,,,,,,,,,,,,,,,,,,,,,,,,,,,,,,,,,,,,,,,,,,,,,,,,,,,,,,,,,,,,,,,,,,,,,,1.65,335.6597436,None,space,1,0.2750698,337.4136273,None,337.4136273,None,337.4136273,None,,,,,,,,,,,P054,FENCOG,2,Post,2022_Jun_22_1130,Go No-Go Task,2021.1.4,120.1892741
,"Rule: When you see a yellow image, do not press 'spacebar'.",Images/Happy/AM09_HE.jpg,Happy,Blue,Images/Blue.jpg,space,ParentConditions/YellowYellowBlue_v2.xlsx,YellowYellowBlue,Conditions/Version_2/YellowFearStop.xlsx,no,PASS,0.606507822,,,,,,,,,0,0,0,1,0,0,0,0,0,24,24,24,,,,,,,,,,,,,,,,,,,,,,,,,,,,,,,,,,,,,,,,,,,,,,,,,,,,,,,,,,,,,,,,,,,,,,,,,,,,,,,1.57,337.8142085,None,space,1,0.2560236,339.4965491,None,339.4965491,None,339.4965491,None,,,,,,,,,,,P054,FENCOG,2,Post,2022_Jun_22_1130,Go No-Go Task,2021.1.4,120.1892741
,"Rule: When you see a yellow image, do not press 'spacebar'.",Images/Happy/AF10_HE.jpg,Happy,Blue,Images/Blue.jpg,space,ParentConditions/YellowYellowBlue_v2.xlsx,YellowYellowBlue,Conditions/Version_2/YellowFearStop.xlsx,no,PASS,0.68699688,,,,,,,,,0,0,0,1,0,0,0,0,0,25,25,25,,,,,,,,,,,,,,,,,,,,,,,,,,,,,,,,,,,,,,,,,,,,,,,,,,,,,,,,,,,,,,,,,,,,,,,,,,,,,,,1.44,339.8954027,None,space,1,0.2345979,341.4458953,None,341.4458953,None,341.4458953,None,,,,,,,,,,,P054,FENCOG,2,Post,2022_Jun_22_1130,Go No-Go Task,2021.1.4,120.1892741
,"Rule: When you see a yellow image, do not press 'spacebar'.",Images/Happy/BM01_HO.jpg,Happy,Blue,Images/Blue.jpg,space,ParentConditions/YellowYellowBlue_v2.xlsx,YellowYellowBlue,Conditions/Version_2/YellowFearStop.xlsx,no,PASS,0.5538207,,,,,,,,,0,0,0,1,0,0,0,0,0,26,26,26,,,,,,,,,,,,,,,,,,,,,,,,,,,,,,,,,,,,,,,,,,,,,,,,,,,,,,,,,,,,,,,,,,,,,,,,,,,,,,,1.87,341.8447535,None,space,1,0.3163284,343.8284076,None,343.8284076,None,343.8284076,None,,,,,,,,,,,P054,FENCOG,2,Post,2022_Jun_22_1130,Go No-Go Task,2021.1.4,120.1892741
,"Rule: When you see a yellow image, do not press 'spacebar'.",Images/Fearful/AF07_FO.jpg,Fear,Yellow,Images/Yellow.jpg,None,ParentConditions/YellowYellowBlue_v2.xlsx,YellowYellowBlue,Conditions/Version_2/YellowFearStop.xlsx,yes,PASS,0.568987932,,,,,,,,,0,0,0,1,0,0,0,0,0,27,27,27,,,,,,,,,,,,,,,,,,,,,,,,,,,,,,,,,,,,,,,,,,,,,,,,,,,,,,,,,,,,,,,,,,,,,,,,,,,,,,,1.98,344.2272942,None,space,0,0.3052467,346.3193547,None,346.3193547,None,346.3193547,None,,,,,,,,,,,P054,FENCOG,2,Post,2022_Jun_22_1130,Go No-Go Task,2021.1.4,120.1892741
,"Rule: When you see a yellow image, do not press 'spacebar'.",Images/Happy/BF18_HO.jpg,Happy,Blue,Images/Blue.jpg,space,ParentConditions/YellowYellowBlue_v2.xlsx,YellowYellowBlue,Conditions/Version_2/YellowFearStop.xlsx,no,PASS,0.252890825,,,,,,,,,0,0,0,1,0,0,0,0,0,28,28,28,,,,,,,,,,,,,,,,,,,,,,,,,,,,,,,,,,,,,,,,,,,,,,,,,,,,,,,,,,,,,,,,,,,,,,,,,,,,,,,1.48,346.718223,None,space,1,0.3700398,348.3104966,None,348.3104966,None,348.3104966,None,,,,,,,,,,,P054,FENCOG,2,Post,2022_Jun_22_1130,Go No-Go Task,2021.1.4,120.1892741
,"Rule: When you see a yellow image, do not press 'spacebar'.",Images/Happy/AM03HAS.jpg,Happy,Blue,Images/Blue.jpg,space,ParentConditions/YellowYellowBlue_v2.xlsx,YellowYellowBlue,Conditions/Version_2/YellowFearStop.xlsx,no,PASS,0.612970552,,,,,,,,,0,0,0,1,0,0,0,0,0,29,29,29,,,,,,,,,,,,,,,,,,,,,,,,,,,,,,,,,,,,,,,,,,,,,,,,,,,,,,,,,,,,,,,,,,,,,,,,,,,,,,,1.93,348.7041399,None,space,1,0.3455416,350.7430745,None,350.7430745,None,350.7430745,None,,,,,,,,,,,P054,FENCOG,2,Post,2022_Jun_22_1130,Go No-Go Task,2021.1.4,120.1892741
,"Rule: When you see a yellow image, do not press 'spacebar'.",Images/Happy/BF10_HO.jpg,Happy,Blue,Images/Blue.jpg,space,ParentConditions/YellowYellowBlue_v2.xlsx,YellowYellowBlue,Conditions/Version_2/YellowFearStop.xlsx,no,PASS,0.663321465,,,,,,,,,0,0,0,1,0,0,0,0,0,30,30,30,,,,,,,,,,,,,,,,,,,,,,,,,,,,,,,,,,,,,,,,,,,,,,,,,,,,,,,,,,,,,,,,,,,,,,,,,,,,,,,1.75,351.1436197,None,space,1,0.2877222,353.0090532,None,353.0090532,None,353.0090532,None,,,,,,,,,,,P054,FENCOG,2,Post,2022_Jun_22_1130,Go No-Go Task,2021.1.4,120.1892741
,"Rule: When you see a yellow image, do not press 'spacebar'.",Images/Happy/BF07_HO.jpg,Happy,Blue,Images/Blue.jpg,space,ParentConditions/YellowYellowBlue_v2.xlsx,YellowYellowBlue,Conditions/Version_2/YellowFearStop.xlsx,no,PASS,0.383434418,,,,,,,,,0,0,0,1,0,0,0,0,0,31,31,31,,,,,,,,,,,,,,,,,,,,,,,,,,,,,,,,,,,,,,,,,,,,,,,,,,,,,,,,,,,,,,,,,,,,,,,,,,,,,,,1.32,353.4069429,None,space,1,0.2706886,354.841832,None,354.841832,None,354.841832,None,,,,,,,,,,,P054,FENCOG,2,Post,2022_Jun_22_1130,Go No-Go Task,2021.1.4,120.1892741
,"Rule: When you see a yellow image, do not press 'spacebar'.",Images/Fearful/BF07_FO.jpg,Fear,Yellow,Images/Yellow.jpg,None,ParentConditions/YellowYellowBlue_v2.xlsx,YellowYellowBlue,Conditions/Version_2/YellowFearStop.xlsx,yes,PASS,0.008316205,,,,,,,,,0,0,0,1,0,0,0,0,0,32,32,32,,,,,,,,,,,,,,,,,,,,,,,,,,,,,,,,,,,,,,,,,,,,,,,,,,,,,,,,,,,,,,,,,,,,,,,,,,,,,,,1.69,355.2413496,None,None,1,,357.041276,None,357.041276,None,357.041276,None,,,,,,,,,,,P054,FENCOG,2,Post,2022_Jun_22_1130,Go No-Go Task,2021.1.4,120.1892741
,"Rule: When you see a yellow image, do not press 'spacebar'.",Images/Happy/WF04_HC.jpg,Happy,Blue,Images/Blue.jpg,space,ParentConditions/YellowYellowBlue_v2.xlsx,YellowYellowBlue,Conditions/Version_2/YellowFearStop.xlsx,no,PASS,0.677749508,,,,,,,,,0,0,0,1,0,0,0,0,0,33,33,33,,,,,,,,,,,,,,,,,,,,,,,,,,,,,,,,,,,,,,,,,,,,,,,,,,,,,,,,,,,,,,,,,,,,,,,,,,,,,,,1.33,357.4366943,None,space,1,0.3663719,358.8823121,None,358.8823121,None,358.8823121,None,,,,,,,,,,,P054,FENCOG,2,Post,2022_Jun_22_1130,Go No-Go Task,2021.1.4,120.1892741
,"Rule: When you see a yellow image, do not press 'spacebar'.",Images/Happy/AM23HAS.jpg,Happy,Blue,Images/Blue.jpg,space,ParentConditions/YellowYellowBlue_v2.xlsx,YellowYellowBlue,Conditions/Version_2/YellowFearStop.xlsx,no,PASS,0.043037124,,,,,,,,,0,0,0,1,0,0,0,0,0,34,34,34,,,,,,,,,,,,,,,,,,,,,,,,,,,,,,,,,,,,,,,,,,,,,,,,,,,,,,,,,,,,,,,,,,,,,,,,,,,,,,,1.92,359.2812574,None,space,1,0.3258014,361.3149616,None,361.3149616,None,361.3149616,None,,,,,,,,,,,P054,FENCOG,2,Post,2022_Jun_22_1130,Go No-Go Task,2021.1.4,120.1892741
,"Rule: When you see a yellow image, do not press 'spacebar'.",Images/Happy/AM09HAS.jpg,Happy,Blue,Images/Blue.jpg,space,ParentConditions/YellowYellowBlue_v2.xlsx,YellowYellowBlue,Conditions/Version_2/YellowFearStop.xlsx,no,PASS,0.095748362,,,,,,,,,0,0,0,1,0,0,0,0,0,35,35,35,,,,,,,,,,,,,,,,,,,,,,,,,,,,,,,,,,,,,,,,,,,,,,,,,,,,,,,,,,,,,,,,,,,,,,,,,,,,,,,1.66,361.7139883,None,space,1,0.2635811,363.4809445,None,363.4809445,None,363.4809445,None,,,,,,,,,,,P054,FENCOG,2,Post,2022_Jun_22_1130,Go No-Go Task,2021.1.4,120.1892741
,"Rule: When you see a yellow image, do not press 'spacebar'.",Images/Happy/AM10HAS.jpg,Happy,Blue,Images/Blue.jpg,space,ParentConditions/YellowYellowBlue_v2.xlsx,YellowYellowBlue,Conditions/Version_2/YellowFearStop.xlsx,no,PASS,0.163091291,,,,,,,,,0,0,0,1,0,0,0,0,0,36,36,36,,,,,,,,,,,,,,,,,,,,,,,,,,,,,,,,,,,,,,,,,,,,,,,,,,,,,,,,,,,,,,,,,,,,,,,,,,,,,,,1.37,363.8810473,None,space,1,0.3329652,365.363716,None,365.363716,None,365.363716,None,,,,,,,,,,,P054,FENCOG,2,Post,2022_Jun_22_1130,Go No-Go Task,2021.1.4,120.1892741
,"Rule: When you see a yellow image, do not press 'spacebar'.",Images/Happy/AF07HAS.jpg,Happy,Blue,Images/Blue.jpg,space,ParentConditions/YellowYellowBlue_v2.xlsx,YellowYellowBlue,Conditions/Version_2/YellowFearStop.xlsx,no,PASS,0.348674719,,,,,,,,,0,0,0,1,0,0,0,0,0,37,37,37,,,,,,,,,,,,,,,,,,,,,,,,,,,,,,,,,,,,,,,,,,,,,,,,,,,,,,,,,,,,,,,,,,,,,,,,,,,,,,,1.45,365.7626363,None,space,1,0.2869888,367.3215883,None,367.3215883,None,367.3215883,None,,,,,,,,,,,P054,FENCOG,2,Post,2022_Jun_22_1130,Go No-Go Task,2021.1.4,120.1892741
,"Rule: When you see a yellow image, do not press 'spacebar'.",Images/Happy/AM03_HO.jpg,Happy,Blue,Images/Blue.jpg,space,ParentConditions/YellowYellowBlue_v2.xlsx,YellowYellowBlue,Conditions/Version_2/YellowFearStop.xlsx,no,PASS,0.885204794,,,,,,,,,0,0,0,1,0,0,0,0,0,38,38,38,,,,,,,,,,,,,,,,,,,,,,,,,,,,,,,,,,,,,,,,,,,,,,,,,,,,,,,,,,,,,,,,,,,,,,,,,,,,,,,1.73,367.7204283,None,space,1,0.2542532,369.562528,None,369.562528,None,369.562528,None,,,,,,,,,,,P054,FENCOG,2,Post,2022_Jun_22_1130,Go No-Go Task,2021.1.4,120.1892741
,"Rule: When you see a yellow image, do not press 'spacebar'.",Images/Happy/AM05HAS.jpg,Happy,Blue,Images/Blue.jpg,space,ParentConditions/YellowYellowBlue_v2.xlsx,YellowYellowBlue,Conditions/Version_2/YellowFearStop.xlsx,no,PASS,0.254967981,,,,,,,,,0,0,0,1,0,0,0,0,0,39,39,39,,,,,,,,,,,,,,,,,,,,,,,,,,,,,,,,,,,,,,,,,,,,,,,,,,,,,,,,,,,,,,,,,,,,,,,,,,,,,,,1.42,369.9615499,None,space,1,0.3055413,371.4948151,None,371.4948151,None,371.4948151,None,,,,,,,,,,,P054,FENCOG,2,Post,2022_Jun_22_1130,Go No-Go Task,2021.1.4,120.1892741
,"Rule: When you see a yellow image, do not press 'spacebar'.",Images/Happy/AF02HAS.jpg,Happy,Blue,Images/Blue.jpg,space,ParentConditions/YellowYellowBlue_v2.xlsx,YellowYellowBlue,Conditions/Version_2/YellowFearStop.xlsx,no,PASS,0.451861001,,,,,,,,,0,0,0,1,0,0,0,0,0,40,40,40,,,,,,,,,,,,,,,,,,,,,,,,,,,,,,,,,,,,,,,,,,,,,,,,,,,,,,,,,,,,,,,,,,,,,,,,,,,,,,,1.22,371.8923467,None,space,1,0.2598607,373.2528221,None,373.2528221,None,373.2528221,None,,,,,,,,,,,P054,FENCOG,2,Post,2022_Jun_22_1130,Go No-Go Task,2021.1.4,120.1892741
,"Rule: When you see a yellow image, do not press 'spacebar'.",Images/Happy/BM08_HO.jpg,Happy,Blue,Images/Blue.jpg,space,ParentConditions/YellowYellowBlue_v2.xlsx,YellowYellowBlue,Conditions/Version_2/YellowFearStop.xlsx,no,PASS,0.610918027,,,,,,,,,0,0,0,1,0,0,0,0,0,41,41,41,,,,,,,,,,,,,,,,,,,,,,,,,,,,,,,,,,,,,,,,,,,,,,,,,,,,,,,,,,,,,,,,,,,,,,,,,,,,,,,1.54,373.6286328,None,space,1,0.2677685,375.2689564,None,375.2689564,None,375.2689564,None,,,,,,,,,,,P054,FENCOG,2,Post,2022_Jun_22_1130,Go No-Go Task,2021.1.4,120.1892741
,"Rule: When you see a yellow image, do not press 'spacebar'.",Images/Happy/AM22HAS.jpg,Happy,Blue,Images/Blue.jpg,space,ParentConditions/YellowYellowBlue_v2.xlsx,YellowYellowBlue,Conditions/Version_2/YellowFearStop.xlsx,no,PASS,0.35880856,,,,,,,,,0,0,0,1,0,0,0,0,0,42,42,42,,,,,,,,,,,,,,,,,,,,,,,,,,,,,,,,,,,,,,,,,,,,,,,,,,,,,,,,,,,,,,,,,,,,,,,,,,,,,,,1.25,375.6756051,None,space,1,0.2688711,377.0436156,None,377.0436156,None,377.0436156,None,,,,,,,,,,,P054,FENCOG,2,Post,2022_Jun_22_1130,Go No-Go Task,2021.1.4,120.1892741
,"Rule: When you see a yellow image, do not press 'spacebar'.",Images/Happy/AM30HAS.jpg,Happy,Blue,Images/Blue.jpg,space,ParentConditions/YellowYellowBlue_v2.xlsx,YellowYellowBlue,Conditions/Version_2/YellowFearStop.xlsx,no,PASS,0.02897569,,,,,,,,,0,0,0,1,0,0,0,0,0,43,43,43,,,,,,,,,,,,,,,,,,,,,,,,,,,,,,,,,,,,,,,,,,,,,,,,,,,,,,,,,,,,,,,,,,,,,,,,,,,,,,,1.3,377.4349496,None,space,1,0.2533876,378.8431116,None,378.8431116,None,378.8431116,None,,,,,,,,,,,P054,FENCOG,2,Post,2022_Jun_22_1130,Go No-Go Task,2021.1.4,120.1892741
,"Rule: When you see a yellow image, do not press 'spacebar'.",Images/Fearful/BF09_FC.jpg,Fear,Yellow,Images/Yellow.jpg,None,ParentConditions/YellowYellowBlue_v2.xlsx,YellowYellowBlue,Conditions/Version_2/YellowFearStop.xlsx,yes,PASS,0.336569123,,,,,,,,,0,0,0,1,0,0,0,0,0,44,44,44,,,,,,,,,,,,,,,,,,,,,,,,,,,,,,,,,,,,,,,,,,,,,,,,,,,,,,,,,,,,,,,,,,,,,,,,,,,,,,,1.81,379.2421737,None,space,0,0.2812292,381.1674129,None,381.1674129,None,381.1674129,None,,,,,,,,,,,P054,FENCOG,2,Post,2022_Jun_22_1130,Go No-Go Task,2021.1.4,120.1892741
,"Rule: When you see a yellow image, do not press 'spacebar'.",Images/Happy/WM12_HE.jpg,Happy,Blue,Images/Blue.jpg,space,ParentConditions/YellowYellowBlue_v2.xlsx,YellowYellowBlue,Conditions/Version_2/YellowFearStop.xlsx,no,PASS,0.760185099,,,,,,,,,0,0,0,1,0,0,0,0,0,45,45,45,,,,,,,,,,,,,,,,,,,,,,,,,,,,,,,,,,,,,,,,,,,,,,,,,,,,,,,,,,,,,,,,,,,,,,,,,,,,,,,1.28,381.5662873,None,space,1,0.2740659,382.9586135,None,382.9586135,None,382.9586135,None,,,,,,,,,,,P054,FENCOG,2,Post,2022_Jun_22_1130,Go No-Go Task,2021.1.4,120.1892741
,"Rule: When you see a yellow image, do not press 'spacebar'.",Images/Happy/HF10_HE.jpg,Happy,Blue,Images/Blue.jpg,space,ParentConditions/YellowYellowBlue_v2.xlsx,YellowYellowBlue,Conditions/Version_2/YellowFearStop.xlsx,no,PASS,0.665072727,,,,,,,,,0,0,0,1,0,0,0,0,0,46,46,46,,,,,,,,,,,,,,,,,,,,,,,,,,,,,,,,,,,,,,,,,,,,,,,,,,,,,,,,,,,,,,,,,,,,,,,,,,,,,,,1.6,383.3578452,None,space,1,0.3028663,385.0578892,None,385.0578892,None,385.0578892,None,,,,,,,,,,,P054,FENCOG,2,Post,2022_Jun_22_1130,Go No-Go Task,2021.1.4,120.1892741
,"Rule: When you see a yellow image, do not press 'spacebar'.",Images/Happy/HM09_HO.jpg,Happy,Blue,Images/Blue.jpg,space,ParentConditions/YellowYellowBlue_v2.xlsx,YellowYellowBlue,Conditions/Version_2/YellowFearStop.xlsx,no,PASS,0.71966193,,,,,,,,,0,0,0,1,0,0,0,0,0,47,47,47,,,,,,,,,,,,,,,,,,,,,,,,,,,,,,,,,,,,,,,,,,,,,,,,,,,,,,,,,,,,,,,,,,,,,,,,,,,,,,,1.61,385.458284,None,space,1,0.2986936,387.1739371,None,387.1739371,None,387.1739371,None,,,,,,,,,,,P054,FENCOG,2,Post,2022_Jun_22_1130,Go No-Go Task,2021.1.4,120.1892741
,"Rule: When you see a yellow image, do not press 'spacebar'.",Images/Fearful/AM03_FC.jpg,Fear,Yellow,Images/Yellow.jpg,None,ParentConditions/YellowYellowBlue_v2.xlsx,YellowYellowBlue,Conditions/Version_2/YellowFearStop.xlsx,yes,PASS,0.902115461,,,,,,,,,0,0,0,1,0,0,0,0,0,48,48,48,,,,,,,,,,,,,,,,,,,,,,,,,,,,,,,,,,,,,,,,,,,,,,,,,,,,,,,,,,,,,,,,,,,,,,,,,,,,,,,1.52,387.5738371,None,None,1,,389.2067748,None,389.2067748,None,389.2067748,None,,,,,,,,,,,P054,FENCOG,2,Post,2022_Jun_22_1130,Go No-Go Task,2021.1.4,120.1892741
,"Rule: When you see a yellow image, do not press 'spacebar'.",Images/Happy/HF04_HE.jpg,Happy,Blue,Images/Blue.jpg,space,ParentConditions/YellowYellowBlue_v2.xlsx,YellowYellowBlue,Conditions/Version_2/YellowFearStop.xlsx,no,PASS,0.682828264,,,,,,,,,0,0,0,1,0,0,0,0,0,49,49,49,,,,,,,,,,,,,,,,,,,,,,,,,,,,,,,,,,,,,,,,,,,,,,,,,,,,,,,,,,,,,,,,,,,,,,,,,,,,,,,1.51,389.5973998,None,space,1,0.3388003,391.206058,None,391.206058,None,391.206058,None,,,,,,,,,,,P054,FENCOG,2,Post,2022_Jun_22_1130,Go No-Go Task,2021.1.4,120.1892741
,"Rule: When you see a yellow image, do not press 'spacebar'.",Images/Happy/AM17HAS.jpg,Happy,Blue,Images/Blue.jpg,space,ParentConditions/YellowYellowBlue_v2.xlsx,YellowYellowBlue,Conditions/Version_2/YellowFearStop.xlsx,no,PASS,0.772684013,,,,,,,,,0,0,0,1,0,0,0,0,0,50,50,50,,,,,,,,,,,,,,,,,,,,,,,,,,,,,,,,,,,,,,,,,,,,,,,,,,,,,,,,,,,,,,,,,,,,,,,,,,,,,,,1.55,391.6130655,None,space,1,0.3206398,393.2638201,None,393.2638201,None,393.2638201,None,,,,,,,,,,,P054,FENCOG,2,Post,2022_Jun_22_1130,Go No-Go Task,2021.1.4,120.1892741
,"Rule: When you see a yellow image, do not press 'spacebar'.",Images/Fearful/BM01_FO.jpg,Fear,Yellow,Images/Yellow.jpg,None,ParentConditions/YellowYellowBlue_v2.xlsx,YellowYellowBlue,Conditions/Version_2/YellowFearStop.xlsx,yes,PASS,0.029850229,,,,,,,,,0,0,0,1,0,0,0,0,0,51,51,51,,,,,,,,,,,,,,,,,,,,,,,,,,,,,,,,,,,,,,,,,,,,,,,,,,,,,,,,,,,,,,,,,,,,,,,,,,,,,,,1.86,393.6643558,None,None,1,,395.6381217,None,395.6381217,None,395.6381217,None,,,,,,,,,,,P054,FENCOG,2,Post,2022_Jun_22_1130,Go No-Go Task,2021.1.4,120.1892741
,"Rule: When you see a yellow image, do not press 'spacebar'.",Images/Happy/HF09_HE.jpg,Happy,Blue,Images/Blue.jpg,space,ParentConditions/YellowYellowBlue_v2.xlsx,YellowYellowBlue,Conditions/Version_2/YellowFearStop.xlsx,no,PASS,0.541629704,,,,,,,,,0,0,0,1,0,0,0,0,0,52,52,52,,,,,,,,,,,,,,,,,,,,,,,,,,,,,,,,,,,,,,,,,,,,,,,,,,,,,,,,,,,,,,,,,,,,,,,,,,,,,,,1.53,396.0371761,None,space,1,0.3060752,397.6708387,None,397.6708387,None,397.6708387,None,,,,,,,,,,,P054,FENCOG,2,Post,2022_Jun_22_1130,Go No-Go Task,2021.1.4,120.1892741
,"Rule: When you see a yellow image, do not press 'spacebar'.",Images/Happy/WF11_HE.jpg,Happy,Blue,Images/Blue.jpg,space,ParentConditions/YellowYellowBlue_v2.xlsx,YellowYellowBlue,Conditions/Version_2/YellowFearStop.xlsx,no,PASS,0.392339947,,,,,,,,,0,0,0,1,0,0,0,0,0,53,53,53,,,,,,,,,,,,,,,,,,,,,,,,,,,,,,,,,,,,,,,,,,,,,,,,,,,,,,,,,,,,,,,,,,,,,,,,,,,,,,,1.74,398.0730015,None,space,1,0.2881904,399.9285291,None,399.9285291,None,399.9285291,None,,,,,,,,,,,P054,FENCOG,2,Post,2022_Jun_22_1130,Go No-Go Task,2021.1.4,120.1892741
,"Rule: When you see a yellow image, do not press 'spacebar'.",Images/Fearful/AM04AFS.jpg,Fear,Yellow,Images/Yellow.jpg,None,ParentConditions/YellowYellowBlue_v2.xlsx,YellowYellowBlue,Conditions/Version_2/YellowFearStop.xlsx,yes,PASS,0.710626374,,,,,,,,,0,0,0,1,0,0,0,0,0,54,54,54,,,,,,,,,,,,,,,,,,,,,,,,,,,,,,,,,,,,,,,,,,,,,,,,,,,,,,,,,,,,,,,,,,,,,,,,,,,,,,,1.29,400.3275966,None,space,0,0.3286981,401.7279958,None,401.7279958,None,401.7279958,None,,,,,,,,,,,P054,FENCOG,2,Post,2022_Jun_22_1130,Go No-Go Task,2021.1.4,120.1892741
,"Rule: When you see a yellow image, do not press 'spacebar'.",Images/Happy/AF19HAS.jpg,Happy,Blue,Images/Blue.jpg,space,ParentConditions/YellowYellowBlue_v2.xlsx,YellowYellowBlue,Conditions/Version_2/YellowFearStop.xlsx,no,PASS,0.341912898,,,,,,,,,0,0,0,1,0,0,0,0,0,55,55,55,,,,,,,,,,,,,,,,,,,,,,,,,,,,,,,,,,,,,,,,,,,,,,,,,,,,,,,,,,,,,,,,,,,,,,,,,,,,,,,1.41,402.1246244,None,space,1,0.332312,403.6442724,None,403.6442724,None,403.6442724,None,,,,,,,,,,,P054,FENCOG,2,Post,2022_Jun_22_1130,Go No-Go Task,2021.1.4,120.1892741
,"Rule: When you see a yellow image, do not press 'spacebar'.",Images/Happy/HM06_HO.jpg,Happy,Blue,Images/Blue.jpg,space,ParentConditions/YellowYellowBlue_v2.xlsx,YellowYellowBlue,Conditions/Version_2/YellowFearStop.xlsx,no,PASS,0.821515408,,,,,,,,,0,0,0,1,0,0,0,0,0,56,56,56,,,,,,,,,,,,,,,,,,,,,,,,,,,,,,,,,,,,,,,,,,,,,,,,,,,,,,,,,,,,,,,,,,,,,,,,,,,,,,,1.68,404.0431359,None,space,1,0.2855703,405.8351087,None,405.8351087,None,405.8351087,None,,,,,,,,,,,P054,FENCOG,2,Post,2022_Jun_22_1130,Go No-Go Task,2021.1.4,120.1892741
,"Rule: When you see a yellow image, do not press 'spacebar'.",Images/Happy/HF05_HO.jpg,Happy,Blue,Images/Blue.jpg,space,ParentConditions/YellowYellowBlue_v2.xlsx,YellowYellowBlue,Conditions/Version_2/YellowFearStop.xlsx,no,PASS,0.441894519,,,,,,,,,0,0,0,1,0,0,0,0,0,57,57,57,,,,,,,,,,,,,,,,,,,,,,,,,,,,,,,,,,,,,,,,,,,,,,,,,,,,,,,,,,,,,,,,,,,,,,,,,,,,,,,1.38,406.2280716,None,space,1,0.3385545,407.7179248,None,407.7179248,None,407.7179248,None,,,,,,,,,,,P054,FENCOG,2,Post,2022_Jun_22_1130,Go No-Go Task,2021.1.4,120.1892741
,"Rule: When you see a yellow image, do not press 'spacebar'.",Images/Fearful/AF01_FO.jpg,Fear,Yellow,Images/Yellow.jpg,None,ParentConditions/YellowYellowBlue_v2.xlsx,YellowYellowBlue,Conditions/Version_2/YellowFearStop.xlsx,yes,PASS,0.963026075,,,,,,,,,0,0,0,1,0,0,0,0,0,58,58,58,,,,,,,,,,,,,,,,,,,,,,,,,,,,,,,,,,,,,,,,,,,,,,,,,,,,,,,,,,,,,,,,,,,,,,,,,,,,,,,1.85,408.1168227,None,None,1,,410.0755308,None,410.0755308,None,410.0755308,None,,,,,,,,,,,P054,FENCOG,2,Post,2022_Jun_22_1130,Go No-Go Task,2021.1.4,120.1892741
,"Rule: When you see a yellow image, do not press 'spacebar'.",Images/Happy/AF21HAS.jpg,Happy,Blue,Images/Blue.jpg,space,ParentConditions/YellowYellowBlue_v2.xlsx,YellowYellowBlue,Conditions/Version_2/YellowFearStop.xlsx,no,PASS,0.541097716,,,,,,,,,0,0,0,1,0,0,0,0,0,59,59,59,,,,,,,,,,,,,,,,,,,,,,,,,,,,,,,,,,,,,,,,,,,,,,,,,,,,,,,,,,,,,,,,,,,,,,,,,,,,,,,1.23,410.4745395,None,space,1,0.3118473,411.8167006,None,411.8167006,None,411.8167006,None,,,,,,,,,,,P054,FENCOG,2,Post,2022_Jun_22_1130,Go No-Go Task,2021.1.4,120.1892741
,"Rule: When you see a yellow image, do not press 'spacebar'.",Images/Happy/AM06_HC.jpg,Happy,Blue,Images/Blue.jpg,space,ParentConditions/YellowYellowBlue_v2.xlsx,YellowYellowBlue,Conditions/Version_2/YellowFearStop.xlsx,no,PASS,0.819545807,,,,,,,,,0,0,0,1,0,0,0,0,0,60,60,60,,,,,,,,,,,,,,,,,,,,,,,,,,,,,,,,,,,,,,,,,,,,,,,,,,,,,,,,,,,,,,,,,,,,,,,,,,,,,,,1.95,412.2163228,None,space,1,0.3580629,414.2826338,None,414.2826338,None,414.2826338,None,,,,,,,,,,,P054,FENCOG,2,Post,2022_Jun_22_1130,Go No-Go Task,2021.1.4,120.1892741
,"Rule: When you see a yellow image, do not press 'spacebar'.",Images/Fearful/AF02AFS.jpg,Fear,Yellow,Images/Yellow.jpg,None,ParentConditions/YellowYellowBlue_v2.xlsx,YellowYellowBlue,Conditions/Version_2/YellowFearStop.xlsx,yes,PASS,0.434756054,,,,,,,,,0,0,0,1,0,0,0,0,0,61,61,61,,,,,,,,,,,,,,,,,,,,,,,,,,,,,,,,,,,,,,,,,,,,,,,,,,,,,,,,,,,,,,,,,,,,,,,,,,,,,,,1.96,414.6818542,None,None,1,,416.7568899,None,416.7568899,None,416.7568899,None,,,,,,,,,,,P054,FENCOG,2,Post,2022_Jun_22_1130,Go No-Go Task,2021.1.4,120.1892741
,"Rule: When you see a yellow image, do not press 'spacebar'.",Images/Happy/AF25HAS.jpg,Happy,Blue,Images/Blue.jpg,space,ParentConditions/YellowYellowBlue_v2.xlsx,YellowYellowBlue,Conditions/Version_2/YellowFearStop.xlsx,no,PASS,0.353445622,,,,,,,,,0,0,0,1,0,0,0,0,0,62,62,62,,,,,,,,,,,,,,,,,,,,,,,,,,,,,,,,,,,,,,,,,,,,,,,,,,,,,,,,,,,,,,,,,,,,,,,,,,,,,,,1.89,417.1544674,None,space,1,0.2524407,419.1562004,None,419.1562004,None,419.1562004,None,,,,,,,,,,,P054,FENCOG,2,Post,2022_Jun_22_1130,Go No-Go Task,2021.1.4,120.1892741
,"Rule: When you see a yellow image, do not press 'spacebar'.",Images/Happy/AM32HAS.jpg,Happy,Blue,Images/Blue.jpg,space,ParentConditions/YellowYellowBlue_v2.xlsx,YellowYellowBlue,Conditions/Version_2/YellowFearStop.xlsx,no,PASS,0.108461568,,,,,,,,,0,0,0,1,0,0,0,0,0,63,63,63,,,,,,,,,,,,,,,,,,,,,,,,,,,,,,,,,,,,,,,,,,,,,,,,,,,,,,,,,,,,,,,,,,,,,,,,,,,,,,,1.2,419.5551273,None,space,1,0.3688293,420.8556421,None,420.8556421,None,420.8556421,None,,,,,,,,,,,P054,FENCOG,2,Post,2022_Jun_22_1130,Go No-Go Task,2021.1.4,120.1892741
,"Rule: When you see a yellow image, do not press 'spacebar'.",Images/Fearful/AM02_FO.jpg,Fear,Yellow,Images/Yellow.jpg,None,ParentConditions/YellowYellowBlue_v2.xlsx,YellowYellowBlue,Conditions/Version_2/YellowFearStop.xlsx,yes,PASS,0.09349205,,,,,,,,,0,0,0,1,0,0,0,0,0,64,64,64,,,,,,,,,,,,,,,,,,,,,,,,,,,,,,,,,,,,,,,,,,,,,,,,,,,,,,,,,,,,,,,,,,,,,,,,,,,,,,,1.39,421.2565077,None,None,1,,422.7550732,None,422.7550732,None,422.7550732,None,,,,,,,,,,,P054,FENCOG,2,Post,2022_Jun_22_1130,Go No-Go Task,2021.1.4,120.1892741
,"Rule: When you see a yellow image, do not press 'spacebar'.",Images/Fearful/BM02_FC.jpg,Fear,Yellow,Images/Yellow.jpg,None,ParentConditions/YellowYellowBlue_v2.xlsx,YellowYellowBlue,Conditions/Version_2/YellowFearStop.xlsx,yes,PASS,0.839077799,,,,,,,,,0,0,0,1,0,0,0,0,0,65,65,65,,,,,,,,,,,,,,,,,,,,,,,,,,,,,,,,,,,,,,,,,,,,,,,,,,,,,,,,,,,,,,,,,,,,,,,,,,,,,,,1.47,423.1523263,None,space,0,0.2875174,424.7295572,None,424.7295572,None,424.7295572,None,,,,,,,,,,,P054,FENCOG,2,Post,2022_Jun_22_1130,Go No-Go Task,2021.1.4,120.1892741
,"Rule: When you see a yellow image, do not press 'spacebar'.",Images/Happy/AM04_HE.jpg,Happy,Blue,Images/Blue.jpg,space,ParentConditions/YellowYellowBlue_v2.xlsx,YellowYellowBlue,Conditions/Version_2/YellowFearStop.xlsx,no,PASS,0.268677408,,,,,,,,,0,0,0,1,0,0,0,0,0,66,66,66,,,,,,,,,,,,,,,,,,,,,,,,,,,,,,,,,,,,,,,,,,,,,,,,,,,,,,,,,,,,,,,,,,,,,,,,,,,,,,,1.27,425.1384142,None,space,1,0.2879153,426.5206522,None,426.5206522,None,426.5206522,None,,,,,,,,,,,P054,FENCOG,2,Post,2022_Jun_22_1130,Go No-Go Task,2021.1.4,120.1892741
,"Rule: When you see a yellow image, do not press 'spacebar'.",Images/Fearful/AM05AFS.jpg,Fear,Yellow,Images/Yellow.jpg,None,ParentConditions/YellowYellowBlue_v2.xlsx,YellowYellowBlue,Conditions/Version_2/YellowFearStop.xlsx,yes,PASS,0.695126325,,,,,,,,,0,0,0,1,0,0,0,0,0,67,67,67,,,,,,,,,,,,,,,,,,,,,,,,,,,,,,,,,,,,,,,,,,,,,,,,,,,,,,,,,,,,,,,,,,,,,,,,,,,,,,,1.94,426.9196691,None,None,1,,428.9616854,None,428.9616854,None,428.9616854,None,,,,,,,,,,,P054,FENCOG,2,Post,2022_Jun_22_1130,Go No-Go Task,2021.1.4,120.1892741
,"Rule: When you see a yellow image, do not press 'spacebar'.",Images/Happy/AF28HAS.jpg,Happy,Blue,Images/Blue.jpg,space,ParentConditions/YellowYellowBlue_v2.xlsx,YellowYellowBlue,Conditions/Version_2/YellowFearStop.xlsx,no,PASS,0.25032706,,,,,,,,,0,0,0,1,0,0,0,0,0,68,68,68,,,,,,,,,,,,,,,,,,,,,,,,,,,,,,,,,,,,,,,,,,,,,,,,,,,,,,,,,,,,,,,,,,,,,,,,,,,,,,,1.58,429.3609942,None,None,0,,431.052649,None,431.052649,None,431.052649,None,,,,,,,,,,,P054,FENCOG,2,Post,2022_Jun_22_1130,Go No-Go Task,2021.1.4,120.1892741
,"Rule: When you see a yellow image, do not press 'spacebar'.",Images/Happy/AF07_HO.jpg,Happy,Blue,Images/Blue.jpg,space,ParentConditions/YellowYellowBlue_v2.xlsx,YellowYellowBlue,Conditions/Version_2/YellowFearStop.xlsx,no,PASS,0.293841477,,,,,,,,,0,0,0,1,0,0,0,0,0,69,69,69,,,,,,,,,,,,,,,,,,,,,,,,,,,,,,,,,,,,,,,,,,,,,,,,,,,,,,,,,,,,,,,,,,,,,,,,,,,,,,,1.99,431.4515752,None,space,1,0.3684556,433.551897,None,433.551897,None,433.551897,None,,,,,,,,,,,P054,FENCOG,2,Post,2022_Jun_22_1130,Go No-Go Task,2021.1.4,120.1892741
,"Rule: When you see a yellow image, do not press 'spacebar'.",Images/Happy/BF14_HO.jpg,Happy,Blue,Images/Blue.jpg,space,ParentConditions/YellowYellowBlue_v2.xlsx,YellowYellowBlue,Conditions/Version_2/YellowFearStop.xlsx,no,PASS,0.404225194,,,,,,,,,0,0,0,1,0,0,0,0,0,70,70,70,,,,,,,,,,,,,,,,,,,,,,,,,,,,,,,,,,,,,,,,,,,,,,,,,,,,,,,,,,,,,,,,,,,,,,,,,,,,,,,1.71,433.9491546,None,space,1,0.2407119,435.7679477,None,435.7679477,None,435.7679477,None,,,,,,,,,,,P054,FENCOG,2,Post,2022_Jun_22_1130,Go No-Go Task,2021.1.4,120.1892741
,"Rule: When you see a yellow image, do not press 'spacebar'.",Images/Fearful/AF07FS.jpg,Fear,Yellow,Images/Yellow.jpg,None,ParentConditions/YellowYellowBlue_v2.xlsx,YellowYellowBlue,Conditions/Version_2/YellowFearStop.xlsx,yes,PASS,0.705995446,,,,,,,,,0,0,0,1,0,0,0,0,0,71,71,71,,,,,,,,,,,,,,,,,,,,,,,,,,,,,,,,,,,,,,,,,,,,,,,,,,,,,,,,,,,,,,,,,,,,,,,,,,,,,,,1.67,436.1668708,None,None,1,,437.9507232,None,437.9507232,None,437.9507232,None,,,,,,,,,,,P054,FENCOG,2,Post,2022_Jun_22_1130,Go No-Go Task,2021.1.4,120.1892741
,"Rule: When you see a yellow image, do not press 'spacebar'.",Images/Happy/AF32HAS.jpg,Happy,Blue,Images/Blue.jpg,space,ParentConditions/YellowYellowBlue_v2.xlsx,YellowYellowBlue,Conditions/Version_2/YellowFearStop.xlsx,no,PASS,0.650593213,,,,,,,,,0,0,0,1,0,0,0,0,0,72,72,72,,,,,,,,,,,,,,,,,,,,,,,,,,,,,,,,,,,,,,,,,,,,,,,,,,,,,,,,,,,,,,,,,,,,,,,,,,,,,,,1.35,438.3495969,None,space,1,0.2887895,439.800037,None,439.800037,None,439.800037,None,,,,,,,,,,,P054,FENCOG,2,Post,2022_Jun_22_1130,Go No-Go Task,2021.1.4,120.1892741
,"Rule: When you see a yellow image, do not press 'spacebar'.",Images/Happy/AF11HAS.jpg,Happy,Blue,Images/Blue.jpg,space,ParentConditions/YellowYellowBlue_v2.xlsx,YellowYellowBlue,Conditions/Version_2/YellowFearStop.xlsx,no,PASS,0.224139368,,,,,,,,,0,0,0,1,0,0,0,0,0,73,73,73,,,,,,,,,,,,,,,,,,,,,,,,,,,,,,,,,,,,,,,,,,,,,,,,,,,,,,,,,,,,,,,,,,,,,,,,,,,,,,,1.97,440.2092229,None,space,1,0.3417221,442.2910045,None,442.2910045,None,442.2910045,None,,,,,,,,,,,P054,FENCOG,2,Post,2022_Jun_22_1130,Go No-Go Task,2021.1.4,120.1892741
,"Rule: When you see a yellow image, do not press 'spacebar'.",Images/Happy/AM19HAS.jpg,Happy,Blue,Images/Blue.jpg,space,ParentConditions/YellowYellowBlue_v2.xlsx,YellowYellowBlue,Conditions/Version_2/YellowFearStop.xlsx,no,PASS,0.536732863,,,,,,,,,0,0,0,1,0,0,0,0,0,74,74,74,,,,,,,,,,,,,,,,,,,,,,,,,,,,,,,,,,,,,,,,,,,,,,,,,,,,,,,,,,,,,,,,,,,,,,,,,,,,,,,1.43,442.6899151,None,space,1,0.2964444,444.2321799,None,444.2321799,None,444.2321799,None,,,,,,,,,,,P054,FENCOG,2,Post,2022_Jun_22_1130,Go No-Go Task,2021.1.4,120.1892741
,"Rule: When you see a yellow image, do not press 'spacebar'.",Images/Happy/AM01HAS.jpg,Happy,Blue,Images/Blue.jpg,space,ParentConditions/YellowYellowBlue_v2.xlsx,YellowYellowBlue,Conditions/Version_2/YellowFearStop.xlsx,no,PASS,0.451223887,,,,,,,,,0,0,0,1,0,0,0,0,0,75,75,75,,,,,,,,,,,,,,,,,,,,,,,,,,,,,,,,,,,,,,,,,,,,,,,,,,,,,,,,,,,,,,,,,,,,,,,,,,,,,,,1.82,444.631155,None,space,1,0.3319179,446.5646864,None,446.5646864,None,446.5646864,None,,,,,,,,,,,P054,FENCOG,2,Post,2022_Jun_22_1130,Go No-Go Task,2021.1.4,120.1892741
,"Rule: When you see a yellow image, do not press 'spacebar'.",Images/Happy/WF05_HC.jpg,Happy,Blue,Images/Blue.jpg,space,ParentConditions/YellowYellowBlue_v2.xlsx,YellowYellowBlue,Conditions/Version_2/YellowFearStop.xlsx,no,PASS,0.768149926,,,,,,,,,0,0,0,1,0,0,0,0,0,76,76,76,,,,,,,,,,,,,,,,,,,,,,,,,,,,,,,,,,,,,,,,,,,,,,,,,,,,,,,,,,,,,,,,,,,,,,,,,,,,,,,1.7,446.9659535,None,None,0,,448.780719,None,448.780719,None,448.780719,None,,,,,,,,,,,P054,FENCOG,2,Post,2022_Jun_22_1130,Go No-Go Task,2021.1.4,120.1892741
,"Rule: When you see a yellow image, do not press 'spacebar'.",Images/Happy/BM03_HO.jpg,Happy,Blue,Images/Blue.jpg,space,ParentConditions/YellowYellowBlue_v2.xlsx,YellowYellowBlue,Conditions/Version_2/YellowFearStop.xlsx,no,PASS,0.582404714,,,,,,,,,0,0,0,1,0,0,0,0,0,77,77,77,,,,,,,,,,,,,,,,,,,,,,,,,,,,,,,,,,,,,,,,,,,,,,,,,,,,,,,,,,,,,,,,,,,,,,,,,,,,,,,1.62,449.1798858,None,space,1,0.2473071,450.9051689,None,450.9051689,None,450.9051689,None,,,,,,,,,,,P054,FENCOG,2,Post,2022_Jun_22_1130,Go No-Go Task,2021.1.4,120.1892741
,"Rule: When you see a yellow image, do not press 'spacebar'.",Images/Happy/AM02_HE.jpg,Happy,Blue,Images/Blue.jpg,space,ParentConditions/YellowYellowBlue_v2.xlsx,YellowYellowBlue,Conditions/Version_2/YellowFearStop.xlsx,no,PASS,0.879106835,,,,,,,,,0,0,0,1,0,0,0,0,0,78,78,78,,,,,,,,,,,,,,,,,,,,,,,,,,,,,,,,,,,,,,,,,,,,,,,,,,,,,,,,,,,,,,,,,,,,,,,,,,,,,,,2,451.3139408,None,space,1,0.275171,453.429389,None,453.429389,None,453.429389,None,,,,,,,,,,,P054,FENCOG,2,Post,2022_Jun_22_1130,Go No-Go Task,2021.1.4,120.1892741
,"Rule: When you see a yellow image, do not press 'spacebar'.",Images/Fearful/AM06_FO.jpg,Fear,Yellow,Images/Yellow.jpg,None,ParentConditions/YellowYellowBlue_v2.xlsx,YellowYellowBlue,Conditions/Version_2/YellowFearStop.xlsx,yes,PASS,0.40627236,,,,,,,,,0,0,0,1,0,0,0,0,0,79,79,79,,,,,,,,,,,,,,,,,,,,,,,,,,,,,,,,,,,,,,,,,,,,,,,,,,,,,,,,,,,,,,,,,,,,,,,,,,,,,,,1.4,453.8285649,None,space,0,0.3518057,455.3287913,None,455.3287913,None,455.3287913,None,,,,,,,,,,,P054,FENCOG,2,Post,2022_Jun_22_1130,Go No-Go Task,2021.1.4,120.1892741
,"Rule: When you see a yellow image, do not press 'spacebar'.",Images/Scram2/HM09_NC.jpg,Scramble,Blue,Images/Blue.jpg,space,ParentConditions/YellowYellowBlue_v2.xlsx,YellowYellowBlue,Conditions/Version_2/YellowScramStop.xlsx,no,PASS,0.467198202,,,,,,,,,0,0,0,1,0,1,1,1,0,0,0,0,,,,,,,,,,,,,,,,,,,,,,,,,,,,,,,,,,,,,,,,,,,,,,,,,,,,,,,,,,,,,,,,,525.177011,None,528.1729864,None,space,2.9796087,528.1729864,None,525.177011,None,525.177011,None,525.177011,None,1.45,531.2162699,None,space,1,0.2825044,532.7821238,None,532.7821238,None,532.7821238,None,455.7457684,None,space,68.9241666,456.2362468,None,455.7457684,None,455.7457684,None,P054,FENCOG,2,Post,2022_Jun_22_1130,Go No-Go Task,2021.1.4,120.1892741
,"Rule: When you see a yellow image, do not press 'spacebar'.",Images/Scram2/HM06_NC.jpg,Scramble,Blue,Images/Blue.jpg,space,ParentConditions/YellowYellowBlue_v2.xlsx,YellowYellowBlue,Conditions/Version_2/YellowScramStop.xlsx,no,PASS,0.564231422,,,,,,,,,0,0,0,1,0,1,1,1,0,1,1,1,,,,,,,,,,,,,,,,,,,,,,,,,,,,,,,,,,,,,,,,,,,,,,,,,,,,,,,,,,,,,,,,,,,,,,,,,,,,,,,1.73,533.1768289,None,space,1,0.2752343,535.013591,None,535.013591,None,535.013591,None,,,,,,,,,,,P054,FENCOG,2,Post,2022_Jun_22_1130,Go No-Go Task,2021.1.4,120.1892741
,"Rule: When you see a yellow image, do not press 'spacebar'.",Images/Scram1/AM31NES.jpg,Scramble,Blue,Images/Blue.jpg,space,ParentConditions/YellowYellowBlue_v2.xlsx,YellowYellowBlue,Conditions/Version_2/YellowScramStop.xlsx,no,PASS,0.846238331,,,,,,,,,0,0,0,1,0,1,1,1,0,2,2,2,,,,,,,,,,,,,,,,,,,,,,,,,,,,,,,,,,,,,,,,,,,,,,,,,,,,,,,,,,,,,,,,,,,,,,,,,,,,,,,1.84,535.4139279,None,space,1,0.2699655,537.3626572,None,537.3626572,None,537.3626572,None,,,,,,,,,,,P054,FENCOG,2,Post,2022_Jun_22_1130,Go No-Go Task,2021.1.4,120.1892741
,"Rule: When you see a yellow image, do not press 'spacebar'.",Images/Scram2/AM03NES.jpg,Scramble,Yellow,Images/Yellow.jpg,None,ParentConditions/YellowYellowBlue_v2.xlsx,YellowYellowBlue,Conditions/Version_2/YellowScramStop.xlsx,yes,PASS,0.356648368,,,,,,,,,0,0,0,1,0,1,1,1,0,3,3,3,,,,,,,,,,,,,,,,,,,,,,,,,,,,,,,,,,,,,,,,,,,,,,,,,,,,,,,,,,,,,,,,,,,,,,,,,,,,,,,1.48,537.7617357,None,None,1,,539.3456373,None,539.3456373,None,539.3456373,None,,,,,,,,,,,P054,FENCOG,2,Post,2022_Jun_22_1130,Go No-Go Task,2021.1.4,120.1892741
,"Rule: When you see a yellow image, do not press 'spacebar'.",Images/Scram2/BM01_NC.jpg,Scramble,Blue,Images/Blue.jpg,space,ParentConditions/YellowYellowBlue_v2.xlsx,YellowYellowBlue,Conditions/Version_2/YellowScramStop.xlsx,no,PASS,0.630051582,,,,,,,,,0,0,0,1,0,1,1,1,0,4,4,4,,,,,,,,,,,,,,,,,,,,,,,,,,,,,,,,,,,,,,,,,,,,,,,,,,,,,,,,,,,,,,,,,,,,,,,,,,,,,,,1.35,539.7551615,None,space,1,0.2685126,541.2200764,None,541.2200764,None,541.2200764,None,,,,,,,,,,,P054,FENCOG,2,Post,2022_Jun_22_1130,Go No-Go Task,2021.1.4,120.1892741
,"Rule: When you see a yellow image, do not press 'spacebar'.",Images/Scram1/HM09_NC.jpg,Scramble,Blue,Images/Blue.jpg,space,ParentConditions/YellowYellowBlue_v2.xlsx,YellowYellowBlue,Conditions/Version_2/YellowScramStop.xlsx,no,PASS,0.968195201,,,,,,,,,0,0,0,1,0,1,1,1,0,5,5,5,,,,,,,,,,,,,,,,,,,,,,,,,,,,,,,,,,,,,,,,,,,,,,,,,,,,,,,,,,,,,,,,,,,,,,,,,,,,,,,1.91,541.6192224,None,space,1,0.2682254,543.6444278,None,543.6444278,None,543.6444278,None,,,,,,,,,,,P054,FENCOG,2,Post,2022_Jun_22_1130,Go No-Go Task,2021.1.4,120.1892741
,"Rule: When you see a yellow image, do not press 'spacebar'.",Images/Scram2/BF07_NC.jpg,Scramble,Blue,Images/Blue.jpg,space,ParentConditions/YellowYellowBlue_v2.xlsx,YellowYellowBlue,Conditions/Version_2/YellowScramStop.xlsx,no,PASS,0.216462677,,,,,,,,,0,0,0,1,0,1,1,1,0,6,6,6,,,,,,,,,,,,,,,,,,,,,,,,,,,,,,,,,,,,,,,,,,,,,,,,,,,,,,,,,,,,,,,,,,,,,,,,,,,,,,,1.34,544.0435001,None,space,1,0.2669826,545.4938331,None,545.4938331,None,545.4938331,None,,,,,,,,,,,P054,FENCOG,2,Post,2022_Jun_22_1130,Go No-Go Task,2021.1.4,120.1892741
,"Rule: When you see a yellow image, do not press 'spacebar'.",Images/Scram1/BF14_NC.jpg,Scramble,Blue,Images/Blue.jpg,space,ParentConditions/YellowYellowBlue_v2.xlsx,YellowYellowBlue,Conditions/Version_2/YellowScramStop.xlsx,no,PASS,0.98466437,,,,,,,,,0,0,0,1,0,1,1,1,0,7,7,7,,,,,,,,,,,,,,,,,,,,,,,,,,,,,,,,,,,,,,,,,,,,,,,,,,,,,,,,,,,,,,,,,,,,,,,,,,,,,,,1.99,545.8862895,None,space,1,0.3674908,547.9931106,None,547.9931106,None,547.9931106,None,,,,,,,,,,,P054,FENCOG,2,Post,2022_Jun_22_1130,Go No-Go Task,2021.1.4,120.1892741
,"Rule: When you see a yellow image, do not press 'spacebar'.",Images/Scram2/AF10_NC.jpg,Scramble,Blue,Images/Blue.jpg,space,ParentConditions/YellowYellowBlue_v2.xlsx,YellowYellowBlue,Conditions/Version_2/YellowScramStop.xlsx,no,PASS,0.244361435,,,,,,,,,0,0,0,1,0,1,1,1,0,8,8,8,,,,,,,,,,,,,,,,,,,,,,,,,,,,,,,,,,,,,,,,,,,,,,,,,,,,,,,,,,,,,,,,,,,,,,,,,,,,,,,1.78,548.3837243,None,space,1,0.2365767,550.2756462,None,550.2756462,None,550.2756462,None,,,,,,,,,,,P054,FENCOG,2,Post,2022_Jun_22_1130,Go No-Go Task,2021.1.4,120.1892741
,"Rule: When you see a yellow image, do not press 'spacebar'.",Images/Scram2/AF01_NC.jpg,Scramble,Blue,Images/Blue.jpg,space,ParentConditions/YellowYellowBlue_v2.xlsx,YellowYellowBlue,Conditions/Version_2/YellowScramStop.xlsx,no,PASS,0.541807789,,,,,,,,,0,0,0,1,0,1,1,1,0,9,9,9,,,,,,,,,,,,,,,,,,,,,,,,,,,,,,,,,,,,,,,,,,,,,,,,,,,,,,,,,,,,,,,,,,,,,,,,,,,,,,,1.89,550.6747428,None,space,1,0.285251,552.6750618,None,552.6750618,None,552.6750618,None,,,,,,,,,,,P054,FENCOG,2,Post,2022_Jun_22_1130,Go No-Go Task,2021.1.4,120.1892741
,"Rule: When you see a yellow image, do not press 'spacebar'.",Images/Scram2/AF24NES.jpg,Scramble,Blue,Images/Blue.jpg,space,ParentConditions/YellowYellowBlue_v2.xlsx,YellowYellowBlue,Conditions/Version_2/YellowScramStop.xlsx,no,PASS,0.567934295,,,,,,,,,0,0,0,1,0,1,1,1,0,10,10,10,,,,,,,,,,,,,,,,,,,,,,,,,,,,,,,,,,,,,,,,,,,,,,,,,,,,,,,,,,,,,,,,,,,,,,,,,,,,,,,1.31,553.0740966,None,space,1,0.2368455,554.4995089,None,554.4995089,None,554.4995089,None,,,,,,,,,,,P054,FENCOG,2,Post,2022_Jun_22_1130,Go No-Go Task,2021.1.4,120.1892741
,"Rule: When you see a yellow image, do not press 'spacebar'.",Images/Scram2/BF14_NC.jpg,Scramble,Blue,Images/Blue.jpg,space,ParentConditions/YellowYellowBlue_v2.xlsx,YellowYellowBlue,Conditions/Version_2/YellowScramStop.xlsx,no,PASS,0.88251792,,,,,,,,,0,0,0,1,0,1,1,1,0,11,11,11,,,,,,,,,,,,,,,,,,,,,,,,,,,,,,,,,,,,,,,,,,,,,,,,,,,,,,,,,,,,,,,,,,,,,,,,,,,,,,,1.36,554.8985931,None,space,1,0.2986846,556.3739092,None,556.3739092,None,556.3739092,None,,,,,,,,,,,P054,FENCOG,2,Post,2022_Jun_22_1130,Go No-Go Task,2021.1.4,120.1892741
,"Rule: When you see a yellow image, do not press 'spacebar'.",Images/Scram1/AM13NES.jpg,Scramble,Blue,Images/Blue.jpg,space,ParentConditions/YellowYellowBlue_v2.xlsx,YellowYellowBlue,Conditions/Version_2/YellowScramStop.xlsx,no,PASS,0.210436477,,,,,,,,,0,0,0,1,0,1,1,1,0,12,12,12,,,,,,,,,,,,,,,,,,,,,,,,,,,,,,,,,,,,,,,,,,,,,,,,,,,,,,,,,,,,,,,,,,,,,,,,,,,,,,,1.95,556.7773392,None,space,1,0.2888124,558.8315429,None,558.8315429,None,558.8315429,None,,,,,,,,,,,P054,FENCOG,2,Post,2022_Jun_22_1130,Go No-Go Task,2021.1.4,120.1892741
,"Rule: When you see a yellow image, do not press 'spacebar'.",Images/Scram1/HM04_NC.jpg,Scramble,Blue,Images/Blue.jpg,space,ParentConditions/YellowYellowBlue_v2.xlsx,YellowYellowBlue,Conditions/Version_2/YellowScramStop.xlsx,no,PASS,0.048118245,,,,,,,,,0,0,0,1,0,1,1,1,0,13,13,13,,,,,,,,,,,,,,,,,,,,,,,,,,,,,,,,,,,,,,,,,,,,,,,,,,,,,,,,,,,,,,,,,,,,,,,,,,,,,,,1.62,559.2307204,None,space,1,0.2602774,560.9642518,None,560.9642518,None,560.9642518,None,,,,,,,,,,,P054,FENCOG,2,Post,2022_Jun_22_1130,Go No-Go Task,2021.1.4,120.1892741
,"Rule: When you see a yellow image, do not press 'spacebar'.",Images/Scram1/AM03NES.jpg,Scramble,Blue,Images/Blue.jpg,space,ParentConditions/YellowYellowBlue_v2.xlsx,YellowYellowBlue,Conditions/Version_2/YellowScramStop.xlsx,no,PASS,0.507240762,,,,,,,,,0,0,0,1,0,1,1,1,0,14,14,14,,,,,,,,,,,,,,,,,,,,,,,,,,,,,,,,,,,,,,,,,,,,,,,,,,,,,,,,,,,,,,,,,,,,,,,,,,,,,,,1.21,561.3589657,None,space,1,0.2564047,562.6720789,None,562.6720789,None,562.6720789,None,,,,,,,,,,,P054,FENCOG,2,Post,2022_Jun_22_1130,Go No-Go Task,2021.1.4,120.1892741
,"Rule: When you see a yellow image, do not press 'spacebar'.",Images/Scram1/AM22NES.jpg,Scramble,Blue,Images/Blue.jpg,space,ParentConditions/YellowYellowBlue_v2.xlsx,YellowYellowBlue,Conditions/Version_2/YellowScramStop.xlsx,no,PASS,0.833273647,,,,,,,,,0,0,0,1,0,1,1,1,0,15,15,15,,,,,,,,,,,,,,,,,,,,,,,,,,,,,,,,,,,,,,,,,,,,,,,,,,,,,,,,,,,,,,,,,,,,,,,,,,,,,,,1.94,563.0734591,None,space,1,0.2789183,565.1296236,None,565.1296236,None,565.1296236,None,,,,,,,,,,,P054,FENCOG,2,Post,2022_Jun_22_1130,Go No-Go Task,2021.1.4,120.1892741
,"Rule: When you see a yellow image, do not press 'spacebar'.",Images/Scram2/AM17NES.jpg,Scramble,Yellow,Images/Yellow.jpg,None,ParentConditions/YellowYellowBlue_v2.xlsx,YellowYellowBlue,Conditions/Version_2/YellowScramStop.xlsx,yes,PASS,0.552444031,,,,,,,,,0,0,0,1,0,1,1,1,0,16,16,16,,,,,,,,,,,,,,,,,,,,,,,,,,,,,,,,,,,,,,,,,,,,,,,,,,,,,,,,,,,,,,,,,,,,,,,,,,,,,,,1.82,565.5294149,None,None,1,,567.4623396,None,567.4623396,None,567.4623396,None,,,,,,,,,,,P054,FENCOG,2,Post,2022_Jun_22_1130,Go No-Go Task,2021.1.4,120.1892741
,"Rule: When you see a yellow image, do not press 'spacebar'.",Images/Scram1/AM10NES.jpg,Scramble,Blue,Images/Blue.jpg,space,ParentConditions/YellowYellowBlue_v2.xlsx,YellowYellowBlue,Conditions/Version_2/YellowScramStop.xlsx,no,PASS,0.136997305,,,,,,,,,0,0,0,1,0,1,1,1,0,17,17,17,,,,,,,,,,,,,,,,,,,,,,,,,,,,,,,,,,,,,,,,,,,,,,,,,,,,,,,,,,,,,,,,,,,,,,,,,,,,,,,1.93,567.855923,None,space,1,0.2494384,569.8950258,None,569.8950258,None,569.8950258,None,,,,,,,,,,,P054,FENCOG,2,Post,2022_Jun_22_1130,Go No-Go Task,2021.1.4,120.1892741
,"Rule: When you see a yellow image, do not press 'spacebar'.",Images/Scram2/AM03_NC.jpg,Scramble,Yellow,Images/Yellow.jpg,None,ParentConditions/YellowYellowBlue_v2.xlsx,YellowYellowBlue,Conditions/Version_2/YellowScramStop.xlsx,yes,PASS,0.28869549,,,,,,,,,0,0,0,1,0,1,1,1,0,18,18,18,,,,,,,,,,,,,,,,,,,,,,,,,,,,,,,,,,,,,,,,,,,,,,,,,,,,,,,,,,,,,,,,,,,,,,,,,,,,,,,1.76,570.2940112,None,space,0,0.2715796,572.1610177,None,572.1610177,None,572.1610177,None,,,,,,,,,,,P054,FENCOG,2,Post,2022_Jun_22_1130,Go No-Go Task,2021.1.4,120.1892741
,"Rule: When you see a yellow image, do not press 'spacebar'.",Images/Scram1/HF09_NC.jpg,Scramble,Blue,Images/Blue.jpg,space,ParentConditions/YellowYellowBlue_v2.xlsx,YellowYellowBlue,Conditions/Version_2/YellowScramStop.xlsx,no,PASS,0.521047178,,,,,,,,,0,0,0,1,0,1,1,1,0,19,19,19,,,,,,,,,,,,,,,,,,,,,,,,,,,,,,,,,,,,,,,,,,,,,,,,,,,,,,,,,,,,,,,,,,,,,,,,,,,,,,,1.54,572.56138,None,space,1,0.3499941,574.2104336,None,574.2104336,None,574.2104336,None,,,,,,,,,,,P054,FENCOG,2,Post,2022_Jun_22_1130,Go No-Go Task,2021.1.4,120.1892741
,"Rule: When you see a yellow image, do not press 'spacebar'.",Images/Scram1/BM08_NC.jpg,Scramble,Blue,Images/Blue.jpg,space,ParentConditions/YellowYellowBlue_v2.xlsx,YellowYellowBlue,Conditions/Version_2/YellowScramStop.xlsx,no,PASS,0.719220711,,,,,,,,,0,0,0,1,0,1,1,1,0,20,20,20,,,,,,,,,,,,,,,,,,,,,,,,,,,,,,,,,,,,,,,,,,,,,,,,,,,,,,,,,,,,,,,,,,,,,,,,,,,,,,,1.37,574.6092466,None,space,1,0.3158378,576.076589,None,576.076589,None,576.076589,None,,,,,,,,,,,P054,FENCOG,2,Post,2022_Jun_22_1130,Go No-Go Task,2021.1.4,120.1892741
,"Rule: When you see a yellow image, do not press 'spacebar'.",Images/Scram1/AF32NES.jpg,Scramble,Blue,Images/Blue.jpg,space,ParentConditions/YellowYellowBlue_v2.xlsx,YellowYellowBlue,Conditions/Version_2/YellowScramStop.xlsx,no,PASS,0.385670692,,,,,,,,,0,0,0,1,0,1,1,1,0,21,21,21,,,,,,,,,,,,,,,,,,,,,,,,,,,,,,,,,,,,,,,,,,,,,,,,,,,,,,,,,,,,,,,,,,,,,,,,,,,,,,,1.97,576.4796763,None,space,1,0.2813476,578.5590545,None,578.5590545,None,578.5590545,None,,,,,,,,,,,P054,FENCOG,2,Post,2022_Jun_22_1130,Go No-Go Task,2021.1.4,120.1892741
,"Rule: When you see a yellow image, do not press 'spacebar'.",Images/Scram2/AM06_NC.jpg,Scramble,Yellow,Images/Yellow.jpg,None,ParentConditions/YellowYellowBlue_v2.xlsx,YellowYellowBlue,Conditions/Version_2/YellowScramStop.xlsx,yes,PASS,0.593844607,,,,,,,,,0,0,0,1,0,1,1,1,0,22,22,22,,,,,,,,,,,,,,,,,,,,,,,,,,,,,,,,,,,,,,,,,,,,,,,,,,,,,,,,,,,,,,,,,,,,,,,,,,,,,,,1.2,578.9579449,None,None,1,,580.2668896,None,580.2668896,None,580.2668896,None,,,,,,,,,,,P054,FENCOG,2,Post,2022_Jun_22_1130,Go No-Go Task,2021.1.4,120.1892741
,"Rule: When you see a yellow image, do not press 'spacebar'.",Images/Scram1/AM06_NC.jpg,Scramble,Blue,Images/Blue.jpg,space,ParentConditions/YellowYellowBlue_v2.xlsx,YellowYellowBlue,Conditions/Version_2/YellowScramStop.xlsx,no,PASS,0.559775199,,,,,,,,,0,0,0,1,0,1,1,1,0,23,23,23,,,,,,,,,,,,,,,,,,,,,,,,,,,,,,,,,,,,,,,,,,,,,,,,,,,,,,,,,,,,,,,,,,,,,,,,,,,,,,,1.29,580.6658669,None,space,1,0.2941579,582.0663395,None,582.0663395,None,582.0663395,None,,,,,,,,,,,P054,FENCOG,2,Post,2022_Jun_22_1130,Go No-Go Task,2021.1.4,120.1892741
,"Rule: When you see a yellow image, do not press 'spacebar'.",Images/Scram2/AM02_NC.jpg,Scramble,Yellow,Images/Yellow.jpg,None,ParentConditions/YellowYellowBlue_v2.xlsx,YellowYellowBlue,Conditions/Version_2/YellowScramStop.xlsx,yes,PASS,0.210145354,,,,,,,,,0,0,0,1,0,1,1,1,0,24,24,24,,,,,,,,,,,,,,,,,,,,,,,,,,,,,,,,,,,,,,,,,,,,,,,,,,,,,,,,,,,,,,,,,,,,,,,,,,,,,,,1.77,582.4585247,None,None,1,,584.3406582,None,584.3406582,None,584.3406582,None,,,,,,,,,,,P054,FENCOG,2,Post,2022_Jun_22_1130,Go No-Go Task,2021.1.4,120.1892741
,"Rule: When you see a yellow image, do not press 'spacebar'.",Images/Scram2/HF05_NC.jpg,Scramble,Blue,Images/Blue.jpg,space,ParentConditions/YellowYellowBlue_v2.xlsx,YellowYellowBlue,Conditions/Version_2/YellowScramStop.xlsx,no,PASS,0.002509143,,,,,,,,,0,0,0,1,0,1,1,1,0,25,25,25,,,,,,,,,,,,,,,,,,,,,,,,,,,,,,,,,,,,,,,,,,,,,,,,,,,,,,,,,,,,,,,,,,,,,,,,,,,,,,,1.88,584.7395273,None,space,1,0.2529407,586.73169,None,586.73169,None,586.73169,None,,,,,,,,,,,P054,FENCOG,2,Post,2022_Jun_22_1130,Go No-Go Task,2021.1.4,120.1892741
,"Rule: When you see a yellow image, do not press 'spacebar'.",Images/Scram2/AF32NES.jpg,Scramble,Yellow,Images/Yellow.jpg,None,ParentConditions/YellowYellowBlue_v2.xlsx,YellowYellowBlue,Conditions/Version_2/YellowScramStop.xlsx,yes,PASS,0.562163804,,,,,,,,,0,0,0,1,0,1,1,1,0,26,26,26,,,,,,,,,,,,,,,,,,,,,,,,,,,,,,,,,,,,,,,,,,,,,,,,,,,,,,,,,,,,,,,,,,,,,,,,,,,,,,,1.4,587.1305802,None,None,1,,588.6394271,None,588.6394271,None,588.6394271,None,,,,,,,,,,,P054,FENCOG,2,Post,2022_Jun_22_1130,Go No-Go Task,2021.1.4,120.1892741
,"Rule: When you see a yellow image, do not press 'spacebar'.",Images/Scram2/HM04_NC.jpg,Scramble,Blue,Images/Blue.jpg,space,ParentConditions/YellowYellowBlue_v2.xlsx,YellowYellowBlue,Conditions/Version_2/YellowScramStop.xlsx,no,PASS,0.365696178,,,,,,,,,0,0,0,1,0,1,1,1,0,27,27,27,,,,,,,,,,,,,,,,,,,,,,,,,,,,,,,,,,,,,,,,,,,,,,,,,,,,,,,,,,,,,,,,,,,,,,,,,,,,,,,1.59,589.0383935,None,space,1,0.3094573,590.7390156,None,590.7390156,None,590.7390156,None,,,,,,,,,,,P054,FENCOG,2,Post,2022_Jun_22_1130,Go No-Go Task,2021.1.4,120.1892741
,"Rule: When you see a yellow image, do not press 'spacebar'.",Images/Scram2/AF25NES.jpg,Scramble,Blue,Images/Blue.jpg,space,ParentConditions/YellowYellowBlue_v2.xlsx,YellowYellowBlue,Conditions/Version_2/YellowScramStop.xlsx,no,PASS,0.242967324,,,,,,,,,0,0,0,1,0,1,1,1,0,28,28,28,,,,,,,,,,,,,,,,,,,,,,,,,,,,,,,,,,,,,,,,,,,,,,,,,,,,,,,,,,,,,,,,,,,,,,,,,,,,,,,1.83,591.1376952,None,space,1,0.2729706,593.0797442,None,593.0797442,None,593.0797442,None,,,,,,,,,,,P054,FENCOG,2,Post,2022_Jun_22_1130,Go No-Go Task,2021.1.4,120.1892741
,"Rule: When you see a yellow image, do not press 'spacebar'.",Images/Scram1/AF34NES.jpg,Scramble,Blue,Images/Blue.jpg,space,ParentConditions/YellowYellowBlue_v2.xlsx,YellowYellowBlue,Conditions/Version_2/YellowScramStop.xlsx,no,PASS,0.294797095,,,,,,,,,0,0,0,1,0,1,1,1,0,29,29,29,,,,,,,,,,,,,,,,,,,,,,,,,,,,,,,,,,,,,,,,,,,,,,,,,,,,,,,,,,,,,,,,,,,,,,,,,,,,,,,1.86,593.4800051,None,space,1,0.3302306,595.4541389,None,595.4541389,None,595.4541389,None,,,,,,,,,,,P054,FENCOG,2,Post,2022_Jun_22_1130,Go No-Go Task,2021.1.4,120.1892741
,"Rule: When you see a yellow image, do not press 'spacebar'.",Images/Scram2/AF11NES.jpg,Scramble,Blue,Images/Blue.jpg,space,ParentConditions/YellowYellowBlue_v2.xlsx,YellowYellowBlue,Conditions/Version_2/YellowScramStop.xlsx,no,PASS,0.061126936,,,,,,,,,0,0,0,1,0,1,1,1,0,30,30,30,,,,,,,,,,,,,,,,,,,,,,,,,,,,,,,,,,,,,,,,,,,,,,,,,,,,,,,,,,,,,,,,,,,,,,,,,,,,,,,1.67,595.8529433,None,None,0,,597.6451738,None,597.6451738,None,597.6451738,None,,,,,,,,,,,P054,FENCOG,2,Post,2022_Jun_22_1130,Go No-Go Task,2021.1.4,120.1892741
,"Rule: When you see a yellow image, do not press 'spacebar'.",Images/Scram2/AF34NES.jpg,Scramble,Yellow,Images/Yellow.jpg,None,ParentConditions/YellowYellowBlue_v2.xlsx,YellowYellowBlue,Conditions/Version_2/YellowScramStop.xlsx,yes,PASS,0.36837427,,,,,,,,,0,0,0,1,0,1,1,1,0,31,31,31,,,,,,,,,,,,,,,,,,,,,,,,,,,,,,,,,,,,,,,,,,,,,,,,,,,,,,,,,,,,,,,,,,,,,,,,,,,,,,,1.46,598.0357724,None,None,1,,599.6112307,None,599.6112307,None,599.6112307,None,,,,,,,,,,,P054,FENCOG,2,Post,2022_Jun_22_1130,Go No-Go Task,2021.1.4,120.1892741
,"Rule: When you see a yellow image, do not press 'spacebar'.",Images/Scram1/AM02_NC.jpg,Scramble,Blue,Images/Blue.jpg,space,ParentConditions/YellowYellowBlue_v2.xlsx,YellowYellowBlue,Conditions/Version_2/YellowScramStop.xlsx,no,PASS,0.700401743,,,,,,,,,0,0,0,1,0,1,1,1,0,32,32,32,,,,,,,,,,,,,,,,,,,,,,,,,,,,,,,,,,,,,,,,,,,,,,,,,,,,,,,,,,,,,,,,,,,,,,,,,,,,,,,1.49,600.0031721,None,space,1,0.2701343,601.6022406,None,601.6022406,None,601.6022406,None,,,,,,,,,,,P054,FENCOG,2,Post,2022_Jun_22_1130,Go No-Go Task,2021.1.4,120.1892741
,"Rule: When you see a yellow image, do not press 'spacebar'.",Images/Scram2/AM13NES.jpg,Scramble,Yellow,Images/Yellow.jpg,None,ParentConditions/YellowYellowBlue_v2.xlsx,YellowYellowBlue,Conditions/Version_2/YellowScramStop.xlsx,yes,PASS,0.703766843,,,,,,,,,0,0,0,1,0,1,1,1,0,33,33,33,,,,,,,,,,,,,,,,,,,,,,,,,,,,,,,,,,,,,,,,,,,,,,,,,,,,,,,,,,,,,,,,,,,,,,,,,,,,,,,1.66,602.0343646,None,space,0,0.2785706,603.8099117,None,603.8099117,None,603.8099117,None,,,,,,,,,,,P054,FENCOG,2,Post,2022_Jun_22_1130,Go No-Go Task,2021.1.4,120.1892741
,"Rule: When you see a yellow image, do not press 'spacebar'.",Images/Scram1/AM03_NC.jpg,Scramble,Blue,Images/Blue.jpg,space,ParentConditions/YellowYellowBlue_v2.xlsx,YellowYellowBlue,Conditions/Version_2/YellowScramStop.xlsx,no,PASS,0.139847361,,,,,,,,,0,0,0,1,0,1,1,1,0,34,34,34,,,,,,,,,,,,,,,,,,,,,,,,,,,,,,,,,,,,,,,,,,,,,,,,,,,,,,,,,,,,,,,,,,,,,,,,,,,,,,,1.7,604.208965,None,None,0,,606.0177062,None,606.0177062,None,606.0177062,None,,,,,,,,,,,P054,FENCOG,2,Post,2022_Jun_22_1130,Go No-Go Task,2021.1.4,120.1892741
,"Rule: When you see a yellow image, do not press 'spacebar'.",Images/Scram1/AF33NES.jpg,Scramble,Blue,Images/Blue.jpg,space,ParentConditions/YellowYellowBlue_v2.xlsx,YellowYellowBlue,Conditions/Version_2/YellowScramStop.xlsx,no,PASS,0.747996868,,,,,,,,,0,0,0,1,0,1,1,1,0,35,35,35,,,,,,,,,,,,,,,,,,,,,,,,,,,,,,,,,,,,,,,,,,,,,,,,,,,,,,,,,,,,,,,,,,,,,,,,,,,,,,,1.53,606.4172743,None,space,1,0.3416078,608.0586649,None,608.0586649,None,608.0586649,None,,,,,,,,,,,P054,FENCOG,2,Post,2022_Jun_22_1130,Go No-Go Task,2021.1.4,120.1892741
,"Rule: When you see a yellow image, do not press 'spacebar'.",Images/Scram1/BF10_NC.jpg,Scramble,Blue,Images/Blue.jpg,space,ParentConditions/YellowYellowBlue_v2.xlsx,YellowYellowBlue,Conditions/Version_2/YellowScramStop.xlsx,no,PASS,0.522563927,,,,,,,,,0,0,0,1,0,1,1,1,0,36,36,36,,,,,,,,,,,,,,,,,,,,,,,,,,,,,,,,,,,,,,,,,,,,,,,,,,,,,,,,,,,,,,,,,,,,,,,,,,,,,,,1.68,608.4575912,None,space,1,0.31084,610.2497595,None,610.2497595,None,610.2497595,None,,,,,,,,,,,P054,FENCOG,2,Post,2022_Jun_22_1130,Go No-Go Task,2021.1.4,120.1892741
,"Rule: When you see a yellow image, do not press 'spacebar'.",Images/Scram1/AF07_NC.jpg,Scramble,Blue,Images/Blue.jpg,space,ParentConditions/YellowYellowBlue_v2.xlsx,YellowYellowBlue,Conditions/Version_2/YellowScramStop.xlsx,no,PASS,0.522100253,,,,,,,,,0,0,0,1,0,1,1,1,0,37,37,37,,,,,,,,,,,,,,,,,,,,,,,,,,,,,,,,,,,,,,,,,,,,,,,,,,,,,,,,,,,,,,,,,,,,,,,,,,,,,,,1.9,610.6486681,None,space,1,0.3029823,612.6573943,None,612.6573943,None,612.6573943,None,,,,,,,,,,,P054,FENCOG,2,Post,2022_Jun_22_1130,Go No-Go Task,2021.1.4,120.1892741
,"Rule: When you see a yellow image, do not press 'spacebar'.",Images/Scram2/AM23NES.jpg,Scramble,Yellow,Images/Yellow.jpg,None,ParentConditions/YellowYellowBlue_v2.xlsx,YellowYellowBlue,Conditions/Version_2/YellowScramStop.xlsx,yes,PASS,0.181954991,,,,,,,,,0,0,0,1,0,1,1,1,0,38,38,38,,,,,,,,,,,,,,,,,,,,,,,,,,,,,,,,,,,,,,,,,,,,,,,,,,,,,,,,,,,,,,,,,,,,,,,,,,,,,,,1.55,613.056346,None,space,0,0.3173682,614.7150402,None,614.7150402,None,614.7150402,None,,,,,,,,,,,P054,FENCOG,2,Post,2022_Jun_22_1130,Go No-Go Task,2021.1.4,120.1892741
,"Rule: When you see a yellow image, do not press 'spacebar'.",Images/Scram1/AF24NES.jpg,Scramble,Blue,Images/Blue.jpg,space,ParentConditions/YellowYellowBlue_v2.xlsx,YellowYellowBlue,Conditions/Version_2/YellowScramStop.xlsx,no,PASS,0.664038939,,,,,,,,,0,0,0,1,0,1,1,1,0,39,39,39,,,,,,,,,,,,,,,,,,,,,,,,,,,,,,,,,,,,,,,,,,,,,,,,,,,,,,,,,,,,,,,,,,,,,,,,,,,,,,,1.5,615.1140766,None,space,1,0.254165,616.7144267,None,616.7144267,None,616.7144267,None,,,,,,,,,,,P054,FENCOG,2,Post,2022_Jun_22_1130,Go No-Go Task,2021.1.4,120.1892741
,"Rule: When you see a yellow image, do not press 'spacebar'.",Images/Scram2/AF33NES.jpg,Scramble,Yellow,Images/Yellow.jpg,None,ParentConditions/YellowYellowBlue_v2.xlsx,YellowYellowBlue,Conditions/Version_2/YellowScramStop.xlsx,yes,PASS,0.620382602,,,,,,,,,0,0,0,1,0,1,1,1,0,40,40,40,,,,,,,,,,,,,,,,,,,,,,,,,,,,,,,,,,,,,,,,,,,,,,,,,,,,,,,,,,,,,,,,,,,,,,,,,,,,,,,1.72,617.1135019,None,space,0,0.3172509,618.9471868,None,618.9471868,None,618.9471868,None,,,,,,,,,,,P054,FENCOG,2,Post,2022_Jun_22_1130,Go No-Go Task,2021.1.4,120.1892741
,"Rule: When you see a yellow image, do not press 'spacebar'.",Images/Scram1/AF25NES.jpg,Scramble,Blue,Images/Blue.jpg,space,ParentConditions/YellowYellowBlue_v2.xlsx,YellowYellowBlue,Conditions/Version_2/YellowScramStop.xlsx,no,PASS,0.051415465,,,,,,,,,0,0,0,1,0,1,1,1,0,41,41,41,,,,,,,,,,,,,,,,,,,,,,,,,,,,,,,,,,,,,,,,,,,,,,,,,,,,,,,,,,,,,,,,,,,,,,,,,,,,,,,1.71,619.3462559,None,space,1,0.2847604,621.1715472,None,621.1715472,None,621.1715472,None,,,,,,,,,,,P054,FENCOG,2,Post,2022_Jun_22_1130,Go No-Go Task,2021.1.4,120.1892741
,"Rule: When you see a yellow image, do not press 'spacebar'.",Images/Scram2/AM10NES.jpg,Scramble,Yellow,Images/Yellow.jpg,None,ParentConditions/YellowYellowBlue_v2.xlsx,YellowYellowBlue,Conditions/Version_2/YellowScramStop.xlsx,yes,PASS,0.126774301,,,,,,,,,0,0,0,1,0,1,1,1,0,42,42,42,,,,,,,,,,,,,,,,,,,,,,,,,,,,,,,,,,,,,,,,,,,,,,,,,,,,,,,,,,,,,,,,,,,,,,,,,,,,,,,1.75,621.57051,None,None,1,,623.4292022,None,623.4292022,None,623.4292022,None,,,,,,,,,,,P054,FENCOG,2,Post,2022_Jun_22_1130,Go No-Go Task,2021.1.4,120.1892741
,"Rule: When you see a yellow image, do not press 'spacebar'.",Images/Scram2/BF10_NC.jpg,Scramble,Blue,Images/Blue.jpg,space,ParentConditions/YellowYellowBlue_v2.xlsx,YellowYellowBlue,Conditions/Version_2/YellowScramStop.xlsx,no,PASS,0.220165605,,,,,,,,,0,0,0,1,0,1,1,1,0,43,43,43,,,,,,,,,,,,,,,,,,,,,,,,,,,,,,,,,,,,,,,,,,,,,,,,,,,,,,,,,,,,,,,,,,,,,,,,,,,,,,,1.79,623.8283342,None,space,1,0.2242106,625.7284473,None,625.7284473,None,625.7284473,None,,,,,,,,,,,P054,FENCOG,2,Post,2022_Jun_22_1130,Go No-Go Task,2021.1.4,120.1892741
,"Rule: When you see a yellow image, do not press 'spacebar'.",Images/Scram1/BF18_NC.jpg,Scramble,Blue,Images/Blue.jpg,space,ParentConditions/YellowYellowBlue_v2.xlsx,YellowYellowBlue,Conditions/Version_2/YellowScramStop.xlsx,no,PASS,0.11487632,,,,,,,,,0,0,0,1,0,1,1,1,0,44,44,44,,,,,,,,,,,,,,,,,,,,,,,,,,,,,,,,,,,,,,,,,,,,,,,,,,,,,,,,,,,,,,,,,,,,,,,,,,,,,,,1.85,626.1275977,None,None,0,,628.078898,None,628.078898,None,628.078898,None,,,,,,,,,,,P054,FENCOG,2,Post,2022_Jun_22_1130,Go No-Go Task,2021.1.4,120.1892741
,"Rule: When you see a yellow image, do not press 'spacebar'.",Images/Scram2/HF09_NC.jpg,Scramble,Blue,Images/Blue.jpg,space,ParentConditions/YellowYellowBlue_v2.xlsx,YellowYellowBlue,Conditions/Version_2/YellowScramStop.xlsx,no,PASS,0.20475492,,,,,,,,,0,0,0,1,0,1,1,1,0,45,45,45,,,,,,,,,,,,,,,,,,,,,,,,,,,,,,,,,,,,,,,,,,,,,,,,,,,,,,,,,,,,,,,,,,,,,,,,,,,,,,,1.33,628.480271,None,space,1,0.313037,629.9193795,None,629.9193795,None,629.9193795,None,,,,,,,,,,,P054,FENCOG,2,Post,2022_Jun_22_1130,Go No-Go Task,2021.1.4,120.1892741
,"Rule: When you see a yellow image, do not press 'spacebar'.",Images/Scram1/BF05_NC.jpg,Scramble,Blue,Images/Blue.jpg,space,ParentConditions/YellowYellowBlue_v2.xlsx,YellowYellowBlue,Conditions/Version_2/YellowScramStop.xlsx,no,PASS,0.668549712,,,,,,,,,0,0,0,1,0,1,1,1,0,46,46,46,,,,,,,,,,,,,,,,,,,,,,,,,,,,,,,,,,,,,,,,,,,,,,,,,,,,,,,,,,,,,,,,,,,,,,,,,,,,,,,1.96,630.3180541,None,space,1,0.2957211,632.3929878,None,632.3929878,None,632.3929878,None,,,,,,,,,,,P054,FENCOG,2,Post,2022_Jun_22_1130,Go No-Go Task,2021.1.4,120.1892741
,"Rule: When you see a yellow image, do not press 'spacebar'.",Images/Scram1/AM17NES.jpg,Scramble,Blue,Images/Blue.jpg,space,ParentConditions/YellowYellowBlue_v2.xlsx,YellowYellowBlue,Conditions/Version_2/YellowScramStop.xlsx,no,PASS,0.557554983,,,,,,,,,0,0,0,1,0,1,1,1,0,47,47,47,,,,,,,,,,,,,,,,,,,,,,,,,,,,,,,,,,,,,,,,,,,,,,,,,,,,,,,,,,,,,,,,,,,,,,,,,,,,,,,1.58,632.7922374,None,space,1,0.2840377,634.4841797,None,634.4841797,None,634.4841797,None,,,,,,,,,,,P054,FENCOG,2,Post,2022_Jun_22_1130,Go No-Go Task,2021.1.4,120.1892741
,"Rule: When you see a yellow image, do not press 'spacebar'.",Images/Scram2/AM09_NC.jpg,Scramble,Yellow,Images/Yellow.jpg,None,ParentConditions/YellowYellowBlue_v2.xlsx,YellowYellowBlue,Conditions/Version_2/YellowScramStop.xlsx,yes,PASS,0.084904739,,,,,,,,,0,0,0,1,0,1,1,1,0,48,48,48,,,,,,,,,,,,,,,,,,,,,,,,,,,,,,,,,,,,,,,,,,,,,,,,,,,,,,,,,,,,,,,,,,,,,,,,,,,,,,,2,634.8801429,None,None,1,,636.9918705,None,636.9918705,None,636.9918705,None,,,,,,,,,,,P054,FENCOG,2,Post,2022_Jun_22_1130,Go No-Go Task,2021.1.4,120.1892741
,"Rule: When you see a yellow image, do not press 'spacebar'.",Images/Scram2/AF09NES.jpg,Scramble,Blue,Images/Blue.jpg,space,ParentConditions/YellowYellowBlue_v2.xlsx,YellowYellowBlue,Conditions/Version_2/YellowScramStop.xlsx,no,PASS,0.851192202,,,,,,,,,0,0,0,1,0,1,1,1,0,49,49,49,,,,,,,,,,,,,,,,,,,,,,,,,,,,,,,,,,,,,,,,,,,,,,,,,,,,,,,,,,,,,,,,,,,,,,,,,,,,,,,1.23,637.3908446,None,space,1,0.2912422,638.7332996,None,638.7332996,None,638.7332996,None,,,,,,,,,,,P054,FENCOG,2,Post,2022_Jun_22_1130,Go No-Go Task,2021.1.4,120.1892741
,"Rule: When you see a yellow image, do not press 'spacebar'.",Images/Scram2/AM04_NC.jpg,Scramble,Yellow,Images/Yellow.jpg,None,ParentConditions/YellowYellowBlue_v2.xlsx,YellowYellowBlue,Conditions/Version_2/YellowScramStop.xlsx,yes,PASS,0.971173892,,,,,,,,,0,0,0,1,0,1,1,1,0,50,50,50,,,,,,,,,,,,,,,,,,,,,,,,,,,,,,,,,,,,,,,,,,,,,,,,,,,,,,,,,,,,,,,,,,,,,,,,,,,,,,,1.22,639.1319618,None,None,1,,640.4658417,None,640.4658417,None,640.4658417,None,,,,,,,,,,,P054,FENCOG,2,Post,2022_Jun_22_1130,Go No-Go Task,2021.1.4,120.1892741
,"Rule: When you see a yellow image, do not press 'spacebar'.",Images/Scram2/BF05_NC.jpg,Scramble,Yellow,Images/Yellow.jpg,None,ParentConditions/YellowYellowBlue_v2.xlsx,YellowYellowBlue,Conditions/Version_2/YellowScramStop.xlsx,yes,PASS,0.368466089,,,,,,,,,0,0,0,1,0,1,1,1,0,51,51,51,,,,,,,,,,,,,,,,,,,,,,,,,,,,,,,,,,,,,,,,,,,,,,,,,,,,,,,,,,,,,,,,,,,,,,,,,,,,,,,1.57,640.8617498,None,None,1,,642.5318324,None,642.5318324,None,642.5318324,None,,,,,,,,,,,P054,FENCOG,2,Post,2022_Jun_22_1130,Go No-Go Task,2021.1.4,120.1892741
,"Rule: When you see a yellow image, do not press 'spacebar'.",Images/Scram1/HM06_NC.jpg,Scramble,Blue,Images/Blue.jpg,space,ParentConditions/YellowYellowBlue_v2.xlsx,YellowYellowBlue,Conditions/Version_2/YellowScramStop.xlsx,no,PASS,0.5754529,,,,,,,,,0,0,0,1,0,1,1,1,0,52,52,52,,,,,,,,,,,,,,,,,,,,,,,,,,,,,,,,,,,,,,,,,,,,,,,,,,,,,,,,,,,,,,,,,,,,,,,,,,,,,,,1.61,642.9325751,None,space,1,0.2724966,644.6479269,None,644.6479269,None,644.6479269,None,,,,,,,,,,,P054,FENCOG,2,Post,2022_Jun_22_1130,Go No-Go Task,2021.1.4,120.1892741
,"Rule: When you see a yellow image, do not press 'spacebar'.",Images/Scram2/AF07NES.jpg,Scramble,Blue,Images/Blue.jpg,space,ParentConditions/YellowYellowBlue_v2.xlsx,YellowYellowBlue,Conditions/Version_2/YellowScramStop.xlsx,no,PASS,0.507777947,,,,,,,,,0,0,0,1,0,1,1,1,0,53,53,53,,,,,,,,,,,,,,,,,,,,,,,,,,,,,,,,,,,,,,,,,,,,,,,,,,,,,,,,,,,,,,,,,,,,,,,,,,,,,,,1.28,645.048231,None,space,1,0.2655994,646.4390545,None,646.4390545,None,646.4390545,None,,,,,,,,,,,P054,FENCOG,2,Post,2022_Jun_22_1130,Go No-Go Task,2021.1.4,120.1892741
,"Rule: When you see a yellow image, do not press 'spacebar'.",Images/Scram1/BM01_NC.jpg,Scramble,Blue,Images/Blue.jpg,space,ParentConditions/YellowYellowBlue_v2.xlsx,YellowYellowBlue,Conditions/Version_2/YellowScramStop.xlsx,no,PASS,0.616228629,,,,,,,,,0,0,0,1,0,1,1,1,0,54,54,54,,,,,,,,,,,,,,,,,,,,,,,,,,,,,,,,,,,,,,,,,,,,,,,,,,,,,,,,,,,,,,,,,,,,,,,,,,,,,,,1.87,646.8441383,None,space,1,0.2509661,648.8216214,None,648.8216214,None,648.8216214,None,,,,,,,,,,,P054,FENCOG,2,Post,2022_Jun_22_1130,Go No-Go Task,2021.1.4,120.1892741
,"Rule: When you see a yellow image, do not press 'spacebar'.",Images/Scram2/AF07_NC.jpg,Scramble,Blue,Images/Blue.jpg,space,ParentConditions/YellowYellowBlue_v2.xlsx,YellowYellowBlue,Conditions/Version_2/YellowScramStop.xlsx,no,PASS,0.139477545,,,,,,,,,0,0,0,1,0,1,1,1,0,55,55,55,,,,,,,,,,,,,,,,,,,,,,,,,,,,,,,,,,,,,,,,,,,,,,,,,,,,,,,,,,,,,,,,,,,,,,,,,,,,,,,1.98,649.2252249,None,space,1,0.2554542,651.3208783,None,651.3208783,None,651.3208783,None,,,,,,,,,,,P054,FENCOG,2,Post,2022_Jun_22_1130,Go No-Go Task,2021.1.4,120.1892741
,"Rule: When you see a yellow image, do not press 'spacebar'.",Images/Scram1/AF10_NC.jpg,Scramble,Blue,Images/Blue.jpg,space,ParentConditions/YellowYellowBlue_v2.xlsx,YellowYellowBlue,Conditions/Version_2/YellowScramStop.xlsx,no,PASS,0.816406664,,,,,,,,,0,0,0,1,0,1,1,1,0,56,56,56,,,,,,,,,,,,,,,,,,,,,,,,,,,,,,,,,,,,,,,,,,,,,,,,,,,,,,,,,,,,,,,,,,,,,,,,,,,,,,,1.43,651.7199537,None,space,1,0.2746683,653.2537022,None,653.2537022,None,653.2537022,None,,,,,,,,,,,P054,FENCOG,2,Post,2022_Jun_22_1130,Go No-Go Task,2021.1.4,120.1892741
,"Rule: When you see a yellow image, do not press 'spacebar'.",Images/Scram1/AM09NES.jpg,Scramble,Blue,Images/Blue.jpg,space,ParentConditions/YellowYellowBlue_v2.xlsx,YellowYellowBlue,Conditions/Version_2/YellowScramStop.xlsx,no,PASS,0.22221234,,,,,,,,,0,0,0,1,0,1,1,1,0,57,57,57,,,,,,,,,,,,,,,,,,,,,,,,,,,,,,,,,,,,,,,,,,,,,,,,,,,,,,,,,,,,,,,,,,,,,,,,,,,,,,,1.42,653.6565445,None,space,1,0.2542388,655.1864418,None,655.1864418,None,655.1864418,None,,,,,,,,,,,P054,FENCOG,2,Post,2022_Jun_22_1130,Go No-Go Task,2021.1.4,120.1892741
,"Rule: When you see a yellow image, do not press 'spacebar'.",Images/Scram1/AF01_NC.jpg,Scramble,Blue,Images/Blue.jpg,space,ParentConditions/YellowYellowBlue_v2.xlsx,YellowYellowBlue,Conditions/Version_2/YellowScramStop.xlsx,no,PASS,0.246774092,,,,,,,,,0,0,0,1,0,1,1,1,0,58,58,58,,,,,,,,,,,,,,,,,,,,,,,,,,,,,,,,,,,,,,,,,,,,,,,,,,,,,,,,,,,,,,,,,,,,,,,,,,,,,,,1.32,655.5853176,None,space,1,0.3810443,657.0191849,None,657.0191849,None,657.0191849,None,,,,,,,,,,,P054,FENCOG,2,Post,2022_Jun_22_1130,Go No-Go Task,2021.1.4,120.1892741
,"Rule: When you see a yellow image, do not press 'spacebar'.",Images/Scram1/AM09_NC.jpg,Scramble,Blue,Images/Blue.jpg,space,ParentConditions/YellowYellowBlue_v2.xlsx,YellowYellowBlue,Conditions/Version_2/YellowScramStop.xlsx,no,PASS,0.094765065,,,,,,,,,0,0,0,1,0,1,1,1,0,59,59,59,,,,,,,,,,,,,,,,,,,,,,,,,,,,,,,,,,,,,,,,,,,,,,,,,,,,,,,,,,,,,,,,,,,,,,,,,,,,,,,1.38,657.4195478,None,space,1,0.281981,658.9103408,None,658.9103408,None,658.9103408,None,,,,,,,,,,,P054,FENCOG,2,Post,2022_Jun_22_1130,Go No-Go Task,2021.1.4,120.1892741
,"Rule: When you see a yellow image, do not press 'spacebar'.",Images/Scram1/AF11NES.jpg,Scramble,Blue,Images/Blue.jpg,space,ParentConditions/YellowYellowBlue_v2.xlsx,YellowYellowBlue,Conditions/Version_2/YellowScramStop.xlsx,no,PASS,0.816203215,,,,,,,,,0,0,0,1,0,1,1,1,0,60,60,60,,,,,,,,,,,,,,,,,,,,,,,,,,,,,,,,,,,,,,,,,,,,,,,,,,,,,,,,,,,,,,,,,,,,,,,,,,,,,,,1.56,659.30725,None,space,1,0.2720061,660.9763645,None,660.9763645,None,660.9763645,None,,,,,,,,,,,P054,FENCOG,2,Post,2022_Jun_22_1130,Go No-Go Task,2021.1.4,120.1892741
,"Rule: When you see a yellow image, do not press 'spacebar'.",Images/Scram1/BF07_NC.jpg,Scramble,Blue,Images/Blue.jpg,space,ParentConditions/YellowYellowBlue_v2.xlsx,YellowYellowBlue,Conditions/Version_2/YellowScramStop.xlsx,no,PASS,0.861380317,,,,,,,,,0,0,0,1,0,1,1,1,0,61,61,61,,,,,,,,,,,,,,,,,,,,,,,,,,,,,,,,,,,,,,,,,,,,,,,,,,,,,,,,,,,,,,,,,,,,,,,,,,,,,,,1.47,661.3727224,None,space,1,0.256916,662.9674816,None,662.9674816,None,662.9674816,None,,,,,,,,,,,P054,FENCOG,2,Post,2022_Jun_22_1130,Go No-Go Task,2021.1.4,120.1892741
,"Rule: When you see a yellow image, do not press 'spacebar'.",Images/Scram2/AM34NES.JPG,Scramble,Yellow,Images/Yellow.jpg,None,ParentConditions/YellowYellowBlue_v2.xlsx,YellowYellowBlue,Conditions/Version_2/YellowScramStop.xlsx,yes,PASS,0.763888663,,,,,,,,,0,0,0,1,0,1,1,1,0,62,62,62,,,,,,,,,,,,,,,,,,,,,,,,,,,,,,,,,,,,,,,,,,,,,,,,,,,,,,,,,,,,,,,,,,,,,,,,,,,,,,,1.81,663.3583211,None,None,1,,665.2834195,None,665.2834195,None,665.2834195,None,,,,,,,,,,,P054,FENCOG,2,Post,2022_Jun_22_1130,Go No-Go Task,2021.1.4,120.1892741
,"Rule: When you see a yellow image, do not press 'spacebar'.",Images/Scram1/AM04_NC.jpg,Scramble,Blue,Images/Blue.jpg,space,ParentConditions/YellowYellowBlue_v2.xlsx,YellowYellowBlue,Conditions/Version_2/YellowScramStop.xlsx,no,PASS,0.164498839,,,,,,,,,0,0,0,1,0,1,1,1,0,63,63,63,,,,,,,,,,,,,,,,,,,,,,,,,,,,,,,,,,,,,,,,,,,,,,,,,,,,,,,,,,,,,,,,,,,,,,,,,,,,,,,1.64,665.6827666,None,space,1,0.2798835,667.4245429,None,667.4245429,None,667.4245429,None,,,,,,,,,,,P054,FENCOG,2,Post,2022_Jun_22_1130,Go No-Go Task,2021.1.4,120.1892741
,"Rule: When you see a yellow image, do not press 'spacebar'.",Images/Scram1/AM23NES.jpg,Scramble,Blue,Images/Blue.jpg,space,ParentConditions/YellowYellowBlue_v2.xlsx,YellowYellowBlue,Conditions/Version_2/YellowScramStop.xlsx,no,PASS,0.89755373,,,,,,,,,0,0,0,1,0,1,1,1,0,64,64,64,,,,,,,,,,,,,,,,,,,,,,,,,,,,,,,,,,,,,,,,,,,,,,,,,,,,,,,,,,,,,,,,,,,,,,,,,,,,,,,1.65,667.8269782,None,space,1,0.2338461,669.5905435,None,669.5905435,None,669.5905435,None,,,,,,,,,,,P054,FENCOG,2,Post,2022_Jun_22_1130,Go No-Go Task,2021.1.4,120.1892741
,"Rule: When you see a yellow image, do not press 'spacebar'.",Images/Scram2/HF10_NO.jpg,Scramble,Blue,Images/Blue.jpg,space,ParentConditions/YellowYellowBlue_v2.xlsx,YellowYellowBlue,Conditions/Version_2/YellowScramStop.xlsx,no,PASS,0.213307383,,,,,,,,,0,0,0,1,0,1,1,1,0,65,65,65,,,,,,,,,,,,,,,,,,,,,,,,,,,,,,,,,,,,,,,,,,,,,,,,,,,,,,,,,,,,,,,,,,,,,,,,,,,,,,,1.24,669.9894355,None,space,1,0.2364628,671.3399812,None,671.3399812,None,671.3399812,None,,,,,,,,,,,P054,FENCOG,2,Post,2022_Jun_22_1130,Go No-Go Task,2021.1.4,120.1892741
,"Rule: When you see a yellow image, do not press 'spacebar'.",Images/Scram1/AF07NES.jpg,Scramble,Blue,Images/Blue.jpg,space,ParentConditions/YellowYellowBlue_v2.xlsx,YellowYellowBlue,Conditions/Version_2/YellowScramStop.xlsx,no,PASS,0.89486803,,,,,,,,,0,0,0,1,0,1,1,1,0,66,66,66,,,,,,,,,,,,,,,,,,,,,,,,,,,,,,,,,,,,,,,,,,,,,,,,,,,,,,,,,,,,,,,,,,,,,,,,,,,,,,,1.27,671.7388358,None,space,1,0.2539591,673.1144752,None,673.1144752,None,673.1144752,None,,,,,,,,,,,P054,FENCOG,2,Post,2022_Jun_22_1130,Go No-Go Task,2021.1.4,120.1892741
,"Rule: When you see a yellow image, do not press 'spacebar'.",Images/Scram2/AM09NES.jpg,Scramble,Yellow,Images/Yellow.jpg,None,ParentConditions/YellowYellowBlue_v2.xlsx,YellowYellowBlue,Conditions/Version_2/YellowScramStop.xlsx,yes,PASS,0.022411188,,,,,,,,,0,0,0,1,0,1,1,1,0,67,67,67,,,,,,,,,,,,,,,,,,,,,,,,,,,,,,,,,,,,,,,,,,,,,,,,,,,,,,,,,,,,,,,,,,,,,,,,,,,,,,,1.6,673.5156897,None,space,0,0.2738243,675.2306268,None,675.2306268,None,675.2306268,None,,,,,,,,,,,P054,FENCOG,2,Post,2022_Jun_22_1130,Go No-Go Task,2021.1.4,120.1892741
,"Rule: When you see a yellow image, do not press 'spacebar'.",Images/Scram2/BM08_NC.jpg,Scramble,Blue,Images/Blue.jpg,space,ParentConditions/YellowYellowBlue_v2.xlsx,YellowYellowBlue,Conditions/Version_2/YellowScramStop.xlsx,no,PASS,0.037962351,,,,,,,,,0,0,0,1,0,1,1,1,0,68,68,68,,,,,,,,,,,,,,,,,,,,,,,,,,,,,,,,,,,,,,,,,,,,,,,,,,,,,,,,,,,,,,,,,,,,,,,,,,,,,,,1.74,675.6332517,None,space,1,0.2321032,677.4880956,None,677.4880956,None,677.4880956,None,,,,,,,,,,,P054,FENCOG,2,Post,2022_Jun_22_1130,Go No-Go Task,2021.1.4,120.1892741
,"Rule: When you see a yellow image, do not press 'spacebar'.",Images/Scram2/AF30NES.JPG,Scramble,Yellow,Images/Yellow.jpg,None,ParentConditions/YellowYellowBlue_v2.xlsx,YellowYellowBlue,Conditions/Version_2/YellowScramStop.xlsx,yes,PASS,0.453117145,,,,,,,,,0,0,0,1,0,1,1,1,0,69,69,69,,,,,,,,,,,,,,,,,,,,,,,,,,,,,,,,,,,,,,,,,,,,,,,,,,,,,,,,,,,,,,,,,,,,,,,,,,,,,,,1.25,677.8908484,None,space,0,0.2020383,679.2543382,None,679.2543382,None,679.2543382,None,,,,,,,,,,,P054,FENCOG,2,Post,2022_Jun_22_1130,Go No-Go Task,2021.1.4,120.1892741
,"Rule: When you see a yellow image, do not press 'spacebar'.",Images/Scram1/AM34NES.JPG,Scramble,Blue,Images/Blue.jpg,space,ParentConditions/YellowYellowBlue_v2.xlsx,YellowYellowBlue,Conditions/Version_2/YellowScramStop.xlsx,no,PASS,0.334727558,,,,,,,,,0,0,0,1,0,1,1,1,0,70,70,70,,,,,,,,,,,,,,,,,,,,,,,,,,,,,,,,,,,,,,,,,,,,,,,,,,,,,,,,,,,,,,,,,,,,,,,,,,,,,,,1.26,679.6533261,None,space,1,0.2837308,681.0287002,None,681.0287002,None,681.0287002,None,,,,,,,,,,,P054,FENCOG,2,Post,2022_Jun_22_1130,Go No-Go Task,2021.1.4,120.1892741
