CondFileP,InstructionsP,LettersDisplayedP,CorrectnessP,CondFile,Instructions,LettersDisplayed,Correctness,practicetrials.thisRepN,practicetrials.thisTrialN,practicetrials.thisN,practicetrials.thisIndex,InnerLoopPractice.thisRepN,InnerLoopPractice.thisTrialN,InnerLoopPractice.thisN,InnerLoopPractice.thisIndex,trials.thisRepN,trials.thisTrialN,trials.thisN,trials.thisIndex,InnerLoop.thisRepN,InnerLoop.thisTrialN,InnerLoop.thisN,InnerLoop.thisIndex,TaskVersionText.started,TaskVersionText.stopped,InstrKey1.keys,InstrKey1.rt,InstrKey1.started,InstrKey1.stopped,text.started,text.stopped,key_resp_4.keys,key_resp_4.rt,key_resp_4.started,key_resp_4.stopped,text_2.started,text_2.stopped,key_resp_3.keys,key_resp_3.rt,key_resp_3.started,key_resp_3.stopped,text_3.started,text_3.stopped,key_resp_2.keys,key_resp_2.rt,key_resp_2.started,key_resp_2.stopped,PractIn1.started,PractIn1.stopped,PractIn2.started,PractIn2.stopped,PractInstructionPass.keys,PractInstructionPass.rt,PractInstructionPass.started,PractInstructionPass.stopped,PractBlock1.started,PractBlock1.stopped,ISIjitterPractice,ISI_Pract_Fixation.started,ISI_Pract_Fixation.stopped,N_backP.started,N_backP.stopped,KeyPractice.keys,KeyPractice.corr,KeyPractice.rt,KeyPractice.started,KeyPractice.stopped,text_4.started,text_4.stopped,TransitionText.started,TransitionText.stopped,key_resp_6.keys,key_resp_6.rt,key_resp_6.started,key_resp_6.stopped,text_5.started,text_5.stopped,key_resp_5.keys,key_resp_5.rt,key_resp_5.started,key_resp_5.stopped,MainInt1.started,MainInt1.stopped,MainInt2.started,MainInt2.stopped,InstructionPass.keys,InstructionPass.rt,InstructionPass.started,InstructionPass.stopped,Blocks1.started,Blocks1.stopped,ISIjitter,N_backD.started,N_backD.stopped,key_resp.keys,key_resp.corr,key_resp.started,key_resp.stopped,key_resp.rt,participant,Study Name,Task Version (required to run),PRE/POST,date,expName,psychopyVersion,frameRate
,,,,,,,,,,,,,,,,,,,,,,,,25.503793,None,space,31.3372682,25.9974041,None,,,,,,,,,,,,,,,,,,,,,,,,,,,,,,,,,,,,,,,,,,,,,,,,,,,,,,,,,,,,,,,,,,,,,,,P001,fencog,2,Post,2021_Jun_29_1208,N-Back (New Version 2021),2021.1.4,119.6060655
,,,,,,,,,,,,,,,,,,,,,,,,,,,,,,57.3683551,None,space,10.2153594,57.8634426,None,,,,,,,,,,,,,,,,,,,,,,,,,,,,,,,,,,,,,,,,,,,,,,,,,,,,,,,,,,,,,,,,,P001,fencog,2,Post,2021_Jun_29_1208,N-Back (New Version 2021),2021.1.4,119.6060655
,,,,,,,,,,,,,,,,,,,,,,,,,,,,,,,,,,,,68.1311588,None,space,19.44373,68.627045,None,,,,,,,,,,,,,,,,,,,,,,,,,,,,,,,,,,,,,,,,,,,,,,,,,,,,,,,,,,,P001,fencog,2,Post,2021_Jun_29_1208,N-Back (New Version 2021),2021.1.4,119.6060655
,,,,,,,,,,,,,,,,,,,,,,,,,,,,,,,,,,,,,,,,,,88.0957887,None,space,12.5390031,88.5876819,None,,,,,,,,,,,,,,,,,,,,,,,,,,,,,,,,,,,,,,,,,,,,,,,,,,,,,P001,fencog,2,Post,2021_Jun_29_1208,N-Back (New Version 2021),2021.1.4,119.6060655
Conditions/Version_2Pr/zeroback(1)_v2.xlsx,Rule: Press 'space' when you see the letter 'x' or 'X'.,x,space,,,,,0,0,0,0,0,0,0,0,,,,,,,,,,,,,,,,,,,,,,,,,,,,,,,,,102.4913108,None,105.4753313,None,space,0.5472416,105.4753313,None,102.4913108,None,1.715,106.0500416,None,107.7718583,None,space,1,0.3464889,107.7718583,None,108.1356773,None,,,,,,,,,,,,,,,,,,,,,,,,,,,,,,,P001,fencog,2,Post,2021_Jun_29_1208,N-Back (New Version 2021),2021.1.4,119.6060655
Conditions/Version_2Pr/zeroback(1)_v2.xlsx,Rule: Press 'space' when you see the letter 'x' or 'X'.,R,None,,,,,0,0,0,0,0,1,1,1,,,,,,,,,,,,,,,,,,,,,,,,,,,,,,,,,,,,,,,,,,,2.015,109.6389277,None,111.6578051,None,None,1,,111.6578051,None,113.6628168,None,,,,,,,,,,,,,,,,,,,,,,,,,,,,,,,P001,fencog,2,Post,2021_Jun_29_1208,N-Back (New Version 2021),2021.1.4,119.6060655
Conditions/Version_2Pr/zeroback(1)_v2.xlsx,Rule: Press 'space' when you see the letter 'x' or 'X'.,p,None,,,,,0,0,0,0,0,2,2,2,,,,,,,,,,,,,,,,,,,,,,,,,,,,,,,,,,,,,,,,,,,1.615,115.162474,None,116.7791016,None,None,1,,116.7791016,None,118.7810445,None,,,,,,,,,,,,,,,,,,,,,,,,,,,,,,,P001,fencog,2,Post,2021_Jun_29_1208,N-Back (New Version 2021),2021.1.4,119.6060655
Conditions/Version_2Pr/zeroback(1)_v2.xlsx,Rule: Press 'space' when you see the letter 'x' or 'X'.,O,None,,,,,0,0,0,0,0,3,3,3,,,,,,,,,,,,,,,,,,,,,,,,,,,,,,,,,,,,,,,,,,,1.815,120.28593,None,122.1049432,None,None,1,,122.1049432,None,124.1096147,None,,,,,,,,,,,,,,,,,,,,,,,,,,,,,,,P001,fencog,2,Post,2021_Jun_29_1208,N-Back (New Version 2021),2021.1.4,119.6060655
Conditions/Version_2Pr/zeroback(1)_v2.xlsx,Rule: Press 'space' when you see the letter 'x' or 'X'.,i,None,,,,,0,0,0,0,0,4,4,4,,,,,,,,,,,,,,,,,,,,,,,,,,,,,,,,,,,,,,,,,,,1.315,125.6092543,None,126.9258238,None,None,1,,126.9258238,None,128.9247895,None,,,,,,,,,,,,,,,,,,,,,,,,,,,,,,,P001,fencog,2,Post,2021_Jun_29_1208,N-Back (New Version 2021),2021.1.4,119.6060655
Conditions/Version_2Pr/zeroback(1)_v2.xlsx,Rule: Press 'space' when you see the letter 'x' or 'X'.,U,None,,,,,0,0,0,0,0,5,5,5,,,,,,,,,,,,,,,,,,,,,,,,,,,,,,,,,,,,,,,,,,,1.44,130.4245747,None,131.8692558,None,None,1,,131.8692558,None,133.8734696,None,,,,,,,,,,,,,,,,,,,,,,,,,,,,,,,P001,fencog,2,Post,2021_Jun_29_1208,N-Back (New Version 2021),2021.1.4,119.6060655
Conditions/Version_2Pr/zeroback(1)_v2.xlsx,Rule: Press 'space' when you see the letter 'x' or 'X'.,N,None,,,,,0,0,0,0,0,6,6,6,,,,,,,,,,,,,,,,,,,,,,,,,,,,,,,,,,,,,,,,,,,1.09,135.3729429,None,136.4676122,None,None,1,,136.4676122,None,138.472221,None,,,,,,,,,,,,,,,,,,,,,,,,,,,,,,,P001,fencog,2,Post,2021_Jun_29_1208,N-Back (New Version 2021),2021.1.4,119.6060655
Conditions/Version_2Pr/zeroback(1)_v2.xlsx,Rule: Press 'space' when you see the letter 'x' or 'X'.,m,None,,,,,0,0,0,0,0,7,7,7,,,,,,,,,,,,,,,,,,,,,,,,,,,,,,,,,,,,,,,,,,,1.265,139.9717477,None,141.2396987,None,None,1,,141.2396987,None,143.2455314,None,,,,,,,,,,,,,,,,,,,,,,,,,,,,,,,P001,fencog,2,Post,2021_Jun_29_1208,N-Back (New Version 2021),2021.1.4,119.6060655
Conditions/Version_2Pr/zeroback(1)_v2.xlsx,Rule: Press 'space' when you see the letter 'x' or 'X'.,x,space,,,,,0,0,0,0,0,8,8,8,,,,,,,,,,,,,,,,,,,,,,,,,,,,,,,,,,,,,,,,,,,1.565,144.74532,None,146.3130237,None,space,1,0.3256501,146.3130237,None,146.6543601,None,,,,,,,,,,,,,,,,,,,,,,,,,,,,,,,P001,fencog,2,Post,2021_Jun_29_1208,N-Back (New Version 2021),2021.1.4,119.6060655
Conditions/Version_2Pr/zeroback(1)_v2.xlsx,Rule: Press 'space' when you see the letter 'x' or 'X'.,X,space,,,,,0,0,0,0,0,9,9,9,,,,,,,,,,,,,,,,,,,,,,,,,,,,,,,,,,,,,,,,,,,1.215,148.1608534,None,149.3818326,None,space,1,0.4726302,149.3818326,None,149.8700237,None,,,,,,,,,,,,,,,,,,,,,,,,,,,,,,,P001,fencog,2,Post,2021_Jun_29_1208,N-Back (New Version 2021),2021.1.4,119.6060655
Conditions/Version_2Pr/zeroback(1)_v2.xlsx,Rule: Press 'space' when you see the letter 'x' or 'X'.,,,,,,,0,0,0,0,,,,,,,,,,,,,,,,,,,,,,,,,,,,,,,,,,,,,,,,,,,,,,,,,,,,,,,,,,,,,,,,,,,,,,,,,,,,,,,,,,,,,,,,,P001,fencog,2,Post,2021_Jun_29_1208,N-Back (New Version 2021),2021.1.4,119.6060655
Conditions/Version_2Pr/oneback(1)_v2.xlsx,New rule: Press 'space' when you see 1-back (i.e. the same letter as the one that appeared 1 letter ago.),r,None,,,,,0,1,1,1,0,0,0,0,,,,,,,,,,,,,,,,,,,,,,,,,,,,,,,,,151.4060941,None,154.3863749,None,space,0.7161191,154.3863749,None,151.4060941,None,1.865,155.1251264,None,156.9948908,None,None,1,,156.9948908,None,158.9994521,None,,,,,,,,,,,,,,,,,,,,,,,,,,,,,,,P001,fencog,2,Post,2021_Jun_29_1208,N-Back (New Version 2021),2021.1.4,119.6060655
Conditions/Version_2Pr/oneback(1)_v2.xlsx,New rule: Press 'space' when you see 1-back (i.e. the same letter as the one that appeared 1 letter ago.),t,None,,,,,0,1,1,1,0,1,1,1,,,,,,,,,,,,,,,,,,,,,,,,,,,,,,,,,,,,,,,,,,,1.215,160.4990563,None,161.7193157,None,None,1,,161.7193157,None,163.7230495,None,,,,,,,,,,,,,,,,,,,,,,,,,,,,,,,P001,fencog,2,Post,2021_Jun_29_1208,N-Back (New Version 2021),2021.1.4,119.6060655
Conditions/Version_2Pr/oneback(1)_v2.xlsx,New rule: Press 'space' when you see 1-back (i.e. the same letter as the one that appeared 1 letter ago.),Y,None,,,,,0,1,1,1,0,2,2,2,,,,,,,,,,,,,,,,,,,,,,,,,,,,,,,,,,,,,,,,,,,1.84,165.2226264,None,167.0661464,None,None,1,,167.0661464,None,169.0715066,None,,,,,,,,,,,,,,,,,,,,,,,,,,,,,,,P001,fencog,2,Post,2021_Jun_29_1208,N-Back (New Version 2021),2021.1.4,119.6060655
Conditions/Version_2Pr/oneback(1)_v2.xlsx,New rule: Press 'space' when you see 1-back (i.e. the same letter as the one that appeared 1 letter ago.),y,space,,,,,0,1,1,1,0,3,3,3,,,,,,,,,,,,,,,,,,,,,,,,,,,,,,,,,,,,,,,,,,,1.14,170.5710381,None,171.7140462,None,space,1,0.37248,171.7140462,None,172.0964293,None,,,,,,,,,,,,,,,,,,,,,,,,,,,,,,,P001,fencog,2,Post,2021_Jun_29_1208,N-Back (New Version 2021),2021.1.4,119.6060655
Conditions/Version_2Pr/oneback(1)_v2.xlsx,New rule: Press 'space' when you see 1-back (i.e. the same letter as the one that appeared 1 letter ago.),p,None,,,,,0,1,1,1,0,4,4,4,,,,,,,,,,,,,,,,,,,,,,,,,,,,,,,,,,,,,,,,,,,1.24,173.6034187,None,174.8465177,None,None,1,,174.8465177,None,176.8525499,None,,,,,,,,,,,,,,,,,,,,,,,,,,,,,,,P001,fencog,2,Post,2021_Jun_29_1208,N-Back (New Version 2021),2021.1.4,119.6060655
Conditions/Version_2Pr/oneback(1)_v2.xlsx,New rule: Press 'space' when you see 1-back (i.e. the same letter as the one that appeared 1 letter ago.),P,space,,,,,0,1,1,1,0,5,5,5,,,,,,,,,,,,,,,,,,,,,,,,,,,,,,,,,,,,,,,,,,,1.94,178.3519787,None,180.2974525,None,space,1,0.3488672,180.2974525,None,180.6590132,None,,,,,,,,,,,,,,,,,,,,,,,,,,,,,,,P001,fencog,2,Post,2021_Jun_29_1208,N-Back (New Version 2021),2021.1.4,119.6060655
Conditions/Version_2Pr/oneback(1)_v2.xlsx,New rule: Press 'space' when you see 1-back (i.e. the same letter as the one that appeared 1 letter ago.),e,None,,,,,0,1,1,1,0,6,6,6,,,,,,,,,,,,,,,,,,,,,,,,,,,,,,,,,,,,,,,,,,,1.69,182.1592509,None,183.8534344,None,space,0,0.6491541,183.8534344,None,184.5206054,None,,,,,,,,,,,,,,,,,,,,,,,,,,,,,,,P001,fencog,2,Post,2021_Jun_29_1208,N-Back (New Version 2021),2021.1.4,119.6060655
Conditions/Version_2Pr/oneback(1)_v2.xlsx,New rule: Press 'space' when you see 1-back (i.e. the same letter as the one that appeared 1 letter ago.),r,None,,,,,0,1,1,1,0,7,7,7,,,,,,,,,,,,,,,,,,,,,,,,,,,,,,,,,,,,,,,,,,,1.515,186.0246579,None,187.5411974,None,None,1,,187.5411974,None,189.5422778,None,,,,,,,,,,,,,,,,,,,,,,,,,,,,,,,P001,fencog,2,Post,2021_Jun_29_1208,N-Back (New Version 2021),2021.1.4,119.6060655
Conditions/Version_2Pr/oneback(1)_v2.xlsx,New rule: Press 'space' when you see 1-back (i.e. the same letter as the one that appeared 1 letter ago.),R,space,,,,,0,1,1,1,0,8,8,8,,,,,,,,,,,,,,,,,,,,,,,,,,,,,,,,,,,,,,,,,,,1.09,191.0485926,None,192.1391942,None,space,1,0.5155227,192.1391942,None,192.6652091,None,,,,,,,,,,,,,,,,,,,,,,,,,,,,,,,P001,fencog,2,Post,2021_Jun_29_1208,N-Back (New Version 2021),2021.1.4,119.6060655
Conditions/Version_2Pr/oneback(1)_v2.xlsx,New rule: Press 'space' when you see 1-back (i.e. the same letter as the one that appeared 1 letter ago.),p,None,,,,,0,1,1,1,0,9,9,9,,,,,,,,,,,,,,,,,,,,,,,,,,,,,,,,,,,,,,,,,,,1.79,194.1724059,None,195.9643157,None,None,1,,195.9643157,None,197.9657655,None,,,,,,,,,,,,,,,,,,,,,,,,,,,,,,,P001,fencog,2,Post,2021_Jun_29_1208,N-Back (New Version 2021),2021.1.4,119.6060655
Conditions/Version_2Pr/oneback(1)_v2.xlsx,New rule: Press 'space' when you see 1-back (i.e. the same letter as the one that appeared 1 letter ago.),,,,,,,0,1,1,1,,,,,,,,,,,,,,,,,,,,,,,,,,,,,,,,,,,,,,,,,,,,,,,,,,,,,,,,,,,,,,,,,,,,,,,,,,,,,,,,,,,,,,,,,P001,fencog,2,Post,2021_Jun_29_1208,N-Back (New Version 2021),2021.1.4,119.6060655
Conditions/Version_2Pr/twoback(1)_v2.xlsx,New rule: Press 'space' when you see 2-back (i.e. the same letter as the one that appeared 2 letters ago.),r,None,,,,,0,2,2,2,0,0,0,0,,,,,,,,,,,,,,,,,,,,,,,,,,,,,,,,,199.4960372,None,202.481167,None,space,3.1733946,202.481167,None,199.4960372,None,1.315,205.6771788,None,206.9935,None,None,1,,206.9935,None,208.9932161,None,,,,,,,,,,,,,,,,,,,,,,,,,,,,,,,P001,fencog,2,Post,2021_Jun_29_1208,N-Back (New Version 2021),2021.1.4,119.6060655
Conditions/Version_2Pr/twoback(1)_v2.xlsx,New rule: Press 'space' when you see 2-back (i.e. the same letter as the one that appeared 2 letters ago.),P,None,,,,,0,2,2,2,0,1,1,1,,,,,,,,,,,,,,,,,,,,,,,,,,,,,,,,,,,,,,,,,,,1.565,210.4924432,None,212.0603766,None,None,1,,212.0603766,None,214.0664965,None,,,,,,,,,,,,,,,,,,,,,,,,,,,,,,,P001,fencog,2,Post,2021_Jun_29_1208,N-Back (New Version 2021),2021.1.4,119.6060655
Conditions/Version_2Pr/twoback(1)_v2.xlsx,New rule: Press 'space' when you see 2-back (i.e. the same letter as the one that appeared 2 letters ago.),o,None,,,,,0,2,2,2,0,2,2,2,,,,,,,,,,,,,,,,,,,,,,,,,,,,,,,,,,,,,,,,,,,1.915,215.5660304,None,217.4848538,None,None,1,,217.4848538,None,219.489884,None,,,,,,,,,,,,,,,,,,,,,,,,,,,,,,,P001,fencog,2,Post,2021_Jun_29_1208,N-Back (New Version 2021),2021.1.4,119.6060655
Conditions/Version_2Pr/twoback(1)_v2.xlsx,New rule: Press 'space' when you see 2-back (i.e. the same letter as the one that appeared 2 letters ago.),p,space,,,,,0,2,2,2,0,3,3,3,,,,,,,,,,,,,,,,,,,,,,,,,,,,,,,,,,,,,,,,,,,1.89,220.9892764,None,222.8822859,None,space,1,0.692463,222.8822859,None,223.5889875,None,,,,,,,,,,,,,,,,,,,,,,,,,,,,,,,P001,fencog,2,Post,2021_Jun_29_1208,N-Back (New Version 2021),2021.1.4,119.6060655
Conditions/Version_2Pr/twoback(1)_v2.xlsx,New rule: Press 'space' when you see 2-back (i.e. the same letter as the one that appeared 2 letters ago.),Y,None,,,,,0,2,2,2,0,4,4,4,,,,,,,,,,,,,,,,,,,,,,,,,,,,,,,,,,,,,,,,,,,1.365,225.0879538,None,226.4542649,None,None,1,,226.4542649,None,228.4539461,None,,,,,,,,,,,,,,,,,,,,,,,,,,,,,,,P001,fencog,2,Post,2021_Jun_29_1208,N-Back (New Version 2021),2021.1.4,119.6060655
Conditions/Version_2Pr/twoback(1)_v2.xlsx,New rule: Press 'space' when you see 2-back (i.e. the same letter as the one that appeared 2 letters ago.),q,None,,,,,0,2,2,2,0,5,5,5,,,,,,,,,,,,,,,,,,,,,,,,,,,,,,,,,,,,,,,,,,,2.015,229.953462,None,231.9710509,None,space,0,0.3958291,231.9710509,None,232.3812504,None,,,,,,,,,,,,,,,,,,,,,,,,,,,,,,,P001,fencog,2,Post,2021_Jun_29_1208,N-Back (New Version 2021),2021.1.4,119.6060655
Conditions/Version_2Pr/twoback(1)_v2.xlsx,New rule: Press 'space' when you see 2-back (i.e. the same letter as the one that appeared 2 letters ago.),m,None,,,,,0,2,2,2,0,6,6,6,,,,,,,,,,,,,,,,,,,,,,,,,,,,,,,,,,,,,,,,,,,1.615,233.8855476,None,235.5022955,None,None,1,,235.5022955,None,237.5107722,None,,,,,,,,,,,,,,,,,,,,,,,,,,,,,,,P001,fencog,2,Post,2021_Jun_29_1208,N-Back (New Version 2021),2021.1.4,119.6060655
Conditions/Version_2Pr/twoback(1)_v2.xlsx,New rule: Press 'space' when you see 2-back (i.e. the same letter as the one that appeared 2 letters ago.),Q,space,,,,,0,2,2,2,0,7,7,7,,,,,,,,,,,,,,,,,,,,,,,,,,,,,,,,,,,,,,,,,,,1.39,239.0089704,None,240.4065655,None,space,1,0.3679385,240.4065655,None,240.7840961,None,,,,,,,,,,,,,,,,,,,,,,,,,,,,,,,P001,fencog,2,Post,2021_Jun_29_1208,N-Back (New Version 2021),2021.1.4,119.6060655
Conditions/Version_2Pr/twoback(1)_v2.xlsx,New rule: Press 'space' when you see 2-back (i.e. the same letter as the one that appeared 2 letters ago.),L,None,,,,,0,2,2,2,0,8,8,8,,,,,,,,,,,,,,,,,,,,,,,,,,,,,,,,,,,,,,,,,,,1.515,242.2830267,None,243.8019482,None,None,1,,243.8019482,None,245.8070576,None,,,,,,,,,,,,,,,,,,,,,,,,,,,,,,,P001,fencog,2,Post,2021_Jun_29_1208,N-Back (New Version 2021),2021.1.4,119.6060655
Conditions/Version_2Pr/twoback(1)_v2.xlsx,New rule: Press 'space' when you see 2-back (i.e. the same letter as the one that appeared 2 letters ago.),q,space,,,,,0,2,2,2,0,9,9,9,,,,,,,,,,,,,,,,,,,,,,,,,,,,,,,,,,,,,,,,,,,1.54,247.30673,None,248.8491617,None,space,1,0.4300266,248.8491617,None,249.2946573,None,,,,,,,,,,,,,,,,,,,,,,,,,,,,,,,P001,fencog,2,Post,2021_Jun_29_1208,N-Back (New Version 2021),2021.1.4,119.6060655
Conditions/Version_2Pr/twoback(1)_v2.xlsx,New rule: Press 'space' when you see 2-back (i.e. the same letter as the one that appeared 2 letters ago.),,,,,,,0,2,2,2,,,,,,,,,,,,,,,,,,,,,,,,,,,,,,,,,,,,,,,,,,,,,,,,,,,,,,,,,,,,,,,,,,,,,,,,,,,,,,,,,,,,,,,,,P001,fencog,2,Post,2021_Jun_29_1208,N-Back (New Version 2021),2021.1.4,119.6060655
Conditions/Version_2Pr/threeback(1)_v2.xlsx,New rule: Press 'space' when you see 3-back (i.e. the same letter as the one that appeared 3 letters ago.),u,None,,,,,0,3,3,3,0,0,0,0,,,,,,,,,,,,,,,,,,,,,,,,,,,,,,,,,250.8227669,None,253.8093844,None,space,0.6611849,253.8093844,None,250.8227669,None,1.99,254.4873094,None,256.4804286,None,None,1,,256.4804286,None,258.4867118,None,,,,,,,,,,,,,,,,,,,,,,,,,,,,,,,P001,fencog,2,Post,2021_Jun_29_1208,N-Back (New Version 2021),2021.1.4,119.6060655
Conditions/Version_2Pr/threeback(1)_v2.xlsx,New rule: Press 'space' when you see 3-back (i.e. the same letter as the one that appeared 3 letters ago.),U,None,,,,,0,3,3,3,0,1,1,1,,,,,,,,,,,,,,,,,,,,,,,,,,,,,,,,,,,,,,,,,,,1.865,259.9861622,None,261.8522399,None,None,1,,261.8522399,None,263.8517127,None,,,,,,,,,,,,,,,,,,,,,,,,,,,,,,,P001,fencog,2,Post,2021_Jun_29_1208,N-Back (New Version 2021),2021.1.4,119.6060655
Conditions/Version_2Pr/threeback(1)_v2.xlsx,New rule: Press 'space' when you see 3-back (i.e. the same letter as the one that appeared 3 letters ago.),p,None,,,,,0,3,3,3,0,2,2,2,,,,,,,,,,,,,,,,,,,,,,,,,,,,,,,,,,,,,,,,,,,1.315,265.351329,None,266.6673933,None,None,1,,266.6673933,None,268.6669695,None,,,,,,,,,,,,,,,,,,,,,,,,,,,,,,,P001,fencog,2,Post,2021_Jun_29_1208,N-Back (New Version 2021),2021.1.4,119.6060655
Conditions/Version_2Pr/threeback(1)_v2.xlsx,New rule: Press 'space' when you see 3-back (i.e. the same letter as the one that appeared 3 letters ago.),U,space,,,,,0,3,3,3,0,3,3,3,,,,,,,,,,,,,,,,,,,,,,,,,,,,,,,,,,,,,,,,,,,1.265,270.1664555,None,271.4329798,None,space,1,0.4934199,271.4329798,None,271.9432326,None,,,,,,,,,,,,,,,,,,,,,,,,,,,,,,,P001,fencog,2,Post,2021_Jun_29_1208,N-Back (New Version 2021),2021.1.4,119.6060655
Conditions/Version_2Pr/threeback(1)_v2.xlsx,New rule: Press 'space' when you see 3-back (i.e. the same letter as the one that appeared 3 letters ago.),e,None,,,,,0,3,3,3,0,4,4,4,,,,,,,,,,,,,,,,,,,,,,,,,,,,,,,,,,,,,,,,,,,1.065,273.4487877,None,274.5174226,None,None,1,,274.5174226,None,276.5228718,None,,,,,,,,,,,,,,,,,,,,,,,,,,,,,,,P001,fencog,2,Post,2021_Jun_29_1208,N-Back (New Version 2021),2021.1.4,119.6060655
Conditions/Version_2Pr/threeback(1)_v2.xlsx,New rule: Press 'space' when you see 3-back (i.e. the same letter as the one that appeared 3 letters ago.),R,None,,,,,0,3,3,3,0,5,5,5,,,,,,,,,,,,,,,,,,,,,,,,,,,,,,,,,,,,,,,,,,,1.79,278.0226318,None,279.8137621,None,None,1,,279.8137621,None,281.8129177,None,,,,,,,,,,,,,,,,,,,,,,,,,,,,,,,P001,fencog,2,Post,2021_Jun_29_1208,N-Back (New Version 2021),2021.1.4,119.6060655
Conditions/Version_2Pr/threeback(1)_v2.xlsx,New rule: Press 'space' when you see 3-back (i.e. the same letter as the one that appeared 3 letters ago.),p,None,,,,,0,3,3,3,0,6,6,6,,,,,,,,,,,,,,,,,,,,,,,,,,,,,,,,,,,,,,,,,,,1.365,283.3129364,None,284.6793012,None,None,1,,284.6793012,None,286.6867536,None,,,,,,,,,,,,,,,,,,,,,,,,,,,,,,,P001,fencog,2,Post,2021_Jun_29_1208,N-Back (New Version 2021),2021.1.4,119.6060655
Conditions/Version_2Pr/threeback(1)_v2.xlsx,New rule: Press 'space' when you see 3-back (i.e. the same letter as the one that appeared 3 letters ago.),E,space,,,,,0,3,3,3,0,7,7,7,,,,,,,,,,,,,,,,,,,,,,,,,,,,,,,,,,,,,,,,,,,1.14,288.1860891,None,289.3302762,None,space,1,0.8041099,289.3302762,None,290.1449858,None,,,,,,,,,,,,,,,,,,,,,,,,,,,,,,,P001,fencog,2,Post,2021_Jun_29_1208,N-Back (New Version 2021),2021.1.4,119.6060655
Conditions/Version_2Pr/threeback(1)_v2.xlsx,New rule: Press 'space' when you see 3-back (i.e. the same letter as the one that appeared 3 letters ago.),k,None,,,,,0,3,3,3,0,8,8,8,,,,,,,,,,,,,,,,,,,,,,,,,,,,,,,,,,,,,,,,,,,1.515,291.6518278,None,293.1689554,None,None,1,,293.1689554,None,295.17577,None,,,,,,,,,,,,,,,,,,,,,,,,,,,,,,,P001,fencog,2,Post,2021_Jun_29_1208,N-Back (New Version 2021),2021.1.4,119.6060655
Conditions/Version_2Pr/threeback(1)_v2.xlsx,New rule: Press 'space' when you see 3-back (i.e. the same letter as the one that appeared 3 letters ago.),m,None,,,,,0,3,3,3,0,9,9,9,,,,,,,,,,,,,,,,,,,,,,,,,,,,,,,,,,,,,,,,,,,1.44,296.6751853,None,298.1181751,None,None,1,,298.1181751,None,300.1243972,None,,,,,,,,,,,,,,,,,,,,,,,,,,,,,,,P001,fencog,2,Post,2021_Jun_29_1208,N-Back (New Version 2021),2021.1.4,119.6060655
Conditions/Version_2Pr/threeback(1)_v2.xlsx,New rule: Press 'space' when you see 3-back (i.e. the same letter as the one that appeared 3 letters ago.),,,,,,,0,3,3,3,,,,,,,,,,,,,,,,,,,,,,,,,,,,,,,,,,,,,,,,,,,,,,,,,,,,,,,,,,,,,,,,,,,,,,,,,,,,,,,,,,,,,,,,,P001,fencog,2,Post,2021_Jun_29_1208,N-Back (New Version 2021),2021.1.4,119.6060655
,,,,,,,,,,,,,,,,,,,,,,,,,,,,,,,,,,,,,,,,,,,,,,,,,,,,,,,,,,,,,,,,,,,,,,301.6363848,None,space,1.2260612,302.1323521,None,,,,,,,,,,,,,,,,,,,,,,,,,P001,fencog,2,Post,2021_Jun_29_1208,N-Back (New Version 2021),2021.1.4,119.6060655
,,,,,,,,,,,,,,,,,,,,,,,,,,,,,,,,,,,,,,,,,,,,,,,,,,,,,,,,,,,,,,,,,,,,,,,,,,,,303.3772585,None,space,3.3085099,303.8737771,None,,,,,,,,,,,,,,,,,,,P001,fencog,2,Post,2021_Jun_29_1208,N-Back (New Version 2021),2021.1.4,119.6060655
,,,,Conditions/Version_1/zeroback(1)_v1.xlsx,Rule: Press 'space' when you see the letter 'x' or 'X'.,b,None,,,,,,,,,0,0,0,0,0,0,0,0,,,,,,,,,,,,,,,,,,,,,,,,,,,,,,,,,,,,,,,,,,,,,,,,,,,,,,,,,,,307.2840343,None,310.2730623,None,space,0.4049423,310.2730623,None,307.2840343,None,1.9338,312.6480377,None,None,1,312.6480377,None,,P001,fencog,2,Post,2021_Jun_29_1208,N-Back (New Version 2021),2021.1.4,119.6060655
,,,,Conditions/Version_1/zeroback(1)_v1.xlsx,Rule: Press 'space' when you see the letter 'x' or 'X'.,T,None,,,,,,,,,0,0,0,0,0,1,1,1,,,,,,,,,,,,,,,,,,,,,,,,,,,,,,,,,,,,,,,,,,,,,,,,,,,,,,,,,,,,,,,,,,,,,1.4998,316.1535831,None,None,1,316.1535831,None,,P001,fencog,2,Post,2021_Jun_29_1208,N-Back (New Version 2021),2021.1.4,119.6060655
,,,,Conditions/Version_1/zeroback(1)_v1.xlsx,Rule: Press 'space' when you see the letter 'x' or 'X'.,L,None,,,,,,,,,0,0,0,0,0,2,2,2,,,,,,,,,,,,,,,,,,,,,,,,,,,,,,,,,,,,,,,,,,,,,,,,,,,,,,,,,,,,,,,,,,,,,1.8594,320.028896,None,None,1,320.028896,None,,P001,fencog,2,Post,2021_Jun_29_1208,N-Back (New Version 2021),2021.1.4,119.6060655
,,,,Conditions/Version_1/zeroback(1)_v1.xlsx,Rule: Press 'space' when you see the letter 'x' or 'X'.,x,space,,,,,,,,,0,0,0,0,0,3,3,3,,,,,,,,,,,,,,,,,,,,,,,,,,,,,,,,,,,,,,,,,,,,,,,,,,,,,,,,,,,,,,,,,,,,,1.3448,323.3882909,None,space,1,323.3882909,None,0.3861892,P001,fencog,2,Post,2021_Jun_29_1208,N-Back (New Version 2021),2021.1.4,119.6060655
,,,,Conditions/Version_1/zeroback(1)_v1.xlsx,Rule: Press 'space' when you see the letter 'x' or 'X'.,o,None,,,,,,,,,0,0,0,0,0,4,4,4,,,,,,,,,,,,,,,,,,,,,,,,,,,,,,,,,,,,,,,,,,,,,,,,,,,,,,,,,,,,,,,,,,,,,1.971,327.3660897,None,None,1,327.3660897,None,,P001,fencog,2,Post,2021_Jun_29_1208,N-Back (New Version 2021),2021.1.4,119.6060655
,,,,Conditions/Version_1/zeroback(1)_v1.xlsx,Rule: Press 'space' when you see the letter 'x' or 'X'.,P,None,,,,,,,,,0,0,0,0,0,5,5,5,,,,,,,,,,,,,,,,,,,,,,,,,,,,,,,,,,,,,,,,,,,,,,,,,,,,,,,,,,,,,,,,,,,,,1.785,331.1565739,None,None,1,331.1565739,None,,P001,fencog,2,Post,2021_Jun_29_1208,N-Back (New Version 2021),2021.1.4,119.6060655
,,,,Conditions/Version_1/zeroback(1)_v1.xlsx,Rule: Press 'space' when you see the letter 'x' or 'X'.,X,space,,,,,,,,,0,0,0,0,0,6,6,6,,,,,,,,,,,,,,,,,,,,,,,,,,,,,,,,,,,,,,,,,,,,,,,,,,,,,,,,,,,,,,,,,,,,,1.7106,334.8726404,None,space,1,334.8726404,None,0.4695944,P001,fencog,2,Post,2021_Jun_29_1208,N-Back (New Version 2021),2021.1.4,119.6060655
,,,,Conditions/Version_1/zeroback(1)_v1.xlsx,Rule: Press 'space' when you see the letter 'x' or 'X'.,n,None,,,,,,,,,0,0,0,0,0,7,7,7,,,,,,,,,,,,,,,,,,,,,,,,,,,,,,,,,,,,,,,,,,,,,,,,,,,,,,,,,,,,,,,,,,,,,1.599,338.4729924,None,None,1,338.4729924,None,,P001,fencog,2,Post,2021_Jun_29_1208,N-Back (New Version 2021),2021.1.4,119.6060655
,,,,Conditions/Version_1/zeroback(1)_v1.xlsx,Rule: Press 'space' when you see the letter 'x' or 'X'.,M,None,,,,,,,,,0,0,0,0,0,8,8,8,,,,,,,,,,,,,,,,,,,,,,,,,,,,,,,,,,,,,,,,,,,,,,,,,,,,,,,,,,,,,,,,,,,,,1.6424,342.1316963,None,None,1,342.1316963,None,,P001,fencog,2,Post,2021_Jun_29_1208,N-Back (New Version 2021),2021.1.4,119.6060655
,,,,Conditions/Version_1/zeroback(1)_v1.xlsx,Rule: Press 'space' when you see the letter 'x' or 'X'.,a,None,,,,,,,,,0,0,0,0,0,9,9,9,,,,,,,,,,,,,,,,,,,,,,,,,,,,,,,,,,,,,,,,,,,,,,,,,,,,,,,,,,,,,,,,,,,,,1.413,345.5553712,None,None,1,345.5553712,None,,P001,fencog,2,Post,2021_Jun_29_1208,N-Back (New Version 2021),2021.1.4,119.6060655
,,,,Conditions/Version_1/zeroback(1)_v1.xlsx,Rule: Press 'space' when you see the letter 'x' or 'X'.,,,,,,,,,,,0,0,0,0,,,,,,,,,,,,,,,,,,,,,,,,,,,,,,,,,,,,,,,,,,,,,,,,,,,,,,,,,,,,,,,,,,,,,,,,,,,,,,,,,P001,fencog,2,Post,2021_Jun_29_1208,N-Back (New Version 2021),2021.1.4,119.6060655
,,,,Conditions/Version_1/oneback(1)_v1.xlsx,New rule: Press 'space' when you see 1-back (i.e. the same letter as the one that appeared 1 letter ago.),b,None,,,,,,,,,0,1,1,1,0,0,0,0,,,,,,,,,,,,,,,,,,,,,,,,,,,,,,,,,,,,,,,,,,,,,,,,,,,,,,,,,,,347.5801705,None,350.5731387,None,space,0.4651994,350.5731387,None,347.5801705,None,1.5556,352.618079,None,None,1,352.618079,None,,P001,fencog,2,Post,2021_Jun_29_1208,N-Back (New Version 2021),2021.1.4,119.6060655
,,,,Conditions/Version_1/oneback(1)_v1.xlsx,New rule: Press 'space' when you see 1-back (i.e. the same letter as the one that appeared 1 letter ago.),p,None,,,,,,,,,0,1,1,1,0,1,1,1,,,,,,,,,,,,,,,,,,,,,,,,,,,,,,,,,,,,,,,,,,,,,,,,,,,,,,,,,,,,,,,,,,,,,1.3324,355.9580158,None,None,1,355.9580158,None,,P001,fencog,2,Post,2021_Jun_29_1208,N-Back (New Version 2021),2021.1.4,119.6060655
,,,,Conditions/Version_1/oneback(1)_v1.xlsx,New rule: Press 'space' when you see 1-back (i.e. the same letter as the one that appeared 1 letter ago.),M,None,,,,,,,,,0,1,1,1,0,2,2,2,,,,,,,,,,,,,,,,,,,,,,,,,,,,,,,,,,,,,,,,,,,,,,,,,,,,,,,,,,,,,,,,,,,,,1.9772,359.9419146,None,None,1,359.9419146,None,,P001,fencog,2,Post,2021_Jun_29_1208,N-Back (New Version 2021),2021.1.4,119.6060655
,,,,Conditions/Version_1/oneback(1)_v1.xlsx,New rule: Press 'space' when you see 1-back (i.e. the same letter as the one that appeared 1 letter ago.),M,space,,,,,,,,,0,1,1,1,0,3,3,3,,,,,,,,,,,,,,,,,,,,,,,,,,,,,,,,,,,,,,,,,,,,,,,,,,,,,,,,,,,,,,,,,,,,,1.7912,363.7387811,None,space,1,363.7387811,None,0.3554886,P001,fencog,2,Post,2021_Jun_29_1208,N-Back (New Version 2021),2021.1.4,119.6060655
,,,,Conditions/Version_1/oneback(1)_v1.xlsx,New rule: Press 'space' when you see 1-back (i.e. the same letter as the one that appeared 1 letter ago.),n,None,,,,,,,,,0,1,1,1,0,4,4,4,,,,,,,,,,,,,,,,,,,,,,,,,,,,,,,,,,,,,,,,,,,,,,,,,,,,,,,,,,,,,,,,,,,,,1.8408,367.5807279,None,None,1,367.5807279,None,,P001,fencog,2,Post,2021_Jun_29_1208,N-Back (New Version 2021),2021.1.4,119.6060655
,,,,Conditions/Version_1/oneback(1)_v1.xlsx,New rule: Press 'space' when you see 1-back (i.e. the same letter as the one that appeared 1 letter ago.),g,None,,,,,,,,,0,1,1,1,0,5,5,5,,,,,,,,,,,,,,,,,,,,,,,,,,,,,,,,,,,,,,,,,,,,,,,,,,,,,,,,,,,,,,,,,,,,,1.8904,371.4789389,None,None,1,371.4789389,None,,P001,fencog,2,Post,2021_Jun_29_1208,N-Back (New Version 2021),2021.1.4,119.6060655
,,,,Conditions/Version_1/oneback(1)_v1.xlsx,New rule: Press 'space' when you see 1-back (i.e. the same letter as the one that appeared 1 letter ago.),P,None,,,,,,,,,0,1,1,1,0,6,6,6,,,,,,,,,,,,,,,,,,,,,,,,,,,,,,,,,,,,,,,,,,,,,,,,,,,,,,,,,,,,,,,,,,,,,1.6362,375.1279012,None,None,1,375.1279012,None,,P001,fencog,2,Post,2021_Jun_29_1208,N-Back (New Version 2021),2021.1.4,119.6060655
,,,,Conditions/Version_1/oneback(1)_v1.xlsx,New rule: Press 'space' when you see 1-back (i.e. the same letter as the one that appeared 1 letter ago.),o,None,,,,,,,,,0,1,1,1,0,7,7,7,,,,,,,,,,,,,,,,,,,,,,,,,,,,,,,,,,,,,,,,,,,,,,,,,,,,,,,,,,,,,,,,,,,,,1.9462,379.0870094,None,None,1,379.0870094,None,,P001,fencog,2,Post,2021_Jun_29_1208,N-Back (New Version 2021),2021.1.4,119.6060655
,,,,Conditions/Version_1/oneback(1)_v1.xlsx,New rule: Press 'space' when you see 1-back (i.e. the same letter as the one that appeared 1 letter ago.),f,None,,,,,,,,,0,1,1,1,0,8,8,8,,,,,,,,,,,,,,,,,,,,,,,,,,,,,,,,,,,,,,,,,,,,,,,,,,,,,,,,,,,,,,,,,,,,,1.6424,382.7428639,None,None,1,382.7428639,None,,P001,fencog,2,Post,2021_Jun_29_1208,N-Back (New Version 2021),2021.1.4,119.6060655
,,,,Conditions/Version_1/oneback(1)_v1.xlsx,New rule: Press 'space' when you see 1-back (i.e. the same letter as the one that appeared 1 letter ago.),F,space,,,,,,,,,0,1,1,1,0,9,9,9,,,,,,,,,,,,,,,,,,,,,,,,,,,,,,,,,,,,,,,,,,,,,,,,,,,,,,,,,,,,,,,,,,,,,1.5928,386.3530325,None,space,1,386.3530325,None,0.389264,P001,fencog,2,Post,2021_Jun_29_1208,N-Back (New Version 2021),2021.1.4,119.6060655
,,,,Conditions/Version_1/oneback(1)_v1.xlsx,New rule: Press 'space' when you see 1-back (i.e. the same letter as the one that appeared 1 letter ago.),,,,,,,,,,,0,1,1,1,,,,,,,,,,,,,,,,,,,,,,,,,,,,,,,,,,,,,,,,,,,,,,,,,,,,,,,,,,,,,,,,,,,,,,,,,,,,,,,,,P001,fencog,2,Post,2021_Jun_29_1208,N-Back (New Version 2021),2021.1.4,119.6060655
,,,,Conditions/Version_1/twoback(1)_v1.xlsx,New rule: Press 'space' when you see 2-back (i.e. the same letter as the one that appeared 2 letters ago.),b,None,,,,,,,,,0,2,2,2,0,0,0,0,,,,,,,,,,,,,,,,,,,,,,,,,,,,,,,,,,,,,,,,,,,,,,,,,,,,,,,,,,,388.3828026,None,391.3661576,None,space,2.7123108,391.3661576,None,388.3828026,None,1.041,395.1538352,None,None,1,395.1538352,None,,P001,fencog,2,Post,2021_Jun_29_1208,N-Back (New Version 2021),2021.1.4,119.6060655
,,,,Conditions/Version_1/twoback(1)_v1.xlsx,New rule: Press 'space' when you see 2-back (i.e. the same letter as the one that appeared 2 letters ago.),h,None,,,,,,,,,0,2,2,2,0,1,1,1,,,,,,,,,,,,,,,,,,,,,,,,,,,,,,,,,,,,,,,,,,,,,,,,,,,,,,,,,,,,,,,,,,,,,1.8284,398.9934434,None,None,1,398.9934434,None,,P001,fencog,2,Post,2021_Jun_29_1208,N-Back (New Version 2021),2021.1.4,119.6060655
,,,,Conditions/Version_1/twoback(1)_v1.xlsx,New rule: Press 'space' when you see 2-back (i.e. the same letter as the one that appeared 2 letters ago.),j,None,,,,,,,,,0,2,2,2,0,2,2,2,,,,,,,,,,,,,,,,,,,,,,,,,,,,,,,,,,,,,,,,,,,,,,,,,,,,,,,,,,,,,,,,,,,,,1.94,402.9370755,None,None,1,402.9370755,None,,P001,fencog,2,Post,2021_Jun_29_1208,N-Back (New Version 2021),2021.1.4,119.6060655
,,,,Conditions/Version_1/twoback(1)_v1.xlsx,New rule: Press 'space' when you see 2-back (i.e. the same letter as the one that appeared 2 letters ago.),H,space,,,,,,,,,0,2,2,2,0,3,3,3,,,,,,,,,,,,,,,,,,,,,,,,,,,,,,,,,,,,,,,,,,,,,,,,,,,,,,,,,,,,,,,,,,,,,1.0658,406.013343,None,space,1,406.013343,None,0.4806734,P001,fencog,2,Post,2021_Jun_29_1208,N-Back (New Version 2021),2021.1.4,119.6060655
,,,,Conditions/Version_1/twoback(1)_v1.xlsx,New rule: Press 'space' when you see 2-back (i.e. the same letter as the one that appeared 2 letters ago.),p,None,,,,,,,,,0,2,2,2,0,4,4,4,,,,,,,,,,,,,,,,,,,,,,,,,,,,,,,,,,,,,,,,,,,,,,,,,,,,,,,,,,,,,,,,,,,,,1.0472,409.0691516,None,None,1,409.0691516,None,,P001,fencog,2,Post,2021_Jun_29_1208,N-Back (New Version 2021),2021.1.4,119.6060655
,,,,Conditions/Version_1/twoback(1)_v1.xlsx,New rule: Press 'space' when you see 2-back (i.e. the same letter as the one that appeared 2 letters ago.),p,None,,,,,,,,,0,2,2,2,0,5,5,5,,,,,,,,,,,,,,,,,,,,,,,,,,,,,,,,,,,,,,,,,,,,,,,,,,,,,,,,,,,,,,,,,,,,,1.4998,412.574679,None,None,1,412.574679,None,,P001,fencog,2,Post,2021_Jun_29_1208,N-Back (New Version 2021),2021.1.4,119.6060655
,,,,Conditions/Version_1/twoback(1)_v1.xlsx,New rule: Press 'space' when you see 2-back (i.e. the same letter as the one that appeared 2 letters ago.),w,None,,,,,,,,,0,2,2,2,0,6,6,6,,,,,,,,,,,,,,,,,,,,,,,,,,,,,,,,,,,,,,,,,,,,,,,,,,,,,,,,,,,,,,,,,,,,,1.4502,416.0262095,None,None,1,416.0262095,None,,P001,fencog,2,Post,2021_Jun_29_1208,N-Back (New Version 2021),2021.1.4,119.6060655
,,,,Conditions/Version_1/twoback(1)_v1.xlsx,New rule: Press 'space' when you see 2-back (i.e. the same letter as the one that appeared 2 letters ago.),R,None,,,,,,,,,0,2,2,2,0,7,7,7,,,,,,,,,,,,,,,,,,,,,,,,,,,,,,,,,,,,,,,,,,,,,,,,,,,,,,,,,,,,,,,,,,,,,1.878,419.9185538,None,None,1,419.9185538,None,,P001,fencog,2,Post,2021_Jun_29_1208,N-Back (New Version 2021),2021.1.4,119.6060655
,,,,Conditions/Version_1/twoback(1)_v1.xlsx,New rule: Press 'space' when you see 2-back (i.e. the same letter as the one that appeared 2 letters ago.),a,None,,,,,,,,,0,2,2,2,0,8,8,8,,,,,,,,,,,,,,,,,,,,,,,,,,,,,,,,,,,,,,,,,,,,,,,,,,,,,,,,,,,,,,,,,,,,,1.9276,423.855157,None,None,1,423.855157,None,,P001,fencog,2,Post,2021_Jun_29_1208,N-Back (New Version 2021),2021.1.4,119.6060655
,,,,Conditions/Version_1/twoback(1)_v1.xlsx,New rule: Press 'space' when you see 2-back (i.e. the same letter as the one that appeared 2 letters ago.),r,space,,,,,,,,,0,2,2,2,0,9,9,9,,,,,,,,,,,,,,,,,,,,,,,,,,,,,,,,,,,,,,,,,,,,,,,,,,,,,,,,,,,,,,,,,,,,,1.2952,427.1542581,None,space,1,427.1542581,None,0.7559962,P001,fencog,2,Post,2021_Jun_29_1208,N-Back (New Version 2021),2021.1.4,119.6060655
,,,,Conditions/Version_1/twoback(1)_v1.xlsx,New rule: Press 'space' when you see 2-back (i.e. the same letter as the one that appeared 2 letters ago.),,,,,,,,,,,0,2,2,2,,,,,,,,,,,,,,,,,,,,,,,,,,,,,,,,,,,,,,,,,,,,,,,,,,,,,,,,,,,,,,,,,,,,,,,,,,,,,,,,,P001,fencog,2,Post,2021_Jun_29_1208,N-Back (New Version 2021),2021.1.4,119.6060655
,,,,Conditions/Version_1/threeback(1)_v1.xlsx,New rule: Press 'space' when you see 3-back (i.e. the same letter as the one that appeared 3 letters ago.),r,None,,,,,,,,,0,3,3,3,0,0,0,0,,,,,,,,,,,,,,,,,,,,,,,,,,,,,,,,,,,,,,,,,,,,,,,,,,,,,,,,,,,429.1838075,None,432.1707304,None,space,1.8835229,432.1707304,None,429.1838075,None,1.475,435.5590798,None,None,1,435.5590798,None,,P001,fencog,2,Post,2021_Jun_29_1208,N-Back (New Version 2021),2021.1.4,119.6060655
,,,,Conditions/Version_1/threeback(1)_v1.xlsx,New rule: Press 'space' when you see 3-back (i.e. the same letter as the one that appeared 3 letters ago.),o,None,,,,,,,,,0,3,3,3,0,1,1,1,,,,,,,,,,,,,,,,,,,,,,,,,,,,,,,,,,,,,,,,,,,,,,,,,,,,,,,,,,,,,,,,,,,,,1.2766,438.8420196,None,None,1,438.8420196,None,,P001,fencog,2,Post,2021_Jun_29_1208,N-Back (New Version 2021),2021.1.4,119.6060655
,,,,Conditions/Version_1/threeback(1)_v1.xlsx,New rule: Press 'space' when you see 3-back (i.e. the same letter as the one that appeared 3 letters ago.),P,None,,,,,,,,,0,3,3,3,0,2,2,2,,,,,,,,,,,,,,,,,,,,,,,,,,,,,,,,,,,,,,,,,,,,,,,,,,,,,,,,,,,,,,,,,,,,,1.4316,442.2751593,None,None,1,442.2751593,None,,P001,fencog,2,Post,2021_Jun_29_1208,N-Back (New Version 2021),2021.1.4,119.6060655
,,,,Conditions/Version_1/threeback(1)_v1.xlsx,New rule: Press 'space' when you see 3-back (i.e. the same letter as the one that appeared 3 letters ago.),R,space,,,,,,,,,0,3,3,3,0,3,3,3,,,,,,,,,,,,,,,,,,,,,,,,,,,,,,,,,,,,,,,,,,,,,,,,,,,,,,,,,,,,,,,,,,,,,1.6176,445.9059659,None,space,1,445.9059659,None,0.3883519,P001,fencog,2,Post,2021_Jun_29_1208,N-Back (New Version 2021),2021.1.4,119.6060655
,,,,Conditions/Version_1/threeback(1)_v1.xlsx,New rule: Press 'space' when you see 3-back (i.e. the same letter as the one that appeared 3 letters ago.),p,None,,,,,,,,,0,3,3,3,0,4,4,4,,,,,,,,,,,,,,,,,,,,,,,,,,,,,,,,,,,,,,,,,,,,,,,,,,,,,,,,,,,,,,,,,,,,,1.3014,449.2171769,None,None,1,449.2171769,None,,P001,fencog,2,Post,2021_Jun_29_1208,N-Back (New Version 2021),2021.1.4,119.6060655
,,,,Conditions/Version_1/threeback(1)_v1.xlsx,New rule: Press 'space' when you see 3-back (i.e. the same letter as the one that appeared 3 letters ago.),E,None,,,,,,,,,0,3,3,3,0,5,5,5,,,,,,,,,,,,,,,,,,,,,,,,,,,,,,,,,,,,,,,,,,,,,,,,,,,,,,,,,,,,,,,,,,,,,1.3138,452.5448118,None,None,1,452.5448118,None,,P001,fencog,2,Post,2021_Jun_29_1208,N-Back (New Version 2021),2021.1.4,119.6060655
,,,,Conditions/Version_1/threeback(1)_v1.xlsx,New rule: Press 'space' when you see 3-back (i.e. the same letter as the one that appeared 3 letters ago.),e,None,,,,,,,,,0,3,3,3,0,6,6,6,,,,,,,,,,,,,,,,,,,,,,,,,,,,,,,,,,,,,,,,,,,,,,,,,,,,,,,,,,,,,,,,,,,,,1.7664,456.3112777,None,None,1,456.3112777,None,,P001,fencog,2,Post,2021_Jun_29_1208,N-Back (New Version 2021),2021.1.4,119.6060655
,,,,Conditions/Version_1/threeback(1)_v1.xlsx,New rule: Press 'space' when you see 3-back (i.e. the same letter as the one that appeared 3 letters ago.),m,None,,,,,,,,,0,3,3,3,0,7,7,7,,,,,,,,,,,,,,,,,,,,,,,,,,,,,,,,,,,,,,,,,,,,,,,,,,,,,,,,,,,,,,,,,,,,,1.227,459.5447462,None,None,1,459.5447462,None,,P001,fencog,2,Post,2021_Jun_29_1208,N-Back (New Version 2021),2021.1.4,119.6060655
,,,,Conditions/Version_1/threeback(1)_v1.xlsx,New rule: Press 'space' when you see 3-back (i.e. the same letter as the one that appeared 3 letters ago.),n,None,,,,,,,,,0,3,3,3,0,8,8,8,,,,,,,,,,,,,,,,,,,,,,,,,,,,,,,,,,,,,,,,,,,,,,,,,,,,,,,,,,,,,,,,,,,,,1.0472,462.601927,None,None,1,462.601927,None,,P001,fencog,2,Post,2021_Jun_29_1208,N-Back (New Version 2021),2021.1.4,119.6060655
,,,,Conditions/Version_1/threeback(1)_v1.xlsx,New rule: Press 'space' when you see 3-back (i.e. the same letter as the one that appeared 3 letters ago.),e,space,,,,,,,,,0,3,3,3,0,9,9,9,,,,,,,,,,,,,,,,,,,,,,,,,,,,,,,,,,,,,,,,,,,,,,,,,,,,,,,,,,,,,,,,,,,,,1.3634,465.9667093,None,space,1,465.9667093,None,0.4072677,P001,fencog,2,Post,2021_Jun_29_1208,N-Back (New Version 2021),2021.1.4,119.6060655
,,,,Conditions/Version_1/threeback(1)_v1.xlsx,New rule: Press 'space' when you see 3-back (i.e. the same letter as the one that appeared 3 letters ago.),,,,,,,,,,,0,3,3,3,,,,,,,,,,,,,,,,,,,,,,,,,,,,,,,,,,,,,,,,,,,,,,,,,,,,,,,,,,,,,,,,,,,,,,,,,,,,,,,,,P001,fencog,2,Post,2021_Jun_29_1208,N-Back (New Version 2021),2021.1.4,119.6060655
,,,,Conditions/Version_1/oneback(2)_v1.xlsx,New rule: Press 'space' when you see 1-back (i.e. the same letter as the one that appeared 1 letter ago.),q,None,,,,,,,,,0,4,4,4,0,0,0,0,,,,,,,,,,,,,,,,,,,,,,,,,,,,,,,,,,,,,,,,,,,,,,,,,,,,,,,,,,,467.9906061,None,470.9761963,None,space,0.1259279,470.9761963,None,467.9906061,None,1.1278,472.256581,None,None,1,472.256581,None,,P001,fencog,2,Post,2021_Jun_29_1208,N-Back (New Version 2021),2021.1.4,119.6060655
,,,,Conditions/Version_1/oneback(2)_v1.xlsx,New rule: Press 'space' when you see 1-back (i.e. the same letter as the one that appeared 1 letter ago.),Q,space,,,,,,,,,0,4,4,4,0,1,1,1,,,,,,,,,,,,,,,,,,,,,,,,,,,,,,,,,,,,,,,,,,,,,,,,,,,,,,,,,,,,,,,,,,,,,1.475,475.7305364,None,space,1,475.7305364,None,0.4834128,P001,fencog,2,Post,2021_Jun_29_1208,N-Back (New Version 2021),2021.1.4,119.6060655
,,,,Conditions/Version_1/oneback(2)_v1.xlsx,New rule: Press 'space' when you see 1-back (i.e. the same letter as the one that appeared 1 letter ago.),P,None,,,,,,,,,0,4,4,4,0,2,2,2,,,,,,,,,,,,,,,,,,,,,,,,,,,,,,,,,,,,,,,,,,,,,,,,,,,,,,,,,,,,,,,,,,,,,1.103,478.8384119,None,None,1,478.8384119,None,,P001,fencog,2,Post,2021_Jun_29_1208,N-Back (New Version 2021),2021.1.4,119.6060655
,,,,Conditions/Version_1/oneback(2)_v1.xlsx,New rule: Press 'space' when you see 1-back (i.e. the same letter as the one that appeared 1 letter ago.),o,None,,,,,,,,,0,4,4,4,0,3,3,3,,,,,,,,,,,,,,,,,,,,,,,,,,,,,,,,,,,,,,,,,,,,,,,,,,,,,,,,,,,,,,,,,,,,,1.6548,482.4962,None,None,1,482.4962,None,,P001,fencog,2,Post,2021_Jun_29_1208,N-Back (New Version 2021),2021.1.4,119.6060655
,,,,Conditions/Version_1/oneback(2)_v1.xlsx,New rule: Press 'space' when you see 1-back (i.e. the same letter as the one that appeared 1 letter ago.),m,None,,,,,,,,,0,4,4,4,0,4,4,4,,,,,,,,,,,,,,,,,,,,,,,,,,,,,,,,,,,,,,,,,,,,,,,,,,,,,,,,,,,,,,,,,,,,,1.7416,486.246788,None,None,1,486.246788,None,,P001,fencog,2,Post,2021_Jun_29_1208,N-Back (New Version 2021),2021.1.4,119.6060655
,,,,Conditions/Version_1/oneback(2)_v1.xlsx,New rule: Press 'space' when you see 1-back (i.e. the same letter as the one that appeared 1 letter ago.),Z,None,,,,,,,,,0,4,4,4,0,5,5,5,,,,,,,,,,,,,,,,,,,,,,,,,,,,,,,,,,,,,,,,,,,,,,,,,,,,,,,,,,,,,,,,,,,,,1.5246,489.7815807,None,None,1,489.7815807,None,,P001,fencog,2,Post,2021_Jun_29_1208,N-Back (New Version 2021),2021.1.4,119.6060655
,,,,Conditions/Version_1/oneback(2)_v1.xlsx,New rule: Press 'space' when you see 1-back (i.e. the same letter as the one that appeared 1 letter ago.),c,None,,,,,,,,,0,4,4,4,0,6,6,6,,,,,,,,,,,,,,,,,,,,,,,,,,,,,,,,,,,,,,,,,,,,,,,,,,,,,,,,,,,,,,,,,,,,,1.0162,492.8013022,None,None,1,492.8013022,None,,P001,fencog,2,Post,2021_Jun_29_1208,N-Back (New Version 2021),2021.1.4,119.6060655
,,,,Conditions/Version_1/oneback(2)_v1.xlsx,New rule: Press 'space' when you see 1-back (i.e. the same letter as the one that appeared 1 letter ago.),c,space,,,,,,,,,0,4,4,4,0,7,7,7,,,,,,,,,,,,,,,,,,,,,,,,,,,,,,,,,,,,,,,,,,,,,,,,,,,,,,,,,,,,,,,,,,,,,1.4192,496.232783,None,space,1,496.232783,None,0.5332084,P001,fencog,2,Post,2021_Jun_29_1208,N-Back (New Version 2021),2021.1.4,119.6060655
,,,,Conditions/Version_1/oneback(2)_v1.xlsx,New rule: Press 'space' when you see 1-back (i.e. the same letter as the one that appeared 1 letter ago.),P,None,,,,,,,,,0,4,4,4,0,8,8,8,,,,,,,,,,,,,,,,,,,,,,,,,,,,,,,,,,,,,,,,,,,,,,,,,,,,,,,,,,,,,,,,,,,,,1.6672,499.906675,None,None,1,499.906675,None,,P001,fencog,2,Post,2021_Jun_29_1208,N-Back (New Version 2021),2021.1.4,119.6060655
,,,,Conditions/Version_1/oneback(2)_v1.xlsx,New rule: Press 'space' when you see 1-back (i.e. the same letter as the one that appeared 1 letter ago.),p,space,,,,,,,,,0,4,4,4,0,9,9,9,,,,,,,,,,,,,,,,,,,,,,,,,,,,,,,,,,,,,,,,,,,,,,,,,,,,,,,,,,,,,,,,,,,,,1.32,503.2306934,None,space,1,503.2306934,None,0.3914152,P001,fencog,2,Post,2021_Jun_29_1208,N-Back (New Version 2021),2021.1.4,119.6060655
,,,,Conditions/Version_1/oneback(2)_v1.xlsx,New rule: Press 'space' when you see 1-back (i.e. the same letter as the one that appeared 1 letter ago.),,,,,,,,,,,0,4,4,4,,,,,,,,,,,,,,,,,,,,,,,,,,,,,,,,,,,,,,,,,,,,,,,,,,,,,,,,,,,,,,,,,,,,,,,,,,,,,,,,,P001,fencog,2,Post,2021_Jun_29_1208,N-Back (New Version 2021),2021.1.4,119.6060655
,,,,Conditions/Version_1/zeroback(2)_v1.xlsx,New rule: Press 'space' when you see the letter 'x' or 'X'.,p,None,,,,,,,,,0,5,5,5,0,0,0,0,,,,,,,,,,,,,,,,,,,,,,,,,,,,,,,,,,,,,,,,,,,,,,,,,,,,,,,,,,,505.2530134,None,508.2397946,None,space,12.1742939,508.2397946,None,505.2530134,None,1.6796,522.1169544,None,None,1,522.1169544,None,,P001,fencog,2,Post,2021_Jun_29_1208,N-Back (New Version 2021),2021.1.4,119.6060655
,,,,Conditions/Version_1/zeroback(2)_v1.xlsx,New rule: Press 'space' when you see the letter 'x' or 'X'.,L,None,,,,,,,,,0,5,5,5,0,1,1,1,,,,,,,,,,,,,,,,,,,,,,,,,,,,,,,,,,,,,,,,,,,,,,,,,,,,,,,,,,,,,,,,,,,,,1.9834,526.1084264,None,None,1,526.1084264,None,,P001,fencog,2,Post,2021_Jun_29_1208,N-Back (New Version 2021),2021.1.4,119.6060655
,,,,Conditions/Version_1/zeroback(2)_v1.xlsx,New rule: Press 'space' when you see the letter 'x' or 'X'.,G,None,,,,,,,,,0,5,5,5,0,2,2,2,,,,,,,,,,,,,,,,,,,,,,,,,,,,,,,,,,,,,,,,,,,,,,,,,,,,,,,,,,,,,,,,,,,,,1.537,529.6639508,None,None,1,529.6639508,None,,P001,fencog,2,Post,2021_Jun_29_1208,N-Back (New Version 2021),2021.1.4,119.6060655
,,,,Conditions/Version_1/zeroback(2)_v1.xlsx,New rule: Press 'space' when you see the letter 'x' or 'X'.,y,None,,,,,,,,,0,5,5,5,0,3,3,3,,,,,,,,,,,,,,,,,,,,,,,,,,,,,,,,,,,,,,,,,,,,,,,,,,,,,,,,,,,,,,,,,,,,,1.32,532.9899153,None,None,1,532.9899153,None,,P001,fencog,2,Post,2021_Jun_29_1208,N-Back (New Version 2021),2021.1.4,119.6060655
,,,,Conditions/Version_1/zeroback(2)_v1.xlsx,New rule: Press 'space' when you see the letter 'x' or 'X'.,Y,None,,,,,,,,,0,5,5,5,0,4,4,4,,,,,,,,,,,,,,,,,,,,,,,,,,,,,,,,,,,,,,,,,,,,,,,,,,,,,,,,,,,,,,,,,,,,,1.258,536.2542271,None,None,1,536.2542271,None,,P001,fencog,2,Post,2021_Jun_29_1208,N-Back (New Version 2021),2021.1.4,119.6060655
,,,,Conditions/Version_1/zeroback(2)_v1.xlsx,New rule: Press 'space' when you see the letter 'x' or 'X'.,W,None,,,,,,,,,0,5,5,5,0,5,5,5,,,,,,,,,,,,,,,,,,,,,,,,,,,,,,,,,,,,,,,,,,,,,,,,,,,,,,,,,,,,,,,,,,,,,1.6858,539.9466677,None,None,1,539.9466677,None,,P001,fencog,2,Post,2021_Jun_29_1208,N-Back (New Version 2021),2021.1.4,119.6060655
,,,,Conditions/Version_1/zeroback(2)_v1.xlsx,New rule: Press 'space' when you see the letter 'x' or 'X'.,x,space,,,,,,,,,0,5,5,5,0,6,6,6,,,,,,,,,,,,,,,,,,,,,,,,,,,,,,,,,,,,,,,,,,,,,,,,,,,,,,,,,,,,,,,,,,,,,1.4998,543.4533982,None,space,1,543.4533982,None,0.4889499,P001,fencog,2,Post,2021_Jun_29_1208,N-Back (New Version 2021),2021.1.4,119.6060655
,,,,Conditions/Version_1/zeroback(2)_v1.xlsx,New rule: Press 'space' when you see the letter 'x' or 'X'.,X,space,,,,,,,,,0,5,5,5,0,7,7,7,,,,,,,,,,,,,,,,,,,,,,,,,,,,,,,,,,,,,,,,,,,,,,,,,,,,,,,,,,,,,,,,,,,,,1.8904,547.3510426,None,space,1,547.3510426,None,0.6232434,P001,fencog,2,Post,2021_Jun_29_1208,N-Back (New Version 2021),2021.1.4,119.6060655
,,,,Conditions/Version_1/zeroback(2)_v1.xlsx,New rule: Press 'space' when you see the letter 'x' or 'X'.,p,None,,,,,,,,,0,5,5,5,0,8,8,8,,,,,,,,,,,,,,,,,,,,,,,,,,,,,,,,,,,,,,,,,,,,,,,,,,,,,,,,,,,,,,,,,,,,,1.7168,551.0751002,None,None,1,551.0751002,None,,P001,fencog,2,Post,2021_Jun_29_1208,N-Back (New Version 2021),2021.1.4,119.6060655
,,,,Conditions/Version_1/zeroback(2)_v1.xlsx,New rule: Press 'space' when you see the letter 'x' or 'X'.,h,None,,,,,,,,,0,5,5,5,0,9,9,9,,,,,,,,,,,,,,,,,,,,,,,,,,,,,,,,,,,,,,,,,,,,,,,,,,,,,,,,,,,,,,,,,,,,,1.7602,554.8404047,None,None,1,554.8404047,None,,P001,fencog,2,Post,2021_Jun_29_1208,N-Back (New Version 2021),2021.1.4,119.6060655
,,,,Conditions/Version_1/zeroback(2)_v1.xlsx,New rule: Press 'space' when you see the letter 'x' or 'X'.,,,,,,,,,,,0,5,5,5,,,,,,,,,,,,,,,,,,,,,,,,,,,,,,,,,,,,,,,,,,,,,,,,,,,,,,,,,,,,,,,,,,,,,,,,,,,,,,,,,P001,fencog,2,Post,2021_Jun_29_1208,N-Back (New Version 2021),2021.1.4,119.6060655
,,,,Conditions/Version_1/threeback(2)_v1.xlsx,New rule: Press 'space' when you see 3-back (i.e. the same letter as the one that appeared 3 letters ago.),q,None,,,,,,,,,0,6,6,6,0,0,0,0,,,,,,,,,,,,,,,,,,,,,,,,,,,,,,,,,,,,,,,,,,,,,,,,,,,,,,,,,,,556.8643339,None,559.8499099,None,space,6.9239811,559.8499099,None,556.8643339,None,1.63,568.4291153,None,None,1,568.4291153,None,,P001,fencog,2,Post,2021_Jun_29_1208,N-Back (New Version 2021),2021.1.4,119.6060655
,,,,Conditions/Version_1/threeback(2)_v1.xlsx,New rule: Press 'space' when you see 3-back (i.e. the same letter as the one that appeared 3 letters ago.),Y,None,,,,,,,,,0,6,6,6,0,1,1,1,,,,,,,,,,,,,,,,,,,,,,,,,,,,,,,,,,,,,,,,,,,,,,,,,,,,,,,,,,,,,,,,,,,,,1.0782,571.5201403,None,None,1,571.5201403,None,,P001,fencog,2,Post,2021_Jun_29_1208,N-Back (New Version 2021),2021.1.4,119.6060655
,,,,Conditions/Version_1/threeback(2)_v1.xlsx,New rule: Press 'space' when you see 3-back (i.e. the same letter as the one that appeared 3 letters ago.),p,None,,,,,,,,,0,6,6,6,0,2,2,2,,,,,,,,,,,,,,,,,,,,,,,,,,,,,,,,,,,,,,,,,,,,,,,,,,,,,,,,,,,,,,,,,,,,,1.7602,575.2926849,None,None,1,575.2926849,None,,P001,fencog,2,Post,2021_Jun_29_1208,N-Back (New Version 2021),2021.1.4,119.6060655
,,,,Conditions/Version_1/threeback(2)_v1.xlsx,New rule: Press 'space' when you see 3-back (i.e. the same letter as the one that appeared 3 letters ago.),p,None,,,,,,,,,0,6,6,6,0,3,3,3,,,,,,,,,,,,,,,,,,,,,,,,,,,,,,,,,,,,,,,,,,,,,,,,,,,,,,,,,,,,,,,,,,,,,1.0658,578.3586503,None,None,1,578.3586503,None,,P001,fencog,2,Post,2021_Jun_29_1208,N-Back (New Version 2021),2021.1.4,119.6060655
,,,,Conditions/Version_1/threeback(2)_v1.xlsx,New rule: Press 'space' when you see 3-back (i.e. the same letter as the one that appeared 3 letters ago.),y,space,,,,,,,,,0,6,6,6,0,4,4,4,,,,,,,,,,,,,,,,,,,,,,,,,,,,,,,,,,,,,,,,,,,,,,,,,,,,,,,,,,,,,,,,,,,,,1.4812,581.8441641,None,space,1,581.8441641,None,0.5457559,P001,fencog,2,Post,2021_Jun_29_1208,N-Back (New Version 2021),2021.1.4,119.6060655
,,,,Conditions/Version_1/threeback(2)_v1.xlsx,New rule: Press 'space' when you see 3-back (i.e. the same letter as the one that appeared 3 letters ago.),u,None,,,,,,,,,0,6,6,6,0,5,5,5,,,,,,,,,,,,,,,,,,,,,,,,,,,,,,,,,,,,,,,,,,,,,,,,,,,,,,,,,,,,,,,,,,,,,1.8284,585.6835765,None,None,1,585.6835765,None,,P001,fencog,2,Post,2021_Jun_29_1208,N-Back (New Version 2021),2021.1.4,119.6060655
,,,,Conditions/Version_1/threeback(2)_v1.xlsx,New rule: Press 'space' when you see 3-back (i.e. the same letter as the one that appeared 3 letters ago.),P,space,,,,,,,,,0,6,6,6,0,6,6,6,,,,,,,,,,,,,,,,,,,,,,,,,,,,,,,,,,,,,,,,,,,,,,,,,,,,,,,,,,,,,,,,,,,,,1.4688,589.1642364,None,space,1,589.1642364,None,0.6815891,P001,fencog,2,Post,2021_Jun_29_1208,N-Back (New Version 2021),2021.1.4,119.6060655
,,,,Conditions/Version_1/threeback(2)_v1.xlsx,New rule: Press 'space' when you see 3-back (i.e. the same letter as the one that appeared 3 letters ago.),a,None,,,,,,,,,0,6,6,6,0,7,7,7,,,,,,,,,,,,,,,,,,,,,,,,,,,,,,,,,,,,,,,,,,,,,,,,,,,,,,,,,,,,,,,,,,,,,1.475,592.6400981,None,None,1,592.6400981,None,,P001,fencog,2,Post,2021_Jun_29_1208,N-Back (New Version 2021),2021.1.4,119.6060655
,,,,Conditions/Version_1/threeback(2)_v1.xlsx,New rule: Press 'space' when you see 3-back (i.e. the same letter as the one that appeared 3 letters ago.),U,space,,,,,,,,,0,6,6,6,0,8,8,8,,,,,,,,,,,,,,,,,,,,,,,,,,,,,,,,,,,,,,,,,,,,,,,,,,,,,,,,,,,,,,,,,,,,,1.1278,595.7793096,None,space,1,595.7793096,None,0.6346728,P001,fencog,2,Post,2021_Jun_29_1208,N-Back (New Version 2021),2021.1.4,119.6060655
,,,,Conditions/Version_1/threeback(2)_v1.xlsx,New rule: Press 'space' when you see 3-back (i.e. the same letter as the one that appeared 3 letters ago.),q,None,,,,,,,,,0,6,6,6,0,9,9,9,,,,,,,,,,,,,,,,,,,,,,,,,,,,,,,,,,,,,,,,,,,,,,,,,,,,,,,,,,,,,,,,,,,,,1.1092,598.9038877,None,None,1,598.9038877,None,,P001,fencog,2,Post,2021_Jun_29_1208,N-Back (New Version 2021),2021.1.4,119.6060655
,,,,Conditions/Version_1/threeback(2)_v1.xlsx,New rule: Press 'space' when you see 3-back (i.e. the same letter as the one that appeared 3 letters ago.),,,,,,,,,,,0,6,6,6,,,,,,,,,,,,,,,,,,,,,,,,,,,,,,,,,,,,,,,,,,,,,,,,,,,,,,,,,,,,,,,,,,,,,,,,,,,,,,,,,P001,fencog,2,Post,2021_Jun_29_1208,N-Back (New Version 2021),2021.1.4,119.6060655
,,,,Conditions/Version_1/twoback(2)_v1.xlsx,New rule: Press 'space' when you see 2-back (i.e. the same letter as the one that appeared 2 letters ago.),q,None,,,,,,,,,0,7,7,7,0,0,0,0,,,,,,,,,,,,,,,,,,,,,,,,,,,,,,,,,,,,,,,,,,,,,,,,,,,,,,,,,,,600.9319906,None,603.9200231,None,space,0.3663478,603.9200231,None,600.9319906,None,1.0906,605.4007868,None,None,1,605.4007868,None,,P001,fencog,2,Post,2021_Jun_29_1208,N-Back (New Version 2021),2021.1.4,119.6060655
,,,,Conditions/Version_1/twoback(2)_v1.xlsx,New rule: Press 'space' when you see 2-back (i.e. the same letter as the one that appeared 2 letters ago.),r,None,,,,,,,,,0,7,7,7,0,1,1,1,,,,,,,,,,,,,,,,,,,,,,,,,,,,,,,,,,,,,,,,,,,,,,,,,,,,,,,,,,,,,,,,,,,,,1.5122,608.9167329,None,None,1,608.9167329,None,,P001,fencog,2,Post,2021_Jun_29_1208,N-Back (New Version 2021),2021.1.4,119.6060655
,,,,Conditions/Version_1/twoback(2)_v1.xlsx,New rule: Press 'space' when you see 2-back (i.e. the same letter as the one that appeared 2 letters ago.),q,space,,,,,,,,,0,7,7,7,0,2,2,2,,,,,,,,,,,,,,,,,,,,,,,,,,,,,,,,,,,,,,,,,,,,,,,,,,,,,,,,,,,,,,,,,,,,,1.4192,612.3504763,None,space,1,612.3504763,None,0.487638,P001,fencog,2,Post,2021_Jun_29_1208,N-Back (New Version 2021),2021.1.4,119.6060655
,,,,Conditions/Version_1/twoback(2)_v1.xlsx,New rule: Press 'space' when you see 2-back (i.e. the same letter as the one that appeared 2 letters ago.),P,None,,,,,,,,,0,7,7,7,0,3,3,3,,,,,,,,,,,,,,,,,,,,,,,,,,,,,,,,,,,,,,,,,,,,,,,,,,,,,,,,,,,,,,,,,,,,,1.7602,616.1230592,None,None,1,616.1230592,None,,P001,fencog,2,Post,2021_Jun_29_1208,N-Back (New Version 2021),2021.1.4,119.6060655
,,,,Conditions/Version_1/twoback(2)_v1.xlsx,New rule: Press 'space' when you see 2-back (i.e. the same letter as the one that appeared 2 letters ago.),p,None,,,,,,,,,0,7,7,7,0,4,4,4,,,,,,,,,,,,,,,,,,,,,,,,,,,,,,,,,,,,,,,,,,,,,,,,,,,,,,,,,,,,,,,,,,,,,1.3138,619.4484604,None,None,1,619.4484604,None,,P001,fencog,2,Post,2021_Jun_29_1208,N-Back (New Version 2021),2021.1.4,119.6060655
,,,,Conditions/Version_1/twoback(2)_v1.xlsx,New rule: Press 'space' when you see 2-back (i.e. the same letter as the one that appeared 2 letters ago.),H,None,,,,,,,,,0,7,7,7,0,5,5,5,,,,,,,,,,,,,,,,,,,,,,,,,,,,,,,,,,,,,,,,,,,,,,,,,,,,,,,,,,,,,,,,,,,,,1.475,622.9286885,None,None,1,622.9286885,None,,P001,fencog,2,Post,2021_Jun_29_1208,N-Back (New Version 2021),2021.1.4,119.6060655
,,,,Conditions/Version_1/twoback(2)_v1.xlsx,New rule: Press 'space' when you see 2-back (i.e. the same letter as the one that appeared 2 letters ago.),g,None,,,,,,,,,0,7,7,7,0,6,6,6,,,,,,,,,,,,,,,,,,,,,,,,,,,,,,,,,,,,,,,,,,,,,,,,,,,,,,,,,,,,,,,,,,,,,1.3448,626.2776992,None,None,1,626.2776992,None,,P001,fencog,2,Post,2021_Jun_29_1208,N-Back (New Version 2021),2021.1.4,119.6060655
,,,,Conditions/Version_1/twoback(2)_v1.xlsx,New rule: Press 'space' when you see 2-back (i.e. the same letter as the one that appeared 2 letters ago.),j,None,,,,,,,,,0,7,7,7,0,7,7,7,,,,,,,,,,,,,,,,,,,,,,,,,,,,,,,,,,,,,,,,,,,,,,,,,,,,,,,,,,,,,,,,,,,,,1.7416,630.0294276,None,None,1,630.0294276,None,,P001,fencog,2,Post,2021_Jun_29_1208,N-Back (New Version 2021),2021.1.4,119.6060655
,,,,Conditions/Version_1/twoback(2)_v1.xlsx,New rule: Press 'space' when you see 2-back (i.e. the same letter as the one that appeared 2 letters ago.),g,space,,,,,,,,,0,7,7,7,0,8,8,8,,,,,,,,,,,,,,,,,,,,,,,,,,,,,,,,,,,,,,,,,,,,,,,,,,,,,,,,,,,,,,,,,,,,,1.3758,633.4179911,None,space,1,633.4179911,None,0.3887932,P001,fencog,2,Post,2021_Jun_29_1208,N-Back (New Version 2021),2021.1.4,119.6060655
,,,,Conditions/Version_1/twoback(2)_v1.xlsx,New rule: Press 'space' when you see 2-back (i.e. the same letter as the one that appeared 2 letters ago.),G,None,,,,,,,,,0,7,7,7,0,9,9,9,,,,,,,,,,,,,,,,,,,,,,,,,,,,,,,,,,,,,,,,,,,,,,,,,,,,,,,,,,,,,,,,,,,,,1.6796,637.1077227,None,None,1,637.1077227,None,,P001,fencog,2,Post,2021_Jun_29_1208,N-Back (New Version 2021),2021.1.4,119.6060655
,,,,Conditions/Version_1/twoback(2)_v1.xlsx,New rule: Press 'space' when you see 2-back (i.e. the same letter as the one that appeared 2 letters ago.),,,,,,,,,,,0,7,7,7,,,,,,,,,,,,,,,,,,,,,,,,,,,,,,,,,,,,,,,,,,,,,,,,,,,,,,,,,,,,,,,,,,,,,,,,,,,,,,,,,P001,fencog,2,Post,2021_Jun_29_1208,N-Back (New Version 2021),2021.1.4,119.6060655
,,,,Conditions/Version_1/threeback(3)_v1.xlsx,New rule: Press 'space' when you see 3-back (i.e. the same letter as the one that appeared 3 letters ago.),w,None,,,,,,,,,0,8,8,8,0,0,0,0,,,,,,,,,,,,,,,,,,,,,,,,,,,,,,,,,,,,,,,,,,,,,,,,,,,,,,,,,,,639.1337214,None,642.1173833,None,space,4.4485273,642.1173833,None,639.1337214,None,1.2394,647.8224518,None,None,1,647.8224518,None,,P001,fencog,2,Post,2021_Jun_29_1208,N-Back (New Version 2021),2021.1.4,119.6060655
,,,,Conditions/Version_1/threeback(3)_v1.xlsx,New rule: Press 'space' when you see 3-back (i.e. the same letter as the one that appeared 3 letters ago.),p,None,,,,,,,,,0,8,8,8,0,1,1,1,,,,,,,,,,,,,,,,,,,,,,,,,,,,,,,,,,,,,,,,,,,,,,,,,,,,,,,,,,,,,,,,,,,,,1.8718,651.7061109,None,None,1,651.7061109,None,,P001,fencog,2,Post,2021_Jun_29_1208,N-Back (New Version 2021),2021.1.4,119.6060655
,,,,Conditions/Version_1/threeback(3)_v1.xlsx,New rule: Press 'space' when you see 3-back (i.e. the same letter as the one that appeared 3 letters ago.),P,None,,,,,,,,,0,8,8,8,0,2,2,2,,,,,,,,,,,,,,,,,,,,,,,,,,,,,,,,,,,,,,,,,,,,,,,,,,,,,,,,,,,,,,,,,,,,,1.568,655.2882085,None,None,1,655.2882085,None,,P001,fencog,2,Post,2021_Jun_29_1208,N-Back (New Version 2021),2021.1.4,119.6060655
,,,,Conditions/Version_1/threeback(3)_v1.xlsx,New rule: Press 'space' when you see 3-back (i.e. the same letter as the one that appeared 3 letters ago.),i,None,,,,,,,,,0,8,8,8,0,3,3,3,,,,,,,,,,,,,,,,,,,,,,,,,,,,,,,,,,,,,,,,,,,,,,,,,,,,,,,,,,,,,,,,,,,,,1.2208,658.5206001,None,None,1,658.5206001,None,,P001,fencog,2,Post,2021_Jun_29_1208,N-Back (New Version 2021),2021.1.4,119.6060655
,,,,Conditions/Version_1/threeback(3)_v1.xlsx,New rule: Press 'space' when you see 3-back (i.e. the same letter as the one that appeared 3 letters ago.),f,None,,,,,,,,,0,8,8,8,0,4,4,4,,,,,,,,,,,,,,,,,,,,,,,,,,,,,,,,,,,,,,,,,,,,,,,,,,,,,,,,,,,,,,,,,,,,,1.9462,662.4753516,None,None,1,662.4753516,None,,P001,fencog,2,Post,2021_Jun_29_1208,N-Back (New Version 2021),2021.1.4,119.6060655
,,,,Conditions/Version_1/threeback(3)_v1.xlsx,New rule: Press 'space' when you see 3-back (i.e. the same letter as the one that appeared 3 letters ago.),o,None,,,,,,,,,0,8,8,8,0,5,5,5,,,,,,,,,,,,,,,,,,,,,,,,,,,,,,,,,,,,,,,,,,,,,,,,,,,,,,,,,,,,,,,,,,,,,1.5742,666.0492004,None,None,1,666.0492004,None,,P001,fencog,2,Post,2021_Jun_29_1208,N-Back (New Version 2021),2021.1.4,119.6060655
,,,,Conditions/Version_1/threeback(3)_v1.xlsx,New rule: Press 'space' when you see 3-back (i.e. the same letter as the one that appeared 3 letters ago.),w,None,,,,,,,,,0,8,8,8,0,6,6,6,,,,,,,,,,,,,,,,,,,,,,,,,,,,,,,,,,,,,,,,,,,,,,,,,,,,,,,,,,,,,,,,,,,,,1.3572,669.4066197,None,None,1,669.4066197,None,,P001,fencog,2,Post,2021_Jun_29_1208,N-Back (New Version 2021),2021.1.4,119.6060655
,,,,Conditions/Version_1/threeback(3)_v1.xlsx,New rule: Press 'space' when you see 3-back (i.e. the same letter as the one that appeared 3 letters ago.),F,space,,,,,,,,,0,8,8,8,0,7,7,7,,,,,,,,,,,,,,,,,,,,,,,,,,,,,,,,,,,,,,,,,,,,,,,,,,,,,,,,,,,,,,,,,,,,,1.0286,672.4446231,None,space,1,672.4446231,None,0.6092644,P001,fencog,2,Post,2021_Jun_29_1208,N-Back (New Version 2021),2021.1.4,119.6060655
,,,,Conditions/Version_1/threeback(3)_v1.xlsx,New rule: Press 'space' when you see 3-back (i.e. the same letter as the one that appeared 3 letters ago.),p,None,,,,,,,,,0,8,8,8,0,8,8,8,,,,,,,,,,,,,,,,,,,,,,,,,,,,,,,,,,,,,,,,,,,,,,,,,,,,,,,,,,,,,,,,,,,,,1.2642,675.7137536,None,None,1,675.7137536,None,,P001,fencog,2,Post,2021_Jun_29_1208,N-Back (New Version 2021),2021.1.4,119.6060655
,,,,Conditions/Version_1/threeback(3)_v1.xlsx,New rule: Press 'space' when you see 3-back (i.e. the same letter as the one that appeared 3 letters ago.),W,space,,,,,,,,,0,8,8,8,0,9,9,9,,,,,,,,,,,,,,,,,,,,,,,,,,,,,,,,,,,,,,,,,,,,,,,,,,,,,,,,,,,,,,,,,,,,,1.5432,679.270568,None,space,1,679.270568,None,0.5993803,P001,fencog,2,Post,2021_Jun_29_1208,N-Back (New Version 2021),2021.1.4,119.6060655
,,,,Conditions/Version_1/threeback(3)_v1.xlsx,New rule: Press 'space' when you see 3-back (i.e. the same letter as the one that appeared 3 letters ago.),,,,,,,,,,,0,8,8,8,,,,,,,,,,,,,,,,,,,,,,,,,,,,,,,,,,,,,,,,,,,,,,,,,,,,,,,,,,,,,,,,,,,,,,,,,,,,,,,,,P001,fencog,2,Post,2021_Jun_29_1208,N-Back (New Version 2021),2021.1.4,119.6060655
,,,,Conditions/Version_1/zeroback(3)_v1.xlsx,New rule: Press 'space' when you see the letter 'x' or 'X'.,X,space,,,,,,,,,0,9,9,9,0,0,0,0,,,,,,,,,,,,,,,,,,,,,,,,,,,,,,,,,,,,,,,,,,,,,,,,,,,,,,,,,,,681.3070083,None,684.2961685,None,space,1.3654526,684.2961685,None,681.3070083,None,1.3944,687.0775236,None,space,1,687.0775236,None,0.8165332,P001,fencog,2,Post,2021_Jun_29_1208,N-Back (New Version 2021),2021.1.4,119.6060655
,,,,Conditions/Version_1/zeroback(3)_v1.xlsx,New rule: Press 'space' when you see the letter 'x' or 'X'.,B,None,,,,,,,,,0,9,9,9,0,1,1,1,,,,,,,,,,,,,,,,,,,,,,,,,,,,,,,,,,,,,,,,,,,,,,,,,,,,,,,,,,,,,,,,,,,,,1.5928,690.6870573,None,None,1,690.6870573,None,,P001,fencog,2,Post,2021_Jun_29_1208,N-Back (New Version 2021),2021.1.4,119.6060655
,,,,Conditions/Version_1/zeroback(3)_v1.xlsx,New rule: Press 'space' when you see the letter 'x' or 'X'.,m,None,,,,,,,,,0,9,9,9,0,2,2,2,,,,,,,,,,,,,,,,,,,,,,,,,,,,,,,,,,,,,,,,,,,,,,,,,,,,,,,,,,,,,,,,,,,,,1.6982,694.3946149,None,None,1,694.3946149,None,,P001,fencog,2,Post,2021_Jun_29_1208,N-Back (New Version 2021),2021.1.4,119.6060655
,,,,Conditions/Version_1/zeroback(3)_v1.xlsx,New rule: Press 'space' when you see the letter 'x' or 'X'.,m,None,,,,,,,,,0,9,9,9,0,3,3,3,,,,,,,,,,,,,,,,,,,,,,,,,,,,,,,,,,,,,,,,,,,,,,,,,,,,,,,,,,,,,,,,,,,,,1.4812,697.8815411,None,None,1,697.8815411,None,,P001,fencog,2,Post,2021_Jun_29_1208,N-Back (New Version 2021),2021.1.4,119.6060655
,,,,Conditions/Version_1/zeroback(3)_v1.xlsx,New rule: Press 'space' when you see the letter 'x' or 'X'.,o,None,,,,,,,,,0,9,9,9,0,4,4,4,,,,,,,,,,,,,,,,,,,,,,,,,,,,,,,,,,,,,,,,,,,,,,,,,,,,,,,,,,,,,,,,,,,,,1.7602,701.6496315,None,None,1,701.6496315,None,,P001,fencog,2,Post,2021_Jun_29_1208,N-Back (New Version 2021),2021.1.4,119.6060655
,,,,Conditions/Version_1/zeroback(3)_v1.xlsx,New rule: Press 'space' when you see the letter 'x' or 'X'.,p,None,,,,,,,,,0,9,9,9,0,5,5,5,,,,,,,,,,,,,,,,,,,,,,,,,,,,,,,,,,,,,,,,,,,,,,,,,,,,,,,,,,,,,,,,,,,,,1.7106,705.3709421,None,None,1,705.3709421,None,,P001,fencog,2,Post,2021_Jun_29_1208,N-Back (New Version 2021),2021.1.4,119.6060655
,,,,Conditions/Version_1/zeroback(3)_v1.xlsx,New rule: Press 'space' when you see the letter 'x' or 'X'.,G,None,,,,,,,,,0,9,9,9,0,6,6,6,,,,,,,,,,,,,,,,,,,,,,,,,,,,,,,,,,,,,,,,,,,,,,,,,,,,,,,,,,,,,,,,,,,,,1.3882,708.7705529,None,None,1,708.7705529,None,,P001,fencog,2,Post,2021_Jun_29_1208,N-Back (New Version 2021),2021.1.4,119.6060655
,,,,Conditions/Version_1/zeroback(3)_v1.xlsx,New rule: Press 'space' when you see the letter 'x' or 'X'.,X,space,,,,,,,,,0,9,9,9,0,7,7,7,,,,,,,,,,,,,,,,,,,,,,,,,,,,,,,,,,,,,,,,,,,,,,,,,,,,,,,,,,,,,,,,,,,,,1.3696,712.1532502,None,space,1,712.1532502,None,0.3643985,P001,fencog,2,Post,2021_Jun_29_1208,N-Back (New Version 2021),2021.1.4,119.6060655
,,,,Conditions/Version_1/zeroback(3)_v1.xlsx,New rule: Press 'space' when you see the letter 'x' or 'X'.,p,None,,,,,,,,,0,9,9,9,0,8,8,8,,,,,,,,,,,,,,,,,,,,,,,,,,,,,,,,,,,,,,,,,,,,,,,,,,,,,,,,,,,,,,,,,,,,,1.4998,715.6606555,None,None,1,715.6606555,None,,P001,fencog,2,Post,2021_Jun_29_1208,N-Back (New Version 2021),2021.1.4,119.6060655
,,,,Conditions/Version_1/zeroback(3)_v1.xlsx,New rule: Press 'space' when you see the letter 'x' or 'X'.,x,space,,,,,,,,,0,9,9,9,0,9,9,9,,,,,,,,,,,,,,,,,,,,,,,,,,,,,,,,,,,,,,,,,,,,,,,,,,,,,,,,,,,,,,,,,,,,,1.9586,719.6269762,None,space,1,719.6269762,None,0.2996779,P001,fencog,2,Post,2021_Jun_29_1208,N-Back (New Version 2021),2021.1.4,119.6060655
,,,,Conditions/Version_1/zeroback(3)_v1.xlsx,New rule: Press 'space' when you see the letter 'x' or 'X'.,,,,,,,,,,,0,9,9,9,,,,,,,,,,,,,,,,,,,,,,,,,,,,,,,,,,,,,,,,,,,,,,,,,,,,,,,,,,,,,,,,,,,,,,,,,,,,,,,,,P001,fencog,2,Post,2021_Jun_29_1208,N-Back (New Version 2021),2021.1.4,119.6060655
,,,,Conditions/Version_1/twoback(3)_v1.xlsx,New rule: Press 'space' when you see 2-back (i.e. the same letter as the one that appeared 2 letters ago.),e,None,,,,,,,,,0,10,10,10,0,0,0,0,,,,,,,,,,,,,,,,,,,,,,,,,,,,,,,,,,,,,,,,,,,,,,,,,,,,,,,,,,,721.6657422,None,724.6439491,None,space,6.137767,724.6439491,None,721.6657422,None,1.971,732.7817967,None,None,1,732.7817967,None,,P001,fencog,2,Post,2021_Jun_29_1208,N-Back (New Version 2021),2021.1.4,119.6060655
,,,,Conditions/Version_1/twoback(3)_v1.xlsx,New rule: Press 'space' when you see 2-back (i.e. the same letter as the one that appeared 2 letters ago.),o,None,,,,,,,,,0,10,10,10,0,1,1,1,,,,,,,,,,,,,,,,,,,,,,,,,,,,,,,,,,,,,,,,,,,,,,,,,,,,,,,,,,,,,,,,,,,,,1.2766,736.0709933,None,None,1,736.0709933,None,,P001,fencog,2,Post,2021_Jun_29_1208,N-Back (New Version 2021),2021.1.4,119.6060655
,,,,Conditions/Version_1/twoback(3)_v1.xlsx,New rule: Press 'space' when you see 2-back (i.e. the same letter as the one that appeared 2 letters ago.),P,None,,,,,,,,,0,10,10,10,0,2,2,2,,,,,,,,,,,,,,,,,,,,,,,,,,,,,,,,,,,,,,,,,,,,,,,,,,,,,,,,,,,,,,,,,,,,,1.2146,739.2961551,None,None,1,739.2961551,None,,P001,fencog,2,Post,2021_Jun_29_1208,N-Back (New Version 2021),2021.1.4,119.6060655
,,,,Conditions/Version_1/twoback(3)_v1.xlsx,New rule: Press 'space' when you see 2-back (i.e. the same letter as the one that appeared 2 letters ago.),z,None,,,,,,,,,0,10,10,10,0,3,3,3,,,,,,,,,,,,,,,,,,,,,,,,,,,,,,,,,,,,,,,,,,,,,,,,,,,,,,,,,,,,,,,,,,,,,1.01,742.3202221,None,None,1,742.3202221,None,,P001,fencog,2,Post,2021_Jun_29_1208,N-Back (New Version 2021),2021.1.4,119.6060655
,,,,Conditions/Version_1/twoback(3)_v1.xlsx,New rule: Press 'space' when you see 2-back (i.e. the same letter as the one that appeared 2 letters ago.),X,None,,,,,,,,,0,10,10,10,0,4,4,4,,,,,,,,,,,,,,,,,,,,,,,,,,,,,,,,,,,,,,,,,,,,,,,,,,,,,,,,,,,,,,,,,,,,,1.0906,745.4175358,None,None,1,745.4175358,None,,P001,fencog,2,Post,2021_Jun_29_1208,N-Back (New Version 2021),2021.1.4,119.6060655
,,,,Conditions/Version_1/twoback(3)_v1.xlsx,New rule: Press 'space' when you see 2-back (i.e. the same letter as the one that appeared 2 letters ago.),z,space,,,,,,,,,0,10,10,10,0,5,5,5,,,,,,,,,,,,,,,,,,,,,,,,,,,,,,,,,,,,,,,,,,,,,,,,,,,,,,,,,,,,,,,,,,,,,1.1774,748.6007214,None,space,1,748.6007214,None,0.7650406,P001,fencog,2,Post,2021_Jun_29_1208,N-Back (New Version 2021),2021.1.4,119.6060655
,,,,Conditions/Version_1/twoback(3)_v1.xlsx,New rule: Press 'space' when you see 2-back (i.e. the same letter as the one that appeared 2 letters ago.),x,space,,,,,,,,,0,10,10,10,0,6,6,6,,,,,,,,,,,,,,,,,,,,,,,,,,,,,,,,,,,,,,,,,,,,,,,,,,,,,,,,,,,,,,,,,,,,,1.9028,752.5173052,None,space,1,752.5173052,None,1.3283267,P001,fencog,2,Post,2021_Jun_29_1208,N-Back (New Version 2021),2021.1.4,119.6060655
,,,,Conditions/Version_1/twoback(3)_v1.xlsx,New rule: Press 'space' when you see 2-back (i.e. the same letter as the one that appeared 2 letters ago.),c,None,,,,,,,,,0,10,10,10,0,7,7,7,,,,,,,,,,,,,,,,,,,,,,,,,,,,,,,,,,,,,,,,,,,,,,,,,,,,,,,,,,,,,,,,,,,,,1.9586,756.4834759,None,None,1,756.4834759,None,,P001,fencog,2,Post,2021_Jun_29_1208,N-Back (New Version 2021),2021.1.4,119.6060655
,,,,Conditions/Version_1/twoback(3)_v1.xlsx,New rule: Press 'space' when you see 2-back (i.e. the same letter as the one that appeared 2 letters ago.),i,None,,,,,,,,,0,10,10,10,0,8,8,8,,,,,,,,,,,,,,,,,,,,,,,,,,,,,,,,,,,,,,,,,,,,,,,,,,,,,,,,,,,,,,,,,,,,,1.041,759.5307329,None,None,1,759.5307329,None,,P001,fencog,2,Post,2021_Jun_29_1208,N-Back (New Version 2021),2021.1.4,119.6060655
,,,,Conditions/Version_1/twoback(3)_v1.xlsx,New rule: Press 'space' when you see 2-back (i.e. the same letter as the one that appeared 2 letters ago.),C,space,,,,,,,,,0,10,10,10,0,9,9,9,,,,,,,,,,,,,,,,,,,,,,,,,,,,,,,,,,,,,,,,,,,,,,,,,,,,,,,,,,,,,,,,,,,,,1.6052,763.1498126,None,None,0,763.1498126,None,,P001,fencog,2,Post,2021_Jun_29_1208,N-Back (New Version 2021),2021.1.4,119.6060655
,,,,Conditions/Version_1/twoback(3)_v1.xlsx,New rule: Press 'space' when you see 2-back (i.e. the same letter as the one that appeared 2 letters ago.),,,,,,,,,,,0,10,10,10,,,,,,,,,,,,,,,,,,,,,,,,,,,,,,,,,,,,,,,,,,,,,,,,,,,,,,,,,,,,,,,,,,,,,,,,,,,,,,,,,P001,fencog,2,Post,2021_Jun_29_1208,N-Back (New Version 2021),2021.1.4,119.6060655
,,,,Conditions/Version_1/oneback(3)_v1.xlsx,New rule: Press 'space' when you see 1-back (i.e. the same letter as the one that appeared 1 letter ago.),o,None,,,,,,,,,0,11,11,11,0,0,0,0,,,,,,,,,,,,,,,,,,,,,,,,,,,,,,,,,,,,,,,,,,,,,,,,,,,,,,,,,,,765.1754545,None,768.1626883,None,space,2.0990477,768.1626883,None,765.1754545,None,1.1154,771.4115564,None,None,1,771.4115564,None,,P001,fencog,2,Post,2021_Jun_29_1208,N-Back (New Version 2021),2021.1.4,119.6060655
,,,,Conditions/Version_1/oneback(3)_v1.xlsx,New rule: Press 'space' when you see 1-back (i.e. the same letter as the one that appeared 1 letter ago.),O,space,,,,,,,,,0,11,11,11,0,1,1,1,,,,,,,,,,,,,,,,,,,,,,,,,,,,,,,,,,,,,,,,,,,,,,,,,,,,,,,,,,,,,,,,,,,,,1.8036,775.2291337,None,space,1,775.2291337,None,0.5845128,P001,fencog,2,Post,2021_Jun_29_1208,N-Back (New Version 2021),2021.1.4,119.6060655
,,,,Conditions/Version_1/oneback(3)_v1.xlsx,New rule: Press 'space' when you see 1-back (i.e. the same letter as the one that appeared 1 letter ago.),h,None,,,,,,,,,0,11,11,11,0,2,2,2,,,,,,,,,,,,,,,,,,,,,,,,,,,,,,,,,,,,,,,,,,,,,,,,,,,,,,,,,,,,,,,,,,,,,1.4564,778.7028603,None,None,1,778.7028603,None,,P001,fencog,2,Post,2021_Jun_29_1208,N-Back (New Version 2021),2021.1.4,119.6060655
,,,,Conditions/Version_1/oneback(3)_v1.xlsx,New rule: Press 'space' when you see 1-back (i.e. the same letter as the one that appeared 1 letter ago.),g,None,,,,,,,,,0,11,11,11,0,3,3,3,,,,,,,,,,,,,,,,,,,,,,,,,,,,,,,,,,,,,,,,,,,,,,,,,,,,,,,,,,,,,,,,,,,,,1.816,782.5239075,None,None,1,782.5239075,None,,P001,fencog,2,Post,2021_Jun_29_1208,N-Back (New Version 2021),2021.1.4,119.6060655
,,,,Conditions/Version_1/oneback(3)_v1.xlsx,New rule: Press 'space' when you see 1-back (i.e. the same letter as the one that appeared 1 letter ago.),n,None,,,,,,,,,0,11,11,11,0,4,4,4,,,,,,,,,,,,,,,,,,,,,,,,,,,,,,,,,,,,,,,,,,,,,,,,,,,,,,,,,,,,,,,,,,,,,1.3572,785.8906094,None,None,1,785.8906094,None,,P001,fencog,2,Post,2021_Jun_29_1208,N-Back (New Version 2021),2021.1.4,119.6060655
,,,,Conditions/Version_1/oneback(3)_v1.xlsx,New rule: Press 'space' when you see 1-back (i.e. the same letter as the one that appeared 1 letter ago.),z,None,,,,,,,,,0,11,11,11,0,5,5,5,,,,,,,,,,,,,,,,,,,,,,,,,,,,,,,,,,,,,,,,,,,,,,,,,,,,,,,,,,,,,,,,,,,,,1.9214,789.8209855,None,None,1,789.8209855,None,,P001,fencog,2,Post,2021_Jun_29_1208,N-Back (New Version 2021),2021.1.4,119.6060655
,,,,Conditions/Version_1/oneback(3)_v1.xlsx,New rule: Press 'space' when you see 1-back (i.e. the same letter as the one that appeared 1 letter ago.),X,None,,,,,,,,,0,11,11,11,0,6,6,6,,,,,,,,,,,,,,,,,,,,,,,,,,,,,,,,,,,,,,,,,,,,,,,,,,,,,,,,,,,,,,,,,,,,,1.3262,793.156071,None,None,1,793.156071,None,,P001,fencog,2,Post,2021_Jun_29_1208,N-Back (New Version 2021),2021.1.4,119.6060655
,,,,Conditions/Version_1/oneback(3)_v1.xlsx,New rule: Press 'space' when you see 1-back (i.e. the same letter as the one that appeared 1 letter ago.),r,None,,,,,,,,,0,11,11,11,0,7,7,7,,,,,,,,,,,,,,,,,,,,,,,,,,,,,,,,,,,,,,,,,,,,,,,,,,,,,,,,,,,,,,,,,,,,,1.6672,796.8368544,None,None,1,796.8368544,None,,P001,fencog,2,Post,2021_Jun_29_1208,N-Back (New Version 2021),2021.1.4,119.6060655
,,,,Conditions/Version_1/oneback(3)_v1.xlsx,New rule: Press 'space' when you see 1-back (i.e. the same letter as the one that appeared 1 letter ago.),r,space,,,,,,,,,0,11,11,11,0,8,8,8,,,,,,,,,,,,,,,,,,,,,,,,,,,,,,,,,,,,,,,,,,,,,,,,,,,,,,,,,,,,,,,,,,,,,1.0782,799.9264308,None,space,1,799.9264308,None,0.6071436,P001,fencog,2,Post,2021_Jun_29_1208,N-Back (New Version 2021),2021.1.4,119.6060655
,,,,Conditions/Version_1/oneback(3)_v1.xlsx,New rule: Press 'space' when you see 1-back (i.e. the same letter as the one that appeared 1 letter ago.),P,None,,,,,,,,,0,11,11,11,0,9,9,9,,,,,,,,,,,,,,,,,,,,,,,,,,,,,,,,,,,,,,,,,,,,,,,,,,,,,,,,,,,,,,,,,,,,,1.4068,803.3346993,None,None,1,803.3346993,None,,P001,fencog,2,Post,2021_Jun_29_1208,N-Back (New Version 2021),2021.1.4,119.6060655
,,,,Conditions/Version_1/oneback(3)_v1.xlsx,New rule: Press 'space' when you see 1-back (i.e. the same letter as the one that appeared 1 letter ago.),,,,,,,,,,,0,11,11,11,,,,,,,,,,,,,,,,,,,,,,,,,,,,,,,,,,,,,,,,,,,,,,,,,,,,,,,,,,,,,,,,,,,,,,,,,,,,,,,,,P001,fencog,2,Post,2021_Jun_29_1208,N-Back (New Version 2021),2021.1.4,119.6060655
,,,,Conditions/Version_1/twoback(4)_v1.xlsx,New rule: Press 'space' when you see 2-back (i.e. the same letter as the one that appeared 2 letters ago.),r,None,,,,,,,,,0,12,12,12,0,0,0,0,,,,,,,,,,,,,,,,,,,,,,,,,,,,,,,,,,,,,,,,,,,,,,,,,,,,,,,,,,,805.3993272,None,808.3848222,None,space,3.8366829,808.3848222,None,805.3993272,None,1.7788,814.0228163,None,None,1,814.0228163,None,,P001,fencog,2,Post,2021_Jun_29_1208,N-Back (New Version 2021),2021.1.4,119.6060655
,,,,Conditions/Version_1/twoback(4)_v1.xlsx,New rule: Press 'space' when you see 2-back (i.e. the same letter as the one that appeared 2 letters ago.),T,None,,,,,,,,,0,12,12,12,0,1,1,1,,,,,,,,,,,,,,,,,,,,,,,,,,,,,,,,,,,,,,,,,,,,,,,,,,,,,,,,,,,,,,,,,,,,,1.1898,817.2263797,None,None,1,817.2263797,None,,P001,fencog,2,Post,2021_Jun_29_1208,N-Back (New Version 2021),2021.1.4,119.6060655
,,,,Conditions/Version_1/twoback(4)_v1.xlsx,New rule: Press 'space' when you see 2-back (i.e. the same letter as the one that appeared 2 letters ago.),o,None,,,,,,,,,0,12,12,12,0,2,2,2,,,,,,,,,,,,,,,,,,,,,,,,,,,,,,,,,,,,,,,,,,,,,,,,,,,,,,,,,,,,,,,,,,,,,1.3882,820.6201495,None,None,1,820.6201495,None,,P001,fencog,2,Post,2021_Jun_29_1208,N-Back (New Version 2021),2021.1.4,119.6060655
,,,,Conditions/Version_1/twoback(4)_v1.xlsx,New rule: Press 'space' when you see 2-back (i.e. the same letter as the one that appeared 2 letters ago.),p,None,,,,,,,,,0,12,12,12,0,3,3,3,,,,,,,,,,,,,,,,,,,,,,,,,,,,,,,,,,,,,,,,,,,,,,,,,,,,,,,,,,,,,,,,,,,,,1.0348,823.661891,None,None,1,823.661891,None,,P001,fencog,2,Post,2021_Jun_29_1208,N-Back (New Version 2021),2021.1.4,119.6060655
,,,,Conditions/Version_1/twoback(4)_v1.xlsx,New rule: Press 'space' when you see 2-back (i.e. the same letter as the one that appeared 2 letters ago.),p,None,,,,,,,,,0,12,12,12,0,4,4,4,,,,,,,,,,,,,,,,,,,,,,,,,,,,,,,,,,,,,,,,,,,,,,,,,,,,,,,,,,,,,,,,,,,,,1.258,826.9265113,None,None,1,826.9265113,None,,P001,fencog,2,Post,2021_Jun_29_1208,N-Back (New Version 2021),2021.1.4,119.6060655
,,,,Conditions/Version_1/twoback(4)_v1.xlsx,New rule: Press 'space' when you see 2-back (i.e. the same letter as the one that appeared 2 letters ago.),y,None,,,,,,,,,0,12,12,12,0,5,5,5,,,,,,,,,,,,,,,,,,,,,,,,,,,,,,,,,,,,,,,,,,,,,,,,,,,,,,,,,,,,,,,,,,,,,1.2084,830.1435941,None,None,1,830.1435941,None,,P001,fencog,2,Post,2021_Jun_29_1208,N-Back (New Version 2021),2021.1.4,119.6060655
,,,,Conditions/Version_1/twoback(4)_v1.xlsx,New rule: Press 'space' when you see 2-back (i.e. the same letter as the one that appeared 2 letters ago.),P,space,,,,,,,,,0,12,12,12,0,6,6,6,,,,,,,,,,,,,,,,,,,,,,,,,,,,,,,,,,,,,,,,,,,,,,,,,,,,,,,,,,,,,,,,,,,,,1.0844,833.242703,None,space,1,833.242703,None,0.5394699,P001,fencog,2,Post,2021_Jun_29_1208,N-Back (New Version 2021),2021.1.4,119.6060655
,,,,Conditions/Version_1/twoback(4)_v1.xlsx,New rule: Press 'space' when you see 2-back (i.e. the same letter as the one that appeared 2 letters ago.),y,None,,,,,,,,,0,12,12,12,0,7,7,7,,,,,,,,,,,,,,,,,,,,,,,,,,,,,,,,,,,,,,,,,,,,,,,,,,,,,,,,,,,,,,,,,,,,,1.3324,836.5847672,None,space,0,836.5847672,None,1.5008006,P001,fencog,2,Post,2021_Jun_29_1208,N-Back (New Version 2021),2021.1.4,119.6060655
,,,,Conditions/Version_1/twoback(4)_v1.xlsx,New rule: Press 'space' when you see 2-back (i.e. the same letter as the one that appeared 2 letters ago.),y,space,,,,,,,,,0,12,12,12,0,8,8,8,,,,,,,,,,,,,,,,,,,,,,,,,,,,,,,,,,,,,,,,,,,,,,,,,,,,,,,,,,,,,,,,,,,,,1.2952,839.8895683,None,None,0,839.8895683,None,,P001,fencog,2,Post,2021_Jun_29_1208,N-Back (New Version 2021),2021.1.4,119.6060655
,,,,Conditions/Version_1/twoback(4)_v1.xlsx,New rule: Press 'space' when you see 2-back (i.e. the same letter as the one that appeared 2 letters ago.),,,,,,,,,,,0,12,12,12,,,,,,,,,,,,,,,,,,,,,,,,,,,,,,,,,,,,,,,,,,,,,,,,,,,,,,,,,,,,,,,,,,,,,,,,,,,,,,,,,P001,fencog,2,Post,2021_Jun_29_1208,N-Back (New Version 2021),2021.1.4,119.6060655
,,,,Conditions/Version_1/zeroback(4)_v1.xlsx,New rule: Press 'space' when you see the letter 'x' or 'X'.,o,None,,,,,,,,,0,13,13,13,0,0,0,0,,,,,,,,,,,,,,,,,,,,,,,,,,,,,,,,,,,,,,,,,,,,,,,,,,,,,,,,,,,841.9109753,None,844.8987664,None,space,51.2349411,844.8987664,None,841.9109753,None,1.9152,898.0912171,None,None,1,898.0912171,None,,P001,fencog,2,Post,2021_Jun_29_1208,N-Back (New Version 2021),2021.1.4,119.6060655
,,,,Conditions/Version_1/zeroback(4)_v1.xlsx,New rule: Press 'space' when you see the letter 'x' or 'X'.,X,space,,,,,,,,,0,13,13,13,0,1,1,1,,,,,,,,,,,,,,,,,,,,,,,,,,,,,,,,,,,,,,,,,,,,,,,,,,,,,,,,,,,,,,,,,,,,,1.4068,901.5046073,None,space,1,901.5046073,None,0.4690663,P001,fencog,2,Post,2021_Jun_29_1208,N-Back (New Version 2021),2021.1.4,119.6060655
,,,,Conditions/Version_1/zeroback(4)_v1.xlsx,New rule: Press 'space' when you see the letter 'x' or 'X'.,p,None,,,,,,,,,0,13,13,13,0,2,2,2,,,,,,,,,,,,,,,,,,,,,,,,,,,,,,,,,,,,,,,,,,,,,,,,,,,,,,,,,,,,,,,,,,,,,1.0844,904.5964233,None,None,1,904.5964233,None,,P001,fencog,2,Post,2021_Jun_29_1208,N-Back (New Version 2021),2021.1.4,119.6060655
,,,,Conditions/Version_1/zeroback(4)_v1.xlsx,New rule: Press 'space' when you see the letter 'x' or 'X'.,m,None,,,,,,,,,0,13,13,13,0,3,3,3,,,,,,,,,,,,,,,,,,,,,,,,,,,,,,,,,,,,,,,,,,,,,,,,,,,,,,,,,,,,,,,,,,,,,1.5742,908.1774409,None,None,1,908.1774409,None,,P001,fencog,2,Post,2021_Jun_29_1208,N-Back (New Version 2021),2021.1.4,119.6060655
,,,,Conditions/Version_1/zeroback(4)_v1.xlsx,New rule: Press 'space' when you see the letter 'x' or 'X'.,n,None,,,,,,,,,0,13,13,13,0,4,4,4,,,,,,,,,,,,,,,,,,,,,,,,,,,,,,,,,,,,,,,,,,,,,,,,,,,,,,,,,,,,,,,,,,,,,1.63,911.8113193,None,None,1,911.8113193,None,,P001,fencog,2,Post,2021_Jun_29_1208,N-Back (New Version 2021),2021.1.4,119.6060655
,,,,Conditions/Version_1/zeroback(4)_v1.xlsx,New rule: Press 'space' when you see the letter 'x' or 'X'.,m,None,,,,,,,,,0,13,13,13,0,5,5,5,,,,,,,,,,,,,,,,,,,,,,,,,,,,,,,,,,,,,,,,,,,,,,,,,,,,,,,,,,,,,,,,,,,,,1.568,915.3929683,None,None,1,915.3929683,None,,P001,fencog,2,Post,2021_Jun_29_1208,N-Back (New Version 2021),2021.1.4,119.6060655
,,,,Conditions/Version_1/zeroback(4)_v1.xlsx,New rule: Press 'space' when you see the letter 'x' or 'X'.,C,None,,,,,,,,,0,13,13,13,0,6,6,6,,,,,,,,,,,,,,,,,,,,,,,,,,,,,,,,,,,,,,,,,,,,,,,,,,,,,,,,,,,,,,,,,,,,,1.3386,918.7411942,None,None,1,918.7411942,None,,P001,fencog,2,Post,2021_Jun_29_1208,N-Back (New Version 2021),2021.1.4,119.6060655
,,,,Conditions/Version_1/zeroback(4)_v1.xlsx,New rule: Press 'space' when you see the letter 'x' or 'X'.,m,None,,,,,,,,,0,13,13,13,0,7,7,7,,,,,,,,,,,,,,,,,,,,,,,,,,,,,,,,,,,,,,,,,,,,,,,,,,,,,,,,,,,,,,,,,,,,,1.1712,921.9152033,None,None,1,921.9152033,None,,P001,fencog,2,Post,2021_Jun_29_1208,N-Back (New Version 2021),2021.1.4,119.6060655
,,,,Conditions/Version_1/zeroback(4)_v1.xlsx,New rule: Press 'space' when you see the letter 'x' or 'X'.,p,None,,,,,,,,,0,13,13,13,0,8,8,8,,,,,,,,,,,,,,,,,,,,,,,,,,,,,,,,,,,,,,,,,,,,,,,,,,,,,,,,,,,,,,,,,,,,,1.4812,925.3974524,None,None,1,925.3974524,None,,P001,fencog,2,Post,2021_Jun_29_1208,N-Back (New Version 2021),2021.1.4,119.6060655
,,,,Conditions/Version_1/zeroback(4)_v1.xlsx,New rule: Press 'space' when you see the letter 'x' or 'X'.,X,space,,,,,,,,,0,13,13,13,0,9,9,9,,,,,,,,,,,,,,,,,,,,,,,,,,,,,,,,,,,,,,,,,,,,,,,,,,,,,,,,,,,,,,,,,,,,,1.32,928.7214411,None,space,1,928.7214411,None,0.3720491,P001,fencog,2,Post,2021_Jun_29_1208,N-Back (New Version 2021),2021.1.4,119.6060655
,,,,Conditions/Version_1/zeroback(4)_v1.xlsx,New rule: Press 'space' when you see the letter 'x' or 'X'.,,,,,,,,,,,0,13,13,13,,,,,,,,,,,,,,,,,,,,,,,,,,,,,,,,,,,,,,,,,,,,,,,,,,,,,,,,,,,,,,,,,,,,,,,,,,,,,,,,,P001,fencog,2,Post,2021_Jun_29_1208,N-Back (New Version 2021),2021.1.4,119.6060655
,,,,Conditions/Version_1/oneback(4)_v1.xlsx,New rule: Press 'space' when you see 1-back (i.e. the same letter as the one that appeared 1 letter ago.),w,None,,,,,,,,,0,14,14,14,0,0,0,0,,,,,,,,,,,,,,,,,,,,,,,,,,,,,,,,,,,,,,,,,,,,,,,,,,,,,,,,,,,930.7438059,None,933.7309191,None,space,0.2826137,933.7309191,None,930.7438059,None,1.6858,935.7290719,None,None,1,935.7290719,None,,P001,fencog,2,Post,2021_Jun_29_1208,N-Back (New Version 2021),2021.1.4,119.6060655
,,,,Conditions/Version_1/oneback(4)_v1.xlsx,New rule: Press 'space' when you see 1-back (i.e. the same letter as the one that appeared 1 letter ago.),q,None,,,,,,,,,0,14,14,14,0,1,1,1,,,,,,,,,,,,,,,,,,,,,,,,,,,,,,,,,,,,,,,,,,,,,,,,,,,,,,,,,,,,,,,,,,,,,1.6176,939.3602483,None,None,1,939.3602483,None,,P001,fencog,2,Post,2021_Jun_29_1208,N-Back (New Version 2021),2021.1.4,119.6060655
,,,,Conditions/Version_1/oneback(4)_v1.xlsx,New rule: Press 'space' when you see 1-back (i.e. the same letter as the one that appeared 1 letter ago.),i,None,,,,,,,,,0,14,14,14,0,2,2,2,,,,,,,,,,,,,,,,,,,,,,,,,,,,,,,,,,,,,,,,,,,,,,,,,,,,,,,,,,,,,,,,,,,,,1.7354,943.1005164,None,None,1,943.1005164,None,,P001,fencog,2,Post,2021_Jun_29_1208,N-Back (New Version 2021),2021.1.4,119.6060655
,,,,Conditions/Version_1/oneback(4)_v1.xlsx,New rule: Press 'space' when you see 1-back (i.e. the same letter as the one that appeared 1 letter ago.),t,None,,,,,,,,,0,14,14,14,0,3,3,3,,,,,,,,,,,,,,,,,,,,,,,,,,,,,,,,,,,,,,,,,,,,,,,,,,,,,,,,,,,,,,,,,,,,,1.1774,946.2856916,None,None,1,946.2856916,None,,P001,fencog,2,Post,2021_Jun_29_1208,N-Back (New Version 2021),2021.1.4,119.6060655
,,,,Conditions/Version_1/oneback(4)_v1.xlsx,New rule: Press 'space' when you see 1-back (i.e. the same letter as the one that appeared 1 letter ago.),v,None,,,,,,,,,0,14,14,14,0,4,4,4,,,,,,,,,,,,,,,,,,,,,,,,,,,,,,,,,,,,,,,,,,,,,,,,,,,,,,,,,,,,,,,,,,,,,1.568,949.8724846,None,None,1,949.8724846,None,,P001,fencog,2,Post,2021_Jun_29_1208,N-Back (New Version 2021),2021.1.4,119.6060655
,,,,Conditions/Version_1/oneback(4)_v1.xlsx,New rule: Press 'space' when you see 1-back (i.e. the same letter as the one that appeared 1 letter ago.),V,space,,,,,,,,,0,14,14,14,0,5,5,5,,,,,,,,,,,,,,,,,,,,,,,,,,,,,,,,,,,,,,,,,,,,,,,,,,,,,,,,,,,,,,,,,,,,,1.0596,952.9428027,None,space,1,952.9428027,None,0.4226953,P001,fencog,2,Post,2021_Jun_29_1208,N-Back (New Version 2021),2021.1.4,119.6060655
,,,,Conditions/Version_1/oneback(4)_v1.xlsx,New rule: Press 'space' when you see 1-back (i.e. the same letter as the one that appeared 1 letter ago.),v,space,,,,,,,,,0,14,14,14,0,6,6,6,,,,,,,,,,,,,,,,,,,,,,,,,,,,,,,,,,,,,,,,,,,,,,,,,,,,,,,,,,,,,,,,,,,,,1.7664,956.7143492,None,None,0,956.7143492,None,,P001,fencog,2,Post,2021_Jun_29_1208,N-Back (New Version 2021),2021.1.4,119.6060655
,,,,Conditions/Version_1/oneback(4)_v1.xlsx,New rule: Press 'space' when you see 1-back (i.e. the same letter as the one that appeared 1 letter ago.),p,None,,,,,,,,,0,14,14,14,0,7,7,7,,,,,,,,,,,,,,,,,,,,,,,,,,,,,,,,,,,,,,,,,,,,,,,,,,,,,,,,,,,,,,,,,,,,,1.692,960.4141782,None,None,1,960.4141782,None,,P001,fencog,2,Post,2021_Jun_29_1208,N-Back (New Version 2021),2021.1.4,119.6060655
,,,,Conditions/Version_1/oneback(4)_v1.xlsx,New rule: Press 'space' when you see 1-back (i.e. the same letter as the one that appeared 1 letter ago.),w,None,,,,,,,,,0,14,14,14,0,8,8,8,,,,,,,,,,,,,,,,,,,,,,,,,,,,,,,,,,,,,,,,,,,,,,,,,,,,,,,,,,,,,,,,,,,,,1.7602,964.1864048,None,None,1,964.1864048,None,,P001,fencog,2,Post,2021_Jun_29_1208,N-Back (New Version 2021),2021.1.4,119.6060655
,,,,Conditions/Version_1/oneback(4)_v1.xlsx,New rule: Press 'space' when you see 1-back (i.e. the same letter as the one that appeared 1 letter ago.),W,space,,,,,,,,,0,14,14,14,0,9,9,9,,,,,,,,,,,,,,,,,,,,,,,,,,,,,,,,,,,,,,,,,,,,,,,,,,,,,,,,,,,,,,,,,,,,,1.3758,967.5706698,None,space,1,967.5706698,None,0.4349652,P001,fencog,2,Post,2021_Jun_29_1208,N-Back (New Version 2021),2021.1.4,119.6060655
,,,,Conditions/Version_1/oneback(4)_v1.xlsx,New rule: Press 'space' when you see 1-back (i.e. the same letter as the one that appeared 1 letter ago.),,,,,,,,,,,0,14,14,14,,,,,,,,,,,,,,,,,,,,,,,,,,,,,,,,,,,,,,,,,,,,,,,,,,,,,,,,,,,,,,,,,,,,,,,,,,,,,,,,,P001,fencog,2,Post,2021_Jun_29_1208,N-Back (New Version 2021),2021.1.4,119.6060655
,,,,Conditions/Version_1/threeback(4)_v1.xlsx,New rule: Press 'space' when you see 3-back (i.e. the same letter as the one that appeared 3 letters ago.),A,None,,,,,,,,,0,15,15,15,0,0,0,0,,,,,,,,,,,,,,,,,,,,,,,,,,,,,,,,,,,,,,,,,,,,,,,,,,,,,,,,,,,969.5965983,None,972.5853583,None,space,3.78009,972.5853583,None,969.5965983,None,1.6238,978.0103658,None,None,1,978.0103658,None,,P001,fencog,2,Post,2021_Jun_29_1208,N-Back (New Version 2021),2021.1.4,119.6060655
,,,,Conditions/Version_1/threeback(4)_v1.xlsx,New rule: Press 'space' when you see 3-back (i.e. the same letter as the one that appeared 3 letters ago.),n,None,,,,,,,,,0,15,15,15,0,1,1,1,,,,,,,,,,,,,,,,,,,,,,,,,,,,,,,,,,,,,,,,,,,,,,,,,,,,,,,,,,,,,,,,,,,,,1.5122,981.5325741,None,None,1,981.5325741,None,,P001,fencog,2,Post,2021_Jun_29_1208,N-Back (New Version 2021),2021.1.4,119.6060655
,,,,Conditions/Version_1/threeback(4)_v1.xlsx,New rule: Press 'space' when you see 3-back (i.e. the same letter as the one that appeared 3 letters ago.),g,None,,,,,,,,,0,15,15,15,0,2,2,2,,,,,,,,,,,,,,,,,,,,,,,,,,,,,,,,,,,,,,,,,,,,,,,,,,,,,,,,,,,,,,,,,,,,,1.4316,984.9734259,None,None,1,984.9734259,None,,P001,fencog,2,Post,2021_Jun_29_1208,N-Back (New Version 2021),2021.1.4,119.6060655
,,,,Conditions/Version_1/threeback(4)_v1.xlsx,New rule: Press 'space' when you see 3-back (i.e. the same letter as the one that appeared 3 letters ago.),A,space,,,,,,,,,0,15,15,15,0,3,3,3,,,,,,,,,,,,,,,,,,,,,,,,,,,,,,,,,,,,,,,,,,,,,,,,,,,,,,,,,,,,,,,,,,,,,1.7044,988.6882881,None,space,1,988.6882881,None,0.3570745,P001,fencog,2,Post,2021_Jun_29_1208,N-Back (New Version 2021),2021.1.4,119.6060655
,,,,Conditions/Version_1/threeback(4)_v1.xlsx,New rule: Press 'space' when you see 3-back (i.e. the same letter as the one that appeared 3 letters ago.),p,None,,,,,,,,,0,15,15,15,0,4,4,4,,,,,,,,,,,,,,,,,,,,,,,,,,,,,,,,,,,,,,,,,,,,,,,,,,,,,,,,,,,,,,,,,,,,,1.878,992.5795316,None,None,1,992.5795316,None,,P001,fencog,2,Post,2021_Jun_29_1208,N-Back (New Version 2021),2021.1.4,119.6060655
,,,,Conditions/Version_1/threeback(4)_v1.xlsx,New rule: Press 'space' when you see 3-back (i.e. the same letter as the one that appeared 3 letters ago.),O,None,,,,,,,,,0,15,15,15,0,5,5,5,,,,,,,,,,,,,,,,,,,,,,,,,,,,,,,,,,,,,,,,,,,,,,,,,,,,,,,,,,,,,,,,,,,,,1.4874,996.0768649,None,None,1,996.0768649,None,,P001,fencog,2,Post,2021_Jun_29_1208,N-Back (New Version 2021),2021.1.4,119.6060655
,,,,Conditions/Version_1/threeback(4)_v1.xlsx,New rule: Press 'space' when you see 3-back (i.e. the same letter as the one that appeared 3 letters ago.),a,space,,,,,,,,,0,15,15,15,0,6,6,6,,,,,,,,,,,,,,,,,,,,,,,,,,,,,,,,,,,,,,,,,,,,,,,,,,,,,,,,,,,,,,,,,,,,,1.0472,999.126366,None,space,1,999.126366,None,0.9189721,P001,fencog,2,Post,2021_Jun_29_1208,N-Back (New Version 2021),2021.1.4,119.6060655
,,,,Conditions/Version_1/threeback(4)_v1.xlsx,New rule: Press 'space' when you see 3-back (i.e. the same letter as the one that appeared 3 letters ago.),p,space,,,,,,,,,0,15,15,15,0,7,7,7,,,,,,,,,,,,,,,,,,,,,,,,,,,,,,,,,,,,,,,,,,,,,,,,,,,,,,,,,,,,,,,,,,,,,1.5556,1002.697412,None,space,1,1002.697412,None,0.8199054,P001,fencog,2,Post,2021_Jun_29_1208,N-Back (New Version 2021),2021.1.4,119.6060655
,,,,Conditions/Version_1/threeback(4)_v1.xlsx,New rule: Press 'space' when you see 3-back (i.e. the same letter as the one that appeared 3 letters ago.),x,None,,,,,,,,,0,15,15,15,0,8,8,8,,,,,,,,,,,,,,,,,,,,,,,,,,,,,,,,,,,,,,,,,,,,,,,,,,,,,,,,,,,,,,,,,,,,,1.971,1006.674362,None,None,1,1006.674362,None,,P001,fencog,2,Post,2021_Jun_29_1208,N-Back (New Version 2021),2021.1.4,119.6060655
,,,,Conditions/Version_1/threeback(4)_v1.xlsx,New rule: Press 'space' when you see 3-back (i.e. the same letter as the one that appeared 3 letters ago.),X,None,,,,,,,,,0,15,15,15,0,9,9,9,,,,,,,,,,,,,,,,,,,,,,,,,,,,,,,,,,,,,,,,,,,,,,,,,,,,,,,,,,,,,,,,,,,,,1.6734,1010.357683,None,None,1,1010.357683,None,,P001,fencog,2,Post,2021_Jun_29_1208,N-Back (New Version 2021),2021.1.4,119.6060655
,,,,Conditions/Version_1/threeback(4)_v1.xlsx,New rule: Press 'space' when you see 3-back (i.e. the same letter as the one that appeared 3 letters ago.),,,,,,,,,,,0,15,15,15,,,,,,,,,,,,,,,,,,,,,,,,,,,,,,,,,,,,,,,,,,,,,,,,,,,,,,,,,,,,,,,,,,,,,,,,,,,,,,,,,P001,fencog,2,Post,2021_Jun_29_1208,N-Back (New Version 2021),2021.1.4,119.6060655
