CondFileP,InstructionsP,LettersDisplayedP,CorrectnessP,CondFile,Instructions,LettersDisplayed,Correctness,practicetrials.thisRepN,practicetrials.thisTrialN,practicetrials.thisN,practicetrials.thisIndex,InnerLoopPractice.thisRepN,InnerLoopPractice.thisTrialN,InnerLoopPractice.thisN,InnerLoopPractice.thisIndex,trials.thisRepN,trials.thisTrialN,trials.thisN,trials.thisIndex,InnerLoop.thisRepN,InnerLoop.thisTrialN,InnerLoop.thisN,InnerLoop.thisIndex,TaskVersionText.started,TaskVersionText.stopped,InstrKey1.keys,InstrKey1.rt,InstrKey1.started,InstrKey1.stopped,text.started,text.stopped,key_resp_4.keys,key_resp_4.rt,key_resp_4.started,key_resp_4.stopped,text_2.started,text_2.stopped,key_resp_3.keys,key_resp_3.rt,key_resp_3.started,key_resp_3.stopped,text_3.started,text_3.stopped,key_resp_2.keys,key_resp_2.rt,key_resp_2.started,key_resp_2.stopped,PractIn1.started,PractIn1.stopped,PractIn2.started,PractIn2.stopped,PractInstructionPass.keys,PractInstructionPass.rt,PractInstructionPass.started,PractInstructionPass.stopped,PractBlock1.started,PractBlock1.stopped,ISIjitterPractice,ISI_Pract_Fixation.started,ISI_Pract_Fixation.stopped,N_backP.started,N_backP.stopped,KeyPractice.keys,KeyPractice.corr,KeyPractice.rt,KeyPractice.started,KeyPractice.stopped,text_4.started,text_4.stopped,TransitionText.started,TransitionText.stopped,key_resp_6.keys,key_resp_6.rt,key_resp_6.started,key_resp_6.stopped,text_5.started,text_5.stopped,key_resp_5.keys,key_resp_5.rt,key_resp_5.started,key_resp_5.stopped,MainInt1.started,MainInt1.stopped,MainInt2.started,MainInt2.stopped,InstructionPass.keys,InstructionPass.rt,InstructionPass.started,InstructionPass.stopped,Blocks1.started,Blocks1.stopped,ISIjitter,N_backD.started,N_backD.stopped,key_resp.keys,key_resp.corr,key_resp.started,key_resp.stopped,key_resp.rt,participant,Study Name,Task Version (required to run),PRE/POST,date,expName,psychopyVersion,frameRate
,,,,,,,,,,,,,,,,,,,,,,,,24.1441552,None,space,7.0079296,24.6362949,None,,,,,,,,,,,,,,,,,,,,,,,,,,,,,,,,,,,,,,,,,,,,,,,,,,,,,,,,,,,,,,,,,,,,,,,P013,fencog,2,Pre,2021_Oct_14_1113,N-Back (New Version 2021),2021.1.4,119.9408929
,,,,,,,,,,,,,,,,,,,,,,,,,,,,,,31.6769582,None,space,6.4730844,32.1677889,None,,,,,,,,,,,,,,,,,,,,,,,,,,,,,,,,,,,,,,,,,,,,,,,,,,,,,,,,,,,,,,,,,P013,fencog,2,Pre,2021_Oct_14_1113,N-Back (New Version 2021),2021.1.4,119.9408929
,,,,,,,,,,,,,,,,,,,,,,,,,,,,,,,,,,,,38.6737604,None,space,8.9374416,39.1661804,None,,,,,,,,,,,,,,,,,,,,,,,,,,,,,,,,,,,,,,,,,,,,,,,,,,,,,,,,,,,P013,fencog,2,Pre,2021_Oct_14_1113,N-Back (New Version 2021),2021.1.4,119.9408929
,,,,,,,,,,,,,,,,,,,,,,,,,,,,,,,,,,,,,,,,,,48.1320332,None,space,48.2014166,48.6215617,None,,,,,,,,,,,,,,,,,,,,,,,,,,,,,,,,,,,,,,,,,,,,,,,,,,,,,P013,fencog,2,Pre,2021_Oct_14_1113,N-Back (New Version 2021),2021.1.4,119.9408929
Conditions/Version_2Pr/zeroback(1)_v2.xlsx,Rule: Press 'space' when you see the letter 'x' or 'X'.,x,space,,,,,0,0,0,0,0,0,0,0,,,,,,,,,,,,,,,,,,,,,,,,,,,,,,,,,98.1827929,None,101.1674219,None,space,4.3398138,101.1674219,None,98.1827929,None,1.115,105.5262777,None,106.6523661,None,space,1,0.4874865,106.6523661,None,107.1581433,None,,,,,,,,,,,,,,,,,,,,,,,,,,,,,,,P013,fencog,2,Pre,2021_Oct_14_1113,N-Back (New Version 2021),2021.1.4,119.9408929
Conditions/Version_2Pr/zeroback(1)_v2.xlsx,Rule: Press 'space' when you see the letter 'x' or 'X'.,R,None,,,,,0,0,0,0,0,1,1,1,,,,,,,,,,,,,,,,,,,,,,,,,,,,,,,,,,,,,,,,,,,1.515,108.6613475,None,110.188113,None,None,1,,110.188113,None,112.185365,None,,,,,,,,,,,,,,,,,,,,,,,,,,,,,,,P013,fencog,2,Pre,2021_Oct_14_1113,N-Back (New Version 2021),2021.1.4,119.9408929
Conditions/Version_2Pr/zeroback(1)_v2.xlsx,Rule: Press 'space' when you see the letter 'x' or 'X'.,p,None,,,,,0,0,0,0,0,2,2,2,,,,,,,,,,,,,,,,,,,,,,,,,,,,,,,,,,,,,,,,,,,1.44,113.6850537,None,115.1263954,None,None,1,,115.1263954,None,117.1255731,None,,,,,,,,,,,,,,,,,,,,,,,,,,,,,,,P013,fencog,2,Pre,2021_Oct_14_1113,N-Back (New Version 2021),2021.1.4,119.9408929
Conditions/Version_2Pr/zeroback(1)_v2.xlsx,Rule: Press 'space' when you see the letter 'x' or 'X'.,O,None,,,,,0,0,0,0,0,3,3,3,,,,,,,,,,,,,,,,,,,,,,,,,,,,,,,,,,,,,,,,,,,1.965,118.625241,None,120.5954813,None,None,1,,120.5954813,None,122.5990537,None,,,,,,,,,,,,,,,,,,,,,,,,,,,,,,,P013,fencog,2,Pre,2021_Oct_14_1113,N-Back (New Version 2021),2021.1.4,119.9408929
Conditions/Version_2Pr/zeroback(1)_v2.xlsx,Rule: Press 'space' when you see the letter 'x' or 'X'.,i,None,,,,,0,0,0,0,0,4,4,4,,,,,,,,,,,,,,,,,,,,,,,,,,,,,,,,,,,,,,,,,,,1.94,124.098584,None,126.0392455,None,None,1,,126.0392455,None,128.0402114,None,,,,,,,,,,,,,,,,,,,,,,,,,,,,,,,P013,fencog,2,Pre,2021_Oct_14_1113,N-Back (New Version 2021),2021.1.4,119.9408929
Conditions/Version_2Pr/zeroback(1)_v2.xlsx,Rule: Press 'space' when you see the letter 'x' or 'X'.,U,None,,,,,0,0,0,0,0,5,5,5,,,,,,,,,,,,,,,,,,,,,,,,,,,,,,,,,,,,,,,,,,,1.815,129.5469357,None,131.3675107,None,None,1,,131.3675107,None,133.3708633,None,,,,,,,,,,,,,,,,,,,,,,,,,,,,,,,P013,fencog,2,Pre,2021_Oct_14_1113,N-Back (New Version 2021),2021.1.4,119.9408929
Conditions/Version_2Pr/zeroback(1)_v2.xlsx,Rule: Press 'space' when you see the letter 'x' or 'X'.,N,None,,,,,0,0,0,0,0,6,6,6,,,,,,,,,,,,,,,,,,,,,,,,,,,,,,,,,,,,,,,,,,,1.915,134.8703697,None,136.7909428,None,None,1,,136.7909428,None,138.7942111,None,,,,,,,,,,,,,,,,,,,,,,,,,,,,,,,P013,fencog,2,Pre,2021_Oct_14_1113,N-Back (New Version 2021),2021.1.4,119.9408929
Conditions/Version_2Pr/zeroback(1)_v2.xlsx,Rule: Press 'space' when you see the letter 'x' or 'X'.,m,None,,,,,0,0,0,0,0,7,7,7,,,,,,,,,,,,,,,,,,,,,,,,,,,,,,,,,,,,,,,,,,,1.89,140.2937824,None,142.1892646,None,None,1,,142.1892646,None,144.1927495,None,,,,,,,,,,,,,,,,,,,,,,,,,,,,,,,P013,fencog,2,Pre,2021_Oct_14_1113,N-Back (New Version 2021),2021.1.4,119.9408929
Conditions/Version_2Pr/zeroback(1)_v2.xlsx,Rule: Press 'space' when you see the letter 'x' or 'X'.,x,space,,,,,0,0,0,0,0,8,8,8,,,,,,,,,,,,,,,,,,,,,,,,,,,,,,,,,,,,,,,,,,,1.54,145.6922029,None,147.2332223,None,space,1,0.3381011,147.2332223,None,147.583832,None,,,,,,,,,,,,,,,,,,,,,,,,,,,,,,,P013,fencog,2,Pre,2021_Oct_14_1113,N-Back (New Version 2021),2021.1.4,119.9408929
Conditions/Version_2Pr/zeroback(1)_v2.xlsx,Rule: Press 'space' when you see the letter 'x' or 'X'.,X,space,,,,,0,0,0,0,0,9,9,9,,,,,,,,,,,,,,,,,,,,,,,,,,,,,,,,,,,,,,,,,,,1.49,149.0828338,None,150.5763458,None,space,1,0.4022375,150.5763458,None,150.9971148,None,,,,,,,,,,,,,,,,,,,,,,,,,,,,,,,P013,fencog,2,Pre,2021_Oct_14_1113,N-Back (New Version 2021),2021.1.4,119.9408929
Conditions/Version_2Pr/zeroback(1)_v2.xlsx,Rule: Press 'space' when you see the letter 'x' or 'X'.,,,,,,,0,0,0,0,,,,,,,,,,,,,,,,,,,,,,,,,,,,,,,,,,,,,,,,,,,,,,,,,,,,,,,,,,,,,,,,,,,,,,,,,,,,,,,,,,,,,,,,,P013,fencog,2,Pre,2021_Oct_14_1113,N-Back (New Version 2021),2021.1.4,119.9408929
Conditions/Version_2Pr/oneback(1)_v2.xlsx,New rule: Press 'space' when you see 1-back (i.e. the same letter as the one that appeared 1 letter ago.),r,None,,,,,0,1,1,1,0,0,0,0,,,,,,,,,,,,,,,,,,,,,,,,,,,,,,,,,152.5247637,None,155.508456,None,space,5.7156796,155.508456,None,152.5247637,None,1.34,161.2427533,None,162.5921505,None,None,1,,162.5921505,None,164.5949885,None,,,,,,,,,,,,,,,,,,,,,,,,,,,,,,,P013,fencog,2,Pre,2021_Oct_14_1113,N-Back (New Version 2021),2021.1.4,119.9408929
Conditions/Version_2Pr/oneback(1)_v2.xlsx,New rule: Press 'space' when you see 1-back (i.e. the same letter as the one that appeared 1 letter ago.),t,None,,,,,0,1,1,1,0,1,1,1,,,,,,,,,,,,,,,,,,,,,,,,,,,,,,,,,,,,,,,,,,,1.815,166.0945222,None,167.9132407,None,None,1,,167.9132407,None,169.9182722,None,,,,,,,,,,,,,,,,,,,,,,,,,,,,,,,P013,fencog,2,Pre,2021_Oct_14_1113,N-Back (New Version 2021),2021.1.4,119.9408929
Conditions/Version_2Pr/oneback(1)_v2.xlsx,New rule: Press 'space' when you see 1-back (i.e. the same letter as the one that appeared 1 letter ago.),Y,None,,,,,0,1,1,1,0,2,2,2,,,,,,,,,,,,,,,,,,,,,,,,,,,,,,,,,,,,,,,,,,,1.615,171.4178859,None,173.037107,None,None,1,,173.037107,None,175.0419127,None,,,,,,,,,,,,,,,,,,,,,,,,,,,,,,,P013,fencog,2,Pre,2021_Oct_14_1113,N-Back (New Version 2021),2021.1.4,119.9408929
Conditions/Version_2Pr/oneback(1)_v2.xlsx,New rule: Press 'space' when you see 1-back (i.e. the same letter as the one that appeared 1 letter ago.),y,space,,,,,0,1,1,1,0,3,3,3,,,,,,,,,,,,,,,,,,,,,,,,,,,,,,,,,,,,,,,,,,,1.94,176.5414179,None,178.4835183,None,space,1,0.3547449,178.4835183,None,178.8506484,None,,,,,,,,,,,,,,,,,,,,,,,,,,,,,,,P013,fencog,2,Pre,2021_Oct_14_1113,N-Back (New Version 2021),2021.1.4,119.9408929
Conditions/Version_2Pr/oneback(1)_v2.xlsx,New rule: Press 'space' when you see 1-back (i.e. the same letter as the one that appeared 1 letter ago.),p,None,,,,,0,1,1,1,0,4,4,4,,,,,,,,,,,,,,,,,,,,,,,,,,,,,,,,,,,,,,,,,,,1.465,180.3571664,None,181.8230627,None,None,1,,181.8230627,None,183.8225957,None,,,,,,,,,,,,,,,,,,,,,,,,,,,,,,,P013,fencog,2,Pre,2021_Oct_14_1113,N-Back (New Version 2021),2021.1.4,119.9408929
Conditions/Version_2Pr/oneback(1)_v2.xlsx,New rule: Press 'space' when you see 1-back (i.e. the same letter as the one that appeared 1 letter ago.),P,space,,,,,0,1,1,1,0,5,5,5,,,,,,,,,,,,,,,,,,,,,,,,,,,,,,,,,,,,,,,,,,,1.14,185.322254,None,186.4671266,None,space,1,0.3202107,186.4671266,None,186.7991882,None,,,,,,,,,,,,,,,,,,,,,,,,,,,,,,,P013,fencog,2,Pre,2021_Oct_14_1113,N-Back (New Version 2021),2021.1.4,119.9408929
Conditions/Version_2Pr/oneback(1)_v2.xlsx,New rule: Press 'space' when you see 1-back (i.e. the same letter as the one that appeared 1 letter ago.),e,None,,,,,0,1,1,1,0,6,6,6,,,,,,,,,,,,,,,,,,,,,,,,,,,,,,,,,,,,,,,,,,,1.065,188.3046134,None,189.3738441,None,None,1,,189.3738441,None,191.3788727,None,,,,,,,,,,,,,,,,,,,,,,,,,,,,,,,P013,fencog,2,Pre,2021_Oct_14_1113,N-Back (New Version 2021),2021.1.4,119.9408929
Conditions/Version_2Pr/oneback(1)_v2.xlsx,New rule: Press 'space' when you see 1-back (i.e. the same letter as the one that appeared 1 letter ago.),r,None,,,,,0,1,1,1,0,7,7,7,,,,,,,,,,,,,,,,,,,,,,,,,,,,,,,,,,,,,,,,,,,1.49,192.8783484,None,194.3714875,None,None,1,,194.3714875,None,196.3773539,None,,,,,,,,,,,,,,,,,,,,,,,,,,,,,,,P013,fencog,2,Pre,2021_Oct_14_1113,N-Back (New Version 2021),2021.1.4,119.9408929
Conditions/Version_2Pr/oneback(1)_v2.xlsx,New rule: Press 'space' when you see 1-back (i.e. the same letter as the one that appeared 1 letter ago.),R,space,,,,,0,1,1,1,0,8,8,8,,,,,,,,,,,,,,,,,,,,,,,,,,,,,,,,,,,,,,,,,,,1.915,197.8768878,None,199.7941902,None,space,1,0.3563812,199.7941902,None,200.1604368,None,,,,,,,,,,,,,,,,,,,,,,,,,,,,,,,P013,fencog,2,Pre,2021_Oct_14_1113,N-Back (New Version 2021),2021.1.4,119.9408929
Conditions/Version_2Pr/oneback(1)_v2.xlsx,New rule: Press 'space' when you see 1-back (i.e. the same letter as the one that appeared 1 letter ago.),p,None,,,,,0,1,1,1,0,9,9,9,,,,,,,,,,,,,,,,,,,,,,,,,,,,,,,,,,,,,,,,,,,1.09,201.6673903,None,202.7622169,None,None,1,,202.7622169,None,204.7665127,None,,,,,,,,,,,,,,,,,,,,,,,,,,,,,,,P013,fencog,2,Pre,2021_Oct_14_1113,N-Back (New Version 2021),2021.1.4,119.9408929
Conditions/Version_2Pr/oneback(1)_v2.xlsx,New rule: Press 'space' when you see 1-back (i.e. the same letter as the one that appeared 1 letter ago.),,,,,,,0,1,1,1,,,,,,,,,,,,,,,,,,,,,,,,,,,,,,,,,,,,,,,,,,,,,,,,,,,,,,,,,,,,,,,,,,,,,,,,,,,,,,,,,,,,,,,,,P013,fencog,2,Pre,2021_Oct_14_1113,N-Back (New Version 2021),2021.1.4,119.9408929
Conditions/Version_2Pr/twoback(1)_v2.xlsx,New rule: Press 'space' when you see 2-back (i.e. the same letter as the one that appeared 2 letters ago.),r,None,,,,,0,2,2,2,0,0,0,0,,,,,,,,,,,,,,,,,,,,,,,,,,,,,,,,,206.2897214,None,209.2763984,None,space,7.1966448,209.2763984,None,206.2897214,None,1.115,216.5089939,None,217.6314462,None,None,1,,217.6314462,None,219.6371483,None,,,,,,,,,,,,,,,,,,,,,,,,,,,,,,,P013,fencog,2,Pre,2021_Oct_14_1113,N-Back (New Version 2021),2021.1.4,119.9408929
Conditions/Version_2Pr/twoback(1)_v2.xlsx,New rule: Press 'space' when you see 2-back (i.e. the same letter as the one that appeared 2 letters ago.),P,None,,,,,0,2,2,2,0,1,1,1,,,,,,,,,,,,,,,,,,,,,,,,,,,,,,,,,,,,,,,,,,,1.84,221.1367367,None,222.9796058,None,None,1,,222.9796058,None,224.9856848,None,,,,,,,,,,,,,,,,,,,,,,,,,,,,,,,P013,fencog,2,Pre,2021_Oct_14_1113,N-Back (New Version 2021),2021.1.4,119.9408929
Conditions/Version_2Pr/twoback(1)_v2.xlsx,New rule: Press 'space' when you see 2-back (i.e. the same letter as the one that appeared 2 letters ago.),o,None,,,,,0,2,2,2,0,2,2,2,,,,,,,,,,,,,,,,,,,,,,,,,,,,,,,,,,,,,,,,,,,1.59,226.4850984,None,228.0787949,None,None,1,,228.0787949,None,230.0840456,None,,,,,,,,,,,,,,,,,,,,,,,,,,,,,,,P013,fencog,2,Pre,2021_Oct_14_1113,N-Back (New Version 2021),2021.1.4,119.9408929
Conditions/Version_2Pr/twoback(1)_v2.xlsx,New rule: Press 'space' when you see 2-back (i.e. the same letter as the one that appeared 2 letters ago.),p,space,,,,,0,2,2,2,0,3,3,3,,,,,,,,,,,,,,,,,,,,,,,,,,,,,,,,,,,,,,,,,,,1.065,231.5835858,None,232.651855,None,space,1,0.3442109,232.651855,None,233.0079551,None,,,,,,,,,,,,,,,,,,,,,,,,,,,,,,,P013,fencog,2,Pre,2021_Oct_14_1113,N-Back (New Version 2021),2021.1.4,119.9408929
Conditions/Version_2Pr/twoback(1)_v2.xlsx,New rule: Press 'space' when you see 2-back (i.e. the same letter as the one that appeared 2 letters ago.),Y,None,,,,,0,2,2,2,0,4,4,4,,,,,,,,,,,,,,,,,,,,,,,,,,,,,,,,,,,,,,,,,,,1.49,234.5075967,None,236.0011236,None,None,1,,236.0011236,None,238.0067574,None,,,,,,,,,,,,,,,,,,,,,,,,,,,,,,,P013,fencog,2,Pre,2021_Oct_14_1113,N-Back (New Version 2021),2021.1.4,119.9408929
Conditions/Version_2Pr/twoback(1)_v2.xlsx,New rule: Press 'space' when you see 2-back (i.e. the same letter as the one that appeared 2 letters ago.),q,None,,,,,0,2,2,2,0,5,5,5,,,,,,,,,,,,,,,,,,,,,,,,,,,,,,,,,,,,,,,,,,,1.265,239.5063433,None,240.7767742,None,None,1,,240.7767742,None,242.78039,None,,,,,,,,,,,,,,,,,,,,,,,,,,,,,,,P013,fencog,2,Pre,2021_Oct_14_1113,N-Back (New Version 2021),2021.1.4,119.9408929
Conditions/Version_2Pr/twoback(1)_v2.xlsx,New rule: Press 'space' when you see 2-back (i.e. the same letter as the one that appeared 2 letters ago.),m,None,,,,,0,2,2,2,0,6,6,6,,,,,,,,,,,,,,,,,,,,,,,,,,,,,,,,,,,,,,,,,,,1.965,244.2798941,None,246.2481727,None,None,1,,246.2481727,None,248.2536814,None,,,,,,,,,,,,,,,,,,,,,,,,,,,,,,,P013,fencog,2,Pre,2021_Oct_14_1113,N-Back (New Version 2021),2021.1.4,119.9408929
Conditions/Version_2Pr/twoback(1)_v2.xlsx,New rule: Press 'space' when you see 2-back (i.e. the same letter as the one that appeared 2 letters ago.),Q,space,,,,,0,2,2,2,0,7,7,7,,,,,,,,,,,,,,,,,,,,,,,,,,,,,,,,,,,,,,,,,,,1.79,249.7533723,None,251.5517246,None,space,1,0.3298159,251.5517246,None,251.8950313,None,,,,,,,,,,,,,,,,,,,,,,,,,,,,,,,P013,fencog,2,Pre,2021_Oct_14_1113,N-Back (New Version 2021),2021.1.4,119.9408929
Conditions/Version_2Pr/twoback(1)_v2.xlsx,New rule: Press 'space' when you see 2-back (i.e. the same letter as the one that appeared 2 letters ago.),L,None,,,,,0,2,2,2,0,8,8,8,,,,,,,,,,,,,,,,,,,,,,,,,,,,,,,,,,,,,,,,,,,1.44,253.4022524,None,254.846409,None,None,1,,254.846409,None,256.8512453,None,,,,,,,,,,,,,,,,,,,,,,,,,,,,,,,P013,fencog,2,Pre,2021_Oct_14_1113,N-Back (New Version 2021),2021.1.4,119.9408929
Conditions/Version_2Pr/twoback(1)_v2.xlsx,New rule: Press 'space' when you see 2-back (i.e. the same letter as the one that appeared 2 letters ago.),q,space,,,,,0,2,2,2,0,9,9,9,,,,,,,,,,,,,,,,,,,,,,,,,,,,,,,,,,,,,,,,,,,1.665,258.3508492,None,260.0179395,None,None,0,,260.0179395,None,262.0295938,None,,,,,,,,,,,,,,,,,,,,,,,,,,,,,,,P013,fencog,2,Pre,2021_Oct_14_1113,N-Back (New Version 2021),2021.1.4,119.9408929
Conditions/Version_2Pr/twoback(1)_v2.xlsx,New rule: Press 'space' when you see 2-back (i.e. the same letter as the one that appeared 2 letters ago.),,,,,,,0,2,2,2,,,,,,,,,,,,,,,,,,,,,,,,,,,,,,,,,,,,,,,,,,,,,,,,,,,,,,,,,,,,,,,,,,,,,,,,,,,,,,,,,,,,,,,,,P013,fencog,2,Pre,2021_Oct_14_1113,N-Back (New Version 2021),2021.1.4,119.9408929
Conditions/Version_2Pr/threeback(1)_v2.xlsx,New rule: Press 'space' when you see 3-back (i.e. the same letter as the one that appeared 3 letters ago.),u,None,,,,,0,3,3,3,0,0,0,0,,,,,,,,,,,,,,,,,,,,,,,,,,,,,,,,,263.5458307,None,266.5343162,None,space,4.5529315,266.5343162,None,263.5458307,None,1.365,271.1067466,None,272.4736822,None,None,1,,272.4736822,None,274.4813186,None,,,,,,,,,,,,,,,,,,,,,,,,,,,,,,,P013,fencog,2,Pre,2021_Oct_14_1113,N-Back (New Version 2021),2021.1.4,119.9408929
Conditions/Version_2Pr/threeback(1)_v2.xlsx,New rule: Press 'space' when you see 3-back (i.e. the same letter as the one that appeared 3 letters ago.),U,None,,,,,0,3,3,3,0,1,1,1,,,,,,,,,,,,,,,,,,,,,,,,,,,,,,,,,,,,,,,,,,,1.915,275.9789265,None,277.8986273,None,space,0,0.5170834,277.8986273,None,278.4450682,None,,,,,,,,,,,,,,,,,,,,,,,,,,,,,,,P013,fencog,2,Pre,2021_Oct_14_1113,N-Back (New Version 2021),2021.1.4,119.9408929
Conditions/Version_2Pr/threeback(1)_v2.xlsx,New rule: Press 'space' when you see 3-back (i.e. the same letter as the one that appeared 3 letters ago.),p,None,,,,,0,3,3,3,0,2,2,2,,,,,,,,,,,,,,,,,,,,,,,,,,,,,,,,,,,,,,,,,,,1.565,279.9442938,None,281.5124168,None,None,1,,281.5124168,None,283.5190327,None,,,,,,,,,,,,,,,,,,,,,,,,,,,,,,,P013,fencog,2,Pre,2021_Oct_14_1113,N-Back (New Version 2021),2021.1.4,119.9408929
Conditions/Version_2Pr/threeback(1)_v2.xlsx,New rule: Press 'space' when you see 3-back (i.e. the same letter as the one that appeared 3 letters ago.),U,space,,,,,0,3,3,3,0,3,3,3,,,,,,,,,,,,,,,,,,,,,,,,,,,,,,,,,,,,,,,,,,,1.515,285.0179619,None,286.5382083,None,space,1,0.4000629,286.5382083,None,286.9514902,None,,,,,,,,,,,,,,,,,,,,,,,,,,,,,,,P013,fencog,2,Pre,2021_Oct_14_1113,N-Back (New Version 2021),2021.1.4,119.9408929
Conditions/Version_2Pr/threeback(1)_v2.xlsx,New rule: Press 'space' when you see 3-back (i.e. the same letter as the one that appeared 3 letters ago.),e,None,,,,,0,3,3,3,0,4,4,4,,,,,,,,,,,,,,,,,,,,,,,,,,,,,,,,,,,,,,,,,,,1.315,288.4586324,None,289.775898,None,None,1,,289.775898,None,291.7789687,None,,,,,,,,,,,,,,,,,,,,,,,,,,,,,,,P013,fencog,2,Pre,2021_Oct_14_1113,N-Back (New Version 2021),2021.1.4,119.9408929
Conditions/Version_2Pr/threeback(1)_v2.xlsx,New rule: Press 'space' when you see 3-back (i.e. the same letter as the one that appeared 3 letters ago.),R,None,,,,,0,3,3,3,0,5,5,5,,,,,,,,,,,,,,,,,,,,,,,,,,,,,,,,,,,,,,,,,,,1.215,293.282112,None,294.499717,None,None,1,,294.499717,None,296.5062939,None,,,,,,,,,,,,,,,,,,,,,,,,,,,,,,,P013,fencog,2,Pre,2021_Oct_14_1113,N-Back (New Version 2021),2021.1.4,119.9408929
Conditions/Version_2Pr/threeback(1)_v2.xlsx,New rule: Press 'space' when you see 3-back (i.e. the same letter as the one that appeared 3 letters ago.),p,None,,,,,0,3,3,3,0,6,6,6,,,,,,,,,,,,,,,,,,,,,,,,,,,,,,,,,,,,,,,,,,,1.59,298.0057611,None,299.5983374,None,None,1,,299.5983374,None,301.6086506,None,,,,,,,,,,,,,,,,,,,,,,,,,,,,,,,P013,fencog,2,Pre,2021_Oct_14_1113,N-Back (New Version 2021),2021.1.4,119.9408929
Conditions/Version_2Pr/threeback(1)_v2.xlsx,New rule: Press 'space' when you see 3-back (i.e. the same letter as the one that appeared 3 letters ago.),E,space,,,,,0,3,3,3,0,7,7,7,,,,,,,,,,,,,,,,,,,,,,,,,,,,,,,,,,,,,,,,,,,1.94,303.105198,None,305.0457995,None,space,1,0.7313187,305.0457995,None,305.7878991,None,,,,,,,,,,,,,,,,,,,,,,,,,,,,,,,P013,fencog,2,Pre,2021_Oct_14_1113,N-Back (New Version 2021),2021.1.4,119.9408929
Conditions/Version_2Pr/threeback(1)_v2.xlsx,New rule: Press 'space' when you see 3-back (i.e. the same letter as the one that appeared 3 letters ago.),k,None,,,,,0,3,3,3,0,8,8,8,,,,,,,,,,,,,,,,,,,,,,,,,,,,,,,,,,,,,,,,,,,1.34,307.2955648,None,308.6375655,None,None,1,,308.6375655,None,310.6435441,None,,,,,,,,,,,,,,,,,,,,,,,,,,,,,,,P013,fencog,2,Pre,2021_Oct_14_1113,N-Back (New Version 2021),2021.1.4,119.9408929
Conditions/Version_2Pr/threeback(1)_v2.xlsx,New rule: Press 'space' when you see 3-back (i.e. the same letter as the one that appeared 3 letters ago.),m,None,,,,,0,3,3,3,0,9,9,9,,,,,,,,,,,,,,,,,,,,,,,,,,,,,,,,,,,,,,,,,,,1.24,312.1433238,None,313.3875419,None,None,1,,313.3875419,None,315.390853,None,,,,,,,,,,,,,,,,,,,,,,,,,,,,,,,P013,fencog,2,Pre,2021_Oct_14_1113,N-Back (New Version 2021),2021.1.4,119.9408929
Conditions/Version_2Pr/threeback(1)_v2.xlsx,New rule: Press 'space' when you see 3-back (i.e. the same letter as the one that appeared 3 letters ago.),,,,,,,0,3,3,3,,,,,,,,,,,,,,,,,,,,,,,,,,,,,,,,,,,,,,,,,,,,,,,,,,,,,,,,,,,,,,,,,,,,,,,,,,,,,,,,,,,,,,,,,P013,fencog,2,Pre,2021_Oct_14_1113,N-Back (New Version 2021),2021.1.4,119.9408929
,,,,,,,,,,,,,,,,,,,,,,,,,,,,,,,,,,,,,,,,,,,,,,,,,,,,,,,,,,,,,,,,,,,,,,316.9001416,None,space,46.0277805,317.3920494,None,,,,,,,,,,,,,,,,,,,,,,,,,P013,fencog,2,Pre,2021_Oct_14_1113,N-Back (New Version 2021),2021.1.4,119.9408929
,,,,,,,,,,,,,,,,,,,,,,,,,,,,,,,,,,,,,,,,,,,,,,,,,,,,,,,,,,,,,,,,,,,,,,,,,,,,363.4426162,None,space,11.0546517,363.9367703,None,,,,,,,,,,,,,,,,,,,P013,fencog,2,Pre,2021_Oct_14_1113,N-Back (New Version 2021),2021.1.4,119.9408929
,,,,Conditions/Version_1/zeroback(1)_v1.xlsx,Rule: Press 'space' when you see the letter 'x' or 'X'.,b,None,,,,,,,,,0,0,0,0,0,0,0,0,,,,,,,,,,,,,,,,,,,,,,,,,,,,,,,,,,,,,,,,,,,,,,,,,,,,,,,,,,,375.0895372,None,378.076714,None,space,1.5639917,378.076714,None,375.0895372,None,1.4316,381.1012363,None,None,1,381.1012363,None,,P013,fencog,2,Pre,2021_Oct_14_1113,N-Back (New Version 2021),2021.1.4,119.9408929
,,,,Conditions/Version_1/zeroback(1)_v1.xlsx,Rule: Press 'space' when you see the letter 'x' or 'X'.,T,None,,,,,,,,,0,0,0,0,0,1,1,1,,,,,,,,,,,,,,,,,,,,,,,,,,,,,,,,,,,,,,,,,,,,,,,,,,,,,,,,,,,,,,,,,,,,,1.0906,384.2001452,None,None,1,384.2001452,None,,P013,fencog,2,Pre,2021_Oct_14_1113,N-Back (New Version 2021),2021.1.4,119.9408929
,,,,Conditions/Version_1/zeroback(1)_v1.xlsx,Rule: Press 'space' when you see the letter 'x' or 'X'.,L,None,,,,,,,,,0,0,0,0,0,2,2,2,,,,,,,,,,,,,,,,,,,,,,,,,,,,,,,,,,,,,,,,,,,,,,,,,,,,,,,,,,,,,,,,,,,,,1.2022,387.4126676,None,None,1,387.4126676,None,,P013,fencog,2,Pre,2021_Oct_14_1113,N-Back (New Version 2021),2021.1.4,119.9408929
,,,,Conditions/Version_1/zeroback(1)_v1.xlsx,Rule: Press 'space' when you see the letter 'x' or 'X'.,x,space,,,,,,,,,0,0,0,0,0,3,3,3,,,,,,,,,,,,,,,,,,,,,,,,,,,,,,,,,,,,,,,,,,,,,,,,,,,,,,,,,,,,,,,,,,,,,1.6424,391.063922,None,space,1,391.063922,None,0.3643097,P013,fencog,2,Pre,2021_Oct_14_1113,N-Back (New Version 2021),2021.1.4,119.9408929
,,,,Conditions/Version_1/zeroback(1)_v1.xlsx,Rule: Press 'space' when you see the letter 'x' or 'X'.,o,None,,,,,,,,,0,0,0,0,0,4,4,4,,,,,,,,,,,,,,,,,,,,,,,,,,,,,,,,,,,,,,,,,,,,,,,,,,,,,,,,,,,,,,,,,,,,,1.4564,394.5295587,None,None,1,394.5295587,None,,P013,fencog,2,Pre,2021_Oct_14_1113,N-Back (New Version 2021),2021.1.4,119.9408929
,,,,Conditions/Version_1/zeroback(1)_v1.xlsx,Rule: Press 'space' when you see the letter 'x' or 'X'.,P,None,,,,,,,,,0,0,0,0,0,5,5,5,,,,,,,,,,,,,,,,,,,,,,,,,,,,,,,,,,,,,,,,,,,,,,,,,,,,,,,,,,,,,,,,,,,,,1.2952,397.8380184,None,None,1,397.8380184,None,,P013,fencog,2,Pre,2021_Oct_14_1113,N-Back (New Version 2021),2021.1.4,119.9408929
,,,,Conditions/Version_1/zeroback(1)_v1.xlsx,Rule: Press 'space' when you see the letter 'x' or 'X'.,X,space,,,,,,,,,0,0,0,0,0,6,6,6,,,,,,,,,,,,,,,,,,,,,,,,,,,,,,,,,,,,,,,,,,,,,,,,,,,,,,,,,,,,,,,,,,,,,1.8594,401.7104518,None,space,1,401.7104518,None,0.3394175,P013,fencog,2,Pre,2021_Oct_14_1113,N-Back (New Version 2021),2021.1.4,119.9408929
,,,,Conditions/Version_1/zeroback(1)_v1.xlsx,Rule: Press 'space' when you see the letter 'x' or 'X'.,n,None,,,,,,,,,0,0,0,0,0,7,7,7,,,,,,,,,,,,,,,,,,,,,,,,,,,,,,,,,,,,,,,,,,,,,,,,,,,,,,,,,,,,,,,,,,,,,1.5556,405.2772967,None,None,1,405.2772967,None,,P013,fencog,2,Pre,2021_Oct_14_1113,N-Back (New Version 2021),2021.1.4,119.9408929
,,,,Conditions/Version_1/zeroback(1)_v1.xlsx,Rule: Press 'space' when you see the letter 'x' or 'X'.,M,None,,,,,,,,,0,0,0,0,0,8,8,8,,,,,,,,,,,,,,,,,,,,,,,,,,,,,,,,,,,,,,,,,,,,,,,,,,,,,,,,,,,,,,,,,,,,,1.2084,408.4930605,None,None,1,408.4930605,None,,P013,fencog,2,Pre,2021_Oct_14_1113,N-Back (New Version 2021),2021.1.4,119.9408929
,,,,Conditions/Version_1/zeroback(1)_v1.xlsx,Rule: Press 'space' when you see the letter 'x' or 'X'.,a,None,,,,,,,,,0,0,0,0,0,9,9,9,,,,,,,,,,,,,,,,,,,,,,,,,,,,,,,,,,,,,,,,,,,,,,,,,,,,,,,,,,,,,,,,,,,,,1.6176,412.1242674,None,None,1,412.1242674,None,,P013,fencog,2,Pre,2021_Oct_14_1113,N-Back (New Version 2021),2021.1.4,119.9408929
,,,,Conditions/Version_1/zeroback(1)_v1.xlsx,Rule: Press 'space' when you see the letter 'x' or 'X'.,,,,,,,,,,,0,0,0,0,,,,,,,,,,,,,,,,,,,,,,,,,,,,,,,,,,,,,,,,,,,,,,,,,,,,,,,,,,,,,,,,,,,,,,,,,,,,,,,,,P013,fencog,2,Pre,2021_Oct_14_1113,N-Back (New Version 2021),2021.1.4,119.9408929
,,,,Conditions/Version_1/oneback(1)_v1.xlsx,New rule: Press 'space' when you see 1-back (i.e. the same letter as the one that appeared 1 letter ago.),b,None,,,,,,,,,0,1,1,1,0,0,0,0,,,,,,,,,,,,,,,,,,,,,,,,,,,,,,,,,,,,,,,,,,,,,,,,,,,,,,,,,,,414.1518834,None,417.1397275,None,space,14.6753196,417.1397275,None,414.1518834,None,1.0286,432.8847224,None,None,1,432.8847224,None,,P013,fencog,2,Pre,2021_Oct_14_1113,N-Back (New Version 2021),2021.1.4,119.9408929
,,,,Conditions/Version_1/oneback(1)_v1.xlsx,New rule: Press 'space' when you see 1-back (i.e. the same letter as the one that appeared 1 letter ago.),p,None,,,,,,,,,0,1,1,1,0,1,1,1,,,,,,,,,,,,,,,,,,,,,,,,,,,,,,,,,,,,,,,,,,,,,,,,,,,,,,,,,,,,,,,,,,,,,1.8656,436.7585376,None,None,1,436.7585376,None,,P013,fencog,2,Pre,2021_Oct_14_1113,N-Back (New Version 2021),2021.1.4,119.9408929
,,,,Conditions/Version_1/oneback(1)_v1.xlsx,New rule: Press 'space' when you see 1-back (i.e. the same letter as the one that appeared 1 letter ago.),M,None,,,,,,,,,0,1,1,1,0,2,2,2,,,,,,,,,,,,,,,,,,,,,,,,,,,,,,,,,,,,,,,,,,,,,,,,,,,,,,,,,,,,,,,,,,,,,1.6548,440.424199,None,None,1,440.424199,None,,P013,fencog,2,Pre,2021_Oct_14_1113,N-Back (New Version 2021),2021.1.4,119.9408929
,,,,Conditions/Version_1/oneback(1)_v1.xlsx,New rule: Press 'space' when you see 1-back (i.e. the same letter as the one that appeared 1 letter ago.),M,space,,,,,,,,,0,1,1,1,0,3,3,3,,,,,,,,,,,,,,,,,,,,,,,,,,,,,,,,,,,,,,,,,,,,,,,,,,,,,,,,,,,,,,,,,,,,,1.4564,443.8884805,None,space,1,443.8884805,None,0.3236521,P013,fencog,2,Pre,2021_Oct_14_1113,N-Back (New Version 2021),2021.1.4,119.9408929
,,,,Conditions/Version_1/oneback(1)_v1.xlsx,New rule: Press 'space' when you see 1-back (i.e. the same letter as the one that appeared 1 letter ago.),n,None,,,,,,,,,0,1,1,1,0,4,4,4,,,,,,,,,,,,,,,,,,,,,,,,,,,,,,,,,,,,,,,,,,,,,,,,,,,,,,,,,,,,,,,,,,,,,1.2084,447.1042612,None,None,1,447.1042612,None,,P013,fencog,2,Pre,2021_Oct_14_1113,N-Back (New Version 2021),2021.1.4,119.9408929
,,,,Conditions/Version_1/oneback(1)_v1.xlsx,New rule: Press 'space' when you see 1-back (i.e. the same letter as the one that appeared 1 letter ago.),g,None,,,,,,,,,0,1,1,1,0,5,5,5,,,,,,,,,,,,,,,,,,,,,,,,,,,,,,,,,,,,,,,,,,,,,,,,,,,,,,,,,,,,,,,,,,,,,1.7478,450.8621742,None,None,1,450.8621742,None,,P013,fencog,2,Pre,2021_Oct_14_1113,N-Back (New Version 2021),2021.1.4,119.9408929
,,,,Conditions/Version_1/oneback(1)_v1.xlsx,New rule: Press 'space' when you see 1-back (i.e. the same letter as the one that appeared 1 letter ago.),P,None,,,,,,,,,0,1,1,1,0,6,6,6,,,,,,,,,,,,,,,,,,,,,,,,,,,,,,,,,,,,,,,,,,,,,,,,,,,,,,,,,,,,,,,,,,,,,1.7416,454.612094,None,None,1,454.612094,None,,P013,fencog,2,Pre,2021_Oct_14_1113,N-Back (New Version 2021),2021.1.4,119.9408929
,,,,Conditions/Version_1/oneback(1)_v1.xlsx,New rule: Press 'space' when you see 1-back (i.e. the same letter as the one that appeared 1 letter ago.),o,None,,,,,,,,,0,1,1,1,0,7,7,7,,,,,,,,,,,,,,,,,,,,,,,,,,,,,,,,,,,,,,,,,,,,,,,,,,,,,,,,,,,,,,,,,,,,,1.5246,458.1439743,None,None,1,458.1439743,None,,P013,fencog,2,Pre,2021_Oct_14_1113,N-Back (New Version 2021),2021.1.4,119.9408929
,,,,Conditions/Version_1/oneback(1)_v1.xlsx,New rule: Press 'space' when you see 1-back (i.e. the same letter as the one that appeared 1 letter ago.),f,None,,,,,,,,,0,1,1,1,0,8,8,8,,,,,,,,,,,,,,,,,,,,,,,,,,,,,,,,,,,,,,,,,,,,,,,,,,,,,,,,,,,,,,,,,,,,,1.289,461.4420418,None,None,1,461.4420418,None,,P013,fencog,2,Pre,2021_Oct_14_1113,N-Back (New Version 2021),2021.1.4,119.9408929
,,,,Conditions/Version_1/oneback(1)_v1.xlsx,New rule: Press 'space' when you see 1-back (i.e. the same letter as the one that appeared 1 letter ago.),F,space,,,,,,,,,0,1,1,1,0,9,9,9,,,,,,,,,,,,,,,,,,,,,,,,,,,,,,,,,,,,,,,,,,,,,,,,,,,,,,,,,,,,,,,,,,,,,1.537,464.9929265,None,space,1,464.9929265,None,0.3414497,P013,fencog,2,Pre,2021_Oct_14_1113,N-Back (New Version 2021),2021.1.4,119.9408929
,,,,Conditions/Version_1/oneback(1)_v1.xlsx,New rule: Press 'space' when you see 1-back (i.e. the same letter as the one that appeared 1 letter ago.),,,,,,,,,,,0,1,1,1,,,,,,,,,,,,,,,,,,,,,,,,,,,,,,,,,,,,,,,,,,,,,,,,,,,,,,,,,,,,,,,,,,,,,,,,,,,,,,,,,P013,fencog,2,Pre,2021_Oct_14_1113,N-Back (New Version 2021),2021.1.4,119.9408929
,,,,Conditions/Version_1/twoback(1)_v1.xlsx,New rule: Press 'space' when you see 2-back (i.e. the same letter as the one that appeared 2 letters ago.),b,None,,,,,,,,,0,2,2,2,0,0,0,0,,,,,,,,,,,,,,,,,,,,,,,,,,,,,,,,,,,,,,,,,,,,,,,,,,,,,,,,,,,467.0196495,None,470.0075611,None,space,117.5767734,470.0075611,None,467.0196495,None,1.9152,589.5365677,None,None,1,589.5365677,None,,P013,fencog,2,Pre,2021_Oct_14_1113,N-Back (New Version 2021),2021.1.4,119.9408929
,,,,Conditions/Version_1/twoback(1)_v1.xlsx,New rule: Press 'space' when you see 2-back (i.e. the same letter as the one that appeared 2 letters ago.),h,None,,,,,,,,,0,2,2,2,0,1,1,1,,,,,,,,,,,,,,,,,,,,,,,,,,,,,,,,,,,,,,,,,,,,,,,,,,,,,,,,,,,,,,,,,,,,,1.9462,593.4885876,None,None,1,593.4885876,None,,P013,fencog,2,Pre,2021_Oct_14_1113,N-Back (New Version 2021),2021.1.4,119.9408929
,,,,Conditions/Version_1/twoback(1)_v1.xlsx,New rule: Press 'space' when you see 2-back (i.e. the same letter as the one that appeared 2 letters ago.),j,None,,,,,,,,,0,2,2,2,0,2,2,2,,,,,,,,,,,,,,,,,,,,,,,,,,,,,,,,,,,,,,,,,,,,,,,,,,,,,,,,,,,,,,,,,,,,,1.9958,597.4938564,None,None,1,597.4938564,None,,P013,fencog,2,Pre,2021_Oct_14_1113,N-Back (New Version 2021),2021.1.4,119.9408929
,,,,Conditions/Version_1/twoback(1)_v1.xlsx,New rule: Press 'space' when you see 2-back (i.e. the same letter as the one that appeared 2 letters ago.),H,space,,,,,,,,,0,2,2,2,0,3,3,3,,,,,,,,,,,,,,,,,,,,,,,,,,,,,,,,,,,,,,,,,,,,,,,,,,,,,,,,,,,,,,,,,,,,,1.2332,600.7375923,None,space,1,600.7375923,None,0.3487352,P013,fencog,2,Pre,2021_Oct_14_1113,N-Back (New Version 2021),2021.1.4,119.9408929
,,,,Conditions/Version_1/twoback(1)_v1.xlsx,New rule: Press 'space' when you see 2-back (i.e. the same letter as the one that appeared 2 letters ago.),p,None,,,,,,,,,0,2,2,2,0,4,4,4,,,,,,,,,,,,,,,,,,,,,,,,,,,,,,,,,,,,,,,,,,,,,,,,,,,,,,,,,,,,,,,,,,,,,1.3448,604.0922146,None,None,1,604.0922146,None,,P013,fencog,2,Pre,2021_Oct_14_1113,N-Back (New Version 2021),2021.1.4,119.9408929
,,,,Conditions/Version_1/twoback(1)_v1.xlsx,New rule: Press 'space' when you see 2-back (i.e. the same letter as the one that appeared 2 letters ago.),p,None,,,,,,,,,0,2,2,2,0,5,5,5,,,,,,,,,,,,,,,,,,,,,,,,,,,,,,,,,,,,,,,,,,,,,,,,,,,,,,,,,,,,,,,,,,,,,1.7416,607.8400767,None,None,1,607.8400767,None,,P013,fencog,2,Pre,2021_Oct_14_1113,N-Back (New Version 2021),2021.1.4,119.9408929
,,,,Conditions/Version_1/twoback(1)_v1.xlsx,New rule: Press 'space' when you see 2-back (i.e. the same letter as the one that appeared 2 letters ago.),w,None,,,,,,,,,0,2,2,2,0,6,6,6,,,,,,,,,,,,,,,,,,,,,,,,,,,,,,,,,,,,,,,,,,,,,,,,,,,,,,,,,,,,,,,,,,,,,1.2952,611.1498236,None,None,1,611.1498236,None,,P013,fencog,2,Pre,2021_Oct_14_1113,N-Back (New Version 2021),2021.1.4,119.9408929
,,,,Conditions/Version_1/twoback(1)_v1.xlsx,New rule: Press 'space' when you see 2-back (i.e. the same letter as the one that appeared 2 letters ago.),R,None,,,,,,,,,0,2,2,2,0,7,7,7,,,,,,,,,,,,,,,,,,,,,,,,,,,,,,,,,,,,,,,,,,,,,,,,,,,,,,,,,,,,,,,,,,,,,1.227,614.3813769,None,None,1,614.3813769,None,,P013,fencog,2,Pre,2021_Oct_14_1113,N-Back (New Version 2021),2021.1.4,119.9408929
,,,,Conditions/Version_1/twoback(1)_v1.xlsx,New rule: Press 'space' when you see 2-back (i.e. the same letter as the one that appeared 2 letters ago.),a,None,,,,,,,,,0,2,2,2,0,8,8,8,,,,,,,,,,,,,,,,,,,,,,,,,,,,,,,,,,,,,,,,,,,,,,,,,,,,,,,,,,,,,,,,,,,,,1.9896,618.3799669,None,None,1,618.3799669,None,,P013,fencog,2,Pre,2021_Oct_14_1113,N-Back (New Version 2021),2021.1.4,119.9408929
,,,,Conditions/Version_1/twoback(1)_v1.xlsx,New rule: Press 'space' when you see 2-back (i.e. the same letter as the one that appeared 2 letters ago.),r,space,,,,,,,,,0,2,2,2,0,9,9,9,,,,,,,,,,,,,,,,,,,,,,,,,,,,,,,,,,,,,,,,,,,,,,,,,,,,,,,,,,,,,,,,,,,,,1.8098,622.2044906,None,space,1,622.2044906,None,0.3950631,P013,fencog,2,Pre,2021_Oct_14_1113,N-Back (New Version 2021),2021.1.4,119.9408929
,,,,Conditions/Version_1/twoback(1)_v1.xlsx,New rule: Press 'space' when you see 2-back (i.e. the same letter as the one that appeared 2 letters ago.),,,,,,,,,,,0,2,2,2,,,,,,,,,,,,,,,,,,,,,,,,,,,,,,,,,,,,,,,,,,,,,,,,,,,,,,,,,,,,,,,,,,,,,,,,,,,,,,,,,P013,fencog,2,Pre,2021_Oct_14_1113,N-Back (New Version 2021),2021.1.4,119.9408929
,,,,Conditions/Version_1/threeback(1)_v1.xlsx,New rule: Press 'space' when you see 3-back (i.e. the same letter as the one that appeared 3 letters ago.),r,None,,,,,,,,,0,3,3,3,0,0,0,0,,,,,,,,,,,,,,,,,,,,,,,,,,,,,,,,,,,,,,,,,,,,,,,,,,,,,,,,,,,624.233641,None,627.2206043,None,space,35.323763,627.2206043,None,624.233641,None,1.568,664.1315612,None,None,1,664.1315612,None,,P013,fencog,2,Pre,2021_Oct_14_1113,N-Back (New Version 2021),2021.1.4,119.9408929
,,,,Conditions/Version_1/threeback(1)_v1.xlsx,New rule: Press 'space' when you see 3-back (i.e. the same letter as the one that appeared 3 letters ago.),o,None,,,,,,,,,0,3,3,3,0,1,1,1,,,,,,,,,,,,,,,,,,,,,,,,,,,,,,,,,,,,,,,,,,,,,,,,,,,,,,,,,,,,,,,,,,,,,1.4626,667.5969914,None,None,1,667.5969914,None,,P013,fencog,2,Pre,2021_Oct_14_1113,N-Back (New Version 2021),2021.1.4,119.9408929
,,,,Conditions/Version_1/threeback(1)_v1.xlsx,New rule: Press 'space' when you see 3-back (i.e. the same letter as the one that appeared 3 letters ago.),P,None,,,,,,,,,0,3,3,3,0,2,2,2,,,,,,,,,,,,,,,,,,,,,,,,,,,,,,,,,,,,,,,,,,,,,,,,,,,,,,,,,,,,,,,,,,,,,1.1588,670.7649735,None,None,1,670.7649735,None,,P013,fencog,2,Pre,2021_Oct_14_1113,N-Back (New Version 2021),2021.1.4,119.9408929
,,,,Conditions/Version_1/threeback(1)_v1.xlsx,New rule: Press 'space' when you see 3-back (i.e. the same letter as the one that appeared 3 letters ago.),R,space,,,,,,,,,0,3,3,3,0,3,3,3,,,,,,,,,,,,,,,,,,,,,,,,,,,,,,,,,,,,,,,,,,,,,,,,,,,,,,,,,,,,,,,,,,,,,1.537,674.313557,None,space,1,674.313557,None,0.5555521,P013,fencog,2,Pre,2021_Oct_14_1113,N-Back (New Version 2021),2021.1.4,119.9408929
,,,,Conditions/Version_1/threeback(1)_v1.xlsx,New rule: Press 'space' when you see 3-back (i.e. the same letter as the one that appeared 3 letters ago.),p,None,,,,,,,,,0,3,3,3,0,4,4,4,,,,,,,,,,,,,,,,,,,,,,,,,,,,,,,,,,,,,,,,,,,,,,,,,,,,,,,,,,,,,,,,,,,,,1.6052,677.9296154,None,None,1,677.9296154,None,,P013,fencog,2,Pre,2021_Oct_14_1113,N-Back (New Version 2021),2021.1.4,119.9408929
,,,,Conditions/Version_1/threeback(1)_v1.xlsx,New rule: Press 'space' when you see 3-back (i.e. the same letter as the one that appeared 3 letters ago.),E,None,,,,,,,,,0,3,3,3,0,5,5,5,,,,,,,,,,,,,,,,,,,,,,,,,,,,,,,,,,,,,,,,,,,,,,,,,,,,,,,,,,,,,,,,,,,,,1.1712,681.1096844,None,None,1,681.1096844,None,,P013,fencog,2,Pre,2021_Oct_14_1113,N-Back (New Version 2021),2021.1.4,119.9408929
,,,,Conditions/Version_1/threeback(1)_v1.xlsx,New rule: Press 'space' when you see 3-back (i.e. the same letter as the one that appeared 3 letters ago.),e,None,,,,,,,,,0,3,3,3,0,6,6,6,,,,,,,,,,,,,,,,,,,,,,,,,,,,,,,,,,,,,,,,,,,,,,,,,,,,,,,,,,,,,,,,,,,,,1.9276,685.0446885,None,None,1,685.0446885,None,,P013,fencog,2,Pre,2021_Oct_14_1113,N-Back (New Version 2021),2021.1.4,119.9408929
,,,,Conditions/Version_1/threeback(1)_v1.xlsx,New rule: Press 'space' when you see 3-back (i.e. the same letter as the one that appeared 3 letters ago.),m,None,,,,,,,,,0,3,3,3,0,7,7,7,,,,,,,,,,,,,,,,,,,,,,,,,,,,,,,,,,,,,,,,,,,,,,,,,,,,,,,,,,,,,,,,,,,,,1.9834,689.0328003,None,None,1,689.0328003,None,,P013,fencog,2,Pre,2021_Oct_14_1113,N-Back (New Version 2021),2021.1.4,119.9408929
,,,,Conditions/Version_1/threeback(1)_v1.xlsx,New rule: Press 'space' when you see 3-back (i.e. the same letter as the one that appeared 3 letters ago.),n,None,,,,,,,,,0,3,3,3,0,8,8,8,,,,,,,,,,,,,,,,,,,,,,,,,,,,,,,,,,,,,,,,,,,,,,,,,,,,,,,,,,,,,,,,,,,,,1.5804,692.6167703,None,None,1,692.6167703,None,,P013,fencog,2,Pre,2021_Oct_14_1113,N-Back (New Version 2021),2021.1.4,119.9408929
,,,,Conditions/Version_1/threeback(1)_v1.xlsx,New rule: Press 'space' when you see 3-back (i.e. the same letter as the one that appeared 3 letters ago.),e,space,,,,,,,,,0,3,3,3,0,9,9,9,,,,,,,,,,,,,,,,,,,,,,,,,,,,,,,,,,,,,,,,,,,,,,,,,,,,,,,,,,,,,,,,,,,,,1.1402,695.7745258,None,space,1,695.7745258,None,0.5249861,P013,fencog,2,Pre,2021_Oct_14_1113,N-Back (New Version 2021),2021.1.4,119.9408929
,,,,Conditions/Version_1/threeback(1)_v1.xlsx,New rule: Press 'space' when you see 3-back (i.e. the same letter as the one that appeared 3 letters ago.),,,,,,,,,,,0,3,3,3,,,,,,,,,,,,,,,,,,,,,,,,,,,,,,,,,,,,,,,,,,,,,,,,,,,,,,,,,,,,,,,,,,,,,,,,,,,,,,,,,P013,fencog,2,Pre,2021_Oct_14_1113,N-Back (New Version 2021),2021.1.4,119.9408929
,,,,Conditions/Version_1/oneback(2)_v1.xlsx,New rule: Press 'space' when you see 1-back (i.e. the same letter as the one that appeared 1 letter ago.),q,None,,,,,,,,,0,4,4,4,0,0,0,0,,,,,,,,,,,,,,,,,,,,,,,,,,,,,,,,,,,,,,,,,,,,,,,,,,,,,,,,,,,697.8034264,None,700.8007299,None,space,0.7401415,700.8007299,None,697.8034264,None,1.0472,702.6126867,None,None,1,702.6126867,None,,P013,fencog,2,Pre,2021_Oct_14_1113,N-Back (New Version 2021),2021.1.4,119.9408929
,,,,Conditions/Version_1/oneback(2)_v1.xlsx,New rule: Press 'space' when you see 1-back (i.e. the same letter as the one that appeared 1 letter ago.),Q,space,,,,,,,,,0,4,4,4,0,1,1,1,,,,,,,,,,,,,,,,,,,,,,,,,,,,,,,,,,,,,,,,,,,,,,,,,,,,,,,,,,,,,,,,,,,,,1.6982,706.3200251,None,space,1,706.3200251,None,0.3458898,P013,fencog,2,Pre,2021_Oct_14_1113,N-Back (New Version 2021),2021.1.4,119.9408929
,,,,Conditions/Version_1/oneback(2)_v1.xlsx,New rule: Press 'space' when you see 1-back (i.e. the same letter as the one that appeared 1 letter ago.),P,None,,,,,,,,,0,4,4,4,0,2,2,2,,,,,,,,,,,,,,,,,,,,,,,,,,,,,,,,,,,,,,,,,,,,,,,,,,,,,,,,,,,,,,,,,,,,,1.3882,709.7117195,None,None,1,709.7117195,None,,P013,fencog,2,Pre,2021_Oct_14_1113,N-Back (New Version 2021),2021.1.4,119.9408929
,,,,Conditions/Version_1/oneback(2)_v1.xlsx,New rule: Press 'space' when you see 1-back (i.e. the same letter as the one that appeared 1 letter ago.),o,None,,,,,,,,,0,4,4,4,0,3,3,3,,,,,,,,,,,,,,,,,,,,,,,,,,,,,,,,,,,,,,,,,,,,,,,,,,,,,,,,,,,,,,,,,,,,,1.723,713.4437831,None,None,1,713.4437831,None,,P013,fencog,2,Pre,2021_Oct_14_1113,N-Back (New Version 2021),2021.1.4,119.9408929
,,,,Conditions/Version_1/oneback(2)_v1.xlsx,New rule: Press 'space' when you see 1-back (i.e. the same letter as the one that appeared 1 letter ago.),m,None,,,,,,,,,0,4,4,4,0,4,4,4,,,,,,,,,,,,,,,,,,,,,,,,,,,,,,,,,,,,,,,,,,,,,,,,,,,,,,,,,,,,,,,,,,,,,1.9834,717.4323105,None,None,1,717.4323105,None,,P013,fencog,2,Pre,2021_Oct_14_1113,N-Back (New Version 2021),2021.1.4,119.9408929
,,,,Conditions/Version_1/oneback(2)_v1.xlsx,New rule: Press 'space' when you see 1-back (i.e. the same letter as the one that appeared 1 letter ago.),Z,None,,,,,,,,,0,4,4,4,0,5,5,5,,,,,,,,,,,,,,,,,,,,,,,,,,,,,,,,,,,,,,,,,,,,,,,,,,,,,,,,,,,,,,,,,,,,,1.103,720.5429654,None,None,1,720.5429654,None,,P013,fencog,2,Pre,2021_Oct_14_1113,N-Back (New Version 2021),2021.1.4,119.9408929
,,,,Conditions/Version_1/oneback(2)_v1.xlsx,New rule: Press 'space' when you see 1-back (i.e. the same letter as the one that appeared 1 letter ago.),c,None,,,,,,,,,0,4,4,4,0,6,6,6,,,,,,,,,,,,,,,,,,,,,,,,,,,,,,,,,,,,,,,,,,,,,,,,,,,,,,,,,,,,,,,,,,,,,1.2208,723.775275,None,None,1,723.775275,None,,P013,fencog,2,Pre,2021_Oct_14_1113,N-Back (New Version 2021),2021.1.4,119.9408929
,,,,Conditions/Version_1/oneback(2)_v1.xlsx,New rule: Press 'space' when you see 1-back (i.e. the same letter as the one that appeared 1 letter ago.),c,space,,,,,,,,,0,4,4,4,0,7,7,7,,,,,,,,,,,,,,,,,,,,,,,,,,,,,,,,,,,,,,,,,,,,,,,,,,,,,,,,,,,,,,,,,,,,,1.1774,726.9637181,None,space,1,726.9637181,None,0.3364291,P013,fencog,2,Pre,2021_Oct_14_1113,N-Back (New Version 2021),2021.1.4,119.9408929
,,,,Conditions/Version_1/oneback(2)_v1.xlsx,New rule: Press 'space' when you see 1-back (i.e. the same letter as the one that appeared 1 letter ago.),P,None,,,,,,,,,0,4,4,4,0,8,8,8,,,,,,,,,,,,,,,,,,,,,,,,,,,,,,,,,,,,,,,,,,,,,,,,,,,,,,,,,,,,,,,,,,,,,1.8284,730.80481,None,None,1,730.80481,None,,P013,fencog,2,Pre,2021_Oct_14_1113,N-Back (New Version 2021),2021.1.4,119.9408929
,,,,Conditions/Version_1/oneback(2)_v1.xlsx,New rule: Press 'space' when you see 1-back (i.e. the same letter as the one that appeared 1 letter ago.),p,space,,,,,,,,,0,4,4,4,0,9,9,9,,,,,,,,,,,,,,,,,,,,,,,,,,,,,,,,,,,,,,,,,,,,,,,,,,,,,,,,,,,,,,,,,,,,,1.9586,734.770768,None,space,1,734.770768,None,0.3285628,P013,fencog,2,Pre,2021_Oct_14_1113,N-Back (New Version 2021),2021.1.4,119.9408929
,,,,Conditions/Version_1/oneback(2)_v1.xlsx,New rule: Press 'space' when you see 1-back (i.e. the same letter as the one that appeared 1 letter ago.),,,,,,,,,,,0,4,4,4,,,,,,,,,,,,,,,,,,,,,,,,,,,,,,,,,,,,,,,,,,,,,,,,,,,,,,,,,,,,,,,,,,,,,,,,,,,,,,,,,P013,fencog,2,Pre,2021_Oct_14_1113,N-Back (New Version 2021),2021.1.4,119.9408929
,,,,Conditions/Version_1/zeroback(2)_v1.xlsx,New rule: Press 'space' when you see the letter 'x' or 'X'.,p,None,,,,,,,,,0,5,5,5,0,0,0,0,,,,,,,,,,,,,,,,,,,,,,,,,,,,,,,,,,,,,,,,,,,,,,,,,,,,,,,,,,,736.8048065,None,739.7874483,None,space,0.3002861,739.7874483,None,736.8048065,None,1.7912,741.900341,None,None,1,741.900341,None,,P013,fencog,2,Pre,2021_Oct_14_1113,N-Back (New Version 2021),2021.1.4,119.9408929
,,,,Conditions/Version_1/zeroback(2)_v1.xlsx,New rule: Press 'space' when you see the letter 'x' or 'X'.,L,None,,,,,,,,,0,5,5,5,0,1,1,1,,,,,,,,,,,,,,,,,,,,,,,,,,,,,,,,,,,,,,,,,,,,,,,,,,,,,,,,,,,,,,,,,,,,,1.5742,745.4750074,None,None,1,745.4750074,None,,P013,fencog,2,Pre,2021_Oct_14_1113,N-Back (New Version 2021),2021.1.4,119.9408929
,,,,Conditions/Version_1/zeroback(2)_v1.xlsx,New rule: Press 'space' when you see the letter 'x' or 'X'.,G,None,,,,,,,,,0,5,5,5,0,2,2,2,,,,,,,,,,,,,,,,,,,,,,,,,,,,,,,,,,,,,,,,,,,,,,,,,,,,,,,,,,,,,,,,,,,,,1.5308,749.0199456,None,None,1,749.0199456,None,,P013,fencog,2,Pre,2021_Oct_14_1113,N-Back (New Version 2021),2021.1.4,119.9408929
,,,,Conditions/Version_1/zeroback(2)_v1.xlsx,New rule: Press 'space' when you see the letter 'x' or 'X'.,y,None,,,,,,,,,0,5,5,5,0,3,3,3,,,,,,,,,,,,,,,,,,,,,,,,,,,,,,,,,,,,,,,,,,,,,,,,,,,,,,,,,,,,,,,,,,,,,1.5928,752.6218974,None,None,1,752.6218974,None,,P013,fencog,2,Pre,2021_Oct_14_1113,N-Back (New Version 2021),2021.1.4,119.9408929
,,,,Conditions/Version_1/zeroback(2)_v1.xlsx,New rule: Press 'space' when you see the letter 'x' or 'X'.,Y,None,,,,,,,,,0,5,5,5,0,4,4,4,,,,,,,,,,,,,,,,,,,,,,,,,,,,,,,,,,,,,,,,,,,,,,,,,,,,,,,,,,,,,,,,,,,,,1.01,755.6389868,None,space,0,755.6389868,None,0.7435654,P013,fencog,2,Pre,2021_Oct_14_1113,N-Back (New Version 2021),2021.1.4,119.9408929
,,,,Conditions/Version_1/zeroback(2)_v1.xlsx,New rule: Press 'space' when you see the letter 'x' or 'X'.,W,None,,,,,,,,,0,5,5,5,0,5,5,5,,,,,,,,,,,,,,,,,,,,,,,,,,,,,,,,,,,,,,,,,,,,,,,,,,,,,,,,,,,,,,,,,,,,,1.3572,759.0092132,None,None,1,759.0092132,None,,P013,fencog,2,Pre,2021_Oct_14_1113,N-Back (New Version 2021),2021.1.4,119.9408929
,,,,Conditions/Version_1/zeroback(2)_v1.xlsx,New rule: Press 'space' when you see the letter 'x' or 'X'.,x,space,,,,,,,,,0,5,5,5,0,6,6,6,,,,,,,,,,,,,,,,,,,,,,,,,,,,,,,,,,,,,,,,,,,,,,,,,,,,,,,,,,,,,,,,,,,,,1.8532,762.8679029,None,space,1,762.8679029,None,0.4069049,P013,fencog,2,Pre,2021_Oct_14_1113,N-Back (New Version 2021),2021.1.4,119.9408929
,,,,Conditions/Version_1/zeroback(2)_v1.xlsx,New rule: Press 'space' when you see the letter 'x' or 'X'.,X,space,,,,,,,,,0,5,5,5,0,7,7,7,,,,,,,,,,,,,,,,,,,,,,,,,,,,,,,,,,,,,,,,,,,,,,,,,,,,,,,,,,,,,,,,,,,,,1.1588,766.0298307,None,space,1,766.0298307,None,0.4125341,P013,fencog,2,Pre,2021_Oct_14_1113,N-Back (New Version 2021),2021.1.4,119.9408929
,,,,Conditions/Version_1/zeroback(2)_v1.xlsx,New rule: Press 'space' when you see the letter 'x' or 'X'.,p,None,,,,,,,,,0,5,5,5,0,8,8,8,,,,,,,,,,,,,,,,,,,,,,,,,,,,,,,,,,,,,,,,,,,,,,,,,,,,,,,,,,,,,,,,,,,,,1.8036,769.8420075,None,None,1,769.8420075,None,,P013,fencog,2,Pre,2021_Oct_14_1113,N-Back (New Version 2021),2021.1.4,119.9408929
,,,,Conditions/Version_1/zeroback(2)_v1.xlsx,New rule: Press 'space' when you see the letter 'x' or 'X'.,h,None,,,,,,,,,0,5,5,5,0,9,9,9,,,,,,,,,,,,,,,,,,,,,,,,,,,,,,,,,,,,,,,,,,,,,,,,,,,,,,,,,,,,,,,,,,,,,1.5556,773.4004491,None,None,1,773.4004491,None,,P013,fencog,2,Pre,2021_Oct_14_1113,N-Back (New Version 2021),2021.1.4,119.9408929
,,,,Conditions/Version_1/zeroback(2)_v1.xlsx,New rule: Press 'space' when you see the letter 'x' or 'X'.,,,,,,,,,,,0,5,5,5,,,,,,,,,,,,,,,,,,,,,,,,,,,,,,,,,,,,,,,,,,,,,,,,,,,,,,,,,,,,,,,,,,,,,,,,,,,,,,,,,P013,fencog,2,Pre,2021_Oct_14_1113,N-Back (New Version 2021),2021.1.4,119.9408929
,,,,Conditions/Version_1/threeback(2)_v1.xlsx,New rule: Press 'space' when you see 3-back (i.e. the same letter as the one that appeared 3 letters ago.),q,None,,,,,,,,,0,6,6,6,0,0,0,0,,,,,,,,,,,,,,,,,,,,,,,,,,,,,,,,,,,,,,,,,,,,,,,,,,,,,,,,,,,775.4345591,None,778.4168008,None,space,3.8885006,778.4168008,None,775.4345591,None,1.5432,783.8879798,None,None,1,783.8879798,None,,P013,fencog,2,Pre,2021_Oct_14_1113,N-Back (New Version 2021),2021.1.4,119.9408929
,,,,Conditions/Version_1/threeback(2)_v1.xlsx,New rule: Press 'space' when you see 3-back (i.e. the same letter as the one that appeared 3 letters ago.),Y,None,,,,,,,,,0,6,6,6,0,1,1,1,,,,,,,,,,,,,,,,,,,,,,,,,,,,,,,,,,,,,,,,,,,,,,,,,,,,,,,,,,,,,,,,,,,,,1.6982,787.5867524,None,None,1,787.5867524,None,,P013,fencog,2,Pre,2021_Oct_14_1113,N-Back (New Version 2021),2021.1.4,119.9408929
,,,,Conditions/Version_1/threeback(2)_v1.xlsx,New rule: Press 'space' when you see 3-back (i.e. the same letter as the one that appeared 3 letters ago.),p,None,,,,,,,,,0,6,6,6,0,2,2,2,,,,,,,,,,,,,,,,,,,,,,,,,,,,,,,,,,,,,,,,,,,,,,,,,,,,,,,,,,,,,,,,,,,,,1.165,790.7524271,None,None,1,790.7524271,None,,P013,fencog,2,Pre,2021_Oct_14_1113,N-Back (New Version 2021),2021.1.4,119.9408929
,,,,Conditions/Version_1/threeback(2)_v1.xlsx,New rule: Press 'space' when you see 3-back (i.e. the same letter as the one that appeared 3 letters ago.),p,None,,,,,,,,,0,6,6,6,0,3,3,3,,,,,,,,,,,,,,,,,,,,,,,,,,,,,,,,,,,,,,,,,,,,,,,,,,,,,,,,,,,,,,,,,,,,,1.2704,794.0266497,None,None,1,794.0266497,None,,P013,fencog,2,Pre,2021_Oct_14_1113,N-Back (New Version 2021),2021.1.4,119.9408929
,,,,Conditions/Version_1/threeback(2)_v1.xlsx,New rule: Press 'space' when you see 3-back (i.e. the same letter as the one that appeared 3 letters ago.),y,space,,,,,,,,,0,6,6,6,0,4,4,4,,,,,,,,,,,,,,,,,,,,,,,,,,,,,,,,,,,,,,,,,,,,,,,,,,,,,,,,,,,,,,,,,,,,,1.7602,797.7940523,None,space,1,797.7940523,None,0.6821701,P013,fencog,2,Pre,2021_Oct_14_1113,N-Back (New Version 2021),2021.1.4,119.9408929
,,,,Conditions/Version_1/threeback(2)_v1.xlsx,New rule: Press 'space' when you see 3-back (i.e. the same letter as the one that appeared 3 letters ago.),u,None,,,,,,,,,0,6,6,6,0,5,5,5,,,,,,,,,,,,,,,,,,,,,,,,,,,,,,,,,,,,,,,,,,,,,,,,,,,,,,,,,,,,,,,,,,,,,1.6672,801.4766996,None,None,1,801.4766996,None,,P013,fencog,2,Pre,2021_Oct_14_1113,N-Back (New Version 2021),2021.1.4,119.9408929
,,,,Conditions/Version_1/threeback(2)_v1.xlsx,New rule: Press 'space' when you see 3-back (i.e. the same letter as the one that appeared 3 letters ago.),P,space,,,,,,,,,0,6,6,6,0,6,6,6,,,,,,,,,,,,,,,,,,,,,,,,,,,,,,,,,,,,,,,,,,,,,,,,,,,,,,,,,,,,,,,,,,,,,1.1278,804.6160652,None,space,1,804.6160652,None,0.4764199,P013,fencog,2,Pre,2021_Oct_14_1113,N-Back (New Version 2021),2021.1.4,119.9408929
,,,,Conditions/Version_1/threeback(2)_v1.xlsx,New rule: Press 'space' when you see 3-back (i.e. the same letter as the one that appeared 3 letters ago.),a,None,,,,,,,,,0,6,6,6,0,7,7,7,,,,,,,,,,,,,,,,,,,,,,,,,,,,,,,,,,,,,,,,,,,,,,,,,,,,,,,,,,,,,,,,,,,,,1.5308,808.1581138,None,None,1,808.1581138,None,,P013,fencog,2,Pre,2021_Oct_14_1113,N-Back (New Version 2021),2021.1.4,119.9408929
,,,,Conditions/Version_1/threeback(2)_v1.xlsx,New rule: Press 'space' when you see 3-back (i.e. the same letter as the one that appeared 3 letters ago.),U,space,,,,,,,,,0,6,6,6,0,8,8,8,,,,,,,,,,,,,,,,,,,,,,,,,,,,,,,,,,,,,,,,,,,,,,,,,,,,,,,,,,,,,,,,,,,,,1.8036,811.9735422,None,space,1,811.9735422,None,0.4329946,P013,fencog,2,Pre,2021_Oct_14_1113,N-Back (New Version 2021),2021.1.4,119.9408929
,,,,Conditions/Version_1/threeback(2)_v1.xlsx,New rule: Press 'space' when you see 3-back (i.e. the same letter as the one that appeared 3 letters ago.),q,None,,,,,,,,,0,6,6,6,0,9,9,9,,,,,,,,,,,,,,,,,,,,,,,,,,,,,,,,,,,,,,,,,,,,,,,,,,,,,,,,,,,,,,,,,,,,,1.5866,815.5723166,None,None,1,815.5723166,None,,P013,fencog,2,Pre,2021_Oct_14_1113,N-Back (New Version 2021),2021.1.4,119.9408929
,,,,Conditions/Version_1/threeback(2)_v1.xlsx,New rule: Press 'space' when you see 3-back (i.e. the same letter as the one that appeared 3 letters ago.),,,,,,,,,,,0,6,6,6,,,,,,,,,,,,,,,,,,,,,,,,,,,,,,,,,,,,,,,,,,,,,,,,,,,,,,,,,,,,,,,,,,,,,,,,,,,,,,,,,P013,fencog,2,Pre,2021_Oct_14_1113,N-Back (New Version 2021),2021.1.4,119.9408929
,,,,Conditions/Version_1/twoback(2)_v1.xlsx,New rule: Press 'space' when you see 2-back (i.e. the same letter as the one that appeared 2 letters ago.),q,None,,,,,,,,,0,7,7,7,0,0,0,0,,,,,,,,,,,,,,,,,,,,,,,,,,,,,,,,,,,,,,,,,,,,,,,,,,,,,,,,,,,817.6014261,None,820.5870597,None,space,2.2766068,820.5870597,None,817.6014261,None,1.94,824.8343695,None,None,1,824.8343695,None,,P013,fencog,2,Pre,2021_Oct_14_1113,N-Back (New Version 2021),2021.1.4,119.9408929
,,,,Conditions/Version_1/twoback(2)_v1.xlsx,New rule: Press 'space' when you see 2-back (i.e. the same letter as the one that appeared 2 letters ago.),r,None,,,,,,,,,0,7,7,7,0,1,1,1,,,,,,,,,,,,,,,,,,,,,,,,,,,,,,,,,,,,,,,,,,,,,,,,,,,,,,,,,,,,,,,,,,,,,1.382,828.2185819,None,None,1,828.2185819,None,,P013,fencog,2,Pre,2021_Oct_14_1113,N-Back (New Version 2021),2021.1.4,119.9408929
,,,,Conditions/Version_1/twoback(2)_v1.xlsx,New rule: Press 'space' when you see 2-back (i.e. the same letter as the one that appeared 2 letters ago.),q,space,,,,,,,,,0,7,7,7,0,2,2,2,,,,,,,,,,,,,,,,,,,,,,,,,,,,,,,,,,,,,,,,,,,,,,,,,,,,,,,,,,,,,,,,,,,,,1.444,831.6808672,None,space,1,831.6808672,None,0.4376057,P013,fencog,2,Pre,2021_Oct_14_1113,N-Back (New Version 2021),2021.1.4,119.9408929
,,,,Conditions/Version_1/twoback(2)_v1.xlsx,New rule: Press 'space' when you see 2-back (i.e. the same letter as the one that appeared 2 letters ago.),P,None,,,,,,,,,0,7,7,7,0,3,3,3,,,,,,,,,,,,,,,,,,,,,,,,,,,,,,,,,,,,,,,,,,,,,,,,,,,,,,,,,,,,,,,,,,,,,1.4316,835.1164288,None,None,1,835.1164288,None,,P013,fencog,2,Pre,2021_Oct_14_1113,N-Back (New Version 2021),2021.1.4,119.9408929
,,,,Conditions/Version_1/twoback(2)_v1.xlsx,New rule: Press 'space' when you see 2-back (i.e. the same letter as the one that appeared 2 letters ago.),p,None,,,,,,,,,0,7,7,7,0,4,4,4,,,,,,,,,,,,,,,,,,,,,,,,,,,,,,,,,,,,,,,,,,,,,,,,,,,,,,,,,,,,,,,,,,,,,1.4936,838.6227506,None,space,0,838.6227506,None,0.7338606,P013,fencog,2,Pre,2021_Oct_14_1113,N-Back (New Version 2021),2021.1.4,119.9408929
,,,,Conditions/Version_1/twoback(2)_v1.xlsx,New rule: Press 'space' when you see 2-back (i.e. the same letter as the one that appeared 2 letters ago.),H,None,,,,,,,,,0,7,7,7,0,5,5,5,,,,,,,,,,,,,,,,,,,,,,,,,,,,,,,,,,,,,,,,,,,,,,,,,,,,,,,,,,,,,,,,,,,,,1.9772,842.614581,None,None,1,842.614581,None,,P013,fencog,2,Pre,2021_Oct_14_1113,N-Back (New Version 2021),2021.1.4,119.9408929
,,,,Conditions/Version_1/twoback(2)_v1.xlsx,New rule: Press 'space' when you see 2-back (i.e. the same letter as the one that appeared 2 letters ago.),g,None,,,,,,,,,0,7,7,7,0,6,6,6,,,,,,,,,,,,,,,,,,,,,,,,,,,,,,,,,,,,,,,,,,,,,,,,,,,,,,,,,,,,,,,,,,,,,1.0348,845.6613254,None,None,1,845.6613254,None,,P013,fencog,2,Pre,2021_Oct_14_1113,N-Back (New Version 2021),2021.1.4,119.9408929
,,,,Conditions/Version_1/twoback(2)_v1.xlsx,New rule: Press 'space' when you see 2-back (i.e. the same letter as the one that appeared 2 letters ago.),j,None,,,,,,,,,0,7,7,7,0,7,7,7,,,,,,,,,,,,,,,,,,,,,,,,,,,,,,,,,,,,,,,,,,,,,,,,,,,,,,,,,,,,,,,,,,,,,1.7416,849.4053423,None,None,1,849.4053423,None,,P013,fencog,2,Pre,2021_Oct_14_1113,N-Back (New Version 2021),2021.1.4,119.9408929
,,,,Conditions/Version_1/twoback(2)_v1.xlsx,New rule: Press 'space' when you see 2-back (i.e. the same letter as the one that appeared 2 letters ago.),g,space,,,,,,,,,0,7,7,7,0,8,8,8,,,,,,,,,,,,,,,,,,,,,,,,,,,,,,,,,,,,,,,,,,,,,,,,,,,,,,,,,,,,,,,,,,,,,1.4068,852.8198171,None,space,1,852.8198171,None,0.4277021,P013,fencog,2,Pre,2021_Oct_14_1113,N-Back (New Version 2021),2021.1.4,119.9408929
,,,,Conditions/Version_1/twoback(2)_v1.xlsx,New rule: Press 'space' when you see 2-back (i.e. the same letter as the one that appeared 2 letters ago.),G,None,,,,,,,,,0,7,7,7,0,9,9,9,,,,,,,,,,,,,,,,,,,,,,,,,,,,,,,,,,,,,,,,,,,,,,,,,,,,,,,,,,,,,,,,,,,,,1.5246,856.3511666,None,None,1,856.3511666,None,,P013,fencog,2,Pre,2021_Oct_14_1113,N-Back (New Version 2021),2021.1.4,119.9408929
,,,,Conditions/Version_1/twoback(2)_v1.xlsx,New rule: Press 'space' when you see 2-back (i.e. the same letter as the one that appeared 2 letters ago.),,,,,,,,,,,0,7,7,7,,,,,,,,,,,,,,,,,,,,,,,,,,,,,,,,,,,,,,,,,,,,,,,,,,,,,,,,,,,,,,,,,,,,,,,,,,,,,,,,,P013,fencog,2,Pre,2021_Oct_14_1113,N-Back (New Version 2021),2021.1.4,119.9408929
,,,,Conditions/Version_1/threeback(3)_v1.xlsx,New rule: Press 'space' when you see 3-back (i.e. the same letter as the one that appeared 3 letters ago.),w,None,,,,,,,,,0,8,8,8,0,0,0,0,,,,,,,,,,,,,,,,,,,,,,,,,,,,,,,,,,,,,,,,,,,,,,,,,,,,,,,,,,,858.3814731,None,861.3674716,None,space,6.9202886,861.3674716,None,858.3814731,None,1.94,870.2613867,None,None,1,870.2613867,None,,P013,fencog,2,Pre,2021_Oct_14_1113,N-Back (New Version 2021),2021.1.4,119.9408929
,,,,Conditions/Version_1/threeback(3)_v1.xlsx,New rule: Press 'space' when you see 3-back (i.e. the same letter as the one that appeared 3 letters ago.),p,None,,,,,,,,,0,8,8,8,0,1,1,1,,,,,,,,,,,,,,,,,,,,,,,,,,,,,,,,,,,,,,,,,,,,,,,,,,,,,,,,,,,,,,,,,,,,,1.3572,873.6220867,None,None,1,873.6220867,None,,P013,fencog,2,Pre,2021_Oct_14_1113,N-Back (New Version 2021),2021.1.4,119.9408929
,,,,Conditions/Version_1/threeback(3)_v1.xlsx,New rule: Press 'space' when you see 3-back (i.e. the same letter as the one that appeared 3 letters ago.),P,None,,,,,,,,,0,8,8,8,0,2,2,2,,,,,,,,,,,,,,,,,,,,,,,,,,,,,,,,,,,,,,,,,,,,,,,,,,,,,,,,,,,,,,,,,,,,,1.32,876.9543774,None,None,1,876.9543774,None,,P013,fencog,2,Pre,2021_Oct_14_1113,N-Back (New Version 2021),2021.1.4,119.9408929
,,,,Conditions/Version_1/threeback(3)_v1.xlsx,New rule: Press 'space' when you see 3-back (i.e. the same letter as the one that appeared 3 letters ago.),i,None,,,,,,,,,0,8,8,8,0,3,3,3,,,,,,,,,,,,,,,,,,,,,,,,,,,,,,,,,,,,,,,,,,,,,,,,,,,,,,,,,,,,,,,,,,,,,1.506,880.4702285,None,None,1,880.4702285,None,,P013,fencog,2,Pre,2021_Oct_14_1113,N-Back (New Version 2021),2021.1.4,119.9408929
,,,,Conditions/Version_1/threeback(3)_v1.xlsx,New rule: Press 'space' when you see 3-back (i.e. the same letter as the one that appeared 3 letters ago.),f,None,,,,,,,,,0,8,8,8,0,4,4,4,,,,,,,,,,,,,,,,,,,,,,,,,,,,,,,,,,,,,,,,,,,,,,,,,,,,,,,,,,,,,,,,,,,,,1.8594,884.3432389,None,None,1,884.3432389,None,,P013,fencog,2,Pre,2021_Oct_14_1113,N-Back (New Version 2021),2021.1.4,119.9408929
,,,,Conditions/Version_1/threeback(3)_v1.xlsx,New rule: Press 'space' when you see 3-back (i.e. the same letter as the one that appeared 3 letters ago.),o,None,,,,,,,,,0,8,8,8,0,5,5,5,,,,,,,,,,,,,,,,,,,,,,,,,,,,,,,,,,,,,,,,,,,,,,,,,,,,,,,,,,,,,,,,,,,,,1.9338,888.2926516,None,None,1,888.2926516,None,,P013,fencog,2,Pre,2021_Oct_14_1113,N-Back (New Version 2021),2021.1.4,119.9408929
,,,,Conditions/Version_1/threeback(3)_v1.xlsx,New rule: Press 'space' when you see 3-back (i.e. the same letter as the one that appeared 3 letters ago.),w,None,,,,,,,,,0,8,8,8,0,6,6,6,,,,,,,,,,,,,,,,,,,,,,,,,,,,,,,,,,,,,,,,,,,,,,,,,,,,,,,,,,,,,,,,,,,,,1.785,892.0928073,None,None,1,892.0928073,None,,P013,fencog,2,Pre,2021_Oct_14_1113,N-Back (New Version 2021),2021.1.4,119.9408929
,,,,Conditions/Version_1/threeback(3)_v1.xlsx,New rule: Press 'space' when you see 3-back (i.e. the same letter as the one that appeared 3 letters ago.),F,space,,,,,,,,,0,8,8,8,0,7,7,7,,,,,,,,,,,,,,,,,,,,,,,,,,,,,,,,,,,,,,,,,,,,,,,,,,,,,,,,,,,,,,,,,,,,,1.8904,895.9893722,None,space,1,895.9893722,None,0.6288199,P013,fencog,2,Pre,2021_Oct_14_1113,N-Back (New Version 2021),2021.1.4,119.9408929
,,,,Conditions/Version_1/threeback(3)_v1.xlsx,New rule: Press 'space' when you see 3-back (i.e. the same letter as the one that appeared 3 letters ago.),p,None,,,,,,,,,0,8,8,8,0,8,8,8,,,,,,,,,,,,,,,,,,,,,,,,,,,,,,,,,,,,,,,,,,,,,,,,,,,,,,,,,,,,,,,,,,,,,1.0162,899.0123349,None,None,1,899.0123349,None,,P013,fencog,2,Pre,2021_Oct_14_1113,N-Back (New Version 2021),2021.1.4,119.9408929
,,,,Conditions/Version_1/threeback(3)_v1.xlsx,New rule: Press 'space' when you see 3-back (i.e. the same letter as the one that appeared 3 letters ago.),W,space,,,,,,,,,0,8,8,8,0,9,9,9,,,,,,,,,,,,,,,,,,,,,,,,,,,,,,,,,,,,,,,,,,,,,,,,,,,,,,,,,,,,,,,,,,,,,1.444,902.4613303,None,None,0,902.4613303,None,,P013,fencog,2,Pre,2021_Oct_14_1113,N-Back (New Version 2021),2021.1.4,119.9408929
,,,,Conditions/Version_1/threeback(3)_v1.xlsx,New rule: Press 'space' when you see 3-back (i.e. the same letter as the one that appeared 3 letters ago.),,,,,,,,,,,0,8,8,8,,,,,,,,,,,,,,,,,,,,,,,,,,,,,,,,,,,,,,,,,,,,,,,,,,,,,,,,,,,,,,,,,,,,,,,,,,,,,,,,,P013,fencog,2,Pre,2021_Oct_14_1113,N-Back (New Version 2021),2021.1.4,119.9408929
,,,,Conditions/Version_1/zeroback(3)_v1.xlsx,New rule: Press 'space' when you see the letter 'x' or 'X'.,X,space,,,,,,,,,0,9,9,9,0,0,0,0,,,,,,,,,,,,,,,,,,,,,,,,,,,,,,,,,,,,,,,,,,,,,,,,,,,,,,,,,,,904.4843847,None,907.463135,None,space,0.3304284,907.463135,None,904.4843847,None,1.5556,909.3800417,None,space,1,909.3800417,None,0.5167469,P013,fencog,2,Pre,2021_Oct_14_1113,N-Back (New Version 2021),2021.1.4,119.9408929
,,,,Conditions/Version_1/zeroback(3)_v1.xlsx,New rule: Press 'space' when you see the letter 'x' or 'X'.,B,None,,,,,,,,,0,9,9,9,0,1,1,1,,,,,,,,,,,,,,,,,,,,,,,,,,,,,,,,,,,,,,,,,,,,,,,,,,,,,,,,,,,,,,,,,,,,,1.94,913.3280427,None,None,1,913.3280427,None,,P013,fencog,2,Pre,2021_Oct_14_1113,N-Back (New Version 2021),2021.1.4,119.9408929
,,,,Conditions/Version_1/zeroback(3)_v1.xlsx,New rule: Press 'space' when you see the letter 'x' or 'X'.,m,None,,,,,,,,,0,9,9,9,0,2,2,2,,,,,,,,,,,,,,,,,,,,,,,,,,,,,,,,,,,,,,,,,,,,,,,,,,,,,,,,,,,,,,,,,,,,,1.0844,916.4250714,None,None,1,916.4250714,None,,P013,fencog,2,Pre,2021_Oct_14_1113,N-Back (New Version 2021),2021.1.4,119.9408929
,,,,Conditions/Version_1/zeroback(3)_v1.xlsx,New rule: Press 'space' when you see the letter 'x' or 'X'.,m,None,,,,,,,,,0,9,9,9,0,3,3,3,,,,,,,,,,,,,,,,,,,,,,,,,,,,,,,,,,,,,,,,,,,,,,,,,,,,,,,,,,,,,,,,,,,,,1.7478,920.1813348,None,None,1,920.1813348,None,,P013,fencog,2,Pre,2021_Oct_14_1113,N-Back (New Version 2021),2021.1.4,119.9408929
,,,,Conditions/Version_1/zeroback(3)_v1.xlsx,New rule: Press 'space' when you see the letter 'x' or 'X'.,o,None,,,,,,,,,0,9,9,9,0,4,4,4,,,,,,,,,,,,,,,,,,,,,,,,,,,,,,,,,,,,,,,,,,,,,,,,,,,,,,,,,,,,,,,,,,,,,1.5122,923.6988867,None,None,1,923.6988867,None,,P013,fencog,2,Pre,2021_Oct_14_1113,N-Back (New Version 2021),2021.1.4,119.9408929
,,,,Conditions/Version_1/zeroback(3)_v1.xlsx,New rule: Press 'space' when you see the letter 'x' or 'X'.,p,None,,,,,,,,,0,9,9,9,0,5,5,5,,,,,,,,,,,,,,,,,,,,,,,,,,,,,,,,,,,,,,,,,,,,,,,,,,,,,,,,,,,,,,,,,,,,,1.8718,927.5808242,None,None,1,927.5808242,None,,P013,fencog,2,Pre,2021_Oct_14_1113,N-Back (New Version 2021),2021.1.4,119.9408929
,,,,Conditions/Version_1/zeroback(3)_v1.xlsx,New rule: Press 'space' when you see the letter 'x' or 'X'.,G,None,,,,,,,,,0,9,9,9,0,6,6,6,,,,,,,,,,,,,,,,,,,,,,,,,,,,,,,,,,,,,,,,,,,,,,,,,,,,,,,,,,,,,,,,,,,,,1.2704,930.863116,None,None,1,930.863116,None,,P013,fencog,2,Pre,2021_Oct_14_1113,N-Back (New Version 2021),2021.1.4,119.9408929
,,,,Conditions/Version_1/zeroback(3)_v1.xlsx,New rule: Press 'space' when you see the letter 'x' or 'X'.,X,space,,,,,,,,,0,9,9,9,0,7,7,7,,,,,,,,,,,,,,,,,,,,,,,,,,,,,,,,,,,,,,,,,,,,,,,,,,,,,,,,,,,,,,,,,,,,,1.1774,934.0519582,None,space,1,934.0519582,None,0.3984195,P013,fencog,2,Pre,2021_Oct_14_1113,N-Back (New Version 2021),2021.1.4,119.9408929
,,,,Conditions/Version_1/zeroback(3)_v1.xlsx,New rule: Press 'space' when you see the letter 'x' or 'X'.,p,None,,,,,,,,,0,9,9,9,0,8,8,8,,,,,,,,,,,,,,,,,,,,,,,,,,,,,,,,,,,,,,,,,,,,,,,,,,,,,,,,,,,,,,,,,,,,,1.2208,937.2779215,None,None,1,937.2779215,None,,P013,fencog,2,Pre,2021_Oct_14_1113,N-Back (New Version 2021),2021.1.4,119.9408929
,,,,Conditions/Version_1/zeroback(3)_v1.xlsx,New rule: Press 'space' when you see the letter 'x' or 'X'.,x,space,,,,,,,,,0,9,9,9,0,9,9,9,,,,,,,,,,,,,,,,,,,,,,,,,,,,,,,,,,,,,,,,,,,,,,,,,,,,,,,,,,,,,,,,,,,,,1.2394,940.5251099,None,space,1,940.5251099,None,0.4237888,P013,fencog,2,Pre,2021_Oct_14_1113,N-Back (New Version 2021),2021.1.4,119.9408929
,,,,Conditions/Version_1/zeroback(3)_v1.xlsx,New rule: Press 'space' when you see the letter 'x' or 'X'.,,,,,,,,,,,0,9,9,9,,,,,,,,,,,,,,,,,,,,,,,,,,,,,,,,,,,,,,,,,,,,,,,,,,,,,,,,,,,,,,,,,,,,,,,,,,,,,,,,,P013,fencog,2,Pre,2021_Oct_14_1113,N-Back (New Version 2021),2021.1.4,119.9408929
,,,,Conditions/Version_1/twoback(3)_v1.xlsx,New rule: Press 'space' when you see 2-back (i.e. the same letter as the one that appeared 2 letters ago.),e,None,,,,,,,,,0,10,10,10,0,0,0,0,,,,,,,,,,,,,,,,,,,,,,,,,,,,,,,,,,,,,,,,,,,,,,,,,,,,,,,,,,,942.5652621,None,945.5517867,None,space,25.9986273,945.5517867,None,942.5652621,None,1.723,973.2905244,None,None,1,973.2905244,None,,P013,fencog,2,Pre,2021_Oct_14_1113,N-Back (New Version 2021),2021.1.4,119.9408929
,,,,Conditions/Version_1/twoback(3)_v1.xlsx,New rule: Press 'space' when you see 2-back (i.e. the same letter as the one that appeared 2 letters ago.),o,None,,,,,,,,,0,10,10,10,0,1,1,1,,,,,,,,,,,,,,,,,,,,,,,,,,,,,,,,,,,,,,,,,,,,,,,,,,,,,,,,,,,,,,,,,,,,,1.8594,977.1560778,None,None,1,977.1560778,None,,P013,fencog,2,Pre,2021_Oct_14_1113,N-Back (New Version 2021),2021.1.4,119.9408929
,,,,Conditions/Version_1/twoback(3)_v1.xlsx,New rule: Press 'space' when you see 2-back (i.e. the same letter as the one that appeared 2 letters ago.),P,None,,,,,,,,,0,10,10,10,0,2,2,2,,,,,,,,,,,,,,,,,,,,,,,,,,,,,,,,,,,,,,,,,,,,,,,,,,,,,,,,,,,,,,,,,,,,,1.1092,980.2735526,None,None,1,980.2735526,None,,P013,fencog,2,Pre,2021_Oct_14_1113,N-Back (New Version 2021),2021.1.4,119.9408929
,,,,Conditions/Version_1/twoback(3)_v1.xlsx,New rule: Press 'space' when you see 2-back (i.e. the same letter as the one that appeared 2 letters ago.),z,None,,,,,,,,,0,10,10,10,0,3,3,3,,,,,,,,,,,,,,,,,,,,,,,,,,,,,,,,,,,,,,,,,,,,,,,,,,,,,,,,,,,,,,,,,,,,,1.878,984.1665422,None,None,1,984.1665422,None,,P013,fencog,2,Pre,2021_Oct_14_1113,N-Back (New Version 2021),2021.1.4,119.9408929
,,,,Conditions/Version_1/twoback(3)_v1.xlsx,New rule: Press 'space' when you see 2-back (i.e. the same letter as the one that appeared 2 letters ago.),X,None,,,,,,,,,0,10,10,10,0,4,4,4,,,,,,,,,,,,,,,,,,,,,,,,,,,,,,,,,,,,,,,,,,,,,,,,,,,,,,,,,,,,,,,,,,,,,1.0472,987.2211003,None,None,1,987.2211003,None,,P013,fencog,2,Pre,2021_Oct_14_1113,N-Back (New Version 2021),2021.1.4,119.9408929
,,,,Conditions/Version_1/twoback(3)_v1.xlsx,New rule: Press 'space' when you see 2-back (i.e. the same letter as the one that appeared 2 letters ago.),z,space,,,,,,,,,0,10,10,10,0,5,5,5,,,,,,,,,,,,,,,,,,,,,,,,,,,,,,,,,,,,,,,,,,,,,,,,,,,,,,,,,,,,,,,,,,,,,1.1278,990.362945,None,space,1,990.362945,None,0.4122695,P013,fencog,2,Pre,2021_Oct_14_1113,N-Back (New Version 2021),2021.1.4,119.9408929
,,,,Conditions/Version_1/twoback(3)_v1.xlsx,New rule: Press 'space' when you see 2-back (i.e. the same letter as the one that appeared 2 letters ago.),x,space,,,,,,,,,0,10,10,10,0,6,6,6,,,,,,,,,,,,,,,,,,,,,,,,,,,,,,,,,,,,,,,,,,,,,,,,,,,,,,,,,,,,,,,,,,,,,1.0782,993.4512052,None,space,1,993.4512052,None,0.3111693,P013,fencog,2,Pre,2021_Oct_14_1113,N-Back (New Version 2021),2021.1.4,119.9408929
,,,,Conditions/Version_1/twoback(3)_v1.xlsx,New rule: Press 'space' when you see 2-back (i.e. the same letter as the one that appeared 2 letters ago.),c,None,,,,,,,,,0,10,10,10,0,7,7,7,,,,,,,,,,,,,,,,,,,,,,,,,,,,,,,,,,,,,,,,,,,,,,,,,,,,,,,,,,,,,,,,,,,,,1.2828,996.7341758,None,None,1,996.7341758,None,,P013,fencog,2,Pre,2021_Oct_14_1113,N-Back (New Version 2021),2021.1.4,119.9408929
,,,,Conditions/Version_1/twoback(3)_v1.xlsx,New rule: Press 'space' when you see 2-back (i.e. the same letter as the one that appeared 2 letters ago.),i,None,,,,,,,,,0,10,10,10,0,8,8,8,,,,,,,,,,,,,,,,,,,,,,,,,,,,,,,,,,,,,,,,,,,,,,,,,,,,,,,,,,,,,,,,,,,,,1.134,999.8764267,None,None,1,999.8764267,None,,P013,fencog,2,Pre,2021_Oct_14_1113,N-Back (New Version 2021),2021.1.4,119.9408929
,,,,Conditions/Version_1/twoback(3)_v1.xlsx,New rule: Press 'space' when you see 2-back (i.e. the same letter as the one that appeared 2 letters ago.),C,space,,,,,,,,,0,10,10,10,0,9,9,9,,,,,,,,,,,,,,,,,,,,,,,,,,,,,,,,,,,,,,,,,,,,,,,,,,,,,,,,,,,,,,,,,,,,,1.0348,1002.926044,None,space,1,1002.926044,None,0.3415921,P013,fencog,2,Pre,2021_Oct_14_1113,N-Back (New Version 2021),2021.1.4,119.9408929
,,,,Conditions/Version_1/twoback(3)_v1.xlsx,New rule: Press 'space' when you see 2-back (i.e. the same letter as the one that appeared 2 letters ago.),,,,,,,,,,,0,10,10,10,,,,,,,,,,,,,,,,,,,,,,,,,,,,,,,,,,,,,,,,,,,,,,,,,,,,,,,,,,,,,,,,,,,,,,,,,,,,,,,,,P013,fencog,2,Pre,2021_Oct_14_1113,N-Back (New Version 2021),2021.1.4,119.9408929
,,,,Conditions/Version_1/oneback(3)_v1.xlsx,New rule: Press 'space' when you see 1-back (i.e. the same letter as the one that appeared 1 letter ago.),o,None,,,,,,,,,0,11,11,11,0,0,0,0,,,,,,,,,,,,,,,,,,,,,,,,,,,,,,,,,,,,,,,,,,,,,,,,,,,,,,,,,,,1004.950996,None,1007.940426,None,space,0.5246509,1007.940426,None,1004.950996,None,1.1774,1009.673734,None,None,1,1009.673734,None,,P013,fencog,2,Pre,2021_Oct_14_1113,N-Back (New Version 2021),2021.1.4,119.9408929
,,,,Conditions/Version_1/oneback(3)_v1.xlsx,New rule: Press 'space' when you see 1-back (i.e. the same letter as the one that appeared 1 letter ago.),O,space,,,,,,,,,0,11,11,11,0,1,1,1,,,,,,,,,,,,,,,,,,,,,,,,,,,,,,,,,,,,,,,,,,,,,,,,,,,,,,,,,,,,,,,,,,,,,1.1154,1012.79663,None,space,1,1012.79663,None,0.3389549,P013,fencog,2,Pre,2021_Oct_14_1113,N-Back (New Version 2021),2021.1.4,119.9408929
,,,,Conditions/Version_1/oneback(3)_v1.xlsx,New rule: Press 'space' when you see 1-back (i.e. the same letter as the one that appeared 1 letter ago.),h,None,,,,,,,,,0,11,11,11,0,2,2,2,,,,,,,,,,,,,,,,,,,,,,,,,,,,,,,,,,,,,,,,,,,,,,,,,,,,,,,,,,,,,,,,,,,,,1.63,1016.436261,None,None,1,1016.436261,None,,P013,fencog,2,Pre,2021_Oct_14_1113,N-Back (New Version 2021),2021.1.4,119.9408929
,,,,Conditions/Version_1/oneback(3)_v1.xlsx,New rule: Press 'space' when you see 1-back (i.e. the same letter as the one that appeared 1 letter ago.),g,None,,,,,,,,,0,11,11,11,0,3,3,3,,,,,,,,,,,,,,,,,,,,,,,,,,,,,,,,,,,,,,,,,,,,,,,,,,,,,,,,,,,,,,,,,,,,,1.6672,1020.10306,None,None,1,1020.10306,None,,P013,fencog,2,Pre,2021_Oct_14_1113,N-Back (New Version 2021),2021.1.4,119.9408929
,,,,Conditions/Version_1/oneback(3)_v1.xlsx,New rule: Press 'space' when you see 1-back (i.e. the same letter as the one that appeared 1 letter ago.),n,None,,,,,,,,,0,11,11,11,0,4,4,4,,,,,,,,,,,,,,,,,,,,,,,,,,,,,,,,,,,,,,,,,,,,,,,,,,,,,,,,,,,,,,,,,,,,,1.7664,1023.878504,None,None,1,1023.878504,None,,P013,fencog,2,Pre,2021_Oct_14_1113,N-Back (New Version 2021),2021.1.4,119.9408929
,,,,Conditions/Version_1/oneback(3)_v1.xlsx,New rule: Press 'space' when you see 1-back (i.e. the same letter as the one that appeared 1 letter ago.),z,None,,,,,,,,,0,11,11,11,0,5,5,5,,,,,,,,,,,,,,,,,,,,,,,,,,,,,,,,,,,,,,,,,,,,,,,,,,,,,,,,,,,,,,,,,,,,,1.041,1026.924795,None,None,1,1026.924795,None,,P013,fencog,2,Pre,2021_Oct_14_1113,N-Back (New Version 2021),2021.1.4,119.9408929
,,,,Conditions/Version_1/oneback(3)_v1.xlsx,New rule: Press 'space' when you see 1-back (i.e. the same letter as the one that appeared 1 letter ago.),X,None,,,,,,,,,0,11,11,11,0,6,6,6,,,,,,,,,,,,,,,,,,,,,,,,,,,,,,,,,,,,,,,,,,,,,,,,,,,,,,,,,,,,,,,,,,,,,1.444,1030.374617,None,None,1,1030.374617,None,,P013,fencog,2,Pre,2021_Oct_14_1113,N-Back (New Version 2021),2021.1.4,119.9408929
,,,,Conditions/Version_1/oneback(3)_v1.xlsx,New rule: Press 'space' when you see 1-back (i.e. the same letter as the one that appeared 1 letter ago.),r,None,,,,,,,,,0,11,11,11,0,7,7,7,,,,,,,,,,,,,,,,,,,,,,,,,,,,,,,,,,,,,,,,,,,,,,,,,,,,,,,,,,,,,,,,,,,,,1.8594,1034.248987,None,None,1,1034.248987,None,,P013,fencog,2,Pre,2021_Oct_14_1113,N-Back (New Version 2021),2021.1.4,119.9408929
,,,,Conditions/Version_1/oneback(3)_v1.xlsx,New rule: Press 'space' when you see 1-back (i.e. the same letter as the one that appeared 1 letter ago.),r,space,,,,,,,,,0,11,11,11,0,8,8,8,,,,,,,,,,,,,,,,,,,,,,,,,,,,,,,,,,,,,,,,,,,,,,,,,,,,,,,,,,,,,,,,,,,,,1.2332,1037.488269,None,space,1,1037.488269,None,0.3956637,P013,fencog,2,Pre,2021_Oct_14_1113,N-Back (New Version 2021),2021.1.4,119.9408929
,,,,Conditions/Version_1/oneback(3)_v1.xlsx,New rule: Press 'space' when you see 1-back (i.e. the same letter as the one that appeared 1 letter ago.),P,None,,,,,,,,,0,11,11,11,0,9,9,9,,,,,,,,,,,,,,,,,,,,,,,,,,,,,,,,,,,,,,,,,,,,,,,,,,,,,,,,,,,,,,,,,,,,,1.3882,1040.880786,None,None,1,1040.880786,None,,P013,fencog,2,Pre,2021_Oct_14_1113,N-Back (New Version 2021),2021.1.4,119.9408929
,,,,Conditions/Version_1/oneback(3)_v1.xlsx,New rule: Press 'space' when you see 1-back (i.e. the same letter as the one that appeared 1 letter ago.),,,,,,,,,,,0,11,11,11,,,,,,,,,,,,,,,,,,,,,,,,,,,,,,,,,,,,,,,,,,,,,,,,,,,,,,,,,,,,,,,,,,,,,,,,,,,,,,,,,P013,fencog,2,Pre,2021_Oct_14_1113,N-Back (New Version 2021),2021.1.4,119.9408929
,,,,Conditions/Version_1/twoback(4)_v1.xlsx,New rule: Press 'space' when you see 2-back (i.e. the same letter as the one that appeared 2 letters ago.),r,None,,,,,,,,,0,12,12,12,0,0,0,0,,,,,,,,,,,,,,,,,,,,,,,,,,,,,,,,,,,,,,,,,,,,,,,,,,,,,,,,,,,1042.90825,None,1045.897655,None,space,1.7075498,1045.897655,None,1042.90825,None,1.7788,1049.462055,None,None,1,1049.462055,None,,P013,fencog,2,Pre,2021_Oct_14_1113,N-Back (New Version 2021),2021.1.4,119.9408929
,,,,Conditions/Version_1/twoback(4)_v1.xlsx,New rule: Press 'space' when you see 2-back (i.e. the same letter as the one that appeared 2 letters ago.),T,None,,,,,,,,,0,12,12,12,0,1,1,1,,,,,,,,,,,,,,,,,,,,,,,,,,,,,,,,,,,,,,,,,,,,,,,,,,,,,,,,,,,,,,,,,,,,,1.7478,1053.219046,None,None,1,1053.219046,None,,P013,fencog,2,Pre,2021_Oct_14_1113,N-Back (New Version 2021),2021.1.4,119.9408929
,,,,Conditions/Version_1/twoback(4)_v1.xlsx,New rule: Press 'space' when you see 2-back (i.e. the same letter as the one that appeared 2 letters ago.),o,None,,,,,,,,,0,12,12,12,0,2,2,2,,,,,,,,,,,,,,,,,,,,,,,,,,,,,,,,,,,,,,,,,,,,,,,,,,,,,,,,,,,,,,,,,,,,,1.0286,1056.258462,None,None,1,1056.258462,None,,P013,fencog,2,Pre,2021_Oct_14_1113,N-Back (New Version 2021),2021.1.4,119.9408929
,,,,Conditions/Version_1/twoback(4)_v1.xlsx,New rule: Press 'space' when you see 2-back (i.e. the same letter as the one that appeared 2 letters ago.),p,None,,,,,,,,,0,12,12,12,0,3,3,3,,,,,,,,,,,,,,,,,,,,,,,,,,,,,,,,,,,,,,,,,,,,,,,,,,,,,,,,,,,,,,,,,,,,,1.8532,1060.125209,None,None,1,1060.125209,None,,P013,fencog,2,Pre,2021_Oct_14_1113,N-Back (New Version 2021),2021.1.4,119.9408929
,,,,Conditions/Version_1/twoback(4)_v1.xlsx,New rule: Press 'space' when you see 2-back (i.e. the same letter as the one that appeared 2 letters ago.),p,None,,,,,,,,,0,12,12,12,0,4,4,4,,,,,,,,,,,,,,,,,,,,,,,,,,,,,,,,,,,,,,,,,,,,,,,,,,,,,,,,,,,,,,,,,,,,,1.4812,1063.605824,None,None,1,1063.605824,None,,P013,fencog,2,Pre,2021_Oct_14_1113,N-Back (New Version 2021),2021.1.4,119.9408929
,,,,Conditions/Version_1/twoback(4)_v1.xlsx,New rule: Press 'space' when you see 2-back (i.e. the same letter as the one that appeared 2 letters ago.),y,None,,,,,,,,,0,12,12,12,0,5,5,5,,,,,,,,,,,,,,,,,,,,,,,,,,,,,,,,,,,,,,,,,,,,,,,,,,,,,,,,,,,,,,,,,,,,,1.0534,1066.663114,None,None,1,1066.663114,None,,P013,fencog,2,Pre,2021_Oct_14_1113,N-Back (New Version 2021),2021.1.4,119.9408929
,,,,Conditions/Version_1/twoback(4)_v1.xlsx,New rule: Press 'space' when you see 2-back (i.e. the same letter as the one that appeared 2 letters ago.),P,space,,,,,,,,,0,12,12,12,0,6,6,6,,,,,,,,,,,,,,,,,,,,,,,,,,,,,,,,,,,,,,,,,,,,,,,,,,,,,,,,,,,,,,,,,,,,,1.7664,1070.430485,None,space,1,1070.430485,None,0.4573589,P013,fencog,2,Pre,2021_Oct_14_1113,N-Back (New Version 2021),2021.1.4,119.9408929
,,,,Conditions/Version_1/twoback(4)_v1.xlsx,New rule: Press 'space' when you see 2-back (i.e. the same letter as the one that appeared 2 letters ago.),y,None,,,,,,,,,0,12,12,12,0,7,7,7,,,,,,,,,,,,,,,,,,,,,,,,,,,,,,,,,,,,,,,,,,,,,,,,,,,,,,,,,,,,,,,,,,,,,1.7602,1074.204531,None,space,0,1074.204531,None,0.4952306,P013,fencog,2,Pre,2021_Oct_14_1113,N-Back (New Version 2021),2021.1.4,119.9408929
,,,,Conditions/Version_1/twoback(4)_v1.xlsx,New rule: Press 'space' when you see 2-back (i.e. the same letter as the one that appeared 2 letters ago.),y,space,,,,,,,,,0,12,12,12,0,8,8,8,,,,,,,,,,,,,,,,,,,,,,,,,,,,,,,,,,,,,,,,,,,,,,,,,,,,,,,,,,,,,,,,,,,,,1.3572,1077.568247,None,None,0,1077.568247,None,,P013,fencog,2,Pre,2021_Oct_14_1113,N-Back (New Version 2021),2021.1.4,119.9408929
,,,,Conditions/Version_1/twoback(4)_v1.xlsx,New rule: Press 'space' when you see 2-back (i.e. the same letter as the one that appeared 2 letters ago.),,,,,,,,,,,0,12,12,12,,,,,,,,,,,,,,,,,,,,,,,,,,,,,,,,,,,,,,,,,,,,,,,,,,,,,,,,,,,,,,,,,,,,,,,,,,,,,,,,,P013,fencog,2,Pre,2021_Oct_14_1113,N-Back (New Version 2021),2021.1.4,119.9408929
,,,,Conditions/Version_1/zeroback(4)_v1.xlsx,New rule: Press 'space' when you see the letter 'x' or 'X'.,o,None,,,,,,,,,0,13,13,13,0,0,0,0,,,,,,,,,,,,,,,,,,,,,,,,,,,,,,,,,,,,,,,,,,,,,,,,,,,,,,,,,,,1079.58904,None,1082.577544,None,space,0.3083805,1082.577544,None,1079.58904,None,1.568,1084.475949,None,None,1,1084.475949,None,,P013,fencog,2,Pre,2021_Oct_14_1113,N-Back (New Version 2021),2021.1.4,119.9408929
,,,,Conditions/Version_1/zeroback(4)_v1.xlsx,New rule: Press 'space' when you see the letter 'x' or 'X'.,X,space,,,,,,,,,0,13,13,13,0,1,1,1,,,,,,,,,,,,,,,,,,,,,,,,,,,,,,,,,,,,,,,,,,,,,,,,,,,,,,,,,,,,,,,,,,,,,1.5556,1088.041123,None,space,1,1088.041123,None,0.4237389,P013,fencog,2,Pre,2021_Oct_14_1113,N-Back (New Version 2021),2021.1.4,119.9408929
,,,,Conditions/Version_1/zeroback(4)_v1.xlsx,New rule: Press 'space' when you see the letter 'x' or 'X'.,p,None,,,,,,,,,0,13,13,13,0,2,2,2,,,,,,,,,,,,,,,,,,,,,,,,,,,,,,,,,,,,,,,,,,,,,,,,,,,,,,,,,,,,,,,,,,,,,1.6672,1091.723235,None,None,1,1091.723235,None,,P013,fencog,2,Pre,2021_Oct_14_1113,N-Back (New Version 2021),2021.1.4,119.9408929
,,,,Conditions/Version_1/zeroback(4)_v1.xlsx,New rule: Press 'space' when you see the letter 'x' or 'X'.,m,None,,,,,,,,,0,13,13,13,0,3,3,3,,,,,,,,,,,,,,,,,,,,,,,,,,,,,,,,,,,,,,,,,,,,,,,,,,,,,,,,,,,,,,,,,,,,,1.9958,1095.730446,None,None,1,1095.730446,None,,P013,fencog,2,Pre,2021_Oct_14_1113,N-Back (New Version 2021),2021.1.4,119.9408929
,,,,Conditions/Version_1/zeroback(4)_v1.xlsx,New rule: Press 'space' when you see the letter 'x' or 'X'.,n,None,,,,,,,,,0,13,13,13,0,4,4,4,,,,,,,,,,,,,,,,,,,,,,,,,,,,,,,,,,,,,,,,,,,,,,,,,,,,,,,,,,,,,,,,,,,,,1.0162,1098.754899,None,None,1,1098.754899,None,,P013,fencog,2,Pre,2021_Oct_14_1113,N-Back (New Version 2021),2021.1.4,119.9408929
,,,,Conditions/Version_1/zeroback(4)_v1.xlsx,New rule: Press 'space' when you see the letter 'x' or 'X'.,m,None,,,,,,,,,0,13,13,13,0,5,5,5,,,,,,,,,,,,,,,,,,,,,,,,,,,,,,,,,,,,,,,,,,,,,,,,,,,,,,,,,,,,,,,,,,,,,1.072,1101.838246,None,None,1,1101.838246,None,,P013,fencog,2,Pre,2021_Oct_14_1113,N-Back (New Version 2021),2021.1.4,119.9408929
,,,,Conditions/Version_1/zeroback(4)_v1.xlsx,New rule: Press 'space' when you see the letter 'x' or 'X'.,C,None,,,,,,,,,0,13,13,13,0,6,6,6,,,,,,,,,,,,,,,,,,,,,,,,,,,,,,,,,,,,,,,,,,,,,,,,,,,,,,,,,,,,,,,,,,,,,1.8346,1105.684931,None,None,1,1105.684931,None,,P013,fencog,2,Pre,2021_Oct_14_1113,N-Back (New Version 2021),2021.1.4,119.9408929
,,,,Conditions/Version_1/zeroback(4)_v1.xlsx,New rule: Press 'space' when you see the letter 'x' or 'X'.,m,None,,,,,,,,,0,13,13,13,0,7,7,7,,,,,,,,,,,,,,,,,,,,,,,,,,,,,,,,,,,,,,,,,,,,,,,,,,,,,,,,,,,,,,,,,,,,,1.4812,1109.16864,None,None,1,1109.16864,None,,P013,fencog,2,Pre,2021_Oct_14_1113,N-Back (New Version 2021),2021.1.4,119.9408929
,,,,Conditions/Version_1/zeroback(4)_v1.xlsx,New rule: Press 'space' when you see the letter 'x' or 'X'.,p,None,,,,,,,,,0,13,13,13,0,8,8,8,,,,,,,,,,,,,,,,,,,,,,,,,,,,,,,,,,,,,,,,,,,,,,,,,,,,,,,,,,,,,,,,,,,,,1.2022,1112.383434,None,None,1,1112.383434,None,,P013,fencog,2,Pre,2021_Oct_14_1113,N-Back (New Version 2021),2021.1.4,119.9408929
,,,,Conditions/Version_1/zeroback(4)_v1.xlsx,New rule: Press 'space' when you see the letter 'x' or 'X'.,X,space,,,,,,,,,0,13,13,13,0,9,9,9,,,,,,,,,,,,,,,,,,,,,,,,,,,,,,,,,,,,,,,,,,,,,,,,,,,,,,,,,,,,,,,,,,,,,1.971,1116.358299,None,space,1,1116.358299,None,0.4429723,P013,fencog,2,Pre,2021_Oct_14_1113,N-Back (New Version 2021),2021.1.4,119.9408929
,,,,Conditions/Version_1/zeroback(4)_v1.xlsx,New rule: Press 'space' when you see the letter 'x' or 'X'.,,,,,,,,,,,0,13,13,13,,,,,,,,,,,,,,,,,,,,,,,,,,,,,,,,,,,,,,,,,,,,,,,,,,,,,,,,,,,,,,,,,,,,,,,,,,,,,,,,,P013,fencog,2,Pre,2021_Oct_14_1113,N-Back (New Version 2021),2021.1.4,119.9408929
,,,,Conditions/Version_1/oneback(4)_v1.xlsx,New rule: Press 'space' when you see 1-back (i.e. the same letter as the one that appeared 1 letter ago.),w,None,,,,,,,,,0,14,14,14,0,0,0,0,,,,,,,,,,,,,,,,,,,,,,,,,,,,,,,,,,,,,,,,,,,,,,,,,,,,,,,,,,,1118.387002,None,1121.374839,None,space,0.2795718,1121.374839,None,1118.387002,None,1.6672,1123.340137,None,None,1,1123.340137,None,,P013,fencog,2,Pre,2021_Oct_14_1113,N-Back (New Version 2021),2021.1.4,119.9408929
,,,,Conditions/Version_1/oneback(4)_v1.xlsx,New rule: Press 'space' when you see 1-back (i.e. the same letter as the one that appeared 1 letter ago.),q,None,,,,,,,,,0,14,14,14,0,1,1,1,,,,,,,,,,,,,,,,,,,,,,,,,,,,,,,,,,,,,,,,,,,,,,,,,,,,,,,,,,,,,,,,,,,,,1.1278,1126.481981,None,None,1,1126.481981,None,,P013,fencog,2,Pre,2021_Oct_14_1113,N-Back (New Version 2021),2021.1.4,119.9408929
,,,,Conditions/Version_1/oneback(4)_v1.xlsx,New rule: Press 'space' when you see 1-back (i.e. the same letter as the one that appeared 1 letter ago.),i,None,,,,,,,,,0,14,14,14,0,2,2,2,,,,,,,,,,,,,,,,,,,,,,,,,,,,,,,,,,,,,,,,,,,,,,,,,,,,,,,,,,,,,,,,,,,,,1.1464,1129.636331,None,None,1,1129.636331,None,,P013,fencog,2,Pre,2021_Oct_14_1113,N-Back (New Version 2021),2021.1.4,119.9408929
,,,,Conditions/Version_1/oneback(4)_v1.xlsx,New rule: Press 'space' when you see 1-back (i.e. the same letter as the one that appeared 1 letter ago.),t,None,,,,,,,,,0,14,14,14,0,3,3,3,,,,,,,,,,,,,,,,,,,,,,,,,,,,,,,,,,,,,,,,,,,,,,,,,,,,,,,,,,,,,,,,,,,,,1.7106,1133.352541,None,None,1,1133.352541,None,,P013,fencog,2,Pre,2021_Oct_14_1113,N-Back (New Version 2021),2021.1.4,119.9408929
,,,,Conditions/Version_1/oneback(4)_v1.xlsx,New rule: Press 'space' when you see 1-back (i.e. the same letter as the one that appeared 1 letter ago.),v,None,,,,,,,,,0,14,14,14,0,4,4,4,,,,,,,,,,,,,,,,,,,,,,,,,,,,,,,,,,,,,,,,,,,,,,,,,,,,,,,,,,,,,,,,,,,,,1.1836,1136.545277,None,None,1,1136.545277,None,,P013,fencog,2,Pre,2021_Oct_14_1113,N-Back (New Version 2021),2021.1.4,119.9408929
,,,,Conditions/Version_1/oneback(4)_v1.xlsx,New rule: Press 'space' when you see 1-back (i.e. the same letter as the one that appeared 1 letter ago.),V,space,,,,,,,,,0,14,14,14,0,5,5,5,,,,,,,,,,,,,,,,,,,,,,,,,,,,,,,,,,,,,,,,,,,,,,,,,,,,,,,,,,,,,,,,,,,,,1.6486,1140.203692,None,space,1,1140.203692,None,0.4631313,P013,fencog,2,Pre,2021_Oct_14_1113,N-Back (New Version 2021),2021.1.4,119.9408929
,,,,Conditions/Version_1/oneback(4)_v1.xlsx,New rule: Press 'space' when you see 1-back (i.e. the same letter as the one that appeared 1 letter ago.),v,space,,,,,,,,,0,14,14,14,0,6,6,6,,,,,,,,,,,,,,,,,,,,,,,,,,,,,,,,,,,,,,,,,,,,,,,,,,,,,,,,,,,,,,,,,,,,,1.2642,1143.475903,None,space,1,1143.475903,None,0.4200431,P013,fencog,2,Pre,2021_Oct_14_1113,N-Back (New Version 2021),2021.1.4,119.9408929
,,,,Conditions/Version_1/oneback(4)_v1.xlsx,New rule: Press 'space' when you see 1-back (i.e. the same letter as the one that appeared 1 letter ago.),p,None,,,,,,,,,0,14,14,14,0,7,7,7,,,,,,,,,,,,,,,,,,,,,,,,,,,,,,,,,,,,,,,,,,,,,,,,,,,,,,,,,,,,,,,,,,,,,1.4626,1146.947678,None,None,1,1146.947678,None,,P013,fencog,2,Pre,2021_Oct_14_1113,N-Back (New Version 2021),2021.1.4,119.9408929
,,,,Conditions/Version_1/oneback(4)_v1.xlsx,New rule: Press 'space' when you see 1-back (i.e. the same letter as the one that appeared 1 letter ago.),w,None,,,,,,,,,0,14,14,14,0,8,8,8,,,,,,,,,,,,,,,,,,,,,,,,,,,,,,,,,,,,,,,,,,,,,,,,,,,,,,,,,,,,,,,,,,,,,1.0596,1150.016378,None,None,1,1150.016378,None,,P013,fencog,2,Pre,2021_Oct_14_1113,N-Back (New Version 2021),2021.1.4,119.9408929
,,,,Conditions/Version_1/oneback(4)_v1.xlsx,New rule: Press 'space' when you see 1-back (i.e. the same letter as the one that appeared 1 letter ago.),W,space,,,,,,,,,0,14,14,14,0,9,9,9,,,,,,,,,,,,,,,,,,,,,,,,,,,,,,,,,,,,,,,,,,,,,,,,,,,,,,,,,,,,,,,,,,,,,1.4068,1153.431173,None,space,1,1153.431173,None,0.4712461,P013,fencog,2,Pre,2021_Oct_14_1113,N-Back (New Version 2021),2021.1.4,119.9408929
,,,,Conditions/Version_1/oneback(4)_v1.xlsx,New rule: Press 'space' when you see 1-back (i.e. the same letter as the one that appeared 1 letter ago.),,,,,,,,,,,0,14,14,14,,,,,,,,,,,,,,,,,,,,,,,,,,,,,,,,,,,,,,,,,,,,,,,,,,,,,,,,,,,,,,,,,,,,,,,,,,,,,,,,,P013,fencog,2,Pre,2021_Oct_14_1113,N-Back (New Version 2021),2021.1.4,119.9408929
,,,,Conditions/Version_1/threeback(4)_v1.xlsx,New rule: Press 'space' when you see 3-back (i.e. the same letter as the one that appeared 3 letters ago.),A,None,,,,,,,,,0,15,15,15,0,0,0,0,,,,,,,,,,,,,,,,,,,,,,,,,,,,,,,,,,,,,,,,,,,,,,,,,,,,,,,,,,,1155.460231,None,1158.447451,None,space,12.1247421,1158.447451,None,1155.460231,None,1.0348,1171.627498,None,None,1,1171.627498,None,,P013,fencog,2,Pre,2021_Oct_14_1113,N-Back (New Version 2021),2021.1.4,119.9408929
,,,,Conditions/Version_1/threeback(4)_v1.xlsx,New rule: Press 'space' when you see 3-back (i.e. the same letter as the one that appeared 3 letters ago.),n,None,,,,,,,,,0,15,15,15,0,1,1,1,,,,,,,,,,,,,,,,,,,,,,,,,,,,,,,,,,,,,,,,,,,,,,,,,,,,,,,,,,,,,,,,,,,,,1.1774,1174.816922,None,None,1,1174.816922,None,,P013,fencog,2,Pre,2021_Oct_14_1113,N-Back (New Version 2021),2021.1.4,119.9408929
,,,,Conditions/Version_1/threeback(4)_v1.xlsx,New rule: Press 'space' when you see 3-back (i.e. the same letter as the one that appeared 3 letters ago.),g,None,,,,,,,,,0,15,15,15,0,2,2,2,,,,,,,,,,,,,,,,,,,,,,,,,,,,,,,,,,,,,,,,,,,,,,,,,,,,,,,,,,,,,,,,,,,,,1.227,1178.057674,None,None,1,1178.057674,None,,P013,fencog,2,Pre,2021_Oct_14_1113,N-Back (New Version 2021),2021.1.4,119.9408929
,,,,Conditions/Version_1/threeback(4)_v1.xlsx,New rule: Press 'space' when you see 3-back (i.e. the same letter as the one that appeared 3 letters ago.),A,space,,,,,,,,,0,15,15,15,0,3,3,3,,,,,,,,,,,,,,,,,,,,,,,,,,,,,,,,,,,,,,,,,,,,,,,,,,,,,,,,,,,,,,,,,,,,,1.5742,1181.638734,None,space,1,1181.638734,None,0.6245705,P013,fencog,2,Pre,2021_Oct_14_1113,N-Back (New Version 2021),2021.1.4,119.9408929
,,,,Conditions/Version_1/threeback(4)_v1.xlsx,New rule: Press 'space' when you see 3-back (i.e. the same letter as the one that appeared 3 letters ago.),p,None,,,,,,,,,0,15,15,15,0,4,4,4,,,,,,,,,,,,,,,,,,,,,,,,,,,,,,,,,,,,,,,,,,,,,,,,,,,,,,,,,,,,,,,,,,,,,1.9586,1185.605395,None,space,0,1185.605395,None,1.2797598,P013,fencog,2,Pre,2021_Oct_14_1113,N-Back (New Version 2021),2021.1.4,119.9408929
,,,,Conditions/Version_1/threeback(4)_v1.xlsx,New rule: Press 'space' when you see 3-back (i.e. the same letter as the one that appeared 3 letters ago.),O,None,,,,,,,,,0,15,15,15,0,5,5,5,,,,,,,,,,,,,,,,,,,,,,,,,,,,,,,,,,,,,,,,,,,,,,,,,,,,,,,,,,,,,,,,,,,,,1.0286,1188.646001,None,None,1,1188.646001,None,,P013,fencog,2,Pre,2021_Oct_14_1113,N-Back (New Version 2021),2021.1.4,119.9408929
,,,,Conditions/Version_1/threeback(4)_v1.xlsx,New rule: Press 'space' when you see 3-back (i.e. the same letter as the one that appeared 3 letters ago.),a,space,,,,,,,,,0,15,15,15,0,6,6,6,,,,,,,,,,,,,,,,,,,,,,,,,,,,,,,,,,,,,,,,,,,,,,,,,,,,,,,,,,,,,,,,,,,,,1.8222,1192.477111,None,space,1,1192.477111,None,0.6917126,P013,fencog,2,Pre,2021_Oct_14_1113,N-Back (New Version 2021),2021.1.4,119.9408929
,,,,Conditions/Version_1/threeback(4)_v1.xlsx,New rule: Press 'space' when you see 3-back (i.e. the same letter as the one that appeared 3 letters ago.),p,space,,,,,,,,,0,15,15,15,0,7,7,7,,,,,,,,,,,,,,,,,,,,,,,,,,,,,,,,,,,,,,,,,,,,,,,,,,,,,,,,,,,,,,,,,,,,,1.0224,1195.508528,None,space,1,1195.508528,None,0.4253898,P013,fencog,2,Pre,2021_Oct_14_1113,N-Back (New Version 2021),2021.1.4,119.9408929
,,,,Conditions/Version_1/threeback(4)_v1.xlsx,New rule: Press 'space' when you see 3-back (i.e. the same letter as the one that appeared 3 letters ago.),x,None,,,,,,,,,0,15,15,15,0,8,8,8,,,,,,,,,,,,,,,,,,,,,,,,,,,,,,,,,,,,,,,,,,,,,,,,,,,,,,,,,,,,,,,,,,,,,1.8408,1199.350247,None,None,1,1199.350247,None,,P013,fencog,2,Pre,2021_Oct_14_1113,N-Back (New Version 2021),2021.1.4,119.9408929
,,,,Conditions/Version_1/threeback(4)_v1.xlsx,New rule: Press 'space' when you see 3-back (i.e. the same letter as the one that appeared 3 letters ago.),X,None,,,,,,,,,0,15,15,15,0,9,9,9,,,,,,,,,,,,,,,,,,,,,,,,,,,,,,,,,,,,,,,,,,,,,,,,,,,,,,,,,,,,,,,,,,,,,1.475,1202.83351,None,None,1,1202.83351,None,,P013,fencog,2,Pre,2021_Oct_14_1113,N-Back (New Version 2021),2021.1.4,119.9408929
,,,,Conditions/Version_1/threeback(4)_v1.xlsx,New rule: Press 'space' when you see 3-back (i.e. the same letter as the one that appeared 3 letters ago.),,,,,,,,,,,0,15,15,15,,,,,,,,,,,,,,,,,,,,,,,,,,,,,,,,,,,,,,,,,,,,,,,,,,,,,,,,,,,,,,,,,,,,,,,,,,,,,,,,,P013,fencog,2,Pre,2021_Oct_14_1113,N-Back (New Version 2021),2021.1.4,119.9408929
