CondFileP,InstructionsP,LettersDisplayedP,CorrectnessP,CondFile,Instructions,LettersDisplayed,Correctness,practicetrials.thisRepN,practicetrials.thisTrialN,practicetrials.thisN,practicetrials.thisIndex,InnerLoopPractice.thisRepN,InnerLoopPractice.thisTrialN,InnerLoopPractice.thisN,InnerLoopPractice.thisIndex,trials.thisRepN,trials.thisTrialN,trials.thisN,trials.thisIndex,InnerLoop.thisRepN,InnerLoop.thisTrialN,InnerLoop.thisN,InnerLoop.thisIndex,TaskVersionText.started,TaskVersionText.stopped,InstrKey1.keys,InstrKey1.rt,InstrKey1.started,InstrKey1.stopped,text.started,text.stopped,key_resp_4.keys,key_resp_4.rt,key_resp_4.started,key_resp_4.stopped,text_2.started,text_2.stopped,key_resp_3.keys,key_resp_3.rt,key_resp_3.started,key_resp_3.stopped,text_3.started,text_3.stopped,key_resp_2.keys,key_resp_2.rt,key_resp_2.started,key_resp_2.stopped,PractIn1.started,PractIn1.stopped,PractIn2.started,PractIn2.stopped,PractInstructionPass.keys,PractInstructionPass.rt,PractInstructionPass.started,PractInstructionPass.stopped,PractBlock1.started,PractBlock1.stopped,ISIjitterPractice,ISI_Pract_Fixation.started,ISI_Pract_Fixation.stopped,N_backP.started,N_backP.stopped,KeyPractice.keys,KeyPractice.corr,KeyPractice.started,KeyPractice.stopped,text_4.started,text_4.stopped,KeyPractice.rt,TransitionText.started,TransitionText.stopped,key_resp_6.keys,key_resp_6.rt,key_resp_6.started,key_resp_6.stopped,text_5.started,text_5.stopped,key_resp_5.keys,key_resp_5.rt,key_resp_5.started,key_resp_5.stopped,MainInt1.started,MainInt1.stopped,MainInt2.started,MainInt2.stopped,InstructionPass.keys,InstructionPass.rt,InstructionPass.started,InstructionPass.stopped,Blocks1.started,Blocks1.stopped,ISIjitter,N_backD.started,N_backD.stopped,key_resp.keys,key_resp.corr,key_resp.started,key_resp.stopped,key_resp.rt,participant,Study Name,Task Version (required to run),PRE/POST,date,expName,psychopyVersion,frameRate
,,,,,,,,,,,,,,,,,,,,,,,,20.5510387,None,space,1.1822915,21.0466325,None,,,,,,,,,,,,,,,,,,,,,,,,,,,,,,,,,,,,,,,,,,,,,,,,,,,,,,,,,,,,,,,,,,,,,,,P012,fencog,1,Post,2021_Oct_15_1148,N-Back (New Version 2021),2021.1.4,120.0609913
,,,,,,,,,,,,,,,,,,,,,,,,,,,,,,22.2679722,None,space,117.8783535,22.7633819,None,,,,,,,,,,,,,,,,,,,,,,,,,,,,,,,,,,,,,,,,,,,,,,,,,,,,,,,,,,,,,,,,,P012,fencog,1,Post,2021_Oct_15_1148,N-Back (New Version 2021),2021.1.4,120.0609913
,,,,,,,,,,,,,,,,,,,,,,,,,,,,,,,,,,,,140.678405,None,space,2.1356054,141.1706108,None,,,,,,,,,,,,,,,,,,,,,,,,,,,,,,,,,,,,,,,,,,,,,,,,,,,,,,,,,,,P012,fencog,1,Post,2021_Oct_15_1148,N-Back (New Version 2021),2021.1.4,120.0609913
,,,,,,,,,,,,,,,,,,,,,,,,,,,,,,,,,,,,,,,,,,143.3368317,None,space,2.5499274,143.8279963,None,,,,,,,,,,,,,,,,,,,,,,,,,,,,,,,,,,,,,,,,,,,,,,,,,,,,,P012,fencog,1,Post,2021_Oct_15_1148,N-Back (New Version 2021),2021.1.4,120.0609913
Conditions/Version_1Pr/zeroback(1)_v1.xlsx,Rule: Press 'space' when you see the letter 'x' or 'X'.,Z,None,,,,,0,0,0,0,0,0,0,0,,,,,,,,,,,,,,,,,,,,,,,,,,,,,,,,,147.7261143,None,150.7102585,None,space,0.4038383,150.7102585,None,147.7261143,None,1.69,151.1386458,None,152.8398843,None,None,1,152.8398843,None,154.8417254,None,,,,,,,,,,,,,,,,,,,,,,,,,,,,,,,,P012,fencog,1,Post,2021_Oct_15_1148,N-Back (New Version 2021),2021.1.4,120.0609913
Conditions/Version_1Pr/zeroback(1)_v1.xlsx,Rule: Press 'space' when you see the letter 'x' or 'X'.,r,None,,,,,0,0,0,0,0,1,1,1,,,,,,,,,,,,,,,,,,,,,,,,,,,,,,,,,,,,,,,,,,,1.715,156.3397433,None,158.0595136,None,None,1,158.0595136,None,160.0641563,None,,,,,,,,,,,,,,,,,,,,,,,,,,,,,,,,P012,fencog,1,Post,2021_Oct_15_1148,N-Back (New Version 2021),2021.1.4,120.0609913
Conditions/Version_1Pr/zeroback(1)_v1.xlsx,Rule: Press 'space' when you see the letter 'x' or 'X'.,X,space,,,,,0,0,0,0,0,2,2,2,,,,,,,,,,,,,,,,,,,,,,,,,,,,,,,,,,,,,,,,,,,1.74,161.5635769,None,163.3057793,None,space,1,163.3057793,None,163.6469343,None,0.3284053,,,,,,,,,,,,,,,,,,,,,,,,,,,,,,,P012,fencog,1,Post,2021_Oct_15_1148,N-Back (New Version 2021),2021.1.4,120.0609913
Conditions/Version_1Pr/zeroback(1)_v1.xlsx,Rule: Press 'space' when you see the letter 'x' or 'X'.,p,None,,,,,0,0,0,0,0,3,3,3,,,,,,,,,,,,,,,,,,,,,,,,,,,,,,,,,,,,,,,,,,,1.965,165.1457352,None,167.1147132,None,None,1,167.1147132,None,169.1198298,None,,,,,,,,,,,,,,,,,,,,,,,,,,,,,,,,P012,fencog,1,Post,2021_Oct_15_1148,N-Back (New Version 2021),2021.1.4,120.0609913
Conditions/Version_1Pr/zeroback(1)_v1.xlsx,Rule: Press 'space' when you see the letter 'x' or 'X'.,w,None,,,,,0,0,0,0,0,4,4,4,,,,,,,,,,,,,,,,,,,,,,,,,,,,,,,,,,,,,,,,,,,1.24,170.6193945,None,171.8622726,None,None,1,171.8622726,None,173.8683501,None,,,,,,,,,,,,,,,,,,,,,,,,,,,,,,,,P012,fencog,1,Post,2021_Oct_15_1148,N-Back (New Version 2021),2021.1.4,120.0609913
Conditions/Version_1Pr/zeroback(1)_v1.xlsx,Rule: Press 'space' when you see the letter 'x' or 'X'.,e,None,,,,,0,0,0,0,0,5,5,5,,,,,,,,,,,,,,,,,,,,,,,,,,,,,,,,,,,,,,,,,,,1.215,175.3678547,None,176.5857659,None,None,1,176.5857659,None,178.5920254,None,,,,,,,,,,,,,,,,,,,,,,,,,,,,,,,,P012,fencog,1,Post,2021_Oct_15_1148,N-Back (New Version 2021),2021.1.4,120.0609913
Conditions/Version_1Pr/zeroback(1)_v1.xlsx,Rule: Press 'space' when you see the letter 'x' or 'X'.,X,space,,,,,0,0,0,0,0,6,6,6,,,,,,,,,,,,,,,,,,,,,,,,,,,,,,,,,,,,,,,,,,,1.54,180.0915286,None,181.6325466,None,space,1,181.6325466,None,182.0518801,None,0.40922,,,,,,,,,,,,,,,,,,,,,,,,,,,,,,,P012,fencog,1,Post,2021_Oct_15_1148,N-Back (New Version 2021),2021.1.4,120.0609913
Conditions/Version_1Pr/zeroback(1)_v1.xlsx,Rule: Press 'space' when you see the letter 'x' or 'X'.,x,space,,,,,0,0,0,0,0,7,7,7,,,,,,,,,,,,,,,,,,,,,,,,,,,,,,,,,,,,,,,,,,,1.915,183.5568152,None,185.4762294,None,space,1,185.4762294,None,185.9497765,None,0.4621227,,,,,,,,,,,,,,,,,,,,,,,,,,,,,,,P012,fencog,1,Post,2021_Oct_15_1148,N-Back (New Version 2021),2021.1.4,120.0609913
Conditions/Version_1Pr/zeroback(1)_v1.xlsx,Rule: Press 'space' when you see the letter 'x' or 'X'.,p,None,,,,,0,0,0,0,0,8,8,8,,,,,,,,,,,,,,,,,,,,,,,,,,,,,,,,,,,,,,,,,,,1.065,187.4558842,None,188.5245125,None,None,1,188.5245125,None,190.5261494,None,,,,,,,,,,,,,,,,,,,,,,,,,,,,,,,,P012,fencog,1,Post,2021_Oct_15_1148,N-Back (New Version 2021),2021.1.4,120.0609913
Conditions/Version_1Pr/zeroback(1)_v1.xlsx,Rule: Press 'space' when you see the letter 'x' or 'X'.,r,None,,,,,0,0,0,0,0,9,9,9,,,,,,,,,,,,,,,,,,,,,,,,,,,,,,,,,,,,,,,,,,,1.84,192.0295283,None,193.8720124,None,None,1,193.8720124,None,195.8723316,None,,,,,,,,,,,,,,,,,,,,,,,,,,,,,,,,P012,fencog,1,Post,2021_Oct_15_1148,N-Back (New Version 2021),2021.1.4,120.0609913
Conditions/Version_1Pr/zeroback(1)_v1.xlsx,Rule: Press 'space' when you see the letter 'x' or 'X'.,,,,,,,0,0,0,0,,,,,,,,,,,,,,,,,,,,,,,,,,,,,,,,,,,,,,,,,,,,,,,,,,,,,,,,,,,,,,,,,,,,,,,,,,,,,,,,,,,,,,,,,P012,fencog,1,Post,2021_Oct_15_1148,N-Back (New Version 2021),2021.1.4,120.0609913
Conditions/Version_1Pr/oneback(1)_v1.xlsx,New rule: Press 'space' when you see 1-back (i.e. the same letter as the one that appeared 1 letter ago.),a,None,,,,,0,1,1,1,0,0,0,0,,,,,,,,,,,,,,,,,,,,,,,,,,,,,,,,,197.4040551,None,200.388228,None,space,1.4214881,200.388228,None,197.4040551,None,1.99,201.8272385,None,203.8207428,None,None,1,203.8207428,None,205.825644,None,,,,,,,,,,,,,,,,,,,,,,,,,,,,,,,,P012,fencog,1,Post,2021_Oct_15_1148,N-Back (New Version 2021),2021.1.4,120.0609913
Conditions/Version_1Pr/oneback(1)_v1.xlsx,New rule: Press 'space' when you see 1-back (i.e. the same letter as the one that appeared 1 letter ago.),x,None,,,,,0,1,1,1,0,1,1,1,,,,,,,,,,,,,,,,,,,,,,,,,,,,,,,,,,,,,,,,,,,1.94,207.3251772,None,209.2668927,None,None,1,209.2668927,None,211.2739439,None,,,,,,,,,,,,,,,,,,,,,,,,,,,,,,,,P012,fencog,1,Post,2021_Oct_15_1148,N-Back (New Version 2021),2021.1.4,120.0609913
Conditions/Version_1Pr/oneback(1)_v1.xlsx,New rule: Press 'space' when you see 1-back (i.e. the same letter as the one that appeared 1 letter ago.),g,None,,,,,0,1,1,1,0,2,2,2,,,,,,,,,,,,,,,,,,,,,,,,,,,,,,,,,,,,,,,,,,,1.415,212.7735728,None,214.1915349,None,None,1,214.1915349,None,216.1976186,None,,,,,,,,,,,,,,,,,,,,,,,,,,,,,,,,P012,fencog,1,Post,2021_Oct_15_1148,N-Back (New Version 2021),2021.1.4,120.0609913
Conditions/Version_1Pr/oneback(1)_v1.xlsx,New rule: Press 'space' when you see 1-back (i.e. the same letter as the one that appeared 1 letter ago.),G,space,,,,,0,1,1,1,0,3,3,3,,,,,,,,,,,,,,,,,,,,,,,,,,,,,,,,,,,,,,,,,,,1.665,217.6970806,None,219.3660779,None,space,1,219.3660779,None,219.997256,None,0.6204099,,,,,,,,,,,,,,,,,,,,,,,,,,,,,,,P012,fencog,1,Post,2021_Oct_15_1148,N-Back (New Version 2021),2021.1.4,120.0609913
Conditions/Version_1Pr/oneback(1)_v1.xlsx,New rule: Press 'space' when you see 1-back (i.e. the same letter as the one that appeared 1 letter ago.),u,None,,,,,0,1,1,1,0,4,4,4,,,,,,,,,,,,,,,,,,,,,,,,,,,,,,,,,,,,,,,,,,,1.54,221.5042019,None,223.0498432,None,None,1,223.0498432,None,225.0532621,None,,,,,,,,,,,,,,,,,,,,,,,,,,,,,,,,P012,fencog,1,Post,2021_Oct_15_1148,N-Back (New Version 2021),2021.1.4,120.0609913
Conditions/Version_1Pr/oneback(1)_v1.xlsx,New rule: Press 'space' when you see 1-back (i.e. the same letter as the one that appeared 1 letter ago.),y,None,,,,,0,1,1,1,0,5,5,5,,,,,,,,,,,,,,,,,,,,,,,,,,,,,,,,,,,,,,,,,,,1.315,226.5528405,None,227.8751683,None,None,1,227.8751683,None,229.8769735,None,,,,,,,,,,,,,,,,,,,,,,,,,,,,,,,,P012,fencog,1,Post,2021_Oct_15_1148,N-Back (New Version 2021),2021.1.4,120.0609913
Conditions/Version_1Pr/oneback(1)_v1.xlsx,New rule: Press 'space' when you see 1-back (i.e. the same letter as the one that appeared 1 letter ago.),y,space,,,,,0,1,1,1,0,6,6,6,,,,,,,,,,,,,,,,,,,,,,,,,,,,,,,,,,,,,,,,,,,1.49,231.3764563,None,232.8713943,None,space,1,232.8713943,None,233.6132613,None,0.7308188,,,,,,,,,,,,,,,,,,,,,,,,,,,,,,,P012,fencog,1,Post,2021_Oct_15_1148,N-Back (New Version 2021),2021.1.4,120.0609913
Conditions/Version_1Pr/oneback(1)_v1.xlsx,New rule: Press 'space' when you see 1-back (i.e. the same letter as the one that appeared 1 letter ago.),k,None,,,,,0,1,1,1,0,7,7,7,,,,,,,,,,,,,,,,,,,,,,,,,,,,,,,,,,,,,,,,,,,1.64,235.1167778,None,236.7627569,None,None,1,236.7627569,None,238.7659602,None,,,,,,,,,,,,,,,,,,,,,,,,,,,,,,,,P012,fencog,1,Post,2021_Oct_15_1148,N-Back (New Version 2021),2021.1.4,120.0609913
Conditions/Version_1Pr/oneback(1)_v1.xlsx,New rule: Press 'space' when you see 1-back (i.e. the same letter as the one that appeared 1 letter ago.),c,None,,,,,0,1,1,1,0,8,8,8,,,,,,,,,,,,,,,,,,,,,,,,,,,,,,,,,,,,,,,,,,,1.115,240.2652747,None,241.3853812,None,None,1,241.3853812,None,243.3896013,None,,,,,,,,,,,,,,,,,,,,,,,,,,,,,,,,P012,fencog,1,Post,2021_Oct_15_1148,N-Back (New Version 2021),2021.1.4,120.0609913
Conditions/Version_1Pr/oneback(1)_v1.xlsx,New rule: Press 'space' when you see 1-back (i.e. the same letter as the one that appeared 1 letter ago.),r,None,,,,,0,1,1,1,0,9,9,9,,,,,,,,,,,,,,,,,,,,,,,,,,,,,,,,,,,,,,,,,,,1.215,244.8890853,None,246.10659,None,None,1,246.10659,None,248.1130979,None,,,,,,,,,,,,,,,,,,,,,,,,,,,,,,,,P012,fencog,1,Post,2021_Oct_15_1148,N-Back (New Version 2021),2021.1.4,120.0609913
Conditions/Version_1Pr/oneback(1)_v1.xlsx,New rule: Press 'space' when you see 1-back (i.e. the same letter as the one that appeared 1 letter ago.),,,,,,,0,1,1,1,,,,,,,,,,,,,,,,,,,,,,,,,,,,,,,,,,,,,,,,,,,,,,,,,,,,,,,,,,,,,,,,,,,,,,,,,,,,,,,,,,,,,,,,,P012,fencog,1,Post,2021_Oct_15_1148,N-Back (New Version 2021),2021.1.4,120.0609913
Conditions/Version_1Pr/twoback(1)_v1.xlsx,New rule: Press 'space' when you see 2-back (i.e. the same letter as the one that appeared 2 letters ago.),E,None,,,,,0,2,2,2,0,0,0,0,,,,,,,,,,,,,,,,,,,,,,,,,,,,,,,,,249.6411654,None,252.6224157,None,space,1.0040115,252.6224157,None,249.6411654,None,1.165,253.6432788,None,254.8141797,None,None,1,254.8141797,None,256.8190239,None,,,,,,,,,,,,,,,,,,,,,,,,,,,,,,,,P012,fencog,1,Post,2021_Oct_15_1148,N-Back (New Version 2021),2021.1.4,120.0609913
Conditions/Version_1Pr/twoback(1)_v1.xlsx,New rule: Press 'space' when you see 2-back (i.e. the same letter as the one that appeared 2 letters ago.),p,None,,,,,0,2,2,2,0,1,1,1,,,,,,,,,,,,,,,,,,,,,,,,,,,,,,,,,,,,,,,,,,,1.99,258.3185083,None,260.3112871,None,None,1,260.3112871,None,262.3173604,None,,,,,,,,,,,,,,,,,,,,,,,,,,,,,,,,P012,fencog,1,Post,2021_Oct_15_1148,N-Back (New Version 2021),2021.1.4,120.0609913
Conditions/Version_1Pr/twoback(1)_v1.xlsx,New rule: Press 'space' when you see 2-back (i.e. the same letter as the one that appeared 2 letters ago.),e,space,,,,,0,2,2,2,0,2,2,2,,,,,,,,,,,,,,,,,,,,,,,,,,,,,,,,,,,,,,,,,,,1.24,263.8168811,None,265.0594185,None,space,1,265.0594185,None,266.4006445,None,1.3270565,,,,,,,,,,,,,,,,,,,,,,,,,,,,,,,P012,fencog,1,Post,2021_Oct_15_1148,N-Back (New Version 2021),2021.1.4,120.0609913
Conditions/Version_1Pr/twoback(1)_v1.xlsx,New rule: Press 'space' when you see 2-back (i.e. the same letter as the one that appeared 2 letters ago.),s,None,,,,,0,2,2,2,0,3,3,3,,,,,,,,,,,,,,,,,,,,,,,,,,,,,,,,,,,,,,,,,,,1.365,267.9074497,None,269.2768327,None,None,1,269.2768327,None,271.2811919,None,,,,,,,,,,,,,,,,,,,,,,,,,,,,,,,,P012,fencog,1,Post,2021_Oct_15_1148,N-Back (New Version 2021),2021.1.4,120.0609913
Conditions/Version_1Pr/twoback(1)_v1.xlsx,New rule: Press 'space' when you see 2-back (i.e. the same letter as the one that appeared 2 letters ago.),S,None,,,,,0,2,2,2,0,4,4,4,,,,,,,,,,,,,,,,,,,,,,,,,,,,,,,,,,,,,,,,,,,1.515,272.7809689,None,274.3013599,None,None,1,274.3013599,None,276.3048429,None,,,,,,,,,,,,,,,,,,,,,,,,,,,,,,,,P012,fencog,1,Post,2021_Oct_15_1148,N-Back (New Version 2021),2021.1.4,120.0609913
Conditions/Version_1Pr/twoback(1)_v1.xlsx,New rule: Press 'space' when you see 2-back (i.e. the same letter as the one that appeared 2 letters ago.),s,space,,,,,0,2,2,2,0,5,5,5,,,,,,,,,,,,,,,,,,,,,,,,,,,,,,,,,,,,,,,,,,,1.715,277.8044913,None,279.5220927,None,space,1,279.5220927,None,280.2800484,None,0.7443173,,,,,,,,,,,,,,,,,,,,,,,,,,,,,,,P012,fencog,1,Post,2021_Oct_15_1148,N-Back (New Version 2021),2021.1.4,120.0609913
Conditions/Version_1Pr/twoback(1)_v1.xlsx,New rule: Press 'space' when you see 2-back (i.e. the same letter as the one that appeared 2 letters ago.),P,None,,,,,0,2,2,2,0,6,6,6,,,,,,,,,,,,,,,,,,,,,,,,,,,,,,,,,,,,,,,,,,,1.615,281.7864021,None,283.4062806,None,None,1,283.4062806,None,285.410527,None,,,,,,,,,,,,,,,,,,,,,,,,,,,,,,,,P012,fencog,1,Post,2021_Oct_15_1148,N-Back (New Version 2021),2021.1.4,120.0609913
Conditions/Version_1Pr/twoback(1)_v1.xlsx,New rule: Press 'space' when you see 2-back (i.e. the same letter as the one that appeared 2 letters ago.),C,None,,,,,0,2,2,2,0,7,7,7,,,,,,,,,,,,,,,,,,,,,,,,,,,,,,,,,,,,,,,,,,,1.14,286.910027,None,288.0533448,None,None,1,288.0533448,None,290.0591951,None,,,,,,,,,,,,,,,,,,,,,,,,,,,,,,,,P012,fencog,1,Post,2021_Oct_15_1148,N-Back (New Version 2021),2021.1.4,120.0609913
Conditions/Version_1Pr/twoback(1)_v1.xlsx,New rule: Press 'space' when you see 2-back (i.e. the same letter as the one that appeared 2 letters ago.),x,None,,,,,0,2,2,2,0,8,8,8,,,,,,,,,,,,,,,,,,,,,,,,,,,,,,,,,,,,,,,,,,,1.915,291.5586607,None,293.4768442,None,None,1,293.4768442,None,295.4826011,None,,,,,,,,,,,,,,,,,,,,,,,,,,,,,,,,P012,fencog,1,Post,2021_Oct_15_1148,N-Back (New Version 2021),2021.1.4,120.0609913
Conditions/Version_1Pr/twoback(1)_v1.xlsx,New rule: Press 'space' when you see 2-back (i.e. the same letter as the one that appeared 2 letters ago.),Z,None,,,,,0,2,2,2,0,9,9,9,,,,,,,,,,,,,,,,,,,,,,,,,,,,,,,,,,,,,,,,,,,1.315,296.9820928,None,298.3003492,None,None,1,298.3003492,None,300.3062286,None,,,,,,,,,,,,,,,,,,,,,,,,,,,,,,,,P012,fencog,1,Post,2021_Oct_15_1148,N-Back (New Version 2021),2021.1.4,120.0609913
Conditions/Version_1Pr/twoback(1)_v1.xlsx,New rule: Press 'space' when you see 2-back (i.e. the same letter as the one that appeared 2 letters ago.),,,,,,,0,2,2,2,,,,,,,,,,,,,,,,,,,,,,,,,,,,,,,,,,,,,,,,,,,,,,,,,,,,,,,,,,,,,,,,,,,,,,,,,,,,,,,,,,,,,,,,,P012,fencog,1,Post,2021_Oct_15_1148,N-Back (New Version 2021),2021.1.4,120.0609913
Conditions/Version_1Pr/threeback(1)_v1.xlsx,New rule: Press 'space' when you see 3-back (i.e. the same letter as the one that appeared 3 letters ago.),r,None,,,,,0,3,3,3,0,0,0,0,,,,,,,,,,,,,,,,,,,,,,,,,,,,,,,,,301.8300041,None,304.8146492,None,space,1.4031698,304.8146492,None,301.8300041,None,1.165,306.2343937,None,307.406206,None,None,1,307.406206,None,309.4118482,None,,,,,,,,,,,,,,,,,,,,,,,,,,,,,,,,P012,fencog,1,Post,2021_Oct_15_1148,N-Back (New Version 2021),2021.1.4,120.0609913
Conditions/Version_1Pr/threeback(1)_v1.xlsx,New rule: Press 'space' when you see 3-back (i.e. the same letter as the one that appeared 3 letters ago.),a,None,,,,,0,3,3,3,0,1,1,1,,,,,,,,,,,,,,,,,,,,,,,,,,,,,,,,,,,,,,,,,,,1.49,310.9114432,None,312.4032591,None,None,1,312.4032591,None,314.410345,None,,,,,,,,,,,,,,,,,,,,,,,,,,,,,,,,P012,fencog,1,Post,2021_Oct_15_1148,N-Back (New Version 2021),2021.1.4,120.0609913
Conditions/Version_1Pr/threeback(1)_v1.xlsx,New rule: Press 'space' when you see 3-back (i.e. the same letter as the one that appeared 3 letters ago.),t,None,,,,,0,3,3,3,0,2,2,2,,,,,,,,,,,,,,,,,,,,,,,,,,,,,,,,,,,,,,,,,,,1.365,315.9099273,None,317.2808969,None,None,1,317.2808969,None,319.2839623,None,,,,,,,,,,,,,,,,,,,,,,,,,,,,,,,,P012,fencog,1,Post,2021_Oct_15_1148,N-Back (New Version 2021),2021.1.4,120.0609913
Conditions/Version_1Pr/threeback(1)_v1.xlsx,New rule: Press 'space' when you see 3-back (i.e. the same letter as the one that appeared 3 letters ago.),r,space,,,,,0,3,3,3,0,3,3,3,,,,,,,,,,,,,,,,,,,,,,,,,,,,,,,,,,,,,,,,,,,1.565,320.7833145,None,322.3532612,None,space,1,322.3532612,None,323.4762624,None,1.1128944,,,,,,,,,,,,,,,,,,,,,,,,,,,,,,,P012,fencog,1,Post,2021_Oct_15_1148,N-Back (New Version 2021),2021.1.4,120.0609913
Conditions/Version_1Pr/threeback(1)_v1.xlsx,New rule: Press 'space' when you see 3-back (i.e. the same letter as the one that appeared 3 letters ago.),a,None,,,,,0,3,3,3,0,4,4,4,,,,,,,,,,,,,,,,,,,,,,,,,,,,,,,,,,,,,,,,,,,1.815,324.9820326,None,326.8009087,None,space,0,326.8009087,None,327.4073388,None,0.5937468,,,,,,,,,,,,,,,,,,,,,,,,,,,,,,,P012,fencog,1,Post,2021_Oct_15_1148,N-Back (New Version 2021),2021.1.4,120.0609913
Conditions/Version_1Pr/threeback(1)_v1.xlsx,New rule: Press 'space' when you see 3-back (i.e. the same letter as the one that appeared 3 letters ago.),Y,None,,,,,0,3,3,3,0,5,5,5,,,,,,,,,,,,,,,,,,,,,,,,,,,,,,,,,,,,,,,,,,,1.615,328.9144536,None,330.5338874,None,None,1,330.5338874,None,332.5388553,None,,,,,,,,,,,,,,,,,,,,,,,,,,,,,,,,P012,fencog,1,Post,2021_Oct_15_1148,N-Back (New Version 2021),2021.1.4,120.0609913
Conditions/Version_1Pr/threeback(1)_v1.xlsx,New rule: Press 'space' when you see 3-back (i.e. the same letter as the one that appeared 3 letters ago.),q,None,,,,,0,3,3,3,0,6,6,6,,,,,,,,,,,,,,,,,,,,,,,,,,,,,,,,,,,,,,,,,,,1.99,334.0379773,None,336.0305717,None,None,1,336.0305717,None,338.0367398,None,,,,,,,,,,,,,,,,,,,,,,,,,,,,,,,,P012,fencog,1,Post,2021_Oct_15_1148,N-Back (New Version 2021),2021.1.4,120.0609913
Conditions/Version_1Pr/threeback(1)_v1.xlsx,New rule: Press 'space' when you see 3-back (i.e. the same letter as the one that appeared 3 letters ago.),A,space,,,,,0,3,3,3,0,7,7,7,,,,,,,,,,,,,,,,,,,,,,,,,,,,,,,,,,,,,,,,,,,1.265,339.5363334,None,340.8040446,None,space,1,340.8040446,None,341.5785421,None,0.7659604,,,,,,,,,,,,,,,,,,,,,,,,,,,,,,,P012,fencog,1,Post,2021_Oct_15_1148,N-Back (New Version 2021),2021.1.4,120.0609913
Conditions/Version_1Pr/threeback(1)_v1.xlsx,New rule: Press 'space' when you see 3-back (i.e. the same letter as the one that appeared 3 letters ago.),y,None,,,,,0,3,3,3,0,8,8,8,,,,,,,,,,,,,,,,,,,,,,,,,,,,,,,,,,,,,,,,,,,1.665,343.085184,None,344.753259,None,space,0,344.753259,None,345.2579354,None,0.4891065,,,,,,,,,,,,,,,,,,,,,,,,,,,,,,,P012,fencog,1,Post,2021_Oct_15_1148,N-Back (New Version 2021),2021.1.4,120.0609913
Conditions/Version_1Pr/threeback(1)_v1.xlsx,New rule: Press 'space' when you see 3-back (i.e. the same letter as the one that appeared 3 letters ago.),r,None,,,,,0,3,3,3,0,9,9,9,,,,,,,,,,,,,,,,,,,,,,,,,,,,,,,,,,,,,,,,,,,1.415,346.7592445,None,348.1773443,None,space,0,348.1773443,None,349.7086366,None,1.5207116,,,,,,,,,,,,,,,,,,,,,,,,,,,,,,,P012,fencog,1,Post,2021_Oct_15_1148,N-Back (New Version 2021),2021.1.4,120.0609913
Conditions/Version_1Pr/threeback(1)_v1.xlsx,New rule: Press 'space' when you see 3-back (i.e. the same letter as the one that appeared 3 letters ago.),,,,,,,0,3,3,3,,,,,,,,,,,,,,,,,,,,,,,,,,,,,,,,,,,,,,,,,,,,,,,,,,,,,,,,,,,,,,,,,,,,,,,,,,,,,,,,,,,,,,,,,P012,fencog,1,Post,2021_Oct_15_1148,N-Back (New Version 2021),2021.1.4,120.0609913
,,,,,,,,,,,,,,,,,,,,,,,,,,,,,,,,,,,,,,,,,,,,,,,,,,,,,,,,,,,,,,,,,,,,,,351.2161396,None,space,0.2068853,351.7076583,None,,,,,,,,,,,,,,,,,,,,,,,,,P012,fencog,1,Post,2021_Oct_15_1148,N-Back (New Version 2021),2021.1.4,120.0609913
,,,,,,,,,,,,,,,,,,,,,,,,,,,,,,,,,,,,,,,,,,,,,,,,,,,,,,,,,,,,,,,,,,,,,,,,,,,,351.9376269,None,space,2.7129297,352.4329503,None,,,,,,,,,,,,,,,,,,,P012,fencog,1,Post,2021_Oct_15_1148,N-Back (New Version 2021),2021.1.4,120.0609913
,,,,Conditions/Version_1/zeroback(1)_v1.xlsx,Rule: Press 'space' when you see the letter 'x' or 'X'.,b,None,,,,,,,,,0,0,0,0,0,0,0,0,,,,,,,,,,,,,,,,,,,,,,,,,,,,,,,,,,,,,,,,,,,,,,,,,,,,,,,,,,,355.2513649,None,358.2409473,None,space,3.6174247,358.2409473,None,355.2513649,None,1.9586,363.8390657,None,None,1,363.8390657,None,,P012,fencog,1,Post,2021_Oct_15_1148,N-Back (New Version 2021),2021.1.4,120.0609913
,,,,Conditions/Version_1/zeroback(1)_v1.xlsx,Rule: Press 'space' when you see the letter 'x' or 'X'.,T,None,,,,,,,,,0,0,0,0,0,1,1,1,,,,,,,,,,,,,,,,,,,,,,,,,,,,,,,,,,,,,,,,,,,,,,,,,,,,,,,,,,,,,,,,,,,,,1.0906,366.9381907,None,None,1,366.9381907,None,,P012,fencog,1,Post,2021_Oct_15_1148,N-Back (New Version 2021),2021.1.4,120.0609913
,,,,Conditions/Version_1/zeroback(1)_v1.xlsx,Rule: Press 'space' when you see the letter 'x' or 'X'.,L,None,,,,,,,,,0,0,0,0,0,2,2,2,,,,,,,,,,,,,,,,,,,,,,,,,,,,,,,,,,,,,,,,,,,,,,,,,,,,,,,,,,,,,,,,,,,,,1.103,370.056243,None,None,1,370.056243,None,,P012,fencog,1,Post,2021_Oct_15_1148,N-Back (New Version 2021),2021.1.4,120.0609913
,,,,Conditions/Version_1/zeroback(1)_v1.xlsx,Rule: Press 'space' when you see the letter 'x' or 'X'.,x,space,,,,,,,,,0,0,0,0,0,3,3,3,,,,,,,,,,,,,,,,,,,,,,,,,,,,,,,,,,,,,,,,,,,,,,,,,,,,,,,,,,,,,,,,,,,,,1.351,373.4193403,None,space,1,373.4193403,None,0.3907813,P012,fencog,1,Post,2021_Oct_15_1148,N-Back (New Version 2021),2021.1.4,120.0609913
,,,,Conditions/Version_1/zeroback(1)_v1.xlsx,Rule: Press 'space' when you see the letter 'x' or 'X'.,o,None,,,,,,,,,0,0,0,0,0,4,4,4,,,,,,,,,,,,,,,,,,,,,,,,,,,,,,,,,,,,,,,,,,,,,,,,,,,,,,,,,,,,,,,,,,,,,1.041,376.4681674,None,None,1,376.4681674,None,,P012,fencog,1,Post,2021_Oct_15_1148,N-Back (New Version 2021),2021.1.4,120.0609913
,,,,Conditions/Version_1/zeroback(1)_v1.xlsx,Rule: Press 'space' when you see the letter 'x' or 'X'.,P,None,,,,,,,,,0,0,0,0,0,5,5,5,,,,,,,,,,,,,,,,,,,,,,,,,,,,,,,,,,,,,,,,,,,,,,,,,,,,,,,,,,,,,,,,,,,,,1.5494,380.0254582,None,None,1,380.0254582,None,,P012,fencog,1,Post,2021_Oct_15_1148,N-Back (New Version 2021),2021.1.4,120.0609913
,,,,Conditions/Version_1/zeroback(1)_v1.xlsx,Rule: Press 'space' when you see the letter 'x' or 'X'.,X,space,,,,,,,,,0,0,0,0,0,6,6,6,,,,,,,,,,,,,,,,,,,,,,,,,,,,,,,,,,,,,,,,,,,,,,,,,,,,,,,,,,,,,,,,,,,,,1.2766,383.3149495,None,space,1,383.3149495,None,0.3433399,P012,fencog,1,Post,2021_Oct_15_1148,N-Back (New Version 2021),2021.1.4,120.0609913
,,,,Conditions/Version_1/zeroback(1)_v1.xlsx,Rule: Press 'space' when you see the letter 'x' or 'X'.,n,None,,,,,,,,,0,0,0,0,0,7,7,7,,,,,,,,,,,,,,,,,,,,,,,,,,,,,,,,,,,,,,,,,,,,,,,,,,,,,,,,,,,,,,,,,,,,,1.6858,387.0089581,None,None,1,387.0089581,None,,P012,fencog,1,Post,2021_Oct_15_1148,N-Back (New Version 2021),2021.1.4,120.0609913
,,,,Conditions/Version_1/zeroback(1)_v1.xlsx,Rule: Press 'space' when you see the letter 'x' or 'X'.,M,None,,,,,,,,,0,0,0,0,0,8,8,8,,,,,,,,,,,,,,,,,,,,,,,,,,,,,,,,,,,,,,,,,,,,,,,,,,,,,,,,,,,,,,,,,,,,,1.5866,390.6062427,None,None,1,390.6062427,None,,P012,fencog,1,Post,2021_Oct_15_1148,N-Back (New Version 2021),2021.1.4,120.0609913
,,,,Conditions/Version_1/zeroback(1)_v1.xlsx,Rule: Press 'space' when you see the letter 'x' or 'X'.,a,None,,,,,,,,,0,0,0,0,0,9,9,9,,,,,,,,,,,,,,,,,,,,,,,,,,,,,,,,,,,,,,,,,,,,,,,,,,,,,,,,,,,,,,,,,,,,,1.661,394.2795826,None,None,1,394.2795826,None,,P012,fencog,1,Post,2021_Oct_15_1148,N-Back (New Version 2021),2021.1.4,120.0609913
,,,,Conditions/Version_1/zeroback(1)_v1.xlsx,Rule: Press 'space' when you see the letter 'x' or 'X'.,,,,,,,,,,,0,0,0,0,,,,,,,,,,,,,,,,,,,,,,,,,,,,,,,,,,,,,,,,,,,,,,,,,,,,,,,,,,,,,,,,,,,,,,,,,,,,,,,,,P012,fencog,1,Post,2021_Oct_15_1148,N-Back (New Version 2021),2021.1.4,120.0609913
,,,,Conditions/Version_1/oneback(1)_v1.xlsx,New rule: Press 'space' when you see 1-back (i.e. the same letter as the one that appeared 1 letter ago.),b,None,,,,,,,,,0,1,1,1,0,0,0,0,,,,,,,,,,,,,,,,,,,,,,,,,,,,,,,,,,,,,,,,,,,,,,,,,,,,,,,,,,,396.3105041,None,399.2961457,None,space,0.4738784,399.2961457,None,396.3105041,None,1.444,401.2361467,None,None,1,401.2361467,None,,P012,fencog,1,Post,2021_Oct_15_1148,N-Back (New Version 2021),2021.1.4,120.0609913
,,,,Conditions/Version_1/oneback(1)_v1.xlsx,New rule: Press 'space' when you see 1-back (i.e. the same letter as the one that appeared 1 letter ago.),p,None,,,,,,,,,0,1,1,1,0,1,1,1,,,,,,,,,,,,,,,,,,,,,,,,,,,,,,,,,,,,,,,,,,,,,,,,,,,,,,,,,,,,,,,,,,,,,1.754,405.0023466,None,None,1,405.0023466,None,,P012,fencog,1,Post,2021_Oct_15_1148,N-Back (New Version 2021),2021.1.4,120.0609913
,,,,Conditions/Version_1/oneback(1)_v1.xlsx,New rule: Press 'space' when you see 1-back (i.e. the same letter as the one that appeared 1 letter ago.),M,None,,,,,,,,,0,1,1,1,0,2,2,2,,,,,,,,,,,,,,,,,,,,,,,,,,,,,,,,,,,,,,,,,,,,,,,,,,,,,,,,,,,,,,,,,,,,,1.4626,408.4753103,None,None,1,408.4753103,None,,P012,fencog,1,Post,2021_Oct_15_1148,N-Back (New Version 2021),2021.1.4,120.0609913
,,,,Conditions/Version_1/oneback(1)_v1.xlsx,New rule: Press 'space' when you see 1-back (i.e. the same letter as the one that appeared 1 letter ago.),M,space,,,,,,,,,0,1,1,1,0,3,3,3,,,,,,,,,,,,,,,,,,,,,,,,,,,,,,,,,,,,,,,,,,,,,,,,,,,,,,,,,,,,,,,,,,,,,1.5742,412.0565275,None,space,1,412.0565275,None,0.3538795,P012,fencog,1,Post,2021_Oct_15_1148,N-Back (New Version 2021),2021.1.4,120.0609913
,,,,Conditions/Version_1/oneback(1)_v1.xlsx,New rule: Press 'space' when you see 1-back (i.e. the same letter as the one that appeared 1 letter ago.),n,None,,,,,,,,,0,1,1,1,0,4,4,4,,,,,,,,,,,,,,,,,,,,,,,,,,,,,,,,,,,,,,,,,,,,,,,,,,,,,,,,,,,,,,,,,,,,,1.01,415.0762385,None,None,1,415.0762385,None,,P012,fencog,1,Post,2021_Oct_15_1148,N-Back (New Version 2021),2021.1.4,120.0609913
,,,,Conditions/Version_1/oneback(1)_v1.xlsx,New rule: Press 'space' when you see 1-back (i.e. the same letter as the one that appeared 1 letter ago.),g,None,,,,,,,,,0,1,1,1,0,5,5,5,,,,,,,,,,,,,,,,,,,,,,,,,,,,,,,,,,,,,,,,,,,,,,,,,,,,,,,,,,,,,,,,,,,,,1.9524,419.0377948,None,None,1,419.0377948,None,,P012,fencog,1,Post,2021_Oct_15_1148,N-Back (New Version 2021),2021.1.4,120.0609913
,,,,Conditions/Version_1/oneback(1)_v1.xlsx,New rule: Press 'space' when you see 1-back (i.e. the same letter as the one that appeared 1 letter ago.),P,None,,,,,,,,,0,1,1,1,0,6,6,6,,,,,,,,,,,,,,,,,,,,,,,,,,,,,,,,,,,,,,,,,,,,,,,,,,,,,,,,,,,,,,,,,,,,,1.4502,422.4877305,None,None,1,422.4877305,None,,P012,fencog,1,Post,2021_Oct_15_1148,N-Back (New Version 2021),2021.1.4,120.0609913
,,,,Conditions/Version_1/oneback(1)_v1.xlsx,New rule: Press 'space' when you see 1-back (i.e. the same letter as the one that appeared 1 letter ago.),o,None,,,,,,,,,0,1,1,1,0,7,7,7,,,,,,,,,,,,,,,,,,,,,,,,,,,,,,,,,,,,,,,,,,,,,,,,,,,,,,,,,,,,,,,,,,,,,1.6858,426.1868586,None,None,1,426.1868586,None,,P012,fencog,1,Post,2021_Oct_15_1148,N-Back (New Version 2021),2021.1.4,120.0609913
,,,,Conditions/Version_1/oneback(1)_v1.xlsx,New rule: Press 'space' when you see 1-back (i.e. the same letter as the one that appeared 1 letter ago.),f,None,,,,,,,,,0,1,1,1,0,8,8,8,,,,,,,,,,,,,,,,,,,,,,,,,,,,,,,,,,,,,,,,,,,,,,,,,,,,,,,,,,,,,,,,,,,,,1.2332,429.4281075,None,None,1,429.4281075,None,,P012,fencog,1,Post,2021_Oct_15_1148,N-Back (New Version 2021),2021.1.4,120.0609913
,,,,Conditions/Version_1/oneback(1)_v1.xlsx,New rule: Press 'space' when you see 1-back (i.e. the same letter as the one that appeared 1 letter ago.),F,space,,,,,,,,,0,1,1,1,0,9,9,9,,,,,,,,,,,,,,,,,,,,,,,,,,,,,,,,,,,,,,,,,,,,,,,,,,,,,,,,,,,,,,,,,,,,,1.4316,432.8725166,None,space,1,432.8725166,None,0.426215,P012,fencog,1,Post,2021_Oct_15_1148,N-Back (New Version 2021),2021.1.4,120.0609913
,,,,Conditions/Version_1/oneback(1)_v1.xlsx,New rule: Press 'space' when you see 1-back (i.e. the same letter as the one that appeared 1 letter ago.),,,,,,,,,,,0,1,1,1,,,,,,,,,,,,,,,,,,,,,,,,,,,,,,,,,,,,,,,,,,,,,,,,,,,,,,,,,,,,,,,,,,,,,,,,,,,,,,,,,P012,fencog,1,Post,2021_Oct_15_1148,N-Back (New Version 2021),2021.1.4,120.0609913
,,,,Conditions/Version_1/twoback(1)_v1.xlsx,New rule: Press 'space' when you see 2-back (i.e. the same letter as the one that appeared 2 letters ago.),b,None,,,,,,,,,0,2,2,2,0,0,0,0,,,,,,,,,,,,,,,,,,,,,,,,,,,,,,,,,,,,,,,,,,,,,,,,,,,,,,,,,,,434.9007464,None,437.884441,None,space,0.7576521,437.884441,None,434.9007464,None,1.0968,439.7752908,None,None,1,439.7752908,None,,P012,fencog,1,Post,2021_Oct_15_1148,N-Back (New Version 2021),2021.1.4,120.0609913
,,,,Conditions/Version_1/twoback(1)_v1.xlsx,New rule: Press 'space' when you see 2-back (i.e. the same letter as the one that appeared 2 letters ago.),h,None,,,,,,,,,0,2,2,2,0,1,1,1,,,,,,,,,,,,,,,,,,,,,,,,,,,,,,,,,,,,,,,,,,,,,,,,,,,,,,,,,,,,,,,,,,,,,1.3944,443.1830865,None,None,1,443.1830865,None,,P012,fencog,1,Post,2021_Oct_15_1148,N-Back (New Version 2021),2021.1.4,120.0609913
,,,,Conditions/Version_1/twoback(1)_v1.xlsx,New rule: Press 'space' when you see 2-back (i.e. the same letter as the one that appeared 2 letters ago.),j,None,,,,,,,,,0,2,2,2,0,2,2,2,,,,,,,,,,,,,,,,,,,,,,,,,,,,,,,,,,,,,,,,,,,,,,,,,,,,,,,,,,,,,,,,,,,,,1.227,446.4242415,None,None,1,446.4242415,None,,P012,fencog,1,Post,2021_Oct_15_1148,N-Back (New Version 2021),2021.1.4,120.0609913
,,,,Conditions/Version_1/twoback(1)_v1.xlsx,New rule: Press 'space' when you see 2-back (i.e. the same letter as the one that appeared 2 letters ago.),H,space,,,,,,,,,0,2,2,2,0,3,3,3,,,,,,,,,,,,,,,,,,,,,,,,,,,,,,,,,,,,,,,,,,,,,,,,,,,,,,,,,,,,,,,,,,,,,1.4564,449.8913067,None,space,1,449.8913067,None,0.5107973,P012,fencog,1,Post,2021_Oct_15_1148,N-Back (New Version 2021),2021.1.4,120.0609913
,,,,Conditions/Version_1/twoback(1)_v1.xlsx,New rule: Press 'space' when you see 2-back (i.e. the same letter as the one that appeared 2 letters ago.),p,None,,,,,,,,,0,2,2,2,0,4,4,4,,,,,,,,,,,,,,,,,,,,,,,,,,,,,,,,,,,,,,,,,,,,,,,,,,,,,,,,,,,,,,,,,,,,,1.661,453.5620764,None,None,1,453.5620764,None,,P012,fencog,1,Post,2021_Oct_15_1148,N-Back (New Version 2021),2021.1.4,120.0609913
,,,,Conditions/Version_1/twoback(1)_v1.xlsx,New rule: Press 'space' when you see 2-back (i.e. the same letter as the one that appeared 2 letters ago.),p,None,,,,,,,,,0,2,2,2,0,5,5,5,,,,,,,,,,,,,,,,,,,,,,,,,,,,,,,,,,,,,,,,,,,,,,,,,,,,,,,,,,,,,,,,,,,,,1.2084,456.7766732,None,space,0,456.7766732,None,0.4977485,P012,fencog,1,Post,2021_Oct_15_1148,N-Back (New Version 2021),2021.1.4,120.0609913
,,,,Conditions/Version_1/twoback(1)_v1.xlsx,New rule: Press 'space' when you see 2-back (i.e. the same letter as the one that appeared 2 letters ago.),w,None,,,,,,,,,0,2,2,2,0,6,6,6,,,,,,,,,,,,,,,,,,,,,,,,,,,,,,,,,,,,,,,,,,,,,,,,,,,,,,,,,,,,,,,,,,,,,1.5556,460.3424959,None,None,1,460.3424959,None,,P012,fencog,1,Post,2021_Oct_15_1148,N-Back (New Version 2021),2021.1.4,120.0609913
,,,,Conditions/Version_1/twoback(1)_v1.xlsx,New rule: Press 'space' when you see 2-back (i.e. the same letter as the one that appeared 2 letters ago.),R,None,,,,,,,,,0,2,2,2,0,7,7,7,,,,,,,,,,,,,,,,,,,,,,,,,,,,,,,,,,,,,,,,,,,,,,,,,,,,,,,,,,,,,,,,,,,,,1.2704,463.6166908,None,None,1,463.6166908,None,,P012,fencog,1,Post,2021_Oct_15_1148,N-Back (New Version 2021),2021.1.4,120.0609913
,,,,Conditions/Version_1/twoback(1)_v1.xlsx,New rule: Press 'space' when you see 2-back (i.e. the same letter as the one that appeared 2 letters ago.),a,None,,,,,,,,,0,2,2,2,0,8,8,8,,,,,,,,,,,,,,,,,,,,,,,,,,,,,,,,,,,,,,,,,,,,,,,,,,,,,,,,,,,,,,,,,,,,,1.63,467.2513074,None,None,1,467.2513074,None,,P012,fencog,1,Post,2021_Oct_15_1148,N-Back (New Version 2021),2021.1.4,120.0609913
,,,,Conditions/Version_1/twoback(1)_v1.xlsx,New rule: Press 'space' when you see 2-back (i.e. the same letter as the one that appeared 2 letters ago.),r,space,,,,,,,,,0,2,2,2,0,9,9,9,,,,,,,,,,,,,,,,,,,,,,,,,,,,,,,,,,,,,,,,,,,,,,,,,,,,,,,,,,,,,,,,,,,,,1.5308,470.7895393,None,space,1,470.7895393,None,0.4290425,P012,fencog,1,Post,2021_Oct_15_1148,N-Back (New Version 2021),2021.1.4,120.0609913
,,,,Conditions/Version_1/twoback(1)_v1.xlsx,New rule: Press 'space' when you see 2-back (i.e. the same letter as the one that appeared 2 letters ago.),,,,,,,,,,,0,2,2,2,,,,,,,,,,,,,,,,,,,,,,,,,,,,,,,,,,,,,,,,,,,,,,,,,,,,,,,,,,,,,,,,,,,,,,,,,,,,,,,,,P012,fencog,1,Post,2021_Oct_15_1148,N-Back (New Version 2021),2021.1.4,120.0609913
,,,,Conditions/Version_1/threeback(1)_v1.xlsx,New rule: Press 'space' when you see 3-back (i.e. the same letter as the one that appeared 3 letters ago.),r,None,,,,,,,,,0,3,3,3,0,0,0,0,,,,,,,,,,,,,,,,,,,,,,,,,,,,,,,,,,,,,,,,,,,,,,,,,,,,,,,,,,,472.8157512,None,475.7988968,None,space,0.3154774,475.7988968,None,472.8157512,None,1.1154,477.2708337,None,None,1,477.2708337,None,,P012,fencog,1,Post,2021_Oct_15_1148,N-Back (New Version 2021),2021.1.4,120.0609913
,,,,Conditions/Version_1/threeback(1)_v1.xlsx,New rule: Press 'space' when you see 3-back (i.e. the same letter as the one that appeared 3 letters ago.),o,None,,,,,,,,,0,3,3,3,0,1,1,1,,,,,,,,,,,,,,,,,,,,,,,,,,,,,,,,,,,,,,,,,,,,,,,,,,,,,,,,,,,,,,,,,,,,,1.7416,481.0140906,None,None,1,481.0140906,None,,P012,fencog,1,Post,2021_Oct_15_1148,N-Back (New Version 2021),2021.1.4,120.0609913
,,,,Conditions/Version_1/threeback(1)_v1.xlsx,New rule: Press 'space' when you see 3-back (i.e. the same letter as the one that appeared 3 letters ago.),P,None,,,,,,,,,0,3,3,3,0,2,2,2,,,,,,,,,,,,,,,,,,,,,,,,,,,,,,,,,,,,,,,,,,,,,,,,,,,,,,,,,,,,,,,,,,,,,1.5122,484.5420431,None,None,1,484.5420431,None,,P012,fencog,1,Post,2021_Oct_15_1148,N-Back (New Version 2021),2021.1.4,120.0609913
,,,,Conditions/Version_1/threeback(1)_v1.xlsx,New rule: Press 'space' when you see 3-back (i.e. the same letter as the one that appeared 3 letters ago.),R,space,,,,,,,,,0,3,3,3,0,3,3,3,,,,,,,,,,,,,,,,,,,,,,,,,,,,,,,,,,,,,,,,,,,,,,,,,,,,,,,,,,,,,,,,,,,,,1.8594,488.4104223,None,space,1,488.4104223,None,0.4242914,P012,fencog,1,Post,2021_Oct_15_1148,N-Back (New Version 2021),2021.1.4,120.0609913
,,,,Conditions/Version_1/threeback(1)_v1.xlsx,New rule: Press 'space' when you see 3-back (i.e. the same letter as the one that appeared 3 letters ago.),p,None,,,,,,,,,0,3,3,3,0,4,4,4,,,,,,,,,,,,,,,,,,,,,,,,,,,,,,,,,,,,,,,,,,,,,,,,,,,,,,,,,,,,,,,,,,,,,1.7912,492.2106862,None,None,1,492.2106862,None,,P012,fencog,1,Post,2021_Oct_15_1148,N-Back (New Version 2021),2021.1.4,120.0609913
,,,,Conditions/Version_1/threeback(1)_v1.xlsx,New rule: Press 'space' when you see 3-back (i.e. the same letter as the one that appeared 3 letters ago.),E,None,,,,,,,,,0,3,3,3,0,5,5,5,,,,,,,,,,,,,,,,,,,,,,,,,,,,,,,,,,,,,,,,,,,,,,,,,,,,,,,,,,,,,,,,,,,,,1.9276,496.1483834,None,None,1,496.1483834,None,,P012,fencog,1,Post,2021_Oct_15_1148,N-Back (New Version 2021),2021.1.4,120.0609913
,,,,Conditions/Version_1/threeback(1)_v1.xlsx,New rule: Press 'space' when you see 3-back (i.e. the same letter as the one that appeared 3 letters ago.),e,None,,,,,,,,,0,3,3,3,0,6,6,6,,,,,,,,,,,,,,,,,,,,,,,,,,,,,,,,,,,,,,,,,,,,,,,,,,,,,,,,,,,,,,,,,,,,,1.6858,499.8406902,None,None,1,499.8406902,None,,P012,fencog,1,Post,2021_Oct_15_1148,N-Back (New Version 2021),2021.1.4,120.0609913
,,,,Conditions/Version_1/threeback(1)_v1.xlsx,New rule: Press 'space' when you see 3-back (i.e. the same letter as the one that appeared 3 letters ago.),m,None,,,,,,,,,0,3,3,3,0,7,7,7,,,,,,,,,,,,,,,,,,,,,,,,,,,,,,,,,,,,,,,,,,,,,,,,,,,,,,,,,,,,,,,,,,,,,1.4936,503.3485095,None,None,1,503.3485095,None,,P012,fencog,1,Post,2021_Oct_15_1148,N-Back (New Version 2021),2021.1.4,120.0609913
,,,,Conditions/Version_1/threeback(1)_v1.xlsx,New rule: Press 'space' when you see 3-back (i.e. the same letter as the one that appeared 3 letters ago.),n,None,,,,,,,,,0,3,3,3,0,8,8,8,,,,,,,,,,,,,,,,,,,,,,,,,,,,,,,,,,,,,,,,,,,,,,,,,,,,,,,,,,,,,,,,,,,,,1.9896,507.3480979,None,None,1,507.3480979,None,,P012,fencog,1,Post,2021_Oct_15_1148,N-Back (New Version 2021),2021.1.4,120.0609913
,,,,Conditions/Version_1/threeback(1)_v1.xlsx,New rule: Press 'space' when you see 3-back (i.e. the same letter as the one that appeared 3 letters ago.),e,space,,,,,,,,,0,3,3,3,0,9,9,9,,,,,,,,,,,,,,,,,,,,,,,,,,,,,,,,,,,,,,,,,,,,,,,,,,,,,,,,,,,,,,,,,,,,,1.9152,511.2727971,None,space,1,511.2727971,None,0.4015887,P012,fencog,1,Post,2021_Oct_15_1148,N-Back (New Version 2021),2021.1.4,120.0609913
,,,,Conditions/Version_1/threeback(1)_v1.xlsx,New rule: Press 'space' when you see 3-back (i.e. the same letter as the one that appeared 3 letters ago.),,,,,,,,,,,0,3,3,3,,,,,,,,,,,,,,,,,,,,,,,,,,,,,,,,,,,,,,,,,,,,,,,,,,,,,,,,,,,,,,,,,,,,,,,,,,,,,,,,,P012,fencog,1,Post,2021_Oct_15_1148,N-Back (New Version 2021),2021.1.4,120.0609913
,,,,Conditions/Version_1/oneback(2)_v1.xlsx,New rule: Press 'space' when you see 1-back (i.e. the same letter as the one that appeared 1 letter ago.),q,None,,,,,,,,,0,4,4,4,0,0,0,0,,,,,,,,,,,,,,,,,,,,,,,,,,,,,,,,,,,,,,,,,,,,,,,,,,,,,,,,,,,513.3001692,None,516.2865756,None,space,1.8435747,516.2865756,None,513.3001692,None,1.3696,519.5261929,None,None,1,519.5261929,None,,P012,fencog,1,Post,2021_Oct_15_1148,N-Back (New Version 2021),2021.1.4,120.0609913
,,,,Conditions/Version_1/oneback(2)_v1.xlsx,New rule: Press 'space' when you see 1-back (i.e. the same letter as the one that appeared 1 letter ago.),Q,space,,,,,,,,,0,4,4,4,0,1,1,1,,,,,,,,,,,,,,,,,,,,,,,,,,,,,,,,,,,,,,,,,,,,,,,,,,,,,,,,,,,,,,,,,,,,,1.3262,522.8683014,None,space,1,522.8683014,None,0.3982121,P012,fencog,1,Post,2021_Oct_15_1148,N-Back (New Version 2021),2021.1.4,120.0609913
,,,,Conditions/Version_1/oneback(2)_v1.xlsx,New rule: Press 'space' when you see 1-back (i.e. the same letter as the one that appeared 1 letter ago.),P,None,,,,,,,,,0,4,4,4,0,2,2,2,,,,,,,,,,,,,,,,,,,,,,,,,,,,,,,,,,,,,,,,,,,,,,,,,,,,,,,,,,,,,,,,,,,,,1.2022,526.0832638,None,None,1,526.0832638,None,,P012,fencog,1,Post,2021_Oct_15_1148,N-Back (New Version 2021),2021.1.4,120.0609913
,,,,Conditions/Version_1/oneback(2)_v1.xlsx,New rule: Press 'space' when you see 1-back (i.e. the same letter as the one that appeared 1 letter ago.),o,None,,,,,,,,,0,4,4,4,0,3,3,3,,,,,,,,,,,,,,,,,,,,,,,,,,,,,,,,,,,,,,,,,,,,,,,,,,,,,,,,,,,,,,,,,,,,,1.537,529.6308376,None,None,1,529.6308376,None,,P012,fencog,1,Post,2021_Oct_15_1148,N-Back (New Version 2021),2021.1.4,120.0609913
,,,,Conditions/Version_1/oneback(2)_v1.xlsx,New rule: Press 'space' when you see 1-back (i.e. the same letter as the one that appeared 1 letter ago.),m,None,,,,,,,,,0,4,4,4,0,4,4,4,,,,,,,,,,,,,,,,,,,,,,,,,,,,,,,,,,,,,,,,,,,,,,,,,,,,,,,,,,,,,,,,,,,,,1.7664,533.3960028,None,None,1,533.3960028,None,,P012,fencog,1,Post,2021_Oct_15_1148,N-Back (New Version 2021),2021.1.4,120.0609913
,,,,Conditions/Version_1/oneback(2)_v1.xlsx,New rule: Press 'space' when you see 1-back (i.e. the same letter as the one that appeared 1 letter ago.),Z,None,,,,,,,,,0,4,4,4,0,5,5,5,,,,,,,,,,,,,,,,,,,,,,,,,,,,,,,,,,,,,,,,,,,,,,,,,,,,,,,,,,,,,,,,,,,,,1.3386,536.7385636,None,None,1,536.7385636,None,,P012,fencog,1,Post,2021_Oct_15_1148,N-Back (New Version 2021),2021.1.4,120.0609913
,,,,Conditions/Version_1/oneback(2)_v1.xlsx,New rule: Press 'space' when you see 1-back (i.e. the same letter as the one that appeared 1 letter ago.),c,None,,,,,,,,,0,4,4,4,0,6,6,6,,,,,,,,,,,,,,,,,,,,,,,,,,,,,,,,,,,,,,,,,,,,,,,,,,,,,,,,,,,,,,,,,,,,,1.1588,539.9106184,None,None,1,539.9106184,None,,P012,fencog,1,Post,2021_Oct_15_1148,N-Back (New Version 2021),2021.1.4,120.0609913
,,,,Conditions/Version_1/oneback(2)_v1.xlsx,New rule: Press 'space' when you see 1-back (i.e. the same letter as the one that appeared 1 letter ago.),c,space,,,,,,,,,0,4,4,4,0,7,7,7,,,,,,,,,,,,,,,,,,,,,,,,,,,,,,,,,,,,,,,,,,,,,,,,,,,,,,,,,,,,,,,,,,,,,1.0286,542.9429627,None,space,1,542.9429627,None,0.5243024,P012,fencog,1,Post,2021_Oct_15_1148,N-Back (New Version 2021),2021.1.4,120.0609913
,,,,Conditions/Version_1/oneback(2)_v1.xlsx,New rule: Press 'space' when you see 1-back (i.e. the same letter as the one that appeared 1 letter ago.),P,None,,,,,,,,,0,4,4,4,0,8,8,8,,,,,,,,,,,,,,,,,,,,,,,,,,,,,,,,,,,,,,,,,,,,,,,,,,,,,,,,,,,,,,,,,,,,,1.3572,546.3017725,None,None,1,546.3017725,None,,P012,fencog,1,Post,2021_Oct_15_1148,N-Back (New Version 2021),2021.1.4,120.0609913
,,,,Conditions/Version_1/oneback(2)_v1.xlsx,New rule: Press 'space' when you see 1-back (i.e. the same letter as the one that appeared 1 letter ago.),p,space,,,,,,,,,0,4,4,4,0,9,9,9,,,,,,,,,,,,,,,,,,,,,,,,,,,,,,,,,,,,,,,,,,,,,,,,,,,,,,,,,,,,,,,,,,,,,1.8408,550.1492004,None,space,1,550.1492004,None,0.3251616,P012,fencog,1,Post,2021_Oct_15_1148,N-Back (New Version 2021),2021.1.4,120.0609913
,,,,Conditions/Version_1/oneback(2)_v1.xlsx,New rule: Press 'space' when you see 1-back (i.e. the same letter as the one that appeared 1 letter ago.),,,,,,,,,,,0,4,4,4,,,,,,,,,,,,,,,,,,,,,,,,,,,,,,,,,,,,,,,,,,,,,,,,,,,,,,,,,,,,,,,,,,,,,,,,,,,,,,,,,P012,fencog,1,Post,2021_Oct_15_1148,N-Back (New Version 2021),2021.1.4,120.0609913
,,,,Conditions/Version_1/zeroback(2)_v1.xlsx,New rule: Press 'space' when you see the letter 'x' or 'X'.,p,None,,,,,,,,,0,5,5,5,0,0,0,0,,,,,,,,,,,,,,,,,,,,,,,,,,,,,,,,,,,,,,,,,,,,,,,,,,,,,,,,,,,552.1697311,None,555.158574,None,space,0.507561,555.158574,None,552.1697311,None,1.196,556.8808081,None,None,1,556.8808081,None,,P012,fencog,1,Post,2021_Oct_15_1148,N-Back (New Version 2021),2021.1.4,120.0609913
,,,,Conditions/Version_1/zeroback(2)_v1.xlsx,New rule: Press 'space' when you see the letter 'x' or 'X'.,L,None,,,,,,,,,0,5,5,5,0,1,1,1,,,,,,,,,,,,,,,,,,,,,,,,,,,,,,,,,,,,,,,,,,,,,,,,,,,,,,,,,,,,,,,,,,,,,1.5804,560.4652645,None,None,1,560.4652645,None,,P012,fencog,1,Post,2021_Oct_15_1148,N-Back (New Version 2021),2021.1.4,120.0609913
,,,,Conditions/Version_1/zeroback(2)_v1.xlsx,New rule: Press 'space' when you see the letter 'x' or 'X'.,G,None,,,,,,,,,0,5,5,5,0,2,2,2,,,,,,,,,,,,,,,,,,,,,,,,,,,,,,,,,,,,,,,,,,,,,,,,,,,,,,,,,,,,,,,,,,,,,1.0534,563.5308242,None,None,1,563.5308242,None,,P012,fencog,1,Post,2021_Oct_15_1148,N-Back (New Version 2021),2021.1.4,120.0609913
,,,,Conditions/Version_1/zeroback(2)_v1.xlsx,New rule: Press 'space' when you see the letter 'x' or 'X'.,y,None,,,,,,,,,0,5,5,5,0,3,3,3,,,,,,,,,,,,,,,,,,,,,,,,,,,,,,,,,,,,,,,,,,,,,,,,,,,,,,,,,,,,,,,,,,,,,1.3076,566.8467853,None,None,1,566.8467853,None,,P012,fencog,1,Post,2021_Oct_15_1148,N-Back (New Version 2021),2021.1.4,120.0609913
,,,,Conditions/Version_1/zeroback(2)_v1.xlsx,New rule: Press 'space' when you see the letter 'x' or 'X'.,Y,None,,,,,,,,,0,5,5,5,0,4,4,4,,,,,,,,,,,,,,,,,,,,,,,,,,,,,,,,,,,,,,,,,,,,,,,,,,,,,,,,,,,,,,,,,,,,,1.5184,570.3701719,None,None,1,570.3701719,None,,P012,fencog,1,Post,2021_Oct_15_1148,N-Back (New Version 2021),2021.1.4,120.0609913
,,,,Conditions/Version_1/zeroback(2)_v1.xlsx,New rule: Press 'space' when you see the letter 'x' or 'X'.,W,None,,,,,,,,,0,5,5,5,0,5,5,5,,,,,,,,,,,,,,,,,,,,,,,,,,,,,,,,,,,,,,,,,,,,,,,,,,,,,,,,,,,,,,,,,,,,,1.94,574.3189469,None,None,1,574.3189469,None,,P012,fencog,1,Post,2021_Oct_15_1148,N-Back (New Version 2021),2021.1.4,120.0609913
,,,,Conditions/Version_1/zeroback(2)_v1.xlsx,New rule: Press 'space' when you see the letter 'x' or 'X'.,x,space,,,,,,,,,0,5,5,5,0,6,6,6,,,,,,,,,,,,,,,,,,,,,,,,,,,,,,,,,,,,,,,,,,,,,,,,,,,,,,,,,,,,,,,,,,,,,1.506,577.834534,None,space,1,577.834534,None,0.3838001,P012,fencog,1,Post,2021_Oct_15_1148,N-Back (New Version 2021),2021.1.4,120.0609913
,,,,Conditions/Version_1/zeroback(2)_v1.xlsx,New rule: Press 'space' when you see the letter 'x' or 'X'.,X,space,,,,,,,,,0,5,5,5,0,7,7,7,,,,,,,,,,,,,,,,,,,,,,,,,,,,,,,,,,,,,,,,,,,,,,,,,,,,,,,,,,,,,,,,,,,,,1.9214,581.7670499,None,space,1,581.7670499,None,0.2913086,P012,fencog,1,Post,2021_Oct_15_1148,N-Back (New Version 2021),2021.1.4,120.0609913
,,,,Conditions/Version_1/zeroback(2)_v1.xlsx,New rule: Press 'space' when you see the letter 'x' or 'X'.,p,None,,,,,,,,,0,5,5,5,0,8,8,8,,,,,,,,,,,,,,,,,,,,,,,,,,,,,,,,,,,,,,,,,,,,,,,,,,,,,,,,,,,,,,,,,,,,,1.2394,585.015395,None,None,1,585.015395,None,,P012,fencog,1,Post,2021_Oct_15_1148,N-Back (New Version 2021),2021.1.4,120.0609913
,,,,Conditions/Version_1/zeroback(2)_v1.xlsx,New rule: Press 'space' when you see the letter 'x' or 'X'.,h,None,,,,,,,,,0,5,5,5,0,9,9,9,,,,,,,,,,,,,,,,,,,,,,,,,,,,,,,,,,,,,,,,,,,,,,,,,,,,,,,,,,,,,,,,,,,,,1.7106,588.7404079,None,None,1,588.7404079,None,,P012,fencog,1,Post,2021_Oct_15_1148,N-Back (New Version 2021),2021.1.4,120.0609913
,,,,Conditions/Version_1/zeroback(2)_v1.xlsx,New rule: Press 'space' when you see the letter 'x' or 'X'.,,,,,,,,,,,0,5,5,5,,,,,,,,,,,,,,,,,,,,,,,,,,,,,,,,,,,,,,,,,,,,,,,,,,,,,,,,,,,,,,,,,,,,,,,,,,,,,,,,,P012,fencog,1,Post,2021_Oct_15_1148,N-Back (New Version 2021),2021.1.4,120.0609913
,,,,Conditions/Version_1/threeback(2)_v1.xlsx,New rule: Press 'space' when you see 3-back (i.e. the same letter as the one that appeared 3 letters ago.),q,None,,,,,,,,,0,6,6,6,0,0,0,0,,,,,,,,,,,,,,,,,,,,,,,,,,,,,,,,,,,,,,,,,,,,,,,,,,,,,,,,,,,590.7692247,None,593.7566467,None,space,0.5575044,593.7566467,None,590.7692247,None,1.196,595.5381357,None,None,1,595.5381357,None,,P012,fencog,1,Post,2021_Oct_15_1148,N-Back (New Version 2021),2021.1.4,120.0609913
,,,,Conditions/Version_1/threeback(2)_v1.xlsx,New rule: Press 'space' when you see 3-back (i.e. the same letter as the one that appeared 3 letters ago.),Y,None,,,,,,,,,0,6,6,6,0,1,1,1,,,,,,,,,,,,,,,,,,,,,,,,,,,,,,,,,,,,,,,,,,,,,,,,,,,,,,,,,,,,,,,,,,,,,1.3944,598.95071,None,None,1,598.95071,None,,P012,fencog,1,Post,2021_Oct_15_1148,N-Back (New Version 2021),2021.1.4,120.0609913
,,,,Conditions/Version_1/threeback(2)_v1.xlsx,New rule: Press 'space' when you see 3-back (i.e. the same letter as the one that appeared 3 letters ago.),p,None,,,,,,,,,0,6,6,6,0,2,2,2,,,,,,,,,,,,,,,,,,,,,,,,,,,,,,,,,,,,,,,,,,,,,,,,,,,,,,,,,,,,,,,,,,,,,1.0906,602.0423199,None,None,1,602.0423199,None,,P012,fencog,1,Post,2021_Oct_15_1148,N-Back (New Version 2021),2021.1.4,120.0609913
,,,,Conditions/Version_1/threeback(2)_v1.xlsx,New rule: Press 'space' when you see 3-back (i.e. the same letter as the one that appeared 3 letters ago.),p,None,,,,,,,,,0,6,6,6,0,3,3,3,,,,,,,,,,,,,,,,,,,,,,,,,,,,,,,,,,,,,,,,,,,,,,,,,,,,,,,,,,,,,,,,,,,,,1.475,605.5248001,None,None,1,605.5248001,None,,P012,fencog,1,Post,2021_Oct_15_1148,N-Back (New Version 2021),2021.1.4,120.0609913
,,,,Conditions/Version_1/threeback(2)_v1.xlsx,New rule: Press 'space' when you see 3-back (i.e. the same letter as the one that appeared 3 letters ago.),y,space,,,,,,,,,0,6,6,6,0,4,4,4,,,,,,,,,,,,,,,,,,,,,,,,,,,,,,,,,,,,,,,,,,,,,,,,,,,,,,,,,,,,,,,,,,,,,1.4502,608.9821111,None,space,1,608.9821111,None,1.2047132,P012,fencog,1,Post,2021_Oct_15_1148,N-Back (New Version 2021),2021.1.4,120.0609913
,,,,Conditions/Version_1/threeback(2)_v1.xlsx,New rule: Press 'space' when you see 3-back (i.e. the same letter as the one that appeared 3 letters ago.),u,None,,,,,,,,,0,6,6,6,0,5,5,5,,,,,,,,,,,,,,,,,,,,,,,,,,,,,,,,,,,,,,,,,,,,,,,,,,,,,,,,,,,,,,,,,,,,,1.9648,612.9485905,None,None,1,612.9485905,None,,P012,fencog,1,Post,2021_Oct_15_1148,N-Back (New Version 2021),2021.1.4,120.0609913
,,,,Conditions/Version_1/threeback(2)_v1.xlsx,New rule: Press 'space' when you see 3-back (i.e. the same letter as the one that appeared 3 letters ago.),P,space,,,,,,,,,0,6,6,6,0,6,6,6,,,,,,,,,,,,,,,,,,,,,,,,,,,,,,,,,,,,,,,,,,,,,,,,,,,,,,,,,,,,,,,,,,,,,1.537,616.4892188,None,None,0,616.4892188,None,,P012,fencog,1,Post,2021_Oct_15_1148,N-Back (New Version 2021),2021.1.4,120.0609913
,,,,Conditions/Version_1/threeback(2)_v1.xlsx,New rule: Press 'space' when you see 3-back (i.e. the same letter as the one that appeared 3 letters ago.),a,None,,,,,,,,,0,6,6,6,0,7,7,7,,,,,,,,,,,,,,,,,,,,,,,,,,,,,,,,,,,,,,,,,,,,,,,,,,,,,,,,,,,,,,,,,,,,,1.2518,619.7588821,None,None,1,619.7588821,None,,P012,fencog,1,Post,2021_Oct_15_1148,N-Back (New Version 2021),2021.1.4,120.0609913
,,,,Conditions/Version_1/threeback(2)_v1.xlsx,New rule: Press 'space' when you see 3-back (i.e. the same letter as the one that appeared 3 letters ago.),U,space,,,,,,,,,0,6,6,6,0,8,8,8,,,,,,,,,,,,,,,,,,,,,,,,,,,,,,,,,,,,,,,,,,,,,,,,,,,,,,,,,,,,,,,,,,,,,1.0348,622.8058162,None,space,1,622.8058162,None,0.5083473,P012,fencog,1,Post,2021_Oct_15_1148,N-Back (New Version 2021),2021.1.4,120.0609913
,,,,Conditions/Version_1/threeback(2)_v1.xlsx,New rule: Press 'space' when you see 3-back (i.e. the same letter as the one that appeared 3 letters ago.),q,None,,,,,,,,,0,6,6,6,0,9,9,9,,,,,,,,,,,,,,,,,,,,,,,,,,,,,,,,,,,,,,,,,,,,,,,,,,,,,,,,,,,,,,,,,,,,,1.568,626.3877202,None,None,1,626.3877202,None,,P012,fencog,1,Post,2021_Oct_15_1148,N-Back (New Version 2021),2021.1.4,120.0609913
,,,,Conditions/Version_1/threeback(2)_v1.xlsx,New rule: Press 'space' when you see 3-back (i.e. the same letter as the one that appeared 3 letters ago.),,,,,,,,,,,0,6,6,6,,,,,,,,,,,,,,,,,,,,,,,,,,,,,,,,,,,,,,,,,,,,,,,,,,,,,,,,,,,,,,,,,,,,,,,,,,,,,,,,,P012,fencog,1,Post,2021_Oct_15_1148,N-Back (New Version 2021),2021.1.4,120.0609913
,,,,Conditions/Version_1/twoback(2)_v1.xlsx,New rule: Press 'space' when you see 2-back (i.e. the same letter as the one that appeared 2 letters ago.),q,None,,,,,,,,,0,7,7,7,0,0,0,0,,,,,,,,,,,,,,,,,,,,,,,,,,,,,,,,,,,,,,,,,,,,,,,,,,,,,,,,,,,628.4174583,None,631.3950723,None,space,0.3832428,631.3950723,None,628.4174583,None,1.9214,633.716542,None,None,1,633.716542,None,,P012,fencog,1,Post,2021_Oct_15_1148,N-Back (New Version 2021),2021.1.4,120.0609913
,,,,Conditions/Version_1/twoback(2)_v1.xlsx,New rule: Press 'space' when you see 2-back (i.e. the same letter as the one that appeared 2 letters ago.),r,None,,,,,,,,,0,7,7,7,0,1,1,1,,,,,,,,,,,,,,,,,,,,,,,,,,,,,,,,,,,,,,,,,,,,,,,,,,,,,,,,,,,,,,,,,,,,,1.7788,637.498613,None,None,1,637.498613,None,,P012,fencog,1,Post,2021_Oct_15_1148,N-Back (New Version 2021),2021.1.4,120.0609913
,,,,Conditions/Version_1/twoback(2)_v1.xlsx,New rule: Press 'space' when you see 2-back (i.e. the same letter as the one that appeared 2 letters ago.),q,space,,,,,,,,,0,7,7,7,0,2,2,2,,,,,,,,,,,,,,,,,,,,,,,,,,,,,,,,,,,,,,,,,,,,,,,,,,,,,,,,,,,,,,,,,,,,,1.3448,640.8478058,None,space,1,640.8478058,None,0.3706484,P012,fencog,1,Post,2021_Oct_15_1148,N-Back (New Version 2021),2021.1.4,120.0609913
,,,,Conditions/Version_1/twoback(2)_v1.xlsx,New rule: Press 'space' when you see 2-back (i.e. the same letter as the one that appeared 2 letters ago.),P,None,,,,,,,,,0,7,7,7,0,3,3,3,,,,,,,,,,,,,,,,,,,,,,,,,,,,,,,,,,,,,,,,,,,,,,,,,,,,,,,,,,,,,,,,,,,,,1.4626,644.3151688,None,None,1,644.3151688,None,,P012,fencog,1,Post,2021_Oct_15_1148,N-Back (New Version 2021),2021.1.4,120.0609913
,,,,Conditions/Version_1/twoback(2)_v1.xlsx,New rule: Press 'space' when you see 2-back (i.e. the same letter as the one that appeared 2 letters ago.),p,None,,,,,,,,,0,7,7,7,0,4,4,4,,,,,,,,,,,,,,,,,,,,,,,,,,,,,,,,,,,,,,,,,,,,,,,,,,,,,,,,,,,,,,,,,,,,,1.9772,648.3057185,None,None,1,648.3057185,None,,P012,fencog,1,Post,2021_Oct_15_1148,N-Back (New Version 2021),2021.1.4,120.0609913
,,,,Conditions/Version_1/twoback(2)_v1.xlsx,New rule: Press 'space' when you see 2-back (i.e. the same letter as the one that appeared 2 letters ago.),H,None,,,,,,,,,0,7,7,7,0,5,5,5,,,,,,,,,,,,,,,,,,,,,,,,,,,,,,,,,,,,,,,,,,,,,,,,,,,,,,,,,,,,,,,,,,,,,1.2456,651.5635826,None,None,1,651.5635826,None,,P012,fencog,1,Post,2021_Oct_15_1148,N-Back (New Version 2021),2021.1.4,120.0609913
,,,,Conditions/Version_1/twoback(2)_v1.xlsx,New rule: Press 'space' when you see 2-back (i.e. the same letter as the one that appeared 2 letters ago.),g,None,,,,,,,,,0,7,7,7,0,6,6,6,,,,,,,,,,,,,,,,,,,,,,,,,,,,,,,,,,,,,,,,,,,,,,,,,,,,,,,,,,,,,,,,,,,,,1.4812,655.0539343,None,None,1,655.0539343,None,,P012,fencog,1,Post,2021_Oct_15_1148,N-Back (New Version 2021),2021.1.4,120.0609913
,,,,Conditions/Version_1/twoback(2)_v1.xlsx,New rule: Press 'space' when you see 2-back (i.e. the same letter as the one that appeared 2 letters ago.),j,None,,,,,,,,,0,7,7,7,0,7,7,7,,,,,,,,,,,,,,,,,,,,,,,,,,,,,,,,,,,,,,,,,,,,,,,,,,,,,,,,,,,,,,,,,,,,,1.1836,658.2448061,None,None,1,658.2448061,None,,P012,fencog,1,Post,2021_Oct_15_1148,N-Back (New Version 2021),2021.1.4,120.0609913
,,,,Conditions/Version_1/twoback(2)_v1.xlsx,New rule: Press 'space' when you see 2-back (i.e. the same letter as the one that appeared 2 letters ago.),g,space,,,,,,,,,0,7,7,7,0,8,8,8,,,,,,,,,,,,,,,,,,,,,,,,,,,,,,,,,,,,,,,,,,,,,,,,,,,,,,,,,,,,,,,,,,,,,1.6858,661.9434044,None,space,1,661.9434044,None,0.5791681,P012,fencog,1,Post,2021_Oct_15_1148,N-Back (New Version 2021),2021.1.4,120.0609913
,,,,Conditions/Version_1/twoback(2)_v1.xlsx,New rule: Press 'space' when you see 2-back (i.e. the same letter as the one that appeared 2 letters ago.),G,None,,,,,,,,,0,7,7,7,0,9,9,9,,,,,,,,,,,,,,,,,,,,,,,,,,,,,,,,,,,,,,,,,,,,,,,,,,,,,,,,,,,,,,,,,,,,,1.1464,665.0987999,None,None,1,665.0987999,None,,P012,fencog,1,Post,2021_Oct_15_1148,N-Back (New Version 2021),2021.1.4,120.0609913
,,,,Conditions/Version_1/twoback(2)_v1.xlsx,New rule: Press 'space' when you see 2-back (i.e. the same letter as the one that appeared 2 letters ago.),,,,,,,,,,,0,7,7,7,,,,,,,,,,,,,,,,,,,,,,,,,,,,,,,,,,,,,,,,,,,,,,,,,,,,,,,,,,,,,,,,,,,,,,,,,,,,,,,,,P012,fencog,1,Post,2021_Oct_15_1148,N-Back (New Version 2021),2021.1.4,120.0609913
,,,,Conditions/Version_1/threeback(3)_v1.xlsx,New rule: Press 'space' when you see 3-back (i.e. the same letter as the one that appeared 3 letters ago.),w,None,,,,,,,,,0,8,8,8,0,0,0,0,,,,,,,,,,,,,,,,,,,,,,,,,,,,,,,,,,,,,,,,,,,,,,,,,,,,,,,,,,,667.1256266,None,670.1094512,None,space,1.0447251,670.1094512,None,667.1256266,None,1.0162,672.2041153,None,None,1,672.2041153,None,,P012,fencog,1,Post,2021_Oct_15_1148,N-Back (New Version 2021),2021.1.4,120.0609913
,,,,Conditions/Version_1/threeback(3)_v1.xlsx,New rule: Press 'space' when you see 3-back (i.e. the same letter as the one that appeared 3 letters ago.),p,None,,,,,,,,,0,8,8,8,0,1,1,1,,,,,,,,,,,,,,,,,,,,,,,,,,,,,,,,,,,,,,,,,,,,,,,,,,,,,,,,,,,,,,,,,,,,,1.072,675.2791867,None,None,1,675.2791867,None,,P012,fencog,1,Post,2021_Oct_15_1148,N-Back (New Version 2021),2021.1.4,120.0609913
,,,,Conditions/Version_1/threeback(3)_v1.xlsx,New rule: Press 'space' when you see 3-back (i.e. the same letter as the one that appeared 3 letters ago.),P,None,,,,,,,,,0,8,8,8,0,2,2,2,,,,,,,,,,,,,,,,,,,,,,,,,,,,,,,,,,,,,,,,,,,,,,,,,,,,,,,,,,,,,,,,,,,,,1.8842,679.1697913,None,None,1,679.1697913,None,,P012,fencog,1,Post,2021_Oct_15_1148,N-Back (New Version 2021),2021.1.4,120.0609913
,,,,Conditions/Version_1/threeback(3)_v1.xlsx,New rule: Press 'space' when you see 3-back (i.e. the same letter as the one that appeared 3 letters ago.),i,None,,,,,,,,,0,8,8,8,0,3,3,3,,,,,,,,,,,,,,,,,,,,,,,,,,,,,,,,,,,,,,,,,,,,,,,,,,,,,,,,,,,,,,,,,,,,,1.9834,683.1547724,None,None,1,683.1547724,None,,P012,fencog,1,Post,2021_Oct_15_1148,N-Back (New Version 2021),2021.1.4,120.0609913
,,,,Conditions/Version_1/threeback(3)_v1.xlsx,New rule: Press 'space' when you see 3-back (i.e. the same letter as the one that appeared 3 letters ago.),f,None,,,,,,,,,0,8,8,8,0,4,4,4,,,,,,,,,,,,,,,,,,,,,,,,,,,,,,,,,,,,,,,,,,,,,,,,,,,,,,,,,,,,,,,,,,,,,1.1836,686.3437097,None,None,1,686.3437097,None,,P012,fencog,1,Post,2021_Oct_15_1148,N-Back (New Version 2021),2021.1.4,120.0609913
,,,,Conditions/Version_1/threeback(3)_v1.xlsx,New rule: Press 'space' when you see 3-back (i.e. the same letter as the one that appeared 3 letters ago.),o,None,,,,,,,,,0,8,8,8,0,5,5,5,,,,,,,,,,,,,,,,,,,,,,,,,,,,,,,,,,,,,,,,,,,,,,,,,,,,,,,,,,,,,,,,,,,,,1.4564,689.8101407,None,None,1,689.8101407,None,,P012,fencog,1,Post,2021_Oct_15_1148,N-Back (New Version 2021),2021.1.4,120.0609913
,,,,Conditions/Version_1/threeback(3)_v1.xlsx,New rule: Press 'space' when you see 3-back (i.e. the same letter as the one that appeared 3 letters ago.),w,None,,,,,,,,,0,8,8,8,0,6,6,6,,,,,,,,,,,,,,,,,,,,,,,,,,,,,,,,,,,,,,,,,,,,,,,,,,,,,,,,,,,,,,,,,,,,,1.0782,692.9025474,None,None,1,692.9025474,None,,P012,fencog,1,Post,2021_Oct_15_1148,N-Back (New Version 2021),2021.1.4,120.0609913
,,,,Conditions/Version_1/threeback(3)_v1.xlsx,New rule: Press 'space' when you see 3-back (i.e. the same letter as the one that appeared 3 letters ago.),F,space,,,,,,,,,0,8,8,8,0,7,7,7,,,,,,,,,,,,,,,,,,,,,,,,,,,,,,,,,,,,,,,,,,,,,,,,,,,,,,,,,,,,,,,,,,,,,1.1774,696.0897484,None,space,1,696.0897484,None,0.5927066,P012,fencog,1,Post,2021_Oct_15_1148,N-Back (New Version 2021),2021.1.4,120.0609913
,,,,Conditions/Version_1/threeback(3)_v1.xlsx,New rule: Press 'space' when you see 3-back (i.e. the same letter as the one that appeared 3 letters ago.),p,None,,,,,,,,,0,8,8,8,0,8,8,8,,,,,,,,,,,,,,,,,,,,,,,,,,,,,,,,,,,,,,,,,,,,,,,,,,,,,,,,,,,,,,,,,,,,,1.196,699.290089,None,None,1,699.290089,None,,P012,fencog,1,Post,2021_Oct_15_1148,N-Back (New Version 2021),2021.1.4,120.0609913
,,,,Conditions/Version_1/threeback(3)_v1.xlsx,New rule: Press 'space' when you see 3-back (i.e. the same letter as the one that appeared 3 letters ago.),W,space,,,,,,,,,0,8,8,8,0,9,9,9,,,,,,,,,,,,,,,,,,,,,,,,,,,,,,,,,,,,,,,,,,,,,,,,,,,,,,,,,,,,,,,,,,,,,1.3262,702.6294692,None,space,1,702.6294692,None,1.1329776,P012,fencog,1,Post,2021_Oct_15_1148,N-Back (New Version 2021),2021.1.4,120.0609913
,,,,Conditions/Version_1/threeback(3)_v1.xlsx,New rule: Press 'space' when you see 3-back (i.e. the same letter as the one that appeared 3 letters ago.),,,,,,,,,,,0,8,8,8,,,,,,,,,,,,,,,,,,,,,,,,,,,,,,,,,,,,,,,,,,,,,,,,,,,,,,,,,,,,,,,,,,,,,,,,,,,,,,,,,P012,fencog,1,Post,2021_Oct_15_1148,N-Back (New Version 2021),2021.1.4,120.0609913
,,,,Conditions/Version_1/zeroback(3)_v1.xlsx,New rule: Press 'space' when you see the letter 'x' or 'X'.,X,space,,,,,,,,,0,9,9,9,0,0,0,0,,,,,,,,,,,,,,,,,,,,,,,,,,,,,,,,,,,,,,,,,,,,,,,,,,,,,,,,,,,704.6496309,None,707.6381618,None,space,0.4684736,707.6381618,None,704.6496309,None,1.6858,709.8203208,None,space,1,709.8203208,None,0.4539121,P012,fencog,1,Post,2021_Oct_15_1148,N-Back (New Version 2021),2021.1.4,120.0609913
,,,,Conditions/Version_1/zeroback(3)_v1.xlsx,New rule: Press 'space' when you see the letter 'x' or 'X'.,B,None,,,,,,,,,0,9,9,9,0,1,1,1,,,,,,,,,,,,,,,,,,,,,,,,,,,,,,,,,,,,,,,,,,,,,,,,,,,,,,,,,,,,,,,,,,,,,1.4998,713.3291016,None,None,1,713.3291016,None,,P012,fencog,1,Post,2021_Oct_15_1148,N-Back (New Version 2021),2021.1.4,120.0609913
,,,,Conditions/Version_1/zeroback(3)_v1.xlsx,New rule: Press 'space' when you see the letter 'x' or 'X'.,m,None,,,,,,,,,0,9,9,9,0,2,2,2,,,,,,,,,,,,,,,,,,,,,,,,,,,,,,,,,,,,,,,,,,,,,,,,,,,,,,,,,,,,,,,,,,,,,1.475,716.8090255,None,None,1,716.8090255,None,,P012,fencog,1,Post,2021_Oct_15_1148,N-Back (New Version 2021),2021.1.4,120.0609913
,,,,Conditions/Version_1/zeroback(3)_v1.xlsx,New rule: Press 'space' when you see the letter 'x' or 'X'.,m,None,,,,,,,,,0,9,9,9,0,3,3,3,,,,,,,,,,,,,,,,,,,,,,,,,,,,,,,,,,,,,,,,,,,,,,,,,,,,,,,,,,,,,,,,,,,,,1.971,720.7826736,None,None,1,720.7826736,None,,P012,fencog,1,Post,2021_Oct_15_1148,N-Back (New Version 2021),2021.1.4,120.0609913
,,,,Conditions/Version_1/zeroback(3)_v1.xlsx,New rule: Press 'space' when you see the letter 'x' or 'X'.,o,None,,,,,,,,,0,9,9,9,0,4,4,4,,,,,,,,,,,,,,,,,,,,,,,,,,,,,,,,,,,,,,,,,,,,,,,,,,,,,,,,,,,,,,,,,,,,,1.2332,724.0160034,None,None,1,724.0160034,None,,P012,fencog,1,Post,2021_Oct_15_1148,N-Back (New Version 2021),2021.1.4,120.0609913
,,,,Conditions/Version_1/zeroback(3)_v1.xlsx,New rule: Press 'space' when you see the letter 'x' or 'X'.,p,None,,,,,,,,,0,9,9,9,0,5,5,5,,,,,,,,,,,,,,,,,,,,,,,,,,,,,,,,,,,,,,,,,,,,,,,,,,,,,,,,,,,,,,,,,,,,,1.0782,727.1059906,None,None,1,727.1059906,None,,P012,fencog,1,Post,2021_Oct_15_1148,N-Back (New Version 2021),2021.1.4,120.0609913
,,,,Conditions/Version_1/zeroback(3)_v1.xlsx,New rule: Press 'space' when you see the letter 'x' or 'X'.,G,None,,,,,,,,,0,9,9,9,0,6,6,6,,,,,,,,,,,,,,,,,,,,,,,,,,,,,,,,,,,,,,,,,,,,,,,,,,,,,,,,,,,,,,,,,,,,,1.4812,730.5899474,None,None,1,730.5899474,None,,P012,fencog,1,Post,2021_Oct_15_1148,N-Back (New Version 2021),2021.1.4,120.0609913
,,,,Conditions/Version_1/zeroback(3)_v1.xlsx,New rule: Press 'space' when you see the letter 'x' or 'X'.,X,space,,,,,,,,,0,9,9,9,0,7,7,7,,,,,,,,,,,,,,,,,,,,,,,,,,,,,,,,,,,,,,,,,,,,,,,,,,,,,,,,,,,,,,,,,,,,,1.5494,734.1461703,None,space,1,734.1461703,None,0.424652,P012,fencog,1,Post,2021_Oct_15_1148,N-Back (New Version 2021),2021.1.4,120.0609913
,,,,Conditions/Version_1/zeroback(3)_v1.xlsx,New rule: Press 'space' when you see the letter 'x' or 'X'.,p,None,,,,,,,,,0,9,9,9,0,8,8,8,,,,,,,,,,,,,,,,,,,,,,,,,,,,,,,,,,,,,,,,,,,,,,,,,,,,,,,,,,,,,,,,,,,,,1.2828,737.4359397,None,None,1,737.4359397,None,,P012,fencog,1,Post,2021_Oct_15_1148,N-Back (New Version 2021),2021.1.4,120.0609913
,,,,Conditions/Version_1/zeroback(3)_v1.xlsx,New rule: Press 'space' when you see the letter 'x' or 'X'.,x,space,,,,,,,,,0,9,9,9,0,9,9,9,,,,,,,,,,,,,,,,,,,,,,,,,,,,,,,,,,,,,,,,,,,,,,,,,,,,,,,,,,,,,,,,,,,,,1.9648,741.401369,None,space,1,741.401369,None,0.3450689,P012,fencog,1,Post,2021_Oct_15_1148,N-Back (New Version 2021),2021.1.4,120.0609913
,,,,Conditions/Version_1/zeroback(3)_v1.xlsx,New rule: Press 'space' when you see the letter 'x' or 'X'.,,,,,,,,,,,0,9,9,9,,,,,,,,,,,,,,,,,,,,,,,,,,,,,,,,,,,,,,,,,,,,,,,,,,,,,,,,,,,,,,,,,,,,,,,,,,,,,,,,,P012,fencog,1,Post,2021_Oct_15_1148,N-Back (New Version 2021),2021.1.4,120.0609913
,,,,Conditions/Version_1/twoback(3)_v1.xlsx,New rule: Press 'space' when you see 2-back (i.e. the same letter as the one that appeared 2 letters ago.),e,None,,,,,,,,,0,10,10,10,0,0,0,0,,,,,,,,,,,,,,,,,,,,,,,,,,,,,,,,,,,,,,,,,,,,,,,,,,,,,,,,,,,743.4414598,None,746.4270758,None,space,0.8074048,746.4270758,None,743.4414598,None,1.6982,748.9769026,None,None,1,748.9769026,None,,P012,fencog,1,Post,2021_Oct_15_1148,N-Back (New Version 2021),2021.1.4,120.0609913
,,,,Conditions/Version_1/twoback(3)_v1.xlsx,New rule: Press 'space' when you see 2-back (i.e. the same letter as the one that appeared 2 letters ago.),o,None,,,,,,,,,0,10,10,10,0,1,1,1,,,,,,,,,,,,,,,,,,,,,,,,,,,,,,,,,,,,,,,,,,,,,,,,,,,,,,,,,,,,,,,,,,,,,1.5804,752.5647455,None,None,1,752.5647455,None,,P012,fencog,1,Post,2021_Oct_15_1148,N-Back (New Version 2021),2021.1.4,120.0609913
,,,,Conditions/Version_1/twoback(3)_v1.xlsx,New rule: Press 'space' when you see 2-back (i.e. the same letter as the one that appeared 2 letters ago.),P,None,,,,,,,,,0,10,10,10,0,2,2,2,,,,,,,,,,,,,,,,,,,,,,,,,,,,,,,,,,,,,,,,,,,,,,,,,,,,,,,,,,,,,,,,,,,,,1.258,755.8229947,None,None,1,755.8229947,None,,P012,fencog,1,Post,2021_Oct_15_1148,N-Back (New Version 2021),2021.1.4,120.0609913
,,,,Conditions/Version_1/twoback(3)_v1.xlsx,New rule: Press 'space' when you see 2-back (i.e. the same letter as the one that appeared 2 letters ago.),z,None,,,,,,,,,0,10,10,10,0,3,3,3,,,,,,,,,,,,,,,,,,,,,,,,,,,,,,,,,,,,,,,,,,,,,,,,,,,,,,,,,,,,,,,,,,,,,1.7912,759.6236567,None,None,1,759.6236567,None,,P012,fencog,1,Post,2021_Oct_15_1148,N-Back (New Version 2021),2021.1.4,120.0609913
,,,,Conditions/Version_1/twoback(3)_v1.xlsx,New rule: Press 'space' when you see 2-back (i.e. the same letter as the one that appeared 2 letters ago.),X,None,,,,,,,,,0,10,10,10,0,4,4,4,,,,,,,,,,,,,,,,,,,,,,,,,,,,,,,,,,,,,,,,,,,,,,,,,,,,,,,,,,,,,,,,,,,,,1.6176,763.2547383,None,space,0,763.2547383,None,0.5640097,P012,fencog,1,Post,2021_Oct_15_1148,N-Back (New Version 2021),2021.1.4,120.0609913
,,,,Conditions/Version_1/twoback(3)_v1.xlsx,New rule: Press 'space' when you see 2-back (i.e. the same letter as the one that appeared 2 letters ago.),z,space,,,,,,,,,0,10,10,10,0,5,5,5,,,,,,,,,,,,,,,,,,,,,,,,,,,,,,,,,,,,,,,,,,,,,,,,,,,,,,,,,,,,,,,,,,,,,1.4068,766.6717166,None,None,0,766.6717166,None,,P012,fencog,1,Post,2021_Oct_15_1148,N-Back (New Version 2021),2021.1.4,120.0609913
,,,,Conditions/Version_1/twoback(3)_v1.xlsx,New rule: Press 'space' when you see 2-back (i.e. the same letter as the one that appeared 2 letters ago.),x,space,,,,,,,,,0,10,10,10,0,6,6,6,,,,,,,,,,,,,,,,,,,,,,,,,,,,,,,,,,,,,,,,,,,,,,,,,,,,,,,,,,,,,,,,,,,,,1.785,770.4699788,None,space,1,770.4699788,None,0.3883252,P012,fencog,1,Post,2021_Oct_15_1148,N-Back (New Version 2021),2021.1.4,120.0609913
,,,,Conditions/Version_1/twoback(3)_v1.xlsx,New rule: Press 'space' when you see 2-back (i.e. the same letter as the one that appeared 2 letters ago.),c,None,,,,,,,,,0,10,10,10,0,7,7,7,,,,,,,,,,,,,,,,,,,,,,,,,,,,,,,,,,,,,,,,,,,,,,,,,,,,,,,,,,,,,,,,,,,,,1.2642,773.743813,None,None,1,773.743813,None,,P012,fencog,1,Post,2021_Oct_15_1148,N-Back (New Version 2021),2021.1.4,120.0609913
,,,,Conditions/Version_1/twoback(3)_v1.xlsx,New rule: Press 'space' when you see 2-back (i.e. the same letter as the one that appeared 2 letters ago.),i,None,,,,,,,,,0,10,10,10,0,8,8,8,,,,,,,,,,,,,,,,,,,,,,,,,,,,,,,,,,,,,,,,,,,,,,,,,,,,,,,,,,,,,,,,,,,,,1.7664,777.5245574,None,None,1,777.5245574,None,,P012,fencog,1,Post,2021_Oct_15_1148,N-Back (New Version 2021),2021.1.4,120.0609913
,,,,Conditions/Version_1/twoback(3)_v1.xlsx,New rule: Press 'space' when you see 2-back (i.e. the same letter as the one that appeared 2 letters ago.),C,space,,,,,,,,,0,10,10,10,0,9,9,9,,,,,,,,,,,,,,,,,,,,,,,,,,,,,,,,,,,,,,,,,,,,,,,,,,,,,,,,,,,,,,,,,,,,,1.5866,781.114681,None,None,0,781.114681,None,,P012,fencog,1,Post,2021_Oct_15_1148,N-Back (New Version 2021),2021.1.4,120.0609913
,,,,Conditions/Version_1/twoback(3)_v1.xlsx,New rule: Press 'space' when you see 2-back (i.e. the same letter as the one that appeared 2 letters ago.),,,,,,,,,,,0,10,10,10,,,,,,,,,,,,,,,,,,,,,,,,,,,,,,,,,,,,,,,,,,,,,,,,,,,,,,,,,,,,,,,,,,,,,,,,,,,,,,,,,P012,fencog,1,Post,2021_Oct_15_1148,N-Back (New Version 2021),2021.1.4,120.0609913
,,,,Conditions/Version_1/oneback(3)_v1.xlsx,New rule: Press 'space' when you see 1-back (i.e. the same letter as the one that appeared 1 letter ago.),o,None,,,,,,,,,0,11,11,11,0,0,0,0,,,,,,,,,,,,,,,,,,,,,,,,,,,,,,,,,,,,,,,,,,,,,,,,,,,,,,,,,,,783.1369523,None,786.1229722,None,space,1.8315586,786.1229722,None,783.1369523,None,1.5184,789.4963416,None,None,1,789.4963416,None,,P012,fencog,1,Post,2021_Oct_15_1148,N-Back (New Version 2021),2021.1.4,120.0609913
,,,,Conditions/Version_1/oneback(3)_v1.xlsx,New rule: Press 'space' when you see 1-back (i.e. the same letter as the one that appeared 1 letter ago.),O,space,,,,,,,,,0,11,11,11,0,1,1,1,,,,,,,,,,,,,,,,,,,,,,,,,,,,,,,,,,,,,,,,,,,,,,,,,,,,,,,,,,,,,,,,,,,,,1.2394,792.7461737,None,space,1,792.7461737,None,0.3444595,P012,fencog,1,Post,2021_Oct_15_1148,N-Back (New Version 2021),2021.1.4,120.0609913
,,,,Conditions/Version_1/oneback(3)_v1.xlsx,New rule: Press 'space' when you see 1-back (i.e. the same letter as the one that appeared 1 letter ago.),h,None,,,,,,,,,0,11,11,11,0,2,2,2,,,,,,,,,,,,,,,,,,,,,,,,,,,,,,,,,,,,,,,,,,,,,,,,,,,,,,,,,,,,,,,,,,,,,1.2952,796.053035,None,None,1,796.053035,None,,P012,fencog,1,Post,2021_Oct_15_1148,N-Back (New Version 2021),2021.1.4,120.0609913
,,,,Conditions/Version_1/oneback(3)_v1.xlsx,New rule: Press 'space' when you see 1-back (i.e. the same letter as the one that appeared 1 letter ago.),g,None,,,,,,,,,0,11,11,11,0,3,3,3,,,,,,,,,,,,,,,,,,,,,,,,,,,,,,,,,,,,,,,,,,,,,,,,,,,,,,,,,,,,,,,,,,,,,1.9958,800.0659808,None,None,1,800.0659808,None,,P012,fencog,1,Post,2021_Oct_15_1148,N-Back (New Version 2021),2021.1.4,120.0609913
,,,,Conditions/Version_1/oneback(3)_v1.xlsx,New rule: Press 'space' when you see 1-back (i.e. the same letter as the one that appeared 1 letter ago.),n,None,,,,,,,,,0,11,11,11,0,4,4,4,,,,,,,,,,,,,,,,,,,,,,,,,,,,,,,,,,,,,,,,,,,,,,,,,,,,,,,,,,,,,,,,,,,,,1.8408,803.9085609,None,None,1,803.9085609,None,,P012,fencog,1,Post,2021_Oct_15_1148,N-Back (New Version 2021),2021.1.4,120.0609913
,,,,Conditions/Version_1/oneback(3)_v1.xlsx,New rule: Press 'space' when you see 1-back (i.e. the same letter as the one that appeared 1 letter ago.),z,None,,,,,,,,,0,11,11,11,0,5,5,5,,,,,,,,,,,,,,,,,,,,,,,,,,,,,,,,,,,,,,,,,,,,,,,,,,,,,,,,,,,,,,,,,,,,,1.5928,807.5166361,None,None,1,807.5166361,None,,P012,fencog,1,Post,2021_Oct_15_1148,N-Back (New Version 2021),2021.1.4,120.0609913
,,,,Conditions/Version_1/oneback(3)_v1.xlsx,New rule: Press 'space' when you see 1-back (i.e. the same letter as the one that appeared 1 letter ago.),X,None,,,,,,,,,0,11,11,11,0,6,6,6,,,,,,,,,,,,,,,,,,,,,,,,,,,,,,,,,,,,,,,,,,,,,,,,,,,,,,,,,,,,,,,,,,,,,1.9586,811.4826229,None,None,1,811.4826229,None,,P012,fencog,1,Post,2021_Oct_15_1148,N-Back (New Version 2021),2021.1.4,120.0609913
,,,,Conditions/Version_1/oneback(3)_v1.xlsx,New rule: Press 'space' when you see 1-back (i.e. the same letter as the one that appeared 1 letter ago.),r,None,,,,,,,,,0,11,11,11,0,7,7,7,,,,,,,,,,,,,,,,,,,,,,,,,,,,,,,,,,,,,,,,,,,,,,,,,,,,,,,,,,,,,,,,,,,,,1.785,815.2803646,None,None,1,815.2803646,None,,P012,fencog,1,Post,2021_Oct_15_1148,N-Back (New Version 2021),2021.1.4,120.0609913
,,,,Conditions/Version_1/oneback(3)_v1.xlsx,New rule: Press 'space' when you see 1-back (i.e. the same letter as the one that appeared 1 letter ago.),r,space,,,,,,,,,0,11,11,11,0,8,8,8,,,,,,,,,,,,,,,,,,,,,,,,,,,,,,,,,,,,,,,,,,,,,,,,,,,,,,,,,,,,,,,,,,,,,1.2518,818.545145,None,space,1,818.545145,None,0.8652757,P012,fencog,1,Post,2021_Oct_15_1148,N-Back (New Version 2021),2021.1.4,120.0609913
,,,,Conditions/Version_1/oneback(3)_v1.xlsx,New rule: Press 'space' when you see 1-back (i.e. the same letter as the one that appeared 1 letter ago.),P,None,,,,,,,,,0,11,11,11,0,9,9,9,,,,,,,,,,,,,,,,,,,,,,,,,,,,,,,,,,,,,,,,,,,,,,,,,,,,,,,,,,,,,,,,,,,,,1.0286,821.5798455,None,None,1,821.5798455,None,,P012,fencog,1,Post,2021_Oct_15_1148,N-Back (New Version 2021),2021.1.4,120.0609913
,,,,Conditions/Version_1/oneback(3)_v1.xlsx,New rule: Press 'space' when you see 1-back (i.e. the same letter as the one that appeared 1 letter ago.),,,,,,,,,,,0,11,11,11,,,,,,,,,,,,,,,,,,,,,,,,,,,,,,,,,,,,,,,,,,,,,,,,,,,,,,,,,,,,,,,,,,,,,,,,,,,,,,,,,P012,fencog,1,Post,2021_Oct_15_1148,N-Back (New Version 2021),2021.1.4,120.0609913
,,,,Conditions/Version_1/twoback(4)_v1.xlsx,New rule: Press 'space' when you see 2-back (i.e. the same letter as the one that appeared 2 letters ago.),r,None,,,,,,,,,0,12,12,12,0,0,0,0,,,,,,,,,,,,,,,,,,,,,,,,,,,,,,,,,,,,,,,,,,,,,,,,,,,,,,,,,,,823.6075102,None,826.5958584,None,space,0.3185489,826.5958584,None,823.6075102,None,1.754,828.692385,None,None,1,828.692385,None,,P012,fencog,1,Post,2021_Oct_15_1148,N-Back (New Version 2021),2021.1.4,120.0609913
,,,,Conditions/Version_1/twoback(4)_v1.xlsx,New rule: Press 'space' when you see 2-back (i.e. the same letter as the one that appeared 2 letters ago.),T,None,,,,,,,,,0,12,12,12,0,1,1,1,,,,,,,,,,,,,,,,,,,,,,,,,,,,,,,,,,,,,,,,,,,,,,,,,,,,,,,,,,,,,,,,,,,,,1.413,832.1091874,None,None,1,832.1091874,None,,P012,fencog,1,Post,2021_Oct_15_1148,N-Back (New Version 2021),2021.1.4,120.0609913
,,,,Conditions/Version_1/twoback(4)_v1.xlsx,New rule: Press 'space' when you see 2-back (i.e. the same letter as the one that appeared 2 letters ago.),o,None,,,,,,,,,0,12,12,12,0,2,2,2,,,,,,,,,,,,,,,,,,,,,,,,,,,,,,,,,,,,,,,,,,,,,,,,,,,,,,,,,,,,,,,,,,,,,1.2642,835.3832913,None,None,1,835.3832913,None,,P012,fencog,1,Post,2021_Oct_15_1148,N-Back (New Version 2021),2021.1.4,120.0609913
,,,,Conditions/Version_1/twoback(4)_v1.xlsx,New rule: Press 'space' when you see 2-back (i.e. the same letter as the one that appeared 2 letters ago.),p,None,,,,,,,,,0,12,12,12,0,3,3,3,,,,,,,,,,,,,,,,,,,,,,,,,,,,,,,,,,,,,,,,,,,,,,,,,,,,,,,,,,,,,,,,,,,,,1.8408,839.2313611,None,None,1,839.2313611,None,,P012,fencog,1,Post,2021_Oct_15_1148,N-Back (New Version 2021),2021.1.4,120.0609913
,,,,Conditions/Version_1/twoback(4)_v1.xlsx,New rule: Press 'space' when you see 2-back (i.e. the same letter as the one that appeared 2 letters ago.),p,None,,,,,,,,,0,12,12,12,0,4,4,4,,,,,,,,,,,,,,,,,,,,,,,,,,,,,,,,,,,,,,,,,,,,,,,,,,,,,,,,,,,,,,,,,,,,,1.9462,843.1878927,None,None,1,843.1878927,None,,P012,fencog,1,Post,2021_Oct_15_1148,N-Back (New Version 2021),2021.1.4,120.0609913
,,,,Conditions/Version_1/twoback(4)_v1.xlsx,New rule: Press 'space' when you see 2-back (i.e. the same letter as the one that appeared 2 letters ago.),y,None,,,,,,,,,0,12,12,12,0,5,5,5,,,,,,,,,,,,,,,,,,,,,,,,,,,,,,,,,,,,,,,,,,,,,,,,,,,,,,,,,,,,,,,,,,,,,1.1898,846.378797,None,None,1,846.378797,None,,P012,fencog,1,Post,2021_Oct_15_1148,N-Back (New Version 2021),2021.1.4,120.0609913
,,,,Conditions/Version_1/twoback(4)_v1.xlsx,New rule: Press 'space' when you see 2-back (i.e. the same letter as the one that appeared 2 letters ago.),P,space,,,,,,,,,0,12,12,12,0,6,6,6,,,,,,,,,,,,,,,,,,,,,,,,,,,,,,,,,,,,,,,,,,,,,,,,,,,,,,,,,,,,,,,,,,,,,1.3944,849.7782638,None,space,1,849.7782638,None,0.3688029,P012,fencog,1,Post,2021_Oct_15_1148,N-Back (New Version 2021),2021.1.4,120.0609913
,,,,Conditions/Version_1/twoback(4)_v1.xlsx,New rule: Press 'space' when you see 2-back (i.e. the same letter as the one that appeared 2 letters ago.),y,None,,,,,,,,,0,12,12,12,0,7,7,7,,,,,,,,,,,,,,,,,,,,,,,,,,,,,,,,,,,,,,,,,,,,,,,,,,,,,,,,,,,,,,,,,,,,,1.7292,853.5196692,None,space,0,853.5196692,None,0.5228503,P012,fencog,1,Post,2021_Oct_15_1148,N-Back (New Version 2021),2021.1.4,120.0609913
,,,,Conditions/Version_1/twoback(4)_v1.xlsx,New rule: Press 'space' when you see 2-back (i.e. the same letter as the one that appeared 2 letters ago.),y,space,,,,,,,,,0,12,12,12,0,8,8,8,,,,,,,,,,,,,,,,,,,,,,,,,,,,,,,,,,,,,,,,,,,,,,,,,,,,,,,,,,,,,,,,,,,,,1.3262,856.8591301,None,None,0,856.8591301,None,,P012,fencog,1,Post,2021_Oct_15_1148,N-Back (New Version 2021),2021.1.4,120.0609913
,,,,Conditions/Version_1/twoback(4)_v1.xlsx,New rule: Press 'space' when you see 2-back (i.e. the same letter as the one that appeared 2 letters ago.),,,,,,,,,,,0,12,12,12,,,,,,,,,,,,,,,,,,,,,,,,,,,,,,,,,,,,,,,,,,,,,,,,,,,,,,,,,,,,,,,,,,,,,,,,,,,,,,,,,P012,fencog,1,Post,2021_Oct_15_1148,N-Back (New Version 2021),2021.1.4,120.0609913
,,,,Conditions/Version_1/zeroback(4)_v1.xlsx,New rule: Press 'space' when you see the letter 'x' or 'X'.,o,None,,,,,,,,,0,13,13,13,0,0,0,0,,,,,,,,,,,,,,,,,,,,,,,,,,,,,,,,,,,,,,,,,,,,,,,,,,,,,,,,,,,858.9136162,None,861.9016573,None,space,1.7086207,861.9016573,None,858.9136162,None,1.816,865.4509746,None,None,1,865.4509746,None,,P012,fencog,1,Post,2021_Oct_15_1148,N-Back (New Version 2021),2021.1.4,120.0609913
,,,,Conditions/Version_1/zeroback(4)_v1.xlsx,New rule: Press 'space' when you see the letter 'x' or 'X'.,X,space,,,,,,,,,0,13,13,13,0,1,1,1,,,,,,,,,,,,,,,,,,,,,,,,,,,,,,,,,,,,,,,,,,,,,,,,,,,,,,,,,,,,,,,,,,,,,1.103,868.5661175,None,space,1,868.5661175,None,0.5243816,P012,fencog,1,Post,2021_Oct_15_1148,N-Back (New Version 2021),2021.1.4,120.0609913
,,,,Conditions/Version_1/zeroback(4)_v1.xlsx,New rule: Press 'space' when you see the letter 'x' or 'X'.,p,None,,,,,,,,,0,13,13,13,0,2,2,2,,,,,,,,,,,,,,,,,,,,,,,,,,,,,,,,,,,,,,,,,,,,,,,,,,,,,,,,,,,,,,,,,,,,,1.475,872.0476158,None,None,1,872.0476158,None,,P012,fencog,1,Post,2021_Oct_15_1148,N-Back (New Version 2021),2021.1.4,120.0609913
,,,,Conditions/Version_1/zeroback(4)_v1.xlsx,New rule: Press 'space' when you see the letter 'x' or 'X'.,m,None,,,,,,,,,0,13,13,13,0,3,3,3,,,,,,,,,,,,,,,,,,,,,,,,,,,,,,,,,,,,,,,,,,,,,,,,,,,,,,,,,,,,,,,,,,,,,1.2828,875.3391771,None,None,1,875.3391771,None,,P012,fencog,1,Post,2021_Oct_15_1148,N-Back (New Version 2021),2021.1.4,120.0609913
,,,,Conditions/Version_1/zeroback(4)_v1.xlsx,New rule: Press 'space' when you see the letter 'x' or 'X'.,n,None,,,,,,,,,0,13,13,13,0,4,4,4,,,,,,,,,,,,,,,,,,,,,,,,,,,,,,,,,,,,,,,,,,,,,,,,,,,,,,,,,,,,,,,,,,,,,1.3386,878.6879601,None,None,1,878.6879601,None,,P012,fencog,1,Post,2021_Oct_15_1148,N-Back (New Version 2021),2021.1.4,120.0609913
,,,,Conditions/Version_1/zeroback(4)_v1.xlsx,New rule: Press 'space' when you see the letter 'x' or 'X'.,m,None,,,,,,,,,0,13,13,13,0,5,5,5,,,,,,,,,,,,,,,,,,,,,,,,,,,,,,,,,,,,,,,,,,,,,,,,,,,,,,,,,,,,,,,,,,,,,1.7044,882.4015977,None,None,1,882.4015977,None,,P012,fencog,1,Post,2021_Oct_15_1148,N-Back (New Version 2021),2021.1.4,120.0609913
,,,,Conditions/Version_1/zeroback(4)_v1.xlsx,New rule: Press 'space' when you see the letter 'x' or 'X'.,C,None,,,,,,,,,0,13,13,13,0,6,6,6,,,,,,,,,,,,,,,,,,,,,,,,,,,,,,,,,,,,,,,,,,,,,,,,,,,,,,,,,,,,,,,,,,,,,1.7354,886.1429354,None,None,1,886.1429354,None,,P012,fencog,1,Post,2021_Oct_15_1148,N-Back (New Version 2021),2021.1.4,120.0609913
,,,,Conditions/Version_1/zeroback(4)_v1.xlsx,New rule: Press 'space' when you see the letter 'x' or 'X'.,m,None,,,,,,,,,0,13,13,13,0,7,7,7,,,,,,,,,,,,,,,,,,,,,,,,,,,,,,,,,,,,,,,,,,,,,,,,,,,,,,,,,,,,,,,,,,,,,1.6362,889.7911746,None,None,1,889.7911746,None,,P012,fencog,1,Post,2021_Oct_15_1148,N-Back (New Version 2021),2021.1.4,120.0609913
,,,,Conditions/Version_1/zeroback(4)_v1.xlsx,New rule: Press 'space' when you see the letter 'x' or 'X'.,p,None,,,,,,,,,0,13,13,13,0,8,8,8,,,,,,,,,,,,,,,,,,,,,,,,,,,,,,,,,,,,,,,,,,,,,,,,,,,,,,,,,,,,,,,,,,,,,1.4564,893.2484888,None,None,1,893.2484888,None,,P012,fencog,1,Post,2021_Oct_15_1148,N-Back (New Version 2021),2021.1.4,120.0609913
,,,,Conditions/Version_1/zeroback(4)_v1.xlsx,New rule: Press 'space' when you see the letter 'x' or 'X'.,X,space,,,,,,,,,0,13,13,13,0,9,9,9,,,,,,,,,,,,,,,,,,,,,,,,,,,,,,,,,,,,,,,,,,,,,,,,,,,,,,,,,,,,,,,,,,,,,1.0844,896.34166,None,space,1,896.34166,None,0.4210395,P012,fencog,1,Post,2021_Oct_15_1148,N-Back (New Version 2021),2021.1.4,120.0609913
,,,,Conditions/Version_1/zeroback(4)_v1.xlsx,New rule: Press 'space' when you see the letter 'x' or 'X'.,,,,,,,,,,,0,13,13,13,,,,,,,,,,,,,,,,,,,,,,,,,,,,,,,,,,,,,,,,,,,,,,,,,,,,,,,,,,,,,,,,,,,,,,,,,,,,,,,,,P012,fencog,1,Post,2021_Oct_15_1148,N-Back (New Version 2021),2021.1.4,120.0609913
,,,,Conditions/Version_1/oneback(4)_v1.xlsx,New rule: Press 'space' when you see 1-back (i.e. the same letter as the one that appeared 1 letter ago.),w,None,,,,,,,,,0,14,14,14,0,0,0,0,,,,,,,,,,,,,,,,,,,,,,,,,,,,,,,,,,,,,,,,,,,,,,,,,,,,,,,,,,,898.3681719,None,901.3567582,None,space,0.5498175,901.3567582,None,898.3681719,None,1.5432,903.4785436,None,None,1,903.4785436,None,,P012,fencog,1,Post,2021_Oct_15_1148,N-Back (New Version 2021),2021.1.4,120.0609913
,,,,Conditions/Version_1/oneback(4)_v1.xlsx,New rule: Press 'space' when you see 1-back (i.e. the same letter as the one that appeared 1 letter ago.),q,None,,,,,,,,,0,14,14,14,0,1,1,1,,,,,,,,,,,,,,,,,,,,,,,,,,,,,,,,,,,,,,,,,,,,,,,,,,,,,,,,,,,,,,,,,,,,,1.599,907.0839449,None,None,1,907.0839449,None,,P012,fencog,1,Post,2021_Oct_15_1148,N-Back (New Version 2021),2021.1.4,120.0609913
,,,,Conditions/Version_1/oneback(4)_v1.xlsx,New rule: Press 'space' when you see 1-back (i.e. the same letter as the one that appeared 1 letter ago.),i,None,,,,,,,,,0,14,14,14,0,2,2,2,,,,,,,,,,,,,,,,,,,,,,,,,,,,,,,,,,,,,,,,,,,,,,,,,,,,,,,,,,,,,,,,,,,,,1.9028,910.9950617,None,None,1,910.9950617,None,,P012,fencog,1,Post,2021_Oct_15_1148,N-Back (New Version 2021),2021.1.4,120.0609913
,,,,Conditions/Version_1/oneback(4)_v1.xlsx,New rule: Press 'space' when you see 1-back (i.e. the same letter as the one that appeared 1 letter ago.),t,None,,,,,,,,,0,14,14,14,0,3,3,3,,,,,,,,,,,,,,,,,,,,,,,,,,,,,,,,,,,,,,,,,,,,,,,,,,,,,,,,,,,,,,,,,,,,,1.6176,914.6265281,None,None,1,914.6265281,None,,P012,fencog,1,Post,2021_Oct_15_1148,N-Back (New Version 2021),2021.1.4,120.0609913
,,,,Conditions/Version_1/oneback(4)_v1.xlsx,New rule: Press 'space' when you see 1-back (i.e. the same letter as the one that appeared 1 letter ago.),v,None,,,,,,,,,0,14,14,14,0,4,4,4,,,,,,,,,,,,,,,,,,,,,,,,,,,,,,,,,,,,,,,,,,,,,,,,,,,,,,,,,,,,,,,,,,,,,1.4564,918.0943827,None,None,1,918.0943827,None,,P012,fencog,1,Post,2021_Oct_15_1148,N-Back (New Version 2021),2021.1.4,120.0609913
,,,,Conditions/Version_1/oneback(4)_v1.xlsx,New rule: Press 'space' when you see 1-back (i.e. the same letter as the one that appeared 1 letter ago.),V,space,,,,,,,,,0,14,14,14,0,5,5,5,,,,,,,,,,,,,,,,,,,,,,,,,,,,,,,,,,,,,,,,,,,,,,,,,,,,,,,,,,,,,,,,,,,,,1.1464,921.2519069,None,space,1,921.2519069,None,0.4465434,P012,fencog,1,Post,2021_Oct_15_1148,N-Back (New Version 2021),2021.1.4,120.0609913
,,,,Conditions/Version_1/oneback(4)_v1.xlsx,New rule: Press 'space' when you see 1-back (i.e. the same letter as the one that appeared 1 letter ago.),v,space,,,,,,,,,0,14,14,14,0,6,6,6,,,,,,,,,,,,,,,,,,,,,,,,,,,,,,,,,,,,,,,,,,,,,,,,,,,,,,,,,,,,,,,,,,,,,1.692,924.9492355,None,space,1,924.9492355,None,0.3339653,P012,fencog,1,Post,2021_Oct_15_1148,N-Back (New Version 2021),2021.1.4,120.0609913
,,,,Conditions/Version_1/oneback(4)_v1.xlsx,New rule: Press 'space' when you see 1-back (i.e. the same letter as the one that appeared 1 letter ago.),p,None,,,,,,,,,0,14,14,14,0,7,7,7,,,,,,,,,,,,,,,,,,,,,,,,,,,,,,,,,,,,,,,,,,,,,,,,,,,,,,,,,,,,,,,,,,,,,1.7478,928.7048968,None,None,1,928.7048968,None,,P012,fencog,1,Post,2021_Oct_15_1148,N-Back (New Version 2021),2021.1.4,120.0609913
,,,,Conditions/Version_1/oneback(4)_v1.xlsx,New rule: Press 'space' when you see 1-back (i.e. the same letter as the one that appeared 1 letter ago.),w,None,,,,,,,,,0,14,14,14,0,8,8,8,,,,,,,,,,,,,,,,,,,,,,,,,,,,,,,,,,,,,,,,,,,,,,,,,,,,,,,,,,,,,,,,,,,,,1.7106,932.4223305,None,None,1,932.4223305,None,,P012,fencog,1,Post,2021_Oct_15_1148,N-Back (New Version 2021),2021.1.4,120.0609913
,,,,Conditions/Version_1/oneback(4)_v1.xlsx,New rule: Press 'space' when you see 1-back (i.e. the same letter as the one that appeared 1 letter ago.),W,space,,,,,,,,,0,14,14,14,0,9,9,9,,,,,,,,,,,,,,,,,,,,,,,,,,,,,,,,,,,,,,,,,,,,,,,,,,,,,,,,,,,,,,,,,,,,,1.5122,935.9450593,None,space,1,935.9450593,None,0.6497744,P012,fencog,1,Post,2021_Oct_15_1148,N-Back (New Version 2021),2021.1.4,120.0609913
,,,,Conditions/Version_1/oneback(4)_v1.xlsx,New rule: Press 'space' when you see 1-back (i.e. the same letter as the one that appeared 1 letter ago.),,,,,,,,,,,0,14,14,14,,,,,,,,,,,,,,,,,,,,,,,,,,,,,,,,,,,,,,,,,,,,,,,,,,,,,,,,,,,,,,,,,,,,,,,,,,,,,,,,,P012,fencog,1,Post,2021_Oct_15_1148,N-Back (New Version 2021),2021.1.4,120.0609913
,,,,Conditions/Version_1/threeback(4)_v1.xlsx,New rule: Press 'space' when you see 3-back (i.e. the same letter as the one that appeared 3 letters ago.),A,None,,,,,,,,,0,15,15,15,0,0,0,0,,,,,,,,,,,,,,,,,,,,,,,,,,,,,,,,,,,,,,,,,,,,,,,,,,,,,,,,,,,937.9748232,None,940.9618605,None,space,0.856762,940.9618605,None,937.9748232,None,1.4006,943.2433152,None,None,1,943.2433152,None,,P012,fencog,1,Post,2021_Oct_15_1148,N-Back (New Version 2021),2021.1.4,120.0609913
,,,,Conditions/Version_1/threeback(4)_v1.xlsx,New rule: Press 'space' when you see 3-back (i.e. the same letter as the one that appeared 3 letters ago.),n,None,,,,,,,,,0,15,15,15,0,1,1,1,,,,,,,,,,,,,,,,,,,,,,,,,,,,,,,,,,,,,,,,,,,,,,,,,,,,,,,,,,,,,,,,,,,,,1.2084,946.4578403,None,None,1,946.4578403,None,,P012,fencog,1,Post,2021_Oct_15_1148,N-Back (New Version 2021),2021.1.4,120.0609913
,,,,Conditions/Version_1/threeback(4)_v1.xlsx,New rule: Press 'space' when you see 3-back (i.e. the same letter as the one that appeared 3 letters ago.),g,None,,,,,,,,,0,15,15,15,0,2,2,2,,,,,,,,,,,,,,,,,,,,,,,,,,,,,,,,,,,,,,,,,,,,,,,,,,,,,,,,,,,,,,,,,,,,,1.5184,949.9838128,None,None,1,949.9838128,None,,P012,fencog,1,Post,2021_Oct_15_1148,N-Back (New Version 2021),2021.1.4,120.0609913
,,,,Conditions/Version_1/threeback(4)_v1.xlsx,New rule: Press 'space' when you see 3-back (i.e. the same letter as the one that appeared 3 letters ago.),A,space,,,,,,,,,0,15,15,15,0,3,3,3,,,,,,,,,,,,,,,,,,,,,,,,,,,,,,,,,,,,,,,,,,,,,,,,,,,,,,,,,,,,,,,,,,,,,1.7044,953.6993519,None,space,1,953.6993519,None,0.8473507,P012,fencog,1,Post,2021_Oct_15_1148,N-Back (New Version 2021),2021.1.4,120.0609913
,,,,Conditions/Version_1/threeback(4)_v1.xlsx,New rule: Press 'space' when you see 3-back (i.e. the same letter as the one that appeared 3 letters ago.),p,None,,,,,,,,,0,15,15,15,0,4,4,4,,,,,,,,,,,,,,,,,,,,,,,,,,,,,,,,,,,,,,,,,,,,,,,,,,,,,,,,,,,,,,,,,,,,,1.909,957.6224962,None,None,1,957.6224962,None,,P012,fencog,1,Post,2021_Oct_15_1148,N-Back (New Version 2021),2021.1.4,120.0609913
,,,,Conditions/Version_1/threeback(4)_v1.xlsx,New rule: Press 'space' when you see 3-back (i.e. the same letter as the one that appeared 3 letters ago.),O,None,,,,,,,,,0,15,15,15,0,5,5,5,,,,,,,,,,,,,,,,,,,,,,,,,,,,,,,,,,,,,,,,,,,,,,,,,,,,,,,,,,,,,,,,,,,,,1.785,961.4118324,None,None,1,961.4118324,None,,P012,fencog,1,Post,2021_Oct_15_1148,N-Back (New Version 2021),2021.1.4,120.0609913
,,,,Conditions/Version_1/threeback(4)_v1.xlsx,New rule: Press 'space' when you see 3-back (i.e. the same letter as the one that appeared 3 letters ago.),a,space,,,,,,,,,0,15,15,15,0,6,6,6,,,,,,,,,,,,,,,,,,,,,,,,,,,,,,,,,,,,,,,,,,,,,,,,,,,,,,,,,,,,,,,,,,,,,1.258,964.6698987,None,space,1,964.6698987,None,0.8209161,P012,fencog,1,Post,2021_Oct_15_1148,N-Back (New Version 2021),2021.1.4,120.0609913
,,,,Conditions/Version_1/threeback(4)_v1.xlsx,New rule: Press 'space' when you see 3-back (i.e. the same letter as the one that appeared 3 letters ago.),p,space,,,,,,,,,0,15,15,15,0,7,7,7,,,,,,,,,,,,,,,,,,,,,,,,,,,,,,,,,,,,,,,,,,,,,,,,,,,,,,,,,,,,,,,,,,,,,1.2952,967.9769186,None,space,1,967.9769186,None,0.6501318,P012,fencog,1,Post,2021_Oct_15_1148,N-Back (New Version 2021),2021.1.4,120.0609913
,,,,Conditions/Version_1/threeback(4)_v1.xlsx,New rule: Press 'space' when you see 3-back (i.e. the same letter as the one that appeared 3 letters ago.),x,None,,,,,,,,,0,15,15,15,0,8,8,8,,,,,,,,,,,,,,,,,,,,,,,,,,,,,,,,,,,,,,,,,,,,,,,,,,,,,,,,,,,,,,,,,,,,,1.4068,971.3867201,None,None,1,971.3867201,None,,P012,fencog,1,Post,2021_Oct_15_1148,N-Back (New Version 2021),2021.1.4,120.0609913
,,,,Conditions/Version_1/threeback(4)_v1.xlsx,New rule: Press 'space' when you see 3-back (i.e. the same letter as the one that appeared 3 letters ago.),X,None,,,,,,,,,0,15,15,15,0,9,9,9,,,,,,,,,,,,,,,,,,,,,,,,,,,,,,,,,,,,,,,,,,,,,,,,,,,,,,,,,,,,,,,,,,,,,1.8656,975.2576276,None,None,1,975.2576276,None,,P012,fencog,1,Post,2021_Oct_15_1148,N-Back (New Version 2021),2021.1.4,120.0609913
,,,,Conditions/Version_1/threeback(4)_v1.xlsx,New rule: Press 'space' when you see 3-back (i.e. the same letter as the one that appeared 3 letters ago.),,,,,,,,,,,0,15,15,15,,,,,,,,,,,,,,,,,,,,,,,,,,,,,,,,,,,,,,,,,,,,,,,,,,,,,,,,,,,,,,,,,,,,,,,,,,,,,,,,,P012,fencog,1,Post,2021_Oct_15_1148,N-Back (New Version 2021),2021.1.4,120.0609913
