CondFileP,InstructionsP,LettersDisplayedP,CorrectnessP,CondFile,Instructions,LettersDisplayed,Correctness,practicetrials.thisRepN,practicetrials.thisTrialN,practicetrials.thisN,practicetrials.thisIndex,InnerLoopPractice.thisRepN,InnerLoopPractice.thisTrialN,InnerLoopPractice.thisN,InnerLoopPractice.thisIndex,trials.thisRepN,trials.thisTrialN,trials.thisN,trials.thisIndex,InnerLoop.thisRepN,InnerLoop.thisTrialN,InnerLoop.thisN,InnerLoop.thisIndex,TaskVersionText.started,TaskVersionText.stopped,InstrKey1.keys,InstrKey1.rt,InstrKey1.started,InstrKey1.stopped,text.started,text.stopped,key_resp_4.keys,key_resp_4.rt,key_resp_4.started,key_resp_4.stopped,text_2.started,text_2.stopped,key_resp_3.keys,key_resp_3.rt,key_resp_3.started,key_resp_3.stopped,text_3.started,text_3.stopped,key_resp_2.keys,key_resp_2.rt,key_resp_2.started,key_resp_2.stopped,PractIn1.started,PractIn1.stopped,PractIn2.started,PractIn2.stopped,PractInstructionPass.keys,PractInstructionPass.rt,PractInstructionPass.started,PractInstructionPass.stopped,PractBlock1.started,PractBlock1.stopped,ISIjitterPractice,ISI_Pract_Fixation.started,ISI_Pract_Fixation.stopped,N_backP.started,N_backP.stopped,KeyPractice.keys,KeyPractice.corr,KeyPractice.started,KeyPractice.stopped,text_4.started,text_4.stopped,KeyPractice.rt,TransitionText.started,TransitionText.stopped,key_resp_6.keys,key_resp_6.rt,key_resp_6.started,key_resp_6.stopped,text_5.started,text_5.stopped,key_resp_5.keys,key_resp_5.rt,key_resp_5.started,key_resp_5.stopped,MainInt1.started,MainInt1.stopped,MainInt2.started,MainInt2.stopped,InstructionPass.keys,InstructionPass.rt,InstructionPass.started,InstructionPass.stopped,Blocks1.started,Blocks1.stopped,ISIjitter,N_backD.started,N_backD.stopped,key_resp.keys,key_resp.corr,key_resp.started,key_resp.stopped,key_resp.rt,participant,Study Name,Task Version (required to run),PRE/POST,date,expName,psychopyVersion,frameRate,
,,,,,,,,,,,,,,,,,,,,,,,,23.803596600017045,None,space,15.472923399996944,24.292654699995182,None,,,,,,,,,,,,,,,,,,,,,,,,,,,,,,,,,,,,,,,,,,,,,,,,,,,,,,,,,,,,,,,,,,,,,,,P001,fencog,1,Pre,2021_Jun_22_1149,N-Back (New Version 2021),2021.1.4,119.86009928730878,
,,,,,,,,,,,,,,,,,,,,,,,,,,,,,,39.80128660000628,None,space,7.420682099997066,40.29673170001479,None,,,,,,,,,,,,,,,,,,,,,,,,,,,,,,,,,,,,,,,,,,,,,,,,,,,,,,,,,,,,,,,,,P001,fencog,1,Pre,2021_Jun_22_1149,N-Back (New Version 2021),2021.1.4,119.86009928730878,
,,,,,,,,,,,,,,,,,,,,,,,,,,,,,,,,,,,,47.75448950001737,None,space,12.464961599966045,48.24459860002389,None,,,,,,,,,,,,,,,,,,,,,,,,,,,,,,,,,,,,,,,,,,,,,,,,,,,,,,,,,,,P001,fencog,1,Pre,2021_Jun_22_1149,N-Back (New Version 2021),2021.1.4,119.86009928730878,
,,,,,,,,,,,,,,,,,,,,,,,,,,,,,,,,,,,,,,,,,,60.74116710003,None,space,7.269082399958279,61.232328700018115,None,,,,,,,,,,,,,,,,,,,,,,,,,,,,,,,,,,,,,,,,,,,,,,,,,,,,,P001,fencog,1,Pre,2021_Jun_22_1149,N-Back (New Version 2021),2021.1.4,119.86009928730878,
Conditions/Version_1Pr/zeroback(1)_v1.xlsx,Rule: Press 'space' when you see the letter 'x' or 'X'.,Z,None,,,,,0,0,0,0,0,0,0,0,,,,,,,,,,,,,,,,,,,,,,,,,,,,,,,,,69.8472652999917,None,72.82160840003053,None,space,1.487656600016635,72.82160840003053,None,69.8472652999917,None,2.015,74.3301709999796,None,76.35767649998888,None,None,1,76.35767649998888,None,78.361382699979,None,,,,,,,,,,,,,,,,,,,,,,,,,,,,,,,,P001,fencog,1,Pre,2021_Jun_22_1149,N-Back (New Version 2021),2021.1.4,119.86009928730878,
Conditions/Version_1Pr/zeroback(1)_v1.xlsx,Rule: Press 'space' when you see the letter 'x' or 'X'.,r,None,,,,,0,0,0,0,0,1,1,1,,,,,,,,,,,,,,,,,,,,,,,,,,,,,,,,,,,,,,,,,,,1.465,79.85921160003636,None,81.32826330000535,None,None,1,81.32826330000535,None,83.33336190000409,None,,,,,,,,,,,,,,,,,,,,,,,,,,,,,,,,P001,fencog,1,Pre,2021_Jun_22_1149,N-Back (New Version 2021),2021.1.4,119.86009928730878,
Conditions/Version_1Pr/zeroback(1)_v1.xlsx,Rule: Press 'space' when you see the letter 'x' or 'X'.,X,space,,,,,0,0,0,0,0,2,2,2,,,,,,,,,,,,,,,,,,,,,,,,,,,,,,,,,,,,,,,,,,,1.615,84.83299490000354,None,86.45175409998046,None,space,1,86.45175409998046,None,86.79150310001569,None,0.33014259999617934,,,,,,,,,,,,,,,,,,,,,,,,,,,,,,,P001,fencog,1,Pre,2021_Jun_22_1149,N-Back (New Version 2021),2021.1.4,119.86009928730878,
Conditions/Version_1Pr/zeroback(1)_v1.xlsx,Rule: Press 'space' when you see the letter 'x' or 'X'.,p,None,,,,,0,0,0,0,0,3,3,3,,,,,,,,,,,,,,,,,,,,,,,,,,,,,,,,,,,,,,,,,,,1.49,88.29849509999622,None,89.79227039997932,None,None,1,89.79227039997932,None,91.79739770002197,None,,,,,,,,,,,,,,,,,,,,,,,,,,,,,,,,P001,fencog,1,Pre,2021_Jun_22_1149,N-Back (New Version 2021),2021.1.4,119.86009928730878,
Conditions/Version_1Pr/zeroback(1)_v1.xlsx,Rule: Press 'space' when you see the letter 'x' or 'X'.,w,None,,,,,0,0,0,0,0,4,4,4,,,,,,,,,,,,,,,,,,,,,,,,,,,,,,,,,,,,,,,,,,,1.715,93.29705880000256,None,95.01602570002433,None,None,1,95.01602570002433,None,97.0208999000024,None,,,,,,,,,,,,,,,,,,,,,,,,,,,,,,,,P001,fencog,1,Pre,2021_Jun_22_1149,N-Back (New Version 2021),2021.1.4,119.86009928730878,
Conditions/Version_1Pr/zeroback(1)_v1.xlsx,Rule: Press 'space' when you see the letter 'x' or 'X'.,e,None,,,,,0,0,0,0,0,5,5,5,,,,,,,,,,,,,,,,,,,,,,,,,,,,,,,,,,,,,,,,,,,1.44,98.52047500002664,None,99.96508400002494,None,None,1,99.96508400002494,None,101.96933819999686,None,,,,,,,,,,,,,,,,,,,,,,,,,,,,,,,,P001,fencog,1,Pre,2021_Jun_22_1149,N-Back (New Version 2021),2021.1.4,119.86009928730878,
Conditions/Version_1Pr/zeroback(1)_v1.xlsx,Rule: Press 'space' when you see the letter 'x' or 'X'.,X,space,,,,,0,0,0,0,0,6,6,6,,,,,,,,,,,,,,,,,,,,,,,,,,,,,,,,,,,,,,,,,,,1.79,103.46899120003218,None,105.25992610002868,None,space,1,105.25992610002868,None,105.6086008999846,None,0.32982849999098107,,,,,,,,,,,,,,,,,,,,,,,,,,,,,,,P001,fencog,1,Pre,2021_Jun_22_1149,N-Back (New Version 2021),2021.1.4,119.86009928730878,
Conditions/Version_1Pr/zeroback(1)_v1.xlsx,Rule: Press 'space' when you see the letter 'x' or 'X'.,x,space,,,,,0,0,0,0,0,7,7,7,,,,,,,,,,,,,,,,,,,,,,,,,,,,,,,,,,,,,,,,,,,1.365,107.10957700002473,None,108.47917060001055,None,space,1,108.47917060001055,None,108.8938759000157,None,0.4062918999698013,,,,,,,,,,,,,,,,,,,,,,,,,,,,,,,P001,fencog,1,Pre,2021_Jun_22_1149,N-Back (New Version 2021),2021.1.4,119.86009928730878,
Conditions/Version_1Pr/zeroback(1)_v1.xlsx,Rule: Press 'space' when you see the letter 'x' or 'X'.,p,None,,,,,0,0,0,0,0,8,8,8,,,,,,,,,,,,,,,,,,,,,,,,,,,,,,,,,,,,,,,,,,,1.19,110.40010020002956,None,111.59328810003353,None,None,1,111.59328810003353,None,113.59932959999423,None,,,,,,,,,,,,,,,,,,,,,,,,,,,,,,,,P001,fencog,1,Pre,2021_Jun_22_1149,N-Back (New Version 2021),2021.1.4,119.86009928730878,
Conditions/Version_1Pr/zeroback(1)_v1.xlsx,Rule: Press 'space' when you see the letter 'x' or 'X'.,r,None,,,,,0,0,0,0,0,9,9,9,,,,,,,,,,,,,,,,,,,,,,,,,,,,,,,,,,,,,,,,,,,1.74,115.09891940001398,None,116.84390089998487,None,None,1,116.84390089998487,None,118.8477287000278,None,,,,,,,,,,,,,,,,,,,,,,,,,,,,,,,,P001,fencog,1,Pre,2021_Jun_22_1149,N-Back (New Version 2021),2021.1.4,119.86009928730878,
Conditions/Version_1Pr/zeroback(1)_v1.xlsx,Rule: Press 'space' when you see the letter 'x' or 'X'.,,,,,,,0,0,0,0,,,,,,,,,,,,,,,,,,,,,,,,,,,,,,,,,,,,,,,,,,,,,,,,,,,,,,,,,,,,,,,,,,,,,,,,,,,,,,,,,,,,,,,,,P001,fencog,1,Pre,2021_Jun_22_1149,N-Back (New Version 2021),2021.1.4,119.86009928730878,
Conditions/Version_1Pr/oneback(1)_v1.xlsx,New rule: Press 'space' when you see 1-back (i.e. the same letter as the one that appeared 1 letter ago.),a,None,,,,,0,1,1,1,0,0,0,0,,,,,,,,,,,,,,,,,,,,,,,,,,,,,,,,,120.37278650002554,None,123.35630939999828,None,space,57.265004999993835,123.35630939999828,None,120.37278650002554,None,1.915,180.6572215000051,None,182.57994760002475,None,None,1,182.57994760002475,None,184.5866335000028,None,,,,,,,,,,,,,,,,,,,,,,,,,,,,,,,,P001,fencog,1,Pre,2021_Jun_22_1149,N-Back (New Version 2021),2021.1.4,119.86009928730878,
Conditions/Version_1Pr/oneback(1)_v1.xlsx,New rule: Press 'space' when you see 1-back (i.e. the same letter as the one that appeared 1 letter ago.),x,None,,,,,0,1,1,1,0,1,1,1,,,,,,,,,,,,,,,,,,,,,,,,,,,,,,,,,,,,,,,,,,,1.965,186.08614299999317,None,188.05200690001948,None,None,1,188.05200690001948,None,190.05548109998927,None,,,,,,,,,,,,,,,,,,,,,,,,,,,,,,,,P001,fencog,1,Pre,2021_Jun_22_1149,N-Back (New Version 2021),2021.1.4,119.86009928730878,
Conditions/Version_1Pr/oneback(1)_v1.xlsx,New rule: Press 'space' when you see 1-back (i.e. the same letter as the one that appeared 1 letter ago.),g,None,,,,,0,1,1,1,0,2,2,2,,,,,,,,,,,,,,,,,,,,,,,,,,,,,,,,,,,,,,,,,,,1.215,191.55959770001937,None,192.77736639999785,None,None,1,192.77736639999785,None,194.78357339999638,None,,,,,,,,,,,,,,,,,,,,,,,,,,,,,,,,P001,fencog,1,Pre,2021_Jun_22_1149,N-Back (New Version 2021),2021.1.4,119.86009928730878,
Conditions/Version_1Pr/oneback(1)_v1.xlsx,New rule: Press 'space' when you see 1-back (i.e. the same letter as the one that appeared 1 letter ago.),G,space,,,,,0,1,1,1,0,3,3,3,,,,,,,,,,,,,,,,,,,,,,,,,,,,,,,,,,,,,,,,,,,1.59,196.28319240000565,None,197.87662749999436,None,space,1,197.87662749999436,None,198.33837349998066,None,0.44075440004235134,,,,,,,,,,,,,,,,,,,,,,,,,,,,,,,P001,fencog,1,Pre,2021_Jun_22_1149,N-Back (New Version 2021),2021.1.4,119.86009928730878,
Conditions/Version_1Pr/oneback(1)_v1.xlsx,New rule: Press 'space' when you see 1-back (i.e. the same letter as the one that appeared 1 letter ago.),u,None,,,,,0,1,1,1,0,4,4,4,,,,,,,,,,,,,,,,,,,,,,,,,,,,,,,,,,,,,,,,,,,1.065,199.84047290001763,None,200.9089488000027,None,None,1,200.9089488000027,None,202.91434820002178,None,,,,,,,,,,,,,,,,,,,,,,,,,,,,,,,,P001,fencog,1,Pre,2021_Jun_22_1149,N-Back (New Version 2021),2021.1.4,119.86009928730878,
Conditions/Version_1Pr/oneback(1)_v1.xlsx,New rule: Press 'space' when you see 1-back (i.e. the same letter as the one that appeared 1 letter ago.),y,None,,,,,0,1,1,1,0,5,5,5,,,,,,,,,,,,,,,,,,,,,,,,,,,,,,,,,,,,,,,,,,,1.465,204.41409889998613,None,205.8836487000226,None,None,1,205.8836487000226,None,207.88803959998768,None,,,,,,,,,,,,,,,,,,,,,,,,,,,,,,,,P001,fencog,1,Pre,2021_Jun_22_1149,N-Back (New Version 2021),2021.1.4,119.86009928730878,
Conditions/Version_1Pr/oneback(1)_v1.xlsx,New rule: Press 'space' when you see 1-back (i.e. the same letter as the one that appeared 1 letter ago.),y,space,,,,,0,1,1,1,0,6,6,6,,,,,,,,,,,,,,,,,,,,,,,,,,,,,,,,,,,,,,,,,,,1.315,209.3876283999998,None,210.70381360000465,None,space,1,210.70381360000465,None,211.2186270999955,None,0.5014924999559298,,,,,,,,,,,,,,,,,,,,,,,,,,,,,,,P001,fencog,1,Pre,2021_Jun_22_1149,N-Back (New Version 2021),2021.1.4,119.86009928730878,
Conditions/Version_1Pr/oneback(1)_v1.xlsx,New rule: Press 'space' when you see 1-back (i.e. the same letter as the one that appeared 1 letter ago.),k,None,,,,,0,1,1,1,0,7,7,7,,,,,,,,,,,,,,,,,,,,,,,,,,,,,,,,,,,,,,,,,,,1.165,212.7198905000114,None,213.89028490002966,None,None,1,213.89028490002966,None,215.89403700002003,None,,,,,,,,,,,,,,,,,,,,,,,,,,,,,,,,P001,fencog,1,Pre,2021_Jun_22_1149,N-Back (New Version 2021),2021.1.4,119.86009928730878,
Conditions/Version_1Pr/oneback(1)_v1.xlsx,New rule: Press 'space' when you see 1-back (i.e. the same letter as the one that appeared 1 letter ago.),c,None,,,,,0,1,1,1,0,8,8,8,,,,,,,,,,,,,,,,,,,,,,,,,,,,,,,,,,,,,,,,,,,1.565,217.39342710003257,None,218.96259429998463,None,None,1,218.96259429998463,None,220.96759940002812,None,,,,,,,,,,,,,,,,,,,,,,,,,,,,,,,,P001,fencog,1,Pre,2021_Jun_22_1149,N-Back (New Version 2021),2021.1.4,119.86009928730878,
Conditions/Version_1Pr/oneback(1)_v1.xlsx,New rule: Press 'space' when you see 1-back (i.e. the same letter as the one that appeared 1 letter ago.),r,None,,,,,0,1,1,1,0,9,9,9,,,,,,,,,,,,,,,,,,,,,,,,,,,,,,,,,,,,,,,,,,,1.99,222.46713980002096,None,224.46153189998586,None,None,1,224.46153189998586,None,226.46212019998347,None,,,,,,,,,,,,,,,,,,,,,,,,,,,,,,,,P001,fencog,1,Pre,2021_Jun_22_1149,N-Back (New Version 2021),2021.1.4,119.86009928730878,
Conditions/Version_1Pr/oneback(1)_v1.xlsx,New rule: Press 'space' when you see 1-back (i.e. the same letter as the one that appeared 1 letter ago.),,,,,,,0,1,1,1,,,,,,,,,,,,,,,,,,,,,,,,,,,,,,,,,,,,,,,,,,,,,,,,,,,,,,,,,,,,,,,,,,,,,,,,,,,,,,,,,,,,,,,,,P001,fencog,1,Pre,2021_Jun_22_1149,N-Back (New Version 2021),2021.1.4,119.86009928730878,
Conditions/Version_1Pr/twoback(1)_v1.xlsx,New rule: Press 'space' when you see 2-back (i.e. the same letter as the one that appeared 2 letters ago.),E,None,,,,,0,2,2,2,0,0,0,0,,,,,,,,,,,,,,,,,,,,,,,,,,,,,,,,,227.99302819999866,None,230.97513099998469,None,space,5.488856899959501,230.97513099998469,None,227.99302819999866,None,1.115,236.4864527999889,None,237.60813579999376,None,None,1,237.60813579999376,None,239.60938480001641,None,,,,,,,,,,,,,,,,,,,,,,,,,,,,,,,,P001,fencog,1,Pre,2021_Jun_22_1149,N-Back (New Version 2021),2021.1.4,119.86009928730878,
Conditions/Version_1Pr/twoback(1)_v1.xlsx,New rule: Press 'space' when you see 2-back (i.e. the same letter as the one that appeared 2 letters ago.),p,None,,,,,0,2,2,2,0,1,1,1,,,,,,,,,,,,,,,,,,,,,,,,,,,,,,,,,,,,,,,,,,,1.265,241.11159320001025,None,242.3796806000173,None,None,1,242.3796806000173,None,244.38143210002454,None,,,,,,,,,,,,,,,,,,,,,,,,,,,,,,,,P001,fencog,1,Pre,2021_Jun_22_1149,N-Back (New Version 2021),2021.1.4,119.86009928730878,
Conditions/Version_1Pr/twoback(1)_v1.xlsx,New rule: Press 'space' when you see 2-back (i.e. the same letter as the one that appeared 2 letters ago.),e,space,,,,,0,2,2,2,0,2,2,2,,,,,,,,,,,,,,,,,,,,,,,,,,,,,,,,,,,,,,,,,,,1.565,245.88516629999503,None,247.4533100000117,None,space,1,247.4533100000117,None,247.92703570000594,None,0.46414509997703135,,,,,,,,,,,,,,,,,,,,,,,,,,,,,,,P001,fencog,1,Pre,2021_Jun_22_1149,N-Back (New Version 2021),2021.1.4,119.86009928730878,
Conditions/Version_1Pr/twoback(1)_v1.xlsx,New rule: Press 'space' when you see 2-back (i.e. the same letter as the one that appeared 2 letters ago.),s,None,,,,,0,2,2,2,0,3,3,3,,,,,,,,,,,,,,,,,,,,,,,,,,,,,,,,,,,,,,,,,,,1.715,249.434092600015,None,251.15482070000144,None,None,1,251.15482070000144,None,253.15806510002585,None,,,,,,,,,,,,,,,,,,,,,,,,,,,,,,,,P001,fencog,1,Pre,2021_Jun_22_1149,N-Back (New Version 2021),2021.1.4,119.86009928730878,
Conditions/Version_1Pr/twoback(1)_v1.xlsx,New rule: Press 'space' when you see 2-back (i.e. the same letter as the one that appeared 2 letters ago.),S,None,,,,,0,2,2,2,0,4,4,4,,,,,,,,,,,,,,,,,,,,,,,,,,,,,,,,,,,,,,,,,,,1.59,254.65767520002555,None,256.251214399992,None,None,1,256.251214399992,None,258.2565844000201,None,,,,,,,,,,,,,,,,,,,,,,,,,,,,,,,,P001,fencog,1,Pre,2021_Jun_22_1149,N-Back (New Version 2021),2021.1.4,119.86009928730878,
Conditions/Version_1Pr/twoback(1)_v1.xlsx,New rule: Press 'space' when you see 2-back (i.e. the same letter as the one that appeared 2 letters ago.),s,space,,,,,0,2,2,2,0,5,5,5,,,,,,,,,,,,,,,,,,,,,,,,,,,,,,,,,,,,,,,,,,,1.14,259.7560544000007,None,260.90067150001414,None,space,1,260.90067150001414,None,261.3234440999804,None,0.40884280001046136,,,,,,,,,,,,,,,,,,,,,,,,,,,,,,,P001,fencog,1,Pre,2021_Jun_22_1149,N-Back (New Version 2021),2021.1.4,119.86009928730878,
Conditions/Version_1Pr/twoback(1)_v1.xlsx,New rule: Press 'space' when you see 2-back (i.e. the same letter as the one that appeared 2 letters ago.),P,None,,,,,0,2,2,2,0,6,6,6,,,,,,,,,,,,,,,,,,,,,,,,,,,,,,,,,,,,,,,,,,,1.99,262.8301136000082,None,264.8246295999852,None,None,1,264.8246295999852,None,266.8329283000203,None,,,,,,,,,,,,,,,,,,,,,,,,,,,,,,,,P001,fencog,1,Pre,2021_Jun_22_1149,N-Back (New Version 2021),2021.1.4,119.86009928730878,
Conditions/Version_1Pr/twoback(1)_v1.xlsx,New rule: Press 'space' when you see 2-back (i.e. the same letter as the one that appeared 2 letters ago.),C,None,,,,,0,2,2,2,0,7,7,7,,,,,,,,,,,,,,,,,,,,,,,,,,,,,,,,,,,,,,,,,,,1.04,268.3285665999865,None,269.3739350999822,None,None,1,269.3739350999822,None,271.3776288999943,None,,,,,,,,,,,,,,,,,,,,,,,,,,,,,,,,P001,fencog,1,Pre,2021_Jun_22_1149,N-Back (New Version 2021),2021.1.4,119.86009928730878,
Conditions/Version_1Pr/twoback(1)_v1.xlsx,New rule: Press 'space' when you see 2-back (i.e. the same letter as the one that appeared 2 letters ago.),x,None,,,,,0,2,2,2,0,8,8,8,,,,,,,,,,,,,,,,,,,,,,,,,,,,,,,,,,,,,,,,,,,1.34,272.87725620000856,None,274.2207924000104,None,None,1,274.2207924000104,None,276.2283146000118,None,,,,,,,,,,,,,,,,,,,,,,,,,,,,,,,,P001,fencog,1,Pre,2021_Jun_22_1149,N-Back (New Version 2021),2021.1.4,119.86009928730878,
Conditions/Version_1Pr/twoback(1)_v1.xlsx,New rule: Press 'space' when you see 2-back (i.e. the same letter as the one that appeared 2 letters ago.),Z,None,,,,,0,2,2,2,0,9,9,9,,,,,,,,,,,,,,,,,,,,,,,,,,,,,,,,,,,,,,,,,,,1.24,277.725625400024,None,278.96909730002517,None,None,1,278.96909730002517,None,280.97477070003515,None,,,,,,,,,,,,,,,,,,,,,,,,,,,,,,,,P001,fencog,1,Pre,2021_Jun_22_1149,N-Back (New Version 2021),2021.1.4,119.86009928730878,
Conditions/Version_1Pr/twoback(1)_v1.xlsx,New rule: Press 'space' when you see 2-back (i.e. the same letter as the one that appeared 2 letters ago.),,,,,,,0,2,2,2,,,,,,,,,,,,,,,,,,,,,,,,,,,,,,,,,,,,,,,,,,,,,,,,,,,,,,,,,,,,,,,,,,,,,,,,,,,,,,,,,,,,,,,,,P001,fencog,1,Pre,2021_Jun_22_1149,N-Back (New Version 2021),2021.1.4,119.86009928730878,
Conditions/Version_1Pr/threeback(1)_v1.xlsx,New rule: Press 'space' when you see 3-back (i.e. the same letter as the one that appeared 3 letters ago.),r,None,,,,,0,3,3,3,0,0,0,0,,,,,,,,,,,,,,,,,,,,,,,,,,,,,,,,,282.4989655999816,None,285.48326910001924,None,space,13.489894600003026,285.48326910001924,None,282.4989655999816,None,1.515,299.011723899981,None,300.5281937000109,None,None,1,300.5281937000109,None,302.535090600024,None,,,,,,,,,,,,,,,,,,,,,,,,,,,,,,,,P001,fencog,1,Pre,2021_Jun_22_1149,N-Back (New Version 2021),2021.1.4,119.86009928730878,
Conditions/Version_1Pr/threeback(1)_v1.xlsx,New rule: Press 'space' when you see 3-back (i.e. the same letter as the one that appeared 3 letters ago.),a,None,,,,,0,3,3,3,0,1,1,1,,,,,,,,,,,,,,,,,,,,,,,,,,,,,,,,,,,,,,,,,,,1.065,304.0343795000226,None,305.10452120000264,None,None,1,305.10452120000264,None,307.108698200027,None,,,,,,,,,,,,,,,,,,,,,,,,,,,,,,,,P001,fencog,1,Pre,2021_Jun_22_1149,N-Back (New Version 2021),2021.1.4,119.86009928730878,
Conditions/Version_1Pr/threeback(1)_v1.xlsx,New rule: Press 'space' when you see 3-back (i.e. the same letter as the one that appeared 3 letters ago.),t,None,,,,,0,3,3,3,0,2,2,2,,,,,,,,,,,,,,,,,,,,,,,,,,,,,,,,,,,,,,,,,,,1.365,308.60826260002796,None,309.9789979000343,None,None,1,309.9789979000343,None,311.98227139998926,None,,,,,,,,,,,,,,,,,,,,,,,,,,,,,,,,P001,fencog,1,Pre,2021_Jun_22_1149,N-Back (New Version 2021),2021.1.4,119.86009928730878,
Conditions/Version_1Pr/threeback(1)_v1.xlsx,New rule: Press 'space' when you see 3-back (i.e. the same letter as the one that appeared 3 letters ago.),r,space,,,,,0,3,3,3,0,3,3,3,,,,,,,,,,,,,,,,,,,,,,,,,,,,,,,,,,,,,,,,,,,2.015,313.4818561000284,None,315.50007750000805,None,space,1,315.50007750000805,None,315.8767850000295,None,0.3616143999970518,,,,,,,,,,,,,,,,,,,,,,,,,,,,,,,P001,fencog,1,Pre,2021_Jun_22_1149,N-Back (New Version 2021),2021.1.4,119.86009928730878,
Conditions/Version_1Pr/threeback(1)_v1.xlsx,New rule: Press 'space' when you see 3-back (i.e. the same letter as the one that appeared 3 letters ago.),a,None,,,,,0,3,3,3,0,4,4,4,,,,,,,,,,,,,,,,,,,,,,,,,,,,,,,,,,,,,,,,,,,1.915,317.3807044000132,None,319.2971808000002,None,space,0,319.2971808000002,None,319.95928310003364,None,0.6440599000197835,,,,,,,,,,,,,,,,,,,,,,,,,,,,,,,P001,fencog,1,Pre,2021_Jun_22_1149,N-Back (New Version 2021),2021.1.4,119.86009928730878,
Conditions/Version_1Pr/threeback(1)_v1.xlsx,New rule: Press 'space' when you see 3-back (i.e. the same letter as the one that appeared 3 letters ago.),Y,None,,,,,0,3,3,3,0,5,5,5,,,,,,,,,,,,,,,,,,,,,,,,,,,,,,,,,,,,,,,,,,,1.74,321.4641392999911,None,323.20590200001607,None,None,1,323.20590200001607,None,325.2115225000307,None,,,,,,,,,,,,,,,,,,,,,,,,,,,,,,,,P001,fencog,1,Pre,2021_Jun_22_1149,N-Back (New Version 2021),2021.1.4,119.86009928730878,
Conditions/Version_1Pr/threeback(1)_v1.xlsx,New rule: Press 'space' when you see 3-back (i.e. the same letter as the one that appeared 3 letters ago.),q,None,,,,,0,3,3,3,0,6,6,6,,,,,,,,,,,,,,,,,,,,,,,,,,,,,,,,,,,,,,,,,,,1.44,326.7112834000145,None,328.1539880000055,None,None,1,328.1539880000055,None,330.1602169999969,None,,,,,,,,,,,,,,,,,,,,,,,,,,,,,,,,P001,fencog,1,Pre,2021_Jun_22_1149,N-Back (New Version 2021),2021.1.4,119.86009928730878,
Conditions/Version_1Pr/threeback(1)_v1.xlsx,New rule: Press 'space' when you see 3-back (i.e. the same letter as the one that appeared 3 letters ago.),A,space,,,,,0,3,3,3,0,7,7,7,,,,,,,,,,,,,,,,,,,,,,,,,,,,,,,,,,,,,,,,,,,1.115,331.6596401000279,None,332.78043460001936,None,space,1,332.78043460001936,None,333.41776270000264,None,0.6250726000289433,,,,,,,,,,,,,,,,,,,,,,,,,,,,,,,P001,fencog,1,Pre,2021_Jun_22_1149,N-Back (New Version 2021),2021.1.4,119.86009928730878,
Conditions/Version_1Pr/threeback(1)_v1.xlsx,New rule: Press 'space' when you see 3-back (i.e. the same letter as the one that appeared 3 letters ago.),y,None,,,,,0,3,3,3,0,8,8,8,,,,,,,,,,,,,,,,,,,,,,,,,,,,,,,,,,,,,,,,,,,1.565,334.9169806999853,None,336.4841787000187,None,space,0,336.4841787000187,None,336.96211379999295,None,0.4651204000110738,,,,,,,,,,,,,,,,,,,,,,,,,,,,,,,P001,fencog,1,Pre,2021_Jun_22_1149,N-Back (New Version 2021),2021.1.4,119.86009928730878,
Conditions/Version_1Pr/threeback(1)_v1.xlsx,New rule: Press 'space' when you see 3-back (i.e. the same letter as the one that appeared 3 letters ago.),r,None,,,,,0,3,3,3,0,9,9,9,,,,,,,,,,,,,,,,,,,,,,,,,,,,,,,,,,,,,,,,,,,1.19,338.4662055000081,None,339.6584466000204,None,None,1,339.6584466000204,None,341.667349299998,None,,,,,,,,,,,,,,,,,,,,,,,,,,,,,,,,P001,fencog,1,Pre,2021_Jun_22_1149,N-Back (New Version 2021),2021.1.4,119.86009928730878,
Conditions/Version_1Pr/threeback(1)_v1.xlsx,New rule: Press 'space' when you see 3-back (i.e. the same letter as the one that appeared 3 letters ago.),,,,,,,0,3,3,3,,,,,,,,,,,,,,,,,,,,,,,,,,,,,,,,,,,,,,,,,,,,,,,,,,,,,,,,,,,,,,,,,,,,,,,,,,,,,,,,,,,,,,,,,P001,fencog,1,Pre,2021_Jun_22_1149,N-Back (New Version 2021),2021.1.4,119.86009928730878,
,,,,,,,,,,,,,,,,,,,,,,,,,,,,,,,,,,,,,,,,,,,,,,,,,,,,,,,,,,,,,,,,,,,,,,343.175495100033,None,space,2.7805319000035524,343.6647911000182,None,,,,,,,,,,,,,,,,,,,,,,,,,P001,fencog,1,Pre,2021_Jun_22_1149,N-Back (New Version 2021),2021.1.4,119.86009928730878,
,,,,,,,,,,,,,,,,,,,,,,,,,,,,,,,,,,,,,,,,,,,,,,,,,,,,,,,,,,,,,,,,,,,,,,,,,,,,346.478782900027,None,space,45.30506230000174,346.9721256000339,None,,,,,,,,,,,,,,,,,,,P001,fencog,1,Pre,2021_Jun_22_1149,N-Back (New Version 2021),2021.1.4,119.86009928730878,
,,,,Conditions/Version_1/zeroback(1)_v1.xlsx,Rule: Press 'space' when you see the letter 'x' or 'X'.,b,None,,,,,,,,,0,0,0,0,0,0,0,0,,,,,,,,,,,,,,,,,,,,,,,,,,,,,,,,,,,,,,,,,,,,,,,,,,,,,,,,,,,392.3769050000119,None,395.3689913999988,None,space,0.25211729999864474,395.3689913999988,None,392.3769050000119,None,1.7292,397.38543850003043,None,None,1,397.38543850003043,None,,P001,fencog,1,Pre,2021_Jun_22_1149,N-Back (New Version 2021),2021.1.4,119.86009928730878,
,,,,Conditions/Version_1/zeroback(1)_v1.xlsx,Rule: Press 'space' when you see the letter 'x' or 'X'.,T,None,,,,,,,,,0,0,0,0,0,1,1,1,,,,,,,,,,,,,,,,,,,,,,,,,,,,,,,,,,,,,,,,,,,,,,,,,,,,,,,,,,,,,,,,,,,,,1.3262,400.7170361999888,None,None,1,400.7170361999888,None,,P001,fencog,1,Pre,2021_Jun_22_1149,N-Back (New Version 2021),2021.1.4,119.86009928730878,
,,,,Conditions/Version_1/zeroback(1)_v1.xlsx,Rule: Press 'space' when you see the letter 'x' or 'X'.,L,None,,,,,,,,,0,0,0,0,0,2,2,2,,,,,,,,,,,,,,,,,,,,,,,,,,,,,,,,,,,,,,,,,,,,,,,,,,,,,,,,,,,,,,,,,,,,,1.8408,404.5664226000081,None,None,1,404.5664226000081,None,,P001,fencog,1,Pre,2021_Jun_22_1149,N-Back (New Version 2021),2021.1.4,119.86009928730878,
,,,,Conditions/Version_1/zeroback(1)_v1.xlsx,Rule: Press 'space' when you see the letter 'x' or 'X'.,x,space,,,,,,,,,0,0,0,0,0,3,3,3,,,,,,,,,,,,,,,,,,,,,,,,,,,,,,,,,,,,,,,,,,,,,,,,,,,,,,,,,,,,,,,,,,,,,1.5618,408.13698429998476,None,space,1,408.13698429998476,None,0.28432559996144846,P001,fencog,1,Pre,2021_Jun_22_1149,N-Back (New Version 2021),2021.1.4,119.86009928730878,
,,,,Conditions/Version_1/zeroback(1)_v1.xlsx,Rule: Press 'space' when you see the letter 'x' or 'X'.,o,None,,,,,,,,,0,0,0,0,0,4,4,4,,,,,,,,,,,,,,,,,,,,,,,,,,,,,,,,,,,,,,,,,,,,,,,,,,,,,,,,,,,,,,,,,,,,,1.6982,411.83713190001436,None,None,1,411.83713190001436,None,,P001,fencog,1,Pre,2021_Jun_22_1149,N-Back (New Version 2021),2021.1.4,119.86009928730878,
,,,,Conditions/Version_1/zeroback(1)_v1.xlsx,Rule: Press 'space' when you see the letter 'x' or 'X'.,P,None,,,,,,,,,0,0,0,0,0,5,5,5,,,,,,,,,,,,,,,,,,,,,,,,,,,,,,,,,,,,,,,,,,,,,,,,,,,,,,,,,,,,,,,,,,,,,1.351,415.20245869999053,None,None,1,415.20245869999053,None,,P001,fencog,1,Pre,2021_Jun_22_1149,N-Back (New Version 2021),2021.1.4,119.86009928730878,
,,,,Conditions/Version_1/zeroback(1)_v1.xlsx,Rule: Press 'space' when you see the letter 'x' or 'X'.,X,space,,,,,,,,,0,0,0,0,0,6,6,6,,,,,,,,,,,,,,,,,,,,,,,,,,,,,,,,,,,,,,,,,,,,,,,,,,,,,,,,,,,,,,,,,,,,,1.6362,418.8502870000084,None,space,1,418.8502870000084,None,0.3229548999806866,P001,fencog,1,Pre,2021_Jun_22_1149,N-Back (New Version 2021),2021.1.4,119.86009928730878,
,,,,Conditions/Version_1/zeroback(1)_v1.xlsx,Rule: Press 'space' when you see the letter 'x' or 'X'.,n,None,,,,,,,,,0,0,0,0,0,7,7,7,,,,,,,,,,,,,,,,,,,,,,,,,,,,,,,,,,,,,,,,,,,,,,,,,,,,,,,,,,,,,,,,,,,,,1.5928,422.45057510002516,None,None,1,422.45057510002516,None,,P001,fencog,1,Pre,2021_Jun_22_1149,N-Back (New Version 2021),2021.1.4,119.86009928730878,
,,,,Conditions/Version_1/zeroback(1)_v1.xlsx,Rule: Press 'space' when you see the letter 'x' or 'X'.,M,None,,,,,,,,,0,0,0,0,0,8,8,8,,,,,,,,,,,,,,,,,,,,,,,,,,,,,,,,,,,,,,,,,,,,,,,,,,,,,,,,,,,,,,,,,,,,,1.3014,425.7690009000362,None,None,1,425.7690009000362,None,,P001,fencog,1,Pre,2021_Jun_22_1149,N-Back (New Version 2021),2021.1.4,119.86009928730878,
,,,,Conditions/Version_1/zeroback(1)_v1.xlsx,Rule: Press 'space' when you see the letter 'x' or 'X'.,a,None,,,,,,,,,0,0,0,0,0,9,9,9,,,,,,,,,,,,,,,,,,,,,,,,,,,,,,,,,,,,,,,,,,,,,,,,,,,,,,,,,,,,,,,,,,,,,1.3076,429.08389650000026,None,None,1,429.08389650000026,None,,P001,fencog,1,Pre,2021_Jun_22_1149,N-Back (New Version 2021),2021.1.4,119.86009928730878,
,,,,Conditions/Version_1/zeroback(1)_v1.xlsx,Rule: Press 'space' when you see the letter 'x' or 'X'.,,,,,,,,,,,0,0,0,0,,,,,,,,,,,,,,,,,,,,,,,,,,,,,,,,,,,,,,,,,,,,,,,,,,,,,,,,,,,,,,,,,,,,,,,,,,,,,,,,,P001,fencog,1,Pre,2021_Jun_22_1149,N-Back (New Version 2021),2021.1.4,119.86009928730878,
,,,,Conditions/Version_1/oneback(1)_v1.xlsx,New rule: Press 'space' when you see 1-back (i.e. the same letter as the one that appeared 1 letter ago.),b,None,,,,,,,,,0,1,1,1,0,0,0,0,,,,,,,,,,,,,,,,,,,,,,,,,,,,,,,,,,,,,,,,,,,,,,,,,,,,,,,,,,,431.1102823999827,None,434.09842380002374,None,space,5.70674880000297,434.09842380002374,None,431.1102823999827,None,1.6858,441.5131937999977,None,None,1,441.5131937999977,None,,P001,fencog,1,Pre,2021_Jun_22_1149,N-Back (New Version 2021),2021.1.4,119.86009928730878,
,,,,Conditions/Version_1/oneback(1)_v1.xlsx,New rule: Press 'space' when you see 1-back (i.e. the same letter as the one that appeared 1 letter ago.),p,None,,,,,,,,,0,1,1,1,0,1,1,1,,,,,,,,,,,,,,,,,,,,,,,,,,,,,,,,,,,,,,,,,,,,,,,,,,,,,,,,,,,,,,,,,,,,,1.5246,445.0450491000083,None,None,1,445.0450491000083,None,,P001,fencog,1,Pre,2021_Jun_22_1149,N-Back (New Version 2021),2021.1.4,119.86009928730878,
,,,,Conditions/Version_1/oneback(1)_v1.xlsx,New rule: Press 'space' when you see 1-back (i.e. the same letter as the one that appeared 1 letter ago.),M,None,,,,,,,,,0,1,1,1,0,2,2,2,,,,,,,,,,,,,,,,,,,,,,,,,,,,,,,,,,,,,,,,,,,,,,,,,,,,,,,,,,,,,,,,,,,,,1.0906,448.1462194999913,None,None,1,448.1462194999913,None,,P001,fencog,1,Pre,2021_Jun_22_1149,N-Back (New Version 2021),2021.1.4,119.86009928730878,
,,,,Conditions/Version_1/oneback(1)_v1.xlsx,New rule: Press 'space' when you see 1-back (i.e. the same letter as the one that appeared 1 letter ago.),M,space,,,,,,,,,0,1,1,1,0,3,3,3,,,,,,,,,,,,,,,,,,,,,,,,,,,,,,,,,,,,,,,,,,,,,,,,,,,,,,,,,,,,,,,,,,,,,1.7664,451.91590040002484,None,space,1,451.91590040002484,None,0.38512880000052974,P001,fencog,1,Pre,2021_Jun_22_1149,N-Back (New Version 2021),2021.1.4,119.86009928730878,
,,,,Conditions/Version_1/oneback(1)_v1.xlsx,New rule: Press 'space' when you see 1-back (i.e. the same letter as the one that appeared 1 letter ago.),n,None,,,,,,,,,0,1,1,1,0,4,4,4,,,,,,,,,,,,,,,,,,,,,,,,,,,,,,,,,,,,,,,,,,,,,,,,,,,,,,,,,,,,,,,,,,,,,1.3324,455.25690580002265,None,None,1,455.25690580002265,None,,P001,fencog,1,Pre,2021_Jun_22_1149,N-Back (New Version 2021),2021.1.4,119.86009928730878,
,,,,Conditions/Version_1/oneback(1)_v1.xlsx,New rule: Press 'space' when you see 1-back (i.e. the same letter as the one that appeared 1 letter ago.),g,None,,,,,,,,,0,1,1,1,0,5,5,5,,,,,,,,,,,,,,,,,,,,,,,,,,,,,,,,,,,,,,,,,,,,,,,,,,,,,,,,,,,,,,,,,,,,,1.9896,459.24693680001656,None,None,1,459.24693680001656,None,,P001,fencog,1,Pre,2021_Jun_22_1149,N-Back (New Version 2021),2021.1.4,119.86009928730878,
,,,,Conditions/Version_1/oneback(1)_v1.xlsx,New rule: Press 'space' when you see 1-back (i.e. the same letter as the one that appeared 1 letter ago.),P,None,,,,,,,,,0,1,1,1,0,6,6,6,,,,,,,,,,,,,,,,,,,,,,,,,,,,,,,,,,,,,,,,,,,,,,,,,,,,,,,,,,,,,,,,,,,,,1.3572,462.60609660000773,None,None,1,462.60609660000773,None,,P001,fencog,1,Pre,2021_Jun_22_1149,N-Back (New Version 2021),2021.1.4,119.86009928730878,
,,,,Conditions/Version_1/oneback(1)_v1.xlsx,New rule: Press 'space' when you see 1-back (i.e. the same letter as the one that appeared 1 letter ago.),o,None,,,,,,,,,0,1,1,1,0,7,7,7,,,,,,,,,,,,,,,,,,,,,,,,,,,,,,,,,,,,,,,,,,,,,,,,,,,,,,,,,,,,,,,,,,,,,1.351,465.97158499999205,None,None,1,465.97158499999205,None,,P001,fencog,1,Pre,2021_Jun_22_1149,N-Back (New Version 2021),2021.1.4,119.86009928730878,
,,,,Conditions/Version_1/oneback(1)_v1.xlsx,New rule: Press 'space' when you see 1-back (i.e. the same letter as the one that appeared 1 letter ago.),f,None,,,,,,,,,0,1,1,1,0,8,8,8,,,,,,,,,,,,,,,,,,,,,,,,,,,,,,,,,,,,,,,,,,,,,,,,,,,,,,,,,,,,,,,,,,,,,1.8966,469.881914800033,None,None,1,469.881914800033,None,,P001,fencog,1,Pre,2021_Jun_22_1149,N-Back (New Version 2021),2021.1.4,119.86009928730878,
,,,,Conditions/Version_1/oneback(1)_v1.xlsx,New rule: Press 'space' when you see 1-back (i.e. the same letter as the one that appeared 1 letter ago.),F,space,,,,,,,,,0,1,1,1,0,9,9,9,,,,,,,,,,,,,,,,,,,,,,,,,,,,,,,,,,,,,,,,,,,,,,,,,,,,,,,,,,,,,,,,,,,,,1.8718,473.763580000028,None,space,1,473.763580000028,None,0.3618650999851525,P001,fencog,1,Pre,2021_Jun_22_1149,N-Back (New Version 2021),2021.1.4,119.86009928730878,
,,,,Conditions/Version_1/oneback(1)_v1.xlsx,New rule: Press 'space' when you see 1-back (i.e. the same letter as the one that appeared 1 letter ago.),,,,,,,,,,,0,1,1,1,,,,,,,,,,,,,,,,,,,,,,,,,,,,,,,,,,,,,,,,,,,,,,,,,,,,,,,,,,,,,,,,,,,,,,,,,,,,,,,,,P001,fencog,1,Pre,2021_Jun_22_1149,N-Back (New Version 2021),2021.1.4,119.86009928730878,
,,,,Conditions/Version_1/twoback(1)_v1.xlsx,New rule: Press 'space' when you see 2-back (i.e. the same letter as the one that appeared 2 letters ago.),b,None,,,,,,,,,0,2,2,2,0,0,0,0,,,,,,,,,,,,,,,,,,,,,,,,,,,,,,,,,,,,,,,,,,,,,,,,,,,,,,,,,,,475.79740219999803,None,478.7761976000038,None,space,3.364973600022495,478.7761976000038,None,475.79740219999803,None,1.5122,483.67400880000787,None,None,1,483.67400880000787,None,,P001,fencog,1,Pre,2021_Jun_22_1149,N-Back (New Version 2021),2021.1.4,119.86009928730878,
,,,,Conditions/Version_1/twoback(1)_v1.xlsx,New rule: Press 'space' when you see 2-back (i.e. the same letter as the one that appeared 2 letters ago.),h,None,,,,,,,,,0,2,2,2,0,1,1,1,,,,,,,,,,,,,,,,,,,,,,,,,,,,,,,,,,,,,,,,,,,,,,,,,,,,,,,,,,,,,,,,,,,,,1.2084,486.8915888000047,None,None,1,486.8915888000047,None,,P001,fencog,1,Pre,2021_Jun_22_1149,N-Back (New Version 2021),2021.1.4,119.86009928730878,
,,,,Conditions/Version_1/twoback(1)_v1.xlsx,New rule: Press 'space' when you see 2-back (i.e. the same letter as the one that appeared 2 letters ago.),j,None,,,,,,,,,0,2,2,2,0,2,2,2,,,,,,,,,,,,,,,,,,,,,,,,,,,,,,,,,,,,,,,,,,,,,,,,,,,,,,,,,,,,,,,,,,,,,1.5246,490.4248578000115,None,None,1,490.4248578000115,None,,P001,fencog,1,Pre,2021_Jun_22_1149,N-Back (New Version 2021),2021.1.4,119.86009928730878,
,,,,Conditions/Version_1/twoback(1)_v1.xlsx,New rule: Press 'space' when you see 2-back (i.e. the same letter as the one that appeared 2 letters ago.),H,space,,,,,,,,,0,2,2,2,0,3,3,3,,,,,,,,,,,,,,,,,,,,,,,,,,,,,,,,,,,,,,,,,,,,,,,,,,,,,,,,,,,,,,,,,,,,,1.6486,494.07940530002816,None,space,1,494.07940530002816,None,0.38967220002086833,P001,fencog,1,Pre,2021_Jun_22_1149,N-Back (New Version 2021),2021.1.4,119.86009928730878,
,,,,Conditions/Version_1/twoback(1)_v1.xlsx,New rule: Press 'space' when you see 2-back (i.e. the same letter as the one that appeared 2 letters ago.),p,None,,,,,,,,,0,2,2,2,0,4,4,4,,,,,,,,,,,,,,,,,,,,,,,,,,,,,,,,,,,,,,,,,,,,,,,,,,,,,,,,,,,,,,,,,,,,,1.6672,497.7617874999996,None,None,1,497.7617874999996,None,,P001,fencog,1,Pre,2021_Jun_22_1149,N-Back (New Version 2021),2021.1.4,119.86009928730878,
,,,,Conditions/Version_1/twoback(1)_v1.xlsx,New rule: Press 'space' when you see 2-back (i.e. the same letter as the one that appeared 2 letters ago.),p,None,,,,,,,,,0,2,2,2,0,5,5,5,,,,,,,,,,,,,,,,,,,,,,,,,,,,,,,,,,,,,,,,,,,,,,,,,,,,,,,,,,,,,,,,,,,,,1.63,501.4010216000024,None,space,0,501.4010216000024,None,0.46841289999429137,P001,fencog,1,Pre,2021_Jun_22_1149,N-Back (New Version 2021),2021.1.4,119.86009928730878,
,,,,Conditions/Version_1/twoback(1)_v1.xlsx,New rule: Press 'space' when you see 2-back (i.e. the same letter as the one that appeared 2 letters ago.),w,None,,,,,,,,,0,2,2,2,0,6,6,6,,,,,,,,,,,,,,,,,,,,,,,,,,,,,,,,,,,,,,,,,,,,,,,,,,,,,,,,,,,,,,,,,,,,,1.6424,505.051569400006,None,None,1,505.051569400006,None,,P001,fencog,1,Pre,2021_Jun_22_1149,N-Back (New Version 2021),2021.1.4,119.86009928730878,
,,,,Conditions/Version_1/twoback(1)_v1.xlsx,New rule: Press 'space' when you see 2-back (i.e. the same letter as the one that appeared 2 letters ago.),R,None,,,,,,,,,0,2,2,2,0,7,7,7,,,,,,,,,,,,,,,,,,,,,,,,,,,,,,,,,,,,,,,,,,,,,,,,,,,,,,,,,,,,,,,,,,,,,1.723,508.7853761999868,None,None,1,508.7853761999868,None,,P001,fencog,1,Pre,2021_Jun_22_1149,N-Back (New Version 2021),2021.1.4,119.86009928730878,
,,,,Conditions/Version_1/twoback(1)_v1.xlsx,New rule: Press 'space' when you see 2-back (i.e. the same letter as the one that appeared 2 letters ago.),a,None,,,,,,,,,0,2,2,2,0,8,8,8,,,,,,,,,,,,,,,,,,,,,,,,,,,,,,,,,,,,,,,,,,,,,,,,,,,,,,,,,,,,,,,,,,,,,1.2704,512.0665564999799,None,None,1,512.0665564999799,None,,P001,fencog,1,Pre,2021_Jun_22_1149,N-Back (New Version 2021),2021.1.4,119.86009928730878,
,,,,Conditions/Version_1/twoback(1)_v1.xlsx,New rule: Press 'space' when you see 2-back (i.e. the same letter as the one that appeared 2 letters ago.),r,space,,,,,,,,,0,2,2,2,0,9,9,9,,,,,,,,,,,,,,,,,,,,,,,,,,,,,,,,,,,,,,,,,,,,,,,,,,,,,,,,,,,,,,,,,,,,,1.1898,515.2657134000328,None,space,1,515.2657134000328,None,0.33148110000183806,P001,fencog,1,Pre,2021_Jun_22_1149,N-Back (New Version 2021),2021.1.4,119.86009928730878,
,,,,Conditions/Version_1/twoback(1)_v1.xlsx,New rule: Press 'space' when you see 2-back (i.e. the same letter as the one that appeared 2 letters ago.),,,,,,,,,,,0,2,2,2,,,,,,,,,,,,,,,,,,,,,,,,,,,,,,,,,,,,,,,,,,,,,,,,,,,,,,,,,,,,,,,,,,,,,,,,,,,,,,,,,P001,fencog,1,Pre,2021_Jun_22_1149,N-Back (New Version 2021),2021.1.4,119.86009928730878,
,,,,Conditions/Version_1/threeback(1)_v1.xlsx,New rule: Press 'space' when you see 3-back (i.e. the same letter as the one that appeared 3 letters ago.),r,None,,,,,,,,,0,3,3,3,0,0,0,0,,,,,,,,,,,,,,,,,,,,,,,,,,,,,,,,,,,,,,,,,,,,,,,,,,,,,,,,,,,517.2968606000068,None,520.2815223000362,None,space,9.027384900022298,520.2815223000362,None,517.2968606000068,None,1.8346,531.1838201000355,None,None,1,531.1838201000355,None,,P001,fencog,1,Pre,2021_Jun_22_1149,N-Back (New Version 2021),2021.1.4,119.86009928730878,
,,,,Conditions/Version_1/threeback(1)_v1.xlsx,New rule: Press 'space' when you see 3-back (i.e. the same letter as the one that appeared 3 letters ago.),o,None,,,,,,,,,0,3,3,3,0,1,1,1,,,,,,,,,,,,,,,,,,,,,,,,,,,,,,,,,,,,,,,,,,,,,,,,,,,,,,,,,,,,,,,,,,,,,1.9648,535.1507939000148,None,None,1,535.1507939000148,None,,P001,fencog,1,Pre,2021_Jun_22_1149,N-Back (New Version 2021),2021.1.4,119.86009928730878,
,,,,Conditions/Version_1/threeback(1)_v1.xlsx,New rule: Press 'space' when you see 3-back (i.e. the same letter as the one that appeared 3 letters ago.),P,None,,,,,,,,,0,3,3,3,0,2,2,2,,,,,,,,,,,,,,,,,,,,,,,,,,,,,,,,,,,,,,,,,,,,,,,,,,,,,,,,,,,,,,,,,,,,,1.7788,538.9411087000044,None,None,1,538.9411087000044,None,,P001,fencog,1,Pre,2021_Jun_22_1149,N-Back (New Version 2021),2021.1.4,119.86009928730878,
,,,,Conditions/Version_1/threeback(1)_v1.xlsx,New rule: Press 'space' when you see 3-back (i.e. the same letter as the one that appeared 3 letters ago.),R,space,,,,,,,,,0,3,3,3,0,3,3,3,,,,,,,,,,,,,,,,,,,,,,,,,,,,,,,,,,,,,,,,,,,,,,,,,,,,,,,,,,,,,,,,,,,,,1.1154,542.0671850999934,None,space,1,542.0671850999934,None,0.7055969000211917,P001,fencog,1,Pre,2021_Jun_22_1149,N-Back (New Version 2021),2021.1.4,119.86009928730878,
,,,,Conditions/Version_1/threeback(1)_v1.xlsx,New rule: Press 'space' when you see 3-back (i.e. the same letter as the one that appeared 3 letters ago.),p,None,,,,,,,,,0,3,3,3,0,4,4,4,,,,,,,,,,,,,,,,,,,,,,,,,,,,,,,,,,,,,,,,,,,,,,,,,,,,,,,,,,,,,,,,,,,,,1.8284,545.9057612000033,None,space,0,545.9057612000033,None,0.7633309999946505,P001,fencog,1,Pre,2021_Jun_22_1149,N-Back (New Version 2021),2021.1.4,119.86009928730878,
,,,,Conditions/Version_1/threeback(1)_v1.xlsx,New rule: Press 'space' when you see 3-back (i.e. the same letter as the one that appeared 3 letters ago.),E,None,,,,,,,,,0,3,3,3,0,5,5,5,,,,,,,,,,,,,,,,,,,,,,,,,,,,,,,,,,,,,,,,,,,,,,,,,,,,,,,,,,,,,,,,,,,,,1.1898,549.105727999995,None,None,1,549.105727999995,None,,P001,fencog,1,Pre,2021_Jun_22_1149,N-Back (New Version 2021),2021.1.4,119.86009928730878,
,,,,Conditions/Version_1/threeback(1)_v1.xlsx,New rule: Press 'space' when you see 3-back (i.e. the same letter as the one that appeared 3 letters ago.),e,None,,,,,,,,,0,3,3,3,0,6,6,6,,,,,,,,,,,,,,,,,,,,,,,,,,,,,,,,,,,,,,,,,,,,,,,,,,,,,,,,,,,,,,,,,,,,,1.103,552.2204533999902,None,None,1,552.2204533999902,None,,P001,fencog,1,Pre,2021_Jun_22_1149,N-Back (New Version 2021),2021.1.4,119.86009928730878,
,,,,Conditions/Version_1/threeback(1)_v1.xlsx,New rule: Press 'space' when you see 3-back (i.e. the same letter as the one that appeared 3 letters ago.),m,None,,,,,,,,,0,3,3,3,0,7,7,7,,,,,,,,,,,,,,,,,,,,,,,,,,,,,,,,,,,,,,,,,,,,,,,,,,,,,,,,,,,,,,,,,,,,,1.9214,556.1547277999925,None,None,1,556.1547277999925,None,,P001,fencog,1,Pre,2021_Jun_22_1149,N-Back (New Version 2021),2021.1.4,119.86009928730878,
,,,,Conditions/Version_1/threeback(1)_v1.xlsx,New rule: Press 'space' when you see 3-back (i.e. the same letter as the one that appeared 3 letters ago.),n,None,,,,,,,,,0,3,3,3,0,8,8,8,,,,,,,,,,,,,,,,,,,,,,,,,,,,,,,,,,,,,,,,,,,,,,,,,,,,,,,,,,,,,,,,,,,,,1.754,559.9193289999967,None,None,1,559.9193289999967,None,,P001,fencog,1,Pre,2021_Jun_22_1149,N-Back (New Version 2021),2021.1.4,119.86009928730878,
,,,,Conditions/Version_1/threeback(1)_v1.xlsx,New rule: Press 'space' when you see 3-back (i.e. the same letter as the one that appeared 3 letters ago.),e,space,,,,,,,,,0,3,3,3,0,9,9,9,,,,,,,,,,,,,,,,,,,,,,,,,,,,,,,,,,,,,,,,,,,,,,,,,,,,,,,,,,,,,,,,,,,,,1.8718,563.8003566000261,None,space,1,563.8003566000261,None,0.972533599997405,P001,fencog,1,Pre,2021_Jun_22_1149,N-Back (New Version 2021),2021.1.4,119.86009928730878,
,,,,Conditions/Version_1/threeback(1)_v1.xlsx,New rule: Press 'space' when you see 3-back (i.e. the same letter as the one that appeared 3 letters ago.),,,,,,,,,,,0,3,3,3,,,,,,,,,,,,,,,,,,,,,,,,,,,,,,,,,,,,,,,,,,,,,,,,,,,,,,,,,,,,,,,,,,,,,,,,,,,,,,,,,P001,fencog,1,Pre,2021_Jun_22_1149,N-Back (New Version 2021),2021.1.4,119.86009928730878,
,,,,Conditions/Version_1/oneback(2)_v1.xlsx,New rule: Press 'space' when you see 1-back (i.e. the same letter as the one that appeared 1 letter ago.),q,None,,,,,,,,,0,4,4,4,0,0,0,0,,,,,,,,,,,,,,,,,,,,,,,,,,,,,,,,,,,,,,,,,,,,,,,,,,,,,,,,,,,565.8318368000328,None,568.8168263999978,None,space,1.0198450000025332,568.8168263999978,None,565.8318368000328,None,1.4068,571.2887961000088,None,None,1,571.2887961000088,None,,P001,fencog,1,Pre,2021_Jun_22_1149,N-Back (New Version 2021),2021.1.4,119.86009928730878,
,,,,Conditions/Version_1/oneback(2)_v1.xlsx,New rule: Press 'space' when you see 1-back (i.e. the same letter as the one that appeared 1 letter ago.),Q,space,,,,,,,,,0,4,4,4,0,1,1,1,,,,,,,,,,,,,,,,,,,,,,,,,,,,,,,,,,,,,,,,,,,,,,,,,,,,,,,,,,,,,,,,,,,,,1.1464,574.4401570000337,None,space,1,574.4401570000337,None,0.3409074999508448,P001,fencog,1,Pre,2021_Jun_22_1149,N-Back (New Version 2021),2021.1.4,119.86009928730878,
,,,,Conditions/Version_1/oneback(2)_v1.xlsx,New rule: Press 'space' when you see 1-back (i.e. the same letter as the one that appeared 1 letter ago.),P,None,,,,,,,,,0,4,4,4,0,2,2,2,,,,,,,,,,,,,,,,,,,,,,,,,,,,,,,,,,,,,,,,,,,,,,,,,,,,,,,,,,,,,,,,,,,,,1.8656,578.3119242999819,None,None,1,578.3119242999819,None,,P001,fencog,1,Pre,2021_Jun_22_1149,N-Back (New Version 2021),2021.1.4,119.86009928730878,
,,,,Conditions/Version_1/oneback(2)_v1.xlsx,New rule: Press 'space' when you see 1-back (i.e. the same letter as the one that appeared 1 letter ago.),o,None,,,,,,,,,0,4,4,4,0,3,3,3,,,,,,,,,,,,,,,,,,,,,,,,,,,,,,,,,,,,,,,,,,,,,,,,,,,,,,,,,,,,,,,,,,,,,1.1092,581.4292643999797,None,None,1,581.4292643999797,None,,P001,fencog,1,Pre,2021_Jun_22_1149,N-Back (New Version 2021),2021.1.4,119.86009928730878,
,,,,Conditions/Version_1/oneback(2)_v1.xlsx,New rule: Press 'space' when you see 1-back (i.e. the same letter as the one that appeared 1 letter ago.),m,None,,,,,,,,,0,4,4,4,0,4,4,4,,,,,,,,,,,,,,,,,,,,,,,,,,,,,,,,,,,,,,,,,,,,,,,,,,,,,,,,,,,,,,,,,,,,,1.8904,585.326200600015,None,None,1,585.326200600015,None,,P001,fencog,1,Pre,2021_Jun_22_1149,N-Back (New Version 2021),2021.1.4,119.86009928730878,
,,,,Conditions/Version_1/oneback(2)_v1.xlsx,New rule: Press 'space' when you see 1-back (i.e. the same letter as the one that appeared 1 letter ago.),Z,None,,,,,,,,,0,4,4,4,0,5,5,5,,,,,,,,,,,,,,,,,,,,,,,,,,,,,,,,,,,,,,,,,,,,,,,,,,,,,,,,,,,,,,,,,,,,,1.4254,588.7550468000118,None,None,1,588.7550468000118,None,,P001,fencog,1,Pre,2021_Jun_22_1149,N-Back (New Version 2021),2021.1.4,119.86009928730878,
,,,,Conditions/Version_1/oneback(2)_v1.xlsx,New rule: Press 'space' when you see 1-back (i.e. the same letter as the one that appeared 1 letter ago.),c,None,,,,,,,,,0,4,4,4,0,6,6,6,,,,,,,,,,,,,,,,,,,,,,,,,,,,,,,,,,,,,,,,,,,,,,,,,,,,,,,,,,,,,,,,,,,,,1.8966,592.6611155000282,None,None,1,592.6611155000282,None,,P001,fencog,1,Pre,2021_Jun_22_1149,N-Back (New Version 2021),2021.1.4,119.86009928730878,
,,,,Conditions/Version_1/oneback(2)_v1.xlsx,New rule: Press 'space' when you see 1-back (i.e. the same letter as the one that appeared 1 letter ago.),c,space,,,,,,,,,0,4,4,4,0,7,7,7,,,,,,,,,,,,,,,,,,,,,,,,,,,,,,,,,,,,,,,,,,,,,,,,,,,,,,,,,,,,,,,,,,,,,1.4626,596.1314368000021,None,space,1,596.1314368000021,None,0.35360400000354275,P001,fencog,1,Pre,2021_Jun_22_1149,N-Back (New Version 2021),2021.1.4,119.86009928730878,
,,,,Conditions/Version_1/oneback(2)_v1.xlsx,New rule: Press 'space' when you see 1-back (i.e. the same letter as the one that appeared 1 letter ago.),P,None,,,,,,,,,0,4,4,4,0,8,8,8,,,,,,,,,,,,,,,,,,,,,,,,,,,,,,,,,,,,,,,,,,,,,,,,,,,,,,,,,,,,,,,,,,,,,1.413,599.5491560000228,None,None,1,599.5491560000228,None,,P001,fencog,1,Pre,2021_Jun_22_1149,N-Back (New Version 2021),2021.1.4,119.86009928730878,
,,,,Conditions/Version_1/oneback(2)_v1.xlsx,New rule: Press 'space' when you see 1-back (i.e. the same letter as the one that appeared 1 letter ago.),p,space,,,,,,,,,0,4,4,4,0,9,9,9,,,,,,,,,,,,,,,,,,,,,,,,,,,,,,,,,,,,,,,,,,,,,,,,,,,,,,,,,,,,,,,,,,,,,1.475,603.0320482000243,None,space,1,603.0320482000243,None,0.2929514999850653,P001,fencog,1,Pre,2021_Jun_22_1149,N-Back (New Version 2021),2021.1.4,119.86009928730878,
,,,,Conditions/Version_1/oneback(2)_v1.xlsx,New rule: Press 'space' when you see 1-back (i.e. the same letter as the one that appeared 1 letter ago.),,,,,,,,,,,0,4,4,4,,,,,,,,,,,,,,,,,,,,,,,,,,,,,,,,,,,,,,,,,,,,,,,,,,,,,,,,,,,,,,,,,,,,,,,,,,,,,,,,,P001,fencog,1,Pre,2021_Jun_22_1149,N-Back (New Version 2021),2021.1.4,119.86009928730878,
,,,,Conditions/Version_1/zeroback(2)_v1.xlsx,New rule: Press 'space' when you see the letter 'x' or 'X'.,p,None,,,,,,,,,0,5,5,5,0,0,0,0,,,,,,,,,,,,,,,,,,,,,,,,,,,,,,,,,,,,,,,,,,,,,,,,,,,,,,,,,,,605.0575547000044,None,608.0461845999816,None,space,1.7267942000180483,608.0461845999816,None,605.0575547000044,None,1.847,611.6435117000365,None,None,1,611.6435117000365,None,,P001,fencog,1,Pre,2021_Jun_22_1149,N-Back (New Version 2021),2021.1.4,119.86009928730878,
,,,,Conditions/Version_1/zeroback(2)_v1.xlsx,New rule: Press 'space' when you see the letter 'x' or 'X'.,L,None,,,,,,,,,0,5,5,5,0,1,1,1,,,,,,,,,,,,,,,,,,,,,,,,,,,,,,,,,,,,,,,,,,,,,,,,,,,,,,,,,,,,,,,,,,,,,1.8346,615.4879264000338,None,None,1,615.4879264000338,None,,P001,fencog,1,Pre,2021_Jun_22_1149,N-Back (New Version 2021),2021.1.4,119.86009928730878,
,,,,Conditions/Version_1/zeroback(2)_v1.xlsx,New rule: Press 'space' when you see the letter 'x' or 'X'.,G,None,,,,,,,,,0,5,5,5,0,2,2,2,,,,,,,,,,,,,,,,,,,,,,,,,,,,,,,,,,,,,,,,,,,,,,,,,,,,,,,,,,,,,,,,,,,,,1.5494,619.0420891999966,None,None,1,619.0420891999966,None,,P001,fencog,1,Pre,2021_Jun_22_1149,N-Back (New Version 2021),2021.1.4,119.86009928730878,
,,,,Conditions/Version_1/zeroback(2)_v1.xlsx,New rule: Press 'space' when you see the letter 'x' or 'X'.,y,None,,,,,,,,,0,5,5,5,0,3,3,3,,,,,,,,,,,,,,,,,,,,,,,,,,,,,,,,,,,,,,,,,,,,,,,,,,,,,,,,,,,,,,,,,,,,,1.5804,622.638187900011,None,None,1,622.638187900011,None,,P001,fencog,1,Pre,2021_Jun_22_1149,N-Back (New Version 2021),2021.1.4,119.86009928730878,
,,,,Conditions/Version_1/zeroback(2)_v1.xlsx,New rule: Press 'space' when you see the letter 'x' or 'X'.,Y,None,,,,,,,,,0,5,5,5,0,4,4,4,,,,,,,,,,,,,,,,,,,,,,,,,,,,,,,,,,,,,,,,,,,,,,,,,,,,,,,,,,,,,,,,,,,,,1.8594,626.5075390000129,None,None,1,626.5075390000129,None,,P001,fencog,1,Pre,2021_Jun_22_1149,N-Back (New Version 2021),2021.1.4,119.86009928730878,
,,,,Conditions/Version_1/zeroback(2)_v1.xlsx,New rule: Press 'space' when you see the letter 'x' or 'X'.,W,None,,,,,,,,,0,5,5,5,0,5,5,5,,,,,,,,,,,,,,,,,,,,,,,,,,,,,,,,,,,,,,,,,,,,,,,,,,,,,,,,,,,,,,,,,,,,,1.3634,629.8811226999969,None,None,1,629.8811226999969,None,,P001,fencog,1,Pre,2021_Jun_22_1149,N-Back (New Version 2021),2021.1.4,119.86009928730878,
,,,,Conditions/Version_1/zeroback(2)_v1.xlsx,New rule: Press 'space' when you see the letter 'x' or 'X'.,x,space,,,,,,,,,0,5,5,5,0,6,6,6,,,,,,,,,,,,,,,,,,,,,,,,,,,,,,,,,,,,,,,,,,,,,,,,,,,,,,,,,,,,,,,,,,,,,1.2332,633.1217749000061,None,space,1,633.1217749000061,None,0.41907000000355765,P001,fencog,1,Pre,2021_Jun_22_1149,N-Back (New Version 2021),2021.1.4,119.86009928730878,
,,,,Conditions/Version_1/zeroback(2)_v1.xlsx,New rule: Press 'space' when you see the letter 'x' or 'X'.,X,space,,,,,,,,,0,5,5,5,0,7,7,7,,,,,,,,,,,,,,,,,,,,,,,,,,,,,,,,,,,,,,,,,,,,,,,,,,,,,,,,,,,,,,,,,,,,,1.63,636.7632844999898,None,space,1,636.7632844999898,None,0.3134827999747358,P001,fencog,1,Pre,2021_Jun_22_1149,N-Back (New Version 2021),2021.1.4,119.86009928730878,
,,,,Conditions/Version_1/zeroback(2)_v1.xlsx,New rule: Press 'space' when you see the letter 'x' or 'X'.,p,None,,,,,,,,,0,5,5,5,0,8,8,8,,,,,,,,,,,,,,,,,,,,,,,,,,,,,,,,,,,,,,,,,,,,,,,,,,,,,,,,,,,,,,,,,,,,,1.5432,640.3193894000142,None,None,1,640.3193894000142,None,,P001,fencog,1,Pre,2021_Jun_22_1149,N-Back (New Version 2021),2021.1.4,119.86009928730878,
,,,,Conditions/Version_1/zeroback(2)_v1.xlsx,New rule: Press 'space' when you see the letter 'x' or 'X'.,h,None,,,,,,,,,0,5,5,5,0,9,9,9,,,,,,,,,,,,,,,,,,,,,,,,,,,,,,,,,,,,,,,,,,,,,,,,,,,,,,,,,,,,,,,,,,,,,1.3076,643.6359921999974,None,None,1,643.6359921999974,None,,P001,fencog,1,Pre,2021_Jun_22_1149,N-Back (New Version 2021),2021.1.4,119.86009928730878,
,,,,Conditions/Version_1/zeroback(2)_v1.xlsx,New rule: Press 'space' when you see the letter 'x' or 'X'.,,,,,,,,,,,0,5,5,5,,,,,,,,,,,,,,,,,,,,,,,,,,,,,,,,,,,,,,,,,,,,,,,,,,,,,,,,,,,,,,,,,,,,,,,,,,,,,,,,,P001,fencog,1,Pre,2021_Jun_22_1149,N-Back (New Version 2021),2021.1.4,119.86009928730878,
,,,,Conditions/Version_1/threeback(2)_v1.xlsx,New rule: Press 'space' when you see 3-back (i.e. the same letter as the one that appeared 3 letters ago.),q,None,,,,,,,,,0,6,6,6,0,0,0,0,,,,,,,,,,,,,,,,,,,,,,,,,,,,,,,,,,,,,,,,,,,,,,,,,,,,,,,,,,,645.6663089999929,None,648.6515108000021,None,space,3.54520059999777,648.6515108000021,None,645.6663089999929,None,1.4378,653.6581499000313,None,None,1,653.6581499000313,None,,P001,fencog,1,Pre,2021_Jun_22_1149,N-Back (New Version 2021),2021.1.4,119.86009928730878,
,,,,Conditions/Version_1/threeback(2)_v1.xlsx,New rule: Press 'space' when you see 3-back (i.e. the same letter as the one that appeared 3 letters ago.),Y,None,,,,,,,,,0,6,6,6,0,1,1,1,,,,,,,,,,,,,,,,,,,,,,,,,,,,,,,,,,,,,,,,,,,,,,,,,,,,,,,,,,,,,,,,,,,,,1.1526,656.8245252000052,None,None,1,656.8245252000052,None,,P001,fencog,1,Pre,2021_Jun_22_1149,N-Back (New Version 2021),2021.1.4,119.86009928730878,
,,,,Conditions/Version_1/threeback(2)_v1.xlsx,New rule: Press 'space' when you see 3-back (i.e. the same letter as the one that appeared 3 letters ago.),p,None,,,,,,,,,0,6,6,6,0,2,2,2,,,,,,,,,,,,,,,,,,,,,,,,,,,,,,,,,,,,,,,,,,,,,,,,,,,,,,,,,,,,,,,,,,,,,1.9152,660.7474266000208,None,None,1,660.7474266000208,None,,P001,fencog,1,Pre,2021_Jun_22_1149,N-Back (New Version 2021),2021.1.4,119.86009928730878,
,,,,Conditions/Version_1/threeback(2)_v1.xlsx,New rule: Press 'space' when you see 3-back (i.e. the same letter as the one that appeared 3 letters ago.),p,None,,,,,,,,,0,6,6,6,0,3,3,3,,,,,,,,,,,,,,,,,,,,,,,,,,,,,,,,,,,,,,,,,,,,,,,,,,,,,,,,,,,,,,,,,,,,,1.0906,663.8446318000206,None,space,0,663.8446318000206,None,0.5682288999669254,P001,fencog,1,Pre,2021_Jun_22_1149,N-Back (New Version 2021),2021.1.4,119.86009928730878,
,,,,Conditions/Version_1/threeback(2)_v1.xlsx,New rule: Press 'space' when you see 3-back (i.e. the same letter as the one that appeared 3 letters ago.),y,space,,,,,,,,,0,6,6,6,0,4,4,4,,,,,,,,,,,,,,,,,,,,,,,,,,,,,,,,,,,,,,,,,,,,,,,,,,,,,,,,,,,,,,,,,,,,,1.0162,666.8642699000193,None,space,1,666.8642699000193,None,1.1483507999801077,P001,fencog,1,Pre,2021_Jun_22_1149,N-Back (New Version 2021),2021.1.4,119.86009928730878,
,,,,Conditions/Version_1/threeback(2)_v1.xlsx,New rule: Press 'space' when you see 3-back (i.e. the same letter as the one that appeared 3 letters ago.),u,None,,,,,,,,,0,6,6,6,0,5,5,5,,,,,,,,,,,,,,,,,,,,,,,,,,,,,,,,,,,,,,,,,,,,,,,,,,,,,,,,,,,,,,,,,,,,,1.2022,670.0770772999967,None,None,1,670.0770772999967,None,,P001,fencog,1,Pre,2021_Jun_22_1149,N-Back (New Version 2021),2021.1.4,119.86009928730878,
,,,,Conditions/Version_1/threeback(2)_v1.xlsx,New rule: Press 'space' when you see 3-back (i.e. the same letter as the one that appeared 3 letters ago.),P,space,,,,,,,,,0,6,6,6,0,6,6,6,,,,,,,,,,,,,,,,,,,,,,,,,,,,,,,,,,,,,,,,,,,,,,,,,,,,,,,,,,,,,,,,,,,,,1.5432,673.6340950999875,None,space,1,673.6340950999875,None,1.642622700019274,P001,fencog,1,Pre,2021_Jun_22_1149,N-Back (New Version 2021),2021.1.4,119.86009928730878,
,,,,Conditions/Version_1/threeback(2)_v1.xlsx,New rule: Press 'space' when you see 3-back (i.e. the same letter as the one that appeared 3 letters ago.),a,None,,,,,,,,,0,6,6,6,0,7,7,7,,,,,,,,,,,,,,,,,,,,,,,,,,,,,,,,,,,,,,,,,,,,,,,,,,,,,,,,,,,,,,,,,,,,,1.8284,677.476957899984,None,None,1,677.476957899984,None,,P001,fencog,1,Pre,2021_Jun_22_1149,N-Back (New Version 2021),2021.1.4,119.86009928730878,
,,,,Conditions/Version_1/threeback(2)_v1.xlsx,New rule: Press 'space' when you see 3-back (i.e. the same letter as the one that appeared 3 letters ago.),U,space,,,,,,,,,0,6,6,6,0,8,8,8,,,,,,,,,,,,,,,,,,,,,,,,,,,,,,,,,,,,,,,,,,,,,,,,,,,,,,,,,,,,,,,,,,,,,1.1278,680.6190697000129,None,space,1,680.6190697000129,None,0.9137059999629855,P001,fencog,1,Pre,2021_Jun_22_1149,N-Back (New Version 2021),2021.1.4,119.86009928730878,
,,,,Conditions/Version_1/threeback(2)_v1.xlsx,New rule: Press 'space' when you see 3-back (i.e. the same letter as the one that appeared 3 letters ago.),q,None,,,,,,,,,0,6,6,6,0,9,9,9,,,,,,,,,,,,,,,,,,,,,,,,,,,,,,,,,,,,,,,,,,,,,,,,,,,,,,,,,,,,,,,,,,,,,1.9772,684.605224400002,None,None,1,684.605224400002,None,,P001,fencog,1,Pre,2021_Jun_22_1149,N-Back (New Version 2021),2021.1.4,119.86009928730878,
,,,,Conditions/Version_1/threeback(2)_v1.xlsx,New rule: Press 'space' when you see 3-back (i.e. the same letter as the one that appeared 3 letters ago.),,,,,,,,,,,0,6,6,6,,,,,,,,,,,,,,,,,,,,,,,,,,,,,,,,,,,,,,,,,,,,,,,,,,,,,,,,,,,,,,,,,,,,,,,,,,,,,,,,,P001,fencog,1,Pre,2021_Jun_22_1149,N-Back (New Version 2021),2021.1.4,119.86009928730878,
,,,,Conditions/Version_1/twoback(2)_v1.xlsx,New rule: Press 'space' when you see 2-back (i.e. the same letter as the one that appeared 2 letters ago.),q,None,,,,,,,,,0,7,7,7,0,0,0,0,,,,,,,,,,,,,,,,,,,,,,,,,,,,,,,,,,,,,,,,,,,,,,,,,,,,,,,,,,,686.6297213000362,None,689.6142781000235,None,space,0.11041830002795905,689.6142781000235,None,686.6297213000362,None,1.7044,691.4535506999819,None,None,1,691.4535506999819,None,,P001,fencog,1,Pre,2021_Jun_22_1149,N-Back (New Version 2021),2021.1.4,119.86009928730878,
,,,,Conditions/Version_1/twoback(2)_v1.xlsx,New rule: Press 'space' when you see 2-back (i.e. the same letter as the one that appeared 2 letters ago.),r,None,,,,,,,,,0,7,7,7,0,1,1,1,,,,,,,,,,,,,,,,,,,,,,,,,,,,,,,,,,,,,,,,,,,,,,,,,,,,,,,,,,,,,,,,,,,,,1.01,694.4691469999962,None,None,1,694.4691469999962,None,,P001,fencog,1,Pre,2021_Jun_22_1149,N-Back (New Version 2021),2021.1.4,119.86009928730878,
,,,,Conditions/Version_1/twoback(2)_v1.xlsx,New rule: Press 'space' when you see 2-back (i.e. the same letter as the one that appeared 2 letters ago.),q,space,,,,,,,,,0,7,7,7,0,2,2,2,,,,,,,,,,,,,,,,,,,,,,,,,,,,,,,,,,,,,,,,,,,,,,,,,,,,,,,,,,,,,,,,,,,,,1.2518,697.7273472999805,None,space,1,697.7273472999805,None,0.49597760004689917,P001,fencog,1,Pre,2021_Jun_22_1149,N-Back (New Version 2021),2021.1.4,119.86009928730878,
,,,,Conditions/Version_1/twoback(2)_v1.xlsx,New rule: Press 'space' when you see 2-back (i.e. the same letter as the one that appeared 2 letters ago.),P,None,,,,,,,,,0,7,7,7,0,3,3,3,,,,,,,,,,,,,,,,,,,,,,,,,,,,,,,,,,,,,,,,,,,,,,,,,,,,,,,,,,,,,,,,,,,,,1.6052,701.344056300004,None,None,1,701.344056300004,None,,P001,fencog,1,Pre,2021_Jun_22_1149,N-Back (New Version 2021),2021.1.4,119.86009928730878,
,,,,Conditions/Version_1/twoback(2)_v1.xlsx,New rule: Press 'space' when you see 2-back (i.e. the same letter as the one that appeared 2 letters ago.),p,None,,,,,,,,,0,7,7,7,0,4,4,4,,,,,,,,,,,,,,,,,,,,,,,,,,,,,,,,,,,,,,,,,,,,,,,,,,,,,,,,,,,,,,,,,,,,,1.7664,705.1247068999801,None,None,1,705.1247068999801,None,,P001,fencog,1,Pre,2021_Jun_22_1149,N-Back (New Version 2021),2021.1.4,119.86009928730878,
,,,,Conditions/Version_1/twoback(2)_v1.xlsx,New rule: Press 'space' when you see 2-back (i.e. the same letter as the one that appeared 2 letters ago.),H,None,,,,,,,,,0,7,7,7,0,5,5,5,,,,,,,,,,,,,,,,,,,,,,,,,,,,,,,,,,,,,,,,,,,,,,,,,,,,,,,,,,,,,,,,,,,,,1.258,708.3912637000321,None,None,1,708.3912637000321,None,,P001,fencog,1,Pre,2021_Jun_22_1149,N-Back (New Version 2021),2021.1.4,119.86009928730878,
,,,,Conditions/Version_1/twoback(2)_v1.xlsx,New rule: Press 'space' when you see 2-back (i.e. the same letter as the one that appeared 2 letters ago.),g,None,,,,,,,,,0,7,7,7,0,6,6,6,,,,,,,,,,,,,,,,,,,,,,,,,,,,,,,,,,,,,,,,,,,,,,,,,,,,,,,,,,,,,,,,,,,,,1.2642,711.6652568000136,None,None,1,711.6652568000136,None,,P001,fencog,1,Pre,2021_Jun_22_1149,N-Back (New Version 2021),2021.1.4,119.86009928730878,
,,,,Conditions/Version_1/twoback(2)_v1.xlsx,New rule: Press 'space' when you see 2-back (i.e. the same letter as the one that appeared 2 letters ago.),j,None,,,,,,,,,0,7,7,7,0,7,7,7,,,,,,,,,,,,,,,,,,,,,,,,,,,,,,,,,,,,,,,,,,,,,,,,,,,,,,,,,,,,,,,,,,,,,1.7974,715.4750094999908,None,None,1,715.4750094999908,None,,P001,fencog,1,Pre,2021_Jun_22_1149,N-Back (New Version 2021),2021.1.4,119.86009928730878,
,,,,Conditions/Version_1/twoback(2)_v1.xlsx,New rule: Press 'space' when you see 2-back (i.e. the same letter as the one that appeared 2 letters ago.),g,space,,,,,,,,,0,7,7,7,0,8,8,8,,,,,,,,,,,,,,,,,,,,,,,,,,,,,,,,,,,,,,,,,,,,,,,,,,,,,,,,,,,,,,,,,,,,,1.9152,719.3949437999981,None,space,1,719.3949437999981,None,0.3694588000071235,P001,fencog,1,Pre,2021_Jun_22_1149,N-Back (New Version 2021),2021.1.4,119.86009928730878,
,,,,Conditions/Version_1/twoback(2)_v1.xlsx,New rule: Press 'space' when you see 2-back (i.e. the same letter as the one that appeared 2 letters ago.),G,None,,,,,,,,,0,7,7,7,0,9,9,9,,,,,,,,,,,,,,,,,,,,,,,,,,,,,,,,,,,,,,,,,,,,,,,,,,,,,,,,,,,,,,,,,,,,,1.8718,723.277178600023,None,None,1,723.277178600023,None,,P001,fencog,1,Pre,2021_Jun_22_1149,N-Back (New Version 2021),2021.1.4,119.86009928730878,
,,,,Conditions/Version_1/twoback(2)_v1.xlsx,New rule: Press 'space' when you see 2-back (i.e. the same letter as the one that appeared 2 letters ago.),,,,,,,,,,,0,7,7,7,,,,,,,,,,,,,,,,,,,,,,,,,,,,,,,,,,,,,,,,,,,,,,,,,,,,,,,,,,,,,,,,,,,,,,,,,,,,,,,,,P001,fencog,1,Pre,2021_Jun_22_1149,N-Back (New Version 2021),2021.1.4,119.86009928730878,
,,,,Conditions/Version_1/threeback(3)_v1.xlsx,New rule: Press 'space' when you see 3-back (i.e. the same letter as the one that appeared 3 letters ago.),w,None,,,,,,,,,0,8,8,8,0,0,0,0,,,,,,,,,,,,,,,,,,,,,,,,,,,,,,,,,,,,,,,,,,,,,,,,,,,,,,,,,,,725.302271099994,None,728.2862527000252,None,space,37.80628880002769,728.2862527000252,None,725.302271099994,None,1.01,767.1388496999862,None,None,1,767.1388496999862,None,,P001,fencog,1,Pre,2021_Jun_22_1149,N-Back (New Version 2021),2021.1.4,119.86009928730878,
,,,,Conditions/Version_1/threeback(3)_v1.xlsx,New rule: Press 'space' when you see 3-back (i.e. the same letter as the one that appeared 3 letters ago.),p,None,,,,,,,,,0,8,8,8,0,1,1,1,,,,,,,,,,,,,,,,,,,,,,,,,,,,,,,,,,,,,,,,,,,,,,,,,,,,,,,,,,,,,,,,,,,,,1.0534,770.1985972999828,None,None,1,770.1985972999828,None,,P001,fencog,1,Pre,2021_Jun_22_1149,N-Back (New Version 2021),2021.1.4,119.86009928730878,
,,,,Conditions/Version_1/threeback(3)_v1.xlsx,New rule: Press 'space' when you see 3-back (i.e. the same letter as the one that appeared 3 letters ago.),P,None,,,,,,,,,0,8,8,8,0,2,2,2,,,,,,,,,,,,,,,,,,,,,,,,,,,,,,,,,,,,,,,,,,,,,,,,,,,,,,,,,,,,,,,,,,,,,1.289,773.4955090000294,None,None,1,773.4955090000294,None,,P001,fencog,1,Pre,2021_Jun_22_1149,N-Back (New Version 2021),2021.1.4,119.86009928730878,
,,,,Conditions/Version_1/threeback(3)_v1.xlsx,New rule: Press 'space' when you see 3-back (i.e. the same letter as the one that appeared 3 letters ago.),i,None,,,,,,,,,0,8,8,8,0,3,3,3,,,,,,,,,,,,,,,,,,,,,,,,,,,,,,,,,,,,,,,,,,,,,,,,,,,,,,,,,,,,,,,,,,,,,1.2146,776.7152119000093,None,None,1,776.7152119000093,None,,P001,fencog,1,Pre,2021_Jun_22_1149,N-Back (New Version 2021),2021.1.4,119.86009928730878,
,,,,Conditions/Version_1/threeback(3)_v1.xlsx,New rule: Press 'space' when you see 3-back (i.e. the same letter as the one that appeared 3 letters ago.),f,None,,,,,,,,,0,8,8,8,0,4,4,4,,,,,,,,,,,,,,,,,,,,,,,,,,,,,,,,,,,,,,,,,,,,,,,,,,,,,,,,,,,,,,,,,,,,,1.8656,780.5869321000064,None,None,1,780.5869321000064,None,,P001,fencog,1,Pre,2021_Jun_22_1149,N-Back (New Version 2021),2021.1.4,119.86009928730878,
,,,,Conditions/Version_1/threeback(3)_v1.xlsx,New rule: Press 'space' when you see 3-back (i.e. the same letter as the one that appeared 3 letters ago.),o,None,,,,,,,,,0,8,8,8,0,5,5,5,,,,,,,,,,,,,,,,,,,,,,,,,,,,,,,,,,,,,,,,,,,,,,,,,,,,,,,,,,,,,,,,,,,,,1.9028,784.5016415999853,None,None,1,784.5016415999853,None,,P001,fencog,1,Pre,2021_Jun_22_1149,N-Back (New Version 2021),2021.1.4,119.86009928730878,
,,,,Conditions/Version_1/threeback(3)_v1.xlsx,New rule: Press 'space' when you see 3-back (i.e. the same letter as the one that appeared 3 letters ago.),w,None,,,,,,,,,0,8,8,8,0,6,6,6,,,,,,,,,,,,,,,,,,,,,,,,,,,,,,,,,,,,,,,,,,,,,,,,,,,,,,,,,,,,,,,,,,,,,1.3758,787.8937068000087,None,None,1,787.8937068000087,None,,P001,fencog,1,Pre,2021_Jun_22_1149,N-Back (New Version 2021),2021.1.4,119.86009928730878,
,,,,Conditions/Version_1/threeback(3)_v1.xlsx,New rule: Press 'space' when you see 3-back (i.e. the same letter as the one that appeared 3 letters ago.),F,space,,,,,,,,,0,8,8,8,0,7,7,7,,,,,,,,,,,,,,,,,,,,,,,,,,,,,,,,,,,,,,,,,,,,,,,,,,,,,,,,,,,,,,,,,,,,,1.1092,791.0174016000237,None,space,1,791.0174016000237,None,0.3554772000061348,P001,fencog,1,Pre,2021_Jun_22_1149,N-Back (New Version 2021),2021.1.4,119.86009928730878,
,,,,Conditions/Version_1/threeback(3)_v1.xlsx,New rule: Press 'space' when you see 3-back (i.e. the same letter as the one that appeared 3 letters ago.),p,None,,,,,,,,,0,8,8,8,0,8,8,8,,,,,,,,,,,,,,,,,,,,,,,,,,,,,,,,,,,,,,,,,,,,,,,,,,,,,,,,,,,,,,,,,,,,,1.5556,794.5811433999916,None,None,1,794.5811433999916,None,,P001,fencog,1,Pre,2021_Jun_22_1149,N-Back (New Version 2021),2021.1.4,119.86009928730878,
,,,,Conditions/Version_1/threeback(3)_v1.xlsx,New rule: Press 'space' when you see 3-back (i.e. the same letter as the one that appeared 3 letters ago.),W,space,,,,,,,,,0,8,8,8,0,9,9,9,,,,,,,,,,,,,,,,,,,,,,,,,,,,,,,,,,,,,,,,,,,,,,,,,,,,,,,,,,,,,,,,,,,,,1.506,798.0980050999788,None,space,1,798.0980050999788,None,1.1791632999666035,P001,fencog,1,Pre,2021_Jun_22_1149,N-Back (New Version 2021),2021.1.4,119.86009928730878,
,,,,Conditions/Version_1/threeback(3)_v1.xlsx,New rule: Press 'space' when you see 3-back (i.e. the same letter as the one that appeared 3 letters ago.),,,,,,,,,,,0,8,8,8,,,,,,,,,,,,,,,,,,,,,,,,,,,,,,,,,,,,,,,,,,,,,,,,,,,,,,,,,,,,,,,,,,,,,,,,,,,,,,,,,P001,fencog,1,Pre,2021_Jun_22_1149,N-Back (New Version 2021),2021.1.4,119.86009928730878,
,,,,Conditions/Version_1/zeroback(3)_v1.xlsx,New rule: Press 'space' when you see the letter 'x' or 'X'.,X,space,,,,,,,,,0,9,9,9,0,0,0,0,,,,,,,,,,,,,,,,,,,,,,,,,,,,,,,,,,,,,,,,,,,,,,,,,,,,,,,,,,,800.1258845999837,None,803.1138878000202,None,space,0.5305024000117555,803.1138878000202,None,800.1258845999837,None,1.754,805.4289614000008,None,space,1,805.4289614000008,None,0.6561056000064127,P001,fencog,1,Pre,2021_Jun_22_1149,N-Back (New Version 2021),2021.1.4,119.86009928730878,
,,,,Conditions/Version_1/zeroback(3)_v1.xlsx,New rule: Press 'space' when you see the letter 'x' or 'X'.,B,None,,,,,,,,,0,9,9,9,0,1,1,1,,,,,,,,,,,,,,,,,,,,,,,,,,,,,,,,,,,,,,,,,,,,,,,,,,,,,,,,,,,,,,,,,,,,,1.0286,808.4715311999898,None,None,1,808.4715311999898,None,,P001,fencog,1,Pre,2021_Jun_22_1149,N-Back (New Version 2021),2021.1.4,119.86009928730878,
,,,,Conditions/Version_1/zeroback(3)_v1.xlsx,New rule: Press 'space' when you see the letter 'x' or 'X'.,m,None,,,,,,,,,0,9,9,9,0,2,2,2,,,,,,,,,,,,,,,,,,,,,,,,,,,,,,,,,,,,,,,,,,,,,,,,,,,,,,,,,,,,,,,,,,,,,1.2084,811.6843091000337,None,None,1,811.6843091000337,None,,P001,fencog,1,Pre,2021_Jun_22_1149,N-Back (New Version 2021),2021.1.4,119.86009928730878,
,,,,Conditions/Version_1/zeroback(3)_v1.xlsx,New rule: Press 'space' when you see the letter 'x' or 'X'.,m,None,,,,,,,,,0,9,9,9,0,3,3,3,,,,,,,,,,,,,,,,,,,,,,,,,,,,,,,,,,,,,,,,,,,,,,,,,,,,,,,,,,,,,,,,,,,,,1.2394,814.9250887000235,None,None,1,814.9250887000235,None,,P001,fencog,1,Pre,2021_Jun_22_1149,N-Back (New Version 2021),2021.1.4,119.86009928730878,
,,,,Conditions/Version_1/zeroback(3)_v1.xlsx,New rule: Press 'space' when you see the letter 'x' or 'X'.,o,None,,,,,,,,,0,9,9,9,0,4,4,4,,,,,,,,,,,,,,,,,,,,,,,,,,,,,,,,,,,,,,,,,,,,,,,,,,,,,,,,,,,,,,,,,,,,,1.0782,818.0073403000133,None,None,1,818.0073403000133,None,,P001,fencog,1,Pre,2021_Jun_22_1149,N-Back (New Version 2021),2021.1.4,119.86009928730878,
,,,,Conditions/Version_1/zeroback(3)_v1.xlsx,New rule: Press 'space' when you see the letter 'x' or 'X'.,p,None,,,,,,,,,0,9,9,9,0,5,5,5,,,,,,,,,,,,,,,,,,,,,,,,,,,,,,,,,,,,,,,,,,,,,,,,,,,,,,,,,,,,,,,,,,,,,1.8222,821.8311876999796,None,None,1,821.8311876999796,None,,P001,fencog,1,Pre,2021_Jun_22_1149,N-Back (New Version 2021),2021.1.4,119.86009928730878,
,,,,Conditions/Version_1/zeroback(3)_v1.xlsx,New rule: Press 'space' when you see the letter 'x' or 'X'.,G,None,,,,,,,,,0,9,9,9,0,6,6,6,,,,,,,,,,,,,,,,,,,,,,,,,,,,,,,,,,,,,,,,,,,,,,,,,,,,,,,,,,,,,,,,,,,,,1.9958,825.8320940000121,None,None,1,825.8320940000121,None,,P001,fencog,1,Pre,2021_Jun_22_1149,N-Back (New Version 2021),2021.1.4,119.86009928730878,
,,,,Conditions/Version_1/zeroback(3)_v1.xlsx,New rule: Press 'space' when you see the letter 'x' or 'X'.,X,space,,,,,,,,,0,9,9,9,0,7,7,7,,,,,,,,,,,,,,,,,,,,,,,,,,,,,,,,,,,,,,,,,,,,,,,,,,,,,,,,,,,,,,,,,,,,,1.3882,829.230871799984,None,space,1,829.230871799984,None,0.26189080002950504,P001,fencog,1,Pre,2021_Jun_22_1149,N-Back (New Version 2021),2021.1.4,119.86009928730878,
,,,,Conditions/Version_1/zeroback(3)_v1.xlsx,New rule: Press 'space' when you see the letter 'x' or 'X'.,p,None,,,,,,,,,0,9,9,9,0,8,8,8,,,,,,,,,,,,,,,,,,,,,,,,,,,,,,,,,,,,,,,,,,,,,,,,,,,,,,,,,,,,,,,,,,,,,1.1216,832.3623993000365,None,None,1,832.3623993000365,None,,P001,fencog,1,Pre,2021_Jun_22_1149,N-Back (New Version 2021),2021.1.4,119.86009928730878,
,,,,Conditions/Version_1/zeroback(3)_v1.xlsx,New rule: Press 'space' when you see the letter 'x' or 'X'.,x,space,,,,,,,,,0,9,9,9,0,9,9,9,,,,,,,,,,,,,,,,,,,,,,,,,,,,,,,,,,,,,,,,,,,,,,,,,,,,,,,,,,,,,,,,,,,,,1.6548,836.0275377000216,None,space,1,836.0275377000216,None,0.2964421000215225,P001,fencog,1,Pre,2021_Jun_22_1149,N-Back (New Version 2021),2021.1.4,119.86009928730878,
,,,,Conditions/Version_1/zeroback(3)_v1.xlsx,New rule: Press 'space' when you see the letter 'x' or 'X'.,,,,,,,,,,,0,9,9,9,,,,,,,,,,,,,,,,,,,,,,,,,,,,,,,,,,,,,,,,,,,,,,,,,,,,,,,,,,,,,,,,,,,,,,,,,,,,,,,,,P001,fencog,1,Pre,2021_Jun_22_1149,N-Back (New Version 2021),2021.1.4,119.86009928730878,
,,,,Conditions/Version_1/twoback(3)_v1.xlsx,New rule: Press 'space' when you see 2-back (i.e. the same letter as the one that appeared 2 letters ago.),e,None,,,,,,,,,0,10,10,10,0,0,0,0,,,,,,,,,,,,,,,,,,,,,,,,,,,,,,,,,,,,,,,,,,,,,,,,,,,,,,,,,,,838.0479573000339,None,841.0360351999989,None,space,1.6564030000008643,841.0360351999989,None,838.0479573000339,None,1.0658,843.7849555999856,None,None,1,843.7849555999856,None,,P001,fencog,1,Pre,2021_Jun_22_1149,N-Back (New Version 2021),2021.1.4,119.86009928730878,
,,,,Conditions/Version_1/twoback(3)_v1.xlsx,New rule: Press 'space' when you see 2-back (i.e. the same letter as the one that appeared 2 letters ago.),o,None,,,,,,,,,0,10,10,10,0,1,1,1,,,,,,,,,,,,,,,,,,,,,,,,,,,,,,,,,,,,,,,,,,,,,,,,,,,,,,,,,,,,,,,,,,,,,1.6548,847.4498305000016,None,None,1,847.4498305000016,None,,P001,fencog,1,Pre,2021_Jun_22_1149,N-Back (New Version 2021),2021.1.4,119.86009928730878,
,,,,Conditions/Version_1/twoback(3)_v1.xlsx,New rule: Press 'space' when you see 2-back (i.e. the same letter as the one that appeared 2 letters ago.),P,None,,,,,,,,,0,10,10,10,0,2,2,2,,,,,,,,,,,,,,,,,,,,,,,,,,,,,,,,,,,,,,,,,,,,,,,,,,,,,,,,,,,,,,,,,,,,,1.2704,850.7330257000285,None,None,1,850.7330257000285,None,,P001,fencog,1,Pre,2021_Jun_22_1149,N-Back (New Version 2021),2021.1.4,119.86009928730878,
,,,,Conditions/Version_1/twoback(3)_v1.xlsx,New rule: Press 'space' when you see 2-back (i.e. the same letter as the one that appeared 2 letters ago.),z,None,,,,,,,,,0,10,10,10,0,3,3,3,,,,,,,,,,,,,,,,,,,,,,,,,,,,,,,,,,,,,,,,,,,,,,,,,,,,,,,,,,,,,,,,,,,,,1.847,854.5922219000058,None,None,1,854.5922219000058,None,,P001,fencog,1,Pre,2021_Jun_22_1149,N-Back (New Version 2021),2021.1.4,119.86009928730878,
,,,,Conditions/Version_1/twoback(3)_v1.xlsx,New rule: Press 'space' when you see 2-back (i.e. the same letter as the one that appeared 2 letters ago.),X,None,,,,,,,,,0,10,10,10,0,4,4,4,,,,,,,,,,,,,,,,,,,,,,,,,,,,,,,,,,,,,,,,,,,,,,,,,,,,,,,,,,,,,,,,,,,,,1.1526,857.7564668999985,None,None,1,857.7564668999985,None,,P001,fencog,1,Pre,2021_Jun_22_1149,N-Back (New Version 2021),2021.1.4,119.86009928730878,
,,,,Conditions/Version_1/twoback(3)_v1.xlsx,New rule: Press 'space' when you see 2-back (i.e. the same letter as the one that appeared 2 letters ago.),z,space,,,,,,,,,0,10,10,10,0,5,5,5,,,,,,,,,,,,,,,,,,,,,,,,,,,,,,,,,,,,,,,,,,,,,,,,,,,,,,,,,,,,,,,,,,,,,1.692,861.4538538000197,None,space,1,861.4538538000197,None,0.3347234999528155,P001,fencog,1,Pre,2021_Jun_22_1149,N-Back (New Version 2021),2021.1.4,119.86009928730878,
,,,,Conditions/Version_1/twoback(3)_v1.xlsx,New rule: Press 'space' when you see 2-back (i.e. the same letter as the one that appeared 2 letters ago.),x,space,,,,,,,,,0,10,10,10,0,6,6,6,,,,,,,,,,,,,,,,,,,,,,,,,,,,,,,,,,,,,,,,,,,,,,,,,,,,,,,,,,,,,,,,,,,,,1.8718,865.3367808000185,None,space,1,865.3367808000185,None,0.9636672000051476,P001,fencog,1,Pre,2021_Jun_22_1149,N-Back (New Version 2021),2021.1.4,119.86009928730878,
,,,,Conditions/Version_1/twoback(3)_v1.xlsx,New rule: Press 'space' when you see 2-back (i.e. the same letter as the one that appeared 2 letters ago.),c,None,,,,,,,,,0,10,10,10,0,7,7,7,,,,,,,,,,,,,,,,,,,,,,,,,,,,,,,,,,,,,,,,,,,,,,,,,,,,,,,,,,,,,,,,,,,,,1.1092,868.4602574000019,None,None,1,868.4602574000019,None,,P001,fencog,1,Pre,2021_Jun_22_1149,N-Back (New Version 2021),2021.1.4,119.86009928730878,
,,,,Conditions/Version_1/twoback(3)_v1.xlsx,New rule: Press 'space' when you see 2-back (i.e. the same letter as the one that appeared 2 letters ago.),i,None,,,,,,,,,0,10,10,10,0,8,8,8,,,,,,,,,,,,,,,,,,,,,,,,,,,,,,,,,,,,,,,,,,,,,,,,,,,,,,,,,,,,,,,,,,,,,1.7292,872.2023261000286,None,None,1,872.2023261000286,None,,P001,fencog,1,Pre,2021_Jun_22_1149,N-Back (New Version 2021),2021.1.4,119.86009928730878,
,,,,Conditions/Version_1/twoback(3)_v1.xlsx,New rule: Press 'space' when you see 2-back (i.e. the same letter as the one that appeared 2 letters ago.),C,space,,,,,,,,,0,10,10,10,0,9,9,9,,,,,,,,,,,,,,,,,,,,,,,,,,,,,,,,,,,,,,,,,,,,,,,,,,,,,,,,,,,,,,,,,,,,,1.041,875.2489830999984,None,space,1,875.2489830999984,None,0.6601126000168733,P001,fencog,1,Pre,2021_Jun_22_1149,N-Back (New Version 2021),2021.1.4,119.86009928730878,
,,,,Conditions/Version_1/twoback(3)_v1.xlsx,New rule: Press 'space' when you see 2-back (i.e. the same letter as the one that appeared 2 letters ago.),,,,,,,,,,,0,10,10,10,,,,,,,,,,,,,,,,,,,,,,,,,,,,,,,,,,,,,,,,,,,,,,,,,,,,,,,,,,,,,,,,,,,,,,,,,,,,,,,,,P001,fencog,1,Pre,2021_Jun_22_1149,N-Back (New Version 2021),2021.1.4,119.86009928730878,
,,,,Conditions/Version_1/oneback(3)_v1.xlsx,New rule: Press 'space' when you see 1-back (i.e. the same letter as the one that appeared 1 letter ago.),o,None,,,,,,,,,0,11,11,11,0,0,0,0,,,,,,,,,,,,,,,,,,,,,,,,,,,,,,,,,,,,,,,,,,,,,,,,,,,,,,,,,,,877.2796226000064,None,880.2662914000102,None,space,42.562084100034554,880.2662914000102,None,877.2796226000064,None,1.3014,924.1697419999982,None,None,1,924.1697419999982,None,,P001,fencog,1,Pre,2021_Jun_22_1149,N-Back (New Version 2021),2021.1.4,119.86009928730878,
,,,,Conditions/Version_1/oneback(3)_v1.xlsx,New rule: Press 'space' when you see 1-back (i.e. the same letter as the one that appeared 1 letter ago.),O,space,,,,,,,,,0,11,11,11,0,1,1,1,,,,,,,,,,,,,,,,,,,,,,,,,,,,,,,,,,,,,,,,,,,,,,,,,,,,,,,,,,,,,,,,,,,,,1.3386,927.5193905000342,None,space,1,927.5193905000342,None,0.2771346000372432,P001,fencog,1,Pre,2021_Jun_22_1149,N-Back (New Version 2021),2021.1.4,119.86009928730878,
,,,,Conditions/Version_1/oneback(3)_v1.xlsx,New rule: Press 'space' when you see 1-back (i.e. the same letter as the one that appeared 1 letter ago.),h,None,,,,,,,,,0,11,11,11,0,2,2,2,,,,,,,,,,,,,,,,,,,,,,,,,,,,,,,,,,,,,,,,,,,,,,,,,,,,,,,,,,,,,,,,,,,,,1.6238,931.1501643999945,None,None,1,931.1501643999945,None,,P001,fencog,1,Pre,2021_Jun_22_1149,N-Back (New Version 2021),2021.1.4,119.86009928730878,
,,,,Conditions/Version_1/oneback(3)_v1.xlsx,New rule: Press 'space' when you see 1-back (i.e. the same letter as the one that appeared 1 letter ago.),g,None,,,,,,,,,0,11,11,11,0,3,3,3,,,,,,,,,,,,,,,,,,,,,,,,,,,,,,,,,,,,,,,,,,,,,,,,,,,,,,,,,,,,,,,,,,,,,1.1526,934.3155562999891,None,None,1,934.3155562999891,None,,P001,fencog,1,Pre,2021_Jun_22_1149,N-Back (New Version 2021),2021.1.4,119.86009928730878,
,,,,Conditions/Version_1/oneback(3)_v1.xlsx,New rule: Press 'space' when you see 1-back (i.e. the same letter as the one that appeared 1 letter ago.),n,None,,,,,,,,,0,11,11,11,0,4,4,4,,,,,,,,,,,,,,,,,,,,,,,,,,,,,,,,,,,,,,,,,,,,,,,,,,,,,,,,,,,,,,,,,,,,,1.0596,937.3895786000066,None,None,1,937.3895786000066,None,,P001,fencog,1,Pre,2021_Jun_22_1149,N-Back (New Version 2021),2021.1.4,119.86009928730878,
,,,,Conditions/Version_1/oneback(3)_v1.xlsx,New rule: Press 'space' when you see 1-back (i.e. the same letter as the one that appeared 1 letter ago.),z,None,,,,,,,,,0,11,11,11,0,5,5,5,,,,,,,,,,,,,,,,,,,,,,,,,,,,,,,,,,,,,,,,,,,,,,,,,,,,,,,,,,,,,,,,,,,,,1.8532,941.2562538000057,None,None,1,941.2562538000057,None,,P001,fencog,1,Pre,2021_Jun_22_1149,N-Back (New Version 2021),2021.1.4,119.86009928730878,
,,,,Conditions/Version_1/oneback(3)_v1.xlsx,New rule: Press 'space' when you see 1-back (i.e. the same letter as the one that appeared 1 letter ago.),X,None,,,,,,,,,0,11,11,11,0,6,6,6,,,,,,,,,,,,,,,,,,,,,,,,,,,,,,,,,,,,,,,,,,,,,,,,,,,,,,,,,,,,,,,,,,,,,1.5308,944.7968458000105,None,None,1,944.7968458000105,None,,P001,fencog,1,Pre,2021_Jun_22_1149,N-Back (New Version 2021),2021.1.4,119.86009928730878,
,,,,Conditions/Version_1/oneback(3)_v1.xlsx,New rule: Press 'space' when you see 1-back (i.e. the same letter as the one that appeared 1 letter ago.),r,None,,,,,,,,,0,11,11,11,0,7,7,7,,,,,,,,,,,,,,,,,,,,,,,,,,,,,,,,,,,,,,,,,,,,,,,,,,,,,,,,,,,,,,,,,,,,,1.8408,948.6458538000006,None,None,1,948.6458538000006,None,,P001,fencog,1,Pre,2021_Jun_22_1149,N-Back (New Version 2021),2021.1.4,119.86009928730878,
,,,,Conditions/Version_1/oneback(3)_v1.xlsx,New rule: Press 'space' when you see 1-back (i.e. the same letter as the one that appeared 1 letter ago.),r,space,,,,,,,,,0,11,11,11,0,8,8,8,,,,,,,,,,,,,,,,,,,,,,,,,,,,,,,,,,,,,,,,,,,,,,,,,,,,,,,,,,,,,,,,,,,,,1.1774,951.8344532999909,None,space,1,951.8344532999909,None,0.4018658999702893,P001,fencog,1,Pre,2021_Jun_22_1149,N-Back (New Version 2021),2021.1.4,119.86009928730878,
,,,,Conditions/Version_1/oneback(3)_v1.xlsx,New rule: Press 'space' when you see 1-back (i.e. the same letter as the one that appeared 1 letter ago.),P,None,,,,,,,,,0,11,11,11,0,9,9,9,,,,,,,,,,,,,,,,,,,,,,,,,,,,,,,,,,,,,,,,,,,,,,,,,,,,,,,,,,,,,,,,,,,,,1.4316,955.2680275000166,None,None,1,955.2680275000166,None,,P001,fencog,1,Pre,2021_Jun_22_1149,N-Back (New Version 2021),2021.1.4,119.86009928730878,
,,,,Conditions/Version_1/oneback(3)_v1.xlsx,New rule: Press 'space' when you see 1-back (i.e. the same letter as the one that appeared 1 letter ago.),,,,,,,,,,,0,11,11,11,,,,,,,,,,,,,,,,,,,,,,,,,,,,,,,,,,,,,,,,,,,,,,,,,,,,,,,,,,,,,,,,,,,,,,,,,,,,,,,,,P001,fencog,1,Pre,2021_Jun_22_1149,N-Back (New Version 2021),2021.1.4,119.86009928730878,
,,,,Conditions/Version_1/twoback(4)_v1.xlsx,New rule: Press 'space' when you see 2-back (i.e. the same letter as the one that appeared 2 letters ago.),r,None,,,,,,,,,0,12,12,12,0,0,0,0,,,,,,,,,,,,,,,,,,,,,,,,,,,,,,,,,,,,,,,,,,,,,,,,,,,,,,,,,,,957.2990972999833,None,960.2835873999866,None,space,1.1529561000061221,960.2835873999866,None,957.2990972999833,None,1.9214,963.3832576000132,None,None,1,963.3832576000132,None,,P001,fencog,1,Pre,2021_Jun_22_1149,N-Back (New Version 2021),2021.1.4,119.86009928730878,
,,,,Conditions/Version_1/twoback(4)_v1.xlsx,New rule: Press 'space' when you see 2-back (i.e. the same letter as the one that appeared 2 letters ago.),T,None,,,,,,,,,0,12,12,12,0,1,1,1,,,,,,,,,,,,,,,,,,,,,,,,,,,,,,,,,,,,,,,,,,,,,,,,,,,,,,,,,,,,,,,,,,,,,1.6486,967.0442252000212,None,None,1,967.0442252000212,None,,P001,fencog,1,Pre,2021_Jun_22_1149,N-Back (New Version 2021),2021.1.4,119.86009928730878,
,,,,Conditions/Version_1/twoback(4)_v1.xlsx,New rule: Press 'space' when you see 2-back (i.e. the same letter as the one that appeared 2 letters ago.),o,None,,,,,,,,,0,12,12,12,0,2,2,2,,,,,,,,,,,,,,,,,,,,,,,,,,,,,,,,,,,,,,,,,,,,,,,,,,,,,,,,,,,,,,,,,,,,,1.196,970.2474833999877,None,None,1,970.2474833999877,None,,P001,fencog,1,Pre,2021_Jun_22_1149,N-Back (New Version 2021),2021.1.4,119.86009928730878,
,,,,Conditions/Version_1/twoback(4)_v1.xlsx,New rule: Press 'space' when you see 2-back (i.e. the same letter as the one that appeared 2 letters ago.),p,None,,,,,,,,,0,12,12,12,0,3,3,3,,,,,,,,,,,,,,,,,,,,,,,,,,,,,,,,,,,,,,,,,,,,,,,,,,,,,,,,,,,,,,,,,,,,,1.6176,973.8800468000118,None,None,1,973.8800468000118,None,,P001,fencog,1,Pre,2021_Jun_22_1149,N-Back (New Version 2021),2021.1.4,119.86009928730878,
,,,,Conditions/Version_1/twoback(4)_v1.xlsx,New rule: Press 'space' when you see 2-back (i.e. the same letter as the one that appeared 2 letters ago.),p,None,,,,,,,,,0,12,12,12,0,4,4,4,,,,,,,,,,,,,,,,,,,,,,,,,,,,,,,,,,,,,,,,,,,,,,,,,,,,,,,,,,,,,,,,,,,,,1.8966,977.7852896000259,None,space,0,977.7852896000259,None,0.4989539999514818,P001,fencog,1,Pre,2021_Jun_22_1149,N-Back (New Version 2021),2021.1.4,119.86009928730878,
,,,,Conditions/Version_1/twoback(4)_v1.xlsx,New rule: Press 'space' when you see 2-back (i.e. the same letter as the one that appeared 2 letters ago.),y,None,,,,,,,,,0,12,12,12,0,5,5,5,,,,,,,,,,,,,,,,,,,,,,,,,,,,,,,,,,,,,,,,,,,,,,,,,,,,,,,,,,,,,,,,,,,,,1.5866,981.3794003999792,None,None,1,981.3794003999792,None,,P001,fencog,1,Pre,2021_Jun_22_1149,N-Back (New Version 2021),2021.1.4,119.86009928730878,
,,,,Conditions/Version_1/twoback(4)_v1.xlsx,New rule: Press 'space' when you see 2-back (i.e. the same letter as the one that appeared 2 letters ago.),P,space,,,,,,,,,0,12,12,12,0,6,6,6,,,,,,,,,,,,,,,,,,,,,,,,,,,,,,,,,,,,,,,,,,,,,,,,,,,,,,,,,,,,,,,,,,,,,1.4254,984.8184988999856,None,space,1,984.8184988999856,None,0.33807419997174293,P001,fencog,1,Pre,2021_Jun_22_1149,N-Back (New Version 2021),2021.1.4,119.86009928730878,
,,,,Conditions/Version_1/twoback(4)_v1.xlsx,New rule: Press 'space' when you see 2-back (i.e. the same letter as the one that appeared 2 letters ago.),y,None,,,,,,,,,0,12,12,12,0,7,7,7,,,,,,,,,,,,,,,,,,,,,,,,,,,,,,,,,,,,,,,,,,,,,,,,,,,,,,,,,,,,,,,,,,,,,1.0906,987.9174249999924,None,space,0,987.9174249999924,None,0.7269988000043668,P001,fencog,1,Pre,2021_Jun_22_1149,N-Back (New Version 2021),2021.1.4,119.86009928730878,
,,,,Conditions/Version_1/twoback(4)_v1.xlsx,New rule: Press 'space' when you see 2-back (i.e. the same letter as the one that appeared 2 letters ago.),y,space,,,,,,,,,0,12,12,12,0,8,8,8,,,,,,,,,,,,,,,,,,,,,,,,,,,,,,,,,,,,,,,,,,,,,,,,,,,,,,,,,,,,,,,,,,,,,1.4502,991.3727028000285,None,None,0,991.3727028000285,None,,P001,fencog,1,Pre,2021_Jun_22_1149,N-Back (New Version 2021),2021.1.4,119.86009928730878,
,,,,Conditions/Version_1/twoback(4)_v1.xlsx,New rule: Press 'space' when you see 2-back (i.e. the same letter as the one that appeared 2 letters ago.),,,,,,,,,,,0,12,12,12,,,,,,,,,,,,,,,,,,,,,,,,,,,,,,,,,,,,,,,,,,,,,,,,,,,,,,,,,,,,,,,,,,,,,,,,,,,,,,,,,P001,fencog,1,Pre,2021_Jun_22_1149,N-Back (New Version 2021),2021.1.4,119.86009928730878,
,,,,Conditions/Version_1/zeroback(4)_v1.xlsx,New rule: Press 'space' when you see the letter 'x' or 'X'.,o,None,,,,,,,,,0,13,13,13,0,0,0,0,,,,,,,,,,,,,,,,,,,,,,,,,,,,,,,,,,,,,,,,,,,,,,,,,,,,,,,,,,,993.4424298999947,None,996.4327204999863,None,space,0.4758739999961108,996.4327204999863,None,993.4424298999947,None,1.3386,998.2883154000156,None,None,1,998.2883154000156,None,,P001,fencog,1,Pre,2021_Jun_22_1149,N-Back (New Version 2021),2021.1.4,119.86009928730878,
,,,,Conditions/Version_1/zeroback(4)_v1.xlsx,New rule: Press 'space' when you see the letter 'x' or 'X'.,X,space,,,,,,,,,0,13,13,13,0,1,1,1,,,,,,,,,,,,,,,,,,,,,,,,,,,,,,,,,,,,,,,,,,,,,,,,,,,,,,,,,,,,,,,,,,,,,1.5246,1001.8219623999903,None,space,1,1001.8219623999903,None,1.990223100001458,P001,fencog,1,Pre,2021_Jun_22_1149,N-Back (New Version 2021),2021.1.4,119.86009928730878,
,,,,Conditions/Version_1/zeroback(4)_v1.xlsx,New rule: Press 'space' when you see the letter 'x' or 'X'.,p,None,,,,,,,,,0,13,13,13,0,2,2,2,,,,,,,,,,,,,,,,,,,,,,,,,,,,,,,,,,,,,,,,,,,,,,,,,,,,,,,,,,,,,,,,,,,,,1.2766,1005.1113369999803,None,None,1,1005.1113369999803,None,,P001,fencog,1,Pre,2021_Jun_22_1149,N-Back (New Version 2021),2021.1.4,119.86009928730878,
,,,,Conditions/Version_1/zeroback(4)_v1.xlsx,New rule: Press 'space' when you see the letter 'x' or 'X'.,m,None,,,,,,,,,0,13,13,13,0,3,3,3,,,,,,,,,,,,,,,,,,,,,,,,,,,,,,,,,,,,,,,,,,,,,,,,,,,,,,,,,,,,,,,,,,,,,1.2146,1008.3366910000332,None,None,1,1008.3366910000332,None,,P001,fencog,1,Pre,2021_Jun_22_1149,N-Back (New Version 2021),2021.1.4,119.86009928730878,
,,,,Conditions/Version_1/zeroback(4)_v1.xlsx,New rule: Press 'space' when you see the letter 'x' or 'X'.,n,None,,,,,,,,,0,13,13,13,0,4,4,4,,,,,,,,,,,,,,,,,,,,,,,,,,,,,,,,,,,,,,,,,,,,,,,,,,,,,,,,,,,,,,,,,,,,,1.754,1012.1008410000359,None,None,1,1012.1008410000359,None,,P001,fencog,1,Pre,2021_Jun_22_1149,N-Back (New Version 2021),2021.1.4,119.86009928730878,
,,,,Conditions/Version_1/zeroback(4)_v1.xlsx,New rule: Press 'space' when you see the letter 'x' or 'X'.,m,None,,,,,,,,,0,13,13,13,0,5,5,5,,,,,,,,,,,,,,,,,,,,,,,,,,,,,,,,,,,,,,,,,,,,,,,,,,,,,,,,,,,,,,,,,,,,,1.1154,1015.2261318999808,None,None,1,1015.2261318999808,None,,P001,fencog,1,Pre,2021_Jun_22_1149,N-Back (New Version 2021),2021.1.4,119.86009928730878,
,,,,Conditions/Version_1/zeroback(4)_v1.xlsx,New rule: Press 'space' when you see the letter 'x' or 'X'.,C,None,,,,,,,,,0,13,13,13,0,6,6,6,,,,,,,,,,,,,,,,,,,,,,,,,,,,,,,,,,,,,,,,,,,,,,,,,,,,,,,,,,,,,,,,,,,,,1.5866,1018.8234223999898,None,None,1,1018.8234223999898,None,,P001,fencog,1,Pre,2021_Jun_22_1149,N-Back (New Version 2021),2021.1.4,119.86009928730878,
,,,,Conditions/Version_1/zeroback(4)_v1.xlsx,New rule: Press 'space' when you see the letter 'x' or 'X'.,m,None,,,,,,,,,0,13,13,13,0,7,7,7,,,,,,,,,,,,,,,,,,,,,,,,,,,,,,,,,,,,,,,,,,,,,,,,,,,,,,,,,,,,,,,,,,,,,1.3696,1022.1970850999933,None,None,1,1022.1970850999933,None,,P001,fencog,1,Pre,2021_Jun_22_1149,N-Back (New Version 2021),2021.1.4,119.86009928730878,
,,,,Conditions/Version_1/zeroback(4)_v1.xlsx,New rule: Press 'space' when you see the letter 'x' or 'X'.,p,None,,,,,,,,,0,13,13,13,0,8,8,8,,,,,,,,,,,,,,,,,,,,,,,,,,,,,,,,,,,,,,,,,,,,,,,,,,,,,,,,,,,,,,,,,,,,,1.6486,1025.8480295999907,None,None,1,1025.8480295999907,None,,P001,fencog,1,Pre,2021_Jun_22_1149,N-Back (New Version 2021),2021.1.4,119.86009928730878,
,,,,Conditions/Version_1/zeroback(4)_v1.xlsx,New rule: Press 'space' when you see the letter 'x' or 'X'.,X,space,,,,,,,,,0,13,13,13,0,9,9,9,,,,,,,,,,,,,,,,,,,,,,,,,,,,,,,,,,,,,,,,,,,,,,,,,,,,,,,,,,,,,,,,,,,,,1.2828,1029.1375843000133,None,space,1,1029.1375843000133,None,0.5146854000049643,P001,fencog,1,Pre,2021_Jun_22_1149,N-Back (New Version 2021),2021.1.4,119.86009928730878,
,,,,Conditions/Version_1/zeroback(4)_v1.xlsx,New rule: Press 'space' when you see the letter 'x' or 'X'.,,,,,,,,,,,0,13,13,13,,,,,,,,,,,,,,,,,,,,,,,,,,,,,,,,,,,,,,,,,,,,,,,,,,,,,,,,,,,,,,,,,,,,,,,,,,,,,,,,,P001,fencog,1,Pre,2021_Jun_22_1149,N-Back (New Version 2021),2021.1.4,119.86009928730878,
,,,,Conditions/Version_1/oneback(4)_v1.xlsx,New rule: Press 'space' when you see 1-back (i.e. the same letter as the one that appeared 1 letter ago.),w,None,,,,,,,,,0,14,14,14,0,0,0,0,,,,,,,,,,,,,,,,,,,,,,,,,,,,,,,,,,,,,,,,,,,,,,,,,,,,,,,,,,,1031.1669954999816,None,1034.1540777999908,None,space,0.35420499998144805,1034.1540777999908,None,1031.1669954999816,None,1.1898,1035.7262323999894,None,None,1,1035.7262323999894,None,,P001,fencog,1,Pre,2021_Jun_22_1149,N-Back (New Version 2021),2021.1.4,119.86009928730878,
,,,,Conditions/Version_1/oneback(4)_v1.xlsx,New rule: Press 'space' when you see 1-back (i.e. the same letter as the one that appeared 1 letter ago.),q,None,,,,,,,,,0,14,14,14,0,1,1,1,,,,,,,,,,,,,,,,,,,,,,,,,,,,,,,,,,,,,,,,,,,,,,,,,,,,,,,,,,,,,,,,,,,,,1.227,1038.9612342999899,None,None,1,1038.9612342999899,None,,P001,fencog,1,Pre,2021_Jun_22_1149,N-Back (New Version 2021),2021.1.4,119.86009928730878,
,,,,Conditions/Version_1/oneback(4)_v1.xlsx,New rule: Press 'space' when you see 1-back (i.e. the same letter as the one that appeared 1 letter ago.),i,None,,,,,,,,,0,14,14,14,0,2,2,2,,,,,,,,,,,,,,,,,,,,,,,,,,,,,,,,,,,,,,,,,,,,,,,,,,,,,,,,,,,,,,,,,,,,,1.568,1042.543027399981,None,None,1,1042.543027399981,None,,P001,fencog,1,Pre,2021_Jun_22_1149,N-Back (New Version 2021),2021.1.4,119.86009928730878,
,,,,Conditions/Version_1/oneback(4)_v1.xlsx,New rule: Press 'space' when you see 1-back (i.e. the same letter as the one that appeared 1 letter ago.),t,None,,,,,,,,,0,14,14,14,0,3,3,3,,,,,,,,,,,,,,,,,,,,,,,,,,,,,,,,,,,,,,,,,,,,,,,,,,,,,,,,,,,,,,,,,,,,,1.9152,1046.4656732000294,None,None,1,1046.4656732000294,None,,P001,fencog,1,Pre,2021_Jun_22_1149,N-Back (New Version 2021),2021.1.4,119.86009928730878,
,,,,Conditions/Version_1/oneback(4)_v1.xlsx,New rule: Press 'space' when you see 1-back (i.e. the same letter as the one that appeared 1 letter ago.),v,None,,,,,,,,,0,14,14,14,0,4,4,4,,,,,,,,,,,,,,,,,,,,,,,,,,,,,,,,,,,,,,,,,,,,,,,,,,,,,,,,,,,,,,,,,,,,,1.4998,1049.9788173999987,None,None,1,1049.9788173999987,None,,P001,fencog,1,Pre,2021_Jun_22_1149,N-Back (New Version 2021),2021.1.4,119.86009928730878,
,,,,Conditions/Version_1/oneback(4)_v1.xlsx,New rule: Press 'space' when you see 1-back (i.e. the same letter as the one that appeared 1 letter ago.),V,space,,,,,,,,,0,14,14,14,0,5,5,5,,,,,,,,,,,,,,,,,,,,,,,,,,,,,,,,,,,,,,,,,,,,,,,,,,,,,,,,,,,,,,,,,,,,,1.1278,1053.1156466000248,None,space,1,1053.1156466000248,None,0.5846036999719217,P001,fencog,1,Pre,2021_Jun_22_1149,N-Back (New Version 2021),2021.1.4,119.86009928730878,
,,,,Conditions/Version_1/oneback(4)_v1.xlsx,New rule: Press 'space' when you see 1-back (i.e. the same letter as the one that appeared 1 letter ago.),v,space,,,,,,,,,0,14,14,14,0,6,6,6,,,,,,,,,,,,,,,,,,,,,,,,,,,,,,,,,,,,,,,,,,,,,,,,,,,,,,,,,,,,,,,,,,,,,1.723,1056.8466351000243,None,space,1,1056.8466351000243,None,0.47742450004443526,P001,fencog,1,Pre,2021_Jun_22_1149,N-Back (New Version 2021),2021.1.4,119.86009928730878,
,,,,Conditions/Version_1/oneback(4)_v1.xlsx,New rule: Press 'space' when you see 1-back (i.e. the same letter as the one that appeared 1 letter ago.),p,None,,,,,,,,,0,14,14,14,0,7,7,7,,,,,,,,,,,,,,,,,,,,,,,,,,,,,,,,,,,,,,,,,,,,,,,,,,,,,,,,,,,,,,,,,,,,,1.6796,1060.5366352000274,None,None,1,1060.5366352000274,None,,P001,fencog,1,Pre,2021_Jun_22_1149,N-Back (New Version 2021),2021.1.4,119.86009928730878,
,,,,Conditions/Version_1/oneback(4)_v1.xlsx,New rule: Press 'space' when you see 1-back (i.e. the same letter as the one that appeared 1 letter ago.),w,None,,,,,,,,,0,14,14,14,0,8,8,8,,,,,,,,,,,,,,,,,,,,,,,,,,,,,,,,,,,,,,,,,,,,,,,,,,,,,,,,,,,,,,,,,,,,,1.9958,1064.5451286000316,None,None,1,1064.5451286000316,None,,P001,fencog,1,Pre,2021_Jun_22_1149,N-Back (New Version 2021),2021.1.4,119.86009928730878,
,,,,Conditions/Version_1/oneback(4)_v1.xlsx,New rule: Press 'space' when you see 1-back (i.e. the same letter as the one that appeared 1 letter ago.),W,space,,,,,,,,,0,14,14,14,0,9,9,9,,,,,,,,,,,,,,,,,,,,,,,,,,,,,,,,,,,,,,,,,,,,,,,,,,,,,,,,,,,,,,,,,,,,,1.2208,1067.776405600016,None,space,1,1067.776405600016,None,0.34773080004379153,P001,fencog,1,Pre,2021_Jun_22_1149,N-Back (New Version 2021),2021.1.4,119.86009928730878,
,,,,Conditions/Version_1/oneback(4)_v1.xlsx,New rule: Press 'space' when you see 1-back (i.e. the same letter as the one that appeared 1 letter ago.),,,,,,,,,,,0,14,14,14,,,,,,,,,,,,,,,,,,,,,,,,,,,,,,,,,,,,,,,,,,,,,,,,,,,,,,,,,,,,,,,,,,,,,,,,,,,,,,,,,P001,fencog,1,Pre,2021_Jun_22_1149,N-Back (New Version 2021),2021.1.4,119.86009928730878,
,,,,Conditions/Version_1/threeback(4)_v1.xlsx,New rule: Press 'space' when you see 3-back (i.e. the same letter as the one that appeared 3 letters ago.),A,None,,,,,,,,,0,15,15,15,0,0,0,0,,,,,,,,,,,,,,,,,,,,,,,,,,,,,,,,,,,,,,,,,,,,,,,,,,,,,,,,,,,1069.808458900021,None,1072.7938679999788,None,space,4.050103199959267,1072.7938679999788,None,1069.808458900021,None,1.8408,1078.7162087000324,None,None,1,1078.7162087000324,None,,P001,fencog,1,Pre,2021_Jun_22_1149,N-Back (New Version 2021),2021.1.4,119.86009928730878,
,,,,Conditions/Version_1/threeback(4)_v1.xlsx,New rule: Press 'space' when you see 3-back (i.e. the same letter as the one that appeared 3 letters ago.),n,None,,,,,,,,,0,15,15,15,0,1,1,1,,,,,,,,,,,,,,,,,,,,,,,,,,,,,,,,,,,,,,,,,,,,,,,,,,,,,,,,,,,,,,,,,,,,,1.6672,1082.3983123999787,None,None,1,1082.3983123999787,None,,P001,fencog,1,Pre,2021_Jun_22_1149,N-Back (New Version 2021),2021.1.4,119.86009928730878,
,,,,Conditions/Version_1/threeback(4)_v1.xlsx,New rule: Press 'space' when you see 3-back (i.e. the same letter as the one that appeared 3 letters ago.),g,None,,,,,,,,,0,15,15,15,0,2,2,2,,,,,,,,,,,,,,,,,,,,,,,,,,,,,,,,,,,,,,,,,,,,,,,,,,,,,,,,,,,,,,,,,,,,,1.382,1085.7883255000343,None,None,1,1085.7883255000343,None,,P001,fencog,1,Pre,2021_Jun_22_1149,N-Back (New Version 2021),2021.1.4,119.86009928730878,
,,,,Conditions/Version_1/threeback(4)_v1.xlsx,New rule: Press 'space' when you see 3-back (i.e. the same letter as the one that appeared 3 letters ago.),A,space,,,,,,,,,0,15,15,15,0,3,3,3,,,,,,,,,,,,,,,,,,,,,,,,,,,,,,,,,,,,,,,,,,,,,,,,,,,,,,,,,,,,,,,,,,,,,1.2146,1089.0116381000262,None,space,1,1089.0116381000262,None,0.34458139998605475,P001,fencog,1,Pre,2021_Jun_22_1149,N-Back (New Version 2021),2021.1.4,119.86009928730878,
,,,,Conditions/Version_1/threeback(4)_v1.xlsx,New rule: Press 'space' when you see 3-back (i.e. the same letter as the one that appeared 3 letters ago.),p,None,,,,,,,,,0,15,15,15,0,4,4,4,,,,,,,,,,,,,,,,,,,,,,,,,,,,,,,,,,,,,,,,,,,,,,,,,,,,,,,,,,,,,,,,,,,,,1.3758,1092.4012853000313,None,None,1,1092.4012853000313,None,,P001,fencog,1,Pre,2021_Jun_22_1149,N-Back (New Version 2021),2021.1.4,119.86009928730878,
,,,,Conditions/Version_1/threeback(4)_v1.xlsx,New rule: Press 'space' when you see 3-back (i.e. the same letter as the one that appeared 3 letters ago.),O,None,,,,,,,,,0,15,15,15,0,5,5,5,,,,,,,,,,,,,,,,,,,,,,,,,,,,,,,,,,,,,,,,,,,,,,,,,,,,,,,,,,,,,,,,,,,,,1.5308,1095.9336061000358,None,None,1,1095.9336061000358,None,,P001,fencog,1,Pre,2021_Jun_22_1149,N-Back (New Version 2021),2021.1.4,119.86009928730878,
,,,,Conditions/Version_1/threeback(4)_v1.xlsx,New rule: Press 'space' when you see 3-back (i.e. the same letter as the one that appeared 3 letters ago.),a,space,,,,,,,,,0,15,15,15,0,6,6,6,,,,,,,,,,,,,,,,,,,,,,,,,,,,,,,,,,,,,,,,,,,,,,,,,,,,,,,,,,,,,,,,,,,,,1.9524,1099.8932371999836,None,space,1,1099.8932371999836,None,0.6469872999587096,P001,fencog,1,Pre,2021_Jun_22_1149,N-Back (New Version 2021),2021.1.4,119.86009928730878,
,,,,Conditions/Version_1/threeback(4)_v1.xlsx,New rule: Press 'space' when you see 3-back (i.e. the same letter as the one that appeared 3 letters ago.),p,space,,,,,,,,,0,15,15,15,0,7,7,7,,,,,,,,,,,,,,,,,,,,,,,,,,,,,,,,,,,,,,,,,,,,,,,,,,,,,,,,,,,,,,,,,,,,,1.134,1103.0433129000012,None,space,1,1103.0433129000012,None,0.4889567000209354,P001,fencog,1,Pre,2021_Jun_22_1149,N-Back (New Version 2021),2021.1.4,119.86009928730878,
,,,,Conditions/Version_1/threeback(4)_v1.xlsx,New rule: Press 'space' when you see 3-back (i.e. the same letter as the one that appeared 3 letters ago.),x,None,,,,,,,,,0,15,15,15,0,8,8,8,,,,,,,,,,,,,,,,,,,,,,,,,,,,,,,,,,,,,,,,,,,,,,,,,,,,,,,,,,,,,,,,,,,,,1.847,1106.8978576000081,None,None,1,1106.8978576000081,None,,P001,fencog,1,Pre,2021_Jun_22_1149,N-Back (New Version 2021),2021.1.4,119.86009928730878,
,,,,Conditions/Version_1/threeback(4)_v1.xlsx,New rule: Press 'space' when you see 3-back (i.e. the same letter as the one that appeared 3 letters ago.),X,None,,,,,,,,,0,15,15,15,0,9,9,9,,,,,,,,,,,,,,,,,,,,,,,,,,,,,,,,,,,,,,,,,,,,,,,,,,,,,,,,,,,,,,,,,,,,,1.289,1110.1980850999826,None,None,1,1110.1980850999826,None,,P001,fencog,1,Pre,2021_Jun_22_1149,N-Back (New Version 2021),2021.1.4,119.86009928730878,
,,,,Conditions/Version_1/threeback(4)_v1.xlsx,New rule: Press 'space' when you see 3-back (i.e. the same letter as the one that appeared 3 letters ago.),,,,,,,,,,,0,15,15,15,,,,,,,,,,,,,,,,,,,,,,,,,,,,,,,,,,,,,,,,,,,,,,,,,,,,,,,,,,,,,,,,,,,,,,,,,,,,,,,,,P001,fencog,1,Pre,2021_Jun_22_1149,N-Back (New Version 2021),2021.1.4,119.86009928730878,
