CondFileP,InstructionsP,LettersDisplayedP,CorrectnessP,CondFile,Instructions,LettersDisplayed,Correctness,practicetrials.thisRepN,practicetrials.thisTrialN,practicetrials.thisN,practicetrials.thisIndex,InnerLoopPractice.thisRepN,InnerLoopPractice.thisTrialN,InnerLoopPractice.thisN,InnerLoopPractice.thisIndex,trials.thisRepN,trials.thisTrialN,trials.thisN,trials.thisIndex,InnerLoop.thisRepN,InnerLoop.thisTrialN,InnerLoop.thisN,InnerLoop.thisIndex,TaskVersionText.started,TaskVersionText.stopped,InstrKey1.keys,InstrKey1.rt,InstrKey1.started,InstrKey1.stopped,text.started,text.stopped,key_resp_4.keys,key_resp_4.rt,key_resp_4.started,key_resp_4.stopped,text_2.started,text_2.stopped,key_resp_3.keys,key_resp_3.rt,key_resp_3.started,key_resp_3.stopped,text_3.started,text_3.stopped,key_resp_2.keys,key_resp_2.rt,key_resp_2.started,key_resp_2.stopped,PractIn1.started,PractIn1.stopped,PractIn2.started,PractIn2.stopped,PractInstructionPass.keys,PractInstructionPass.rt,PractInstructionPass.started,PractInstructionPass.stopped,PractBlock1.started,PractBlock1.stopped,ISIjitterPractice,ISI_Pract_Fixation.started,ISI_Pract_Fixation.stopped,N_backP.started,N_backP.stopped,KeyPractice.keys,KeyPractice.corr,KeyPractice.rt,KeyPractice.started,KeyPractice.stopped,text_4.started,text_4.stopped,TransitionText.started,TransitionText.stopped,key_resp_6.keys,key_resp_6.rt,key_resp_6.started,key_resp_6.stopped,text_5.started,text_5.stopped,key_resp_5.keys,key_resp_5.rt,key_resp_5.started,key_resp_5.stopped,MainInt1.started,MainInt1.stopped,MainInt2.started,MainInt2.stopped,InstructionPass.keys,InstructionPass.rt,InstructionPass.started,InstructionPass.stopped,Blocks1.started,Blocks1.stopped,ISIjitter,N_backD.started,N_backD.stopped,key_resp.keys,key_resp.corr,key_resp.started,key_resp.stopped,key_resp.rt,participant,Study Name,Task Version (required to run),PRE/POST,date,expName,psychopyVersion,frameRate
,,,,,,,,,,,,,,,,,,,,,,,,19.052886,None,space,166.9625742,19.544419,None,,,,,,,,,,,,,,,,,,,,,,,,,,,,,,,,,,,,,,,,,,,,,,,,,,,,,,,,,,,,,,,,,,,,,,,P012,fencog,2,Pre,2021_Oct_07_1125,N-Back (New Version 2021),2021.1.4,120.0225161
,,,,,,,,,,,,,,,,,,,,,,,,,,,,,,186.5416347,None,space,4.0353203,187.0310111,None,,,,,,,,,,,,,,,,,,,,,,,,,,,,,,,,,,,,,,,,,,,,,,,,,,,,,,,,,,,,,,,,,P012,fencog,2,Pre,2021_Oct_07_1125,N-Back (New Version 2021),2021.1.4,120.0225161
,,,,,,,,,,,,,,,,,,,,,,,,,,,,,,,,,,,,191.1016682,None,space,7.7843937,191.5864659,None,,,,,,,,,,,,,,,,,,,,,,,,,,,,,,,,,,,,,,,,,,,,,,,,,,,,,,,,,,,P012,fencog,2,Pre,2021_Oct_07_1125,N-Back (New Version 2021),2021.1.4,120.0225161
,,,,,,,,,,,,,,,,,,,,,,,,,,,,,,,,,,,,,,,,,,199.4224459,None,space,5.7582321,199.9172544,None,,,,,,,,,,,,,,,,,,,,,,,,,,,,,,,,,,,,,,,,,,,,,,,,,,,,,P012,fencog,2,Pre,2021_Oct_07_1125,N-Back (New Version 2021),2021.1.4,120.0225161
Conditions/Version_2Pr/zeroback(1)_v2.xlsx,Rule: Press 'space' when you see the letter 'x' or 'X'.,x,space,,,,,0,0,0,0,0,0,0,0,,,,,,,,,,,,,,,,,,,,,,,,,,,,,,,,,207.0428327,None,210.0242959,None,space,0.6748048,210.0242959,None,207.0428327,None,1.79,210.7247337,None,212.527385,None,space,1,0.2994519,212.527385,None,212.8437865,None,,,,,,,,,,,,,,,,,,,,,,,,,,,,,,,P012,fencog,2,Pre,2021_Oct_07_1125,N-Back (New Version 2021),2021.1.4,120.0225161
Conditions/Version_2Pr/zeroback(1)_v2.xlsx,Rule: Press 'space' when you see the letter 'x' or 'X'.,R,None,,,,,0,0,0,0,0,1,1,1,,,,,,,,,,,,,,,,,,,,,,,,,,,,,,,,,,,,,,,,,,,1.415,214.3466138,None,215.7683439,None,None,1,,215.7683439,None,217.7696161,None,,,,,,,,,,,,,,,,,,,,,,,,,,,,,,,P012,fencog,2,Pre,2021_Oct_07_1125,N-Back (New Version 2021),2021.1.4,120.0225161
Conditions/Version_2Pr/zeroback(1)_v2.xlsx,Rule: Press 'space' when you see the letter 'x' or 'X'.,p,None,,,,,0,0,0,0,0,2,2,2,,,,,,,,,,,,,,,,,,,,,,,,,,,,,,,,,,,,,,,,,,,1.665,219.2690145,None,220.9385129,None,None,1,,220.9385129,None,222.9432091,None,,,,,,,,,,,,,,,,,,,,,,,,,,,,,,,P012,fencog,2,Pre,2021_Oct_07_1125,N-Back (New Version 2021),2021.1.4,120.0225161
Conditions/Version_2Pr/zeroback(1)_v2.xlsx,Rule: Press 'space' when you see the letter 'x' or 'X'.,O,None,,,,,0,0,0,0,0,3,3,3,,,,,,,,,,,,,,,,,,,,,,,,,,,,,,,,,,,,,,,,,,,1.19,224.4427697,None,225.6369302,None,None,1,,225.6369302,None,227.6417728,None,,,,,,,,,,,,,,,,,,,,,,,,,,,,,,,P012,fencog,2,Pre,2021_Oct_07_1125,N-Back (New Version 2021),2021.1.4,120.0225161
Conditions/Version_2Pr/zeroback(1)_v2.xlsx,Rule: Press 'space' when you see the letter 'x' or 'X'.,i,None,,,,,0,0,0,0,0,4,4,4,,,,,,,,,,,,,,,,,,,,,,,,,,,,,,,,,,,,,,,,,,,1.04,229.14136,None,230.1858403,None,None,1,,230.1858403,None,232.1904013,None,,,,,,,,,,,,,,,,,,,,,,,,,,,,,,,P012,fencog,2,Pre,2021_Oct_07_1125,N-Back (New Version 2021),2021.1.4,120.0225161
Conditions/Version_2Pr/zeroback(1)_v2.xlsx,Rule: Press 'space' when you see the letter 'x' or 'X'.,U,None,,,,,0,0,0,0,0,5,5,5,,,,,,,,,,,,,,,,,,,,,,,,,,,,,,,,,,,,,,,,,,,1.315,233.6899643,None,235.0111072,None,None,1,,235.0111072,None,237.0137737,None,,,,,,,,,,,,,,,,,,,,,,,,,,,,,,,P012,fencog,2,Pre,2021_Oct_07_1125,N-Back (New Version 2021),2021.1.4,120.0225161
Conditions/Version_2Pr/zeroback(1)_v2.xlsx,Rule: Press 'space' when you see the letter 'x' or 'X'.,N,None,,,,,0,0,0,0,0,6,6,6,,,,,,,,,,,,,,,,,,,,,,,,,,,,,,,,,,,,,,,,,,,1.89,238.5134999,None,240.4075782,None,None,1,,240.4075782,None,242.4123348,None,,,,,,,,,,,,,,,,,,,,,,,,,,,,,,,P012,fencog,2,Pre,2021_Oct_07_1125,N-Back (New Version 2021),2021.1.4,120.0225161
Conditions/Version_2Pr/zeroback(1)_v2.xlsx,Rule: Press 'space' when you see the letter 'x' or 'X'.,m,None,,,,,0,0,0,0,0,7,7,7,,,,,,,,,,,,,,,,,,,,,,,,,,,,,,,,,,,,,,,,,,,1.915,243.9120267,None,245.8298398,None,None,1,,245.8298398,None,247.8337369,None,,,,,,,,,,,,,,,,,,,,,,,,,,,,,,,P012,fencog,2,Pre,2021_Oct_07_1125,N-Back (New Version 2021),2021.1.4,120.0225161
Conditions/Version_2Pr/zeroback(1)_v2.xlsx,Rule: Press 'space' when you see the letter 'x' or 'X'.,x,space,,,,,0,0,0,0,0,8,8,8,,,,,,,,,,,,,,,,,,,,,,,,,,,,,,,,,,,,,,,,,,,1.565,249.3354521,None,250.9025747,None,space,1,0.3963658,250.9025747,None,251.317439,None,,,,,,,,,,,,,,,,,,,,,,,,,,,,,,,P012,fencog,2,Pre,2021_Oct_07_1125,N-Back (New Version 2021),2021.1.4,120.0225161
Conditions/Version_2Pr/zeroback(1)_v2.xlsx,Rule: Press 'space' when you see the letter 'x' or 'X'.,X,space,,,,,0,0,0,0,0,9,9,9,,,,,,,,,,,,,,,,,,,,,,,,,,,,,,,,,,,,,,,,,,,1.615,252.8174709,None,254.4358428,None,space,1,0.4711926,254.4358428,None,254.918056,None,,,,,,,,,,,,,,,,,,,,,,,,,,,,,,,P012,fencog,2,Pre,2021_Oct_07_1125,N-Back (New Version 2021),2021.1.4,120.0225161
Conditions/Version_2Pr/zeroback(1)_v2.xlsx,Rule: Press 'space' when you see the letter 'x' or 'X'.,,,,,,,0,0,0,0,,,,,,,,,,,,,,,,,,,,,,,,,,,,,,,,,,,,,,,,,,,,,,,,,,,,,,,,,,,,,,,,,,,,,,,,,,,,,,,,,,,,,,,,,P012,fencog,2,Pre,2021_Oct_07_1125,N-Back (New Version 2021),2021.1.4,120.0225161
Conditions/Version_2Pr/oneback(1)_v2.xlsx,New rule: Press 'space' when you see 1-back (i.e. the same letter as the one that appeared 1 letter ago.),r,None,,,,,0,1,1,1,0,0,0,0,,,,,,,,,,,,,,,,,,,,,,,,,,,,,,,,,256.4520927,None,259.4338623,None,space,2.2569367,259.4338623,None,256.4520927,None,1.89,261.7149327,None,263.6100354,None,None,1,,263.6100354,None,265.6139776,None,,,,,,,,,,,,,,,,,,,,,,,,,,,,,,,P012,fencog,2,Pre,2021_Oct_07_1125,N-Back (New Version 2021),2021.1.4,120.0225161
Conditions/Version_2Pr/oneback(1)_v2.xlsx,New rule: Press 'space' when you see 1-back (i.e. the same letter as the one that appeared 1 letter ago.),t,None,,,,,0,1,1,1,0,1,1,1,,,,,,,,,,,,,,,,,,,,,,,,,,,,,,,,,,,,,,,,,,,1.29,267.1134978,None,268.4081278,None,None,1,,268.4081278,None,270.4125952,None,,,,,,,,,,,,,,,,,,,,,,,,,,,,,,,P012,fencog,2,Pre,2021_Oct_07_1125,N-Back (New Version 2021),2021.1.4,120.0225161
Conditions/Version_2Pr/oneback(1)_v2.xlsx,New rule: Press 'space' when you see 1-back (i.e. the same letter as the one that appeared 1 letter ago.),Y,None,,,,,0,1,1,1,0,2,2,2,,,,,,,,,,,,,,,,,,,,,,,,,,,,,,,,,,,,,,,,,,,1.565,271.9120836,None,273.4815005,None,None,1,,273.4815005,None,275.4860628,None,,,,,,,,,,,,,,,,,,,,,,,,,,,,,,,P012,fencog,2,Pre,2021_Oct_07_1125,N-Back (New Version 2021),2021.1.4,120.0225161
Conditions/Version_2Pr/oneback(1)_v2.xlsx,New rule: Press 'space' when you see 1-back (i.e. the same letter as the one that appeared 1 letter ago.),y,space,,,,,0,1,1,1,0,3,3,3,,,,,,,,,,,,,,,,,,,,,,,,,,,,,,,,,,,,,,,,,,,1.14,276.9856028,None,278.1307815,None,space,1,0.4002653,278.1307815,None,278.544276,None,,,,,,,,,,,,,,,,,,,,,,,,,,,,,,,P012,fencog,2,Pre,2021_Oct_07_1125,N-Back (New Version 2021),2021.1.4,120.0225161
Conditions/Version_2Pr/oneback(1)_v2.xlsx,New rule: Press 'space' when you see 1-back (i.e. the same letter as the one that appeared 1 letter ago.),p,None,,,,,0,1,1,1,0,4,4,4,,,,,,,,,,,,,,,,,,,,,,,,,,,,,,,,,,,,,,,,,,,1.44,280.0512517,None,281.4943846,None,None,1,,281.4943846,None,283.5003247,None,,,,,,,,,,,,,,,,,,,,,,,,,,,,,,,P012,fencog,2,Pre,2021_Oct_07_1125,N-Back (New Version 2021),2021.1.4,120.0225161
Conditions/Version_2Pr/oneback(1)_v2.xlsx,New rule: Press 'space' when you see 1-back (i.e. the same letter as the one that appeared 1 letter ago.),P,space,,,,,0,1,1,1,0,5,5,5,,,,,,,,,,,,,,,,,,,,,,,,,,,,,,,,,,,,,,,,,,,1.215,284.9999096,None,286.2191934,None,space,1,0.3760131,286.2191934,None,286.6085793,None,,,,,,,,,,,,,,,,,,,,,,,,,,,,,,,P012,fencog,2,Pre,2021_Oct_07_1125,N-Back (New Version 2021),2021.1.4,120.0225161
Conditions/Version_2Pr/oneback(1)_v2.xlsx,New rule: Press 'space' when you see 1-back (i.e. the same letter as the one that appeared 1 letter ago.),e,None,,,,,0,1,1,1,0,6,6,6,,,,,,,,,,,,,,,,,,,,,,,,,,,,,,,,,,,,,,,,,,,1.39,288.115477,None,289.5068089,None,None,1,,289.5068089,None,291.5074068,None,,,,,,,,,,,,,,,,,,,,,,,,,,,,,,,P012,fencog,2,Pre,2021_Oct_07_1125,N-Back (New Version 2021),2021.1.4,120.0225161
Conditions/Version_2Pr/oneback(1)_v2.xlsx,New rule: Press 'space' when you see 1-back (i.e. the same letter as the one that appeared 1 letter ago.),r,None,,,,,0,1,1,1,0,7,7,7,,,,,,,,,,,,,,,,,,,,,,,,,,,,,,,,,,,,,,,,,,,2.015,293.01421,None,295.0321071,None,None,1,,295.0321071,None,297.0380164,None,,,,,,,,,,,,,,,,,,,,,,,,,,,,,,,P012,fencog,2,Pre,2021_Oct_07_1125,N-Back (New Version 2021),2021.1.4,120.0225161
Conditions/Version_2Pr/oneback(1)_v2.xlsx,New rule: Press 'space' when you see 1-back (i.e. the same letter as the one that appeared 1 letter ago.),R,space,,,,,0,1,1,1,0,8,8,8,,,,,,,,,,,,,,,,,,,,,,,,,,,,,,,,,,,,,,,,,,,1.99,298.5375434,None,300.5305245,None,space,1,0.3438986,300.5305245,None,300.8875815,None,,,,,,,,,,,,,,,,,,,,,,,,,,,,,,,P012,fencog,2,Pre,2021_Oct_07_1125,N-Back (New Version 2021),2021.1.4,120.0225161
Conditions/Version_2Pr/oneback(1)_v2.xlsx,New rule: Press 'space' when you see 1-back (i.e. the same letter as the one that appeared 1 letter ago.),p,None,,,,,0,1,1,1,0,9,9,9,,,,,,,,,,,,,,,,,,,,,,,,,,,,,,,,,,,,,,,,,,,1.065,302.3864675,None,303.4536208,None,None,1,,303.4536208,None,305.4605186,None,,,,,,,,,,,,,,,,,,,,,,,,,,,,,,,P012,fencog,2,Pre,2021_Oct_07_1125,N-Back (New Version 2021),2021.1.4,120.0225161
Conditions/Version_2Pr/oneback(1)_v2.xlsx,New rule: Press 'space' when you see 1-back (i.e. the same letter as the one that appeared 1 letter ago.),,,,,,,0,1,1,1,,,,,,,,,,,,,,,,,,,,,,,,,,,,,,,,,,,,,,,,,,,,,,,,,,,,,,,,,,,,,,,,,,,,,,,,,,,,,,,,,,,,,,,,,P012,fencog,2,Pre,2021_Oct_07_1125,N-Back (New Version 2021),2021.1.4,120.0225161
Conditions/Version_2Pr/twoback(1)_v2.xlsx,New rule: Press 'space' when you see 2-back (i.e. the same letter as the one that appeared 2 letters ago.),r,None,,,,,0,2,2,2,0,0,0,0,,,,,,,,,,,,,,,,,,,,,,,,,,,,,,,,,306.986289,None,309.970234,None,space,0.4247166,309.970234,None,306.986289,None,1.89,310.4121612,None,312.3099663,None,None,1,,312.3099663,None,314.3159377,None,,,,,,,,,,,,,,,,,,,,,,,,,,,,,,,P012,fencog,2,Pre,2021_Oct_07_1125,N-Back (New Version 2021),2021.1.4,120.0225161
Conditions/Version_2Pr/twoback(1)_v2.xlsx,New rule: Press 'space' when you see 2-back (i.e. the same letter as the one that appeared 2 letters ago.),P,None,,,,,0,2,2,2,0,1,1,1,,,,,,,,,,,,,,,,,,,,,,,,,,,,,,,,,,,,,,,,,,,1.915,315.8158326,None,317.7332217,None,None,1,,317.7332217,None,319.7397357,None,,,,,,,,,,,,,,,,,,,,,,,,,,,,,,,P012,fencog,2,Pre,2021_Oct_07_1125,N-Back (New Version 2021),2021.1.4,120.0225161
Conditions/Version_2Pr/twoback(1)_v2.xlsx,New rule: Press 'space' when you see 2-back (i.e. the same letter as the one that appeared 2 letters ago.),o,None,,,,,0,2,2,2,0,2,2,2,,,,,,,,,,,,,,,,,,,,,,,,,,,,,,,,,,,,,,,,,,,1.14,321.2392932,None,322.3843036,None,None,1,,322.3843036,None,324.3883753,None,,,,,,,,,,,,,,,,,,,,,,,,,,,,,,,P012,fencog,2,Pre,2021_Oct_07_1125,N-Back (New Version 2021),2021.1.4,120.0225161
Conditions/Version_2Pr/twoback(1)_v2.xlsx,New rule: Press 'space' when you see 2-back (i.e. the same letter as the one that appeared 2 letters ago.),p,space,,,,,0,2,2,2,0,3,3,3,,,,,,,,,,,,,,,,,,,,,,,,,,,,,,,,,,,,,,,,,,,1.19,325.8878315,None,327.0811207,None,space,1,0.5056545,327.0811207,None,327.6024794,None,,,,,,,,,,,,,,,,,,,,,,,,,,,,,,,P012,fencog,2,Pre,2021_Oct_07_1125,N-Back (New Version 2021),2021.1.4,120.0225161
Conditions/Version_2Pr/twoback(1)_v2.xlsx,New rule: Press 'space' when you see 2-back (i.e. the same letter as the one that appeared 2 letters ago.),Y,None,,,,,0,2,2,2,0,4,4,4,,,,,,,,,,,,,,,,,,,,,,,,,,,,,,,,,,,,,,,,,,,1.215,329.1036212,None,330.3217025,None,None,1,,330.3217025,None,332.3277005,None,,,,,,,,,,,,,,,,,,,,,,,,,,,,,,,P012,fencog,2,Pre,2021_Oct_07_1125,N-Back (New Version 2021),2021.1.4,120.0225161
Conditions/Version_2Pr/twoback(1)_v2.xlsx,New rule: Press 'space' when you see 2-back (i.e. the same letter as the one that appeared 2 letters ago.),q,None,,,,,0,2,2,2,0,5,5,5,,,,,,,,,,,,,,,,,,,,,,,,,,,,,,,,,,,,,,,,,,,1.065,333.8271578,None,334.8964219,None,None,1,,334.8964219,None,336.9013793,None,,,,,,,,,,,,,,,,,,,,,,,,,,,,,,,P012,fencog,2,Pre,2021_Oct_07_1125,N-Back (New Version 2021),2021.1.4,120.0225161
Conditions/Version_2Pr/twoback(1)_v2.xlsx,New rule: Press 'space' when you see 2-back (i.e. the same letter as the one that appeared 2 letters ago.),m,None,,,,,0,2,2,2,0,6,6,6,,,,,,,,,,,,,,,,,,,,,,,,,,,,,,,,,,,,,,,,,,,1.415,338.4008643,None,339.8194359,None,None,1,,339.8194359,None,341.8248838,None,,,,,,,,,,,,,,,,,,,,,,,,,,,,,,,P012,fencog,2,Pre,2021_Oct_07_1125,N-Back (New Version 2021),2021.1.4,120.0225161
Conditions/Version_2Pr/twoback(1)_v2.xlsx,New rule: Press 'space' when you see 2-back (i.e. the same letter as the one that appeared 2 letters ago.),Q,space,,,,,0,2,2,2,0,7,7,7,,,,,,,,,,,,,,,,,,,,,,,,,,,,,,,,,,,,,,,,,,,1.865,343.3244279,None,345.1950323,None,None,0,,345.1950323,None,347.2019707,None,,,,,,,,,,,,,,,,,,,,,,,,,,,,,,,P012,fencog,2,Pre,2021_Oct_07_1125,N-Back (New Version 2021),2021.1.4,120.0225161
Conditions/Version_2Pr/twoback(1)_v2.xlsx,New rule: Press 'space' when you see 2-back (i.e. the same letter as the one that appeared 2 letters ago.),L,None,,,,,0,2,2,2,0,8,8,8,,,,,,,,,,,,,,,,,,,,,,,,,,,,,,,,,,,,,,,,,,,1.365,348.6979087,None,350.0687954,None,None,1,,350.0687954,None,352.0743975,None,,,,,,,,,,,,,,,,,,,,,,,,,,,,,,,P012,fencog,2,Pre,2021_Oct_07_1125,N-Back (New Version 2021),2021.1.4,120.0225161
Conditions/Version_2Pr/twoback(1)_v2.xlsx,New rule: Press 'space' when you see 2-back (i.e. the same letter as the one that appeared 2 letters ago.),q,space,,,,,0,2,2,2,0,9,9,9,,,,,,,,,,,,,,,,,,,,,,,,,,,,,,,,,,,,,,,,,,,1.265,353.5713001,None,354.8397442,None,space,1,1.5796969,354.8397442,None,356.4300451,None,,,,,,,,,,,,,,,,,,,,,,,,,,,,,,,P012,fencog,2,Pre,2021_Oct_07_1125,N-Back (New Version 2021),2021.1.4,120.0225161
Conditions/Version_2Pr/twoback(1)_v2.xlsx,New rule: Press 'space' when you see 2-back (i.e. the same letter as the one that appeared 2 letters ago.),,,,,,,0,2,2,2,,,,,,,,,,,,,,,,,,,,,,,,,,,,,,,,,,,,,,,,,,,,,,,,,,,,,,,,,,,,,,,,,,,,,,,,,,,,,,,,,,,,,,,,,P012,fencog,2,Pre,2021_Oct_07_1125,N-Back (New Version 2021),2021.1.4,120.0225161
Conditions/Version_2Pr/threeback(1)_v2.xlsx,New rule: Press 'space' when you see 3-back (i.e. the same letter as the one that appeared 3 letters ago.),u,None,,,,,0,3,3,3,0,0,0,0,,,,,,,,,,,,,,,,,,,,,,,,,,,,,,,,,357.9669657,None,360.9464278,None,space,9.2963352,360.9464278,None,357.9669657,None,1.99,370.2638064,None,372.2626615,None,None,1,,372.2626615,None,374.2653691,None,,,,,,,,,,,,,,,,,,,,,,,,,,,,,,,P012,fencog,2,Pre,2021_Oct_07_1125,N-Back (New Version 2021),2021.1.4,120.0225161
Conditions/Version_2Pr/threeback(1)_v2.xlsx,New rule: Press 'space' when you see 3-back (i.e. the same letter as the one that appeared 3 letters ago.),U,None,,,,,0,3,3,3,0,1,1,1,,,,,,,,,,,,,,,,,,,,,,,,,,,,,,,,,,,,,,,,,,,1.79,375.7648916,None,377.5578251,None,None,1,,377.5578251,None,379.5637627,None,,,,,,,,,,,,,,,,,,,,,,,,,,,,,,,P012,fencog,2,Pre,2021_Oct_07_1125,N-Back (New Version 2021),2021.1.4,120.0225161
Conditions/Version_2Pr/threeback(1)_v2.xlsx,New rule: Press 'space' when you see 3-back (i.e. the same letter as the one that appeared 3 letters ago.),p,None,,,,,0,3,3,3,0,2,2,2,,,,,,,,,,,,,,,,,,,,,,,,,,,,,,,,,,,,,,,,,,,1.24,381.063356,None,382.3074446,None,None,1,,382.3074446,None,384.3124393,None,,,,,,,,,,,,,,,,,,,,,,,,,,,,,,,P012,fencog,2,Pre,2021_Oct_07_1125,N-Back (New Version 2021),2021.1.4,120.0225161
Conditions/Version_2Pr/threeback(1)_v2.xlsx,New rule: Press 'space' when you see 3-back (i.e. the same letter as the one that appeared 3 letters ago.),U,space,,,,,0,3,3,3,0,3,3,3,,,,,,,,,,,,,,,,,,,,,,,,,,,,,,,,,,,,,,,,,,,1.29,385.8119691,None,387.1044439,None,space,1,0.3865143,387.1044439,None,387.5088552,None,,,,,,,,,,,,,,,,,,,,,,,,,,,,,,,P012,fencog,2,Pre,2021_Oct_07_1125,N-Back (New Version 2021),2021.1.4,120.0225161
Conditions/Version_2Pr/threeback(1)_v2.xlsx,New rule: Press 'space' when you see 3-back (i.e. the same letter as the one that appeared 3 letters ago.),e,None,,,,,0,3,3,3,0,4,4,4,,,,,,,,,,,,,,,,,,,,,,,,,,,,,,,,,,,,,,,,,,,1.34,389.0119351,None,390.3539771,None,None,1,,390.3539771,None,392.3600749,None,,,,,,,,,,,,,,,,,,,,,,,,,,,,,,,P012,fencog,2,Pre,2021_Oct_07_1125,N-Back (New Version 2021),2021.1.4,120.0225161
Conditions/Version_2Pr/threeback(1)_v2.xlsx,New rule: Press 'space' when you see 3-back (i.e. the same letter as the one that appeared 3 letters ago.),R,None,,,,,0,3,3,3,0,5,5,5,,,,,,,,,,,,,,,,,,,,,,,,,,,,,,,,,,,,,,,,,,,2.015,393.8597163,None,395.87757,None,None,1,,395.87757,None,397.8834899,None,,,,,,,,,,,,,,,,,,,,,,,,,,,,,,,P012,fencog,2,Pre,2021_Oct_07_1125,N-Back (New Version 2021),2021.1.4,120.0225161
Conditions/Version_2Pr/threeback(1)_v2.xlsx,New rule: Press 'space' when you see 3-back (i.e. the same letter as the one that appeared 3 letters ago.),p,None,,,,,0,3,3,3,0,6,6,6,,,,,,,,,,,,,,,,,,,,,,,,,,,,,,,,,,,,,,,,,,,1.165,399.3829172,None,400.5514573,None,space,0,0.4694728,400.5514573,None,401.0375423,None,,,,,,,,,,,,,,,,,,,,,,,,,,,,,,,P012,fencog,2,Pre,2021_Oct_07_1125,N-Back (New Version 2021),2021.1.4,120.0225161
Conditions/Version_2Pr/threeback(1)_v2.xlsx,New rule: Press 'space' when you see 3-back (i.e. the same letter as the one that appeared 3 letters ago.),E,space,,,,,0,3,3,3,0,7,7,7,,,,,,,,,,,,,,,,,,,,,,,,,,,,,,,,,,,,,,,,,,,1.54,402.5401014,None,404.0849855,None,space,1,1.1339349,404.0849855,None,405.2389406,None,,,,,,,,,,,,,,,,,,,,,,,,,,,,,,,P012,fencog,2,Pre,2021_Oct_07_1125,N-Back (New Version 2021),2021.1.4,120.0225161
Conditions/Version_2Pr/threeback(1)_v2.xlsx,New rule: Press 'space' when you see 3-back (i.e. the same letter as the one that appeared 3 letters ago.),k,None,,,,,0,3,3,3,0,8,8,8,,,,,,,,,,,,,,,,,,,,,,,,,,,,,,,,,,,,,,,,,,,1.84,406.7391058,None,408.5824437,None,None,1,,408.5824437,None,410.5878469,None,,,,,,,,,,,,,,,,,,,,,,,,,,,,,,,P012,fencog,2,Pre,2021_Oct_07_1125,N-Back (New Version 2021),2021.1.4,120.0225161
Conditions/Version_2Pr/threeback(1)_v2.xlsx,New rule: Press 'space' when you see 3-back (i.e. the same letter as the one that appeared 3 letters ago.),m,None,,,,,0,3,3,3,0,9,9,9,,,,,,,,,,,,,,,,,,,,,,,,,,,,,,,,,,,,,,,,,,,1.965,412.0875742,None,414.0532415,None,space,0,0.6136235,414.0532415,None,414.6931274,None,,,,,,,,,,,,,,,,,,,,,,,,,,,,,,,P012,fencog,2,Pre,2021_Oct_07_1125,N-Back (New Version 2021),2021.1.4,120.0225161
Conditions/Version_2Pr/threeback(1)_v2.xlsx,New rule: Press 'space' when you see 3-back (i.e. the same letter as the one that appeared 3 letters ago.),,,,,,,0,3,3,3,,,,,,,,,,,,,,,,,,,,,,,,,,,,,,,,,,,,,,,,,,,,,,,,,,,,,,,,,,,,,,,,,,,,,,,,,,,,,,,,,,,,,,,,,P012,fencog,2,Pre,2021_Oct_07_1125,N-Back (New Version 2021),2021.1.4,120.0225161
,,,,,,,,,,,,,,,,,,,,,,,,,,,,,,,,,,,,,,,,,,,,,,,,,,,,,,,,,,,,,,,,,,,,,,416.2019922,None,space,0.8205182,416.6948269,None,,,,,,,,,,,,,,,,,,,,,,,,,P012,fencog,2,Pre,2021_Oct_07_1125,N-Back (New Version 2021),2021.1.4,120.0225161
,,,,,,,,,,,,,,,,,,,,,,,,,,,,,,,,,,,,,,,,,,,,,,,,,,,,,,,,,,,,,,,,,,,,,,,,,,,,417.5618906,None,space,2.9097004,418.053119,None,,,,,,,,,,,,,,,,,,,P012,fencog,2,Pre,2021_Oct_07_1125,N-Back (New Version 2021),2021.1.4,120.0225161
,,,,Conditions/Version_1/zeroback(1)_v1.xlsx,Rule: Press 'space' when you see the letter 'x' or 'X'.,b,None,,,,,,,,,0,0,0,0,0,0,0,0,,,,,,,,,,,,,,,,,,,,,,,,,,,,,,,,,,,,,,,,,,,,,,,,,,,,,,,,,,,421.0680463,None,424.0525192,None,space,50.2623611,424.0525192,None,421.0680463,None,1.196,475.5476994,None,None,1,475.5476994,None,,P012,fencog,2,Pre,2021_Oct_07_1125,N-Back (New Version 2021),2021.1.4,120.0225161
,,,,Conditions/Version_1/zeroback(1)_v1.xlsx,Rule: Press 'space' when you see the letter 'x' or 'X'.,T,None,,,,,,,,,0,0,0,0,0,1,1,1,,,,,,,,,,,,,,,,,,,,,,,,,,,,,,,,,,,,,,,,,,,,,,,,,,,,,,,,,,,,,,,,,,,,,1.2022,478.767486,None,None,1,478.767486,None,,P012,fencog,2,Pre,2021_Oct_07_1125,N-Back (New Version 2021),2021.1.4,120.0225161
,,,,Conditions/Version_1/zeroback(1)_v1.xlsx,Rule: Press 'space' when you see the letter 'x' or 'X'.,L,None,,,,,,,,,0,0,0,0,0,2,2,2,,,,,,,,,,,,,,,,,,,,,,,,,,,,,,,,,,,,,,,,,,,,,,,,,,,,,,,,,,,,,,,,,,,,,1.8718,482.6430077,None,None,1,482.6430077,None,,P012,fencog,2,Pre,2021_Oct_07_1125,N-Back (New Version 2021),2021.1.4,120.0225161
,,,,Conditions/Version_1/zeroback(1)_v1.xlsx,Rule: Press 'space' when you see the letter 'x' or 'X'.,x,space,,,,,,,,,0,0,0,0,0,3,3,3,,,,,,,,,,,,,,,,,,,,,,,,,,,,,,,,,,,,,,,,,,,,,,,,,,,,,,,,,,,,,,,,,,,,,1.1216,485.7765095,None,space,1,485.7765095,None,0.3784377,P012,fencog,2,Pre,2021_Oct_07_1125,N-Back (New Version 2021),2021.1.4,120.0225161
,,,,Conditions/Version_1/zeroback(1)_v1.xlsx,Rule: Press 'space' when you see the letter 'x' or 'X'.,o,None,,,,,,,,,0,0,0,0,0,4,4,4,,,,,,,,,,,,,,,,,,,,,,,,,,,,,,,,,,,,,,,,,,,,,,,,,,,,,,,,,,,,,,,,,,,,,1.7788,489.5657782,None,None,1,489.5657782,None,,P012,fencog,2,Pre,2021_Oct_07_1125,N-Back (New Version 2021),2021.1.4,120.0225161
,,,,Conditions/Version_1/zeroback(1)_v1.xlsx,Rule: Press 'space' when you see the letter 'x' or 'X'.,P,None,,,,,,,,,0,0,0,0,0,5,5,5,,,,,,,,,,,,,,,,,,,,,,,,,,,,,,,,,,,,,,,,,,,,,,,,,,,,,,,,,,,,,,,,,,,,,1.2208,492.8016104,None,None,1,492.8016104,None,,P012,fencog,2,Pre,2021_Oct_07_1125,N-Back (New Version 2021),2021.1.4,120.0225161
,,,,Conditions/Version_1/zeroback(1)_v1.xlsx,Rule: Press 'space' when you see the letter 'x' or 'X'.,X,space,,,,,,,,,0,0,0,0,0,6,6,6,,,,,,,,,,,,,,,,,,,,,,,,,,,,,,,,,,,,,,,,,,,,,,,,,,,,,,,,,,,,,,,,,,,,,1.4006,496.2086272,None,space,1,496.2086272,None,0.3147699,P012,fencog,2,Pre,2021_Oct_07_1125,N-Back (New Version 2021),2021.1.4,120.0225161
,,,,Conditions/Version_1/zeroback(1)_v1.xlsx,Rule: Press 'space' when you see the letter 'x' or 'X'.,n,None,,,,,,,,,0,0,0,0,0,7,7,7,,,,,,,,,,,,,,,,,,,,,,,,,,,,,,,,,,,,,,,,,,,,,,,,,,,,,,,,,,,,,,,,,,,,,1.0534,499.2722998,None,None,1,499.2722998,None,,P012,fencog,2,Pre,2021_Oct_07_1125,N-Back (New Version 2021),2021.1.4,120.0225161
,,,,Conditions/Version_1/zeroback(1)_v1.xlsx,Rule: Press 'space' when you see the letter 'x' or 'X'.,M,None,,,,,,,,,0,0,0,0,0,8,8,8,,,,,,,,,,,,,,,,,,,,,,,,,,,,,,,,,,,,,,,,,,,,,,,,,,,,,,,,,,,,,,,,,,,,,1.9152,503.1956791,None,None,1,503.1956791,None,,P012,fencog,2,Pre,2021_Oct_07_1125,N-Back (New Version 2021),2021.1.4,120.0225161
,,,,Conditions/Version_1/zeroback(1)_v1.xlsx,Rule: Press 'space' when you see the letter 'x' or 'X'.,a,None,,,,,,,,,0,0,0,0,0,9,9,9,,,,,,,,,,,,,,,,,,,,,,,,,,,,,,,,,,,,,,,,,,,,,,,,,,,,,,,,,,,,,,,,,,,,,1.3138,506.5182173,None,None,1,506.5182173,None,,P012,fencog,2,Pre,2021_Oct_07_1125,N-Back (New Version 2021),2021.1.4,120.0225161
,,,,Conditions/Version_1/zeroback(1)_v1.xlsx,Rule: Press 'space' when you see the letter 'x' or 'X'.,,,,,,,,,,,0,0,0,0,,,,,,,,,,,,,,,,,,,,,,,,,,,,,,,,,,,,,,,,,,,,,,,,,,,,,,,,,,,,,,,,,,,,,,,,,,,,,,,,,P012,fencog,2,Pre,2021_Oct_07_1125,N-Back (New Version 2021),2021.1.4,120.0225161
,,,,Conditions/Version_1/oneback(1)_v1.xlsx,New rule: Press 'space' when you see 1-back (i.e. the same letter as the one that appeared 1 letter ago.),b,None,,,,,,,,,0,1,1,1,0,0,0,0,,,,,,,,,,,,,,,,,,,,,,,,,,,,,,,,,,,,,,,,,,,,,,,,,,,,,,,,,,,508.5449514,None,511.5385602,None,space,0.4806958,511.5385602,None,508.5449514,None,1.4564,513.5012551,None,None,1,513.5012551,None,,P012,fencog,2,Pre,2021_Oct_07_1125,N-Back (New Version 2021),2021.1.4,120.0225161
,,,,Conditions/Version_1/oneback(1)_v1.xlsx,New rule: Press 'space' when you see 1-back (i.e. the same letter as the one that appeared 1 letter ago.),p,None,,,,,,,,,0,1,1,1,0,1,1,1,,,,,,,,,,,,,,,,,,,,,,,,,,,,,,,,,,,,,,,,,,,,,,,,,,,,,,,,,,,,,,,,,,,,,1.7602,517.2752977,None,None,1,517.2752977,None,,P012,fencog,2,Pre,2021_Oct_07_1125,N-Back (New Version 2021),2021.1.4,120.0225161
,,,,Conditions/Version_1/oneback(1)_v1.xlsx,New rule: Press 'space' when you see 1-back (i.e. the same letter as the one that appeared 1 letter ago.),M,None,,,,,,,,,0,1,1,1,0,2,2,2,,,,,,,,,,,,,,,,,,,,,,,,,,,,,,,,,,,,,,,,,,,,,,,,,,,,,,,,,,,,,,,,,,,,,1.9772,521.2648297,None,None,1,521.2648297,None,,P012,fencog,2,Pre,2021_Oct_07_1125,N-Back (New Version 2021),2021.1.4,120.0225161
,,,,Conditions/Version_1/oneback(1)_v1.xlsx,New rule: Press 'space' when you see 1-back (i.e. the same letter as the one that appeared 1 letter ago.),M,space,,,,,,,,,0,1,1,1,0,3,3,3,,,,,,,,,,,,,,,,,,,,,,,,,,,,,,,,,,,,,,,,,,,,,,,,,,,,,,,,,,,,,,,,,,,,,1.0472,524.3210943,None,space,1,524.3210943,None,0.6257102,P012,fencog,2,Pre,2021_Oct_07_1125,N-Back (New Version 2021),2021.1.4,120.0225161
,,,,Conditions/Version_1/oneback(1)_v1.xlsx,New rule: Press 'space' when you see 1-back (i.e. the same letter as the one that appeared 1 letter ago.),n,None,,,,,,,,,0,1,1,1,0,4,4,4,,,,,,,,,,,,,,,,,,,,,,,,,,,,,,,,,,,,,,,,,,,,,,,,,,,,,,,,,,,,,,,,,,,,,1.3944,527.7201226,None,None,1,527.7201226,None,,P012,fencog,2,Pre,2021_Oct_07_1125,N-Back (New Version 2021),2021.1.4,120.0225161
,,,,Conditions/Version_1/oneback(1)_v1.xlsx,New rule: Press 'space' when you see 1-back (i.e. the same letter as the one that appeared 1 letter ago.),g,None,,,,,,,,,0,1,1,1,0,5,5,5,,,,,,,,,,,,,,,,,,,,,,,,,,,,,,,,,,,,,,,,,,,,,,,,,,,,,,,,,,,,,,,,,,,,,1.2022,530.9304552,None,space,0,530.9304552,None,0.4643029,P012,fencog,2,Pre,2021_Oct_07_1125,N-Back (New Version 2021),2021.1.4,120.0225161
,,,,Conditions/Version_1/oneback(1)_v1.xlsx,New rule: Press 'space' when you see 1-back (i.e. the same letter as the one that appeared 1 letter ago.),P,None,,,,,,,,,0,1,1,1,0,6,6,6,,,,,,,,,,,,,,,,,,,,,,,,,,,,,,,,,,,,,,,,,,,,,,,,,,,,,,,,,,,,,,,,,,,,,1.6734,534.6105188,None,None,1,534.6105188,None,,P012,fencog,2,Pre,2021_Oct_07_1125,N-Back (New Version 2021),2021.1.4,120.0225161
,,,,Conditions/Version_1/oneback(1)_v1.xlsx,New rule: Press 'space' when you see 1-back (i.e. the same letter as the one that appeared 1 letter ago.),o,None,,,,,,,,,0,1,1,1,0,7,7,7,,,,,,,,,,,,,,,,,,,,,,,,,,,,,,,,,,,,,,,,,,,,,,,,,,,,,,,,,,,,,,,,,,,,,1.5804,538.2014733,None,None,1,538.2014733,None,,P012,fencog,2,Pre,2021_Oct_07_1125,N-Back (New Version 2021),2021.1.4,120.0225161
,,,,Conditions/Version_1/oneback(1)_v1.xlsx,New rule: Press 'space' when you see 1-back (i.e. the same letter as the one that appeared 1 letter ago.),f,None,,,,,,,,,0,1,1,1,0,8,8,8,,,,,,,,,,,,,,,,,,,,,,,,,,,,,,,,,,,,,,,,,,,,,,,,,,,,,,,,,,,,,,,,,,,,,1.8532,542.0685966,None,None,1,542.0685966,None,,P012,fencog,2,Pre,2021_Oct_07_1125,N-Back (New Version 2021),2021.1.4,120.0225161
,,,,Conditions/Version_1/oneback(1)_v1.xlsx,New rule: Press 'space' when you see 1-back (i.e. the same letter as the one that appeared 1 letter ago.),F,space,,,,,,,,,0,1,1,1,0,9,9,9,,,,,,,,,,,,,,,,,,,,,,,,,,,,,,,,,,,,,,,,,,,,,,,,,,,,,,,,,,,,,,,,,,,,,1.7478,545.826003,None,space,1,545.826003,None,0.4092318,P012,fencog,2,Pre,2021_Oct_07_1125,N-Back (New Version 2021),2021.1.4,120.0225161
,,,,Conditions/Version_1/oneback(1)_v1.xlsx,New rule: Press 'space' when you see 1-back (i.e. the same letter as the one that appeared 1 letter ago.),,,,,,,,,,,0,1,1,1,,,,,,,,,,,,,,,,,,,,,,,,,,,,,,,,,,,,,,,,,,,,,,,,,,,,,,,,,,,,,,,,,,,,,,,,,,,,,,,,,P012,fencog,2,Pre,2021_Oct_07_1125,N-Back (New Version 2021),2021.1.4,120.0225161
,,,,Conditions/Version_1/twoback(1)_v1.xlsx,New rule: Press 'space' when you see 2-back (i.e. the same letter as the one that appeared 2 letters ago.),b,None,,,,,,,,,0,2,2,2,0,0,0,0,,,,,,,,,,,,,,,,,,,,,,,,,,,,,,,,,,,,,,,,,,,,,,,,,,,,,,,,,,,547.8543963,None,550.8407294,None,space,0.2742184,550.8407294,None,547.8543963,None,1.9524,553.0903576,None,None,1,553.0903576,None,,P012,fencog,2,Pre,2021_Oct_07_1125,N-Back (New Version 2021),2021.1.4,120.0225161
,,,,Conditions/Version_1/twoback(1)_v1.xlsx,New rule: Press 'space' when you see 2-back (i.e. the same letter as the one that appeared 2 letters ago.),h,None,,,,,,,,,0,2,2,2,0,1,1,1,,,,,,,,,,,,,,,,,,,,,,,,,,,,,,,,,,,,,,,,,,,,,,,,,,,,,,,,,,,,,,,,,,,,,1.2952,556.4006563,None,None,1,556.4006563,None,,P012,fencog,2,Pre,2021_Oct_07_1125,N-Back (New Version 2021),2021.1.4,120.0225161
,,,,Conditions/Version_1/twoback(1)_v1.xlsx,New rule: Press 'space' when you see 2-back (i.e. the same letter as the one that appeared 2 letters ago.),j,None,,,,,,,,,0,2,2,2,0,2,2,2,,,,,,,,,,,,,,,,,,,,,,,,,,,,,,,,,,,,,,,,,,,,,,,,,,,,,,,,,,,,,,,,,,,,,1.0472,559.453721,None,None,1,559.453721,None,,P012,fencog,2,Pre,2021_Oct_07_1125,N-Back (New Version 2021),2021.1.4,120.0225161
,,,,Conditions/Version_1/twoback(1)_v1.xlsx,New rule: Press 'space' when you see 2-back (i.e. the same letter as the one that appeared 2 letters ago.),H,space,,,,,,,,,0,2,2,2,0,3,3,3,,,,,,,,,,,,,,,,,,,,,,,,,,,,,,,,,,,,,,,,,,,,,,,,,,,,,,,,,,,,,,,,,,,,,1.0782,562.5476485,None,space,1,562.5476485,None,0.7114068,P012,fencog,2,Pre,2021_Oct_07_1125,N-Back (New Version 2021),2021.1.4,120.0225161
,,,,Conditions/Version_1/twoback(1)_v1.xlsx,New rule: Press 'space' when you see 2-back (i.e. the same letter as the one that appeared 2 letters ago.),p,None,,,,,,,,,0,2,2,2,0,4,4,4,,,,,,,,,,,,,,,,,,,,,,,,,,,,,,,,,,,,,,,,,,,,,,,,,,,,,,,,,,,,,,,,,,,,,1.5184,566.0768507,None,None,1,566.0768507,None,,P012,fencog,2,Pre,2021_Oct_07_1125,N-Back (New Version 2021),2021.1.4,120.0225161
,,,,Conditions/Version_1/twoback(1)_v1.xlsx,New rule: Press 'space' when you see 2-back (i.e. the same letter as the one that appeared 2 letters ago.),p,None,,,,,,,,,0,2,2,2,0,5,5,5,,,,,,,,,,,,,,,,,,,,,,,,,,,,,,,,,,,,,,,,,,,,,,,,,,,,,,,,,,,,,,,,,,,,,1.1588,569.2413935,None,None,1,569.2413935,None,,P012,fencog,2,Pre,2021_Oct_07_1125,N-Back (New Version 2021),2021.1.4,120.0225161
,,,,Conditions/Version_1/twoback(1)_v1.xlsx,New rule: Press 'space' when you see 2-back (i.e. the same letter as the one that appeared 2 letters ago.),w,None,,,,,,,,,0,2,2,2,0,6,6,6,,,,,,,,,,,,,,,,,,,,,,,,,,,,,,,,,,,,,,,,,,,,,,,,,,,,,,,,,,,,,,,,,,,,,1.8656,573.1084723,None,None,1,573.1084723,None,,P012,fencog,2,Pre,2021_Oct_07_1125,N-Back (New Version 2021),2021.1.4,120.0225161
,,,,Conditions/Version_1/twoback(1)_v1.xlsx,New rule: Press 'space' when you see 2-back (i.e. the same letter as the one that appeared 2 letters ago.),R,None,,,,,,,,,0,2,2,2,0,7,7,7,,,,,,,,,,,,,,,,,,,,,,,,,,,,,,,,,,,,,,,,,,,,,,,,,,,,,,,,,,,,,,,,,,,,,1.9586,577.0733337,None,None,1,577.0733337,None,,P012,fencog,2,Pre,2021_Oct_07_1125,N-Back (New Version 2021),2021.1.4,120.0225161
,,,,Conditions/Version_1/twoback(1)_v1.xlsx,New rule: Press 'space' when you see 2-back (i.e. the same letter as the one that appeared 2 letters ago.),a,None,,,,,,,,,0,2,2,2,0,8,8,8,,,,,,,,,,,,,,,,,,,,,,,,,,,,,,,,,,,,,,,,,,,,,,,,,,,,,,,,,,,,,,,,,,,,,1.5742,580.6554025,None,None,1,580.6554025,None,,P012,fencog,2,Pre,2021_Oct_07_1125,N-Back (New Version 2021),2021.1.4,120.0225161
,,,,Conditions/Version_1/twoback(1)_v1.xlsx,New rule: Press 'space' when you see 2-back (i.e. the same letter as the one that appeared 2 letters ago.),r,space,,,,,,,,,0,2,2,2,0,9,9,9,,,,,,,,,,,,,,,,,,,,,,,,,,,,,,,,,,,,,,,,,,,,,,,,,,,,,,,,,,,,,,,,,,,,,1.103,583.7723487,None,space,1,583.7723487,None,0.5020762,P012,fencog,2,Pre,2021_Oct_07_1125,N-Back (New Version 2021),2021.1.4,120.0225161
,,,,Conditions/Version_1/twoback(1)_v1.xlsx,New rule: Press 'space' when you see 2-back (i.e. the same letter as the one that appeared 2 letters ago.),,,,,,,,,,,0,2,2,2,,,,,,,,,,,,,,,,,,,,,,,,,,,,,,,,,,,,,,,,,,,,,,,,,,,,,,,,,,,,,,,,,,,,,,,,,,,,,,,,,P012,fencog,2,Pre,2021_Oct_07_1125,N-Back (New Version 2021),2021.1.4,120.0225161
,,,,Conditions/Version_1/threeback(1)_v1.xlsx,New rule: Press 'space' when you see 3-back (i.e. the same letter as the one that appeared 3 letters ago.),r,None,,,,,,,,,0,3,3,3,0,0,0,0,,,,,,,,,,,,,,,,,,,,,,,,,,,,,,,,,,,,,,,,,,,,,,,,,,,,,,,,,,,585.8018924,None,588.7797802,None,space,0.6790617,588.7797802,None,585.8018924,None,1.3882,590.8772187,None,None,1,590.8772187,None,,P012,fencog,2,Pre,2021_Oct_07_1125,N-Back (New Version 2021),2021.1.4,120.0225161
,,,,Conditions/Version_1/threeback(1)_v1.xlsx,New rule: Press 'space' when you see 3-back (i.e. the same letter as the one that appeared 3 letters ago.),o,None,,,,,,,,,0,3,3,3,0,1,1,1,,,,,,,,,,,,,,,,,,,,,,,,,,,,,,,,,,,,,,,,,,,,,,,,,,,,,,,,,,,,,,,,,,,,,1.6796,594.5695116,None,None,1,594.5695116,None,,P012,fencog,2,Pre,2021_Oct_07_1125,N-Back (New Version 2021),2021.1.4,120.0225161
,,,,Conditions/Version_1/threeback(1)_v1.xlsx,New rule: Press 'space' when you see 3-back (i.e. the same letter as the one that appeared 3 letters ago.),P,None,,,,,,,,,0,3,3,3,0,2,2,2,,,,,,,,,,,,,,,,,,,,,,,,,,,,,,,,,,,,,,,,,,,,,,,,,,,,,,,,,,,,,,,,,,,,,1.2828,597.8589114,None,None,1,597.8589114,None,,P012,fencog,2,Pre,2021_Oct_07_1125,N-Back (New Version 2021),2021.1.4,120.0225161
,,,,Conditions/Version_1/threeback(1)_v1.xlsx,New rule: Press 'space' when you see 3-back (i.e. the same letter as the one that appeared 3 letters ago.),R,space,,,,,,,,,0,3,3,3,0,3,3,3,,,,,,,,,,,,,,,,,,,,,,,,,,,,,,,,,,,,,,,,,,,,,,,,,,,,,,,,,,,,,,,,,,,,,1.4006,601.2755655,None,space,1,601.2755655,None,0.8152021,P012,fencog,2,Pre,2021_Oct_07_1125,N-Back (New Version 2021),2021.1.4,120.0225161
,,,,Conditions/Version_1/threeback(1)_v1.xlsx,New rule: Press 'space' when you see 3-back (i.e. the same letter as the one that appeared 3 letters ago.),p,None,,,,,,,,,0,3,3,3,0,4,4,4,,,,,,,,,,,,,,,,,,,,,,,,,,,,,,,,,,,,,,,,,,,,,,,,,,,,,,,,,,,,,,,,,,,,,1.9028,605.1900822,None,None,1,605.1900822,None,,P012,fencog,2,Pre,2021_Oct_07_1125,N-Back (New Version 2021),2021.1.4,120.0225161
,,,,Conditions/Version_1/threeback(1)_v1.xlsx,New rule: Press 'space' when you see 3-back (i.e. the same letter as the one that appeared 3 letters ago.),E,None,,,,,,,,,0,3,3,3,0,5,5,5,,,,,,,,,,,,,,,,,,,,,,,,,,,,,,,,,,,,,,,,,,,,,,,,,,,,,,,,,,,,,,,,,,,,,1.847,609.0473963,None,None,1,609.0473963,None,,P012,fencog,2,Pre,2021_Oct_07_1125,N-Back (New Version 2021),2021.1.4,120.0225161
,,,,Conditions/Version_1/threeback(1)_v1.xlsx,New rule: Press 'space' when you see 3-back (i.e. the same letter as the one that appeared 3 letters ago.),e,None,,,,,,,,,0,3,3,3,0,6,6,6,,,,,,,,,,,,,,,,,,,,,,,,,,,,,,,,,,,,,,,,,,,,,,,,,,,,,,,,,,,,,,,,,,,,,1.4192,612.4803686,None,None,1,612.4803686,None,,P012,fencog,2,Pre,2021_Oct_07_1125,N-Back (New Version 2021),2021.1.4,120.0225161
,,,,Conditions/Version_1/threeback(1)_v1.xlsx,New rule: Press 'space' when you see 3-back (i.e. the same letter as the one that appeared 3 letters ago.),m,None,,,,,,,,,0,3,3,3,0,7,7,7,,,,,,,,,,,,,,,,,,,,,,,,,,,,,,,,,,,,,,,,,,,,,,,,,,,,,,,,,,,,,,,,,,,,,1.227,615.7204032,None,None,1,615.7204032,None,,P012,fencog,2,Pre,2021_Oct_07_1125,N-Back (New Version 2021),2021.1.4,120.0225161
,,,,Conditions/Version_1/threeback(1)_v1.xlsx,New rule: Press 'space' when you see 3-back (i.e. the same letter as the one that appeared 3 letters ago.),n,None,,,,,,,,,0,3,3,3,0,8,8,8,,,,,,,,,,,,,,,,,,,,,,,,,,,,,,,,,,,,,,,,,,,,,,,,,,,,,,,,,,,,,,,,,,,,,1.6858,619.4191449,None,None,1,619.4191449,None,,P012,fencog,2,Pre,2021_Oct_07_1125,N-Back (New Version 2021),2021.1.4,120.0225161
,,,,Conditions/Version_1/threeback(1)_v1.xlsx,New rule: Press 'space' when you see 3-back (i.e. the same letter as the one that appeared 3 letters ago.),e,space,,,,,,,,,0,3,3,3,0,9,9,9,,,,,,,,,,,,,,,,,,,,,,,,,,,,,,,,,,,,,,,,,,,,,,,,,,,,,,,,,,,,,,,,,,,,,1.1216,622.550721,None,None,0,622.550721,None,,P012,fencog,2,Pre,2021_Oct_07_1125,N-Back (New Version 2021),2021.1.4,120.0225161
,,,,Conditions/Version_1/threeback(1)_v1.xlsx,New rule: Press 'space' when you see 3-back (i.e. the same letter as the one that appeared 3 letters ago.),,,,,,,,,,,0,3,3,3,,,,,,,,,,,,,,,,,,,,,,,,,,,,,,,,,,,,,,,,,,,,,,,,,,,,,,,,,,,,,,,,,,,,,,,,,,,,,,,,,P012,fencog,2,Pre,2021_Oct_07_1125,N-Back (New Version 2021),2021.1.4,120.0225161
,,,,Conditions/Version_1/oneback(2)_v1.xlsx,New rule: Press 'space' when you see 1-back (i.e. the same letter as the one that appeared 1 letter ago.),q,None,,,,,,,,,0,4,4,4,0,0,0,0,,,,,,,,,,,,,,,,,,,,,,,,,,,,,,,,,,,,,,,,,,,,,,,,,,,,,,,,,,,624.572483,None,627.5598982,None,space,0.7389777,627.5598982,None,624.572483,None,1.94,630.2649083,None,None,1,630.2649083,None,,P012,fencog,2,Pre,2021_Oct_07_1125,N-Back (New Version 2021),2021.1.4,120.0225161
,,,,Conditions/Version_1/oneback(2)_v1.xlsx,New rule: Press 'space' when you see 1-back (i.e. the same letter as the one that appeared 1 letter ago.),Q,space,,,,,,,,,0,4,4,4,0,1,1,1,,,,,,,,,,,,,,,,,,,,,,,,,,,,,,,,,,,,,,,,,,,,,,,,,,,,,,,,,,,,,,,,,,,,,1.4874,633.7650873,None,space,1,633.7650873,None,0.3818125,P012,fencog,2,Pre,2021_Oct_07_1125,N-Back (New Version 2021),2021.1.4,120.0225161
,,,,Conditions/Version_1/oneback(2)_v1.xlsx,New rule: Press 'space' when you see 1-back (i.e. the same letter as the one that appeared 1 letter ago.),P,None,,,,,,,,,0,4,4,4,0,2,2,2,,,,,,,,,,,,,,,,,,,,,,,,,,,,,,,,,,,,,,,,,,,,,,,,,,,,,,,,,,,,,,,,,,,,,1.7354,637.5129023,None,None,1,637.5129023,None,,P012,fencog,2,Pre,2021_Oct_07_1125,N-Back (New Version 2021),2021.1.4,120.0225161
,,,,Conditions/Version_1/oneback(2)_v1.xlsx,New rule: Press 'space' when you see 1-back (i.e. the same letter as the one that appeared 1 letter ago.),o,None,,,,,,,,,0,4,4,4,0,3,3,3,,,,,,,,,,,,,,,,,,,,,,,,,,,,,,,,,,,,,,,,,,,,,,,,,,,,,,,,,,,,,,,,,,,,,1.2952,640.8123722,None,None,1,640.8123722,None,,P012,fencog,2,Pre,2021_Oct_07_1125,N-Back (New Version 2021),2021.1.4,120.0225161
,,,,Conditions/Version_1/oneback(2)_v1.xlsx,New rule: Press 'space' when you see 1-back (i.e. the same letter as the one that appeared 1 letter ago.),m,None,,,,,,,,,0,4,4,4,0,4,4,4,,,,,,,,,,,,,,,,,,,,,,,,,,,,,,,,,,,,,,,,,,,,,,,,,,,,,,,,,,,,,,,,,,,,,1.8904,644.7074203,None,None,1,644.7074203,None,,P012,fencog,2,Pre,2021_Oct_07_1125,N-Back (New Version 2021),2021.1.4,120.0225161
,,,,Conditions/Version_1/oneback(2)_v1.xlsx,New rule: Press 'space' when you see 1-back (i.e. the same letter as the one that appeared 1 letter ago.),Z,None,,,,,,,,,0,4,4,4,0,5,5,5,,,,,,,,,,,,,,,,,,,,,,,,,,,,,,,,,,,,,,,,,,,,,,,,,,,,,,,,,,,,,,,,,,,,,1.6486,648.3630785,None,None,1,648.3630785,None,,P012,fencog,2,Pre,2021_Oct_07_1125,N-Back (New Version 2021),2021.1.4,120.0225161
,,,,Conditions/Version_1/oneback(2)_v1.xlsx,New rule: Press 'space' when you see 1-back (i.e. the same letter as the one that appeared 1 letter ago.),c,None,,,,,,,,,0,4,4,4,0,6,6,6,,,,,,,,,,,,,,,,,,,,,,,,,,,,,,,,,,,,,,,,,,,,,,,,,,,,,,,,,,,,,,,,,,,,,1.7292,652.1032427,None,None,1,652.1032427,None,,P012,fencog,2,Pre,2021_Oct_07_1125,N-Back (New Version 2021),2021.1.4,120.0225161
,,,,Conditions/Version_1/oneback(2)_v1.xlsx,New rule: Press 'space' when you see 1-back (i.e. the same letter as the one that appeared 1 letter ago.),c,space,,,,,,,,,0,4,4,4,0,7,7,7,,,,,,,,,,,,,,,,,,,,,,,,,,,,,,,,,,,,,,,,,,,,,,,,,,,,,,,,,,,,,,,,,,,,,1.5556,655.6657431,None,space,1,655.6657431,None,0.4812881,P012,fencog,2,Pre,2021_Oct_07_1125,N-Back (New Version 2021),2021.1.4,120.0225161
,,,,Conditions/Version_1/oneback(2)_v1.xlsx,New rule: Press 'space' when you see 1-back (i.e. the same letter as the one that appeared 1 letter ago.),P,None,,,,,,,,,0,4,4,4,0,8,8,8,,,,,,,,,,,,,,,,,,,,,,,,,,,,,,,,,,,,,,,,,,,,,,,,,,,,,,,,,,,,,,,,,,,,,1.9214,659.591546,None,None,1,659.591546,None,,P012,fencog,2,Pre,2021_Oct_07_1125,N-Back (New Version 2021),2021.1.4,120.0225161
,,,,Conditions/Version_1/oneback(2)_v1.xlsx,New rule: Press 'space' when you see 1-back (i.e. the same letter as the one that appeared 1 letter ago.),p,space,,,,,,,,,0,4,4,4,0,9,9,9,,,,,,,,,,,,,,,,,,,,,,,,,,,,,,,,,,,,,,,,,,,,,,,,,,,,,,,,,,,,,,,,,,,,,1.5122,663.1151261,None,space,1,663.1151261,None,0.4000087,P012,fencog,2,Pre,2021_Oct_07_1125,N-Back (New Version 2021),2021.1.4,120.0225161
,,,,Conditions/Version_1/oneback(2)_v1.xlsx,New rule: Press 'space' when you see 1-back (i.e. the same letter as the one that appeared 1 letter ago.),,,,,,,,,,,0,4,4,4,,,,,,,,,,,,,,,,,,,,,,,,,,,,,,,,,,,,,,,,,,,,,,,,,,,,,,,,,,,,,,,,,,,,,,,,,,,,,,,,,P012,fencog,2,Pre,2021_Oct_07_1125,N-Back (New Version 2021),2021.1.4,120.0225161
,,,,Conditions/Version_1/zeroback(2)_v1.xlsx,New rule: Press 'space' when you see the letter 'x' or 'X'.,p,None,,,,,,,,,0,5,5,5,0,0,0,0,,,,,,,,,,,,,,,,,,,,,,,,,,,,,,,,,,,,,,,,,,,,,,,,,,,,,,,,,,,665.1456677,None,668.1310267,None,space,0.4806688,668.1310267,None,665.1456677,None,1.4564,670.086685,None,None,1,670.086685,None,,P012,fencog,2,Pre,2021_Oct_07_1125,N-Back (New Version 2021),2021.1.4,120.0225161
,,,,Conditions/Version_1/zeroback(2)_v1.xlsx,New rule: Press 'space' when you see the letter 'x' or 'X'.,L,None,,,,,,,,,0,5,5,5,0,1,1,1,,,,,,,,,,,,,,,,,,,,,,,,,,,,,,,,,,,,,,,,,,,,,,,,,,,,,,,,,,,,,,,,,,,,,1.3696,673.4617546,None,None,1,673.4617546,None,,P012,fencog,2,Pre,2021_Oct_07_1125,N-Back (New Version 2021),2021.1.4,120.0225161
,,,,Conditions/Version_1/zeroback(2)_v1.xlsx,New rule: Press 'space' when you see the letter 'x' or 'X'.,G,None,,,,,,,,,0,5,5,5,0,2,2,2,,,,,,,,,,,,,,,,,,,,,,,,,,,,,,,,,,,,,,,,,,,,,,,,,,,,,,,,,,,,,,,,,,,,,1.5308,677.0042059,None,None,1,677.0042059,None,,P012,fencog,2,Pre,2021_Oct_07_1125,N-Back (New Version 2021),2021.1.4,120.0225161
,,,,Conditions/Version_1/zeroback(2)_v1.xlsx,New rule: Press 'space' when you see the letter 'x' or 'X'.,y,None,,,,,,,,,0,5,5,5,0,3,3,3,,,,,,,,,,,,,,,,,,,,,,,,,,,,,,,,,,,,,,,,,,,,,,,,,,,,,,,,,,,,,,,,,,,,,1.8346,680.8528191,None,None,1,680.8528191,None,,P012,fencog,2,Pre,2021_Oct_07_1125,N-Back (New Version 2021),2021.1.4,120.0225161
,,,,Conditions/Version_1/zeroback(2)_v1.xlsx,New rule: Press 'space' when you see the letter 'x' or 'X'.,Y,None,,,,,,,,,0,5,5,5,0,4,4,4,,,,,,,,,,,,,,,,,,,,,,,,,,,,,,,,,,,,,,,,,,,,,,,,,,,,,,,,,,,,,,,,,,,,,1.723,684.583538,None,None,1,684.583538,None,,P012,fencog,2,Pre,2021_Oct_07_1125,N-Back (New Version 2021),2021.1.4,120.0225161
,,,,Conditions/Version_1/zeroback(2)_v1.xlsx,New rule: Press 'space' when you see the letter 'x' or 'X'.,W,None,,,,,,,,,0,5,5,5,0,5,5,5,,,,,,,,,,,,,,,,,,,,,,,,,,,,,,,,,,,,,,,,,,,,,,,,,,,,,,,,,,,,,,,,,,,,,1.5866,688.1847252,None,None,1,688.1847252,None,,P012,fencog,2,Pre,2021_Oct_07_1125,N-Back (New Version 2021),2021.1.4,120.0225161
,,,,Conditions/Version_1/zeroback(2)_v1.xlsx,New rule: Press 'space' when you see the letter 'x' or 'X'.,x,space,,,,,,,,,0,5,5,5,0,6,6,6,,,,,,,,,,,,,,,,,,,,,,,,,,,,,,,,,,,,,,,,,,,,,,,,,,,,,,,,,,,,,,,,,,,,,1.2208,691.4146129,None,space,1,691.4146129,None,0.4605077,P012,fencog,2,Pre,2021_Oct_07_1125,N-Back (New Version 2021),2021.1.4,120.0225161
,,,,Conditions/Version_1/zeroback(2)_v1.xlsx,New rule: Press 'space' when you see the letter 'x' or 'X'.,X,space,,,,,,,,,0,5,5,5,0,7,7,7,,,,,,,,,,,,,,,,,,,,,,,,,,,,,,,,,,,,,,,,,,,,,,,,,,,,,,,,,,,,,,,,,,,,,1.0782,694.5079951,None,space,1,694.5079951,None,0.9430921,P012,fencog,2,Pre,2021_Oct_07_1125,N-Back (New Version 2021),2021.1.4,120.0225161
,,,,Conditions/Version_1/zeroback(2)_v1.xlsx,New rule: Press 'space' when you see the letter 'x' or 'X'.,p,None,,,,,,,,,0,5,5,5,0,8,8,8,,,,,,,,,,,,,,,,,,,,,,,,,,,,,,,,,,,,,,,,,,,,,,,,,,,,,,,,,,,,,,,,,,,,,1.9028,698.4198521,None,None,1,698.4198521,None,,P012,fencog,2,Pre,2021_Oct_07_1125,N-Back (New Version 2021),2021.1.4,120.0225161
,,,,Conditions/Version_1/zeroback(2)_v1.xlsx,New rule: Press 'space' when you see the letter 'x' or 'X'.,h,None,,,,,,,,,0,5,5,5,0,9,9,9,,,,,,,,,,,,,,,,,,,,,,,,,,,,,,,,,,,,,,,,,,,,,,,,,,,,,,,,,,,,,,,,,,,,,1.2394,701.6625848,None,None,1,701.6625848,None,,P012,fencog,2,Pre,2021_Oct_07_1125,N-Back (New Version 2021),2021.1.4,120.0225161
,,,,Conditions/Version_1/zeroback(2)_v1.xlsx,New rule: Press 'space' when you see the letter 'x' or 'X'.,,,,,,,,,,,0,5,5,5,,,,,,,,,,,,,,,,,,,,,,,,,,,,,,,,,,,,,,,,,,,,,,,,,,,,,,,,,,,,,,,,,,,,,,,,,,,,,,,,,P012,fencog,2,Pre,2021_Oct_07_1125,N-Back (New Version 2021),2021.1.4,120.0225161
,,,,Conditions/Version_1/threeback(2)_v1.xlsx,New rule: Press 'space' when you see 3-back (i.e. the same letter as the one that appeared 3 letters ago.),q,None,,,,,,,,,0,6,6,6,0,0,0,0,,,,,,,,,,,,,,,,,,,,,,,,,,,,,,,,,,,,,,,,,,,,,,,,,,,,,,,,,,,703.7003427,None,706.678439,None,space,77.5007661,706.678439,None,703.7003427,None,1.723,785.9287415,None,None,1,785.9287415,None,,P012,fencog,2,Pre,2021_Oct_07_1125,N-Back (New Version 2021),2021.1.4,120.0225161
,,,,Conditions/Version_1/threeback(2)_v1.xlsx,New rule: Press 'space' when you see 3-back (i.e. the same letter as the one that appeared 3 letters ago.),Y,None,,,,,,,,,0,6,6,6,0,1,1,1,,,,,,,,,,,,,,,,,,,,,,,,,,,,,,,,,,,,,,,,,,,,,,,,,,,,,,,,,,,,,,,,,,,,,1.9772,789.9202163,None,None,1,789.9202163,None,,P012,fencog,2,Pre,2021_Oct_07_1125,N-Back (New Version 2021),2021.1.4,120.0225161
,,,,Conditions/Version_1/threeback(2)_v1.xlsx,New rule: Press 'space' when you see 3-back (i.e. the same letter as the one that appeared 3 letters ago.),p,None,,,,,,,,,0,6,6,6,0,2,2,2,,,,,,,,,,,,,,,,,,,,,,,,,,,,,,,,,,,,,,,,,,,,,,,,,,,,,,,,,,,,,,,,,,,,,1.1402,793.0668717,None,None,1,793.0668717,None,,P012,fencog,2,Pre,2021_Oct_07_1125,N-Back (New Version 2021),2021.1.4,120.0225161
,,,,Conditions/Version_1/threeback(2)_v1.xlsx,New rule: Press 'space' when you see 3-back (i.e. the same letter as the one that appeared 3 letters ago.),p,None,,,,,,,,,0,6,6,6,0,3,3,3,,,,,,,,,,,,,,,,,,,,,,,,,,,,,,,,,,,,,,,,,,,,,,,,,,,,,,,,,,,,,,,,,,,,,1.134,796.2079307,None,None,1,796.2079307,None,,P012,fencog,2,Pre,2021_Oct_07_1125,N-Back (New Version 2021),2021.1.4,120.0225161
,,,,Conditions/Version_1/threeback(2)_v1.xlsx,New rule: Press 'space' when you see 3-back (i.e. the same letter as the one that appeared 3 letters ago.),y,space,,,,,,,,,0,6,6,6,0,4,4,4,,,,,,,,,,,,,,,,,,,,,,,,,,,,,,,,,,,,,,,,,,,,,,,,,,,,,,,,,,,,,,,,,,,,,1.1278,799.3424404,None,space,1,799.3424404,None,0.7805528,P012,fencog,2,Pre,2021_Oct_07_1125,N-Back (New Version 2021),2021.1.4,120.0225161
,,,,Conditions/Version_1/threeback(2)_v1.xlsx,New rule: Press 'space' when you see 3-back (i.e. the same letter as the one that appeared 3 letters ago.),u,None,,,,,,,,,0,6,6,6,0,5,5,5,,,,,,,,,,,,,,,,,,,,,,,,,,,,,,,,,,,,,,,,,,,,,,,,,,,,,,,,,,,,,,,,,,,,,1.8656,803.2154179,None,None,1,803.2154179,None,,P012,fencog,2,Pre,2021_Oct_07_1125,N-Back (New Version 2021),2021.1.4,120.0225161
,,,,Conditions/Version_1/threeback(2)_v1.xlsx,New rule: Press 'space' when you see 3-back (i.e. the same letter as the one that appeared 3 letters ago.),P,space,,,,,,,,,0,6,6,6,0,6,6,6,,,,,,,,,,,,,,,,,,,,,,,,,,,,,,,,,,,,,,,,,,,,,,,,,,,,,,,,,,,,,,,,,,,,,1.165,806.3892287,None,None,0,806.3892287,None,,P012,fencog,2,Pre,2021_Oct_07_1125,N-Back (New Version 2021),2021.1.4,120.0225161
,,,,Conditions/Version_1/threeback(2)_v1.xlsx,New rule: Press 'space' when you see 3-back (i.e. the same letter as the one that appeared 3 letters ago.),a,None,,,,,,,,,0,6,6,6,0,7,7,7,,,,,,,,,,,,,,,,,,,,,,,,,,,,,,,,,,,,,,,,,,,,,,,,,,,,,,,,,,,,,,,,,,,,,1.4378,809.8298528,None,None,1,809.8298528,None,,P012,fencog,2,Pre,2021_Oct_07_1125,N-Back (New Version 2021),2021.1.4,120.0225161
,,,,Conditions/Version_1/threeback(2)_v1.xlsx,New rule: Press 'space' when you see 3-back (i.e. the same letter as the one that appeared 3 letters ago.),U,space,,,,,,,,,0,6,6,6,0,8,8,8,,,,,,,,,,,,,,,,,,,,,,,,,,,,,,,,,,,,,,,,,,,,,,,,,,,,,,,,,,,,,,,,,,,,,1.9462,813.7876633,None,space,1,813.7876633,None,1.2239254,P012,fencog,2,Pre,2021_Oct_07_1125,N-Back (New Version 2021),2021.1.4,120.0225161
,,,,Conditions/Version_1/threeback(2)_v1.xlsx,New rule: Press 'space' when you see 3-back (i.e. the same letter as the one that appeared 3 letters ago.),q,None,,,,,,,,,0,6,6,6,0,9,9,9,,,,,,,,,,,,,,,,,,,,,,,,,,,,,,,,,,,,,,,,,,,,,,,,,,,,,,,,,,,,,,,,,,,,,1.227,817.0290612,None,None,1,817.0290612,None,,P012,fencog,2,Pre,2021_Oct_07_1125,N-Back (New Version 2021),2021.1.4,120.0225161
,,,,Conditions/Version_1/threeback(2)_v1.xlsx,New rule: Press 'space' when you see 3-back (i.e. the same letter as the one that appeared 3 letters ago.),,,,,,,,,,,0,6,6,6,,,,,,,,,,,,,,,,,,,,,,,,,,,,,,,,,,,,,,,,,,,,,,,,,,,,,,,,,,,,,,,,,,,,,,,,,,,,,,,,,P012,fencog,2,Pre,2021_Oct_07_1125,N-Back (New Version 2021),2021.1.4,120.0225161
,,,,Conditions/Version_1/twoback(2)_v1.xlsx,New rule: Press 'space' when you see 2-back (i.e. the same letter as the one that appeared 2 letters ago.),q,None,,,,,,,,,0,7,7,7,0,0,0,0,,,,,,,,,,,,,,,,,,,,,,,,,,,,,,,,,,,,,,,,,,,,,,,,,,,,,,,,,,,819.0606739,None,822.0441204,None,space,0.4630749,822.0441204,None,819.0606739,None,1.7044,824.2331992,None,None,1,824.2331992,None,,P012,fencog,2,Pre,2021_Oct_07_1125,N-Back (New Version 2021),2021.1.4,120.0225161
,,,,Conditions/Version_1/twoback(2)_v1.xlsx,New rule: Press 'space' when you see 2-back (i.e. the same letter as the one that appeared 2 letters ago.),r,None,,,,,,,,,0,7,7,7,0,1,1,1,,,,,,,,,,,,,,,,,,,,,,,,,,,,,,,,,,,,,,,,,,,,,,,,,,,,,,,,,,,,,,,,,,,,,1.0596,827.300556,None,None,1,827.300556,None,,P012,fencog,2,Pre,2021_Oct_07_1125,N-Back (New Version 2021),2021.1.4,120.0225161
,,,,Conditions/Version_1/twoback(2)_v1.xlsx,New rule: Press 'space' when you see 2-back (i.e. the same letter as the one that appeared 2 letters ago.),q,space,,,,,,,,,0,7,7,7,0,2,2,2,,,,,,,,,,,,,,,,,,,,,,,,,,,,,,,,,,,,,,,,,,,,,,,,,,,,,,,,,,,,,,,,,,,,,1.01,830.3246534,None,space,1,830.3246534,None,0.3585002,P012,fencog,2,Pre,2021_Oct_07_1125,N-Back (New Version 2021),2021.1.4,120.0225161
,,,,Conditions/Version_1/twoback(2)_v1.xlsx,New rule: Press 'space' when you see 2-back (i.e. the same letter as the one that appeared 2 letters ago.),P,None,,,,,,,,,0,7,7,7,0,3,3,3,,,,,,,,,,,,,,,,,,,,,,,,,,,,,,,,,,,,,,,,,,,,,,,,,,,,,,,,,,,,,,,,,,,,,1.2084,833.5408884,None,None,1,833.5408884,None,,P012,fencog,2,Pre,2021_Oct_07_1125,N-Back (New Version 2021),2021.1.4,120.0225161
,,,,Conditions/Version_1/twoback(2)_v1.xlsx,New rule: Press 'space' when you see 2-back (i.e. the same letter as the one that appeared 2 letters ago.),p,None,,,,,,,,,0,7,7,7,0,4,4,4,,,,,,,,,,,,,,,,,,,,,,,,,,,,,,,,,,,,,,,,,,,,,,,,,,,,,,,,,,,,,,,,,,,,,1.4192,836.9718649,None,space,0,836.9718649,None,0.8231427,P012,fencog,2,Pre,2021_Oct_07_1125,N-Back (New Version 2021),2021.1.4,120.0225161
,,,,Conditions/Version_1/twoback(2)_v1.xlsx,New rule: Press 'space' when you see 2-back (i.e. the same letter as the one that appeared 2 letters ago.),H,None,,,,,,,,,0,7,7,7,0,5,5,5,,,,,,,,,,,,,,,,,,,,,,,,,,,,,,,,,,,,,,,,,,,,,,,,,,,,,,,,,,,,,,,,,,,,,1.3696,840.3531555,None,None,1,840.3531555,None,,P012,fencog,2,Pre,2021_Oct_07_1125,N-Back (New Version 2021),2021.1.4,120.0225161
,,,,Conditions/Version_1/twoback(2)_v1.xlsx,New rule: Press 'space' when you see 2-back (i.e. the same letter as the one that appeared 2 letters ago.),g,None,,,,,,,,,0,7,7,7,0,6,6,6,,,,,,,,,,,,,,,,,,,,,,,,,,,,,,,,,,,,,,,,,,,,,,,,,,,,,,,,,,,,,,,,,,,,,1.5184,843.8772073,None,None,1,843.8772073,None,,P012,fencog,2,Pre,2021_Oct_07_1125,N-Back (New Version 2021),2021.1.4,120.0225161
,,,,Conditions/Version_1/twoback(2)_v1.xlsx,New rule: Press 'space' when you see 2-back (i.e. the same letter as the one that appeared 2 letters ago.),j,None,,,,,,,,,0,7,7,7,0,7,7,7,,,,,,,,,,,,,,,,,,,,,,,,,,,,,,,,,,,,,,,,,,,,,,,,,,,,,,,,,,,,,,,,,,,,,1.072,846.9533196,None,None,1,846.9533196,None,,P012,fencog,2,Pre,2021_Oct_07_1125,N-Back (New Version 2021),2021.1.4,120.0225161
,,,,Conditions/Version_1/twoback(2)_v1.xlsx,New rule: Press 'space' when you see 2-back (i.e. the same letter as the one that appeared 2 letters ago.),g,space,,,,,,,,,0,7,7,7,0,8,8,8,,,,,,,,,,,,,,,,,,,,,,,,,,,,,,,,,,,,,,,,,,,,,,,,,,,,,,,,,,,,,,,,,,,,,1.6114,850.5752018,None,space,1,850.5752018,None,0.4361871,P012,fencog,2,Pre,2021_Oct_07_1125,N-Back (New Version 2021),2021.1.4,120.0225161
,,,,Conditions/Version_1/twoback(2)_v1.xlsx,New rule: Press 'space' when you see 2-back (i.e. the same letter as the one that appeared 2 letters ago.),G,None,,,,,,,,,0,7,7,7,0,9,9,9,,,,,,,,,,,,,,,,,,,,,,,,,,,,,,,,,,,,,,,,,,,,,,,,,,,,,,,,,,,,,,,,,,,,,1.2518,853.8336155,None,None,1,853.8336155,None,,P012,fencog,2,Pre,2021_Oct_07_1125,N-Back (New Version 2021),2021.1.4,120.0225161
,,,,Conditions/Version_1/twoback(2)_v1.xlsx,New rule: Press 'space' when you see 2-back (i.e. the same letter as the one that appeared 2 letters ago.),,,,,,,,,,,0,7,7,7,,,,,,,,,,,,,,,,,,,,,,,,,,,,,,,,,,,,,,,,,,,,,,,,,,,,,,,,,,,,,,,,,,,,,,,,,,,,,,,,,P012,fencog,2,Pre,2021_Oct_07_1125,N-Back (New Version 2021),2021.1.4,120.0225161
,,,,Conditions/Version_1/threeback(3)_v1.xlsx,New rule: Press 'space' when you see 3-back (i.e. the same letter as the one that appeared 3 letters ago.),w,None,,,,,,,,,0,8,8,8,0,0,0,0,,,,,,,,,,,,,,,,,,,,,,,,,,,,,,,,,,,,,,,,,,,,,,,,,,,,,,,,,,,855.8630023,None,858.8496965,None,space,0.6735172,858.8496965,None,855.8630023,None,1.5494,861.0907733,None,None,1,861.0907733,None,,P012,fencog,2,Pre,2021_Oct_07_1125,N-Back (New Version 2021),2021.1.4,120.0225161
,,,,Conditions/Version_1/threeback(3)_v1.xlsx,New rule: Press 'space' when you see 3-back (i.e. the same letter as the one that appeared 3 letters ago.),p,None,,,,,,,,,0,8,8,8,0,1,1,1,,,,,,,,,,,,,,,,,,,,,,,,,,,,,,,,,,,,,,,,,,,,,,,,,,,,,,,,,,,,,,,,,,,,,1.3138,864.4138272,None,None,1,864.4138272,None,,P012,fencog,2,Pre,2021_Oct_07_1125,N-Back (New Version 2021),2021.1.4,120.0225161
,,,,Conditions/Version_1/threeback(3)_v1.xlsx,New rule: Press 'space' when you see 3-back (i.e. the same letter as the one that appeared 3 letters ago.),P,None,,,,,,,,,0,8,8,8,0,2,2,2,,,,,,,,,,,,,,,,,,,,,,,,,,,,,,,,,,,,,,,,,,,,,,,,,,,,,,,,,,,,,,,,,,,,,1.1278,867.5560284,None,None,1,867.5560284,None,,P012,fencog,2,Pre,2021_Oct_07_1125,N-Back (New Version 2021),2021.1.4,120.0225161
,,,,Conditions/Version_1/threeback(3)_v1.xlsx,New rule: Press 'space' when you see 3-back (i.e. the same letter as the one that appeared 3 letters ago.),i,None,,,,,,,,,0,8,8,8,0,3,3,3,,,,,,,,,,,,,,,,,,,,,,,,,,,,,,,,,,,,,,,,,,,,,,,,,,,,,,,,,,,,,,,,,,,,,1.103,870.6706482,None,None,1,870.6706482,None,,P012,fencog,2,Pre,2021_Oct_07_1125,N-Back (New Version 2021),2021.1.4,120.0225161
,,,,Conditions/Version_1/threeback(3)_v1.xlsx,New rule: Press 'space' when you see 3-back (i.e. the same letter as the one that appeared 3 letters ago.),f,None,,,,,,,,,0,8,8,8,0,4,4,4,,,,,,,,,,,,,,,,,,,,,,,,,,,,,,,,,,,,,,,,,,,,,,,,,,,,,,,,,,,,,,,,,,,,,1.8222,874.5013702,None,None,1,874.5013702,None,,P012,fencog,2,Pre,2021_Oct_07_1125,N-Back (New Version 2021),2021.1.4,120.0225161
,,,,Conditions/Version_1/threeback(3)_v1.xlsx,New rule: Press 'space' when you see 3-back (i.e. the same letter as the one that appeared 3 letters ago.),o,None,,,,,,,,,0,8,8,8,0,5,5,5,,,,,,,,,,,,,,,,,,,,,,,,,,,,,,,,,,,,,,,,,,,,,,,,,,,,,,,,,,,,,,,,,,,,,1.4502,877.9526262,None,None,1,877.9526262,None,,P012,fencog,2,Pre,2021_Oct_07_1125,N-Back (New Version 2021),2021.1.4,120.0225161
,,,,Conditions/Version_1/threeback(3)_v1.xlsx,New rule: Press 'space' when you see 3-back (i.e. the same letter as the one that appeared 3 letters ago.),w,None,,,,,,,,,0,8,8,8,0,6,6,6,,,,,,,,,,,,,,,,,,,,,,,,,,,,,,,,,,,,,,,,,,,,,,,,,,,,,,,,,,,,,,,,,,,,,1.661,881.6265933,None,None,1,881.6265933,None,,P012,fencog,2,Pre,2021_Oct_07_1125,N-Back (New Version 2021),2021.1.4,120.0225161
,,,,Conditions/Version_1/threeback(3)_v1.xlsx,New rule: Press 'space' when you see 3-back (i.e. the same letter as the one that appeared 3 letters ago.),F,space,,,,,,,,,0,8,8,8,0,7,7,7,,,,,,,,,,,,,,,,,,,,,,,,,,,,,,,,,,,,,,,,,,,,,,,,,,,,,,,,,,,,,,,,,,,,,1.7168,885.3504282,None,space,1,885.3504282,None,0.668896,P012,fencog,2,Pre,2021_Oct_07_1125,N-Back (New Version 2021),2021.1.4,120.0225161
,,,,Conditions/Version_1/threeback(3)_v1.xlsx,New rule: Press 'space' when you see 3-back (i.e. the same letter as the one that appeared 3 letters ago.),p,None,,,,,,,,,0,8,8,8,0,8,8,8,,,,,,,,,,,,,,,,,,,,,,,,,,,,,,,,,,,,,,,,,,,,,,,,,,,,,,,,,,,,,,,,,,,,,1.0224,888.3826345,None,None,1,888.3826345,None,,P012,fencog,2,Pre,2021_Oct_07_1125,N-Back (New Version 2021),2021.1.4,120.0225161
,,,,Conditions/Version_1/threeback(3)_v1.xlsx,New rule: Press 'space' when you see 3-back (i.e. the same letter as the one that appeared 3 letters ago.),W,space,,,,,,,,,0,8,8,8,0,9,9,9,,,,,,,,,,,,,,,,,,,,,,,,,,,,,,,,,,,,,,,,,,,,,,,,,,,,,,,,,,,,,,,,,,,,,1.1898,891.5810053,None,None,0,891.5810053,None,,P012,fencog,2,Pre,2021_Oct_07_1125,N-Back (New Version 2021),2021.1.4,120.0225161
,,,,Conditions/Version_1/threeback(3)_v1.xlsx,New rule: Press 'space' when you see 3-back (i.e. the same letter as the one that appeared 3 letters ago.),,,,,,,,,,,0,8,8,8,,,,,,,,,,,,,,,,,,,,,,,,,,,,,,,,,,,,,,,,,,,,,,,,,,,,,,,,,,,,,,,,,,,,,,,,,,,,,,,,,P012,fencog,2,Pre,2021_Oct_07_1125,N-Back (New Version 2021),2021.1.4,120.0225161
,,,,Conditions/Version_1/zeroback(3)_v1.xlsx,New rule: Press 'space' when you see the letter 'x' or 'X'.,X,space,,,,,,,,,0,9,9,9,0,0,0,0,,,,,,,,,,,,,,,,,,,,,,,,,,,,,,,,,,,,,,,,,,,,,,,,,,,,,,,,,,,893.6096143,None,896.5982251,None,space,4.893095,896.5982251,None,893.6096143,None,1.7044,903.2182255,None,space,1,903.2182255,None,0.409091,P012,fencog,2,Pre,2021_Oct_07_1125,N-Back (New Version 2021),2021.1.4,120.0225161
,,,,Conditions/Version_1/zeroback(3)_v1.xlsx,New rule: Press 'space' when you see the letter 'x' or 'X'.,B,None,,,,,,,,,0,9,9,9,0,1,1,1,,,,,,,,,,,,,,,,,,,,,,,,,,,,,,,,,,,,,,,,,,,,,,,,,,,,,,,,,,,,,,,,,,,,,1.5618,906.7856266,None,None,1,906.7856266,None,,P012,fencog,2,Pre,2021_Oct_07_1125,N-Back (New Version 2021),2021.1.4,120.0225161
,,,,Conditions/Version_1/zeroback(3)_v1.xlsx,New rule: Press 'space' when you see the letter 'x' or 'X'.,m,None,,,,,,,,,0,9,9,9,0,2,2,2,,,,,,,,,,,,,,,,,,,,,,,,,,,,,,,,,,,,,,,,,,,,,,,,,,,,,,,,,,,,,,,,,,,,,1.01,909.8077446,None,None,1,909.8077446,None,,P012,fencog,2,Pre,2021_Oct_07_1125,N-Back (New Version 2021),2021.1.4,120.0225161
,,,,Conditions/Version_1/zeroback(3)_v1.xlsx,New rule: Press 'space' when you see the letter 'x' or 'X'.,m,None,,,,,,,,,0,9,9,9,0,3,3,3,,,,,,,,,,,,,,,,,,,,,,,,,,,,,,,,,,,,,,,,,,,,,,,,,,,,,,,,,,,,,,,,,,,,,1.9524,913.7649007,None,None,1,913.7649007,None,,P012,fencog,2,Pre,2021_Oct_07_1125,N-Back (New Version 2021),2021.1.4,120.0225161
,,,,Conditions/Version_1/zeroback(3)_v1.xlsx,New rule: Press 'space' when you see the letter 'x' or 'X'.,o,None,,,,,,,,,0,9,9,9,0,4,4,4,,,,,,,,,,,,,,,,,,,,,,,,,,,,,,,,,,,,,,,,,,,,,,,,,,,,,,,,,,,,,,,,,,,,,1.599,917.3658817,None,None,1,917.3658817,None,,P012,fencog,2,Pre,2021_Oct_07_1125,N-Back (New Version 2021),2021.1.4,120.0225161
,,,,Conditions/Version_1/zeroback(3)_v1.xlsx,New rule: Press 'space' when you see the letter 'x' or 'X'.,p,None,,,,,,,,,0,9,9,9,0,5,5,5,,,,,,,,,,,,,,,,,,,,,,,,,,,,,,,,,,,,,,,,,,,,,,,,,,,,,,,,,,,,,,,,,,,,,1.041,920.413927,None,None,1,920.413927,None,,P012,fencog,2,Pre,2021_Oct_07_1125,N-Back (New Version 2021),2021.1.4,120.0225161
,,,,Conditions/Version_1/zeroback(3)_v1.xlsx,New rule: Press 'space' when you see the letter 'x' or 'X'.,G,None,,,,,,,,,0,9,9,9,0,6,6,6,,,,,,,,,,,,,,,,,,,,,,,,,,,,,,,,,,,,,,,,,,,,,,,,,,,,,,,,,,,,,,,,,,,,,1.0782,923.5056475,None,None,1,923.5056475,None,,P012,fencog,2,Pre,2021_Oct_07_1125,N-Back (New Version 2021),2021.1.4,120.0225161
,,,,Conditions/Version_1/zeroback(3)_v1.xlsx,New rule: Press 'space' when you see the letter 'x' or 'X'.,X,space,,,,,,,,,0,9,9,9,0,7,7,7,,,,,,,,,,,,,,,,,,,,,,,,,,,,,,,,,,,,,,,,,,,,,,,,,,,,,,,,,,,,,,,,,,,,,1.8718,927.3886788,None,space,1,927.3886788,None,0.3986809,P012,fencog,2,Pre,2021_Oct_07_1125,N-Back (New Version 2021),2021.1.4,120.0225161
,,,,Conditions/Version_1/zeroback(3)_v1.xlsx,New rule: Press 'space' when you see the letter 'x' or 'X'.,p,None,,,,,,,,,0,9,9,9,0,8,8,8,,,,,,,,,,,,,,,,,,,,,,,,,,,,,,,,,,,,,,,,,,,,,,,,,,,,,,,,,,,,,,,,,,,,,1.3758,930.7777464,None,None,1,930.7777464,None,,P012,fencog,2,Pre,2021_Oct_07_1125,N-Back (New Version 2021),2021.1.4,120.0225161
,,,,Conditions/Version_1/zeroback(3)_v1.xlsx,New rule: Press 'space' when you see the letter 'x' or 'X'.,x,space,,,,,,,,,0,9,9,9,0,9,9,9,,,,,,,,,,,,,,,,,,,,,,,,,,,,,,,,,,,,,,,,,,,,,,,,,,,,,,,,,,,,,,,,,,,,,1.9028,934.6935519,None,space,1,934.6935519,None,0.5659154,P012,fencog,2,Pre,2021_Oct_07_1125,N-Back (New Version 2021),2021.1.4,120.0225161
,,,,Conditions/Version_1/zeroback(3)_v1.xlsx,New rule: Press 'space' when you see the letter 'x' or 'X'.,,,,,,,,,,,0,9,9,9,,,,,,,,,,,,,,,,,,,,,,,,,,,,,,,,,,,,,,,,,,,,,,,,,,,,,,,,,,,,,,,,,,,,,,,,,,,,,,,,,P012,fencog,2,Pre,2021_Oct_07_1125,N-Back (New Version 2021),2021.1.4,120.0225161
,,,,Conditions/Version_1/twoback(3)_v1.xlsx,New rule: Press 'space' when you see 2-back (i.e. the same letter as the one that appeared 2 letters ago.),e,None,,,,,,,,,0,10,10,10,0,0,0,0,,,,,,,,,,,,,,,,,,,,,,,,,,,,,,,,,,,,,,,,,,,,,,,,,,,,,,,,,,,936.7216314,None,939.7099776,None,space,3.6291535,939.7099776,None,936.7216314,None,1.165,944.5416441,None,None,1,944.5416441,None,,P012,fencog,2,Pre,2021_Oct_07_1125,N-Back (New Version 2021),2021.1.4,120.0225161
,,,,Conditions/Version_1/twoback(3)_v1.xlsx,New rule: Press 'space' when you see 2-back (i.e. the same letter as the one that appeared 2 letters ago.),o,None,,,,,,,,,0,10,10,10,0,1,1,1,,,,,,,,,,,,,,,,,,,,,,,,,,,,,,,,,,,,,,,,,,,,,,,,,,,,,,,,,,,,,,,,,,,,,1.7416,948.2894144,None,None,1,948.2894144,None,,P012,fencog,2,Pre,2021_Oct_07_1125,N-Back (New Version 2021),2021.1.4,120.0225161
,,,,Conditions/Version_1/twoback(3)_v1.xlsx,New rule: Press 'space' when you see 2-back (i.e. the same letter as the one that appeared 2 letters ago.),P,None,,,,,,,,,0,10,10,10,0,2,2,2,,,,,,,,,,,,,,,,,,,,,,,,,,,,,,,,,,,,,,,,,,,,,,,,,,,,,,,,,,,,,,,,,,,,,1.692,951.9879163,None,None,1,951.9879163,None,,P012,fencog,2,Pre,2021_Oct_07_1125,N-Back (New Version 2021),2021.1.4,120.0225161
,,,,Conditions/Version_1/twoback(3)_v1.xlsx,New rule: Press 'space' when you see 2-back (i.e. the same letter as the one that appeared 2 letters ago.),z,None,,,,,,,,,0,10,10,10,0,3,3,3,,,,,,,,,,,,,,,,,,,,,,,,,,,,,,,,,,,,,,,,,,,,,,,,,,,,,,,,,,,,,,,,,,,,,1.723,955.7235094,None,None,1,955.7235094,None,,P012,fencog,2,Pre,2021_Oct_07_1125,N-Back (New Version 2021),2021.1.4,120.0225161
,,,,Conditions/Version_1/twoback(3)_v1.xlsx,New rule: Press 'space' when you see 2-back (i.e. the same letter as the one that appeared 2 letters ago.),X,None,,,,,,,,,0,10,10,10,0,4,4,4,,,,,,,,,,,,,,,,,,,,,,,,,,,,,,,,,,,,,,,,,,,,,,,,,,,,,,,,,,,,,,,,,,,,,1.1092,958.8459075,None,None,1,958.8459075,None,,P012,fencog,2,Pre,2021_Oct_07_1125,N-Back (New Version 2021),2021.1.4,120.0225161
,,,,Conditions/Version_1/twoback(3)_v1.xlsx,New rule: Press 'space' when you see 2-back (i.e. the same letter as the one that appeared 2 letters ago.),z,space,,,,,,,,,0,10,10,10,0,5,5,5,,,,,,,,,,,,,,,,,,,,,,,,,,,,,,,,,,,,,,,,,,,,,,,,,,,,,,,,,,,,,,,,,,,,,1.5308,962.3840167,None,space,1,962.3840167,None,0.3713845,P012,fencog,2,Pre,2021_Oct_07_1125,N-Back (New Version 2021),2021.1.4,120.0225161
,,,,Conditions/Version_1/twoback(3)_v1.xlsx,New rule: Press 'space' when you see 2-back (i.e. the same letter as the one that appeared 2 letters ago.),x,space,,,,,,,,,0,10,10,10,0,6,6,6,,,,,,,,,,,,,,,,,,,,,,,,,,,,,,,,,,,,,,,,,,,,,,,,,,,,,,,,,,,,,,,,,,,,,1.7602,966.1506681,None,space,1,966.1506681,None,0.7406451,P012,fencog,2,Pre,2021_Oct_07_1125,N-Back (New Version 2021),2021.1.4,120.0225161
,,,,Conditions/Version_1/twoback(3)_v1.xlsx,New rule: Press 'space' when you see 2-back (i.e. the same letter as the one that appeared 2 letters ago.),c,None,,,,,,,,,0,10,10,10,0,7,7,7,,,,,,,,,,,,,,,,,,,,,,,,,,,,,,,,,,,,,,,,,,,,,,,,,,,,,,,,,,,,,,,,,,,,,1.5184,969.6829882,None,None,1,969.6829882,None,,P012,fencog,2,Pre,2021_Oct_07_1125,N-Back (New Version 2021),2021.1.4,120.0225161
,,,,Conditions/Version_1/twoback(3)_v1.xlsx,New rule: Press 'space' when you see 2-back (i.e. the same letter as the one that appeared 2 letters ago.),i,None,,,,,,,,,0,10,10,10,0,8,8,8,,,,,,,,,,,,,,,,,,,,,,,,,,,,,,,,,,,,,,,,,,,,,,,,,,,,,,,,,,,,,,,,,,,,,1.8842,973.5817471,None,None,1,973.5817471,None,,P012,fencog,2,Pre,2021_Oct_07_1125,N-Back (New Version 2021),2021.1.4,120.0225161
,,,,Conditions/Version_1/twoback(3)_v1.xlsx,New rule: Press 'space' when you see 2-back (i.e. the same letter as the one that appeared 2 letters ago.),C,space,,,,,,,,,0,10,10,10,0,9,9,9,,,,,,,,,,,,,,,,,,,,,,,,,,,,,,,,,,,,,,,,,,,,,,,,,,,,,,,,,,,,,,,,,,,,,1.661,977.2578096,None,space,1,977.2578096,None,0.353707,P012,fencog,2,Pre,2021_Oct_07_1125,N-Back (New Version 2021),2021.1.4,120.0225161
,,,,Conditions/Version_1/twoback(3)_v1.xlsx,New rule: Press 'space' when you see 2-back (i.e. the same letter as the one that appeared 2 letters ago.),,,,,,,,,,,0,10,10,10,,,,,,,,,,,,,,,,,,,,,,,,,,,,,,,,,,,,,,,,,,,,,,,,,,,,,,,,,,,,,,,,,,,,,,,,,,,,,,,,,P012,fencog,2,Pre,2021_Oct_07_1125,N-Back (New Version 2021),2021.1.4,120.0225161
,,,,Conditions/Version_1/oneback(3)_v1.xlsx,New rule: Press 'space' when you see 1-back (i.e. the same letter as the one that appeared 1 letter ago.),o,None,,,,,,,,,0,11,11,11,0,0,0,0,,,,,,,,,,,,,,,,,,,,,,,,,,,,,,,,,,,,,,,,,,,,,,,,,,,,,,,,,,,979.2847774,None,982.2734099,None,space,0.3857632,982.2734099,None,979.2847774,None,1.3262,984.0179777,None,None,1,984.0179777,None,,P012,fencog,2,Pre,2021_Oct_07_1125,N-Back (New Version 2021),2021.1.4,120.0225161
,,,,Conditions/Version_1/oneback(3)_v1.xlsx,New rule: Press 'space' when you see 1-back (i.e. the same letter as the one that appeared 1 letter ago.),O,space,,,,,,,,,0,11,11,11,0,1,1,1,,,,,,,,,,,,,,,,,,,,,,,,,,,,,,,,,,,,,,,,,,,,,,,,,,,,,,,,,,,,,,,,,,,,,1.5122,987.5358749,None,space,1,987.5358749,None,0.4114863,P012,fencog,2,Pre,2021_Oct_07_1125,N-Back (New Version 2021),2021.1.4,120.0225161
,,,,Conditions/Version_1/oneback(3)_v1.xlsx,New rule: Press 'space' when you see 1-back (i.e. the same letter as the one that appeared 1 letter ago.),h,None,,,,,,,,,0,11,11,11,0,2,2,2,,,,,,,,,,,,,,,,,,,,,,,,,,,,,,,,,,,,,,,,,,,,,,,,,,,,,,,,,,,,,,,,,,,,,1.9586,991.500538,None,None,1,991.500538,None,,P012,fencog,2,Pre,2021_Oct_07_1125,N-Back (New Version 2021),2021.1.4,120.0225161
,,,,Conditions/Version_1/oneback(3)_v1.xlsx,New rule: Press 'space' when you see 1-back (i.e. the same letter as the one that appeared 1 letter ago.),g,None,,,,,,,,,0,11,11,11,0,3,3,3,,,,,,,,,,,,,,,,,,,,,,,,,,,,,,,,,,,,,,,,,,,,,,,,,,,,,,,,,,,,,,,,,,,,,1.8346,995.3421866,None,None,1,995.3421866,None,,P012,fencog,2,Pre,2021_Oct_07_1125,N-Back (New Version 2021),2021.1.4,120.0225161
,,,,Conditions/Version_1/oneback(3)_v1.xlsx,New rule: Press 'space' when you see 1-back (i.e. the same letter as the one that appeared 1 letter ago.),n,None,,,,,,,,,0,11,11,11,0,4,4,4,,,,,,,,,,,,,,,,,,,,,,,,,,,,,,,,,,,,,,,,,,,,,,,,,,,,,,,,,,,,,,,,,,,,,1.661,999.0170822,None,None,1,999.0170822,None,,P012,fencog,2,Pre,2021_Oct_07_1125,N-Back (New Version 2021),2021.1.4,120.0225161
,,,,Conditions/Version_1/oneback(3)_v1.xlsx,New rule: Press 'space' when you see 1-back (i.e. the same letter as the one that appeared 1 letter ago.),z,None,,,,,,,,,0,11,11,11,0,5,5,5,,,,,,,,,,,,,,,,,,,,,,,,,,,,,,,,,,,,,,,,,,,,,,,,,,,,,,,,,,,,,,,,,,,,,1.9462,1002.972166,None,None,1,1002.972166,None,,P012,fencog,2,Pre,2021_Oct_07_1125,N-Back (New Version 2021),2021.1.4,120.0225161
,,,,Conditions/Version_1/oneback(3)_v1.xlsx,New rule: Press 'space' when you see 1-back (i.e. the same letter as the one that appeared 1 letter ago.),X,None,,,,,,,,,0,11,11,11,0,6,6,6,,,,,,,,,,,,,,,,,,,,,,,,,,,,,,,,,,,,,,,,,,,,,,,,,,,,,,,,,,,,,,,,,,,,,1.3758,1006.356712,None,None,1,1006.356712,None,,P012,fencog,2,Pre,2021_Oct_07_1125,N-Back (New Version 2021),2021.1.4,120.0225161
,,,,Conditions/Version_1/oneback(3)_v1.xlsx,New rule: Press 'space' when you see 1-back (i.e. the same letter as the one that appeared 1 letter ago.),r,None,,,,,,,,,0,11,11,11,0,7,7,7,,,,,,,,,,,,,,,,,,,,,,,,,,,,,,,,,,,,,,,,,,,,,,,,,,,,,,,,,,,,,,,,,,,,,1.1154,1009.478671,None,None,1,1009.478671,None,,P012,fencog,2,Pre,2021_Oct_07_1125,N-Back (New Version 2021),2021.1.4,120.0225161
,,,,Conditions/Version_1/oneback(3)_v1.xlsx,New rule: Press 'space' when you see 1-back (i.e. the same letter as the one that appeared 1 letter ago.),r,space,,,,,,,,,0,11,11,11,0,8,8,8,,,,,,,,,,,,,,,,,,,,,,,,,,,,,,,,,,,,,,,,,,,,,,,,,,,,,,,,,,,,,,,,,,,,,1.0224,1012.502615,None,space,1,1012.502615,None,0.4449262,P012,fencog,2,Pre,2021_Oct_07_1125,N-Back (New Version 2021),2021.1.4,120.0225161
,,,,Conditions/Version_1/oneback(3)_v1.xlsx,New rule: Press 'space' when you see 1-back (i.e. the same letter as the one that appeared 1 letter ago.),P,None,,,,,,,,,0,11,11,11,0,9,9,9,,,,,,,,,,,,,,,,,,,,,,,,,,,,,,,,,,,,,,,,,,,,,,,,,,,,,,,,,,,,,,,,,,,,,1.8594,1016.370246,None,None,1,1016.370246,None,,P012,fencog,2,Pre,2021_Oct_07_1125,N-Back (New Version 2021),2021.1.4,120.0225161
,,,,Conditions/Version_1/oneback(3)_v1.xlsx,New rule: Press 'space' when you see 1-back (i.e. the same letter as the one that appeared 1 letter ago.),,,,,,,,,,,0,11,11,11,,,,,,,,,,,,,,,,,,,,,,,,,,,,,,,,,,,,,,,,,,,,,,,,,,,,,,,,,,,,,,,,,,,,,,,,,,,,,,,,,P012,fencog,2,Pre,2021_Oct_07_1125,N-Back (New Version 2021),2021.1.4,120.0225161
,,,,Conditions/Version_1/twoback(4)_v1.xlsx,New rule: Press 'space' when you see 2-back (i.e. the same letter as the one that appeared 2 letters ago.),r,None,,,,,,,,,0,12,12,12,0,0,0,0,,,,,,,,,,,,,,,,,,,,,,,,,,,,,,,,,,,,,,,,,,,,,,,,,,,,,,,,,,,1018.400317,None,1021.385654,None,space,0.3615741,1021.385654,None,1018.400317,None,1.7416,1023.551433,None,None,1,1023.551433,None,,P012,fencog,2,Pre,2021_Oct_07_1125,N-Back (New Version 2021),2021.1.4,120.0225161
,,,,Conditions/Version_1/twoback(4)_v1.xlsx,New rule: Press 'space' when you see 2-back (i.e. the same letter as the one that appeared 2 letters ago.),T,None,,,,,,,,,0,12,12,12,0,1,1,1,,,,,,,,,,,,,,,,,,,,,,,,,,,,,,,,,,,,,,,,,,,,,,,,,,,,,,,,,,,,,,,,,,,,,1.3386,1026.899406,None,None,1,1026.899406,None,,P012,fencog,2,Pre,2021_Oct_07_1125,N-Back (New Version 2021),2021.1.4,120.0225161
,,,,Conditions/Version_1/twoback(4)_v1.xlsx,New rule: Press 'space' when you see 2-back (i.e. the same letter as the one that appeared 2 letters ago.),o,None,,,,,,,,,0,12,12,12,0,2,2,2,,,,,,,,,,,,,,,,,,,,,,,,,,,,,,,,,,,,,,,,,,,,,,,,,,,,,,,,,,,,,,,,,,,,,1.2022,1030.116633,None,None,1,1030.116633,None,,P012,fencog,2,Pre,2021_Oct_07_1125,N-Back (New Version 2021),2021.1.4,120.0225161
,,,,Conditions/Version_1/twoback(4)_v1.xlsx,New rule: Press 'space' when you see 2-back (i.e. the same letter as the one that appeared 2 letters ago.),p,None,,,,,,,,,0,12,12,12,0,3,3,3,,,,,,,,,,,,,,,,,,,,,,,,,,,,,,,,,,,,,,,,,,,,,,,,,,,,,,,,,,,,,,,,,,,,,1.9772,1034.106739,None,None,1,1034.106739,None,,P012,fencog,2,Pre,2021_Oct_07_1125,N-Back (New Version 2021),2021.1.4,120.0225161
,,,,Conditions/Version_1/twoback(4)_v1.xlsx,New rule: Press 'space' when you see 2-back (i.e. the same letter as the one that appeared 2 letters ago.),p,None,,,,,,,,,0,12,12,12,0,4,4,4,,,,,,,,,,,,,,,,,,,,,,,,,,,,,,,,,,,,,,,,,,,,,,,,,,,,,,,,,,,,,,,,,,,,,1.7664,1037.886851,None,None,1,1037.886851,None,,P012,fencog,2,Pre,2021_Oct_07_1125,N-Back (New Version 2021),2021.1.4,120.0225161
,,,,Conditions/Version_1/twoback(4)_v1.xlsx,New rule: Press 'space' when you see 2-back (i.e. the same letter as the one that appeared 2 letters ago.),y,None,,,,,,,,,0,12,12,12,0,5,5,5,,,,,,,,,,,,,,,,,,,,,,,,,,,,,,,,,,,,,,,,,,,,,,,,,,,,,,,,,,,,,,,,,,,,,1.63,1041.520415,None,None,1,1041.520415,None,,P012,fencog,2,Pre,2021_Oct_07_1125,N-Back (New Version 2021),2021.1.4,120.0225161
,,,,Conditions/Version_1/twoback(4)_v1.xlsx,New rule: Press 'space' when you see 2-back (i.e. the same letter as the one that appeared 2 letters ago.),P,space,,,,,,,,,0,12,12,12,0,6,6,6,,,,,,,,,,,,,,,,,,,,,,,,,,,,,,,,,,,,,,,,,,,,,,,,,,,,,,,,,,,,,,,,,,,,,1.8842,1045.417691,None,space,1,1045.417691,None,0.4254278,P012,fencog,2,Pre,2021_Oct_07_1125,N-Back (New Version 2021),2021.1.4,120.0225161
,,,,Conditions/Version_1/twoback(4)_v1.xlsx,New rule: Press 'space' when you see 2-back (i.e. the same letter as the one that appeared 2 letters ago.),y,None,,,,,,,,,0,12,12,12,0,7,7,7,,,,,,,,,,,,,,,,,,,,,,,,,,,,,,,,,,,,,,,,,,,,,,,,,,,,,,,,,,,,,,,,,,,,,1.3758,1048.793383,None,space,0,1048.793383,None,0.6342682,P012,fencog,2,Pre,2021_Oct_07_1125,N-Back (New Version 2021),2021.1.4,120.0225161
,,,,Conditions/Version_1/twoback(4)_v1.xlsx,New rule: Press 'space' when you see 2-back (i.e. the same letter as the one that appeared 2 letters ago.),y,space,,,,,,,,,0,12,12,12,0,8,8,8,,,,,,,,,,,,,,,,,,,,,,,,,,,,,,,,,,,,,,,,,,,,,,,,,,,,,,,,,,,,,,,,,,,,,1.6486,1052.44905,None,None,0,1052.44905,None,,P012,fencog,2,Pre,2021_Oct_07_1125,N-Back (New Version 2021),2021.1.4,120.0225161
,,,,Conditions/Version_1/twoback(4)_v1.xlsx,New rule: Press 'space' when you see 2-back (i.e. the same letter as the one that appeared 2 letters ago.),,,,,,,,,,,0,12,12,12,,,,,,,,,,,,,,,,,,,,,,,,,,,,,,,,,,,,,,,,,,,,,,,,,,,,,,,,,,,,,,,,,,,,,,,,,,,,,,,,,P012,fencog,2,Pre,2021_Oct_07_1125,N-Back (New Version 2021),2021.1.4,120.0225161
,,,,Conditions/Version_1/zeroback(4)_v1.xlsx,New rule: Press 'space' when you see the letter 'x' or 'X'.,o,None,,,,,,,,,0,13,13,13,0,0,0,0,,,,,,,,,,,,,,,,,,,,,,,,,,,,,,,,,,,,,,,,,,,,,,,,,,,,,,,,,,,1054.472532,None,1057.450657,None,space,0.7924696,1057.450657,None,1054.472532,None,1.1836,1059.465941,None,None,1,1059.465941,None,,P012,fencog,2,Pre,2021_Oct_07_1125,N-Back (New Version 2021),2021.1.4,120.0225161
,,,,Conditions/Version_1/zeroback(4)_v1.xlsx,New rule: Press 'space' when you see the letter 'x' or 'X'.,X,space,,,,,,,,,0,13,13,13,0,1,1,1,,,,,,,,,,,,,,,,,,,,,,,,,,,,,,,,,,,,,,,,,,,,,,,,,,,,,,,,,,,,,,,,,,,,,1.8718,1063.346052,None,space,1,1063.346052,None,0.35344,P012,fencog,2,Pre,2021_Oct_07_1125,N-Back (New Version 2021),2021.1.4,120.0225161
,,,,Conditions/Version_1/zeroback(4)_v1.xlsx,New rule: Press 'space' when you see the letter 'x' or 'X'.,p,None,,,,,,,,,0,13,13,13,0,2,2,2,,,,,,,,,,,,,,,,,,,,,,,,,,,,,,,,,,,,,,,,,,,,,,,,,,,,,,,,,,,,,,,,,,,,,1.9276,1067.282652,None,None,1,1067.282652,None,,P012,fencog,2,Pre,2021_Oct_07_1125,N-Back (New Version 2021),2021.1.4,120.0225161
,,,,Conditions/Version_1/zeroback(4)_v1.xlsx,New rule: Press 'space' when you see the letter 'x' or 'X'.,m,None,,,,,,,,,0,13,13,13,0,3,3,3,,,,,,,,,,,,,,,,,,,,,,,,,,,,,,,,,,,,,,,,,,,,,,,,,,,,,,,,,,,,,,,,,,,,,1.9648,1071.251981,None,None,1,1071.251981,None,,P012,fencog,2,Pre,2021_Oct_07_1125,N-Back (New Version 2021),2021.1.4,120.0225161
,,,,Conditions/Version_1/zeroback(4)_v1.xlsx,New rule: Press 'space' when you see the letter 'x' or 'X'.,n,None,,,,,,,,,0,13,13,13,0,4,4,4,,,,,,,,,,,,,,,,,,,,,,,,,,,,,,,,,,,,,,,,,,,,,,,,,,,,,,,,,,,,,,,,,,,,,1.6734,1074.928375,None,None,1,1074.928375,None,,P012,fencog,2,Pre,2021_Oct_07_1125,N-Back (New Version 2021),2021.1.4,120.0225161
,,,,Conditions/Version_1/zeroback(4)_v1.xlsx,New rule: Press 'space' when you see the letter 'x' or 'X'.,m,None,,,,,,,,,0,13,13,13,0,5,5,5,,,,,,,,,,,,,,,,,,,,,,,,,,,,,,,,,,,,,,,,,,,,,,,,,,,,,,,,,,,,,,,,,,,,,1.072,1078.010792,None,None,1,1078.010792,None,,P012,fencog,2,Pre,2021_Oct_07_1125,N-Back (New Version 2021),2021.1.4,120.0225161
,,,,Conditions/Version_1/zeroback(4)_v1.xlsx,New rule: Press 'space' when you see the letter 'x' or 'X'.,C,None,,,,,,,,,0,13,13,13,0,6,6,6,,,,,,,,,,,,,,,,,,,,,,,,,,,,,,,,,,,,,,,,,,,,,,,,,,,,,,,,,,,,,,,,,,,,,1.3448,1081.366577,None,None,1,1081.366577,None,,P012,fencog,2,Pre,2021_Oct_07_1125,N-Back (New Version 2021),2021.1.4,120.0225161
,,,,Conditions/Version_1/zeroback(4)_v1.xlsx,New rule: Press 'space' when you see the letter 'x' or 'X'.,m,None,,,,,,,,,0,13,13,13,0,7,7,7,,,,,,,,,,,,,,,,,,,,,,,,,,,,,,,,,,,,,,,,,,,,,,,,,,,,,,,,,,,,,,,,,,,,,1.0472,1084.424667,None,None,1,1084.424667,None,,P012,fencog,2,Pre,2021_Oct_07_1125,N-Back (New Version 2021),2021.1.4,120.0225161
,,,,Conditions/Version_1/zeroback(4)_v1.xlsx,New rule: Press 'space' when you see the letter 'x' or 'X'.,p,None,,,,,,,,,0,13,13,13,0,8,8,8,,,,,,,,,,,,,,,,,,,,,,,,,,,,,,,,,,,,,,,,,,,,,,,,,,,,,,,,,,,,,,,,,,,,,1.258,1087.688768,None,None,1,1087.688768,None,,P012,fencog,2,Pre,2021_Oct_07_1125,N-Back (New Version 2021),2021.1.4,120.0225161
,,,,Conditions/Version_1/zeroback(4)_v1.xlsx,New rule: Press 'space' when you see the letter 'x' or 'X'.,X,space,,,,,,,,,0,13,13,13,0,9,9,9,,,,,,,,,,,,,,,,,,,,,,,,,,,,,,,,,,,,,,,,,,,,,,,,,,,,,,,,,,,,,,,,,,,,,1.8346,1091.529441,None,space,1,1091.529441,None,0.4428938,P012,fencog,2,Pre,2021_Oct_07_1125,N-Back (New Version 2021),2021.1.4,120.0225161
,,,,Conditions/Version_1/zeroback(4)_v1.xlsx,New rule: Press 'space' when you see the letter 'x' or 'X'.,,,,,,,,,,,0,13,13,13,,,,,,,,,,,,,,,,,,,,,,,,,,,,,,,,,,,,,,,,,,,,,,,,,,,,,,,,,,,,,,,,,,,,,,,,,,,,,,,,,P012,fencog,2,Pre,2021_Oct_07_1125,N-Back (New Version 2021),2021.1.4,120.0225161
,,,,Conditions/Version_1/oneback(4)_v1.xlsx,New rule: Press 'space' when you see 1-back (i.e. the same letter as the one that appeared 1 letter ago.),w,None,,,,,,,,,0,14,14,14,0,0,0,0,,,,,,,,,,,,,,,,,,,,,,,,,,,,,,,,,,,,,,,,,,,,,,,,,,,,,,,,,,,1093.550277,None,1096.539049,None,space,0.4239345,1096.539049,None,1093.550277,None,1.4192,1098.404569,None,None,1,1098.404569,None,,P012,fencog,2,Pre,2021_Oct_07_1125,N-Back (New Version 2021),2021.1.4,120.0225161
,,,,Conditions/Version_1/oneback(4)_v1.xlsx,New rule: Press 'space' when you see 1-back (i.e. the same letter as the one that appeared 1 letter ago.),q,None,,,,,,,,,0,14,14,14,0,1,1,1,,,,,,,,,,,,,,,,,,,,,,,,,,,,,,,,,,,,,,,,,,,,,,,,,,,,,,,,,,,,,,,,,,,,,1.4254,1101.837071,None,None,1,1101.837071,None,,P012,fencog,2,Pre,2021_Oct_07_1125,N-Back (New Version 2021),2021.1.4,120.0225161
,,,,Conditions/Version_1/oneback(4)_v1.xlsx,New rule: Press 'space' when you see 1-back (i.e. the same letter as the one that appeared 1 letter ago.),i,None,,,,,,,,,0,14,14,14,0,2,2,2,,,,,,,,,,,,,,,,,,,,,,,,,,,,,,,,,,,,,,,,,,,,,,,,,,,,,,,,,,,,,,,,,,,,,1.2766,1105.118593,None,None,1,1105.118593,None,,P012,fencog,2,Pre,2021_Oct_07_1125,N-Back (New Version 2021),2021.1.4,120.0225161
,,,,Conditions/Version_1/oneback(4)_v1.xlsx,New rule: Press 'space' when you see 1-back (i.e. the same letter as the one that appeared 1 letter ago.),t,None,,,,,,,,,0,14,14,14,0,3,3,3,,,,,,,,,,,,,,,,,,,,,,,,,,,,,,,,,,,,,,,,,,,,,,,,,,,,,,,,,,,,,,,,,,,,,1.8532,1108.983928,None,None,1,1108.983928,None,,P012,fencog,2,Pre,2021_Oct_07_1125,N-Back (New Version 2021),2021.1.4,120.0225161
,,,,Conditions/Version_1/oneback(4)_v1.xlsx,New rule: Press 'space' when you see 1-back (i.e. the same letter as the one that appeared 1 letter ago.),v,None,,,,,,,,,0,14,14,14,0,4,4,4,,,,,,,,,,,,,,,,,,,,,,,,,,,,,,,,,,,,,,,,,,,,,,,,,,,,,,,,,,,,,,,,,,,,,1.8904,1112.88294,None,None,1,1112.88294,None,,P012,fencog,2,Pre,2021_Oct_07_1125,N-Back (New Version 2021),2021.1.4,120.0225161
,,,,Conditions/Version_1/oneback(4)_v1.xlsx,New rule: Press 'space' when you see 1-back (i.e. the same letter as the one that appeared 1 letter ago.),V,space,,,,,,,,,0,14,14,14,0,5,5,5,,,,,,,,,,,,,,,,,,,,,,,,,,,,,,,,,,,,,,,,,,,,,,,,,,,,,,,,,,,,,,,,,,,,,1.9772,1116.87457,None,space,1,1116.87457,None,0.4242409,P012,fencog,2,Pre,2021_Oct_07_1125,N-Back (New Version 2021),2021.1.4,120.0225161
,,,,Conditions/Version_1/oneback(4)_v1.xlsx,New rule: Press 'space' when you see 1-back (i.e. the same letter as the one that appeared 1 letter ago.),v,space,,,,,,,,,0,14,14,14,0,6,6,6,,,,,,,,,,,,,,,,,,,,,,,,,,,,,,,,,,,,,,,,,,,,,,,,,,,,,,,,,,,,,,,,,,,,,1.537,1120.422152,None,space,1,1120.422152,None,0.60548,P012,fencog,2,Pre,2021_Oct_07_1125,N-Back (New Version 2021),2021.1.4,120.0225161
,,,,Conditions/Version_1/oneback(4)_v1.xlsx,New rule: Press 'space' when you see 1-back (i.e. the same letter as the one that appeared 1 letter ago.),p,None,,,,,,,,,0,14,14,14,0,7,7,7,,,,,,,,,,,,,,,,,,,,,,,,,,,,,,,,,,,,,,,,,,,,,,,,,,,,,,,,,,,,,,,,,,,,,1.5184,1123.953251,None,None,1,1123.953251,None,,P012,fencog,2,Pre,2021_Oct_07_1125,N-Back (New Version 2021),2021.1.4,120.0225161
,,,,Conditions/Version_1/oneback(4)_v1.xlsx,New rule: Press 'space' when you see 1-back (i.e. the same letter as the one that appeared 1 letter ago.),w,None,,,,,,,,,0,14,14,14,0,8,8,8,,,,,,,,,,,,,,,,,,,,,,,,,,,,,,,,,,,,,,,,,,,,,,,,,,,,,,,,,,,,,,,,,,,,,1.0286,1126.996117,None,None,1,1126.996117,None,,P012,fencog,2,Pre,2021_Oct_07_1125,N-Back (New Version 2021),2021.1.4,120.0225161
,,,,Conditions/Version_1/oneback(4)_v1.xlsx,New rule: Press 'space' when you see 1-back (i.e. the same letter as the one that appeared 1 letter ago.),W,space,,,,,,,,,0,14,14,14,0,9,9,9,,,,,,,,,,,,,,,,,,,,,,,,,,,,,,,,,,,,,,,,,,,,,,,,,,,,,,,,,,,,,,,,,,,,,1.8656,1130.867856,None,space,1,1130.867856,None,0.727462,P012,fencog,2,Pre,2021_Oct_07_1125,N-Back (New Version 2021),2021.1.4,120.0225161
,,,,Conditions/Version_1/oneback(4)_v1.xlsx,New rule: Press 'space' when you see 1-back (i.e. the same letter as the one that appeared 1 letter ago.),,,,,,,,,,,0,14,14,14,,,,,,,,,,,,,,,,,,,,,,,,,,,,,,,,,,,,,,,,,,,,,,,,,,,,,,,,,,,,,,,,,,,,,,,,,,,,,,,,,P012,fencog,2,Pre,2021_Oct_07_1125,N-Back (New Version 2021),2021.1.4,120.0225161
,,,,Conditions/Version_1/threeback(4)_v1.xlsx,New rule: Press 'space' when you see 3-back (i.e. the same letter as the one that appeared 3 letters ago.),A,None,,,,,,,,,0,15,15,15,0,0,0,0,,,,,,,,,,,,,,,,,,,,,,,,,,,,,,,,,,,,,,,,,,,,,,,,,,,,,,,,,,,1132.890437,None,1135.877362,None,space,2.8062805,1135.877362,None,1132.890437,None,1.0286,1139.742911,None,None,1,1139.742911,None,,P012,fencog,2,Pre,2021_Oct_07_1125,N-Back (New Version 2021),2021.1.4,120.0225161
,,,,Conditions/Version_1/threeback(4)_v1.xlsx,New rule: Press 'space' when you see 3-back (i.e. the same letter as the one that appeared 3 letters ago.),n,None,,,,,,,,,0,15,15,15,0,1,1,1,,,,,,,,,,,,,,,,,,,,,,,,,,,,,,,,,,,,,,,,,,,,,,,,,,,,,,,,,,,,,,,,,,,,,1.7044,1143.458589,None,None,1,1143.458589,None,,P012,fencog,2,Pre,2021_Oct_07_1125,N-Back (New Version 2021),2021.1.4,120.0225161
,,,,Conditions/Version_1/threeback(4)_v1.xlsx,New rule: Press 'space' when you see 3-back (i.e. the same letter as the one that appeared 3 letters ago.),g,None,,,,,,,,,0,15,15,15,0,2,2,2,,,,,,,,,,,,,,,,,,,,,,,,,,,,,,,,,,,,,,,,,,,,,,,,,,,,,,,,,,,,,,,,,,,,,1.8718,1147.337984,None,None,1,1147.337984,None,,P012,fencog,2,Pre,2021_Oct_07_1125,N-Back (New Version 2021),2021.1.4,120.0225161
,,,,Conditions/Version_1/threeback(4)_v1.xlsx,New rule: Press 'space' when you see 3-back (i.e. the same letter as the one that appeared 3 letters ago.),A,space,,,,,,,,,0,15,15,15,0,3,3,3,,,,,,,,,,,,,,,,,,,,,,,,,,,,,,,,,,,,,,,,,,,,,,,,,,,,,,,,,,,,,,,,,,,,,1.4998,1150.838186,None,space,1,1150.838186,None,0.9330806,P012,fencog,2,Pre,2021_Oct_07_1125,N-Back (New Version 2021),2021.1.4,120.0225161
,,,,Conditions/Version_1/threeback(4)_v1.xlsx,New rule: Press 'space' when you see 3-back (i.e. the same letter as the one that appeared 3 letters ago.),p,None,,,,,,,,,0,15,15,15,0,4,4,4,,,,,,,,,,,,,,,,,,,,,,,,,,,,,,,,,,,,,,,,,,,,,,,,,,,,,,,,,,,,,,,,,,,,,1.4874,1154.338819,None,None,1,1154.338819,None,,P012,fencog,2,Pre,2021_Oct_07_1125,N-Back (New Version 2021),2021.1.4,120.0225161
,,,,Conditions/Version_1/threeback(4)_v1.xlsx,New rule: Press 'space' when you see 3-back (i.e. the same letter as the one that appeared 3 letters ago.),O,None,,,,,,,,,0,15,15,15,0,5,5,5,,,,,,,,,,,,,,,,,,,,,,,,,,,,,,,,,,,,,,,,,,,,,,,,,,,,,,,,,,,,,,,,,,,,,1.6982,1158.043215,None,None,1,1158.043215,None,,P012,fencog,2,Pre,2021_Oct_07_1125,N-Back (New Version 2021),2021.1.4,120.0225161
,,,,Conditions/Version_1/threeback(4)_v1.xlsx,New rule: Press 'space' when you see 3-back (i.e. the same letter as the one that appeared 3 letters ago.),a,space,,,,,,,,,0,15,15,15,0,6,6,6,,,,,,,,,,,,,,,,,,,,,,,,,,,,,,,,,,,,,,,,,,,,,,,,,,,,,,,,,,,,,,,,,,,,,1.6672,1161.718318,None,space,1,1161.718318,None,0.477199,P012,fencog,2,Pre,2021_Oct_07_1125,N-Back (New Version 2021),2021.1.4,120.0225161
,,,,Conditions/Version_1/threeback(4)_v1.xlsx,New rule: Press 'space' when you see 3-back (i.e. the same letter as the one that appeared 3 letters ago.),p,space,,,,,,,,,0,15,15,15,0,7,7,7,,,,,,,,,,,,,,,,,,,,,,,,,,,,,,,,,,,,,,,,,,,,,,,,,,,,,,,,,,,,,,,,,,,,,1.8842,1165.616871,None,space,1,1165.616871,None,0.4267917,P012,fencog,2,Pre,2021_Oct_07_1125,N-Back (New Version 2021),2021.1.4,120.0225161
,,,,Conditions/Version_1/threeback(4)_v1.xlsx,New rule: Press 'space' when you see 3-back (i.e. the same letter as the one that appeared 3 letters ago.),x,None,,,,,,,,,0,15,15,15,0,8,8,8,,,,,,,,,,,,,,,,,,,,,,,,,,,,,,,,,,,,,,,,,,,,,,,,,,,,,,,,,,,,,,,,,,,,,1.971,1169.604653,None,None,1,1169.604653,None,,P012,fencog,2,Pre,2021_Oct_07_1125,N-Back (New Version 2021),2021.1.4,120.0225161
,,,,Conditions/Version_1/threeback(4)_v1.xlsx,New rule: Press 'space' when you see 3-back (i.e. the same letter as the one that appeared 3 letters ago.),X,None,,,,,,,,,0,15,15,15,0,9,9,9,,,,,,,,,,,,,,,,,,,,,,,,,,,,,,,,,,,,,,,,,,,,,,,,,,,,,,,,,,,,,,,,,,,,,1.1278,1172.741242,None,None,1,1172.741242,None,,P012,fencog,2,Pre,2021_Oct_07_1125,N-Back (New Version 2021),2021.1.4,120.0225161
,,,,Conditions/Version_1/threeback(4)_v1.xlsx,New rule: Press 'space' when you see 3-back (i.e. the same letter as the one that appeared 3 letters ago.),,,,,,,,,,,0,15,15,15,,,,,,,,,,,,,,,,,,,,,,,,,,,,,,,,,,,,,,,,,,,,,,,,,,,,,,,,,,,,,,,,,,,,,,,,,,,,,,,,,P012,fencog,2,Pre,2021_Oct_07_1125,N-Back (New Version 2021),2021.1.4,120.0225161
