CondFileP,InstructionsP,LettersDisplayedP,CorrectnessP,CondFile,Instructions,LettersDisplayed,Correctness,practicetrials.thisRepN,practicetrials.thisTrialN,practicetrials.thisN,practicetrials.thisIndex,InnerLoopPractice.thisRepN,InnerLoopPractice.thisTrialN,InnerLoopPractice.thisN,InnerLoopPractice.thisIndex,trials.thisRepN,trials.thisTrialN,trials.thisN,trials.thisIndex,InnerLoop.thisRepN,InnerLoop.thisTrialN,InnerLoop.thisN,InnerLoop.thisIndex,TaskVersionText.started,TaskVersionText.stopped,InstrKey1.keys,InstrKey1.rt,InstrKey1.started,InstrKey1.stopped,text.started,text.stopped,key_resp_4.keys,key_resp_4.rt,key_resp_4.started,key_resp_4.stopped,text_2.started,text_2.stopped,key_resp_3.keys,key_resp_3.rt,key_resp_3.started,key_resp_3.stopped,text_3.started,text_3.stopped,key_resp_2.keys,key_resp_2.rt,key_resp_2.started,key_resp_2.stopped,PractIn1.started,PractIn1.stopped,PractIn2.started,PractIn2.stopped,PractInstructionPass.keys,PractInstructionPass.rt,PractInstructionPass.started,PractInstructionPass.stopped,PractBlock1.started,PractBlock1.stopped,ISIjitterPractice,ISI_Pract_Fixation.started,ISI_Pract_Fixation.stopped,N_backP.started,N_backP.stopped,KeyPractice.keys,KeyPractice.corr,KeyPractice.started,KeyPractice.stopped,text_4.started,text_4.stopped,TransitionText.started,TransitionText.stopped,key_resp_6.keys,key_resp_6.rt,key_resp_6.started,key_resp_6.stopped,text_5.started,text_5.stopped,key_resp_5.keys,key_resp_5.rt,key_resp_5.started,key_resp_5.stopped,MainInt1.started,MainInt1.stopped,MainInt2.started,MainInt2.stopped,InstructionPass.keys,InstructionPass.rt,InstructionPass.started,InstructionPass.stopped,Blocks1.started,Blocks1.stopped,ISIjitter,N_backD.started,N_backD.stopped,key_resp.keys,key_resp.corr,key_resp.started,key_resp.stopped,key_resp.rt,participant,Study Name,Task Version (required to run),PRE/POST,date,expName,psychopyVersion,frameRate
,,,,,,,,,,,,,,,,,,,,,,,,20.9479864,None,space,6.061681,21.4391798,None,,,,,,,,,,,,,,,,,,,,,,,,,,,,,,,,,,,,,,,,,,,,,,,,,,,,,,,,,,,,,,,,,,,,,,P002,fencog,1,Post,2021_Jul_06_1155,N-Back (New Version 2021),2021.1.4,120.356351
,,,,,,,,,,,,,,,,,,,,,,,,,,,,,,27.539141,None,space,0.6587555,28.029386,None,,,,,,,,,,,,,,,,,,,,,,,,,,,,,,,,,,,,,,,,,,,,,,,,,,,,,,,,,,,,,,,,P002,fencog,1,Post,2021_Jul_06_1155,N-Back (New Version 2021),2021.1.4,120.356351
,,,,,,,,,,,,,,,,,,,,,,,,,,,,,,,,,,,,28.721316,None,space,0.0119684,29.2124603,None,,,,,,,,,,,,,,,,,,,,,,,,,,,,,,,,,,,,,,,,,,,,,,,,,,,,,,,,,,P002,fencog,1,Post,2021_Jul_06_1155,N-Back (New Version 2021),2021.1.4,120.356351
,,,,,,,,,,,,,,,,,,,,,,,,,,,,,,,,,,,,,,,,,,29.2558183,None,space,6.0546279,29.7454778,None,,,,,,,,,,,,,,,,,,,,,,,,,,,,,,,,,,,,,,,,,,,,,,,,,,,,P002,fencog,1,Post,2021_Jul_06_1155,N-Back (New Version 2021),2021.1.4,120.356351
Conditions/Version_1Pr/zeroback(1)_v1.xlsx,Rule: Press 'space' when you see the letter 'x' or 'X'.,Z,None,,,,,0,0,0,0,0,0,0,0,,,,,,,,,,,,,,,,,,,,,,,,,,,,,,,,,37.1683539,None,40.1526871,None,space,0.3596705,40.1526871,None,37.1683539,None,1.065,40.5338508,None,41.6056106,None,None,1,41.6056106,None,43.608914,None,,,,,,,,,,,,,,,,,,,,,,,,,,,,,,,P002,fencog,1,Post,2021_Jul_06_1155,N-Back (New Version 2021),2021.1.4,120.356351
Conditions/Version_1Pr/zeroback(1)_v1.xlsx,Rule: Press 'space' when you see the letter 'x' or 'X'.,r,None,,,,,0,0,0,0,0,1,1,1,,,,,,,,,,,,,,,,,,,,,,,,,,,,,,,,,,,,,,,,,,,1.365,45.1070829,None,46.4772871,None,None,1,46.4772871,None,48.4755124,None,,,,,,,,,,,,,,,,,,,,,,,,,,,,,,,P002,fencog,1,Post,2021_Jul_06_1155,N-Back (New Version 2021),2021.1.4,120.356351
Conditions/Version_1Pr/zeroback(1)_v1.xlsx,Rule: Press 'space' when you see the letter 'x' or 'X'.,X,space,,,,,0,0,0,0,0,2,2,2,,,,,,,,,,,,,,,,,,,,,,,,,,,,,,,,,,,,,,,,,,,1.715,49.980524,None,51.6995639,None,None,0,51.6995639,None,53.7075894,None,,,,,,,,,,,,,,,,,,,,,,,,,,,,,,,P002,fencog,1,Post,2021_Jul_06_1155,N-Back (New Version 2021),2021.1.4,120.356351
Conditions/Version_1Pr/zeroback(1)_v1.xlsx,Rule: Press 'space' when you see the letter 'x' or 'X'.,p,None,,,,,0,0,0,0,0,3,3,3,,,,,,,,,,,,,,,,,,,,,,,,,,,,,,,,,,,,,,,,,,,2.015,55.2040049,None,57.2214487,None,None,1,57.2214487,None,59.2275384,None,,,,,,,,,,,,,,,,,,,,,,,,,,,,,,,P002,fencog,1,Post,2021_Jul_06_1155,N-Back (New Version 2021),2021.1.4,120.356351
Conditions/Version_1Pr/zeroback(1)_v1.xlsx,Rule: Press 'space' when you see the letter 'x' or 'X'.,w,None,,,,,0,0,0,0,0,4,4,4,,,,,,,,,,,,,,,,,,,,,,,,,,,,,,,,,,,,,,,,,,,1.24,60.7274773,None,61.9714476,None,None,1,61.9714476,None,63.9764415,None,,,,,,,,,,,,,,,,,,,,,,,,,,,,,,,P002,fencog,1,Post,2021_Jul_06_1155,N-Back (New Version 2021),2021.1.4,120.356351
Conditions/Version_1Pr/zeroback(1)_v1.xlsx,Rule: Press 'space' when you see the letter 'x' or 'X'.,e,None,,,,,0,0,0,0,0,5,5,5,,,,,,,,,,,,,,,,,,,,,,,,,,,,,,,,,,,,,,,,,,,1.49,65.4762569,None,66.9699767,None,None,1,66.9699767,None,68.9749604,None,,,,,,,,,,,,,,,,,,,,,,,,,,,,,,,P002,fencog,1,Post,2021_Jul_06_1155,N-Back (New Version 2021),2021.1.4,120.356351
Conditions/Version_1Pr/zeroback(1)_v1.xlsx,Rule: Press 'space' when you see the letter 'x' or 'X'.,X,space,,,,,0,0,0,0,0,6,6,6,,,,,,,,,,,,,,,,,,,,,,,,,,,,,,,,,,,,,,,,,,,1.44,70.4745373,None,71.917709,None,None,0,71.917709,None,73.9244522,None,,,,,,,,,,,,,,,,,,,,,,,,,,,,,,,P002,fencog,1,Post,2021_Jul_06_1155,N-Back (New Version 2021),2021.1.4,120.356351
Conditions/Version_1Pr/zeroback(1)_v1.xlsx,Rule: Press 'space' when you see the letter 'x' or 'X'.,x,space,,,,,0,0,0,0,0,7,7,7,,,,,,,,,,,,,,,,,,,,,,,,,,,,,,,,,,,,,,,,,,,1.165,75.4230595,None,76.5924657,None,None,0,76.5924657,None,78.5967914,None,,,,,,,,,,,,,,,,,,,,,,,,,,,,,,,P002,fencog,1,Post,2021_Jul_06_1155,N-Back (New Version 2021),2021.1.4,120.356351
Conditions/Version_1Pr/zeroback(1)_v1.xlsx,Rule: Press 'space' when you see the letter 'x' or 'X'.,p,None,,,,,0,0,0,0,0,8,8,8,,,,,,,,,,,,,,,,,,,,,,,,,,,,,,,,,,,,,,,,,,,1.765,80.0963821,None,81.86642,None,None,1,81.86642,None,83.8704467,None,,,,,,,,,,,,,,,,,,,,,,,,,,,,,,,P002,fencog,1,Post,2021_Jul_06_1155,N-Back (New Version 2021),2021.1.4,120.356351
Conditions/Version_1Pr/zeroback(1)_v1.xlsx,Rule: Press 'space' when you see the letter 'x' or 'X'.,r,None,,,,,0,0,0,0,0,9,9,9,,,,,,,,,,,,,,,,,,,,,,,,,,,,,,,,,,,,,,,,,,,1.84,85.3702269,None,87.2112373,None,None,1,87.2112373,None,89.2113634,None,,,,,,,,,,,,,,,,,,,,,,,,,,,,,,,P002,fencog,1,Post,2021_Jul_06_1155,N-Back (New Version 2021),2021.1.4,120.356351
Conditions/Version_1Pr/zeroback(1)_v1.xlsx,Rule: Press 'space' when you see the letter 'x' or 'X'.,,,,,,,0,0,0,0,,,,,,,,,,,,,,,,,,,,,,,,,,,,,,,,,,,,,,,,,,,,,,,,,,,,,,,,,,,,,,,,,,,,,,,,,,,,,,,,,,,,,,,,P002,fencog,1,Post,2021_Jul_06_1155,N-Back (New Version 2021),2021.1.4,120.356351
Conditions/Version_1Pr/oneback(1)_v1.xlsx,New rule: Press 'space' when you see 1-back (i.e. the same letter as the one that appeared 1 letter ago.),a,None,,,,,0,1,1,1,0,0,0,0,,,,,,,,,,,,,,,,,,,,,,,,,,,,,,,,,90.7468637,None,93.7281645,None,space,1.631501,93.7281645,None,90.7468637,None,1.165,95.378642,None,96.5544567,None,None,1,96.5544567,None,98.5577593,None,,,,,,,,,,,,,,,,,,,,,,,,,,,,,,,P002,fencog,1,Post,2021_Jul_06_1155,N-Back (New Version 2021),2021.1.4,120.356351
Conditions/Version_1Pr/oneback(1)_v1.xlsx,New rule: Press 'space' when you see 1-back (i.e. the same letter as the one that appeared 1 letter ago.),x,None,,,,,0,1,1,1,0,1,1,1,,,,,,,,,,,,,,,,,,,,,,,,,,,,,,,,,,,,,,,,,,,1.14,100.057415,None,101.199618,None,None,1,101.199618,None,103.2092248,None,,,,,,,,,,,,,,,,,,,,,,,,,,,,,,,P002,fencog,1,Post,2021_Jul_06_1155,N-Back (New Version 2021),2021.1.4,120.356351
Conditions/Version_1Pr/oneback(1)_v1.xlsx,New rule: Press 'space' when you see 1-back (i.e. the same letter as the one that appeared 1 letter ago.),g,None,,,,,0,1,1,1,0,2,2,2,,,,,,,,,,,,,,,,,,,,,,,,,,,,,,,,,,,,,,,,,,,1.365,104.705959,None,106.0747787,None,None,1,106.0747787,None,108.080125,None,,,,,,,,,,,,,,,,,,,,,,,,,,,,,,,P002,fencog,1,Post,2021_Jul_06_1155,N-Back (New Version 2021),2021.1.4,120.356351
Conditions/Version_1Pr/oneback(1)_v1.xlsx,New rule: Press 'space' when you see 1-back (i.e. the same letter as the one that appeared 1 letter ago.),G,space,,,,,0,1,1,1,0,3,3,3,,,,,,,,,,,,,,,,,,,,,,,,,,,,,,,,,,,,,,,,,,,1.615,109.5796361,None,111.1983717,None,None,0,111.1983717,None,113.2049463,None,,,,,,,,,,,,,,,,,,,,,,,,,,,,,,,P002,fencog,1,Post,2021_Jul_06_1155,N-Back (New Version 2021),2021.1.4,120.356351
Conditions/Version_1Pr/oneback(1)_v1.xlsx,New rule: Press 'space' when you see 1-back (i.e. the same letter as the one that appeared 1 letter ago.),u,None,,,,,0,1,1,1,0,4,4,4,,,,,,,,,,,,,,,,,,,,,,,,,,,,,,,,,,,,,,,,,,,1.965,114.703101,None,116.6726217,None,None,1,116.6726217,None,118.6782067,None,,,,,,,,,,,,,,,,,,,,,,,,,,,,,,,P002,fencog,1,Post,2021_Jul_06_1155,N-Back (New Version 2021),2021.1.4,120.356351
Conditions/Version_1Pr/oneback(1)_v1.xlsx,New rule: Press 'space' when you see 1-back (i.e. the same letter as the one that appeared 1 letter ago.),y,None,,,,,0,1,1,1,0,5,5,5,,,,,,,,,,,,,,,,,,,,,,,,,,,,,,,,,,,,,,,,,,,1.315,120.1763946,None,121.4953227,None,None,1,121.4953227,None,123.5003592,None,,,,,,,,,,,,,,,,,,,,,,,,,,,,,,,P002,fencog,1,Post,2021_Jul_06_1155,N-Back (New Version 2021),2021.1.4,120.356351
Conditions/Version_1Pr/oneback(1)_v1.xlsx,New rule: Press 'space' when you see 1-back (i.e. the same letter as the one that appeared 1 letter ago.),y,space,,,,,0,1,1,1,0,6,6,6,,,,,,,,,,,,,,,,,,,,,,,,,,,,,,,,,,,,,,,,,,,1.815,125.0000297,None,126.8160904,None,None,0,126.8160904,None,128.8203533,None,,,,,,,,,,,,,,,,,,,,,,,,,,,,,,,P002,fencog,1,Post,2021_Jul_06_1155,N-Back (New Version 2021),2021.1.4,120.356351
Conditions/Version_1Pr/oneback(1)_v1.xlsx,New rule: Press 'space' when you see 1-back (i.e. the same letter as the one that appeared 1 letter ago.),k,None,,,,,0,1,1,1,0,7,7,7,,,,,,,,,,,,,,,,,,,,,,,,,,,,,,,,,,,,,,,,,,,1.54,130.3233987,None,131.8676438,None,None,1,131.8676438,None,133.873559,None,,,,,,,,,,,,,,,,,,,,,,,,,,,,,,,P002,fencog,1,Post,2021_Jul_06_1155,N-Back (New Version 2021),2021.1.4,120.356351
Conditions/Version_1Pr/oneback(1)_v1.xlsx,New rule: Press 'space' when you see 1-back (i.e. the same letter as the one that appeared 1 letter ago.),c,None,,,,,0,1,1,1,0,8,8,8,,,,,,,,,,,,,,,,,,,,,,,,,,,,,,,,,,,,,,,,,,,1.34,135.3718884,None,136.7163062,None,None,1,136.7163062,None,138.7209695,None,,,,,,,,,,,,,,,,,,,,,,,,,,,,,,,P002,fencog,1,Post,2021_Jul_06_1155,N-Back (New Version 2021),2021.1.4,120.356351
Conditions/Version_1Pr/oneback(1)_v1.xlsx,New rule: Press 'space' when you see 1-back (i.e. the same letter as the one that appeared 1 letter ago.),r,None,,,,,0,1,1,1,0,9,9,9,,,,,,,,,,,,,,,,,,,,,,,,,,,,,,,,,,,,,,,,,,,2.015,140.2204006,None,142.2374329,None,None,1,142.2374329,None,144.2443116,None,,,,,,,,,,,,,,,,,,,,,,,,,,,,,,,P002,fencog,1,Post,2021_Jul_06_1155,N-Back (New Version 2021),2021.1.4,120.356351
Conditions/Version_1Pr/oneback(1)_v1.xlsx,New rule: Press 'space' when you see 1-back (i.e. the same letter as the one that appeared 1 letter ago.),,,,,,,0,1,1,1,,,,,,,,,,,,,,,,,,,,,,,,,,,,,,,,,,,,,,,,,,,,,,,,,,,,,,,,,,,,,,,,,,,,,,,,,,,,,,,,,,,,,,,,P002,fencog,1,Post,2021_Jul_06_1155,N-Back (New Version 2021),2021.1.4,120.356351
Conditions/Version_1Pr/twoback(1)_v1.xlsx,New rule: Press 'space' when you see 2-back (i.e. the same letter as the one that appeared 2 letters ago.),E,None,,,,,0,2,2,2,0,0,0,0,,,,,,,,,,,,,,,,,,,,,,,,,,,,,,,,,145.7687414,None,148.7548251,None,space,6.9009667,148.7548251,None,145.7687414,None,1.54,155.6757159,None,157.218804,None,None,1,157.218804,None,159.22299,None,,,,,,,,,,,,,,,,,,,,,,,,,,,,,,,P002,fencog,1,Post,2021_Jul_06_1155,N-Back (New Version 2021),2021.1.4,120.356351
Conditions/Version_1Pr/twoback(1)_v1.xlsx,New rule: Press 'space' when you see 2-back (i.e. the same letter as the one that appeared 2 letters ago.),p,None,,,,,0,2,2,2,0,1,1,1,,,,,,,,,,,,,,,,,,,,,,,,,,,,,,,,,,,,,,,,,,,1.59,160.7227572,None,162.315741,None,None,1,162.315741,None,164.3218377,None,,,,,,,,,,,,,,,,,,,,,,,,,,,,,,,P002,fencog,1,Post,2021_Jul_06_1155,N-Back (New Version 2021),2021.1.4,120.356351
Conditions/Version_1Pr/twoback(1)_v1.xlsx,New rule: Press 'space' when you see 2-back (i.e. the same letter as the one that appeared 2 letters ago.),e,space,,,,,0,2,2,2,0,2,2,2,,,,,,,,,,,,,,,,,,,,,,,,,,,,,,,,,,,,,,,,,,,1.515,165.8211759,None,167.3386337,None,None,0,167.3386337,None,169.3479534,None,,,,,,,,,,,,,,,,,,,,,,,,,,,,,,,P002,fencog,1,Post,2021_Jul_06_1155,N-Back (New Version 2021),2021.1.4,120.356351
Conditions/Version_1Pr/twoback(1)_v1.xlsx,New rule: Press 'space' when you see 2-back (i.e. the same letter as the one that appeared 2 letters ago.),s,None,,,,,0,2,2,2,0,3,3,3,,,,,,,,,,,,,,,,,,,,,,,,,,,,,,,,,,,,,,,,,,,1.965,170.8447055,None,172.8205257,None,None,1,172.8205257,None,174.8196498,None,,,,,,,,,,,,,,,,,,,,,,,,,,,,,,,P002,fencog,1,Post,2021_Jul_06_1155,N-Back (New Version 2021),2021.1.4,120.356351
Conditions/Version_1Pr/twoback(1)_v1.xlsx,New rule: Press 'space' when you see 2-back (i.e. the same letter as the one that appeared 2 letters ago.),S,None,,,,,0,2,2,2,0,4,4,4,,,,,,,,,,,,,,,,,,,,,,,,,,,,,,,,,,,,,,,,,,,1.14,176.3181555,None,177.4663039,None,None,1,177.4663039,None,179.4667987,None,,,,,,,,,,,,,,,,,,,,,,,,,,,,,,,P002,fencog,1,Post,2021_Jul_06_1155,N-Back (New Version 2021),2021.1.4,120.356351
Conditions/Version_1Pr/twoback(1)_v1.xlsx,New rule: Press 'space' when you see 2-back (i.e. the same letter as the one that appeared 2 letters ago.),s,space,,,,,0,2,2,2,0,5,5,5,,,,,,,,,,,,,,,,,,,,,,,,,,,,,,,,,,,,,,,,,,,1.165,180.9668072,None,182.1353905,None,None,0,182.1353905,None,184.1462912,None,,,,,,,,,,,,,,,,,,,,,,,,,,,,,,,P002,fencog,1,Post,2021_Jul_06_1155,N-Back (New Version 2021),2021.1.4,120.356351
Conditions/Version_1Pr/twoback(1)_v1.xlsx,New rule: Press 'space' when you see 2-back (i.e. the same letter as the one that appeared 2 letters ago.),P,None,,,,,0,2,2,2,0,6,6,6,,,,,,,,,,,,,,,,,,,,,,,,,,,,,,,,,,,,,,,,,,,1.915,185.640379,None,187.5593195,None,None,1,187.5593195,None,189.5616601,None,,,,,,,,,,,,,,,,,,,,,,,,,,,,,,,P002,fencog,1,Post,2021_Jul_06_1155,N-Back (New Version 2021),2021.1.4,120.356351
Conditions/Version_1Pr/twoback(1)_v1.xlsx,New rule: Press 'space' when you see 2-back (i.e. the same letter as the one that appeared 2 letters ago.),C,None,,,,,0,2,2,2,0,7,7,7,,,,,,,,,,,,,,,,,,,,,,,,,,,,,,,,,,,,,,,,,,,1.215,191.063859,None,192.2805711,None,None,1,192.2805711,None,194.2878944,None,,,,,,,,,,,,,,,,,,,,,,,,,,,,,,,P002,fencog,1,Post,2021_Jul_06_1155,N-Back (New Version 2021),2021.1.4,120.356351
Conditions/Version_1Pr/twoback(1)_v1.xlsx,New rule: Press 'space' when you see 2-back (i.e. the same letter as the one that appeared 2 letters ago.),x,None,,,,,0,2,2,2,0,8,8,8,,,,,,,,,,,,,,,,,,,,,,,,,,,,,,,,,,,,,,,,,,,1.39,195.7880253,None,197.1790503,None,None,1,197.1790503,None,199.1864577,None,,,,,,,,,,,,,,,,,,,,,,,,,,,,,,,P002,fencog,1,Post,2021_Jul_06_1155,N-Back (New Version 2021),2021.1.4,120.356351
Conditions/Version_1Pr/twoback(1)_v1.xlsx,New rule: Press 'space' when you see 2-back (i.e. the same letter as the one that appeared 2 letters ago.),Z,None,,,,,0,2,2,2,0,9,9,9,,,,,,,,,,,,,,,,,,,,,,,,,,,,,,,,,,,,,,,,,,,1.815,200.6858565,None,202.5031823,None,None,1,202.5031823,None,204.5097587,None,,,,,,,,,,,,,,,,,,,,,,,,,,,,,,,P002,fencog,1,Post,2021_Jul_06_1155,N-Back (New Version 2021),2021.1.4,120.356351
Conditions/Version_1Pr/twoback(1)_v1.xlsx,New rule: Press 'space' when you see 2-back (i.e. the same letter as the one that appeared 2 letters ago.),,,,,,,0,2,2,2,,,,,,,,,,,,,,,,,,,,,,,,,,,,,,,,,,,,,,,,,,,,,,,,,,,,,,,,,,,,,,,,,,,,,,,,,,,,,,,,,,,,,,,,P002,fencog,1,Post,2021_Jul_06_1155,N-Back (New Version 2021),2021.1.4,120.356351
Conditions/Version_1Pr/threeback(1)_v1.xlsx,New rule: Press 'space' when you see 3-back (i.e. the same letter as the one that appeared 3 letters ago.),r,None,,,,,0,3,3,3,0,0,0,0,,,,,,,,,,,,,,,,,,,,,,,,,,,,,,,,,206.0335011,None,209.0191258,None,space,4.7807311,209.0191258,None,206.0335011,None,1.265,213.8178638,None,215.0913332,None,None,1,215.0913332,None,217.0978121,None,,,,,,,,,,,,,,,,,,,,,,,,,,,,,,,P002,fencog,1,Post,2021_Jul_06_1155,N-Back (New Version 2021),2021.1.4,120.356351
Conditions/Version_1Pr/threeback(1)_v1.xlsx,New rule: Press 'space' when you see 3-back (i.e. the same letter as the one that appeared 3 letters ago.),a,None,,,,,0,3,3,3,0,1,1,1,,,,,,,,,,,,,,,,,,,,,,,,,,,,,,,,,,,,,,,,,,,1.715,218.5973581,None,220.3132561,None,None,1,220.3132561,None,222.312744,None,,,,,,,,,,,,,,,,,,,,,,,,,,,,,,,P002,fencog,1,Post,2021_Jul_06_1155,N-Back (New Version 2021),2021.1.4,120.356351
Conditions/Version_1Pr/threeback(1)_v1.xlsx,New rule: Press 'space' when you see 3-back (i.e. the same letter as the one that appeared 3 letters ago.),t,None,,,,,0,3,3,3,0,2,2,2,,,,,,,,,,,,,,,,,,,,,,,,,,,,,,,,,,,,,,,,,,,1.69,223.8127119,None,225.5051085,None,None,1,225.5051085,None,227.5112964,None,,,,,,,,,,,,,,,,,,,,,,,,,,,,,,,P002,fencog,1,Post,2021_Jul_06_1155,N-Back (New Version 2021),2021.1.4,120.356351
Conditions/Version_1Pr/threeback(1)_v1.xlsx,New rule: Press 'space' when you see 3-back (i.e. the same letter as the one that appeared 3 letters ago.),r,space,,,,,0,3,3,3,0,3,3,3,,,,,,,,,,,,,,,,,,,,,,,,,,,,,,,,,,,,,,,,,,,1.515,229.0106206,None,230.5345032,None,None,0,230.5345032,None,232.5364297,None,,,,,,,,,,,,,,,,,,,,,,,,,,,,,,,P002,fencog,1,Post,2021_Jul_06_1155,N-Back (New Version 2021),2021.1.4,120.356351
Conditions/Version_1Pr/threeback(1)_v1.xlsx,New rule: Press 'space' when you see 3-back (i.e. the same letter as the one that appeared 3 letters ago.),a,None,,,,,0,3,3,3,0,4,4,4,,,,,,,,,,,,,,,,,,,,,,,,,,,,,,,,,,,,,,,,,,,1.315,234.0342984,None,235.351609,None,None,1,235.351609,None,237.3596331,None,,,,,,,,,,,,,,,,,,,,,,,,,,,,,,,P002,fencog,1,Post,2021_Jul_06_1155,N-Back (New Version 2021),2021.1.4,120.356351
Conditions/Version_1Pr/threeback(1)_v1.xlsx,New rule: Press 'space' when you see 3-back (i.e. the same letter as the one that appeared 3 letters ago.),Y,None,,,,,0,3,3,3,0,5,5,5,,,,,,,,,,,,,,,,,,,,,,,,,,,,,,,,,,,,,,,,,,,1.34,238.8579056,None,240.2052684,None,None,1,240.2052684,None,242.2069159,None,,,,,,,,,,,,,,,,,,,,,,,,,,,,,,,P002,fencog,1,Post,2021_Jul_06_1155,N-Back (New Version 2021),2021.1.4,120.356351
Conditions/Version_1Pr/threeback(1)_v1.xlsx,New rule: Press 'space' when you see 3-back (i.e. the same letter as the one that appeared 3 letters ago.),q,None,,,,,0,3,3,3,0,6,6,6,,,,,,,,,,,,,,,,,,,,,,,,,,,,,,,,,,,,,,,,,,,1.365,243.7062839,None,245.0756013,None,None,1,245.0756013,None,247.0804491,None,,,,,,,,,,,,,,,,,,,,,,,,,,,,,,,P002,fencog,1,Post,2021_Jul_06_1155,N-Back (New Version 2021),2021.1.4,120.356351
Conditions/Version_1Pr/threeback(1)_v1.xlsx,New rule: Press 'space' when you see 3-back (i.e. the same letter as the one that appeared 3 letters ago.),A,space,,,,,0,3,3,3,0,7,7,7,,,,,,,,,,,,,,,,,,,,,,,,,,,,,,,,,,,,,,,,,,,1.14,248.5800408,None,249.729415,None,None,0,249.729415,None,251.7308159,None,,,,,,,,,,,,,,,,,,,,,,,,,,,,,,,P002,fencog,1,Post,2021_Jul_06_1155,N-Back (New Version 2021),2021.1.4,120.356351
Conditions/Version_1Pr/threeback(1)_v1.xlsx,New rule: Press 'space' when you see 3-back (i.e. the same letter as the one that appeared 3 letters ago.),y,None,,,,,0,3,3,3,0,8,8,8,,,,,,,,,,,,,,,,,,,,,,,,,,,,,,,,,,,,,,,,,,,1.94,253.2286946,None,255.16981,None,None,1,255.16981,None,257.1709376,None,,,,,,,,,,,,,,,,,,,,,,,,,,,,,,,P002,fencog,1,Post,2021_Jul_06_1155,N-Back (New Version 2021),2021.1.4,120.356351
Conditions/Version_1Pr/threeback(1)_v1.xlsx,New rule: Press 'space' when you see 3-back (i.e. the same letter as the one that appeared 3 letters ago.),r,None,,,,,0,3,3,3,0,9,9,9,,,,,,,,,,,,,,,,,,,,,,,,,,,,,,,,,,,,,,,,,,,1.99,258.6770149,None,260.6697749,None,None,1,260.6697749,None,262.6760343,None,,,,,,,,,,,,,,,,,,,,,,,,,,,,,,,P002,fencog,1,Post,2021_Jul_06_1155,N-Back (New Version 2021),2021.1.4,120.356351
Conditions/Version_1Pr/threeback(1)_v1.xlsx,New rule: Press 'space' when you see 3-back (i.e. the same letter as the one that appeared 3 letters ago.),,,,,,,0,3,3,3,,,,,,,,,,,,,,,,,,,,,,,,,,,,,,,,,,,,,,,,,,,,,,,,,,,,,,,,,,,,,,,,,,,,,,,,,,,,,,,,,,,,,,,,P002,fencog,1,Post,2021_Jul_06_1155,N-Back (New Version 2021),2021.1.4,120.356351
,,,,,,,,,,,,,,,,,,,,,,,,,,,,,,,,,,,,,,,,,,,,,,,,,,,,,,,,,,,,,,,,,,,,,264.1834846,None,space,30.9726164,264.6756836,None,,,,,,,,,,,,,,,,,,,,,,,,,P002,fencog,1,Post,2021_Jul_06_1155,N-Back (New Version 2021),2021.1.4,120.356351
,,,,,,,,,,,,,,,,,,,,,,,,,,,,,,,,,,,,,,,,,,,,,,,,,,,,,,,,,,,,,,,,,,,,,,,,,,,295.6724921,None,space,0.6979223,296.1664391,None,,,,,,,,,,,,,,,,,,,P002,fencog,1,Post,2021_Jul_06_1155,N-Back (New Version 2021),2021.1.4,120.356351
,,,,Conditions/Version_1/zeroback(1)_v1.xlsx,Rule: Press 'space' when you see the letter 'x' or 'X'.,b,None,,,,,,,,,0,0,0,0,0,0,0,0,,,,,,,,,,,,,,,,,,,,,,,,,,,,,,,,,,,,,,,,,,,,,,,,,,,,,,,,,,296.9693373,None,299.9575356,None,space,1.0743288,299.9575356,None,296.9693373,None,1.2022,302.2649892,None,None,1,302.2649892,None,,P002,fencog,1,Post,2021_Jul_06_1155,N-Back (New Version 2021),2021.1.4,120.356351
,,,,Conditions/Version_1/zeroback(1)_v1.xlsx,Rule: Press 'space' when you see the letter 'x' or 'X'.,T,None,,,,,,,,,0,0,0,0,0,1,1,1,,,,,,,,,,,,,,,,,,,,,,,,,,,,,,,,,,,,,,,,,,,,,,,,,,,,,,,,,,,,,,,,,,,,1.2146,305.482982,None,None,1,305.482982,None,,P002,fencog,1,Post,2021_Jul_06_1155,N-Back (New Version 2021),2021.1.4,120.356351
,,,,Conditions/Version_1/zeroback(1)_v1.xlsx,Rule: Press 'space' when you see the letter 'x' or 'X'.,L,None,,,,,,,,,0,0,0,0,0,2,2,2,,,,,,,,,,,,,,,,,,,,,,,,,,,,,,,,,,,,,,,,,,,,,,,,,,,,,,,,,,,,,,,,,,,,1.2394,308.7321544,None,None,1,308.7321544,None,,P002,fencog,1,Post,2021_Jul_06_1155,N-Back (New Version 2021),2021.1.4,120.356351
,,,,Conditions/Version_1/zeroback(1)_v1.xlsx,Rule: Press 'space' when you see the letter 'x' or 'X'.,x,space,,,,,,,,,0,0,0,0,0,3,3,3,,,,,,,,,,,,,,,,,,,,,,,,,,,,,,,,,,,,,,,,,,,,,,,,,,,,,,,,,,,,,,,,,,,,1.6362,312.3782102,None,space,1,312.3782102,None,1.7015432,P002,fencog,1,Post,2021_Jul_06_1155,N-Back (New Version 2021),2021.1.4,120.356351
,,,,Conditions/Version_1/zeroback(1)_v1.xlsx,Rule: Press 'space' when you see the letter 'x' or 'X'.,o,None,,,,,,,,,0,0,0,0,0,4,4,4,,,,,,,,,,,,,,,,,,,,,,,,,,,,,,,,,,,,,,,,,,,,,,,,,,,,,,,,,,,,,,,,,,,,1.4998,315.8799874,None,None,1,315.8799874,None,,P002,fencog,1,Post,2021_Jul_06_1155,N-Back (New Version 2021),2021.1.4,120.356351
,,,,Conditions/Version_1/zeroback(1)_v1.xlsx,Rule: Press 'space' when you see the letter 'x' or 'X'.,P,None,,,,,,,,,0,0,0,0,0,5,5,5,,,,,,,,,,,,,,,,,,,,,,,,,,,,,,,,,,,,,,,,,,,,,,,,,,,,,,,,,,,,,,,,,,,,1.3138,319.2018905,None,None,1,319.2018905,None,,P002,fencog,1,Post,2021_Jul_06_1155,N-Back (New Version 2021),2021.1.4,120.356351
,,,,Conditions/Version_1/zeroback(1)_v1.xlsx,Rule: Press 'space' when you see the letter 'x' or 'X'.,X,space,,,,,,,,,0,0,0,0,0,6,6,6,,,,,,,,,,,,,,,,,,,,,,,,,,,,,,,,,,,,,,,,,,,,,,,,,,,,,,,,,,,,,,,,,,,,1.8284,323.042948,None,space,1,323.042948,None,1.2296291,P002,fencog,1,Post,2021_Jul_06_1155,N-Back (New Version 2021),2021.1.4,120.356351
,,,,Conditions/Version_1/zeroback(1)_v1.xlsx,Rule: Press 'space' when you see the letter 'x' or 'X'.,n,None,,,,,,,,,0,0,0,0,0,7,7,7,,,,,,,,,,,,,,,,,,,,,,,,,,,,,,,,,,,,,,,,,,,,,,,,,,,,,,,,,,,,,,,,,,,,1.6734,326.7256081,None,None,1,326.7256081,None,,P002,fencog,1,Post,2021_Jul_06_1155,N-Back (New Version 2021),2021.1.4,120.356351
,,,,Conditions/Version_1/zeroback(1)_v1.xlsx,Rule: Press 'space' when you see the letter 'x' or 'X'.,M,None,,,,,,,,,0,0,0,0,0,8,8,8,,,,,,,,,,,,,,,,,,,,,,,,,,,,,,,,,,,,,,,,,,,,,,,,,,,,,,,,,,,,,,,,,,,,1.0596,329.799226,None,None,1,329.799226,None,,P002,fencog,1,Post,2021_Jul_06_1155,N-Back (New Version 2021),2021.1.4,120.356351
,,,,Conditions/Version_1/zeroback(1)_v1.xlsx,Rule: Press 'space' when you see the letter 'x' or 'X'.,a,None,,,,,,,,,0,0,0,0,0,9,9,9,,,,,,,,,,,,,,,,,,,,,,,,,,,,,,,,,,,,,,,,,,,,,,,,,,,,,,,,,,,,,,,,,,,,1.9834,333.7880415,None,None,1,333.7880415,None,,P002,fencog,1,Post,2021_Jul_06_1155,N-Back (New Version 2021),2021.1.4,120.356351
,,,,Conditions/Version_1/zeroback(1)_v1.xlsx,Rule: Press 'space' when you see the letter 'x' or 'X'.,,,,,,,,,,,0,0,0,0,,,,,,,,,,,,,,,,,,,,,,,,,,,,,,,,,,,,,,,,,,,,,,,,,,,,,,,,,,,,,,,,,,,,,,,,,,,,,,,,P002,fencog,1,Post,2021_Jul_06_1155,N-Back (New Version 2021),2021.1.4,120.356351
,,,,Conditions/Version_1/oneback(1)_v1.xlsx,New rule: Press 'space' when you see 1-back (i.e. the same letter as the one that appeared 1 letter ago.),b,None,,,,,,,,,0,1,1,1,0,0,0,0,,,,,,,,,,,,,,,,,,,,,,,,,,,,,,,,,,,,,,,,,,,,,,,,,,,,,,,,,,335.8111384,None,338.7966868,None,space,0.7072618,338.7966868,None,335.8111384,None,1.3076,340.8359725,None,None,1,340.8359725,None,,P002,fencog,1,Post,2021_Jul_06_1155,N-Back (New Version 2021),2021.1.4,120.356351
,,,,Conditions/Version_1/oneback(1)_v1.xlsx,New rule: Press 'space' when you see 1-back (i.e. the same letter as the one that appeared 1 letter ago.),p,None,,,,,,,,,0,1,1,1,0,1,1,1,,,,,,,,,,,,,,,,,,,,,,,,,,,,,,,,,,,,,,,,,,,,,,,,,,,,,,,,,,,,,,,,,,,,1.5308,344.3692578,None,None,1,344.3692578,None,,P002,fencog,1,Post,2021_Jul_06_1155,N-Back (New Version 2021),2021.1.4,120.356351
,,,,Conditions/Version_1/oneback(1)_v1.xlsx,New rule: Press 'space' when you see 1-back (i.e. the same letter as the one that appeared 1 letter ago.),M,None,,,,,,,,,0,1,1,1,0,2,2,2,,,,,,,,,,,,,,,,,,,,,,,,,,,,,,,,,,,,,,,,,,,,,,,,,,,,,,,,,,,,,,,,,,,,1.1464,347.5257263,None,None,1,347.5257263,None,,P002,fencog,1,Post,2021_Jul_06_1155,N-Back (New Version 2021),2021.1.4,120.356351
,,,,Conditions/Version_1/oneback(1)_v1.xlsx,New rule: Press 'space' when you see 1-back (i.e. the same letter as the one that appeared 1 letter ago.),M,space,,,,,,,,,0,1,1,1,0,3,3,3,,,,,,,,,,,,,,,,,,,,,,,,,,,,,,,,,,,,,,,,,,,,,,,,,,,,,,,,,,,,,,,,,,,,1.8346,351.3663068,None,space,1,351.3663068,None,1.6499239,P002,fencog,1,Post,2021_Jul_06_1155,N-Back (New Version 2021),2021.1.4,120.356351
,,,,Conditions/Version_1/oneback(1)_v1.xlsx,New rule: Press 'space' when you see 1-back (i.e. the same letter as the one that appeared 1 letter ago.),n,None,,,,,,,,,0,1,1,1,0,4,4,4,,,,,,,,,,,,,,,,,,,,,,,,,,,,,,,,,,,,,,,,,,,,,,,,,,,,,,,,,,,,,,,,,,,,1.1278,354.4998841,None,None,1,354.4998841,None,,P002,fencog,1,Post,2021_Jul_06_1155,N-Back (New Version 2021),2021.1.4,120.356351
,,,,Conditions/Version_1/oneback(1)_v1.xlsx,New rule: Press 'space' when you see 1-back (i.e. the same letter as the one that appeared 1 letter ago.),g,None,,,,,,,,,0,1,1,1,0,5,5,5,,,,,,,,,,,,,,,,,,,,,,,,,,,,,,,,,,,,,,,,,,,,,,,,,,,,,,,,,,,,,,,,,,,,1.4874,358.0051614,None,None,1,358.0051614,None,,P002,fencog,1,Post,2021_Jul_06_1155,N-Back (New Version 2021),2021.1.4,120.356351
,,,,Conditions/Version_1/oneback(1)_v1.xlsx,New rule: Press 'space' when you see 1-back (i.e. the same letter as the one that appeared 1 letter ago.),P,None,,,,,,,,,0,1,1,1,0,6,6,6,,,,,,,,,,,,,,,,,,,,,,,,,,,,,,,,,,,,,,,,,,,,,,,,,,,,,,,,,,,,,,,,,,,,1.103,361.1145549,None,None,1,361.1145549,None,,P002,fencog,1,Post,2021_Jul_06_1155,N-Back (New Version 2021),2021.1.4,120.356351
,,,,Conditions/Version_1/oneback(1)_v1.xlsx,New rule: Press 'space' when you see 1-back (i.e. the same letter as the one that appeared 1 letter ago.),o,None,,,,,,,,,0,1,1,1,0,7,7,7,,,,,,,,,,,,,,,,,,,,,,,,,,,,,,,,,,,,,,,,,,,,,,,,,,,,,,,,,,,,,,,,,,,,1.8284,364.9558483,None,None,1,364.9558483,None,,P002,fencog,1,Post,2021_Jul_06_1155,N-Back (New Version 2021),2021.1.4,120.356351
,,,,Conditions/Version_1/oneback(1)_v1.xlsx,New rule: Press 'space' when you see 1-back (i.e. the same letter as the one that appeared 1 letter ago.),f,None,,,,,,,,,0,1,1,1,0,8,8,8,,,,,,,,,,,,,,,,,,,,,,,,,,,,,,,,,,,,,,,,,,,,,,,,,,,,,,,,,,,,,,,,,,,,1.32,368.2891017,None,None,1,368.2891017,None,,P002,fencog,1,Post,2021_Jul_06_1155,N-Back (New Version 2021),2021.1.4,120.356351
,,,,Conditions/Version_1/oneback(1)_v1.xlsx,New rule: Press 'space' when you see 1-back (i.e. the same letter as the one that appeared 1 letter ago.),F,space,,,,,,,,,0,1,1,1,0,9,9,9,,,,,,,,,,,,,,,,,,,,,,,,,,,,,,,,,,,,,,,,,,,,,,,,,,,,,,,,,,,,,,,,,,,,1.5556,371.8590919,None,space,1,371.8590919,None,1.2768148,P002,fencog,1,Post,2021_Jul_06_1155,N-Back (New Version 2021),2021.1.4,120.356351
,,,,Conditions/Version_1/oneback(1)_v1.xlsx,New rule: Press 'space' when you see 1-back (i.e. the same letter as the one that appeared 1 letter ago.),,,,,,,,,,,0,1,1,1,,,,,,,,,,,,,,,,,,,,,,,,,,,,,,,,,,,,,,,,,,,,,,,,,,,,,,,,,,,,,,,,,,,,,,,,,,,,,,,,P002,fencog,1,Post,2021_Jul_06_1155,N-Back (New Version 2021),2021.1.4,120.356351
,,,,Conditions/Version_1/twoback(1)_v1.xlsx,New rule: Press 'space' when you see 2-back (i.e. the same letter as the one that appeared 2 letters ago.),b,None,,,,,,,,,0,2,2,2,0,0,0,0,,,,,,,,,,,,,,,,,,,,,,,,,,,,,,,,,,,,,,,,,,,,,,,,,,,,,,,,,,373.8845717,None,376.8692898,None,space,5.8901868,376.8692898,None,373.8845717,None,1.7912,384.5740008,None,None,1,384.5740008,None,,P002,fencog,1,Post,2021_Jul_06_1155,N-Back (New Version 2021),2021.1.4,120.356351
,,,,Conditions/Version_1/twoback(1)_v1.xlsx,New rule: Press 'space' when you see 2-back (i.e. the same letter as the one that appeared 2 letters ago.),h,None,,,,,,,,,0,2,2,2,0,1,1,1,,,,,,,,,,,,,,,,,,,,,,,,,,,,,,,,,,,,,,,,,,,,,,,,,,,,,,,,,,,,,,,,,,,,1.2022,387.7915172,None,None,1,387.7915172,None,,P002,fencog,1,Post,2021_Jul_06_1155,N-Back (New Version 2021),2021.1.4,120.356351
,,,,Conditions/Version_1/twoback(1)_v1.xlsx,New rule: Press 'space' when you see 2-back (i.e. the same letter as the one that appeared 2 letters ago.),j,None,,,,,,,,,0,2,2,2,0,2,2,2,,,,,,,,,,,,,,,,,,,,,,,,,,,,,,,,,,,,,,,,,,,,,,,,,,,,,,,,,,,,,,,,,,,,1.227,391.0372581,None,None,1,391.0372581,None,,P002,fencog,1,Post,2021_Jul_06_1155,N-Back (New Version 2021),2021.1.4,120.356351
,,,,Conditions/Version_1/twoback(1)_v1.xlsx,New rule: Press 'space' when you see 2-back (i.e. the same letter as the one that appeared 2 letters ago.),H,space,,,,,,,,,0,2,2,2,0,3,3,3,,,,,,,,,,,,,,,,,,,,,,,,,,,,,,,,,,,,,,,,,,,,,,,,,,,,,,,,,,,,,,,,,,,,1.5804,394.6309828,None,space,1,394.6309828,None,1.345037,P002,fencog,1,Post,2021_Jul_06_1155,N-Back (New Version 2021),2021.1.4,120.356351
,,,,Conditions/Version_1/twoback(1)_v1.xlsx,New rule: Press 'space' when you see 2-back (i.e. the same letter as the one that appeared 2 letters ago.),p,None,,,,,,,,,0,2,2,2,0,4,4,4,,,,,,,,,,,,,,,,,,,,,,,,,,,,,,,,,,,,,,,,,,,,,,,,,,,,,,,,,,,,,,,,,,,,1.7416,398.3689095,None,None,1,398.3689095,None,,P002,fencog,1,Post,2021_Jul_06_1155,N-Back (New Version 2021),2021.1.4,120.356351
,,,,Conditions/Version_1/twoback(1)_v1.xlsx,New rule: Press 'space' when you see 2-back (i.e. the same letter as the one that appeared 2 letters ago.),p,None,,,,,,,,,0,2,2,2,0,5,5,5,,,,,,,,,,,,,,,,,,,,,,,,,,,,,,,,,,,,,,,,,,,,,,,,,,,,,,,,,,,,,,,,,,,,1.2332,401.6095894,None,None,1,401.6095894,None,,P002,fencog,1,Post,2021_Jul_06_1155,N-Back (New Version 2021),2021.1.4,120.356351
,,,,Conditions/Version_1/twoback(1)_v1.xlsx,New rule: Press 'space' when you see 2-back (i.e. the same letter as the one that appeared 2 letters ago.),w,None,,,,,,,,,0,2,2,2,0,6,6,6,,,,,,,,,,,,,,,,,,,,,,,,,,,,,,,,,,,,,,,,,,,,,,,,,,,,,,,,,,,,,,,,,,,,1.01,404.6254796,None,None,1,404.6254796,None,,P002,fencog,1,Post,2021_Jul_06_1155,N-Back (New Version 2021),2021.1.4,120.356351
,,,,Conditions/Version_1/twoback(1)_v1.xlsx,New rule: Press 'space' when you see 2-back (i.e. the same letter as the one that appeared 2 letters ago.),R,None,,,,,,,,,0,2,2,2,0,7,7,7,,,,,,,,,,,,,,,,,,,,,,,,,,,,,,,,,,,,,,,,,,,,,,,,,,,,,,,,,,,,,,,,,,,,1.2952,407.9254251,None,None,1,407.9254251,None,,P002,fencog,1,Post,2021_Jul_06_1155,N-Back (New Version 2021),2021.1.4,120.356351
,,,,Conditions/Version_1/twoback(1)_v1.xlsx,New rule: Press 'space' when you see 2-back (i.e. the same letter as the one that appeared 2 letters ago.),a,None,,,,,,,,,0,2,2,2,0,8,8,8,,,,,,,,,,,,,,,,,,,,,,,,,,,,,,,,,,,,,,,,,,,,,,,,,,,,,,,,,,,,,,,,,,,,1.6424,411.581574,None,None,1,411.581574,None,,P002,fencog,1,Post,2021_Jul_06_1155,N-Back (New Version 2021),2021.1.4,120.356351
,,,,Conditions/Version_1/twoback(1)_v1.xlsx,New rule: Press 'space' when you see 2-back (i.e. the same letter as the one that appeared 2 letters ago.),r,space,,,,,,,,,0,2,2,2,0,9,9,9,,,,,,,,,,,,,,,,,,,,,,,,,,,,,,,,,,,,,,,,,,,,,,,,,,,,,,,,,,,,,,,,,,,,1.1898,414.7764416,None,space,1,414.7764416,None,1.6472155,P002,fencog,1,Post,2021_Jul_06_1155,N-Back (New Version 2021),2021.1.4,120.356351
,,,,Conditions/Version_1/twoback(1)_v1.xlsx,New rule: Press 'space' when you see 2-back (i.e. the same letter as the one that appeared 2 letters ago.),,,,,,,,,,,0,2,2,2,,,,,,,,,,,,,,,,,,,,,,,,,,,,,,,,,,,,,,,,,,,,,,,,,,,,,,,,,,,,,,,,,,,,,,,,,,,,,,,,P002,fencog,1,Post,2021_Jul_06_1155,N-Back (New Version 2021),2021.1.4,120.356351
,,,,Conditions/Version_1/threeback(1)_v1.xlsx,New rule: Press 'space' when you see 3-back (i.e. the same letter as the one that appeared 3 letters ago.),r,None,,,,,,,,,0,3,3,3,0,0,0,0,,,,,,,,,,,,,,,,,,,,,,,,,,,,,,,,,,,,,,,,,,,,,,,,,,,,,,,,,,416.8065964,None,419.7931572,None,space,0.3826187,419.7931572,None,416.8065964,None,1.6238,421.8288545,None,None,1,421.8288545,None,,P002,fencog,1,Post,2021_Jul_06_1155,N-Back (New Version 2021),2021.1.4,120.356351
,,,,Conditions/Version_1/threeback(1)_v1.xlsx,New rule: Press 'space' when you see 3-back (i.e. the same letter as the one that appeared 3 letters ago.),o,None,,,,,,,,,0,3,3,3,0,1,1,1,,,,,,,,,,,,,,,,,,,,,,,,,,,,,,,,,,,,,,,,,,,,,,,,,,,,,,,,,,,,,,,,,,,,1.4812,425.3119837,None,None,1,425.3119837,None,,P002,fencog,1,Post,2021_Jul_06_1155,N-Back (New Version 2021),2021.1.4,120.356351
,,,,Conditions/Version_1/threeback(1)_v1.xlsx,New rule: Press 'space' when you see 3-back (i.e. the same letter as the one that appeared 3 letters ago.),P,None,,,,,,,,,0,3,3,3,0,2,2,2,,,,,,,,,,,,,,,,,,,,,,,,,,,,,,,,,,,,,,,,,,,,,,,,,,,,,,,,,,,,,,,,,,,,1.3014,428.6196616,None,None,1,428.6196616,None,,P002,fencog,1,Post,2021_Jul_06_1155,N-Back (New Version 2021),2021.1.4,120.356351
,,,,Conditions/Version_1/threeback(1)_v1.xlsx,New rule: Press 'space' when you see 3-back (i.e. the same letter as the one that appeared 3 letters ago.),R,space,,,,,,,,,0,3,3,3,0,3,3,3,,,,,,,,,,,,,,,,,,,,,,,,,,,,,,,,,,,,,,,,,,,,,,,,,,,,,,,,,,,,,,,,,,,,1.1464,431.7756946,None,space,1,431.7756946,None,1.6009492,P002,fencog,1,Post,2021_Jul_06_1155,N-Back (New Version 2021),2021.1.4,120.356351
,,,,Conditions/Version_1/threeback(1)_v1.xlsx,New rule: Press 'space' when you see 3-back (i.e. the same letter as the one that appeared 3 letters ago.),p,None,,,,,,,,,0,3,3,3,0,4,4,4,,,,,,,,,,,,,,,,,,,,,,,,,,,,,,,,,,,,,,,,,,,,,,,,,,,,,,,,,,,,,,,,,,,,1.1278,434.909269,None,None,1,434.909269,None,,P002,fencog,1,Post,2021_Jul_06_1155,N-Back (New Version 2021),2021.1.4,120.356351
,,,,Conditions/Version_1/threeback(1)_v1.xlsx,New rule: Press 'space' when you see 3-back (i.e. the same letter as the one that appeared 3 letters ago.),E,None,,,,,,,,,0,3,3,3,0,5,5,5,,,,,,,,,,,,,,,,,,,,,,,,,,,,,,,,,,,,,,,,,,,,,,,,,,,,,,,,,,,,,,,,,,,,1.7044,438.6258243,None,None,1,438.6258243,None,,P002,fencog,1,Post,2021_Jul_06_1155,N-Back (New Version 2021),2021.1.4,120.356351
,,,,Conditions/Version_1/threeback(1)_v1.xlsx,New rule: Press 'space' when you see 3-back (i.e. the same letter as the one that appeared 3 letters ago.),e,None,,,,,,,,,0,3,3,3,0,6,6,6,,,,,,,,,,,,,,,,,,,,,,,,,,,,,,,,,,,,,,,,,,,,,,,,,,,,,,,,,,,,,,,,,,,,1.32,441.9572285,None,None,1,441.9572285,None,,P002,fencog,1,Post,2021_Jul_06_1155,N-Back (New Version 2021),2021.1.4,120.356351
,,,,Conditions/Version_1/threeback(1)_v1.xlsx,New rule: Press 'space' when you see 3-back (i.e. the same letter as the one that appeared 3 letters ago.),m,None,,,,,,,,,0,3,3,3,0,7,7,7,,,,,,,,,,,,,,,,,,,,,,,,,,,,,,,,,,,,,,,,,,,,,,,,,,,,,,,,,,,,,,,,,,,,1.847,445.8151025,None,None,1,445.8151025,None,,P002,fencog,1,Post,2021_Jul_06_1155,N-Back (New Version 2021),2021.1.4,120.356351
,,,,Conditions/Version_1/threeback(1)_v1.xlsx,New rule: Press 'space' when you see 3-back (i.e. the same letter as the one that appeared 3 letters ago.),n,None,,,,,,,,,0,3,3,3,0,8,8,8,,,,,,,,,,,,,,,,,,,,,,,,,,,,,,,,,,,,,,,,,,,,,,,,,,,,,,,,,,,,,,,,,,,,1.227,449.0552816,None,None,1,449.0552816,None,,P002,fencog,1,Post,2021_Jul_06_1155,N-Back (New Version 2021),2021.1.4,120.356351
,,,,Conditions/Version_1/threeback(1)_v1.xlsx,New rule: Press 'space' when you see 3-back (i.e. the same letter as the one that appeared 3 letters ago.),e,space,,,,,,,,,0,3,3,3,0,9,9,9,,,,,,,,,,,,,,,,,,,,,,,,,,,,,,,,,,,,,,,,,,,,,,,,,,,,,,,,,,,,,,,,,,,,1.1216,452.1889324,None,space,1,452.1889324,None,1.4824784,P002,fencog,1,Post,2021_Jul_06_1155,N-Back (New Version 2021),2021.1.4,120.356351
,,,,Conditions/Version_1/threeback(1)_v1.xlsx,New rule: Press 'space' when you see 3-back (i.e. the same letter as the one that appeared 3 letters ago.),,,,,,,,,,,0,3,3,3,,,,,,,,,,,,,,,,,,,,,,,,,,,,,,,,,,,,,,,,,,,,,,,,,,,,,,,,,,,,,,,,,,,,,,,,,,,,,,,,P002,fencog,1,Post,2021_Jul_06_1155,N-Back (New Version 2021),2021.1.4,120.356351
,,,,Conditions/Version_1/oneback(2)_v1.xlsx,New rule: Press 'space' when you see 1-back (i.e. the same letter as the one that appeared 1 letter ago.),q,None,,,,,,,,,0,4,4,4,0,0,0,0,,,,,,,,,,,,,,,,,,,,,,,,,,,,,,,,,,,,,,,,,,,,,,,,,,,,,,,,,,454.2182651,None,457.2031733,None,space,0.4687258,457.2031733,None,454.2182651,None,1.7788,459.4694869,None,None,1,459.4694869,None,,P002,fencog,1,Post,2021_Jul_06_1155,N-Back (New Version 2021),2021.1.4,120.356351
,,,,Conditions/Version_1/oneback(2)_v1.xlsx,New rule: Press 'space' when you see 1-back (i.e. the same letter as the one that appeared 1 letter ago.),Q,space,,,,,,,,,0,4,4,4,0,1,1,1,,,,,,,,,,,,,,,,,,,,,,,,,,,,,,,,,,,,,,,,,,,,,,,,,,,,,,,,,,,,,,,,,,,,1.4068,462.8913969,None,space,1,462.8913969,None,1.3963024,P002,fencog,1,Post,2021_Jul_06_1155,N-Back (New Version 2021),2021.1.4,120.356351
,,,,Conditions/Version_1/oneback(2)_v1.xlsx,New rule: Press 'space' when you see 1-back (i.e. the same letter as the one that appeared 1 letter ago.),P,None,,,,,,,,,0,4,4,4,0,2,2,2,,,,,,,,,,,,,,,,,,,,,,,,,,,,,,,,,,,,,,,,,,,,,,,,,,,,,,,,,,,,,,,,,,,,1.444,466.340431,None,None,1,466.340431,None,,P002,fencog,1,Post,2021_Jul_06_1155,N-Back (New Version 2021),2021.1.4,120.356351
,,,,Conditions/Version_1/oneback(2)_v1.xlsx,New rule: Press 'space' when you see 1-back (i.e. the same letter as the one that appeared 1 letter ago.),o,None,,,,,,,,,0,4,4,4,0,3,3,3,,,,,,,,,,,,,,,,,,,,,,,,,,,,,,,,,,,,,,,,,,,,,,,,,,,,,,,,,,,,,,,,,,,,1.9152,470.264402,None,None,1,470.264402,None,,P002,fencog,1,Post,2021_Jul_06_1155,N-Back (New Version 2021),2021.1.4,120.356351
,,,,Conditions/Version_1/oneback(2)_v1.xlsx,New rule: Press 'space' when you see 1-back (i.e. the same letter as the one that appeared 1 letter ago.),m,None,,,,,,,,,0,4,4,4,0,4,4,4,,,,,,,,,,,,,,,,,,,,,,,,,,,,,,,,,,,,,,,,,,,,,,,,,,,,,,,,,,,,,,,,,,,,1.289,473.5549592,None,None,1,473.5549592,None,,P002,fencog,1,Post,2021_Jul_06_1155,N-Back (New Version 2021),2021.1.4,120.356351
,,,,Conditions/Version_1/oneback(2)_v1.xlsx,New rule: Press 'space' when you see 1-back (i.e. the same letter as the one that appeared 1 letter ago.),Z,None,,,,,,,,,0,4,4,4,0,5,5,5,,,,,,,,,,,,,,,,,,,,,,,,,,,,,,,,,,,,,,,,,,,,,,,,,,,,,,,,,,,,,,,,,,,,1.5928,477.1586204,None,None,1,477.1586204,None,,P002,fencog,1,Post,2021_Jul_06_1155,N-Back (New Version 2021),2021.1.4,120.356351
,,,,Conditions/Version_1/oneback(2)_v1.xlsx,New rule: Press 'space' when you see 1-back (i.e. the same letter as the one that appeared 1 letter ago.),c,None,,,,,,,,,0,4,4,4,0,6,6,6,,,,,,,,,,,,,,,,,,,,,,,,,,,,,,,,,,,,,,,,,,,,,,,,,,,,,,,,,,,,,,,,,,,,1.3138,480.4799643,None,None,1,480.4799643,None,,P002,fencog,1,Post,2021_Jul_06_1155,N-Back (New Version 2021),2021.1.4,120.356351
,,,,Conditions/Version_1/oneback(2)_v1.xlsx,New rule: Press 'space' when you see 1-back (i.e. the same letter as the one that appeared 1 letter ago.),c,space,,,,,,,,,0,4,4,4,0,7,7,7,,,,,,,,,,,,,,,,,,,,,,,,,,,,,,,,,,,,,,,,,,,,,,,,,,,,,,,,,,,,,,,,,,,,1.6672,484.1517939,None,space,1,484.1517939,None,1.7519196,P002,fencog,1,Post,2021_Jul_06_1155,N-Back (New Version 2021),2021.1.4,120.356351
,,,,Conditions/Version_1/oneback(2)_v1.xlsx,New rule: Press 'space' when you see 1-back (i.e. the same letter as the one that appeared 1 letter ago.),P,None,,,,,,,,,0,4,4,4,0,8,8,8,,,,,,,,,,,,,,,,,,,,,,,,,,,,,,,,,,,,,,,,,,,,,,,,,,,,,,,,,,,,,,,,,,,,1.0844,487.2425625,None,None,1,487.2425625,None,,P002,fencog,1,Post,2021_Jul_06_1155,N-Back (New Version 2021),2021.1.4,120.356351
,,,,Conditions/Version_1/oneback(2)_v1.xlsx,New rule: Press 'space' when you see 1-back (i.e. the same letter as the one that appeared 1 letter ago.),p,space,,,,,,,,,0,4,4,4,0,9,9,9,,,,,,,,,,,,,,,,,,,,,,,,,,,,,,,,,,,,,,,,,,,,,,,,,,,,,,,,,,,,,,,,,,,,1.568,490.8164834,None,space,1,490.8164834,None,1.7588842,P002,fencog,1,Post,2021_Jul_06_1155,N-Back (New Version 2021),2021.1.4,120.356351
,,,,Conditions/Version_1/oneback(2)_v1.xlsx,New rule: Press 'space' when you see 1-back (i.e. the same letter as the one that appeared 1 letter ago.),,,,,,,,,,,0,4,4,4,,,,,,,,,,,,,,,,,,,,,,,,,,,,,,,,,,,,,,,,,,,,,,,,,,,,,,,,,,,,,,,,,,,,,,,,,,,,,,,,P002,fencog,1,Post,2021_Jul_06_1155,N-Back (New Version 2021),2021.1.4,120.356351
,,,,Conditions/Version_1/zeroback(2)_v1.xlsx,New rule: Press 'space' when you see the letter 'x' or 'X'.,p,None,,,,,,,,,0,5,5,5,0,0,0,0,,,,,,,,,,,,,,,,,,,,,,,,,,,,,,,,,,,,,,,,,,,,,,,,,,,,,,,,,,492.8501295,None,495.8331402,None,space,0.3425283,495.8331402,None,492.8501295,None,1.3944,497.5896909,None,None,1,497.5896909,None,,P002,fencog,1,Post,2021_Jul_06_1155,N-Back (New Version 2021),2021.1.4,120.356351
,,,,Conditions/Version_1/zeroback(2)_v1.xlsx,New rule: Press 'space' when you see the letter 'x' or 'X'.,L,None,,,,,,,,,0,5,5,5,0,1,1,1,,,,,,,,,,,,,,,,,,,,,,,,,,,,,,,,,,,,,,,,,,,,,,,,,,,,,,,,,,,,,,,,,,,,1.0906,500.680292,None,None,1,500.680292,None,,P002,fencog,1,Post,2021_Jul_06_1155,N-Back (New Version 2021),2021.1.4,120.356351
,,,,Conditions/Version_1/zeroback(2)_v1.xlsx,New rule: Press 'space' when you see the letter 'x' or 'X'.,G,None,,,,,,,,,0,5,5,5,0,2,2,2,,,,,,,,,,,,,,,,,,,,,,,,,,,,,,,,,,,,,,,,,,,,,,,,,,,,,,,,,,,,,,,,,,,,1.4502,504.1302421,None,None,1,504.1302421,None,,P002,fencog,1,Post,2021_Jul_06_1155,N-Back (New Version 2021),2021.1.4,120.356351
,,,,Conditions/Version_1/zeroback(2)_v1.xlsx,New rule: Press 'space' when you see the letter 'x' or 'X'.,y,None,,,,,,,,,0,5,5,5,0,3,3,3,,,,,,,,,,,,,,,,,,,,,,,,,,,,,,,,,,,,,,,,,,,,,,,,,,,,,,,,,,,,,,,,,,,,1.5494,507.6885747,None,None,1,507.6885747,None,,P002,fencog,1,Post,2021_Jul_06_1155,N-Back (New Version 2021),2021.1.4,120.356351
,,,,Conditions/Version_1/zeroback(2)_v1.xlsx,New rule: Press 'space' when you see the letter 'x' or 'X'.,Y,None,,,,,,,,,0,5,5,5,0,4,4,4,,,,,,,,,,,,,,,,,,,,,,,,,,,,,,,,,,,,,,,,,,,,,,,,,,,,,,,,,,,,,,,,,,,,1.8532,511.552846,None,None,1,511.552846,None,,P002,fencog,1,Post,2021_Jul_06_1155,N-Back (New Version 2021),2021.1.4,120.356351
,,,,Conditions/Version_1/zeroback(2)_v1.xlsx,New rule: Press 'space' when you see the letter 'x' or 'X'.,W,None,,,,,,,,,0,5,5,5,0,5,5,5,,,,,,,,,,,,,,,,,,,,,,,,,,,,,,,,,,,,,,,,,,,,,,,,,,,,,,,,,,,,,,,,,,,,1.2084,514.7752546,None,None,1,514.7752546,None,,P002,fencog,1,Post,2021_Jul_06_1155,N-Back (New Version 2021),2021.1.4,120.356351
,,,,Conditions/Version_1/zeroback(2)_v1.xlsx,New rule: Press 'space' when you see the letter 'x' or 'X'.,x,space,,,,,,,,,0,5,5,5,0,6,6,6,,,,,,,,,,,,,,,,,,,,,,,,,,,,,,,,,,,,,,,,,,,,,,,,,,,,,,,,,,,,,,,,,,,,1.94,518.7187372,None,space,1,518.7187372,None,1.0246764,P002,fencog,1,Post,2021_Jul_06_1155,N-Back (New Version 2021),2021.1.4,120.356351
,,,,Conditions/Version_1/zeroback(2)_v1.xlsx,New rule: Press 'space' when you see the letter 'x' or 'X'.,X,space,,,,,,,,,0,5,5,5,0,7,7,7,,,,,,,,,,,,,,,,,,,,,,,,,,,,,,,,,,,,,,,,,,,,,,,,,,,,,,,,,,,,,,,,,,,,1.7354,522.4688455,None,space,1,522.4688455,None,1.9304535,P002,fencog,1,Post,2021_Jul_06_1155,N-Back (New Version 2021),2021.1.4,120.356351
,,,,Conditions/Version_1/zeroback(2)_v1.xlsx,New rule: Press 'space' when you see the letter 'x' or 'X'.,p,None,,,,,,,,,0,5,5,5,0,8,8,8,,,,,,,,,,,,,,,,,,,,,,,,,,,,,,,,,,,,,,,,,,,,,,,,,,,,,,,,,,,,,,,,,,,,1.2332,525.7068081,None,None,1,525.7068081,None,,P002,fencog,1,Post,2021_Jul_06_1155,N-Back (New Version 2021),2021.1.4,120.356351
,,,,Conditions/Version_1/zeroback(2)_v1.xlsx,New rule: Press 'space' when you see the letter 'x' or 'X'.,h,None,,,,,,,,,0,5,5,5,0,9,9,9,,,,,,,,,,,,,,,,,,,,,,,,,,,,,,,,,,,,,,,,,,,,,,,,,,,,,,,,,,,,,,,,,,,,1.5308,529.2482609,None,None,1,529.2482609,None,,P002,fencog,1,Post,2021_Jul_06_1155,N-Back (New Version 2021),2021.1.4,120.356351
,,,,Conditions/Version_1/zeroback(2)_v1.xlsx,New rule: Press 'space' when you see the letter 'x' or 'X'.,,,,,,,,,,,0,5,5,5,,,,,,,,,,,,,,,,,,,,,,,,,,,,,,,,,,,,,,,,,,,,,,,,,,,,,,,,,,,,,,,,,,,,,,,,,,,,,,,,P002,fencog,1,Post,2021_Jul_06_1155,N-Back (New Version 2021),2021.1.4,120.356351
,,,,Conditions/Version_1/threeback(2)_v1.xlsx,New rule: Press 'space' when you see 3-back (i.e. the same letter as the one that appeared 3 letters ago.),q,None,,,,,,,,,0,6,6,6,0,0,0,0,,,,,,,,,,,,,,,,,,,,,,,,,,,,,,,,,,,,,,,,,,,,,,,,,,,,,,,,,,531.2765429,None,534.2640094,None,space,10.7035051,534.2640094,None,531.2765429,None,1.0286,546.0355198,None,None,1,546.0355198,None,,P002,fencog,1,Post,2021_Jul_06_1155,N-Back (New Version 2021),2021.1.4,120.356351
,,,,Conditions/Version_1/threeback(2)_v1.xlsx,New rule: Press 'space' when you see 3-back (i.e. the same letter as the one that appeared 3 letters ago.),Y,None,,,,,,,,,0,6,6,6,0,1,1,1,,,,,,,,,,,,,,,,,,,,,,,,,,,,,,,,,,,,,,,,,,,,,,,,,,,,,,,,,,,,,,,,,,,,1.2456,549.2922715,None,None,1,549.2922715,None,,P002,fencog,1,Post,2021_Jul_06_1155,N-Back (New Version 2021),2021.1.4,120.356351
,,,,Conditions/Version_1/threeback(2)_v1.xlsx,New rule: Press 'space' when you see 3-back (i.e. the same letter as the one that appeared 3 letters ago.),p,None,,,,,,,,,0,6,6,6,0,2,2,2,,,,,,,,,,,,,,,,,,,,,,,,,,,,,,,,,,,,,,,,,,,,,,,,,,,,,,,,,,,,,,,,,,,,1.9028,553.2065543,None,None,1,553.2065543,None,,P002,fencog,1,Post,2021_Jul_06_1155,N-Back (New Version 2021),2021.1.4,120.356351
,,,,Conditions/Version_1/threeback(2)_v1.xlsx,New rule: Press 'space' when you see 3-back (i.e. the same letter as the one that appeared 3 letters ago.),p,None,,,,,,,,,0,6,6,6,0,3,3,3,,,,,,,,,,,,,,,,,,,,,,,,,,,,,,,,,,,,,,,,,,,,,,,,,,,,,,,,,,,,,,,,,,,,1.6734,556.8804668,None,None,1,556.8804668,None,,P002,fencog,1,Post,2021_Jul_06_1155,N-Back (New Version 2021),2021.1.4,120.356351
,,,,Conditions/Version_1/threeback(2)_v1.xlsx,New rule: Press 'space' when you see 3-back (i.e. the same letter as the one that appeared 3 letters ago.),y,space,,,,,,,,,0,6,6,6,0,4,4,4,,,,,,,,,,,,,,,,,,,,,,,,,,,,,,,,,,,,,,,,,,,,,,,,,,,,,,,,,,,,,,,,,,,,1.4254,560.3067106,None,space,1,560.3067106,None,1.7890376,P002,fencog,1,Post,2021_Jul_06_1155,N-Back (New Version 2021),2021.1.4,120.356351
,,,,Conditions/Version_1/threeback(2)_v1.xlsx,New rule: Press 'space' when you see 3-back (i.e. the same letter as the one that appeared 3 letters ago.),u,None,,,,,,,,,0,6,6,6,0,5,5,5,,,,,,,,,,,,,,,,,,,,,,,,,,,,,,,,,,,,,,,,,,,,,,,,,,,,,,,,,,,,,,,,,,,,1.0782,563.3978743,None,None,1,563.3978743,None,,P002,fencog,1,Post,2021_Jul_06_1155,N-Back (New Version 2021),2021.1.4,120.356351
,,,,Conditions/Version_1/threeback(2)_v1.xlsx,New rule: Press 'space' when you see 3-back (i.e. the same letter as the one that appeared 3 letters ago.),P,space,,,,,,,,,0,6,6,6,0,6,6,6,,,,,,,,,,,,,,,,,,,,,,,,,,,,,,,,,,,,,,,,,,,,,,,,,,,,,,,,,,,,,,,,,,,,1.5494,566.953818,None,space,1,566.953818,None,1.7413197,P002,fencog,1,Post,2021_Jul_06_1155,N-Back (New Version 2021),2021.1.4,120.356351
,,,,Conditions/Version_1/threeback(2)_v1.xlsx,New rule: Press 'space' when you see 3-back (i.e. the same letter as the one that appeared 3 letters ago.),a,None,,,,,,,,,0,6,6,6,0,7,7,7,,,,,,,,,,,,,,,,,,,,,,,,,,,,,,,,,,,,,,,,,,,,,,,,,,,,,,,,,,,,,,,,,,,,1.5742,570.5356851,None,None,1,570.5356851,None,,P002,fencog,1,Post,2021_Jul_06_1155,N-Back (New Version 2021),2021.1.4,120.356351
,,,,Conditions/Version_1/threeback(2)_v1.xlsx,New rule: Press 'space' when you see 3-back (i.e. the same letter as the one that appeared 3 letters ago.),U,space,,,,,,,,,0,6,6,6,0,8,8,8,,,,,,,,,,,,,,,,,,,,,,,,,,,,,,,,,,,,,,,,,,,,,,,,,,,,,,,,,,,,,,,,,,,,1.754,574.3026917,None,space,1,574.3026917,None,1.8888162,P002,fencog,1,Post,2021_Jul_06_1155,N-Back (New Version 2021),2021.1.4,120.356351
,,,,Conditions/Version_1/threeback(2)_v1.xlsx,New rule: Press 'space' when you see 3-back (i.e. the same letter as the one that appeared 3 letters ago.),q,None,,,,,,,,,0,6,6,6,0,9,9,9,,,,,,,,,,,,,,,,,,,,,,,,,,,,,,,,,,,,,,,,,,,,,,,,,,,,,,,,,,,,,,,,,,,,1.878,578.1919127,None,None,1,578.1919127,None,,P002,fencog,1,Post,2021_Jul_06_1155,N-Back (New Version 2021),2021.1.4,120.356351
,,,,Conditions/Version_1/threeback(2)_v1.xlsx,New rule: Press 'space' when you see 3-back (i.e. the same letter as the one that appeared 3 letters ago.),,,,,,,,,,,0,6,6,6,,,,,,,,,,,,,,,,,,,,,,,,,,,,,,,,,,,,,,,,,,,,,,,,,,,,,,,,,,,,,,,,,,,,,,,,,,,,,,,,P002,fencog,1,Post,2021_Jul_06_1155,N-Back (New Version 2021),2021.1.4,120.356351
,,,,Conditions/Version_1/twoback(2)_v1.xlsx,New rule: Press 'space' when you see 2-back (i.e. the same letter as the one that appeared 2 letters ago.),q,None,,,,,,,,,0,7,7,7,0,0,0,0,,,,,,,,,,,,,,,,,,,,,,,,,,,,,,,,,,,,,,,,,,,,,,,,,,,,,,,,,,580.2240983,None,583.2075996,None,space,0.4394352,583.2075996,None,580.2240983,None,1.0162,584.6889101,None,None,1,584.6889101,None,,P002,fencog,1,Post,2021_Jul_06_1155,N-Back (New Version 2021),2021.1.4,120.356351
,,,,Conditions/Version_1/twoback(2)_v1.xlsx,New rule: Press 'space' when you see 2-back (i.e. the same letter as the one that appeared 2 letters ago.),r,None,,,,,,,,,0,7,7,7,0,1,1,1,,,,,,,,,,,,,,,,,,,,,,,,,,,,,,,,,,,,,,,,,,,,,,,,,,,,,,,,,,,,,,,,,,,,1.9896,588.6792847,None,None,1,588.6792847,None,,P002,fencog,1,Post,2021_Jul_06_1155,N-Back (New Version 2021),2021.1.4,120.356351
,,,,Conditions/Version_1/twoback(2)_v1.xlsx,New rule: Press 'space' when you see 2-back (i.e. the same letter as the one that appeared 2 letters ago.),q,space,,,,,,,,,0,7,7,7,0,2,2,2,,,,,,,,,,,,,,,,,,,,,,,,,,,,,,,,,,,,,,,,,,,,,,,,,,,,,,,,,,,,,,,,,,,,1.5122,592.1963521,None,space,1,592.1963521,None,1.483029,P002,fencog,1,Post,2021_Jul_06_1155,N-Back (New Version 2021),2021.1.4,120.356351
,,,,Conditions/Version_1/twoback(2)_v1.xlsx,New rule: Press 'space' when you see 2-back (i.e. the same letter as the one that appeared 2 letters ago.),P,None,,,,,,,,,0,7,7,7,0,3,3,3,,,,,,,,,,,,,,,,,,,,,,,,,,,,,,,,,,,,,,,,,,,,,,,,,,,,,,,,,,,,,,,,,,,,1.5866,595.7981453,None,None,1,595.7981453,None,,P002,fencog,1,Post,2021_Jul_06_1155,N-Back (New Version 2021),2021.1.4,120.356351
,,,,Conditions/Version_1/twoback(2)_v1.xlsx,New rule: Press 'space' when you see 2-back (i.e. the same letter as the one that appeared 2 letters ago.),p,None,,,,,,,,,0,7,7,7,0,4,4,4,,,,,,,,,,,,,,,,,,,,,,,,,,,,,,,,,,,,,,,,,,,,,,,,,,,,,,,,,,,,,,,,,,,,1.1464,598.9535972,None,space,0,598.9535972,None,1.5336389,P002,fencog,1,Post,2021_Jul_06_1155,N-Back (New Version 2021),2021.1.4,120.356351
,,,,Conditions/Version_1/twoback(2)_v1.xlsx,New rule: Press 'space' when you see 2-back (i.e. the same letter as the one that appeared 2 letters ago.),H,None,,,,,,,,,0,7,7,7,0,5,5,5,,,,,,,,,,,,,,,,,,,,,,,,,,,,,,,,,,,,,,,,,,,,,,,,,,,,,,,,,,,,,,,,,,,,1.351,602.3189063,None,None,1,602.3189063,None,,P002,fencog,1,Post,2021_Jul_06_1155,N-Back (New Version 2021),2021.1.4,120.356351
,,,,Conditions/Version_1/twoback(2)_v1.xlsx,New rule: Press 'space' when you see 2-back (i.e. the same letter as the one that appeared 2 letters ago.),g,None,,,,,,,,,0,7,7,7,0,6,6,6,,,,,,,,,,,,,,,,,,,,,,,,,,,,,,,,,,,,,,,,,,,,,,,,,,,,,,,,,,,,,,,,,,,,1.196,605.5253893,None,None,1,605.5253893,None,,P002,fencog,1,Post,2021_Jul_06_1155,N-Back (New Version 2021),2021.1.4,120.356351
,,,,Conditions/Version_1/twoback(2)_v1.xlsx,New rule: Press 'space' when you see 2-back (i.e. the same letter as the one that appeared 2 letters ago.),j,None,,,,,,,,,0,7,7,7,0,7,7,7,,,,,,,,,,,,,,,,,,,,,,,,,,,,,,,,,,,,,,,,,,,,,,,,,,,,,,,,,,,,,,,,,,,,1.1774,608.7160978,None,None,1,608.7160978,None,,P002,fencog,1,Post,2021_Jul_06_1155,N-Back (New Version 2021),2021.1.4,120.356351
,,,,Conditions/Version_1/twoback(2)_v1.xlsx,New rule: Press 'space' when you see 2-back (i.e. the same letter as the one that appeared 2 letters ago.),g,space,,,,,,,,,0,7,7,7,0,8,8,8,,,,,,,,,,,,,,,,,,,,,,,,,,,,,,,,,,,,,,,,,,,,,,,,,,,,,,,,,,,,,,,,,,,,1.1092,611.841519,None,space,1,611.841519,None,1.9417781,P002,fencog,1,Post,2021_Jul_06_1155,N-Back (New Version 2021),2021.1.4,120.356351
,,,,Conditions/Version_1/twoback(2)_v1.xlsx,New rule: Press 'space' when you see 2-back (i.e. the same letter as the one that appeared 2 letters ago.),G,None,,,,,,,,,0,7,7,7,0,9,9,9,,,,,,,,,,,,,,,,,,,,,,,,,,,,,,,,,,,,,,,,,,,,,,,,,,,,,,,,,,,,,,,,,,,,1.1216,614.9716497,None,None,1,614.9716497,None,,P002,fencog,1,Post,2021_Jul_06_1155,N-Back (New Version 2021),2021.1.4,120.356351
,,,,Conditions/Version_1/twoback(2)_v1.xlsx,New rule: Press 'space' when you see 2-back (i.e. the same letter as the one that appeared 2 letters ago.),,,,,,,,,,,0,7,7,7,,,,,,,,,,,,,,,,,,,,,,,,,,,,,,,,,,,,,,,,,,,,,,,,,,,,,,,,,,,,,,,,,,,,,,,,,,,,,,,,P002,fencog,1,Post,2021_Jul_06_1155,N-Back (New Version 2021),2021.1.4,120.356351
,,,,Conditions/Version_1/threeback(3)_v1.xlsx,New rule: Press 'space' when you see 3-back (i.e. the same letter as the one that appeared 3 letters ago.),w,None,,,,,,,,,0,8,8,8,0,0,0,0,,,,,,,,,,,,,,,,,,,,,,,,,,,,,,,,,,,,,,,,,,,,,,,,,,,,,,,,,,616.995318,None,619.9810681,None,space,0.3624548,619.9810681,None,616.995318,None,1.4316,621.7953679,None,None,1,621.7953679,None,,P002,fencog,1,Post,2021_Jul_06_1155,N-Back (New Version 2021),2021.1.4,120.356351
,,,,Conditions/Version_1/threeback(3)_v1.xlsx,New rule: Press 'space' when you see 3-back (i.e. the same letter as the one that appeared 3 letters ago.),p,None,,,,,,,,,0,8,8,8,0,1,1,1,,,,,,,,,,,,,,,,,,,,,,,,,,,,,,,,,,,,,,,,,,,,,,,,,,,,,,,,,,,,,,,,,,,,1.2208,625.0270335,None,None,1,625.0270335,None,,P002,fencog,1,Post,2021_Jul_06_1155,N-Back (New Version 2021),2021.1.4,120.356351
,,,,Conditions/Version_1/threeback(3)_v1.xlsx,New rule: Press 'space' when you see 3-back (i.e. the same letter as the one that appeared 3 letters ago.),P,None,,,,,,,,,0,8,8,8,0,2,2,2,,,,,,,,,,,,,,,,,,,,,,,,,,,,,,,,,,,,,,,,,,,,,,,,,,,,,,,,,,,,,,,,,,,,1.4812,628.5143762,None,None,1,628.5143762,None,,P002,fencog,1,Post,2021_Jul_06_1155,N-Back (New Version 2021),2021.1.4,120.356351
,,,,Conditions/Version_1/threeback(3)_v1.xlsx,New rule: Press 'space' when you see 3-back (i.e. the same letter as the one that appeared 3 letters ago.),i,None,,,,,,,,,0,8,8,8,0,3,3,3,,,,,,,,,,,,,,,,,,,,,,,,,,,,,,,,,,,,,,,,,,,,,,,,,,,,,,,,,,,,,,,,,,,,1.382,631.9014651,None,None,1,631.9014651,None,,P002,fencog,1,Post,2021_Jul_06_1155,N-Back (New Version 2021),2021.1.4,120.356351
,,,,Conditions/Version_1/threeback(3)_v1.xlsx,New rule: Press 'space' when you see 3-back (i.e. the same letter as the one that appeared 3 letters ago.),f,None,,,,,,,,,0,8,8,8,0,4,4,4,,,,,,,,,,,,,,,,,,,,,,,,,,,,,,,,,,,,,,,,,,,,,,,,,,,,,,,,,,,,,,,,,,,,1.5184,635.4340596,None,None,1,635.4340596,None,,P002,fencog,1,Post,2021_Jul_06_1155,N-Back (New Version 2021),2021.1.4,120.356351
,,,,Conditions/Version_1/threeback(3)_v1.xlsx,New rule: Press 'space' when you see 3-back (i.e. the same letter as the one that appeared 3 letters ago.),o,None,,,,,,,,,0,8,8,8,0,5,5,5,,,,,,,,,,,,,,,,,,,,,,,,,,,,,,,,,,,,,,,,,,,,,,,,,,,,,,,,,,,,,,,,,,,,1.2022,638.648294,None,None,1,638.648294,None,,P002,fencog,1,Post,2021_Jul_06_1155,N-Back (New Version 2021),2021.1.4,120.356351
,,,,Conditions/Version_1/threeback(3)_v1.xlsx,New rule: Press 'space' when you see 3-back (i.e. the same letter as the one that appeared 3 letters ago.),w,None,,,,,,,,,0,8,8,8,0,6,6,6,,,,,,,,,,,,,,,,,,,,,,,,,,,,,,,,,,,,,,,,,,,,,,,,,,,,,,,,,,,,,,,,,,,,1.444,642.1064321,None,None,1,642.1064321,None,,P002,fencog,1,Post,2021_Jul_06_1155,N-Back (New Version 2021),2021.1.4,120.356351
,,,,Conditions/Version_1/threeback(3)_v1.xlsx,New rule: Press 'space' when you see 3-back (i.e. the same letter as the one that appeared 3 letters ago.),F,space,,,,,,,,,0,8,8,8,0,7,7,7,,,,,,,,,,,,,,,,,,,,,,,,,,,,,,,,,,,,,,,,,,,,,,,,,,,,,,,,,,,,,,,,,,,,1.4998,645.6140246,None,space,1,645.6140246,None,1.8333067,P002,fencog,1,Post,2021_Jul_06_1155,N-Back (New Version 2021),2021.1.4,120.356351
,,,,Conditions/Version_1/threeback(3)_v1.xlsx,New rule: Press 'space' when you see 3-back (i.e. the same letter as the one that appeared 3 letters ago.),p,None,,,,,,,,,0,8,8,8,0,8,8,8,,,,,,,,,,,,,,,,,,,,,,,,,,,,,,,,,,,,,,,,,,,,,,,,,,,,,,,,,,,,,,,,,,,,1.6362,649.2614233,None,None,1,649.2614233,None,,P002,fencog,1,Post,2021_Jul_06_1155,N-Back (New Version 2021),2021.1.4,120.356351
,,,,Conditions/Version_1/threeback(3)_v1.xlsx,New rule: Press 'space' when you see 3-back (i.e. the same letter as the one that appeared 3 letters ago.),W,space,,,,,,,,,0,8,8,8,0,9,9,9,,,,,,,,,,,,,,,,,,,,,,,,,,,,,,,,,,,,,,,,,,,,,,,,,,,,,,,,,,,,,,,,,,,,1.0224,652.2854668,None,space,1,652.2854668,None,1.8261732,P002,fencog,1,Post,2021_Jul_06_1155,N-Back (New Version 2021),2021.1.4,120.356351
,,,,Conditions/Version_1/threeback(3)_v1.xlsx,New rule: Press 'space' when you see 3-back (i.e. the same letter as the one that appeared 3 letters ago.),,,,,,,,,,,0,8,8,8,,,,,,,,,,,,,,,,,,,,,,,,,,,,,,,,,,,,,,,,,,,,,,,,,,,,,,,,,,,,,,,,,,,,,,,,,,,,,,,,P002,fencog,1,Post,2021_Jul_06_1155,N-Back (New Version 2021),2021.1.4,120.356351
,,,,Conditions/Version_1/zeroback(3)_v1.xlsx,New rule: Press 'space' when you see the letter 'x' or 'X'.,X,space,,,,,,,,,0,9,9,9,0,0,0,0,,,,,,,,,,,,,,,,,,,,,,,,,,,,,,,,,,,,,,,,,,,,,,,,,,,,,,,,,,654.3066355,None,657.2956781,None,space,0.3517752,657.2956781,None,654.3066355,None,1.9896,659.6583918,None,space,1,659.6583918,None,1.7969852,P002,fencog,1,Post,2021_Jul_06_1155,N-Back (New Version 2021),2021.1.4,120.356351
,,,,Conditions/Version_1/zeroback(3)_v1.xlsx,New rule: Press 'space' when you see the letter 'x' or 'X'.,B,None,,,,,,,,,0,9,9,9,0,1,1,1,,,,,,,,,,,,,,,,,,,,,,,,,,,,,,,,,,,,,,,,,,,,,,,,,,,,,,,,,,,,,,,,,,,,1.9648,663.6260515,None,None,1,663.6260515,None,,P002,fencog,1,Post,2021_Jul_06_1155,N-Back (New Version 2021),2021.1.4,120.356351
,,,,Conditions/Version_1/zeroback(3)_v1.xlsx,New rule: Press 'space' when you see the letter 'x' or 'X'.,m,None,,,,,,,,,0,9,9,9,0,2,2,2,,,,,,,,,,,,,,,,,,,,,,,,,,,,,,,,,,,,,,,,,,,,,,,,,,,,,,,,,,,,,,,,,,,,1.1526,666.7949213,None,None,1,666.7949213,None,,P002,fencog,1,Post,2021_Jul_06_1155,N-Back (New Version 2021),2021.1.4,120.356351
,,,,Conditions/Version_1/zeroback(3)_v1.xlsx,New rule: Press 'space' when you see the letter 'x' or 'X'.,m,None,,,,,,,,,0,9,9,9,0,3,3,3,,,,,,,,,,,,,,,,,,,,,,,,,,,,,,,,,,,,,,,,,,,,,,,,,,,,,,,,,,,,,,,,,,,,1.3944,670.1967796,None,None,1,670.1967796,None,,P002,fencog,1,Post,2021_Jul_06_1155,N-Back (New Version 2021),2021.1.4,120.356351
,,,,Conditions/Version_1/zeroback(3)_v1.xlsx,New rule: Press 'space' when you see the letter 'x' or 'X'.,o,None,,,,,,,,,0,9,9,9,0,4,4,4,,,,,,,,,,,,,,,,,,,,,,,,,,,,,,,,,,,,,,,,,,,,,,,,,,,,,,,,,,,,,,,,,,,,1.7354,673.9394832,None,None,1,673.9394832,None,,P002,fencog,1,Post,2021_Jul_06_1155,N-Back (New Version 2021),2021.1.4,120.356351
,,,,Conditions/Version_1/zeroback(3)_v1.xlsx,New rule: Press 'space' when you see the letter 'x' or 'X'.,p,None,,,,,,,,,0,9,9,9,0,5,5,5,,,,,,,,,,,,,,,,,,,,,,,,,,,,,,,,,,,,,,,,,,,,,,,,,,,,,,,,,,,,,,,,,,,,1.5122,677.4612829,None,None,1,677.4612829,None,,P002,fencog,1,Post,2021_Jul_06_1155,N-Back (New Version 2021),2021.1.4,120.356351
,,,,Conditions/Version_1/zeroback(3)_v1.xlsx,New rule: Press 'space' when you see the letter 'x' or 'X'.,G,None,,,,,,,,,0,9,9,9,0,6,6,6,,,,,,,,,,,,,,,,,,,,,,,,,,,,,,,,,,,,,,,,,,,,,,,,,,,,,,,,,,,,,,,,,,,,1.413,680.8782535,None,None,1,680.8782535,None,,P002,fencog,1,Post,2021_Jul_06_1155,N-Back (New Version 2021),2021.1.4,120.356351
,,,,Conditions/Version_1/zeroback(3)_v1.xlsx,New rule: Press 'space' when you see the letter 'x' or 'X'.,X,space,,,,,,,,,0,9,9,9,0,7,7,7,,,,,,,,,,,,,,,,,,,,,,,,,,,,,,,,,,,,,,,,,,,,,,,,,,,,,,,,,,,,,,,,,,,,1.9462,684.8397988,None,space,1,684.8397988,None,1.9513906,P002,fencog,1,Post,2021_Jul_06_1155,N-Back (New Version 2021),2021.1.4,120.356351
,,,,Conditions/Version_1/zeroback(3)_v1.xlsx,New rule: Press 'space' when you see the letter 'x' or 'X'.,p,None,,,,,,,,,0,9,9,9,0,8,8,8,,,,,,,,,,,,,,,,,,,,,,,,,,,,,,,,,,,,,,,,,,,,,,,,,,,,,,,,,,,,,,,,,,,,1.3448,688.1927976,None,None,1,688.1927976,None,,P002,fencog,1,Post,2021_Jul_06_1155,N-Back (New Version 2021),2021.1.4,120.356351
,,,,Conditions/Version_1/zeroback(3)_v1.xlsx,New rule: Press 'space' when you see the letter 'x' or 'X'.,x,space,,,,,,,,,0,9,9,9,0,9,9,9,,,,,,,,,,,,,,,,,,,,,,,,,,,,,,,,,,,,,,,,,,,,,,,,,,,,,,,,,,,,,,,,,,,,1.0224,691.2238378,None,space,1,691.2238378,None,1.0396445,P002,fencog,1,Post,2021_Jul_06_1155,N-Back (New Version 2021),2021.1.4,120.356351
,,,,Conditions/Version_1/zeroback(3)_v1.xlsx,New rule: Press 'space' when you see the letter 'x' or 'X'.,,,,,,,,,,,0,9,9,9,,,,,,,,,,,,,,,,,,,,,,,,,,,,,,,,,,,,,,,,,,,,,,,,,,,,,,,,,,,,,,,,,,,,,,,,,,,,,,,,P002,fencog,1,Post,2021_Jul_06_1155,N-Back (New Version 2021),2021.1.4,120.356351
,,,,Conditions/Version_1/twoback(3)_v1.xlsx,New rule: Press 'space' when you see 2-back (i.e. the same letter as the one that appeared 2 letters ago.),e,None,,,,,,,,,0,10,10,10,0,0,0,0,,,,,,,,,,,,,,,,,,,,,,,,,,,,,,,,,,,,,,,,,,,,,,,,,,,,,,,,,,693.2440012,None,696.2324432,None,space,0.3030479,696.2324432,None,693.2440012,None,1.4502,698.0238964,None,None,1,698.0238964,None,,P002,fencog,1,Post,2021_Jul_06_1155,N-Back (New Version 2021),2021.1.4,120.356351
,,,,Conditions/Version_1/twoback(3)_v1.xlsx,New rule: Press 'space' when you see 2-back (i.e. the same letter as the one that appeared 2 letters ago.),o,None,,,,,,,,,0,10,10,10,0,1,1,1,,,,,,,,,,,,,,,,,,,,,,,,,,,,,,,,,,,,,,,,,,,,,,,,,,,,,,,,,,,,,,,,,,,,1.8408,701.8726024,None,None,1,701.8726024,None,,P002,fencog,1,Post,2021_Jul_06_1155,N-Back (New Version 2021),2021.1.4,120.356351
,,,,Conditions/Version_1/twoback(3)_v1.xlsx,New rule: Press 'space' when you see 2-back (i.e. the same letter as the one that appeared 2 letters ago.),P,None,,,,,,,,,0,10,10,10,0,2,2,2,,,,,,,,,,,,,,,,,,,,,,,,,,,,,,,,,,,,,,,,,,,,,,,,,,,,,,,,,,,,,,,,,,,,1.9834,705.8632781,None,None,1,705.8632781,None,,P002,fencog,1,Post,2021_Jul_06_1155,N-Back (New Version 2021),2021.1.4,120.356351
,,,,Conditions/Version_1/twoback(3)_v1.xlsx,New rule: Press 'space' when you see 2-back (i.e. the same letter as the one that appeared 2 letters ago.),z,None,,,,,,,,,0,10,10,10,0,3,3,3,,,,,,,,,,,,,,,,,,,,,,,,,,,,,,,,,,,,,,,,,,,,,,,,,,,,,,,,,,,,,,,,,,,,1.32,709.1950067,None,None,1,709.1950067,None,,P002,fencog,1,Post,2021_Jul_06_1155,N-Back (New Version 2021),2021.1.4,120.356351
,,,,Conditions/Version_1/twoback(3)_v1.xlsx,New rule: Press 'space' when you see 2-back (i.e. the same letter as the one that appeared 2 letters ago.),X,None,,,,,,,,,0,10,10,10,0,4,4,4,,,,,,,,,,,,,,,,,,,,,,,,,,,,,,,,,,,,,,,,,,,,,,,,,,,,,,,,,,,,,,,,,,,,1.258,712.4593376,None,space,0,712.4593376,None,0.8921981,P002,fencog,1,Post,2021_Jul_06_1155,N-Back (New Version 2021),2021.1.4,120.356351
,,,,Conditions/Version_1/twoback(3)_v1.xlsx,New rule: Press 'space' when you see 2-back (i.e. the same letter as the one that appeared 2 letters ago.),z,space,,,,,,,,,0,10,10,10,0,5,5,5,,,,,,,,,,,,,,,,,,,,,,,,,,,,,,,,,,,,,,,,,,,,,,,,,,,,,,,,,,,,,,,,,,,,1.9276,716.3928246,None,space,1,716.3928246,None,1.8463365,P002,fencog,1,Post,2021_Jul_06_1155,N-Back (New Version 2021),2021.1.4,120.356351
,,,,Conditions/Version_1/twoback(3)_v1.xlsx,New rule: Press 'space' when you see 2-back (i.e. the same letter as the one that appeared 2 letters ago.),x,space,,,,,,,,,0,10,10,10,0,6,6,6,,,,,,,,,,,,,,,,,,,,,,,,,,,,,,,,,,,,,,,,,,,,,,,,,,,,,,,,,,,,,,,,,,,,1.8532,720.258517,None,space,1,720.258517,None,1.8214382,P002,fencog,1,Post,2021_Jul_06_1155,N-Back (New Version 2021),2021.1.4,120.356351
,,,,Conditions/Version_1/twoback(3)_v1.xlsx,New rule: Press 'space' when you see 2-back (i.e. the same letter as the one that appeared 2 letters ago.),c,None,,,,,,,,,0,10,10,10,0,7,7,7,,,,,,,,,,,,,,,,,,,,,,,,,,,,,,,,,,,,,,,,,,,,,,,,,,,,,,,,,,,,,,,,,,,,1.8036,724.0749321,None,None,1,724.0749321,None,,P002,fencog,1,Post,2021_Jul_06_1155,N-Back (New Version 2021),2021.1.4,120.356351
,,,,Conditions/Version_1/twoback(3)_v1.xlsx,New rule: Press 'space' when you see 2-back (i.e. the same letter as the one that appeared 2 letters ago.),i,None,,,,,,,,,0,10,10,10,0,8,8,8,,,,,,,,,,,,,,,,,,,,,,,,,,,,,,,,,,,,,,,,,,,,,,,,,,,,,,,,,,,,,,,,,,,,1.7354,727.8214905,None,space,0,727.8214905,None,0.6657601,P002,fencog,1,Post,2021_Jul_06_1155,N-Back (New Version 2021),2021.1.4,120.356351
,,,,Conditions/Version_1/twoback(3)_v1.xlsx,New rule: Press 'space' when you see 2-back (i.e. the same letter as the one that appeared 2 letters ago.),C,space,,,,,,,,,0,10,10,10,0,9,9,9,,,,,,,,,,,,,,,,,,,,,,,,,,,,,,,,,,,,,,,,,,,,,,,,,,,,,,,,,,,,,,,,,,,,1.5308,731.3556488,None,space,1,731.3556488,None,1.3317675,P002,fencog,1,Post,2021_Jul_06_1155,N-Back (New Version 2021),2021.1.4,120.356351
,,,,Conditions/Version_1/twoback(3)_v1.xlsx,New rule: Press 'space' when you see 2-back (i.e. the same letter as the one that appeared 2 letters ago.),,,,,,,,,,,0,10,10,10,,,,,,,,,,,,,,,,,,,,,,,,,,,,,,,,,,,,,,,,,,,,,,,,,,,,,,,,,,,,,,,,,,,,,,,,,,,,,,,,P002,fencog,1,Post,2021_Jul_06_1155,N-Back (New Version 2021),2021.1.4,120.356351
,,,,Conditions/Version_1/oneback(3)_v1.xlsx,New rule: Press 'space' when you see 1-back (i.e. the same letter as the one that appeared 1 letter ago.),o,None,,,,,,,,,0,11,11,11,0,0,0,0,,,,,,,,,,,,,,,,,,,,,,,,,,,,,,,,,,,,,,,,,,,,,,,,,,,,,,,,,,733.3860627,None,736.3714952,None,space,0.3637005,736.3714952,None,733.3860627,None,1.5308,738.2877365,None,None,1,738.2877365,None,,P002,fencog,1,Post,2021_Jul_06_1155,N-Back (New Version 2021),2021.1.4,120.356351
,,,,Conditions/Version_1/oneback(3)_v1.xlsx,New rule: Press 'space' when you see 1-back (i.e. the same letter as the one that appeared 1 letter ago.),O,space,,,,,,,,,0,11,11,11,0,1,1,1,,,,,,,,,,,,,,,,,,,,,,,,,,,,,,,,,,,,,,,,,,,,,,,,,,,,,,,,,,,,,,,,,,,,1.6982,742.0341651,None,space,1,742.0341651,None,1.7647392,P002,fencog,1,Post,2021_Jul_06_1155,N-Back (New Version 2021),2021.1.4,120.356351
,,,,Conditions/Version_1/oneback(3)_v1.xlsx,New rule: Press 'space' when you see 1-back (i.e. the same letter as the one that appeared 1 letter ago.),h,None,,,,,,,,,0,11,11,11,0,2,2,2,,,,,,,,,,,,,,,,,,,,,,,,,,,,,,,,,,,,,,,,,,,,,,,,,,,,,,,,,,,,,,,,,,,,1.4626,745.4664898,None,None,1,745.4664898,None,,P002,fencog,1,Post,2021_Jul_06_1155,N-Back (New Version 2021),2021.1.4,120.356351
,,,,Conditions/Version_1/oneback(3)_v1.xlsx,New rule: Press 'space' when you see 1-back (i.e. the same letter as the one that appeared 1 letter ago.),g,None,,,,,,,,,0,11,11,11,0,3,3,3,,,,,,,,,,,,,,,,,,,,,,,,,,,,,,,,,,,,,,,,,,,,,,,,,,,,,,,,,,,,,,,,,,,,1.1526,748.6249602,None,None,1,748.6249602,None,,P002,fencog,1,Post,2021_Jul_06_1155,N-Back (New Version 2021),2021.1.4,120.356351
,,,,Conditions/Version_1/oneback(3)_v1.xlsx,New rule: Press 'space' when you see 1-back (i.e. the same letter as the one that appeared 1 letter ago.),n,None,,,,,,,,,0,11,11,11,0,4,4,4,,,,,,,,,,,,,,,,,,,,,,,,,,,,,,,,,,,,,,,,,,,,,,,,,,,,,,,,,,,,,,,,,,,,1.196,751.8329024,None,None,1,751.8329024,None,,P002,fencog,1,Post,2021_Jul_06_1155,N-Back (New Version 2021),2021.1.4,120.356351
,,,,Conditions/Version_1/oneback(3)_v1.xlsx,New rule: Press 'space' when you see 1-back (i.e. the same letter as the one that appeared 1 letter ago.),z,None,,,,,,,,,0,11,11,11,0,5,5,5,,,,,,,,,,,,,,,,,,,,,,,,,,,,,,,,,,,,,,,,,,,,,,,,,,,,,,,,,,,,,,,,,,,,1.7044,755.5465161,None,None,1,755.5465161,None,,P002,fencog,1,Post,2021_Jul_06_1155,N-Back (New Version 2021),2021.1.4,120.356351
,,,,Conditions/Version_1/oneback(3)_v1.xlsx,New rule: Press 'space' when you see 1-back (i.e. the same letter as the one that appeared 1 letter ago.),X,None,,,,,,,,,0,11,11,11,0,6,6,6,,,,,,,,,,,,,,,,,,,,,,,,,,,,,,,,,,,,,,,,,,,,,,,,,,,,,,,,,,,,,,,,,,,,1.847,759.3970917,None,None,1,759.3970917,None,,P002,fencog,1,Post,2021_Jul_06_1155,N-Back (New Version 2021),2021.1.4,120.356351
,,,,Conditions/Version_1/oneback(3)_v1.xlsx,New rule: Press 'space' when you see 1-back (i.e. the same letter as the one that appeared 1 letter ago.),r,None,,,,,,,,,0,11,11,11,0,7,7,7,,,,,,,,,,,,,,,,,,,,,,,,,,,,,,,,,,,,,,,,,,,,,,,,,,,,,,,,,,,,,,,,,,,,1.4936,762.8955558,None,None,1,762.8955558,None,,P002,fencog,1,Post,2021_Jul_06_1155,N-Back (New Version 2021),2021.1.4,120.356351
,,,,Conditions/Version_1/oneback(3)_v1.xlsx,New rule: Press 'space' when you see 1-back (i.e. the same letter as the one that appeared 1 letter ago.),r,space,,,,,,,,,0,11,11,11,0,8,8,8,,,,,,,,,,,,,,,,,,,,,,,,,,,,,,,,,,,,,,,,,,,,,,,,,,,,,,,,,,,,,,,,,,,,1.4254,766.3268174,None,space,1,766.3268174,None,1.6965571,P002,fencog,1,Post,2021_Jul_06_1155,N-Back (New Version 2021),2021.1.4,120.356351
,,,,Conditions/Version_1/oneback(3)_v1.xlsx,New rule: Press 'space' when you see 1-back (i.e. the same letter as the one that appeared 1 letter ago.),P,None,,,,,,,,,0,11,11,11,0,9,9,9,,,,,,,,,,,,,,,,,,,,,,,,,,,,,,,,,,,,,,,,,,,,,,,,,,,,,,,,,,,,,,,,,,,,1.6176,769.9522703,None,None,1,769.9522703,None,,P002,fencog,1,Post,2021_Jul_06_1155,N-Back (New Version 2021),2021.1.4,120.356351
,,,,Conditions/Version_1/oneback(3)_v1.xlsx,New rule: Press 'space' when you see 1-back (i.e. the same letter as the one that appeared 1 letter ago.),,,,,,,,,,,0,11,11,11,,,,,,,,,,,,,,,,,,,,,,,,,,,,,,,,,,,,,,,,,,,,,,,,,,,,,,,,,,,,,,,,,,,,,,,,,,,,,,,,P002,fencog,1,Post,2021_Jul_06_1155,N-Back (New Version 2021),2021.1.4,120.356351
,,,,Conditions/Version_1/twoback(4)_v1.xlsx,New rule: Press 'space' when you see 2-back (i.e. the same letter as the one that appeared 2 letters ago.),r,None,,,,,,,,,0,12,12,12,0,0,0,0,,,,,,,,,,,,,,,,,,,,,,,,,,,,,,,,,,,,,,,,,,,,,,,,,,,,,,,,,,771.9783042,None,774.959973,None,space,1.2788993,774.959973,None,771.9783042,None,1.7354,777.9989014,None,None,1,777.9989014,None,,P002,fencog,1,Post,2021_Jul_06_1155,N-Back (New Version 2021),2021.1.4,120.356351
,,,,Conditions/Version_1/twoback(4)_v1.xlsx,New rule: Press 'space' when you see 2-back (i.e. the same letter as the one that appeared 2 letters ago.),T,None,,,,,,,,,0,12,12,12,0,1,1,1,,,,,,,,,,,,,,,,,,,,,,,,,,,,,,,,,,,,,,,,,,,,,,,,,,,,,,,,,,,,,,,,,,,,1.0534,781.0661069,None,None,1,781.0661069,None,,P002,fencog,1,Post,2021_Jul_06_1155,N-Back (New Version 2021),2021.1.4,120.356351
,,,,Conditions/Version_1/twoback(4)_v1.xlsx,New rule: Press 'space' when you see 2-back (i.e. the same letter as the one that appeared 2 letters ago.),o,None,,,,,,,,,0,12,12,12,0,2,2,2,,,,,,,,,,,,,,,,,,,,,,,,,,,,,,,,,,,,,,,,,,,,,,,,,,,,,,,,,,,,,,,,,,,,1.94,785.0171859,None,None,1,785.0171859,None,,P002,fencog,1,Post,2021_Jul_06_1155,N-Back (New Version 2021),2021.1.4,120.356351
,,,,Conditions/Version_1/twoback(4)_v1.xlsx,New rule: Press 'space' when you see 2-back (i.e. the same letter as the one that appeared 2 letters ago.),p,None,,,,,,,,,0,12,12,12,0,3,3,3,,,,,,,,,,,,,,,,,,,,,,,,,,,,,,,,,,,,,,,,,,,,,,,,,,,,,,,,,,,,,,,,,,,,1.4068,788.432557,None,None,1,788.432557,None,,P002,fencog,1,Post,2021_Jul_06_1155,N-Back (New Version 2021),2021.1.4,120.356351
,,,,Conditions/Version_1/twoback(4)_v1.xlsx,New rule: Press 'space' when you see 2-back (i.e. the same letter as the one that appeared 2 letters ago.),p,None,,,,,,,,,0,12,12,12,0,4,4,4,,,,,,,,,,,,,,,,,,,,,,,,,,,,,,,,,,,,,,,,,,,,,,,,,,,,,,,,,,,,,,,,,,,,1.5246,791.9690796,None,None,1,791.9690796,None,,P002,fencog,1,Post,2021_Jul_06_1155,N-Back (New Version 2021),2021.1.4,120.356351
,,,,Conditions/Version_1/twoback(4)_v1.xlsx,New rule: Press 'space' when you see 2-back (i.e. the same letter as the one that appeared 2 letters ago.),y,None,,,,,,,,,0,12,12,12,0,5,5,5,,,,,,,,,,,,,,,,,,,,,,,,,,,,,,,,,,,,,,,,,,,,,,,,,,,,,,,,,,,,,,,,,,,,1.4812,795.4524384,None,None,1,795.4524384,None,,P002,fencog,1,Post,2021_Jul_06_1155,N-Back (New Version 2021),2021.1.4,120.356351
,,,,Conditions/Version_1/twoback(4)_v1.xlsx,New rule: Press 'space' when you see 2-back (i.e. the same letter as the one that appeared 2 letters ago.),P,space,,,,,,,,,0,12,12,12,0,6,6,6,,,,,,,,,,,,,,,,,,,,,,,,,,,,,,,,,,,,,,,,,,,,,,,,,,,,,,,,,,,,,,,,,,,,1.7788,799.2419918,None,space,1,799.2419918,None,1.7334204,P002,fencog,1,Post,2021_Jul_06_1155,N-Back (New Version 2021),2021.1.4,120.356351
,,,,Conditions/Version_1/twoback(4)_v1.xlsx,New rule: Press 'space' when you see 2-back (i.e. the same letter as the one that appeared 2 letters ago.),y,None,,,,,,,,,0,12,12,12,0,7,7,7,,,,,,,,,,,,,,,,,,,,,,,,,,,,,,,,,,,,,,,,,,,,,,,,,,,,,,,,,,,,,,,,,,,,1.847,803.0925514,None,space,0,803.0925514,None,1.3388386,P002,fencog,1,Post,2021_Jul_06_1155,N-Back (New Version 2021),2021.1.4,120.356351
,,,,Conditions/Version_1/twoback(4)_v1.xlsx,New rule: Press 'space' when you see 2-back (i.e. the same letter as the one that appeared 2 letters ago.),y,space,,,,,,,,,0,12,12,12,0,8,8,8,,,,,,,,,,,,,,,,,,,,,,,,,,,,,,,,,,,,,,,,,,,,,,,,,,,,,,,,,,,,,,,,,,,,1.3262,806.4317136,None,None,0,806.4317136,None,,P002,fencog,1,Post,2021_Jul_06_1155,N-Back (New Version 2021),2021.1.4,120.356351
,,,,Conditions/Version_1/twoback(4)_v1.xlsx,New rule: Press 'space' when you see 2-back (i.e. the same letter as the one that appeared 2 letters ago.),,,,,,,,,,,0,12,12,12,,,,,,,,,,,,,,,,,,,,,,,,,,,,,,,,,,,,,,,,,,,,,,,,,,,,,,,,,,,,,,,,,,,,,,,,,,,,,,,,P002,fencog,1,Post,2021_Jul_06_1155,N-Back (New Version 2021),2021.1.4,120.356351
,,,,Conditions/Version_1/zeroback(4)_v1.xlsx,New rule: Press 'space' when you see the letter 'x' or 'X'.,o,None,,,,,,,,,0,13,13,13,0,0,0,0,,,,,,,,,,,,,,,,,,,,,,,,,,,,,,,,,,,,,,,,,,,,,,,,,,,,,,,,,,808.4522589,None,811.4405484,None,space,0.5508073,811.4405484,None,808.4522589,None,1.8656,813.8825472,None,None,1,813.8825472,None,,P002,fencog,1,Post,2021_Jul_06_1155,N-Back (New Version 2021),2021.1.4,120.356351
,,,,Conditions/Version_1/zeroback(4)_v1.xlsx,New rule: Press 'space' when you see the letter 'x' or 'X'.,X,space,,,,,,,,,0,13,13,13,0,1,1,1,,,,,,,,,,,,,,,,,,,,,,,,,,,,,,,,,,,,,,,,,,,,,,,,,,,,,,,,,,,,,,,,,,,,1.4254,817.311716,None,space,1,817.311716,None,1.6723592,P002,fencog,1,Post,2021_Jul_06_1155,N-Back (New Version 2021),2021.1.4,120.356351
,,,,Conditions/Version_1/zeroback(4)_v1.xlsx,New rule: Press 'space' when you see the letter 'x' or 'X'.,p,None,,,,,,,,,0,13,13,13,0,2,2,2,,,,,,,,,,,,,,,,,,,,,,,,,,,,,,,,,,,,,,,,,,,,,,,,,,,,,,,,,,,,,,,,,,,,1.971,821.2868028,None,None,1,821.2868028,None,,P002,fencog,1,Post,2021_Jul_06_1155,N-Back (New Version 2021),2021.1.4,120.356351
,,,,Conditions/Version_1/zeroback(4)_v1.xlsx,New rule: Press 'space' when you see the letter 'x' or 'X'.,m,None,,,,,,,,,0,13,13,13,0,3,3,3,,,,,,,,,,,,,,,,,,,,,,,,,,,,,,,,,,,,,,,,,,,,,,,,,,,,,,,,,,,,,,,,,,,,1.0782,824.3776595,None,None,1,824.3776595,None,,P002,fencog,1,Post,2021_Jul_06_1155,N-Back (New Version 2021),2021.1.4,120.356351
,,,,Conditions/Version_1/zeroback(4)_v1.xlsx,New rule: Press 'space' when you see the letter 'x' or 'X'.,n,None,,,,,,,,,0,13,13,13,0,4,4,4,,,,,,,,,,,,,,,,,,,,,,,,,,,,,,,,,,,,,,,,,,,,,,,,,,,,,,,,,,,,,,,,,,,,1.9276,828.3083441,None,None,1,828.3083441,None,,P002,fencog,1,Post,2021_Jul_06_1155,N-Back (New Version 2021),2021.1.4,120.356351
,,,,Conditions/Version_1/zeroback(4)_v1.xlsx,New rule: Press 'space' when you see the letter 'x' or 'X'.,m,None,,,,,,,,,0,13,13,13,0,5,5,5,,,,,,,,,,,,,,,,,,,,,,,,,,,,,,,,,,,,,,,,,,,,,,,,,,,,,,,,,,,,,,,,,,,,1.5742,831.8822079,None,None,1,831.8822079,None,,P002,fencog,1,Post,2021_Jul_06_1155,N-Back (New Version 2021),2021.1.4,120.356351
,,,,Conditions/Version_1/zeroback(4)_v1.xlsx,New rule: Press 'space' when you see the letter 'x' or 'X'.,C,None,,,,,,,,,0,13,13,13,0,6,6,6,,,,,,,,,,,,,,,,,,,,,,,,,,,,,,,,,,,,,,,,,,,,,,,,,,,,,,,,,,,,,,,,,,,,1.2394,835.1299922,None,None,1,835.1299922,None,,P002,fencog,1,Post,2021_Jul_06_1155,N-Back (New Version 2021),2021.1.4,120.356351
,,,,Conditions/Version_1/zeroback(4)_v1.xlsx,New rule: Press 'space' when you see the letter 'x' or 'X'.,m,None,,,,,,,,,0,13,13,13,0,7,7,7,,,,,,,,,,,,,,,,,,,,,,,,,,,,,,,,,,,,,,,,,,,,,,,,,,,,,,,,,,,,,,,,,,,,1.289,838.4256973,None,None,1,838.4256973,None,,P002,fencog,1,Post,2021_Jul_06_1155,N-Back (New Version 2021),2021.1.4,120.356351
,,,,Conditions/Version_1/zeroback(4)_v1.xlsx,New rule: Press 'space' when you see the letter 'x' or 'X'.,p,None,,,,,,,,,0,13,13,13,0,8,8,8,,,,,,,,,,,,,,,,,,,,,,,,,,,,,,,,,,,,,,,,,,,,,,,,,,,,,,,,,,,,,,,,,,,,1.2518,841.6935057,None,None,1,841.6935057,None,,P002,fencog,1,Post,2021_Jul_06_1155,N-Back (New Version 2021),2021.1.4,120.356351
,,,,Conditions/Version_1/zeroback(4)_v1.xlsx,New rule: Press 'space' when you see the letter 'x' or 'X'.,X,space,,,,,,,,,0,13,13,13,0,9,9,9,,,,,,,,,,,,,,,,,,,,,,,,,,,,,,,,,,,,,,,,,,,,,,,,,,,,,,,,,,,,,,,,,,,,1.537,845.2388725,None,space,1,845.2388725,None,1.5283186,P002,fencog,1,Post,2021_Jul_06_1155,N-Back (New Version 2021),2021.1.4,120.356351
,,,,Conditions/Version_1/zeroback(4)_v1.xlsx,New rule: Press 'space' when you see the letter 'x' or 'X'.,,,,,,,,,,,0,13,13,13,,,,,,,,,,,,,,,,,,,,,,,,,,,,,,,,,,,,,,,,,,,,,,,,,,,,,,,,,,,,,,,,,,,,,,,,,,,,,,,,P002,fencog,1,Post,2021_Jul_06_1155,N-Back (New Version 2021),2021.1.4,120.356351
,,,,Conditions/Version_1/oneback(4)_v1.xlsx,New rule: Press 'space' when you see 1-back (i.e. the same letter as the one that appeared 1 letter ago.),w,None,,,,,,,,,0,14,14,14,0,0,0,0,,,,,,,,,,,,,,,,,,,,,,,,,,,,,,,,,,,,,,,,,,,,,,,,,,,,,,,,,,847.2675346,None,850.2574179,None,space,0.4536482,850.2574179,None,847.2675346,None,1.5804,852.3217126,None,None,1,852.3217126,None,,P002,fencog,1,Post,2021_Jul_06_1155,N-Back (New Version 2021),2021.1.4,120.356351
,,,,Conditions/Version_1/oneback(4)_v1.xlsx,New rule: Press 'space' when you see 1-back (i.e. the same letter as the one that appeared 1 letter ago.),q,None,,,,,,,,,0,14,14,14,0,1,1,1,,,,,,,,,,,,,,,,,,,,,,,,,,,,,,,,,,,,,,,,,,,,,,,,,,,,,,,,,,,,,,,,,,,,1.2642,855.5945448,None,None,1,855.5945448,None,,P002,fencog,1,Post,2021_Jul_06_1155,N-Back (New Version 2021),2021.1.4,120.356351
,,,,Conditions/Version_1/oneback(4)_v1.xlsx,New rule: Press 'space' when you see 1-back (i.e. the same letter as the one that appeared 1 letter ago.),i,None,,,,,,,,,0,14,14,14,0,2,2,2,,,,,,,,,,,,,,,,,,,,,,,,,,,,,,,,,,,,,,,,,,,,,,,,,,,,,,,,,,,,,,,,,,,,1.9524,859.5617491,None,None,1,859.5617491,None,,P002,fencog,1,Post,2021_Jul_06_1155,N-Back (New Version 2021),2021.1.4,120.356351
,,,,Conditions/Version_1/oneback(4)_v1.xlsx,New rule: Press 'space' when you see 1-back (i.e. the same letter as the one that appeared 1 letter ago.),t,None,,,,,,,,,0,14,14,14,0,3,3,3,,,,,,,,,,,,,,,,,,,,,,,,,,,,,,,,,,,,,,,,,,,,,,,,,,,,,,,,,,,,,,,,,,,,1.6052,863.1746736,None,None,1,863.1746736,None,,P002,fencog,1,Post,2021_Jul_06_1155,N-Back (New Version 2021),2021.1.4,120.356351
,,,,Conditions/Version_1/oneback(4)_v1.xlsx,New rule: Press 'space' when you see 1-back (i.e. the same letter as the one that appeared 1 letter ago.),v,None,,,,,,,,,0,14,14,14,0,4,4,4,,,,,,,,,,,,,,,,,,,,,,,,,,,,,,,,,,,,,,,,,,,,,,,,,,,,,,,,,,,,,,,,,,,,1.6362,866.8239094,None,None,1,866.8239094,None,,P002,fencog,1,Post,2021_Jul_06_1155,N-Back (New Version 2021),2021.1.4,120.356351
,,,,Conditions/Version_1/oneback(4)_v1.xlsx,New rule: Press 'space' when you see 1-back (i.e. the same letter as the one that appeared 1 letter ago.),V,space,,,,,,,,,0,14,14,14,0,5,5,5,,,,,,,,,,,,,,,,,,,,,,,,,,,,,,,,,,,,,,,,,,,,,,,,,,,,,,,,,,,,,,,,,,,,1.2332,870.0708242,None,space,1,870.0708242,None,1.5602194,P002,fencog,1,Post,2021_Jul_06_1155,N-Back (New Version 2021),2021.1.4,120.356351
,,,,Conditions/Version_1/oneback(4)_v1.xlsx,New rule: Press 'space' when you see 1-back (i.e. the same letter as the one that appeared 1 letter ago.),v,space,,,,,,,,,0,14,14,14,0,6,6,6,,,,,,,,,,,,,,,,,,,,,,,,,,,,,,,,,,,,,,,,,,,,,,,,,,,,,,,,,,,,,,,,,,,,1.0348,873.1174781,None,space,1,873.1174781,None,1.8497173,P002,fencog,1,Post,2021_Jul_06_1155,N-Back (New Version 2021),2021.1.4,120.356351
,,,,Conditions/Version_1/oneback(4)_v1.xlsx,New rule: Press 'space' when you see 1-back (i.e. the same letter as the one that appeared 1 letter ago.),p,None,,,,,,,,,0,14,14,14,0,7,7,7,,,,,,,,,,,,,,,,,,,,,,,,,,,,,,,,,,,,,,,,,,,,,,,,,,,,,,,,,,,,,,,,,,,,1.1898,876.3120786,None,None,1,876.3120786,None,,P002,fencog,1,Post,2021_Jul_06_1155,N-Back (New Version 2021),2021.1.4,120.356351
,,,,Conditions/Version_1/oneback(4)_v1.xlsx,New rule: Press 'space' when you see 1-back (i.e. the same letter as the one that appeared 1 letter ago.),w,None,,,,,,,,,0,14,14,14,0,8,8,8,,,,,,,,,,,,,,,,,,,,,,,,,,,,,,,,,,,,,,,,,,,,,,,,,,,,,,,,,,,,,,,,,,,,1.3386,879.6514975,None,None,1,879.6514975,None,,P002,fencog,1,Post,2021_Jul_06_1155,N-Back (New Version 2021),2021.1.4,120.356351
,,,,Conditions/Version_1/oneback(4)_v1.xlsx,New rule: Press 'space' when you see 1-back (i.e. the same letter as the one that appeared 1 letter ago.),W,space,,,,,,,,,0,14,14,14,0,9,9,9,,,,,,,,,,,,,,,,,,,,,,,,,,,,,,,,,,,,,,,,,,,,,,,,,,,,,,,,,,,,,,,,,,,,1.568,883.2292157,None,space,1,883.2292157,None,1.3301615,P002,fencog,1,Post,2021_Jul_06_1155,N-Back (New Version 2021),2021.1.4,120.356351
,,,,Conditions/Version_1/oneback(4)_v1.xlsx,New rule: Press 'space' when you see 1-back (i.e. the same letter as the one that appeared 1 letter ago.),,,,,,,,,,,0,14,14,14,,,,,,,,,,,,,,,,,,,,,,,,,,,,,,,,,,,,,,,,,,,,,,,,,,,,,,,,,,,,,,,,,,,,,,,,,,,,,,,,P002,fencog,1,Post,2021_Jul_06_1155,N-Back (New Version 2021),2021.1.4,120.356351
,,,,Conditions/Version_1/threeback(4)_v1.xlsx,New rule: Press 'space' when you see 3-back (i.e. the same letter as the one that appeared 3 letters ago.),A,None,,,,,,,,,0,15,15,15,0,0,0,0,,,,,,,,,,,,,,,,,,,,,,,,,,,,,,,,,,,,,,,,,,,,,,,,,,,,,,,,,,885.25437,None,888.2424887,None,space,1.6686627,888.2424887,None,885.25437,None,1.4254,891.3563797,None,None,1,891.3563797,None,,P002,fencog,1,Post,2021_Jul_06_1155,N-Back (New Version 2021),2021.1.4,120.356351
,,,,Conditions/Version_1/threeback(4)_v1.xlsx,New rule: Press 'space' when you see 3-back (i.e. the same letter as the one that appeared 3 letters ago.),n,None,,,,,,,,,0,15,15,15,0,1,1,1,,,,,,,,,,,,,,,,,,,,,,,,,,,,,,,,,,,,,,,,,,,,,,,,,,,,,,,,,,,,,,,,,,,,1.258,894.6137333,None,None,1,894.6137333,None,,P002,fencog,1,Post,2021_Jul_06_1155,N-Back (New Version 2021),2021.1.4,120.356351
,,,,Conditions/Version_1/threeback(4)_v1.xlsx,New rule: Press 'space' when you see 3-back (i.e. the same letter as the one that appeared 3 letters ago.),g,None,,,,,,,,,0,15,15,15,0,2,2,2,,,,,,,,,,,,,,,,,,,,,,,,,,,,,,,,,,,,,,,,,,,,,,,,,,,,,,,,,,,,,,,,,,,,1.7168,898.333004,None,None,1,898.333004,None,,P002,fencog,1,Post,2021_Jul_06_1155,N-Back (New Version 2021),2021.1.4,120.356351
,,,,Conditions/Version_1/threeback(4)_v1.xlsx,New rule: Press 'space' when you see 3-back (i.e. the same letter as the one that appeared 3 letters ago.),A,space,,,,,,,,,0,15,15,15,0,3,3,3,,,,,,,,,,,,,,,,,,,,,,,,,,,,,,,,,,,,,,,,,,,,,,,,,,,,,,,,,,,,,,,,,,,,1.0348,901.3784995,None,space,1,901.3784995,None,1.4285209,P002,fencog,1,Post,2021_Jul_06_1155,N-Back (New Version 2021),2021.1.4,120.356351
,,,,Conditions/Version_1/threeback(4)_v1.xlsx,New rule: Press 'space' when you see 3-back (i.e. the same letter as the one that appeared 3 letters ago.),p,None,,,,,,,,,0,15,15,15,0,4,4,4,,,,,,,,,,,,,,,,,,,,,,,,,,,,,,,,,,,,,,,,,,,,,,,,,,,,,,,,,,,,,,,,,,,,1.8222,905.2024903,None,None,1,905.2024903,None,,P002,fencog,1,Post,2021_Jul_06_1155,N-Back (New Version 2021),2021.1.4,120.356351
,,,,Conditions/Version_1/threeback(4)_v1.xlsx,New rule: Press 'space' when you see 3-back (i.e. the same letter as the one that appeared 3 letters ago.),O,None,,,,,,,,,0,15,15,15,0,5,5,5,,,,,,,,,,,,,,,,,,,,,,,,,,,,,,,,,,,,,,,,,,,,,,,,,,,,,,,,,,,,,,,,,,,,1.6424,908.8525883,None,None,1,908.8525883,None,,P002,fencog,1,Post,2021_Jul_06_1155,N-Back (New Version 2021),2021.1.4,120.356351
,,,,Conditions/Version_1/threeback(4)_v1.xlsx,New rule: Press 'space' when you see 3-back (i.e. the same letter as the one that appeared 3 letters ago.),a,space,,,,,,,,,0,15,15,15,0,6,6,6,,,,,,,,,,,,,,,,,,,,,,,,,,,,,,,,,,,,,,,,,,,,,,,,,,,,,,,,,,,,,,,,,,,,1.7044,912.56899,None,space,1,912.56899,None,1.9658065,P002,fencog,1,Post,2021_Jul_06_1155,N-Back (New Version 2021),2021.1.4,120.356351
,,,,Conditions/Version_1/threeback(4)_v1.xlsx,New rule: Press 'space' when you see 3-back (i.e. the same letter as the one that appeared 3 letters ago.),p,space,,,,,,,,,0,15,15,15,0,7,7,7,,,,,,,,,,,,,,,,,,,,,,,,,,,,,,,,,,,,,,,,,,,,,,,,,,,,,,,,,,,,,,,,,,,,1.7602,916.3406703,None,space,1,916.3406703,None,1.8417446,P002,fencog,1,Post,2021_Jul_06_1155,N-Back (New Version 2021),2021.1.4,120.356351
,,,,Conditions/Version_1/threeback(4)_v1.xlsx,New rule: Press 'space' when you see 3-back (i.e. the same letter as the one that appeared 3 letters ago.),x,None,,,,,,,,,0,15,15,15,0,8,8,8,,,,,,,,,,,,,,,,,,,,,,,,,,,,,,,,,,,,,,,,,,,,,,,,,,,,,,,,,,,,,,,,,,,,1.0162,919.3575109,None,None,1,919.3575109,None,,P002,fencog,1,Post,2021_Jul_06_1155,N-Back (New Version 2021),2021.1.4,120.356351
,,,,Conditions/Version_1/threeback(4)_v1.xlsx,New rule: Press 'space' when you see 3-back (i.e. the same letter as the one that appeared 3 letters ago.),X,None,,,,,,,,,0,15,15,15,0,9,9,9,,,,,,,,,,,,,,,,,,,,,,,,,,,,,,,,,,,,,,,,,,,,,,,,,,,,,,,,,,,,,,,,,,,,1.8718,923.2389986,None,None,1,923.2389986,None,,P002,fencog,1,Post,2021_Jul_06_1155,N-Back (New Version 2021),2021.1.4,120.356351
,,,,Conditions/Version_1/threeback(4)_v1.xlsx,New rule: Press 'space' when you see 3-back (i.e. the same letter as the one that appeared 3 letters ago.),,,,,,,,,,,0,15,15,15,,,,,,,,,,,,,,,,,,,,,,,,,,,,,,,,,,,,,,,,,,,,,,,,,,,,,,,,,,,,,,,,,,,,,,,,,,,,,,,,P002,fencog,1,Post,2021_Jul_06_1155,N-Back (New Version 2021),2021.1.4,120.356351
