CondFileP,InstructionsP,LettersDisplayedP,CorrectnessP,CondFile,Instructions,LettersDisplayed,Correctness,practicetrials.thisRepN,practicetrials.thisTrialN,practicetrials.thisN,practicetrials.thisIndex,InnerLoopPractice.thisRepN,InnerLoopPractice.thisTrialN,InnerLoopPractice.thisN,InnerLoopPractice.thisIndex,trials.thisRepN,trials.thisTrialN,trials.thisN,trials.thisIndex,InnerLoop.thisRepN,InnerLoop.thisTrialN,InnerLoop.thisN,InnerLoop.thisIndex,TaskVersionText.started,TaskVersionText.stopped,InstrKey1.keys,InstrKey1.rt,InstrKey1.started,InstrKey1.stopped,text.started,text.stopped,key_resp_4.keys,key_resp_4.rt,key_resp_4.started,key_resp_4.stopped,text_2.started,text_2.stopped,key_resp_3.keys,key_resp_3.rt,key_resp_3.started,key_resp_3.stopped,text_3.started,text_3.stopped,key_resp_2.keys,key_resp_2.rt,key_resp_2.started,key_resp_2.stopped,PractIn1.started,PractIn1.stopped,PractIn2.started,PractIn2.stopped,PractInstructionPass.keys,PractInstructionPass.rt,PractInstructionPass.started,PractInstructionPass.stopped,PractBlock1.started,PractBlock1.stopped,ISIjitterPractice,ISI_Pract_Fixation.started,ISI_Pract_Fixation.stopped,N_backP.started,N_backP.stopped,KeyPractice.keys,KeyPractice.corr,KeyPractice.rt,KeyPractice.started,KeyPractice.stopped,text_4.started,text_4.stopped,TransitionText.started,TransitionText.stopped,key_resp_6.keys,key_resp_6.rt,key_resp_6.started,key_resp_6.stopped,text_5.started,text_5.stopped,key_resp_5.keys,key_resp_5.rt,key_resp_5.started,key_resp_5.stopped,MainInt1.started,MainInt1.stopped,MainInt2.started,MainInt2.stopped,InstructionPass.keys,InstructionPass.rt,InstructionPass.started,InstructionPass.stopped,Blocks1.started,Blocks1.stopped,ISIjitter,N_backD.started,N_backD.stopped,key_resp.keys,key_resp.corr,key_resp.started,key_resp.stopped,key_resp.rt,participant,Study Name,Task Version (required to run),PRE/POST,date,expName,psychopyVersion,frameRate
,,,,,,,,,,,,,,,,,,,,,,,,20.6514074,None,space,8.5496367,21.143586,None,,,,,,,,,,,,,,,,,,,,,,,,,,,,,,,,,,,,,,,,,,,,,,,,,,,,,,,,,,,,,,,,,,,,,,,P002,fencog,2,Pre,2021_Jun_28_1114,N-Back (New Version 2021),2021.1.4,120.227133
,,,,,,,,,,,,,,,,,,,,,,,,,,,,,,29.7430735,None,space,12.8801681,30.2327443,None,,,,,,,,,,,,,,,,,,,,,,,,,,,,,,,,,,,,,,,,,,,,,,,,,,,,,,,,,,,,,,,,,P002,fencog,2,Pre,2021_Jun_28_1114,N-Back (New Version 2021),2021.1.4,120.227133
,,,,,,,,,,,,,,,,,,,,,,,,,,,,,,,,,,,,43.1442929,None,space,7.9641156,43.6374671,None,,,,,,,,,,,,,,,,,,,,,,,,,,,,,,,,,,,,,,,,,,,,,,,,,,,,,,,,,,,P002,fencog,2,Pre,2021_Jun_28_1114,N-Back (New Version 2021),2021.1.4,120.227133
,,,,,,,,,,,,,,,,,,,,,,,,,,,,,,,,,,,,,,,,,,51.6279633,None,space,4.5871828,52.1181645,None,,,,,,,,,,,,,,,,,,,,,,,,,,,,,,,,,,,,,,,,,,,,,,,,,,,,,P002,fencog,2,Pre,2021_Jun_28_1114,N-Back (New Version 2021),2021.1.4,120.227133
Conditions/Version_2Pr/zeroback(1)_v2.xlsx,Rule: Press 'space' when you see the letter 'x' or 'X'.,x,space,,,,,0,0,0,0,0,0,0,0,,,,,,,,,,,,,,,,,,,,,,,,,,,,,,,,,58.1131936,None,61.0914604,None,space,7.3180615,61.0914604,None,58.1131936,None,1.99,68.4297958,None,70.4231376,None,space,1,0.4022154,70.4231376,None,70.84117,None,,,,,,,,,,,,,,,,,,,,,,,,,,,,,,,P002,fencog,2,Pre,2021_Jun_28_1114,N-Back (New Version 2021),2021.1.4,120.227133
Conditions/Version_2Pr/zeroback(1)_v2.xlsx,Rule: Press 'space' when you see the letter 'x' or 'X'.,R,None,,,,,0,0,0,0,0,1,1,1,,,,,,,,,,,,,,,,,,,,,,,,,,,,,,,,,,,,,,,,,,,1.415,72.3446933,None,73.7669448,None,None,1,,73.7669448,None,75.7687382,None,,,,,,,,,,,,,,,,,,,,,,,,,,,,,,,P002,fencog,2,Pre,2021_Jun_28_1114,N-Back (New Version 2021),2021.1.4,120.227133
Conditions/Version_2Pr/zeroback(1)_v2.xlsx,Rule: Press 'space' when you see the letter 'x' or 'X'.,p,None,,,,,0,0,0,0,0,2,2,2,,,,,,,,,,,,,,,,,,,,,,,,,,,,,,,,,,,,,,,,,,,1.515,77.2682775,None,78.7873153,None,None,1,,78.7873153,None,80.7928202,None,,,,,,,,,,,,,,,,,,,,,,,,,,,,,,,P002,fencog,2,Pre,2021_Jun_28_1114,N-Back (New Version 2021),2021.1.4,120.227133
Conditions/Version_2Pr/zeroback(1)_v2.xlsx,Rule: Press 'space' when you see the letter 'x' or 'X'.,O,None,,,,,0,0,0,0,0,3,3,3,,,,,,,,,,,,,,,,,,,,,,,,,,,,,,,,,,,,,,,,,,,1.565,82.2918671,None,83.8625248,None,None,1,,83.8625248,None,85.8658187,None,,,,,,,,,,,,,,,,,,,,,,,,,,,,,,,P002,fencog,2,Pre,2021_Jun_28_1114,N-Back (New Version 2021),2021.1.4,120.227133
Conditions/Version_2Pr/zeroback(1)_v2.xlsx,Rule: Press 'space' when you see the letter 'x' or 'X'.,i,None,,,,,0,0,0,0,0,4,4,4,,,,,,,,,,,,,,,,,,,,,,,,,,,,,,,,,,,,,,,,,,,1.315,87.365296,None,88.6844274,None,None,1,,88.6844274,None,90.6893399,None,,,,,,,,,,,,,,,,,,,,,,,,,,,,,,,P002,fencog,2,Pre,2021_Jun_28_1114,N-Back (New Version 2021),2021.1.4,120.227133
Conditions/Version_2Pr/zeroback(1)_v2.xlsx,Rule: Press 'space' when you see the letter 'x' or 'X'.,U,None,,,,,0,0,0,0,0,5,5,5,,,,,,,,,,,,,,,,,,,,,,,,,,,,,,,,,,,,,,,,,,,1.64,92.1884738,None,93.831255,None,None,1,,93.831255,None,95.8378623,None,,,,,,,,,,,,,,,,,,,,,,,,,,,,,,,P002,fencog,2,Pre,2021_Jun_28_1114,N-Back (New Version 2021),2021.1.4,120.227133
Conditions/Version_2Pr/zeroback(1)_v2.xlsx,Rule: Press 'space' when you see the letter 'x' or 'X'.,N,None,,,,,0,0,0,0,0,6,6,6,,,,,,,,,,,,,,,,,,,,,,,,,,,,,,,,,,,,,,,,,,,1.19,97.337403,None,98.5317992,None,None,1,,98.5317992,None,100.5364135,None,,,,,,,,,,,,,,,,,,,,,,,,,,,,,,,P002,fencog,2,Pre,2021_Jun_28_1114,N-Back (New Version 2021),2021.1.4,120.227133
Conditions/Version_2Pr/zeroback(1)_v2.xlsx,Rule: Press 'space' when you see the letter 'x' or 'X'.,m,None,,,,,0,0,0,0,0,7,7,7,,,,,,,,,,,,,,,,,,,,,,,,,,,,,,,,,,,,,,,,,,,1.965,102.0358803,None,104.0047083,None,None,1,,104.0047083,None,106.0097921,None,,,,,,,,,,,,,,,,,,,,,,,,,,,,,,,P002,fencog,2,Pre,2021_Jun_28_1114,N-Back (New Version 2021),2021.1.4,120.227133
Conditions/Version_2Pr/zeroback(1)_v2.xlsx,Rule: Press 'space' when you see the letter 'x' or 'X'.,x,space,,,,,0,0,0,0,0,8,8,8,,,,,,,,,,,,,,,,,,,,,,,,,,,,,,,,,,,,,,,,,,,1.49,107.5094522,None,109.0003184,None,space,1,0.3453737,109.0003184,None,109.3600024,None,,,,,,,,,,,,,,,,,,,,,,,,,,,,,,,P002,fencog,2,Pre,2021_Jun_28_1114,N-Back (New Version 2021),2021.1.4,120.227133
Conditions/Version_2Pr/zeroback(1)_v2.xlsx,Rule: Press 'space' when you see the letter 'x' or 'X'.,X,space,,,,,0,0,0,0,0,9,9,9,,,,,,,,,,,,,,,,,,,,,,,,,,,,,,,,,,,,,,,,,,,1.34,110.8666908,None,112.2146821,None,space,1,0.3948354,112.2146821,None,112.6171426,None,,,,,,,,,,,,,,,,,,,,,,,,,,,,,,,P002,fencog,2,Pre,2021_Jun_28_1114,N-Back (New Version 2021),2021.1.4,120.227133
Conditions/Version_2Pr/zeroback(1)_v2.xlsx,Rule: Press 'space' when you see the letter 'x' or 'X'.,,,,,,,0,0,0,0,,,,,,,,,,,,,,,,,,,,,,,,,,,,,,,,,,,,,,,,,,,,,,,,,,,,,,,,,,,,,,,,,,,,,,,,,,,,,,,,,,,,,,,,,P002,fencog,2,Pre,2021_Jun_28_1114,N-Back (New Version 2021),2021.1.4,120.227133
Conditions/Version_2Pr/oneback(1)_v2.xlsx,New rule: Press 'space' when you see 1-back (i.e. the same letter as the one that appeared 1 letter ago.),r,None,,,,,0,1,1,1,0,0,0,0,,,,,,,,,,,,,,,,,,,,,,,,,,,,,,,,,114.145906,None,117.133491,None,space,2.6360594,117.133491,None,114.145906,None,1.465,119.7925651,None,121.2642566,None,None,1,,121.2642566,None,123.2714069,None,,,,,,,,,,,,,,,,,,,,,,,,,,,,,,,P002,fencog,2,Pre,2021_Jun_28_1114,N-Back (New Version 2021),2021.1.4,120.227133
Conditions/Version_2Pr/oneback(1)_v2.xlsx,New rule: Press 'space' when you see 1-back (i.e. the same letter as the one that appeared 1 letter ago.),t,None,,,,,0,1,1,1,0,1,1,1,,,,,,,,,,,,,,,,,,,,,,,,,,,,,,,,,,,,,,,,,,,1.69,124.7707587,None,126.4628843,None,None,1,,126.4628843,None,128.4696812,None,,,,,,,,,,,,,,,,,,,,,,,,,,,,,,,P002,fencog,2,Pre,2021_Jun_28_1114,N-Back (New Version 2021),2021.1.4,120.227133
Conditions/Version_2Pr/oneback(1)_v2.xlsx,New rule: Press 'space' when you see 1-back (i.e. the same letter as the one that appeared 1 letter ago.),Y,None,,,,,0,1,1,1,0,2,2,2,,,,,,,,,,,,,,,,,,,,,,,,,,,,,,,,,,,,,,,,,,,1.715,129.9692208,None,131.6881274,None,None,1,,131.6881274,None,133.6933976,None,,,,,,,,,,,,,,,,,,,,,,,,,,,,,,,P002,fencog,2,Pre,2021_Jun_28_1114,N-Back (New Version 2021),2021.1.4,120.227133
Conditions/Version_2Pr/oneback(1)_v2.xlsx,New rule: Press 'space' when you see 1-back (i.e. the same letter as the one that appeared 1 letter ago.),y,space,,,,,0,1,1,1,0,3,3,3,,,,,,,,,,,,,,,,,,,,,,,,,,,,,,,,,,,,,,,,,,,1.59,135.1929084,None,136.7871398,None,space,1,0.3662226,136.7871398,None,137.1679193,None,,,,,,,,,,,,,,,,,,,,,,,,,,,,,,,P002,fencog,2,Pre,2021_Jun_28_1114,N-Back (New Version 2021),2021.1.4,120.227133
Conditions/Version_2Pr/oneback(1)_v2.xlsx,New rule: Press 'space' when you see 1-back (i.e. the same letter as the one that appeared 1 letter ago.),p,None,,,,,0,1,1,1,0,4,4,4,,,,,,,,,,,,,,,,,,,,,,,,,,,,,,,,,,,,,,,,,,,1.09,138.6750724,None,139.7689515,None,None,1,,139.7689515,None,141.7741811,None,,,,,,,,,,,,,,,,,,,,,,,,,,,,,,,P002,fencog,2,Pre,2021_Jun_28_1114,N-Back (New Version 2021),2021.1.4,120.227133
Conditions/Version_2Pr/oneback(1)_v2.xlsx,New rule: Press 'space' when you see 1-back (i.e. the same letter as the one that appeared 1 letter ago.),P,space,,,,,0,1,1,1,0,5,5,5,,,,,,,,,,,,,,,,,,,,,,,,,,,,,,,,,,,,,,,,,,,1.215,143.2735194,None,144.4925681,None,space,1,0.3647313,144.4925681,None,144.8656502,None,,,,,,,,,,,,,,,,,,,,,,,,,,,,,,,P002,fencog,2,Pre,2021_Jun_28_1114,N-Back (New Version 2021),2021.1.4,120.227133
Conditions/Version_2Pr/oneback(1)_v2.xlsx,New rule: Press 'space' when you see 1-back (i.e. the same letter as the one that appeared 1 letter ago.),e,None,,,,,0,1,1,1,0,6,6,6,,,,,,,,,,,,,,,,,,,,,,,,,,,,,,,,,,,,,,,,,,,1.24,146.372855,None,147.6157853,None,None,1,,147.6157853,None,149.6217173,None,,,,,,,,,,,,,,,,,,,,,,,,,,,,,,,P002,fencog,2,Pre,2021_Jun_28_1114,N-Back (New Version 2021),2021.1.4,120.227133
Conditions/Version_2Pr/oneback(1)_v2.xlsx,New rule: Press 'space' when you see 1-back (i.e. the same letter as the one that appeared 1 letter ago.),r,None,,,,,0,1,1,1,0,7,7,7,,,,,,,,,,,,,,,,,,,,,,,,,,,,,,,,,,,,,,,,,,,1.365,151.1222958,None,152.4884875,None,None,1,,152.4884875,None,154.4930756,None,,,,,,,,,,,,,,,,,,,,,,,,,,,,,,,P002,fencog,2,Pre,2021_Jun_28_1114,N-Back (New Version 2021),2021.1.4,120.227133
Conditions/Version_2Pr/oneback(1)_v2.xlsx,New rule: Press 'space' when you see 1-back (i.e. the same letter as the one that appeared 1 letter ago.),R,space,,,,,0,1,1,1,0,8,8,8,,,,,,,,,,,,,,,,,,,,,,,,,,,,,,,,,,,,,,,,,,,1.615,155.9949996,None,157.612149,None,space,1,0.3413951,157.612149,None,157.9618652,None,,,,,,,,,,,,,,,,,,,,,,,,,,,,,,,P002,fencog,2,Pre,2021_Jun_28_1114,N-Back (New Version 2021),2021.1.4,120.227133
Conditions/Version_2Pr/oneback(1)_v2.xlsx,New rule: Press 'space' when you see 1-back (i.e. the same letter as the one that appeared 1 letter ago.),p,None,,,,,0,1,1,1,0,9,9,9,,,,,,,,,,,,,,,,,,,,,,,,,,,,,,,,,,,,,,,,,,,1.865,159.4686936,None,161.3349315,None,None,1,,161.3349315,None,163.3341522,None,,,,,,,,,,,,,,,,,,,,,,,,,,,,,,,P002,fencog,2,Pre,2021_Jun_28_1114,N-Back (New Version 2021),2021.1.4,120.227133
Conditions/Version_2Pr/oneback(1)_v2.xlsx,New rule: Press 'space' when you see 1-back (i.e. the same letter as the one that appeared 1 letter ago.),,,,,,,0,1,1,1,,,,,,,,,,,,,,,,,,,,,,,,,,,,,,,,,,,,,,,,,,,,,,,,,,,,,,,,,,,,,,,,,,,,,,,,,,,,,,,,,,,,,,,,,P002,fencog,2,Pre,2021_Jun_28_1114,N-Back (New Version 2021),2021.1.4,120.227133
Conditions/Version_2Pr/twoback(1)_v2.xlsx,New rule: Press 'space' when you see 2-back (i.e. the same letter as the one that appeared 2 letters ago.),r,None,,,,,0,2,2,2,0,0,0,0,,,,,,,,,,,,,,,,,,,,,,,,,,,,,,,,,164.8639753,None,167.8521611,None,space,0.4371826,167.8521611,None,164.8639753,None,1.14,168.3056913,None,169.453212,None,None,1,,169.453212,None,171.4571387,None,,,,,,,,,,,,,,,,,,,,,,,,,,,,,,,P002,fencog,2,Pre,2021_Jun_28_1114,N-Back (New Version 2021),2021.1.4,120.227133
Conditions/Version_2Pr/twoback(1)_v2.xlsx,New rule: Press 'space' when you see 2-back (i.e. the same letter as the one that appeared 2 letters ago.),P,None,,,,,0,2,2,2,0,1,1,1,,,,,,,,,,,,,,,,,,,,,,,,,,,,,,,,,,,,,,,,,,,1.04,172.9566063,None,173.9986841,None,None,1,,173.9986841,None,176.0058299,None,,,,,,,,,,,,,,,,,,,,,,,,,,,,,,,P002,fencog,2,Pre,2021_Jun_28_1114,N-Back (New Version 2021),2021.1.4,120.227133
Conditions/Version_2Pr/twoback(1)_v2.xlsx,New rule: Press 'space' when you see 2-back (i.e. the same letter as the one that appeared 2 letters ago.),o,None,,,,,0,2,2,2,0,2,2,2,,,,,,,,,,,,,,,,,,,,,,,,,,,,,,,,,,,,,,,,,,,1.065,177.505318,None,178.5724034,None,None,1,,178.5724034,None,180.5780756,None,,,,,,,,,,,,,,,,,,,,,,,,,,,,,,,P002,fencog,2,Pre,2021_Jun_28_1114,N-Back (New Version 2021),2021.1.4,120.227133
Conditions/Version_2Pr/twoback(1)_v2.xlsx,New rule: Press 'space' when you see 2-back (i.e. the same letter as the one that appeared 2 letters ago.),p,space,,,,,0,2,2,2,0,3,3,3,,,,,,,,,,,,,,,,,,,,,,,,,,,,,,,,,,,,,,,,,,,1.29,182.0789014,None,183.3709334,None,space,1,0.289031,183.3709334,None,183.6714857,None,,,,,,,,,,,,,,,,,,,,,,,,,,,,,,,P002,fencog,2,Pre,2021_Jun_28_1114,N-Back (New Version 2021),2021.1.4,120.227133
Conditions/Version_2Pr/twoback(1)_v2.xlsx,New rule: Press 'space' when you see 2-back (i.e. the same letter as the one that appeared 2 letters ago.),Y,None,,,,,0,2,2,2,0,4,4,4,,,,,,,,,,,,,,,,,,,,,,,,,,,,,,,,,,,,,,,,,,,1.115,185.1779925,None,186.2954448,None,None,1,,186.2954448,None,188.3020694,None,,,,,,,,,,,,,,,,,,,,,,,,,,,,,,,P002,fencog,2,Pre,2021_Jun_28_1114,N-Back (New Version 2021),2021.1.4,120.227133
Conditions/Version_2Pr/twoback(1)_v2.xlsx,New rule: Press 'space' when you see 2-back (i.e. the same letter as the one that appeared 2 letters ago.),q,None,,,,,0,2,2,2,0,5,5,5,,,,,,,,,,,,,,,,,,,,,,,,,,,,,,,,,,,,,,,,,,,1.64,189.8016108,None,191.4440058,None,None,1,,191.4440058,None,193.4506371,None,,,,,,,,,,,,,,,,,,,,,,,,,,,,,,,P002,fencog,2,Pre,2021_Jun_28_1114,N-Back (New Version 2021),2021.1.4,120.227133
Conditions/Version_2Pr/twoback(1)_v2.xlsx,New rule: Press 'space' when you see 2-back (i.e. the same letter as the one that appeared 2 letters ago.),m,None,,,,,0,2,2,2,0,6,6,6,,,,,,,,,,,,,,,,,,,,,,,,,,,,,,,,,,,,,,,,,,,1.09,194.9501971,None,196.0432722,None,None,1,,196.0432722,None,198.0491798,None,,,,,,,,,,,,,,,,,,,,,,,,,,,,,,,P002,fencog,2,Pre,2021_Jun_28_1114,N-Back (New Version 2021),2021.1.4,120.227133
Conditions/Version_2Pr/twoback(1)_v2.xlsx,New rule: Press 'space' when you see 2-back (i.e. the same letter as the one that appeared 2 letters ago.),Q,space,,,,,0,2,2,2,0,7,7,7,,,,,,,,,,,,,,,,,,,,,,,,,,,,,,,,,,,,,,,,,,,1.515,199.5488042,None,201.0679857,None,space,1,0.5333249,201.0679857,None,201.6154023,None,,,,,,,,,,,,,,,,,,,,,,,,,,,,,,,P002,fencog,2,Pre,2021_Jun_28_1114,N-Back (New Version 2021),2021.1.4,120.227133
Conditions/Version_2Pr/twoback(1)_v2.xlsx,New rule: Press 'space' when you see 2-back (i.e. the same letter as the one that appeared 2 letters ago.),L,None,,,,,0,2,2,2,0,8,8,8,,,,,,,,,,,,,,,,,,,,,,,,,,,,,,,,,,,,,,,,,,,1.44,203.1227971,None,204.5674551,None,None,1,,204.5674551,None,206.5716381,None,,,,,,,,,,,,,,,,,,,,,,,,,,,,,,,P002,fencog,2,Pre,2021_Jun_28_1114,N-Back (New Version 2021),2021.1.4,120.227133
Conditions/Version_2Pr/twoback(1)_v2.xlsx,New rule: Press 'space' when you see 2-back (i.e. the same letter as the one that appeared 2 letters ago.),q,space,,,,,0,2,2,2,0,9,9,9,,,,,,,,,,,,,,,,,,,,,,,,,,,,,,,,,,,,,,,,,,,1.89,208.0711955,None,209.9640407,None,space,1,0.500354,209.9640407,None,210.4793656,None,,,,,,,,,,,,,,,,,,,,,,,,,,,,,,,P002,fencog,2,Pre,2021_Jun_28_1114,N-Back (New Version 2021),2021.1.4,120.227133
Conditions/Version_2Pr/twoback(1)_v2.xlsx,New rule: Press 'space' when you see 2-back (i.e. the same letter as the one that appeared 2 letters ago.),,,,,,,0,2,2,2,,,,,,,,,,,,,,,,,,,,,,,,,,,,,,,,,,,,,,,,,,,,,,,,,,,,,,,,,,,,,,,,,,,,,,,,,,,,,,,,,,,,,,,,,P002,fencog,2,Pre,2021_Jun_28_1114,N-Back (New Version 2021),2021.1.4,120.227133
Conditions/Version_2Pr/threeback(1)_v2.xlsx,New rule: Press 'space' when you see 3-back (i.e. the same letter as the one that appeared 3 letters ago.),u,None,,,,,0,3,3,3,0,0,0,0,,,,,,,,,,,,,,,,,,,,,,,,,,,,,,,,,212.0000091,None,214.9881793,None,space,0.5010845,214.9881793,None,212.0000091,None,1.965,215.5243068,None,217.4953973,None,None,1,,217.4953973,None,219.5012247,None,,,,,,,,,,,,,,,,,,,,,,,,,,,,,,,P002,fencog,2,Pre,2021_Jun_28_1114,N-Back (New Version 2021),2021.1.4,120.227133
Conditions/Version_2Pr/threeback(1)_v2.xlsx,New rule: Press 'space' when you see 3-back (i.e. the same letter as the one that appeared 3 letters ago.),U,None,,,,,0,3,3,3,0,1,1,1,,,,,,,,,,,,,,,,,,,,,,,,,,,,,,,,,,,,,,,,,,,1.165,221.0005189,None,222.1710504,None,None,1,,222.1710504,None,224.1747683,None,,,,,,,,,,,,,,,,,,,,,,,,,,,,,,,P002,fencog,2,Pre,2021_Jun_28_1114,N-Back (New Version 2021),2021.1.4,120.227133
Conditions/Version_2Pr/threeback(1)_v2.xlsx,New rule: Press 'space' when you see 3-back (i.e. the same letter as the one that appeared 3 letters ago.),p,None,,,,,0,3,3,3,0,2,2,2,,,,,,,,,,,,,,,,,,,,,,,,,,,,,,,,,,,,,,,,,,,1.515,225.6742438,None,227.1910583,None,None,1,,227.1910583,None,229.1968993,None,,,,,,,,,,,,,,,,,,,,,,,,,,,,,,,P002,fencog,2,Pre,2021_Jun_28_1114,N-Back (New Version 2021),2021.1.4,120.227133
Conditions/Version_2Pr/threeback(1)_v2.xlsx,New rule: Press 'space' when you see 3-back (i.e. the same letter as the one that appeared 3 letters ago.),U,space,,,,,0,3,3,3,0,3,3,3,,,,,,,,,,,,,,,,,,,,,,,,,,,,,,,,,,,,,,,,,,,1.415,230.6978339,None,232.1148304,None,space,1,0.3980755,232.1148304,None,232.5232702,None,,,,,,,,,,,,,,,,,,,,,,,,,,,,,,,P002,fencog,2,Pre,2021_Jun_28_1114,N-Back (New Version 2021),2021.1.4,120.227133
Conditions/Version_2Pr/threeback(1)_v2.xlsx,New rule: Press 'space' when you see 3-back (i.e. the same letter as the one that appeared 3 letters ago.),e,None,,,,,0,3,3,3,0,4,4,4,,,,,,,,,,,,,,,,,,,,,,,,,,,,,,,,,,,,,,,,,,,1.24,234.0301756,None,235.2719139,None,None,1,,235.2719139,None,237.2708565,None,,,,,,,,,,,,,,,,,,,,,,,,,,,,,,,P002,fencog,2,Pre,2021_Jun_28_1114,N-Back (New Version 2021),2021.1.4,120.227133
Conditions/Version_2Pr/threeback(1)_v2.xlsx,New rule: Press 'space' when you see 3-back (i.e. the same letter as the one that appeared 3 letters ago.),R,None,,,,,0,3,3,3,0,5,5,5,,,,,,,,,,,,,,,,,,,,,,,,,,,,,,,,,,,,,,,,,,,1.865,238.770473,None,240.6375055,None,None,1,,240.6375055,None,242.6443897,None,,,,,,,,,,,,,,,,,,,,,,,,,,,,,,,P002,fencog,2,Pre,2021_Jun_28_1114,N-Back (New Version 2021),2021.1.4,120.227133
Conditions/Version_2Pr/threeback(1)_v2.xlsx,New rule: Press 'space' when you see 3-back (i.e. the same letter as the one that appeared 3 letters ago.),p,None,,,,,0,3,3,3,0,6,6,6,,,,,,,,,,,,,,,,,,,,,,,,,,,,,,,,,,,,,,,,,,,1.765,244.1438312,None,245.9114324,None,space,0,0.4495471,245.9114324,None,246.3738882,None,,,,,,,,,,,,,,,,,,,,,,,,,,,,,,,P002,fencog,2,Pre,2021_Jun_28_1114,N-Back (New Version 2021),2021.1.4,120.227133
Conditions/Version_2Pr/threeback(1)_v2.xlsx,New rule: Press 'space' when you see 3-back (i.e. the same letter as the one that appeared 3 letters ago.),E,space,,,,,0,3,3,3,0,7,7,7,,,,,,,,,,,,,,,,,,,,,,,,,,,,,,,,,,,,,,,,,,,1.665,247.8759166,None,249.5433433,None,space,1,0.8338548,249.5433433,None,250.3882689,None,,,,,,,,,,,,,,,,,,,,,,,,,,,,,,,P002,fencog,2,Pre,2021_Jun_28_1114,N-Back (New Version 2021),2021.1.4,120.227133
Conditions/Version_2Pr/threeback(1)_v2.xlsx,New rule: Press 'space' when you see 3-back (i.e. the same letter as the one that appeared 3 letters ago.),k,None,,,,,0,3,3,3,0,8,8,8,,,,,,,,,,,,,,,,,,,,,,,,,,,,,,,,,,,,,,,,,,,1.09,251.891408,None,252.9845852,None,None,1,,252.9845852,None,254.9912946,None,,,,,,,,,,,,,,,,,,,,,,,,,,,,,,,P002,fencog,2,Pre,2021_Jun_28_1114,N-Back (New Version 2021),2021.1.4,120.227133
Conditions/Version_2Pr/threeback(1)_v2.xlsx,New rule: Press 'space' when you see 3-back (i.e. the same letter as the one that appeared 3 letters ago.),m,None,,,,,0,3,3,3,0,9,9,9,,,,,,,,,,,,,,,,,,,,,,,,,,,,,,,,,,,,,,,,,,,1.265,256.4902069,None,257.7579609,None,None,1,,257.7579609,None,259.7643598,None,,,,,,,,,,,,,,,,,,,,,,,,,,,,,,,P002,fencog,2,Pre,2021_Jun_28_1114,N-Back (New Version 2021),2021.1.4,120.227133
Conditions/Version_2Pr/threeback(1)_v2.xlsx,New rule: Press 'space' when you see 3-back (i.e. the same letter as the one that appeared 3 letters ago.),,,,,,,0,3,3,3,,,,,,,,,,,,,,,,,,,,,,,,,,,,,,,,,,,,,,,,,,,,,,,,,,,,,,,,,,,,,,,,,,,,,,,,,,,,,,,,,,,,,,,,,P002,fencog,2,Pre,2021_Jun_28_1114,N-Back (New Version 2021),2021.1.4,120.227133
,,,,,,,,,,,,,,,,,,,,,,,,,,,,,,,,,,,,,,,,,,,,,,,,,,,,,,,,,,,,,,,,,,,,,,261.2694081,None,space,0.6782937,261.7639719,None,,,,,,,,,,,,,,,,,,,,,,,,,P002,fencog,2,Pre,2021_Jun_28_1114,N-Back (New Version 2021),2021.1.4,120.227133
,,,,,,,,,,,,,,,,,,,,,,,,,,,,,,,,,,,,,,,,,,,,,,,,,,,,,,,,,,,,,,,,,,,,,,,,,,,,262.4741938,None,space,0.3257337,262.9639593,None,,,,,,,,,,,,,,,,,,,P002,fencog,2,Pre,2021_Jun_28_1114,N-Back (New Version 2021),2021.1.4,120.227133
,,,,Conditions/Version_1/zeroback(1)_v1.xlsx,Rule: Press 'space' when you see the letter 'x' or 'X'.,b,None,,,,,,,,,0,0,0,0,0,0,0,0,,,,,,,,,,,,,,,,,,,,,,,,,,,,,,,,,,,,,,,,,,,,,,,,,,,,,,,,,,,263.3981291,None,266.3805223,None,space,0.5886686,266.3805223,None,263.3981291,None,1.6796,268.6733674,None,None,1,268.6733674,None,,P002,fencog,2,Pre,2021_Jun_28_1114,N-Back (New Version 2021),2021.1.4,120.227133
,,,,Conditions/Version_1/zeroback(1)_v1.xlsx,Rule: Press 'space' when you see the letter 'x' or 'X'.,T,None,,,,,,,,,0,0,0,0,0,1,1,1,,,,,,,,,,,,,,,,,,,,,,,,,,,,,,,,,,,,,,,,,,,,,,,,,,,,,,,,,,,,,,,,,,,,,1.3758,272.0624064,None,None,1,272.0624064,None,,P002,fencog,2,Pre,2021_Jun_28_1114,N-Back (New Version 2021),2021.1.4,120.227133
,,,,Conditions/Version_1/zeroback(1)_v1.xlsx,Rule: Press 'space' when you see the letter 'x' or 'X'.,L,None,,,,,,,,,0,0,0,0,0,2,2,2,,,,,,,,,,,,,,,,,,,,,,,,,,,,,,,,,,,,,,,,,,,,,,,,,,,,,,,,,,,,,,,,,,,,,1.6238,275.6937548,None,None,1,275.6937548,None,,P002,fencog,2,Pre,2021_Jun_28_1114,N-Back (New Version 2021),2021.1.4,120.227133
,,,,Conditions/Version_1/zeroback(1)_v1.xlsx,Rule: Press 'space' when you see the letter 'x' or 'X'.,x,space,,,,,,,,,0,0,0,0,0,3,3,3,,,,,,,,,,,,,,,,,,,,,,,,,,,,,,,,,,,,,,,,,,,,,,,,,,,,,,,,,,,,,,,,,,,,,1.4564,279.1593368,None,space,1,279.1593368,None,1.9780141,P002,fencog,2,Pre,2021_Jun_28_1114,N-Back (New Version 2021),2021.1.4,120.227133
,,,,Conditions/Version_1/zeroback(1)_v1.xlsx,Rule: Press 'space' when you see the letter 'x' or 'X'.,o,None,,,,,,,,,0,0,0,0,0,4,4,4,,,,,,,,,,,,,,,,,,,,,,,,,,,,,,,,,,,,,,,,,,,,,,,,,,,,,,,,,,,,,,,,,,,,,1.1774,282.3410267,None,None,1,282.3410267,None,,P002,fencog,2,Pre,2021_Jun_28_1114,N-Back (New Version 2021),2021.1.4,120.227133
,,,,Conditions/Version_1/zeroback(1)_v1.xlsx,Rule: Press 'space' when you see the letter 'x' or 'X'.,P,None,,,,,,,,,0,0,0,0,0,5,5,5,,,,,,,,,,,,,,,,,,,,,,,,,,,,,,,,,,,,,,,,,,,,,,,,,,,,,,,,,,,,,,,,,,,,,1.7912,286.131451,None,None,1,286.131451,None,,P002,fencog,2,Pre,2021_Jun_28_1114,N-Back (New Version 2021),2021.1.4,120.227133
,,,,Conditions/Version_1/zeroback(1)_v1.xlsx,Rule: Press 'space' when you see the letter 'x' or 'X'.,X,space,,,,,,,,,0,0,0,0,0,6,6,6,,,,,,,,,,,,,,,,,,,,,,,,,,,,,,,,,,,,,,,,,,,,,,,,,,,,,,,,,,,,,,,,,,,,,1.2022,289.3455272,None,space,1,289.3455272,None,1.6237159,P002,fencog,2,Pre,2021_Jun_28_1114,N-Back (New Version 2021),2021.1.4,120.227133
,,,,Conditions/Version_1/zeroback(1)_v1.xlsx,Rule: Press 'space' when you see the letter 'x' or 'X'.,n,None,,,,,,,,,0,0,0,0,0,7,7,7,,,,,,,,,,,,,,,,,,,,,,,,,,,,,,,,,,,,,,,,,,,,,,,,,,,,,,,,,,,,,,,,,,,,,1.041,292.3884893,None,None,1,292.3884893,None,,P002,fencog,2,Pre,2021_Jun_28_1114,N-Back (New Version 2021),2021.1.4,120.227133
,,,,Conditions/Version_1/zeroback(1)_v1.xlsx,Rule: Press 'space' when you see the letter 'x' or 'X'.,M,None,,,,,,,,,0,0,0,0,0,8,8,8,,,,,,,,,,,,,,,,,,,,,,,,,,,,,,,,,,,,,,,,,,,,,,,,,,,,,,,,,,,,,,,,,,,,,1.0906,295.4917342,None,None,1,295.4917342,None,,P002,fencog,2,Pre,2021_Jun_28_1114,N-Back (New Version 2021),2021.1.4,120.227133
,,,,Conditions/Version_1/zeroback(1)_v1.xlsx,Rule: Press 'space' when you see the letter 'x' or 'X'.,a,None,,,,,,,,,0,0,0,0,0,9,9,9,,,,,,,,,,,,,,,,,,,,,,,,,,,,,,,,,,,,,,,,,,,,,,,,,,,,,,,,,,,,,,,,,,,,,1.3386,298.8369092,None,None,1,298.8369092,None,,P002,fencog,2,Pre,2021_Jun_28_1114,N-Back (New Version 2021),2021.1.4,120.227133
,,,,Conditions/Version_1/zeroback(1)_v1.xlsx,Rule: Press 'space' when you see the letter 'x' or 'X'.,,,,,,,,,,,0,0,0,0,,,,,,,,,,,,,,,,,,,,,,,,,,,,,,,,,,,,,,,,,,,,,,,,,,,,,,,,,,,,,,,,,,,,,,,,,,,,,,,,,P002,fencog,2,Pre,2021_Jun_28_1114,N-Back (New Version 2021),2021.1.4,120.227133
,,,,Conditions/Version_1/oneback(1)_v1.xlsx,New rule: Press 'space' when you see 1-back (i.e. the same letter as the one that appeared 1 letter ago.),b,None,,,,,,,,,0,1,1,1,0,0,0,0,,,,,,,,,,,,,,,,,,,,,,,,,,,,,,,,,,,,,,,,,,,,,,,,,,,,,,,,,,,300.8644806,None,303.8439854,None,space,1.1812079,303.8439854,None,300.8644806,None,1.6052,306.6551881,None,None,1,306.6551881,None,,P002,fencog,2,Pre,2021_Jun_28_1114,N-Back (New Version 2021),2021.1.4,120.227133
,,,,Conditions/Version_1/oneback(1)_v1.xlsx,New rule: Press 'space' when you see 1-back (i.e. the same letter as the one that appeared 1 letter ago.),p,None,,,,,,,,,0,1,1,1,0,1,1,1,,,,,,,,,,,,,,,,,,,,,,,,,,,,,,,,,,,,,,,,,,,,,,,,,,,,,,,,,,,,,,,,,,,,,1.0658,309.7257849,None,None,1,309.7257849,None,,P002,fencog,2,Pre,2021_Jun_28_1114,N-Back (New Version 2021),2021.1.4,120.227133
,,,,Conditions/Version_1/oneback(1)_v1.xlsx,New rule: Press 'space' when you see 1-back (i.e. the same letter as the one that appeared 1 letter ago.),M,None,,,,,,,,,0,1,1,1,0,2,2,2,,,,,,,,,,,,,,,,,,,,,,,,,,,,,,,,,,,,,,,,,,,,,,,,,,,,,,,,,,,,,,,,,,,,,1.661,313.3982964,None,None,1,313.3982964,None,,P002,fencog,2,Pre,2021_Jun_28_1114,N-Back (New Version 2021),2021.1.4,120.227133
,,,,Conditions/Version_1/oneback(1)_v1.xlsx,New rule: Press 'space' when you see 1-back (i.e. the same letter as the one that appeared 1 letter ago.),M,space,,,,,,,,,0,1,1,1,0,3,3,3,,,,,,,,,,,,,,,,,,,,,,,,,,,,,,,,,,,,,,,,,,,,,,,,,,,,,,,,,,,,,,,,,,,,,1.7354,317.1389072,None,space,1,317.1389072,None,1.702624,P002,fencog,2,Pre,2021_Jun_28_1114,N-Back (New Version 2021),2021.1.4,120.227133
,,,,Conditions/Version_1/oneback(1)_v1.xlsx,New rule: Press 'space' when you see 1-back (i.e. the same letter as the one that appeared 1 letter ago.),n,None,,,,,,,,,0,1,1,1,0,4,4,4,,,,,,,,,,,,,,,,,,,,,,,,,,,,,,,,,,,,,,,,,,,,,,,,,,,,,,,,,,,,,,,,,,,,,1.0844,320.2296503,None,None,1,320.2296503,None,,P002,fencog,2,Pre,2021_Jun_28_1114,N-Back (New Version 2021),2021.1.4,120.227133
,,,,Conditions/Version_1/oneback(1)_v1.xlsx,New rule: Press 'space' when you see 1-back (i.e. the same letter as the one that appeared 1 letter ago.),g,None,,,,,,,,,0,1,1,1,0,5,5,5,,,,,,,,,,,,,,,,,,,,,,,,,,,,,,,,,,,,,,,,,,,,,,,,,,,,,,,,,,,,,,,,,,,,,1.1836,323.4237112,None,None,1,323.4237112,None,,P002,fencog,2,Pre,2021_Jun_28_1114,N-Back (New Version 2021),2021.1.4,120.227133
,,,,Conditions/Version_1/oneback(1)_v1.xlsx,New rule: Press 'space' when you see 1-back (i.e. the same letter as the one that appeared 1 letter ago.),P,None,,,,,,,,,0,1,1,1,0,6,6,6,,,,,,,,,,,,,,,,,,,,,,,,,,,,,,,,,,,,,,,,,,,,,,,,,,,,,,,,,,,,,,,,,,,,,1.8594,327.2942751,None,None,1,327.2942751,None,,P002,fencog,2,Pre,2021_Jun_28_1114,N-Back (New Version 2021),2021.1.4,120.227133
,,,,Conditions/Version_1/oneback(1)_v1.xlsx,New rule: Press 'space' when you see 1-back (i.e. the same letter as the one that appeared 1 letter ago.),o,None,,,,,,,,,0,1,1,1,0,7,7,7,,,,,,,,,,,,,,,,,,,,,,,,,,,,,,,,,,,,,,,,,,,,,,,,,,,,,,,,,,,,,,,,,,,,,1.3014,330.6013129,None,None,1,330.6013129,None,,P002,fencog,2,Pre,2021_Jun_28_1114,N-Back (New Version 2021),2021.1.4,120.227133
,,,,Conditions/Version_1/oneback(1)_v1.xlsx,New rule: Press 'space' when you see 1-back (i.e. the same letter as the one that appeared 1 letter ago.),f,None,,,,,,,,,0,1,1,1,0,8,8,8,,,,,,,,,,,,,,,,,,,,,,,,,,,,,,,,,,,,,,,,,,,,,,,,,,,,,,,,,,,,,,,,,,,,,1.289,333.8940622,None,None,1,333.8940622,None,,P002,fencog,2,Pre,2021_Jun_28_1114,N-Back (New Version 2021),2021.1.4,120.227133
,,,,Conditions/Version_1/oneback(1)_v1.xlsx,New rule: Press 'space' when you see 1-back (i.e. the same letter as the one that appeared 1 letter ago.),F,space,,,,,,,,,0,1,1,1,0,9,9,9,,,,,,,,,,,,,,,,,,,,,,,,,,,,,,,,,,,,,,,,,,,,,,,,,,,,,,,,,,,,,,,,,,,,,1.0286,336.9352745,None,space,1,336.9352745,None,0.7858403,P002,fencog,2,Pre,2021_Jun_28_1114,N-Back (New Version 2021),2021.1.4,120.227133
,,,,Conditions/Version_1/oneback(1)_v1.xlsx,New rule: Press 'space' when you see 1-back (i.e. the same letter as the one that appeared 1 letter ago.),,,,,,,,,,,0,1,1,1,,,,,,,,,,,,,,,,,,,,,,,,,,,,,,,,,,,,,,,,,,,,,,,,,,,,,,,,,,,,,,,,,,,,,,,,,,,,,,,,,P002,fencog,2,Pre,2021_Jun_28_1114,N-Back (New Version 2021),2021.1.4,120.227133
,,,,Conditions/Version_1/twoback(1)_v1.xlsx,New rule: Press 'space' when you see 2-back (i.e. the same letter as the one that appeared 2 letters ago.),b,None,,,,,,,,,0,2,2,2,0,0,0,0,,,,,,,,,,,,,,,,,,,,,,,,,,,,,,,,,,,,,,,,,,,,,,,,,,,,,,,,,,,338.9668493,None,341.9416486,None,space,0.7712078,341.9416486,None,338.9668493,None,1.1588,343.9000587,None,None,1,343.9000587,None,,P002,fencog,2,Pre,2021_Jun_28_1114,N-Back (New Version 2021),2021.1.4,120.227133
,,,,Conditions/Version_1/twoback(1)_v1.xlsx,New rule: Press 'space' when you see 2-back (i.e. the same letter as the one that appeared 2 letters ago.),h,None,,,,,,,,,0,2,2,2,0,1,1,1,,,,,,,,,,,,,,,,,,,,,,,,,,,,,,,,,,,,,,,,,,,,,,,,,,,,,,,,,,,,,,,,,,,,,1.5246,347.4316234,None,None,1,347.4316234,None,,P002,fencog,2,Pre,2021_Jun_28_1114,N-Back (New Version 2021),2021.1.4,120.227133
,,,,Conditions/Version_1/twoback(1)_v1.xlsx,New rule: Press 'space' when you see 2-back (i.e. the same letter as the one that appeared 2 letters ago.),j,None,,,,,,,,,0,2,2,2,0,2,2,2,,,,,,,,,,,,,,,,,,,,,,,,,,,,,,,,,,,,,,,,,,,,,,,,,,,,,,,,,,,,,,,,,,,,,1.134,350.5767281,None,None,1,350.5767281,None,,P002,fencog,2,Pre,2021_Jun_28_1114,N-Back (New Version 2021),2021.1.4,120.227133
,,,,Conditions/Version_1/twoback(1)_v1.xlsx,New rule: Press 'space' when you see 2-back (i.e. the same letter as the one that appeared 2 letters ago.),H,space,,,,,,,,,0,2,2,2,0,3,3,3,,,,,,,,,,,,,,,,,,,,,,,,,,,,,,,,,,,,,,,,,,,,,,,,,,,,,,,,,,,,,,,,,,,,,1.6548,354.2374365,None,space,1,354.2374365,None,1.5954492,P002,fencog,2,Pre,2021_Jun_28_1114,N-Back (New Version 2021),2021.1.4,120.227133
,,,,Conditions/Version_1/twoback(1)_v1.xlsx,New rule: Press 'space' when you see 2-back (i.e. the same letter as the one that appeared 2 letters ago.),p,None,,,,,,,,,0,2,2,2,0,4,4,4,,,,,,,,,,,,,,,,,,,,,,,,,,,,,,,,,,,,,,,,,,,,,,,,,,,,,,,,,,,,,,,,,,,,,1.6052,357.8527679,None,None,1,357.8527679,None,,P002,fencog,2,Pre,2021_Jun_28_1114,N-Back (New Version 2021),2021.1.4,120.227133
,,,,Conditions/Version_1/twoback(1)_v1.xlsx,New rule: Press 'space' when you see 2-back (i.e. the same letter as the one that appeared 2 letters ago.),p,None,,,,,,,,,0,2,2,2,0,5,5,5,,,,,,,,,,,,,,,,,,,,,,,,,,,,,,,,,,,,,,,,,,,,,,,,,,,,,,,,,,,,,,,,,,,,,1.8904,361.7508731,None,space,0,361.7508731,None,0.4018638,P002,fencog,2,Pre,2021_Jun_28_1114,N-Back (New Version 2021),2021.1.4,120.227133
,,,,Conditions/Version_1/twoback(1)_v1.xlsx,New rule: Press 'space' when you see 2-back (i.e. the same letter as the one that appeared 2 letters ago.),w,None,,,,,,,,,0,2,2,2,0,6,6,6,,,,,,,,,,,,,,,,,,,,,,,,,,,,,,,,,,,,,,,,,,,,,,,,,,,,,,,,,,,,,,,,,,,,,1.1154,364.8693375,None,None,1,364.8693375,None,,P002,fencog,2,Pre,2021_Jun_28_1114,N-Back (New Version 2021),2021.1.4,120.227133
,,,,Conditions/Version_1/twoback(1)_v1.xlsx,New rule: Press 'space' when you see 2-back (i.e. the same letter as the one that appeared 2 letters ago.),R,None,,,,,,,,,0,2,2,2,0,7,7,7,,,,,,,,,,,,,,,,,,,,,,,,,,,,,,,,,,,,,,,,,,,,,,,,,,,,,,,,,,,,,,,,,,,,,1.165,368.0402111,None,None,1,368.0402111,None,,P002,fencog,2,Pre,2021_Jun_28_1114,N-Back (New Version 2021),2021.1.4,120.227133
,,,,Conditions/Version_1/twoback(1)_v1.xlsx,New rule: Press 'space' when you see 2-back (i.e. the same letter as the one that appeared 2 letters ago.),a,None,,,,,,,,,0,2,2,2,0,8,8,8,,,,,,,,,,,,,,,,,,,,,,,,,,,,,,,,,,,,,,,,,,,,,,,,,,,,,,,,,,,,,,,,,,,,,1.723,371.765104,None,None,1,371.765104,None,,P002,fencog,2,Pre,2021_Jun_28_1114,N-Back (New Version 2021),2021.1.4,120.227133
,,,,Conditions/Version_1/twoback(1)_v1.xlsx,New rule: Press 'space' when you see 2-back (i.e. the same letter as the one that appeared 2 letters ago.),r,space,,,,,,,,,0,2,2,2,0,9,9,9,,,,,,,,,,,,,,,,,,,,,,,,,,,,,,,,,,,,,,,,,,,,,,,,,,,,,,,,,,,,,,,,,,,,,1.0782,374.857216,None,space,1,374.857216,None,1.5996487,P002,fencog,2,Pre,2021_Jun_28_1114,N-Back (New Version 2021),2021.1.4,120.227133
,,,,Conditions/Version_1/twoback(1)_v1.xlsx,New rule: Press 'space' when you see 2-back (i.e. the same letter as the one that appeared 2 letters ago.),,,,,,,,,,,0,2,2,2,,,,,,,,,,,,,,,,,,,,,,,,,,,,,,,,,,,,,,,,,,,,,,,,,,,,,,,,,,,,,,,,,,,,,,,,,,,,,,,,,P002,fencog,2,Pre,2021_Jun_28_1114,N-Back (New Version 2021),2021.1.4,120.227133
,,,,Conditions/Version_1/threeback(1)_v1.xlsx,New rule: Press 'space' when you see 3-back (i.e. the same letter as the one that appeared 3 letters ago.),r,None,,,,,,,,,0,3,3,3,0,0,0,0,,,,,,,,,,,,,,,,,,,,,,,,,,,,,,,,,,,,,,,,,,,,,,,,,,,,,,,,,,,376.8835805,None,379.8718764,None,space,30.753087,379.8718764,None,376.8835805,None,1.8036,412.4523524,None,None,1,412.4523524,None,,P002,fencog,2,Pre,2021_Jun_28_1114,N-Back (New Version 2021),2021.1.4,120.227133
,,,,Conditions/Version_1/threeback(1)_v1.xlsx,New rule: Press 'space' when you see 3-back (i.e. the same letter as the one that appeared 3 letters ago.),o,None,,,,,,,,,0,3,3,3,0,1,1,1,,,,,,,,,,,,,,,,,,,,,,,,,,,,,,,,,,,,,,,,,,,,,,,,,,,,,,,,,,,,,,,,,,,,,1.4316,415.8859413,None,None,1,415.8859413,None,,P002,fencog,2,Pre,2021_Jun_28_1114,N-Back (New Version 2021),2021.1.4,120.227133
,,,,Conditions/Version_1/threeback(1)_v1.xlsx,New rule: Press 'space' when you see 3-back (i.e. the same letter as the one that appeared 3 letters ago.),P,None,,,,,,,,,0,3,3,3,0,2,2,2,,,,,,,,,,,,,,,,,,,,,,,,,,,,,,,,,,,,,,,,,,,,,,,,,,,,,,,,,,,,,,,,,,,,,1.8098,419.7021758,None,None,1,419.7021758,None,,P002,fencog,2,Pre,2021_Jun_28_1114,N-Back (New Version 2021),2021.1.4,120.227133
,,,,Conditions/Version_1/threeback(1)_v1.xlsx,New rule: Press 'space' when you see 3-back (i.e. the same letter as the one that appeared 3 letters ago.),R,space,,,,,,,,,0,3,3,3,0,3,3,3,,,,,,,,,,,,,,,,,,,,,,,,,,,,,,,,,,,,,,,,,,,,,,,,,,,,,,,,,,,,,,,,,,,,,1.1588,422.8670059,None,space,1,422.8670059,None,1.1581118,P002,fencog,2,Pre,2021_Jun_28_1114,N-Back (New Version 2021),2021.1.4,120.227133
,,,,Conditions/Version_1/threeback(1)_v1.xlsx,New rule: Press 'space' when you see 3-back (i.e. the same letter as the one that appeared 3 letters ago.),p,None,,,,,,,,,0,3,3,3,0,4,4,4,,,,,,,,,,,,,,,,,,,,,,,,,,,,,,,,,,,,,,,,,,,,,,,,,,,,,,,,,,,,,,,,,,,,,1.0286,425.9066374,None,space,0,425.9066374,None,0.1582829,P002,fencog,2,Pre,2021_Jun_28_1114,N-Back (New Version 2021),2021.1.4,120.227133
,,,,Conditions/Version_1/threeback(1)_v1.xlsx,New rule: Press 'space' when you see 3-back (i.e. the same letter as the one that appeared 3 letters ago.),E,None,,,,,,,,,0,3,3,3,0,5,5,5,,,,,,,,,,,,,,,,,,,,,,,,,,,,,,,,,,,,,,,,,,,,,,,,,,,,,,,,,,,,,,,,,,,,,1.4068,429.3142894,None,None,1,429.3142894,None,,P002,fencog,2,Pre,2021_Jun_28_1114,N-Back (New Version 2021),2021.1.4,120.227133
,,,,Conditions/Version_1/threeback(1)_v1.xlsx,New rule: Press 'space' when you see 3-back (i.e. the same letter as the one that appeared 3 letters ago.),e,None,,,,,,,,,0,3,3,3,0,6,6,6,,,,,,,,,,,,,,,,,,,,,,,,,,,,,,,,,,,,,,,,,,,,,,,,,,,,,,,,,,,,,,,,,,,,,1.3882,432.7138942,None,space,0,432.7138942,None,1.0951867,P002,fencog,2,Pre,2021_Jun_28_1114,N-Back (New Version 2021),2021.1.4,120.227133
,,,,Conditions/Version_1/threeback(1)_v1.xlsx,New rule: Press 'space' when you see 3-back (i.e. the same letter as the one that appeared 3 letters ago.),m,None,,,,,,,,,0,3,3,3,0,7,7,7,,,,,,,,,,,,,,,,,,,,,,,,,,,,,,,,,,,,,,,,,,,,,,,,,,,,,,,,,,,,,,,,,,,,,1.2084,435.9299593,None,None,1,435.9299593,None,,P002,fencog,2,Pre,2021_Jun_28_1114,N-Back (New Version 2021),2021.1.4,120.227133
,,,,Conditions/Version_1/threeback(1)_v1.xlsx,New rule: Press 'space' when you see 3-back (i.e. the same letter as the one that appeared 3 letters ago.),n,None,,,,,,,,,0,3,3,3,0,8,8,8,,,,,,,,,,,,,,,,,,,,,,,,,,,,,,,,,,,,,,,,,,,,,,,,,,,,,,,,,,,,,,,,,,,,,1.8966,439.8372481,None,None,1,439.8372481,None,,P002,fencog,2,Pre,2021_Jun_28_1114,N-Back (New Version 2021),2021.1.4,120.227133
,,,,Conditions/Version_1/threeback(1)_v1.xlsx,New rule: Press 'space' when you see 3-back (i.e. the same letter as the one that appeared 3 letters ago.),e,space,,,,,,,,,0,3,3,3,0,9,9,9,,,,,,,,,,,,,,,,,,,,,,,,,,,,,,,,,,,,,,,,,,,,,,,,,,,,,,,,,,,,,,,,,,,,,1.878,443.7284796,None,space,1,443.7284796,None,0.7847522,P002,fencog,2,Pre,2021_Jun_28_1114,N-Back (New Version 2021),2021.1.4,120.227133
,,,,Conditions/Version_1/threeback(1)_v1.xlsx,New rule: Press 'space' when you see 3-back (i.e. the same letter as the one that appeared 3 letters ago.),,,,,,,,,,,0,3,3,3,,,,,,,,,,,,,,,,,,,,,,,,,,,,,,,,,,,,,,,,,,,,,,,,,,,,,,,,,,,,,,,,,,,,,,,,,,,,,,,,,P002,fencog,2,Pre,2021_Jun_28_1114,N-Back (New Version 2021),2021.1.4,120.227133
,,,,Conditions/Version_1/oneback(2)_v1.xlsx,New rule: Press 'space' when you see 1-back (i.e. the same letter as the one that appeared 1 letter ago.),q,None,,,,,,,,,0,4,4,4,0,0,0,0,,,,,,,,,,,,,,,,,,,,,,,,,,,,,,,,,,,,,,,,,,,,,,,,,,,,,,,,,,,445.7567834,None,448.7446911,None,space,1.2161698,448.7446911,None,445.7567834,None,1.8222,451.8097947,None,None,1,451.8097947,None,,P002,fencog,2,Pre,2021_Jun_28_1114,N-Back (New Version 2021),2021.1.4,120.227133
,,,,Conditions/Version_1/oneback(2)_v1.xlsx,New rule: Press 'space' when you see 1-back (i.e. the same letter as the one that appeared 1 letter ago.),Q,space,,,,,,,,,0,4,4,4,0,1,1,1,,,,,,,,,,,,,,,,,,,,,,,,,,,,,,,,,,,,,,,,,,,,,,,,,,,,,,,,,,,,,,,,,,,,,1.8904,455.7061744,None,space,1,455.7061744,None,1.1668304,P002,fencog,2,Pre,2021_Jun_28_1114,N-Back (New Version 2021),2021.1.4,120.227133
,,,,Conditions/Version_1/oneback(2)_v1.xlsx,New rule: Press 'space' when you see 1-back (i.e. the same letter as the one that appeared 1 letter ago.),P,None,,,,,,,,,0,4,4,4,0,2,2,2,,,,,,,,,,,,,,,,,,,,,,,,,,,,,,,,,,,,,,,,,,,,,,,,,,,,,,,,,,,,,,,,,,,,,1.2084,458.9134146,None,None,1,458.9134146,None,,P002,fencog,2,Pre,2021_Jun_28_1114,N-Back (New Version 2021),2021.1.4,120.227133
,,,,Conditions/Version_1/oneback(2)_v1.xlsx,New rule: Press 'space' when you see 1-back (i.e. the same letter as the one that appeared 1 letter ago.),o,None,,,,,,,,,0,4,4,4,0,3,3,3,,,,,,,,,,,,,,,,,,,,,,,,,,,,,,,,,,,,,,,,,,,,,,,,,,,,,,,,,,,,,,,,,,,,,1.7974,462.7123183,None,None,1,462.7123183,None,,P002,fencog,2,Pre,2021_Jun_28_1114,N-Back (New Version 2021),2021.1.4,120.227133
,,,,Conditions/Version_1/oneback(2)_v1.xlsx,New rule: Press 'space' when you see 1-back (i.e. the same letter as the one that appeared 1 letter ago.),m,None,,,,,,,,,0,4,4,4,0,4,4,4,,,,,,,,,,,,,,,,,,,,,,,,,,,,,,,,,,,,,,,,,,,,,,,,,,,,,,,,,,,,,,,,,,,,,1.4068,466.121838,None,None,1,466.121838,None,,P002,fencog,2,Pre,2021_Jun_28_1114,N-Back (New Version 2021),2021.1.4,120.227133
,,,,Conditions/Version_1/oneback(2)_v1.xlsx,New rule: Press 'space' when you see 1-back (i.e. the same letter as the one that appeared 1 letter ago.),Z,None,,,,,,,,,0,4,4,4,0,5,5,5,,,,,,,,,,,,,,,,,,,,,,,,,,,,,,,,,,,,,,,,,,,,,,,,,,,,,,,,,,,,,,,,,,,,,1.4564,469.587737,None,None,1,469.587737,None,,P002,fencog,2,Pre,2021_Jun_28_1114,N-Back (New Version 2021),2021.1.4,120.227133
,,,,Conditions/Version_1/oneback(2)_v1.xlsx,New rule: Press 'space' when you see 1-back (i.e. the same letter as the one that appeared 1 letter ago.),c,None,,,,,,,,,0,4,4,4,0,6,6,6,,,,,,,,,,,,,,,,,,,,,,,,,,,,,,,,,,,,,,,,,,,,,,,,,,,,,,,,,,,,,,,,,,,,,1.5184,473.1192996,None,None,1,473.1192996,None,,P002,fencog,2,Pre,2021_Jun_28_1114,N-Back (New Version 2021),2021.1.4,120.227133
,,,,Conditions/Version_1/oneback(2)_v1.xlsx,New rule: Press 'space' when you see 1-back (i.e. the same letter as the one that appeared 1 letter ago.),c,space,,,,,,,,,0,4,4,4,0,7,7,7,,,,,,,,,,,,,,,,,,,,,,,,,,,,,,,,,,,,,,,,,,,,,,,,,,,,,,,,,,,,,,,,,,,,,1.103,476.2334943,None,space,1,476.2334943,None,0.8316979,P002,fencog,2,Pre,2021_Jun_28_1114,N-Back (New Version 2021),2021.1.4,120.227133
,,,,Conditions/Version_1/oneback(2)_v1.xlsx,New rule: Press 'space' when you see 1-back (i.e. the same letter as the one that appeared 1 letter ago.),P,None,,,,,,,,,0,4,4,4,0,8,8,8,,,,,,,,,,,,,,,,,,,,,,,,,,,,,,,,,,,,,,,,,,,,,,,,,,,,,,,,,,,,,,,,,,,,,1.5928,479.8344006,None,None,1,479.8344006,None,,P002,fencog,2,Pre,2021_Jun_28_1114,N-Back (New Version 2021),2021.1.4,120.227133
,,,,Conditions/Version_1/oneback(2)_v1.xlsx,New rule: Press 'space' when you see 1-back (i.e. the same letter as the one that appeared 1 letter ago.),p,space,,,,,,,,,0,4,4,4,0,9,9,9,,,,,,,,,,,,,,,,,,,,,,,,,,,,,,,,,,,,,,,,,,,,,,,,,,,,,,,,,,,,,,,,,,,,,1.9772,483.8289856,None,space,1,483.8289856,None,1.1798653,P002,fencog,2,Pre,2021_Jun_28_1114,N-Back (New Version 2021),2021.1.4,120.227133
,,,,Conditions/Version_1/oneback(2)_v1.xlsx,New rule: Press 'space' when you see 1-back (i.e. the same letter as the one that appeared 1 letter ago.),,,,,,,,,,,0,4,4,4,,,,,,,,,,,,,,,,,,,,,,,,,,,,,,,,,,,,,,,,,,,,,,,,,,,,,,,,,,,,,,,,,,,,,,,,,,,,,,,,,P002,fencog,2,Pre,2021_Jun_28_1114,N-Back (New Version 2021),2021.1.4,120.227133
,,,,Conditions/Version_1/zeroback(2)_v1.xlsx,New rule: Press 'space' when you see the letter 'x' or 'X'.,p,None,,,,,,,,,0,5,5,5,0,0,0,0,,,,,,,,,,,,,,,,,,,,,,,,,,,,,,,,,,,,,,,,,,,,,,,,,,,,,,,,,,,485.8507368,None,488.8397618,None,space,0.5449805,488.8397618,None,485.8507368,None,1.3076,490.7126332,None,None,1,490.7126332,None,,P002,fencog,2,Pre,2021_Jun_28_1114,N-Back (New Version 2021),2021.1.4,120.227133
,,,,Conditions/Version_1/zeroback(2)_v1.xlsx,New rule: Press 'space' when you see the letter 'x' or 'X'.,L,None,,,,,,,,,0,5,5,5,0,1,1,1,,,,,,,,,,,,,,,,,,,,,,,,,,,,,,,,,,,,,,,,,,,,,,,,,,,,,,,,,,,,,,,,,,,,,1.3448,494.0626121,None,None,1,494.0626121,None,,P002,fencog,2,Pre,2021_Jun_28_1114,N-Back (New Version 2021),2021.1.4,120.227133
,,,,Conditions/Version_1/zeroback(2)_v1.xlsx,New rule: Press 'space' when you see the letter 'x' or 'X'.,G,None,,,,,,,,,0,5,5,5,0,2,2,2,,,,,,,,,,,,,,,,,,,,,,,,,,,,,,,,,,,,,,,,,,,,,,,,,,,,,,,,,,,,,,,,,,,,,1.6982,497.7702089,None,None,1,497.7702089,None,,P002,fencog,2,Pre,2021_Jun_28_1114,N-Back (New Version 2021),2021.1.4,120.227133
,,,,Conditions/Version_1/zeroback(2)_v1.xlsx,New rule: Press 'space' when you see the letter 'x' or 'X'.,y,None,,,,,,,,,0,5,5,5,0,3,3,3,,,,,,,,,,,,,,,,,,,,,,,,,,,,,,,,,,,,,,,,,,,,,,,,,,,,,,,,,,,,,,,,,,,,,1.3944,501.177597,None,None,1,501.177597,None,,P002,fencog,2,Pre,2021_Jun_28_1114,N-Back (New Version 2021),2021.1.4,120.227133
,,,,Conditions/Version_1/zeroback(2)_v1.xlsx,New rule: Press 'space' when you see the letter 'x' or 'X'.,Y,None,,,,,,,,,0,5,5,5,0,4,4,4,,,,,,,,,,,,,,,,,,,,,,,,,,,,,,,,,,,,,,,,,,,,,,,,,,,,,,,,,,,,,,,,,,,,,1.909,505.0998416,None,None,1,505.0998416,None,,P002,fencog,2,Pre,2021_Jun_28_1114,N-Back (New Version 2021),2021.1.4,120.227133
,,,,Conditions/Version_1/zeroback(2)_v1.xlsx,New rule: Press 'space' when you see the letter 'x' or 'X'.,W,None,,,,,,,,,0,5,5,5,0,5,5,5,,,,,,,,,,,,,,,,,,,,,,,,,,,,,,,,,,,,,,,,,,,,,,,,,,,,,,,,,,,,,,,,,,,,,1.9524,509.0586152,None,None,1,509.0586152,None,,P002,fencog,2,Pre,2021_Jun_28_1114,N-Back (New Version 2021),2021.1.4,120.227133
,,,,Conditions/Version_1/zeroback(2)_v1.xlsx,New rule: Press 'space' when you see the letter 'x' or 'X'.,x,space,,,,,,,,,0,5,5,5,0,6,6,6,,,,,,,,,,,,,,,,,,,,,,,,,,,,,,,,,,,,,,,,,,,,,,,,,,,,,,,,,,,,,,,,,,,,,1.2704,512.3403654,None,space,1,512.3403654,None,1.0361841,P002,fencog,2,Pre,2021_Jun_28_1114,N-Back (New Version 2021),2021.1.4,120.227133
,,,,Conditions/Version_1/zeroback(2)_v1.xlsx,New rule: Press 'space' when you see the letter 'x' or 'X'.,X,space,,,,,,,,,0,5,5,5,0,7,7,7,,,,,,,,,,,,,,,,,,,,,,,,,,,,,,,,,,,,,,,,,,,,,,,,,,,,,,,,,,,,,,,,,,,,,1.3696,515.7256285,None,space,1,515.7256285,None,1.4112313,P002,fencog,2,Pre,2021_Jun_28_1114,N-Back (New Version 2021),2021.1.4,120.227133
,,,,Conditions/Version_1/zeroback(2)_v1.xlsx,New rule: Press 'space' when you see the letter 'x' or 'X'.,p,None,,,,,,,,,0,5,5,5,0,8,8,8,,,,,,,,,,,,,,,,,,,,,,,,,,,,,,,,,,,,,,,,,,,,,,,,,,,,,,,,,,,,,,,,,,,,,1.4006,519.131269,None,None,1,519.131269,None,,P002,fencog,2,Pre,2021_Jun_28_1114,N-Back (New Version 2021),2021.1.4,120.227133
,,,,Conditions/Version_1/zeroback(2)_v1.xlsx,New rule: Press 'space' when you see the letter 'x' or 'X'.,h,None,,,,,,,,,0,5,5,5,0,9,9,9,,,,,,,,,,,,,,,,,,,,,,,,,,,,,,,,,,,,,,,,,,,,,,,,,,,,,,,,,,,,,,,,,,,,,1.6424,522.7864405,None,None,1,522.7864405,None,,P002,fencog,2,Pre,2021_Jun_28_1114,N-Back (New Version 2021),2021.1.4,120.227133
,,,,Conditions/Version_1/zeroback(2)_v1.xlsx,New rule: Press 'space' when you see the letter 'x' or 'X'.,,,,,,,,,,,0,5,5,5,,,,,,,,,,,,,,,,,,,,,,,,,,,,,,,,,,,,,,,,,,,,,,,,,,,,,,,,,,,,,,,,,,,,,,,,,,,,,,,,,P002,fencog,2,Pre,2021_Jun_28_1114,N-Back (New Version 2021),2021.1.4,120.227133
,,,,Conditions/Version_1/threeback(2)_v1.xlsx,New rule: Press 'space' when you see 3-back (i.e. the same letter as the one that appeared 3 letters ago.),q,None,,,,,,,,,0,6,6,6,0,0,0,0,,,,,,,,,,,,,,,,,,,,,,,,,,,,,,,,,,,,,,,,,,,,,,,,,,,,,,,,,,,524.8166745,None,527.804685,None,space,0.4839359,527.804685,None,524.8166745,None,1.8222,530.1341728,None,None,1,530.1341728,None,,P002,fencog,2,Pre,2021_Jun_28_1114,N-Back (New Version 2021),2021.1.4,120.227133
,,,,Conditions/Version_1/threeback(2)_v1.xlsx,New rule: Press 'space' when you see 3-back (i.e. the same letter as the one that appeared 3 letters ago.),Y,None,,,,,,,,,0,6,6,6,0,1,1,1,,,,,,,,,,,,,,,,,,,,,,,,,,,,,,,,,,,,,,,,,,,,,,,,,,,,,,,,,,,,,,,,,,,,,1.2704,533.4104398,None,None,1,533.4104398,None,,P002,fencog,2,Pre,2021_Jun_28_1114,N-Back (New Version 2021),2021.1.4,120.227133
,,,,Conditions/Version_1/threeback(2)_v1.xlsx,New rule: Press 'space' when you see 3-back (i.e. the same letter as the one that appeared 3 letters ago.),p,None,,,,,,,,,0,6,6,6,0,2,2,2,,,,,,,,,,,,,,,,,,,,,,,,,,,,,,,,,,,,,,,,,,,,,,,,,,,,,,,,,,,,,,,,,,,,,1.9586,537.373564,None,None,1,537.373564,None,,P002,fencog,2,Pre,2021_Jun_28_1114,N-Back (New Version 2021),2021.1.4,120.227133
,,,,Conditions/Version_1/threeback(2)_v1.xlsx,New rule: Press 'space' when you see 3-back (i.e. the same letter as the one that appeared 3 letters ago.),p,None,,,,,,,,,0,6,6,6,0,3,3,3,,,,,,,,,,,,,,,,,,,,,,,,,,,,,,,,,,,,,,,,,,,,,,,,,,,,,,,,,,,,,,,,,,,,,1.4378,540.8142311,None,None,1,540.8142311,None,,P002,fencog,2,Pre,2021_Jun_28_1114,N-Back (New Version 2021),2021.1.4,120.227133
,,,,Conditions/Version_1/threeback(2)_v1.xlsx,New rule: Press 'space' when you see 3-back (i.e. the same letter as the one that appeared 3 letters ago.),y,space,,,,,,,,,0,6,6,6,0,4,4,4,,,,,,,,,,,,,,,,,,,,,,,,,,,,,,,,,,,,,,,,,,,,,,,,,,,,,,,,,,,,,,,,,,,,,1.041,543.8558296,None,space,1,543.8558296,None,0.7051176,P002,fencog,2,Pre,2021_Jun_28_1114,N-Back (New Version 2021),2021.1.4,120.227133
,,,,Conditions/Version_1/threeback(2)_v1.xlsx,New rule: Press 'space' when you see 3-back (i.e. the same letter as the one that appeared 3 letters ago.),u,None,,,,,,,,,0,6,6,6,0,5,5,5,,,,,,,,,,,,,,,,,,,,,,,,,,,,,,,,,,,,,,,,,,,,,,,,,,,,,,,,,,,,,,,,,,,,,1.1774,547.0465312,None,None,1,547.0465312,None,,P002,fencog,2,Pre,2021_Jun_28_1114,N-Back (New Version 2021),2021.1.4,120.227133
,,,,Conditions/Version_1/threeback(2)_v1.xlsx,New rule: Press 'space' when you see 3-back (i.e. the same letter as the one that appeared 3 letters ago.),P,space,,,,,,,,,0,6,6,6,0,6,6,6,,,,,,,,,,,,,,,,,,,,,,,,,,,,,,,,,,,,,,,,,,,,,,,,,,,,,,,,,,,,,,,,,,,,,1.8036,550.8552221,None,space,1,550.8552221,None,0.961495,P002,fencog,2,Pre,2021_Jun_28_1114,N-Back (New Version 2021),2021.1.4,120.227133
,,,,Conditions/Version_1/threeback(2)_v1.xlsx,New rule: Press 'space' when you see 3-back (i.e. the same letter as the one that appeared 3 letters ago.),a,None,,,,,,,,,0,6,6,6,0,7,7,7,,,,,,,,,,,,,,,,,,,,,,,,,,,,,,,,,,,,,,,,,,,,,,,,,,,,,,,,,,,,,,,,,,,,,1.847,554.717684,None,None,1,554.717684,None,,P002,fencog,2,Pre,2021_Jun_28_1114,N-Back (New Version 2021),2021.1.4,120.227133
,,,,Conditions/Version_1/threeback(2)_v1.xlsx,New rule: Press 'space' when you see 3-back (i.e. the same letter as the one that appeared 3 letters ago.),U,space,,,,,,,,,0,6,6,6,0,8,8,8,,,,,,,,,,,,,,,,,,,,,,,,,,,,,,,,,,,,,,,,,,,,,,,,,,,,,,,,,,,,,,,,,,,,,1.6486,558.3674221,None,space,1,558.3674221,None,0.7773526,P002,fencog,2,Pre,2021_Jun_28_1114,N-Back (New Version 2021),2021.1.4,120.227133
,,,,Conditions/Version_1/threeback(2)_v1.xlsx,New rule: Press 'space' when you see 3-back (i.e. the same letter as the one that appeared 3 letters ago.),q,None,,,,,,,,,0,6,6,6,0,9,9,9,,,,,,,,,,,,,,,,,,,,,,,,,,,,,,,,,,,,,,,,,,,,,,,,,,,,,,,,,,,,,,,,,,,,,1.7912,562.1580068,None,None,1,562.1580068,None,,P002,fencog,2,Pre,2021_Jun_28_1114,N-Back (New Version 2021),2021.1.4,120.227133
,,,,Conditions/Version_1/threeback(2)_v1.xlsx,New rule: Press 'space' when you see 3-back (i.e. the same letter as the one that appeared 3 letters ago.),,,,,,,,,,,0,6,6,6,,,,,,,,,,,,,,,,,,,,,,,,,,,,,,,,,,,,,,,,,,,,,,,,,,,,,,,,,,,,,,,,,,,,,,,,,,,,,,,,,P002,fencog,2,Pre,2021_Jun_28_1114,N-Back (New Version 2021),2021.1.4,120.227133
,,,,Conditions/Version_1/twoback(2)_v1.xlsx,New rule: Press 'space' when you see 2-back (i.e. the same letter as the one that appeared 2 letters ago.),q,None,,,,,,,,,0,7,7,7,0,0,0,0,,,,,,,,,,,,,,,,,,,,,,,,,,,,,,,,,,,,,,,,,,,,,,,,,,,,,,,,,,,564.1817323,None,567.1584438,None,space,0.4180951,567.1584438,None,564.1817323,None,1.9152,569.5142687,None,None,1,569.5142687,None,,P002,fencog,2,Pre,2021_Jun_28_1114,N-Back (New Version 2021),2021.1.4,120.227133
,,,,Conditions/Version_1/twoback(2)_v1.xlsx,New rule: Press 'space' when you see 2-back (i.e. the same letter as the one that appeared 2 letters ago.),r,None,,,,,,,,,0,7,7,7,0,1,1,1,,,,,,,,,,,,,,,,,,,,,,,,,,,,,,,,,,,,,,,,,,,,,,,,,,,,,,,,,,,,,,,,,,,,,1.3262,572.8465742,None,None,1,572.8465742,None,,P002,fencog,2,Pre,2021_Jun_28_1114,N-Back (New Version 2021),2021.1.4,120.227133
,,,,Conditions/Version_1/twoback(2)_v1.xlsx,New rule: Press 'space' when you see 2-back (i.e. the same letter as the one that appeared 2 letters ago.),q,space,,,,,,,,,0,7,7,7,0,2,2,2,,,,,,,,,,,,,,,,,,,,,,,,,,,,,,,,,,,,,,,,,,,,,,,,,,,,,,,,,,,,,,,,,,,,,1.6052,576.4536896,None,space,1,576.4536896,None,0.8750646,P002,fencog,2,Pre,2021_Jun_28_1114,N-Back (New Version 2021),2021.1.4,120.227133
,,,,Conditions/Version_1/twoback(2)_v1.xlsx,New rule: Press 'space' when you see 2-back (i.e. the same letter as the one that appeared 2 letters ago.),P,None,,,,,,,,,0,7,7,7,0,3,3,3,,,,,,,,,,,,,,,,,,,,,,,,,,,,,,,,,,,,,,,,,,,,,,,,,,,,,,,,,,,,,,,,,,,,,1.5556,580.0118415,None,None,1,580.0118415,None,,P002,fencog,2,Pre,2021_Jun_28_1114,N-Back (New Version 2021),2021.1.4,120.227133
,,,,Conditions/Version_1/twoback(2)_v1.xlsx,New rule: Press 'space' when you see 2-back (i.e. the same letter as the one that appeared 2 letters ago.),p,None,,,,,,,,,0,7,7,7,0,4,4,4,,,,,,,,,,,,,,,,,,,,,,,,,,,,,,,,,,,,,,,,,,,,,,,,,,,,,,,,,,,,,,,,,,,,,1.661,583.6922534,None,space,0,583.6922534,None,1.1081964,P002,fencog,2,Pre,2021_Jun_28_1114,N-Back (New Version 2021),2021.1.4,120.227133
,,,,Conditions/Version_1/twoback(2)_v1.xlsx,New rule: Press 'space' when you see 2-back (i.e. the same letter as the one that appeared 2 letters ago.),H,None,,,,,,,,,0,7,7,7,0,5,5,5,,,,,,,,,,,,,,,,,,,,,,,,,,,,,,,,,,,,,,,,,,,,,,,,,,,,,,,,,,,,,,,,,,,,,1.2394,586.9365711,None,None,1,586.9365711,None,,P002,fencog,2,Pre,2021_Jun_28_1114,N-Back (New Version 2021),2021.1.4,120.227133
,,,,Conditions/Version_1/twoback(2)_v1.xlsx,New rule: Press 'space' when you see 2-back (i.e. the same letter as the one that appeared 2 letters ago.),g,None,,,,,,,,,0,7,7,7,0,6,6,6,,,,,,,,,,,,,,,,,,,,,,,,,,,,,,,,,,,,,,,,,,,,,,,,,,,,,,,,,,,,,,,,,,,,,1.6114,590.561597,None,None,1,590.561597,None,,P002,fencog,2,Pre,2021_Jun_28_1114,N-Back (New Version 2021),2021.1.4,120.227133
,,,,Conditions/Version_1/twoback(2)_v1.xlsx,New rule: Press 'space' when you see 2-back (i.e. the same letter as the one that appeared 2 letters ago.),j,None,,,,,,,,,0,7,7,7,0,7,7,7,,,,,,,,,,,,,,,,,,,,,,,,,,,,,,,,,,,,,,,,,,,,,,,,,,,,,,,,,,,,,,,,,,,,,1.8594,594.4355283,None,None,1,594.4355283,None,,P002,fencog,2,Pre,2021_Jun_28_1114,N-Back (New Version 2021),2021.1.4,120.227133
,,,,Conditions/Version_1/twoback(2)_v1.xlsx,New rule: Press 'space' when you see 2-back (i.e. the same letter as the one that appeared 2 letters ago.),g,space,,,,,,,,,0,7,7,7,0,8,8,8,,,,,,,,,,,,,,,,,,,,,,,,,,,,,,,,,,,,,,,,,,,,,,,,,,,,,,,,,,,,,,,,,,,,,1.227,597.6742254,None,space,1,597.6742254,None,1.7024556,P002,fencog,2,Pre,2021_Jun_28_1114,N-Back (New Version 2021),2021.1.4,120.227133
,,,,Conditions/Version_1/twoback(2)_v1.xlsx,New rule: Press 'space' when you see 2-back (i.e. the same letter as the one that appeared 2 letters ago.),G,None,,,,,,,,,0,7,7,7,0,9,9,9,,,,,,,,,,,,,,,,,,,,,,,,,,,,,,,,,,,,,,,,,,,,,,,,,,,,,,,,,,,,,,,,,,,,,1.0286,600.7151336,None,space,0,600.7151336,None,1.2854108,P002,fencog,2,Pre,2021_Jun_28_1114,N-Back (New Version 2021),2021.1.4,120.227133
,,,,Conditions/Version_1/twoback(2)_v1.xlsx,New rule: Press 'space' when you see 2-back (i.e. the same letter as the one that appeared 2 letters ago.),,,,,,,,,,,0,7,7,7,,,,,,,,,,,,,,,,,,,,,,,,,,,,,,,,,,,,,,,,,,,,,,,,,,,,,,,,,,,,,,,,,,,,,,,,,,,,,,,,,P002,fencog,2,Pre,2021_Jun_28_1114,N-Back (New Version 2021),2021.1.4,120.227133
,,,,Conditions/Version_1/threeback(3)_v1.xlsx,New rule: Press 'space' when you see 3-back (i.e. the same letter as the one that appeared 3 letters ago.),w,None,,,,,,,,,0,8,8,8,0,0,0,0,,,,,,,,,,,,,,,,,,,,,,,,,,,,,,,,,,,,,,,,,,,,,,,,,,,,,,,,,,,602.7560112,None,605.7391118,None,space,45.8055624,605.7391118,None,602.7560112,None,1.785,653.3579566,None,None,1,653.3579566,None,,P002,fencog,2,Pre,2021_Jun_28_1114,N-Back (New Version 2021),2021.1.4,120.227133
,,,,Conditions/Version_1/threeback(3)_v1.xlsx,New rule: Press 'space' when you see 3-back (i.e. the same letter as the one that appeared 3 letters ago.),p,None,,,,,,,,,0,8,8,8,0,1,1,1,,,,,,,,,,,,,,,,,,,,,,,,,,,,,,,,,,,,,,,,,,,,,,,,,,,,,,,,,,,,,,,,,,,,,1.661,657.0312748,None,None,1,657.0312748,None,,P002,fencog,2,Pre,2021_Jun_28_1114,N-Back (New Version 2021),2021.1.4,120.227133
,,,,Conditions/Version_1/threeback(3)_v1.xlsx,New rule: Press 'space' when you see 3-back (i.e. the same letter as the one that appeared 3 letters ago.),P,None,,,,,,,,,0,8,8,8,0,2,2,2,,,,,,,,,,,,,,,,,,,,,,,,,,,,,,,,,,,,,,,,,,,,,,,,,,,,,,,,,,,,,,,,,,,,,1.2766,660.3214644,None,None,1,660.3214644,None,,P002,fencog,2,Pre,2021_Jun_28_1114,N-Back (New Version 2021),2021.1.4,120.227133
,,,,Conditions/Version_1/threeback(3)_v1.xlsx,New rule: Press 'space' when you see 3-back (i.e. the same letter as the one that appeared 3 letters ago.),i,None,,,,,,,,,0,8,8,8,0,3,3,3,,,,,,,,,,,,,,,,,,,,,,,,,,,,,,,,,,,,,,,,,,,,,,,,,,,,,,,,,,,,,,,,,,,,,1.165,663.4946281,None,None,1,663.4946281,None,,P002,fencog,2,Pre,2021_Jun_28_1114,N-Back (New Version 2021),2021.1.4,120.227133
,,,,Conditions/Version_1/threeback(3)_v1.xlsx,New rule: Press 'space' when you see 3-back (i.e. the same letter as the one that appeared 3 letters ago.),f,None,,,,,,,,,0,8,8,8,0,4,4,4,,,,,,,,,,,,,,,,,,,,,,,,,,,,,,,,,,,,,,,,,,,,,,,,,,,,,,,,,,,,,,,,,,,,,1.3076,666.8168845,None,None,1,666.8168845,None,,P002,fencog,2,Pre,2021_Jun_28_1114,N-Back (New Version 2021),2021.1.4,120.227133
,,,,Conditions/Version_1/threeback(3)_v1.xlsx,New rule: Press 'space' when you see 3-back (i.e. the same letter as the one that appeared 3 letters ago.),o,None,,,,,,,,,0,8,8,8,0,5,5,5,,,,,,,,,,,,,,,,,,,,,,,,,,,,,,,,,,,,,,,,,,,,,,,,,,,,,,,,,,,,,,,,,,,,,1.2208,670.0426314,None,None,1,670.0426314,None,,P002,fencog,2,Pre,2021_Jun_28_1114,N-Back (New Version 2021),2021.1.4,120.227133
,,,,Conditions/Version_1/threeback(3)_v1.xlsx,New rule: Press 'space' when you see 3-back (i.e. the same letter as the one that appeared 3 letters ago.),w,None,,,,,,,,,0,8,8,8,0,6,6,6,,,,,,,,,,,,,,,,,,,,,,,,,,,,,,,,,,,,,,,,,,,,,,,,,,,,,,,,,,,,,,,,,,,,,1.8718,673.9164819,None,space,0,673.9164819,None,1.3959219,P002,fencog,2,Pre,2021_Jun_28_1114,N-Back (New Version 2021),2021.1.4,120.227133
,,,,Conditions/Version_1/threeback(3)_v1.xlsx,New rule: Press 'space' when you see 3-back (i.e. the same letter as the one that appeared 3 letters ago.),F,space,,,,,,,,,0,8,8,8,0,7,7,7,,,,,,,,,,,,,,,,,,,,,,,,,,,,,,,,,,,,,,,,,,,,,,,,,,,,,,,,,,,,,,,,,,,,,1.6052,677.524731,None,space,1,677.524731,None,1.1795785,P002,fencog,2,Pre,2021_Jun_28_1114,N-Back (New Version 2021),2021.1.4,120.227133
,,,,Conditions/Version_1/threeback(3)_v1.xlsx,New rule: Press 'space' when you see 3-back (i.e. the same letter as the one that appeared 3 letters ago.),p,None,,,,,,,,,0,8,8,8,0,8,8,8,,,,,,,,,,,,,,,,,,,,,,,,,,,,,,,,,,,,,,,,,,,,,,,,,,,,,,,,,,,,,,,,,,,,,1.475,681.0085879,None,None,1,681.0085879,None,,P002,fencog,2,Pre,2021_Jun_28_1114,N-Back (New Version 2021),2021.1.4,120.227133
,,,,Conditions/Version_1/threeback(3)_v1.xlsx,New rule: Press 'space' when you see 3-back (i.e. the same letter as the one that appeared 3 letters ago.),W,space,,,,,,,,,0,8,8,8,0,9,9,9,,,,,,,,,,,,,,,,,,,,,,,,,,,,,,,,,,,,,,,,,,,,,,,,,,,,,,,,,,,,,,,,,,,,,1.5494,684.5665964,None,space,1,684.5665964,None,0.9457495,P002,fencog,2,Pre,2021_Jun_28_1114,N-Back (New Version 2021),2021.1.4,120.227133
,,,,Conditions/Version_1/threeback(3)_v1.xlsx,New rule: Press 'space' when you see 3-back (i.e. the same letter as the one that appeared 3 letters ago.),,,,,,,,,,,0,8,8,8,,,,,,,,,,,,,,,,,,,,,,,,,,,,,,,,,,,,,,,,,,,,,,,,,,,,,,,,,,,,,,,,,,,,,,,,,,,,,,,,,P002,fencog,2,Pre,2021_Jun_28_1114,N-Back (New Version 2021),2021.1.4,120.227133
,,,,Conditions/Version_1/zeroback(3)_v1.xlsx,New rule: Press 'space' when you see the letter 'x' or 'X'.,X,space,,,,,,,,,0,9,9,9,0,0,0,0,,,,,,,,,,,,,,,,,,,,,,,,,,,,,,,,,,,,,,,,,,,,,,,,,,,,,,,,,,,686.5938453,None,689.5807366,None,space,0.315609,689.5807366,None,686.5938453,None,1.5308,691.4697812,None,space,1,691.4697812,None,0.754844,P002,fencog,2,Pre,2021_Jun_28_1114,N-Back (New Version 2021),2021.1.4,120.227133
,,,,Conditions/Version_1/zeroback(3)_v1.xlsx,New rule: Press 'space' when you see the letter 'x' or 'X'.,B,None,,,,,,,,,0,9,9,9,0,1,1,1,,,,,,,,,,,,,,,,,,,,,,,,,,,,,,,,,,,,,,,,,,,,,,,,,,,,,,,,,,,,,,,,,,,,,1.8036,695.2798495,None,None,1,695.2798495,None,,P002,fencog,2,Pre,2021_Jun_28_1114,N-Back (New Version 2021),2021.1.4,120.227133
,,,,Conditions/Version_1/zeroback(3)_v1.xlsx,New rule: Press 'space' when you see the letter 'x' or 'X'.,m,None,,,,,,,,,0,9,9,9,0,2,2,2,,,,,,,,,,,,,,,,,,,,,,,,,,,,,,,,,,,,,,,,,,,,,,,,,,,,,,,,,,,,,,,,,,,,,1.9648,699.2525966,None,None,1,699.2525966,None,,P002,fencog,2,Pre,2021_Jun_28_1114,N-Back (New Version 2021),2021.1.4,120.227133
,,,,Conditions/Version_1/zeroback(3)_v1.xlsx,New rule: Press 'space' when you see the letter 'x' or 'X'.,m,None,,,,,,,,,0,9,9,9,0,3,3,3,,,,,,,,,,,,,,,,,,,,,,,,,,,,,,,,,,,,,,,,,,,,,,,,,,,,,,,,,,,,,,,,,,,,,1.134,702.3914887,None,None,1,702.3914887,None,,P002,fencog,2,Pre,2021_Jun_28_1114,N-Back (New Version 2021),2021.1.4,120.227133
,,,,Conditions/Version_1/zeroback(3)_v1.xlsx,New rule: Press 'space' when you see the letter 'x' or 'X'.,o,None,,,,,,,,,0,9,9,9,0,4,4,4,,,,,,,,,,,,,,,,,,,,,,,,,,,,,,,,,,,,,,,,,,,,,,,,,,,,,,,,,,,,,,,,,,,,,1.7354,706.1347971,None,None,1,706.1347971,None,,P002,fencog,2,Pre,2021_Jun_28_1114,N-Back (New Version 2021),2021.1.4,120.227133
,,,,Conditions/Version_1/zeroback(3)_v1.xlsx,New rule: Press 'space' when you see the letter 'x' or 'X'.,p,None,,,,,,,,,0,9,9,9,0,5,5,5,,,,,,,,,,,,,,,,,,,,,,,,,,,,,,,,,,,,,,,,,,,,,,,,,,,,,,,,,,,,,,,,,,,,,1.0286,709.1731294,None,None,1,709.1731294,None,,P002,fencog,2,Pre,2021_Jun_28_1114,N-Back (New Version 2021),2021.1.4,120.227133
,,,,Conditions/Version_1/zeroback(3)_v1.xlsx,New rule: Press 'space' when you see the letter 'x' or 'X'.,G,None,,,,,,,,,0,9,9,9,0,6,6,6,,,,,,,,,,,,,,,,,,,,,,,,,,,,,,,,,,,,,,,,,,,,,,,,,,,,,,,,,,,,,,,,,,,,,1.2952,712.4717421,None,None,1,712.4717421,None,,P002,fencog,2,Pre,2021_Jun_28_1114,N-Back (New Version 2021),2021.1.4,120.227133
,,,,Conditions/Version_1/zeroback(3)_v1.xlsx,New rule: Press 'space' when you see the letter 'x' or 'X'.,X,space,,,,,,,,,0,9,9,9,0,7,7,7,,,,,,,,,,,,,,,,,,,,,,,,,,,,,,,,,,,,,,,,,,,,,,,,,,,,,,,,,,,,,,,,,,,,,1.196,715.6729548,None,space,1,715.6729548,None,1.055611,P002,fencog,2,Pre,2021_Jun_28_1114,N-Back (New Version 2021),2021.1.4,120.227133
,,,,Conditions/Version_1/zeroback(3)_v1.xlsx,New rule: Press 'space' when you see the letter 'x' or 'X'.,p,None,,,,,,,,,0,9,9,9,0,8,8,8,,,,,,,,,,,,,,,,,,,,,,,,,,,,,,,,,,,,,,,,,,,,,,,,,,,,,,,,,,,,,,,,,,,,,1.847,719.5294022,None,None,1,719.5294022,None,,P002,fencog,2,Pre,2021_Jun_28_1114,N-Back (New Version 2021),2021.1.4,120.227133
,,,,Conditions/Version_1/zeroback(3)_v1.xlsx,New rule: Press 'space' when you see the letter 'x' or 'X'.,x,space,,,,,,,,,0,9,9,9,0,9,9,9,,,,,,,,,,,,,,,,,,,,,,,,,,,,,,,,,,,,,,,,,,,,,,,,,,,,,,,,,,,,,,,,,,,,,1.6672,723.2032171,None,space,1,723.2032171,None,0.8532522,P002,fencog,2,Pre,2021_Jun_28_1114,N-Back (New Version 2021),2021.1.4,120.227133
,,,,Conditions/Version_1/zeroback(3)_v1.xlsx,New rule: Press 'space' when you see the letter 'x' or 'X'.,,,,,,,,,,,0,9,9,9,,,,,,,,,,,,,,,,,,,,,,,,,,,,,,,,,,,,,,,,,,,,,,,,,,,,,,,,,,,,,,,,,,,,,,,,,,,,,,,,,P002,fencog,2,Pre,2021_Jun_28_1114,N-Back (New Version 2021),2021.1.4,120.227133
,,,,Conditions/Version_1/twoback(3)_v1.xlsx,New rule: Press 'space' when you see 2-back (i.e. the same letter as the one that appeared 2 letters ago.),e,None,,,,,,,,,0,10,10,10,0,0,0,0,,,,,,,,,,,,,,,,,,,,,,,,,,,,,,,,,,,,,,,,,,,,,,,,,,,,,,,,,,,725.2352029,None,728.2195097,None,space,23.9328057,728.2195097,None,725.2352029,None,1.8594,754.0448318,None,None,1,754.0448318,None,,P002,fencog,2,Pre,2021_Jun_28_1114,N-Back (New Version 2021),2021.1.4,120.227133
,,,,Conditions/Version_1/twoback(3)_v1.xlsx,New rule: Press 'space' when you see 2-back (i.e. the same letter as the one that appeared 2 letters ago.),o,None,,,,,,,,,0,10,10,10,0,1,1,1,,,,,,,,,,,,,,,,,,,,,,,,,,,,,,,,,,,,,,,,,,,,,,,,,,,,,,,,,,,,,,,,,,,,,1.1464,757.2013959,None,None,1,757.2013959,None,,P002,fencog,2,Pre,2021_Jun_28_1114,N-Back (New Version 2021),2021.1.4,120.227133
,,,,Conditions/Version_1/twoback(3)_v1.xlsx,New rule: Press 'space' when you see 2-back (i.e. the same letter as the one that appeared 2 letters ago.),P,None,,,,,,,,,0,10,10,10,0,2,2,2,,,,,,,,,,,,,,,,,,,,,,,,,,,,,,,,,,,,,,,,,,,,,,,,,,,,,,,,,,,,,,,,,,,,,1.6362,760.8565663,None,None,1,760.8565663,None,,P002,fencog,2,Pre,2021_Jun_28_1114,N-Back (New Version 2021),2021.1.4,120.227133
,,,,Conditions/Version_1/twoback(3)_v1.xlsx,New rule: Press 'space' when you see 2-back (i.e. the same letter as the one that appeared 2 letters ago.),z,None,,,,,,,,,0,10,10,10,0,3,3,3,,,,,,,,,,,,,,,,,,,,,,,,,,,,,,,,,,,,,,,,,,,,,,,,,,,,,,,,,,,,,,,,,,,,,1.1216,763.9851918,None,None,1,763.9851918,None,,P002,fencog,2,Pre,2021_Jun_28_1114,N-Back (New Version 2021),2021.1.4,120.227133
,,,,Conditions/Version_1/twoback(3)_v1.xlsx,New rule: Press 'space' when you see 2-back (i.e. the same letter as the one that appeared 2 letters ago.),X,None,,,,,,,,,0,10,10,10,0,4,4,4,,,,,,,,,,,,,,,,,,,,,,,,,,,,,,,,,,,,,,,,,,,,,,,,,,,,,,,,,,,,,,,,,,,,,1.3758,767.3721824,None,None,1,767.3721824,None,,P002,fencog,2,Pre,2021_Jun_28_1114,N-Back (New Version 2021),2021.1.4,120.227133
,,,,Conditions/Version_1/twoback(3)_v1.xlsx,New rule: Press 'space' when you see 2-back (i.e. the same letter as the one that appeared 2 letters ago.),z,space,,,,,,,,,0,10,10,10,0,5,5,5,,,,,,,,,,,,,,,,,,,,,,,,,,,,,,,,,,,,,,,,,,,,,,,,,,,,,,,,,,,,,,,,,,,,,1.2828,770.6629662,None,space,1,770.6629662,None,1.5297709,P002,fencog,2,Pre,2021_Jun_28_1114,N-Back (New Version 2021),2021.1.4,120.227133
,,,,Conditions/Version_1/twoback(3)_v1.xlsx,New rule: Press 'space' when you see 2-back (i.e. the same letter as the one that appeared 2 letters ago.),x,space,,,,,,,,,0,10,10,10,0,6,6,6,,,,,,,,,,,,,,,,,,,,,,,,,,,,,,,,,,,,,,,,,,,,,,,,,,,,,,,,,,,,,,,,,,,,,1.5184,774.1893483,None,space,1,774.1893483,None,1.4032347,P002,fencog,2,Pre,2021_Jun_28_1114,N-Back (New Version 2021),2021.1.4,120.227133
,,,,Conditions/Version_1/twoback(3)_v1.xlsx,New rule: Press 'space' when you see 2-back (i.e. the same letter as the one that appeared 2 letters ago.),c,None,,,,,,,,,0,10,10,10,0,7,7,7,,,,,,,,,,,,,,,,,,,,,,,,,,,,,,,,,,,,,,,,,,,,,,,,,,,,,,,,,,,,,,,,,,,,,1.0596,777.2609249,None,None,1,777.2609249,None,,P002,fencog,2,Pre,2021_Jun_28_1114,N-Back (New Version 2021),2021.1.4,120.227133
,,,,Conditions/Version_1/twoback(3)_v1.xlsx,New rule: Press 'space' when you see 2-back (i.e. the same letter as the one that appeared 2 letters ago.),i,None,,,,,,,,,0,10,10,10,0,8,8,8,,,,,,,,,,,,,,,,,,,,,,,,,,,,,,,,,,,,,,,,,,,,,,,,,,,,,,,,,,,,,,,,,,,,,1.4812,780.7541894,None,None,1,780.7541894,None,,P002,fencog,2,Pre,2021_Jun_28_1114,N-Back (New Version 2021),2021.1.4,120.227133
,,,,Conditions/Version_1/twoback(3)_v1.xlsx,New rule: Press 'space' when you see 2-back (i.e. the same letter as the one that appeared 2 letters ago.),C,space,,,,,,,,,0,10,10,10,0,9,9,9,,,,,,,,,,,,,,,,,,,,,,,,,,,,,,,,,,,,,,,,,,,,,,,,,,,,,,,,,,,,,,,,,,,,,1.3386,784.1038503,None,space,1,784.1038503,None,1.3366084,P002,fencog,2,Pre,2021_Jun_28_1114,N-Back (New Version 2021),2021.1.4,120.227133
,,,,Conditions/Version_1/twoback(3)_v1.xlsx,New rule: Press 'space' when you see 2-back (i.e. the same letter as the one that appeared 2 letters ago.),,,,,,,,,,,0,10,10,10,,,,,,,,,,,,,,,,,,,,,,,,,,,,,,,,,,,,,,,,,,,,,,,,,,,,,,,,,,,,,,,,,,,,,,,,,,,,,,,,,P002,fencog,2,Pre,2021_Jun_28_1114,N-Back (New Version 2021),2021.1.4,120.227133
,,,,Conditions/Version_1/oneback(3)_v1.xlsx,New rule: Press 'space' when you see 1-back (i.e. the same letter as the one that appeared 1 letter ago.),o,None,,,,,,,,,0,11,11,11,0,0,0,0,,,,,,,,,,,,,,,,,,,,,,,,,,,,,,,,,,,,,,,,,,,,,,,,,,,,,,,,,,,786.1375126,None,789.1174611,None,space,3.8350398,789.1174611,None,786.1375126,None,1.0224,793.9992174,None,None,1,793.9992174,None,,P002,fencog,2,Pre,2021_Jun_28_1114,N-Back (New Version 2021),2021.1.4,120.227133
,,,,Conditions/Version_1/oneback(3)_v1.xlsx,New rule: Press 'space' when you see 1-back (i.e. the same letter as the one that appeared 1 letter ago.),O,space,,,,,,,,,0,11,11,11,0,1,1,1,,,,,,,,,,,,,,,,,,,,,,,,,,,,,,,,,,,,,,,,,,,,,,,,,,,,,,,,,,,,,,,,,,,,,1.4254,797.4347473,None,space,1,797.4347473,None,0.894478,P002,fencog,2,Pre,2021_Jun_28_1114,N-Back (New Version 2021),2021.1.4,120.227133
,,,,Conditions/Version_1/oneback(3)_v1.xlsx,New rule: Press 'space' when you see 1-back (i.e. the same letter as the one that appeared 1 letter ago.),h,None,,,,,,,,,0,11,11,11,0,2,2,2,,,,,,,,,,,,,,,,,,,,,,,,,,,,,,,,,,,,,,,,,,,,,,,,,,,,,,,,,,,,,,,,,,,,,1.3262,800.7719723,None,None,1,800.7719723,None,,P002,fencog,2,Pre,2021_Jun_28_1114,N-Back (New Version 2021),2021.1.4,120.227133
,,,,Conditions/Version_1/oneback(3)_v1.xlsx,New rule: Press 'space' when you see 1-back (i.e. the same letter as the one that appeared 1 letter ago.),g,None,,,,,,,,,0,11,11,11,0,3,3,3,,,,,,,,,,,,,,,,,,,,,,,,,,,,,,,,,,,,,,,,,,,,,,,,,,,,,,,,,,,,,,,,,,,,,1.785,804.5622906,None,None,1,804.5622906,None,,P002,fencog,2,Pre,2021_Jun_28_1114,N-Back (New Version 2021),2021.1.4,120.227133
,,,,Conditions/Version_1/oneback(3)_v1.xlsx,New rule: Press 'space' when you see 1-back (i.e. the same letter as the one that appeared 1 letter ago.),n,None,,,,,,,,,0,11,11,11,0,4,4,4,,,,,,,,,,,,,,,,,,,,,,,,,,,,,,,,,,,,,,,,,,,,,,,,,,,,,,,,,,,,,,,,,,,,,1.9834,808.554377,None,None,1,808.554377,None,,P002,fencog,2,Pre,2021_Jun_28_1114,N-Back (New Version 2021),2021.1.4,120.227133
,,,,Conditions/Version_1/oneback(3)_v1.xlsx,New rule: Press 'space' when you see 1-back (i.e. the same letter as the one that appeared 1 letter ago.),z,None,,,,,,,,,0,11,11,11,0,5,5,5,,,,,,,,,,,,,,,,,,,,,,,,,,,,,,,,,,,,,,,,,,,,,,,,,,,,,,,,,,,,,,,,,,,,,1.4006,811.9692373,None,None,1,811.9692373,None,,P002,fencog,2,Pre,2021_Jun_28_1114,N-Back (New Version 2021),2021.1.4,120.227133
,,,,Conditions/Version_1/oneback(3)_v1.xlsx,New rule: Press 'space' when you see 1-back (i.e. the same letter as the one that appeared 1 letter ago.),X,None,,,,,,,,,0,11,11,11,0,6,6,6,,,,,,,,,,,,,,,,,,,,,,,,,,,,,,,,,,,,,,,,,,,,,,,,,,,,,,,,,,,,,,,,,,,,,1.8284,815.8076304,None,None,1,815.8076304,None,,P002,fencog,2,Pre,2021_Jun_28_1114,N-Back (New Version 2021),2021.1.4,120.227133
,,,,Conditions/Version_1/oneback(3)_v1.xlsx,New rule: Press 'space' when you see 1-back (i.e. the same letter as the one that appeared 1 letter ago.),r,None,,,,,,,,,0,11,11,11,0,7,7,7,,,,,,,,,,,,,,,,,,,,,,,,,,,,,,,,,,,,,,,,,,,,,,,,,,,,,,,,,,,,,,,,,,,,,1.2456,819.0568936,None,None,1,819.0568936,None,,P002,fencog,2,Pre,2021_Jun_28_1114,N-Back (New Version 2021),2021.1.4,120.227133
,,,,Conditions/Version_1/oneback(3)_v1.xlsx,New rule: Press 'space' when you see 1-back (i.e. the same letter as the one that appeared 1 letter ago.),r,space,,,,,,,,,0,11,11,11,0,8,8,8,,,,,,,,,,,,,,,,,,,,,,,,,,,,,,,,,,,,,,,,,,,,,,,,,,,,,,,,,,,,,,,,,,,,,1.227,822.2892614,None,space,1,822.2892614,None,1.3986921,P002,fencog,2,Pre,2021_Jun_28_1114,N-Back (New Version 2021),2021.1.4,120.227133
,,,,Conditions/Version_1/oneback(3)_v1.xlsx,New rule: Press 'space' when you see 1-back (i.e. the same letter as the one that appeared 1 letter ago.),P,None,,,,,,,,,0,11,11,11,0,9,9,9,,,,,,,,,,,,,,,,,,,,,,,,,,,,,,,,,,,,,,,,,,,,,,,,,,,,,,,,,,,,,,,,,,,,,1.4068,825.706357,None,None,1,825.706357,None,,P002,fencog,2,Pre,2021_Jun_28_1114,N-Back (New Version 2021),2021.1.4,120.227133
,,,,Conditions/Version_1/oneback(3)_v1.xlsx,New rule: Press 'space' when you see 1-back (i.e. the same letter as the one that appeared 1 letter ago.),,,,,,,,,,,0,11,11,11,,,,,,,,,,,,,,,,,,,,,,,,,,,,,,,,,,,,,,,,,,,,,,,,,,,,,,,,,,,,,,,,,,,,,,,,,,,,,,,,,P002,fencog,2,Pre,2021_Jun_28_1114,N-Back (New Version 2021),2021.1.4,120.227133
,,,,Conditions/Version_1/twoback(4)_v1.xlsx,New rule: Press 'space' when you see 2-back (i.e. the same letter as the one that appeared 2 letters ago.),r,None,,,,,,,,,0,12,12,12,0,0,0,0,,,,,,,,,,,,,,,,,,,,,,,,,,,,,,,,,,,,,,,,,,,,,,,,,,,,,,,,,,,827.7355349,None,830.7232265,None,space,1.4290711,830.7232265,None,827.7355349,None,1.1898,833.3955842,None,None,1,833.3955842,None,,P002,fencog,2,Pre,2021_Jun_28_1114,N-Back (New Version 2021),2021.1.4,120.227133
,,,,Conditions/Version_1/twoback(4)_v1.xlsx,New rule: Press 'space' when you see 2-back (i.e. the same letter as the one that appeared 2 letters ago.),T,None,,,,,,,,,0,12,12,12,0,1,1,1,,,,,,,,,,,,,,,,,,,,,,,,,,,,,,,,,,,,,,,,,,,,,,,,,,,,,,,,,,,,,,,,,,,,,1.2084,836.6120141,None,None,1,836.6120141,None,,P002,fencog,2,Pre,2021_Jun_28_1114,N-Back (New Version 2021),2021.1.4,120.227133
,,,,Conditions/Version_1/twoback(4)_v1.xlsx,New rule: Press 'space' when you see 2-back (i.e. the same letter as the one that appeared 2 letters ago.),o,None,,,,,,,,,0,12,12,12,0,2,2,2,,,,,,,,,,,,,,,,,,,,,,,,,,,,,,,,,,,,,,,,,,,,,,,,,,,,,,,,,,,,,,,,,,,,,1.7168,840.3339087,None,None,1,840.3339087,None,,P002,fencog,2,Pre,2021_Jun_28_1114,N-Back (New Version 2021),2021.1.4,120.227133
,,,,Conditions/Version_1/twoback(4)_v1.xlsx,New rule: Press 'space' when you see 2-back (i.e. the same letter as the one that appeared 2 letters ago.),p,None,,,,,,,,,0,12,12,12,0,3,3,3,,,,,,,,,,,,,,,,,,,,,,,,,,,,,,,,,,,,,,,,,,,,,,,,,,,,,,,,,,,,,,,,,,,,,1.8098,844.1496332,None,None,1,844.1496332,None,,P002,fencog,2,Pre,2021_Jun_28_1114,N-Back (New Version 2021),2021.1.4,120.227133
,,,,Conditions/Version_1/twoback(4)_v1.xlsx,New rule: Press 'space' when you see 2-back (i.e. the same letter as the one that appeared 2 letters ago.),p,None,,,,,,,,,0,12,12,12,0,4,4,4,,,,,,,,,,,,,,,,,,,,,,,,,,,,,,,,,,,,,,,,,,,,,,,,,,,,,,,,,,,,,,,,,,,,,1.2704,847.4235687,None,None,1,847.4235687,None,,P002,fencog,2,Pre,2021_Jun_28_1114,N-Back (New Version 2021),2021.1.4,120.227133
,,,,Conditions/Version_1/twoback(4)_v1.xlsx,New rule: Press 'space' when you see 2-back (i.e. the same letter as the one that appeared 2 letters ago.),y,None,,,,,,,,,0,12,12,12,0,5,5,5,,,,,,,,,,,,,,,,,,,,,,,,,,,,,,,,,,,,,,,,,,,,,,,,,,,,,,,,,,,,,,,,,,,,,1.7726,851.1973414,None,None,1,851.1973414,None,,P002,fencog,2,Pre,2021_Jun_28_1114,N-Back (New Version 2021),2021.1.4,120.227133
,,,,Conditions/Version_1/twoback(4)_v1.xlsx,New rule: Press 'space' when you see 2-back (i.e. the same letter as the one that appeared 2 letters ago.),P,space,,,,,,,,,0,12,12,12,0,6,6,6,,,,,,,,,,,,,,,,,,,,,,,,,,,,,,,,,,,,,,,,,,,,,,,,,,,,,,,,,,,,,,,,,,,,,1.785,854.9910511,None,space,1,854.9910511,None,0.8412952,P002,fencog,2,Pre,2021_Jun_28_1114,N-Back (New Version 2021),2021.1.4,120.227133
,,,,Conditions/Version_1/twoback(4)_v1.xlsx,New rule: Press 'space' when you see 2-back (i.e. the same letter as the one that appeared 2 letters ago.),y,None,,,,,,,,,0,12,12,12,0,7,7,7,,,,,,,,,,,,,,,,,,,,,,,,,,,,,,,,,,,,,,,,,,,,,,,,,,,,,,,,,,,,,,,,,,,,,1.6114,858.6127583,None,space,0,858.6127583,None,0.7635923,P002,fencog,2,Pre,2021_Jun_28_1114,N-Back (New Version 2021),2021.1.4,120.227133
,,,,Conditions/Version_1/twoback(4)_v1.xlsx,New rule: Press 'space' when you see 2-back (i.e. the same letter as the one that appeared 2 letters ago.),y,space,,,,,,,,,0,12,12,12,0,8,8,8,,,,,,,,,,,,,,,,,,,,,,,,,,,,,,,,,,,,,,,,,,,,,,,,,,,,,,,,,,,,,,,,,,,,,1.0162,861.6360953,None,space,1,861.6360953,None,0.8924938,P002,fencog,2,Pre,2021_Jun_28_1114,N-Back (New Version 2021),2021.1.4,120.227133
,,,,Conditions/Version_1/twoback(4)_v1.xlsx,New rule: Press 'space' when you see 2-back (i.e. the same letter as the one that appeared 2 letters ago.),,,,,,,,,,,0,12,12,12,,,,,,,,,,,,,,,,,,,,,,,,,,,,,,,,,,,,,,,,,,,,,,,,,,,,,,,,,,,,,,,,,,,,,,,,,,,,,,,,,P002,fencog,2,Pre,2021_Jun_28_1114,N-Back (New Version 2021),2021.1.4,120.227133
,,,,Conditions/Version_1/zeroback(4)_v1.xlsx,New rule: Press 'space' when you see the letter 'x' or 'X'.,o,None,,,,,,,,,0,13,13,13,0,0,0,0,,,,,,,,,,,,,,,,,,,,,,,,,,,,,,,,,,,,,,,,,,,,,,,,,,,,,,,,,,,863.6560406,None,866.6448791,None,space,0.3953494,866.6448791,None,863.6560406,None,1.3572,868.4200749,None,None,1,868.4200749,None,,P002,fencog,2,Pre,2021_Jun_28_1114,N-Back (New Version 2021),2021.1.4,120.227133
,,,,Conditions/Version_1/zeroback(4)_v1.xlsx,New rule: Press 'space' when you see the letter 'x' or 'X'.,X,space,,,,,,,,,0,13,13,13,0,1,1,1,,,,,,,,,,,,,,,,,,,,,,,,,,,,,,,,,,,,,,,,,,,,,,,,,,,,,,,,,,,,,,,,,,,,,1.4006,871.837156,None,space,1,871.837156,None,1.0590081,P002,fencog,2,Pre,2021_Jun_28_1114,N-Back (New Version 2021),2021.1.4,120.227133
,,,,Conditions/Version_1/zeroback(4)_v1.xlsx,New rule: Press 'space' when you see the letter 'x' or 'X'.,p,None,,,,,,,,,0,13,13,13,0,2,2,2,,,,,,,,,,,,,,,,,,,,,,,,,,,,,,,,,,,,,,,,,,,,,,,,,,,,,,,,,,,,,,,,,,,,,1.4688,875.3173707,None,None,1,875.3173707,None,,P002,fencog,2,Pre,2021_Jun_28_1114,N-Back (New Version 2021),2021.1.4,120.227133
,,,,Conditions/Version_1/zeroback(4)_v1.xlsx,New rule: Press 'space' when you see the letter 'x' or 'X'.,m,None,,,,,,,,,0,13,13,13,0,3,3,3,,,,,,,,,,,,,,,,,,,,,,,,,,,,,,,,,,,,,,,,,,,,,,,,,,,,,,,,,,,,,,,,,,,,,1.0472,878.3766525,None,None,1,878.3766525,None,,P002,fencog,2,Pre,2021_Jun_28_1114,N-Back (New Version 2021),2021.1.4,120.227133
,,,,Conditions/Version_1/zeroback(4)_v1.xlsx,New rule: Press 'space' when you see the letter 'x' or 'X'.,n,None,,,,,,,,,0,13,13,13,0,4,4,4,,,,,,,,,,,,,,,,,,,,,,,,,,,,,,,,,,,,,,,,,,,,,,,,,,,,,,,,,,,,,,,,,,,,,1.0968,881.4804289,None,None,1,881.4804289,None,,P002,fencog,2,Pre,2021_Jun_28_1114,N-Back (New Version 2021),2021.1.4,120.227133
,,,,Conditions/Version_1/zeroback(4)_v1.xlsx,New rule: Press 'space' when you see the letter 'x' or 'X'.,m,None,,,,,,,,,0,13,13,13,0,5,5,5,,,,,,,,,,,,,,,,,,,,,,,,,,,,,,,,,,,,,,,,,,,,,,,,,,,,,,,,,,,,,,,,,,,,,1.2146,884.6962411,None,None,1,884.6962411,None,,P002,fencog,2,Pre,2021_Jun_28_1114,N-Back (New Version 2021),2021.1.4,120.227133
,,,,Conditions/Version_1/zeroback(4)_v1.xlsx,New rule: Press 'space' when you see the letter 'x' or 'X'.,C,None,,,,,,,,,0,13,13,13,0,6,6,6,,,,,,,,,,,,,,,,,,,,,,,,,,,,,,,,,,,,,,,,,,,,,,,,,,,,,,,,,,,,,,,,,,,,,1.134,887.8366213,None,None,1,887.8366213,None,,P002,fencog,2,Pre,2021_Jun_28_1114,N-Back (New Version 2021),2021.1.4,120.227133
,,,,Conditions/Version_1/zeroback(4)_v1.xlsx,New rule: Press 'space' when you see the letter 'x' or 'X'.,m,None,,,,,,,,,0,13,13,13,0,7,7,7,,,,,,,,,,,,,,,,,,,,,,,,,,,,,,,,,,,,,,,,,,,,,,,,,,,,,,,,,,,,,,,,,,,,,1.5184,891.3625818,None,None,1,891.3625818,None,,P002,fencog,2,Pre,2021_Jun_28_1114,N-Back (New Version 2021),2021.1.4,120.227133
,,,,Conditions/Version_1/zeroback(4)_v1.xlsx,New rule: Press 'space' when you see the letter 'x' or 'X'.,p,None,,,,,,,,,0,13,13,13,0,8,8,8,,,,,,,,,,,,,,,,,,,,,,,,,,,,,,,,,,,,,,,,,,,,,,,,,,,,,,,,,,,,,,,,,,,,,1.3076,894.676613,None,None,1,894.676613,None,,P002,fencog,2,Pre,2021_Jun_28_1114,N-Back (New Version 2021),2021.1.4,120.227133
,,,,Conditions/Version_1/zeroback(4)_v1.xlsx,New rule: Press 'space' when you see the letter 'x' or 'X'.,X,space,,,,,,,,,0,13,13,13,0,9,9,9,,,,,,,,,,,,,,,,,,,,,,,,,,,,,,,,,,,,,,,,,,,,,,,,,,,,,,,,,,,,,,,,,,,,,1.8594,898.5431008,None,space,1,898.5431008,None,1.4731883,P002,fencog,2,Pre,2021_Jun_28_1114,N-Back (New Version 2021),2021.1.4,120.227133
,,,,Conditions/Version_1/zeroback(4)_v1.xlsx,New rule: Press 'space' when you see the letter 'x' or 'X'.,,,,,,,,,,,0,13,13,13,,,,,,,,,,,,,,,,,,,,,,,,,,,,,,,,,,,,,,,,,,,,,,,,,,,,,,,,,,,,,,,,,,,,,,,,,,,,,,,,,P002,fencog,2,Pre,2021_Jun_28_1114,N-Back (New Version 2021),2021.1.4,120.227133
,,,,Conditions/Version_1/oneback(4)_v1.xlsx,New rule: Press 'space' when you see 1-back (i.e. the same letter as the one that appeared 1 letter ago.),w,None,,,,,,,,,0,14,14,14,0,0,0,0,,,,,,,,,,,,,,,,,,,,,,,,,,,,,,,,,,,,,,,,,,,,,,,,,,,,,,,,,,,900.5723135,None,903.5594863,None,space,5.3849572,903.5594863,None,900.5723135,None,1.3944,910.3632021,None,None,1,910.3632021,None,,P002,fencog,2,Pre,2021_Jun_28_1114,N-Back (New Version 2021),2021.1.4,120.227133
,,,,Conditions/Version_1/oneback(4)_v1.xlsx,New rule: Press 'space' when you see 1-back (i.e. the same letter as the one that appeared 1 letter ago.),q,None,,,,,,,,,0,14,14,14,0,1,1,1,,,,,,,,,,,,,,,,,,,,,,,,,,,,,,,,,,,,,,,,,,,,,,,,,,,,,,,,,,,,,,,,,,,,,1.9834,914.3600245,None,None,1,914.3600245,None,,P002,fencog,2,Pre,2021_Jun_28_1114,N-Back (New Version 2021),2021.1.4,120.227133
,,,,Conditions/Version_1/oneback(4)_v1.xlsx,New rule: Press 'space' when you see 1-back (i.e. the same letter as the one that appeared 1 letter ago.),i,None,,,,,,,,,0,14,14,14,0,2,2,2,,,,,,,,,,,,,,,,,,,,,,,,,,,,,,,,,,,,,,,,,,,,,,,,,,,,,,,,,,,,,,,,,,,,,1.6176,917.9860232,None,None,1,917.9860232,None,,P002,fencog,2,Pre,2021_Jun_28_1114,N-Back (New Version 2021),2021.1.4,120.227133
,,,,Conditions/Version_1/oneback(4)_v1.xlsx,New rule: Press 'space' when you see 1-back (i.e. the same letter as the one that appeared 1 letter ago.),t,None,,,,,,,,,0,14,14,14,0,3,3,3,,,,,,,,,,,,,,,,,,,,,,,,,,,,,,,,,,,,,,,,,,,,,,,,,,,,,,,,,,,,,,,,,,,,,1.3138,921.3024609,None,None,1,921.3024609,None,,P002,fencog,2,Pre,2021_Jun_28_1114,N-Back (New Version 2021),2021.1.4,120.227133
,,,,Conditions/Version_1/oneback(4)_v1.xlsx,New rule: Press 'space' when you see 1-back (i.e. the same letter as the one that appeared 1 letter ago.),v,None,,,,,,,,,0,14,14,14,0,4,4,4,,,,,,,,,,,,,,,,,,,,,,,,,,,,,,,,,,,,,,,,,,,,,,,,,,,,,,,,,,,,,,,,,,,,,1.4068,924.7184052,None,None,1,924.7184052,None,,P002,fencog,2,Pre,2021_Jun_28_1114,N-Back (New Version 2021),2021.1.4,120.227133
,,,,Conditions/Version_1/oneback(4)_v1.xlsx,New rule: Press 'space' when you see 1-back (i.e. the same letter as the one that appeared 1 letter ago.),V,space,,,,,,,,,0,14,14,14,0,5,5,5,,,,,,,,,,,,,,,,,,,,,,,,,,,,,,,,,,,,,,,,,,,,,,,,,,,,,,,,,,,,,,,,,,,,,1.2828,928.0114157,None,space,1,928.0114157,None,1.5086359,P002,fencog,2,Pre,2021_Jun_28_1114,N-Back (New Version 2021),2021.1.4,120.227133
,,,,Conditions/Version_1/oneback(4)_v1.xlsx,New rule: Press 'space' when you see 1-back (i.e. the same letter as the one that appeared 1 letter ago.),v,space,,,,,,,,,0,14,14,14,0,6,6,6,,,,,,,,,,,,,,,,,,,,,,,,,,,,,,,,,,,,,,,,,,,,,,,,,,,,,,,,,,,,,,,,,,,,,1.7664,931.7862551,None,space,1,931.7862551,None,1.8622989,P002,fencog,2,Pre,2021_Jun_28_1114,N-Back (New Version 2021),2021.1.4,120.227133
,,,,Conditions/Version_1/oneback(4)_v1.xlsx,New rule: Press 'space' when you see 1-back (i.e. the same letter as the one that appeared 1 letter ago.),p,None,,,,,,,,,0,14,14,14,0,7,7,7,,,,,,,,,,,,,,,,,,,,,,,,,,,,,,,,,,,,,,,,,,,,,,,,,,,,,,,,,,,,,,,,,,,,,1.3386,935.1334541,None,None,1,935.1334541,None,,P002,fencog,2,Pre,2021_Jun_28_1114,N-Back (New Version 2021),2021.1.4,120.227133
,,,,Conditions/Version_1/oneback(4)_v1.xlsx,New rule: Press 'space' when you see 1-back (i.e. the same letter as the one that appeared 1 letter ago.),w,None,,,,,,,,,0,14,14,14,0,8,8,8,,,,,,,,,,,,,,,,,,,,,,,,,,,,,,,,,,,,,,,,,,,,,,,,,,,,,,,,,,,,,,,,,,,,,1.1526,938.2982288,None,None,1,938.2982288,None,,P002,fencog,2,Pre,2021_Jun_28_1114,N-Back (New Version 2021),2021.1.4,120.227133
,,,,Conditions/Version_1/oneback(4)_v1.xlsx,New rule: Press 'space' when you see 1-back (i.e. the same letter as the one that appeared 1 letter ago.),W,space,,,,,,,,,0,14,14,14,0,9,9,9,,,,,,,,,,,,,,,,,,,,,,,,,,,,,,,,,,,,,,,,,,,,,,,,,,,,,,,,,,,,,,,,,,,,,1.3882,941.6974171,None,space,1,941.6974171,None,1.8544347,P002,fencog,2,Pre,2021_Jun_28_1114,N-Back (New Version 2021),2021.1.4,120.227133
,,,,Conditions/Version_1/oneback(4)_v1.xlsx,New rule: Press 'space' when you see 1-back (i.e. the same letter as the one that appeared 1 letter ago.),,,,,,,,,,,0,14,14,14,,,,,,,,,,,,,,,,,,,,,,,,,,,,,,,,,,,,,,,,,,,,,,,,,,,,,,,,,,,,,,,,,,,,,,,,,,,,,,,,,P002,fencog,2,Pre,2021_Jun_28_1114,N-Back (New Version 2021),2021.1.4,120.227133
,,,,Conditions/Version_1/threeback(4)_v1.xlsx,New rule: Press 'space' when you see 3-back (i.e. the same letter as the one that appeared 3 letters ago.),A,None,,,,,,,,,0,15,15,15,0,0,0,0,,,,,,,,,,,,,,,,,,,,,,,,,,,,,,,,,,,,,,,,,,,,,,,,,,,,,,,,,,,943.7283198,None,946.7132759,None,space,35.3188796,946.7132759,None,943.7283198,None,1.785,983.8445354,None,None,1,983.8445354,None,,P002,fencog,2,Pre,2021_Jun_28_1114,N-Back (New Version 2021),2021.1.4,120.227133
,,,,Conditions/Version_1/threeback(4)_v1.xlsx,New rule: Press 'space' when you see 3-back (i.e. the same letter as the one that appeared 3 letters ago.),n,None,,,,,,,,,0,15,15,15,0,1,1,1,,,,,,,,,,,,,,,,,,,,,,,,,,,,,,,,,,,,,,,,,,,,,,,,,,,,,,,,,,,,,,,,,,,,,1.506,987.3569648,None,space,0,987.3569648,None,0.4429972,P002,fencog,2,Pre,2021_Jun_28_1114,N-Back (New Version 2021),2021.1.4,120.227133
,,,,Conditions/Version_1/threeback(4)_v1.xlsx,New rule: Press 'space' when you see 3-back (i.e. the same letter as the one that appeared 3 letters ago.),g,None,,,,,,,,,0,15,15,15,0,2,2,2,,,,,,,,,,,,,,,,,,,,,,,,,,,,,,,,,,,,,,,,,,,,,,,,,,,,,,,,,,,,,,,,,,,,,1.4316,990.7917088,None,None,1,990.7917088,None,,P002,fencog,2,Pre,2021_Jun_28_1114,N-Back (New Version 2021),2021.1.4,120.227133
,,,,Conditions/Version_1/threeback(4)_v1.xlsx,New rule: Press 'space' when you see 3-back (i.e. the same letter as the one that appeared 3 letters ago.),A,space,,,,,,,,,0,15,15,15,0,3,3,3,,,,,,,,,,,,,,,,,,,,,,,,,,,,,,,,,,,,,,,,,,,,,,,,,,,,,,,,,,,,,,,,,,,,,1.4068,994.2051334,None,space,1,994.2051334,None,1.1315347,P002,fencog,2,Pre,2021_Jun_28_1114,N-Back (New Version 2021),2021.1.4,120.227133
,,,,Conditions/Version_1/threeback(4)_v1.xlsx,New rule: Press 'space' when you see 3-back (i.e. the same letter as the one that appeared 3 letters ago.),p,None,,,,,,,,,0,15,15,15,0,4,4,4,,,,,,,,,,,,,,,,,,,,,,,,,,,,,,,,,,,,,,,,,,,,,,,,,,,,,,,,,,,,,,,,,,,,,1.4936,997.7063796,None,None,1,997.7063796,None,,P002,fencog,2,Pre,2021_Jun_28_1114,N-Back (New Version 2021),2021.1.4,120.227133
,,,,Conditions/Version_1/threeback(4)_v1.xlsx,New rule: Press 'space' when you see 3-back (i.e. the same letter as the one that appeared 3 letters ago.),O,None,,,,,,,,,0,15,15,15,0,5,5,5,,,,,,,,,,,,,,,,,,,,,,,,,,,,,,,,,,,,,,,,,,,,,,,,,,,,,,,,,,,,,,,,,,,,,1.0658,1000.778879,None,None,1,1000.778879,None,,P002,fencog,2,Pre,2021_Jun_28_1114,N-Back (New Version 2021),2021.1.4,120.227133
,,,,Conditions/Version_1/threeback(4)_v1.xlsx,New rule: Press 'space' when you see 3-back (i.e. the same letter as the one that appeared 3 letters ago.),a,space,,,,,,,,,0,15,15,15,0,6,6,6,,,,,,,,,,,,,,,,,,,,,,,,,,,,,,,,,,,,,,,,,,,,,,,,,,,,,,,,,,,,,,,,,,,,,1.4502,1004.235474,None,None,0,1004.235474,None,,P002,fencog,2,Pre,2021_Jun_28_1114,N-Back (New Version 2021),2021.1.4,120.227133
,,,,Conditions/Version_1/threeback(4)_v1.xlsx,New rule: Press 'space' when you see 3-back (i.e. the same letter as the one that appeared 3 letters ago.),p,space,,,,,,,,,0,15,15,15,0,7,7,7,,,,,,,,,,,,,,,,,,,,,,,,,,,,,,,,,,,,,,,,,,,,,,,,,,,,,,,,,,,,,,,,,,,,,1.8656,1008.103874,None,space,1,1008.103874,None,0.8804267,P002,fencog,2,Pre,2021_Jun_28_1114,N-Back (New Version 2021),2021.1.4,120.227133
,,,,Conditions/Version_1/threeback(4)_v1.xlsx,New rule: Press 'space' when you see 3-back (i.e. the same letter as the one that appeared 3 letters ago.),x,None,,,,,,,,,0,15,15,15,0,8,8,8,,,,,,,,,,,,,,,,,,,,,,,,,,,,,,,,,,,,,,,,,,,,,,,,,,,,,,,,,,,,,,,,,,,,,1.2642,1011.375964,None,None,1,1011.375964,None,,P002,fencog,2,Pre,2021_Jun_28_1114,N-Back (New Version 2021),2021.1.4,120.227133
,,,,Conditions/Version_1/threeback(4)_v1.xlsx,New rule: Press 'space' when you see 3-back (i.e. the same letter as the one that appeared 3 letters ago.),X,None,,,,,,,,,0,15,15,15,0,9,9,9,,,,,,,,,,,,,,,,,,,,,,,,,,,,,,,,,,,,,,,,,,,,,,,,,,,,,,,,,,,,,,,,,,,,,1.4626,1014.849109,None,None,1,1014.849109,None,,P002,fencog,2,Pre,2021_Jun_28_1114,N-Back (New Version 2021),2021.1.4,120.227133
,,,,Conditions/Version_1/threeback(4)_v1.xlsx,New rule: Press 'space' when you see 3-back (i.e. the same letter as the one that appeared 3 letters ago.),,,,,,,,,,,0,15,15,15,,,,,,,,,,,,,,,,,,,,,,,,,,,,,,,,,,,,,,,,,,,,,,,,,,,,,,,,,,,,,,,,,,,,,,,,,,,,,,,,,P002,fencog,2,Pre,2021_Jun_28_1114,N-Back (New Version 2021),2021.1.4,120.227133
