CondFileP,InstructionsP,LettersDisplayedP,CorrectnessP,CondFile,Instructions,LettersDisplayed,Correctness,practicetrials.thisRepN,practicetrials.thisTrialN,practicetrials.thisN,practicetrials.thisIndex,InnerLoopPractice.thisRepN,InnerLoopPractice.thisTrialN,InnerLoopPractice.thisN,InnerLoopPractice.thisIndex,trials.thisRepN,trials.thisTrialN,trials.thisN,trials.thisIndex,InnerLoop.thisRepN,InnerLoop.thisTrialN,InnerLoop.thisN,InnerLoop.thisIndex,TaskVersionText.started,TaskVersionText.stopped,InstrKey1.keys,InstrKey1.rt,InstrKey1.started,InstrKey1.stopped,text.started,text.stopped,key_resp_4.keys,key_resp_4.rt,key_resp_4.started,key_resp_4.stopped,text_2.started,text_2.stopped,key_resp_3.keys,key_resp_3.rt,key_resp_3.started,key_resp_3.stopped,text_3.started,text_3.stopped,key_resp_2.keys,key_resp_2.rt,key_resp_2.started,key_resp_2.stopped,PractIn1.started,PractIn1.stopped,PractIn2.started,PractIn2.stopped,PractInstructionPass.keys,PractInstructionPass.rt,PractInstructionPass.started,PractInstructionPass.stopped,PractBlock1.started,PractBlock1.stopped,ISIjitterPractice,ISI_Pract_Fixation.started,ISI_Pract_Fixation.stopped,N_backP.started,N_backP.stopped,KeyPractice.keys,KeyPractice.corr,KeyPractice.started,KeyPractice.stopped,text_4.started,text_4.stopped,KeyPractice.rt,TransitionText.started,TransitionText.stopped,key_resp_6.keys,key_resp_6.rt,key_resp_6.started,key_resp_6.stopped,text_5.started,text_5.stopped,key_resp_5.keys,key_resp_5.rt,key_resp_5.started,key_resp_5.stopped,MainInt1.started,MainInt1.stopped,MainInt2.started,MainInt2.stopped,InstructionPass.keys,InstructionPass.rt,InstructionPass.started,InstructionPass.stopped,Blocks1.started,Blocks1.stopped,ISIjitter,N_backD.started,N_backD.stopped,key_resp.keys,key_resp.corr,key_resp.started,key_resp.stopped,key_resp.rt,participant,Study Name,Task Version (required to run),PRE/POST,date,expName,psychopyVersion,frameRate,
,,,,,,,,,,,,,,,,,,,,,,,,21.83516679983586,None,space,107.70538010005839,22.323942799819633,None,,,,,,,,,,,,,,,,,,,,,,,,,,,,,,,,,,,,,,,,,,,,,,,,,,,,,,,,,,,,,,,,,,,,,,,P003,fencog,1,Pre,2021_Jul_05_1112,N-Back (New Version 2021),2021.1.4,119.96967165953049,
,,,,,,,,,,,,,,,,,,,,,,,,,,,,,,130.06769299996085,None,space,19.230014599859715,130.55903329979628,None,,,,,,,,,,,,,,,,,,,,,,,,,,,,,,,,,,,,,,,,,,,,,,,,,,,,,,,,,,,,,,,,,P003,fencog,1,Pre,2021_Jul_05_1112,N-Back (New Version 2021),2021.1.4,119.96967165953049,
,,,,,,,,,,,,,,,,,,,,,,,,,,,,,,,,,,,,149.82716339989565,None,space,20.572834899881855,150.32007449981757,None,,,,,,,,,,,,,,,,,,,,,,,,,,,,,,,,,,,,,,,,,,,,,,,,,,,,,,,,,,,P003,fencog,1,Pre,2021_Jul_05_1112,N-Back (New Version 2021),2021.1.4,119.96967165953049,
,,,,,,,,,,,,,,,,,,,,,,,,,,,,,,,,,,,,,,,,,,170.92432809993625,None,space,24.919301399961114,171.41382549982518,None,,,,,,,,,,,,,,,,,,,,,,,,,,,,,,,,,,,,,,,,,,,,,,,,,,,,,P003,fencog,1,Pre,2021_Jul_05_1112,N-Back (New Version 2021),2021.1.4,119.96967165953049,
Conditions/Version_1Pr/zeroback(1)_v1.xlsx,Rule: Press 'space' when you see the letter 'x' or 'X'.,Z,None,,,,,0,0,0,0,0,0,0,0,,,,,,,,,,,,,,,,,,,,,,,,,,,,,,,,,197.68767079990357,None,200.66432979982346,None,space,4.1887614000588655,200.66432979982346,None,197.68767079990357,None,1.84,204.8782373999711,None,206.7238514998462,None,None,1,206.7238514998462,None,208.7273833998479,None,,,,,,,,,,,,,,,,,,,,,,,,,,,,,,,,P003,fencog,1,Pre,2021_Jul_05_1112,N-Back (New Version 2021),2021.1.4,119.96967165953049,
Conditions/Version_1Pr/zeroback(1)_v1.xlsx,Rule: Press 'space' when you see the letter 'x' or 'X'.,r,None,,,,,0,0,0,0,0,1,1,1,,,,,,,,,,,,,,,,,,,,,,,,,,,,,,,,,,,,,,,,,,,1.315,210.22645989991724,None,211.54575349995866,None,None,1,211.54575349995866,None,213.5505247998517,None,,,,,,,,,,,,,,,,,,,,,,,,,,,,,,,,P003,fencog,1,Pre,2021_Jul_05_1112,N-Back (New Version 2021),2021.1.4,119.96967165953049,
Conditions/Version_1Pr/zeroback(1)_v1.xlsx,Rule: Press 'space' when you see the letter 'x' or 'X'.,X,space,,,,,0,0,0,0,0,2,2,2,,,,,,,,,,,,,,,,,,,,,,,,,,,,,,,,,,,,,,,,,,,1.94,215.04986129980534,None,216.99530699988827,None,space,1,216.99530699988827,None,217.3587640998885,None,0.3537663999013603,,,,,,,,,,,,,,,,,,,,,,,,,,,,,,,P003,fencog,1,Pre,2021_Jul_05_1112,N-Back (New Version 2021),2021.1.4,119.96967165953049,
Conditions/Version_1Pr/zeroback(1)_v1.xlsx,Rule: Press 'space' when you see the letter 'x' or 'X'.,p,None,,,,,0,0,0,0,0,3,3,3,,,,,,,,,,,,,,,,,,,,,,,,,,,,,,,,,,,,,,,,,,,1.865,218.8655830998905,None,220.73775739991106,None,None,1,220.73775739991106,None,222.7394943998661,None,,,,,,,,,,,,,,,,,,,,,,,,,,,,,,,,P003,fencog,1,Pre,2021_Jul_05_1112,N-Back (New Version 2021),2021.1.4,119.96967165953049,
Conditions/Version_1Pr/zeroback(1)_v1.xlsx,Rule: Press 'space' when you see the letter 'x' or 'X'.,w,None,,,,,0,0,0,0,0,4,4,4,,,,,,,,,,,,,,,,,,,,,,,,,,,,,,,,,,,,,,,,,,,1.615,224.2388951999601,None,225.85796559997834,None,None,1,225.85796559997834,None,227.86293959990144,None,,,,,,,,,,,,,,,,,,,,,,,,,,,,,,,,P003,fencog,1,Pre,2021_Jul_05_1112,N-Back (New Version 2021),2021.1.4,119.96967165953049,
Conditions/Version_1Pr/zeroback(1)_v1.xlsx,Rule: Press 'space' when you see the letter 'x' or 'X'.,e,None,,,,,0,0,0,0,0,5,5,5,,,,,,,,,,,,,,,,,,,,,,,,,,,,,,,,,,,,,,,,,,,1.265,229.36242359993048,None,230.63010639999993,None,None,1,230.63010639999993,None,232.6365712999832,None,,,,,,,,,,,,,,,,,,,,,,,,,,,,,,,,P003,fencog,1,Pre,2021_Jul_05_1112,N-Back (New Version 2021),2021.1.4,119.96967165953049,
Conditions/Version_1Pr/zeroback(1)_v1.xlsx,Rule: Press 'space' when you see the letter 'x' or 'X'.,X,space,,,,,0,0,0,0,0,6,6,6,,,,,,,,,,,,,,,,,,,,,,,,,,,,,,,,,,,,,,,,,,,1.815,234.13611649977975,None,235.95208629989065,None,space,1,235.95208629989065,None,236.42742679989897,None,0.46096180006861687,,,,,,,,,,,,,,,,,,,,,,,,,,,,,,,P003,fencog,1,Pre,2021_Jul_05_1112,N-Back (New Version 2021),2021.1.4,119.96967165953049,
Conditions/Version_1Pr/zeroback(1)_v1.xlsx,Rule: Press 'space' when you see the letter 'x' or 'X'.,x,space,,,,,0,0,0,0,0,7,7,7,,,,,,,,,,,,,,,,,,,,,,,,,,,,,,,,,,,,,,,,,,,1.74,237.92636139993556,None,239.67089859978296,None,space,1,239.67089859978296,None,240.05991459987126,None,0.37402430013753474,,,,,,,,,,,,,,,,,,,,,,,,,,,,,,,P003,fencog,1,Pre,2021_Jul_05_1112,N-Back (New Version 2021),2021.1.4,119.96967165953049,
Conditions/Version_1Pr/zeroback(1)_v1.xlsx,Rule: Press 'space' when you see the letter 'x' or 'X'.,p,None,,,,,0,0,0,0,0,8,8,8,,,,,,,,,,,,,,,,,,,,,,,,,,,,,,,,,,,,,,,,,,,1.465,241.56704869982786,None,243.03536439989693,None,None,1,243.03536439989693,None,245.04662759997882,None,,,,,,,,,,,,,,,,,,,,,,,,,,,,,,,,P003,fencog,1,Pre,2021_Jul_05_1112,N-Back (New Version 2021),2021.1.4,119.96967165953049,
Conditions/Version_1Pr/zeroback(1)_v1.xlsx,Rule: Press 'space' when you see the letter 'x' or 'X'.,r,None,,,,,0,0,0,0,0,9,9,9,,,,,,,,,,,,,,,,,,,,,,,,,,,,,,,,,,,,,,,,,,,1.49,246.54071659990586,None,248.03544499981217,None,None,1,248.03544499981217,None,250.0394859998487,None,,,,,,,,,,,,,,,,,,,,,,,,,,,,,,,,P003,fencog,1,Pre,2021_Jul_05_1112,N-Back (New Version 2021),2021.1.4,119.96967165953049,
Conditions/Version_1Pr/zeroback(1)_v1.xlsx,Rule: Press 'space' when you see the letter 'x' or 'X'.,,,,,,,0,0,0,0,,,,,,,,,,,,,,,,,,,,,,,,,,,,,,,,,,,,,,,,,,,,,,,,,,,,,,,,,,,,,,,,,,,,,,,,,,,,,,,,,,,,,,,,,P003,fencog,1,Pre,2021_Jul_05_1112,N-Back (New Version 2021),2021.1.4,119.96967165953049,
Conditions/Version_1Pr/oneback(1)_v1.xlsx,New rule: Press 'space' when you see 1-back (i.e. the same letter as the one that appeared 1 letter ago.),a,None,,,,,0,1,1,1,0,0,0,0,,,,,,,,,,,,,,,,,,,,,,,,,,,,,,,,,251.56338479998522,None,254.5482878999319,None,space,19.920754299964756,254.5482878999319,None,251.56338479998522,None,1.165,274.4897390999831,None,275.65987329999916,None,None,1,275.65987329999916,None,277.6647818000056,None,,,,,,,,,,,,,,,,,,,,,,,,,,,,,,,,P003,fencog,1,Pre,2021_Jul_05_1112,N-Back (New Version 2021),2021.1.4,119.96967165953049,
Conditions/Version_1Pr/oneback(1)_v1.xlsx,New rule: Press 'space' when you see 1-back (i.e. the same letter as the one that appeared 1 letter ago.),x,None,,,,,0,1,1,1,0,1,1,1,,,,,,,,,,,,,,,,,,,,,,,,,,,,,,,,,,,,,,,,,,,1.79,279.16444299998693,None,280.95689759985544,None,None,1,280.95689759985544,None,282.96333289984614,None,,,,,,,,,,,,,,,,,,,,,,,,,,,,,,,,P003,fencog,1,Pre,2021_Jul_05_1112,N-Back (New Version 2021),2021.1.4,119.96967165953049,
Conditions/Version_1Pr/oneback(1)_v1.xlsx,New rule: Press 'space' when you see 1-back (i.e. the same letter as the one that appeared 1 letter ago.),g,None,,,,,0,1,1,1,0,2,2,2,,,,,,,,,,,,,,,,,,,,,,,,,,,,,,,,,,,,,,,,,,,1.915,284.46282599982806,None,286.38045769999735,None,None,1,286.38045769999735,None,288.38656409992836,None,,,,,,,,,,,,,,,,,,,,,,,,,,,,,,,,P003,fencog,1,Pre,2021_Jul_05_1112,N-Back (New Version 2021),2021.1.4,119.96967165953049,
Conditions/Version_1Pr/oneback(1)_v1.xlsx,New rule: Press 'space' when you see 1-back (i.e. the same letter as the one that appeared 1 letter ago.),G,space,,,,,0,1,1,1,0,3,3,3,,,,,,,,,,,,,,,,,,,,,,,,,,,,,,,,,,,,,,,,,,,1.89,289.8862584999297,None,291.77941519999877,None,space,1,291.77941519999877,None,292.16955659980886,None,0.37753150006756186,,,,,,,,,,,,,,,,,,,,,,,,,,,,,,,P003,fencog,1,Pre,2021_Jul_05_1112,N-Back (New Version 2021),2021.1.4,119.96967165953049,
Conditions/Version_1Pr/oneback(1)_v1.xlsx,New rule: Press 'space' when you see 1-back (i.e. the same letter as the one that appeared 1 letter ago.),u,None,,,,,0,1,1,1,0,4,4,4,,,,,,,,,,,,,,,,,,,,,,,,,,,,,,,,,,,,,,,,,,,1.815,293.66849309997633,None,295.4916935998481,None,None,1,295.4916935998481,None,297.4922743998468,None,,,,,,,,,,,,,,,,,,,,,,,,,,,,,,,,P003,fencog,1,Pre,2021_Jul_05_1112,N-Back (New Version 2021),2021.1.4,119.96967165953049,
Conditions/Version_1Pr/oneback(1)_v1.xlsx,New rule: Press 'space' when you see 1-back (i.e. the same letter as the one that appeared 1 letter ago.),y,None,,,,,0,1,1,1,0,5,5,5,,,,,,,,,,,,,,,,,,,,,,,,,,,,,,,,,,,,,,,,,,,1.09,298.9919315997977,None,300.0846371999942,None,None,1,300.0846371999942,None,302.090989299817,None,,,,,,,,,,,,,,,,,,,,,,,,,,,,,,,,P003,fencog,1,Pre,2021_Jul_05_1112,N-Back (New Version 2021),2021.1.4,119.96967165953049,
Conditions/Version_1Pr/oneback(1)_v1.xlsx,New rule: Press 'space' when you see 1-back (i.e. the same letter as the one that appeared 1 letter ago.),y,space,,,,,0,1,1,1,0,6,6,6,,,,,,,,,,,,,,,,,,,,,,,,,,,,,,,,,,,,,,,,,,,1.34,303.5905111997854,None,304.9317440998275,None,space,1,304.9317440998275,None,305.32065979996696,None,0.36922300001606345,,,,,,,,,,,,,,,,,,,,,,,,,,,,,,,P003,fencog,1,Pre,2021_Jul_05_1112,N-Back (New Version 2021),2021.1.4,119.96967165953049,
Conditions/Version_1Pr/oneback(1)_v1.xlsx,New rule: Press 'space' when you see 1-back (i.e. the same letter as the one that appeared 1 letter ago.),k,None,,,,,0,1,1,1,0,7,7,7,,,,,,,,,,,,,,,,,,,,,,,,,,,,,,,,,,,,,,,,,,,1.315,306.82282639993355,None,308.1396450998727,None,None,1,308.1396450998727,None,310.14692299999297,None,,,,,,,,,,,,,,,,,,,,,,,,,,,,,,,,P003,fencog,1,Pre,2021_Jul_05_1112,N-Back (New Version 2021),2021.1.4,119.96967165953049,
Conditions/Version_1Pr/oneback(1)_v1.xlsx,New rule: Press 'space' when you see 1-back (i.e. the same letter as the one that appeared 1 letter ago.),c,None,,,,,0,1,1,1,0,8,8,8,,,,,,,,,,,,,,,,,,,,,,,,,,,,,,,,,,,,,,,,,,,1.69,311.6463906997815,None,313.3395002000034,None,None,1,313.3395002000034,None,315.3453206999693,None,,,,,,,,,,,,,,,,,,,,,,,,,,,,,,,,P003,fencog,1,Pre,2021_Jul_05_1112,N-Back (New Version 2021),2021.1.4,119.96967165953049,
Conditions/Version_1Pr/oneback(1)_v1.xlsx,New rule: Press 'space' when you see 1-back (i.e. the same letter as the one that appeared 1 letter ago.),r,None,,,,,0,1,1,1,0,9,9,9,,,,,,,,,,,,,,,,,,,,,,,,,,,,,,,,,,,,,,,,,,,1.765,316.8448764998466,None,318.6144381999038,None,None,1,318.6144381999038,None,320.61891379998997,None,,,,,,,,,,,,,,,,,,,,,,,,,,,,,,,,P003,fencog,1,Pre,2021_Jul_05_1112,N-Back (New Version 2021),2021.1.4,119.96967165953049,
Conditions/Version_1Pr/oneback(1)_v1.xlsx,New rule: Press 'space' when you see 1-back (i.e. the same letter as the one that appeared 1 letter ago.),,,,,,,0,1,1,1,,,,,,,,,,,,,,,,,,,,,,,,,,,,,,,,,,,,,,,,,,,,,,,,,,,,,,,,,,,,,,,,,,,,,,,,,,,,,,,,,,,,,,,,,P003,fencog,1,Pre,2021_Jul_05_1112,N-Back (New Version 2021),2021.1.4,119.96967165953049,
Conditions/Version_1Pr/twoback(1)_v1.xlsx,New rule: Press 'space' when you see 2-back (i.e. the same letter as the one that appeared 2 letters ago.),E,None,,,,,0,2,2,2,0,0,0,0,,,,,,,,,,,,,,,,,,,,,,,,,,,,,,,,,322.1424921997823,None,325.12826669984497,None,space,5.852625100174919,325.12826669984497,None,322.1424921997823,None,1.815,331.00138689996675,None,332.8268074998632,None,None,1,332.8268074998632,None,334.83115809992887,None,,,,,,,,,,,,,,,,,,,,,,,,,,,,,,,,P003,fencog,1,Pre,2021_Jul_05_1112,N-Back (New Version 2021),2021.1.4,119.96967165953049,
Conditions/Version_1Pr/twoback(1)_v1.xlsx,New rule: Press 'space' when you see 2-back (i.e. the same letter as the one that appeared 2 letters ago.),p,None,,,,,0,2,2,2,0,1,1,1,,,,,,,,,,,,,,,,,,,,,,,,,,,,,,,,,,,,,,,,,,,2.015,336.332177599892,None,338.34678549994715,None,None,1,338.34678549994715,None,340.346142699942,None,,,,,,,,,,,,,,,,,,,,,,,,,,,,,,,,P003,fencog,1,Pre,2021_Jul_05_1112,N-Back (New Version 2021),2021.1.4,119.96967165953049,
Conditions/Version_1Pr/twoback(1)_v1.xlsx,New rule: Press 'space' when you see 2-back (i.e. the same letter as the one that appeared 2 letters ago.),e,space,,,,,0,2,2,2,0,2,2,2,,,,,,,,,,,,,,,,,,,,,,,,,,,,,,,,,,,,,,,,,,,1.465,341.84558580000885,None,343.3129314999096,None,space,1,343.3129314999096,None,343.6629557998385,None,0.3398269999306649,,,,,,,,,,,,,,,,,,,,,,,,,,,,,,,P003,fencog,1,Pre,2021_Jul_05_1112,N-Back (New Version 2021),2021.1.4,119.96967165953049,
Conditions/Version_1Pr/twoback(1)_v1.xlsx,New rule: Press 'space' when you see 2-back (i.e. the same letter as the one that appeared 2 letters ago.),s,None,,,,,0,2,2,2,0,3,3,3,,,,,,,,,,,,,,,,,,,,,,,,,,,,,,,,,,,,,,,,,,,1.24,345.1697050000075,None,346.41491689998657,None,None,1,346.41491689998657,None,348.41898459987715,None,,,,,,,,,,,,,,,,,,,,,,,,,,,,,,,,P003,fencog,1,Pre,2021_Jul_05_1112,N-Back (New Version 2021),2021.1.4,119.96967165953049,
Conditions/Version_1Pr/twoback(1)_v1.xlsx,New rule: Press 'space' when you see 2-back (i.e. the same letter as the one that appeared 2 letters ago.),S,None,,,,,0,2,2,2,0,4,4,4,,,,,,,,,,,,,,,,,,,,,,,,,,,,,,,,,,,,,,,,,,,1.515,349.9184744998347,None,351.4372437999118,None,None,1,351.4372437999118,None,353.44252059981227,None,,,,,,,,,,,,,,,,,,,,,,,,,,,,,,,,P003,fencog,1,Pre,2021_Jul_05_1112,N-Back (New Version 2021),2021.1.4,119.96967165953049,
Conditions/Version_1Pr/twoback(1)_v1.xlsx,New rule: Press 'space' when you see 2-back (i.e. the same letter as the one that appeared 2 letters ago.),s,space,,,,,0,2,2,2,0,5,5,5,,,,,,,,,,,,,,,,,,,,,,,,,,,,,,,,,,,,,,,,,,,1.165,354.9419495998882,None,356.1090859998949,None,space,1,356.1090859998949,None,356.5109331998974,None,0.39207529998384416,,,,,,,,,,,,,,,,,,,,,,,,,,,,,,,P003,fencog,1,Pre,2021_Jul_05_1112,N-Back (New Version 2021),2021.1.4,119.96967165953049,
Conditions/Version_1Pr/twoback(1)_v1.xlsx,New rule: Press 'space' when you see 2-back (i.e. the same letter as the one that appeared 2 letters ago.),P,None,,,,,0,2,2,2,0,6,6,6,,,,,,,,,,,,,,,,,,,,,,,,,,,,,,,,,,,,,,,,,,,1.99,358.0160595998168,None,360.01767129986547,None,None,1,360.01767129986547,None,362.01493479986675,None,,,,,,,,,,,,,,,,,,,,,,,,,,,,,,,,P003,fencog,1,Pre,2021_Jul_05_1112,N-Back (New Version 2021),2021.1.4,119.96967165953049,
Conditions/Version_1Pr/twoback(1)_v1.xlsx,New rule: Press 'space' when you see 2-back (i.e. the same letter as the one that appeared 2 letters ago.),C,None,,,,,0,2,2,2,0,7,7,7,,,,,,,,,,,,,,,,,,,,,,,,,,,,,,,,,,,,,,,,,,,1.765,363.5144930998795,None,365.28616619994864,None,None,1,365.28616619994864,None,367.28842269978486,None,,,,,,,,,,,,,,,,,,,,,,,,,,,,,,,,P003,fencog,1,Pre,2021_Jul_05_1112,N-Back (New Version 2021),2021.1.4,119.96967165953049,
Conditions/Version_1Pr/twoback(1)_v1.xlsx,New rule: Press 'space' when you see 2-back (i.e. the same letter as the one that appeared 2 letters ago.),x,None,,,,,0,2,2,2,0,8,8,8,,,,,,,,,,,,,,,,,,,,,,,,,,,,,,,,,,,,,,,,,,,1.415,368.78800049982965,None,370.2061809999868,None,None,1,370.2061809999868,None,372.2118700998835,None,,,,,,,,,,,,,,,,,,,,,,,,,,,,,,,,P003,fencog,1,Pre,2021_Jul_05_1112,N-Back (New Version 2021),2021.1.4,119.96967165953049,
Conditions/Version_1Pr/twoback(1)_v1.xlsx,New rule: Press 'space' when you see 2-back (i.e. the same letter as the one that appeared 2 letters ago.),Z,None,,,,,0,2,2,2,0,9,9,9,,,,,,,,,,,,,,,,,,,,,,,,,,,,,,,,,,,,,,,,,,,1.29,373.7114189998247,None,375.0062990000006,None,None,1,375.0062990000006,None,377.01048469985835,None,,,,,,,,,,,,,,,,,,,,,,,,,,,,,,,,P003,fencog,1,Pre,2021_Jul_05_1112,N-Back (New Version 2021),2021.1.4,119.96967165953049,
Conditions/Version_1Pr/twoback(1)_v1.xlsx,New rule: Press 'space' when you see 2-back (i.e. the same letter as the one that appeared 2 letters ago.),,,,,,,0,2,2,2,,,,,,,,,,,,,,,,,,,,,,,,,,,,,,,,,,,,,,,,,,,,,,,,,,,,,,,,,,,,,,,,,,,,,,,,,,,,,,,,,,,,,,,,,P003,fencog,1,Pre,2021_Jul_05_1112,N-Back (New Version 2021),2021.1.4,119.96967165953049,
Conditions/Version_1Pr/threeback(1)_v1.xlsx,New rule: Press 'space' when you see 3-back (i.e. the same letter as the one that appeared 3 letters ago.),r,None,,,,,0,3,3,3,0,0,0,0,,,,,,,,,,,,,,,,,,,,,,,,,,,,,,,,,378.5319979998749,None,381.52374849980697,None,space,4.137325200019404,381.52374849980697,None,378.5319979998749,None,1.44,385.6854979998898,None,387.13404599996284,None,None,1,387.13404599996284,None,389.140198999783,None,,,,,,,,,,,,,,,,,,,,,,,,,,,,,,,,P003,fencog,1,Pre,2021_Jul_05_1112,N-Back (New Version 2021),2021.1.4,119.96967165953049,
Conditions/Version_1Pr/threeback(1)_v1.xlsx,New rule: Press 'space' when you see 3-back (i.e. the same letter as the one that appeared 3 letters ago.),a,None,,,,,0,3,3,3,0,1,1,1,,,,,,,,,,,,,,,,,,,,,,,,,,,,,,,,,,,,,,,,,,,1.09,390.6397243998945,None,391.7322714999318,None,None,1,391.7322714999318,None,393.73881639982574,None,,,,,,,,,,,,,,,,,,,,,,,,,,,,,,,,P003,fencog,1,Pre,2021_Jul_05_1112,N-Back (New Version 2021),2021.1.4,119.96967165953049,
Conditions/Version_1Pr/threeback(1)_v1.xlsx,New rule: Press 'space' when you see 3-back (i.e. the same letter as the one that appeared 3 letters ago.),t,None,,,,,0,3,3,3,0,2,2,2,,,,,,,,,,,,,,,,,,,,,,,,,,,,,,,,,,,,,,,,,,,1.29,395.23840759997256,None,396.5314835999161,None,None,1,396.5314835999161,None,398.53750399989076,None,,,,,,,,,,,,,,,,,,,,,,,,,,,,,,,,P003,fencog,1,Pre,2021_Jul_05_1112,N-Back (New Version 2021),2021.1.4,119.96967165953049,
Conditions/Version_1Pr/threeback(1)_v1.xlsx,New rule: Press 'space' when you see 3-back (i.e. the same letter as the one that appeared 3 letters ago.),r,space,,,,,0,3,3,3,0,3,3,3,,,,,,,,,,,,,,,,,,,,,,,,,,,,,,,,,,,,,,,,,,,1.065,400.0375416998286,None,401.1048702998087,None,space,1,401.1048702998087,None,401.54730329988524,None,0.4288918001111597,,,,,,,,,,,,,,,,,,,,,,,,,,,,,,,P003,fencog,1,Pre,2021_Jul_05_1112,N-Back (New Version 2021),2021.1.4,119.96967165953049,
Conditions/Version_1Pr/threeback(1)_v1.xlsx,New rule: Press 'space' when you see 3-back (i.e. the same letter as the one that appeared 3 letters ago.),a,None,,,,,0,3,3,3,0,4,4,4,,,,,,,,,,,,,,,,,,,,,,,,,,,,,,,,,,,,,,,,,,,1.665,403.0526787999552,None,404.72626949986443,None,None,1,404.72626949986443,None,406.7267728999723,None,,,,,,,,,,,,,,,,,,,,,,,,,,,,,,,,P003,fencog,1,Pre,2021_Jul_05_1112,N-Back (New Version 2021),2021.1.4,119.96967165953049,
Conditions/Version_1Pr/threeback(1)_v1.xlsx,New rule: Press 'space' when you see 3-back (i.e. the same letter as the one that appeared 3 letters ago.),Y,None,,,,,0,3,3,3,0,5,5,5,,,,,,,,,,,,,,,,,,,,,,,,,,,,,,,,,,,,,,,,,,,1.99,408.2262175998185,None,410.21942769992165,None,None,1,410.21942769992165,None,412.2292959999759,None,,,,,,,,,,,,,,,,,,,,,,,,,,,,,,,,P003,fencog,1,Pre,2021_Jul_05_1112,N-Back (New Version 2021),2021.1.4,119.96967165953049,
Conditions/Version_1Pr/threeback(1)_v1.xlsx,New rule: Press 'space' when you see 3-back (i.e. the same letter as the one that appeared 3 letters ago.),q,None,,,,,0,3,3,3,0,6,6,6,,,,,,,,,,,,,,,,,,,,,,,,,,,,,,,,,,,,,,,,,,,1.515,413.7247231998481,None,415.24418649985455,None,None,1,415.24418649985455,None,417.2485712999478,None,,,,,,,,,,,,,,,,,,,,,,,,,,,,,,,,P003,fencog,1,Pre,2021_Jul_05_1112,N-Back (New Version 2021),2021.1.4,119.96967165953049,
Conditions/Version_1Pr/threeback(1)_v1.xlsx,New rule: Press 'space' when you see 3-back (i.e. the same letter as the one that appeared 3 letters ago.),A,space,,,,,0,3,3,3,0,7,7,7,,,,,,,,,,,,,,,,,,,,,,,,,,,,,,,,,,,,,,,,,,,1.84,418.74801099998876,None,420.5939511999022,None,space,1,420.5939511999022,None,421.29047239990905,None,0.6828018000815064,,,,,,,,,,,,,,,,,,,,,,,,,,,,,,,P003,fencog,1,Pre,2021_Jul_05_1112,N-Back (New Version 2021),2021.1.4,119.96967165953049,
Conditions/Version_1Pr/threeback(1)_v1.xlsx,New rule: Press 'space' when you see 3-back (i.e. the same letter as the one that appeared 3 letters ago.),y,None,,,,,0,3,3,3,0,8,8,8,,,,,,,,,,,,,,,,,,,,,,,,,,,,,,,,,,,,,,,,,,,1.315,422.7965080998838,None,424.1146686999127,None,space,0,424.1146686999127,None,425.60158669995144,None,1.474055799888447,,,,,,,,,,,,,,,,,,,,,,,,,,,,,,,P003,fencog,1,Pre,2021_Jul_05_1112,N-Back (New Version 2021),2021.1.4,119.96967165953049,
Conditions/Version_1Pr/threeback(1)_v1.xlsx,New rule: Press 'space' when you see 3-back (i.e. the same letter as the one that appeared 3 letters ago.),r,None,,,,,0,3,3,3,0,9,9,9,,,,,,,,,,,,,,,,,,,,,,,,,,,,,,,,,,,,,,,,,,,1.24,427.10390919982456,None,428.3486577998847,None,None,1,428.3486577998847,None,430.3543703998439,None,,,,,,,,,,,,,,,,,,,,,,,,,,,,,,,,P003,fencog,1,Pre,2021_Jul_05_1112,N-Back (New Version 2021),2021.1.4,119.96967165953049,
Conditions/Version_1Pr/threeback(1)_v1.xlsx,New rule: Press 'space' when you see 3-back (i.e. the same letter as the one that appeared 3 letters ago.),,,,,,,0,3,3,3,,,,,,,,,,,,,,,,,,,,,,,,,,,,,,,,,,,,,,,,,,,,,,,,,,,,,,,,,,,,,,,,,,,,,,,,,,,,,,,,,,,,,,,,,P003,fencog,1,Pre,2021_Jul_05_1112,N-Back (New Version 2021),2021.1.4,119.96967165953049,
,,,,,,,,,,,,,,,,,,,,,,,,,,,,,,,,,,,,,,,,,,,,,,,,,,,,,,,,,,,,,,,,,,,,,,431.8608785998076,None,space,1.7795536001212895,432.35268749995157,None,,,,,,,,,,,,,,,,,,,,,,,,,P003,fencog,1,Pre,2021_Jul_05_1112,N-Back (New Version 2021),2021.1.4,119.96967165953049,
,,,,,,,,,,,,,,,,,,,,,,,,,,,,,,,,,,,,,,,,,,,,,,,,,,,,,,,,,,,,,,,,,,,,,,,,,,,,434.15966789983213,None,space,4.584656900027767,434.6520347998012,None,,,,,,,,,,,,,,,,,,,P003,fencog,1,Pre,2021_Jul_05_1112,N-Back (New Version 2021),2021.1.4,119.96967165953049,
,,,,Conditions/Version_1/zeroback(1)_v1.xlsx,Rule: Press 'space' when you see the letter 'x' or 'X'.,b,None,,,,,,,,,0,0,0,0,0,0,0,0,,,,,,,,,,,,,,,,,,,,,,,,,,,,,,,,,,,,,,,,,,,,,,,,,,,,,,,,,,,439.3452073999215,None,442.33502050000243,None,space,5.541878100018948,442.33502050000243,None,439.3452073999215,None,1.0596,448.95724969985895,None,None,1,448.95724969985895,None,,P003,fencog,1,Pre,2021_Jul_05_1112,N-Back (New Version 2021),2021.1.4,119.96967165953049,
,,,,Conditions/Version_1/zeroback(1)_v1.xlsx,Rule: Press 'space' when you see the letter 'x' or 'X'.,T,None,,,,,,,,,0,0,0,0,0,1,1,1,,,,,,,,,,,,,,,,,,,,,,,,,,,,,,,,,,,,,,,,,,,,,,,,,,,,,,,,,,,,,,,,,,,,,1.0534,452.0240456999745,None,None,1,452.0240456999745,None,,P003,fencog,1,Pre,2021_Jul_05_1112,N-Back (New Version 2021),2021.1.4,119.96967165953049,
,,,,Conditions/Version_1/zeroback(1)_v1.xlsx,Rule: Press 'space' when you see the letter 'x' or 'X'.,L,None,,,,,,,,,0,0,0,0,0,2,2,2,,,,,,,,,,,,,,,,,,,,,,,,,,,,,,,,,,,,,,,,,,,,,,,,,,,,,,,,,,,,,,,,,,,,,1.5866,455.6216300998349,None,None,1,455.6216300998349,None,,P003,fencog,1,Pre,2021_Jul_05_1112,N-Back (New Version 2021),2021.1.4,119.96967165953049,
,,,,Conditions/Version_1/zeroback(1)_v1.xlsx,Rule: Press 'space' when you see the letter 'x' or 'X'.,x,space,,,,,,,,,0,0,0,0,0,3,3,3,,,,,,,,,,,,,,,,,,,,,,,,,,,,,,,,,,,,,,,,,,,,,,,,,,,,,,,,,,,,,,,,,,,,,1.6114,459.2442487999797,None,space,1,459.2442487999797,None,1.416394299827516,P003,fencog,1,Pre,2021_Jul_05_1112,N-Back (New Version 2021),2021.1.4,119.96967165953049,
,,,,Conditions/Version_1/zeroback(1)_v1.xlsx,Rule: Press 'space' when you see the letter 'x' or 'X'.,o,None,,,,,,,,,0,0,0,0,0,4,4,4,,,,,,,,,,,,,,,,,,,,,,,,,,,,,,,,,,,,,,,,,,,,,,,,,,,,,,,,,,,,,,,,,,,,,1.2766,462.5312874999363,None,None,1,462.5312874999363,None,,P003,fencog,1,Pre,2021_Jul_05_1112,N-Back (New Version 2021),2021.1.4,119.96967165953049,
,,,,Conditions/Version_1/zeroback(1)_v1.xlsx,Rule: Press 'space' when you see the letter 'x' or 'X'.,P,None,,,,,,,,,0,0,0,0,0,5,5,5,,,,,,,,,,,,,,,,,,,,,,,,,,,,,,,,,,,,,,,,,,,,,,,,,,,,,,,,,,,,,,,,,,,,,1.6548,466.1920309998095,None,None,1,466.1920309998095,None,,P003,fencog,1,Pre,2021_Jul_05_1112,N-Back (New Version 2021),2021.1.4,119.96967165953049,
,,,,Conditions/Version_1/zeroback(1)_v1.xlsx,Rule: Press 'space' when you see the letter 'x' or 'X'.,X,space,,,,,,,,,0,0,0,0,0,6,6,6,,,,,,,,,,,,,,,,,,,,,,,,,,,,,,,,,,,,,,,,,,,,,,,,,,,,,,,,,,,,,,,,,,,,,1.5184,469.71635449980386,None,space,1,469.71635449980386,None,0.45631040004082024,P003,fencog,1,Pre,2021_Jul_05_1112,N-Back (New Version 2021),2021.1.4,119.96967165953049,
,,,,Conditions/Version_1/zeroback(1)_v1.xlsx,Rule: Press 'space' when you see the letter 'x' or 'X'.,n,None,,,,,,,,,0,0,0,0,0,7,7,7,,,,,,,,,,,,,,,,,,,,,,,,,,,,,,,,,,,,,,,,,,,,,,,,,,,,,,,,,,,,,,,,,,,,,1.7974,473.517265799921,None,None,1,473.517265799921,None,,P003,fencog,1,Pre,2021_Jul_05_1112,N-Back (New Version 2021),2021.1.4,119.96967165953049,
,,,,Conditions/Version_1/zeroback(1)_v1.xlsx,Rule: Press 'space' when you see the letter 'x' or 'X'.,M,None,,,,,,,,,0,0,0,0,0,8,8,8,,,,,,,,,,,,,,,,,,,,,,,,,,,,,,,,,,,,,,,,,,,,,,,,,,,,,,,,,,,,,,,,,,,,,1.4874,477.01560519984923,None,None,1,477.01560519984923,None,,P003,fencog,1,Pre,2021_Jul_05_1112,N-Back (New Version 2021),2021.1.4,119.96967165953049,
,,,,Conditions/Version_1/zeroback(1)_v1.xlsx,Rule: Press 'space' when you see the letter 'x' or 'X'.,a,None,,,,,,,,,0,0,0,0,0,9,9,9,,,,,,,,,,,,,,,,,,,,,,,,,,,,,,,,,,,,,,,,,,,,,,,,,,,,,,,,,,,,,,,,,,,,,1.3758,480.40507849981077,None,None,1,480.40507849981077,None,,P003,fencog,1,Pre,2021_Jul_05_1112,N-Back (New Version 2021),2021.1.4,119.96967165953049,
,,,,Conditions/Version_1/zeroback(1)_v1.xlsx,Rule: Press 'space' when you see the letter 'x' or 'X'.,,,,,,,,,,,0,0,0,0,,,,,,,,,,,,,,,,,,,,,,,,,,,,,,,,,,,,,,,,,,,,,,,,,,,,,,,,,,,,,,,,,,,,,,,,,,,,,,,,,P003,fencog,1,Pre,2021_Jul_05_1112,N-Back (New Version 2021),2021.1.4,119.96967165953049,
,,,,Conditions/Version_1/oneback(1)_v1.xlsx,New rule: Press 'space' when you see 1-back (i.e. the same letter as the one that appeared 1 letter ago.),b,None,,,,,,,,,0,1,1,1,0,0,0,0,,,,,,,,,,,,,,,,,,,,,,,,,,,,,,,,,,,,,,,,,,,,,,,,,,,,,,,,,,,482.4369871998206,None,485.40540639986284,None,space,3.9111339999362826,485.40540639986284,None,482.4369871998206,None,1.661,491.00981249986216,None,None,1,491.00981249986216,None,,P003,fencog,1,Pre,2021_Jul_05_1112,N-Back (New Version 2021),2021.1.4,119.96967165953049,
,,,,Conditions/Version_1/oneback(1)_v1.xlsx,New rule: Press 'space' when you see 1-back (i.e. the same letter as the one that appeared 1 letter ago.),p,None,,,,,,,,,0,1,1,1,0,1,1,1,,,,,,,,,,,,,,,,,,,,,,,,,,,,,,,,,,,,,,,,,,,,,,,,,,,,,,,,,,,,,,,,,,,,,1.7664,494.7754422998987,None,None,1,494.7754422998987,None,,P003,fencog,1,Pre,2021_Jul_05_1112,N-Back (New Version 2021),2021.1.4,119.96967165953049,
,,,,Conditions/Version_1/oneback(1)_v1.xlsx,New rule: Press 'space' when you see 1-back (i.e. the same letter as the one that appeared 1 letter ago.),M,None,,,,,,,,,0,1,1,1,0,2,2,2,,,,,,,,,,,,,,,,,,,,,,,,,,,,,,,,,,,,,,,,,,,,,,,,,,,,,,,,,,,,,,,,,,,,,1.8718,498.6565229999833,None,None,1,498.6565229999833,None,,P003,fencog,1,Pre,2021_Jul_05_1112,N-Back (New Version 2021),2021.1.4,119.96967165953049,
,,,,Conditions/Version_1/oneback(1)_v1.xlsx,New rule: Press 'space' when you see 1-back (i.e. the same letter as the one that appeared 1 letter ago.),M,space,,,,,,,,,0,1,1,1,0,3,3,3,,,,,,,,,,,,,,,,,,,,,,,,,,,,,,,,,,,,,,,,,,,,,,,,,,,,,,,,,,,,,,,,,,,,,1.8656,502.52348139998503,None,space,1,502.52348139998503,None,0.49707900010980666,P003,fencog,1,Pre,2021_Jul_05_1112,N-Back (New Version 2021),2021.1.4,119.96967165953049,
,,,,Conditions/Version_1/oneback(1)_v1.xlsx,New rule: Press 'space' when you see 1-back (i.e. the same letter as the one that appeared 1 letter ago.),n,None,,,,,,,,,0,1,1,1,0,4,4,4,,,,,,,,,,,,,,,,,,,,,,,,,,,,,,,,,,,,,,,,,,,,,,,,,,,,,,,,,,,,,,,,,,,,,1.1154,505.6425896999426,None,None,1,505.6425896999426,None,,P003,fencog,1,Pre,2021_Jul_05_1112,N-Back (New Version 2021),2021.1.4,119.96967165953049,
,,,,Conditions/Version_1/oneback(1)_v1.xlsx,New rule: Press 'space' when you see 1-back (i.e. the same letter as the one that appeared 1 letter ago.),g,None,,,,,,,,,0,1,1,1,0,5,5,5,,,,,,,,,,,,,,,,,,,,,,,,,,,,,,,,,,,,,,,,,,,,,,,,,,,,,,,,,,,,,,,,,,,,,1.0596,508.7129890997894,None,None,1,508.7129890997894,None,,P003,fencog,1,Pre,2021_Jul_05_1112,N-Back (New Version 2021),2021.1.4,119.96967165953049,
,,,,Conditions/Version_1/oneback(1)_v1.xlsx,New rule: Press 'space' when you see 1-back (i.e. the same letter as the one that appeared 1 letter ago.),P,None,,,,,,,,,0,1,1,1,0,6,6,6,,,,,,,,,,,,,,,,,,,,,,,,,,,,,,,,,,,,,,,,,,,,,,,,,,,,,,,,,,,,,,,,,,,,,1.4874,512.2054623998702,None,None,1,512.2054623998702,None,,P003,fencog,1,Pre,2021_Jul_05_1112,N-Back (New Version 2021),2021.1.4,119.96967165953049,
,,,,Conditions/Version_1/oneback(1)_v1.xlsx,New rule: Press 'space' when you see 1-back (i.e. the same letter as the one that appeared 1 letter ago.),o,None,,,,,,,,,0,1,1,1,0,7,7,7,,,,,,,,,,,,,,,,,,,,,,,,,,,,,,,,,,,,,,,,,,,,,,,,,,,,,,,,,,,,,,,,,,,,,1.4688,515.6882364999037,None,None,1,515.6882364999037,None,,P003,fencog,1,Pre,2021_Jul_05_1112,N-Back (New Version 2021),2021.1.4,119.96967165953049,
,,,,Conditions/Version_1/oneback(1)_v1.xlsx,New rule: Press 'space' when you see 1-back (i.e. the same letter as the one that appeared 1 letter ago.),f,None,,,,,,,,,0,1,1,1,0,8,8,8,,,,,,,,,,,,,,,,,,,,,,,,,,,,,,,,,,,,,,,,,,,,,,,,,,,,,,,,,,,,,,,,,,,,,1.6362,519.3373411998618,None,None,1,519.3373411998618,None,,P003,fencog,1,Pre,2021_Jul_05_1112,N-Back (New Version 2021),2021.1.4,119.96967165953049,
,,,,Conditions/Version_1/oneback(1)_v1.xlsx,New rule: Press 'space' when you see 1-back (i.e. the same letter as the one that appeared 1 letter ago.),F,space,,,,,,,,,0,1,1,1,0,9,9,9,,,,,,,,,,,,,,,,,,,,,,,,,,,,,,,,,,,,,,,,,,,,,,,,,,,,,,,,,,,,,,,,,,,,,1.3572,522.7033605999313,None,space,1,522.7033605999313,None,0.3731364000122994,P003,fencog,1,Pre,2021_Jul_05_1112,N-Back (New Version 2021),2021.1.4,119.96967165953049,
,,,,Conditions/Version_1/oneback(1)_v1.xlsx,New rule: Press 'space' when you see 1-back (i.e. the same letter as the one that appeared 1 letter ago.),,,,,,,,,,,0,1,1,1,,,,,,,,,,,,,,,,,,,,,,,,,,,,,,,,,,,,,,,,,,,,,,,,,,,,,,,,,,,,,,,,,,,,,,,,,,,,,,,,,P003,fencog,1,Pre,2021_Jul_05_1112,N-Back (New Version 2021),2021.1.4,119.96967165953049,
,,,,Conditions/Version_1/twoback(1)_v1.xlsx,New rule: Press 'space' when you see 2-back (i.e. the same letter as the one that appeared 2 letters ago.),b,None,,,,,,,,,0,2,2,2,0,0,0,0,,,,,,,,,,,,,,,,,,,,,,,,,,,,,,,,,,,,,,,,,,,,,,,,,,,,,,,,,,,524.7287649000064,None,527.718653799966,None,space,0.5097688999958336,527.718653799966,None,524.7287649000064,None,1.475,529.7273856999818,None,None,1,529.7273856999818,None,,P003,fencog,1,Pre,2021_Jul_05_1112,N-Back (New Version 2021),2021.1.4,119.96967165953049,
,,,,Conditions/Version_1/twoback(1)_v1.xlsx,New rule: Press 'space' when you see 2-back (i.e. the same letter as the one that appeared 2 letters ago.),h,None,,,,,,,,,0,2,2,2,0,1,1,1,,,,,,,,,,,,,,,,,,,,,,,,,,,,,,,,,,,,,,,,,,,,,,,,,,,,,,,,,,,,,,,,,,,,,1.3386,533.0807852998842,None,None,1,533.0807852998842,None,,P003,fencog,1,Pre,2021_Jul_05_1112,N-Back (New Version 2021),2021.1.4,119.96967165953049,
,,,,Conditions/Version_1/twoback(1)_v1.xlsx,New rule: Press 'space' when you see 2-back (i.e. the same letter as the one that appeared 2 letters ago.),j,None,,,,,,,,,0,2,2,2,0,2,2,2,,,,,,,,,,,,,,,,,,,,,,,,,,,,,,,,,,,,,,,,,,,,,,,,,,,,,,,,,,,,,,,,,,,,,1.9834,537.0657083999831,None,None,1,537.0657083999831,None,,P003,fencog,1,Pre,2021_Jul_05_1112,N-Back (New Version 2021),2021.1.4,119.96967165953049,
,,,,Conditions/Version_1/twoback(1)_v1.xlsx,New rule: Press 'space' when you see 2-back (i.e. the same letter as the one that appeared 2 letters ago.),H,space,,,,,,,,,0,2,2,2,0,3,3,3,,,,,,,,,,,,,,,,,,,,,,,,,,,,,,,,,,,,,,,,,,,,,,,,,,,,,,,,,,,,,,,,,,,,,1.9214,540.9980551998597,None,space,1,540.9980551998597,None,0.4227543999440968,P003,fencog,1,Pre,2021_Jul_05_1112,N-Back (New Version 2021),2021.1.4,119.96967165953049,
,,,,Conditions/Version_1/twoback(1)_v1.xlsx,New rule: Press 'space' when you see 2-back (i.e. the same letter as the one that appeared 2 letters ago.),p,None,,,,,,,,,0,2,2,2,0,4,4,4,,,,,,,,,,,,,,,,,,,,,,,,,,,,,,,,,,,,,,,,,,,,,,,,,,,,,,,,,,,,,,,,,,,,,1.0534,544.0643835999072,None,None,1,544.0643835999072,None,,P003,fencog,1,Pre,2021_Jul_05_1112,N-Back (New Version 2021),2021.1.4,119.96967165953049,
,,,,Conditions/Version_1/twoback(1)_v1.xlsx,New rule: Press 'space' when you see 2-back (i.e. the same letter as the one that appeared 2 letters ago.),p,None,,,,,,,,,0,2,2,2,0,5,5,5,,,,,,,,,,,,,,,,,,,,,,,,,,,,,,,,,,,,,,,,,,,,,,,,,,,,,,,,,,,,,,,,,,,,,1.0658,547.135837599868,None,None,1,547.135837599868,None,,P003,fencog,1,Pre,2021_Jul_05_1112,N-Back (New Version 2021),2021.1.4,119.96967165953049,
,,,,Conditions/Version_1/twoback(1)_v1.xlsx,New rule: Press 'space' when you see 2-back (i.e. the same letter as the one that appeared 2 letters ago.),w,None,,,,,,,,,0,2,2,2,0,6,6,6,,,,,,,,,,,,,,,,,,,,,,,,,,,,,,,,,,,,,,,,,,,,,,,,,,,,,,,,,,,,,,,,,,,,,1.3448,550.4950448998716,None,None,1,550.4950448998716,None,,P003,fencog,1,Pre,2021_Jul_05_1112,N-Back (New Version 2021),2021.1.4,119.96967165953049,
,,,,Conditions/Version_1/twoback(1)_v1.xlsx,New rule: Press 'space' when you see 2-back (i.e. the same letter as the one that appeared 2 letters ago.),R,None,,,,,,,,,0,2,2,2,0,7,7,7,,,,,,,,,,,,,,,,,,,,,,,,,,,,,,,,,,,,,,,,,,,,,,,,,,,,,,,,,,,,,,,,,,,,,1.9772,554.4844841999002,None,None,1,554.4844841999002,None,,P003,fencog,1,Pre,2021_Jul_05_1112,N-Back (New Version 2021),2021.1.4,119.96967165953049,
,,,,Conditions/Version_1/twoback(1)_v1.xlsx,New rule: Press 'space' when you see 2-back (i.e. the same letter as the one that appeared 2 letters ago.),a,None,,,,,,,,,0,2,2,2,0,8,8,8,,,,,,,,,,,,,,,,,,,,,,,,,,,,,,,,,,,,,,,,,,,,,,,,,,,,,,,,,,,,,,,,,,,,,1.5184,558.0199178999756,None,None,1,558.0199178999756,None,,P003,fencog,1,Pre,2021_Jul_05_1112,N-Back (New Version 2021),2021.1.4,119.96967165953049,
,,,,Conditions/Version_1/twoback(1)_v1.xlsx,New rule: Press 'space' when you see 2-back (i.e. the same letter as the one that appeared 2 letters ago.),r,space,,,,,,,,,0,2,2,2,0,9,9,9,,,,,,,,,,,,,,,,,,,,,,,,,,,,,,,,,,,,,,,,,,,,,,,,,,,,,,,,,,,,,,,,,,,,,1.7726,561.7984421998262,None,None,0,561.7984421998262,None,,P003,fencog,1,Pre,2021_Jul_05_1112,N-Back (New Version 2021),2021.1.4,119.96967165953049,
,,,,Conditions/Version_1/twoback(1)_v1.xlsx,New rule: Press 'space' when you see 2-back (i.e. the same letter as the one that appeared 2 letters ago.),,,,,,,,,,,0,2,2,2,,,,,,,,,,,,,,,,,,,,,,,,,,,,,,,,,,,,,,,,,,,,,,,,,,,,,,,,,,,,,,,,,,,,,,,,,,,,,,,,,P003,fencog,1,Pre,2021_Jul_05_1112,N-Back (New Version 2021),2021.1.4,119.96967165953049,
,,,,Conditions/Version_1/threeback(1)_v1.xlsx,New rule: Press 'space' when you see 3-back (i.e. the same letter as the one that appeared 3 letters ago.),r,None,,,,,,,,,0,3,3,3,0,0,0,0,,,,,,,,,,,,,,,,,,,,,,,,,,,,,,,,,,,,,,,,,,,,,,,,,,,,,,,,,,,563.825102499919,None,566.8148034999613,None,space,0.9016053001396358,566.8148034999613,None,563.825102499919,None,1.6052,569.3617488997988,None,None,1,569.3617488997988,None,,P003,fencog,1,Pre,2021_Jul_05_1112,N-Back (New Version 2021),2021.1.4,119.96967165953049,
,,,,Conditions/Version_1/threeback(1)_v1.xlsx,New rule: Press 'space' when you see 3-back (i.e. the same letter as the one that appeared 3 letters ago.),o,None,,,,,,,,,0,3,3,3,0,1,1,1,,,,,,,,,,,,,,,,,,,,,,,,,,,,,,,,,,,,,,,,,,,,,,,,,,,,,,,,,,,,,,,,,,,,,1.8904,573.2522127998527,None,None,1,573.2522127998527,None,,P003,fencog,1,Pre,2021_Jul_05_1112,N-Back (New Version 2021),2021.1.4,119.96967165953049,
,,,,Conditions/Version_1/threeback(1)_v1.xlsx,New rule: Press 'space' when you see 3-back (i.e. the same letter as the one that appeared 3 letters ago.),P,None,,,,,,,,,0,3,3,3,0,2,2,2,,,,,,,,,,,,,,,,,,,,,,,,,,,,,,,,,,,,,,,,,,,,,,,,,,,,,,,,,,,,,,,,,,,,,1.6672,576.9273226999212,None,None,1,576.9273226999212,None,,P003,fencog,1,Pre,2021_Jul_05_1112,N-Back (New Version 2021),2021.1.4,119.96967165953049,
,,,,Conditions/Version_1/threeback(1)_v1.xlsx,New rule: Press 'space' when you see 3-back (i.e. the same letter as the one that appeared 3 letters ago.),R,space,,,,,,,,,0,3,3,3,0,3,3,3,,,,,,,,,,,,,,,,,,,,,,,,,,,,,,,,,,,,,,,,,,,,,,,,,,,,,,,,,,,,,,,,,,,,,1.5618,580.5049513999838,None,None,0,580.5049513999838,None,,P003,fencog,1,Pre,2021_Jul_05_1112,N-Back (New Version 2021),2021.1.4,119.96967165953049,
,,,,Conditions/Version_1/threeback(1)_v1.xlsx,New rule: Press 'space' when you see 3-back (i.e. the same letter as the one that appeared 3 letters ago.),p,None,,,,,,,,,0,3,3,3,0,4,4,4,,,,,,,,,,,,,,,,,,,,,,,,,,,,,,,,,,,,,,,,,,,,,,,,,,,,,,,,,,,,,,,,,,,,,1.9276,584.4417514000088,None,None,1,584.4417514000088,None,,P003,fencog,1,Pre,2021_Jul_05_1112,N-Back (New Version 2021),2021.1.4,119.96967165953049,
,,,,Conditions/Version_1/threeback(1)_v1.xlsx,New rule: Press 'space' when you see 3-back (i.e. the same letter as the one that appeared 3 letters ago.),E,None,,,,,,,,,0,3,3,3,0,5,5,5,,,,,,,,,,,,,,,,,,,,,,,,,,,,,,,,,,,,,,,,,,,,,,,,,,,,,,,,,,,,,,,,,,,,,1.6114,588.0651174997911,None,None,1,588.0651174997911,None,,P003,fencog,1,Pre,2021_Jul_05_1112,N-Back (New Version 2021),2021.1.4,119.96967165953049,
,,,,Conditions/Version_1/threeback(1)_v1.xlsx,New rule: Press 'space' when you see 3-back (i.e. the same letter as the one that appeared 3 letters ago.),e,None,,,,,,,,,0,3,3,3,0,6,6,6,,,,,,,,,,,,,,,,,,,,,,,,,,,,,,,,,,,,,,,,,,,,,,,,,,,,,,,,,,,,,,,,,,,,,1.2022,591.2809157997835,None,space,0,591.2809157997835,None,1.2926219999790192,P003,fencog,1,Pre,2021_Jul_05_1112,N-Back (New Version 2021),2021.1.4,119.96967165953049,
,,,,Conditions/Version_1/threeback(1)_v1.xlsx,New rule: Press 'space' when you see 3-back (i.e. the same letter as the one that appeared 3 letters ago.),m,None,,,,,,,,,0,3,3,3,0,7,7,7,,,,,,,,,,,,,,,,,,,,,,,,,,,,,,,,,,,,,,,,,,,,,,,,,,,,,,,,,,,,,,,,,,,,,1.4688,594.7654002998024,None,None,1,594.7654002998024,None,,P003,fencog,1,Pre,2021_Jul_05_1112,N-Back (New Version 2021),2021.1.4,119.96967165953049,
,,,,Conditions/Version_1/threeback(1)_v1.xlsx,New rule: Press 'space' when you see 3-back (i.e. the same letter as the one that appeared 3 letters ago.),n,None,,,,,,,,,0,3,3,3,0,8,8,8,,,,,,,,,,,,,,,,,,,,,,,,,,,,,,,,,,,,,,,,,,,,,,,,,,,,,,,,,,,,,,,,,,,,,1.2394,598.0116087999195,None,None,1,598.0116087999195,None,,P003,fencog,1,Pre,2021_Jul_05_1112,N-Back (New Version 2021),2021.1.4,119.96967165953049,
,,,,Conditions/Version_1/threeback(1)_v1.xlsx,New rule: Press 'space' when you see 3-back (i.e. the same letter as the one that appeared 3 letters ago.),e,space,,,,,,,,,0,3,3,3,0,9,9,9,,,,,,,,,,,,,,,,,,,,,,,,,,,,,,,,,,,,,,,,,,,,,,,,,,,,,,,,,,,,,,,,,,,,,1.5866,601.6020580998156,None,None,0,601.6020580998156,None,,P003,fencog,1,Pre,2021_Jul_05_1112,N-Back (New Version 2021),2021.1.4,119.96967165953049,
,,,,Conditions/Version_1/threeback(1)_v1.xlsx,New rule: Press 'space' when you see 3-back (i.e. the same letter as the one that appeared 3 letters ago.),,,,,,,,,,,0,3,3,3,,,,,,,,,,,,,,,,,,,,,,,,,,,,,,,,,,,,,,,,,,,,,,,,,,,,,,,,,,,,,,,,,,,,,,,,,,,,,,,,,P003,fencog,1,Pre,2021_Jul_05_1112,N-Back (New Version 2021),2021.1.4,119.96967165953049,
,,,,Conditions/Version_1/oneback(2)_v1.xlsx,New rule: Press 'space' when you see 1-back (i.e. the same letter as the one that appeared 1 letter ago.),q,None,,,,,,,,,0,4,4,4,0,0,0,0,,,,,,,,,,,,,,,,,,,,,,,,,,,,,,,,,,,,,,,,,,,,,,,,,,,,,,,,,,,603.6284976999741,None,606.611870699795,None,space,5.480527400039136,606.611870699795,None,603.6284976999741,None,1.692,613.827325399965,None,None,1,613.827325399965,None,,P003,fencog,1,Pre,2021_Jul_05_1112,N-Back (New Version 2021),2021.1.4,119.96967165953049,
,,,,Conditions/Version_1/oneback(2)_v1.xlsx,New rule: Press 'space' when you see 1-back (i.e. the same letter as the one that appeared 1 letter ago.),Q,space,,,,,,,,,0,4,4,4,0,1,1,1,,,,,,,,,,,,,,,,,,,,,,,,,,,,,,,,,,,,,,,,,,,,,,,,,,,,,,,,,,,,,,,,,,,,,1.63,617.4667662999127,None,space,1,617.4667662999127,None,0.6498737998772413,P003,fencog,1,Pre,2021_Jul_05_1112,N-Back (New Version 2021),2021.1.4,119.96967165953049,
,,,,Conditions/Version_1/oneback(2)_v1.xlsx,New rule: Press 'space' when you see 1-back (i.e. the same letter as the one that appeared 1 letter ago.),P,None,,,,,,,,,0,4,4,4,0,2,2,2,,,,,,,,,,,,,,,,,,,,,,,,,,,,,,,,,,,,,,,,,,,,,,,,,,,,,,,,,,,,,,,,,,,,,1.8594,621.3387288998347,None,None,1,621.3387288998347,None,,P003,fencog,1,Pre,2021_Jul_05_1112,N-Back (New Version 2021),2021.1.4,119.96967165953049,
,,,,Conditions/Version_1/oneback(2)_v1.xlsx,New rule: Press 'space' when you see 1-back (i.e. the same letter as the one that appeared 1 letter ago.),o,None,,,,,,,,,0,4,4,4,0,3,3,3,,,,,,,,,,,,,,,,,,,,,,,,,,,,,,,,,,,,,,,,,,,,,,,,,,,,,,,,,,,,,,,,,,,,,1.7292,625.0785246999003,None,None,1,625.0785246999003,None,,P003,fencog,1,Pre,2021_Jul_05_1112,N-Back (New Version 2021),2021.1.4,119.96967165953049,
,,,,Conditions/Version_1/oneback(2)_v1.xlsx,New rule: Press 'space' when you see 1-back (i.e. the same letter as the one that appeared 1 letter ago.),m,None,,,,,,,,,0,4,4,4,0,4,4,4,,,,,,,,,,,,,,,,,,,,,,,,,,,,,,,,,,,,,,,,,,,,,,,,,,,,,,,,,,,,,,,,,,,,,1.599,628.6798121999018,None,None,1,628.6798121999018,None,,P003,fencog,1,Pre,2021_Jul_05_1112,N-Back (New Version 2021),2021.1.4,119.96967165953049,
,,,,Conditions/Version_1/oneback(2)_v1.xlsx,New rule: Press 'space' when you see 1-back (i.e. the same letter as the one that appeared 1 letter ago.),Z,None,,,,,,,,,0,4,4,4,0,5,5,5,,,,,,,,,,,,,,,,,,,,,,,,,,,,,,,,,,,,,,,,,,,,,,,,,,,,,,,,,,,,,,,,,,,,,1.0658,631.7528186999261,None,None,1,631.7528186999261,None,,P003,fencog,1,Pre,2021_Jul_05_1112,N-Back (New Version 2021),2021.1.4,119.96967165953049,
,,,,Conditions/Version_1/oneback(2)_v1.xlsx,New rule: Press 'space' when you see 1-back (i.e. the same letter as the one that appeared 1 letter ago.),c,None,,,,,,,,,0,4,4,4,0,6,6,6,,,,,,,,,,,,,,,,,,,,,,,,,,,,,,,,,,,,,,,,,,,,,,,,,,,,,,,,,,,,,,,,,,,,,1.1092,634.8693646998145,None,None,1,634.8693646998145,None,,P003,fencog,1,Pre,2021_Jul_05_1112,N-Back (New Version 2021),2021.1.4,119.96967165953049,
,,,,Conditions/Version_1/oneback(2)_v1.xlsx,New rule: Press 'space' when you see 1-back (i.e. the same letter as the one that appeared 1 letter ago.),c,space,,,,,,,,,0,4,4,4,0,7,7,7,,,,,,,,,,,,,,,,,,,,,,,,,,,,,,,,,,,,,,,,,,,,,,,,,,,,,,,,,,,,,,,,,,,,,1.3138,638.1914432998747,None,space,1,638.1914432998747,None,0.5249902000650764,P003,fencog,1,Pre,2021_Jul_05_1112,N-Back (New Version 2021),2021.1.4,119.96967165953049,
,,,,Conditions/Version_1/oneback(2)_v1.xlsx,New rule: Press 'space' when you see 1-back (i.e. the same letter as the one that appeared 1 letter ago.),P,None,,,,,,,,,0,4,4,4,0,8,8,8,,,,,,,,,,,,,,,,,,,,,,,,,,,,,,,,,,,,,,,,,,,,,,,,,,,,,,,,,,,,,,,,,,,,,1.4192,641.617353499867,None,None,1,641.617353499867,None,,P003,fencog,1,Pre,2021_Jul_05_1112,N-Back (New Version 2021),2021.1.4,119.96967165953049,
,,,,Conditions/Version_1/oneback(2)_v1.xlsx,New rule: Press 'space' when you see 1-back (i.e. the same letter as the one that appeared 1 letter ago.),p,space,,,,,,,,,0,4,4,4,0,9,9,9,,,,,,,,,,,,,,,,,,,,,,,,,,,,,,,,,,,,,,,,,,,,,,,,,,,,,,,,,,,,,,,,,,,,,1.971,645.5974104998168,None,space,1,645.5974104998168,None,0.727047499967739,P003,fencog,1,Pre,2021_Jul_05_1112,N-Back (New Version 2021),2021.1.4,119.96967165953049,
,,,,Conditions/Version_1/oneback(2)_v1.xlsx,New rule: Press 'space' when you see 1-back (i.e. the same letter as the one that appeared 1 letter ago.),,,,,,,,,,,0,4,4,4,,,,,,,,,,,,,,,,,,,,,,,,,,,,,,,,,,,,,,,,,,,,,,,,,,,,,,,,,,,,,,,,,,,,,,,,,,,,,,,,,P003,fencog,1,Pre,2021_Jul_05_1112,N-Back (New Version 2021),2021.1.4,119.96967165953049,
,,,,Conditions/Version_1/zeroback(2)_v1.xlsx,New rule: Press 'space' when you see the letter 'x' or 'X'.,p,None,,,,,,,,,0,5,5,5,0,0,0,0,,,,,,,,,,,,,,,,,,,,,,,,,,,,,,,,,,,,,,,,,,,,,,,,,,,,,,,,,,,647.6289069999475,None,650.6154928999022,None,space,1.092951999977231,650.6154928999022,None,647.6289069999475,None,1.3448,653.0705718998797,None,None,1,653.0705718998797,None,,P003,fencog,1,Pre,2021_Jul_05_1112,N-Back (New Version 2021),2021.1.4,119.96967165953049,
,,,,Conditions/Version_1/zeroback(2)_v1.xlsx,New rule: Press 'space' when you see the letter 'x' or 'X'.,L,None,,,,,,,,,0,5,5,5,0,1,1,1,,,,,,,,,,,,,,,,,,,,,,,,,,,,,,,,,,,,,,,,,,,,,,,,,,,,,,,,,,,,,,,,,,,,,1.9772,657.0523527998012,None,None,1,657.0523527998012,None,,P003,fencog,1,Pre,2021_Jul_05_1112,N-Back (New Version 2021),2021.1.4,119.96967165953049,
,,,,Conditions/Version_1/zeroback(2)_v1.xlsx,New rule: Press 'space' when you see the letter 'x' or 'X'.,G,None,,,,,,,,,0,5,5,5,0,2,2,2,,,,,,,,,,,,,,,,,,,,,,,,,,,,,,,,,,,,,,,,,,,,,,,,,,,,,,,,,,,,,,,,,,,,,1.6238,660.6784738998394,None,None,1,660.6784738998394,None,,P003,fencog,1,Pre,2021_Jul_05_1112,N-Back (New Version 2021),2021.1.4,119.96967165953049,
,,,,Conditions/Version_1/zeroback(2)_v1.xlsx,New rule: Press 'space' when you see the letter 'x' or 'X'.,y,None,,,,,,,,,0,5,5,5,0,3,3,3,,,,,,,,,,,,,,,,,,,,,,,,,,,,,,,,,,,,,,,,,,,,,,,,,,,,,,,,,,,,,,,,,,,,,1.4192,664.1084852998611,None,None,1,664.1084852998611,None,,P003,fencog,1,Pre,2021_Jul_05_1112,N-Back (New Version 2021),2021.1.4,119.96967165953049,
,,,,Conditions/Version_1/zeroback(2)_v1.xlsx,New rule: Press 'space' when you see the letter 'x' or 'X'.,Y,None,,,,,,,,,0,5,5,5,0,4,4,4,,,,,,,,,,,,,,,,,,,,,,,,,,,,,,,,,,,,,,,,,,,,,,,,,,,,,,,,,,,,,,,,,,,,,1.3262,667.4409652999602,None,None,1,667.4409652999602,None,,P003,fencog,1,Pre,2021_Jul_05_1112,N-Back (New Version 2021),2021.1.4,119.96967165953049,
,,,,Conditions/Version_1/zeroback(2)_v1.xlsx,New rule: Press 'space' when you see the letter 'x' or 'X'.,W,None,,,,,,,,,0,5,5,5,0,5,5,5,,,,,,,,,,,,,,,,,,,,,,,,,,,,,,,,,,,,,,,,,,,,,,,,,,,,,,,,,,,,,,,,,,,,,1.4812,670.9244921999052,None,None,1,670.9244921999052,None,,P003,fencog,1,Pre,2021_Jul_05_1112,N-Back (New Version 2021),2021.1.4,119.96967165953049,
,,,,Conditions/Version_1/zeroback(2)_v1.xlsx,New rule: Press 'space' when you see the letter 'x' or 'X'.,x,space,,,,,,,,,0,5,5,5,0,6,6,6,,,,,,,,,,,,,,,,,,,,,,,,,,,,,,,,,,,,,,,,,,,,,,,,,,,,,,,,,,,,,,,,,,,,,1.878,674.8149287998676,None,space,1,674.8149287998676,None,0.5016800998710096,P003,fencog,1,Pre,2021_Jul_05_1112,N-Back (New Version 2021),2021.1.4,119.96967165953049,
,,,,Conditions/Version_1/zeroback(2)_v1.xlsx,New rule: Press 'space' when you see the letter 'x' or 'X'.,X,space,,,,,,,,,0,5,5,5,0,7,7,7,,,,,,,,,,,,,,,,,,,,,,,,,,,,,,,,,,,,,,,,,,,,,,,,,,,,,,,,,,,,,,,,,,,,,1.7726,678.5983187998645,None,space,1,678.5983187998645,None,1.0380377999972552,P003,fencog,1,Pre,2021_Jul_05_1112,N-Back (New Version 2021),2021.1.4,119.96967165953049,
,,,,Conditions/Version_1/zeroback(2)_v1.xlsx,New rule: Press 'space' when you see the letter 'x' or 'X'.,p,None,,,,,,,,,0,5,5,5,0,8,8,8,,,,,,,,,,,,,,,,,,,,,,,,,,,,,,,,,,,,,,,,,,,,,,,,,,,,,,,,,,,,,,,,,,,,,1.2332,681.83712559985,None,None,1,681.83712559985,None,,P003,fencog,1,Pre,2021_Jul_05_1112,N-Back (New Version 2021),2021.1.4,119.96967165953049,
,,,,Conditions/Version_1/zeroback(2)_v1.xlsx,New rule: Press 'space' when you see the letter 'x' or 'X'.,h,None,,,,,,,,,0,5,5,5,0,9,9,9,,,,,,,,,,,,,,,,,,,,,,,,,,,,,,,,,,,,,,,,,,,,,,,,,,,,,,,,,,,,,,,,,,,,,1.0162,684.8525680999737,None,None,1,684.8525680999737,None,,P003,fencog,1,Pre,2021_Jul_05_1112,N-Back (New Version 2021),2021.1.4,119.96967165953049,
,,,,Conditions/Version_1/zeroback(2)_v1.xlsx,New rule: Press 'space' when you see the letter 'x' or 'X'.,,,,,,,,,,,0,5,5,5,,,,,,,,,,,,,,,,,,,,,,,,,,,,,,,,,,,,,,,,,,,,,,,,,,,,,,,,,,,,,,,,,,,,,,,,,,,,,,,,,P003,fencog,1,Pre,2021_Jul_05_1112,N-Back (New Version 2021),2021.1.4,119.96967165953049,
,,,,Conditions/Version_1/threeback(2)_v1.xlsx,New rule: Press 'space' when you see 3-back (i.e. the same letter as the one that appeared 3 letters ago.),q,None,,,,,,,,,0,6,6,6,0,0,0,0,,,,,,,,,,,,,,,,,,,,,,,,,,,,,,,,,,,,,,,,,,,,,,,,,,,,,,,,,,,686.8736374999862,None,689.8618671998847,None,space,1.4306179999839514,689.8618671998847,None,686.8736374999862,None,1.9338,693.2500778997783,None,None,1,693.2500778997783,None,,P003,fencog,1,Pre,2021_Jul_05_1112,N-Back (New Version 2021),2021.1.4,119.96967165953049,
,,,,Conditions/Version_1/threeback(2)_v1.xlsx,New rule: Press 'space' when you see 3-back (i.e. the same letter as the one that appeared 3 letters ago.),Y,None,,,,,,,,,0,6,6,6,0,1,1,1,,,,,,,,,,,,,,,,,,,,,,,,,,,,,,,,,,,,,,,,,,,,,,,,,,,,,,,,,,,,,,,,,,,,,1.6052,696.8573583997786,None,space,0,696.8573583997786,None,1.906937099993229,P003,fencog,1,Pre,2021_Jul_05_1112,N-Back (New Version 2021),2021.1.4,119.96967165953049,
,,,,Conditions/Version_1/threeback(2)_v1.xlsx,New rule: Press 'space' when you see 3-back (i.e. the same letter as the one that appeared 3 letters ago.),p,None,,,,,,,,,0,6,6,6,0,2,2,2,,,,,,,,,,,,,,,,,,,,,,,,,,,,,,,,,,,,,,,,,,,,,,,,,,,,,,,,,,,,,,,,,,,,,1.63,700.4998291998636,None,None,1,700.4998291998636,None,,P003,fencog,1,Pre,2021_Jul_05_1112,N-Back (New Version 2021),2021.1.4,119.96967165953049,
,,,,Conditions/Version_1/threeback(2)_v1.xlsx,New rule: Press 'space' when you see 3-back (i.e. the same letter as the one that appeared 3 letters ago.),p,None,,,,,,,,,0,6,6,6,0,3,3,3,,,,,,,,,,,,,,,,,,,,,,,,,,,,,,,,,,,,,,,,,,,,,,,,,,,,,,,,,,,,,,,,,,,,,1.1216,703.630339599913,None,None,1,703.630339599913,None,,P003,fencog,1,Pre,2021_Jul_05_1112,N-Back (New Version 2021),2021.1.4,119.96967165953049,
,,,,Conditions/Version_1/threeback(2)_v1.xlsx,New rule: Press 'space' when you see 3-back (i.e. the same letter as the one that appeared 3 letters ago.),y,space,,,,,,,,,0,6,6,6,0,4,4,4,,,,,,,,,,,,,,,,,,,,,,,,,,,,,,,,,,,,,,,,,,,,,,,,,,,,,,,,,,,,,,,,,,,,,1.692,707.3213225000072,None,space,1,707.3213225000072,None,0.5871310997754335,P003,fencog,1,Pre,2021_Jul_05_1112,N-Back (New Version 2021),2021.1.4,119.96967165953049,
,,,,Conditions/Version_1/threeback(2)_v1.xlsx,New rule: Press 'space' when you see 3-back (i.e. the same letter as the one that appeared 3 letters ago.),u,None,,,,,,,,,0,6,6,6,0,5,5,5,,,,,,,,,,,,,,,,,,,,,,,,,,,,,,,,,,,,,,,,,,,,,,,,,,,,,,,,,,,,,,,,,,,,,1.5246,710.8503183999564,None,None,1,710.8503183999564,None,,P003,fencog,1,Pre,2021_Jul_05_1112,N-Back (New Version 2021),2021.1.4,119.96967165953049,
,,,,Conditions/Version_1/threeback(2)_v1.xlsx,New rule: Press 'space' when you see 3-back (i.e. the same letter as the one that appeared 3 letters ago.),P,space,,,,,,,,,0,6,6,6,0,6,6,6,,,,,,,,,,,,,,,,,,,,,,,,,,,,,,,,,,,,,,,,,,,,,,,,,,,,,,,,,,,,,,,,,,,,,1.2704,714.1281003998592,None,None,0,714.1281003998592,None,,P003,fencog,1,Pre,2021_Jul_05_1112,N-Back (New Version 2021),2021.1.4,119.96967165953049,
,,,,Conditions/Version_1/threeback(2)_v1.xlsx,New rule: Press 'space' when you see 3-back (i.e. the same letter as the one that appeared 3 letters ago.),a,None,,,,,,,,,0,6,6,6,0,7,7,7,,,,,,,,,,,,,,,,,,,,,,,,,,,,,,,,,,,,,,,,,,,,,,,,,,,,,,,,,,,,,,,,,,,,,1.8656,718.0087760000024,None,None,1,718.0087760000024,None,,P003,fencog,1,Pre,2021_Jul_05_1112,N-Back (New Version 2021),2021.1.4,119.96967165953049,
,,,,Conditions/Version_1/threeback(2)_v1.xlsx,New rule: Press 'space' when you see 3-back (i.e. the same letter as the one that appeared 3 letters ago.),U,space,,,,,,,,,0,6,6,6,0,8,8,8,,,,,,,,,,,,,,,,,,,,,,,,,,,,,,,,,,,,,,,,,,,,,,,,,,,,,,,,,,,,,,,,,,,,,1.475,721.4871879999992,None,space,1,721.4871879999992,None,1.5178843999747187,P003,fencog,1,Pre,2021_Jul_05_1112,N-Back (New Version 2021),2021.1.4,119.96967165953049,
,,,,Conditions/Version_1/threeback(2)_v1.xlsx,New rule: Press 'space' when you see 3-back (i.e. the same letter as the one that appeared 3 letters ago.),q,None,,,,,,,,,0,6,6,6,0,9,9,9,,,,,,,,,,,,,,,,,,,,,,,,,,,,,,,,,,,,,,,,,,,,,,,,,,,,,,,,,,,,,,,,,,,,,1.165,724.6617228998803,None,None,1,724.6617228998803,None,,P003,fencog,1,Pre,2021_Jul_05_1112,N-Back (New Version 2021),2021.1.4,119.96967165953049,
,,,,Conditions/Version_1/threeback(2)_v1.xlsx,New rule: Press 'space' when you see 3-back (i.e. the same letter as the one that appeared 3 letters ago.),,,,,,,,,,,0,6,6,6,,,,,,,,,,,,,,,,,,,,,,,,,,,,,,,,,,,,,,,,,,,,,,,,,,,,,,,,,,,,,,,,,,,,,,,,,,,,,,,,,P003,fencog,1,Pre,2021_Jul_05_1112,N-Back (New Version 2021),2021.1.4,119.96967165953049,
,,,,Conditions/Version_1/twoback(2)_v1.xlsx,New rule: Press 'space' when you see 2-back (i.e. the same letter as the one that appeared 2 letters ago.),q,None,,,,,,,,,0,7,7,7,0,0,0,0,,,,,,,,,,,,,,,,,,,,,,,,,,,,,,,,,,,,,,,,,,,,,,,,,,,,,,,,,,,726.6888290999923,None,729.6754553997889,None,space,1.5207457998767495,729.6754553997889,None,726.6888290999923,None,1.165,732.3801515998784,None,None,1,732.3801515998784,None,,P003,fencog,1,Pre,2021_Jul_05_1112,N-Back (New Version 2021),2021.1.4,119.96967165953049,
,,,,Conditions/Version_1/twoback(2)_v1.xlsx,New rule: Press 'space' when you see 2-back (i.e. the same letter as the one that appeared 2 letters ago.),r,None,,,,,,,,,0,7,7,7,0,1,1,1,,,,,,,,,,,,,,,,,,,,,,,,,,,,,,,,,,,,,,,,,,,,,,,,,,,,,,,,,,,,,,,,,,,,,1.3634,735.7458342998289,None,None,1,735.7458342998289,None,,P003,fencog,1,Pre,2021_Jul_05_1112,N-Back (New Version 2021),2021.1.4,119.96967165953049,
,,,,Conditions/Version_1/twoback(2)_v1.xlsx,New rule: Press 'space' when you see 2-back (i.e. the same letter as the one that appeared 2 letters ago.),q,space,,,,,,,,,0,7,7,7,0,2,2,2,,,,,,,,,,,,,,,,,,,,,,,,,,,,,,,,,,,,,,,,,,,,,,,,,,,,,,,,,,,,,,,,,,,,,1.3572,739.1079178999644,None,space,1,739.1079178999644,None,0.5842380998656154,P003,fencog,1,Pre,2021_Jul_05_1112,N-Back (New Version 2021),2021.1.4,119.96967165953049,
,,,,Conditions/Version_1/twoback(2)_v1.xlsx,New rule: Press 'space' when you see 2-back (i.e. the same letter as the one that appeared 2 letters ago.),P,None,,,,,,,,,0,7,7,7,0,3,3,3,,,,,,,,,,,,,,,,,,,,,,,,,,,,,,,,,,,,,,,,,,,,,,,,,,,,,,,,,,,,,,,,,,,,,1.971,743.0862857999746,None,None,1,743.0862857999746,None,,P003,fencog,1,Pre,2021_Jul_05_1112,N-Back (New Version 2021),2021.1.4,119.96967165953049,
,,,,Conditions/Version_1/twoback(2)_v1.xlsx,New rule: Press 'space' when you see 2-back (i.e. the same letter as the one that appeared 2 letters ago.),p,None,,,,,,,,,0,7,7,7,0,4,4,4,,,,,,,,,,,,,,,,,,,,,,,,,,,,,,,,,,,,,,,,,,,,,,,,,,,,,,,,,,,,,,,,,,,,,1.0844,746.1866209998261,None,space,0,746.1866209998261,None,1.545703899813816,P003,fencog,1,Pre,2021_Jul_05_1112,N-Back (New Version 2021),2021.1.4,119.96967165953049,
,,,,Conditions/Version_1/twoback(2)_v1.xlsx,New rule: Press 'space' when you see 2-back (i.e. the same letter as the one that appeared 2 letters ago.),H,None,,,,,,,,,0,7,7,7,0,5,5,5,,,,,,,,,,,,,,,,,,,,,,,,,,,,,,,,,,,,,,,,,,,,,,,,,,,,,,,,,,,,,,,,,,,,,1.0472,749.2455865999218,None,None,1,749.2455865999218,None,,P003,fencog,1,Pre,2021_Jul_05_1112,N-Back (New Version 2021),2021.1.4,119.96967165953049,
,,,,Conditions/Version_1/twoback(2)_v1.xlsx,New rule: Press 'space' when you see 2-back (i.e. the same letter as the one that appeared 2 letters ago.),g,None,,,,,,,,,0,7,7,7,0,6,6,6,,,,,,,,,,,,,,,,,,,,,,,,,,,,,,,,,,,,,,,,,,,,,,,,,,,,,,,,,,,,,,,,,,,,,1.1154,752.365756599931,None,None,1,752.365756599931,None,,P003,fencog,1,Pre,2021_Jul_05_1112,N-Back (New Version 2021),2021.1.4,119.96967165953049,
,,,,Conditions/Version_1/twoback(2)_v1.xlsx,New rule: Press 'space' when you see 2-back (i.e. the same letter as the one that appeared 2 letters ago.),j,None,,,,,,,,,0,7,7,7,0,7,7,7,,,,,,,,,,,,,,,,,,,,,,,,,,,,,,,,,,,,,,,,,,,,,,,,,,,,,,,,,,,,,,,,,,,,,1.4316,755.7999429998454,None,None,1,755.7999429998454,None,,P003,fencog,1,Pre,2021_Jul_05_1112,N-Back (New Version 2021),2021.1.4,119.96967165953049,
,,,,Conditions/Version_1/twoback(2)_v1.xlsx,New rule: Press 'space' when you see 2-back (i.e. the same letter as the one that appeared 2 letters ago.),g,space,,,,,,,,,0,7,7,7,0,8,8,8,,,,,,,,,,,,,,,,,,,,,,,,,,,,,,,,,,,,,,,,,,,,,,,,,,,,,,,,,,,,,,,,,,,,,1.6858,759.4970271999482,None,space,1,759.4970271999482,None,0.7078664998989552,P003,fencog,1,Pre,2021_Jul_05_1112,N-Back (New Version 2021),2021.1.4,119.96967165953049,
,,,,Conditions/Version_1/twoback(2)_v1.xlsx,New rule: Press 'space' when you see 2-back (i.e. the same letter as the one that appeared 2 letters ago.),G,None,,,,,,,,,0,7,7,7,0,9,9,9,,,,,,,,,,,,,,,,,,,,,,,,,,,,,,,,,,,,,,,,,,,,,,,,,,,,,,,,,,,,,,,,,,,,,1.4626,762.9639593998436,None,None,1,762.9639593998436,None,,P003,fencog,1,Pre,2021_Jul_05_1112,N-Back (New Version 2021),2021.1.4,119.96967165953049,
,,,,Conditions/Version_1/twoback(2)_v1.xlsx,New rule: Press 'space' when you see 2-back (i.e. the same letter as the one that appeared 2 letters ago.),,,,,,,,,,,0,7,7,7,,,,,,,,,,,,,,,,,,,,,,,,,,,,,,,,,,,,,,,,,,,,,,,,,,,,,,,,,,,,,,,,,,,,,,,,,,,,,,,,,P003,fencog,1,Pre,2021_Jul_05_1112,N-Back (New Version 2021),2021.1.4,119.96967165953049,
,,,,Conditions/Version_1/threeback(3)_v1.xlsx,New rule: Press 'space' when you see 3-back (i.e. the same letter as the one that appeared 3 letters ago.),w,None,,,,,,,,,0,8,8,8,0,0,0,0,,,,,,,,,,,,,,,,,,,,,,,,,,,,,,,,,,,,,,,,,,,,,,,,,,,,,,,,,,,764.9929516999982,None,767.9801756998058,None,space,1.016188100213185,767.9801756998058,None,764.9929516999982,None,1.134,770.1605318998918,None,None,1,770.1605318998918,None,,P003,fencog,1,Pre,2021_Jul_05_1112,N-Back (New Version 2021),2021.1.4,119.96967165953049,
,,,,Conditions/Version_1/threeback(3)_v1.xlsx,New rule: Press 'space' when you see 3-back (i.e. the same letter as the one that appeared 3 letters ago.),p,None,,,,,,,,,0,8,8,8,0,1,1,1,,,,,,,,,,,,,,,,,,,,,,,,,,,,,,,,,,,,,,,,,,,,,,,,,,,,,,,,,,,,,,,,,,,,,1.1774,773.3534759997856,None,None,1,773.3534759997856,None,,P003,fencog,1,Pre,2021_Jul_05_1112,N-Back (New Version 2021),2021.1.4,119.96967165953049,
,,,,Conditions/Version_1/threeback(3)_v1.xlsx,New rule: Press 'space' when you see 3-back (i.e. the same letter as the one that appeared 3 letters ago.),P,None,,,,,,,,,0,8,8,8,0,2,2,2,,,,,,,,,,,,,,,,,,,,,,,,,,,,,,,,,,,,,,,,,,,,,,,,,,,,,,,,,,,,,,,,,,,,,1.6982,777.0585021998268,None,None,1,777.0585021998268,None,,P003,fencog,1,Pre,2021_Jul_05_1112,N-Back (New Version 2021),2021.1.4,119.96967165953049,
,,,,Conditions/Version_1/threeback(3)_v1.xlsx,New rule: Press 'space' when you see 3-back (i.e. the same letter as the one that appeared 3 letters ago.),i,None,,,,,,,,,0,8,8,8,0,3,3,3,,,,,,,,,,,,,,,,,,,,,,,,,,,,,,,,,,,,,,,,,,,,,,,,,,,,,,,,,,,,,,,,,,,,,1.8346,780.9007077999413,None,None,1,780.9007077999413,None,,P003,fencog,1,Pre,2021_Jul_05_1112,N-Back (New Version 2021),2021.1.4,119.96967165953049,
,,,,Conditions/Version_1/threeback(3)_v1.xlsx,New rule: Press 'space' when you see 3-back (i.e. the same letter as the one that appeared 3 letters ago.),f,None,,,,,,,,,0,8,8,8,0,4,4,4,,,,,,,,,,,,,,,,,,,,,,,,,,,,,,,,,,,,,,,,,,,,,,,,,,,,,,,,,,,,,,,,,,,,,1.7168,784.6250463000033,None,None,1,784.6250463000033,None,,P003,fencog,1,Pre,2021_Jul_05_1112,N-Back (New Version 2021),2021.1.4,119.96967165953049,
,,,,Conditions/Version_1/threeback(3)_v1.xlsx,New rule: Press 'space' when you see 3-back (i.e. the same letter as the one that appeared 3 letters ago.),o,None,,,,,,,,,0,8,8,8,0,5,5,5,,,,,,,,,,,,,,,,,,,,,,,,,,,,,,,,,,,,,,,,,,,,,,,,,,,,,,,,,,,,,,,,,,,,,1.6858,788.3225857999641,None,None,1,788.3225857999641,None,,P003,fencog,1,Pre,2021_Jul_05_1112,N-Back (New Version 2021),2021.1.4,119.96967165953049,
,,,,Conditions/Version_1/threeback(3)_v1.xlsx,New rule: Press 'space' when you see 3-back (i.e. the same letter as the one that appeared 3 letters ago.),w,None,,,,,,,,,0,8,8,8,0,6,6,6,,,,,,,,,,,,,,,,,,,,,,,,,,,,,,,,,,,,,,,,,,,,,,,,,,,,,,,,,,,,,,,,,,,,,1.4502,791.7864670997951,None,space,0,791.7864670997951,None,0.866019600071013,P003,fencog,1,Pre,2021_Jul_05_1112,N-Back (New Version 2021),2021.1.4,119.96967165953049,
,,,,Conditions/Version_1/threeback(3)_v1.xlsx,New rule: Press 'space' when you see 3-back (i.e. the same letter as the one that appeared 3 letters ago.),F,space,,,,,,,,,0,8,8,8,0,7,7,7,,,,,,,,,,,,,,,,,,,,,,,,,,,,,,,,,,,,,,,,,,,,,,,,,,,,,,,,,,,,,,,,,,,,,1.0844,794.8820706999395,None,None,0,794.8820706999395,None,,P003,fencog,1,Pre,2021_Jul_05_1112,N-Back (New Version 2021),2021.1.4,119.96967165953049,
,,,,Conditions/Version_1/threeback(3)_v1.xlsx,New rule: Press 'space' when you see 3-back (i.e. the same letter as the one that appeared 3 letters ago.),p,None,,,,,,,,,0,8,8,8,0,8,8,8,,,,,,,,,,,,,,,,,,,,,,,,,,,,,,,,,,,,,,,,,,,,,,,,,,,,,,,,,,,,,,,,,,,,,1.9152,798.8061308998149,None,None,1,798.8061308998149,None,,P003,fencog,1,Pre,2021_Jul_05_1112,N-Back (New Version 2021),2021.1.4,119.96967165953049,
,,,,Conditions/Version_1/threeback(3)_v1.xlsx,New rule: Press 'space' when you see 3-back (i.e. the same letter as the one that appeared 3 letters ago.),W,space,,,,,,,,,0,8,8,8,0,9,9,9,,,,,,,,,,,,,,,,,,,,,,,,,,,,,,,,,,,,,,,,,,,,,,,,,,,,,,,,,,,,,,,,,,,,,1.1712,801.986217699945,None,None,0,801.986217699945,None,,P003,fencog,1,Pre,2021_Jul_05_1112,N-Back (New Version 2021),2021.1.4,119.96967165953049,
,,,,Conditions/Version_1/threeback(3)_v1.xlsx,New rule: Press 'space' when you see 3-back (i.e. the same letter as the one that appeared 3 letters ago.),,,,,,,,,,,0,8,8,8,,,,,,,,,,,,,,,,,,,,,,,,,,,,,,,,,,,,,,,,,,,,,,,,,,,,,,,,,,,,,,,,,,,,,,,,,,,,,,,,,P003,fencog,1,Pre,2021_Jul_05_1112,N-Back (New Version 2021),2021.1.4,119.96967165953049,
,,,,Conditions/Version_1/zeroback(3)_v1.xlsx,New rule: Press 'space' when you see the letter 'x' or 'X'.,X,space,,,,,,,,,0,9,9,9,0,0,0,0,,,,,,,,,,,,,,,,,,,,,,,,,,,,,,,,,,,,,,,,,,,,,,,,,,,,,,,,,,,804.0100221999455,None,806.9934562998824,None,space,0.6345336998347193,806.9934562998824,None,804.0100221999455,None,1.847,809.5011561999563,None,space,1,809.5011561999563,None,0.44678739993833005,P003,fencog,1,Pre,2021_Jul_05_1112,N-Back (New Version 2021),2021.1.4,119.96967165953049,
,,,,Conditions/Version_1/zeroback(3)_v1.xlsx,New rule: Press 'space' when you see the letter 'x' or 'X'.,B,None,,,,,,,,,0,9,9,9,0,1,1,1,,,,,,,,,,,,,,,,,,,,,,,,,,,,,,,,,,,,,,,,,,,,,,,,,,,,,,,,,,,,,,,,,,,,,1.227,812.7341742999852,None,None,1,812.7341742999852,None,,P003,fencog,1,Pre,2021_Jul_05_1112,N-Back (New Version 2021),2021.1.4,119.96967165953049,
,,,,Conditions/Version_1/zeroback(3)_v1.xlsx,New rule: Press 'space' when you see the letter 'x' or 'X'.,m,None,,,,,,,,,0,9,9,9,0,2,2,2,,,,,,,,,,,,,,,,,,,,,,,,,,,,,,,,,,,,,,,,,,,,,,,,,,,,,,,,,,,,,,,,,,,,,1.8098,816.5563358999789,None,None,1,816.5563358999789,None,,P003,fencog,1,Pre,2021_Jul_05_1112,N-Back (New Version 2021),2021.1.4,119.96967165953049,
,,,,Conditions/Version_1/zeroback(3)_v1.xlsx,New rule: Press 'space' when you see the letter 'x' or 'X'.,m,None,,,,,,,,,0,9,9,9,0,3,3,3,,,,,,,,,,,,,,,,,,,,,,,,,,,,,,,,,,,,,,,,,,,,,,,,,,,,,,,,,,,,,,,,,,,,,1.1712,819.7375124997925,None,None,1,819.7375124997925,None,,P003,fencog,1,Pre,2021_Jul_05_1112,N-Back (New Version 2021),2021.1.4,119.96967165953049,
,,,,Conditions/Version_1/zeroback(3)_v1.xlsx,New rule: Press 'space' when you see the letter 'x' or 'X'.,o,None,,,,,,,,,0,9,9,9,0,4,4,4,,,,,,,,,,,,,,,,,,,,,,,,,,,,,,,,,,,,,,,,,,,,,,,,,,,,,,,,,,,,,,,,,,,,,1.072,822.8163987998851,None,None,1,822.8163987998851,None,,P003,fencog,1,Pre,2021_Jul_05_1112,N-Back (New Version 2021),2021.1.4,119.96967165953049,
,,,,Conditions/Version_1/zeroback(3)_v1.xlsx,New rule: Press 'space' when you see the letter 'x' or 'X'.,p,None,,,,,,,,,0,9,9,9,0,5,5,5,,,,,,,,,,,,,,,,,,,,,,,,,,,,,,,,,,,,,,,,,,,,,,,,,,,,,,,,,,,,,,,,,,,,,1.0658,825.8870339998975,None,None,1,825.8870339998975,None,,P003,fencog,1,Pre,2021_Jul_05_1112,N-Back (New Version 2021),2021.1.4,119.96967165953049,
,,,,Conditions/Version_1/zeroback(3)_v1.xlsx,New rule: Press 'space' when you see the letter 'x' or 'X'.,G,None,,,,,,,,,0,9,9,9,0,6,6,6,,,,,,,,,,,,,,,,,,,,,,,,,,,,,,,,,,,,,,,,,,,,,,,,,,,,,,,,,,,,,,,,,,,,,1.2952,829.1974888998084,None,None,1,829.1974888998084,None,,P003,fencog,1,Pre,2021_Jul_05_1112,N-Back (New Version 2021),2021.1.4,119.96967165953049,
,,,,Conditions/Version_1/zeroback(3)_v1.xlsx,New rule: Press 'space' when you see the letter 'x' or 'X'.,X,space,,,,,,,,,0,9,9,9,0,7,7,7,,,,,,,,,,,,,,,,,,,,,,,,,,,,,,,,,,,,,,,,,,,,,,,,,,,,,,,,,,,,,,,,,,,,,1.8966,833.1058690999635,None,space,1,833.1058690999635,None,0.5382006999570876,P003,fencog,1,Pre,2021_Jul_05_1112,N-Back (New Version 2021),2021.1.4,119.96967165953049,
,,,,Conditions/Version_1/zeroback(3)_v1.xlsx,New rule: Press 'space' when you see the letter 'x' or 'X'.,p,None,,,,,,,,,0,9,9,9,0,8,8,8,,,,,,,,,,,,,,,,,,,,,,,,,,,,,,,,,,,,,,,,,,,,,,,,,,,,,,,,,,,,,,,,,,,,,1.1402,836.2494797999971,None,None,1,836.2494797999971,None,,P003,fencog,1,Pre,2021_Jul_05_1112,N-Back (New Version 2021),2021.1.4,119.96967165953049,
,,,,Conditions/Version_1/zeroback(3)_v1.xlsx,New rule: Press 'space' when you see the letter 'x' or 'X'.,x,space,,,,,,,,,0,9,9,9,0,9,9,9,,,,,,,,,,,,,,,,,,,,,,,,,,,,,,,,,,,,,,,,,,,,,,,,,,,,,,,,,,,,,,,,,,,,,1.041,839.3022184998263,None,space,1,839.3022184998263,None,0.5097208998631686,P003,fencog,1,Pre,2021_Jul_05_1112,N-Back (New Version 2021),2021.1.4,119.96967165953049,
,,,,Conditions/Version_1/zeroback(3)_v1.xlsx,New rule: Press 'space' when you see the letter 'x' or 'X'.,,,,,,,,,,,0,9,9,9,,,,,,,,,,,,,,,,,,,,,,,,,,,,,,,,,,,,,,,,,,,,,,,,,,,,,,,,,,,,,,,,,,,,,,,,,,,,,,,,,P003,fencog,1,Pre,2021_Jul_05_1112,N-Back (New Version 2021),2021.1.4,119.96967165953049,
,,,,Conditions/Version_1/twoback(3)_v1.xlsx,New rule: Press 'space' when you see 2-back (i.e. the same letter as the one that appeared 2 letters ago.),e,None,,,,,,,,,0,10,10,10,0,0,0,0,,,,,,,,,,,,,,,,,,,,,,,,,,,,,,,,,,,,,,,,,,,,,,,,,,,,,,,,,,,841.3262525999453,None,844.3075782000087,None,space,7.384372400119901,844.3075782000087,None,841.3262525999453,None,1.816,853.5384872998111,None,None,1,853.5384872998111,None,,P003,fencog,1,Pre,2021_Jul_05_1112,N-Back (New Version 2021),2021.1.4,119.96967165953049,
,,,,Conditions/Version_1/twoback(3)_v1.xlsx,New rule: Press 'space' when you see 2-back (i.e. the same letter as the one that appeared 2 letters ago.),o,None,,,,,,,,,0,10,10,10,0,1,1,1,,,,,,,,,,,,,,,,,,,,,,,,,,,,,,,,,,,,,,,,,,,,,,,,,,,,,,,,,,,,,,,,,,,,,1.4688,857.0207036999054,None,None,1,857.0207036999054,None,,P003,fencog,1,Pre,2021_Jul_05_1112,N-Back (New Version 2021),2021.1.4,119.96967165953049,
,,,,Conditions/Version_1/twoback(3)_v1.xlsx,New rule: Press 'space' when you see 2-back (i.e. the same letter as the one that appeared 2 letters ago.),P,None,,,,,,,,,0,10,10,10,0,2,2,2,,,,,,,,,,,,,,,,,,,,,,,,,,,,,,,,,,,,,,,,,,,,,,,,,,,,,,,,,,,,,,,,,,,,,1.1898,860.2201433998998,None,None,1,860.2201433998998,None,,P003,fencog,1,Pre,2021_Jul_05_1112,N-Back (New Version 2021),2021.1.4,119.96967165953049,
,,,,Conditions/Version_1/twoback(3)_v1.xlsx,New rule: Press 'space' when you see 2-back (i.e. the same letter as the one that appeared 2 letters ago.),z,None,,,,,,,,,0,10,10,10,0,3,3,3,,,,,,,,,,,,,,,,,,,,,,,,,,,,,,,,,,,,,,,,,,,,,,,,,,,,,,,,,,,,,,,,,,,,,1.5246,863.7537300998811,None,None,1,863.7537300998811,None,,P003,fencog,1,Pre,2021_Jul_05_1112,N-Back (New Version 2021),2021.1.4,119.96967165953049,
,,,,Conditions/Version_1/twoback(3)_v1.xlsx,New rule: Press 'space' when you see 2-back (i.e. the same letter as the one that appeared 2 letters ago.),X,None,,,,,,,,,0,10,10,10,0,4,4,4,,,,,,,,,,,,,,,,,,,,,,,,,,,,,,,,,,,,,,,,,,,,,,,,,,,,,,,,,,,,,,,,,,,,,1.6238,867.3880899997894,None,None,1,867.3880899997894,None,,P003,fencog,1,Pre,2021_Jul_05_1112,N-Back (New Version 2021),2021.1.4,119.96967165953049,
,,,,Conditions/Version_1/twoback(3)_v1.xlsx,New rule: Press 'space' when you see 2-back (i.e. the same letter as the one that appeared 2 letters ago.),z,space,,,,,,,,,0,10,10,10,0,5,5,5,,,,,,,,,,,,,,,,,,,,,,,,,,,,,,,,,,,,,,,,,,,,,,,,,,,,,,,,,,,,,,,,,,,,,1.847,871.2501015998423,None,space,1,871.2501015998423,None,1.6101638998370618,P003,fencog,1,Pre,2021_Jul_05_1112,N-Back (New Version 2021),2021.1.4,119.96967165953049,
,,,,Conditions/Version_1/twoback(3)_v1.xlsx,New rule: Press 'space' when you see 2-back (i.e. the same letter as the one that appeared 2 letters ago.),x,space,,,,,,,,,0,10,10,10,0,6,6,6,,,,,,,,,,,,,,,,,,,,,,,,,,,,,,,,,,,,,,,,,,,,,,,,,,,,,,,,,,,,,,,,,,,,,1.2394,874.4977236997802,None,None,0,874.4977236997802,None,,P003,fencog,1,Pre,2021_Jul_05_1112,N-Back (New Version 2021),2021.1.4,119.96967165953049,
,,,,Conditions/Version_1/twoback(3)_v1.xlsx,New rule: Press 'space' when you see 2-back (i.e. the same letter as the one that appeared 2 letters ago.),c,None,,,,,,,,,0,10,10,10,0,7,7,7,,,,,,,,,,,,,,,,,,,,,,,,,,,,,,,,,,,,,,,,,,,,,,,,,,,,,,,,,,,,,,,,,,,,,1.9028,878.413243399933,None,None,1,878.413243399933,None,,P003,fencog,1,Pre,2021_Jul_05_1112,N-Back (New Version 2021),2021.1.4,119.96967165953049,
,,,,Conditions/Version_1/twoback(3)_v1.xlsx,New rule: Press 'space' when you see 2-back (i.e. the same letter as the one that appeared 2 letters ago.),i,None,,,,,,,,,0,10,10,10,0,8,8,8,,,,,,,,,,,,,,,,,,,,,,,,,,,,,,,,,,,,,,,,,,,,,,,,,,,,,,,,,,,,,,,,,,,,,1.2146,881.6404277998954,None,None,1,881.6404277998954,None,,P003,fencog,1,Pre,2021_Jul_05_1112,N-Back (New Version 2021),2021.1.4,119.96967165953049,
,,,,Conditions/Version_1/twoback(3)_v1.xlsx,New rule: Press 'space' when you see 2-back (i.e. the same letter as the one that appeared 2 letters ago.),C,space,,,,,,,,,0,10,10,10,0,9,9,9,,,,,,,,,,,,,,,,,,,,,,,,,,,,,,,,,,,,,,,,,,,,,,,,,,,,,,,,,,,,,,,,,,,,,1.0534,884.7018914998043,None,None,0,884.7018914998043,None,,P003,fencog,1,Pre,2021_Jul_05_1112,N-Back (New Version 2021),2021.1.4,119.96967165953049,
,,,,Conditions/Version_1/twoback(3)_v1.xlsx,New rule: Press 'space' when you see 2-back (i.e. the same letter as the one that appeared 2 letters ago.),,,,,,,,,,,0,10,10,10,,,,,,,,,,,,,,,,,,,,,,,,,,,,,,,,,,,,,,,,,,,,,,,,,,,,,,,,,,,,,,,,,,,,,,,,,,,,,,,,,P003,fencog,1,Pre,2021_Jul_05_1112,N-Back (New Version 2021),2021.1.4,119.96967165953049,
,,,,Conditions/Version_1/oneback(3)_v1.xlsx,New rule: Press 'space' when you see 1-back (i.e. the same letter as the one that appeared 1 letter ago.),o,None,,,,,,,,,0,11,11,11,0,0,0,0,,,,,,,,,,,,,,,,,,,,,,,,,,,,,,,,,,,,,,,,,,,,,,,,,,,,,,,,,,,886.7223966999445,None,889.7112157999072,None,space,0.5729461999144405,889.7112157999072,None,886.7223966999445,None,1.8656,892.175701999804,None,None,1,892.175701999804,None,,P003,fencog,1,Pre,2021_Jul_05_1112,N-Back (New Version 2021),2021.1.4,119.96967165953049,
,,,,Conditions/Version_1/oneback(3)_v1.xlsx,New rule: Press 'space' when you see 1-back (i.e. the same letter as the one that appeared 1 letter ago.),O,space,,,,,,,,,0,11,11,11,0,1,1,1,,,,,,,,,,,,,,,,,,,,,,,,,,,,,,,,,,,,,,,,,,,,,,,,,,,,,,,,,,,,,,,,,,,,,1.8036,895.9916489999741,None,space,1,895.9916489999741,None,0.5801339999306947,P003,fencog,1,Pre,2021_Jul_05_1112,N-Back (New Version 2021),2021.1.4,119.96967165953049,
,,,,Conditions/Version_1/oneback(3)_v1.xlsx,New rule: Press 'space' when you see 1-back (i.e. the same letter as the one that appeared 1 letter ago.),h,None,,,,,,,,,0,11,11,11,0,2,2,2,,,,,,,,,,,,,,,,,,,,,,,,,,,,,,,,,,,,,,,,,,,,,,,,,,,,,,,,,,,,,,,,,,,,,1.2952,899.2902892997954,None,None,1,899.2902892997954,None,,P003,fencog,1,Pre,2021_Jul_05_1112,N-Back (New Version 2021),2021.1.4,119.96967165953049,
,,,,Conditions/Version_1/oneback(3)_v1.xlsx,New rule: Press 'space' when you see 1-back (i.e. the same letter as the one that appeared 1 letter ago.),g,None,,,,,,,,,0,11,11,11,0,3,3,3,,,,,,,,,,,,,,,,,,,,,,,,,,,,,,,,,,,,,,,,,,,,,,,,,,,,,,,,,,,,,,,,,,,,,1.3944,902.6974061999936,None,None,1,902.6974061999936,None,,P003,fencog,1,Pre,2021_Jul_05_1112,N-Back (New Version 2021),2021.1.4,119.96967165953049,
,,,,Conditions/Version_1/oneback(3)_v1.xlsx,New rule: Press 'space' when you see 1-back (i.e. the same letter as the one that appeared 1 letter ago.),n,None,,,,,,,,,0,11,11,11,0,4,4,4,,,,,,,,,,,,,,,,,,,,,,,,,,,,,,,,,,,,,,,,,,,,,,,,,,,,,,,,,,,,,,,,,,,,,1.0472,905.758252899861,None,None,1,905.758252899861,None,,P003,fencog,1,Pre,2021_Jul_05_1112,N-Back (New Version 2021),2021.1.4,119.96967165953049,
,,,,Conditions/Version_1/oneback(3)_v1.xlsx,New rule: Press 'space' when you see 1-back (i.e. the same letter as the one that appeared 1 letter ago.),z,None,,,,,,,,,0,11,11,11,0,5,5,5,,,,,,,,,,,,,,,,,,,,,,,,,,,,,,,,,,,,,,,,,,,,,,,,,,,,,,,,,,,,,,,,,,,,,1.7478,909.5110636998434,None,None,1,909.5110636998434,None,,P003,fencog,1,Pre,2021_Jul_05_1112,N-Back (New Version 2021),2021.1.4,119.96967165953049,
,,,,Conditions/Version_1/oneback(3)_v1.xlsx,New rule: Press 'space' when you see 1-back (i.e. the same letter as the one that appeared 1 letter ago.),X,None,,,,,,,,,0,11,11,11,0,6,6,6,,,,,,,,,,,,,,,,,,,,,,,,,,,,,,,,,,,,,,,,,,,,,,,,,,,,,,,,,,,,,,,,,,,,,1.8904,913.408654499799,None,None,1,913.408654499799,None,,P003,fencog,1,Pre,2021_Jul_05_1112,N-Back (New Version 2021),2021.1.4,119.96967165953049,
,,,,Conditions/Version_1/oneback(3)_v1.xlsx,New rule: Press 'space' when you see 1-back (i.e. the same letter as the one that appeared 1 letter ago.),r,None,,,,,,,,,0,11,11,11,0,7,7,7,,,,,,,,,,,,,,,,,,,,,,,,,,,,,,,,,,,,,,,,,,,,,,,,,,,,,,,,,,,,,,,,,,,,,1.7788,917.1938770997804,None,None,1,917.1938770997804,None,,P003,fencog,1,Pre,2021_Jul_05_1112,N-Back (New Version 2021),2021.1.4,119.96967165953049,
,,,,Conditions/Version_1/oneback(3)_v1.xlsx,New rule: Press 'space' when you see 1-back (i.e. the same letter as the one that appeared 1 letter ago.),r,space,,,,,,,,,0,11,11,11,0,8,8,8,,,,,,,,,,,,,,,,,,,,,,,,,,,,,,,,,,,,,,,,,,,,,,,,,,,,,,,,,,,,,,,,,,,,,1.3076,920.5077084999066,None,space,1,920.5077084999066,None,0.4485923000611365,P003,fencog,1,Pre,2021_Jul_05_1112,N-Back (New Version 2021),2021.1.4,119.96967165953049,
,,,,Conditions/Version_1/oneback(3)_v1.xlsx,New rule: Press 'space' when you see 1-back (i.e. the same letter as the one that appeared 1 letter ago.),P,None,,,,,,,,,0,11,11,11,0,9,9,9,,,,,,,,,,,,,,,,,,,,,,,,,,,,,,,,,,,,,,,,,,,,,,,,,,,,,,,,,,,,,,,,,,,,,1.1154,923.6245242999867,None,None,1,923.6245242999867,None,,P003,fencog,1,Pre,2021_Jul_05_1112,N-Back (New Version 2021),2021.1.4,119.96967165953049,
,,,,Conditions/Version_1/oneback(3)_v1.xlsx,New rule: Press 'space' when you see 1-back (i.e. the same letter as the one that appeared 1 letter ago.),,,,,,,,,,,0,11,11,11,,,,,,,,,,,,,,,,,,,,,,,,,,,,,,,,,,,,,,,,,,,,,,,,,,,,,,,,,,,,,,,,,,,,,,,,,,,,,,,,,P003,fencog,1,Pre,2021_Jul_05_1112,N-Back (New Version 2021),2021.1.4,119.96967165953049,
,,,,Conditions/Version_1/twoback(4)_v1.xlsx,New rule: Press 'space' when you see 2-back (i.e. the same letter as the one that appeared 2 letters ago.),r,None,,,,,,,,,0,12,12,12,0,0,0,0,,,,,,,,,,,,,,,,,,,,,,,,,,,,,,,,,,,,,,,,,,,,,,,,,,,,,,,,,,,925.6542191999033,None,928.6413385998458,None,space,0.5143240001052618,928.6413385998458,None,925.6542191999033,None,1.5742,930.7548854998313,None,None,1,930.7548854998313,None,,P003,fencog,1,Pre,2021_Jul_05_1112,N-Back (New Version 2021),2021.1.4,119.96967165953049,
,,,,Conditions/Version_1/twoback(4)_v1.xlsx,New rule: Press 'space' when you see 2-back (i.e. the same letter as the one that appeared 2 letters ago.),T,None,,,,,,,,,0,12,12,12,0,1,1,1,,,,,,,,,,,,,,,,,,,,,,,,,,,,,,,,,,,,,,,,,,,,,,,,,,,,,,,,,,,,,,,,,,,,,1.2394,934.0017385999672,None,None,1,934.0017385999672,None,,P003,fencog,1,Pre,2021_Jul_05_1112,N-Back (New Version 2021),2021.1.4,119.96967165953049,
,,,,Conditions/Version_1/twoback(4)_v1.xlsx,New rule: Press 'space' when you see 2-back (i.e. the same letter as the one that appeared 2 letters ago.),o,None,,,,,,,,,0,12,12,12,0,2,2,2,,,,,,,,,,,,,,,,,,,,,,,,,,,,,,,,,,,,,,,,,,,,,,,,,,,,,,,,,,,,,,,,,,,,,1.2146,937.2197267999873,None,None,1,937.2197267999873,None,,P003,fencog,1,Pre,2021_Jul_05_1112,N-Back (New Version 2021),2021.1.4,119.96967165953049,
,,,,Conditions/Version_1/twoback(4)_v1.xlsx,New rule: Press 'space' when you see 2-back (i.e. the same letter as the one that appeared 2 letters ago.),p,None,,,,,,,,,0,12,12,12,0,3,3,3,,,,,,,,,,,,,,,,,,,,,,,,,,,,,,,,,,,,,,,,,,,,,,,,,,,,,,,,,,,,,,,,,,,,,1.1216,940.3442700998858,None,None,1,940.3442700998858,None,,P003,fencog,1,Pre,2021_Jul_05_1112,N-Back (New Version 2021),2021.1.4,119.96967165953049,
,,,,Conditions/Version_1/twoback(4)_v1.xlsx,New rule: Press 'space' when you see 2-back (i.e. the same letter as the one that appeared 2 letters ago.),p,None,,,,,,,,,0,12,12,12,0,4,4,4,,,,,,,,,,,,,,,,,,,,,,,,,,,,,,,,,,,,,,,,,,,,,,,,,,,,,,,,,,,,,,,,,,,,,1.9586,944.3091447998304,None,space,0,944.3091447998304,None,1.135343600064516,P003,fencog,1,Pre,2021_Jul_05_1112,N-Back (New Version 2021),2021.1.4,119.96967165953049,
,,,,Conditions/Version_1/twoback(4)_v1.xlsx,New rule: Press 'space' when you see 2-back (i.e. the same letter as the one that appeared 2 letters ago.),y,None,,,,,,,,,0,12,12,12,0,5,5,5,,,,,,,,,,,,,,,,,,,,,,,,,,,,,,,,,,,,,,,,,,,,,,,,,,,,,,,,,,,,,,,,,,,,,1.9648,948.2803524998017,None,None,1,948.2803524998017,None,,P003,fencog,1,Pre,2021_Jul_05_1112,N-Back (New Version 2021),2021.1.4,119.96967165953049,
,,,,Conditions/Version_1/twoback(4)_v1.xlsx,New rule: Press 'space' when you see 2-back (i.e. the same letter as the one that appeared 2 letters ago.),P,space,,,,,,,,,0,12,12,12,0,6,6,6,,,,,,,,,,,,,,,,,,,,,,,,,,,,,,,,,,,,,,,,,,,,,,,,,,,,,,,,,,,,,,,,,,,,,1.9834,952.2671367998701,None,None,0,952.2671367998701,None,,P003,fencog,1,Pre,2021_Jul_05_1112,N-Back (New Version 2021),2021.1.4,119.96967165953049,
,,,,Conditions/Version_1/twoback(4)_v1.xlsx,New rule: Press 'space' when you see 2-back (i.e. the same letter as the one that appeared 2 letters ago.),y,None,,,,,,,,,0,12,12,12,0,7,7,7,,,,,,,,,,,,,,,,,,,,,,,,,,,,,,,,,,,,,,,,,,,,,,,,,,,,,,,,,,,,,,,,,,,,,1.5494,955.8598753998522,None,space,0,955.8598753998522,None,1.6479027001187205,P003,fencog,1,Pre,2021_Jul_05_1112,N-Back (New Version 2021),2021.1.4,119.96967165953049,
,,,,Conditions/Version_1/twoback(4)_v1.xlsx,New rule: Press 'space' when you see 2-back (i.e. the same letter as the one that appeared 2 letters ago.),y,space,,,,,,,,,0,12,12,12,0,8,8,8,,,,,,,,,,,,,,,,,,,,,,,,,,,,,,,,,,,,,,,,,,,,,,,,,,,,,,,,,,,,,,,,,,,,,1.4254,959.2631477999967,None,None,0,959.2631477999967,None,,P003,fencog,1,Pre,2021_Jul_05_1112,N-Back (New Version 2021),2021.1.4,119.96967165953049,
,,,,Conditions/Version_1/twoback(4)_v1.xlsx,New rule: Press 'space' when you see 2-back (i.e. the same letter as the one that appeared 2 letters ago.),,,,,,,,,,,0,12,12,12,,,,,,,,,,,,,,,,,,,,,,,,,,,,,,,,,,,,,,,,,,,,,,,,,,,,,,,,,,,,,,,,,,,,,,,,,,,,,,,,,P003,fencog,1,Pre,2021_Jul_05_1112,N-Back (New Version 2021),2021.1.4,119.96967165953049,
,,,,Conditions/Version_1/zeroback(4)_v1.xlsx,New rule: Press 'space' when you see the letter 'x' or 'X'.,o,None,,,,,,,,,0,13,13,13,0,0,0,0,,,,,,,,,,,,,,,,,,,,,,,,,,,,,,,,,,,,,,,,,,,,,,,,,,,,,,,,,,,961.2825866998173,None,964.2725256998092,None,space,2.4114355999045074,964.2725256998092,None,961.2825866998173,None,1.909,968.6189933998976,None,None,1,968.6189933998976,None,,P003,fencog,1,Pre,2021_Jul_05_1112,N-Back (New Version 2021),2021.1.4,119.96967165953049,
,,,,Conditions/Version_1/zeroback(4)_v1.xlsx,New rule: Press 'space' when you see the letter 'x' or 'X'.,X,space,,,,,,,,,0,13,13,13,0,1,1,1,,,,,,,,,,,,,,,,,,,,,,,,,,,,,,,,,,,,,,,,,,,,,,,,,,,,,,,,,,,,,,,,,,,,,1.5184,972.1434399997815,None,space,1,972.1434399997815,None,0.4924639000091702,P003,fencog,1,Pre,2021_Jul_05_1112,N-Back (New Version 2021),2021.1.4,119.96967165953049,
,,,,Conditions/Version_1/zeroback(4)_v1.xlsx,New rule: Press 'space' when you see the letter 'x' or 'X'.,p,None,,,,,,,,,0,13,13,13,0,2,2,2,,,,,,,,,,,,,,,,,,,,,,,,,,,,,,,,,,,,,,,,,,,,,,,,,,,,,,,,,,,,,,,,,,,,,1.0348,975.1930572998244,None,None,1,975.1930572998244,None,,P003,fencog,1,Pre,2021_Jul_05_1112,N-Back (New Version 2021),2021.1.4,119.96967165953049,
,,,,Conditions/Version_1/zeroback(4)_v1.xlsx,New rule: Press 'space' when you see the letter 'x' or 'X'.,m,None,,,,,,,,,0,13,13,13,0,3,3,3,,,,,,,,,,,,,,,,,,,,,,,,,,,,,,,,,,,,,,,,,,,,,,,,,,,,,,,,,,,,,,,,,,,,,1.1712,978.3798519999254,None,None,1,978.3798519999254,None,,P003,fencog,1,Pre,2021_Jul_05_1112,N-Back (New Version 2021),2021.1.4,119.96967165953049,
,,,,Conditions/Version_1/zeroback(4)_v1.xlsx,New rule: Press 'space' when you see the letter 'x' or 'X'.,n,None,,,,,,,,,0,13,13,13,0,4,4,4,,,,,,,,,,,,,,,,,,,,,,,,,,,,,,,,,,,,,,,,,,,,,,,,,,,,,,,,,,,,,,,,,,,,,1.258,981.6408817998599,None,None,1,981.6408817998599,None,,P003,fencog,1,Pre,2021_Jul_05_1112,N-Back (New Version 2021),2021.1.4,119.96967165953049,
,,,,Conditions/Version_1/zeroback(4)_v1.xlsx,New rule: Press 'space' when you see the letter 'x' or 'X'.,m,None,,,,,,,,,0,13,13,13,0,5,5,5,,,,,,,,,,,,,,,,,,,,,,,,,,,,,,,,,,,,,,,,,,,,,,,,,,,,,,,,,,,,,,,,,,,,,1.6858,985.3324062000029,None,None,1,985.3324062000029,None,,P003,fencog,1,Pre,2021_Jul_05_1112,N-Back (New Version 2021),2021.1.4,119.96967165953049,
,,,,Conditions/Version_1/zeroback(4)_v1.xlsx,New rule: Press 'space' when you see the letter 'x' or 'X'.,C,None,,,,,,,,,0,13,13,13,0,6,6,6,,,,,,,,,,,,,,,,,,,,,,,,,,,,,,,,,,,,,,,,,,,,,,,,,,,,,,,,,,,,,,,,,,,,,1.32,988.6624326999299,None,None,1,988.6624326999299,None,,P003,fencog,1,Pre,2021_Jul_05_1112,N-Back (New Version 2021),2021.1.4,119.96967165953049,
,,,,Conditions/Version_1/zeroback(4)_v1.xlsx,New rule: Press 'space' when you see the letter 'x' or 'X'.,m,None,,,,,,,,,0,13,13,13,0,7,7,7,,,,,,,,,,,,,,,,,,,,,,,,,,,,,,,,,,,,,,,,,,,,,,,,,,,,,,,,,,,,,,,,,,,,,1.444,992.1115097999573,None,None,1,992.1115097999573,None,,P003,fencog,1,Pre,2021_Jul_05_1112,N-Back (New Version 2021),2021.1.4,119.96967165953049,
,,,,Conditions/Version_1/zeroback(4)_v1.xlsx,New rule: Press 'space' when you see the letter 'x' or 'X'.,p,None,,,,,,,,,0,13,13,13,0,8,8,8,,,,,,,,,,,,,,,,,,,,,,,,,,,,,,,,,,,,,,,,,,,,,,,,,,,,,,,,,,,,,,,,,,,,,1.3262,995.4482167998794,None,None,1,995.4482167998794,None,,P003,fencog,1,Pre,2021_Jul_05_1112,N-Back (New Version 2021),2021.1.4,119.96967165953049,
,,,,Conditions/Version_1/zeroback(4)_v1.xlsx,New rule: Press 'space' when you see the letter 'x' or 'X'.,X,space,,,,,,,,,0,13,13,13,0,9,9,9,,,,,,,,,,,,,,,,,,,,,,,,,,,,,,,,,,,,,,,,,,,,,,,,,,,,,,,,,,,,,,,,,,,,,1.103,998.561747699976,None,space,1,998.561747699976,None,0.5383305000141263,P003,fencog,1,Pre,2021_Jul_05_1112,N-Back (New Version 2021),2021.1.4,119.96967165953049,
,,,,Conditions/Version_1/zeroback(4)_v1.xlsx,New rule: Press 'space' when you see the letter 'x' or 'X'.,,,,,,,,,,,0,13,13,13,,,,,,,,,,,,,,,,,,,,,,,,,,,,,,,,,,,,,,,,,,,,,,,,,,,,,,,,,,,,,,,,,,,,,,,,,,,,,,,,,P003,fencog,1,Pre,2021_Jul_05_1112,N-Back (New Version 2021),2021.1.4,119.96967165953049,
,,,,Conditions/Version_1/oneback(4)_v1.xlsx,New rule: Press 'space' when you see 1-back (i.e. the same letter as the one that appeared 1 letter ago.),w,None,,,,,,,,,0,14,14,14,0,0,0,0,,,,,,,,,,,,,,,,,,,,,,,,,,,,,,,,,,,,,,,,,,,,,,,,,,,,,,,,,,,1000.5889848999213,None,1003.5772458999418,None,space,0.07473680004477501,1003.5772458999418,None,1000.5889848999213,None,1.2642,1004.9327866998501,None,None,1,1004.9327866998501,None,,P003,fencog,1,Pre,2021_Jul_05_1112,N-Back (New Version 2021),2021.1.4,119.96967165953049,
,,,,Conditions/Version_1/oneback(4)_v1.xlsx,New rule: Press 'space' when you see 1-back (i.e. the same letter as the one that appeared 1 letter ago.),q,None,,,,,,,,,0,14,14,14,0,1,1,1,,,,,,,,,,,,,,,,,,,,,,,,,,,,,,,,,,,,,,,,,,,,,,,,,,,,,,,,,,,,,,,,,,,,,1.2828,1008.2173208999448,None,None,1,1008.2173208999448,None,,P003,fencog,1,Pre,2021_Jul_05_1112,N-Back (New Version 2021),2021.1.4,119.96967165953049,
,,,,Conditions/Version_1/oneback(4)_v1.xlsx,New rule: Press 'space' when you see 1-back (i.e. the same letter as the one that appeared 1 letter ago.),i,None,,,,,,,,,0,14,14,14,0,2,2,2,,,,,,,,,,,,,,,,,,,,,,,,,,,,,,,,,,,,,,,,,,,,,,,,,,,,,,,,,,,,,,,,,,,,,1.7478,1011.9732156998944,None,None,1,1011.9732156998944,None,,P003,fencog,1,Pre,2021_Jul_05_1112,N-Back (New Version 2021),2021.1.4,119.96967165953049,
,,,,Conditions/Version_1/oneback(4)_v1.xlsx,New rule: Press 'space' when you see 1-back (i.e. the same letter as the one that appeared 1 letter ago.),t,None,,,,,,,,,0,14,14,14,0,3,3,3,,,,,,,,,,,,,,,,,,,,,,,,,,,,,,,,,,,,,,,,,,,,,,,,,,,,,,,,,,,,,,,,,,,,,1.3324,1015.3130419999361,None,None,1,1015.3130419999361,None,,P003,fencog,1,Pre,2021_Jul_05_1112,N-Back (New Version 2021),2021.1.4,119.96967165953049,
,,,,Conditions/Version_1/oneback(4)_v1.xlsx,New rule: Press 'space' when you see 1-back (i.e. the same letter as the one that appeared 1 letter ago.),v,None,,,,,,,,,0,14,14,14,0,4,4,4,,,,,,,,,,,,,,,,,,,,,,,,,,,,,,,,,,,,,,,,,,,,,,,,,,,,,,,,,,,,,,,,,,,,,1.8718,1019.1920577997807,None,None,1,1019.1920577997807,None,,P003,fencog,1,Pre,2021_Jul_05_1112,N-Back (New Version 2021),2021.1.4,119.96967165953049,
,,,,Conditions/Version_1/oneback(4)_v1.xlsx,New rule: Press 'space' when you see 1-back (i.e. the same letter as the one that appeared 1 letter ago.),V,space,,,,,,,,,0,14,14,14,0,5,5,5,,,,,,,,,,,,,,,,,,,,,,,,,,,,,,,,,,,,,,,,,,,,,,,,,,,,,,,,,,,,,,,,,,,,,1.8346,1023.0414020000026,None,space,1,1023.0414020000026,None,0.5145670999772847,P003,fencog,1,Pre,2021_Jul_05_1112,N-Back (New Version 2021),2021.1.4,119.96967165953049,
,,,,Conditions/Version_1/oneback(4)_v1.xlsx,New rule: Press 'space' when you see 1-back (i.e. the same letter as the one that appeared 1 letter ago.),v,space,,,,,,,,,0,14,14,14,0,6,6,6,,,,,,,,,,,,,,,,,,,,,,,,,,,,,,,,,,,,,,,,,,,,,,,,,,,,,,,,,,,,,,,,,,,,,1.4564,1026.5038248999044,None,space,1,1026.5038248999044,None,1.1083636998664588,P003,fencog,1,Pre,2021_Jul_05_1112,N-Back (New Version 2021),2021.1.4,119.96967165953049,
,,,,Conditions/Version_1/oneback(4)_v1.xlsx,New rule: Press 'space' when you see 1-back (i.e. the same letter as the one that appeared 1 letter ago.),p,None,,,,,,,,,0,14,14,14,0,7,7,7,,,,,,,,,,,,,,,,,,,,,,,,,,,,,,,,,,,,,,,,,,,,,,,,,,,,,,,,,,,,,,,,,,,,,1.4006,1029.9175758999772,None,None,1,1029.9175758999772,None,,P003,fencog,1,Pre,2021_Jul_05_1112,N-Back (New Version 2021),2021.1.4,119.96967165953049,
,,,,Conditions/Version_1/oneback(4)_v1.xlsx,New rule: Press 'space' when you see 1-back (i.e. the same letter as the one that appeared 1 letter ago.),w,None,,,,,,,,,0,14,14,14,0,8,8,8,,,,,,,,,,,,,,,,,,,,,,,,,,,,,,,,,,,,,,,,,,,,,,,,,,,,,,,,,,,,,,,,,,,,,1.3634,1033.2845073000062,None,None,1,1033.2845073000062,None,,P003,fencog,1,Pre,2021_Jul_05_1112,N-Back (New Version 2021),2021.1.4,119.96967165953049,
,,,,Conditions/Version_1/oneback(4)_v1.xlsx,New rule: Press 'space' when you see 1-back (i.e. the same letter as the one that appeared 1 letter ago.),W,space,,,,,,,,,0,14,14,14,0,9,9,9,,,,,,,,,,,,,,,,,,,,,,,,,,,,,,,,,,,,,,,,,,,,,,,,,,,,,,,,,,,,,,,,,,,,,1.3138,1036.6067206999287,None,space,1,1036.6067206999287,None,0.37347950018011034,P003,fencog,1,Pre,2021_Jul_05_1112,N-Back (New Version 2021),2021.1.4,119.96967165953049,
,,,,Conditions/Version_1/oneback(4)_v1.xlsx,New rule: Press 'space' when you see 1-back (i.e. the same letter as the one that appeared 1 letter ago.),,,,,,,,,,,0,14,14,14,,,,,,,,,,,,,,,,,,,,,,,,,,,,,,,,,,,,,,,,,,,,,,,,,,,,,,,,,,,,,,,,,,,,,,,,,,,,,,,,,P003,fencog,1,Pre,2021_Jul_05_1112,N-Back (New Version 2021),2021.1.4,119.96967165953049,
,,,,Conditions/Version_1/threeback(4)_v1.xlsx,New rule: Press 'space' when you see 3-back (i.e. the same letter as the one that appeared 3 letters ago.),A,None,,,,,,,,,0,15,15,15,0,0,0,0,,,,,,,,,,,,,,,,,,,,,,,,,,,,,,,,,,,,,,,,,,,,,,,,,,,,,,,,,,,1038.6290610998403,None,1041.6160134999081,None,space,1.2438135999254882,1041.6160134999081,None,1038.6290610998403,None,1.3448,1044.236831099959,None,None,1,1044.236831099959,None,,P003,fencog,1,Pre,2021_Jul_05_1112,N-Back (New Version 2021),2021.1.4,119.96967165953049,
,,,,Conditions/Version_1/threeback(4)_v1.xlsx,New rule: Press 'space' when you see 3-back (i.e. the same letter as the one that appeared 3 letters ago.),n,None,,,,,,,,,0,15,15,15,0,1,1,1,,,,,,,,,,,,,,,,,,,,,,,,,,,,,,,,,,,,,,,,,,,,,,,,,,,,,,,,,,,,,,,,,,,,,1.568,1047.8116878999863,None,None,1,1047.8116878999863,None,,P003,fencog,1,Pre,2021_Jul_05_1112,N-Back (New Version 2021),2021.1.4,119.96967165953049,
,,,,Conditions/Version_1/threeback(4)_v1.xlsx,New rule: Press 'space' when you see 3-back (i.e. the same letter as the one that appeared 3 letters ago.),g,None,,,,,,,,,0,15,15,15,0,2,2,2,,,,,,,,,,,,,,,,,,,,,,,,,,,,,,,,,,,,,,,,,,,,,,,,,,,,,,,,,,,,,,,,,,,,,1.1588,1050.977466299897,None,None,1,1050.977466299897,None,,P003,fencog,1,Pre,2021_Jul_05_1112,N-Back (New Version 2021),2021.1.4,119.96967165953049,
,,,,Conditions/Version_1/threeback(4)_v1.xlsx,New rule: Press 'space' when you see 3-back (i.e. the same letter as the one that appeared 3 letters ago.),A,space,,,,,,,,,0,15,15,15,0,3,3,3,,,,,,,,,,,,,,,,,,,,,,,,,,,,,,,,,,,,,,,,,,,,,,,,,,,,,,,,,,,,,,,,,,,,,1.94,1054.9208666998893,None,space,1,1054.9208666998893,None,0.4669463001191616,P003,fencog,1,Pre,2021_Jul_05_1112,N-Back (New Version 2021),2021.1.4,119.96967165953049,
,,,,Conditions/Version_1/threeback(4)_v1.xlsx,New rule: Press 'space' when you see 3-back (i.e. the same letter as the one that appeared 3 letters ago.),p,None,,,,,,,,,0,15,15,15,0,4,4,4,,,,,,,,,,,,,,,,,,,,,,,,,,,,,,,,,,,,,,,,,,,,,,,,,,,,,,,,,,,,,,,,,,,,,1.2704,1058.202003599843,None,None,1,1058.202003599843,None,,P003,fencog,1,Pre,2021_Jul_05_1112,N-Back (New Version 2021),2021.1.4,119.96967165953049,
,,,,Conditions/Version_1/threeback(4)_v1.xlsx,New rule: Press 'space' when you see 3-back (i.e. the same letter as the one that appeared 3 letters ago.),O,None,,,,,,,,,0,15,15,15,0,5,5,5,,,,,,,,,,,,,,,,,,,,,,,,,,,,,,,,,,,,,,,,,,,,,,,,,,,,,,,,,,,,,,,,,,,,,1.7602,1061.9659641999751,None,None,1,1061.9659641999751,None,,P003,fencog,1,Pre,2021_Jul_05_1112,N-Back (New Version 2021),2021.1.4,119.96967165953049,
,,,,Conditions/Version_1/threeback(4)_v1.xlsx,New rule: Press 'space' when you see 3-back (i.e. the same letter as the one that appeared 3 letters ago.),a,space,,,,,,,,,0,15,15,15,0,6,6,6,,,,,,,,,,,,,,,,,,,,,,,,,,,,,,,,,,,,,,,,,,,,,,,,,,,,,,,,,,,,,,,,,,,,,1.2146,1065.1817326999735,None,None,0,1065.1817326999735,None,,P003,fencog,1,Pre,2021_Jul_05_1112,N-Back (New Version 2021),2021.1.4,119.96967165953049,
,,,,Conditions/Version_1/threeback(4)_v1.xlsx,New rule: Press 'space' when you see 3-back (i.e. the same letter as the one that appeared 3 letters ago.),p,space,,,,,,,,,0,15,15,15,0,7,7,7,,,,,,,,,,,,,,,,,,,,,,,,,,,,,,,,,,,,,,,,,,,,,,,,,,,,,,,,,,,,,,,,,,,,,1.2828,1068.4659498999827,None,space,1,1068.4659498999827,None,0.9938804998528212,P003,fencog,1,Pre,2021_Jul_05_1112,N-Back (New Version 2021),2021.1.4,119.96967165953049,
,,,,Conditions/Version_1/threeback(4)_v1.xlsx,New rule: Press 'space' when you see 3-back (i.e. the same letter as the one that appeared 3 letters ago.),x,None,,,,,,,,,0,15,15,15,0,8,8,8,,,,,,,,,,,,,,,,,,,,,,,,,,,,,,,,,,,,,,,,,,,,,,,,,,,,,,,,,,,,,,,,,,,,,1.9028,1072.382200999884,None,None,1,1072.382200999884,None,,P003,fencog,1,Pre,2021_Jul_05_1112,N-Back (New Version 2021),2021.1.4,119.96967165953049,
,,,,Conditions/Version_1/threeback(4)_v1.xlsx,New rule: Press 'space' when you see 3-back (i.e. the same letter as the one that appeared 3 letters ago.),X,None,,,,,,,,,0,15,15,15,0,9,9,9,,,,,,,,,,,,,,,,,,,,,,,,,,,,,,,,,,,,,,,,,,,,,,,,,,,,,,,,,,,,,,,,,,,,,1.2022,1075.6017679998185,None,None,1,1075.6017679998185,None,,P003,fencog,1,Pre,2021_Jul_05_1112,N-Back (New Version 2021),2021.1.4,119.96967165953049,
,,,,Conditions/Version_1/threeback(4)_v1.xlsx,New rule: Press 'space' when you see 3-back (i.e. the same letter as the one that appeared 3 letters ago.),,,,,,,,,,,0,15,15,15,,,,,,,,,,,,,,,,,,,,,,,,,,,,,,,,,,,,,,,,,,,,,,,,,,,,,,,,,,,,,,,,,,,,,,,,,,,,,,,,,P003,fencog,1,Pre,2021_Jul_05_1112,N-Back (New Version 2021),2021.1.4,119.96967165953049,
