CondFileP,InstructionsP,LettersDisplayedP,CorrectnessP,CondFile,Instructions,LettersDisplayed,Correctness,practicetrials.thisRepN,practicetrials.thisTrialN,practicetrials.thisN,practicetrials.thisIndex,InnerLoopPractice.thisRepN,InnerLoopPractice.thisTrialN,InnerLoopPractice.thisN,InnerLoopPractice.thisIndex,trials.thisRepN,trials.thisTrialN,trials.thisN,trials.thisIndex,InnerLoop.thisRepN,InnerLoop.thisTrialN,InnerLoop.thisN,InnerLoop.thisIndex,TaskVersionText.started,TaskVersionText.stopped,InstrKey1.keys,InstrKey1.rt,InstrKey1.started,InstrKey1.stopped,text.started,text.stopped,key_resp_4.keys,key_resp_4.rt,key_resp_4.started,key_resp_4.stopped,text_2.started,text_2.stopped,key_resp_3.keys,key_resp_3.rt,key_resp_3.started,key_resp_3.stopped,text_3.started,text_3.stopped,key_resp_2.keys,key_resp_2.rt,key_resp_2.started,key_resp_2.stopped,PractIn1.started,PractIn1.stopped,PractIn2.started,PractIn2.stopped,PractInstructionPass.keys,PractInstructionPass.rt,PractInstructionPass.started,PractInstructionPass.stopped,PractBlock1.started,PractBlock1.stopped,ISIjitterPractice,ISI_Pract_Fixation.started,ISI_Pract_Fixation.stopped,N_backP.started,N_backP.stopped,KeyPractice.keys,KeyPractice.corr,KeyPractice.rt,KeyPractice.started,KeyPractice.stopped,text_4.started,text_4.stopped,TransitionText.started,TransitionText.stopped,key_resp_6.keys,key_resp_6.rt,key_resp_6.started,key_resp_6.stopped,text_5.started,text_5.stopped,key_resp_5.keys,key_resp_5.rt,key_resp_5.started,key_resp_5.stopped,MainInt1.started,MainInt1.stopped,MainInt2.started,MainInt2.stopped,InstructionPass.keys,InstructionPass.rt,InstructionPass.started,InstructionPass.stopped,Blocks1.started,Blocks1.stopped,ISIjitter,N_backD.started,N_backD.stopped,key_resp.keys,key_resp.corr,key_resp.started,key_resp.stopped,key_resp.rt,participant,Study Name,Task Version (required to run),PRE/POST,date,expName,psychopyVersion,frameRate
,,,,,,,,,,,,,,,,,,,,,,,,32.3271971,None,space,77.2667108,32.8168843,None,,,,,,,,,,,,,,,,,,,,,,,,,,,,,,,,,,,,,,,,,,,,,,,,,,,,,,,,,,,,,,,,,,,,,,,P003,fencog,2,Post,2021_Jul_12_1318,N-Back (New Version 2021),2021.1.4,119.8629726
,,,,,,,,,,,,,,,,,,,,,,,,,,,,,,110.1185761,None,space,4.191021,110.6193988,None,,,,,,,,,,,,,,,,,,,,,,,,,,,,,,,,,,,,,,,,,,,,,,,,,,,,,,,,,,,,,,,,,P003,fencog,2,Post,2021_Jul_12_1318,N-Back (New Version 2021),2021.1.4,119.8629726
,,,,,,,,,,,,,,,,,,,,,,,,,,,,,,,,,,,,114.8430332,None,space,0.3155005,115.3348049,None,,,,,,,,,,,,,,,,,,,,,,,,,,,,,,,,,,,,,,,,,,,,,,,,,,,,,,,,,,,P003,fencog,2,Post,2021_Jul_12_1318,N-Back (New Version 2021),2021.1.4,119.8629726
,,,,,,,,,,,,,,,,,,,,,,,,,,,,,,,,,,,,,,,,,,115.6763785,None,space,0.5070338,116.1677799,None,,,,,,,,,,,,,,,,,,,,,,,,,,,,,,,,,,,,,,,,,,,,,,,,,,,,,P003,fencog,2,Post,2021_Jul_12_1318,N-Back (New Version 2021),2021.1.4,119.8629726
Conditions/Version_2Pr/zeroback(1)_v2.xlsx,Rule: Press 'space' when you see the letter 'x' or 'X'.,x,space,,,,,0,0,0,0,0,0,0,0,,,,,,,,,,,,,,,,,,,,,,,,,,,,,,,,,118.0452507,None,121.0356739,None,space,1.3184543,121.0356739,None,118.0452507,None,1.465,122.3946328,None,123.8662433,None,space,1,0.6878106,123.8662433,None,124.569664,None,,,,,,,,,,,,,,,,,,,,,,,,,,,,,,,P003,fencog,2,Post,2021_Jul_12_1318,N-Back (New Version 2021),2021.1.4,119.8629726
Conditions/Version_2Pr/zeroback(1)_v2.xlsx,Rule: Press 'space' when you see the letter 'x' or 'X'.,R,None,,,,,0,0,0,0,0,1,1,1,,,,,,,,,,,,,,,,,,,,,,,,,,,,,,,,,,,,,,,,,,,1.54,126.0722414,None,127.6163978,None,None,1,,127.6163978,None,129.6214572,None,,,,,,,,,,,,,,,,,,,,,,,,,,,,,,,P003,fencog,2,Post,2021_Jul_12_1318,N-Back (New Version 2021),2021.1.4,119.8629726
Conditions/Version_2Pr/zeroback(1)_v2.xlsx,Rule: Press 'space' when you see the letter 'x' or 'X'.,p,None,,,,,0,0,0,0,0,2,2,2,,,,,,,,,,,,,,,,,,,,,,,,,,,,,,,,,,,,,,,,,,,1.69,131.1209021,None,132.8128185,None,None,1,,132.8128185,None,134.8198622,None,,,,,,,,,,,,,,,,,,,,,,,,,,,,,,,P003,fencog,2,Post,2021_Jul_12_1318,N-Back (New Version 2021),2021.1.4,119.8629726
Conditions/Version_2Pr/zeroback(1)_v2.xlsx,Rule: Press 'space' when you see the letter 'x' or 'X'.,O,None,,,,,0,0,0,0,0,3,3,3,,,,,,,,,,,,,,,,,,,,,,,,,,,,,,,,,,,,,,,,,,,1.94,136.3194037,None,138.2637016,None,None,1,,138.2637016,None,140.2673473,None,,,,,,,,,,,,,,,,,,,,,,,,,,,,,,,P003,fencog,2,Post,2021_Jul_12_1318,N-Back (New Version 2021),2021.1.4,119.8629726
Conditions/Version_2Pr/zeroback(1)_v2.xlsx,Rule: Press 'space' when you see the letter 'x' or 'X'.,i,None,,,,,0,0,0,0,0,4,4,4,,,,,,,,,,,,,,,,,,,,,,,,,,,,,,,,,,,,,,,,,,,1.24,141.7677972,None,143.0105361,None,None,1,,143.0105361,None,145.0166956,None,,,,,,,,,,,,,,,,,,,,,,,,,,,,,,,P003,fencog,2,Post,2021_Jul_12_1318,N-Back (New Version 2021),2021.1.4,119.8629726
Conditions/Version_2Pr/zeroback(1)_v2.xlsx,Rule: Press 'space' when you see the letter 'x' or 'X'.,U,None,,,,,0,0,0,0,0,5,5,5,,,,,,,,,,,,,,,,,,,,,,,,,,,,,,,,,,,,,,,,,,,1.265,146.5163445,None,147.7904496,None,None,1,,147.7904496,None,149.7903651,None,,,,,,,,,,,,,,,,,,,,,,,,,,,,,,,P003,fencog,2,Post,2021_Jul_12_1318,N-Back (New Version 2021),2021.1.4,119.8629726
Conditions/Version_2Pr/zeroback(1)_v2.xlsx,Rule: Press 'space' when you see the letter 'x' or 'X'.,N,None,,,,,0,0,0,0,0,6,6,6,,,,,,,,,,,,,,,,,,,,,,,,,,,,,,,,,,,,,,,,,,,1.79,151.289886,None,153.0838231,None,None,1,,153.0838231,None,155.0888453,None,,,,,,,,,,,,,,,,,,,,,,,,,,,,,,,P003,fencog,2,Post,2021_Jul_12_1318,N-Back (New Version 2021),2021.1.4,119.8629726
Conditions/Version_2Pr/zeroback(1)_v2.xlsx,Rule: Press 'space' when you see the letter 'x' or 'X'.,m,None,,,,,0,0,0,0,0,7,7,7,,,,,,,,,,,,,,,,,,,,,,,,,,,,,,,,,,,,,,,,,,,1.315,156.5883665,None,157.9119244,None,None,1,,157.9119244,None,159.9124453,None,,,,,,,,,,,,,,,,,,,,,,,,,,,,,,,P003,fencog,2,Post,2021_Jul_12_1318,N-Back (New Version 2021),2021.1.4,119.8629726
Conditions/Version_2Pr/zeroback(1)_v2.xlsx,Rule: Press 'space' when you see the letter 'x' or 'X'.,x,space,,,,,0,0,0,0,0,8,8,8,,,,,,,,,,,,,,,,,,,,,,,,,,,,,,,,,,,,,,,,,,,1.865,161.411847,None,163.2822729,None,space,1,0.4159851,163.2822729,None,163.7117794,None,,,,,,,,,,,,,,,,,,,,,,,,,,,,,,,P003,fencog,2,Post,2021_Jul_12_1318,N-Back (New Version 2021),2021.1.4,119.8629726
Conditions/Version_2Pr/zeroback(1)_v2.xlsx,Rule: Press 'space' when you see the letter 'x' or 'X'.,X,space,,,,,0,0,0,0,0,9,9,9,,,,,,,,,,,,,,,,,,,,,,,,,,,,,,,,,,,,,,,,,,,1.115,165.2189011,None,166.3391232,None,space,1,0.3991528,166.3391232,None,166.7526919,None,,,,,,,,,,,,,,,,,,,,,,,,,,,,,,,P003,fencog,2,Post,2021_Jul_12_1318,N-Back (New Version 2021),2021.1.4,119.8629726
Conditions/Version_2Pr/zeroback(1)_v2.xlsx,Rule: Press 'space' when you see the letter 'x' or 'X'.,,,,,,,0,0,0,0,,,,,,,,,,,,,,,,,,,,,,,,,,,,,,,,,,,,,,,,,,,,,,,,,,,,,,,,,,,,,,,,,,,,,,,,,,,,,,,,,,,,,,,,,P003,fencog,2,Post,2021_Jul_12_1318,N-Back (New Version 2021),2021.1.4,119.8629726
Conditions/Version_2Pr/oneback(1)_v2.xlsx,New rule: Press 'space' when you see 1-back (i.e. the same letter as the one that appeared 1 letter ago.),r,None,,,,,0,1,1,1,0,0,0,0,,,,,,,,,,,,,,,,,,,,,,,,,,,,,,,,,168.2867339,None,171.2699785,None,space,2.2276885,171.2699785,None,168.2867339,None,1.615,173.519167,None,175.1449454,None,None,1,,175.1449454,None,177.1489339,None,,,,,,,,,,,,,,,,,,,,,,,,,,,,,,,P003,fencog,2,Post,2021_Jul_12_1318,N-Back (New Version 2021),2021.1.4,119.8629726
Conditions/Version_2Pr/oneback(1)_v2.xlsx,New rule: Press 'space' when you see 1-back (i.e. the same letter as the one that appeared 1 letter ago.),t,None,,,,,0,1,1,1,0,1,1,1,,,,,,,,,,,,,,,,,,,,,,,,,,,,,,,,,,,,,,,,,,,1.715,178.6485051,None,180.3661904,None,None,1,,180.3661904,None,182.3725108,None,,,,,,,,,,,,,,,,,,,,,,,,,,,,,,,P003,fencog,2,Post,2021_Jul_12_1318,N-Back (New Version 2021),2021.1.4,119.8629726
Conditions/Version_2Pr/oneback(1)_v2.xlsx,New rule: Press 'space' when you see 1-back (i.e. the same letter as the one that appeared 1 letter ago.),Y,None,,,,,0,1,1,1,0,2,2,2,,,,,,,,,,,,,,,,,,,,,,,,,,,,,,,,,,,,,,,,,,,1.79,183.8719542,None,185.6655267,None,None,1,,185.6655267,None,187.6664837,None,,,,,,,,,,,,,,,,,,,,,,,,,,,,,,,P003,fencog,2,Post,2021_Jul_12_1318,N-Back (New Version 2021),2021.1.4,119.8629726
Conditions/Version_2Pr/oneback(1)_v2.xlsx,New rule: Press 'space' when you see 1-back (i.e. the same letter as the one that appeared 1 letter ago.),y,space,,,,,0,1,1,1,0,3,3,3,,,,,,,,,,,,,,,,,,,,,,,,,,,,,,,,,,,,,,,,,,,1.315,189.170377,None,190.4884411,None,space,1,0.4175644,190.4884411,None,190.9226671,None,,,,,,,,,,,,,,,,,,,,,,,,,,,,,,,P003,fencog,2,Post,2021_Jul_12_1318,N-Back (New Version 2021),2021.1.4,119.8629726
Conditions/Version_2Pr/oneback(1)_v2.xlsx,New rule: Press 'space' when you see 1-back (i.e. the same letter as the one that appeared 1 letter ago.),p,None,,,,,0,1,1,1,0,4,4,4,,,,,,,,,,,,,,,,,,,,,,,,,,,,,,,,,,,,,,,,,,,2.015,192.4276785,None,194.4497452,None,None,1,,194.4497452,None,196.4514659,None,,,,,,,,,,,,,,,,,,,,,,,,,,,,,,,P003,fencog,2,Post,2021_Jul_12_1318,N-Back (New Version 2021),2021.1.4,119.8629726
Conditions/Version_2Pr/oneback(1)_v2.xlsx,New rule: Press 'space' when you see 1-back (i.e. the same letter as the one that appeared 1 letter ago.),P,space,,,,,0,1,1,1,0,5,5,5,,,,,,,,,,,,,,,,,,,,,,,,,,,,,,,,,,,,,,,,,,,1.215,197.9510235,None,199.1688859,None,space,1,0.4334975,199.1688859,None,199.6180171,None,,,,,,,,,,,,,,,,,,,,,,,,,,,,,,,P003,fencog,2,Post,2021_Jul_12_1318,N-Back (New Version 2021),2021.1.4,119.8629726
Conditions/Version_2Pr/oneback(1)_v2.xlsx,New rule: Press 'space' when you see 1-back (i.e. the same letter as the one that appeared 1 letter ago.),e,None,,,,,0,1,1,1,0,6,6,6,,,,,,,,,,,,,,,,,,,,,,,,,,,,,,,,,,,,,,,,,,,1.84,201.1249224,None,202.9694866,None,None,1,,202.9694866,None,204.9740206,None,,,,,,,,,,,,,,,,,,,,,,,,,,,,,,,P003,fencog,2,Post,2021_Jul_12_1318,N-Back (New Version 2021),2021.1.4,119.8629726
Conditions/Version_2Pr/oneback(1)_v2.xlsx,New rule: Press 'space' when you see 1-back (i.e. the same letter as the one that appeared 1 letter ago.),r,None,,,,,0,1,1,1,0,7,7,7,,,,,,,,,,,,,,,,,,,,,,,,,,,,,,,,,,,,,,,,,,,1.915,206.4736572,None,208.3907979,None,None,1,,208.3907979,None,210.3975015,None,,,,,,,,,,,,,,,,,,,,,,,,,,,,,,,P003,fencog,2,Post,2021_Jul_12_1318,N-Back (New Version 2021),2021.1.4,119.8629726
Conditions/Version_2Pr/oneback(1)_v2.xlsx,New rule: Press 'space' when you see 1-back (i.e. the same letter as the one that appeared 1 letter ago.),R,space,,,,,0,1,1,1,0,8,8,8,,,,,,,,,,,,,,,,,,,,,,,,,,,,,,,,,,,,,,,,,,,1.34,211.8968666,None,213.2415278,None,space,1,0.512445,213.2415278,None,213.7634081,None,,,,,,,,,,,,,,,,,,,,,,,,,,,,,,,P003,fencog,2,Post,2021_Jul_12_1318,N-Back (New Version 2021),2021.1.4,119.8629726
Conditions/Version_2Pr/oneback(1)_v2.xlsx,New rule: Press 'space' when you see 1-back (i.e. the same letter as the one that appeared 1 letter ago.),p,None,,,,,0,1,1,1,0,9,9,9,,,,,,,,,,,,,,,,,,,,,,,,,,,,,,,,,,,,,,,,,,,1.665,215.2625433,None,216.9307524,None,None,1,,216.9307524,None,218.9360387,None,,,,,,,,,,,,,,,,,,,,,,,,,,,,,,,P003,fencog,2,Post,2021_Jul_12_1318,N-Back (New Version 2021),2021.1.4,119.8629726
Conditions/Version_2Pr/oneback(1)_v2.xlsx,New rule: Press 'space' when you see 1-back (i.e. the same letter as the one that appeared 1 letter ago.),,,,,,,0,1,1,1,,,,,,,,,,,,,,,,,,,,,,,,,,,,,,,,,,,,,,,,,,,,,,,,,,,,,,,,,,,,,,,,,,,,,,,,,,,,,,,,,,,,,,,,,P003,fencog,2,Post,2021_Jul_12_1318,N-Back (New Version 2021),2021.1.4,119.8629726
Conditions/Version_2Pr/twoback(1)_v2.xlsx,New rule: Press 'space' when you see 2-back (i.e. the same letter as the one that appeared 2 letters ago.),r,None,,,,,0,2,2,2,0,0,0,0,,,,,,,,,,,,,,,,,,,,,,,,,,,,,,,,,220.4605468,None,223.4458773,None,space,1.2521976,223.4458773,None,220.4605468,None,1.615,224.7147723,None,226.3379539,None,None,1,,226.3379539,None,228.3421335,None,,,,,,,,,,,,,,,,,,,,,,,,,,,,,,,P003,fencog,2,Post,2021_Jul_12_1318,N-Back (New Version 2021),2021.1.4,119.8629726
Conditions/Version_2Pr/twoback(1)_v2.xlsx,New rule: Press 'space' when you see 2-back (i.e. the same letter as the one that appeared 2 letters ago.),P,None,,,,,0,2,2,2,0,1,1,1,,,,,,,,,,,,,,,,,,,,,,,,,,,,,,,,,,,,,,,,,,,1.14,229.8416936,None,230.9833516,None,None,1,,230.9833516,None,232.9858522,None,,,,,,,,,,,,,,,,,,,,,,,,,,,,,,,P003,fencog,2,Post,2021_Jul_12_1318,N-Back (New Version 2021),2021.1.4,119.8629726
Conditions/Version_2Pr/twoback(1)_v2.xlsx,New rule: Press 'space' when you see 2-back (i.e. the same letter as the one that appeared 2 letters ago.),o,None,,,,,0,2,2,2,0,2,2,2,,,,,,,,,,,,,,,,,,,,,,,,,,,,,,,,,,,,,,,,,,,1.09,234.4903448,None,235.5843553,None,None,1,,235.5843553,None,237.5893553,None,,,,,,,,,,,,,,,,,,,,,,,,,,,,,,,P003,fencog,2,Post,2021_Jul_12_1318,N-Back (New Version 2021),2021.1.4,119.8629726
Conditions/Version_2Pr/twoback(1)_v2.xlsx,New rule: Press 'space' when you see 2-back (i.e. the same letter as the one that appeared 2 letters ago.),p,space,,,,,0,2,2,2,0,3,3,3,,,,,,,,,,,,,,,,,,,,,,,,,,,,,,,,,,,,,,,,,,,2.015,239.0892866,None,241.1058055,None,space,1,0.5442068,241.1058055,None,241.669894,None,,,,,,,,,,,,,,,,,,,,,,,,,,,,,,,P003,fencog,2,Post,2021_Jul_12_1318,N-Back (New Version 2021),2021.1.4,119.8629726
Conditions/Version_2Pr/twoback(1)_v2.xlsx,New rule: Press 'space' when you see 2-back (i.e. the same letter as the one that appeared 2 letters ago.),Y,None,,,,,0,2,2,2,0,4,4,4,,,,,,,,,,,,,,,,,,,,,,,,,,,,,,,,,,,,,,,,,,,1.99,243.1707941,None,245.1630966,None,None,1,,245.1630966,None,247.1698245,None,,,,,,,,,,,,,,,,,,,,,,,,,,,,,,,P003,fencog,2,Post,2021_Jul_12_1318,N-Back (New Version 2021),2021.1.4,119.8629726
Conditions/Version_2Pr/twoback(1)_v2.xlsx,New rule: Press 'space' when you see 2-back (i.e. the same letter as the one that appeared 2 letters ago.),q,None,,,,,0,2,2,2,0,5,5,5,,,,,,,,,,,,,,,,,,,,,,,,,,,,,,,,,,,,,,,,,,,1.04,248.6694463,None,249.7110337,None,None,1,,249.7110337,None,251.7102003,None,,,,,,,,,,,,,,,,,,,,,,,,,,,,,,,P003,fencog,2,Post,2021_Jul_12_1318,N-Back (New Version 2021),2021.1.4,119.8629726
Conditions/Version_2Pr/twoback(1)_v2.xlsx,New rule: Press 'space' when you see 2-back (i.e. the same letter as the one that appeared 2 letters ago.),m,None,,,,,0,2,2,2,0,6,6,6,,,,,,,,,,,,,,,,,,,,,,,,,,,,,,,,,,,,,,,,,,,1.84,253.209672,None,255.0527106,None,None,1,,255.0527106,None,257.0586196,None,,,,,,,,,,,,,,,,,,,,,,,,,,,,,,,P003,fencog,2,Post,2021_Jul_12_1318,N-Back (New Version 2021),2021.1.4,119.8629726
Conditions/Version_2Pr/twoback(1)_v2.xlsx,New rule: Press 'space' when you see 2-back (i.e. the same letter as the one that appeared 2 letters ago.),Q,space,,,,,0,2,2,2,0,7,7,7,,,,,,,,,,,,,,,,,,,,,,,,,,,,,,,,,,,,,,,,,,,1.315,258.5582116,None,259.8776251,None,space,1,1.1806118,259.8776251,None,261.0670719,None,,,,,,,,,,,,,,,,,,,,,,,,,,,,,,,P003,fencog,2,Post,2021_Jul_12_1318,N-Back (New Version 2021),2021.1.4,119.8629726
Conditions/Version_2Pr/twoback(1)_v2.xlsx,New rule: Press 'space' when you see 2-back (i.e. the same letter as the one that appeared 2 letters ago.),L,None,,,,,0,2,2,2,0,8,8,8,,,,,,,,,,,,,,,,,,,,,,,,,,,,,,,,,,,,,,,,,,,1.365,262.5735902,None,263.9429733,None,None,1,,263.9429733,None,265.9473524,None,,,,,,,,,,,,,,,,,,,,,,,,,,,,,,,P003,fencog,2,Post,2021_Jul_12_1318,N-Back (New Version 2021),2021.1.4,119.8629726
Conditions/Version_2Pr/twoback(1)_v2.xlsx,New rule: Press 'space' when you see 2-back (i.e. the same letter as the one that appeared 2 letters ago.),q,space,,,,,0,2,2,2,0,9,9,9,,,,,,,,,,,,,,,,,,,,,,,,,,,,,,,,,,,,,,,,,,,1.24,267.4472899,None,268.6919341,None,None,0,,268.6919341,None,270.6995411,None,,,,,,,,,,,,,,,,,,,,,,,,,,,,,,,P003,fencog,2,Post,2021_Jul_12_1318,N-Back (New Version 2021),2021.1.4,119.8629726
Conditions/Version_2Pr/twoback(1)_v2.xlsx,New rule: Press 'space' when you see 2-back (i.e. the same letter as the one that appeared 2 letters ago.),,,,,,,0,2,2,2,,,,,,,,,,,,,,,,,,,,,,,,,,,,,,,,,,,,,,,,,,,,,,,,,,,,,,,,,,,,,,,,,,,,,,,,,,,,,,,,,,,,,,,,,P003,fencog,2,Post,2021_Jul_12_1318,N-Back (New Version 2021),2021.1.4,119.8629726
Conditions/Version_2Pr/threeback(1)_v2.xlsx,New rule: Press 'space' when you see 3-back (i.e. the same letter as the one that appeared 3 letters ago.),u,None,,,,,0,3,3,3,0,0,0,0,,,,,,,,,,,,,,,,,,,,,,,,,,,,,,,,,272.2190433,None,275.2047436,None,space,0.2371208,275.2047436,None,272.2190433,None,1.24,275.4617312,None,276.7041172,None,None,1,,276.7041172,None,278.7122805,None,,,,,,,,,,,,,,,,,,,,,,,,,,,,,,,P003,fencog,2,Post,2021_Jul_12_1318,N-Back (New Version 2021),2021.1.4,119.8629726
Conditions/Version_2Pr/threeback(1)_v2.xlsx,New rule: Press 'space' when you see 3-back (i.e. the same letter as the one that appeared 3 letters ago.),U,None,,,,,0,3,3,3,0,1,1,1,,,,,,,,,,,,,,,,,,,,,,,,,,,,,,,,,,,,,,,,,,,1.49,280.2102045,None,281.7017648,None,None,1,,281.7017648,None,283.7091179,None,,,,,,,,,,,,,,,,,,,,,,,,,,,,,,,P003,fencog,2,Post,2021_Jul_12_1318,N-Back (New Version 2021),2021.1.4,119.8629726
Conditions/Version_2Pr/threeback(1)_v2.xlsx,New rule: Press 'space' when you see 3-back (i.e. the same letter as the one that appeared 3 letters ago.),p,None,,,,,0,3,3,3,0,2,2,2,,,,,,,,,,,,,,,,,,,,,,,,,,,,,,,,,,,,,,,,,,,1.04,285.2086228,None,286.2511579,None,None,1,,286.2511579,None,288.2545143,None,,,,,,,,,,,,,,,,,,,,,,,,,,,,,,,P003,fencog,2,Post,2021_Jul_12_1318,N-Back (New Version 2021),2021.1.4,119.8629726
Conditions/Version_2Pr/threeback(1)_v2.xlsx,New rule: Press 'space' when you see 3-back (i.e. the same letter as the one that appeared 3 letters ago.),U,space,,,,,0,3,3,3,0,3,3,3,,,,,,,,,,,,,,,,,,,,,,,,,,,,,,,,,,,,,,,,,,,1.29,289.7570784,None,291.0483556,None,space,1,0.8974094,291.0483556,None,291.9572066,None,,,,,,,,,,,,,,,,,,,,,,,,,,,,,,,P003,fencog,2,Post,2021_Jul_12_1318,N-Back (New Version 2021),2021.1.4,119.8629726
Conditions/Version_2Pr/threeback(1)_v2.xlsx,New rule: Press 'space' when you see 3-back (i.e. the same letter as the one that appeared 3 letters ago.),e,None,,,,,0,3,3,3,0,4,4,4,,,,,,,,,,,,,,,,,,,,,,,,,,,,,,,,,,,,,,,,,,,1.89,293.457425,None,295.3477783,None,None,1,,295.3477783,None,297.3550974,None,,,,,,,,,,,,,,,,,,,,,,,,,,,,,,,P003,fencog,2,Post,2021_Jul_12_1318,N-Back (New Version 2021),2021.1.4,119.8629726
Conditions/Version_2Pr/threeback(1)_v2.xlsx,New rule: Press 'space' when you see 3-back (i.e. the same letter as the one that appeared 3 letters ago.),R,None,,,,,0,3,3,3,0,5,5,5,,,,,,,,,,,,,,,,,,,,,,,,,,,,,,,,,,,,,,,,,,,1.14,298.854591,None,299.9980232,None,None,1,,299.9980232,None,302.003368,None,,,,,,,,,,,,,,,,,,,,,,,,,,,,,,,P003,fencog,2,Post,2021_Jul_12_1318,N-Back (New Version 2021),2021.1.4,119.8629726
Conditions/Version_2Pr/threeback(1)_v2.xlsx,New rule: Press 'space' when you see 3-back (i.e. the same letter as the one that appeared 3 letters ago.),p,None,,,,,0,3,3,3,0,6,6,6,,,,,,,,,,,,,,,,,,,,,,,,,,,,,,,,,,,,,,,,,,,1.64,303.503018,None,305.1458781,None,None,1,,305.1458781,None,307.1479449,None,,,,,,,,,,,,,,,,,,,,,,,,,,,,,,,P003,fencog,2,Post,2021_Jul_12_1318,N-Back (New Version 2021),2021.1.4,119.8629726
Conditions/Version_2Pr/threeback(1)_v2.xlsx,New rule: Press 'space' when you see 3-back (i.e. the same letter as the one that appeared 3 letters ago.),E,space,,,,,0,3,3,3,0,7,7,7,,,,,,,,,,,,,,,,,,,,,,,,,,,,,,,,,,,,,,,,,,,1.54,308.6518005,None,310.1944521,None,space,1,0.7035309,310.1944521,None,310.910254,None,,,,,,,,,,,,,,,,,,,,,,,,,,,,,,,P003,fencog,2,Post,2021_Jul_12_1318,N-Back (New Version 2021),2021.1.4,119.8629726
Conditions/Version_2Pr/threeback(1)_v2.xlsx,New rule: Press 'space' when you see 3-back (i.e. the same letter as the one that appeared 3 letters ago.),k,None,,,,,0,3,3,3,0,8,8,8,,,,,,,,,,,,,,,,,,,,,,,,,,,,,,,,,,,,,,,,,,,1.965,312.4182149,None,314.3839014,None,None,1,,314.3839014,None,316.3910269,None,,,,,,,,,,,,,,,,,,,,,,,,,,,,,,,P003,fencog,2,Post,2021_Jul_12_1318,N-Back (New Version 2021),2021.1.4,119.8629726
Conditions/Version_2Pr/threeback(1)_v2.xlsx,New rule: Press 'space' when you see 3-back (i.e. the same letter as the one that appeared 3 letters ago.),m,None,,,,,0,3,3,3,0,9,9,9,,,,,,,,,,,,,,,,,,,,,,,,,,,,,,,,,,,,,,,,,,,1.365,317.8904122,None,319.2630103,None,None,1,,319.2630103,None,321.2645381,None,,,,,,,,,,,,,,,,,,,,,,,,,,,,,,,P003,fencog,2,Post,2021_Jul_12_1318,N-Back (New Version 2021),2021.1.4,119.8629726
Conditions/Version_2Pr/threeback(1)_v2.xlsx,New rule: Press 'space' when you see 3-back (i.e. the same letter as the one that appeared 3 letters ago.),,,,,,,0,3,3,3,,,,,,,,,,,,,,,,,,,,,,,,,,,,,,,,,,,,,,,,,,,,,,,,,,,,,,,,,,,,,,,,,,,,,,,,,,,,,,,,,,,,,,,,,P003,fencog,2,Post,2021_Jul_12_1318,N-Back (New Version 2021),2021.1.4,119.8629726
,,,,,,,,,,,,,,,,,,,,,,,,,,,,,,,,,,,,,,,,,,,,,,,,,,,,,,,,,,,,,,,,,,,,,,322.7717052,None,space,1.0656617,323.264299,None,,,,,,,,,,,,,,,,,,,,,,,,,P003,fencog,2,Post,2021_Jul_12_1318,N-Back (New Version 2021),2021.1.4,119.8629726
,,,,,,,,,,,,,,,,,,,,,,,,,,,,,,,,,,,,,,,,,,,,,,,,,,,,,,,,,,,,,,,,,,,,,,,,,,,,324.351905,None,space,3.3307403,324.8472208,None,,,,,,,,,,,,,,,,,,,P003,fencog,2,Post,2021_Jul_12_1318,N-Back (New Version 2021),2021.1.4,119.8629726
,,,,Conditions/Version_1/zeroback(1)_v1.xlsx,Rule: Press 'space' when you see the letter 'x' or 'X'.,b,None,,,,,,,,,0,0,0,0,0,0,0,0,,,,,,,,,,,,,,,,,,,,,,,,,,,,,,,,,,,,,,,,,,,,,,,,,,,,,,,,,,,328.2792839,None,331.2638417,None,space,0.8020924,331.2638417,None,328.2792839,None,1.1216,333.2163366,None,None,1,333.2163366,None,,P003,fencog,2,Post,2021_Jul_12_1318,N-Back (New Version 2021),2021.1.4,119.8629726
,,,,Conditions/Version_1/zeroback(1)_v1.xlsx,Rule: Press 'space' when you see the letter 'x' or 'X'.,T,None,,,,,,,,,0,0,0,0,0,1,1,1,,,,,,,,,,,,,,,,,,,,,,,,,,,,,,,,,,,,,,,,,,,,,,,,,,,,,,,,,,,,,,,,,,,,,1.3696,336.6024118,None,None,1,336.6024118,None,,P003,fencog,2,Post,2021_Jul_12_1318,N-Back (New Version 2021),2021.1.4,119.8629726
,,,,Conditions/Version_1/zeroback(1)_v1.xlsx,Rule: Press 'space' when you see the letter 'x' or 'X'.,L,None,,,,,,,,,0,0,0,0,0,2,2,2,,,,,,,,,,,,,,,,,,,,,,,,,,,,,,,,,,,,,,,,,,,,,,,,,,,,,,,,,,,,,,,,,,,,,1.1154,339.7265768,None,None,1,339.7265768,None,,P003,fencog,2,Post,2021_Jul_12_1318,N-Back (New Version 2021),2021.1.4,119.8629726
,,,,Conditions/Version_1/zeroback(1)_v1.xlsx,Rule: Press 'space' when you see the letter 'x' or 'X'.,x,space,,,,,,,,,0,0,0,0,0,3,3,3,,,,,,,,,,,,,,,,,,,,,,,,,,,,,,,,,,,,,,,,,,,,,,,,,,,,,,,,,,,,,,,,,,,,,1.661,343.4014278,None,space,1,343.4014278,None,1.0323502,P003,fencog,2,Post,2021_Jul_12_1318,N-Back (New Version 2021),2021.1.4,119.8629726
,,,,Conditions/Version_1/zeroback(1)_v1.xlsx,Rule: Press 'space' when you see the letter 'x' or 'X'.,o,None,,,,,,,,,0,0,0,0,0,4,4,4,,,,,,,,,,,,,,,,,,,,,,,,,,,,,,,,,,,,,,,,,,,,,,,,,,,,,,,,,,,,,,,,,,,,,1.4564,346.8663185,None,None,1,346.8663185,None,,P003,fencog,2,Post,2021_Jul_12_1318,N-Back (New Version 2021),2021.1.4,119.8629726
,,,,Conditions/Version_1/zeroback(1)_v1.xlsx,Rule: Press 'space' when you see the letter 'x' or 'X'.,P,None,,,,,,,,,0,0,0,0,0,5,5,5,,,,,,,,,,,,,,,,,,,,,,,,,,,,,,,,,,,,,,,,,,,,,,,,,,,,,,,,,,,,,,,,,,,,,1.475,350.350797,None,None,1,350.350797,None,,P003,fencog,2,Post,2021_Jul_12_1318,N-Back (New Version 2021),2021.1.4,119.8629726
,,,,Conditions/Version_1/zeroback(1)_v1.xlsx,Rule: Press 'space' when you see the letter 'x' or 'X'.,X,space,,,,,,,,,0,0,0,0,0,6,6,6,,,,,,,,,,,,,,,,,,,,,,,,,,,,,,,,,,,,,,,,,,,,,,,,,,,,,,,,,,,,,,,,,,,,,1.3634,353.7217473,None,space,1,353.7217473,None,0.480878,P003,fencog,2,Post,2021_Jul_12_1318,N-Back (New Version 2021),2021.1.4,119.8629726
,,,,Conditions/Version_1/zeroback(1)_v1.xlsx,Rule: Press 'space' when you see the letter 'x' or 'X'.,n,None,,,,,,,,,0,0,0,0,0,7,7,7,,,,,,,,,,,,,,,,,,,,,,,,,,,,,,,,,,,,,,,,,,,,,,,,,,,,,,,,,,,,,,,,,,,,,1.5494,357.2754955,None,None,1,357.2754955,None,,P003,fencog,2,Post,2021_Jul_12_1318,N-Back (New Version 2021),2021.1.4,119.8629726
,,,,Conditions/Version_1/zeroback(1)_v1.xlsx,Rule: Press 'space' when you see the letter 'x' or 'X'.,M,None,,,,,,,,,0,0,0,0,0,8,8,8,,,,,,,,,,,,,,,,,,,,,,,,,,,,,,,,,,,,,,,,,,,,,,,,,,,,,,,,,,,,,,,,,,,,,1.4936,360.7809215,None,None,1,360.7809215,None,,P003,fencog,2,Post,2021_Jul_12_1318,N-Back (New Version 2021),2021.1.4,119.8629726
,,,,Conditions/Version_1/zeroback(1)_v1.xlsx,Rule: Press 'space' when you see the letter 'x' or 'X'.,a,None,,,,,,,,,0,0,0,0,0,9,9,9,,,,,,,,,,,,,,,,,,,,,,,,,,,,,,,,,,,,,,,,,,,,,,,,,,,,,,,,,,,,,,,,,,,,,1.7726,364.5652259,None,None,1,364.5652259,None,,P003,fencog,2,Post,2021_Jul_12_1318,N-Back (New Version 2021),2021.1.4,119.8629726
,,,,Conditions/Version_1/zeroback(1)_v1.xlsx,Rule: Press 'space' when you see the letter 'x' or 'X'.,,,,,,,,,,,0,0,0,0,,,,,,,,,,,,,,,,,,,,,,,,,,,,,,,,,,,,,,,,,,,,,,,,,,,,,,,,,,,,,,,,,,,,,,,,,,,,,,,,,P003,fencog,2,Post,2021_Jul_12_1318,N-Back (New Version 2021),2021.1.4,119.8629726
,,,,Conditions/Version_1/oneback(1)_v1.xlsx,New rule: Press 'space' when you see 1-back (i.e. the same letter as the one that appeared 1 letter ago.),b,None,,,,,,,,,0,1,1,1,0,0,0,0,,,,,,,,,,,,,,,,,,,,,,,,,,,,,,,,,,,,,,,,,,,,,,,,,,,,,,,,,,,366.5897696,None,369.577038,None,space,0.3125219,369.577038,None,366.5897696,None,1.6362,371.550515,None,None,1,371.550515,None,,P003,fencog,2,Post,2021_Jul_12_1318,N-Back (New Version 2021),2021.1.4,119.8629726
,,,,Conditions/Version_1/oneback(1)_v1.xlsx,New rule: Press 'space' when you see 1-back (i.e. the same letter as the one that appeared 1 letter ago.),p,None,,,,,,,,,0,1,1,1,0,1,1,1,,,,,,,,,,,,,,,,,,,,,,,,,,,,,,,,,,,,,,,,,,,,,,,,,,,,,,,,,,,,,,,,,,,,,1.6424,375.2068206,None,None,1,375.2068206,None,,P003,fencog,2,Post,2021_Jul_12_1318,N-Back (New Version 2021),2021.1.4,119.8629726
,,,,Conditions/Version_1/oneback(1)_v1.xlsx,New rule: Press 'space' when you see 1-back (i.e. the same letter as the one that appeared 1 letter ago.),M,None,,,,,,,,,0,1,1,1,0,2,2,2,,,,,,,,,,,,,,,,,,,,,,,,,,,,,,,,,,,,,,,,,,,,,,,,,,,,,,,,,,,,,,,,,,,,,1.7478,378.9583418,None,None,1,378.9583418,None,,P003,fencog,2,Post,2021_Jul_12_1318,N-Back (New Version 2021),2021.1.4,119.8629726
,,,,Conditions/Version_1/oneback(1)_v1.xlsx,New rule: Press 'space' when you see 1-back (i.e. the same letter as the one that appeared 1 letter ago.),M,space,,,,,,,,,0,1,1,1,0,3,3,3,,,,,,,,,,,,,,,,,,,,,,,,,,,,,,,,,,,,,,,,,,,,,,,,,,,,,,,,,,,,,,,,,,,,,1.444,382.4131816,None,space,1,382.4131816,None,1.0607514,P003,fencog,2,Post,2021_Jul_12_1318,N-Back (New Version 2021),2021.1.4,119.8629726
,,,,Conditions/Version_1/oneback(1)_v1.xlsx,New rule: Press 'space' when you see 1-back (i.e. the same letter as the one that appeared 1 letter ago.),n,None,,,,,,,,,0,1,1,1,0,4,4,4,,,,,,,,,,,,,,,,,,,,,,,,,,,,,,,,,,,,,,,,,,,,,,,,,,,,,,,,,,,,,,,,,,,,,1.3758,385.7967078,None,None,1,385.7967078,None,,P003,fencog,2,Post,2021_Jul_12_1318,N-Back (New Version 2021),2021.1.4,119.8629726
,,,,Conditions/Version_1/oneback(1)_v1.xlsx,New rule: Press 'space' when you see 1-back (i.e. the same letter as the one that appeared 1 letter ago.),g,None,,,,,,,,,0,1,1,1,0,5,5,5,,,,,,,,,,,,,,,,,,,,,,,,,,,,,,,,,,,,,,,,,,,,,,,,,,,,,,,,,,,,,,,,,,,,,1.351,389.1641779,None,None,1,389.1641779,None,,P003,fencog,2,Post,2021_Jul_12_1318,N-Back (New Version 2021),2021.1.4,119.8629726
,,,,Conditions/Version_1/oneback(1)_v1.xlsx,New rule: Press 'space' when you see 1-back (i.e. the same letter as the one that appeared 1 letter ago.),P,None,,,,,,,,,0,1,1,1,0,6,6,6,,,,,,,,,,,,,,,,,,,,,,,,,,,,,,,,,,,,,,,,,,,,,,,,,,,,,,,,,,,,,,,,,,,,,1.8036,392.9773975,None,None,1,392.9773975,None,,P003,fencog,2,Post,2021_Jul_12_1318,N-Back (New Version 2021),2021.1.4,119.8629726
,,,,Conditions/Version_1/oneback(1)_v1.xlsx,New rule: Press 'space' when you see 1-back (i.e. the same letter as the one that appeared 1 letter ago.),o,None,,,,,,,,,0,1,1,1,0,7,7,7,,,,,,,,,,,,,,,,,,,,,,,,,,,,,,,,,,,,,,,,,,,,,,,,,,,,,,,,,,,,,,,,,,,,,1.5432,396.5351072,None,None,1,396.5351072,None,,P003,fencog,2,Post,2021_Jul_12_1318,N-Back (New Version 2021),2021.1.4,119.8629726
,,,,Conditions/Version_1/oneback(1)_v1.xlsx,New rule: Press 'space' when you see 1-back (i.e. the same letter as the one that appeared 1 letter ago.),f,None,,,,,,,,,0,1,1,1,0,8,8,8,,,,,,,,,,,,,,,,,,,,,,,,,,,,,,,,,,,,,,,,,,,,,,,,,,,,,,,,,,,,,,,,,,,,,1.568,400.1164481,None,None,1,400.1164481,None,,P003,fencog,2,Post,2021_Jul_12_1318,N-Back (New Version 2021),2021.1.4,119.8629726
,,,,Conditions/Version_1/oneback(1)_v1.xlsx,New rule: Press 'space' when you see 1-back (i.e. the same letter as the one that appeared 1 letter ago.),F,space,,,,,,,,,0,1,1,1,0,9,9,9,,,,,,,,,,,,,,,,,,,,,,,,,,,,,,,,,,,,,,,,,,,,,,,,,,,,,,,,,,,,,,,,,,,,,1.1154,403.2338381,None,None,0,403.2338381,None,,P003,fencog,2,Post,2021_Jul_12_1318,N-Back (New Version 2021),2021.1.4,119.8629726
,,,,Conditions/Version_1/oneback(1)_v1.xlsx,New rule: Press 'space' when you see 1-back (i.e. the same letter as the one that appeared 1 letter ago.),,,,,,,,,,,0,1,1,1,,,,,,,,,,,,,,,,,,,,,,,,,,,,,,,,,,,,,,,,,,,,,,,,,,,,,,,,,,,,,,,,,,,,,,,,,,,,,,,,,P003,fencog,2,Post,2021_Jul_12_1318,N-Back (New Version 2021),2021.1.4,119.8629726
,,,,Conditions/Version_1/twoback(1)_v1.xlsx,New rule: Press 'space' when you see 2-back (i.e. the same letter as the one that appeared 2 letters ago.),b,None,,,,,,,,,0,2,2,2,0,0,0,0,,,,,,,,,,,,,,,,,,,,,,,,,,,,,,,,,,,,,,,,,,,,,,,,,,,,,,,,,,,405.2741145,None,408.2585328,None,space,1.1917046,408.2585328,None,405.2741145,None,1.444,410.9306894,None,None,1,410.9306894,None,,P003,fencog,2,Post,2021_Jul_12_1318,N-Back (New Version 2021),2021.1.4,119.8629726
,,,,Conditions/Version_1/twoback(1)_v1.xlsx,New rule: Press 'space' when you see 2-back (i.e. the same letter as the one that appeared 2 letters ago.),h,None,,,,,,,,,0,2,2,2,0,1,1,1,,,,,,,,,,,,,,,,,,,,,,,,,,,,,,,,,,,,,,,,,,,,,,,,,,,,,,,,,,,,,,,,,,,,,1.0844,414.0304248,None,None,1,414.0304248,None,,P003,fencog,2,Post,2021_Jul_12_1318,N-Back (New Version 2021),2021.1.4,119.8629726
,,,,Conditions/Version_1/twoback(1)_v1.xlsx,New rule: Press 'space' when you see 2-back (i.e. the same letter as the one that appeared 2 letters ago.),j,None,,,,,,,,,0,2,2,2,0,2,2,2,,,,,,,,,,,,,,,,,,,,,,,,,,,,,,,,,,,,,,,,,,,,,,,,,,,,,,,,,,,,,,,,,,,,,1.4068,417.4561563,None,None,1,417.4561563,None,,P003,fencog,2,Post,2021_Jul_12_1318,N-Back (New Version 2021),2021.1.4,119.8629726
,,,,Conditions/Version_1/twoback(1)_v1.xlsx,New rule: Press 'space' when you see 2-back (i.e. the same letter as the one that appeared 2 letters ago.),H,space,,,,,,,,,0,2,2,2,0,3,3,3,,,,,,,,,,,,,,,,,,,,,,,,,,,,,,,,,,,,,,,,,,,,,,,,,,,,,,,,,,,,,,,,,,,,,1.5184,420.9826316,None,space,1,420.9826316,None,0.5634826,P003,fencog,2,Post,2021_Jul_12_1318,N-Back (New Version 2021),2021.1.4,119.8629726
,,,,Conditions/Version_1/twoback(1)_v1.xlsx,New rule: Press 'space' when you see 2-back (i.e. the same letter as the one that appeared 2 letters ago.),p,None,,,,,,,,,0,2,2,2,0,4,4,4,,,,,,,,,,,,,,,,,,,,,,,,,,,,,,,,,,,,,,,,,,,,,,,,,,,,,,,,,,,,,,,,,,,,,1.4564,424.4484112,None,None,1,424.4484112,None,,P003,fencog,2,Post,2021_Jul_12_1318,N-Back (New Version 2021),2021.1.4,119.8629726
,,,,Conditions/Version_1/twoback(1)_v1.xlsx,New rule: Press 'space' when you see 2-back (i.e. the same letter as the one that appeared 2 letters ago.),p,None,,,,,,,,,0,2,2,2,0,5,5,5,,,,,,,,,,,,,,,,,,,,,,,,,,,,,,,,,,,,,,,,,,,,,,,,,,,,,,,,,,,,,,,,,,,,,1.5866,428.0412142,None,space,0,428.0412142,None,1.0246816,P003,fencog,2,Post,2021_Jul_12_1318,N-Back (New Version 2021),2021.1.4,119.8629726
,,,,Conditions/Version_1/twoback(1)_v1.xlsx,New rule: Press 'space' when you see 2-back (i.e. the same letter as the one that appeared 2 letters ago.),w,None,,,,,,,,,0,2,2,2,0,6,6,6,,,,,,,,,,,,,,,,,,,,,,,,,,,,,,,,,,,,,,,,,,,,,,,,,,,,,,,,,,,,,,,,,,,,,1.8904,431.9415628,None,None,1,431.9415628,None,,P003,fencog,2,Post,2021_Jul_12_1318,N-Back (New Version 2021),2021.1.4,119.8629726
,,,,Conditions/Version_1/twoback(1)_v1.xlsx,New rule: Press 'space' when you see 2-back (i.e. the same letter as the one that appeared 2 letters ago.),R,None,,,,,,,,,0,2,2,2,0,7,7,7,,,,,,,,,,,,,,,,,,,,,,,,,,,,,,,,,,,,,,,,,,,,,,,,,,,,,,,,,,,,,,,,,,,,,1.6052,435.5631809,None,None,1,435.5631809,None,,P003,fencog,2,Post,2021_Jul_12_1318,N-Back (New Version 2021),2021.1.4,119.8629726
,,,,Conditions/Version_1/twoback(1)_v1.xlsx,New rule: Press 'space' when you see 2-back (i.e. the same letter as the one that appeared 2 letters ago.),a,None,,,,,,,,,0,2,2,2,0,8,8,8,,,,,,,,,,,,,,,,,,,,,,,,,,,,,,,,,,,,,,,,,,,,,,,,,,,,,,,,,,,,,,,,,,,,,1.754,439.3250574,None,None,1,439.3250574,None,,P003,fencog,2,Post,2021_Jul_12_1318,N-Back (New Version 2021),2021.1.4,119.8629726
,,,,Conditions/Version_1/twoback(1)_v1.xlsx,New rule: Press 'space' when you see 2-back (i.e. the same letter as the one that appeared 2 letters ago.),r,space,,,,,,,,,0,2,2,2,0,9,9,9,,,,,,,,,,,,,,,,,,,,,,,,,,,,,,,,,,,,,,,,,,,,,,,,,,,,,,,,,,,,,,,,,,,,,1.5618,442.8977404,None,space,1,442.8977404,None,0.5842423,P003,fencog,2,Post,2021_Jul_12_1318,N-Back (New Version 2021),2021.1.4,119.8629726
,,,,Conditions/Version_1/twoback(1)_v1.xlsx,New rule: Press 'space' when you see 2-back (i.e. the same letter as the one that appeared 2 letters ago.),,,,,,,,,,,0,2,2,2,,,,,,,,,,,,,,,,,,,,,,,,,,,,,,,,,,,,,,,,,,,,,,,,,,,,,,,,,,,,,,,,,,,,,,,,,,,,,,,,,P003,fencog,2,Post,2021_Jul_12_1318,N-Back (New Version 2021),2021.1.4,119.8629726
,,,,Conditions/Version_1/threeback(1)_v1.xlsx,New rule: Press 'space' when you see 3-back (i.e. the same letter as the one that appeared 3 letters ago.),r,None,,,,,,,,,0,3,3,3,0,0,0,0,,,,,,,,,,,,,,,,,,,,,,,,,,,,,,,,,,,,,,,,,,,,,,,,,,,,,,,,,,,444.9240921,None,447.9124048,None,space,0.2971582,447.9124048,None,444.9240921,None,1.5122,449.7449413,None,None,1,449.7449413,None,,P003,fencog,2,Post,2021_Jul_12_1318,N-Back (New Version 2021),2021.1.4,119.8629726
,,,,Conditions/Version_1/threeback(1)_v1.xlsx,New rule: Press 'space' when you see 3-back (i.e. the same letter as the one that appeared 3 letters ago.),o,None,,,,,,,,,0,3,3,3,0,1,1,1,,,,,,,,,,,,,,,,,,,,,,,,,,,,,,,,,,,,,,,,,,,,,,,,,,,,,,,,,,,,,,,,,,,,,1.351,453.1087622,None,None,1,453.1087622,None,,P003,fencog,2,Post,2021_Jul_12_1318,N-Back (New Version 2021),2021.1.4,119.8629726
,,,,Conditions/Version_1/threeback(1)_v1.xlsx,New rule: Press 'space' when you see 3-back (i.e. the same letter as the one that appeared 3 letters ago.),P,None,,,,,,,,,0,3,3,3,0,2,2,2,,,,,,,,,,,,,,,,,,,,,,,,,,,,,,,,,,,,,,,,,,,,,,,,,,,,,,,,,,,,,,,,,,,,,1.6424,456.7576062,None,None,1,456.7576062,None,,P003,fencog,2,Post,2021_Jul_12_1318,N-Back (New Version 2021),2021.1.4,119.8629726
,,,,Conditions/Version_1/threeback(1)_v1.xlsx,New rule: Press 'space' when you see 3-back (i.e. the same letter as the one that appeared 3 letters ago.),R,space,,,,,,,,,0,3,3,3,0,3,3,3,,,,,,,,,,,,,,,,,,,,,,,,,,,,,,,,,,,,,,,,,,,,,,,,,,,,,,,,,,,,,,,,,,,,,1.1092,459.8772168,None,space,1,459.8772168,None,0.4924171,P003,fencog,2,Post,2021_Jul_12_1318,N-Back (New Version 2021),2021.1.4,119.8629726
,,,,Conditions/Version_1/threeback(1)_v1.xlsx,New rule: Press 'space' when you see 3-back (i.e. the same letter as the one that appeared 3 letters ago.),p,None,,,,,,,,,0,3,3,3,0,4,4,4,,,,,,,,,,,,,,,,,,,,,,,,,,,,,,,,,,,,,,,,,,,,,,,,,,,,,,,,,,,,,,,,,,,,,1.2084,463.0904268,None,None,1,463.0904268,None,,P003,fencog,2,Post,2021_Jul_12_1318,N-Back (New Version 2021),2021.1.4,119.8629726
,,,,Conditions/Version_1/threeback(1)_v1.xlsx,New rule: Press 'space' when you see 3-back (i.e. the same letter as the one that appeared 3 letters ago.),E,None,,,,,,,,,0,3,3,3,0,5,5,5,,,,,,,,,,,,,,,,,,,,,,,,,,,,,,,,,,,,,,,,,,,,,,,,,,,,,,,,,,,,,,,,,,,,,1.6052,466.706576,None,None,1,466.706576,None,,P003,fencog,2,Post,2021_Jul_12_1318,N-Back (New Version 2021),2021.1.4,119.8629726
,,,,Conditions/Version_1/threeback(1)_v1.xlsx,New rule: Press 'space' when you see 3-back (i.e. the same letter as the one that appeared 3 letters ago.),e,None,,,,,,,,,0,3,3,3,0,6,6,6,,,,,,,,,,,,,,,,,,,,,,,,,,,,,,,,,,,,,,,,,,,,,,,,,,,,,,,,,,,,,,,,,,,,,1.258,469.9715759,None,None,1,469.9715759,None,,P003,fencog,2,Post,2021_Jul_12_1318,N-Back (New Version 2021),2021.1.4,119.8629726
,,,,Conditions/Version_1/threeback(1)_v1.xlsx,New rule: Press 'space' when you see 3-back (i.e. the same letter as the one that appeared 3 letters ago.),m,None,,,,,,,,,0,3,3,3,0,7,7,7,,,,,,,,,,,,,,,,,,,,,,,,,,,,,,,,,,,,,,,,,,,,,,,,,,,,,,,,,,,,,,,,,,,,,1.0596,473.0369246,None,None,1,473.0369246,None,,P003,fencog,2,Post,2021_Jul_12_1318,N-Back (New Version 2021),2021.1.4,119.8629726
,,,,Conditions/Version_1/threeback(1)_v1.xlsx,New rule: Press 'space' when you see 3-back (i.e. the same letter as the one that appeared 3 letters ago.),n,None,,,,,,,,,0,3,3,3,0,8,8,8,,,,,,,,,,,,,,,,,,,,,,,,,,,,,,,,,,,,,,,,,,,,,,,,,,,,,,,,,,,,,,,,,,,,,1.754,476.8055139,None,None,1,476.8055139,None,,P003,fencog,2,Post,2021_Jul_12_1318,N-Back (New Version 2021),2021.1.4,119.8629726
,,,,Conditions/Version_1/threeback(1)_v1.xlsx,New rule: Press 'space' when you see 3-back (i.e. the same letter as the one that appeared 3 letters ago.),e,space,,,,,,,,,0,3,3,3,0,9,9,9,,,,,,,,,,,,,,,,,,,,,,,,,,,,,,,,,,,,,,,,,,,,,,,,,,,,,,,,,,,,,,,,,,,,,1.506,480.3177368,None,space,1,480.3177368,None,0.7807233,P003,fencog,2,Post,2021_Jul_12_1318,N-Back (New Version 2021),2021.1.4,119.8629726
,,,,Conditions/Version_1/threeback(1)_v1.xlsx,New rule: Press 'space' when you see 3-back (i.e. the same letter as the one that appeared 3 letters ago.),,,,,,,,,,,0,3,3,3,,,,,,,,,,,,,,,,,,,,,,,,,,,,,,,,,,,,,,,,,,,,,,,,,,,,,,,,,,,,,,,,,,,,,,,,,,,,,,,,,P003,fencog,2,Post,2021_Jul_12_1318,N-Back (New Version 2021),2021.1.4,119.8629726
,,,,Conditions/Version_1/oneback(2)_v1.xlsx,New rule: Press 'space' when you see 1-back (i.e. the same letter as the one that appeared 1 letter ago.),q,None,,,,,,,,,0,4,4,4,0,0,0,0,,,,,,,,,,,,,,,,,,,,,,,,,,,,,,,,,,,,,,,,,,,,,,,,,,,,,,,,,,,482.3423219,None,485.326644,None,space,1.3070355,485.326644,None,482.3423219,None,1.3386,487.9994695,None,None,1,487.9994695,None,,P003,fencog,2,Post,2021_Jul_12_1318,N-Back (New Version 2021),2021.1.4,119.8629726
,,,,Conditions/Version_1/oneback(2)_v1.xlsx,New rule: Press 'space' when you see 1-back (i.e. the same letter as the one that appeared 1 letter ago.),Q,space,,,,,,,,,0,4,4,4,0,1,1,1,,,,,,,,,,,,,,,,,,,,,,,,,,,,,,,,,,,,,,,,,,,,,,,,,,,,,,,,,,,,,,,,,,,,,1.0844,491.0975542,None,space,1,491.0975542,None,0.5683476,P003,fencog,2,Post,2021_Jul_12_1318,N-Back (New Version 2021),2021.1.4,119.8629726
,,,,Conditions/Version_1/oneback(2)_v1.xlsx,New rule: Press 'space' when you see 1-back (i.e. the same letter as the one that appeared 1 letter ago.),P,None,,,,,,,,,0,4,4,4,0,2,2,2,,,,,,,,,,,,,,,,,,,,,,,,,,,,,,,,,,,,,,,,,,,,,,,,,,,,,,,,,,,,,,,,,,,,,1.382,494.4820757,None,None,1,494.4820757,None,,P003,fencog,2,Post,2021_Jul_12_1318,N-Back (New Version 2021),2021.1.4,119.8629726
,,,,Conditions/Version_1/oneback(2)_v1.xlsx,New rule: Press 'space' when you see 1-back (i.e. the same letter as the one that appeared 1 letter ago.),o,None,,,,,,,,,0,4,4,4,0,3,3,3,,,,,,,,,,,,,,,,,,,,,,,,,,,,,,,,,,,,,,,,,,,,,,,,,,,,,,,,,,,,,,,,,,,,,1.2952,497.7974742,None,None,1,497.7974742,None,,P003,fencog,2,Post,2021_Jul_12_1318,N-Back (New Version 2021),2021.1.4,119.8629726
,,,,Conditions/Version_1/oneback(2)_v1.xlsx,New rule: Press 'space' when you see 1-back (i.e. the same letter as the one that appeared 1 letter ago.),m,None,,,,,,,,,0,4,4,4,0,4,4,4,,,,,,,,,,,,,,,,,,,,,,,,,,,,,,,,,,,,,,,,,,,,,,,,,,,,,,,,,,,,,,,,,,,,,1.5122,501.3221394,None,None,1,501.3221394,None,,P003,fencog,2,Post,2021_Jul_12_1318,N-Back (New Version 2021),2021.1.4,119.8629726
,,,,Conditions/Version_1/oneback(2)_v1.xlsx,New rule: Press 'space' when you see 1-back (i.e. the same letter as the one that appeared 1 letter ago.),Z,None,,,,,,,,,0,4,4,4,0,5,5,5,,,,,,,,,,,,,,,,,,,,,,,,,,,,,,,,,,,,,,,,,,,,,,,,,,,,,,,,,,,,,,,,,,,,,1.8966,505.2358329,None,None,1,505.2358329,None,,P003,fencog,2,Post,2021_Jul_12_1318,N-Back (New Version 2021),2021.1.4,119.8629726
,,,,Conditions/Version_1/oneback(2)_v1.xlsx,New rule: Press 'space' when you see 1-back (i.e. the same letter as the one that appeared 1 letter ago.),c,None,,,,,,,,,0,4,4,4,0,6,6,6,,,,,,,,,,,,,,,,,,,,,,,,,,,,,,,,,,,,,,,,,,,,,,,,,,,,,,,,,,,,,,,,,,,,,1.4254,508.6606487,None,None,1,508.6606487,None,,P003,fencog,2,Post,2021_Jul_12_1318,N-Back (New Version 2021),2021.1.4,119.8629726
,,,,Conditions/Version_1/oneback(2)_v1.xlsx,New rule: Press 'space' when you see 1-back (i.e. the same letter as the one that appeared 1 letter ago.),c,space,,,,,,,,,0,4,4,4,0,7,7,7,,,,,,,,,,,,,,,,,,,,,,,,,,,,,,,,,,,,,,,,,,,,,,,,,,,,,,,,,,,,,,,,,,,,,1.2084,511.8750513,None,space,1,511.8750513,None,0.41511,P003,fencog,2,Post,2021_Jul_12_1318,N-Back (New Version 2021),2021.1.4,119.8629726
,,,,Conditions/Version_1/oneback(2)_v1.xlsx,New rule: Press 'space' when you see 1-back (i.e. the same letter as the one that appeared 1 letter ago.),P,None,,,,,,,,,0,4,4,4,0,8,8,8,,,,,,,,,,,,,,,,,,,,,,,,,,,,,,,,,,,,,,,,,,,,,,,,,,,,,,,,,,,,,,,,,,,,,1.5804,515.4595544,None,None,1,515.4595544,None,,P003,fencog,2,Post,2021_Jul_12_1318,N-Back (New Version 2021),2021.1.4,119.8629726
,,,,Conditions/Version_1/oneback(2)_v1.xlsx,New rule: Press 'space' when you see 1-back (i.e. the same letter as the one that appeared 1 letter ago.),p,space,,,,,,,,,0,4,4,4,0,9,9,9,,,,,,,,,,,,,,,,,,,,,,,,,,,,,,,,,,,,,,,,,,,,,,,,,,,,,,,,,,,,,,,,,,,,,1.9524,519.4239731,None,space,1,519.4239731,None,0.6981857,P003,fencog,2,Post,2021_Jul_12_1318,N-Back (New Version 2021),2021.1.4,119.8629726
,,,,Conditions/Version_1/oneback(2)_v1.xlsx,New rule: Press 'space' when you see 1-back (i.e. the same letter as the one that appeared 1 letter ago.),,,,,,,,,,,0,4,4,4,,,,,,,,,,,,,,,,,,,,,,,,,,,,,,,,,,,,,,,,,,,,,,,,,,,,,,,,,,,,,,,,,,,,,,,,,,,,,,,,,P003,fencog,2,Post,2021_Jul_12_1318,N-Back (New Version 2021),2021.1.4,119.8629726
,,,,Conditions/Version_1/zeroback(2)_v1.xlsx,New rule: Press 'space' when you see the letter 'x' or 'X'.,p,None,,,,,,,,,0,5,5,5,0,0,0,0,,,,,,,,,,,,,,,,,,,,,,,,,,,,,,,,,,,,,,,,,,,,,,,,,,,,,,,,,,,521.4477136,None,524.4311498,None,space,0.7143965,524.4311498,None,521.4477136,None,1.5866,526.7541334,None,None,1,526.7541334,None,,P003,fencog,2,Post,2021_Jul_12_1318,N-Back (New Version 2021),2021.1.4,119.8629726
,,,,Conditions/Version_1/zeroback(2)_v1.xlsx,New rule: Press 'space' when you see the letter 'x' or 'X'.,L,None,,,,,,,,,0,5,5,5,0,1,1,1,,,,,,,,,,,,,,,,,,,,,,,,,,,,,,,,,,,,,,,,,,,,,,,,,,,,,,,,,,,,,,,,,,,,,1.7912,530.5452558,None,None,1,530.5452558,None,,P003,fencog,2,Post,2021_Jul_12_1318,N-Back (New Version 2021),2021.1.4,119.8629726
,,,,Conditions/Version_1/zeroback(2)_v1.xlsx,New rule: Press 'space' when you see the letter 'x' or 'X'.,G,None,,,,,,,,,0,5,5,5,0,2,2,2,,,,,,,,,,,,,,,,,,,,,,,,,,,,,,,,,,,,,,,,,,,,,,,,,,,,,,,,,,,,,,,,,,,,,1.2332,533.7889927,None,None,1,533.7889927,None,,P003,fencog,2,Post,2021_Jul_12_1318,N-Back (New Version 2021),2021.1.4,119.8629726
,,,,Conditions/Version_1/zeroback(2)_v1.xlsx,New rule: Press 'space' when you see the letter 'x' or 'X'.,y,None,,,,,,,,,0,5,5,5,0,3,3,3,,,,,,,,,,,,,,,,,,,,,,,,,,,,,,,,,,,,,,,,,,,,,,,,,,,,,,,,,,,,,,,,,,,,,1.7974,537.5921194,None,None,1,537.5921194,None,,P003,fencog,2,Post,2021_Jul_12_1318,N-Back (New Version 2021),2021.1.4,119.8629726
,,,,Conditions/Version_1/zeroback(2)_v1.xlsx,New rule: Press 'space' when you see the letter 'x' or 'X'.,Y,None,,,,,,,,,0,5,5,5,0,4,4,4,,,,,,,,,,,,,,,,,,,,,,,,,,,,,,,,,,,,,,,,,,,,,,,,,,,,,,,,,,,,,,,,,,,,,1.1154,540.7088676,None,None,1,540.7088676,None,,P003,fencog,2,Post,2021_Jul_12_1318,N-Back (New Version 2021),2021.1.4,119.8629726
,,,,Conditions/Version_1/zeroback(2)_v1.xlsx,New rule: Press 'space' when you see the letter 'x' or 'X'.,W,None,,,,,,,,,0,5,5,5,0,5,5,5,,,,,,,,,,,,,,,,,,,,,,,,,,,,,,,,,,,,,,,,,,,,,,,,,,,,,,,,,,,,,,,,,,,,,1.2642,543.9886899,None,None,1,543.9886899,None,,P003,fencog,2,Post,2021_Jul_12_1318,N-Back (New Version 2021),2021.1.4,119.8629726
,,,,Conditions/Version_1/zeroback(2)_v1.xlsx,New rule: Press 'space' when you see the letter 'x' or 'X'.,x,space,,,,,,,,,0,5,5,5,0,6,6,6,,,,,,,,,,,,,,,,,,,,,,,,,,,,,,,,,,,,,,,,,,,,,,,,,,,,,,,,,,,,,,,,,,,,,1.3138,547.307094,None,space,1,547.307094,None,0.5027708,P003,fencog,2,Post,2021_Jul_12_1318,N-Back (New Version 2021),2021.1.4,119.8629726
,,,,Conditions/Version_1/zeroback(2)_v1.xlsx,New rule: Press 'space' when you see the letter 'x' or 'X'.,X,space,,,,,,,,,0,5,5,5,0,7,7,7,,,,,,,,,,,,,,,,,,,,,,,,,,,,,,,,,,,,,,,,,,,,,,,,,,,,,,,,,,,,,,,,,,,,,1.816,551.1308179,None,space,1,551.1308179,None,0.5911413,P003,fencog,2,Post,2021_Jul_12_1318,N-Back (New Version 2021),2021.1.4,119.8629726
,,,,Conditions/Version_1/zeroback(2)_v1.xlsx,New rule: Press 'space' when you see the letter 'x' or 'X'.,p,None,,,,,,,,,0,5,5,5,0,8,8,8,,,,,,,,,,,,,,,,,,,,,,,,,,,,,,,,,,,,,,,,,,,,,,,,,,,,,,,,,,,,,,,,,,,,,1.8966,555.0382368,None,None,1,555.0382368,None,,P003,fencog,2,Post,2021_Jul_12_1318,N-Back (New Version 2021),2021.1.4,119.8629726
,,,,Conditions/Version_1/zeroback(2)_v1.xlsx,New rule: Press 'space' when you see the letter 'x' or 'X'.,h,None,,,,,,,,,0,5,5,5,0,9,9,9,,,,,,,,,,,,,,,,,,,,,,,,,,,,,,,,,,,,,,,,,,,,,,,,,,,,,,,,,,,,,,,,,,,,,1.4192,558.4648371,None,None,1,558.4648371,None,,P003,fencog,2,Post,2021_Jul_12_1318,N-Back (New Version 2021),2021.1.4,119.8629726
,,,,Conditions/Version_1/zeroback(2)_v1.xlsx,New rule: Press 'space' when you see the letter 'x' or 'X'.,,,,,,,,,,,0,5,5,5,,,,,,,,,,,,,,,,,,,,,,,,,,,,,,,,,,,,,,,,,,,,,,,,,,,,,,,,,,,,,,,,,,,,,,,,,,,,,,,,,P003,fencog,2,Post,2021_Jul_12_1318,N-Back (New Version 2021),2021.1.4,119.8629726
,,,,Conditions/Version_1/threeback(2)_v1.xlsx,New rule: Press 'space' when you see 3-back (i.e. the same letter as the one that appeared 3 letters ago.),q,None,,,,,,,,,0,6,6,6,0,0,0,0,,,,,,,,,,,,,,,,,,,,,,,,,,,,,,,,,,,,,,,,,,,,,,,,,,,,,,,,,,,560.4911135,None,563.4783115,None,space,0.6351233,563.4783115,None,560.4911135,None,1.3138,565.4530057,None,None,1,565.4530057,None,,P003,fencog,2,Post,2021_Jul_12_1318,N-Back (New Version 2021),2021.1.4,119.8629726
,,,,Conditions/Version_1/threeback(2)_v1.xlsx,New rule: Press 'space' when you see 3-back (i.e. the same letter as the one that appeared 3 letters ago.),Y,None,,,,,,,,,0,6,6,6,0,1,1,1,,,,,,,,,,,,,,,,,,,,,,,,,,,,,,,,,,,,,,,,,,,,,,,,,,,,,,,,,,,,,,,,,,,,,1.8222,569.2855275,None,None,1,569.2855275,None,,P003,fencog,2,Post,2021_Jul_12_1318,N-Back (New Version 2021),2021.1.4,119.8629726
,,,,Conditions/Version_1/threeback(2)_v1.xlsx,New rule: Press 'space' when you see 3-back (i.e. the same letter as the one that appeared 3 letters ago.),p,None,,,,,,,,,0,6,6,6,0,2,2,2,,,,,,,,,,,,,,,,,,,,,,,,,,,,,,,,,,,,,,,,,,,,,,,,,,,,,,,,,,,,,,,,,,,,,1.568,572.8677656,None,None,1,572.8677656,None,,P003,fencog,2,Post,2021_Jul_12_1318,N-Back (New Version 2021),2021.1.4,119.8629726
,,,,Conditions/Version_1/threeback(2)_v1.xlsx,New rule: Press 'space' when you see 3-back (i.e. the same letter as the one that appeared 3 letters ago.),p,None,,,,,,,,,0,6,6,6,0,3,3,3,,,,,,,,,,,,,,,,,,,,,,,,,,,,,,,,,,,,,,,,,,,,,,,,,,,,,,,,,,,,,,,,,,,,,1.1154,575.9976827,None,None,1,575.9976827,None,,P003,fencog,2,Post,2021_Jul_12_1318,N-Back (New Version 2021),2021.1.4,119.8629726
,,,,Conditions/Version_1/threeback(2)_v1.xlsx,New rule: Press 'space' when you see 3-back (i.e. the same letter as the one that appeared 3 letters ago.),y,space,,,,,,,,,0,6,6,6,0,4,4,4,,,,,,,,,,,,,,,,,,,,,,,,,,,,,,,,,,,,,,,,,,,,,,,,,,,,,,,,,,,,,,,,,,,,,1.1712,579.1798466,None,space,1,579.1798466,None,1.445371,P003,fencog,2,Post,2021_Jul_12_1318,N-Back (New Version 2021),2021.1.4,119.8629726
,,,,Conditions/Version_1/threeback(2)_v1.xlsx,New rule: Press 'space' when you see 3-back (i.e. the same letter as the one that appeared 3 letters ago.),u,None,,,,,,,,,0,6,6,6,0,5,5,5,,,,,,,,,,,,,,,,,,,,,,,,,,,,,,,,,,,,,,,,,,,,,,,,,,,,,,,,,,,,,,,,,,,,,1.2394,582.4217598,None,None,1,582.4217598,None,,P003,fencog,2,Post,2021_Jul_12_1318,N-Back (New Version 2021),2021.1.4,119.8629726
,,,,Conditions/Version_1/threeback(2)_v1.xlsx,New rule: Press 'space' when you see 3-back (i.e. the same letter as the one that appeared 3 letters ago.),P,space,,,,,,,,,0,6,6,6,0,6,6,6,,,,,,,,,,,,,,,,,,,,,,,,,,,,,,,,,,,,,,,,,,,,,,,,,,,,,,,,,,,,,,,,,,,,,1.2146,585.6457075,None,None,0,585.6457075,None,,P003,fencog,2,Post,2021_Jul_12_1318,N-Back (New Version 2021),2021.1.4,119.8629726
,,,,Conditions/Version_1/threeback(2)_v1.xlsx,New rule: Press 'space' when you see 3-back (i.e. the same letter as the one that appeared 3 letters ago.),a,None,,,,,,,,,0,6,6,6,0,7,7,7,,,,,,,,,,,,,,,,,,,,,,,,,,,,,,,,,,,,,,,,,,,,,,,,,,,,,,,,,,,,,,,,,,,,,1.3324,588.9869015,None,None,1,588.9869015,None,,P003,fencog,2,Post,2021_Jul_12_1318,N-Back (New Version 2021),2021.1.4,119.8629726
,,,,Conditions/Version_1/threeback(2)_v1.xlsx,New rule: Press 'space' when you see 3-back (i.e. the same letter as the one that appeared 3 letters ago.),U,space,,,,,,,,,0,6,6,6,0,8,8,8,,,,,,,,,,,,,,,,,,,,,,,,,,,,,,,,,,,,,,,,,,,,,,,,,,,,,,,,,,,,,,,,,,,,,1.2518,592.2544796,None,space,1,592.2544796,None,1.0278528,P003,fencog,2,Post,2021_Jul_12_1318,N-Back (New Version 2021),2021.1.4,119.8629726
,,,,Conditions/Version_1/threeback(2)_v1.xlsx,New rule: Press 'space' when you see 3-back (i.e. the same letter as the one that appeared 3 letters ago.),q,None,,,,,,,,,0,6,6,6,0,9,9,9,,,,,,,,,,,,,,,,,,,,,,,,,,,,,,,,,,,,,,,,,,,,,,,,,,,,,,,,,,,,,,,,,,,,,1.4068,595.6709266,None,None,1,595.6709266,None,,P003,fencog,2,Post,2021_Jul_12_1318,N-Back (New Version 2021),2021.1.4,119.8629726
,,,,Conditions/Version_1/threeback(2)_v1.xlsx,New rule: Press 'space' when you see 3-back (i.e. the same letter as the one that appeared 3 letters ago.),,,,,,,,,,,0,6,6,6,,,,,,,,,,,,,,,,,,,,,,,,,,,,,,,,,,,,,,,,,,,,,,,,,,,,,,,,,,,,,,,,,,,,,,,,,,,,,,,,,P003,fencog,2,Post,2021_Jul_12_1318,N-Back (New Version 2021),2021.1.4,119.8629726
,,,,Conditions/Version_1/twoback(2)_v1.xlsx,New rule: Press 'space' when you see 2-back (i.e. the same letter as the one that appeared 2 letters ago.),q,None,,,,,,,,,0,7,7,7,0,0,0,0,,,,,,,,,,,,,,,,,,,,,,,,,,,,,,,,,,,,,,,,,,,,,,,,,,,,,,,,,,,597.6952182,None,600.6839769,None,space,7.2694027,600.6839769,None,597.6952182,None,1.9958,609.9792059,None,None,1,609.9792059,None,,P003,fencog,2,Post,2021_Jul_12_1318,N-Back (New Version 2021),2021.1.4,119.8629726
,,,,Conditions/Version_1/twoback(2)_v1.xlsx,New rule: Press 'space' when you see 2-back (i.e. the same letter as the one that appeared 2 letters ago.),r,None,,,,,,,,,0,7,7,7,0,1,1,1,,,,,,,,,,,,,,,,,,,,,,,,,,,,,,,,,,,,,,,,,,,,,,,,,,,,,,,,,,,,,,,,,,,,,1.4626,613.4541309,None,None,1,613.4541309,None,,P003,fencog,2,Post,2021_Jul_12_1318,N-Back (New Version 2021),2021.1.4,119.8629726
,,,,Conditions/Version_1/twoback(2)_v1.xlsx,New rule: Press 'space' when you see 2-back (i.e. the same letter as the one that appeared 2 letters ago.),q,space,,,,,,,,,0,7,7,7,0,2,2,2,,,,,,,,,,,,,,,,,,,,,,,,,,,,,,,,,,,,,,,,,,,,,,,,,,,,,,,,,,,,,,,,,,,,,1.9896,617.4521771,None,space,1,617.4521771,None,0.6615383,P003,fencog,2,Post,2021_Jul_12_1318,N-Back (New Version 2021),2021.1.4,119.8629726
,,,,Conditions/Version_1/twoback(2)_v1.xlsx,New rule: Press 'space' when you see 2-back (i.e. the same letter as the one that appeared 2 letters ago.),P,None,,,,,,,,,0,7,7,7,0,3,3,3,,,,,,,,,,,,,,,,,,,,,,,,,,,,,,,,,,,,,,,,,,,,,,,,,,,,,,,,,,,,,,,,,,,,,1.5184,620.9773426,None,None,1,620.9773426,None,,P003,fencog,2,Post,2021_Jul_12_1318,N-Back (New Version 2021),2021.1.4,119.8629726
,,,,Conditions/Version_1/twoback(2)_v1.xlsx,New rule: Press 'space' when you see 2-back (i.e. the same letter as the one that appeared 2 letters ago.),p,None,,,,,,,,,0,7,7,7,0,4,4,4,,,,,,,,,,,,,,,,,,,,,,,,,,,,,,,,,,,,,,,,,,,,,,,,,,,,,,,,,,,,,,,,,,,,,1.0844,624.0767351,None,None,1,624.0767351,None,,P003,fencog,2,Post,2021_Jul_12_1318,N-Back (New Version 2021),2021.1.4,119.8629726
,,,,Conditions/Version_1/twoback(2)_v1.xlsx,New rule: Press 'space' when you see 2-back (i.e. the same letter as the one that appeared 2 letters ago.),H,None,,,,,,,,,0,7,7,7,0,5,5,5,,,,,,,,,,,,,,,,,,,,,,,,,,,,,,,,,,,,,,,,,,,,,,,,,,,,,,,,,,,,,,,,,,,,,1.3448,627.4355175,None,None,1,627.4355175,None,,P003,fencog,2,Post,2021_Jul_12_1318,N-Back (New Version 2021),2021.1.4,119.8629726
,,,,Conditions/Version_1/twoback(2)_v1.xlsx,New rule: Press 'space' when you see 2-back (i.e. the same letter as the one that appeared 2 letters ago.),g,None,,,,,,,,,0,7,7,7,0,6,6,6,,,,,,,,,,,,,,,,,,,,,,,,,,,,,,,,,,,,,,,,,,,,,,,,,,,,,,,,,,,,,,,,,,,,,1.6982,631.1421114,None,None,1,631.1421114,None,,P003,fencog,2,Post,2021_Jul_12_1318,N-Back (New Version 2021),2021.1.4,119.8629726
,,,,Conditions/Version_1/twoback(2)_v1.xlsx,New rule: Press 'space' when you see 2-back (i.e. the same letter as the one that appeared 2 letters ago.),j,None,,,,,,,,,0,7,7,7,0,7,7,7,,,,,,,,,,,,,,,,,,,,,,,,,,,,,,,,,,,,,,,,,,,,,,,,,,,,,,,,,,,,,,,,,,,,,1.6238,634.7737671,None,None,1,634.7737671,None,,P003,fencog,2,Post,2021_Jul_12_1318,N-Back (New Version 2021),2021.1.4,119.8629726
,,,,Conditions/Version_1/twoback(2)_v1.xlsx,New rule: Press 'space' when you see 2-back (i.e. the same letter as the one that appeared 2 letters ago.),g,space,,,,,,,,,0,7,7,7,0,8,8,8,,,,,,,,,,,,,,,,,,,,,,,,,,,,,,,,,,,,,,,,,,,,,,,,,,,,,,,,,,,,,,,,,,,,,1.3262,638.114208,None,space,1,638.114208,None,0.7603975,P003,fencog,2,Post,2021_Jul_12_1318,N-Back (New Version 2021),2021.1.4,119.8629726
,,,,Conditions/Version_1/twoback(2)_v1.xlsx,New rule: Press 'space' when you see 2-back (i.e. the same letter as the one that appeared 2 letters ago.),G,None,,,,,,,,,0,7,7,7,0,9,9,9,,,,,,,,,,,,,,,,,,,,,,,,,,,,,,,,,,,,,,,,,,,,,,,,,,,,,,,,,,,,,,,,,,,,,1.103,641.228141,None,None,1,641.228141,None,,P003,fencog,2,Post,2021_Jul_12_1318,N-Back (New Version 2021),2021.1.4,119.8629726
,,,,Conditions/Version_1/twoback(2)_v1.xlsx,New rule: Press 'space' when you see 2-back (i.e. the same letter as the one that appeared 2 letters ago.),,,,,,,,,,,0,7,7,7,,,,,,,,,,,,,,,,,,,,,,,,,,,,,,,,,,,,,,,,,,,,,,,,,,,,,,,,,,,,,,,,,,,,,,,,,,,,,,,,,P003,fencog,2,Post,2021_Jul_12_1318,N-Back (New Version 2021),2021.1.4,119.8629726
,,,,Conditions/Version_1/threeback(3)_v1.xlsx,New rule: Press 'space' when you see 3-back (i.e. the same letter as the one that appeared 3 letters ago.),w,None,,,,,,,,,0,8,8,8,0,0,0,0,,,,,,,,,,,,,,,,,,,,,,,,,,,,,,,,,,,,,,,,,,,,,,,,,,,,,,,,,,,643.2533931,None,646.2377255,None,space,0.7237491,646.2377255,None,643.2533931,None,1.5866,648.5863951,None,None,1,648.5863951,None,,P003,fencog,2,Post,2021_Jul_12_1318,N-Back (New Version 2021),2021.1.4,119.8629726
,,,,Conditions/Version_1/threeback(3)_v1.xlsx,New rule: Press 'space' when you see 3-back (i.e. the same letter as the one that appeared 3 letters ago.),p,None,,,,,,,,,0,8,8,8,0,1,1,1,,,,,,,,,,,,,,,,,,,,,,,,,,,,,,,,,,,,,,,,,,,,,,,,,,,,,,,,,,,,,,,,,,,,,1.0162,651.6084553,None,None,1,651.6084553,None,,P003,fencog,2,Post,2021_Jul_12_1318,N-Back (New Version 2021),2021.1.4,119.8629726
,,,,Conditions/Version_1/threeback(3)_v1.xlsx,New rule: Press 'space' when you see 3-back (i.e. the same letter as the one that appeared 3 letters ago.),P,None,,,,,,,,,0,8,8,8,0,2,2,2,,,,,,,,,,,,,,,,,,,,,,,,,,,,,,,,,,,,,,,,,,,,,,,,,,,,,,,,,,,,,,,,,,,,,1.3014,654.9157756,None,None,1,654.9157756,None,,P003,fencog,2,Post,2021_Jul_12_1318,N-Back (New Version 2021),2021.1.4,119.8629726
,,,,Conditions/Version_1/threeback(3)_v1.xlsx,New rule: Press 'space' when you see 3-back (i.e. the same letter as the one that appeared 3 letters ago.),i,None,,,,,,,,,0,8,8,8,0,3,3,3,,,,,,,,,,,,,,,,,,,,,,,,,,,,,,,,,,,,,,,,,,,,,,,,,,,,,,,,,,,,,,,,,,,,,1.7664,658.6813371,None,None,1,658.6813371,None,,P003,fencog,2,Post,2021_Jul_12_1318,N-Back (New Version 2021),2021.1.4,119.8629726
,,,,Conditions/Version_1/threeback(3)_v1.xlsx,New rule: Press 'space' when you see 3-back (i.e. the same letter as the one that appeared 3 letters ago.),f,None,,,,,,,,,0,8,8,8,0,4,4,4,,,,,,,,,,,,,,,,,,,,,,,,,,,,,,,,,,,,,,,,,,,,,,,,,,,,,,,,,,,,,,,,,,,,,1.6362,662.321713,None,None,1,662.321713,None,,P003,fencog,2,Post,2021_Jul_12_1318,N-Back (New Version 2021),2021.1.4,119.8629726
,,,,Conditions/Version_1/threeback(3)_v1.xlsx,New rule: Press 'space' when you see 3-back (i.e. the same letter as the one that appeared 3 letters ago.),o,None,,,,,,,,,0,8,8,8,0,5,5,5,,,,,,,,,,,,,,,,,,,,,,,,,,,,,,,,,,,,,,,,,,,,,,,,,,,,,,,,,,,,,,,,,,,,,1.0348,665.362885,None,None,1,665.362885,None,,P003,fencog,2,Post,2021_Jul_12_1318,N-Back (New Version 2021),2021.1.4,119.8629726
,,,,Conditions/Version_1/threeback(3)_v1.xlsx,New rule: Press 'space' when you see 3-back (i.e. the same letter as the one that appeared 3 letters ago.),w,None,,,,,,,,,0,8,8,8,0,6,6,6,,,,,,,,,,,,,,,,,,,,,,,,,,,,,,,,,,,,,,,,,,,,,,,,,,,,,,,,,,,,,,,,,,,,,1.9214,669.2927671,None,None,1,669.2927671,None,,P003,fencog,2,Post,2021_Jul_12_1318,N-Back (New Version 2021),2021.1.4,119.8629726
,,,,Conditions/Version_1/threeback(3)_v1.xlsx,New rule: Press 'space' when you see 3-back (i.e. the same letter as the one that appeared 3 letters ago.),F,space,,,,,,,,,0,8,8,8,0,7,7,7,,,,,,,,,,,,,,,,,,,,,,,,,,,,,,,,,,,,,,,,,,,,,,,,,,,,,,,,,,,,,,,,,,,,,1.1526,672.4599572,None,space,1,672.4599572,None,1.4143004,P003,fencog,2,Post,2021_Jul_12_1318,N-Back (New Version 2021),2021.1.4,119.8629726
,,,,Conditions/Version_1/threeback(3)_v1.xlsx,New rule: Press 'space' when you see 3-back (i.e. the same letter as the one that appeared 3 letters ago.),p,None,,,,,,,,,0,8,8,8,0,8,8,8,,,,,,,,,,,,,,,,,,,,,,,,,,,,,,,,,,,,,,,,,,,,,,,,,,,,,,,,,,,,,,,,,,,,,1.4688,675.9364509,None,None,1,675.9364509,None,,P003,fencog,2,Post,2021_Jul_12_1318,N-Back (New Version 2021),2021.1.4,119.8629726
,,,,Conditions/Version_1/threeback(3)_v1.xlsx,New rule: Press 'space' when you see 3-back (i.e. the same letter as the one that appeared 3 letters ago.),W,space,,,,,,,,,0,8,8,8,0,9,9,9,,,,,,,,,,,,,,,,,,,,,,,,,,,,,,,,,,,,,,,,,,,,,,,,,,,,,,,,,,,,,,,,,,,,,1.1712,679.1193924,None,space,1,679.1193924,None,1.9217583,P003,fencog,2,Post,2021_Jul_12_1318,N-Back (New Version 2021),2021.1.4,119.8629726
,,,,Conditions/Version_1/threeback(3)_v1.xlsx,New rule: Press 'space' when you see 3-back (i.e. the same letter as the one that appeared 3 letters ago.),,,,,,,,,,,0,8,8,8,,,,,,,,,,,,,,,,,,,,,,,,,,,,,,,,,,,,,,,,,,,,,,,,,,,,,,,,,,,,,,,,,,,,,,,,,,,,,,,,,P003,fencog,2,Post,2021_Jul_12_1318,N-Back (New Version 2021),2021.1.4,119.8629726
,,,,Conditions/Version_1/zeroback(3)_v1.xlsx,New rule: Press 'space' when you see the letter 'x' or 'X'.,X,space,,,,,,,,,0,9,9,9,0,0,0,0,,,,,,,,,,,,,,,,,,,,,,,,,,,,,,,,,,,,,,,,,,,,,,,,,,,,,,,,,,,681.1434507,None,684.1260408,None,space,0.5553791,684.1260408,None,681.1434507,None,1.2146,685.9149364,None,space,1,685.9149364,None,0.8551896,P003,fencog,2,Post,2021_Jul_12_1318,N-Back (New Version 2021),2021.1.4,119.8629726
,,,,Conditions/Version_1/zeroback(3)_v1.xlsx,New rule: Press 'space' when you see the letter 'x' or 'X'.,B,None,,,,,,,,,0,9,9,9,0,1,1,1,,,,,,,,,,,,,,,,,,,,,,,,,,,,,,,,,,,,,,,,,,,,,,,,,,,,,,,,,,,,,,,,,,,,,1.878,689.797825,None,None,1,689.797825,None,,P003,fencog,2,Post,2021_Jul_12_1318,N-Back (New Version 2021),2021.1.4,119.8629726
,,,,Conditions/Version_1/zeroback(3)_v1.xlsx,New rule: Press 'space' when you see the letter 'x' or 'X'.,m,None,,,,,,,,,0,9,9,9,0,2,2,2,,,,,,,,,,,,,,,,,,,,,,,,,,,,,,,,,,,,,,,,,,,,,,,,,,,,,,,,,,,,,,,,,,,,,1.2022,693.0141578,None,None,1,693.0141578,None,,P003,fencog,2,Post,2021_Jul_12_1318,N-Back (New Version 2021),2021.1.4,119.8629726
,,,,Conditions/Version_1/zeroback(3)_v1.xlsx,New rule: Press 'space' when you see the letter 'x' or 'X'.,m,None,,,,,,,,,0,9,9,9,0,3,3,3,,,,,,,,,,,,,,,,,,,,,,,,,,,,,,,,,,,,,,,,,,,,,,,,,,,,,,,,,,,,,,,,,,,,,1.5494,696.5699324,None,None,1,696.5699324,None,,P003,fencog,2,Post,2021_Jul_12_1318,N-Back (New Version 2021),2021.1.4,119.8629726
,,,,Conditions/Version_1/zeroback(3)_v1.xlsx,New rule: Press 'space' when you see the letter 'x' or 'X'.,o,None,,,,,,,,,0,9,9,9,0,4,4,4,,,,,,,,,,,,,,,,,,,,,,,,,,,,,,,,,,,,,,,,,,,,,,,,,,,,,,,,,,,,,,,,,,,,,1.6734,700.2447748,None,None,1,700.2447748,None,,P003,fencog,2,Post,2021_Jul_12_1318,N-Back (New Version 2021),2021.1.4,119.8629726
,,,,Conditions/Version_1/zeroback(3)_v1.xlsx,New rule: Press 'space' when you see the letter 'x' or 'X'.,p,None,,,,,,,,,0,9,9,9,0,5,5,5,,,,,,,,,,,,,,,,,,,,,,,,,,,,,,,,,,,,,,,,,,,,,,,,,,,,,,,,,,,,,,,,,,,,,1.6548,703.9122281,None,None,1,703.9122281,None,,P003,fencog,2,Post,2021_Jul_12_1318,N-Back (New Version 2021),2021.1.4,119.8629726
,,,,Conditions/Version_1/zeroback(3)_v1.xlsx,New rule: Press 'space' when you see the letter 'x' or 'X'.,G,None,,,,,,,,,0,9,9,9,0,6,6,6,,,,,,,,,,,,,,,,,,,,,,,,,,,,,,,,,,,,,,,,,,,,,,,,,,,,,,,,,,,,,,,,,,,,,1.7354,707.6585271,None,None,1,707.6585271,None,,P003,fencog,2,Post,2021_Jul_12_1318,N-Back (New Version 2021),2021.1.4,119.8629726
,,,,Conditions/Version_1/zeroback(3)_v1.xlsx,New rule: Press 'space' when you see the letter 'x' or 'X'.,X,space,,,,,,,,,0,9,9,9,0,7,7,7,,,,,,,,,,,,,,,,,,,,,,,,,,,,,,,,,,,,,,,,,,,,,,,,,,,,,,,,,,,,,,,,,,,,,1.8842,711.5510873,None,space,1,711.5510873,None,0.4823051,P003,fencog,2,Post,2021_Jul_12_1318,N-Back (New Version 2021),2021.1.4,119.8629726
,,,,Conditions/Version_1/zeroback(3)_v1.xlsx,New rule: Press 'space' when you see the letter 'x' or 'X'.,p,None,,,,,,,,,0,9,9,9,0,8,8,8,,,,,,,,,,,,,,,,,,,,,,,,,,,,,,,,,,,,,,,,,,,,,,,,,,,,,,,,,,,,,,,,,,,,,1.9648,715.5228935,None,None,1,715.5228935,None,,P003,fencog,2,Post,2021_Jul_12_1318,N-Back (New Version 2021),2021.1.4,119.8629726
,,,,Conditions/Version_1/zeroback(3)_v1.xlsx,New rule: Press 'space' when you see the letter 'x' or 'X'.,x,space,,,,,,,,,0,9,9,9,0,9,9,9,,,,,,,,,,,,,,,,,,,,,,,,,,,,,,,,,,,,,,,,,,,,,,,,,,,,,,,,,,,,,,,,,,,,,1.7788,719.3075304,None,space,1,719.3075304,None,0.517927,P003,fencog,2,Post,2021_Jul_12_1318,N-Back (New Version 2021),2021.1.4,119.8629726
,,,,Conditions/Version_1/zeroback(3)_v1.xlsx,New rule: Press 'space' when you see the letter 'x' or 'X'.,,,,,,,,,,,0,9,9,9,,,,,,,,,,,,,,,,,,,,,,,,,,,,,,,,,,,,,,,,,,,,,,,,,,,,,,,,,,,,,,,,,,,,,,,,,,,,,,,,,P003,fencog,2,Post,2021_Jul_12_1318,N-Back (New Version 2021),2021.1.4,119.8629726
,,,,Conditions/Version_1/twoback(3)_v1.xlsx,New rule: Press 'space' when you see 2-back (i.e. the same letter as the one that appeared 2 letters ago.),e,None,,,,,,,,,0,10,10,10,0,0,0,0,,,,,,,,,,,,,,,,,,,,,,,,,,,,,,,,,,,,,,,,,,,,,,,,,,,,,,,,,,,721.35303,None,724.3404513,None,space,0.3890703,724.3404513,None,721.35303,None,1.1216,725.8723485,None,None,1,725.8723485,None,,P003,fencog,2,Post,2021_Jul_12_1318,N-Back (New Version 2021),2021.1.4,119.8629726
,,,,Conditions/Version_1/twoback(3)_v1.xlsx,New rule: Press 'space' when you see 2-back (i.e. the same letter as the one that appeared 2 letters ago.),o,None,,,,,,,,,0,10,10,10,0,1,1,1,,,,,,,,,,,,,,,,,,,,,,,,,,,,,,,,,,,,,,,,,,,,,,,,,,,,,,,,,,,,,,,,,,,,,1.5184,729.4032491,None,None,1,729.4032491,None,,P003,fencog,2,Post,2021_Jul_12_1318,N-Back (New Version 2021),2021.1.4,119.8629726
,,,,Conditions/Version_1/twoback(3)_v1.xlsx,New rule: Press 'space' when you see 2-back (i.e. the same letter as the one that appeared 2 letters ago.),P,None,,,,,,,,,0,10,10,10,0,2,2,2,,,,,,,,,,,,,,,,,,,,,,,,,,,,,,,,,,,,,,,,,,,,,,,,,,,,,,,,,,,,,,,,,,,,,1.1836,732.5966597,None,None,1,732.5966597,None,,P003,fencog,2,Post,2021_Jul_12_1318,N-Back (New Version 2021),2021.1.4,119.8629726
,,,,Conditions/Version_1/twoback(3)_v1.xlsx,New rule: Press 'space' when you see 2-back (i.e. the same letter as the one that appeared 2 letters ago.),z,None,,,,,,,,,0,10,10,10,0,3,3,3,,,,,,,,,,,,,,,,,,,,,,,,,,,,,,,,,,,,,,,,,,,,,,,,,,,,,,,,,,,,,,,,,,,,,1.9276,736.5396963,None,None,1,736.5396963,None,,P003,fencog,2,Post,2021_Jul_12_1318,N-Back (New Version 2021),2021.1.4,119.8629726
,,,,Conditions/Version_1/twoback(3)_v1.xlsx,New rule: Press 'space' when you see 2-back (i.e. the same letter as the one that appeared 2 letters ago.),X,None,,,,,,,,,0,10,10,10,0,4,4,4,,,,,,,,,,,,,,,,,,,,,,,,,,,,,,,,,,,,,,,,,,,,,,,,,,,,,,,,,,,,,,,,,,,,,1.9772,740.5172449,None,None,1,740.5172449,None,,P003,fencog,2,Post,2021_Jul_12_1318,N-Back (New Version 2021),2021.1.4,119.8629726
,,,,Conditions/Version_1/twoback(3)_v1.xlsx,New rule: Press 'space' when you see 2-back (i.e. the same letter as the one that appeared 2 letters ago.),z,space,,,,,,,,,0,10,10,10,0,5,5,5,,,,,,,,,,,,,,,,,,,,,,,,,,,,,,,,,,,,,,,,,,,,,,,,,,,,,,,,,,,,,,,,,,,,,1.9152,744.4402865,None,space,1,744.4402865,None,0.5212663,P003,fencog,2,Post,2021_Jul_12_1318,N-Back (New Version 2021),2021.1.4,119.8629726
,,,,Conditions/Version_1/twoback(3)_v1.xlsx,New rule: Press 'space' when you see 2-back (i.e. the same letter as the one that appeared 2 letters ago.),x,space,,,,,,,,,0,10,10,10,0,6,6,6,,,,,,,,,,,,,,,,,,,,,,,,,,,,,,,,,,,,,,,,,,,,,,,,,,,,,,,,,,,,,,,,,,,,,1.5804,748.0319918,None,None,0,748.0319918,None,,P003,fencog,2,Post,2021_Jul_12_1318,N-Back (New Version 2021),2021.1.4,119.8629726
,,,,Conditions/Version_1/twoback(3)_v1.xlsx,New rule: Press 'space' when you see 2-back (i.e. the same letter as the one that appeared 2 letters ago.),c,None,,,,,,,,,0,10,10,10,0,7,7,7,,,,,,,,,,,,,,,,,,,,,,,,,,,,,,,,,,,,,,,,,,,,,,,,,,,,,,,,,,,,,,,,,,,,,1.6734,751.7185,None,None,1,751.7185,None,,P003,fencog,2,Post,2021_Jul_12_1318,N-Back (New Version 2021),2021.1.4,119.8629726
,,,,Conditions/Version_1/twoback(3)_v1.xlsx,New rule: Press 'space' when you see 2-back (i.e. the same letter as the one that appeared 2 letters ago.),i,None,,,,,,,,,0,10,10,10,0,8,8,8,,,,,,,,,,,,,,,,,,,,,,,,,,,,,,,,,,,,,,,,,,,,,,,,,,,,,,,,,,,,,,,,,,,,,1.6548,755.3815592,None,None,1,755.3815592,None,,P003,fencog,2,Post,2021_Jul_12_1318,N-Back (New Version 2021),2021.1.4,119.8629726
,,,,Conditions/Version_1/twoback(3)_v1.xlsx,New rule: Press 'space' when you see 2-back (i.e. the same letter as the one that appeared 2 letters ago.),C,space,,,,,,,,,0,10,10,10,0,9,9,9,,,,,,,,,,,,,,,,,,,,,,,,,,,,,,,,,,,,,,,,,,,,,,,,,,,,,,,,,,,,,,,,,,,,,1.1092,758.5042941,None,space,1,758.5042941,None,1.7694975,P003,fencog,2,Post,2021_Jul_12_1318,N-Back (New Version 2021),2021.1.4,119.8629726
,,,,Conditions/Version_1/twoback(3)_v1.xlsx,New rule: Press 'space' when you see 2-back (i.e. the same letter as the one that appeared 2 letters ago.),,,,,,,,,,,0,10,10,10,,,,,,,,,,,,,,,,,,,,,,,,,,,,,,,,,,,,,,,,,,,,,,,,,,,,,,,,,,,,,,,,,,,,,,,,,,,,,,,,,P003,fencog,2,Post,2021_Jul_12_1318,N-Back (New Version 2021),2021.1.4,119.8629726
,,,,Conditions/Version_1/oneback(3)_v1.xlsx,New rule: Press 'space' when you see 1-back (i.e. the same letter as the one that appeared 1 letter ago.),o,None,,,,,,,,,0,11,11,11,0,0,0,0,,,,,,,,,,,,,,,,,,,,,,,,,,,,,,,,,,,,,,,,,,,,,,,,,,,,,,,,,,,760.5319047,None,763.5189224,None,space,0.2666345,763.5189224,None,760.5319047,None,1.8408,765.65385,None,None,1,765.65385,None,,P003,fencog,2,Post,2021_Jul_12_1318,N-Back (New Version 2021),2021.1.4,119.8629726
,,,,Conditions/Version_1/oneback(3)_v1.xlsx,New rule: Press 'space' when you see 1-back (i.e. the same letter as the one that appeared 1 letter ago.),O,space,,,,,,,,,0,11,11,11,0,1,1,1,,,,,,,,,,,,,,,,,,,,,,,,,,,,,,,,,,,,,,,,,,,,,,,,,,,,,,,,,,,,,,,,,,,,,1.041,768.6988905,None,space,1,768.6988905,None,0.6465337,P003,fencog,2,Post,2021_Jul_12_1318,N-Back (New Version 2021),2021.1.4,119.8629726
,,,,Conditions/Version_1/oneback(3)_v1.xlsx,New rule: Press 'space' when you see 1-back (i.e. the same letter as the one that appeared 1 letter ago.),h,None,,,,,,,,,0,11,11,11,0,2,2,2,,,,,,,,,,,,,,,,,,,,,,,,,,,,,,,,,,,,,,,,,,,,,,,,,,,,,,,,,,,,,,,,,,,,,1.4068,772.1069663,None,None,1,772.1069663,None,,P003,fencog,2,Post,2021_Jul_12_1318,N-Back (New Version 2021),2021.1.4,119.8629726
,,,,Conditions/Version_1/oneback(3)_v1.xlsx,New rule: Press 'space' when you see 1-back (i.e. the same letter as the one that appeared 1 letter ago.),g,None,,,,,,,,,0,11,11,11,0,3,3,3,,,,,,,,,,,,,,,,,,,,,,,,,,,,,,,,,,,,,,,,,,,,,,,,,,,,,,,,,,,,,,,,,,,,,1.8718,775.9909854,None,None,1,775.9909854,None,,P003,fencog,2,Post,2021_Jul_12_1318,N-Back (New Version 2021),2021.1.4,119.8629726
,,,,Conditions/Version_1/oneback(3)_v1.xlsx,New rule: Press 'space' when you see 1-back (i.e. the same letter as the one that appeared 1 letter ago.),n,None,,,,,,,,,0,11,11,11,0,4,4,4,,,,,,,,,,,,,,,,,,,,,,,,,,,,,,,,,,,,,,,,,,,,,,,,,,,,,,,,,,,,,,,,,,,,,1.6982,779.695532,None,None,1,779.695532,None,,P003,fencog,2,Post,2021_Jul_12_1318,N-Back (New Version 2021),2021.1.4,119.8629726
,,,,Conditions/Version_1/oneback(3)_v1.xlsx,New rule: Press 'space' when you see 1-back (i.e. the same letter as the one that appeared 1 letter ago.),z,None,,,,,,,,,0,11,11,11,0,5,5,5,,,,,,,,,,,,,,,,,,,,,,,,,,,,,,,,,,,,,,,,,,,,,,,,,,,,,,,,,,,,,,,,,,,,,1.0472,782.7539234,None,None,1,782.7539234,None,,P003,fencog,2,Post,2021_Jul_12_1318,N-Back (New Version 2021),2021.1.4,119.8629726
,,,,Conditions/Version_1/oneback(3)_v1.xlsx,New rule: Press 'space' when you see 1-back (i.e. the same letter as the one that appeared 1 letter ago.),X,None,,,,,,,,,0,11,11,11,0,6,6,6,,,,,,,,,,,,,,,,,,,,,,,,,,,,,,,,,,,,,,,,,,,,,,,,,,,,,,,,,,,,,,,,,,,,,1.3076,786.0704887,None,None,1,786.0704887,None,,P003,fencog,2,Post,2021_Jul_12_1318,N-Back (New Version 2021),2021.1.4,119.8629726
,,,,Conditions/Version_1/oneback(3)_v1.xlsx,New rule: Press 'space' when you see 1-back (i.e. the same letter as the one that appeared 1 letter ago.),r,None,,,,,,,,,0,11,11,11,0,7,7,7,,,,,,,,,,,,,,,,,,,,,,,,,,,,,,,,,,,,,,,,,,,,,,,,,,,,,,,,,,,,,,,,,,,,,1.6548,789.7344381,None,None,1,789.7344381,None,,P003,fencog,2,Post,2021_Jul_12_1318,N-Back (New Version 2021),2021.1.4,119.8629726
,,,,Conditions/Version_1/oneback(3)_v1.xlsx,New rule: Press 'space' when you see 1-back (i.e. the same letter as the one that appeared 1 letter ago.),r,space,,,,,,,,,0,11,11,11,0,8,8,8,,,,,,,,,,,,,,,,,,,,,,,,,,,,,,,,,,,,,,,,,,,,,,,,,,,,,,,,,,,,,,,,,,,,,1.6672,793.3998064,None,space,1,793.3998064,None,0.537649,P003,fencog,2,Post,2021_Jul_12_1318,N-Back (New Version 2021),2021.1.4,119.8629726
,,,,Conditions/Version_1/oneback(3)_v1.xlsx,New rule: Press 'space' when you see 1-back (i.e. the same letter as the one that appeared 1 letter ago.),P,None,,,,,,,,,0,11,11,11,0,9,9,9,,,,,,,,,,,,,,,,,,,,,,,,,,,,,,,,,,,,,,,,,,,,,,,,,,,,,,,,,,,,,,,,,,,,,1.723,797.123684,None,None,1,797.123684,None,,P003,fencog,2,Post,2021_Jul_12_1318,N-Back (New Version 2021),2021.1.4,119.8629726
,,,,Conditions/Version_1/oneback(3)_v1.xlsx,New rule: Press 'space' when you see 1-back (i.e. the same letter as the one that appeared 1 letter ago.),,,,,,,,,,,0,11,11,11,,,,,,,,,,,,,,,,,,,,,,,,,,,,,,,,,,,,,,,,,,,,,,,,,,,,,,,,,,,,,,,,,,,,,,,,,,,,,,,,,P003,fencog,2,Post,2021_Jul_12_1318,N-Back (New Version 2021),2021.1.4,119.8629726
,,,,Conditions/Version_1/twoback(4)_v1.xlsx,New rule: Press 'space' when you see 2-back (i.e. the same letter as the one that appeared 2 letters ago.),r,None,,,,,,,,,0,12,12,12,0,0,0,0,,,,,,,,,,,,,,,,,,,,,,,,,,,,,,,,,,,,,,,,,,,,,,,,,,,,,,,,,,,799.1440531,None,802.1329169,None,space,1.4204956,802.1329169,None,799.1440531,None,1.0534,804.6309988,None,None,1,804.6309988,None,,P003,fencog,2,Post,2021_Jul_12_1318,N-Back (New Version 2021),2021.1.4,119.8629726
,,,,Conditions/Version_1/twoback(4)_v1.xlsx,New rule: Press 'space' when you see 2-back (i.e. the same letter as the one that appeared 2 letters ago.),T,None,,,,,,,,,0,12,12,12,0,1,1,1,,,,,,,,,,,,,,,,,,,,,,,,,,,,,,,,,,,,,,,,,,,,,,,,,,,,,,,,,,,,,,,,,,,,,1.692,808.3310843,None,None,1,808.3310843,None,,P003,fencog,2,Post,2021_Jul_12_1318,N-Back (New Version 2021),2021.1.4,119.8629726
,,,,Conditions/Version_1/twoback(4)_v1.xlsx,New rule: Press 'space' when you see 2-back (i.e. the same letter as the one that appeared 2 letters ago.),o,None,,,,,,,,,0,12,12,12,0,2,2,2,,,,,,,,,,,,,,,,,,,,,,,,,,,,,,,,,,,,,,,,,,,,,,,,,,,,,,,,,,,,,,,,,,,,,1.3262,811.6609592,None,None,1,811.6609592,None,,P003,fencog,2,Post,2021_Jul_12_1318,N-Back (New Version 2021),2021.1.4,119.8629726
,,,,Conditions/Version_1/twoback(4)_v1.xlsx,New rule: Press 'space' when you see 2-back (i.e. the same letter as the one that appeared 2 letters ago.),p,None,,,,,,,,,0,12,12,12,0,3,3,3,,,,,,,,,,,,,,,,,,,,,,,,,,,,,,,,,,,,,,,,,,,,,,,,,,,,,,,,,,,,,,,,,,,,,1.2518,814.922432,None,None,1,814.922432,None,,P003,fencog,2,Post,2021_Jul_12_1318,N-Back (New Version 2021),2021.1.4,119.8629726
,,,,Conditions/Version_1/twoback(4)_v1.xlsx,New rule: Press 'space' when you see 2-back (i.e. the same letter as the one that appeared 2 letters ago.),p,None,,,,,,,,,0,12,12,12,0,4,4,4,,,,,,,,,,,,,,,,,,,,,,,,,,,,,,,,,,,,,,,,,,,,,,,,,,,,,,,,,,,,,,,,,,,,,1.7106,818.6424278,None,None,1,818.6424278,None,,P003,fencog,2,Post,2021_Jul_12_1318,N-Back (New Version 2021),2021.1.4,119.8629726
,,,,Conditions/Version_1/twoback(4)_v1.xlsx,New rule: Press 'space' when you see 2-back (i.e. the same letter as the one that appeared 2 letters ago.),y,None,,,,,,,,,0,12,12,12,0,5,5,5,,,,,,,,,,,,,,,,,,,,,,,,,,,,,,,,,,,,,,,,,,,,,,,,,,,,,,,,,,,,,,,,,,,,,1.072,821.7164282,None,None,1,821.7164282,None,,P003,fencog,2,Post,2021_Jul_12_1318,N-Back (New Version 2021),2021.1.4,119.8629726
,,,,Conditions/Version_1/twoback(4)_v1.xlsx,New rule: Press 'space' when you see 2-back (i.e. the same letter as the one that appeared 2 letters ago.),P,space,,,,,,,,,0,12,12,12,0,6,6,6,,,,,,,,,,,,,,,,,,,,,,,,,,,,,,,,,,,,,,,,,,,,,,,,,,,,,,,,,,,,,,,,,,,,,1.8098,825.5324104,None,space,1,825.5324104,None,0.4530342,P003,fencog,2,Post,2021_Jul_12_1318,N-Back (New Version 2021),2021.1.4,119.8629726
,,,,Conditions/Version_1/twoback(4)_v1.xlsx,New rule: Press 'space' when you see 2-back (i.e. the same letter as the one that appeared 2 letters ago.),y,None,,,,,,,,,0,12,12,12,0,7,7,7,,,,,,,,,,,,,,,,,,,,,,,,,,,,,,,,,,,,,,,,,,,,,,,,,,,,,,,,,,,,,,,,,,,,,1.2146,828.7500026,None,None,1,828.7500026,None,,P003,fencog,2,Post,2021_Jul_12_1318,N-Back (New Version 2021),2021.1.4,119.8629726
,,,,Conditions/Version_1/twoback(4)_v1.xlsx,New rule: Press 'space' when you see 2-back (i.e. the same letter as the one that appeared 2 letters ago.),y,space,,,,,,,,,0,12,12,12,0,8,8,8,,,,,,,,,,,,,,,,,,,,,,,,,,,,,,,,,,,,,,,,,,,,,,,,,,,,,,,,,,,,,,,,,,,,,1.0596,831.8218503,None,None,0,831.8218503,None,,P003,fencog,2,Post,2021_Jul_12_1318,N-Back (New Version 2021),2021.1.4,119.8629726
,,,,Conditions/Version_1/twoback(4)_v1.xlsx,New rule: Press 'space' when you see 2-back (i.e. the same letter as the one that appeared 2 letters ago.),,,,,,,,,,,0,12,12,12,,,,,,,,,,,,,,,,,,,,,,,,,,,,,,,,,,,,,,,,,,,,,,,,,,,,,,,,,,,,,,,,,,,,,,,,,,,,,,,,,P003,fencog,2,Post,2021_Jul_12_1318,N-Back (New Version 2021),2021.1.4,119.8629726
,,,,Conditions/Version_1/zeroback(4)_v1.xlsx,New rule: Press 'space' when you see the letter 'x' or 'X'.,o,None,,,,,,,,,0,13,13,13,0,0,0,0,,,,,,,,,,,,,,,,,,,,,,,,,,,,,,,,,,,,,,,,,,,,,,,,,,,,,,,,,,,833.8828768,None,836.8644223,None,space,0.7771556,836.8644223,None,833.8828768,None,1.8966,839.5623916,None,None,1,839.5623916,None,,P003,fencog,2,Post,2021_Jul_12_1318,N-Back (New Version 2021),2021.1.4,119.8629726
,,,,Conditions/Version_1/zeroback(4)_v1.xlsx,New rule: Press 'space' when you see the letter 'x' or 'X'.,X,space,,,,,,,,,0,13,13,13,0,1,1,1,,,,,,,,,,,,,,,,,,,,,,,,,,,,,,,,,,,,,,,,,,,,,,,,,,,,,,,,,,,,,,,,,,,,,1.103,842.6782736,None,space,1,842.6782736,None,0.5390398,P003,fencog,2,Post,2021_Jul_12_1318,N-Back (New Version 2021),2021.1.4,119.8629726
,,,,Conditions/Version_1/zeroback(4)_v1.xlsx,New rule: Press 'space' when you see the letter 'x' or 'X'.,p,None,,,,,,,,,0,13,13,13,0,2,2,2,,,,,,,,,,,,,,,,,,,,,,,,,,,,,,,,,,,,,,,,,,,,,,,,,,,,,,,,,,,,,,,,,,,,,1.3324,846.0180665,None,None,1,846.0180665,None,,P003,fencog,2,Post,2021_Jul_12_1318,N-Back (New Version 2021),2021.1.4,119.8629726
,,,,Conditions/Version_1/zeroback(4)_v1.xlsx,New rule: Press 'space' when you see the letter 'x' or 'X'.,m,None,,,,,,,,,0,13,13,13,0,3,3,3,,,,,,,,,,,,,,,,,,,,,,,,,,,,,,,,,,,,,,,,,,,,,,,,,,,,,,,,,,,,,,,,,,,,,1.9648,849.9829536,None,None,1,849.9829536,None,,P003,fencog,2,Post,2021_Jul_12_1318,N-Back (New Version 2021),2021.1.4,119.8629726
,,,,Conditions/Version_1/zeroback(4)_v1.xlsx,New rule: Press 'space' when you see the letter 'x' or 'X'.,n,None,,,,,,,,,0,13,13,13,0,4,4,4,,,,,,,,,,,,,,,,,,,,,,,,,,,,,,,,,,,,,,,,,,,,,,,,,,,,,,,,,,,,,,,,,,,,,1.9896,853.9746919,None,None,1,853.9746919,None,,P003,fencog,2,Post,2021_Jul_12_1318,N-Back (New Version 2021),2021.1.4,119.8629726
,,,,Conditions/Version_1/zeroback(4)_v1.xlsx,New rule: Press 'space' when you see the letter 'x' or 'X'.,m,None,,,,,,,,,0,13,13,13,0,5,5,5,,,,,,,,,,,,,,,,,,,,,,,,,,,,,,,,,,,,,,,,,,,,,,,,,,,,,,,,,,,,,,,,,,,,,1.9958,857.9806655,None,None,1,857.9806655,None,,P003,fencog,2,Post,2021_Jul_12_1318,N-Back (New Version 2021),2021.1.4,119.8629726
,,,,Conditions/Version_1/zeroback(4)_v1.xlsx,New rule: Press 'space' when you see the letter 'x' or 'X'.,C,None,,,,,,,,,0,13,13,13,0,6,6,6,,,,,,,,,,,,,,,,,,,,,,,,,,,,,,,,,,,,,,,,,,,,,,,,,,,,,,,,,,,,,,,,,,,,,1.4688,861.455113,None,None,1,861.455113,None,,P003,fencog,2,Post,2021_Jul_12_1318,N-Back (New Version 2021),2021.1.4,119.8629726
,,,,Conditions/Version_1/zeroback(4)_v1.xlsx,New rule: Press 'space' when you see the letter 'x' or 'X'.,m,None,,,,,,,,,0,13,13,13,0,7,7,7,,,,,,,,,,,,,,,,,,,,,,,,,,,,,,,,,,,,,,,,,,,,,,,,,,,,,,,,,,,,,,,,,,,,,1.2518,864.7142108,None,None,1,864.7142108,None,,P003,fencog,2,Post,2021_Jul_12_1318,N-Back (New Version 2021),2021.1.4,119.8629726
,,,,Conditions/Version_1/zeroback(4)_v1.xlsx,New rule: Press 'space' when you see the letter 'x' or 'X'.,p,None,,,,,,,,,0,13,13,13,0,8,8,8,,,,,,,,,,,,,,,,,,,,,,,,,,,,,,,,,,,,,,,,,,,,,,,,,,,,,,,,,,,,,,,,,,,,,1.01,867.7371192,None,None,1,867.7371192,None,,P003,fencog,2,Post,2021_Jul_12_1318,N-Back (New Version 2021),2021.1.4,119.8629726
,,,,Conditions/Version_1/zeroback(4)_v1.xlsx,New rule: Press 'space' when you see the letter 'x' or 'X'.,X,space,,,,,,,,,0,13,13,13,0,9,9,9,,,,,,,,,,,,,,,,,,,,,,,,,,,,,,,,,,,,,,,,,,,,,,,,,,,,,,,,,,,,,,,,,,,,,1.0844,870.8360193,None,space,1,870.8360193,None,0.7173625,P003,fencog,2,Post,2021_Jul_12_1318,N-Back (New Version 2021),2021.1.4,119.8629726
,,,,Conditions/Version_1/zeroback(4)_v1.xlsx,New rule: Press 'space' when you see the letter 'x' or 'X'.,,,,,,,,,,,0,13,13,13,,,,,,,,,,,,,,,,,,,,,,,,,,,,,,,,,,,,,,,,,,,,,,,,,,,,,,,,,,,,,,,,,,,,,,,,,,,,,,,,,P003,fencog,2,Post,2021_Jul_12_1318,N-Back (New Version 2021),2021.1.4,119.8629726
,,,,Conditions/Version_1/oneback(4)_v1.xlsx,New rule: Press 'space' when you see 1-back (i.e. the same letter as the one that appeared 1 letter ago.),w,None,,,,,,,,,0,14,14,14,0,0,0,0,,,,,,,,,,,,,,,,,,,,,,,,,,,,,,,,,,,,,,,,,,,,,,,,,,,,,,,,,,,872.8641017,None,875.8537496,None,space,0.6836092,875.8537496,None,872.8641017,None,1.4006,877.9583439,None,None,1,877.9583439,None,,P003,fencog,2,Post,2021_Jul_12_1318,N-Back (New Version 2021),2021.1.4,119.8629726
,,,,Conditions/Version_1/oneback(4)_v1.xlsx,New rule: Press 'space' when you see 1-back (i.e. the same letter as the one that appeared 1 letter ago.),q,None,,,,,,,,,0,14,14,14,0,1,1,1,,,,,,,,,,,,,,,,,,,,,,,,,,,,,,,,,,,,,,,,,,,,,,,,,,,,,,,,,,,,,,,,,,,,,1.8408,881.8013403,None,None,1,881.8013403,None,,P003,fencog,2,Post,2021_Jul_12_1318,N-Back (New Version 2021),2021.1.4,119.8629726
,,,,Conditions/Version_1/oneback(4)_v1.xlsx,New rule: Press 'space' when you see 1-back (i.e. the same letter as the one that appeared 1 letter ago.),i,None,,,,,,,,,0,14,14,14,0,2,2,2,,,,,,,,,,,,,,,,,,,,,,,,,,,,,,,,,,,,,,,,,,,,,,,,,,,,,,,,,,,,,,,,,,,,,1.2518,885.0652412,None,None,1,885.0652412,None,,P003,fencog,2,Post,2021_Jul_12_1318,N-Back (New Version 2021),2021.1.4,119.8629726
,,,,Conditions/Version_1/oneback(4)_v1.xlsx,New rule: Press 'space' when you see 1-back (i.e. the same letter as the one that appeared 1 letter ago.),t,None,,,,,,,,,0,14,14,14,0,3,3,3,,,,,,,,,,,,,,,,,,,,,,,,,,,,,,,,,,,,,,,,,,,,,,,,,,,,,,,,,,,,,,,,,,,,,1.568,888.647275,None,None,1,888.647275,None,,P003,fencog,2,Post,2021_Jul_12_1318,N-Back (New Version 2021),2021.1.4,119.8629726
,,,,Conditions/Version_1/oneback(4)_v1.xlsx,New rule: Press 'space' when you see 1-back (i.e. the same letter as the one that appeared 1 letter ago.),v,None,,,,,,,,,0,14,14,14,0,4,4,4,,,,,,,,,,,,,,,,,,,,,,,,,,,,,,,,,,,,,,,,,,,,,,,,,,,,,,,,,,,,,,,,,,,,,1.3014,891.9667662,None,None,1,891.9667662,None,,P003,fencog,2,Post,2021_Jul_12_1318,N-Back (New Version 2021),2021.1.4,119.8629726
,,,,Conditions/Version_1/oneback(4)_v1.xlsx,New rule: Press 'space' when you see 1-back (i.e. the same letter as the one that appeared 1 letter ago.),V,space,,,,,,,,,0,14,14,14,0,5,5,5,,,,,,,,,,,,,,,,,,,,,,,,,,,,,,,,,,,,,,,,,,,,,,,,,,,,,,,,,,,,,,,,,,,,,1.661,895.6399025,None,space,1,895.6399025,None,0.4332688,P003,fencog,2,Post,2021_Jul_12_1318,N-Back (New Version 2021),2021.1.4,119.8629726
,,,,Conditions/Version_1/oneback(4)_v1.xlsx,New rule: Press 'space' when you see 1-back (i.e. the same letter as the one that appeared 1 letter ago.),v,space,,,,,,,,,0,14,14,14,0,6,6,6,,,,,,,,,,,,,,,,,,,,,,,,,,,,,,,,,,,,,,,,,,,,,,,,,,,,,,,,,,,,,,,,,,,,,1.1154,898.7644842,None,None,0,898.7644842,None,,P003,fencog,2,Post,2021_Jul_12_1318,N-Back (New Version 2021),2021.1.4,119.8629726
,,,,Conditions/Version_1/oneback(4)_v1.xlsx,New rule: Press 'space' when you see 1-back (i.e. the same letter as the one that appeared 1 letter ago.),p,None,,,,,,,,,0,14,14,14,0,7,7,7,,,,,,,,,,,,,,,,,,,,,,,,,,,,,,,,,,,,,,,,,,,,,,,,,,,,,,,,,,,,,,,,,,,,,1.9896,902.7598482,None,None,1,902.7598482,None,,P003,fencog,2,Post,2021_Jul_12_1318,N-Back (New Version 2021),2021.1.4,119.8629726
,,,,Conditions/Version_1/oneback(4)_v1.xlsx,New rule: Press 'space' when you see 1-back (i.e. the same letter as the one that appeared 1 letter ago.),w,None,,,,,,,,,0,14,14,14,0,8,8,8,,,,,,,,,,,,,,,,,,,,,,,,,,,,,,,,,,,,,,,,,,,,,,,,,,,,,,,,,,,,,,,,,,,,,1.785,906.5580385,None,None,1,906.5580385,None,,P003,fencog,2,Post,2021_Jul_12_1318,N-Back (New Version 2021),2021.1.4,119.8629726
,,,,Conditions/Version_1/oneback(4)_v1.xlsx,New rule: Press 'space' when you see 1-back (i.e. the same letter as the one that appeared 1 letter ago.),W,space,,,,,,,,,0,14,14,14,0,9,9,9,,,,,,,,,,,,,,,,,,,,,,,,,,,,,,,,,,,,,,,,,,,,,,,,,,,,,,,,,,,,,,,,,,,,,1.506,910.0654845,None,space,1,910.0654845,None,0.6807459,P003,fencog,2,Post,2021_Jul_12_1318,N-Back (New Version 2021),2021.1.4,119.8629726
,,,,Conditions/Version_1/oneback(4)_v1.xlsx,New rule: Press 'space' when you see 1-back (i.e. the same letter as the one that appeared 1 letter ago.),,,,,,,,,,,0,14,14,14,,,,,,,,,,,,,,,,,,,,,,,,,,,,,,,,,,,,,,,,,,,,,,,,,,,,,,,,,,,,,,,,,,,,,,,,,,,,,,,,,P003,fencog,2,Post,2021_Jul_12_1318,N-Back (New Version 2021),2021.1.4,119.8629726
,,,,Conditions/Version_1/threeback(4)_v1.xlsx,New rule: Press 'space' when you see 3-back (i.e. the same letter as the one that appeared 3 letters ago.),A,None,,,,,,,,,0,15,15,15,0,0,0,0,,,,,,,,,,,,,,,,,,,,,,,,,,,,,,,,,,,,,,,,,,,,,,,,,,,,,,,,,,,912.0874258,None,915.0746807,None,space,0.3984701,915.0746807,None,912.0874258,None,1.4874,916.9921471,None,None,1,916.9921471,None,,P003,fencog,2,Post,2021_Jul_12_1318,N-Back (New Version 2021),2021.1.4,119.8629726
,,,,Conditions/Version_1/threeback(4)_v1.xlsx,New rule: Press 'space' when you see 3-back (i.e. the same letter as the one that appeared 3 letters ago.),n,None,,,,,,,,,0,15,15,15,0,1,1,1,,,,,,,,,,,,,,,,,,,,,,,,,,,,,,,,,,,,,,,,,,,,,,,,,,,,,,,,,,,,,,,,,,,,,1.5432,920.5481546,None,None,1,920.5481546,None,,P003,fencog,2,Post,2021_Jul_12_1318,N-Back (New Version 2021),2021.1.4,119.8629726
,,,,Conditions/Version_1/threeback(4)_v1.xlsx,New rule: Press 'space' when you see 3-back (i.e. the same letter as the one that appeared 3 letters ago.),g,None,,,,,,,,,0,15,15,15,0,2,2,2,,,,,,,,,,,,,,,,,,,,,,,,,,,,,,,,,,,,,,,,,,,,,,,,,,,,,,,,,,,,,,,,,,,,,1.7726,924.328349,None,None,1,924.328349,None,,P003,fencog,2,Post,2021_Jul_12_1318,N-Back (New Version 2021),2021.1.4,119.8629726
,,,,Conditions/Version_1/threeback(4)_v1.xlsx,New rule: Press 'space' when you see 3-back (i.e. the same letter as the one that appeared 3 letters ago.),A,space,,,,,,,,,0,15,15,15,0,3,3,3,,,,,,,,,,,,,,,,,,,,,,,,,,,,,,,,,,,,,,,,,,,,,,,,,,,,,,,,,,,,,,,,,,,,,1.537,927.8707699,None,space,1,927.8707699,None,0.626348,P003,fencog,2,Post,2021_Jul_12_1318,N-Back (New Version 2021),2021.1.4,119.8629726
,,,,Conditions/Version_1/threeback(4)_v1.xlsx,New rule: Press 'space' when you see 3-back (i.e. the same letter as the one that appeared 3 letters ago.),p,None,,,,,,,,,0,15,15,15,0,4,4,4,,,,,,,,,,,,,,,,,,,,,,,,,,,,,,,,,,,,,,,,,,,,,,,,,,,,,,,,,,,,,,,,,,,,,1.041,930.9178142,None,None,1,930.9178142,None,,P003,fencog,2,Post,2021_Jul_12_1318,N-Back (New Version 2021),2021.1.4,119.8629726
,,,,Conditions/Version_1/threeback(4)_v1.xlsx,New rule: Press 'space' when you see 3-back (i.e. the same letter as the one that appeared 3 letters ago.),O,None,,,,,,,,,0,15,15,15,0,5,5,5,,,,,,,,,,,,,,,,,,,,,,,,,,,,,,,,,,,,,,,,,,,,,,,,,,,,,,,,,,,,,,,,,,,,,1.072,933.9917356,None,None,1,933.9917356,None,,P003,fencog,2,Post,2021_Jul_12_1318,N-Back (New Version 2021),2021.1.4,119.8629726
,,,,Conditions/Version_1/threeback(4)_v1.xlsx,New rule: Press 'space' when you see 3-back (i.e. the same letter as the one that appeared 3 letters ago.),a,space,,,,,,,,,0,15,15,15,0,6,6,6,,,,,,,,,,,,,,,,,,,,,,,,,,,,,,,,,,,,,,,,,,,,,,,,,,,,,,,,,,,,,,,,,,,,,1.0472,937.0446849,None,None,0,937.0446849,None,,P003,fencog,2,Post,2021_Jul_12_1318,N-Back (New Version 2021),2021.1.4,119.8629726
,,,,Conditions/Version_1/threeback(4)_v1.xlsx,New rule: Press 'space' when you see 3-back (i.e. the same letter as the one that appeared 3 letters ago.),p,space,,,,,,,,,0,15,15,15,0,7,7,7,,,,,,,,,,,,,,,,,,,,,,,,,,,,,,,,,,,,,,,,,,,,,,,,,,,,,,,,,,,,,,,,,,,,,1.5122,940.5712951,None,space,1,940.5712951,None,0.9256104,P003,fencog,2,Post,2021_Jul_12_1318,N-Back (New Version 2021),2021.1.4,119.8629726
,,,,Conditions/Version_1/threeback(4)_v1.xlsx,New rule: Press 'space' when you see 3-back (i.e. the same letter as the one that appeared 3 letters ago.),x,None,,,,,,,,,0,15,15,15,0,8,8,8,,,,,,,,,,,,,,,,,,,,,,,,,,,,,,,,,,,,,,,,,,,,,,,,,,,,,,,,,,,,,,,,,,,,,1.847,944.4221494,None,None,1,944.4221494,None,,P003,fencog,2,Post,2021_Jul_12_1318,N-Back (New Version 2021),2021.1.4,119.8629726
,,,,Conditions/Version_1/threeback(4)_v1.xlsx,New rule: Press 'space' when you see 3-back (i.e. the same letter as the one that appeared 3 letters ago.),X,None,,,,,,,,,0,15,15,15,0,9,9,9,,,,,,,,,,,,,,,,,,,,,,,,,,,,,,,,,,,,,,,,,,,,,,,,,,,,,,,,,,,,,,,,,,,,,1.0224,947.4459481,None,None,1,947.4459481,None,,P003,fencog,2,Post,2021_Jul_12_1318,N-Back (New Version 2021),2021.1.4,119.8629726
,,,,Conditions/Version_1/threeback(4)_v1.xlsx,New rule: Press 'space' when you see 3-back (i.e. the same letter as the one that appeared 3 letters ago.),,,,,,,,,,,0,15,15,15,,,,,,,,,,,,,,,,,,,,,,,,,,,,,,,,,,,,,,,,,,,,,,,,,,,,,,,,,,,,,,,,,,,,,,,,,,,,,,,,,P003,fencog,2,Post,2021_Jul_12_1318,N-Back (New Version 2021),2021.1.4,119.8629726
