CondFileP,InstructionsP,LettersDisplayedP,CorrectnessP,CondFile,Instructions,LettersDisplayed,Correctness,practicetrials.thisRepN,practicetrials.thisTrialN,practicetrials.thisN,practicetrials.thisIndex,InnerLoopPractice.thisRepN,InnerLoopPractice.thisTrialN,InnerLoopPractice.thisN,InnerLoopPractice.thisIndex,trials.thisRepN,trials.thisTrialN,trials.thisN,trials.thisIndex,InnerLoop.thisRepN,InnerLoop.thisTrialN,InnerLoop.thisN,InnerLoop.thisIndex,TaskVersionText.started,TaskVersionText.stopped,InstrKey1.keys,InstrKey1.rt,InstrKey1.started,InstrKey1.stopped,text.started,text.stopped,key_resp_4.keys,key_resp_4.rt,key_resp_4.started,key_resp_4.stopped,text_2.started,text_2.stopped,key_resp_3.keys,key_resp_3.rt,key_resp_3.started,key_resp_3.stopped,text_3.started,text_3.stopped,key_resp_2.keys,key_resp_2.rt,key_resp_2.started,key_resp_2.stopped,PractIn1.started,PractIn1.stopped,PractIn2.started,PractIn2.stopped,PractInstructionPass.keys,PractInstructionPass.rt,PractInstructionPass.started,PractInstructionPass.stopped,PractBlock1.started,PractBlock1.stopped,ISIjitterPractice,ISI_Pract_Fixation.started,ISI_Pract_Fixation.stopped,N_backP.started,N_backP.stopped,KeyPractice.keys,KeyPractice.corr,KeyPractice.rt,KeyPractice.started,KeyPractice.stopped,text_4.started,text_4.stopped,TransitionText.started,TransitionText.stopped,key_resp_6.keys,key_resp_6.rt,key_resp_6.started,key_resp_6.stopped,text_5.started,text_5.stopped,key_resp_5.keys,key_resp_5.rt,key_resp_5.started,key_resp_5.stopped,MainInt1.started,MainInt1.stopped,MainInt2.started,MainInt2.stopped,InstructionPass.keys,InstructionPass.rt,InstructionPass.started,InstructionPass.stopped,Blocks1.started,Blocks1.stopped,ISIjitter,N_backD.started,N_backD.stopped,key_resp.keys,key_resp.corr,key_resp.started,key_resp.stopped,key_resp.rt,participant,Study Name,Task Version (required to run),PRE/POST,date,expName,psychopyVersion,frameRate,
,,,,,,,,,,,,,,,,,,,,,,,,122.44446090000565,None,space,21.65514850000909,122.92985790000239,None,,,,,,,,,,,,,,,,,,,,,,,,,,,,,,,,,,,,,,,,,,,,,,,,,,,,,,,,,,,,,,,,,,,,,,,P004,fencog,2,Pre,2021_Jul_09_1124,N-Back (New Version 2021),2021.1.4,120.09732687379139,
,,,,,,,,,,,,,,,,,,,,,,,,,,,,,,144.62078640000254,None,space,10.93379680000362,145.11546960000123,None,,,,,,,,,,,,,,,,,,,,,,,,,,,,,,,,,,,,,,,,,,,,,,,,,,,,,,,,,,,,,,,,,P004,fencog,2,Pre,2021_Jul_09_1124,N-Back (New Version 2021),2021.1.4,120.09732687379139,
,,,,,,,,,,,,,,,,,,,,,,,,,,,,,,,,,,,,156.08839240000816,None,space,10.006213599990588,156.57902620000823,None,,,,,,,,,,,,,,,,,,,,,,,,,,,,,,,,,,,,,,,,,,,,,,,,,,,,,,,,,,,P004,fencog,2,Pre,2021_Jul_09_1124,N-Back (New Version 2021),2021.1.4,120.09732687379139,
,,,,,,,,,,,,,,,,,,,,,,,,,,,,,,,,,,,,,,,,,,166.6100473000115,None,space,11.2921689000068,167.10071199999948,None,,,,,,,,,,,,,,,,,,,,,,,,,,,,,,,,,,,,,,,,,,,,,,,,,,,,,P004,fencog,2,Pre,2021_Jul_09_1124,N-Back (New Version 2021),2021.1.4,120.09732687379139,
Conditions/Version_2Pr/zeroback(1)_v2.xlsx,Rule: Press 'space' when you see the letter 'x' or 'X'.,x,space,,,,,0,0,0,0,0,0,0,0,,,,,,,,,,,,,,,,,,,,,,,,,,,,,,,,,179.75945560001128,None,182.7496395000053,None,space,0.5710241999913706,182.7496395000053,None,179.75945560001128,None,1.44,183.3463286000042,None,184.78995840001153,None,space,1,0.2830547000048682,184.78995840001153,None,185.09170620000805,None,,,,,,,,,,,,,,,,,,,,,,,,,,,,,,,P004,fencog,2,Pre,2021_Jul_09_1124,N-Back (New Version 2021),2021.1.4,120.09732687379139,
Conditions/Version_2Pr/zeroback(1)_v2.xlsx,Rule: Press 'space' when you see the letter 'x' or 'X'.,R,None,,,,,0,0,0,0,0,1,1,1,,,,,,,,,,,,,,,,,,,,,,,,,,,,,,,,,,,,,,,,,,,1.265,186.5948253000097,None,187.86174990001018,None,None,1,,187.86174990001018,None,189.8681881000084,None,,,,,,,,,,,,,,,,,,,,,,,,,,,,,,,P004,fencog,2,Pre,2021_Jul_09_1124,N-Back (New Version 2021),2021.1.4,120.09732687379139,
Conditions/Version_2Pr/zeroback(1)_v2.xlsx,Rule: Press 'space' when you see the letter 'x' or 'X'.,p,None,,,,,0,0,0,0,0,2,2,2,,,,,,,,,,,,,,,,,,,,,,,,,,,,,,,,,,,,,,,,,,,1.04,191.36899390000326,None,192.41235589999997,None,space,0,0.23617869999725372,192.41235589999997,None,192.66524450000725,None,,,,,,,,,,,,,,,,,,,,,,,,,,,,,,,P004,fencog,2,Pre,2021_Jul_09_1124,N-Back (New Version 2021),2021.1.4,120.09732687379139,
Conditions/Version_2Pr/zeroback(1)_v2.xlsx,Rule: Press 'space' when you see the letter 'x' or 'X'.,O,None,,,,,0,0,0,0,0,3,3,3,,,,,,,,,,,,,,,,,,,,,,,,,,,,,,,,,,,,,,,,,,,1.415,194.16672680000192,None,195.584371200006,None,None,1,,195.584371200006,None,197.58398600001237,None,,,,,,,,,,,,,,,,,,,,,,,,,,,,,,,P004,fencog,2,Pre,2021_Jul_09_1124,N-Back (New Version 2021),2021.1.4,120.09732687379139,
Conditions/Version_2Pr/zeroback(1)_v2.xlsx,Rule: Press 'space' when you see the letter 'x' or 'X'.,i,None,,,,,0,0,0,0,0,4,4,4,,,,,,,,,,,,,,,,,,,,,,,,,,,,,,,,,,,,,,,,,,,1.515,199.09219150000717,None,200.60727160000533,None,space,0,0.26539580000098795,200.60727160000533,None,200.8848438999994,None,,,,,,,,,,,,,,,,,,,,,,,,,,,,,,,P004,fencog,2,Pre,2021_Jul_09_1124,N-Back (New Version 2021),2021.1.4,120.09732687379139,
Conditions/Version_2Pr/zeroback(1)_v2.xlsx,Rule: Press 'space' when you see the letter 'x' or 'X'.,U,None,,,,,0,0,0,0,0,5,5,5,,,,,,,,,,,,,,,,,,,,,,,,,,,,,,,,,,,,,,,,,,,1.315,202.38956470000267,None,203.70848960000149,None,None,1,,203.70848960000149,None,205.71489120001206,None,,,,,,,,,,,,,,,,,,,,,,,,,,,,,,,P004,fencog,2,Pre,2021_Jul_09_1124,N-Back (New Version 2021),2021.1.4,120.09732687379139,
Conditions/Version_2Pr/zeroback(1)_v2.xlsx,Rule: Press 'space' when you see the letter 'x' or 'X'.,N,None,,,,,0,0,0,0,0,6,6,6,,,,,,,,,,,,,,,,,,,,,,,,,,,,,,,,,,,,,,,,,,,1.815,207.21307920000982,None,209.0314142999996,None,None,1,,209.0314142999996,None,211.03378070000326,None,,,,,,,,,,,,,,,,,,,,,,,,,,,,,,,P004,fencog,2,Pre,2021_Jul_09_1124,N-Back (New Version 2021),2021.1.4,120.09732687379139,
Conditions/Version_2Pr/zeroback(1)_v2.xlsx,Rule: Press 'space' when you see the letter 'x' or 'X'.,m,None,,,,,0,0,0,0,0,7,7,7,,,,,,,,,,,,,,,,,,,,,,,,,,,,,,,,,,,,,,,,,,,1.865,212.53654880000977,None,214.4029683000117,None,None,1,,214.4029683000117,None,216.4102930000081,None,,,,,,,,,,,,,,,,,,,,,,,,,,,,,,,P004,fencog,2,Pre,2021_Jul_09_1124,N-Back (New Version 2021),2021.1.4,120.09732687379139,
Conditions/Version_2Pr/zeroback(1)_v2.xlsx,Rule: Press 'space' when you see the letter 'x' or 'X'.,x,space,,,,,0,0,0,0,0,8,8,8,,,,,,,,,,,,,,,,,,,,,,,,,,,,,,,,,,,,,,,,,,,1.565,217.90969939999923,None,219.479662800004,None,space,1,0.37769769999431446,219.479662800004,None,219.87030710000545,None,,,,,,,,,,,,,,,,,,,,,,,,,,,,,,,P004,fencog,2,Pre,2021_Jul_09_1124,N-Back (New Version 2021),2021.1.4,120.09732687379139,
Conditions/Version_2Pr/zeroback(1)_v2.xlsx,Rule: Press 'space' when you see the letter 'x' or 'X'.,X,space,,,,,0,0,0,0,0,9,9,9,,,,,,,,,,,,,,,,,,,,,,,,,,,,,,,,,,,,,,,,,,,1.39,221.37557760000345,None,222.76748170000792,None,space,1,0.4578593999904115,222.76748170000792,None,223.2412486000103,None,,,,,,,,,,,,,,,,,,,,,,,,,,,,,,,P004,fencog,2,Pre,2021_Jul_09_1124,N-Back (New Version 2021),2021.1.4,120.09732687379139,
Conditions/Version_2Pr/zeroback(1)_v2.xlsx,Rule: Press 'space' when you see the letter 'x' or 'X'.,,,,,,,0,0,0,0,,,,,,,,,,,,,,,,,,,,,,,,,,,,,,,,,,,,,,,,,,,,,,,,,,,,,,,,,,,,,,,,,,,,,,,,,,,,,,,,,,,,,,,,,P004,fencog,2,Pre,2021_Jul_09_1124,N-Back (New Version 2021),2021.1.4,120.09732687379139,
Conditions/Version_2Pr/oneback(1)_v2.xlsx,New rule: Press 'space' when you see 1-back (i.e. the same letter as the one that appeared 1 letter ago.),r,None,,,,,0,1,1,1,0,0,0,0,,,,,,,,,,,,,,,,,,,,,,,,,,,,,,,,,224.76355550000153,None,227.75059010001132,None,space,12.650084299995797,227.75059010001132,None,224.76355550000153,None,1.59,240.41647620000003,None,242.0159461000003,None,None,1,,242.0159461000003,None,244.01878900000884,None,,,,,,,,,,,,,,,,,,,,,,,,,,,,,,,P004,fencog,2,Pre,2021_Jul_09_1124,N-Back (New Version 2021),2021.1.4,120.09732687379139,
Conditions/Version_2Pr/oneback(1)_v2.xlsx,New rule: Press 'space' when you see 1-back (i.e. the same letter as the one that appeared 1 letter ago.),t,None,,,,,0,1,1,1,0,1,1,1,,,,,,,,,,,,,,,,,,,,,,,,,,,,,,,,,,,,,,,,,,,1.465,245.51839960001234,None,246.98536530000274,None,None,1,,246.98536530000274,None,248.9923606000084,None,,,,,,,,,,,,,,,,,,,,,,,,,,,,,,,P004,fencog,2,Pre,2021_Jul_09_1124,N-Back (New Version 2021),2021.1.4,120.09732687379139,
Conditions/Version_2Pr/oneback(1)_v2.xlsx,New rule: Press 'space' when you see 1-back (i.e. the same letter as the one that appeared 1 letter ago.),Y,None,,,,,0,1,1,1,0,2,2,2,,,,,,,,,,,,,,,,,,,,,,,,,,,,,,,,,,,,,,,,,,,1.765,250.49186570000893,None,252.25874470001145,None,None,1,,252.25874470001145,None,254.26577100000577,None,,,,,,,,,,,,,,,,,,,,,,,,,,,,,,,P004,fencog,2,Pre,2021_Jul_09_1124,N-Back (New Version 2021),2021.1.4,120.09732687379139,
Conditions/Version_2Pr/oneback(1)_v2.xlsx,New rule: Press 'space' when you see 1-back (i.e. the same letter as the one that appeared 1 letter ago.),y,space,,,,,0,1,1,1,0,3,3,3,,,,,,,,,,,,,,,,,,,,,,,,,,,,,,,,,,,,,,,,,,,1.265,255.76527990000613,None,257.0331517000013,None,space,1,0.4477671000058763,257.0331517000013,None,257.4908757000085,None,,,,,,,,,,,,,,,,,,,,,,,,,,,,,,,P004,fencog,2,Pre,2021_Jul_09_1124,N-Back (New Version 2021),2021.1.4,120.09732687379139,
Conditions/Version_2Pr/oneback(1)_v2.xlsx,New rule: Press 'space' when you see 1-back (i.e. the same letter as the one that appeared 1 letter ago.),p,None,,,,,0,1,1,1,0,4,4,4,,,,,,,,,,,,,,,,,,,,,,,,,,,,,,,,,,,,,,,,,,,1.815,258.99749050001265,None,260.817667100011,None,None,1,,260.817667100011,None,262.8216274000006,None,,,,,,,,,,,,,,,,,,,,,,,,,,,,,,,P004,fencog,2,Pre,2021_Jul_09_1124,N-Back (New Version 2021),2021.1.4,120.09732687379139,
Conditions/Version_2Pr/oneback(1)_v2.xlsx,New rule: Press 'space' when you see 1-back (i.e. the same letter as the one that appeared 1 letter ago.),P,space,,,,,0,1,1,1,0,5,5,5,,,,,,,,,,,,,,,,,,,,,,,,,,,,,,,,,,,,,,,,,,,1.69,264.3214469000086,None,266.01581900000747,None,space,1,0.28903950001404155,266.01581900000747,None,266.3132825000066,None,,,,,,,,,,,,,,,,,,,,,,,,,,,,,,,P004,fencog,2,Pre,2021_Jul_09_1124,N-Back (New Version 2021),2021.1.4,120.09732687379139,
Conditions/Version_2Pr/oneback(1)_v2.xlsx,New rule: Press 'space' when you see 1-back (i.e. the same letter as the one that appeared 1 letter ago.),e,None,,,,,0,1,1,1,0,6,6,6,,,,,,,,,,,,,,,,,,,,,,,,,,,,,,,,,,,,,,,,,,,1.74,267.82018439999956,None,269.5667381000094,None,None,1,,269.5667381000094,None,271.5690365000046,None,,,,,,,,,,,,,,,,,,,,,,,,,,,,,,,P004,fencog,2,Pre,2021_Jul_09_1124,N-Back (New Version 2021),2021.1.4,120.09732687379139,
Conditions/Version_2Pr/oneback(1)_v2.xlsx,New rule: Press 'space' when you see 1-back (i.e. the same letter as the one that appeared 1 letter ago.),r,None,,,,,0,1,1,1,0,7,7,7,,,,,,,,,,,,,,,,,,,,,,,,,,,,,,,,,,,,,,,,,,,1.29,273.0686126000073,None,274.3597688000009,None,None,1,,274.3597688000009,None,276.363405600001,None,,,,,,,,,,,,,,,,,,,,,,,,,,,,,,,P004,fencog,2,Pre,2021_Jul_09_1124,N-Back (New Version 2021),2021.1.4,120.09732687379139,
Conditions/Version_2Pr/oneback(1)_v2.xlsx,New rule: Press 'space' when you see 1-back (i.e. the same letter as the one that appeared 1 letter ago.),R,space,,,,,0,1,1,1,0,8,8,8,,,,,,,,,,,,,,,,,,,,,,,,,,,,,,,,,,,,,,,,,,,1.565,277.86701780000294,None,279.43675839999923,None,space,1,0.3721632000087993,279.43675839999923,None,279.81827370000246,None,,,,,,,,,,,,,,,,,,,,,,,,,,,,,,,P004,fencog,2,Pre,2021_Jul_09_1124,N-Back (New Version 2021),2021.1.4,120.09732687379139,
Conditions/Version_2Pr/oneback(1)_v2.xlsx,New rule: Press 'space' when you see 1-back (i.e. the same letter as the one that appeared 1 letter ago.),p,None,,,,,0,1,1,1,0,9,9,9,,,,,,,,,,,,,,,,,,,,,,,,,,,,,,,,,,,,,,,,,,,1.09,281.3243855000037,None,282.4244195000065,None,None,1,,282.4244195000065,None,284.42354620000697,None,,,,,,,,,,,,,,,,,,,,,,,,,,,,,,,P004,fencog,2,Pre,2021_Jul_09_1124,N-Back (New Version 2021),2021.1.4,120.09732687379139,
Conditions/Version_2Pr/oneback(1)_v2.xlsx,New rule: Press 'space' when you see 1-back (i.e. the same letter as the one that appeared 1 letter ago.),,,,,,,0,1,1,1,,,,,,,,,,,,,,,,,,,,,,,,,,,,,,,,,,,,,,,,,,,,,,,,,,,,,,,,,,,,,,,,,,,,,,,,,,,,,,,,,,,,,,,,,P004,fencog,2,Pre,2021_Jul_09_1124,N-Back (New Version 2021),2021.1.4,120.09732687379139,
Conditions/Version_2Pr/twoback(1)_v2.xlsx,New rule: Press 'space' when you see 2-back (i.e. the same letter as the one that appeared 2 letters ago.),r,None,,,,,0,2,2,2,0,0,0,0,,,,,,,,,,,,,,,,,,,,,,,,,,,,,,,,,285.9533908000012,None,288.9407591000054,None,space,4.892170299994177,288.9407591000054,None,285.9533908000012,None,1.465,293.84888040000806,None,295.3209852,None,None,1,,295.3209852,None,297.3281054000108,None,,,,,,,,,,,,,,,,,,,,,,,,,,,,,,,P004,fencog,2,Pre,2021_Jul_09_1124,N-Back (New Version 2021),2021.1.4,120.09732687379139,
Conditions/Version_2Pr/twoback(1)_v2.xlsx,New rule: Press 'space' when you see 2-back (i.e. the same letter as the one that appeared 2 letters ago.),P,None,,,,,0,2,2,2,0,1,1,1,,,,,,,,,,,,,,,,,,,,,,,,,,,,,,,,,,,,,,,,,,,1.765,298.8275011000078,None,300.59359850001056,None,None,1,,300.59359850001056,None,302.59319790000154,None,,,,,,,,,,,,,,,,,,,,,,,,,,,,,,,P004,fencog,2,Pre,2021_Jul_09_1124,N-Back (New Version 2021),2021.1.4,120.09732687379139,
Conditions/Version_2Pr/twoback(1)_v2.xlsx,New rule: Press 'space' when you see 2-back (i.e. the same letter as the one that appeared 2 letters ago.),o,None,,,,,0,2,2,2,0,2,2,2,,,,,,,,,,,,,,,,,,,,,,,,,,,,,,,,,,,,,,,,,,,1.715,304.09420550000505,None,305.8097984000051,None,None,1,,305.8097984000051,None,307.8167007000011,None,,,,,,,,,,,,,,,,,,,,,,,,,,,,,,,P004,fencog,2,Pre,2021_Jul_09_1124,N-Back (New Version 2021),2021.1.4,120.09732687379139,
Conditions/Version_2Pr/twoback(1)_v2.xlsx,New rule: Press 'space' when you see 2-back (i.e. the same letter as the one that appeared 2 letters ago.),p,space,,,,,0,2,2,2,0,3,3,3,,,,,,,,,,,,,,,,,,,,,,,,,,,,,,,,,,,,,,,,,,,1.865,309.3162666999997,None,311.18667280000227,None,space,1,0.3592205000022659,311.18667280000227,None,311.5576110000111,None,,,,,,,,,,,,,,,,,,,,,,,,,,,,,,,P004,fencog,2,Pre,2021_Jul_09_1124,N-Back (New Version 2021),2021.1.4,120.09732687379139,
Conditions/Version_2Pr/twoback(1)_v2.xlsx,New rule: Press 'space' when you see 2-back (i.e. the same letter as the one that appeared 2 letters ago.),Y,None,,,,,0,2,2,2,0,4,4,4,,,,,,,,,,,,,,,,,,,,,,,,,,,,,,,,,,,,,,,,,,,1.59,313.06628940001247,None,314.65594780001265,None,None,1,,314.65594780001265,None,316.65573550001136,None,,,,,,,,,,,,,,,,,,,,,,,,,,,,,,,P004,fencog,2,Pre,2021_Jul_09_1124,N-Back (New Version 2021),2021.1.4,120.09732687379139,
Conditions/Version_2Pr/twoback(1)_v2.xlsx,New rule: Press 'space' when you see 2-back (i.e. the same letter as the one that appeared 2 letters ago.),q,None,,,,,0,2,2,2,0,5,5,5,,,,,,,,,,,,,,,,,,,,,,,,,,,,,,,,,,,,,,,,,,,1.99,318.15516940000816,None,320.14767660001235,None,None,1,,320.14767660001235,None,322.1541481000022,None,,,,,,,,,,,,,,,,,,,,,,,,,,,,,,,P004,fencog,2,Pre,2021_Jul_09_1124,N-Back (New Version 2021),2021.1.4,120.09732687379139,
Conditions/Version_2Pr/twoback(1)_v2.xlsx,New rule: Press 'space' when you see 2-back (i.e. the same letter as the one that appeared 2 letters ago.),m,None,,,,,0,2,2,2,0,6,6,6,,,,,,,,,,,,,,,,,,,,,,,,,,,,,,,,,,,,,,,,,,,1.89,323.6536969000008,None,325.54461340000853,None,None,1,,325.54461340000853,None,327.54468110000016,None,,,,,,,,,,,,,,,,,,,,,,,,,,,,,,,P004,fencog,2,Pre,2021_Jul_09_1124,N-Back (New Version 2021),2021.1.4,120.09732687379139,
Conditions/Version_2Pr/twoback(1)_v2.xlsx,New rule: Press 'space' when you see 2-back (i.e. the same letter as the one that appeared 2 letters ago.),Q,space,,,,,0,2,2,2,0,7,7,7,,,,,,,,,,,,,,,,,,,,,,,,,,,,,,,,,,,,,,,,,,,1.09,329.05203380000603,None,330.14485470000363,None,space,1,0.575690300000133,330.14485470000363,None,330.73565729999973,None,,,,,,,,,,,,,,,,,,,,,,,,,,,,,,,P004,fencog,2,Pre,2021_Jul_09_1124,N-Back (New Version 2021),2021.1.4,120.09732687379139,
Conditions/Version_2Pr/twoback(1)_v2.xlsx,New rule: Press 'space' when you see 2-back (i.e. the same letter as the one that appeared 2 letters ago.),L,None,,,,,0,2,2,2,0,8,8,8,,,,,,,,,,,,,,,,,,,,,,,,,,,,,,,,,,,,,,,,,,,1.165,332.2425507000007,None,333.4138171000086,None,None,1,,333.4138171000086,None,335.41696040000534,None,,,,,,,,,,,,,,,,,,,,,,,,,,,,,,,P004,fencog,2,Pre,2021_Jul_09_1124,N-Back (New Version 2021),2021.1.4,120.09732687379139,
Conditions/Version_2Pr/twoback(1)_v2.xlsx,New rule: Press 'space' when you see 2-back (i.e. the same letter as the one that appeared 2 letters ago.),q,space,,,,,0,2,2,2,0,9,9,9,,,,,,,,,,,,,,,,,,,,,,,,,,,,,,,,,,,,,,,,,,,1.815,336.9162902000098,None,338.7346086000034,None,None,0,,338.7346086000034,None,340.7445974000002,None,,,,,,,,,,,,,,,,,,,,,,,,,,,,,,,P004,fencog,2,Pre,2021_Jul_09_1124,N-Back (New Version 2021),2021.1.4,120.09732687379139,
Conditions/Version_2Pr/twoback(1)_v2.xlsx,New rule: Press 'space' when you see 2-back (i.e. the same letter as the one that appeared 2 letters ago.),,,,,,,0,2,2,2,,,,,,,,,,,,,,,,,,,,,,,,,,,,,,,,,,,,,,,,,,,,,,,,,,,,,,,,,,,,,,,,,,,,,,,,,,,,,,,,,,,,,,,,,P004,fencog,2,Pre,2021_Jul_09_1124,N-Back (New Version 2021),2021.1.4,120.09732687379139,
Conditions/Version_2Pr/threeback(1)_v2.xlsx,New rule: Press 'space' when you see 3-back (i.e. the same letter as the one that appeared 3 letters ago.),u,None,,,,,0,3,3,3,0,0,0,0,,,,,,,,,,,,,,,,,,,,,,,,,,,,,,,,,342.26318639999954,None,345.2499566000042,None,space,6.598709099998814,345.2499566000042,None,342.26318639999954,None,1.365,351.86978930000623,None,353.23989140000776,None,None,1,,353.23989140000776,None,355.2442191000009,None,,,,,,,,,,,,,,,,,,,,,,,,,,,,,,,P004,fencog,2,Pre,2021_Jul_09_1124,N-Back (New Version 2021),2021.1.4,120.09732687379139,
Conditions/Version_2Pr/threeback(1)_v2.xlsx,New rule: Press 'space' when you see 3-back (i.e. the same letter as the one that appeared 3 letters ago.),U,None,,,,,0,3,3,3,0,1,1,1,,,,,,,,,,,,,,,,,,,,,,,,,,,,,,,,,,,,,,,,,,,1.84,356.74377270000696,None,358.58595920000516,None,None,1,,358.58595920000516,None,360.5926391000103,None,,,,,,,,,,,,,,,,,,,,,,,,,,,,,,,P004,fencog,2,Pre,2021_Jul_09_1124,N-Back (New Version 2021),2021.1.4,120.09732687379139,
Conditions/Version_2Pr/threeback(1)_v2.xlsx,New rule: Press 'space' when you see 3-back (i.e. the same letter as the one that appeared 3 letters ago.),p,None,,,,,0,3,3,3,0,2,2,2,,,,,,,,,,,,,,,,,,,,,,,,,,,,,,,,,,,,,,,,,,,1.415,362.0922339000099,None,363.5083333000075,None,None,1,,363.5083333000075,None,365.50782000001345,None,,,,,,,,,,,,,,,,,,,,,,,,,,,,,,,P004,fencog,2,Pre,2021_Jul_09_1124,N-Back (New Version 2021),2021.1.4,120.09732687379139,
Conditions/Version_2Pr/threeback(1)_v2.xlsx,New rule: Press 'space' when you see 3-back (i.e. the same letter as the one that appeared 3 letters ago.),U,space,,,,,0,3,3,3,0,3,3,3,,,,,,,,,,,,,,,,,,,,,,,,,,,,,,,,,,,,,,,,,,,1.165,367.00734470000316,None,368.1740613000002,None,space,1,0.41847070000949316,368.1740613000002,None,368.6077728000091,None,,,,,,,,,,,,,,,,,,,,,,,,,,,,,,,P004,fencog,2,Pre,2021_Jul_09_1124,N-Back (New Version 2021),2021.1.4,120.09732687379139,
Conditions/Version_2Pr/threeback(1)_v2.xlsx,New rule: Press 'space' when you see 3-back (i.e. the same letter as the one that appeared 3 letters ago.),e,None,,,,,0,3,3,3,0,4,4,4,,,,,,,,,,,,,,,,,,,,,,,,,,,,,,,,,,,,,,,,,,,1.39,370.11620910000056,None,371.5082856000081,None,None,1,,371.5082856000081,None,373.5142358000012,None,,,,,,,,,,,,,,,,,,,,,,,,,,,,,,,P004,fencog,2,Pre,2021_Jul_09_1124,N-Back (New Version 2021),2021.1.4,120.09732687379139,
Conditions/Version_2Pr/threeback(1)_v2.xlsx,New rule: Press 'space' when you see 3-back (i.e. the same letter as the one that appeared 3 letters ago.),R,None,,,,,0,3,3,3,0,5,5,5,,,,,,,,,,,,,,,,,,,,,,,,,,,,,,,,,,,,,,,,,,,1.59,375.0134695000015,None,376.6068176000117,None,None,1,,376.6068176000117,None,378.6122164000117,None,,,,,,,,,,,,,,,,,,,,,,,,,,,,,,,P004,fencog,2,Pre,2021_Jul_09_1124,N-Back (New Version 2021),2021.1.4,120.09732687379139,
Conditions/Version_2Pr/threeback(1)_v2.xlsx,New rule: Press 'space' when you see 3-back (i.e. the same letter as the one that appeared 3 letters ago.),p,None,,,,,0,3,3,3,0,6,6,6,,,,,,,,,,,,,,,,,,,,,,,,,,,,,,,,,,,,,,,,,,,2.015,380.11196030001156,None,382.1284486000077,None,space,0,0.3044815000030212,382.1284486000077,None,382.44743720001134,None,,,,,,,,,,,,,,,,,,,,,,,,,,,,,,,P004,fencog,2,Pre,2021_Jul_09_1124,N-Back (New Version 2021),2021.1.4,120.09732687379139,
Conditions/Version_2Pr/threeback(1)_v2.xlsx,New rule: Press 'space' when you see 3-back (i.e. the same letter as the one that appeared 3 letters ago.),E,space,,,,,0,3,3,3,0,7,7,7,,,,,,,,,,,,,,,,,,,,,,,,,,,,,,,,,,,,,,,,,,,1.24,383.9523193000059,None,385.19434410000395,None,None,0,,385.19434410000395,None,387.2099332000071,None,,,,,,,,,,,,,,,,,,,,,,,,,,,,,,,P004,fencog,2,Pre,2021_Jul_09_1124,N-Back (New Version 2021),2021.1.4,120.09732687379139,
Conditions/Version_2Pr/threeback(1)_v2.xlsx,New rule: Press 'space' when you see 3-back (i.e. the same letter as the one that appeared 3 letters ago.),k,None,,,,,0,3,3,3,0,8,8,8,,,,,,,,,,,,,,,,,,,,,,,,,,,,,,,,,,,,,,,,,,,1.19,388.7008904000104,None,389.89536110000336,None,None,1,,389.89536110000336,None,391.9005321000004,None,,,,,,,,,,,,,,,,,,,,,,,,,,,,,,,P004,fencog,2,Pre,2021_Jul_09_1124,N-Back (New Version 2021),2021.1.4,120.09732687379139,
Conditions/Version_2Pr/threeback(1)_v2.xlsx,New rule: Press 'space' when you see 3-back (i.e. the same letter as the one that appeared 3 letters ago.),m,None,,,,,0,3,3,3,0,9,9,9,,,,,,,,,,,,,,,,,,,,,,,,,,,,,,,,,,,,,,,,,,,1.865,393.39971300000616,None,395.2681364000018,None,None,1,,395.2681364000018,None,397.27353440001025,None,,,,,,,,,,,,,,,,,,,,,,,,,,,,,,,P004,fencog,2,Pre,2021_Jul_09_1124,N-Back (New Version 2021),2021.1.4,120.09732687379139,
Conditions/Version_2Pr/threeback(1)_v2.xlsx,New rule: Press 'space' when you see 3-back (i.e. the same letter as the one that appeared 3 letters ago.),,,,,,,0,3,3,3,,,,,,,,,,,,,,,,,,,,,,,,,,,,,,,,,,,,,,,,,,,,,,,,,,,,,,,,,,,,,,,,,,,,,,,,,,,,,,,,,,,,,,,,,P004,fencog,2,Pre,2021_Jul_09_1124,N-Back (New Version 2021),2021.1.4,120.09732687379139,
,,,,,,,,,,,,,,,,,,,,,,,,,,,,,,,,,,,,,,,,,,,,,,,,,,,,,,,,,,,,,,,,,,,,,,398.7790634000121,None,space,42.58342129999073,399.27316090000386,None,,,,,,,,,,,,,,,,,,,,,,,,,P004,fencog,2,Pre,2021_Jul_09_1124,N-Back (New Version 2021),2021.1.4,120.09732687379139,
,,,,,,,,,,,,,,,,,,,,,,,,,,,,,,,,,,,,,,,,,,,,,,,,,,,,,,,,,,,,,,,,,,,,,,,,,,,,441.9008087000111,None,space,6.020609399987734,442.38807910001196,None,,,,,,,,,,,,,,,,,,,P004,fencog,2,Pre,2021_Jul_09_1124,N-Back (New Version 2021),2021.1.4,120.09732687379139,
,,,,Conditions/Version_1/zeroback(1)_v1.xlsx,Rule: Press 'space' when you see the letter 'x' or 'X'.,b,None,,,,,,,,,0,0,0,0,0,0,0,0,,,,,,,,,,,,,,,,,,,,,,,,,,,,,,,,,,,,,,,,,,,,,,,,,,,,,,,,,,,448.50803490000544,None,451.4926078000135,None,space,0.42807940000784583,451.4926078000135,None,448.50803490000544,None,1.9586,453.91704000000027,None,None,1,453.91704000000027,None,,P004,fencog,2,Pre,2021_Jul_09_1124,N-Back (New Version 2021),2021.1.4,120.09732687379139,
,,,,Conditions/Version_1/zeroback(1)_v1.xlsx,Rule: Press 'space' when you see the letter 'x' or 'X'.,T,None,,,,,,,,,0,0,0,0,0,1,1,1,,,,,,,,,,,,,,,,,,,,,,,,,,,,,,,,,,,,,,,,,,,,,,,,,,,,,,,,,,,,,,,,,,,,,1.971,457.8922911000118,None,None,1,457.8922911000118,None,,P004,fencog,2,Pre,2021_Jul_09_1124,N-Back (New Version 2021),2021.1.4,120.09732687379139,
,,,,Conditions/Version_1/zeroback(1)_v1.xlsx,Rule: Press 'space' when you see the letter 'x' or 'X'.,L,None,,,,,,,,,0,0,0,0,0,2,2,2,,,,,,,,,,,,,,,,,,,,,,,,,,,,,,,,,,,,,,,,,,,,,,,,,,,,,,,,,,,,,,,,,,,,,1.1774,461.07440170001064,None,None,1,461.07440170001064,None,,P004,fencog,2,Pre,2021_Jul_09_1124,N-Back (New Version 2021),2021.1.4,120.09732687379139,
,,,,Conditions/Version_1/zeroback(1)_v1.xlsx,Rule: Press 'space' when you see the letter 'x' or 'X'.,x,space,,,,,,,,,0,0,0,0,0,3,3,3,,,,,,,,,,,,,,,,,,,,,,,,,,,,,,,,,,,,,,,,,,,,,,,,,,,,,,,,,,,,,,,,,,,,,1.3138,464.3949772000051,None,space,1,464.3949772000051,None,0.3095718999975361,P004,fencog,2,Pre,2021_Jul_09_1124,N-Back (New Version 2021),2021.1.4,120.09732687379139,
,,,,Conditions/Version_1/zeroback(1)_v1.xlsx,Rule: Press 'space' when you see the letter 'x' or 'X'.,o,None,,,,,,,,,0,0,0,0,0,4,4,4,,,,,,,,,,,,,,,,,,,,,,,,,,,,,,,,,,,,,,,,,,,,,,,,,,,,,,,,,,,,,,,,,,,,,1.6424,468.04633920000924,None,None,1,468.04633920000924,None,,P004,fencog,2,Pre,2021_Jul_09_1124,N-Back (New Version 2021),2021.1.4,120.09732687379139,
,,,,Conditions/Version_1/zeroback(1)_v1.xlsx,Rule: Press 'space' when you see the letter 'x' or 'X'.,P,None,,,,,,,,,0,0,0,0,0,5,5,5,,,,,,,,,,,,,,,,,,,,,,,,,,,,,,,,,,,,,,,,,,,,,,,,,,,,,,,,,,,,,,,,,,,,,1.5804,471.6367372000095,None,None,1,471.6367372000095,None,,P004,fencog,2,Pre,2021_Jul_09_1124,N-Back (New Version 2021),2021.1.4,120.09732687379139,
,,,,Conditions/Version_1/zeroback(1)_v1.xlsx,Rule: Press 'space' when you see the letter 'x' or 'X'.,X,space,,,,,,,,,0,0,0,0,0,6,6,6,,,,,,,,,,,,,,,,,,,,,,,,,,,,,,,,,,,,,,,,,,,,,,,,,,,,,,,,,,,,,,,,,,,,,1.3944,475.0428661000042,None,space,1,475.0428661000042,None,0.3498332000017399,P004,fencog,2,Pre,2021_Jul_09_1124,N-Back (New Version 2021),2021.1.4,120.09732687379139,
,,,,Conditions/Version_1/zeroback(1)_v1.xlsx,Rule: Press 'space' when you see the letter 'x' or 'X'.,n,None,,,,,,,,,0,0,0,0,0,7,7,7,,,,,,,,,,,,,,,,,,,,,,,,,,,,,,,,,,,,,,,,,,,,,,,,,,,,,,,,,,,,,,,,,,,,,1.4378,478.4920371000044,None,None,1,478.4920371000044,None,,P004,fencog,2,Pre,2021_Jul_09_1124,N-Back (New Version 2021),2021.1.4,120.09732687379139,
,,,,Conditions/Version_1/zeroback(1)_v1.xlsx,Rule: Press 'space' when you see the letter 'x' or 'X'.,M,None,,,,,,,,,0,0,0,0,0,8,8,8,,,,,,,,,,,,,,,,,,,,,,,,,,,,,,,,,,,,,,,,,,,,,,,,,,,,,,,,,,,,,,,,,,,,,1.2704,481.7771811999992,None,None,1,481.7771811999992,None,,P004,fencog,2,Pre,2021_Jul_09_1124,N-Back (New Version 2021),2021.1.4,120.09732687379139,
,,,,Conditions/Version_1/zeroback(1)_v1.xlsx,Rule: Press 'space' when you see the letter 'x' or 'X'.,a,None,,,,,,,,,0,0,0,0,0,9,9,9,,,,,,,,,,,,,,,,,,,,,,,,,,,,,,,,,,,,,,,,,,,,,,,,,,,,,,,,,,,,,,,,,,,,,1.227,485.0163467000093,None,None,1,485.0163467000093,None,,P004,fencog,2,Pre,2021_Jul_09_1124,N-Back (New Version 2021),2021.1.4,120.09732687379139,
,,,,Conditions/Version_1/zeroback(1)_v1.xlsx,Rule: Press 'space' when you see the letter 'x' or 'X'.,,,,,,,,,,,0,0,0,0,,,,,,,,,,,,,,,,,,,,,,,,,,,,,,,,,,,,,,,,,,,,,,,,,,,,,,,,,,,,,,,,,,,,,,,,,,,,,,,,,P004,fencog,2,Pre,2021_Jul_09_1124,N-Back (New Version 2021),2021.1.4,120.09732687379139,
,,,,Conditions/Version_1/oneback(1)_v1.xlsx,New rule: Press 'space' when you see 1-back (i.e. the same letter as the one that appeared 1 letter ago.),b,None,,,,,,,,,0,1,1,1,0,0,0,0,,,,,,,,,,,,,,,,,,,,,,,,,,,,,,,,,,,,,,,,,,,,,,,,,,,,,,,,,,,487.0437335000024,None,490.0309125000058,None,space,1.3302121999877272,490.0309125000058,None,487.0437335000024,None,1.2084,492.6031946000003,None,None,1,492.6031946000003,None,,P004,fencog,2,Pre,2021_Jul_09_1124,N-Back (New Version 2021),2021.1.4,120.09732687379139,
,,,,Conditions/Version_1/oneback(1)_v1.xlsx,New rule: Press 'space' when you see 1-back (i.e. the same letter as the one that appeared 1 letter ago.),p,None,,,,,,,,,0,1,1,1,0,1,1,1,,,,,,,,,,,,,,,,,,,,,,,,,,,,,,,,,,,,,,,,,,,,,,,,,,,,,,,,,,,,,,,,,,,,,1.1278,495.72762940000393,None,None,1,495.72762940000393,None,,P004,fencog,2,Pre,2021_Jul_09_1124,N-Back (New Version 2021),2021.1.4,120.09732687379139,
,,,,Conditions/Version_1/oneback(1)_v1.xlsx,New rule: Press 'space' when you see 1-back (i.e. the same letter as the one that appeared 1 letter ago.),M,None,,,,,,,,,0,1,1,1,0,2,2,2,,,,,,,,,,,,,,,,,,,,,,,,,,,,,,,,,,,,,,,,,,,,,,,,,,,,,,,,,,,,,,,,,,,,,1.7602,499.4940859000053,None,None,1,499.4940859000053,None,,P004,fencog,2,Pre,2021_Jul_09_1124,N-Back (New Version 2021),2021.1.4,120.09732687379139,
,,,,Conditions/Version_1/oneback(1)_v1.xlsx,New rule: Press 'space' when you see 1-back (i.e. the same letter as the one that appeared 1 letter ago.),M,space,,,,,,,,,0,1,1,1,0,3,3,3,,,,,,,,,,,,,,,,,,,,,,,,,,,,,,,,,,,,,,,,,,,,,,,,,,,,,,,,,,,,,,,,,,,,,1.2952,502.8025106000132,None,space,1,502.8025106000132,None,0.3181135000049835,P004,fencog,2,Pre,2021_Jul_09_1124,N-Back (New Version 2021),2021.1.4,120.09732687379139,
,,,,Conditions/Version_1/oneback(1)_v1.xlsx,New rule: Press 'space' when you see 1-back (i.e. the same letter as the one that appeared 1 letter ago.),n,None,,,,,,,,,0,1,1,1,0,4,4,4,,,,,,,,,,,,,,,,,,,,,,,,,,,,,,,,,,,,,,,,,,,,,,,,,,,,,,,,,,,,,,,,,,,,,1.9648,506.77441520000866,None,None,1,506.77441520000866,None,,P004,fencog,2,Pre,2021_Jul_09_1124,N-Back (New Version 2021),2021.1.4,120.09732687379139,
,,,,Conditions/Version_1/oneback(1)_v1.xlsx,New rule: Press 'space' when you see 1-back (i.e. the same letter as the one that appeared 1 letter ago.),g,None,,,,,,,,,0,1,1,1,0,5,5,5,,,,,,,,,,,,,,,,,,,,,,,,,,,,,,,,,,,,,,,,,,,,,,,,,,,,,,,,,,,,,,,,,,,,,1.816,510.5924445000128,None,None,1,510.5924445000128,None,,P004,fencog,2,Pre,2021_Jul_09_1124,N-Back (New Version 2021),2021.1.4,120.09732687379139,
,,,,Conditions/Version_1/oneback(1)_v1.xlsx,New rule: Press 'space' when you see 1-back (i.e. the same letter as the one that appeared 1 letter ago.),P,None,,,,,,,,,0,1,1,1,0,6,6,6,,,,,,,,,,,,,,,,,,,,,,,,,,,,,,,,,,,,,,,,,,,,,,,,,,,,,,,,,,,,,,,,,,,,,1.4378,514.0400523000135,None,None,1,514.0400523000135,None,,P004,fencog,2,Pre,2021_Jul_09_1124,N-Back (New Version 2021),2021.1.4,120.09732687379139,
,,,,Conditions/Version_1/oneback(1)_v1.xlsx,New rule: Press 'space' when you see 1-back (i.e. the same letter as the one that appeared 1 letter ago.),o,None,,,,,,,,,0,1,1,1,0,7,7,7,,,,,,,,,,,,,,,,,,,,,,,,,,,,,,,,,,,,,,,,,,,,,,,,,,,,,,,,,,,,,,,,,,,,,1.382,517.4300558000105,None,None,1,517.4300558000105,None,,P004,fencog,2,Pre,2021_Jul_09_1124,N-Back (New Version 2021),2021.1.4,120.09732687379139,
,,,,Conditions/Version_1/oneback(1)_v1.xlsx,New rule: Press 'space' when you see 1-back (i.e. the same letter as the one that appeared 1 letter ago.),f,None,,,,,,,,,0,1,1,1,0,8,8,8,,,,,,,,,,,,,,,,,,,,,,,,,,,,,,,,,,,,,,,,,,,,,,,,,,,,,,,,,,,,,,,,,,,,,1.196,520.6412423000002,None,None,1,520.6412423000002,None,,P004,fencog,2,Pre,2021_Jul_09_1124,N-Back (New Version 2021),2021.1.4,120.09732687379139,
,,,,Conditions/Version_1/oneback(1)_v1.xlsx,New rule: Press 'space' when you see 1-back (i.e. the same letter as the one that appeared 1 letter ago.),F,space,,,,,,,,,0,1,1,1,0,9,9,9,,,,,,,,,,,,,,,,,,,,,,,,,,,,,,,,,,,,,,,,,,,,,,,,,,,,,,,,,,,,,,,,,,,,,1.0348,523.686720800004,None,space,1,523.686720800004,None,0.4176368999906117,P004,fencog,2,Pre,2021_Jul_09_1124,N-Back (New Version 2021),2021.1.4,120.09732687379139,
,,,,Conditions/Version_1/oneback(1)_v1.xlsx,New rule: Press 'space' when you see 1-back (i.e. the same letter as the one that appeared 1 letter ago.),,,,,,,,,,,0,1,1,1,,,,,,,,,,,,,,,,,,,,,,,,,,,,,,,,,,,,,,,,,,,,,,,,,,,,,,,,,,,,,,,,,,,,,,,,,,,,,,,,,P004,fencog,2,Pre,2021_Jul_09_1124,N-Back (New Version 2021),2021.1.4,120.09732687379139,
,,,,Conditions/Version_1/twoback(1)_v1.xlsx,New rule: Press 'space' when you see 2-back (i.e. the same letter as the one that appeared 2 letters ago.),b,None,,,,,,,,,0,2,2,2,0,0,0,0,,,,,,,,,,,,,,,,,,,,,,,,,,,,,,,,,,,,,,,,,,,,,,,,,,,,,,,,,,,525.70919590001,None,528.6950123000133,None,space,4.145328499987954,528.6950123000133,None,525.70919590001,None,1.9214,534.7993246000115,None,None,1,534.7993246000115,None,,P004,fencog,2,Pre,2021_Jul_09_1124,N-Back (New Version 2021),2021.1.4,120.09732687379139,
,,,,Conditions/Version_1/twoback(1)_v1.xlsx,New rule: Press 'space' when you see 2-back (i.e. the same letter as the one that appeared 2 letters ago.),h,None,,,,,,,,,0,2,2,2,0,1,1,1,,,,,,,,,,,,,,,,,,,,,,,,,,,,,,,,,,,,,,,,,,,,,,,,,,,,,,,,,,,,,,,,,,,,,1.2518,538.0684120000078,None,None,1,538.0684120000078,None,,P004,fencog,2,Pre,2021_Jul_09_1124,N-Back (New Version 2021),2021.1.4,120.09732687379139,
,,,,Conditions/Version_1/twoback(1)_v1.xlsx,New rule: Press 'space' when you see 2-back (i.e. the same letter as the one that appeared 2 letters ago.),j,None,,,,,,,,,0,2,2,2,0,2,2,2,,,,,,,,,,,,,,,,,,,,,,,,,,,,,,,,,,,,,,,,,,,,,,,,,,,,,,,,,,,,,,,,,,,,,1.2456,541.3167697000026,None,space,0,541.3167697000026,None,0.5316710999904899,P004,fencog,2,Pre,2021_Jul_09_1124,N-Back (New Version 2021),2021.1.4,120.09732687379139,
,,,,Conditions/Version_1/twoback(1)_v1.xlsx,New rule: Press 'space' when you see 2-back (i.e. the same letter as the one that appeared 2 letters ago.),H,space,,,,,,,,,0,2,2,2,0,3,3,3,,,,,,,,,,,,,,,,,,,,,,,,,,,,,,,,,,,,,,,,,,,,,,,,,,,,,,,,,,,,,,,,,,,,,1.4998,544.8251109000121,None,space,1,544.8251109000121,None,0.7753532999922754,P004,fencog,2,Pre,2021_Jul_09_1124,N-Back (New Version 2021),2021.1.4,120.09732687379139,
,,,,Conditions/Version_1/twoback(1)_v1.xlsx,New rule: Press 'space' when you see 2-back (i.e. the same letter as the one that appeared 2 letters ago.),p,None,,,,,,,,,0,2,2,2,0,4,4,4,,,,,,,,,,,,,,,,,,,,,,,,,,,,,,,,,,,,,,,,,,,,,,,,,,,,,,,,,,,,,,,,,,,,,1.2952,548.1287062000047,None,None,1,548.1287062000047,None,,P004,fencog,2,Pre,2021_Jul_09_1124,N-Back (New Version 2021),2021.1.4,120.09732687379139,
,,,,Conditions/Version_1/twoback(1)_v1.xlsx,New rule: Press 'space' when you see 2-back (i.e. the same letter as the one that appeared 2 letters ago.),p,None,,,,,,,,,0,2,2,2,0,5,5,5,,,,,,,,,,,,,,,,,,,,,,,,,,,,,,,,,,,,,,,,,,,,,,,,,,,,,,,,,,,,,,,,,,,,,1.8284,551.9611055999994,None,space,0,551.9611055999994,None,1.8875279999920167,P004,fencog,2,Pre,2021_Jul_09_1124,N-Back (New Version 2021),2021.1.4,120.09732687379139,
,,,,Conditions/Version_1/twoback(1)_v1.xlsx,New rule: Press 'space' when you see 2-back (i.e. the same letter as the one that appeared 2 letters ago.),w,None,,,,,,,,,0,2,2,2,0,6,6,6,,,,,,,,,,,,,,,,,,,,,,,,,,,,,,,,,,,,,,,,,,,,,,,,,,,,,,,,,,,,,,,,,,,,,1.7106,555.6789128000091,None,None,1,555.6789128000091,None,,P004,fencog,2,Pre,2021_Jul_09_1124,N-Back (New Version 2021),2021.1.4,120.09732687379139,
,,,,Conditions/Version_1/twoback(1)_v1.xlsx,New rule: Press 'space' when you see 2-back (i.e. the same letter as the one that appeared 2 letters ago.),R,None,,,,,,,,,0,2,2,2,0,7,7,7,,,,,,,,,,,,,,,,,,,,,,,,,,,,,,,,,,,,,,,,,,,,,,,,,,,,,,,,,,,,,,,,,,,,,1.3262,559.0214962000027,None,None,1,559.0214962000027,None,,P004,fencog,2,Pre,2021_Jul_09_1124,N-Back (New Version 2021),2021.1.4,120.09732687379139,
,,,,Conditions/Version_1/twoback(1)_v1.xlsx,New rule: Press 'space' when you see 2-back (i.e. the same letter as the one that appeared 2 letters ago.),a,None,,,,,,,,,0,2,2,2,0,8,8,8,,,,,,,,,,,,,,,,,,,,,,,,,,,,,,,,,,,,,,,,,,,,,,,,,,,,,,,,,,,,,,,,,,,,,1.0224,562.0500823000039,None,None,1,562.0500823000039,None,,P004,fencog,2,Pre,2021_Jul_09_1124,N-Back (New Version 2021),2021.1.4,120.09732687379139,
,,,,Conditions/Version_1/twoback(1)_v1.xlsx,New rule: Press 'space' when you see 2-back (i.e. the same letter as the one that appeared 2 letters ago.),r,space,,,,,,,,,0,2,2,2,0,9,9,9,,,,,,,,,,,,,,,,,,,,,,,,,,,,,,,,,,,,,,,,,,,,,,,,,,,,,,,,,,,,,,,,,,,,,1.3572,565.4174908999994,None,None,0,565.4174908999994,None,,P004,fencog,2,Pre,2021_Jul_09_1124,N-Back (New Version 2021),2021.1.4,120.09732687379139,
,,,,Conditions/Version_1/twoback(1)_v1.xlsx,New rule: Press 'space' when you see 2-back (i.e. the same letter as the one that appeared 2 letters ago.),,,,,,,,,,,0,2,2,2,,,,,,,,,,,,,,,,,,,,,,,,,,,,,,,,,,,,,,,,,,,,,,,,,,,,,,,,,,,,,,,,,,,,,,,,,,,,,,,,,P004,fencog,2,Pre,2021_Jul_09_1124,N-Back (New Version 2021),2021.1.4,120.09732687379139,
,,,,Conditions/Version_1/threeback(1)_v1.xlsx,New rule: Press 'space' when you see 3-back (i.e. the same letter as the one that appeared 3 letters ago.),r,None,,,,,,,,,0,3,3,3,0,0,0,0,,,,,,,,,,,,,,,,,,,,,,,,,,,,,,,,,,,,,,,,,,,,,,,,,,,,,,,,,,,567.4424553000135,None,570.4325842000108,None,space,18.887823500001105,570.4325842000108,None,567.4424553000135,None,1.506,590.8576797999995,None,None,1,590.8576797999995,None,,P004,fencog,2,Pre,2021_Jul_09_1124,N-Back (New Version 2021),2021.1.4,120.09732687379139,
,,,,Conditions/Version_1/threeback(1)_v1.xlsx,New rule: Press 'space' when you see 3-back (i.e. the same letter as the one that appeared 3 letters ago.),o,None,,,,,,,,,0,3,3,3,0,1,1,1,,,,,,,,,,,,,,,,,,,,,,,,,,,,,,,,,,,,,,,,,,,,,,,,,,,,,,,,,,,,,,,,,,,,,1.816,594.6738624999998,None,None,1,594.6738624999998,None,,P004,fencog,2,Pre,2021_Jul_09_1124,N-Back (New Version 2021),2021.1.4,120.09732687379139,
,,,,Conditions/Version_1/threeback(1)_v1.xlsx,New rule: Press 'space' when you see 3-back (i.e. the same letter as the one that appeared 3 letters ago.),P,None,,,,,,,,,0,3,3,3,0,2,2,2,,,,,,,,,,,,,,,,,,,,,,,,,,,,,,,,,,,,,,,,,,,,,,,,,,,,,,,,,,,,,,,,,,,,,1.5308,598.2164935000037,None,None,1,598.2164935000037,None,,P004,fencog,2,Pre,2021_Jul_09_1124,N-Back (New Version 2021),2021.1.4,120.09732687379139,
,,,,Conditions/Version_1/threeback(1)_v1.xlsx,New rule: Press 'space' when you see 3-back (i.e. the same letter as the one that appeared 3 letters ago.),R,space,,,,,,,,,0,3,3,3,0,3,3,3,,,,,,,,,,,,,,,,,,,,,,,,,,,,,,,,,,,,,,,,,,,,,,,,,,,,,,,,,,,,,,,,,,,,,1.6114,601.8397353000037,None,space,1,601.8397353000037,None,0.3692471999966074,P004,fencog,2,Pre,2021_Jul_09_1124,N-Back (New Version 2021),2021.1.4,120.09732687379139,
,,,,Conditions/Version_1/threeback(1)_v1.xlsx,New rule: Press 'space' when you see 3-back (i.e. the same letter as the one that appeared 3 letters ago.),p,None,,,,,,,,,0,3,3,3,0,4,4,4,,,,,,,,,,,,,,,,,,,,,,,,,,,,,,,,,,,,,,,,,,,,,,,,,,,,,,,,,,,,,,,,,,,,,1.8222,605.6700363000127,None,None,1,605.6700363000127,None,,P004,fencog,2,Pre,2021_Jul_09_1124,N-Back (New Version 2021),2021.1.4,120.09732687379139,
,,,,Conditions/Version_1/threeback(1)_v1.xlsx,New rule: Press 'space' when you see 3-back (i.e. the same letter as the one that appeared 3 letters ago.),E,None,,,,,,,,,0,3,3,3,0,5,5,5,,,,,,,,,,,,,,,,,,,,,,,,,,,,,,,,,,,,,,,,,,,,,,,,,,,,,,,,,,,,,,,,,,,,,1.5122,609.1856407000014,None,None,1,609.1856407000014,None,,P004,fencog,2,Pre,2021_Jul_09_1124,N-Back (New Version 2021),2021.1.4,120.09732687379139,
,,,,Conditions/Version_1/threeback(1)_v1.xlsx,New rule: Press 'space' when you see 3-back (i.e. the same letter as the one that appeared 3 letters ago.),e,None,,,,,,,,,0,3,3,3,0,6,6,6,,,,,,,,,,,,,,,,,,,,,,,,,,,,,,,,,,,,,,,,,,,,,,,,,,,,,,,,,,,,,,,,,,,,,1.2146,612.4034176000132,None,None,1,612.4034176000132,None,,P004,fencog,2,Pre,2021_Jul_09_1124,N-Back (New Version 2021),2021.1.4,120.09732687379139,
,,,,Conditions/Version_1/threeback(1)_v1.xlsx,New rule: Press 'space' when you see 3-back (i.e. the same letter as the one that appeared 3 letters ago.),m,None,,,,,,,,,0,3,3,3,0,7,7,7,,,,,,,,,,,,,,,,,,,,,,,,,,,,,,,,,,,,,,,,,,,,,,,,,,,,,,,,,,,,,,,,,,,,,1.4378,615.850449000005,None,None,1,615.850449000005,None,,P004,fencog,2,Pre,2021_Jul_09_1124,N-Back (New Version 2021),2021.1.4,120.09732687379139,
,,,,Conditions/Version_1/threeback(1)_v1.xlsx,New rule: Press 'space' when you see 3-back (i.e. the same letter as the one that appeared 3 letters ago.),n,None,,,,,,,,,0,3,3,3,0,8,8,8,,,,,,,,,,,,,,,,,,,,,,,,,,,,,,,,,,,,,,,,,,,,,,,,,,,,,,,,,,,,,,,,,,,,,1.9338,619.7831257000071,None,None,1,619.7831257000071,None,,P004,fencog,2,Pre,2021_Jul_09_1124,N-Back (New Version 2021),2021.1.4,120.09732687379139,
,,,,Conditions/Version_1/threeback(1)_v1.xlsx,New rule: Press 'space' when you see 3-back (i.e. the same letter as the one that appeared 3 letters ago.),e,space,,,,,,,,,0,3,3,3,0,9,9,9,,,,,,,,,,,,,,,,,,,,,,,,,,,,,,,,,,,,,,,,,,,,,,,,,,,,,,,,,,,,,,,,,,,,,1.1216,622.9149488000112,None,space,1,622.9149488000112,None,0.6373978999909014,P004,fencog,2,Pre,2021_Jul_09_1124,N-Back (New Version 2021),2021.1.4,120.09732687379139,
,,,,Conditions/Version_1/threeback(1)_v1.xlsx,New rule: Press 'space' when you see 3-back (i.e. the same letter as the one that appeared 3 letters ago.),,,,,,,,,,,0,3,3,3,,,,,,,,,,,,,,,,,,,,,,,,,,,,,,,,,,,,,,,,,,,,,,,,,,,,,,,,,,,,,,,,,,,,,,,,,,,,,,,,,P004,fencog,2,Pre,2021_Jul_09_1124,N-Back (New Version 2021),2021.1.4,120.09732687379139,
,,,,Conditions/Version_1/oneback(2)_v1.xlsx,New rule: Press 'space' when you see 1-back (i.e. the same letter as the one that appeared 1 letter ago.),q,None,,,,,,,,,0,4,4,4,0,0,0,0,,,,,,,,,,,,,,,,,,,,,,,,,,,,,,,,,,,,,,,,,,,,,,,,,,,,,,,,,,,624.9378157000028,None,627.9297840000072,None,space,9.34263239998836,627.9297840000072,None,624.9378157000028,None,1.8408,639.1355425000074,None,None,1,639.1355425000074,None,,P004,fencog,2,Pre,2021_Jul_09_1124,N-Back (New Version 2021),2021.1.4,120.09732687379139,
,,,,Conditions/Version_1/oneback(2)_v1.xlsx,New rule: Press 'space' when you see 1-back (i.e. the same letter as the one that appeared 1 letter ago.),Q,space,,,,,,,,,0,4,4,4,0,1,1,1,,,,,,,,,,,,,,,,,,,,,,,,,,,,,,,,,,,,,,,,,,,,,,,,,,,,,,,,,,,,,,,,,,,,,1.444,642.5840958000044,None,space,1,642.5840958000044,None,0.5760945999936666,P004,fencog,2,Pre,2021_Jul_09_1124,N-Back (New Version 2021),2021.1.4,120.09732687379139,
,,,,Conditions/Version_1/oneback(2)_v1.xlsx,New rule: Press 'space' when you see 1-back (i.e. the same letter as the one that appeared 1 letter ago.),P,None,,,,,,,,,0,4,4,4,0,2,2,2,,,,,,,,,,,,,,,,,,,,,,,,,,,,,,,,,,,,,,,,,,,,,,,,,,,,,,,,,,,,,,,,,,,,,1.196,645.7842655000131,None,None,1,645.7842655000131,None,,P004,fencog,2,Pre,2021_Jul_09_1124,N-Back (New Version 2021),2021.1.4,120.09732687379139,
,,,,Conditions/Version_1/oneback(2)_v1.xlsx,New rule: Press 'space' when you see 1-back (i.e. the same letter as the one that appeared 1 letter ago.),o,None,,,,,,,,,0,4,4,4,0,3,3,3,,,,,,,,,,,,,,,,,,,,,,,,,,,,,,,,,,,,,,,,,,,,,,,,,,,,,,,,,,,,,,,,,,,,,1.4936,649.28231770001,None,None,1,649.28231770001,None,,P004,fencog,2,Pre,2021_Jul_09_1124,N-Back (New Version 2021),2021.1.4,120.09732687379139,
,,,,Conditions/Version_1/oneback(2)_v1.xlsx,New rule: Press 'space' when you see 1-back (i.e. the same letter as the one that appeared 1 letter ago.),m,None,,,,,,,,,0,4,4,4,0,4,4,4,,,,,,,,,,,,,,,,,,,,,,,,,,,,,,,,,,,,,,,,,,,,,,,,,,,,,,,,,,,,,,,,,,,,,1.0906,652.3742182999995,None,None,1,652.3742182999995,None,,P004,fencog,2,Pre,2021_Jul_09_1124,N-Back (New Version 2021),2021.1.4,120.09732687379139,
,,,,Conditions/Version_1/oneback(2)_v1.xlsx,New rule: Press 'space' when you see 1-back (i.e. the same letter as the one that appeared 1 letter ago.),Z,None,,,,,,,,,0,4,4,4,0,5,5,5,,,,,,,,,,,,,,,,,,,,,,,,,,,,,,,,,,,,,,,,,,,,,,,,,,,,,,,,,,,,,,,,,,,,,1.785,656.1791019000084,None,None,1,656.1791019000084,None,,P004,fencog,2,Pre,2021_Jul_09_1124,N-Back (New Version 2021),2021.1.4,120.09732687379139,
,,,,Conditions/Version_1/oneback(2)_v1.xlsx,New rule: Press 'space' when you see 1-back (i.e. the same letter as the one that appeared 1 letter ago.),c,None,,,,,,,,,0,4,4,4,0,6,6,6,,,,,,,,,,,,,,,,,,,,,,,,,,,,,,,,,,,,,,,,,,,,,,,,,,,,,,,,,,,,,,,,,,,,,1.5432,659.7347355000093,None,None,1,659.7347355000093,None,,P004,fencog,2,Pre,2021_Jul_09_1124,N-Back (New Version 2021),2021.1.4,120.09732687379139,
,,,,Conditions/Version_1/oneback(2)_v1.xlsx,New rule: Press 'space' when you see 1-back (i.e. the same letter as the one that appeared 1 letter ago.),c,space,,,,,,,,,0,4,4,4,0,7,7,7,,,,,,,,,,,,,,,,,,,,,,,,,,,,,,,,,,,,,,,,,,,,,,,,,,,,,,,,,,,,,,,,,,,,,1.8718,663.6114324000082,None,space,1,663.6114324000082,None,0.34090340000693686,P004,fencog,2,Pre,2021_Jul_09_1124,N-Back (New Version 2021),2021.1.4,120.09732687379139,
,,,,Conditions/Version_1/oneback(2)_v1.xlsx,New rule: Press 'space' when you see 1-back (i.e. the same letter as the one that appeared 1 letter ago.),P,None,,,,,,,,,0,4,4,4,0,8,8,8,,,,,,,,,,,,,,,,,,,,,,,,,,,,,,,,,,,,,,,,,,,,,,,,,,,,,,,,,,,,,,,,,,,,,1.1712,666.7893385000061,None,None,1,666.7893385000061,None,,P004,fencog,2,Pre,2021_Jul_09_1124,N-Back (New Version 2021),2021.1.4,120.09732687379139,
,,,,Conditions/Version_1/oneback(2)_v1.xlsx,New rule: Press 'space' when you see 1-back (i.e. the same letter as the one that appeared 1 letter ago.),p,space,,,,,,,,,0,4,4,4,0,9,9,9,,,,,,,,,,,,,,,,,,,,,,,,,,,,,,,,,,,,,,,,,,,,,,,,,,,,,,,,,,,,,,,,,,,,,1.5804,670.3777549000079,None,space,1,670.3777549000079,None,0.37442949999240227,P004,fencog,2,Pre,2021_Jul_09_1124,N-Back (New Version 2021),2021.1.4,120.09732687379139,
,,,,Conditions/Version_1/oneback(2)_v1.xlsx,New rule: Press 'space' when you see 1-back (i.e. the same letter as the one that appeared 1 letter ago.),,,,,,,,,,,0,4,4,4,,,,,,,,,,,,,,,,,,,,,,,,,,,,,,,,,,,,,,,,,,,,,,,,,,,,,,,,,,,,,,,,,,,,,,,,,,,,,,,,,P004,fencog,2,Pre,2021_Jul_09_1124,N-Back (New Version 2021),2021.1.4,120.09732687379139,
,,,,Conditions/Version_1/zeroback(2)_v1.xlsx,New rule: Press 'space' when you see the letter 'x' or 'X'.,p,None,,,,,,,,,0,5,5,5,0,0,0,0,,,,,,,,,,,,,,,,,,,,,,,,,,,,,,,,,,,,,,,,,,,,,,,,,,,,,,,,,,,672.4016496000113,None,675.3849935000035,None,space,0.5032802000059746,675.3849935000035,None,672.4016496000113,None,1.2456,677.1590836000105,None,None,1,677.1590836000105,None,,P004,fencog,2,Pre,2021_Jul_09_1124,N-Back (New Version 2021),2021.1.4,120.09732687379139,
,,,,Conditions/Version_1/zeroback(2)_v1.xlsx,New rule: Press 'space' when you see the letter 'x' or 'X'.,L,None,,,,,,,,,0,5,5,5,0,1,1,1,,,,,,,,,,,,,,,,,,,,,,,,,,,,,,,,,,,,,,,,,,,,,,,,,,,,,,,,,,,,,,,,,,,,,1.847,681.015360800011,None,None,1,681.015360800011,None,,P004,fencog,2,Pre,2021_Jul_09_1124,N-Back (New Version 2021),2021.1.4,120.09732687379139,
,,,,Conditions/Version_1/zeroback(2)_v1.xlsx,New rule: Press 'space' when you see the letter 'x' or 'X'.,G,None,,,,,,,,,0,5,5,5,0,2,2,2,,,,,,,,,,,,,,,,,,,,,,,,,,,,,,,,,,,,,,,,,,,,,,,,,,,,,,,,,,,,,,,,,,,,,1.5866,684.6178893000033,None,None,1,684.6178893000033,None,,P004,fencog,2,Pre,2021_Jul_09_1124,N-Back (New Version 2021),2021.1.4,120.09732687379139,
,,,,Conditions/Version_1/zeroback(2)_v1.xlsx,New rule: Press 'space' when you see the letter 'x' or 'X'.,y,None,,,,,,,,,0,5,5,5,0,3,3,3,,,,,,,,,,,,,,,,,,,,,,,,,,,,,,,,,,,,,,,,,,,,,,,,,,,,,,,,,,,,,,,,,,,,,1.723,688.3483256000036,None,None,1,688.3483256000036,None,,P004,fencog,2,Pre,2021_Jul_09_1124,N-Back (New Version 2021),2021.1.4,120.09732687379139,
,,,,Conditions/Version_1/zeroback(2)_v1.xlsx,New rule: Press 'space' when you see the letter 'x' or 'X'.,Y,None,,,,,,,,,0,5,5,5,0,4,4,4,,,,,,,,,,,,,,,,,,,,,,,,,,,,,,,,,,,,,,,,,,,,,,,,,,,,,,,,,,,,,,,,,,,,,1.8346,692.1944221000012,None,None,1,692.1944221000012,None,,P004,fencog,2,Pre,2021_Jul_09_1124,N-Back (New Version 2021),2021.1.4,120.09732687379139,
,,,,Conditions/Version_1/zeroback(2)_v1.xlsx,New rule: Press 'space' when you see the letter 'x' or 'X'.,W,None,,,,,,,,,0,5,5,5,0,5,5,5,,,,,,,,,,,,,,,,,,,,,,,,,,,,,,,,,,,,,,,,,,,,,,,,,,,,,,,,,,,,,,,,,,,,,1.3138,695.5133717000135,None,None,1,695.5133717000135,None,,P004,fencog,2,Pre,2021_Jul_09_1124,N-Back (New Version 2021),2021.1.4,120.09732687379139,
,,,,Conditions/Version_1/zeroback(2)_v1.xlsx,New rule: Press 'space' when you see the letter 'x' or 'X'.,x,space,,,,,,,,,0,5,5,5,0,6,6,6,,,,,,,,,,,,,,,,,,,,,,,,,,,,,,,,,,,,,,,,,,,,,,,,,,,,,,,,,,,,,,,,,,,,,1.8718,699.3949579000036,None,space,1,699.3949579000036,None,0.3895325000048615,P004,fencog,2,Pre,2021_Jul_09_1124,N-Back (New Version 2021),2021.1.4,120.09732687379139,
,,,,Conditions/Version_1/zeroback(2)_v1.xlsx,New rule: Press 'space' when you see the letter 'x' or 'X'.,X,space,,,,,,,,,0,5,5,5,0,7,7,7,,,,,,,,,,,,,,,,,,,,,,,,,,,,,,,,,,,,,,,,,,,,,,,,,,,,,,,,,,,,,,,,,,,,,1.6424,703.0515262000117,None,space,1,703.0515262000117,None,0.4051030999980867,P004,fencog,2,Pre,2021_Jul_09_1124,N-Back (New Version 2021),2021.1.4,120.09732687379139,
,,,,Conditions/Version_1/zeroback(2)_v1.xlsx,New rule: Press 'space' when you see the letter 'x' or 'X'.,p,None,,,,,,,,,0,5,5,5,0,8,8,8,,,,,,,,,,,,,,,,,,,,,,,,,,,,,,,,,,,,,,,,,,,,,,,,,,,,,,,,,,,,,,,,,,,,,1.196,706.2578850999998,None,None,1,706.2578850999998,None,,P004,fencog,2,Pre,2021_Jul_09_1124,N-Back (New Version 2021),2021.1.4,120.09732687379139,
,,,,Conditions/Version_1/zeroback(2)_v1.xlsx,New rule: Press 'space' when you see the letter 'x' or 'X'.,h,None,,,,,,,,,0,5,5,5,0,9,9,9,,,,,,,,,,,,,,,,,,,,,,,,,,,,,,,,,,,,,,,,,,,,,,,,,,,,,,,,,,,,,,,,,,,,,1.7168,709.9818258000014,None,None,1,709.9818258000014,None,,P004,fencog,2,Pre,2021_Jul_09_1124,N-Back (New Version 2021),2021.1.4,120.09732687379139,
,,,,Conditions/Version_1/zeroback(2)_v1.xlsx,New rule: Press 'space' when you see the letter 'x' or 'X'.,,,,,,,,,,,0,5,5,5,,,,,,,,,,,,,,,,,,,,,,,,,,,,,,,,,,,,,,,,,,,,,,,,,,,,,,,,,,,,,,,,,,,,,,,,,,,,,,,,,P004,fencog,2,Pre,2021_Jul_09_1124,N-Back (New Version 2021),2021.1.4,120.09732687379139,
,,,,Conditions/Version_1/threeback(2)_v1.xlsx,New rule: Press 'space' when you see 3-back (i.e. the same letter as the one that appeared 3 letters ago.),q,None,,,,,,,,,0,6,6,6,0,0,0,0,,,,,,,,,,,,,,,,,,,,,,,,,,,,,,,,,,,,,,,,,,,,,,,,,,,,,,,,,,,712.0099329000077,None,714.998301700005,None,space,12.282016700002714,714.998301700005,None,712.0099329000077,None,1.3138,728.6170489000069,None,None,1,728.6170489000069,None,,P004,fencog,2,Pre,2021_Jul_09_1124,N-Back (New Version 2021),2021.1.4,120.09732687379139,
,,,,Conditions/Version_1/threeback(2)_v1.xlsx,New rule: Press 'space' when you see 3-back (i.e. the same letter as the one that appeared 3 letters ago.),Y,None,,,,,,,,,0,6,6,6,0,1,1,1,,,,,,,,,,,,,,,,,,,,,,,,,,,,,,,,,,,,,,,,,,,,,,,,,,,,,,,,,,,,,,,,,,,,,1.9586,732.5847971000039,None,None,1,732.5847971000039,None,,P004,fencog,2,Pre,2021_Jul_09_1124,N-Back (New Version 2021),2021.1.4,120.09732687379139,
,,,,Conditions/Version_1/threeback(2)_v1.xlsx,New rule: Press 'space' when you see 3-back (i.e. the same letter as the one that appeared 3 letters ago.),p,None,,,,,,,,,0,6,6,6,0,2,2,2,,,,,,,,,,,,,,,,,,,,,,,,,,,,,,,,,,,,,,,,,,,,,,,,,,,,,,,,,,,,,,,,,,,,,1.1402,735.7256747000065,None,None,1,735.7256747000065,None,,P004,fencog,2,Pre,2021_Jul_09_1124,N-Back (New Version 2021),2021.1.4,120.09732687379139,
,,,,Conditions/Version_1/threeback(2)_v1.xlsx,New rule: Press 'space' when you see 3-back (i.e. the same letter as the one that appeared 3 letters ago.),p,None,,,,,,,,,0,6,6,6,0,3,3,3,,,,,,,,,,,,,,,,,,,,,,,,,,,,,,,,,,,,,,,,,,,,,,,,,,,,,,,,,,,,,,,,,,,,,1.2332,738.9639001000032,None,None,1,738.9639001000032,None,,P004,fencog,2,Pre,2021_Jul_09_1124,N-Back (New Version 2021),2021.1.4,120.09732687379139,
,,,,Conditions/Version_1/threeback(2)_v1.xlsx,New rule: Press 'space' when you see 3-back (i.e. the same letter as the one that appeared 3 letters ago.),y,space,,,,,,,,,0,6,6,6,0,4,4,4,,,,,,,,,,,,,,,,,,,,,,,,,,,,,,,,,,,,,,,,,,,,,,,,,,,,,,,,,,,,,,,,,,,,,1.8222,742.7906598000118,None,None,0,742.7906598000118,None,,P004,fencog,2,Pre,2021_Jul_09_1124,N-Back (New Version 2021),2021.1.4,120.09732687379139,
,,,,Conditions/Version_1/threeback(2)_v1.xlsx,New rule: Press 'space' when you see 3-back (i.e. the same letter as the one that appeared 3 letters ago.),u,None,,,,,,,,,0,6,6,6,0,5,5,5,,,,,,,,,,,,,,,,,,,,,,,,,,,,,,,,,,,,,,,,,,,,,,,,,,,,,,,,,,,,,,,,,,,,,1.9834,746.7833274000004,None,None,1,746.7833274000004,None,,P004,fencog,2,Pre,2021_Jul_09_1124,N-Back (New Version 2021),2021.1.4,120.09732687379139,
,,,,Conditions/Version_1/threeback(2)_v1.xlsx,New rule: Press 'space' when you see 3-back (i.e. the same letter as the one that appeared 3 letters ago.),P,space,,,,,,,,,0,6,6,6,0,6,6,6,,,,,,,,,,,,,,,,,,,,,,,,,,,,,,,,,,,,,,,,,,,,,,,,,,,,,,,,,,,,,,,,,,,,,1.196,749.9875950999995,None,space,1,749.9875950999995,None,0.6365007999993395,P004,fencog,2,Pre,2021_Jul_09_1124,N-Back (New Version 2021),2021.1.4,120.09732687379139,
,,,,Conditions/Version_1/threeback(2)_v1.xlsx,New rule: Press 'space' when you see 3-back (i.e. the same letter as the one that appeared 3 letters ago.),a,None,,,,,,,,,0,6,6,6,0,7,7,7,,,,,,,,,,,,,,,,,,,,,,,,,,,,,,,,,,,,,,,,,,,,,,,,,,,,,,,,,,,,,,,,,,,,,1.7044,753.7024958000111,None,None,1,753.7024958000111,None,,P004,fencog,2,Pre,2021_Jul_09_1124,N-Back (New Version 2021),2021.1.4,120.09732687379139,
,,,,Conditions/Version_1/threeback(2)_v1.xlsx,New rule: Press 'space' when you see 3-back (i.e. the same letter as the one that appeared 3 letters ago.),U,space,,,,,,,,,0,6,6,6,0,8,8,8,,,,,,,,,,,,,,,,,,,,,,,,,,,,,,,,,,,,,,,,,,,,,,,,,,,,,,,,,,,,,,,,,,,,,1.9772,757.6928377000004,None,None,0,757.6928377000004,None,,P004,fencog,2,Pre,2021_Jul_09_1124,N-Back (New Version 2021),2021.1.4,120.09732687379139,
,,,,Conditions/Version_1/threeback(2)_v1.xlsx,New rule: Press 'space' when you see 3-back (i.e. the same letter as the one that appeared 3 letters ago.),q,None,,,,,,,,,0,6,6,6,0,9,9,9,,,,,,,,,,,,,,,,,,,,,,,,,,,,,,,,,,,,,,,,,,,,,,,,,,,,,,,,,,,,,,,,,,,,,1.5494,761.2490170000092,None,None,1,761.2490170000092,None,,P004,fencog,2,Pre,2021_Jul_09_1124,N-Back (New Version 2021),2021.1.4,120.09732687379139,
,,,,Conditions/Version_1/threeback(2)_v1.xlsx,New rule: Press 'space' when you see 3-back (i.e. the same letter as the one that appeared 3 letters ago.),,,,,,,,,,,0,6,6,6,,,,,,,,,,,,,,,,,,,,,,,,,,,,,,,,,,,,,,,,,,,,,,,,,,,,,,,,,,,,,,,,,,,,,,,,,,,,,,,,,P004,fencog,2,Pre,2021_Jul_09_1124,N-Back (New Version 2021),2021.1.4,120.09732687379139,
,,,,Conditions/Version_1/twoback(2)_v1.xlsx,New rule: Press 'space' when you see 2-back (i.e. the same letter as the one that appeared 2 letters ago.),q,None,,,,,,,,,0,7,7,7,0,0,0,0,,,,,,,,,,,,,,,,,,,,,,,,,,,,,,,,,,,,,,,,,,,,,,,,,,,,,,,,,,,763.2761335000105,None,766.259312500013,None,space,8.588764100000844,766.259312500013,None,763.2761335000105,None,1.3262,776.1953247000056,None,None,1,776.1953247000056,None,,P004,fencog,2,Pre,2021_Jul_09_1124,N-Back (New Version 2021),2021.1.4,120.09732687379139,
,,,,Conditions/Version_1/twoback(2)_v1.xlsx,New rule: Press 'space' when you see 2-back (i.e. the same letter as the one that appeared 2 letters ago.),r,None,,,,,,,,,0,7,7,7,0,1,1,1,,,,,,,,,,,,,,,,,,,,,,,,,,,,,,,,,,,,,,,,,,,,,,,,,,,,,,,,,,,,,,,,,,,,,1.9214,780.1185110000079,None,None,1,780.1185110000079,None,,P004,fencog,2,Pre,2021_Jul_09_1124,N-Back (New Version 2021),2021.1.4,120.09732687379139,
,,,,Conditions/Version_1/twoback(2)_v1.xlsx,New rule: Press 'space' when you see 2-back (i.e. the same letter as the one that appeared 2 letters ago.),q,space,,,,,,,,,0,7,7,7,0,2,2,2,,,,,,,,,,,,,,,,,,,,,,,,,,,,,,,,,,,,,,,,,,,,,,,,,,,,,,,,,,,,,,,,,,,,,1.0224,783.1550803000137,None,space,1,783.1550803000137,None,0.45301430000108667,P004,fencog,2,Pre,2021_Jul_09_1124,N-Back (New Version 2021),2021.1.4,120.09732687379139,
,,,,Conditions/Version_1/twoback(2)_v1.xlsx,New rule: Press 'space' when you see 2-back (i.e. the same letter as the one that appeared 2 letters ago.),P,None,,,,,,,,,0,7,7,7,0,3,3,3,,,,,,,,,,,,,,,,,,,,,,,,,,,,,,,,,,,,,,,,,,,,,,,,,,,,,,,,,,,,,,,,,,,,,1.32,786.4772208000068,None,None,1,786.4772208000068,None,,P004,fencog,2,Pre,2021_Jul_09_1124,N-Back (New Version 2021),2021.1.4,120.09732687379139,
,,,,Conditions/Version_1/twoback(2)_v1.xlsx,New rule: Press 'space' when you see 2-back (i.e. the same letter as the one that appeared 2 letters ago.),p,None,,,,,,,,,0,7,7,7,0,4,4,4,,,,,,,,,,,,,,,,,,,,,,,,,,,,,,,,,,,,,,,,,,,,,,,,,,,,,,,,,,,,,,,,,,,,,1.1154,789.6000779000024,None,space,0,789.6000779000024,None,0.6322006000118563,P004,fencog,2,Pre,2021_Jul_09_1124,N-Back (New Version 2021),2021.1.4,120.09732687379139,
,,,,Conditions/Version_1/twoback(2)_v1.xlsx,New rule: Press 'space' when you see 2-back (i.e. the same letter as the one that appeared 2 letters ago.),H,None,,,,,,,,,0,7,7,7,0,5,5,5,,,,,,,,,,,,,,,,,,,,,,,,,,,,,,,,,,,,,,,,,,,,,,,,,,,,,,,,,,,,,,,,,,,,,1.94,793.5510630000063,None,None,1,793.5510630000063,None,,P004,fencog,2,Pre,2021_Jul_09_1124,N-Back (New Version 2021),2021.1.4,120.09732687379139,
,,,,Conditions/Version_1/twoback(2)_v1.xlsx,New rule: Press 'space' when you see 2-back (i.e. the same letter as the one that appeared 2 letters ago.),g,None,,,,,,,,,0,7,7,7,0,6,6,6,,,,,,,,,,,,,,,,,,,,,,,,,,,,,,,,,,,,,,,,,,,,,,,,,,,,,,,,,,,,,,,,,,,,,1.6734,797.2300188000081,None,None,1,797.2300188000081,None,,P004,fencog,2,Pre,2021_Jul_09_1124,N-Back (New Version 2021),2021.1.4,120.09732687379139,
,,,,Conditions/Version_1/twoback(2)_v1.xlsx,New rule: Press 'space' when you see 2-back (i.e. the same letter as the one that appeared 2 letters ago.),j,None,,,,,,,,,0,7,7,7,0,7,7,7,,,,,,,,,,,,,,,,,,,,,,,,,,,,,,,,,,,,,,,,,,,,,,,,,,,,,,,,,,,,,,,,,,,,,1.5246,800.754932300013,None,None,1,800.754932300013,None,,P004,fencog,2,Pre,2021_Jul_09_1124,N-Back (New Version 2021),2021.1.4,120.09732687379139,
,,,,Conditions/Version_1/twoback(2)_v1.xlsx,New rule: Press 'space' when you see 2-back (i.e. the same letter as the one that appeared 2 letters ago.),g,space,,,,,,,,,0,7,7,7,0,8,8,8,,,,,,,,,,,,,,,,,,,,,,,,,,,,,,,,,,,,,,,,,,,,,,,,,,,,,,,,,,,,,,,,,,,,,1.5494,804.3178109,None,space,1,804.3178109,None,0.5142628000030527,P004,fencog,2,Pre,2021_Jul_09_1124,N-Back (New Version 2021),2021.1.4,120.09732687379139,
,,,,Conditions/Version_1/twoback(2)_v1.xlsx,New rule: Press 'space' when you see 2-back (i.e. the same letter as the one that appeared 2 letters ago.),G,None,,,,,,,,,0,7,7,7,0,9,9,9,,,,,,,,,,,,,,,,,,,,,,,,,,,,,,,,,,,,,,,,,,,,,,,,,,,,,,,,,,,,,,,,,,,,,1.5928,807.9211127000017,None,None,1,807.9211127000017,None,,P004,fencog,2,Pre,2021_Jul_09_1124,N-Back (New Version 2021),2021.1.4,120.09732687379139,
,,,,Conditions/Version_1/twoback(2)_v1.xlsx,New rule: Press 'space' when you see 2-back (i.e. the same letter as the one that appeared 2 letters ago.),,,,,,,,,,,0,7,7,7,,,,,,,,,,,,,,,,,,,,,,,,,,,,,,,,,,,,,,,,,,,,,,,,,,,,,,,,,,,,,,,,,,,,,,,,,,,,,,,,,P004,fencog,2,Pre,2021_Jul_09_1124,N-Back (New Version 2021),2021.1.4,120.09732687379139,
,,,,Conditions/Version_1/threeback(3)_v1.xlsx,New rule: Press 'space' when you see 3-back (i.e. the same letter as the one that appeared 3 letters ago.),w,None,,,,,,,,,0,8,8,8,0,0,0,0,,,,,,,,,,,,,,,,,,,,,,,,,,,,,,,,,,,,,,,,,,,,,,,,,,,,,,,,,,,809.9566160000104,None,812.9369609999994,None,space,2.7992814000026556,812.9369609999994,None,809.9566160000104,None,1.5246,817.2835737999994,None,None,1,817.2835737999994,None,,P004,fencog,2,Pre,2021_Jul_09_1124,N-Back (New Version 2021),2021.1.4,120.09732687379139,
,,,,Conditions/Version_1/threeback(3)_v1.xlsx,New rule: Press 'space' when you see 3-back (i.e. the same letter as the one that appeared 3 letters ago.),p,None,,,,,,,,,0,8,8,8,0,1,1,1,,,,,,,,,,,,,,,,,,,,,,,,,,,,,,,,,,,,,,,,,,,,,,,,,,,,,,,,,,,,,,,,,,,,,1.5122,820.8091623000073,None,None,1,820.8091623000073,None,,P004,fencog,2,Pre,2021_Jul_09_1124,N-Back (New Version 2021),2021.1.4,120.09732687379139,
,,,,Conditions/Version_1/threeback(3)_v1.xlsx,New rule: Press 'space' when you see 3-back (i.e. the same letter as the one that appeared 3 letters ago.),P,None,,,,,,,,,0,8,8,8,0,2,2,2,,,,,,,,,,,,,,,,,,,,,,,,,,,,,,,,,,,,,,,,,,,,,,,,,,,,,,,,,,,,,,,,,,,,,1.7478,824.5675238000113,None,None,1,824.5675238000113,None,,P004,fencog,2,Pre,2021_Jul_09_1124,N-Back (New Version 2021),2021.1.4,120.09732687379139,
,,,,Conditions/Version_1/threeback(3)_v1.xlsx,New rule: Press 'space' when you see 3-back (i.e. the same letter as the one that appeared 3 letters ago.),i,None,,,,,,,,,0,8,8,8,0,3,3,3,,,,,,,,,,,,,,,,,,,,,,,,,,,,,,,,,,,,,,,,,,,,,,,,,,,,,,,,,,,,,,,,,,,,,1.0782,827.6550130000105,None,None,1,827.6550130000105,None,,P004,fencog,2,Pre,2021_Jul_09_1124,N-Back (New Version 2021),2021.1.4,120.09732687379139,
,,,,Conditions/Version_1/threeback(3)_v1.xlsx,New rule: Press 'space' when you see 3-back (i.e. the same letter as the one that appeared 3 letters ago.),f,None,,,,,,,,,0,8,8,8,0,4,4,4,,,,,,,,,,,,,,,,,,,,,,,,,,,,,,,,,,,,,,,,,,,,,,,,,,,,,,,,,,,,,,,,,,,,,1.32,830.9821721000044,None,None,1,830.9821721000044,None,,P004,fencog,2,Pre,2021_Jul_09_1124,N-Back (New Version 2021),2021.1.4,120.09732687379139,
,,,,Conditions/Version_1/threeback(3)_v1.xlsx,New rule: Press 'space' when you see 3-back (i.e. the same letter as the one that appeared 3 letters ago.),o,None,,,,,,,,,0,8,8,8,0,5,5,5,,,,,,,,,,,,,,,,,,,,,,,,,,,,,,,,,,,,,,,,,,,,,,,,,,,,,,,,,,,,,,,,,,,,,1.4068,834.4108899999992,None,None,1,834.4108899999992,None,,P004,fencog,2,Pre,2021_Jul_09_1124,N-Back (New Version 2021),2021.1.4,120.09732687379139,
,,,,Conditions/Version_1/threeback(3)_v1.xlsx,New rule: Press 'space' when you see 3-back (i.e. the same letter as the one that appeared 3 letters ago.),w,None,,,,,,,,,0,8,8,8,0,6,6,6,,,,,,,,,,,,,,,,,,,,,,,,,,,,,,,,,,,,,,,,,,,,,,,,,,,,,,,,,,,,,,,,,,,,,1.0534,837.4691319000121,None,None,1,837.4691319000121,None,,P004,fencog,2,Pre,2021_Jul_09_1124,N-Back (New Version 2021),2021.1.4,120.09732687379139,
,,,,Conditions/Version_1/threeback(3)_v1.xlsx,New rule: Press 'space' when you see 3-back (i.e. the same letter as the one that appeared 3 letters ago.),F,space,,,,,,,,,0,8,8,8,0,7,7,7,,,,,,,,,,,,,,,,,,,,,,,,,,,,,,,,,,,,,,,,,,,,,,,,,,,,,,,,,,,,,,,,,,,,,1.568,841.0506018000015,None,space,1,841.0506018000015,None,0.30945749999955297,P004,fencog,2,Pre,2021_Jul_09_1124,N-Back (New Version 2021),2021.1.4,120.09732687379139,
,,,,Conditions/Version_1/threeback(3)_v1.xlsx,New rule: Press 'space' when you see 3-back (i.e. the same letter as the one that appeared 3 letters ago.),p,None,,,,,,,,,0,8,8,8,0,8,8,8,,,,,,,,,,,,,,,,,,,,,,,,,,,,,,,,,,,,,,,,,,,,,,,,,,,,,,,,,,,,,,,,,,,,,1.6176,844.6797857000056,None,None,1,844.6797857000056,None,,P004,fencog,2,Pre,2021_Jul_09_1124,N-Back (New Version 2021),2021.1.4,120.09732687379139,
,,,,Conditions/Version_1/threeback(3)_v1.xlsx,New rule: Press 'space' when you see 3-back (i.e. the same letter as the one that appeared 3 letters ago.),W,space,,,,,,,,,0,8,8,8,0,9,9,9,,,,,,,,,,,,,,,,,,,,,,,,,,,,,,,,,,,,,,,,,,,,,,,,,,,,,,,,,,,,,,,,,,,,,1.0596,847.7484250000125,None,space,1,847.7484250000125,None,1.1798342999973102,P004,fencog,2,Pre,2021_Jul_09_1124,N-Back (New Version 2021),2021.1.4,120.09732687379139,
,,,,Conditions/Version_1/threeback(3)_v1.xlsx,New rule: Press 'space' when you see 3-back (i.e. the same letter as the one that appeared 3 letters ago.),,,,,,,,,,,0,8,8,8,,,,,,,,,,,,,,,,,,,,,,,,,,,,,,,,,,,,,,,,,,,,,,,,,,,,,,,,,,,,,,,,,,,,,,,,,,,,,,,,,P004,fencog,2,Pre,2021_Jul_09_1124,N-Back (New Version 2021),2021.1.4,120.09732687379139,
,,,,Conditions/Version_1/zeroback(3)_v1.xlsx,New rule: Press 'space' when you see the letter 'x' or 'X'.,X,space,,,,,,,,,0,9,9,9,0,0,0,0,,,,,,,,,,,,,,,,,,,,,,,,,,,,,,,,,,,,,,,,,,,,,,,,,,,,,,,,,,,849.7693994000001,None,852.7578020000074,None,space,0.7462101999990409,852.7578020000074,None,849.7693994000001,None,1.5308,855.0566825000133,None,space,1,855.0566825000133,None,0.3914939000096638,P004,fencog,2,Pre,2021_Jul_09_1124,N-Back (New Version 2021),2021.1.4,120.09732687379139,
,,,,Conditions/Version_1/zeroback(3)_v1.xlsx,New rule: Press 'space' when you see the letter 'x' or 'X'.,B,None,,,,,,,,,0,9,9,9,0,1,1,1,,,,,,,,,,,,,,,,,,,,,,,,,,,,,,,,,,,,,,,,,,,,,,,,,,,,,,,,,,,,,,,,,,,,,1.8718,858.939730500002,None,None,1,858.939730500002,None,,P004,fencog,2,Pre,2021_Jul_09_1124,N-Back (New Version 2021),2021.1.4,120.09732687379139,
,,,,Conditions/Version_1/zeroback(3)_v1.xlsx,New rule: Press 'space' when you see the letter 'x' or 'X'.,m,None,,,,,,,,,0,9,9,9,0,2,2,2,,,,,,,,,,,,,,,,,,,,,,,,,,,,,,,,,,,,,,,,,,,,,,,,,,,,,,,,,,,,,,,,,,,,,1.8842,862.8421110000054,None,None,1,862.8421110000054,None,,P004,fencog,2,Pre,2021_Jul_09_1124,N-Back (New Version 2021),2021.1.4,120.09732687379139,
,,,,Conditions/Version_1/zeroback(3)_v1.xlsx,New rule: Press 'space' when you see the letter 'x' or 'X'.,m,None,,,,,,,,,0,9,9,9,0,3,3,3,,,,,,,,,,,,,,,,,,,,,,,,,,,,,,,,,,,,,,,,,,,,,,,,,,,,,,,,,,,,,,,,,,,,,1.227,866.0684855,None,None,1,866.0684855,None,,P004,fencog,2,Pre,2021_Jul_09_1124,N-Back (New Version 2021),2021.1.4,120.09732687379139,
,,,,Conditions/Version_1/zeroback(3)_v1.xlsx,New rule: Press 'space' when you see the letter 'x' or 'X'.,o,None,,,,,,,,,0,9,9,9,0,4,4,4,,,,,,,,,,,,,,,,,,,,,,,,,,,,,,,,,,,,,,,,,,,,,,,,,,,,,,,,,,,,,,,,,,,,,1.0906,869.1597327000054,None,None,1,869.1597327000054,None,,P004,fencog,2,Pre,2021_Jul_09_1124,N-Back (New Version 2021),2021.1.4,120.09732687379139,
,,,,Conditions/Version_1/zeroback(3)_v1.xlsx,New rule: Press 'space' when you see the letter 'x' or 'X'.,p,None,,,,,,,,,0,9,9,9,0,5,5,5,,,,,,,,,,,,,,,,,,,,,,,,,,,,,,,,,,,,,,,,,,,,,,,,,,,,,,,,,,,,,,,,,,,,,1.7354,872.9097249000042,None,None,1,872.9097249000042,None,,P004,fencog,2,Pre,2021_Jul_09_1124,N-Back (New Version 2021),2021.1.4,120.09732687379139,
,,,,Conditions/Version_1/zeroback(3)_v1.xlsx,New rule: Press 'space' when you see the letter 'x' or 'X'.,G,None,,,,,,,,,0,9,9,9,0,6,6,6,,,,,,,,,,,,,,,,,,,,,,,,,,,,,,,,,,,,,,,,,,,,,,,,,,,,,,,,,,,,,,,,,,,,,1.1154,876.0317328000092,None,None,1,876.0317328000092,None,,P004,fencog,2,Pre,2021_Jul_09_1124,N-Back (New Version 2021),2021.1.4,120.09732687379139,
,,,,Conditions/Version_1/zeroback(3)_v1.xlsx,New rule: Press 'space' when you see the letter 'x' or 'X'.,X,space,,,,,,,,,0,9,9,9,0,7,7,7,,,,,,,,,,,,,,,,,,,,,,,,,,,,,,,,,,,,,,,,,,,,,,,,,,,,,,,,,,,,,,,,,,,,,1.971,880.0076206000085,None,space,1,880.0076206000085,None,0.49679039999318775,P004,fencog,2,Pre,2021_Jul_09_1124,N-Back (New Version 2021),2021.1.4,120.09732687379139,
,,,,Conditions/Version_1/zeroback(3)_v1.xlsx,New rule: Press 'space' when you see the letter 'x' or 'X'.,p,None,,,,,,,,,0,9,9,9,0,8,8,8,,,,,,,,,,,,,,,,,,,,,,,,,,,,,,,,,,,,,,,,,,,,,,,,,,,,,,,,,,,,,,,,,,,,,1.258,883.2737685000029,None,None,1,883.2737685000029,None,,P004,fencog,2,Pre,2021_Jul_09_1124,N-Back (New Version 2021),2021.1.4,120.09732687379139,
,,,,Conditions/Version_1/zeroback(3)_v1.xlsx,New rule: Press 'space' when you see the letter 'x' or 'X'.,x,space,,,,,,,,,0,9,9,9,0,9,9,9,,,,,,,,,,,,,,,,,,,,,,,,,,,,,,,,,,,,,,,,,,,,,,,,,,,,,,,,,,,,,,,,,,,,,1.4936,886.7786418000032,None,space,1,886.7786418000032,None,0.40582630000426434,P004,fencog,2,Pre,2021_Jul_09_1124,N-Back (New Version 2021),2021.1.4,120.09732687379139,
,,,,Conditions/Version_1/zeroback(3)_v1.xlsx,New rule: Press 'space' when you see the letter 'x' or 'X'.,,,,,,,,,,,0,9,9,9,,,,,,,,,,,,,,,,,,,,,,,,,,,,,,,,,,,,,,,,,,,,,,,,,,,,,,,,,,,,,,,,,,,,,,,,,,,,,,,,,P004,fencog,2,Pre,2021_Jul_09_1124,N-Back (New Version 2021),2021.1.4,120.09732687379139,
,,,,Conditions/Version_1/twoback(3)_v1.xlsx,New rule: Press 'space' when you see 2-back (i.e. the same letter as the one that appeared 2 letters ago.),e,None,,,,,,,,,0,10,10,10,0,0,0,0,,,,,,,,,,,,,,,,,,,,,,,,,,,,,,,,,,,,,,,,,,,,,,,,,,,,,,,,,,,888.812150400001,None,891.7960800000001,None,space,7.067862500000047,891.7960800000001,None,888.812150400001,None,1.2084,900.0996301000123,None,None,1,900.0996301000123,None,,P004,fencog,2,Pre,2021_Jul_09_1124,N-Back (New Version 2021),2021.1.4,120.09732687379139,
,,,,Conditions/Version_1/twoback(3)_v1.xlsx,New rule: Press 'space' when you see 2-back (i.e. the same letter as the one that appeared 2 letters ago.),o,None,,,,,,,,,0,10,10,10,0,1,1,1,,,,,,,,,,,,,,,,,,,,,,,,,,,,,,,,,,,,,,,,,,,,,,,,,,,,,,,,,,,,,,,,,,,,,1.4936,903.5985849000135,None,None,1,903.5985849000135,None,,P004,fencog,2,Pre,2021_Jul_09_1124,N-Back (New Version 2021),2021.1.4,120.09732687379139,
,,,,Conditions/Version_1/twoback(3)_v1.xlsx,New rule: Press 'space' when you see 2-back (i.e. the same letter as the one that appeared 2 letters ago.),P,None,,,,,,,,,0,10,10,10,0,2,2,2,,,,,,,,,,,,,,,,,,,,,,,,,,,,,,,,,,,,,,,,,,,,,,,,,,,,,,,,,,,,,,,,,,,,,1.4006,907.0115566000022,None,None,1,907.0115566000022,None,,P004,fencog,2,Pre,2021_Jul_09_1124,N-Back (New Version 2021),2021.1.4,120.09732687379139,
,,,,Conditions/Version_1/twoback(3)_v1.xlsx,New rule: Press 'space' when you see 2-back (i.e. the same letter as the one that appeared 2 letters ago.),z,None,,,,,,,,,0,10,10,10,0,3,3,3,,,,,,,,,,,,,,,,,,,,,,,,,,,,,,,,,,,,,,,,,,,,,,,,,,,,,,,,,,,,,,,,,,,,,1.7044,910.7264442000014,None,None,1,910.7264442000014,None,,P004,fencog,2,Pre,2021_Jul_09_1124,N-Back (New Version 2021),2021.1.4,120.09732687379139,
,,,,Conditions/Version_1/twoback(3)_v1.xlsx,New rule: Press 'space' when you see 2-back (i.e. the same letter as the one that appeared 2 letters ago.),X,None,,,,,,,,,0,10,10,10,0,4,4,4,,,,,,,,,,,,,,,,,,,,,,,,,,,,,,,,,,,,,,,,,,,,,,,,,,,,,,,,,,,,,,,,,,,,,1.0224,913.7539855000068,None,None,1,913.7539855000068,None,,P004,fencog,2,Pre,2021_Jul_09_1124,N-Back (New Version 2021),2021.1.4,120.09732687379139,
,,,,Conditions/Version_1/twoback(3)_v1.xlsx,New rule: Press 'space' when you see 2-back (i.e. the same letter as the one that appeared 2 letters ago.),z,space,,,,,,,,,0,10,10,10,0,5,5,5,,,,,,,,,,,,,,,,,,,,,,,,,,,,,,,,,,,,,,,,,,,,,,,,,,,,,,,,,,,,,,,,,,,,,1.9214,917.6796346000046,None,space,1,917.6796346000046,None,0.3604178000095999,P004,fencog,2,Pre,2021_Jul_09_1124,N-Back (New Version 2021),2021.1.4,120.09732687379139,
,,,,Conditions/Version_1/twoback(3)_v1.xlsx,New rule: Press 'space' when you see 2-back (i.e. the same letter as the one that appeared 2 letters ago.),x,space,,,,,,,,,0,10,10,10,0,6,6,6,,,,,,,,,,,,,,,,,,,,,,,,,,,,,,,,,,,,,,,,,,,,,,,,,,,,,,,,,,,,,,,,,,,,,1.3944,921.0862351000105,None,space,1,921.0862351000105,None,0.5620999999955529,P004,fencog,2,Pre,2021_Jul_09_1124,N-Back (New Version 2021),2021.1.4,120.09732687379139,
,,,,Conditions/Version_1/twoback(3)_v1.xlsx,New rule: Press 'space' when you see 2-back (i.e. the same letter as the one that appeared 2 letters ago.),c,None,,,,,,,,,0,10,10,10,0,7,7,7,,,,,,,,,,,,,,,,,,,,,,,,,,,,,,,,,,,,,,,,,,,,,,,,,,,,,,,,,,,,,,,,,,,,,1.6982,924.7944923000032,None,None,1,924.7944923000032,None,,P004,fencog,2,Pre,2021_Jul_09_1124,N-Back (New Version 2021),2021.1.4,120.09732687379139,
,,,,Conditions/Version_1/twoback(3)_v1.xlsx,New rule: Press 'space' when you see 2-back (i.e. the same letter as the one that appeared 2 letters ago.),i,None,,,,,,,,,0,10,10,10,0,8,8,8,,,,,,,,,,,,,,,,,,,,,,,,,,,,,,,,,,,,,,,,,,,,,,,,,,,,,,,,,,,,,,,,,,,,,1.0286,927.8331171000027,None,None,1,927.8331171000027,None,,P004,fencog,2,Pre,2021_Jul_09_1124,N-Back (New Version 2021),2021.1.4,120.09732687379139,
,,,,Conditions/Version_1/twoback(3)_v1.xlsx,New rule: Press 'space' when you see 2-back (i.e. the same letter as the one that appeared 2 letters ago.),C,space,,,,,,,,,0,10,10,10,0,9,9,9,,,,,,,,,,,,,,,,,,,,,,,,,,,,,,,,,,,,,,,,,,,,,,,,,,,,,,,,,,,,,,,,,,,,,1.909,931.7535070000013,None,space,1,931.7535070000013,None,0.6063142000057269,P004,fencog,2,Pre,2021_Jul_09_1124,N-Back (New Version 2021),2021.1.4,120.09732687379139,
,,,,Conditions/Version_1/twoback(3)_v1.xlsx,New rule: Press 'space' when you see 2-back (i.e. the same letter as the one that appeared 2 letters ago.),,,,,,,,,,,0,10,10,10,,,,,,,,,,,,,,,,,,,,,,,,,,,,,,,,,,,,,,,,,,,,,,,,,,,,,,,,,,,,,,,,,,,,,,,,,,,,,,,,,P004,fencog,2,Pre,2021_Jul_09_1124,N-Back (New Version 2021),2021.1.4,120.09732687379139,
,,,,Conditions/Version_1/oneback(3)_v1.xlsx,New rule: Press 'space' when you see 1-back (i.e. the same letter as the one that appeared 1 letter ago.),o,None,,,,,,,,,0,11,11,11,0,0,0,0,,,,,,,,,,,,,,,,,,,,,,,,,,,,,,,,,,,,,,,,,,,,,,,,,,,,,,,,,,,933.7791852000082,None,936.7670198000123,None,space,0.7689051999914227,936.7670198000123,None,933.7791852000082,None,1.9276,939.4889585000055,None,None,1,939.4889585000055,None,,P004,fencog,2,Pre,2021_Jul_09_1124,N-Back (New Version 2021),2021.1.4,120.09732687379139,
,,,,Conditions/Version_1/oneback(3)_v1.xlsx,New rule: Press 'space' when you see 1-back (i.e. the same letter as the one that appeared 1 letter ago.),O,space,,,,,,,,,0,11,11,11,0,1,1,1,,,,,,,,,,,,,,,,,,,,,,,,,,,,,,,,,,,,,,,,,,,,,,,,,,,,,,,,,,,,,,,,,,,,,1.7912,943.2902291000064,None,space,1,943.2902291000064,None,0.3253556999989087,P004,fencog,2,Pre,2021_Jul_09_1124,N-Back (New Version 2021),2021.1.4,120.09732687379139,
,,,,Conditions/Version_1/oneback(3)_v1.xlsx,New rule: Press 'space' when you see 1-back (i.e. the same letter as the one that appeared 1 letter ago.),h,None,,,,,,,,,0,11,11,11,0,2,2,2,,,,,,,,,,,,,,,,,,,,,,,,,,,,,,,,,,,,,,,,,,,,,,,,,,,,,,,,,,,,,,,,,,,,,1.8098,947.1115072000102,None,None,1,947.1115072000102,None,,P004,fencog,2,Pre,2021_Jul_09_1124,N-Back (New Version 2021),2021.1.4,120.09732687379139,
,,,,Conditions/Version_1/oneback(3)_v1.xlsx,New rule: Press 'space' when you see 1-back (i.e. the same letter as the one that appeared 1 letter ago.),g,None,,,,,,,,,0,11,11,11,0,3,3,3,,,,,,,,,,,,,,,,,,,,,,,,,,,,,,,,,,,,,,,,,,,,,,,,,,,,,,,,,,,,,,,,,,,,,1.0596,950.1819990000076,None,None,1,950.1819990000076,None,,P004,fencog,2,Pre,2021_Jul_09_1124,N-Back (New Version 2021),2021.1.4,120.09732687379139,
,,,,Conditions/Version_1/oneback(3)_v1.xlsx,New rule: Press 'space' when you see 1-back (i.e. the same letter as the one that appeared 1 letter ago.),n,None,,,,,,,,,0,11,11,11,0,4,4,4,,,,,,,,,,,,,,,,,,,,,,,,,,,,,,,,,,,,,,,,,,,,,,,,,,,,,,,,,,,,,,,,,,,,,1.4998,953.6871495000087,None,None,1,953.6871495000087,None,,P004,fencog,2,Pre,2021_Jul_09_1124,N-Back (New Version 2021),2021.1.4,120.09732687379139,
,,,,Conditions/Version_1/oneback(3)_v1.xlsx,New rule: Press 'space' when you see 1-back (i.e. the same letter as the one that appeared 1 letter ago.),z,None,,,,,,,,,0,11,11,11,0,5,5,5,,,,,,,,,,,,,,,,,,,,,,,,,,,,,,,,,,,,,,,,,,,,,,,,,,,,,,,,,,,,,,,,,,,,,1.227,956.924589000002,None,None,1,956.924589000002,None,,P004,fencog,2,Pre,2021_Jul_09_1124,N-Back (New Version 2021),2021.1.4,120.09732687379139,
,,,,Conditions/Version_1/oneback(3)_v1.xlsx,New rule: Press 'space' when you see 1-back (i.e. the same letter as the one that appeared 1 letter ago.),X,None,,,,,,,,,0,11,11,11,0,6,6,6,,,,,,,,,,,,,,,,,,,,,,,,,,,,,,,,,,,,,,,,,,,,,,,,,,,,,,,,,,,,,,,,,,,,,1.134,960.0653975000023,None,None,1,960.0653975000023,None,,P004,fencog,2,Pre,2021_Jul_09_1124,N-Back (New Version 2021),2021.1.4,120.09732687379139,
,,,,Conditions/Version_1/oneback(3)_v1.xlsx,New rule: Press 'space' when you see 1-back (i.e. the same letter as the one that appeared 1 letter ago.),r,None,,,,,,,,,0,11,11,11,0,7,7,7,,,,,,,,,,,,,,,,,,,,,,,,,,,,,,,,,,,,,,,,,,,,,,,,,,,,,,,,,,,,,,,,,,,,,1.2518,963.3235464000027,None,None,1,963.3235464000027,None,,P004,fencog,2,Pre,2021_Jul_09_1124,N-Back (New Version 2021),2021.1.4,120.09732687379139,
,,,,Conditions/Version_1/oneback(3)_v1.xlsx,New rule: Press 'space' when you see 1-back (i.e. the same letter as the one that appeared 1 letter ago.),r,space,,,,,,,,,0,11,11,11,0,8,8,8,,,,,,,,,,,,,,,,,,,,,,,,,,,,,,,,,,,,,,,,,,,,,,,,,,,,,,,,,,,,,,,,,,,,,1.4316,966.763479900008,None,space,1,966.763479900008,None,0.43660080000699963,P004,fencog,2,Pre,2021_Jul_09_1124,N-Back (New Version 2021),2021.1.4,120.09732687379139,
,,,,Conditions/Version_1/oneback(3)_v1.xlsx,New rule: Press 'space' when you see 1-back (i.e. the same letter as the one that appeared 1 letter ago.),P,None,,,,,,,,,0,11,11,11,0,9,9,9,,,,,,,,,,,,,,,,,,,,,,,,,,,,,,,,,,,,,,,,,,,,,,,,,,,,,,,,,,,,,,,,,,,,,1.6858,970.4907278000028,None,None,1,970.4907278000028,None,,P004,fencog,2,Pre,2021_Jul_09_1124,N-Back (New Version 2021),2021.1.4,120.09732687379139,
,,,,Conditions/Version_1/oneback(3)_v1.xlsx,New rule: Press 'space' when you see 1-back (i.e. the same letter as the one that appeared 1 letter ago.),,,,,,,,,,,0,11,11,11,,,,,,,,,,,,,,,,,,,,,,,,,,,,,,,,,,,,,,,,,,,,,,,,,,,,,,,,,,,,,,,,,,,,,,,,,,,,,,,,,P004,fencog,2,Pre,2021_Jul_09_1124,N-Back (New Version 2021),2021.1.4,120.09732687379139,
,,,,Conditions/Version_1/twoback(4)_v1.xlsx,New rule: Press 'space' when you see 2-back (i.e. the same letter as the one that appeared 2 letters ago.),r,None,,,,,,,,,0,12,12,12,0,0,0,0,,,,,,,,,,,,,,,,,,,,,,,,,,,,,,,,,,,,,,,,,,,,,,,,,,,,,,,,,,,972.4815372000012,None,975.4713502000086,None,space,3.952618800001801,975.4713502000086,None,972.4815372000012,None,1.134,980.592678800007,None,None,1,980.592678800007,None,,P004,fencog,2,Pre,2021_Jul_09_1124,N-Back (New Version 2021),2021.1.4,120.09732687379139,
,,,,Conditions/Version_1/twoback(4)_v1.xlsx,New rule: Press 'space' when you see 2-back (i.e. the same letter as the one that appeared 2 letters ago.),T,None,,,,,,,,,0,12,12,12,0,1,1,1,,,,,,,,,,,,,,,,,,,,,,,,,,,,,,,,,,,,,,,,,,,,,,,,,,,,,,,,,,,,,,,,,,,,,1.6982,984.2924679000134,None,None,1,984.2924679000134,None,,P004,fencog,2,Pre,2021_Jul_09_1124,N-Back (New Version 2021),2021.1.4,120.09732687379139,
,,,,Conditions/Version_1/twoback(4)_v1.xlsx,New rule: Press 'space' when you see 2-back (i.e. the same letter as the one that appeared 2 letters ago.),o,None,,,,,,,,,0,12,12,12,0,2,2,2,,,,,,,,,,,,,,,,,,,,,,,,,,,,,,,,,,,,,,,,,,,,,,,,,,,,,,,,,,,,,,,,,,,,,1.7292,988.0236836000113,None,None,1,988.0236836000113,None,,P004,fencog,2,Pre,2021_Jul_09_1124,N-Back (New Version 2021),2021.1.4,120.09732687379139,
,,,,Conditions/Version_1/twoback(4)_v1.xlsx,New rule: Press 'space' when you see 2-back (i.e. the same letter as the one that appeared 2 letters ago.),p,None,,,,,,,,,0,12,12,12,0,3,3,3,,,,,,,,,,,,,,,,,,,,,,,,,,,,,,,,,,,,,,,,,,,,,,,,,,,,,,,,,,,,,,,,,,,,,1.01,991.0405095000024,None,None,1,991.0405095000024,None,,P004,fencog,2,Pre,2021_Jul_09_1124,N-Back (New Version 2021),2021.1.4,120.09732687379139,
,,,,Conditions/Version_1/twoback(4)_v1.xlsx,New rule: Press 'space' when you see 2-back (i.e. the same letter as the one that appeared 2 letters ago.),p,None,,,,,,,,,0,12,12,12,0,4,4,4,,,,,,,,,,,,,,,,,,,,,,,,,,,,,,,,,,,,,,,,,,,,,,,,,,,,,,,,,,,,,,,,,,,,,1.7478,994.7966645000124,None,space,0,994.7966645000124,None,0.5875128999905428,P004,fencog,2,Pre,2021_Jul_09_1124,N-Back (New Version 2021),2021.1.4,120.09732687379139,
,,,,Conditions/Version_1/twoback(4)_v1.xlsx,New rule: Press 'space' when you see 2-back (i.e. the same letter as the one that appeared 2 letters ago.),y,None,,,,,,,,,0,12,12,12,0,5,5,5,,,,,,,,,,,,,,,,,,,,,,,,,,,,,,,,,,,,,,,,,,,,,,,,,,,,,,,,,,,,,,,,,,,,,1.6796,998.4915618000086,None,None,1,998.4915618000086,None,,P004,fencog,2,Pre,2021_Jul_09_1124,N-Back (New Version 2021),2021.1.4,120.09732687379139,
,,,,Conditions/Version_1/twoback(4)_v1.xlsx,New rule: Press 'space' when you see 2-back (i.e. the same letter as the one that appeared 2 letters ago.),P,space,,,,,,,,,0,12,12,12,0,6,6,6,,,,,,,,,,,,,,,,,,,,,,,,,,,,,,,,,,,,,,,,,,,,,,,,,,,,,,,,,,,,,,,,,,,,,1.9338,1002.4368915000086,None,space,1,1002.4368915000086,None,0.8510495000082301,P004,fencog,2,Pre,2021_Jul_09_1124,N-Back (New Version 2021),2021.1.4,120.09732687379139,
,,,,Conditions/Version_1/twoback(4)_v1.xlsx,New rule: Press 'space' when you see 2-back (i.e. the same letter as the one that appeared 2 letters ago.),y,None,,,,,,,,,0,12,12,12,0,7,7,7,,,,,,,,,,,,,,,,,,,,,,,,,,,,,,,,,,,,,,,,,,,,,,,,,,,,,,,,,,,,,,,,,,,,,1.072,1005.5184234000044,None,space,0,1005.5184234000044,None,0.8174249000003329,P004,fencog,2,Pre,2021_Jul_09_1124,N-Back (New Version 2021),2021.1.4,120.09732687379139,
,,,,Conditions/Version_1/twoback(4)_v1.xlsx,New rule: Press 'space' when you see 2-back (i.e. the same letter as the one that appeared 2 letters ago.),y,space,,,,,,,,,0,12,12,12,0,8,8,8,,,,,,,,,,,,,,,,,,,,,,,,,,,,,,,,,,,,,,,,,,,,,,,,,,,,,,,,,,,,,,,,,,,,,1.289,1008.8093438000069,None,None,0,1008.8093438000069,None,,P004,fencog,2,Pre,2021_Jul_09_1124,N-Back (New Version 2021),2021.1.4,120.09732687379139,
,,,,Conditions/Version_1/twoback(4)_v1.xlsx,New rule: Press 'space' when you see 2-back (i.e. the same letter as the one that appeared 2 letters ago.),,,,,,,,,,,0,12,12,12,,,,,,,,,,,,,,,,,,,,,,,,,,,,,,,,,,,,,,,,,,,,,,,,,,,,,,,,,,,,,,,,,,,,,,,,,,,,,,,,,P004,fencog,2,Pre,2021_Jul_09_1124,N-Back (New Version 2021),2021.1.4,120.09732687379139,
,,,,Conditions/Version_1/zeroback(4)_v1.xlsx,New rule: Press 'space' when you see the letter 'x' or 'X'.,o,None,,,,,,,,,0,13,13,13,0,0,0,0,,,,,,,,,,,,,,,,,,,,,,,,,,,,,,,,,,,,,,,,,,,,,,,,,,,,,,,,,,,1010.8371757999994,None,1013.8270037000038,None,space,0.06907470000442117,1013.8270037000038,None,1010.8371757999994,None,1.351,1015.2834128000104,None,None,1,1015.2834128000104,None,,P004,fencog,2,Pre,2021_Jul_09_1124,N-Back (New Version 2021),2021.1.4,120.09732687379139,
,,,,Conditions/Version_1/zeroback(4)_v1.xlsx,New rule: Press 'space' when you see the letter 'x' or 'X'.,X,space,,,,,,,,,0,13,13,13,0,1,1,1,,,,,,,,,,,,,,,,,,,,,,,,,,,,,,,,,,,,,,,,,,,,,,,,,,,,,,,,,,,,,,,,,,,,,1.3448,1018.6406525000057,None,space,1,1018.6406525000057,None,0.36732400000619236,P004,fencog,2,Pre,2021_Jul_09_1124,N-Back (New Version 2021),2021.1.4,120.09732687379139,
,,,,Conditions/Version_1/zeroback(4)_v1.xlsx,New rule: Press 'space' when you see the letter 'x' or 'X'.,p,None,,,,,,,,,0,13,13,13,0,2,2,2,,,,,,,,,,,,,,,,,,,,,,,,,,,,,,,,,,,,,,,,,,,,,,,,,,,,,,,,,,,,,,,,,,,,,1.3014,1021.9594279000012,None,None,1,1021.9594279000012,None,,P004,fencog,2,Pre,2021_Jul_09_1124,N-Back (New Version 2021),2021.1.4,120.09732687379139,
,,,,Conditions/Version_1/zeroback(4)_v1.xlsx,New rule: Press 'space' when you see the letter 'x' or 'X'.,m,None,,,,,,,,,0,13,13,13,0,3,3,3,,,,,,,,,,,,,,,,,,,,,,,,,,,,,,,,,,,,,,,,,,,,,,,,,,,,,,,,,,,,,,,,,,,,,1.4874,1025.4546671999997,None,None,1,1025.4546671999997,None,,P004,fencog,2,Pre,2021_Jul_09_1124,N-Back (New Version 2021),2021.1.4,120.09732687379139,
,,,,Conditions/Version_1/zeroback(4)_v1.xlsx,New rule: Press 'space' when you see the letter 'x' or 'X'.,n,None,,,,,,,,,0,13,13,13,0,4,4,4,,,,,,,,,,,,,,,,,,,,,,,,,,,,,,,,,,,,,,,,,,,,,,,,,,,,,,,,,,,,,,,,,,,,,1.7726,1029.2301846000046,None,None,1,1029.2301846000046,None,,P004,fencog,2,Pre,2021_Jul_09_1124,N-Back (New Version 2021),2021.1.4,120.09732687379139,
,,,,Conditions/Version_1/zeroback(4)_v1.xlsx,New rule: Press 'space' when you see the letter 'x' or 'X'.,m,None,,,,,,,,,0,13,13,13,0,5,5,5,,,,,,,,,,,,,,,,,,,,,,,,,,,,,,,,,,,,,,,,,,,,,,,,,,,,,,,,,,,,,,,,,,,,,1.909,1033.1521750000102,None,None,1,1033.1521750000102,None,,P004,fencog,2,Pre,2021_Jul_09_1124,N-Back (New Version 2021),2021.1.4,120.09732687379139,
,,,,Conditions/Version_1/zeroback(4)_v1.xlsx,New rule: Press 'space' when you see the letter 'x' or 'X'.,C,None,,,,,,,,,0,13,13,13,0,6,6,6,,,,,,,,,,,,,,,,,,,,,,,,,,,,,,,,,,,,,,,,,,,,,,,,,,,,,,,,,,,,,,,,,,,,,1.9276,1037.0850268000067,None,None,1,1037.0850268000067,None,,P004,fencog,2,Pre,2021_Jul_09_1124,N-Back (New Version 2021),2021.1.4,120.09732687379139,
,,,,Conditions/Version_1/zeroback(4)_v1.xlsx,New rule: Press 'space' when you see the letter 'x' or 'X'.,m,None,,,,,,,,,0,13,13,13,0,7,7,7,,,,,,,,,,,,,,,,,,,,,,,,,,,,,,,,,,,,,,,,,,,,,,,,,,,,,,,,,,,,,,,,,,,,,1.0286,1040.126009300002,None,None,1,1040.126009300002,None,,P004,fencog,2,Pre,2021_Jul_09_1124,N-Back (New Version 2021),2021.1.4,120.09732687379139,
,,,,Conditions/Version_1/zeroback(4)_v1.xlsx,New rule: Press 'space' when you see the letter 'x' or 'X'.,p,None,,,,,,,,,0,13,13,13,0,8,8,8,,,,,,,,,,,,,,,,,,,,,,,,,,,,,,,,,,,,,,,,,,,,,,,,,,,,,,,,,,,,,,,,,,,,,1.9524,1044.0903598000004,None,None,1,1044.0903598000004,None,,P004,fencog,2,Pre,2021_Jul_09_1124,N-Back (New Version 2021),2021.1.4,120.09732687379139,
,,,,Conditions/Version_1/zeroback(4)_v1.xlsx,New rule: Press 'space' when you see the letter 'x' or 'X'.,X,space,,,,,,,,,0,13,13,13,0,9,9,9,,,,,,,,,,,,,,,,,,,,,,,,,,,,,,,,,,,,,,,,,,,,,,,,,,,,,,,,,,,,,,,,,,,,,1.5866,1047.681353100008,None,space,1,1047.681353100008,None,0.33470479999959935,P004,fencog,2,Pre,2021_Jul_09_1124,N-Back (New Version 2021),2021.1.4,120.09732687379139,
,,,,Conditions/Version_1/zeroback(4)_v1.xlsx,New rule: Press 'space' when you see the letter 'x' or 'X'.,,,,,,,,,,,0,13,13,13,,,,,,,,,,,,,,,,,,,,,,,,,,,,,,,,,,,,,,,,,,,,,,,,,,,,,,,,,,,,,,,,,,,,,,,,,,,,,,,,,P004,fencog,2,Pre,2021_Jul_09_1124,N-Back (New Version 2021),2021.1.4,120.09732687379139,
,,,,Conditions/Version_1/oneback(4)_v1.xlsx,New rule: Press 'space' when you see 1-back (i.e. the same letter as the one that appeared 1 letter ago.),w,None,,,,,,,,,0,14,14,14,0,0,0,0,,,,,,,,,,,,,,,,,,,,,,,,,,,,,,,,,,,,,,,,,,,,,,,,,,,,,,,,,,,1049.702630700005,None,1052.6901273000112,None,space,5.581743400005507,1052.6901273000112,None,1049.702630700005,None,1.2146,1059.5281088000047,None,None,1,1059.5281088000047,None,,P004,fencog,2,Pre,2021_Jul_09_1124,N-Back (New Version 2021),2021.1.4,120.09732687379139,
,,,,Conditions/Version_1/oneback(4)_v1.xlsx,New rule: Press 'space' when you see 1-back (i.e. the same letter as the one that appeared 1 letter ago.),q,None,,,,,,,,,0,14,14,14,0,1,1,1,,,,,,,,,,,,,,,,,,,,,,,,,,,,,,,,,,,,,,,,,,,,,,,,,,,,,,,,,,,,,,,,,,,,,1.4812,1063.0193769000034,None,None,1,1063.0193769000034,None,,P004,fencog,2,Pre,2021_Jul_09_1124,N-Back (New Version 2021),2021.1.4,120.09732687379139,
,,,,Conditions/Version_1/oneback(4)_v1.xlsx,New rule: Press 'space' when you see 1-back (i.e. the same letter as the one that appeared 1 letter ago.),i,None,,,,,,,,,0,14,14,14,0,2,2,2,,,,,,,,,,,,,,,,,,,,,,,,,,,,,,,,,,,,,,,,,,,,,,,,,,,,,,,,,,,,,,,,,,,,,1.4998,1066.5266042000003,None,None,1,1066.5266042000003,None,,P004,fencog,2,Pre,2021_Jul_09_1124,N-Back (New Version 2021),2021.1.4,120.09732687379139,
,,,,Conditions/Version_1/oneback(4)_v1.xlsx,New rule: Press 'space' when you see 1-back (i.e. the same letter as the one that appeared 1 letter ago.),t,None,,,,,,,,,0,14,14,14,0,3,3,3,,,,,,,,,,,,,,,,,,,,,,,,,,,,,,,,,,,,,,,,,,,,,,,,,,,,,,,,,,,,,,,,,,,,,1.9524,1070.4934139000106,None,None,1,1070.4934139000106,None,,P004,fencog,2,Pre,2021_Jul_09_1124,N-Back (New Version 2021),2021.1.4,120.09732687379139,
,,,,Conditions/Version_1/oneback(4)_v1.xlsx,New rule: Press 'space' when you see 1-back (i.e. the same letter as the one that appeared 1 letter ago.),v,None,,,,,,,,,0,14,14,14,0,4,4,4,,,,,,,,,,,,,,,,,,,,,,,,,,,,,,,,,,,,,,,,,,,,,,,,,,,,,,,,,,,,,,,,,,,,,1.7292,1074.2346103000018,None,None,1,1074.2346103000018,None,,P004,fencog,2,Pre,2021_Jul_09_1124,N-Back (New Version 2021),2021.1.4,120.09732687379139,
,,,,Conditions/Version_1/oneback(4)_v1.xlsx,New rule: Press 'space' when you see 1-back (i.e. the same letter as the one that appeared 1 letter ago.),V,space,,,,,,,,,0,14,14,14,0,5,5,5,,,,,,,,,,,,,,,,,,,,,,,,,,,,,,,,,,,,,,,,,,,,,,,,,,,,,,,,,,,,,,,,,,,,,1.3386,1077.5832234000118,None,space,1,1077.5832234000118,None,0.3366746000101557,P004,fencog,2,Pre,2021_Jul_09_1124,N-Back (New Version 2021),2021.1.4,120.09732687379139,
,,,,Conditions/Version_1/oneback(4)_v1.xlsx,New rule: Press 'space' when you see 1-back (i.e. the same letter as the one that appeared 1 letter ago.),v,space,,,,,,,,,0,14,14,14,0,6,6,6,,,,,,,,,,,,,,,,,,,,,,,,,,,,,,,,,,,,,,,,,,,,,,,,,,,,,,,,,,,,,,,,,,,,,1.2952,1080.8880993000057,None,space,1,1080.8880993000057,None,0.840067099998123,P004,fencog,2,Pre,2021_Jul_09_1124,N-Back (New Version 2021),2021.1.4,120.09732687379139,
,,,,Conditions/Version_1/oneback(4)_v1.xlsx,New rule: Press 'space' when you see 1-back (i.e. the same letter as the one that appeared 1 letter ago.),p,None,,,,,,,,,0,14,14,14,0,7,7,7,,,,,,,,,,,,,,,,,,,,,,,,,,,,,,,,,,,,,,,,,,,,,,,,,,,,,,,,,,,,,,,,,,,,,1.568,1084.4645496000012,None,None,1,1084.4645496000012,None,,P004,fencog,2,Pre,2021_Jul_09_1124,N-Back (New Version 2021),2021.1.4,120.09732687379139,
,,,,Conditions/Version_1/oneback(4)_v1.xlsx,New rule: Press 'space' when you see 1-back (i.e. the same letter as the one that appeared 1 letter ago.),w,None,,,,,,,,,0,14,14,14,0,8,8,8,,,,,,,,,,,,,,,,,,,,,,,,,,,,,,,,,,,,,,,,,,,,,,,,,,,,,,,,,,,,,,,,,,,,,1.6486,1088.1190814000001,None,None,1,1088.1190814000001,None,,P004,fencog,2,Pre,2021_Jul_09_1124,N-Back (New Version 2021),2021.1.4,120.09732687379139,
,,,,Conditions/Version_1/oneback(4)_v1.xlsx,New rule: Press 'space' when you see 1-back (i.e. the same letter as the one that appeared 1 letter ago.),W,space,,,,,,,,,0,14,14,14,0,9,9,9,,,,,,,,,,,,,,,,,,,,,,,,,,,,,,,,,,,,,,,,,,,,,,,,,,,,,,,,,,,,,,,,,,,,,1.816,1091.9353055000101,None,space,1,1091.9353055000101,None,0.32875079999212176,P004,fencog,2,Pre,2021_Jul_09_1124,N-Back (New Version 2021),2021.1.4,120.09732687379139,
,,,,Conditions/Version_1/oneback(4)_v1.xlsx,New rule: Press 'space' when you see 1-back (i.e. the same letter as the one that appeared 1 letter ago.),,,,,,,,,,,0,14,14,14,,,,,,,,,,,,,,,,,,,,,,,,,,,,,,,,,,,,,,,,,,,,,,,,,,,,,,,,,,,,,,,,,,,,,,,,,,,,,,,,,P004,fencog,2,Pre,2021_Jul_09_1124,N-Back (New Version 2021),2021.1.4,120.09732687379139,
,,,,Conditions/Version_1/threeback(4)_v1.xlsx,New rule: Press 'space' when you see 3-back (i.e. the same letter as the one that appeared 3 letters ago.),A,None,,,,,,,,,0,15,15,15,0,0,0,0,,,,,,,,,,,,,,,,,,,,,,,,,,,,,,,,,,,,,,,,,,,,,,,,,,,,,,,,,,,1093.9633795000118,None,1096.9522044000041,None,space,2.1115223999950103,1096.9522044000041,None,1093.9633795000118,None,1.4812,1100.5720896999992,None,None,1,1100.5720896999992,None,,P004,fencog,2,Pre,2021_Jul_09_1124,N-Back (New Version 2021),2021.1.4,120.09732687379139,
,,,,Conditions/Version_1/threeback(4)_v1.xlsx,New rule: Press 'space' when you see 3-back (i.e. the same letter as the one that appeared 3 letters ago.),n,None,,,,,,,,,0,15,15,15,0,1,1,1,,,,,,,,,,,,,,,,,,,,,,,,,,,,,,,,,,,,,,,,,,,,,,,,,,,,,,,,,,,,,,,,,,,,,1.3572,1103.9352470000013,None,None,1,1103.9352470000013,None,,P004,fencog,2,Pre,2021_Jul_09_1124,N-Back (New Version 2021),2021.1.4,120.09732687379139,
,,,,Conditions/Version_1/threeback(4)_v1.xlsx,New rule: Press 'space' when you see 3-back (i.e. the same letter as the one that appeared 3 letters ago.),g,None,,,,,,,,,0,15,15,15,0,2,2,2,,,,,,,,,,,,,,,,,,,,,,,,,,,,,,,,,,,,,,,,,,,,,,,,,,,,,,,,,,,,,,,,,,,,,1.1836,1107.1298671000113,None,None,1,1107.1298671000113,None,,P004,fencog,2,Pre,2021_Jul_09_1124,N-Back (New Version 2021),2021.1.4,120.09732687379139,
,,,,Conditions/Version_1/threeback(4)_v1.xlsx,New rule: Press 'space' when you see 3-back (i.e. the same letter as the one that appeared 3 letters ago.),A,space,,,,,,,,,0,15,15,15,0,3,3,3,,,,,,,,,,,,,,,,,,,,,,,,,,,,,,,,,,,,,,,,,,,,,,,,,,,,,,,,,,,,,,,,,,,,,1.4254,1110.5540284000017,None,space,1,1110.5540284000017,None,0.49384070000087377,P004,fencog,2,Pre,2021_Jul_09_1124,N-Back (New Version 2021),2021.1.4,120.09732687379139,
,,,,Conditions/Version_1/threeback(4)_v1.xlsx,New rule: Press 'space' when you see 3-back (i.e. the same letter as the one that appeared 3 letters ago.),p,None,,,,,,,,,0,15,15,15,0,4,4,4,,,,,,,,,,,,,,,,,,,,,,,,,,,,,,,,,,,,,,,,,,,,,,,,,,,,,,,,,,,,,,,,,,,,,1.2332,1113.8101501000056,None,None,1,1113.8101501000056,None,,P004,fencog,2,Pre,2021_Jul_09_1124,N-Back (New Version 2021),2021.1.4,120.09732687379139,
,,,,Conditions/Version_1/threeback(4)_v1.xlsx,New rule: Press 'space' when you see 3-back (i.e. the same letter as the one that appeared 3 letters ago.),O,None,,,,,,,,,0,15,15,15,0,5,5,5,,,,,,,,,,,,,,,,,,,,,,,,,,,,,,,,,,,,,,,,,,,,,,,,,,,,,,,,,,,,,,,,,,,,,1.5184,1117.3380606000137,None,None,1,1117.3380606000137,None,,P004,fencog,2,Pre,2021_Jul_09_1124,N-Back (New Version 2021),2021.1.4,120.09732687379139,
,,,,Conditions/Version_1/threeback(4)_v1.xlsx,New rule: Press 'space' when you see 3-back (i.e. the same letter as the one that appeared 3 letters ago.),a,space,,,,,,,,,0,15,15,15,0,6,6,6,,,,,,,,,,,,,,,,,,,,,,,,,,,,,,,,,,,,,,,,,,,,,,,,,,,,,,,,,,,,,,,,,,,,,1.4192,1120.7700953000021,None,space,1,1120.7700953000021,None,0.50197610000032,P004,fencog,2,Pre,2021_Jul_09_1124,N-Back (New Version 2021),2021.1.4,120.09732687379139,
,,,,Conditions/Version_1/threeback(4)_v1.xlsx,New rule: Press 'space' when you see 3-back (i.e. the same letter as the one that appeared 3 letters ago.),p,space,,,,,,,,,0,15,15,15,0,7,7,7,,,,,,,,,,,,,,,,,,,,,,,,,,,,,,,,,,,,,,,,,,,,,,,,,,,,,,,,,,,,,,,,,,,,,1.1402,1123.9168108000013,None,space,1,1123.9168108000013,None,1.7708405000012135,P004,fencog,2,Pre,2021_Jul_09_1124,N-Back (New Version 2021),2021.1.4,120.09732687379139,
,,,,Conditions/Version_1/threeback(4)_v1.xlsx,New rule: Press 'space' when you see 3-back (i.e. the same letter as the one that appeared 3 letters ago.),x,None,,,,,,,,,0,15,15,15,0,8,8,8,,,,,,,,,,,,,,,,,,,,,,,,,,,,,,,,,,,,,,,,,,,,,,,,,,,,,,,,,,,,,,,,,,,,,1.5618,1127.4823972000013,None,None,1,1127.4823972000013,None,,P004,fencog,2,Pre,2021_Jul_09_1124,N-Back (New Version 2021),2021.1.4,120.09732687379139,
,,,,Conditions/Version_1/threeback(4)_v1.xlsx,New rule: Press 'space' when you see 3-back (i.e. the same letter as the one that appeared 3 letters ago.),X,None,,,,,,,,,0,15,15,15,0,9,9,9,,,,,,,,,,,,,,,,,,,,,,,,,,,,,,,,,,,,,,,,,,,,,,,,,,,,,,,,,,,,,,,,,,,,,1.7168,1131.206588400004,None,None,1,1131.206588400004,None,,P004,fencog,2,Pre,2021_Jul_09_1124,N-Back (New Version 2021),2021.1.4,120.09732687379139,
,,,,Conditions/Version_1/threeback(4)_v1.xlsx,New rule: Press 'space' when you see 3-back (i.e. the same letter as the one that appeared 3 letters ago.),,,,,,,,,,,0,15,15,15,,,,,,,,,,,,,,,,,,,,,,,,,,,,,,,,,,,,,,,,,,,,,,,,,,,,,,,,,,,,,,,,,,,,,,,,,,,,,,,,,P004,fencog,2,Pre,2021_Jul_09_1124,N-Back (New Version 2021),2021.1.4,120.09732687379139,
