CondFileP,InstructionsP,LettersDisplayedP,CorrectnessP,CondFile,Instructions,LettersDisplayed,Correctness,practicetrials.thisRepN,practicetrials.thisTrialN,practicetrials.thisN,practicetrials.thisIndex,InnerLoopPractice.thisRepN,InnerLoopPractice.thisTrialN,InnerLoopPractice.thisN,InnerLoopPractice.thisIndex,trials.thisRepN,trials.thisTrialN,trials.thisN,trials.thisIndex,InnerLoop.thisRepN,InnerLoop.thisTrialN,InnerLoop.thisN,InnerLoop.thisIndex,TaskVersionText.started,TaskVersionText.stopped,InstrKey1.keys,InstrKey1.rt,InstrKey1.started,InstrKey1.stopped,text.started,text.stopped,key_resp_4.keys,key_resp_4.rt,key_resp_4.started,key_resp_4.stopped,text_2.started,text_2.stopped,key_resp_3.keys,key_resp_3.rt,key_resp_3.started,key_resp_3.stopped,text_3.started,text_3.stopped,key_resp_2.keys,key_resp_2.rt,key_resp_2.started,key_resp_2.stopped,PractIn1.started,PractIn1.stopped,PractIn2.started,PractIn2.stopped,PractInstructionPass.keys,PractInstructionPass.rt,PractInstructionPass.started,PractInstructionPass.stopped,PractBlock1.started,PractBlock1.stopped,ISIjitterPractice,ISI_Pract_Fixation.started,ISI_Pract_Fixation.stopped,N_backP.started,N_backP.stopped,KeyPractice.keys,KeyPractice.corr,KeyPractice.rt,KeyPractice.started,KeyPractice.stopped,text_4.started,text_4.stopped,TransitionText.started,TransitionText.stopped,key_resp_6.keys,key_resp_6.rt,key_resp_6.started,key_resp_6.stopped,text_5.started,text_5.stopped,key_resp_5.keys,key_resp_5.rt,key_resp_5.started,key_resp_5.stopped,MainInt1.started,MainInt1.stopped,MainInt2.started,MainInt2.stopped,InstructionPass.keys,InstructionPass.rt,InstructionPass.started,InstructionPass.stopped,Blocks1.started,Blocks1.stopped,ISIjitter,N_backD.started,N_backD.stopped,key_resp.keys,key_resp.corr,key_resp.started,key_resp.stopped,key_resp.rt,participant,Study Name,Task Version (required to run),PRE/POST,date,expName,psychopyVersion,frameRate
,,,,,,,,,,,,,,,,,,,,,,,,40.5012449,None,space,49.2594796,40.9962788,None,,,,,,,,,,,,,,,,,,,,,,,,,,,,,,,,,,,,,,,,,,,,,,,,,,,,,,,,,,,,,,,,,,,,,,,P004,fencog,1,Post,2021_Jul_16_1202,N-Back (New Version 2021),2021.1.4,119.9152919
,,,,,,,,,,,,,,,,,,,,,,,,,,,,,,90.2869214,None,space,45.3056095,90.7820107,None,,,,,,,,,,,,,,,,,,,,,,,,,,,,,,,,,,,,,,,,,,,,,,,,,,,,,,,,,,,,,,,,,P004,fencog,1,Post,2021_Jul_16_1202,N-Back (New Version 2021),2021.1.4,119.9152919
,,,,,,,,,,,,,,,,,,,,,,,,,,,,,,,,,,,,136.1249623,None,space,11.4859909,136.6189088,None,,,,,,,,,,,,,,,,,,,,,,,,,,,,,,,,,,,,,,,,,,,,,,,,,,,,,,,,,,,P004,fencog,1,Post,2021_Jul_16_1202,N-Back (New Version 2021),2021.1.4,119.9152919
,,,,,,,,,,,,,,,,,,,,,,,,,,,,,,,,,,,,,,,,,,148.1347278,None,space,11.9520255,148.6233385,None,,,,,,,,,,,,,,,,,,,,,,,,,,,,,,,,,,,,,,,,,,,,,,,,,,,,,P004,fencog,1,Post,2021_Jul_16_1202,N-Back (New Version 2021),2021.1.4,119.9152919
Conditions/Version_1Pr/zeroback(1)_v1.xlsx,Rule: Press 'space' when you see the letter 'x' or 'X'.,Z,None,,,,,0,0,0,0,0,0,0,0,,,,,,,,,,,,,,,,,,,,,,,,,,,,,,,,,161.9411723,None,164.9192531,None,space,0.528408,164.9192531,None,161.9411723,None,1.865,165.4712078,None,167.3470993,None,space,0,0.2927258,167.3470993,None,167.653944,None,,,,,,,,,,,,,,,,,,,,,,,,,,,,,,,P004,fencog,1,Post,2021_Jul_16_1202,N-Back (New Version 2021),2021.1.4,119.9152919
Conditions/Version_1Pr/zeroback(1)_v1.xlsx,Rule: Press 'space' when you see the letter 'x' or 'X'.,r,None,,,,,0,0,0,0,0,1,1,1,,,,,,,,,,,,,,,,,,,,,,,,,,,,,,,,,,,,,,,,,,,1.415,169.1579916,None,170.5760725,None,None,1,,170.5760725,None,172.5844958,None,,,,,,,,,,,,,,,,,,,,,,,,,,,,,,,P004,fencog,1,Post,2021_Jul_16_1202,N-Back (New Version 2021),2021.1.4,119.9152919
Conditions/Version_1Pr/zeroback(1)_v1.xlsx,Rule: Press 'space' when you see the letter 'x' or 'X'.,X,space,,,,,0,0,0,0,0,2,2,2,,,,,,,,,,,,,,,,,,,,,,,,,,,,,,,,,,,,,,,,,,,1.715,174.0814469,None,175.7995246,None,space,1,0.2957616,175.7995246,None,176.1076053,None,,,,,,,,,,,,,,,,,,,,,,,,,,,,,,,P004,fencog,1,Post,2021_Jul_16_1202,N-Back (New Version 2021),2021.1.4,119.9152919
Conditions/Version_1Pr/zeroback(1)_v1.xlsx,Rule: Press 'space' when you see the letter 'x' or 'X'.,p,None,,,,,0,0,0,0,0,3,3,3,,,,,,,,,,,,,,,,,,,,,,,,,,,,,,,,,,,,,,,,,,,1.265,177.6138075,None,178.882792,None,None,1,,178.882792,None,180.8880794,None,,,,,,,,,,,,,,,,,,,,,,,,,,,,,,,P004,fencog,1,Post,2021_Jul_16_1202,N-Back (New Version 2021),2021.1.4,119.9152919
Conditions/Version_1Pr/zeroback(1)_v1.xlsx,Rule: Press 'space' when you see the letter 'x' or 'X'.,w,None,,,,,0,0,0,0,0,4,4,4,,,,,,,,,,,,,,,,,,,,,,,,,,,,,,,,,,,,,,,,,,,1.365,182.3874442,None,183.7566436,None,None,1,,183.7566436,None,185.7615532,None,,,,,,,,,,,,,,,,,,,,,,,,,,,,,,,P004,fencog,1,Post,2021_Jul_16_1202,N-Back (New Version 2021),2021.1.4,119.9152919
Conditions/Version_1Pr/zeroback(1)_v1.xlsx,Rule: Press 'space' when you see the letter 'x' or 'X'.,e,None,,,,,0,0,0,0,0,5,5,5,,,,,,,,,,,,,,,,,,,,,,,,,,,,,,,,,,,,,,,,,,,1.965,187.2610935,None,189.2299854,None,None,1,,189.2299854,None,191.2349035,None,,,,,,,,,,,,,,,,,,,,,,,,,,,,,,,P004,fencog,1,Post,2021_Jul_16_1202,N-Back (New Version 2021),2021.1.4,119.9152919
Conditions/Version_1Pr/zeroback(1)_v1.xlsx,Rule: Press 'space' when you see the letter 'x' or 'X'.,X,space,,,,,0,0,0,0,0,6,6,6,,,,,,,,,,,,,,,,,,,,,,,,,,,,,,,,,,,,,,,,,,,1.24,192.7343739,None,193.9755544,None,space,1,0.4317444,193.9755544,None,194.4182256,None,,,,,,,,,,,,,,,,,,,,,,,,,,,,,,,P004,fencog,1,Post,2021_Jul_16_1202,N-Back (New Version 2021),2021.1.4,119.9152919
Conditions/Version_1Pr/zeroback(1)_v1.xlsx,Rule: Press 'space' when you see the letter 'x' or 'X'.,x,space,,,,,0,0,0,0,0,7,7,7,,,,,,,,,,,,,,,,,,,,,,,,,,,,,,,,,,,,,,,,,,,1.44,195.9251188,None,197.3681002,None,space,1,0.4634279,197.3681002,None,197.8422273,None,,,,,,,,,,,,,,,,,,,,,,,,,,,,,,,P004,fencog,1,Post,2021_Jul_16_1202,N-Back (New Version 2021),2021.1.4,119.9152919
Conditions/Version_1Pr/zeroback(1)_v1.xlsx,Rule: Press 'space' when you see the letter 'x' or 'X'.,p,None,,,,,0,0,0,0,0,8,8,8,,,,,,,,,,,,,,,,,,,,,,,,,,,,,,,,,,,,,,,,,,,1.84,199.3487771,None,201.1940851,None,None,1,,201.1940851,None,203.1979988,None,,,,,,,,,,,,,,,,,,,,,,,,,,,,,,,P004,fencog,1,Post,2021_Jul_16_1202,N-Back (New Version 2021),2021.1.4,119.9152919
Conditions/Version_1Pr/zeroback(1)_v1.xlsx,Rule: Press 'space' when you see the letter 'x' or 'X'.,r,None,,,,,0,0,0,0,0,9,9,9,,,,,,,,,,,,,,,,,,,,,,,,,,,,,,,,,,,,,,,,,,,1.09,204.6975164,None,205.7905607,None,None,1,,205.7905607,None,207.796638,None,,,,,,,,,,,,,,,,,,,,,,,,,,,,,,,P004,fencog,1,Post,2021_Jul_16_1202,N-Back (New Version 2021),2021.1.4,119.9152919
Conditions/Version_1Pr/zeroback(1)_v1.xlsx,Rule: Press 'space' when you see the letter 'x' or 'X'.,,,,,,,0,0,0,0,,,,,,,,,,,,,,,,,,,,,,,,,,,,,,,,,,,,,,,,,,,,,,,,,,,,,,,,,,,,,,,,,,,,,,,,,,,,,,,,,,,,,,,,,P004,fencog,1,Post,2021_Jul_16_1202,N-Back (New Version 2021),2021.1.4,119.9152919
Conditions/Version_1Pr/oneback(1)_v1.xlsx,New rule: Press 'space' when you see 1-back (i.e. the same letter as the one that appeared 1 letter ago.),a,None,,,,,0,1,1,1,0,0,0,0,,,,,,,,,,,,,,,,,,,,,,,,,,,,,,,,,209.3231318,None,212.3057716,None,space,11.7737231,212.3057716,None,209.3231318,None,1.29,224.0981229,None,225.3937245,None,None,1,,225.3937245,None,227.3991764,None,,,,,,,,,,,,,,,,,,,,,,,,,,,,,,,P004,fencog,1,Post,2021_Jul_16_1202,N-Back (New Version 2021),2021.1.4,119.9152919
Conditions/Version_1Pr/oneback(1)_v1.xlsx,New rule: Press 'space' when you see 1-back (i.e. the same letter as the one that appeared 1 letter ago.),x,None,,,,,0,1,1,1,0,1,1,1,,,,,,,,,,,,,,,,,,,,,,,,,,,,,,,,,,,,,,,,,,,1.24,228.8986652,None,230.1419241,None,None,1,,230.1419241,None,232.1478742,None,,,,,,,,,,,,,,,,,,,,,,,,,,,,,,,P004,fencog,1,Post,2021_Jul_16_1202,N-Back (New Version 2021),2021.1.4,119.9152919
Conditions/Version_1Pr/oneback(1)_v1.xlsx,New rule: Press 'space' when you see 1-back (i.e. the same letter as the one that appeared 1 letter ago.),g,None,,,,,0,1,1,1,0,2,2,2,,,,,,,,,,,,,,,,,,,,,,,,,,,,,,,,,,,,,,,,,,,2.015,233.6474428,None,235.6696488,None,None,1,,235.6696488,None,237.6694299,None,,,,,,,,,,,,,,,,,,,,,,,,,,,,,,,P004,fencog,1,Post,2021_Jul_16_1202,N-Back (New Version 2021),2021.1.4,119.9152919
Conditions/Version_1Pr/oneback(1)_v1.xlsx,New rule: Press 'space' when you see 1-back (i.e. the same letter as the one that appeared 1 letter ago.),G,space,,,,,0,1,1,1,0,3,3,3,,,,,,,,,,,,,,,,,,,,,,,,,,,,,,,,,,,,,,,,,,,1.465,239.1708077,None,240.6415566,None,space,1,0.3421321,240.6415566,None,241.0023131,None,,,,,,,,,,,,,,,,,,,,,,,,,,,,,,,P004,fencog,1,Post,2021_Jul_16_1202,N-Back (New Version 2021),2021.1.4,119.9152919
Conditions/Version_1Pr/oneback(1)_v1.xlsx,New rule: Press 'space' when you see 1-back (i.e. the same letter as the one that appeared 1 letter ago.),u,None,,,,,0,1,1,1,0,4,4,4,,,,,,,,,,,,,,,,,,,,,,,,,,,,,,,,,,,,,,,,,,,1.065,242.5029441,None,243.5722843,None,None,1,,243.5722843,None,245.5771041,None,,,,,,,,,,,,,,,,,,,,,,,,,,,,,,,P004,fencog,1,Post,2021_Jul_16_1202,N-Back (New Version 2021),2021.1.4,119.9152919
Conditions/Version_1Pr/oneback(1)_v1.xlsx,New rule: Press 'space' when you see 1-back (i.e. the same letter as the one that appeared 1 letter ago.),y,None,,,,,0,1,1,1,0,5,5,5,,,,,,,,,,,,,,,,,,,,,,,,,,,,,,,,,,,,,,,,,,,1.165,247.0766532,None,248.2456278,None,None,1,,248.2456278,None,250.2507384,None,,,,,,,,,,,,,,,,,,,,,,,,,,,,,,,P004,fencog,1,Post,2021_Jul_16_1202,N-Back (New Version 2021),2021.1.4,119.9152919
Conditions/Version_1Pr/oneback(1)_v1.xlsx,New rule: Press 'space' when you see 1-back (i.e. the same letter as the one that appeared 1 letter ago.),y,space,,,,,0,1,1,1,0,6,6,6,,,,,,,,,,,,,,,,,,,,,,,,,,,,,,,,,,,,,,,,,,,1.74,251.7502812,None,253.4912675,None,space,1,0.2924225,253.4912675,None,253.7927692,None,,,,,,,,,,,,,,,,,,,,,,,,,,,,,,,P004,fencog,1,Post,2021_Jul_16_1202,N-Back (New Version 2021),2021.1.4,119.9152919
Conditions/Version_1Pr/oneback(1)_v1.xlsx,New rule: Press 'space' when you see 1-back (i.e. the same letter as the one that appeared 1 letter ago.),k,None,,,,,0,1,1,1,0,7,7,7,,,,,,,,,,,,,,,,,,,,,,,,,,,,,,,,,,,,,,,,,,,1.415,255.2991498,None,256.7202981,None,None,1,,256.7202981,None,258.7231835,None,,,,,,,,,,,,,,,,,,,,,,,,,,,,,,,P004,fencog,1,Post,2021_Jul_16_1202,N-Back (New Version 2021),2021.1.4,119.9152919
Conditions/Version_1Pr/oneback(1)_v1.xlsx,New rule: Press 'space' when you see 1-back (i.e. the same letter as the one that appeared 1 letter ago.),c,None,,,,,0,1,1,1,0,8,8,8,,,,,,,,,,,,,,,,,,,,,,,,,,,,,,,,,,,,,,,,,,,1.94,260.2227476,None,262.1649931,None,None,1,,262.1649931,None,264.1715188,None,,,,,,,,,,,,,,,,,,,,,,,,,,,,,,,P004,fencog,1,Post,2021_Jul_16_1202,N-Back (New Version 2021),2021.1.4,119.9152919
Conditions/Version_1Pr/oneback(1)_v1.xlsx,New rule: Press 'space' when you see 1-back (i.e. the same letter as the one that appeared 1 letter ago.),r,None,,,,,0,1,1,1,0,9,9,9,,,,,,,,,,,,,,,,,,,,,,,,,,,,,,,,,,,,,,,,,,,1.765,265.6711295,None,267.4395685,None,None,1,,267.4395685,None,269.4394371,None,,,,,,,,,,,,,,,,,,,,,,,,,,,,,,,P004,fencog,1,Post,2021_Jul_16_1202,N-Back (New Version 2021),2021.1.4,119.9152919
Conditions/Version_1Pr/oneback(1)_v1.xlsx,New rule: Press 'space' when you see 1-back (i.e. the same letter as the one that appeared 1 letter ago.),,,,,,,0,1,1,1,,,,,,,,,,,,,,,,,,,,,,,,,,,,,,,,,,,,,,,,,,,,,,,,,,,,,,,,,,,,,,,,,,,,,,,,,,,,,,,,,,,,,,,,,P004,fencog,1,Post,2021_Jul_16_1202,N-Back (New Version 2021),2021.1.4,119.9152919
Conditions/Version_1Pr/twoback(1)_v1.xlsx,New rule: Press 'space' when you see 2-back (i.e. the same letter as the one that appeared 2 letters ago.),E,None,,,,,0,2,2,2,0,0,0,0,,,,,,,,,,,,,,,,,,,,,,,,,,,,,,,,,270.9726338,None,273.9542386,None,space,6.0210345,273.9542386,None,270.9726338,None,1.065,279.9946173,None,281.0704022,None,None,1,,281.0704022,None,283.0744885,None,,,,,,,,,,,,,,,,,,,,,,,,,,,,,,,P004,fencog,1,Post,2021_Jul_16_1202,N-Back (New Version 2021),2021.1.4,119.9152919
Conditions/Version_1Pr/twoback(1)_v1.xlsx,New rule: Press 'space' when you see 2-back (i.e. the same letter as the one that appeared 2 letters ago.),p,None,,,,,0,2,2,2,0,1,1,1,,,,,,,,,,,,,,,,,,,,,,,,,,,,,,,,,,,,,,,,,,,1.615,284.5738852,None,286.1914115,None,None,1,,286.1914115,None,288.1979755,None,,,,,,,,,,,,,,,,,,,,,,,,,,,,,,,P004,fencog,1,Post,2021_Jul_16_1202,N-Back (New Version 2021),2021.1.4,119.9152919
Conditions/Version_1Pr/twoback(1)_v1.xlsx,New rule: Press 'space' when you see 2-back (i.e. the same letter as the one that appeared 2 letters ago.),e,space,,,,,0,2,2,2,0,2,2,2,,,,,,,,,,,,,,,,,,,,,,,,,,,,,,,,,,,,,,,,,,,1.74,289.6975558,None,291.4396585,None,space,1,0.4474401,291.4396585,None,291.8982728,None,,,,,,,,,,,,,,,,,,,,,,,,,,,,,,,P004,fencog,1,Post,2021_Jul_16_1202,N-Back (New Version 2021),2021.1.4,119.9152919
Conditions/Version_1Pr/twoback(1)_v1.xlsx,New rule: Press 'space' when you see 2-back (i.e. the same letter as the one that appeared 2 letters ago.),s,None,,,,,0,2,2,2,0,3,3,3,,,,,,,,,,,,,,,,,,,,,,,,,,,,,,,,,,,,,,,,,,,1.84,293.4047015,None,295.2489116,None,None,1,,295.2489116,None,297.2535827,None,,,,,,,,,,,,,,,,,,,,,,,,,,,,,,,P004,fencog,1,Post,2021_Jul_16_1202,N-Back (New Version 2021),2021.1.4,119.9152919
Conditions/Version_1Pr/twoback(1)_v1.xlsx,New rule: Press 'space' when you see 2-back (i.e. the same letter as the one that appeared 2 letters ago.),S,None,,,,,0,2,2,2,0,4,4,4,,,,,,,,,,,,,,,,,,,,,,,,,,,,,,,,,,,,,,,,,,,1.94,298.753107,None,300.6978064,None,None,1,,300.6978064,None,302.7019235,None,,,,,,,,,,,,,,,,,,,,,,,,,,,,,,,P004,fencog,1,Post,2021_Jul_16_1202,N-Back (New Version 2021),2021.1.4,119.9152919
Conditions/Version_1Pr/twoback(1)_v1.xlsx,New rule: Press 'space' when you see 2-back (i.e. the same letter as the one that appeared 2 letters ago.),s,space,,,,,0,2,2,2,0,5,5,5,,,,,,,,,,,,,,,,,,,,,,,,,,,,,,,,,,,,,,,,,,,1.515,304.2014183,None,305.720062,None,None,0,,305.720062,None,307.7302341,None,,,,,,,,,,,,,,,,,,,,,,,,,,,,,,,P004,fencog,1,Post,2021_Jul_16_1202,N-Back (New Version 2021),2021.1.4,119.9152919
Conditions/Version_1Pr/twoback(1)_v1.xlsx,New rule: Press 'space' when you see 2-back (i.e. the same letter as the one that appeared 2 letters ago.),P,None,,,,,0,2,2,2,0,6,6,6,,,,,,,,,,,,,,,,,,,,,,,,,,,,,,,,,,,,,,,,,,,1.19,309.2249543,None,310.4193328,None,None,1,,310.4193328,None,312.4279397,None,,,,,,,,,,,,,,,,,,,,,,,,,,,,,,,P004,fencog,1,Post,2021_Jul_16_1202,N-Back (New Version 2021),2021.1.4,119.9152919
Conditions/Version_1Pr/twoback(1)_v1.xlsx,New rule: Press 'space' when you see 2-back (i.e. the same letter as the one that appeared 2 letters ago.),C,None,,,,,0,2,2,2,0,7,7,7,,,,,,,,,,,,,,,,,,,,,,,,,,,,,,,,,,,,,,,,,,,1.39,313.9235373,None,315.3228434,None,None,1,,315.3228434,None,317.3225578,None,,,,,,,,,,,,,,,,,,,,,,,,,,,,,,,P004,fencog,1,Post,2021_Jul_16_1202,N-Back (New Version 2021),2021.1.4,119.9152919
Conditions/Version_1Pr/twoback(1)_v1.xlsx,New rule: Press 'space' when you see 2-back (i.e. the same letter as the one that appeared 2 letters ago.),x,None,,,,,0,2,2,2,0,8,8,8,,,,,,,,,,,,,,,,,,,,,,,,,,,,,,,,,,,,,,,,,,,1.59,318.8220793,None,320.4160523,None,None,1,,320.4160523,None,322.42111,None,,,,,,,,,,,,,,,,,,,,,,,,,,,,,,,P004,fencog,1,Post,2021_Jul_16_1202,N-Back (New Version 2021),2021.1.4,119.9152919
Conditions/Version_1Pr/twoback(1)_v1.xlsx,New rule: Press 'space' when you see 2-back (i.e. the same letter as the one that appeared 2 letters ago.),Z,None,,,,,0,2,2,2,0,9,9,9,,,,,,,,,,,,,,,,,,,,,,,,,,,,,,,,,,,,,,,,,,,1.865,323.9205577,None,325.7870702,None,None,1,,325.7870702,None,327.7944948,None,,,,,,,,,,,,,,,,,,,,,,,,,,,,,,,P004,fencog,1,Post,2021_Jul_16_1202,N-Back (New Version 2021),2021.1.4,119.9152919
Conditions/Version_1Pr/twoback(1)_v1.xlsx,New rule: Press 'space' when you see 2-back (i.e. the same letter as the one that appeared 2 letters ago.),,,,,,,0,2,2,2,,,,,,,,,,,,,,,,,,,,,,,,,,,,,,,,,,,,,,,,,,,,,,,,,,,,,,,,,,,,,,,,,,,,,,,,,,,,,,,,,,,,,,,,,P004,fencog,1,Post,2021_Jul_16_1202,N-Back (New Version 2021),2021.1.4,119.9152919
Conditions/Version_1Pr/threeback(1)_v1.xlsx,New rule: Press 'space' when you see 3-back (i.e. the same letter as the one that appeared 3 letters ago.),r,None,,,,,0,3,3,3,0,0,0,0,,,,,,,,,,,,,,,,,,,,,,,,,,,,,,,,,329.3160958,None,332.3039785,None,space,4.0235476,332.3039785,None,329.3160958,None,1.515,336.3668179,None,337.8831112,None,None,1,,337.8831112,None,339.882469,None,,,,,,,,,,,,,,,,,,,,,,,,,,,,,,,P004,fencog,1,Post,2021_Jul_16_1202,N-Back (New Version 2021),2021.1.4,119.9152919
Conditions/Version_1Pr/threeback(1)_v1.xlsx,New rule: Press 'space' when you see 3-back (i.e. the same letter as the one that appeared 3 letters ago.),a,None,,,,,0,3,3,3,0,1,1,1,,,,,,,,,,,,,,,,,,,,,,,,,,,,,,,,,,,,,,,,,,,1.64,341.3819661,None,343.0284773,None,None,1,,343.0284773,None,345.0310784,None,,,,,,,,,,,,,,,,,,,,,,,,,,,,,,,P004,fencog,1,Post,2021_Jul_16_1202,N-Back (New Version 2021),2021.1.4,119.9152919
Conditions/Version_1Pr/threeback(1)_v1.xlsx,New rule: Press 'space' when you see 3-back (i.e. the same letter as the one that appeared 3 letters ago.),t,None,,,,,0,3,3,3,0,2,2,2,,,,,,,,,,,,,,,,,,,,,,,,,,,,,,,,,,,,,,,,,,,1.665,346.5306527,None,348.1998931,None,None,1,,348.1998931,None,350.2044998,None,,,,,,,,,,,,,,,,,,,,,,,,,,,,,,,P004,fencog,1,Post,2021_Jul_16_1202,N-Back (New Version 2021),2021.1.4,119.9152919
Conditions/Version_1Pr/threeback(1)_v1.xlsx,New rule: Press 'space' when you see 3-back (i.e. the same letter as the one that appeared 3 letters ago.),r,space,,,,,0,3,3,3,0,3,3,3,,,,,,,,,,,,,,,,,,,,,,,,,,,,,,,,,,,,,,,,,,,1.34,351.7040581,None,353.0465528,None,space,1,0.3609451,353.0465528,None,353.4213875,None,,,,,,,,,,,,,,,,,,,,,,,,,,,,,,,P004,fencog,1,Post,2021_Jul_16_1202,N-Back (New Version 2021),2021.1.4,119.9152919
Conditions/Version_1Pr/threeback(1)_v1.xlsx,New rule: Press 'space' when you see 3-back (i.e. the same letter as the one that appeared 3 letters ago.),a,None,,,,,0,3,3,3,0,4,4,4,,,,,,,,,,,,,,,,,,,,,,,,,,,,,,,,,,,,,,,,,,,1.115,354.9280066,None,356.0442801,None,space,0,1.691116,356.0442801,None,357.746852,None,,,,,,,,,,,,,,,,,,,,,,,,,,,,,,,P004,fencog,1,Post,2021_Jul_16_1202,N-Back (New Version 2021),2021.1.4,119.9152919
Conditions/Version_1Pr/threeback(1)_v1.xlsx,New rule: Press 'space' when you see 3-back (i.e. the same letter as the one that appeared 3 letters ago.),Y,None,,,,,0,3,3,3,0,5,5,5,,,,,,,,,,,,,,,,,,,,,,,,,,,,,,,,,,,,,,,,,,,1.465,359.2518811,None,360.7219182,None,None,1,,360.7219182,None,362.725418,None,,,,,,,,,,,,,,,,,,,,,,,,,,,,,,,P004,fencog,1,Post,2021_Jul_16_1202,N-Back (New Version 2021),2021.1.4,119.9152919
Conditions/Version_1Pr/threeback(1)_v1.xlsx,New rule: Press 'space' when you see 3-back (i.e. the same letter as the one that appeared 3 letters ago.),q,None,,,,,0,3,3,3,0,6,6,6,,,,,,,,,,,,,,,,,,,,,,,,,,,,,,,,,,,,,,,,,,,1.99,364.2253483,None,366.2180845,None,None,1,,366.2180845,None,368.2242328,None,,,,,,,,,,,,,,,,,,,,,,,,,,,,,,,P004,fencog,1,Post,2021_Jul_16_1202,N-Back (New Version 2021),2021.1.4,119.9152919
Conditions/Version_1Pr/threeback(1)_v1.xlsx,New rule: Press 'space' when you see 3-back (i.e. the same letter as the one that appeared 3 letters ago.),A,space,,,,,0,3,3,3,0,7,7,7,,,,,,,,,,,,,,,,,,,,,,,,,,,,,,,,,,,,,,,,,,,1.49,369.7237612,None,371.2186207,None,None,0,,371.2186207,None,373.2236121,None,,,,,,,,,,,,,,,,,,,,,,,,,,,,,,,P004,fencog,1,Post,2021_Jul_16_1202,N-Back (New Version 2021),2021.1.4,119.9152919
Conditions/Version_1Pr/threeback(1)_v1.xlsx,New rule: Press 'space' when you see 3-back (i.e. the same letter as the one that appeared 3 letters ago.),y,None,,,,,0,3,3,3,0,8,8,8,,,,,,,,,,,,,,,,,,,,,,,,,,,,,,,,,,,,,,,,,,,1.79,374.7223025,None,376.5142511,None,None,1,,376.5142511,None,378.520981,None,,,,,,,,,,,,,,,,,,,,,,,,,,,,,,,P004,fencog,1,Post,2021_Jul_16_1202,N-Back (New Version 2021),2021.1.4,119.9152919
Conditions/Version_1Pr/threeback(1)_v1.xlsx,New rule: Press 'space' when you see 3-back (i.e. the same letter as the one that appeared 3 letters ago.),r,None,,,,,0,3,3,3,0,9,9,9,,,,,,,,,,,,,,,,,,,,,,,,,,,,,,,,,,,,,,,,,,,1.315,380.0210603,None,381.3389858,None,None,1,,381.3389858,None,383.3447532,None,,,,,,,,,,,,,,,,,,,,,,,,,,,,,,,P004,fencog,1,Post,2021_Jul_16_1202,N-Back (New Version 2021),2021.1.4,119.9152919
Conditions/Version_1Pr/threeback(1)_v1.xlsx,New rule: Press 'space' when you see 3-back (i.e. the same letter as the one that appeared 3 letters ago.),,,,,,,0,3,3,3,,,,,,,,,,,,,,,,,,,,,,,,,,,,,,,,,,,,,,,,,,,,,,,,,,,,,,,,,,,,,,,,,,,,,,,,,,,,,,,,,,,,,,,,,P004,fencog,1,Post,2021_Jul_16_1202,N-Back (New Version 2021),2021.1.4,119.9152919
,,,,,,,,,,,,,,,,,,,,,,,,,,,,,,,,,,,,,,,,,,,,,,,,,,,,,,,,,,,,,,,,,,,,,,384.8538315,None,space,31.5029303,385.3444309,None,,,,,,,,,,,,,,,,,,,,,,,,,P004,fencog,1,Post,2021_Jul_16_1202,N-Back (New Version 2021),2021.1.4,119.9152919
,,,,,,,,,,,,,,,,,,,,,,,,,,,,,,,,,,,,,,,,,,,,,,,,,,,,,,,,,,,,,,,,,,,,,,,,,,,,416.873868,None,space,2.5749497,417.3685222,None,,,,,,,,,,,,,,,,,,,P004,fencog,1,Post,2021_Jul_16_1202,N-Back (New Version 2021),2021.1.4,119.9152919
,,,,Conditions/Version_1/zeroback(1)_v1.xlsx,Rule: Press 'space' when you see the letter 'x' or 'X'.,b,None,,,,,,,,,0,0,0,0,0,0,0,0,,,,,,,,,,,,,,,,,,,,,,,,,,,,,,,,,,,,,,,,,,,,,,,,,,,,,,,,,,,420.0398285,None,423.0354287,None,space,0.548024,423.0354287,None,420.0398285,None,1.4626,425.0747619,None,None,1,425.0747619,None,,P004,fencog,1,Post,2021_Jul_16_1202,N-Back (New Version 2021),2021.1.4,119.9152919
,,,,Conditions/Version_1/zeroback(1)_v1.xlsx,Rule: Press 'space' when you see the letter 'x' or 'X'.,T,None,,,,,,,,,0,0,0,0,0,1,1,1,,,,,,,,,,,,,,,,,,,,,,,,,,,,,,,,,,,,,,,,,,,,,,,,,,,,,,,,,,,,,,,,,,,,,1.8408,428.9236523,None,None,1,428.9236523,None,,P004,fencog,1,Post,2021_Jul_16_1202,N-Back (New Version 2021),2021.1.4,119.9152919
,,,,Conditions/Version_1/zeroback(1)_v1.xlsx,Rule: Press 'space' when you see the letter 'x' or 'X'.,L,None,,,,,,,,,0,0,0,0,0,2,2,2,,,,,,,,,,,,,,,,,,,,,,,,,,,,,,,,,,,,,,,,,,,,,,,,,,,,,,,,,,,,,,,,,,,,,1.4936,432.4356633,None,None,1,432.4356633,None,,P004,fencog,1,Post,2021_Jul_16_1202,N-Back (New Version 2021),2021.1.4,119.9152919
,,,,Conditions/Version_1/zeroback(1)_v1.xlsx,Rule: Press 'space' when you see the letter 'x' or 'X'.,x,space,,,,,,,,,0,0,0,0,0,3,3,3,,,,,,,,,,,,,,,,,,,,,,,,,,,,,,,,,,,,,,,,,,,,,,,,,,,,,,,,,,,,,,,,,,,,,1.847,436.2878342,None,space,1,436.2878342,None,0.3115071,P004,fencog,1,Post,2021_Jul_16_1202,N-Back (New Version 2021),2021.1.4,119.9152919
,,,,Conditions/Version_1/zeroback(1)_v1.xlsx,Rule: Press 'space' when you see the letter 'x' or 'X'.,o,None,,,,,,,,,0,0,0,0,0,4,4,4,,,,,,,,,,,,,,,,,,,,,,,,,,,,,,,,,,,,,,,,,,,,,,,,,,,,,,,,,,,,,,,,,,,,,1.878,440.1739503,None,None,1,440.1739503,None,,P004,fencog,1,Post,2021_Jul_16_1202,N-Back (New Version 2021),2021.1.4,119.9152919
,,,,Conditions/Version_1/zeroback(1)_v1.xlsx,Rule: Press 'space' when you see the letter 'x' or 'X'.,P,None,,,,,,,,,0,0,0,0,0,5,5,5,,,,,,,,,,,,,,,,,,,,,,,,,,,,,,,,,,,,,,,,,,,,,,,,,,,,,,,,,,,,,,,,,,,,,1.0968,443.2787074,None,None,1,443.2787074,None,,P004,fencog,1,Post,2021_Jul_16_1202,N-Back (New Version 2021),2021.1.4,119.9152919
,,,,Conditions/Version_1/zeroback(1)_v1.xlsx,Rule: Press 'space' when you see the letter 'x' or 'X'.,X,space,,,,,,,,,0,0,0,0,0,6,6,6,,,,,,,,,,,,,,,,,,,,,,,,,,,,,,,,,,,,,,,,,,,,,,,,,,,,,,,,,,,,,,,,,,,,,1.6982,446.9852944,None,space,1,446.9852944,None,0.3340218,P004,fencog,1,Post,2021_Jul_16_1202,N-Back (New Version 2021),2021.1.4,119.9152919
,,,,Conditions/Version_1/zeroback(1)_v1.xlsx,Rule: Press 'space' when you see the letter 'x' or 'X'.,n,None,,,,,,,,,0,0,0,0,0,7,7,7,,,,,,,,,,,,,,,,,,,,,,,,,,,,,,,,,,,,,,,,,,,,,,,,,,,,,,,,,,,,,,,,,,,,,1.6176,450.6187366,None,None,1,450.6187366,None,,P004,fencog,1,Post,2021_Jul_16_1202,N-Back (New Version 2021),2021.1.4,119.9152919
,,,,Conditions/Version_1/zeroback(1)_v1.xlsx,Rule: Press 'space' when you see the letter 'x' or 'X'.,M,None,,,,,,,,,0,0,0,0,0,8,8,8,,,,,,,,,,,,,,,,,,,,,,,,,,,,,,,,,,,,,,,,,,,,,,,,,,,,,,,,,,,,,,,,,,,,,1.8036,454.4349357,None,None,1,454.4349357,None,,P004,fencog,1,Post,2021_Jul_16_1202,N-Back (New Version 2021),2021.1.4,119.9152919
,,,,Conditions/Version_1/zeroback(1)_v1.xlsx,Rule: Press 'space' when you see the letter 'x' or 'X'.,a,None,,,,,,,,,0,0,0,0,0,9,9,9,,,,,,,,,,,,,,,,,,,,,,,,,,,,,,,,,,,,,,,,,,,,,,,,,,,,,,,,,,,,,,,,,,,,,1.8284,458.2737101,None,None,1,458.2737101,None,,P004,fencog,1,Post,2021_Jul_16_1202,N-Back (New Version 2021),2021.1.4,119.9152919
,,,,Conditions/Version_1/zeroback(1)_v1.xlsx,Rule: Press 'space' when you see the letter 'x' or 'X'.,,,,,,,,,,,0,0,0,0,,,,,,,,,,,,,,,,,,,,,,,,,,,,,,,,,,,,,,,,,,,,,,,,,,,,,,,,,,,,,,,,,,,,,,,,,,,,,,,,,P004,fencog,1,Post,2021_Jul_16_1202,N-Back (New Version 2021),2021.1.4,119.9152919
,,,,Conditions/Version_1/oneback(1)_v1.xlsx,New rule: Press 'space' when you see 1-back (i.e. the same letter as the one that appeared 1 letter ago.),b,None,,,,,,,,,0,1,1,1,0,0,0,0,,,,,,,,,,,,,,,,,,,,,,,,,,,,,,,,,,,,,,,,,,,,,,,,,,,,,,,,,,,460.2970615,None,463.2823865,None,space,0.5809285,463.2823865,None,460.2970615,None,1.4564,465.3471,None,None,1,465.3471,None,,P004,fencog,1,Post,2021_Jul_16_1202,N-Back (New Version 2021),2021.1.4,119.9152919
,,,,Conditions/Version_1/oneback(1)_v1.xlsx,New rule: Press 'space' when you see 1-back (i.e. the same letter as the one that appeared 1 letter ago.),p,None,,,,,,,,,0,1,1,1,0,1,1,1,,,,,,,,,,,,,,,,,,,,,,,,,,,,,,,,,,,,,,,,,,,,,,,,,,,,,,,,,,,,,,,,,,,,,1.754,469.1148323,None,None,1,469.1148323,None,,P004,fencog,1,Post,2021_Jul_16_1202,N-Back (New Version 2021),2021.1.4,119.9152919
,,,,Conditions/Version_1/oneback(1)_v1.xlsx,New rule: Press 'space' when you see 1-back (i.e. the same letter as the one that appeared 1 letter ago.),M,None,,,,,,,,,0,1,1,1,0,2,2,2,,,,,,,,,,,,,,,,,,,,,,,,,,,,,,,,,,,,,,,,,,,,,,,,,,,,,,,,,,,,,,,,,,,,,1.8904,473.0117842,None,None,1,473.0117842,None,,P004,fencog,1,Post,2021_Jul_16_1202,N-Back (New Version 2021),2021.1.4,119.9152919
,,,,Conditions/Version_1/oneback(1)_v1.xlsx,New rule: Press 'space' when you see 1-back (i.e. the same letter as the one that appeared 1 letter ago.),M,space,,,,,,,,,0,1,1,1,0,3,3,3,,,,,,,,,,,,,,,,,,,,,,,,,,,,,,,,,,,,,,,,,,,,,,,,,,,,,,,,,,,,,,,,,,,,,1.2766,476.3005399,None,space,1,476.3005399,None,0.4747041,P004,fencog,1,Post,2021_Jul_16_1202,N-Back (New Version 2021),2021.1.4,119.9152919
,,,,Conditions/Version_1/oneback(1)_v1.xlsx,New rule: Press 'space' when you see 1-back (i.e. the same letter as the one that appeared 1 letter ago.),n,None,,,,,,,,,0,1,1,1,0,4,4,4,,,,,,,,,,,,,,,,,,,,,,,,,,,,,,,,,,,,,,,,,,,,,,,,,,,,,,,,,,,,,,,,,,,,,1.7974,480.1002591,None,None,1,480.1002591,None,,P004,fencog,1,Post,2021_Jul_16_1202,N-Back (New Version 2021),2021.1.4,119.9152919
,,,,Conditions/Version_1/oneback(1)_v1.xlsx,New rule: Press 'space' when you see 1-back (i.e. the same letter as the one that appeared 1 letter ago.),g,None,,,,,,,,,0,1,1,1,0,5,5,5,,,,,,,,,,,,,,,,,,,,,,,,,,,,,,,,,,,,,,,,,,,,,,,,,,,,,,,,,,,,,,,,,,,,,1.2642,483.3759913,None,None,1,483.3759913,None,,P004,fencog,1,Post,2021_Jul_16_1202,N-Back (New Version 2021),2021.1.4,119.9152919
,,,,Conditions/Version_1/oneback(1)_v1.xlsx,New rule: Press 'space' when you see 1-back (i.e. the same letter as the one that appeared 1 letter ago.),P,None,,,,,,,,,0,1,1,1,0,6,6,6,,,,,,,,,,,,,,,,,,,,,,,,,,,,,,,,,,,,,,,,,,,,,,,,,,,,,,,,,,,,,,,,,,,,,1.1774,486.5641648,None,None,1,486.5641648,None,,P004,fencog,1,Post,2021_Jul_16_1202,N-Back (New Version 2021),2021.1.4,119.9152919
,,,,Conditions/Version_1/oneback(1)_v1.xlsx,New rule: Press 'space' when you see 1-back (i.e. the same letter as the one that appeared 1 letter ago.),o,None,,,,,,,,,0,1,1,1,0,7,7,7,,,,,,,,,,,,,,,,,,,,,,,,,,,,,,,,,,,,,,,,,,,,,,,,,,,,,,,,,,,,,,,,,,,,,1.382,489.9487979,None,None,1,489.9487979,None,,P004,fencog,1,Post,2021_Jul_16_1202,N-Back (New Version 2021),2021.1.4,119.9152919
,,,,Conditions/Version_1/oneback(1)_v1.xlsx,New rule: Press 'space' when you see 1-back (i.e. the same letter as the one that appeared 1 letter ago.),f,None,,,,,,,,,0,1,1,1,0,8,8,8,,,,,,,,,,,,,,,,,,,,,,,,,,,,,,,,,,,,,,,,,,,,,,,,,,,,,,,,,,,,,,,,,,,,,1.0844,493.0482207,None,None,1,493.0482207,None,,P004,fencog,1,Post,2021_Jul_16_1202,N-Back (New Version 2021),2021.1.4,119.9152919
,,,,Conditions/Version_1/oneback(1)_v1.xlsx,New rule: Press 'space' when you see 1-back (i.e. the same letter as the one that appeared 1 letter ago.),F,space,,,,,,,,,0,1,1,1,0,9,9,9,,,,,,,,,,,,,,,,,,,,,,,,,,,,,,,,,,,,,,,,,,,,,,,,,,,,,,,,,,,,,,,,,,,,,1.1526,496.2130828,None,space,1,496.2130828,None,0.4659648,P004,fencog,1,Post,2021_Jul_16_1202,N-Back (New Version 2021),2021.1.4,119.9152919
,,,,Conditions/Version_1/oneback(1)_v1.xlsx,New rule: Press 'space' when you see 1-back (i.e. the same letter as the one that appeared 1 letter ago.),,,,,,,,,,,0,1,1,1,,,,,,,,,,,,,,,,,,,,,,,,,,,,,,,,,,,,,,,,,,,,,,,,,,,,,,,,,,,,,,,,,,,,,,,,,,,,,,,,,P004,fencog,1,Post,2021_Jul_16_1202,N-Back (New Version 2021),2021.1.4,119.9152919
,,,,Conditions/Version_1/twoback(1)_v1.xlsx,New rule: Press 'space' when you see 2-back (i.e. the same letter as the one that appeared 2 letters ago.),b,None,,,,,,,,,0,2,2,2,0,0,0,0,,,,,,,,,,,,,,,,,,,,,,,,,,,,,,,,,,,,,,,,,,,,,,,,,,,,,,,,,,,498.2421466,None,501.2287329,None,space,72.5544237,501.2287329,None,498.2421466,None,1.444,575.2475855,None,None,1,575.2475855,None,,P004,fencog,1,Post,2021_Jul_16_1202,N-Back (New Version 2021),2021.1.4,119.9152919
,,,,Conditions/Version_1/twoback(1)_v1.xlsx,New rule: Press 'space' when you see 2-back (i.e. the same letter as the one that appeared 2 letters ago.),h,None,,,,,,,,,0,2,2,2,0,1,1,1,,,,,,,,,,,,,,,,,,,,,,,,,,,,,,,,,,,,,,,,,,,,,,,,,,,,,,,,,,,,,,,,,,,,,1.4254,578.6883684,None,None,1,578.6883684,None,,P004,fencog,1,Post,2021_Jul_16_1202,N-Back (New Version 2021),2021.1.4,119.9152919
,,,,Conditions/Version_1/twoback(1)_v1.xlsx,New rule: Press 'space' when you see 2-back (i.e. the same letter as the one that appeared 2 letters ago.),j,None,,,,,,,,,0,2,2,2,0,2,2,2,,,,,,,,,,,,,,,,,,,,,,,,,,,,,,,,,,,,,,,,,,,,,,,,,,,,,,,,,,,,,,,,,,,,,1.9276,582.6228547,None,None,1,582.6228547,None,,P004,fencog,1,Post,2021_Jul_16_1202,N-Back (New Version 2021),2021.1.4,119.9152919
,,,,Conditions/Version_1/twoback(1)_v1.xlsx,New rule: Press 'space' when you see 2-back (i.e. the same letter as the one that appeared 2 letters ago.),H,space,,,,,,,,,0,2,2,2,0,3,3,3,,,,,,,,,,,,,,,,,,,,,,,,,,,,,,,,,,,,,,,,,,,,,,,,,,,,,,,,,,,,,,,,,,,,,1.2518,585.8887555,None,space,1,585.8887555,None,0.3745496,P004,fencog,1,Post,2021_Jul_16_1202,N-Back (New Version 2021),2021.1.4,119.9152919
,,,,Conditions/Version_1/twoback(1)_v1.xlsx,New rule: Press 'space' when you see 2-back (i.e. the same letter as the one that appeared 2 letters ago.),p,None,,,,,,,,,0,2,2,2,0,4,4,4,,,,,,,,,,,,,,,,,,,,,,,,,,,,,,,,,,,,,,,,,,,,,,,,,,,,,,,,,,,,,,,,,,,,,1.3448,589.2441875,None,None,1,589.2441875,None,,P004,fencog,1,Post,2021_Jul_16_1202,N-Back (New Version 2021),2021.1.4,119.9152919
,,,,Conditions/Version_1/twoback(1)_v1.xlsx,New rule: Press 'space' when you see 2-back (i.e. the same letter as the one that appeared 2 letters ago.),p,None,,,,,,,,,0,2,2,2,0,5,5,5,,,,,,,,,,,,,,,,,,,,,,,,,,,,,,,,,,,,,,,,,,,,,,,,,,,,,,,,,,,,,,,,,,,,,1.3262,592.5827137,None,None,1,592.5827137,None,,P004,fencog,1,Post,2021_Jul_16_1202,N-Back (New Version 2021),2021.1.4,119.9152919
,,,,Conditions/Version_1/twoback(1)_v1.xlsx,New rule: Press 'space' when you see 2-back (i.e. the same letter as the one that appeared 2 letters ago.),w,None,,,,,,,,,0,2,2,2,0,6,6,6,,,,,,,,,,,,,,,,,,,,,,,,,,,,,,,,,,,,,,,,,,,,,,,,,,,,,,,,,,,,,,,,,,,,,1.4068,595.9900128,None,None,1,595.9900128,None,,P004,fencog,1,Post,2021_Jul_16_1202,N-Back (New Version 2021),2021.1.4,119.9152919
,,,,Conditions/Version_1/twoback(1)_v1.xlsx,New rule: Press 'space' when you see 2-back (i.e. the same letter as the one that appeared 2 letters ago.),R,None,,,,,,,,,0,2,2,2,0,7,7,7,,,,,,,,,,,,,,,,,,,,,,,,,,,,,,,,,,,,,,,,,,,,,,,,,,,,,,,,,,,,,,,,,,,,,1.3324,599.3242928,None,None,1,599.3242928,None,,P004,fencog,1,Post,2021_Jul_16_1202,N-Back (New Version 2021),2021.1.4,119.9152919
,,,,Conditions/Version_1/twoback(1)_v1.xlsx,New rule: Press 'space' when you see 2-back (i.e. the same letter as the one that appeared 2 letters ago.),a,None,,,,,,,,,0,2,2,2,0,8,8,8,,,,,,,,,,,,,,,,,,,,,,,,,,,,,,,,,,,,,,,,,,,,,,,,,,,,,,,,,,,,,,,,,,,,,1.754,603.0900437,None,None,1,603.0900437,None,,P004,fencog,1,Post,2021_Jul_16_1202,N-Back (New Version 2021),2021.1.4,119.9152919
,,,,Conditions/Version_1/twoback(1)_v1.xlsx,New rule: Press 'space' when you see 2-back (i.e. the same letter as the one that appeared 2 letters ago.),r,space,,,,,,,,,0,2,2,2,0,9,9,9,,,,,,,,,,,,,,,,,,,,,,,,,,,,,,,,,,,,,,,,,,,,,,,,,,,,,,,,,,,,,,,,,,,,,1.041,606.1391116,None,space,1,606.1391116,None,0.3801795,P004,fencog,1,Post,2021_Jul_16_1202,N-Back (New Version 2021),2021.1.4,119.9152919
,,,,Conditions/Version_1/twoback(1)_v1.xlsx,New rule: Press 'space' when you see 2-back (i.e. the same letter as the one that appeared 2 letters ago.),,,,,,,,,,,0,2,2,2,,,,,,,,,,,,,,,,,,,,,,,,,,,,,,,,,,,,,,,,,,,,,,,,,,,,,,,,,,,,,,,,,,,,,,,,,,,,,,,,,P004,fencog,1,Post,2021_Jul_16_1202,N-Back (New Version 2021),2021.1.4,119.9152919
,,,,Conditions/Version_1/threeback(1)_v1.xlsx,New rule: Press 'space' when you see 3-back (i.e. the same letter as the one that appeared 3 letters ago.),r,None,,,,,,,,,0,3,3,3,0,0,0,0,,,,,,,,,,,,,,,,,,,,,,,,,,,,,,,,,,,,,,,,,,,,,,,,,,,,,,,,,,,608.1698014,None,611.1543316,None,space,5.012878,611.1543316,None,608.1698014,None,1.4564,617.6505706,None,None,1,617.6505706,None,,P004,fencog,1,Post,2021_Jul_16_1202,N-Back (New Version 2021),2021.1.4,119.9152919
,,,,Conditions/Version_1/threeback(1)_v1.xlsx,New rule: Press 'space' when you see 3-back (i.e. the same letter as the one that appeared 3 letters ago.),o,None,,,,,,,,,0,3,3,3,0,1,1,1,,,,,,,,,,,,,,,,,,,,,,,,,,,,,,,,,,,,,,,,,,,,,,,,,,,,,,,,,,,,,,,,,,,,,1.94,621.590739,None,None,1,621.590739,None,,P004,fencog,1,Post,2021_Jul_16_1202,N-Back (New Version 2021),2021.1.4,119.9152919
,,,,Conditions/Version_1/threeback(1)_v1.xlsx,New rule: Press 'space' when you see 3-back (i.e. the same letter as the one that appeared 3 letters ago.),P,None,,,,,,,,,0,3,3,3,0,2,2,2,,,,,,,,,,,,,,,,,,,,,,,,,,,,,,,,,,,,,,,,,,,,,,,,,,,,,,,,,,,,,,,,,,,,,1.0162,624.6068556,None,None,1,624.6068556,None,,P004,fencog,1,Post,2021_Jul_16_1202,N-Back (New Version 2021),2021.1.4,119.9152919
,,,,Conditions/Version_1/threeback(1)_v1.xlsx,New rule: Press 'space' when you see 3-back (i.e. the same letter as the one that appeared 3 letters ago.),R,space,,,,,,,,,0,3,3,3,0,3,3,3,,,,,,,,,,,,,,,,,,,,,,,,,,,,,,,,,,,,,,,,,,,,,,,,,,,,,,,,,,,,,,,,,,,,,1.878,628.4887721,None,space,1,628.4887721,None,0.4306932,P004,fencog,1,Post,2021_Jul_16_1202,N-Back (New Version 2021),2021.1.4,119.9152919
,,,,Conditions/Version_1/threeback(1)_v1.xlsx,New rule: Press 'space' when you see 3-back (i.e. the same letter as the one that appeared 3 letters ago.),p,None,,,,,,,,,0,3,3,3,0,4,4,4,,,,,,,,,,,,,,,,,,,,,,,,,,,,,,,,,,,,,,,,,,,,,,,,,,,,,,,,,,,,,,,,,,,,,1.723,632.2126364,None,None,1,632.2126364,None,,P004,fencog,1,Post,2021_Jul_16_1202,N-Back (New Version 2021),2021.1.4,119.9152919
,,,,Conditions/Version_1/threeback(1)_v1.xlsx,New rule: Press 'space' when you see 3-back (i.e. the same letter as the one that appeared 3 letters ago.),E,None,,,,,,,,,0,3,3,3,0,5,5,5,,,,,,,,,,,,,,,,,,,,,,,,,,,,,,,,,,,,,,,,,,,,,,,,,,,,,,,,,,,,,,,,,,,,,1.1712,635.3876754,None,None,1,635.3876754,None,,P004,fencog,1,Post,2021_Jul_16_1202,N-Back (New Version 2021),2021.1.4,119.9152919
,,,,Conditions/Version_1/threeback(1)_v1.xlsx,New rule: Press 'space' when you see 3-back (i.e. the same letter as the one that appeared 3 letters ago.),e,None,,,,,,,,,0,3,3,3,0,6,6,6,,,,,,,,,,,,,,,,,,,,,,,,,,,,,,,,,,,,,,,,,,,,,,,,,,,,,,,,,,,,,,,,,,,,,1.3262,638.7188155,None,None,1,638.7188155,None,,P004,fencog,1,Post,2021_Jul_16_1202,N-Back (New Version 2021),2021.1.4,119.9152919
,,,,Conditions/Version_1/threeback(1)_v1.xlsx,New rule: Press 'space' when you see 3-back (i.e. the same letter as the one that appeared 3 letters ago.),m,None,,,,,,,,,0,3,3,3,0,7,7,7,,,,,,,,,,,,,,,,,,,,,,,,,,,,,,,,,,,,,,,,,,,,,,,,,,,,,,,,,,,,,,,,,,,,,1.6052,642.3284619,None,None,1,642.3284619,None,,P004,fencog,1,Post,2021_Jul_16_1202,N-Back (New Version 2021),2021.1.4,119.9152919
,,,,Conditions/Version_1/threeback(1)_v1.xlsx,New rule: Press 'space' when you see 3-back (i.e. the same letter as the one that appeared 3 letters ago.),n,None,,,,,,,,,0,3,3,3,0,8,8,8,,,,,,,,,,,,,,,,,,,,,,,,,,,,,,,,,,,,,,,,,,,,,,,,,,,,,,,,,,,,,,,,,,,,,1.8718,646.2088333,None,None,1,646.2088333,None,,P004,fencog,1,Post,2021_Jul_16_1202,N-Back (New Version 2021),2021.1.4,119.9152919
,,,,Conditions/Version_1/threeback(1)_v1.xlsx,New rule: Press 'space' when you see 3-back (i.e. the same letter as the one that appeared 3 letters ago.),e,space,,,,,,,,,0,3,3,3,0,9,9,9,,,,,,,,,,,,,,,,,,,,,,,,,,,,,,,,,,,,,,,,,,,,,,,,,,,,,,,,,,,,,,,,,,,,,1.2208,649.4326586,None,space,1,649.4326586,None,0.5760522,P004,fencog,1,Post,2021_Jul_16_1202,N-Back (New Version 2021),2021.1.4,119.9152919
,,,,Conditions/Version_1/threeback(1)_v1.xlsx,New rule: Press 'space' when you see 3-back (i.e. the same letter as the one that appeared 3 letters ago.),,,,,,,,,,,0,3,3,3,,,,,,,,,,,,,,,,,,,,,,,,,,,,,,,,,,,,,,,,,,,,,,,,,,,,,,,,,,,,,,,,,,,,,,,,,,,,,,,,,P004,fencog,1,Post,2021_Jul_16_1202,N-Back (New Version 2021),2021.1.4,119.9152919
,,,,Conditions/Version_1/oneback(2)_v1.xlsx,New rule: Press 'space' when you see 1-back (i.e. the same letter as the one that appeared 1 letter ago.),q,None,,,,,,,,,0,4,4,4,0,0,0,0,,,,,,,,,,,,,,,,,,,,,,,,,,,,,,,,,,,,,,,,,,,,,,,,,,,,,,,,,,,651.4563203,None,654.437052,None,space,15.0899374,654.437052,None,651.4563203,None,1.785,671.3346917,None,None,1,671.3346917,None,,P004,fencog,1,Post,2021_Jul_16_1202,N-Back (New Version 2021),2021.1.4,119.9152919
,,,,Conditions/Version_1/oneback(2)_v1.xlsx,New rule: Press 'space' when you see 1-back (i.e. the same letter as the one that appeared 1 letter ago.),Q,space,,,,,,,,,0,4,4,4,0,1,1,1,,,,,,,,,,,,,,,,,,,,,,,,,,,,,,,,,,,,,,,,,,,,,,,,,,,,,,,,,,,,,,,,,,,,,1.599,674.9371191,None,space,1,674.9371191,None,0.414501,P004,fencog,1,Post,2021_Jul_16_1202,N-Back (New Version 2021),2021.1.4,119.9152919
,,,,Conditions/Version_1/oneback(2)_v1.xlsx,New rule: Press 'space' when you see 1-back (i.e. the same letter as the one that appeared 1 letter ago.),P,None,,,,,,,,,0,4,4,4,0,2,2,2,,,,,,,,,,,,,,,,,,,,,,,,,,,,,,,,,,,,,,,,,,,,,,,,,,,,,,,,,,,,,,,,,,,,,1.1464,678.0940963,None,None,1,678.0940963,None,,P004,fencog,1,Post,2021_Jul_16_1202,N-Back (New Version 2021),2021.1.4,119.9152919
,,,,Conditions/Version_1/oneback(2)_v1.xlsx,New rule: Press 'space' when you see 1-back (i.e. the same letter as the one that appeared 1 letter ago.),o,None,,,,,,,,,0,4,4,4,0,3,3,3,,,,,,,,,,,,,,,,,,,,,,,,,,,,,,,,,,,,,,,,,,,,,,,,,,,,,,,,,,,,,,,,,,,,,1.5494,681.6543933,None,None,1,681.6543933,None,,P004,fencog,1,Post,2021_Jul_16_1202,N-Back (New Version 2021),2021.1.4,119.9152919
,,,,Conditions/Version_1/oneback(2)_v1.xlsx,New rule: Press 'space' when you see 1-back (i.e. the same letter as the one that appeared 1 letter ago.),m,None,,,,,,,,,0,4,4,4,0,4,4,4,,,,,,,,,,,,,,,,,,,,,,,,,,,,,,,,,,,,,,,,,,,,,,,,,,,,,,,,,,,,,,,,,,,,,1.4006,685.063955,None,None,1,685.063955,None,,P004,fencog,1,Post,2021_Jul_16_1202,N-Back (New Version 2021),2021.1.4,119.9152919
,,,,Conditions/Version_1/oneback(2)_v1.xlsx,New rule: Press 'space' when you see 1-back (i.e. the same letter as the one that appeared 1 letter ago.),Z,None,,,,,,,,,0,4,4,4,0,5,5,5,,,,,,,,,,,,,,,,,,,,,,,,,,,,,,,,,,,,,,,,,,,,,,,,,,,,,,,,,,,,,,,,,,,,,1.134,688.1970306,None,None,1,688.1970306,None,,P004,fencog,1,Post,2021_Jul_16_1202,N-Back (New Version 2021),2021.1.4,119.9152919
,,,,Conditions/Version_1/oneback(2)_v1.xlsx,New rule: Press 'space' when you see 1-back (i.e. the same letter as the one that appeared 1 letter ago.),c,None,,,,,,,,,0,4,4,4,0,6,6,6,,,,,,,,,,,,,,,,,,,,,,,,,,,,,,,,,,,,,,,,,,,,,,,,,,,,,,,,,,,,,,,,,,,,,1.3014,691.5126723,None,None,1,691.5126723,None,,P004,fencog,1,Post,2021_Jul_16_1202,N-Back (New Version 2021),2021.1.4,119.9152919
,,,,Conditions/Version_1/oneback(2)_v1.xlsx,New rule: Press 'space' when you see 1-back (i.e. the same letter as the one that appeared 1 letter ago.),c,space,,,,,,,,,0,4,4,4,0,7,7,7,,,,,,,,,,,,,,,,,,,,,,,,,,,,,,,,,,,,,,,,,,,,,,,,,,,,,,,,,,,,,,,,,,,,,1.537,695.0606896,None,space,1,695.0606896,None,0.3624403,P004,fencog,1,Post,2021_Jul_16_1202,N-Back (New Version 2021),2021.1.4,119.9152919
,,,,Conditions/Version_1/oneback(2)_v1.xlsx,New rule: Press 'space' when you see 1-back (i.e. the same letter as the one that appeared 1 letter ago.),P,None,,,,,,,,,0,4,4,4,0,8,8,8,,,,,,,,,,,,,,,,,,,,,,,,,,,,,,,,,,,,,,,,,,,,,,,,,,,,,,,,,,,,,,,,,,,,,1.6858,698.7512963,None,None,1,698.7512963,None,,P004,fencog,1,Post,2021_Jul_16_1202,N-Back (New Version 2021),2021.1.4,119.9152919
,,,,Conditions/Version_1/oneback(2)_v1.xlsx,New rule: Press 'space' when you see 1-back (i.e. the same letter as the one that appeared 1 letter ago.),p,space,,,,,,,,,0,4,4,4,0,9,9,9,,,,,,,,,,,,,,,,,,,,,,,,,,,,,,,,,,,,,,,,,,,,,,,,,,,,,,,,,,,,,,,,,,,,,1.072,701.8255047,None,space,1,701.8255047,None,0.4614966,P004,fencog,1,Post,2021_Jul_16_1202,N-Back (New Version 2021),2021.1.4,119.9152919
,,,,Conditions/Version_1/oneback(2)_v1.xlsx,New rule: Press 'space' when you see 1-back (i.e. the same letter as the one that appeared 1 letter ago.),,,,,,,,,,,0,4,4,4,,,,,,,,,,,,,,,,,,,,,,,,,,,,,,,,,,,,,,,,,,,,,,,,,,,,,,,,,,,,,,,,,,,,,,,,,,,,,,,,,P004,fencog,1,Post,2021_Jul_16_1202,N-Back (New Version 2021),2021.1.4,119.9152919
,,,,Conditions/Version_1/zeroback(2)_v1.xlsx,New rule: Press 'space' when you see the letter 'x' or 'X'.,p,None,,,,,,,,,0,5,5,5,0,0,0,0,,,,,,,,,,,,,,,,,,,,,,,,,,,,,,,,,,,,,,,,,,,,,,,,,,,,,,,,,,,703.8418773,None,706.8259837,None,space,0.5010013,706.8259837,None,703.8418773,None,1.6362,708.9816822,None,None,1,708.9816822,None,,P004,fencog,1,Post,2021_Jul_16_1202,N-Back (New Version 2021),2021.1.4,119.9152919
,,,,Conditions/Version_1/zeroback(2)_v1.xlsx,New rule: Press 'space' when you see the letter 'x' or 'X'.,L,None,,,,,,,,,0,5,5,5,0,1,1,1,,,,,,,,,,,,,,,,,,,,,,,,,,,,,,,,,,,,,,,,,,,,,,,,,,,,,,,,,,,,,,,,,,,,,1.2084,712.2011074,None,None,1,712.2011074,None,,P004,fencog,1,Post,2021_Jul_16_1202,N-Back (New Version 2021),2021.1.4,119.9152919
,,,,Conditions/Version_1/zeroback(2)_v1.xlsx,New rule: Press 'space' when you see the letter 'x' or 'X'.,G,None,,,,,,,,,0,5,5,5,0,2,2,2,,,,,,,,,,,,,,,,,,,,,,,,,,,,,,,,,,,,,,,,,,,,,,,,,,,,,,,,,,,,,,,,,,,,,1.4812,715.6888081,None,None,1,715.6888081,None,,P004,fencog,1,Post,2021_Jul_16_1202,N-Back (New Version 2021),2021.1.4,119.9152919
,,,,Conditions/Version_1/zeroback(2)_v1.xlsx,New rule: Press 'space' when you see the letter 'x' or 'X'.,y,None,,,,,,,,,0,5,5,5,0,3,3,3,,,,,,,,,,,,,,,,,,,,,,,,,,,,,,,,,,,,,,,,,,,,,,,,,,,,,,,,,,,,,,,,,,,,,1.3076,719.0057844,None,None,1,719.0057844,None,,P004,fencog,1,Post,2021_Jul_16_1202,N-Back (New Version 2021),2021.1.4,119.9152919
,,,,Conditions/Version_1/zeroback(2)_v1.xlsx,New rule: Press 'space' when you see the letter 'x' or 'X'.,Y,None,,,,,,,,,0,5,5,5,0,4,4,4,,,,,,,,,,,,,,,,,,,,,,,,,,,,,,,,,,,,,,,,,,,,,,,,,,,,,,,,,,,,,,,,,,,,,1.9586,722.9759672,None,None,1,722.9759672,None,,P004,fencog,1,Post,2021_Jul_16_1202,N-Back (New Version 2021),2021.1.4,119.9152919
,,,,Conditions/Version_1/zeroback(2)_v1.xlsx,New rule: Press 'space' when you see the letter 'x' or 'X'.,W,None,,,,,,,,,0,5,5,5,0,5,5,5,,,,,,,,,,,,,,,,,,,,,,,,,,,,,,,,,,,,,,,,,,,,,,,,,,,,,,,,,,,,,,,,,,,,,1.1092,726.095068,None,None,1,726.095068,None,,P004,fencog,1,Post,2021_Jul_16_1202,N-Back (New Version 2021),2021.1.4,119.9152919
,,,,Conditions/Version_1/zeroback(2)_v1.xlsx,New rule: Press 'space' when you see the letter 'x' or 'X'.,x,space,,,,,,,,,0,5,5,5,0,6,6,6,,,,,,,,,,,,,,,,,,,,,,,,,,,,,,,,,,,,,,,,,,,,,,,,,,,,,,,,,,,,,,,,,,,,,1.5556,729.6614318,None,space,1,729.6614318,None,0.3775344,P004,fencog,1,Post,2021_Jul_16_1202,N-Back (New Version 2021),2021.1.4,119.9152919
,,,,Conditions/Version_1/zeroback(2)_v1.xlsx,New rule: Press 'space' when you see the letter 'x' or 'X'.,X,space,,,,,,,,,0,5,5,5,0,7,7,7,,,,,,,,,,,,,,,,,,,,,,,,,,,,,,,,,,,,,,,,,,,,,,,,,,,,,,,,,,,,,,,,,,,,,1.8966,733.5677399,None,space,1,733.5677399,None,0.4710593,P004,fencog,1,Post,2021_Jul_16_1202,N-Back (New Version 2021),2021.1.4,119.9152919
,,,,Conditions/Version_1/zeroback(2)_v1.xlsx,New rule: Press 'space' when you see the letter 'x' or 'X'.,p,None,,,,,,,,,0,5,5,5,0,8,8,8,,,,,,,,,,,,,,,,,,,,,,,,,,,,,,,,,,,,,,,,,,,,,,,,,,,,,,,,,,,,,,,,,,,,,1.0472,736.6257298,None,None,1,736.6257298,None,,P004,fencog,1,Post,2021_Jul_16_1202,N-Back (New Version 2021),2021.1.4,119.9152919
,,,,Conditions/Version_1/zeroback(2)_v1.xlsx,New rule: Press 'space' when you see the letter 'x' or 'X'.,h,None,,,,,,,,,0,5,5,5,0,9,9,9,,,,,,,,,,,,,,,,,,,,,,,,,,,,,,,,,,,,,,,,,,,,,,,,,,,,,,,,,,,,,,,,,,,,,1.4564,740.0902505,None,None,1,740.0902505,None,,P004,fencog,1,Post,2021_Jul_16_1202,N-Back (New Version 2021),2021.1.4,119.9152919
,,,,Conditions/Version_1/zeroback(2)_v1.xlsx,New rule: Press 'space' when you see the letter 'x' or 'X'.,,,,,,,,,,,0,5,5,5,,,,,,,,,,,,,,,,,,,,,,,,,,,,,,,,,,,,,,,,,,,,,,,,,,,,,,,,,,,,,,,,,,,,,,,,,,,,,,,,,P004,fencog,1,Post,2021_Jul_16_1202,N-Back (New Version 2021),2021.1.4,119.9152919
,,,,Conditions/Version_1/threeback(2)_v1.xlsx,New rule: Press 'space' when you see 3-back (i.e. the same letter as the one that appeared 3 letters ago.),q,None,,,,,,,,,0,6,6,6,0,0,0,0,,,,,,,,,,,,,,,,,,,,,,,,,,,,,,,,,,,,,,,,,,,,,,,,,,,,,,,,,,,742.1198354,None,745.1074075,None,space,5.8194833,745.1074075,None,742.1198354,None,1.5928,752.5366635,None,None,1,752.5366635,None,,P004,fencog,1,Post,2021_Jul_16_1202,N-Back (New Version 2021),2021.1.4,119.9152919
,,,,Conditions/Version_1/threeback(2)_v1.xlsx,New rule: Press 'space' when you see 3-back (i.e. the same letter as the one that appeared 3 letters ago.),Y,None,,,,,,,,,0,6,6,6,0,1,1,1,,,,,,,,,,,,,,,,,,,,,,,,,,,,,,,,,,,,,,,,,,,,,,,,,,,,,,,,,,,,,,,,,,,,,1.5742,756.1196095,None,None,1,756.1196095,None,,P004,fencog,1,Post,2021_Jul_16_1202,N-Back (New Version 2021),2021.1.4,119.9152919
,,,,Conditions/Version_1/threeback(2)_v1.xlsx,New rule: Press 'space' when you see 3-back (i.e. the same letter as the one that appeared 3 letters ago.),p,None,,,,,,,,,0,6,6,6,0,2,2,2,,,,,,,,,,,,,,,,,,,,,,,,,,,,,,,,,,,,,,,,,,,,,,,,,,,,,,,,,,,,,,,,,,,,,1.4688,759.6020697,None,None,1,759.6020697,None,,P004,fencog,1,Post,2021_Jul_16_1202,N-Back (New Version 2021),2021.1.4,119.9152919
,,,,Conditions/Version_1/threeback(2)_v1.xlsx,New rule: Press 'space' when you see 3-back (i.e. the same letter as the one that appeared 3 letters ago.),p,None,,,,,,,,,0,6,6,6,0,3,3,3,,,,,,,,,,,,,,,,,,,,,,,,,,,,,,,,,,,,,,,,,,,,,,,,,,,,,,,,,,,,,,,,,,,,,1.8594,763.4739469,None,None,1,763.4739469,None,,P004,fencog,1,Post,2021_Jul_16_1202,N-Back (New Version 2021),2021.1.4,119.9152919
,,,,Conditions/Version_1/threeback(2)_v1.xlsx,New rule: Press 'space' when you see 3-back (i.e. the same letter as the one that appeared 3 letters ago.),y,space,,,,,,,,,0,6,6,6,0,4,4,4,,,,,,,,,,,,,,,,,,,,,,,,,,,,,,,,,,,,,,,,,,,,,,,,,,,,,,,,,,,,,,,,,,,,,1.289,766.7644625,None,space,1,766.7644625,None,0.6185835,P004,fencog,1,Post,2021_Jul_16_1202,N-Back (New Version 2021),2021.1.4,119.9152919
,,,,Conditions/Version_1/threeback(2)_v1.xlsx,New rule: Press 'space' when you see 3-back (i.e. the same letter as the one that appeared 3 letters ago.),u,None,,,,,,,,,0,6,6,6,0,5,5,5,,,,,,,,,,,,,,,,,,,,,,,,,,,,,,,,,,,,,,,,,,,,,,,,,,,,,,,,,,,,,,,,,,,,,1.568,770.3406323,None,None,1,770.3406323,None,,P004,fencog,1,Post,2021_Jul_16_1202,N-Back (New Version 2021),2021.1.4,119.9152919
,,,,Conditions/Version_1/threeback(2)_v1.xlsx,New rule: Press 'space' when you see 3-back (i.e. the same letter as the one that appeared 3 letters ago.),P,space,,,,,,,,,0,6,6,6,0,6,6,6,,,,,,,,,,,,,,,,,,,,,,,,,,,,,,,,,,,,,,,,,,,,,,,,,,,,,,,,,,,,,,,,,,,,,1.6424,773.9980188,None,space,1,773.9980188,None,0.4730736,P004,fencog,1,Post,2021_Jul_16_1202,N-Back (New Version 2021),2021.1.4,119.9152919
,,,,Conditions/Version_1/threeback(2)_v1.xlsx,New rule: Press 'space' when you see 3-back (i.e. the same letter as the one that appeared 3 letters ago.),a,None,,,,,,,,,0,6,6,6,0,7,7,7,,,,,,,,,,,,,,,,,,,,,,,,,,,,,,,,,,,,,,,,,,,,,,,,,,,,,,,,,,,,,,,,,,,,,1.382,777.388501,None,None,1,777.388501,None,,P004,fencog,1,Post,2021_Jul_16_1202,N-Back (New Version 2021),2021.1.4,119.9152919
,,,,Conditions/Version_1/threeback(2)_v1.xlsx,New rule: Press 'space' when you see 3-back (i.e. the same letter as the one that appeared 3 letters ago.),U,space,,,,,,,,,0,6,6,6,0,8,8,8,,,,,,,,,,,,,,,,,,,,,,,,,,,,,,,,,,,,,,,,,,,,,,,,,,,,,,,,,,,,,,,,,,,,,1.9152,781.3119385,None,space,1,781.3119385,None,1.1591908,P004,fencog,1,Post,2021_Jul_16_1202,N-Back (New Version 2021),2021.1.4,119.9152919
,,,,Conditions/Version_1/threeback(2)_v1.xlsx,New rule: Press 'space' when you see 3-back (i.e. the same letter as the one that appeared 3 letters ago.),q,None,,,,,,,,,0,6,6,6,0,9,9,9,,,,,,,,,,,,,,,,,,,,,,,,,,,,,,,,,,,,,,,,,,,,,,,,,,,,,,,,,,,,,,,,,,,,,1.2332,784.5517133,None,None,1,784.5517133,None,,P004,fencog,1,Post,2021_Jul_16_1202,N-Back (New Version 2021),2021.1.4,119.9152919
,,,,Conditions/Version_1/threeback(2)_v1.xlsx,New rule: Press 'space' when you see 3-back (i.e. the same letter as the one that appeared 3 letters ago.),,,,,,,,,,,0,6,6,6,,,,,,,,,,,,,,,,,,,,,,,,,,,,,,,,,,,,,,,,,,,,,,,,,,,,,,,,,,,,,,,,,,,,,,,,,,,,,,,,,P004,fencog,1,Post,2021_Jul_16_1202,N-Back (New Version 2021),2021.1.4,119.9152919
,,,,Conditions/Version_1/twoback(2)_v1.xlsx,New rule: Press 'space' when you see 2-back (i.e. the same letter as the one that appeared 2 letters ago.),q,None,,,,,,,,,0,7,7,7,0,0,0,0,,,,,,,,,,,,,,,,,,,,,,,,,,,,,,,,,,,,,,,,,,,,,,,,,,,,,,,,,,,786.5828179,None,789.5685379,None,space,6.5185314,789.5685379,None,786.5828179,None,1.5432,797.6480446,None,None,1,797.6480446,None,,P004,fencog,1,Post,2021_Jul_16_1202,N-Back (New Version 2021),2021.1.4,119.9152919
,,,,Conditions/Version_1/twoback(2)_v1.xlsx,New rule: Press 'space' when you see 2-back (i.e. the same letter as the one that appeared 2 letters ago.),r,None,,,,,,,,,0,7,7,7,0,1,1,1,,,,,,,,,,,,,,,,,,,,,,,,,,,,,,,,,,,,,,,,,,,,,,,,,,,,,,,,,,,,,,,,,,,,,1.9896,801.6470867,None,None,1,801.6470867,None,,P004,fencog,1,Post,2021_Jul_16_1202,N-Back (New Version 2021),2021.1.4,119.9152919
,,,,Conditions/Version_1/twoback(2)_v1.xlsx,New rule: Press 'space' when you see 2-back (i.e. the same letter as the one that appeared 2 letters ago.),q,space,,,,,,,,,0,7,7,7,0,2,2,2,,,,,,,,,,,,,,,,,,,,,,,,,,,,,,,,,,,,,,,,,,,,,,,,,,,,,,,,,,,,,,,,,,,,,1.1774,804.8416805,None,space,1,804.8416805,None,0.3656089,P004,fencog,1,Post,2021_Jul_16_1202,N-Back (New Version 2021),2021.1.4,119.9152919
,,,,Conditions/Version_1/twoback(2)_v1.xlsx,New rule: Press 'space' when you see 2-back (i.e. the same letter as the one that appeared 2 letters ago.),P,None,,,,,,,,,0,7,7,7,0,3,3,3,,,,,,,,,,,,,,,,,,,,,,,,,,,,,,,,,,,,,,,,,,,,,,,,,,,,,,,,,,,,,,,,,,,,,1.9338,808.7853754,None,None,1,808.7853754,None,,P004,fencog,1,Post,2021_Jul_16_1202,N-Back (New Version 2021),2021.1.4,119.9152919
,,,,Conditions/Version_1/twoback(2)_v1.xlsx,New rule: Press 'space' when you see 2-back (i.e. the same letter as the one that appeared 2 letters ago.),p,None,,,,,,,,,0,7,7,7,0,4,4,4,,,,,,,,,,,,,,,,,,,,,,,,,,,,,,,,,,,,,,,,,,,,,,,,,,,,,,,,,,,,,,,,,,,,,1.2518,812.0437911,None,space,0,812.0437911,None,0.5792043,P004,fencog,1,Post,2021_Jul_16_1202,N-Back (New Version 2021),2021.1.4,119.9152919
,,,,Conditions/Version_1/twoback(2)_v1.xlsx,New rule: Press 'space' when you see 2-back (i.e. the same letter as the one that appeared 2 letters ago.),H,None,,,,,,,,,0,7,7,7,0,5,5,5,,,,,,,,,,,,,,,,,,,,,,,,,,,,,,,,,,,,,,,,,,,,,,,,,,,,,,,,,,,,,,,,,,,,,1.3448,815.4039464,None,None,1,815.4039464,None,,P004,fencog,1,Post,2021_Jul_16_1202,N-Back (New Version 2021),2021.1.4,119.9152919
,,,,Conditions/Version_1/twoback(2)_v1.xlsx,New rule: Press 'space' when you see 2-back (i.e. the same letter as the one that appeared 2 letters ago.),g,None,,,,,,,,,0,7,7,7,0,6,6,6,,,,,,,,,,,,,,,,,,,,,,,,,,,,,,,,,,,,,,,,,,,,,,,,,,,,,,,,,,,,,,,,,,,,,1.6734,819.0823677,None,None,1,819.0823677,None,,P004,fencog,1,Post,2021_Jul_16_1202,N-Back (New Version 2021),2021.1.4,119.9152919
,,,,Conditions/Version_1/twoback(2)_v1.xlsx,New rule: Press 'space' when you see 2-back (i.e. the same letter as the one that appeared 2 letters ago.),j,None,,,,,,,,,0,7,7,7,0,7,7,7,,,,,,,,,,,,,,,,,,,,,,,,,,,,,,,,,,,,,,,,,,,,,,,,,,,,,,,,,,,,,,,,,,,,,1.7292,822.815252,None,None,1,822.815252,None,,P004,fencog,1,Post,2021_Jul_16_1202,N-Back (New Version 2021),2021.1.4,119.9152919
,,,,Conditions/Version_1/twoback(2)_v1.xlsx,New rule: Press 'space' when you see 2-back (i.e. the same letter as the one that appeared 2 letters ago.),g,space,,,,,,,,,0,7,7,7,0,8,8,8,,,,,,,,,,,,,,,,,,,,,,,,,,,,,,,,,,,,,,,,,,,,,,,,,,,,,,,,,,,,,,,,,,,,,1.0224,825.8491104,None,space,1,825.8491104,None,0.5420727,P004,fencog,1,Post,2021_Jul_16_1202,N-Back (New Version 2021),2021.1.4,119.9152919
,,,,Conditions/Version_1/twoback(2)_v1.xlsx,New rule: Press 'space' when you see 2-back (i.e. the same letter as the one that appeared 2 letters ago.),G,None,,,,,,,,,0,7,7,7,0,9,9,9,,,,,,,,,,,,,,,,,,,,,,,,,,,,,,,,,,,,,,,,,,,,,,,,,,,,,,,,,,,,,,,,,,,,,1.4254,829.2805229,None,None,1,829.2805229,None,,P004,fencog,1,Post,2021_Jul_16_1202,N-Back (New Version 2021),2021.1.4,119.9152919
,,,,Conditions/Version_1/twoback(2)_v1.xlsx,New rule: Press 'space' when you see 2-back (i.e. the same letter as the one that appeared 2 letters ago.),,,,,,,,,,,0,7,7,7,,,,,,,,,,,,,,,,,,,,,,,,,,,,,,,,,,,,,,,,,,,,,,,,,,,,,,,,,,,,,,,,,,,,,,,,,,,,,,,,,P004,fencog,1,Post,2021_Jul_16_1202,N-Back (New Version 2021),2021.1.4,119.9152919
,,,,Conditions/Version_1/threeback(3)_v1.xlsx,New rule: Press 'space' when you see 3-back (i.e. the same letter as the one that appeared 3 letters ago.),w,None,,,,,,,,,0,8,8,8,0,0,0,0,,,,,,,,,,,,,,,,,,,,,,,,,,,,,,,,,,,,,,,,,,,,,,,,,,,,,,,,,,,831.3096486,None,834.296853,None,space,3.9019433,834.296853,None,831.3096486,None,1.258,839.4844404,None,None,1,839.4844404,None,,P004,fencog,1,Post,2021_Jul_16_1202,N-Back (New Version 2021),2021.1.4,119.9152919
,,,,Conditions/Version_1/threeback(3)_v1.xlsx,New rule: Press 'space' when you see 3-back (i.e. the same letter as the one that appeared 3 letters ago.),p,None,,,,,,,,,0,8,8,8,0,1,1,1,,,,,,,,,,,,,,,,,,,,,,,,,,,,,,,,,,,,,,,,,,,,,,,,,,,,,,,,,,,,,,,,,,,,,1.4502,842.9376009,None,None,1,842.9376009,None,,P004,fencog,1,Post,2021_Jul_16_1202,N-Back (New Version 2021),2021.1.4,119.9152919
,,,,Conditions/Version_1/threeback(3)_v1.xlsx,New rule: Press 'space' when you see 3-back (i.e. the same letter as the one that appeared 3 letters ago.),P,None,,,,,,,,,0,8,8,8,0,2,2,2,,,,,,,,,,,,,,,,,,,,,,,,,,,,,,,,,,,,,,,,,,,,,,,,,,,,,,,,,,,,,,,,,,,,,1.2208,846.167316,None,None,1,846.167316,None,,P004,fencog,1,Post,2021_Jul_16_1202,N-Back (New Version 2021),2021.1.4,119.9152919
,,,,Conditions/Version_1/threeback(3)_v1.xlsx,New rule: Press 'space' when you see 3-back (i.e. the same letter as the one that appeared 3 letters ago.),i,None,,,,,,,,,0,8,8,8,0,3,3,3,,,,,,,,,,,,,,,,,,,,,,,,,,,,,,,,,,,,,,,,,,,,,,,,,,,,,,,,,,,,,,,,,,,,,1.5494,849.724957,None,None,1,849.724957,None,,P004,fencog,1,Post,2021_Jul_16_1202,N-Back (New Version 2021),2021.1.4,119.9152919
,,,,Conditions/Version_1/threeback(3)_v1.xlsx,New rule: Press 'space' when you see 3-back (i.e. the same letter as the one that appeared 3 letters ago.),f,None,,,,,,,,,0,8,8,8,0,4,4,4,,,,,,,,,,,,,,,,,,,,,,,,,,,,,,,,,,,,,,,,,,,,,,,,,,,,,,,,,,,,,,,,,,,,,1.6982,853.4317794,None,None,1,853.4317794,None,,P004,fencog,1,Post,2021_Jul_16_1202,N-Back (New Version 2021),2021.1.4,119.9152919
,,,,Conditions/Version_1/threeback(3)_v1.xlsx,New rule: Press 'space' when you see 3-back (i.e. the same letter as the one that appeared 3 letters ago.),o,None,,,,,,,,,0,8,8,8,0,5,5,5,,,,,,,,,,,,,,,,,,,,,,,,,,,,,,,,,,,,,,,,,,,,,,,,,,,,,,,,,,,,,,,,,,,,,1.6362,857.0807101,None,None,1,857.0807101,None,,P004,fencog,1,Post,2021_Jul_16_1202,N-Back (New Version 2021),2021.1.4,119.9152919
,,,,Conditions/Version_1/threeback(3)_v1.xlsx,New rule: Press 'space' when you see 3-back (i.e. the same letter as the one that appeared 3 letters ago.),w,None,,,,,,,,,0,8,8,8,0,6,6,6,,,,,,,,,,,,,,,,,,,,,,,,,,,,,,,,,,,,,,,,,,,,,,,,,,,,,,,,,,,,,,,,,,,,,1.351,860.4460695,None,None,1,860.4460695,None,,P004,fencog,1,Post,2021_Jul_16_1202,N-Back (New Version 2021),2021.1.4,119.9152919
,,,,Conditions/Version_1/threeback(3)_v1.xlsx,New rule: Press 'space' when you see 3-back (i.e. the same letter as the one that appeared 3 letters ago.),F,space,,,,,,,,,0,8,8,8,0,7,7,7,,,,,,,,,,,,,,,,,,,,,,,,,,,,,,,,,,,,,,,,,,,,,,,,,,,,,,,,,,,,,,,,,,,,,1.165,863.6217933,None,space,1,863.6217933,None,0.3769376,P004,fencog,1,Post,2021_Jul_16_1202,N-Back (New Version 2021),2021.1.4,119.9152919
,,,,Conditions/Version_1/threeback(3)_v1.xlsx,New rule: Press 'space' when you see 3-back (i.e. the same letter as the one that appeared 3 letters ago.),p,None,,,,,,,,,0,8,8,8,0,8,8,8,,,,,,,,,,,,,,,,,,,,,,,,,,,,,,,,,,,,,,,,,,,,,,,,,,,,,,,,,,,,,,,,,,,,,1.661,867.2951258,None,None,1,867.2951258,None,,P004,fencog,1,Post,2021_Jul_16_1202,N-Back (New Version 2021),2021.1.4,119.9152919
,,,,Conditions/Version_1/threeback(3)_v1.xlsx,New rule: Press 'space' when you see 3-back (i.e. the same letter as the one that appeared 3 letters ago.),W,space,,,,,,,,,0,8,8,8,0,9,9,9,,,,,,,,,,,,,,,,,,,,,,,,,,,,,,,,,,,,,,,,,,,,,,,,,,,,,,,,,,,,,,,,,,,,,1.9896,871.2954167,None,space,1,871.2954167,None,1.1032384,P004,fencog,1,Post,2021_Jul_16_1202,N-Back (New Version 2021),2021.1.4,119.9152919
,,,,Conditions/Version_1/threeback(3)_v1.xlsx,New rule: Press 'space' when you see 3-back (i.e. the same letter as the one that appeared 3 letters ago.),,,,,,,,,,,0,8,8,8,,,,,,,,,,,,,,,,,,,,,,,,,,,,,,,,,,,,,,,,,,,,,,,,,,,,,,,,,,,,,,,,,,,,,,,,,,,,,,,,,P004,fencog,1,Post,2021_Jul_16_1202,N-Back (New Version 2021),2021.1.4,119.9152919
,,,,Conditions/Version_1/zeroback(3)_v1.xlsx,New rule: Press 'space' when you see the letter 'x' or 'X'.,X,space,,,,,,,,,0,9,9,9,0,0,0,0,,,,,,,,,,,,,,,,,,,,,,,,,,,,,,,,,,,,,,,,,,,,,,,,,,,,,,,,,,,873.317518,None,876.300767,None,space,0.0341702,876.300767,None,873.317518,None,1.5804,877.9399843,None,space,1,877.9399843,None,0.530819,P004,fencog,1,Post,2021_Jul_16_1202,N-Back (New Version 2021),2021.1.4,119.9152919
,,,,Conditions/Version_1/zeroback(3)_v1.xlsx,New rule: Press 'space' when you see the letter 'x' or 'X'.,B,None,,,,,,,,,0,9,9,9,0,1,1,1,,,,,,,,,,,,,,,,,,,,,,,,,,,,,,,,,,,,,,,,,,,,,,,,,,,,,,,,,,,,,,,,,,,,,1.63,881.5773542,None,None,1,881.5773542,None,,P004,fencog,1,Post,2021_Jul_16_1202,N-Back (New Version 2021),2021.1.4,119.9152919
,,,,Conditions/Version_1/zeroback(3)_v1.xlsx,New rule: Press 'space' when you see the letter 'x' or 'X'.,m,None,,,,,,,,,0,9,9,9,0,2,2,2,,,,,,,,,,,,,,,,,,,,,,,,,,,,,,,,,,,,,,,,,,,,,,,,,,,,,,,,,,,,,,,,,,,,,1.537,885.1230675,None,None,1,885.1230675,None,,P004,fencog,1,Post,2021_Jul_16_1202,N-Back (New Version 2021),2021.1.4,119.9152919
,,,,Conditions/Version_1/zeroback(3)_v1.xlsx,New rule: Press 'space' when you see the letter 'x' or 'X'.,m,None,,,,,,,,,0,9,9,9,0,3,3,3,,,,,,,,,,,,,,,,,,,,,,,,,,,,,,,,,,,,,,,,,,,,,,,,,,,,,,,,,,,,,,,,,,,,,1.2828,888.4118085,None,None,1,888.4118085,None,,P004,fencog,1,Post,2021_Jul_16_1202,N-Back (New Version 2021),2021.1.4,119.9152919
,,,,Conditions/Version_1/zeroback(3)_v1.xlsx,New rule: Press 'space' when you see the letter 'x' or 'X'.,o,None,,,,,,,,,0,9,9,9,0,4,4,4,,,,,,,,,,,,,,,,,,,,,,,,,,,,,,,,,,,,,,,,,,,,,,,,,,,,,,,,,,,,,,,,,,,,,1.3386,891.754042,None,None,1,891.754042,None,,P004,fencog,1,Post,2021_Jul_16_1202,N-Back (New Version 2021),2021.1.4,119.9152919
,,,,Conditions/Version_1/zeroback(3)_v1.xlsx,New rule: Press 'space' when you see the letter 'x' or 'X'.,p,None,,,,,,,,,0,9,9,9,0,5,5,5,,,,,,,,,,,,,,,,,,,,,,,,,,,,,,,,,,,,,,,,,,,,,,,,,,,,,,,,,,,,,,,,,,,,,1.0658,894.8282314,None,None,1,894.8282314,None,,P004,fencog,1,Post,2021_Jul_16_1202,N-Back (New Version 2021),2021.1.4,119.9152919
,,,,Conditions/Version_1/zeroback(3)_v1.xlsx,New rule: Press 'space' when you see the letter 'x' or 'X'.,G,None,,,,,,,,,0,9,9,9,0,6,6,6,,,,,,,,,,,,,,,,,,,,,,,,,,,,,,,,,,,,,,,,,,,,,,,,,,,,,,,,,,,,,,,,,,,,,1.6734,898.5111479,None,None,1,898.5111479,None,,P004,fencog,1,Post,2021_Jul_16_1202,N-Back (New Version 2021),2021.1.4,119.9152919
,,,,Conditions/Version_1/zeroback(3)_v1.xlsx,New rule: Press 'space' when you see the letter 'x' or 'X'.,X,space,,,,,,,,,0,9,9,9,0,7,7,7,,,,,,,,,,,,,,,,,,,,,,,,,,,,,,,,,,,,,,,,,,,,,,,,,,,,,,,,,,,,,,,,,,,,,1.7478,902.2685307,None,space,1,902.2685307,None,0.3063544,P004,fencog,1,Post,2021_Jul_16_1202,N-Back (New Version 2021),2021.1.4,119.9152919
,,,,Conditions/Version_1/zeroback(3)_v1.xlsx,New rule: Press 'space' when you see the letter 'x' or 'X'.,p,None,,,,,,,,,0,9,9,9,0,8,8,8,,,,,,,,,,,,,,,,,,,,,,,,,,,,,,,,,,,,,,,,,,,,,,,,,,,,,,,,,,,,,,,,,,,,,1.0348,905.3167782,None,None,1,905.3167782,None,,P004,fencog,1,Post,2021_Jul_16_1202,N-Back (New Version 2021),2021.1.4,119.9152919
,,,,Conditions/Version_1/zeroback(3)_v1.xlsx,New rule: Press 'space' when you see the letter 'x' or 'X'.,x,space,,,,,,,,,0,9,9,9,0,9,9,9,,,,,,,,,,,,,,,,,,,,,,,,,,,,,,,,,,,,,,,,,,,,,,,,,,,,,,,,,,,,,,,,,,,,,1.8966,909.2243933,None,space,1,909.2243933,None,0.3503919,P004,fencog,1,Post,2021_Jul_16_1202,N-Back (New Version 2021),2021.1.4,119.9152919
,,,,Conditions/Version_1/zeroback(3)_v1.xlsx,New rule: Press 'space' when you see the letter 'x' or 'X'.,,,,,,,,,,,0,9,9,9,,,,,,,,,,,,,,,,,,,,,,,,,,,,,,,,,,,,,,,,,,,,,,,,,,,,,,,,,,,,,,,,,,,,,,,,,,,,,,,,,P004,fencog,1,Post,2021_Jul_16_1202,N-Back (New Version 2021),2021.1.4,119.9152919
,,,,Conditions/Version_1/twoback(3)_v1.xlsx,New rule: Press 'space' when you see 2-back (i.e. the same letter as the one that appeared 2 letters ago.),e,None,,,,,,,,,0,10,10,10,0,0,0,0,,,,,,,,,,,,,,,,,,,,,,,,,,,,,,,,,,,,,,,,,,,,,,,,,,,,,,,,,,,911.2516594,None,914.2404158,None,space,59.1261987,914.2404158,None,911.2516594,None,1.6238,975.01367,None,None,1,975.01367,None,,P004,fencog,1,Post,2021_Jul_16_1202,N-Back (New Version 2021),2021.1.4,119.9152919
,,,,Conditions/Version_1/twoback(3)_v1.xlsx,New rule: Press 'space' when you see 2-back (i.e. the same letter as the one that appeared 2 letters ago.),o,None,,,,,,,,,0,10,10,10,0,1,1,1,,,,,,,,,,,,,,,,,,,,,,,,,,,,,,,,,,,,,,,,,,,,,,,,,,,,,,,,,,,,,,,,,,,,,1.6176,978.6435872,None,None,1,978.6435872,None,,P004,fencog,1,Post,2021_Jul_16_1202,N-Back (New Version 2021),2021.1.4,119.9152919
,,,,Conditions/Version_1/twoback(3)_v1.xlsx,New rule: Press 'space' when you see 2-back (i.e. the same letter as the one that appeared 2 letters ago.),P,None,,,,,,,,,0,10,10,10,0,2,2,2,,,,,,,,,,,,,,,,,,,,,,,,,,,,,,,,,,,,,,,,,,,,,,,,,,,,,,,,,,,,,,,,,,,,,1.692,982.3435006,None,None,1,982.3435006,None,,P004,fencog,1,Post,2021_Jul_16_1202,N-Back (New Version 2021),2021.1.4,119.9152919
,,,,Conditions/Version_1/twoback(3)_v1.xlsx,New rule: Press 'space' when you see 2-back (i.e. the same letter as the one that appeared 2 letters ago.),z,None,,,,,,,,,0,10,10,10,0,3,3,3,,,,,,,,,,,,,,,,,,,,,,,,,,,,,,,,,,,,,,,,,,,,,,,,,,,,,,,,,,,,,,,,,,,,,1.5122,985.870238,None,None,1,985.870238,None,,P004,fencog,1,Post,2021_Jul_16_1202,N-Back (New Version 2021),2021.1.4,119.9152919
,,,,Conditions/Version_1/twoback(3)_v1.xlsx,New rule: Press 'space' when you see 2-back (i.e. the same letter as the one that appeared 2 letters ago.),X,None,,,,,,,,,0,10,10,10,0,4,4,4,,,,,,,,,,,,,,,,,,,,,,,,,,,,,,,,,,,,,,,,,,,,,,,,,,,,,,,,,,,,,,,,,,,,,1.3634,989.2403789,None,None,1,989.2403789,None,,P004,fencog,1,Post,2021_Jul_16_1202,N-Back (New Version 2021),2021.1.4,119.9152919
,,,,Conditions/Version_1/twoback(3)_v1.xlsx,New rule: Press 'space' when you see 2-back (i.e. the same letter as the one that appeared 2 letters ago.),z,space,,,,,,,,,0,10,10,10,0,5,5,5,,,,,,,,,,,,,,,,,,,,,,,,,,,,,,,,,,,,,,,,,,,,,,,,,,,,,,,,,,,,,,,,,,,,,1.2084,992.4582826,None,space,1,992.4582826,None,0.3245202,P004,fencog,1,Post,2021_Jul_16_1202,N-Back (New Version 2021),2021.1.4,119.9152919
,,,,Conditions/Version_1/twoback(3)_v1.xlsx,New rule: Press 'space' when you see 2-back (i.e. the same letter as the one that appeared 2 letters ago.),x,space,,,,,,,,,0,10,10,10,0,6,6,6,,,,,,,,,,,,,,,,,,,,,,,,,,,,,,,,,,,,,,,,,,,,,,,,,,,,,,,,,,,,,,,,,,,,,1.0472,995.5154601,None,space,1,995.5154601,None,0.5792277,P004,fencog,1,Post,2021_Jul_16_1202,N-Back (New Version 2021),2021.1.4,119.9152919
,,,,Conditions/Version_1/twoback(3)_v1.xlsx,New rule: Press 'space' when you see 2-back (i.e. the same letter as the one that appeared 2 letters ago.),c,None,,,,,,,,,0,10,10,10,0,7,7,7,,,,,,,,,,,,,,,,,,,,,,,,,,,,,,,,,,,,,,,,,,,,,,,,,,,,,,,,,,,,,,,,,,,,,1.2208,998.745939,None,None,1,998.745939,None,,P004,fencog,1,Post,2021_Jul_16_1202,N-Back (New Version 2021),2021.1.4,119.9152919
,,,,Conditions/Version_1/twoback(3)_v1.xlsx,New rule: Press 'space' when you see 2-back (i.e. the same letter as the one that appeared 2 letters ago.),i,None,,,,,,,,,0,10,10,10,0,8,8,8,,,,,,,,,,,,,,,,,,,,,,,,,,,,,,,,,,,,,,,,,,,,,,,,,,,,,,,,,,,,,,,,,,,,,1.8346,1002.589057,None,None,1,1002.589057,None,,P004,fencog,1,Post,2021_Jul_16_1202,N-Back (New Version 2021),2021.1.4,119.9152919
,,,,Conditions/Version_1/twoback(3)_v1.xlsx,New rule: Press 'space' when you see 2-back (i.e. the same letter as the one that appeared 2 letters ago.),C,space,,,,,,,,,0,10,10,10,0,9,9,9,,,,,,,,,,,,,,,,,,,,,,,,,,,,,,,,,,,,,,,,,,,,,,,,,,,,,,,,,,,,,,,,,,,,,1.7912,1006.387192,None,space,1,1006.387192,None,1.1153193,P004,fencog,1,Post,2021_Jul_16_1202,N-Back (New Version 2021),2021.1.4,119.9152919
,,,,Conditions/Version_1/twoback(3)_v1.xlsx,New rule: Press 'space' when you see 2-back (i.e. the same letter as the one that appeared 2 letters ago.),,,,,,,,,,,0,10,10,10,,,,,,,,,,,,,,,,,,,,,,,,,,,,,,,,,,,,,,,,,,,,,,,,,,,,,,,,,,,,,,,,,,,,,,,,,,,,,,,,,P004,fencog,1,Post,2021_Jul_16_1202,N-Back (New Version 2021),2021.1.4,119.9152919
,,,,Conditions/Version_1/oneback(3)_v1.xlsx,New rule: Press 'space' when you see 1-back (i.e. the same letter as the one that appeared 1 letter ago.),o,None,,,,,,,,,0,11,11,11,0,0,0,0,,,,,,,,,,,,,,,,,,,,,,,,,,,,,,,,,,,,,,,,,,,,,,,,,,,,,,,,,,,1008.415006,None,1011.402652,None,space,0.1797833,1011.402652,None,1008.415006,None,1.4688,1013.076057,None,None,1,1013.076057,None,,P004,fencog,1,Post,2021_Jul_16_1202,N-Back (New Version 2021),2021.1.4,119.9152919
,,,,Conditions/Version_1/oneback(3)_v1.xlsx,New rule: Press 'space' when you see 1-back (i.e. the same letter as the one that appeared 1 letter ago.),O,space,,,,,,,,,0,11,11,11,0,1,1,1,,,,,,,,,,,,,,,,,,,,,,,,,,,,,,,,,,,,,,,,,,,,,,,,,,,,,,,,,,,,,,,,,,,,,1.0162,1016.115227,None,space,1,1016.115227,None,0.7393435,P004,fencog,1,Post,2021_Jul_16_1202,N-Back (New Version 2021),2021.1.4,119.9152919
,,,,Conditions/Version_1/oneback(3)_v1.xlsx,New rule: Press 'space' when you see 1-back (i.e. the same letter as the one that appeared 1 letter ago.),h,None,,,,,,,,,0,11,11,11,0,2,2,2,,,,,,,,,,,,,,,,,,,,,,,,,,,,,,,,,,,,,,,,,,,,,,,,,,,,,,,,,,,,,,,,,,,,,1.2084,1019.325348,None,None,1,1019.325348,None,,P004,fencog,1,Post,2021_Jul_16_1202,N-Back (New Version 2021),2021.1.4,119.9152919
,,,,Conditions/Version_1/oneback(3)_v1.xlsx,New rule: Press 'space' when you see 1-back (i.e. the same letter as the one that appeared 1 letter ago.),g,None,,,,,,,,,0,11,11,11,0,3,3,3,,,,,,,,,,,,,,,,,,,,,,,,,,,,,,,,,,,,,,,,,,,,,,,,,,,,,,,,,,,,,,,,,,,,,1.1898,1022.522275,None,None,1,1022.522275,None,,P004,fencog,1,Post,2021_Jul_16_1202,N-Back (New Version 2021),2021.1.4,119.9152919
,,,,Conditions/Version_1/oneback(3)_v1.xlsx,New rule: Press 'space' when you see 1-back (i.e. the same letter as the one that appeared 1 letter ago.),n,None,,,,,,,,,0,11,11,11,0,4,4,4,,,,,,,,,,,,,,,,,,,,,,,,,,,,,,,,,,,,,,,,,,,,,,,,,,,,,,,,,,,,,,,,,,,,,1.32,1025.848163,None,None,1,1025.848163,None,,P004,fencog,1,Post,2021_Jul_16_1202,N-Back (New Version 2021),2021.1.4,119.9152919
,,,,Conditions/Version_1/oneback(3)_v1.xlsx,New rule: Press 'space' when you see 1-back (i.e. the same letter as the one that appeared 1 letter ago.),z,None,,,,,,,,,0,11,11,11,0,5,5,5,,,,,,,,,,,,,,,,,,,,,,,,,,,,,,,,,,,,,,,,,,,,,,,,,,,,,,,,,,,,,,,,,,,,,1.444,1029.304463,None,None,1,1029.304463,None,,P004,fencog,1,Post,2021_Jul_16_1202,N-Back (New Version 2021),2021.1.4,119.9152919
,,,,Conditions/Version_1/oneback(3)_v1.xlsx,New rule: Press 'space' when you see 1-back (i.e. the same letter as the one that appeared 1 letter ago.),X,None,,,,,,,,,0,11,11,11,0,6,6,6,,,,,,,,,,,,,,,,,,,,,,,,,,,,,,,,,,,,,,,,,,,,,,,,,,,,,,,,,,,,,,,,,,,,,1.9028,1033.221004,None,None,1,1033.221004,None,,P004,fencog,1,Post,2021_Jul_16_1202,N-Back (New Version 2021),2021.1.4,119.9152919
,,,,Conditions/Version_1/oneback(3)_v1.xlsx,New rule: Press 'space' when you see 1-back (i.e. the same letter as the one that appeared 1 letter ago.),r,None,,,,,,,,,0,11,11,11,0,7,7,7,,,,,,,,,,,,,,,,,,,,,,,,,,,,,,,,,,,,,,,,,,,,,,,,,,,,,,,,,,,,,,,,,,,,,1.3634,1036.594925,None,None,1,1036.594925,None,,P004,fencog,1,Post,2021_Jul_16_1202,N-Back (New Version 2021),2021.1.4,119.9152919
,,,,Conditions/Version_1/oneback(3)_v1.xlsx,New rule: Press 'space' when you see 1-back (i.e. the same letter as the one that appeared 1 letter ago.),r,space,,,,,,,,,0,11,11,11,0,8,8,8,,,,,,,,,,,,,,,,,,,,,,,,,,,,,,,,,,,,,,,,,,,,,,,,,,,,,,,,,,,,,,,,,,,,,1.5184,1040.125491,None,space,1,1040.125491,None,0.4568552,P004,fencog,1,Post,2021_Jul_16_1202,N-Back (New Version 2021),2021.1.4,119.9152919
,,,,Conditions/Version_1/oneback(3)_v1.xlsx,New rule: Press 'space' when you see 1-back (i.e. the same letter as the one that appeared 1 letter ago.),P,None,,,,,,,,,0,11,11,11,0,9,9,9,,,,,,,,,,,,,,,,,,,,,,,,,,,,,,,,,,,,,,,,,,,,,,,,,,,,,,,,,,,,,,,,,,,,,1.103,1043.234366,None,None,1,1043.234366,None,,P004,fencog,1,Post,2021_Jul_16_1202,N-Back (New Version 2021),2021.1.4,119.9152919
,,,,Conditions/Version_1/oneback(3)_v1.xlsx,New rule: Press 'space' when you see 1-back (i.e. the same letter as the one that appeared 1 letter ago.),,,,,,,,,,,0,11,11,11,,,,,,,,,,,,,,,,,,,,,,,,,,,,,,,,,,,,,,,,,,,,,,,,,,,,,,,,,,,,,,,,,,,,,,,,,,,,,,,,,P004,fencog,1,Post,2021_Jul_16_1202,N-Back (New Version 2021),2021.1.4,119.9152919
,,,,Conditions/Version_1/twoback(4)_v1.xlsx,New rule: Press 'space' when you see 2-back (i.e. the same letter as the one that appeared 2 letters ago.),r,None,,,,,,,,,0,12,12,12,0,0,0,0,,,,,,,,,,,,,,,,,,,,,,,,,,,,,,,,,,,,,,,,,,,,,,,,,,,,,,,,,,,1045.264116,None,1048.250184,None,space,1.1804047,1048.250184,None,1045.264116,None,1.0658,1050.557948,None,None,1,1050.557948,None,,P004,fencog,1,Post,2021_Jul_16_1202,N-Back (New Version 2021),2021.1.4,119.9152919
,,,,Conditions/Version_1/twoback(4)_v1.xlsx,New rule: Press 'space' when you see 2-back (i.e. the same letter as the one that appeared 2 letters ago.),T,None,,,,,,,,,0,12,12,12,0,1,1,1,,,,,,,,,,,,,,,,,,,,,,,,,,,,,,,,,,,,,,,,,,,,,,,,,,,,,,,,,,,,,,,,,,,,,1.7726,1054.338035,None,None,1,1054.338035,None,,P004,fencog,1,Post,2021_Jul_16_1202,N-Back (New Version 2021),2021.1.4,119.9152919
,,,,Conditions/Version_1/twoback(4)_v1.xlsx,New rule: Press 'space' when you see 2-back (i.e. the same letter as the one that appeared 2 letters ago.),o,None,,,,,,,,,0,12,12,12,0,2,2,2,,,,,,,,,,,,,,,,,,,,,,,,,,,,,,,,,,,,,,,,,,,,,,,,,,,,,,,,,,,,,,,,,,,,,1.63,1057.974104,None,None,1,1057.974104,None,,P004,fencog,1,Post,2021_Jul_16_1202,N-Back (New Version 2021),2021.1.4,119.9152919
,,,,Conditions/Version_1/twoback(4)_v1.xlsx,New rule: Press 'space' when you see 2-back (i.e. the same letter as the one that appeared 2 letters ago.),p,None,,,,,,,,,0,12,12,12,0,3,3,3,,,,,,,,,,,,,,,,,,,,,,,,,,,,,,,,,,,,,,,,,,,,,,,,,,,,,,,,,,,,,,,,,,,,,1.785,1061.771688,None,None,1,1061.771688,None,,P004,fencog,1,Post,2021_Jul_16_1202,N-Back (New Version 2021),2021.1.4,119.9152919
,,,,Conditions/Version_1/twoback(4)_v1.xlsx,New rule: Press 'space' when you see 2-back (i.e. the same letter as the one that appeared 2 letters ago.),p,None,,,,,,,,,0,12,12,12,0,4,4,4,,,,,,,,,,,,,,,,,,,,,,,,,,,,,,,,,,,,,,,,,,,,,,,,,,,,,,,,,,,,,,,,,,,,,1.7168,1065.493484,None,None,1,1065.493484,None,,P004,fencog,1,Post,2021_Jul_16_1202,N-Back (New Version 2021),2021.1.4,119.9152919
,,,,Conditions/Version_1/twoback(4)_v1.xlsx,New rule: Press 'space' when you see 2-back (i.e. the same letter as the one that appeared 2 letters ago.),y,None,,,,,,,,,0,12,12,12,0,5,5,5,,,,,,,,,,,,,,,,,,,,,,,,,,,,,,,,,,,,,,,,,,,,,,,,,,,,,,,,,,,,,,,,,,,,,1.9338,1069.443911,None,None,1,1069.443911,None,,P004,fencog,1,Post,2021_Jul_16_1202,N-Back (New Version 2021),2021.1.4,119.9152919
,,,,Conditions/Version_1/twoback(4)_v1.xlsx,New rule: Press 'space' when you see 2-back (i.e. the same letter as the one that appeared 2 letters ago.),P,space,,,,,,,,,0,12,12,12,0,6,6,6,,,,,,,,,,,,,,,,,,,,,,,,,,,,,,,,,,,,,,,,,,,,,,,,,,,,,,,,,,,,,,,,,,,,,1.0844,1072.54279,None,space,1,1072.54279,None,1.2552726,P004,fencog,1,Post,2021_Jul_16_1202,N-Back (New Version 2021),2021.1.4,119.9152919
,,,,Conditions/Version_1/twoback(4)_v1.xlsx,New rule: Press 'space' when you see 2-back (i.e. the same letter as the one that appeared 2 letters ago.),y,None,,,,,,,,,0,12,12,12,0,7,7,7,,,,,,,,,,,,,,,,,,,,,,,,,,,,,,,,,,,,,,,,,,,,,,,,,,,,,,,,,,,,,,,,,,,,,1.227,1075.782547,None,space,0,1075.782547,None,0.9120235,P004,fencog,1,Post,2021_Jul_16_1202,N-Back (New Version 2021),2021.1.4,119.9152919
,,,,Conditions/Version_1/twoback(4)_v1.xlsx,New rule: Press 'space' when you see 2-back (i.e. the same letter as the one that appeared 2 letters ago.),y,space,,,,,,,,,0,12,12,12,0,8,8,8,,,,,,,,,,,,,,,,,,,,,,,,,,,,,,,,,,,,,,,,,,,,,,,,,,,,,,,,,,,,,,,,,,,,,1.4006,1079.189605,None,None,0,1079.189605,None,,P004,fencog,1,Post,2021_Jul_16_1202,N-Back (New Version 2021),2021.1.4,119.9152919
,,,,Conditions/Version_1/twoback(4)_v1.xlsx,New rule: Press 'space' when you see 2-back (i.e. the same letter as the one that appeared 2 letters ago.),,,,,,,,,,,0,12,12,12,,,,,,,,,,,,,,,,,,,,,,,,,,,,,,,,,,,,,,,,,,,,,,,,,,,,,,,,,,,,,,,,,,,,,,,,,,,,,,,,,P004,fencog,1,Post,2021_Jul_16_1202,N-Back (New Version 2021),2021.1.4,119.9152919
,,,,Conditions/Version_1/zeroback(4)_v1.xlsx,New rule: Press 'space' when you see the letter 'x' or 'X'.,o,None,,,,,,,,,0,13,13,13,0,0,0,0,,,,,,,,,,,,,,,,,,,,,,,,,,,,,,,,,,,,,,,,,,,,,,,,,,,,,,,,,,,1081.21656,None,1084.206541,None,space,0.8479098,1084.206541,None,1081.21656,None,1.1898,1086.281106,None,None,1,1086.281106,None,,P004,fencog,1,Post,2021_Jul_16_1202,N-Back (New Version 2021),2021.1.4,119.9152919
,,,,Conditions/Version_1/zeroback(4)_v1.xlsx,New rule: Press 'space' when you see the letter 'x' or 'X'.,X,space,,,,,,,,,0,13,13,13,0,1,1,1,,,,,,,,,,,,,,,,,,,,,,,,,,,,,,,,,,,,,,,,,,,,,,,,,,,,,,,,,,,,,,,,,,,,,1.3696,1089.663391,None,space,1,1089.663391,None,0.3511957,P004,fencog,1,Post,2021_Jul_16_1202,N-Back (New Version 2021),2021.1.4,119.9152919
,,,,Conditions/Version_1/zeroback(4)_v1.xlsx,New rule: Press 'space' when you see the letter 'x' or 'X'.,p,None,,,,,,,,,0,13,13,13,0,2,2,2,,,,,,,,,,,,,,,,,,,,,,,,,,,,,,,,,,,,,,,,,,,,,,,,,,,,,,,,,,,,,,,,,,,,,1.599,1093.269234,None,None,1,1093.269234,None,,P004,fencog,1,Post,2021_Jul_16_1202,N-Back (New Version 2021),2021.1.4,119.9152919
,,,,Conditions/Version_1/zeroback(4)_v1.xlsx,New rule: Press 'space' when you see the letter 'x' or 'X'.,m,None,,,,,,,,,0,13,13,13,0,3,3,3,,,,,,,,,,,,,,,,,,,,,,,,,,,,,,,,,,,,,,,,,,,,,,,,,,,,,,,,,,,,,,,,,,,,,1.9152,1097.193435,None,None,1,1097.193435,None,,P004,fencog,1,Post,2021_Jul_16_1202,N-Back (New Version 2021),2021.1.4,119.9152919
,,,,Conditions/Version_1/zeroback(4)_v1.xlsx,New rule: Press 'space' when you see the letter 'x' or 'X'.,n,None,,,,,,,,,0,13,13,13,0,4,4,4,,,,,,,,,,,,,,,,,,,,,,,,,,,,,,,,,,,,,,,,,,,,,,,,,,,,,,,,,,,,,,,,,,,,,1.7974,1100.998805,None,None,1,1100.998805,None,,P004,fencog,1,Post,2021_Jul_16_1202,N-Back (New Version 2021),2021.1.4,119.9152919
,,,,Conditions/Version_1/zeroback(4)_v1.xlsx,New rule: Press 'space' when you see the letter 'x' or 'X'.,m,None,,,,,,,,,0,13,13,13,0,5,5,5,,,,,,,,,,,,,,,,,,,,,,,,,,,,,,,,,,,,,,,,,,,,,,,,,,,,,,,,,,,,,,,,,,,,,1.816,1104.818304,None,None,1,1104.818304,None,,P004,fencog,1,Post,2021_Jul_16_1202,N-Back (New Version 2021),2021.1.4,119.9152919
,,,,Conditions/Version_1/zeroback(4)_v1.xlsx,New rule: Press 'space' when you see the letter 'x' or 'X'.,C,None,,,,,,,,,0,13,13,13,0,6,6,6,,,,,,,,,,,,,,,,,,,,,,,,,,,,,,,,,,,,,,,,,,,,,,,,,,,,,,,,,,,,,,,,,,,,,1.5184,1108.348999,None,None,1,1108.348999,None,,P004,fencog,1,Post,2021_Jul_16_1202,N-Back (New Version 2021),2021.1.4,119.9152919
,,,,Conditions/Version_1/zeroback(4)_v1.xlsx,New rule: Press 'space' when you see the letter 'x' or 'X'.,m,None,,,,,,,,,0,13,13,13,0,7,7,7,,,,,,,,,,,,,,,,,,,,,,,,,,,,,,,,,,,,,,,,,,,,,,,,,,,,,,,,,,,,,,,,,,,,,1.8532,1112.214478,None,None,1,1112.214478,None,,P004,fencog,1,Post,2021_Jul_16_1202,N-Back (New Version 2021),2021.1.4,119.9152919
,,,,Conditions/Version_1/zeroback(4)_v1.xlsx,New rule: Press 'space' when you see the letter 'x' or 'X'.,p,None,,,,,,,,,0,13,13,13,0,8,8,8,,,,,,,,,,,,,,,,,,,,,,,,,,,,,,,,,,,,,,,,,,,,,,,,,,,,,,,,,,,,,,,,,,,,,1.1712,1115.396893,None,None,1,1115.396893,None,,P004,fencog,1,Post,2021_Jul_16_1202,N-Back (New Version 2021),2021.1.4,119.9152919
,,,,Conditions/Version_1/zeroback(4)_v1.xlsx,New rule: Press 'space' when you see the letter 'x' or 'X'.,X,space,,,,,,,,,0,13,13,13,0,9,9,9,,,,,,,,,,,,,,,,,,,,,,,,,,,,,,,,,,,,,,,,,,,,,,,,,,,,,,,,,,,,,,,,,,,,,1.3386,1118.745891,None,space,1,1118.745891,None,0.3326791,P004,fencog,1,Post,2021_Jul_16_1202,N-Back (New Version 2021),2021.1.4,119.9152919
,,,,Conditions/Version_1/zeroback(4)_v1.xlsx,New rule: Press 'space' when you see the letter 'x' or 'X'.,,,,,,,,,,,0,13,13,13,,,,,,,,,,,,,,,,,,,,,,,,,,,,,,,,,,,,,,,,,,,,,,,,,,,,,,,,,,,,,,,,,,,,,,,,,,,,,,,,,P004,fencog,1,Post,2021_Jul_16_1202,N-Back (New Version 2021),2021.1.4,119.9152919
,,,,Conditions/Version_1/oneback(4)_v1.xlsx,New rule: Press 'space' when you see 1-back (i.e. the same letter as the one that appeared 1 letter ago.),w,None,,,,,,,,,0,14,14,14,0,0,0,0,,,,,,,,,,,,,,,,,,,,,,,,,,,,,,,,,,,,,,,,,,,,,,,,,,,,,,,,,,,1120.771726,None,1123.761357,None,space,0.1171705,1123.761357,None,1120.771726,None,1.072,1124.977348,None,None,1,1124.977348,None,,P004,fencog,1,Post,2021_Jul_16_1202,N-Back (New Version 2021),2021.1.4,119.9152919
,,,,Conditions/Version_1/oneback(4)_v1.xlsx,New rule: Press 'space' when you see 1-back (i.e. the same letter as the one that appeared 1 letter ago.),q,None,,,,,,,,,0,14,14,14,0,1,1,1,,,,,,,,,,,,,,,,,,,,,,,,,,,,,,,,,,,,,,,,,,,,,,,,,,,,,,,,,,,,,,,,,,,,,1.971,1128.959945,None,None,1,1128.959945,None,,P004,fencog,1,Post,2021_Jul_16_1202,N-Back (New Version 2021),2021.1.4,119.9152919
,,,,Conditions/Version_1/oneback(4)_v1.xlsx,New rule: Press 'space' when you see 1-back (i.e. the same letter as the one that appeared 1 letter ago.),i,None,,,,,,,,,0,14,14,14,0,2,2,2,,,,,,,,,,,,,,,,,,,,,,,,,,,,,,,,,,,,,,,,,,,,,,,,,,,,,,,,,,,,,,,,,,,,,1.7354,1132.707445,None,None,1,1132.707445,None,,P004,fencog,1,Post,2021_Jul_16_1202,N-Back (New Version 2021),2021.1.4,119.9152919
,,,,Conditions/Version_1/oneback(4)_v1.xlsx,New rule: Press 'space' when you see 1-back (i.e. the same letter as the one that appeared 1 letter ago.),t,None,,,,,,,,,0,14,14,14,0,3,3,3,,,,,,,,,,,,,,,,,,,,,,,,,,,,,,,,,,,,,,,,,,,,,,,,,,,,,,,,,,,,,,,,,,,,,1.3572,1136.07403,None,None,1,1136.07403,None,,P004,fencog,1,Post,2021_Jul_16_1202,N-Back (New Version 2021),2021.1.4,119.9152919
,,,,Conditions/Version_1/oneback(4)_v1.xlsx,New rule: Press 'space' when you see 1-back (i.e. the same letter as the one that appeared 1 letter ago.),v,None,,,,,,,,,0,14,14,14,0,4,4,4,,,,,,,,,,,,,,,,,,,,,,,,,,,,,,,,,,,,,,,,,,,,,,,,,,,,,,,,,,,,,,,,,,,,,1.6672,1139.748288,None,None,1,1139.748288,None,,P004,fencog,1,Post,2021_Jul_16_1202,N-Back (New Version 2021),2021.1.4,119.9152919
,,,,Conditions/Version_1/oneback(4)_v1.xlsx,New rule: Press 'space' when you see 1-back (i.e. the same letter as the one that appeared 1 letter ago.),V,space,,,,,,,,,0,14,14,14,0,5,5,5,,,,,,,,,,,,,,,,,,,,,,,,,,,,,,,,,,,,,,,,,,,,,,,,,,,,,,,,,,,,,,,,,,,,,1.1464,1142.904517,None,space,1,1142.904517,None,0.5263343,P004,fencog,1,Post,2021_Jul_16_1202,N-Back (New Version 2021),2021.1.4,119.9152919
,,,,Conditions/Version_1/oneback(4)_v1.xlsx,New rule: Press 'space' when you see 1-back (i.e. the same letter as the one that appeared 1 letter ago.),v,space,,,,,,,,,0,14,14,14,0,6,6,6,,,,,,,,,,,,,,,,,,,,,,,,,,,,,,,,,,,,,,,,,,,,,,,,,,,,,,,,,,,,,,,,,,,,,1.7726,1146.687307,None,space,1,1146.687307,None,0.3832886,P004,fencog,1,Post,2021_Jul_16_1202,N-Back (New Version 2021),2021.1.4,119.9152919
,,,,Conditions/Version_1/oneback(4)_v1.xlsx,New rule: Press 'space' when you see 1-back (i.e. the same letter as the one that appeared 1 letter ago.),p,None,,,,,,,,,0,14,14,14,0,7,7,7,,,,,,,,,,,,,,,,,,,,,,,,,,,,,,,,,,,,,,,,,,,,,,,,,,,,,,,,,,,,,,,,,,,,,1.8842,1150.580458,None,None,1,1150.580458,None,,P004,fencog,1,Post,2021_Jul_16_1202,N-Back (New Version 2021),2021.1.4,119.9152919
,,,,Conditions/Version_1/oneback(4)_v1.xlsx,New rule: Press 'space' when you see 1-back (i.e. the same letter as the one that appeared 1 letter ago.),w,None,,,,,,,,,0,14,14,14,0,8,8,8,,,,,,,,,,,,,,,,,,,,,,,,,,,,,,,,,,,,,,,,,,,,,,,,,,,,,,,,,,,,,,,,,,,,,1.599,1154.183445,None,None,1,1154.183445,None,,P004,fencog,1,Post,2021_Jul_16_1202,N-Back (New Version 2021),2021.1.4,119.9152919
,,,,Conditions/Version_1/oneback(4)_v1.xlsx,New rule: Press 'space' when you see 1-back (i.e. the same letter as the one that appeared 1 letter ago.),W,space,,,,,,,,,0,14,14,14,0,9,9,9,,,,,,,,,,,,,,,,,,,,,,,,,,,,,,,,,,,,,,,,,,,,,,,,,,,,,,,,,,,,,,,,,,,,,1.94,1158.12605,None,space,1,1158.12605,None,0.4244752,P004,fencog,1,Post,2021_Jul_16_1202,N-Back (New Version 2021),2021.1.4,119.9152919
,,,,Conditions/Version_1/oneback(4)_v1.xlsx,New rule: Press 'space' when you see 1-back (i.e. the same letter as the one that appeared 1 letter ago.),,,,,,,,,,,0,14,14,14,,,,,,,,,,,,,,,,,,,,,,,,,,,,,,,,,,,,,,,,,,,,,,,,,,,,,,,,,,,,,,,,,,,,,,,,,,,,,,,,,P004,fencog,1,Post,2021_Jul_16_1202,N-Back (New Version 2021),2021.1.4,119.9152919
,,,,Conditions/Version_1/threeback(4)_v1.xlsx,New rule: Press 'space' when you see 3-back (i.e. the same letter as the one that appeared 3 letters ago.),A,None,,,,,,,,,0,15,15,15,0,0,0,0,,,,,,,,,,,,,,,,,,,,,,,,,,,,,,,,,,,,,,,,,,,,,,,,,,,,,,,,,,,1160.155595,None,1163.14043,None,space,5.5780892,1163.14043,None,1160.155595,None,1.1092,1169.864015,None,None,1,1169.864015,None,,P004,fencog,1,Post,2021_Jul_16_1202,N-Back (New Version 2021),2021.1.4,119.9152919
,,,,Conditions/Version_1/threeback(4)_v1.xlsx,New rule: Press 'space' when you see 3-back (i.e. the same letter as the one that appeared 3 letters ago.),n,None,,,,,,,,,0,15,15,15,0,1,1,1,,,,,,,,,,,,,,,,,,,,,,,,,,,,,,,,,,,,,,,,,,,,,,,,,,,,,,,,,,,,,,,,,,,,,1.6486,1173.520997,None,None,1,1173.520997,None,,P004,fencog,1,Post,2021_Jul_16_1202,N-Back (New Version 2021),2021.1.4,119.9152919
,,,,Conditions/Version_1/threeback(4)_v1.xlsx,New rule: Press 'space' when you see 3-back (i.e. the same letter as the one that appeared 3 letters ago.),g,None,,,,,,,,,0,15,15,15,0,2,2,2,,,,,,,,,,,,,,,,,,,,,,,,,,,,,,,,,,,,,,,,,,,,,,,,,,,,,,,,,,,,,,,,,,,,,1.8222,1177.356177,None,None,1,1177.356177,None,,P004,fencog,1,Post,2021_Jul_16_1202,N-Back (New Version 2021),2021.1.4,119.9152919
,,,,Conditions/Version_1/threeback(4)_v1.xlsx,New rule: Press 'space' when you see 3-back (i.e. the same letter as the one that appeared 3 letters ago.),A,space,,,,,,,,,0,15,15,15,0,3,3,3,,,,,,,,,,,,,,,,,,,,,,,,,,,,,,,,,,,,,,,,,,,,,,,,,,,,,,,,,,,,,,,,,,,,,1.5866,1180.951648,None,space,1,1180.951648,None,0.5128844,P004,fencog,1,Post,2021_Jul_16_1202,N-Back (New Version 2021),2021.1.4,119.9152919
,,,,Conditions/Version_1/threeback(4)_v1.xlsx,New rule: Press 'space' when you see 3-back (i.e. the same letter as the one that appeared 3 letters ago.),p,None,,,,,,,,,0,15,15,15,0,4,4,4,,,,,,,,,,,,,,,,,,,,,,,,,,,,,,,,,,,,,,,,,,,,,,,,,,,,,,,,,,,,,,,,,,,,,1.8594,1184.827165,None,None,1,1184.827165,None,,P004,fencog,1,Post,2021_Jul_16_1202,N-Back (New Version 2021),2021.1.4,119.9152919
,,,,Conditions/Version_1/threeback(4)_v1.xlsx,New rule: Press 'space' when you see 3-back (i.e. the same letter as the one that appeared 3 letters ago.),O,None,,,,,,,,,0,15,15,15,0,5,5,5,,,,,,,,,,,,,,,,,,,,,,,,,,,,,,,,,,,,,,,,,,,,,,,,,,,,,,,,,,,,,,,,,,,,,1.4936,1188.332546,None,None,1,1188.332546,None,,P004,fencog,1,Post,2021_Jul_16_1202,N-Back (New Version 2021),2021.1.4,119.9152919
,,,,Conditions/Version_1/threeback(4)_v1.xlsx,New rule: Press 'space' when you see 3-back (i.e. the same letter as the one that appeared 3 letters ago.),a,space,,,,,,,,,0,15,15,15,0,6,6,6,,,,,,,,,,,,,,,,,,,,,,,,,,,,,,,,,,,,,,,,,,,,,,,,,,,,,,,,,,,,,,,,,,,,,1.8284,1192.173429,None,space,1,1192.173429,None,0.4410154,P004,fencog,1,Post,2021_Jul_16_1202,N-Back (New Version 2021),2021.1.4,119.9152919
,,,,Conditions/Version_1/threeback(4)_v1.xlsx,New rule: Press 'space' when you see 3-back (i.e. the same letter as the one that appeared 3 letters ago.),p,space,,,,,,,,,0,15,15,15,0,7,7,7,,,,,,,,,,,,,,,,,,,,,,,,,,,,,,,,,,,,,,,,,,,,,,,,,,,,,,,,,,,,,,,,,,,,,1.01,1195.1984,None,space,1,1195.1984,None,0.7922572,P004,fencog,1,Post,2021_Jul_16_1202,N-Back (New Version 2021),2021.1.4,119.9152919
,,,,Conditions/Version_1/threeback(4)_v1.xlsx,New rule: Press 'space' when you see 3-back (i.e. the same letter as the one that appeared 3 letters ago.),x,None,,,,,,,,,0,15,15,15,0,8,8,8,,,,,,,,,,,,,,,,,,,,,,,,,,,,,,,,,,,,,,,,,,,,,,,,,,,,,,,,,,,,,,,,,,,,,1.6176,1198.830401,None,None,1,1198.830401,None,,P004,fencog,1,Post,2021_Jul_16_1202,N-Back (New Version 2021),2021.1.4,119.9152919
,,,,Conditions/Version_1/threeback(4)_v1.xlsx,New rule: Press 'space' when you see 3-back (i.e. the same letter as the one that appeared 3 letters ago.),X,None,,,,,,,,,0,15,15,15,0,9,9,9,,,,,,,,,,,,,,,,,,,,,,,,,,,,,,,,,,,,,,,,,,,,,,,,,,,,,,,,,,,,,,,,,,,,,1.5556,1202.39835,None,None,1,1202.39835,None,,P004,fencog,1,Post,2021_Jul_16_1202,N-Back (New Version 2021),2021.1.4,119.9152919
,,,,Conditions/Version_1/threeback(4)_v1.xlsx,New rule: Press 'space' when you see 3-back (i.e. the same letter as the one that appeared 3 letters ago.),,,,,,,,,,,0,15,15,15,,,,,,,,,,,,,,,,,,,,,,,,,,,,,,,,,,,,,,,,,,,,,,,,,,,,,,,,,,,,,,,,,,,,,,,,,,,,,,,,,P004,fencog,1,Post,2021_Jul_16_1202,N-Back (New Version 2021),2021.1.4,119.9152919
