CondFileP,InstructionsP,LettersDisplayedP,CorrectnessP,CondFile,Instructions,LettersDisplayed,Correctness,practicetrials.thisRepN,practicetrials.thisTrialN,practicetrials.thisN,practicetrials.thisIndex,InnerLoopPractice.thisRepN,InnerLoopPractice.thisTrialN,InnerLoopPractice.thisN,InnerLoopPractice.thisIndex,trials.thisRepN,trials.thisTrialN,trials.thisN,trials.thisIndex,InnerLoop.thisRepN,InnerLoop.thisTrialN,InnerLoop.thisN,InnerLoop.thisIndex,TaskVersionText.started,TaskVersionText.stopped,InstrKey1.keys,InstrKey1.rt,InstrKey1.started,InstrKey1.stopped,text.started,text.stopped,key_resp_4.keys,key_resp_4.rt,key_resp_4.started,key_resp_4.stopped,text_2.started,text_2.stopped,key_resp_3.keys,key_resp_3.rt,key_resp_3.started,key_resp_3.stopped,text_3.started,text_3.stopped,key_resp_2.keys,key_resp_2.rt,key_resp_2.started,key_resp_2.stopped,PractIn1.started,PractIn1.stopped,PractIn2.started,PractIn2.stopped,PractInstructionPass.keys,PractInstructionPass.rt,PractInstructionPass.started,PractInstructionPass.stopped,PractBlock1.started,PractBlock1.stopped,ISIjitterPractice,ISI_Pract_Fixation.started,ISI_Pract_Fixation.stopped,N_backP.started,N_backP.stopped,KeyPractice.keys,KeyPractice.corr,KeyPractice.started,KeyPractice.stopped,text_4.started,text_4.stopped,KeyPractice.rt,TransitionText.started,TransitionText.stopped,key_resp_6.keys,key_resp_6.rt,key_resp_6.started,key_resp_6.stopped,text_5.started,text_5.stopped,key_resp_5.keys,key_resp_5.rt,key_resp_5.started,key_resp_5.stopped,MainInt1.started,MainInt1.stopped,MainInt2.started,MainInt2.stopped,InstructionPass.keys,InstructionPass.rt,InstructionPass.started,InstructionPass.stopped,Blocks1.started,Blocks1.stopped,ISIjitter,N_backD.started,N_backD.stopped,key_resp.keys,key_resp.corr,key_resp.started,key_resp.stopped,key_resp.rt,participant,Study Name,Task Version (required to run),PRE/POST,date,expName,psychopyVersion,frameRate,
,,,,,,,,,,,,,,,,,,,,,,,,28.136731299979147,None,space,171.77363600005629,28.621472599974368,None,,,,,,,,,,,,,,,,,,,,,,,,,,,,,,,,,,,,,,,,,,,,,,,,,,,,,,,,,,,,,,,,,,,,,,,P005,fencog,1,Pre,2021_Jul_13_1127,N-Back (New Version 2021),2021.1.4,120.58973202368163,
,,,,,,,,,,,,,,,,,,,,,,,,,,,,,,200.42656499997247,None,space,4.274520099977963,200.91264499997487,None,,,,,,,,,,,,,,,,,,,,,,,,,,,,,,,,,,,,,,,,,,,,,,,,,,,,,,,,,,,,,,,,,P005,fencog,1,Pre,2021_Jul_13_1127,N-Back (New Version 2021),2021.1.4,120.58973202368163,
,,,,,,,,,,,,,,,,,,,,,,,,,,,,,,,,,,,,205.21831289998954,None,space,8.331826800014824,205.7032695999951,None,,,,,,,,,,,,,,,,,,,,,,,,,,,,,,,,,,,,,,,,,,,,,,,,,,,,,,,,,,,P005,fencog,1,Pre,2021_Jul_13_1127,N-Back (New Version 2021),2021.1.4,120.58973202368163,
,,,,,,,,,,,,,,,,,,,,,,,,,,,,,,,,,,,,,,,,,,214.0597010999918,None,space,7.524618699972052,214.55052910000086,None,,,,,,,,,,,,,,,,,,,,,,,,,,,,,,,,,,,,,,,,,,,,,,,,,,,,,P005,fencog,1,Pre,2021_Jul_13_1127,N-Back (New Version 2021),2021.1.4,120.58973202368163,
Conditions/Version_1Pr/zeroback(1)_v1.xlsx,Rule: Press 'space' when you see the letter 'x' or 'X'.,Z,None,,,,,0,0,0,0,0,0,0,0,,,,,,,,,,,,,,,,,,,,,,,,,,,,,,,,,223.44732380000642,None,226.43119799997658,None,space,0.7474829999846406,226.43119799997658,None,223.44732380000642,None,1.84,227.22011509997537,None,229.06584449997172,None,None,1,229.06584449997172,None,231.0717012999812,None,,,,,,,,,,,,,,,,,,,,,,,,,,,,,,,,P005,fencog,1,Pre,2021_Jul_13_1127,N-Back (New Version 2021),2021.1.4,120.58973202368163,
Conditions/Version_1Pr/zeroback(1)_v1.xlsx,Rule: Press 'space' when you see the letter 'x' or 'X'.,r,None,,,,,0,0,0,0,0,1,1,1,,,,,,,,,,,,,,,,,,,,,,,,,,,,,,,,,,,,,,,,,,,1.49,232.56929479999235,None,234.06119589996524,None,None,1,234.06119589996524,None,236.06840380001813,None,,,,,,,,,,,,,,,,,,,,,,,,,,,,,,,,P005,fencog,1,Pre,2021_Jul_13_1127,N-Back (New Version 2021),2021.1.4,120.58973202368163,
Conditions/Version_1Pr/zeroback(1)_v1.xlsx,Rule: Press 'space' when you see the letter 'x' or 'X'.,X,space,,,,,0,0,0,0,0,2,2,2,,,,,,,,,,,,,,,,,,,,,,,,,,,,,,,,,,,,,,,,,,,1.19,237.56788699998287,None,238.76287119998597,None,space,1,238.76287119998597,None,239.15215209999587,None,0.37615549995098263,,,,,,,,,,,,,,,,,,,,,,,,,,,,,,,P005,fencog,1,Pre,2021_Jul_13_1127,N-Back (New Version 2021),2021.1.4,120.58973202368163,
Conditions/Version_1Pr/zeroback(1)_v1.xlsx,Rule: Press 'space' when you see the letter 'x' or 'X'.,p,None,,,,,0,0,0,0,0,3,3,3,,,,,,,,,,,,,,,,,,,,,,,,,,,,,,,,,,,,,,,,,,,1.265,240.65841590001946,None,241.92793710000115,None,None,1,241.92793710000115,None,243.932694899966,None,,,,,,,,,,,,,,,,,,,,,,,,,,,,,,,,P005,fencog,1,Pre,2021_Jul_13_1127,N-Back (New Version 2021),2021.1.4,120.58973202368163,
Conditions/Version_1Pr/zeroback(1)_v1.xlsx,Rule: Press 'space' when you see the letter 'x' or 'X'.,w,None,,,,,0,0,0,0,0,4,4,4,,,,,,,,,,,,,,,,,,,,,,,,,,,,,,,,,,,,,,,,,,,1.09,245.43206869997084,None,246.52674439997645,None,None,1,246.52674439997645,None,248.53489690000424,None,,,,,,,,,,,,,,,,,,,,,,,,,,,,,,,,P005,fencog,1,Pre,2021_Jul_13_1127,N-Back (New Version 2021),2021.1.4,120.58973202368163,
Conditions/Version_1Pr/zeroback(1)_v1.xlsx,Rule: Press 'space' when you see the letter 'x' or 'X'.,e,None,,,,,0,0,0,0,0,5,5,5,,,,,,,,,,,,,,,,,,,,,,,,,,,,,,,,,,,,,,,,,,,1.415,250.0308909000014,None,251.45305060001556,None,None,1,251.45305060001556,None,253.45476230001077,None,,,,,,,,,,,,,,,,,,,,,,,,,,,,,,,,P005,fencog,1,Pre,2021_Jul_13_1127,N-Back (New Version 2021),2021.1.4,120.58973202368163,
Conditions/Version_1Pr/zeroback(1)_v1.xlsx,Rule: Press 'space' when you see the letter 'x' or 'X'.,X,space,,,,,0,0,0,0,0,6,6,6,,,,,,,,,,,,,,,,,,,,,,,,,,,,,,,,,,,,,,,,,,,1.14,254.95446530001936,None,256.0979248000076,None,space,1,256.0979248000076,None,256.533872,None,0.41732030001003295,,,,,,,,,,,,,,,,,,,,,,,,,,,,,,,P005,fencog,1,Pre,2021_Jul_13_1127,N-Back (New Version 2021),2021.1.4,120.58973202368163,
Conditions/Version_1Pr/zeroback(1)_v1.xlsx,Rule: Press 'space' when you see the letter 'x' or 'X'.,x,space,,,,,0,0,0,0,0,7,7,7,,,,,,,,,,,,,,,,,,,,,,,,,,,,,,,,,,,,,,,,,,,1.74,258.0372474999749,None,259.7810470999684,None,space,1,259.7810470999684,None,260.22879309998825,None,0.43796010001096874,,,,,,,,,,,,,,,,,,,,,,,,,,,,,,,P005,fencog,1,Pre,2021_Jul_13_1127,N-Back (New Version 2021),2021.1.4,120.58973202368163,
Conditions/Version_1Pr/zeroback(1)_v1.xlsx,Rule: Press 'space' when you see the letter 'x' or 'X'.,p,None,,,,,0,0,0,0,0,8,8,8,,,,,,,,,,,,,,,,,,,,,,,,,,,,,,,,,,,,,,,,,,,1.89,261.73564929998247,None,263.6291376000154,None,None,1,263.6291376000154,None,265.6347290999838,None,,,,,,,,,,,,,,,,,,,,,,,,,,,,,,,,P005,fencog,1,Pre,2021_Jul_13_1127,N-Back (New Version 2021),2021.1.4,120.58973202368163,
Conditions/Version_1Pr/zeroback(1)_v1.xlsx,Rule: Press 'space' when you see the letter 'x' or 'X'.,r,None,,,,,0,0,0,0,0,9,9,9,,,,,,,,,,,,,,,,,,,,,,,,,,,,,,,,,,,,,,,,,,,1.365,267.13410989998374,None,268.5027239000192,None,None,1,268.5027239000192,None,270.50808579998557,None,,,,,,,,,,,,,,,,,,,,,,,,,,,,,,,,P005,fencog,1,Pre,2021_Jul_13_1127,N-Back (New Version 2021),2021.1.4,120.58973202368163,
Conditions/Version_1Pr/zeroback(1)_v1.xlsx,Rule: Press 'space' when you see the letter 'x' or 'X'.,,,,,,,0,0,0,0,,,,,,,,,,,,,,,,,,,,,,,,,,,,,,,,,,,,,,,,,,,,,,,,,,,,,,,,,,,,,,,,,,,,,,,,,,,,,,,,,,,,,,,,,P005,fencog,1,Pre,2021_Jul_13_1127,N-Back (New Version 2021),2021.1.4,120.58973202368163,
Conditions/Version_1Pr/oneback(1)_v1.xlsx,New rule: Press 'space' when you see 1-back (i.e. the same letter as the one that appeared 1 letter ago.),a,None,,,,,0,1,1,1,0,0,0,0,,,,,,,,,,,,,,,,,,,,,,,,,,,,,,,,,272.0355064999894,None,275.017445400008,None,space,2.057430699991528,275.017445400008,None,272.0355064999894,None,1.115,277.09690709999995,None,278.2167760999873,None,None,1,278.2167760999873,None,280.2219811999821,None,,,,,,,,,,,,,,,,,,,,,,,,,,,,,,,,P005,fencog,1,Pre,2021_Jul_13_1127,N-Back (New Version 2021),2021.1.4,120.58973202368163,
Conditions/Version_1Pr/oneback(1)_v1.xlsx,New rule: Press 'space' when you see 1-back (i.e. the same letter as the one that appeared 1 letter ago.),x,None,,,,,0,1,1,1,0,1,1,1,,,,,,,,,,,,,,,,,,,,,,,,,,,,,,,,,,,,,,,,,,,1.64,281.7214643000043,None,283.3676875999663,None,None,1,283.3676875999663,None,285.3703605000046,None,,,,,,,,,,,,,,,,,,,,,,,,,,,,,,,,P005,fencog,1,Pre,2021_Jul_13_1127,N-Back (New Version 2021),2021.1.4,120.58973202368163,
Conditions/Version_1Pr/oneback(1)_v1.xlsx,New rule: Press 'space' when you see 1-back (i.e. the same letter as the one that appeared 1 letter ago.),g,None,,,,,0,1,1,1,0,2,2,2,,,,,,,,,,,,,,,,,,,,,,,,,,,,,,,,,,,,,,,,,,,1.615,286.87008869997226,None,288.4864396000048,None,None,1,288.4864396000048,None,290.4853925000061,None,,,,,,,,,,,,,,,,,,,,,,,,,,,,,,,,P005,fencog,1,Pre,2021_Jul_13_1127,N-Back (New Version 2021),2021.1.4,120.58973202368163,
Conditions/Version_1Pr/oneback(1)_v1.xlsx,New rule: Press 'space' when you see 1-back (i.e. the same letter as the one that appeared 1 letter ago.),G,space,,,,,0,1,1,1,0,3,3,3,,,,,,,,,,,,,,,,,,,,,,,,,,,,,,,,,,,,,,,,,,,1.09,291.9849052000209,None,293.07917679997627,None,space,1,293.07917679997627,None,293.5933175999671,None,0.4999926000018604,,,,,,,,,,,,,,,,,,,,,,,,,,,,,,,P005,fencog,1,Pre,2021_Jul_13_1127,N-Back (New Version 2021),2021.1.4,120.58973202368163,
Conditions/Version_1Pr/oneback(1)_v1.xlsx,New rule: Press 'space' when you see 1-back (i.e. the same letter as the one that appeared 1 letter ago.),u,None,,,,,0,1,1,1,0,4,4,4,,,,,,,,,,,,,,,,,,,,,,,,,,,,,,,,,,,,,,,,,,,2.015,295.10043900000164,None,297.12042769999243,None,None,1,297.12042769999243,None,299.124654299987,None,,,,,,,,,,,,,,,,,,,,,,,,,,,,,,,,P005,fencog,1,Pre,2021_Jul_13_1127,N-Back (New Version 2021),2021.1.4,120.58973202368163,
Conditions/Version_1Pr/oneback(1)_v1.xlsx,New rule: Press 'space' when you see 1-back (i.e. the same letter as the one that appeared 1 letter ago.),y,None,,,,,0,1,1,1,0,5,5,5,,,,,,,,,,,,,,,,,,,,,,,,,,,,,,,,,,,,,,,,,,,1.915,300.62433179997606,None,302.5464971999754,None,None,1,302.5464971999754,None,304.54804819996934,None,,,,,,,,,,,,,,,,,,,,,,,,,,,,,,,,P005,fencog,1,Pre,2021_Jul_13_1127,N-Back (New Version 2021),2021.1.4,120.58973202368163,
Conditions/Version_1Pr/oneback(1)_v1.xlsx,New rule: Press 'space' when you see 1-back (i.e. the same letter as the one that appeared 1 letter ago.),y,space,,,,,0,1,1,1,0,6,6,6,,,,,,,,,,,,,,,,,,,,,,,,,,,,,,,,,,,,,,,,,,,1.24,306.04773559997557,None,307.2888246999937,None,space,1,307.2888246999937,None,307.7727870999952,None,0.47404140001162887,,,,,,,,,,,,,,,,,,,,,,,,,,,,,,,P005,fencog,1,Pre,2021_Jul_13_1127,N-Back (New Version 2021),2021.1.4,120.58973202368163,
Conditions/Version_1Pr/oneback(1)_v1.xlsx,New rule: Press 'space' when you see 1-back (i.e. the same letter as the one that appeared 1 letter ago.),k,None,,,,,0,1,1,1,0,7,7,7,,,,,,,,,,,,,,,,,,,,,,,,,,,,,,,,,,,,,,,,,,,1.965,309.28105579997646,None,311.2495451999712,None,None,1,311.2495451999712,None,313.25387299997965,None,,,,,,,,,,,,,,,,,,,,,,,,,,,,,,,,P005,fencog,1,Pre,2021_Jul_13_1127,N-Back (New Version 2021),2021.1.4,120.58973202368163,
Conditions/Version_1Pr/oneback(1)_v1.xlsx,New rule: Press 'space' when you see 1-back (i.e. the same letter as the one that appeared 1 letter ago.),c,None,,,,,0,1,1,1,0,8,8,8,,,,,,,,,,,,,,,,,,,,,,,,,,,,,,,,,,,,,,,,,,,1.165,314.7533975999686,None,315.923501399986,None,None,1,315.923501399986,None,317.9275013000006,None,,,,,,,,,,,,,,,,,,,,,,,,,,,,,,,,P005,fencog,1,Pre,2021_Jul_13_1127,N-Back (New Version 2021),2021.1.4,120.58973202368163,
Conditions/Version_1Pr/oneback(1)_v1.xlsx,New rule: Press 'space' when you see 1-back (i.e. the same letter as the one that appeared 1 letter ago.),r,None,,,,,0,1,1,1,0,9,9,9,,,,,,,,,,,,,,,,,,,,,,,,,,,,,,,,,,,,,,,,,,,1.94,319.42670319997706,None,321.36888510000426,None,None,1,321.36888510000426,None,323.37589379999554,None,,,,,,,,,,,,,,,,,,,,,,,,,,,,,,,,P005,fencog,1,Pre,2021_Jul_13_1127,N-Back (New Version 2021),2021.1.4,120.58973202368163,
Conditions/Version_1Pr/oneback(1)_v1.xlsx,New rule: Press 'space' when you see 1-back (i.e. the same letter as the one that appeared 1 letter ago.),,,,,,,0,1,1,1,,,,,,,,,,,,,,,,,,,,,,,,,,,,,,,,,,,,,,,,,,,,,,,,,,,,,,,,,,,,,,,,,,,,,,,,,,,,,,,,,,,,,,,,,P005,fencog,1,Pre,2021_Jul_13_1127,N-Back (New Version 2021),2021.1.4,120.58973202368163,
Conditions/Version_1Pr/twoback(1)_v1.xlsx,New rule: Press 'space' when you see 2-back (i.e. the same letter as the one that appeared 2 letters ago.),E,None,,,,,0,2,2,2,0,0,0,0,,,,,,,,,,,,,,,,,,,,,,,,,,,,,,,,,324.9010322999675,None,327.88529379997635,None,space,0.6533353999839164,327.88529379997635,None,324.9010322999675,None,1.265,328.56093899998814,None,329.8342396999942,None,None,1,329.8342396999942,None,331.8399759000167,None,,,,,,,,,,,,,,,,,,,,,,,,,,,,,,,,P005,fencog,1,Pre,2021_Jul_13_1127,N-Back (New Version 2021),2021.1.4,120.58973202368163,
Conditions/Version_1Pr/twoback(1)_v1.xlsx,New rule: Press 'space' when you see 2-back (i.e. the same letter as the one that appeared 2 letters ago.),p,None,,,,,0,2,2,2,0,1,1,1,,,,,,,,,,,,,,,,,,,,,,,,,,,,,,,,,,,,,,,,,,,1.215,333.340048699989,None,334.55910199997015,None,None,1,334.55910199997015,None,336.55997750000097,None,,,,,,,,,,,,,,,,,,,,,,,,,,,,,,,,P005,fencog,1,Pre,2021_Jul_13_1127,N-Back (New Version 2021),2021.1.4,120.58973202368163,
Conditions/Version_1Pr/twoback(1)_v1.xlsx,New rule: Press 'space' when you see 2-back (i.e. the same letter as the one that appeared 2 letters ago.),e,space,,,,,0,2,2,2,0,2,2,2,,,,,,,,,,,,,,,,,,,,,,,,,,,,,,,,,,,,,,,,,,,1.19,338.0631239999784,None,339.2566020999802,None,space,1,339.2566020999802,None,339.6636262999964,None,0.3938843999640085,,,,,,,,,,,,,,,,,,,,,,,,,,,,,,,P005,fencog,1,Pre,2021_Jul_13_1127,N-Back (New Version 2021),2021.1.4,120.58973202368163,
Conditions/Version_1Pr/twoback(1)_v1.xlsx,New rule: Press 'space' when you see 2-back (i.e. the same letter as the one that appeared 2 letters ago.),s,None,,,,,0,2,2,2,0,3,3,3,,,,,,,,,,,,,,,,,,,,,,,,,,,,,,,,,,,,,,,,,,,1.865,341.1705337999738,None,343.03832679998595,None,None,1,343.03832679998595,None,345.04452689999016,None,,,,,,,,,,,,,,,,,,,,,,,,,,,,,,,,P005,fencog,1,Pre,2021_Jul_13_1127,N-Back (New Version 2021),2021.1.4,120.58973202368163,
Conditions/Version_1Pr/twoback(1)_v1.xlsx,New rule: Press 'space' when you see 2-back (i.e. the same letter as the one that appeared 2 letters ago.),S,None,,,,,0,2,2,2,0,4,4,4,,,,,,,,,,,,,,,,,,,,,,,,,,,,,,,,,,,,,,,,,,,1.64,346.5440136999823,None,348.1928263999871,None,None,1,348.1928263999871,None,350.1927419999847,None,,,,,,,,,,,,,,,,,,,,,,,,,,,,,,,,P005,fencog,1,Pre,2021_Jul_13_1127,N-Back (New Version 2021),2021.1.4,120.58973202368163,
Conditions/Version_1Pr/twoback(1)_v1.xlsx,New rule: Press 'space' when you see 2-back (i.e. the same letter as the one that appeared 2 letters ago.),s,space,,,,,0,2,2,2,0,5,5,5,,,,,,,,,,,,,,,,,,,,,,,,,,,,,,,,,,,,,,,,,,,1.54,351.692354800005,None,353.23481890000403,None,space,1,353.23481890000403,None,353.7432456999668,None,0.4959048999589868,,,,,,,,,,,,,,,,,,,,,,,,,,,,,,,P005,fencog,1,Pre,2021_Jul_13_1127,N-Back (New Version 2021),2021.1.4,120.58973202368163,
Conditions/Version_1Pr/twoback(1)_v1.xlsx,New rule: Press 'space' when you see 2-back (i.e. the same letter as the one that appeared 2 letters ago.),P,None,,,,,0,2,2,2,0,6,6,6,,,,,,,,,,,,,,,,,,,,,,,,,,,,,,,,,,,,,,,,,,,1.34,355.24974940001266,None,356.5917193000205,None,None,1,356.5917193000205,None,358.5956127999816,None,,,,,,,,,,,,,,,,,,,,,,,,,,,,,,,,P005,fencog,1,Pre,2021_Jul_13_1127,N-Back (New Version 2021),2021.1.4,120.58973202368163,
Conditions/Version_1Pr/twoback(1)_v1.xlsx,New rule: Press 'space' when you see 2-back (i.e. the same letter as the one that appeared 2 letters ago.),C,None,,,,,0,2,2,2,0,7,7,7,,,,,,,,,,,,,,,,,,,,,,,,,,,,,,,,,,,,,,,,,,,1.115,360.0983508999925,None,361.2168703000061,None,None,1,361.2168703000061,None,363.2224734000047,None,,,,,,,,,,,,,,,,,,,,,,,,,,,,,,,,P005,fencog,1,Pre,2021_Jul_13_1127,N-Back (New Version 2021),2021.1.4,120.58973202368163,
Conditions/Version_1Pr/twoback(1)_v1.xlsx,New rule: Press 'space' when you see 2-back (i.e. the same letter as the one that appeared 2 letters ago.),x,None,,,,,0,2,2,2,0,8,8,8,,,,,,,,,,,,,,,,,,,,,,,,,,,,,,,,,,,,,,,,,,,2.015,364.72194849996595,None,366.73902470001485,None,None,1,366.73902470001485,None,368.7456786999828,None,,,,,,,,,,,,,,,,,,,,,,,,,,,,,,,,P005,fencog,1,Pre,2021_Jul_13_1127,N-Back (New Version 2021),2021.1.4,120.58973202368163,
Conditions/Version_1Pr/twoback(1)_v1.xlsx,New rule: Press 'space' when you see 2-back (i.e. the same letter as the one that appeared 2 letters ago.),Z,None,,,,,0,2,2,2,0,9,9,9,,,,,,,,,,,,,,,,,,,,,,,,,,,,,,,,,,,,,,,,,,,1.44,370.24524059996475,None,371.6873641000129,None,None,1,371.6873641000129,None,373.6943680999684,None,,,,,,,,,,,,,,,,,,,,,,,,,,,,,,,,P005,fencog,1,Pre,2021_Jul_13_1127,N-Back (New Version 2021),2021.1.4,120.58973202368163,
Conditions/Version_1Pr/twoback(1)_v1.xlsx,New rule: Press 'space' when you see 2-back (i.e. the same letter as the one that appeared 2 letters ago.),,,,,,,0,2,2,2,,,,,,,,,,,,,,,,,,,,,,,,,,,,,,,,,,,,,,,,,,,,,,,,,,,,,,,,,,,,,,,,,,,,,,,,,,,,,,,,,,,,,,,,,P005,fencog,1,Pre,2021_Jul_13_1127,N-Back (New Version 2021),2021.1.4,120.58973202368163,
Conditions/Version_1Pr/threeback(1)_v1.xlsx,New rule: Press 'space' when you see 3-back (i.e. the same letter as the one that appeared 3 letters ago.),r,None,,,,,0,3,3,3,0,0,0,0,,,,,,,,,,,,,,,,,,,,,,,,,,,,,,,,,375.2161379000172,None,378.2033450999879,None,space,0.9435843999963254,378.2033450999879,None,375.2161379000172,None,2.015,379.1705975999939,None,381.19762069999706,None,None,1,381.19762069999706,None,383.1973421999719,None,,,,,,,,,,,,,,,,,,,,,,,,,,,,,,,,P005,fencog,1,Pre,2021_Jul_13_1127,N-Back (New Version 2021),2021.1.4,120.58973202368163,
Conditions/Version_1Pr/threeback(1)_v1.xlsx,New rule: Press 'space' when you see 3-back (i.e. the same letter as the one that appeared 3 letters ago.),a,None,,,,,0,3,3,3,0,1,1,1,,,,,,,,,,,,,,,,,,,,,,,,,,,,,,,,,,,,,,,,,,,1.24,384.6993510000175,None,385.9425438999897,None,None,1,385.9425438999897,None,387.94897650001803,None,,,,,,,,,,,,,,,,,,,,,,,,,,,,,,,,P005,fencog,1,Pre,2021_Jul_13_1127,N-Back (New Version 2021),2021.1.4,120.58973202368163,
Conditions/Version_1Pr/threeback(1)_v1.xlsx,New rule: Press 'space' when you see 3-back (i.e. the same letter as the one that appeared 3 letters ago.),t,None,,,,,0,3,3,3,0,2,2,2,,,,,,,,,,,,,,,,,,,,,,,,,,,,,,,,,,,,,,,,,,,1.04,389.44790119997924,None,390.49217179999687,None,None,1,390.49217179999687,None,392.489911200013,None,,,,,,,,,,,,,,,,,,,,,,,,,,,,,,,,P005,fencog,1,Pre,2021_Jul_13_1127,N-Back (New Version 2021),2021.1.4,120.58973202368163,
Conditions/Version_1Pr/threeback(1)_v1.xlsx,New rule: Press 'space' when you see 3-back (i.e. the same letter as the one that appeared 3 letters ago.),r,space,,,,,0,3,3,3,0,3,3,3,,,,,,,,,,,,,,,,,,,,,,,,,,,,,,,,,,,,,,,,,,,1.815,393.9966243999661,None,395.8126099000219,None,space,1,395.8126099000219,None,396.48047150002094,None,0.6542863000067882,,,,,,,,,,,,,,,,,,,,,,,,,,,,,,,P005,fencog,1,Pre,2021_Jul_13_1127,N-Back (New Version 2021),2021.1.4,120.58973202368163,
Conditions/Version_1Pr/threeback(1)_v1.xlsx,New rule: Press 'space' when you see 3-back (i.e. the same letter as the one that appeared 3 letters ago.),a,None,,,,,0,3,3,3,0,4,4,4,,,,,,,,,,,,,,,,,,,,,,,,,,,,,,,,,,,,,,,,,,,1.54,397.9869410999818,None,399.5300585000077,None,space,0,399.5300585000077,None,400.09934070002055,None,0.5528339999727905,,,,,,,,,,,,,,,,,,,,,,,,,,,,,,,P005,fencog,1,Pre,2021_Jul_13_1127,N-Back (New Version 2021),2021.1.4,120.58973202368163,
Conditions/Version_1Pr/threeback(1)_v1.xlsx,New rule: Press 'space' when you see 3-back (i.e. the same letter as the one that appeared 3 letters ago.),Y,None,,,,,0,3,3,3,0,5,5,5,,,,,,,,,,,,,,,,,,,,,,,,,,,,,,,,,,,,,,,,,,,1.915,401.6026297999779,None,403.5206242999993,None,None,1,403.5206242999993,None,405.527607099968,None,,,,,,,,,,,,,,,,,,,,,,,,,,,,,,,,P005,fencog,1,Pre,2021_Jul_13_1127,N-Back (New Version 2021),2021.1.4,120.58973202368163,
Conditions/Version_1Pr/threeback(1)_v1.xlsx,New rule: Press 'space' when you see 3-back (i.e. the same letter as the one that appeared 3 letters ago.),q,None,,,,,0,3,3,3,0,6,6,6,,,,,,,,,,,,,,,,,,,,,,,,,,,,,,,,,,,,,,,,,,,1.415,407.02601709996816,None,408.445550000004,None,None,1,408.445550000004,None,410.450104699994,None,,,,,,,,,,,,,,,,,,,,,,,,,,,,,,,,P005,fencog,1,Pre,2021_Jul_13_1127,N-Back (New Version 2021),2021.1.4,120.58973202368163,
Conditions/Version_1Pr/threeback(1)_v1.xlsx,New rule: Press 'space' when you see 3-back (i.e. the same letter as the one that appeared 3 letters ago.),A,space,,,,,0,3,3,3,0,7,7,7,,,,,,,,,,,,,,,,,,,,,,,,,,,,,,,,,,,,,,,,,,,1.19,411.9495068999822,None,413.1448932000203,None,None,0,413.1448932000203,None,415.15187170001445,None,,,,,,,,,,,,,,,,,,,,,,,,,,,,,,,,P005,fencog,1,Pre,2021_Jul_13_1127,N-Back (New Version 2021),2021.1.4,120.58973202368163,
Conditions/Version_1Pr/threeback(1)_v1.xlsx,New rule: Press 'space' when you see 3-back (i.e. the same letter as the one that appeared 3 letters ago.),y,None,,,,,0,3,3,3,0,8,8,8,,,,,,,,,,,,,,,,,,,,,,,,,,,,,,,,,,,,,,,,,,,1.09,416.6482704000082,None,417.7415779000148,None,None,1,417.7415779000148,None,419.7483892000164,None,,,,,,,,,,,,,,,,,,,,,,,,,,,,,,,,P005,fencog,1,Pre,2021_Jul_13_1127,N-Back (New Version 2021),2021.1.4,120.58973202368163,
Conditions/Version_1Pr/threeback(1)_v1.xlsx,New rule: Press 'space' when you see 3-back (i.e. the same letter as the one that appeared 3 letters ago.),r,None,,,,,0,3,3,3,0,9,9,9,,,,,,,,,,,,,,,,,,,,,,,,,,,,,,,,,,,,,,,,,,,1.765,421.2467185999849,None,423.0130726000061,None,space,0,423.0130726000061,None,424.5172545000096,None,1.4778018000070006,,,,,,,,,,,,,,,,,,,,,,,,,,,,,,,P005,fencog,1,Pre,2021_Jul_13_1127,N-Back (New Version 2021),2021.1.4,120.58973202368163,
Conditions/Version_1Pr/threeback(1)_v1.xlsx,New rule: Press 'space' when you see 3-back (i.e. the same letter as the one that appeared 3 letters ago.),,,,,,,0,3,3,3,,,,,,,,,,,,,,,,,,,,,,,,,,,,,,,,,,,,,,,,,,,,,,,,,,,,,,,,,,,,,,,,,,,,,,,,,,,,,,,,,,,,,,,,,P005,fencog,1,Pre,2021_Jul_13_1127,N-Back (New Version 2021),2021.1.4,120.58973202368163,
,,,,,,,,,,,,,,,,,,,,,,,,,,,,,,,,,,,,,,,,,,,,,,,,,,,,,,,,,,,,,,,,,,,,,,426.0312585000065,None,space,9.593423199956305,426.52894250000827,None,,,,,,,,,,,,,,,,,,,,,,,,,P005,fencog,1,Pre,2021_Jul_13_1127,N-Back (New Version 2021),2021.1.4,120.58973202368163,
,,,,,,,,,,,,,,,,,,,,,,,,,,,,,,,,,,,,,,,,,,,,,,,,,,,,,,,,,,,,,,,,,,,,,,,,,,,,436.1483695000061,None,space,2.8798665999784134,436.64287089998834,None,,,,,,,,,,,,,,,,,,,P005,fencog,1,Pre,2021_Jul_13_1127,N-Back (New Version 2021),2021.1.4,120.58973202368163,
,,,,Conditions/Version_1/zeroback(1)_v1.xlsx,Rule: Press 'space' when you see the letter 'x' or 'X'.,b,None,,,,,,,,,0,0,0,0,0,0,0,0,,,,,,,,,,,,,,,,,,,,,,,,,,,,,,,,,,,,,,,,,,,,,,,,,,,,,,,,,,,439.6267861999804,None,442.6176010000054,None,space,0.6331265000044368,442.6176010000054,None,439.6267861999804,None,1.8284,445.11754229996586,None,None,1,445.11754229996586,None,,P005,fencog,1,Pre,2021_Jul_13_1127,N-Back (New Version 2021),2021.1.4,120.58973202368163,
,,,,Conditions/Version_1/zeroback(1)_v1.xlsx,Rule: Press 'space' when you see the letter 'x' or 'X'.,T,None,,,,,,,,,0,0,0,0,0,1,1,1,,,,,,,,,,,,,,,,,,,,,,,,,,,,,,,,,,,,,,,,,,,,,,,,,,,,,,,,,,,,,,,,,,,,,1.4998,448.63299740001094,None,None,1,448.63299740001094,None,,P005,fencog,1,Pre,2021_Jul_13_1127,N-Back (New Version 2021),2021.1.4,120.58973202368163,
,,,,Conditions/Version_1/zeroback(1)_v1.xlsx,Rule: Press 'space' when you see the letter 'x' or 'X'.,L,None,,,,,,,,,0,0,0,0,0,2,2,2,,,,,,,,,,,,,,,,,,,,,,,,,,,,,,,,,,,,,,,,,,,,,,,,,,,,,,,,,,,,,,,,,,,,,1.7292,452.37180199997965,None,None,1,452.37180199997965,None,,P005,fencog,1,Pre,2021_Jul_13_1127,N-Back (New Version 2021),2021.1.4,120.58973202368163,
,,,,Conditions/Version_1/zeroback(1)_v1.xlsx,Rule: Press 'space' when you see the letter 'x' or 'X'.,x,space,,,,,,,,,0,0,0,0,0,3,3,3,,,,,,,,,,,,,,,,,,,,,,,,,,,,,,,,,,,,,,,,,,,,,,,,,,,,,,,,,,,,,,,,,,,,,1.2642,455.6467678999761,None,space,1,455.6467678999761,None,0.5802131000091322,P005,fencog,1,Pre,2021_Jul_13_1127,N-Back (New Version 2021),2021.1.4,120.58973202368163,
,,,,Conditions/Version_1/zeroback(1)_v1.xlsx,Rule: Press 'space' when you see the letter 'x' or 'X'.,o,None,,,,,,,,,0,0,0,0,0,4,4,4,,,,,,,,,,,,,,,,,,,,,,,,,,,,,,,,,,,,,,,,,,,,,,,,,,,,,,,,,,,,,,,,,,,,,1.6052,459.2623852000106,None,None,1,459.2623852000106,None,,P005,fencog,1,Pre,2021_Jul_13_1127,N-Back (New Version 2021),2021.1.4,120.58973202368163,
,,,,Conditions/Version_1/zeroback(1)_v1.xlsx,Rule: Press 'space' when you see the letter 'x' or 'X'.,P,None,,,,,,,,,0,0,0,0,0,5,5,5,,,,,,,,,,,,,,,,,,,,,,,,,,,,,,,,,,,,,,,,,,,,,,,,,,,,,,,,,,,,,,,,,,,,,1.0658,462.335710400017,None,None,1,462.335710400017,None,,P005,fencog,1,Pre,2021_Jul_13_1127,N-Back (New Version 2021),2021.1.4,120.58973202368163,
,,,,Conditions/Version_1/zeroback(1)_v1.xlsx,Rule: Press 'space' when you see the letter 'x' or 'X'.,X,space,,,,,,,,,0,0,0,0,0,6,6,6,,,,,,,,,,,,,,,,,,,,,,,,,,,,,,,,,,,,,,,,,,,,,,,,,,,,,,,,,,,,,,,,,,,,,1.661,466.0103728999966,None,space,1,466.0103728999966,None,0.33647259999997914,P005,fencog,1,Pre,2021_Jul_13_1127,N-Back (New Version 2021),2021.1.4,120.58973202368163,
,,,,Conditions/Version_1/zeroback(1)_v1.xlsx,Rule: Press 'space' when you see the letter 'x' or 'X'.,n,None,,,,,,,,,0,0,0,0,0,7,7,7,,,,,,,,,,,,,,,,,,,,,,,,,,,,,,,,,,,,,,,,,,,,,,,,,,,,,,,,,,,,,,,,,,,,,1.3324,469.3511298999656,None,None,1,469.3511298999656,None,,P005,fencog,1,Pre,2021_Jul_13_1127,N-Back (New Version 2021),2021.1.4,120.58973202368163,
,,,,Conditions/Version_1/zeroback(1)_v1.xlsx,Rule: Press 'space' when you see the letter 'x' or 'X'.,M,None,,,,,,,,,0,0,0,0,0,8,8,8,,,,,,,,,,,,,,,,,,,,,,,,,,,,,,,,,,,,,,,,,,,,,,,,,,,,,,,,,,,,,,,,,,,,,1.8904,473.24988660000963,None,None,1,473.24988660000963,None,,P005,fencog,1,Pre,2021_Jul_13_1127,N-Back (New Version 2021),2021.1.4,120.58973202368163,
,,,,Conditions/Version_1/zeroback(1)_v1.xlsx,Rule: Press 'space' when you see the letter 'x' or 'X'.,a,None,,,,,,,,,0,0,0,0,0,9,9,9,,,,,,,,,,,,,,,,,,,,,,,,,,,,,,,,,,,,,,,,,,,,,,,,,,,,,,,,,,,,,,,,,,,,,1.196,476.45749729999807,None,None,1,476.45749729999807,None,,P005,fencog,1,Pre,2021_Jul_13_1127,N-Back (New Version 2021),2021.1.4,120.58973202368163,
,,,,Conditions/Version_1/zeroback(1)_v1.xlsx,Rule: Press 'space' when you see the letter 'x' or 'X'.,,,,,,,,,,,0,0,0,0,,,,,,,,,,,,,,,,,,,,,,,,,,,,,,,,,,,,,,,,,,,,,,,,,,,,,,,,,,,,,,,,,,,,,,,,,,,,,,,,,P005,fencog,1,Pre,2021_Jul_13_1127,N-Back (New Version 2021),2021.1.4,120.58973202368163,
,,,,Conditions/Version_1/oneback(1)_v1.xlsx,New rule: Press 'space' when you see 1-back (i.e. the same letter as the one that appeared 1 letter ago.),b,None,,,,,,,,,0,1,1,1,0,0,0,0,,,,,,,,,,,,,,,,,,,,,,,,,,,,,,,,,,,,,,,,,,,,,,,,,,,,,,,,,,,478.4866967999842,None,481.47244400001364,None,space,1.2582299999776296,481.47244400001364,None,478.4866967999842,None,1.1526,483.90322480001487,None,None,1,483.90322480001487,None,,P005,fencog,1,Pre,2021_Jul_13_1127,N-Back (New Version 2021),2021.1.4,120.58973202368163,
,,,,Conditions/Version_1/oneback(1)_v1.xlsx,New rule: Press 'space' when you see 1-back (i.e. the same letter as the one that appeared 1 letter ago.),p,None,,,,,,,,,0,1,1,1,0,1,1,1,,,,,,,,,,,,,,,,,,,,,,,,,,,,,,,,,,,,,,,,,,,,,,,,,,,,,,,,,,,,,,,,,,,,,1.4936,487.4039517000201,None,None,1,487.4039517000201,None,,P005,fencog,1,Pre,2021_Jul_13_1127,N-Back (New Version 2021),2021.1.4,120.58973202368163,
,,,,Conditions/Version_1/oneback(1)_v1.xlsx,New rule: Press 'space' when you see 1-back (i.e. the same letter as the one that appeared 1 letter ago.),M,None,,,,,,,,,0,1,1,1,0,2,2,2,,,,,,,,,,,,,,,,,,,,,,,,,,,,,,,,,,,,,,,,,,,,,,,,,,,,,,,,,,,,,,,,,,,,,1.6982,491.10938699997496,None,None,1,491.10938699997496,None,,P005,fencog,1,Pre,2021_Jul_13_1127,N-Back (New Version 2021),2021.1.4,120.58973202368163,
,,,,Conditions/Version_1/oneback(1)_v1.xlsx,New rule: Press 'space' when you see 1-back (i.e. the same letter as the one that appeared 1 letter ago.),M,space,,,,,,,,,0,1,1,1,0,3,3,3,,,,,,,,,,,,,,,,,,,,,,,,,,,,,,,,,,,,,,,,,,,,,,,,,,,,,,,,,,,,,,,,,,,,,1.196,494.30985670001246,None,space,1,494.30985670001246,None,0.6687074999790639,P005,fencog,1,Pre,2021_Jul_13_1127,N-Back (New Version 2021),2021.1.4,120.58973202368163,
,,,,Conditions/Version_1/oneback(1)_v1.xlsx,New rule: Press 'space' when you see 1-back (i.e. the same letter as the one that appeared 1 letter ago.),n,None,,,,,,,,,0,1,1,1,0,4,4,4,,,,,,,,,,,,,,,,,,,,,,,,,,,,,,,,,,,,,,,,,,,,,,,,,,,,,,,,,,,,,,,,,,,,,1.5246,497.84297270001844,None,None,1,497.84297270001844,None,,P005,fencog,1,Pre,2021_Jul_13_1127,N-Back (New Version 2021),2021.1.4,120.58973202368163,
,,,,Conditions/Version_1/oneback(1)_v1.xlsx,New rule: Press 'space' when you see 1-back (i.e. the same letter as the one that appeared 1 letter ago.),g,None,,,,,,,,,0,1,1,1,0,5,5,5,,,,,,,,,,,,,,,,,,,,,,,,,,,,,,,,,,,,,,,,,,,,,,,,,,,,,,,,,,,,,,,,,,,,,1.1402,500.9920747000142,None,None,1,500.9920747000142,None,,P005,fencog,1,Pre,2021_Jul_13_1127,N-Back (New Version 2021),2021.1.4,120.58973202368163,
,,,,Conditions/Version_1/oneback(1)_v1.xlsx,New rule: Press 'space' when you see 1-back (i.e. the same letter as the one that appeared 1 letter ago.),P,None,,,,,,,,,0,1,1,1,0,6,6,6,,,,,,,,,,,,,,,,,,,,,,,,,,,,,,,,,,,,,,,,,,,,,,,,,,,,,,,,,,,,,,,,,,,,,1.2456,504.2486305999919,None,None,1,504.2486305999919,None,,P005,fencog,1,Pre,2021_Jul_13_1127,N-Back (New Version 2021),2021.1.4,120.58973202368163,
,,,,Conditions/Version_1/oneback(1)_v1.xlsx,New rule: Press 'space' when you see 1-back (i.e. the same letter as the one that appeared 1 letter ago.),o,None,,,,,,,,,0,1,1,1,0,7,7,7,,,,,,,,,,,,,,,,,,,,,,,,,,,,,,,,,,,,,,,,,,,,,,,,,,,,,,,,,,,,,,,,,,,,,1.2704,507.5339230999816,None,None,1,507.5339230999816,None,,P005,fencog,1,Pre,2021_Jul_13_1127,N-Back (New Version 2021),2021.1.4,120.58973202368163,
,,,,Conditions/Version_1/oneback(1)_v1.xlsx,New rule: Press 'space' when you see 1-back (i.e. the same letter as the one that appeared 1 letter ago.),f,None,,,,,,,,,0,1,1,1,0,8,8,8,,,,,,,,,,,,,,,,,,,,,,,,,,,,,,,,,,,,,,,,,,,,,,,,,,,,,,,,,,,,,,,,,,,,,1.3138,510.85594420001144,None,None,1,510.85594420001144,None,,P005,fencog,1,Pre,2021_Jul_13_1127,N-Back (New Version 2021),2021.1.4,120.58973202368163,
,,,,Conditions/Version_1/oneback(1)_v1.xlsx,New rule: Press 'space' when you see 1-back (i.e. the same letter as the one that appeared 1 letter ago.),F,space,,,,,,,,,0,1,1,1,0,9,9,9,,,,,,,,,,,,,,,,,,,,,,,,,,,,,,,,,,,,,,,,,,,,,,,,,,,,,,,,,,,,,,,,,,,,,1.351,514.2220820999937,None,space,1,514.2220820999937,None,0.5813113999902271,P005,fencog,1,Pre,2021_Jul_13_1127,N-Back (New Version 2021),2021.1.4,120.58973202368163,
,,,,Conditions/Version_1/oneback(1)_v1.xlsx,New rule: Press 'space' when you see 1-back (i.e. the same letter as the one that appeared 1 letter ago.),,,,,,,,,,,0,1,1,1,,,,,,,,,,,,,,,,,,,,,,,,,,,,,,,,,,,,,,,,,,,,,,,,,,,,,,,,,,,,,,,,,,,,,,,,,,,,,,,,,P005,fencog,1,Pre,2021_Jul_13_1127,N-Back (New Version 2021),2021.1.4,120.58973202368163,
,,,,Conditions/Version_1/twoback(1)_v1.xlsx,New rule: Press 'space' when you see 2-back (i.e. the same letter as the one that appeared 2 letters ago.),b,None,,,,,,,,,0,2,2,2,0,0,0,0,,,,,,,,,,,,,,,,,,,,,,,,,,,,,,,,,,,,,,,,,,,,,,,,,,,,,,,,,,,516.2490155000123,None,519.2367803999805,None,space,3.5978690999909304,519.2367803999805,None,516.2490155000123,None,1.0658,523.9260821000207,None,None,1,523.9260821000207,None,,P005,fencog,1,Pre,2021_Jul_13_1127,N-Back (New Version 2021),2021.1.4,120.58973202368163,
,,,,Conditions/Version_1/twoback(1)_v1.xlsx,New rule: Press 'space' when you see 2-back (i.e. the same letter as the one that appeared 2 letters ago.),h,None,,,,,,,,,0,2,2,2,0,1,1,1,,,,,,,,,,,,,,,,,,,,,,,,,,,,,,,,,,,,,,,,,,,,,,,,,,,,,,,,,,,,,,,,,,,,,1.8904,527.8315933999838,None,None,1,527.8315933999838,None,,P005,fencog,1,Pre,2021_Jul_13_1127,N-Back (New Version 2021),2021.1.4,120.58973202368163,
,,,,Conditions/Version_1/twoback(1)_v1.xlsx,New rule: Press 'space' when you see 2-back (i.e. the same letter as the one that appeared 2 letters ago.),j,None,,,,,,,,,0,2,2,2,0,2,2,2,,,,,,,,,,,,,,,,,,,,,,,,,,,,,,,,,,,,,,,,,,,,,,,,,,,,,,,,,,,,,,,,,,,,,1.568,531.4076231999788,None,None,1,531.4076231999788,None,,P005,fencog,1,Pre,2021_Jul_13_1127,N-Back (New Version 2021),2021.1.4,120.58973202368163,
,,,,Conditions/Version_1/twoback(1)_v1.xlsx,New rule: Press 'space' when you see 2-back (i.e. the same letter as the one that appeared 2 letters ago.),H,space,,,,,,,,,0,2,2,2,0,3,3,3,,,,,,,,,,,,,,,,,,,,,,,,,,,,,,,,,,,,,,,,,,,,,,,,,,,,,,,,,,,,,,,,,,,,,1.196,534.6148959000129,None,space,1,534.6148959000129,None,0.9001806000014767,P005,fencog,1,Pre,2021_Jul_13_1127,N-Back (New Version 2021),2021.1.4,120.58973202368163,
,,,,Conditions/Version_1/twoback(1)_v1.xlsx,New rule: Press 'space' when you see 2-back (i.e. the same letter as the one that appeared 2 letters ago.),p,None,,,,,,,,,0,2,2,2,0,4,4,4,,,,,,,,,,,,,,,,,,,,,,,,,,,,,,,,,,,,,,,,,,,,,,,,,,,,,,,,,,,,,,,,,,,,,1.9338,538.5550545000006,None,None,1,538.5550545000006,None,,P005,fencog,1,Pre,2021_Jul_13_1127,N-Back (New Version 2021),2021.1.4,120.58973202368163,
,,,,Conditions/Version_1/twoback(1)_v1.xlsx,New rule: Press 'space' when you see 2-back (i.e. the same letter as the one that appeared 2 letters ago.),p,None,,,,,,,,,0,2,2,2,0,5,5,5,,,,,,,,,,,,,,,,,,,,,,,,,,,,,,,,,,,,,,,,,,,,,,,,,,,,,,,,,,,,,,,,,,,,,1.1278,541.6952596000046,None,None,1,541.6952596000046,None,,P005,fencog,1,Pre,2021_Jul_13_1127,N-Back (New Version 2021),2021.1.4,120.58973202368163,
,,,,Conditions/Version_1/twoback(1)_v1.xlsx,New rule: Press 'space' when you see 2-back (i.e. the same letter as the one that appeared 2 letters ago.),w,None,,,,,,,,,0,2,2,2,0,6,6,6,,,,,,,,,,,,,,,,,,,,,,,,,,,,,,,,,,,,,,,,,,,,,,,,,,,,,,,,,,,,,,,,,,,,,1.258,544.9601372000179,None,None,1,544.9601372000179,None,,P005,fencog,1,Pre,2021_Jul_13_1127,N-Back (New Version 2021),2021.1.4,120.58973202368163,
,,,,Conditions/Version_1/twoback(1)_v1.xlsx,New rule: Press 'space' when you see 2-back (i.e. the same letter as the one that appeared 2 letters ago.),R,None,,,,,,,,,0,2,2,2,0,7,7,7,,,,,,,,,,,,,,,,,,,,,,,,,,,,,,,,,,,,,,,,,,,,,,,,,,,,,,,,,,,,,,,,,,,,,1.8408,548.8061874000123,None,None,1,548.8061874000123,None,,P005,fencog,1,Pre,2021_Jul_13_1127,N-Back (New Version 2021),2021.1.4,120.58973202368163,
,,,,Conditions/Version_1/twoback(1)_v1.xlsx,New rule: Press 'space' when you see 2-back (i.e. the same letter as the one that appeared 2 letters ago.),a,None,,,,,,,,,0,2,2,2,0,8,8,8,,,,,,,,,,,,,,,,,,,,,,,,,,,,,,,,,,,,,,,,,,,,,,,,,,,,,,,,,,,,,,,,,,,,,1.7168,552.5245640000212,None,None,1,552.5245640000212,None,,P005,fencog,1,Pre,2021_Jul_13_1127,N-Back (New Version 2021),2021.1.4,120.58973202368163,
,,,,Conditions/Version_1/twoback(1)_v1.xlsx,New rule: Press 'space' when you see 2-back (i.e. the same letter as the one that appeared 2 letters ago.),r,space,,,,,,,,,0,2,2,2,0,9,9,9,,,,,,,,,,,,,,,,,,,,,,,,,,,,,,,,,,,,,,,,,,,,,,,,,,,,,,,,,,,,,,,,,,,,,1.599,556.1254981000093,None,None,0,556.1254981000093,None,,P005,fencog,1,Pre,2021_Jul_13_1127,N-Back (New Version 2021),2021.1.4,120.58973202368163,
,,,,Conditions/Version_1/twoback(1)_v1.xlsx,New rule: Press 'space' when you see 2-back (i.e. the same letter as the one that appeared 2 letters ago.),,,,,,,,,,,0,2,2,2,,,,,,,,,,,,,,,,,,,,,,,,,,,,,,,,,,,,,,,,,,,,,,,,,,,,,,,,,,,,,,,,,,,,,,,,,,,,,,,,,P005,fencog,1,Pre,2021_Jul_13_1127,N-Back (New Version 2021),2021.1.4,120.58973202368163,
,,,,Conditions/Version_1/threeback(1)_v1.xlsx,New rule: Press 'space' when you see 3-back (i.e. the same letter as the one that appeared 3 letters ago.),r,None,,,,,,,,,0,3,3,3,0,0,0,0,,,,,,,,,,,,,,,,,,,,,,,,,,,,,,,,,,,,,,,,,,,,,,,,,,,,,,,,,,,558.1531407000148,None,561.1415847999742,None,space,7.060972899955232,561.1415847999742,None,558.1531407000148,None,1.0224,569.2446667000186,None,None,1,569.2446667000186,None,,P005,fencog,1,Pre,2021_Jul_13_1127,N-Back (New Version 2021),2021.1.4,120.58973202368163,
,,,,Conditions/Version_1/threeback(1)_v1.xlsx,New rule: Press 'space' when you see 3-back (i.e. the same letter as the one that appeared 3 letters ago.),o,None,,,,,,,,,0,3,3,3,0,1,1,1,,,,,,,,,,,,,,,,,,,,,,,,,,,,,,,,,,,,,,,,,,,,,,,,,,,,,,,,,,,,,,,,,,,,,1.3634,572.6110289000208,None,None,1,572.6110289000208,None,,P005,fencog,1,Pre,2021_Jul_13_1127,N-Back (New Version 2021),2021.1.4,120.58973202368163,
,,,,Conditions/Version_1/threeback(1)_v1.xlsx,New rule: Press 'space' when you see 3-back (i.e. the same letter as the one that appeared 3 letters ago.),P,None,,,,,,,,,0,3,3,3,0,2,2,2,,,,,,,,,,,,,,,,,,,,,,,,,,,,,,,,,,,,,,,,,,,,,,,,,,,,,,,,,,,,,,,,,,,,,1.723,576.3431966999779,None,None,1,576.3431966999779,None,,P005,fencog,1,Pre,2021_Jul_13_1127,N-Back (New Version 2021),2021.1.4,120.58973202368163,
,,,,Conditions/Version_1/threeback(1)_v1.xlsx,New rule: Press 'space' when you see 3-back (i.e. the same letter as the one that appeared 3 letters ago.),R,space,,,,,,,,,0,3,3,3,0,3,3,3,,,,,,,,,,,,,,,,,,,,,,,,,,,,,,,,,,,,,,,,,,,,,,,,,,,,,,,,,,,,,,,,,,,,,1.971,580.3267767999787,None,space,1,580.3267767999787,None,0.40405279997503385,P005,fencog,1,Pre,2021_Jul_13_1127,N-Back (New Version 2021),2021.1.4,120.58973202368163,
,,,,Conditions/Version_1/threeback(1)_v1.xlsx,New rule: Press 'space' when you see 3-back (i.e. the same letter as the one that appeared 3 letters ago.),p,None,,,,,,,,,0,3,3,3,0,4,4,4,,,,,,,,,,,,,,,,,,,,,,,,,,,,,,,,,,,,,,,,,,,,,,,,,,,,,,,,,,,,,,,,,,,,,1.0596,583.3922058999888,None,None,1,583.3922058999888,None,,P005,fencog,1,Pre,2021_Jul_13_1127,N-Back (New Version 2021),2021.1.4,120.58973202368163,
,,,,Conditions/Version_1/threeback(1)_v1.xlsx,New rule: Press 'space' when you see 3-back (i.e. the same letter as the one that appeared 3 letters ago.),E,None,,,,,,,,,0,3,3,3,0,5,5,5,,,,,,,,,,,,,,,,,,,,,,,,,,,,,,,,,,,,,,,,,,,,,,,,,,,,,,,,,,,,,,,,,,,,,1.134,586.5313129000133,None,None,1,586.5313129000133,None,,P005,fencog,1,Pre,2021_Jul_13_1127,N-Back (New Version 2021),2021.1.4,120.58973202368163,
,,,,Conditions/Version_1/threeback(1)_v1.xlsx,New rule: Press 'space' when you see 3-back (i.e. the same letter as the one that appeared 3 letters ago.),e,None,,,,,,,,,0,3,3,3,0,6,6,6,,,,,,,,,,,,,,,,,,,,,,,,,,,,,,,,,,,,,,,,,,,,,,,,,,,,,,,,,,,,,,,,,,,,,1.2332,589.7659704000107,None,None,1,589.7659704000107,None,,P005,fencog,1,Pre,2021_Jul_13_1127,N-Back (New Version 2021),2021.1.4,120.58973202368163,
,,,,Conditions/Version_1/threeback(1)_v1.xlsx,New rule: Press 'space' when you see 3-back (i.e. the same letter as the one that appeared 3 letters ago.),m,None,,,,,,,,,0,3,3,3,0,7,7,7,,,,,,,,,,,,,,,,,,,,,,,,,,,,,,,,,,,,,,,,,,,,,,,,,,,,,,,,,,,,,,,,,,,,,1.5742,593.3475315999822,None,None,1,593.3475315999822,None,,P005,fencog,1,Pre,2021_Jul_13_1127,N-Back (New Version 2021),2021.1.4,120.58973202368163,
,,,,Conditions/Version_1/threeback(1)_v1.xlsx,New rule: Press 'space' when you see 3-back (i.e. the same letter as the one that appeared 3 letters ago.),n,None,,,,,,,,,0,3,3,3,0,8,8,8,,,,,,,,,,,,,,,,,,,,,,,,,,,,,,,,,,,,,,,,,,,,,,,,,,,,,,,,,,,,,,,,,,,,,1.7912,597.1470603999915,None,None,1,597.1470603999915,None,,P005,fencog,1,Pre,2021_Jul_13_1127,N-Back (New Version 2021),2021.1.4,120.58973202368163,
,,,,Conditions/Version_1/threeback(1)_v1.xlsx,New rule: Press 'space' when you see 3-back (i.e. the same letter as the one that appeared 3 letters ago.),e,space,,,,,,,,,0,3,3,3,0,9,9,9,,,,,,,,,,,,,,,,,,,,,,,,,,,,,,,,,,,,,,,,,,,,,,,,,,,,,,,,,,,,,,,,,,,,,1.2146,600.3706413999898,None,space,1,600.3706413999898,None,0.4236838999786414,P005,fencog,1,Pre,2021_Jul_13_1127,N-Back (New Version 2021),2021.1.4,120.58973202368163,
,,,,Conditions/Version_1/threeback(1)_v1.xlsx,New rule: Press 'space' when you see 3-back (i.e. the same letter as the one that appeared 3 letters ago.),,,,,,,,,,,0,3,3,3,,,,,,,,,,,,,,,,,,,,,,,,,,,,,,,,,,,,,,,,,,,,,,,,,,,,,,,,,,,,,,,,,,,,,,,,,,,,,,,,,P005,fencog,1,Pre,2021_Jul_13_1127,N-Back (New Version 2021),2021.1.4,120.58973202368163,
,,,,Conditions/Version_1/oneback(2)_v1.xlsx,New rule: Press 'space' when you see 1-back (i.e. the same letter as the one that appeared 1 letter ago.),q,None,,,,,,,,,0,4,4,4,0,0,0,0,,,,,,,,,,,,,,,,,,,,,,,,,,,,,,,,,,,,,,,,,,,,,,,,,,,,,,,,,,,602.4069070999976,None,605.388179600006,None,space,0.9185466999770142,605.388179600006,None,602.4069070999976,None,1.7354,608.0686765999999,None,None,1,608.0686765999999,None,,P005,fencog,1,Pre,2021_Jul_13_1127,N-Back (New Version 2021),2021.1.4,120.58973202368163,
,,,,Conditions/Version_1/oneback(2)_v1.xlsx,New rule: Press 'space' when you see 1-back (i.e. the same letter as the one that appeared 1 letter ago.),Q,space,,,,,,,,,0,4,4,4,0,1,1,1,,,,,,,,,,,,,,,,,,,,,,,,,,,,,,,,,,,,,,,,,,,,,,,,,,,,,,,,,,,,,,,,,,,,,1.4998,611.5769719000091,None,space,1,611.5769719000091,None,0.6176921000005677,P005,fencog,1,Pre,2021_Jul_13_1127,N-Back (New Version 2021),2021.1.4,120.58973202368163,
,,,,Conditions/Version_1/oneback(2)_v1.xlsx,New rule: Press 'space' when you see 1-back (i.e. the same letter as the one that appeared 1 letter ago.),P,None,,,,,,,,,0,4,4,4,0,2,2,2,,,,,,,,,,,,,,,,,,,,,,,,,,,,,,,,,,,,,,,,,,,,,,,,,,,,,,,,,,,,,,,,,,,,,1.3758,614.9656267999671,None,None,1,614.9656267999671,None,,P005,fencog,1,Pre,2021_Jul_13_1127,N-Back (New Version 2021),2021.1.4,120.58973202368163,
,,,,Conditions/Version_1/oneback(2)_v1.xlsx,New rule: Press 'space' when you see 1-back (i.e. the same letter as the one that appeared 1 letter ago.),o,None,,,,,,,,,0,4,4,4,0,3,3,3,,,,,,,,,,,,,,,,,,,,,,,,,,,,,,,,,,,,,,,,,,,,,,,,,,,,,,,,,,,,,,,,,,,,,1.5866,618.5577003000071,None,None,1,618.5577003000071,None,,P005,fencog,1,Pre,2021_Jul_13_1127,N-Back (New Version 2021),2021.1.4,120.58973202368163,
,,,,Conditions/Version_1/oneback(2)_v1.xlsx,New rule: Press 'space' when you see 1-back (i.e. the same letter as the one that appeared 1 letter ago.),m,None,,,,,,,,,0,4,4,4,0,4,4,4,,,,,,,,,,,,,,,,,,,,,,,,,,,,,,,,,,,,,,,,,,,,,,,,,,,,,,,,,,,,,,,,,,,,,1.754,622.3227070000139,None,None,1,622.3227070000139,None,,P005,fencog,1,Pre,2021_Jul_13_1127,N-Back (New Version 2021),2021.1.4,120.58973202368163,
,,,,Conditions/Version_1/oneback(2)_v1.xlsx,New rule: Press 'space' when you see 1-back (i.e. the same letter as the one that appeared 1 letter ago.),Z,None,,,,,,,,,0,4,4,4,0,5,5,5,,,,,,,,,,,,,,,,,,,,,,,,,,,,,,,,,,,,,,,,,,,,,,,,,,,,,,,,,,,,,,,,,,,,,1.7416,626.0713778000209,None,None,1,626.0713778000209,None,,P005,fencog,1,Pre,2021_Jul_13_1127,N-Back (New Version 2021),2021.1.4,120.58973202368163,
,,,,Conditions/Version_1/oneback(2)_v1.xlsx,New rule: Press 'space' when you see 1-back (i.e. the same letter as the one that appeared 1 letter ago.),c,None,,,,,,,,,0,4,4,4,0,6,6,6,,,,,,,,,,,,,,,,,,,,,,,,,,,,,,,,,,,,,,,,,,,,,,,,,,,,,,,,,,,,,,,,,,,,,1.4626,629.536008599971,None,None,1,629.536008599971,None,,P005,fencog,1,Pre,2021_Jul_13_1127,N-Back (New Version 2021),2021.1.4,120.58973202368163,
,,,,Conditions/Version_1/oneback(2)_v1.xlsx,New rule: Press 'space' when you see 1-back (i.e. the same letter as the one that appeared 1 letter ago.),c,space,,,,,,,,,0,4,4,4,0,7,7,7,,,,,,,,,,,,,,,,,,,,,,,,,,,,,,,,,,,,,,,,,,,,,,,,,,,,,,,,,,,,,,,,,,,,,1.165,632.7092165999929,None,space,1,632.7092165999929,None,0.6214420999749564,P005,fencog,1,Pre,2021_Jul_13_1127,N-Back (New Version 2021),2021.1.4,120.58973202368163,
,,,,Conditions/Version_1/oneback(2)_v1.xlsx,New rule: Press 'space' when you see 1-back (i.e. the same letter as the one that appeared 1 letter ago.),P,None,,,,,,,,,0,4,4,4,0,8,8,8,,,,,,,,,,,,,,,,,,,,,,,,,,,,,,,,,,,,,,,,,,,,,,,,,,,,,,,,,,,,,,,,,,,,,1.5804,636.2923994999728,None,None,1,636.2923994999728,None,,P005,fencog,1,Pre,2021_Jul_13_1127,N-Back (New Version 2021),2021.1.4,120.58973202368163,
,,,,Conditions/Version_1/oneback(2)_v1.xlsx,New rule: Press 'space' when you see 1-back (i.e. the same letter as the one that appeared 1 letter ago.),p,space,,,,,,,,,0,4,4,4,0,9,9,9,,,,,,,,,,,,,,,,,,,,,,,,,,,,,,,,,,,,,,,,,,,,,,,,,,,,,,,,,,,,,,,,,,,,,1.9028,640.20922780002,None,space,1,640.20922780002,None,0.4813932999968529,P005,fencog,1,Pre,2021_Jul_13_1127,N-Back (New Version 2021),2021.1.4,120.58973202368163,
,,,,Conditions/Version_1/oneback(2)_v1.xlsx,New rule: Press 'space' when you see 1-back (i.e. the same letter as the one that appeared 1 letter ago.),,,,,,,,,,,0,4,4,4,,,,,,,,,,,,,,,,,,,,,,,,,,,,,,,,,,,,,,,,,,,,,,,,,,,,,,,,,,,,,,,,,,,,,,,,,,,,,,,,,P005,fencog,1,Pre,2021_Jul_13_1127,N-Back (New Version 2021),2021.1.4,120.58973202368163,
,,,,Conditions/Version_1/zeroback(2)_v1.xlsx,New rule: Press 'space' when you see the letter 'x' or 'X'.,p,None,,,,,,,,,0,5,5,5,0,0,0,0,,,,,,,,,,,,,,,,,,,,,,,,,,,,,,,,,,,,,,,,,,,,,,,,,,,,,,,,,,,642.238475399965,None,645.2265657999669,None,space,0.6319305000361055,645.2265657999669,None,642.238475399965,None,1.0596,646.9465551999747,None,None,1,646.9465551999747,None,,P005,fencog,1,Pre,2021_Jul_13_1127,N-Back (New Version 2021),2021.1.4,120.58973202368163,
,,,,Conditions/Version_1/zeroback(2)_v1.xlsx,New rule: Press 'space' when you see the letter 'x' or 'X'.,L,None,,,,,,,,,0,5,5,5,0,1,1,1,,,,,,,,,,,,,,,,,,,,,,,,,,,,,,,,,,,,,,,,,,,,,,,,,,,,,,,,,,,,,,,,,,,,,1.1588,650.1069350999896,None,None,1,650.1069350999896,None,,P005,fencog,1,Pre,2021_Jul_13_1127,N-Back (New Version 2021),2021.1.4,120.58973202368163,
,,,,Conditions/Version_1/zeroback(2)_v1.xlsx,New rule: Press 'space' when you see the letter 'x' or 'X'.,G,None,,,,,,,,,0,5,5,5,0,2,2,2,,,,,,,,,,,,,,,,,,,,,,,,,,,,,,,,,,,,,,,,,,,,,,,,,,,,,,,,,,,,,,,,,,,,,1.7788,653.8966992999776,None,None,1,653.8966992999776,None,,P005,fencog,1,Pre,2021_Jul_13_1127,N-Back (New Version 2021),2021.1.4,120.58973202368163,
,,,,Conditions/Version_1/zeroback(2)_v1.xlsx,New rule: Press 'space' when you see the letter 'x' or 'X'.,y,None,,,,,,,,,0,5,5,5,0,3,3,3,,,,,,,,,,,,,,,,,,,,,,,,,,,,,,,,,,,,,,,,,,,,,,,,,,,,,,,,,,,,,,,,,,,,,1.2642,657.1722611999721,None,None,1,657.1722611999721,None,,P005,fencog,1,Pre,2021_Jul_13_1127,N-Back (New Version 2021),2021.1.4,120.58973202368163,
,,,,Conditions/Version_1/zeroback(2)_v1.xlsx,New rule: Press 'space' when you see the letter 'x' or 'X'.,Y,None,,,,,,,,,0,5,5,5,0,4,4,4,,,,,,,,,,,,,,,,,,,,,,,,,,,,,,,,,,,,,,,,,,,,,,,,,,,,,,,,,,,,,,,,,,,,,1.9152,661.0945572999772,None,None,1,661.0945572999772,None,,P005,fencog,1,Pre,2021_Jul_13_1127,N-Back (New Version 2021),2021.1.4,120.58973202368163,
,,,,Conditions/Version_1/zeroback(2)_v1.xlsx,New rule: Press 'space' when you see the letter 'x' or 'X'.,W,None,,,,,,,,,0,5,5,5,0,5,5,5,,,,,,,,,,,,,,,,,,,,,,,,,,,,,,,,,,,,,,,,,,,,,,,,,,,,,,,,,,,,,,,,,,,,,1.2084,664.309748700005,None,None,1,664.309748700005,None,,P005,fencog,1,Pre,2021_Jul_13_1127,N-Back (New Version 2021),2021.1.4,120.58973202368163,
,,,,Conditions/Version_1/zeroback(2)_v1.xlsx,New rule: Press 'space' when you see the letter 'x' or 'X'.,x,space,,,,,,,,,0,5,5,5,0,6,6,6,,,,,,,,,,,,,,,,,,,,,,,,,,,,,,,,,,,,,,,,,,,,,,,,,,,,,,,,,,,,,,,,,,,,,1.8532,668.1762975999736,None,space,1,668.1762975999736,None,0.362251800019294,P005,fencog,1,Pre,2021_Jul_13_1127,N-Back (New Version 2021),2021.1.4,120.58973202368163,
,,,,Conditions/Version_1/zeroback(2)_v1.xlsx,New rule: Press 'space' when you see the letter 'x' or 'X'.,X,space,,,,,,,,,0,5,5,5,0,7,7,7,,,,,,,,,,,,,,,,,,,,,,,,,,,,,,,,,,,,,,,,,,,,,,,,,,,,,,,,,,,,,,,,,,,,,1.5928,671.7845312000136,None,space,1,671.7845312000136,None,0.3700069999904372,P005,fencog,1,Pre,2021_Jul_13_1127,N-Back (New Version 2021),2021.1.4,120.58973202368163,
,,,,Conditions/Version_1/zeroback(2)_v1.xlsx,New rule: Press 'space' when you see the letter 'x' or 'X'.,p,None,,,,,,,,,0,5,5,5,0,8,8,8,,,,,,,,,,,,,,,,,,,,,,,,,,,,,,,,,,,,,,,,,,,,,,,,,,,,,,,,,,,,,,,,,,,,,1.6176,675.4133771000197,None,None,1,675.4133771000197,None,,P005,fencog,1,Pre,2021_Jul_13_1127,N-Back (New Version 2021),2021.1.4,120.58973202368163,
,,,,Conditions/Version_1/zeroback(2)_v1.xlsx,New rule: Press 'space' when you see the letter 'x' or 'X'.,h,None,,,,,,,,,0,5,5,5,0,9,9,9,,,,,,,,,,,,,,,,,,,,,,,,,,,,,,,,,,,,,,,,,,,,,,,,,,,,,,,,,,,,,,,,,,,,,1.8346,679.2537665999844,None,None,1,679.2537665999844,None,,P005,fencog,1,Pre,2021_Jul_13_1127,N-Back (New Version 2021),2021.1.4,120.58973202368163,
,,,,Conditions/Version_1/zeroback(2)_v1.xlsx,New rule: Press 'space' when you see the letter 'x' or 'X'.,,,,,,,,,,,0,5,5,5,,,,,,,,,,,,,,,,,,,,,,,,,,,,,,,,,,,,,,,,,,,,,,,,,,,,,,,,,,,,,,,,,,,,,,,,,,,,,,,,,P005,fencog,1,Pre,2021_Jul_13_1127,N-Back (New Version 2021),2021.1.4,120.58973202368163,
,,,,Conditions/Version_1/threeback(2)_v1.xlsx,New rule: Press 'space' when you see 3-back (i.e. the same letter as the one that appeared 3 letters ago.),q,None,,,,,,,,,0,6,6,6,0,0,0,0,,,,,,,,,,,,,,,,,,,,,,,,,,,,,,,,,,,,,,,,,,,,,,,,,,,,,,,,,,,681.275287299999,None,684.2631345000118,None,space,0.8833602999802679,684.2631345000118,None,681.275287299999,None,1.7974,686.9621380000026,None,None,1,686.9621380000026,None,,P005,fencog,1,Pre,2021_Jul_13_1127,N-Back (New Version 2021),2021.1.4,120.58973202368163,
,,,,Conditions/Version_1/threeback(2)_v1.xlsx,New rule: Press 'space' when you see 3-back (i.e. the same letter as the one that appeared 3 letters ago.),Y,None,,,,,,,,,0,6,6,6,0,1,1,1,,,,,,,,,,,,,,,,,,,,,,,,,,,,,,,,,,,,,,,,,,,,,,,,,,,,,,,,,,,,,,,,,,,,,1.4316,690.4014208000153,None,None,1,690.4014208000153,None,,P005,fencog,1,Pre,2021_Jul_13_1127,N-Back (New Version 2021),2021.1.4,120.58973202368163,
,,,,Conditions/Version_1/threeback(2)_v1.xlsx,New rule: Press 'space' when you see 3-back (i.e. the same letter as the one that appeared 3 letters ago.),p,None,,,,,,,,,0,6,6,6,0,2,2,2,,,,,,,,,,,,,,,,,,,,,,,,,,,,,,,,,,,,,,,,,,,,,,,,,,,,,,,,,,,,,,,,,,,,,1.0844,693.5046691999887,None,None,1,693.5046691999887,None,,P005,fencog,1,Pre,2021_Jul_13_1127,N-Back (New Version 2021),2021.1.4,120.58973202368163,
,,,,Conditions/Version_1/threeback(2)_v1.xlsx,New rule: Press 'space' when you see 3-back (i.e. the same letter as the one that appeared 3 letters ago.),p,None,,,,,,,,,0,6,6,6,0,3,3,3,,,,,,,,,,,,,,,,,,,,,,,,,,,,,,,,,,,,,,,,,,,,,,,,,,,,,,,,,,,,,,,,,,,,,1.5928,697.1070217000088,None,None,1,697.1070217000088,None,,P005,fencog,1,Pre,2021_Jul_13_1127,N-Back (New Version 2021),2021.1.4,120.58973202368163,
,,,,Conditions/Version_1/threeback(2)_v1.xlsx,New rule: Press 'space' when you see 3-back (i.e. the same letter as the one that appeared 3 letters ago.),y,space,,,,,,,,,0,6,6,6,0,4,4,4,,,,,,,,,,,,,,,,,,,,,,,,,,,,,,,,,,,,,,,,,,,,,,,,,,,,,,,,,,,,,,,,,,,,,1.4068,700.5161623000167,None,space,1,700.5161623000167,None,0.6224079999956302,P005,fencog,1,Pre,2021_Jul_13_1127,N-Back (New Version 2021),2021.1.4,120.58973202368163,
,,,,Conditions/Version_1/threeback(2)_v1.xlsx,New rule: Press 'space' when you see 3-back (i.e. the same letter as the one that appeared 3 letters ago.),u,None,,,,,,,,,0,6,6,6,0,5,5,5,,,,,,,,,,,,,,,,,,,,,,,,,,,,,,,,,,,,,,,,,,,,,,,,,,,,,,,,,,,,,,,,,,,,,1.9524,704.4815078999964,None,None,1,704.4815078999964,None,,P005,fencog,1,Pre,2021_Jul_13_1127,N-Back (New Version 2021),2021.1.4,120.58973202368163,
,,,,Conditions/Version_1/threeback(2)_v1.xlsx,New rule: Press 'space' when you see 3-back (i.e. the same letter as the one that appeared 3 letters ago.),P,space,,,,,,,,,0,6,6,6,0,6,6,6,,,,,,,,,,,,,,,,,,,,,,,,,,,,,,,,,,,,,,,,,,,,,,,,,,,,,,,,,,,,,,,,,,,,,1.2146,707.7049255999736,None,space,1,707.7049255999736,None,0.8892905000247993,P005,fencog,1,Pre,2021_Jul_13_1127,N-Back (New Version 2021),2021.1.4,120.58973202368163,
,,,,Conditions/Version_1/threeback(2)_v1.xlsx,New rule: Press 'space' when you see 3-back (i.e. the same letter as the one that appeared 3 letters ago.),a,None,,,,,,,,,0,6,6,6,0,7,7,7,,,,,,,,,,,,,,,,,,,,,,,,,,,,,,,,,,,,,,,,,,,,,,,,,,,,,,,,,,,,,,,,,,,,,1.6796,711.3951661000028,None,None,1,711.3951661000028,None,,P005,fencog,1,Pre,2021_Jul_13_1127,N-Back (New Version 2021),2021.1.4,120.58973202368163,
,,,,Conditions/Version_1/threeback(2)_v1.xlsx,New rule: Press 'space' when you see 3-back (i.e. the same letter as the one that appeared 3 letters ago.),U,space,,,,,,,,,0,6,6,6,0,8,8,8,,,,,,,,,,,,,,,,,,,,,,,,,,,,,,,,,,,,,,,,,,,,,,,,,,,,,,,,,,,,,,,,,,,,,1.134,714.5459822000121,None,space,1,714.5459822000121,None,0.5845827999874018,P005,fencog,1,Pre,2021_Jul_13_1127,N-Back (New Version 2021),2021.1.4,120.58973202368163,
,,,,Conditions/Version_1/threeback(2)_v1.xlsx,New rule: Press 'space' when you see 3-back (i.e. the same letter as the one that appeared 3 letters ago.),q,None,,,,,,,,,0,6,6,6,0,9,9,9,,,,,,,,,,,,,,,,,,,,,,,,,,,,,,,,,,,,,,,,,,,,,,,,,,,,,,,,,,,,,,,,,,,,,1.4378,717.993484799983,None,None,1,717.993484799983,None,,P005,fencog,1,Pre,2021_Jul_13_1127,N-Back (New Version 2021),2021.1.4,120.58973202368163,
,,,,Conditions/Version_1/threeback(2)_v1.xlsx,New rule: Press 'space' when you see 3-back (i.e. the same letter as the one that appeared 3 letters ago.),,,,,,,,,,,0,6,6,6,,,,,,,,,,,,,,,,,,,,,,,,,,,,,,,,,,,,,,,,,,,,,,,,,,,,,,,,,,,,,,,,,,,,,,,,,,,,,,,,,P005,fencog,1,Pre,2021_Jul_13_1127,N-Back (New Version 2021),2021.1.4,120.58973202368163,
,,,,Conditions/Version_1/twoback(2)_v1.xlsx,New rule: Press 'space' when you see 2-back (i.e. the same letter as the one that appeared 2 letters ago.),q,None,,,,,,,,,0,7,7,7,0,0,0,0,,,,,,,,,,,,,,,,,,,,,,,,,,,,,,,,,,,,,,,,,,,,,,,,,,,,,,,,,,,720.0246590999886,None,723.0092389999772,None,space,0.49724309996236116,723.0092389999772,None,720.0246590999886,None,1.0596,724.5905082999961,None,None,1,724.5905082999961,None,,P005,fencog,1,Pre,2021_Jul_13_1127,N-Back (New Version 2021),2021.1.4,120.58973202368163,
,,,,Conditions/Version_1/twoback(2)_v1.xlsx,New rule: Press 'space' when you see 2-back (i.e. the same letter as the one that appeared 2 letters ago.),r,None,,,,,,,,,0,7,7,7,0,1,1,1,,,,,,,,,,,,,,,,,,,,,,,,,,,,,,,,,,,,,,,,,,,,,,,,,,,,,,,,,,,,,,,,,,,,,1.94,728.5317831999855,None,None,1,728.5317831999855,None,,P005,fencog,1,Pre,2021_Jul_13_1127,N-Back (New Version 2021),2021.1.4,120.58973202368163,
,,,,Conditions/Version_1/twoback(2)_v1.xlsx,New rule: Press 'space' when you see 2-back (i.e. the same letter as the one that appeared 2 letters ago.),q,space,,,,,,,,,0,7,7,7,0,2,2,2,,,,,,,,,,,,,,,,,,,,,,,,,,,,,,,,,,,,,,,,,,,,,,,,,,,,,,,,,,,,,,,,,,,,,1.351,731.898954299977,None,space,1,731.898954299977,None,0.4554854999878444,P005,fencog,1,Pre,2021_Jul_13_1127,N-Back (New Version 2021),2021.1.4,120.58973202368163,
,,,,Conditions/Version_1/twoback(2)_v1.xlsx,New rule: Press 'space' when you see 2-back (i.e. the same letter as the one that appeared 2 letters ago.),P,None,,,,,,,,,0,7,7,7,0,3,3,3,,,,,,,,,,,,,,,,,,,,,,,,,,,,,,,,,,,,,,,,,,,,,,,,,,,,,,,,,,,,,,,,,,,,,1.8656,735.7715309999767,None,None,1,735.7715309999767,None,,P005,fencog,1,Pre,2021_Jul_13_1127,N-Back (New Version 2021),2021.1.4,120.58973202368163,
,,,,Conditions/Version_1/twoback(2)_v1.xlsx,New rule: Press 'space' when you see 2-back (i.e. the same letter as the one that appeared 2 letters ago.),p,None,,,,,,,,,0,7,7,7,0,4,4,4,,,,,,,,,,,,,,,,,,,,,,,,,,,,,,,,,,,,,,,,,,,,,,,,,,,,,,,,,,,,,,,,,,,,,1.3944,739.1780496999854,None,None,1,739.1780496999854,None,,P005,fencog,1,Pre,2021_Jul_13_1127,N-Back (New Version 2021),2021.1.4,120.58973202368163,
,,,,Conditions/Version_1/twoback(2)_v1.xlsx,New rule: Press 'space' when you see 2-back (i.e. the same letter as the one that appeared 2 letters ago.),H,None,,,,,,,,,0,7,7,7,0,5,5,5,,,,,,,,,,,,,,,,,,,,,,,,,,,,,,,,,,,,,,,,,,,,,,,,,,,,,,,,,,,,,,,,,,,,,1.0658,742.2501131999888,None,None,1,742.2501131999888,None,,P005,fencog,1,Pre,2021_Jul_13_1127,N-Back (New Version 2021),2021.1.4,120.58973202368163,
,,,,Conditions/Version_1/twoback(2)_v1.xlsx,New rule: Press 'space' when you see 2-back (i.e. the same letter as the one that appeared 2 letters ago.),g,None,,,,,,,,,0,7,7,7,0,6,6,6,,,,,,,,,,,,,,,,,,,,,,,,,,,,,,,,,,,,,,,,,,,,,,,,,,,,,,,,,,,,,,,,,,,,,1.5866,745.8424402999808,None,None,1,745.8424402999808,None,,P005,fencog,1,Pre,2021_Jul_13_1127,N-Back (New Version 2021),2021.1.4,120.58973202368163,
,,,,Conditions/Version_1/twoback(2)_v1.xlsx,New rule: Press 'space' when you see 2-back (i.e. the same letter as the one that appeared 2 letters ago.),j,None,,,,,,,,,0,7,7,7,0,7,7,7,,,,,,,,,,,,,,,,,,,,,,,,,,,,,,,,,,,,,,,,,,,,,,,,,,,,,,,,,,,,,,,,,,,,,1.5246,749.3667605000082,None,None,1,749.3667605000082,None,,P005,fencog,1,Pre,2021_Jul_13_1127,N-Back (New Version 2021),2021.1.4,120.58973202368163,
,,,,Conditions/Version_1/twoback(2)_v1.xlsx,New rule: Press 'space' when you see 2-back (i.e. the same letter as the one that appeared 2 letters ago.),g,space,,,,,,,,,0,7,7,7,0,8,8,8,,,,,,,,,,,,,,,,,,,,,,,,,,,,,,,,,,,,,,,,,,,,,,,,,,,,,,,,,,,,,,,,,,,,,1.8222,753.2003556999844,None,None,0,753.2003556999844,None,,P005,fencog,1,Pre,2021_Jul_13_1127,N-Back (New Version 2021),2021.1.4,120.58973202368163,
,,,,Conditions/Version_1/twoback(2)_v1.xlsx,New rule: Press 'space' when you see 2-back (i.e. the same letter as the one that appeared 2 letters ago.),G,None,,,,,,,,,0,7,7,7,0,9,9,9,,,,,,,,,,,,,,,,,,,,,,,,,,,,,,,,,,,,,,,,,,,,,,,,,,,,,,,,,,,,,,,,,,,,,1.9152,757.1296292999759,None,None,1,757.1296292999759,None,,P005,fencog,1,Pre,2021_Jul_13_1127,N-Back (New Version 2021),2021.1.4,120.58973202368163,
,,,,Conditions/Version_1/twoback(2)_v1.xlsx,New rule: Press 'space' when you see 2-back (i.e. the same letter as the one that appeared 2 letters ago.),,,,,,,,,,,0,7,7,7,,,,,,,,,,,,,,,,,,,,,,,,,,,,,,,,,,,,,,,,,,,,,,,,,,,,,,,,,,,,,,,,,,,,,,,,,,,,,,,,,P005,fencog,1,Pre,2021_Jul_13_1127,N-Back (New Version 2021),2021.1.4,120.58973202368163,
,,,,Conditions/Version_1/threeback(3)_v1.xlsx,New rule: Press 'space' when you see 3-back (i.e. the same letter as the one that appeared 3 letters ago.),w,None,,,,,,,,,0,8,8,8,0,0,0,0,,,,,,,,,,,,,,,,,,,,,,,,,,,,,,,,,,,,,,,,,,,,,,,,,,,,,,,,,,,759.1506452999893,None,762.140029800008,None,space,0.5021689999848604,762.140029800008,None,759.1506452999893,None,1.32,763.9974061999819,None,None,1,763.9974061999819,None,,P005,fencog,1,Pre,2021_Jul_13_1127,N-Back (New Version 2021),2021.1.4,120.58973202368163,
,,,,Conditions/Version_1/threeback(3)_v1.xlsx,New rule: Press 'space' when you see 3-back (i.e. the same letter as the one that appeared 3 letters ago.),p,None,,,,,,,,,0,8,8,8,0,1,1,1,,,,,,,,,,,,,,,,,,,,,,,,,,,,,,,,,,,,,,,,,,,,,,,,,,,,,,,,,,,,,,,,,,,,,1.1836,767.1870219999691,None,None,1,767.1870219999691,None,,P005,fencog,1,Pre,2021_Jul_13_1127,N-Back (New Version 2021),2021.1.4,120.58973202368163,
,,,,Conditions/Version_1/threeback(3)_v1.xlsx,New rule: Press 'space' when you see 3-back (i.e. the same letter as the one that appeared 3 letters ago.),P,None,,,,,,,,,0,8,8,8,0,2,2,2,,,,,,,,,,,,,,,,,,,,,,,,,,,,,,,,,,,,,,,,,,,,,,,,,,,,,,,,,,,,,,,,,,,,,1.1154,770.3129198999959,None,None,1,770.3129198999959,None,,P005,fencog,1,Pre,2021_Jul_13_1127,N-Back (New Version 2021),2021.1.4,120.58973202368163,
,,,,Conditions/Version_1/threeback(3)_v1.xlsx,New rule: Press 'space' when you see 3-back (i.e. the same letter as the one that appeared 3 letters ago.),i,None,,,,,,,,,0,8,8,8,0,3,3,3,,,,,,,,,,,,,,,,,,,,,,,,,,,,,,,,,,,,,,,,,,,,,,,,,,,,,,,,,,,,,,,,,,,,,1.7664,774.0874022999778,None,None,1,774.0874022999778,None,,P005,fencog,1,Pre,2021_Jul_13_1127,N-Back (New Version 2021),2021.1.4,120.58973202368163,
,,,,Conditions/Version_1/threeback(3)_v1.xlsx,New rule: Press 'space' when you see 3-back (i.e. the same letter as the one that appeared 3 letters ago.),f,None,,,,,,,,,0,8,8,8,0,4,4,4,,,,,,,,,,,,,,,,,,,,,,,,,,,,,,,,,,,,,,,,,,,,,,,,,,,,,,,,,,,,,,,,,,,,,1.8594,777.9579034000053,None,None,1,777.9579034000053,None,,P005,fencog,1,Pre,2021_Jul_13_1127,N-Back (New Version 2021),2021.1.4,120.58973202368163,
,,,,Conditions/Version_1/threeback(3)_v1.xlsx,New rule: Press 'space' when you see 3-back (i.e. the same letter as the one that appeared 3 letters ago.),o,None,,,,,,,,,0,8,8,8,0,5,5,5,,,,,,,,,,,,,,,,,,,,,,,,,,,,,,,,,,,,,,,,,,,,,,,,,,,,,,,,,,,,,,,,,,,,,1.878,781.8413106999942,None,None,1,781.8413106999942,None,,P005,fencog,1,Pre,2021_Jul_13_1127,N-Back (New Version 2021),2021.1.4,120.58973202368163,
,,,,Conditions/Version_1/threeback(3)_v1.xlsx,New rule: Press 'space' when you see 3-back (i.e. the same letter as the one that appeared 3 letters ago.),w,None,,,,,,,,,0,8,8,8,0,6,6,6,,,,,,,,,,,,,,,,,,,,,,,,,,,,,,,,,,,,,,,,,,,,,,,,,,,,,,,,,,,,,,,,,,,,,1.3386,785.1917678000173,None,None,1,785.1917678000173,None,,P005,fencog,1,Pre,2021_Jul_13_1127,N-Back (New Version 2021),2021.1.4,120.58973202368163,
,,,,Conditions/Version_1/threeback(3)_v1.xlsx,New rule: Press 'space' when you see 3-back (i.e. the same letter as the one that appeared 3 letters ago.),F,space,,,,,,,,,0,8,8,8,0,7,7,7,,,,,,,,,,,,,,,,,,,,,,,,,,,,,,,,,,,,,,,,,,,,,,,,,,,,,,,,,,,,,,,,,,,,,1.0224,788.2309324999806,None,space,1,788.2309324999806,None,0.7874039000016637,P005,fencog,1,Pre,2021_Jul_13_1127,N-Back (New Version 2021),2021.1.4,120.58973202368163,
,,,,Conditions/Version_1/threeback(3)_v1.xlsx,New rule: Press 'space' when you see 3-back (i.e. the same letter as the one that appeared 3 letters ago.),p,None,,,,,,,,,0,8,8,8,0,8,8,8,,,,,,,,,,,,,,,,,,,,,,,,,,,,,,,,,,,,,,,,,,,,,,,,,,,,,,,,,,,,,,,,,,,,,1.3138,791.5558438000153,None,None,1,791.5558438000153,None,,P005,fencog,1,Pre,2021_Jul_13_1127,N-Back (New Version 2021),2021.1.4,120.58973202368163,
,,,,Conditions/Version_1/threeback(3)_v1.xlsx,New rule: Press 'space' when you see 3-back (i.e. the same letter as the one that appeared 3 letters ago.),W,space,,,,,,,,,0,8,8,8,0,9,9,9,,,,,,,,,,,,,,,,,,,,,,,,,,,,,,,,,,,,,,,,,,,,,,,,,,,,,,,,,,,,,,,,,,,,,1.4874,795.0554981000023,None,space,1,795.0554981000023,None,0.5788296000100672,P005,fencog,1,Pre,2021_Jul_13_1127,N-Back (New Version 2021),2021.1.4,120.58973202368163,
,,,,Conditions/Version_1/threeback(3)_v1.xlsx,New rule: Press 'space' when you see 3-back (i.e. the same letter as the one that appeared 3 letters ago.),,,,,,,,,,,0,8,8,8,,,,,,,,,,,,,,,,,,,,,,,,,,,,,,,,,,,,,,,,,,,,,,,,,,,,,,,,,,,,,,,,,,,,,,,,,,,,,,,,,P005,fencog,1,Pre,2021_Jul_13_1127,N-Back (New Version 2021),2021.1.4,120.58973202368163,
,,,,Conditions/Version_1/zeroback(3)_v1.xlsx,New rule: Press 'space' when you see the letter 'x' or 'X'.,X,space,,,,,,,,,0,9,9,9,0,0,0,0,,,,,,,,,,,,,,,,,,,,,,,,,,,,,,,,,,,,,,,,,,,,,,,,,,,,,,,,,,,797.0794366999762,None,800.0652431999915,None,space,0.2891171000082977,800.0652431999915,None,797.0794366999762,None,1.8904,802.268314099987,None,space,1,802.268314099987,None,0.4620983999921009,P005,fencog,1,Pre,2021_Jul_13_1127,N-Back (New Version 2021),2021.1.4,120.58973202368163,
,,,,Conditions/Version_1/zeroback(3)_v1.xlsx,New rule: Press 'space' when you see the letter 'x' or 'X'.,B,None,,,,,,,,,0,9,9,9,0,1,1,1,,,,,,,,,,,,,,,,,,,,,,,,,,,,,,,,,,,,,,,,,,,,,,,,,,,,,,,,,,,,,,,,,,,,,1.9214,806.2043178000022,None,None,1,806.2043178000022,None,,P005,fencog,1,Pre,2021_Jul_13_1127,N-Back (New Version 2021),2021.1.4,120.58973202368163,
,,,,Conditions/Version_1/zeroback(3)_v1.xlsx,New rule: Press 'space' when you see the letter 'x' or 'X'.,m,None,,,,,,,,,0,9,9,9,0,2,2,2,,,,,,,,,,,,,,,,,,,,,,,,,,,,,,,,,,,,,,,,,,,,,,,,,,,,,,,,,,,,,,,,,,,,,1.94,810.1485451000044,None,None,1,810.1485451000044,None,,P005,fencog,1,Pre,2021_Jul_13_1127,N-Back (New Version 2021),2021.1.4,120.58973202368163,
,,,,Conditions/Version_1/zeroback(3)_v1.xlsx,New rule: Press 'space' when you see the letter 'x' or 'X'.,m,None,,,,,,,,,0,9,9,9,0,3,3,3,,,,,,,,,,,,,,,,,,,,,,,,,,,,,,,,,,,,,,,,,,,,,,,,,,,,,,,,,,,,,,,,,,,,,1.8842,814.0387597999652,None,None,1,814.0387597999652,None,,P005,fencog,1,Pre,2021_Jul_13_1127,N-Back (New Version 2021),2021.1.4,120.58973202368163,
,,,,Conditions/Version_1/zeroback(3)_v1.xlsx,New rule: Press 'space' when you see the letter 'x' or 'X'.,o,None,,,,,,,,,0,9,9,9,0,4,4,4,,,,,,,,,,,,,,,,,,,,,,,,,,,,,,,,,,,,,,,,,,,,,,,,,,,,,,,,,,,,,,,,,,,,,1.5866,817.6313595999964,None,None,1,817.6313595999964,None,,P005,fencog,1,Pre,2021_Jul_13_1127,N-Back (New Version 2021),2021.1.4,120.58973202368163,
,,,,Conditions/Version_1/zeroback(3)_v1.xlsx,New rule: Press 'space' when you see the letter 'x' or 'X'.,p,None,,,,,,,,,0,9,9,9,0,5,5,5,,,,,,,,,,,,,,,,,,,,,,,,,,,,,,,,,,,,,,,,,,,,,,,,,,,,,,,,,,,,,,,,,,,,,1.754,821.3961868999759,None,None,1,821.3961868999759,None,,P005,fencog,1,Pre,2021_Jul_13_1127,N-Back (New Version 2021),2021.1.4,120.58973202368163,
,,,,Conditions/Version_1/zeroback(3)_v1.xlsx,New rule: Press 'space' when you see the letter 'x' or 'X'.,G,None,,,,,,,,,0,9,9,9,0,6,6,6,,,,,,,,,,,,,,,,,,,,,,,,,,,,,,,,,,,,,,,,,,,,,,,,,,,,,,,,,,,,,,,,,,,,,1.6362,825.0465108000208,None,None,1,825.0465108000208,None,,P005,fencog,1,Pre,2021_Jul_13_1127,N-Back (New Version 2021),2021.1.4,120.58973202368163,
,,,,Conditions/Version_1/zeroback(3)_v1.xlsx,New rule: Press 'space' when you see the letter 'x' or 'X'.,X,space,,,,,,,,,0,9,9,9,0,7,7,7,,,,,,,,,,,,,,,,,,,,,,,,,,,,,,,,,,,,,,,,,,,,,,,,,,,,,,,,,,,,,,,,,,,,,1.6672,828.7189754999708,None,space,1,828.7189754999708,None,0.34753460000501946,P005,fencog,1,Pre,2021_Jul_13_1127,N-Back (New Version 2021),2021.1.4,120.58973202368163,
,,,,Conditions/Version_1/zeroback(3)_v1.xlsx,New rule: Press 'space' when you see the letter 'x' or 'X'.,p,None,,,,,,,,,0,9,9,9,0,8,8,8,,,,,,,,,,,,,,,,,,,,,,,,,,,,,,,,,,,,,,,,,,,,,,,,,,,,,,,,,,,,,,,,,,,,,1.3262,832.063771999965,None,None,1,832.063771999965,None,,P005,fencog,1,Pre,2021_Jul_13_1127,N-Back (New Version 2021),2021.1.4,120.58973202368163,
,,,,Conditions/Version_1/zeroback(3)_v1.xlsx,New rule: Press 'space' when you see the letter 'x' or 'X'.,x,space,,,,,,,,,0,9,9,9,0,9,9,9,,,,,,,,,,,,,,,,,,,,,,,,,,,,,,,,,,,,,,,,,,,,,,,,,,,,,,,,,,,,,,,,,,,,,1.1836,835.2506755000213,None,space,1,835.2506755000213,None,0.4397595000336878,P005,fencog,1,Pre,2021_Jul_13_1127,N-Back (New Version 2021),2021.1.4,120.58973202368163,
,,,,Conditions/Version_1/zeroback(3)_v1.xlsx,New rule: Press 'space' when you see the letter 'x' or 'X'.,,,,,,,,,,,0,9,9,9,,,,,,,,,,,,,,,,,,,,,,,,,,,,,,,,,,,,,,,,,,,,,,,,,,,,,,,,,,,,,,,,,,,,,,,,,,,,,,,,,P005,fencog,1,Pre,2021_Jul_13_1127,N-Back (New Version 2021),2021.1.4,120.58973202368163,
,,,,Conditions/Version_1/twoback(3)_v1.xlsx,New rule: Press 'space' when you see 2-back (i.e. the same letter as the one that appeared 2 letters ago.),e,None,,,,,,,,,0,10,10,10,0,0,0,0,,,,,,,,,,,,,,,,,,,,,,,,,,,,,,,,,,,,,,,,,,,,,,,,,,,,,,,,,,,837.2798868999816,None,840.2670255000121,None,space,1.6791943000280298,840.2670255000121,None,837.2798868999816,None,1.3944,843.3567488999688,None,None,1,843.3567488999688,None,,P005,fencog,1,Pre,2021_Jul_13_1127,N-Back (New Version 2021),2021.1.4,120.58973202368163,
,,,,Conditions/Version_1/twoback(3)_v1.xlsx,New rule: Press 'space' when you see 2-back (i.e. the same letter as the one that appeared 2 letters ago.),o,None,,,,,,,,,0,10,10,10,0,1,1,1,,,,,,,,,,,,,,,,,,,,,,,,,,,,,,,,,,,,,,,,,,,,,,,,,,,,,,,,,,,,,,,,,,,,,1.723,847.0898870999808,None,None,1,847.0898870999808,None,,P005,fencog,1,Pre,2021_Jul_13_1127,N-Back (New Version 2021),2021.1.4,120.58973202368163,
,,,,Conditions/Version_1/twoback(3)_v1.xlsx,New rule: Press 'space' when you see 2-back (i.e. the same letter as the one that appeared 2 letters ago.),P,None,,,,,,,,,0,10,10,10,0,2,2,2,,,,,,,,,,,,,,,,,,,,,,,,,,,,,,,,,,,,,,,,,,,,,,,,,,,,,,,,,,,,,,,,,,,,,1.6052,850.7031904999749,None,None,1,850.7031904999749,None,,P005,fencog,1,Pre,2021_Jul_13_1127,N-Back (New Version 2021),2021.1.4,120.58973202368163,
,,,,Conditions/Version_1/twoback(3)_v1.xlsx,New rule: Press 'space' when you see 2-back (i.e. the same letter as the one that appeared 2 letters ago.),z,None,,,,,,,,,0,10,10,10,0,3,3,3,,,,,,,,,,,,,,,,,,,,,,,,,,,,,,,,,,,,,,,,,,,,,,,,,,,,,,,,,,,,,,,,,,,,,1.3634,854.071620200004,None,None,1,854.071620200004,None,,P005,fencog,1,Pre,2021_Jul_13_1127,N-Back (New Version 2021),2021.1.4,120.58973202368163,
,,,,Conditions/Version_1/twoback(3)_v1.xlsx,New rule: Press 'space' when you see 2-back (i.e. the same letter as the one that appeared 2 letters ago.),X,None,,,,,,,,,0,10,10,10,0,4,4,4,,,,,,,,,,,,,,,,,,,,,,,,,,,,,,,,,,,,,,,,,,,,,,,,,,,,,,,,,,,,,,,,,,,,,1.9772,858.0616563999793,None,None,1,858.0616563999793,None,,P005,fencog,1,Pre,2021_Jul_13_1127,N-Back (New Version 2021),2021.1.4,120.58973202368163,
,,,,Conditions/Version_1/twoback(3)_v1.xlsx,New rule: Press 'space' when you see 2-back (i.e. the same letter as the one that appeared 2 letters ago.),z,space,,,,,,,,,0,10,10,10,0,5,5,5,,,,,,,,,,,,,,,,,,,,,,,,,,,,,,,,,,,,,,,,,,,,,,,,,,,,,,,,,,,,,,,,,,,,,1.1402,861.2094375999877,None,space,1,861.2094375999877,None,0.40833959996234626,P005,fencog,1,Pre,2021_Jul_13_1127,N-Back (New Version 2021),2021.1.4,120.58973202368163,
,,,,Conditions/Version_1/twoback(3)_v1.xlsx,New rule: Press 'space' when you see 2-back (i.e. the same letter as the one that appeared 2 letters ago.),x,space,,,,,,,,,0,10,10,10,0,6,6,6,,,,,,,,,,,,,,,,,,,,,,,,,,,,,,,,,,,,,,,,,,,,,,,,,,,,,,,,,,,,,,,,,,,,,1.8842,865.1125319999992,None,space,1,865.1125319999992,None,0.7777751999674365,P005,fencog,1,Pre,2021_Jul_13_1127,N-Back (New Version 2021),2021.1.4,120.58973202368163,
,,,,Conditions/Version_1/twoback(3)_v1.xlsx,New rule: Press 'space' when you see 2-back (i.e. the same letter as the one that appeared 2 letters ago.),c,None,,,,,,,,,0,10,10,10,0,7,7,7,,,,,,,,,,,,,,,,,,,,,,,,,,,,,,,,,,,,,,,,,,,,,,,,,,,,,,,,,,,,,,,,,,,,,1.6548,868.7754702999955,None,None,1,868.7754702999955,None,,P005,fencog,1,Pre,2021_Jul_13_1127,N-Back (New Version 2021),2021.1.4,120.58973202368163,
,,,,Conditions/Version_1/twoback(3)_v1.xlsx,New rule: Press 'space' when you see 2-back (i.e. the same letter as the one that appeared 2 letters ago.),i,None,,,,,,,,,0,10,10,10,0,8,8,8,,,,,,,,,,,,,,,,,,,,,,,,,,,,,,,,,,,,,,,,,,,,,,,,,,,,,,,,,,,,,,,,,,,,,1.6982,872.4821904000128,None,None,1,872.4821904000128,None,,P005,fencog,1,Pre,2021_Jul_13_1127,N-Back (New Version 2021),2021.1.4,120.58973202368163,
,,,,Conditions/Version_1/twoback(3)_v1.xlsx,New rule: Press 'space' when you see 2-back (i.e. the same letter as the one that appeared 2 letters ago.),C,space,,,,,,,,,0,10,10,10,0,9,9,9,,,,,,,,,,,,,,,,,,,,,,,,,,,,,,,,,,,,,,,,,,,,,,,,,,,,,,,,,,,,,,,,,,,,,1.4564,875.9467627999838,None,space,1,875.9467627999838,None,0.39961979998042807,P005,fencog,1,Pre,2021_Jul_13_1127,N-Back (New Version 2021),2021.1.4,120.58973202368163,
,,,,Conditions/Version_1/twoback(3)_v1.xlsx,New rule: Press 'space' when you see 2-back (i.e. the same letter as the one that appeared 2 letters ago.),,,,,,,,,,,0,10,10,10,,,,,,,,,,,,,,,,,,,,,,,,,,,,,,,,,,,,,,,,,,,,,,,,,,,,,,,,,,,,,,,,,,,,,,,,,,,,,,,,,P005,fencog,1,Pre,2021_Jul_13_1127,N-Back (New Version 2021),2021.1.4,120.58973202368163,
,,,,Conditions/Version_1/oneback(3)_v1.xlsx,New rule: Press 'space' when you see 1-back (i.e. the same letter as the one that appeared 1 letter ago.),o,None,,,,,,,,,0,11,11,11,0,0,0,0,,,,,,,,,,,,,,,,,,,,,,,,,,,,,,,,,,,,,,,,,,,,,,,,,,,,,,,,,,,877.9755122999777,None,880.9632625000086,None,space,0.3033543999772519,880.9632625000086,None,877.9755122999777,None,1.1526,882.4443966000108,None,None,1,882.4443966000108,None,,P005,fencog,1,Pre,2021_Jul_13_1127,N-Back (New Version 2021),2021.1.4,120.58973202368163,
,,,,Conditions/Version_1/oneback(3)_v1.xlsx,New rule: Press 'space' when you see 1-back (i.e. the same letter as the one that appeared 1 letter ago.),O,space,,,,,,,,,0,11,11,11,0,1,1,1,,,,,,,,,,,,,,,,,,,,,,,,,,,,,,,,,,,,,,,,,,,,,,,,,,,,,,,,,,,,,,,,,,,,,1.0782,885.5373733000015,None,space,1,885.5373733000015,None,0.5208547000074759,P005,fencog,1,Pre,2021_Jul_13_1127,N-Back (New Version 2021),2021.1.4,120.58973202368163,
,,,,Conditions/Version_1/oneback(3)_v1.xlsx,New rule: Press 'space' when you see 1-back (i.e. the same letter as the one that appeared 1 letter ago.),h,None,,,,,,,,,0,11,11,11,0,2,2,2,,,,,,,,,,,,,,,,,,,,,,,,,,,,,,,,,,,,,,,,,,,,,,,,,,,,,,,,,,,,,,,,,,,,,1.9524,889.5012943000183,None,None,1,889.5012943000183,None,,P005,fencog,1,Pre,2021_Jul_13_1127,N-Back (New Version 2021),2021.1.4,120.58973202368163,
,,,,Conditions/Version_1/oneback(3)_v1.xlsx,New rule: Press 'space' when you see 1-back (i.e. the same letter as the one that appeared 1 letter ago.),g,None,,,,,,,,,0,11,11,11,0,3,3,3,,,,,,,,,,,,,,,,,,,,,,,,,,,,,,,,,,,,,,,,,,,,,,,,,,,,,,,,,,,,,,,,,,,,,1.1898,892.7010761999991,None,None,1,892.7010761999991,None,,P005,fencog,1,Pre,2021_Jul_13_1127,N-Back (New Version 2021),2021.1.4,120.58973202368163,
,,,,Conditions/Version_1/oneback(3)_v1.xlsx,New rule: Press 'space' when you see 1-back (i.e. the same letter as the one that appeared 1 letter ago.),n,None,,,,,,,,,0,11,11,11,0,4,4,4,,,,,,,,,,,,,,,,,,,,,,,,,,,,,,,,,,,,,,,,,,,,,,,,,,,,,,,,,,,,,,,,,,,,,1.909,896.6251389000099,None,None,1,896.6251389000099,None,,P005,fencog,1,Pre,2021_Jul_13_1127,N-Back (New Version 2021),2021.1.4,120.58973202368163,
,,,,Conditions/Version_1/oneback(3)_v1.xlsx,New rule: Press 'space' when you see 1-back (i.e. the same letter as the one that appeared 1 letter ago.),z,None,,,,,,,,,0,11,11,11,0,5,5,5,,,,,,,,,,,,,,,,,,,,,,,,,,,,,,,,,,,,,,,,,,,,,,,,,,,,,,,,,,,,,,,,,,,,,1.9896,900.6215602000011,None,None,1,900.6215602000011,None,,P005,fencog,1,Pre,2021_Jul_13_1127,N-Back (New Version 2021),2021.1.4,120.58973202368163,
,,,,Conditions/Version_1/oneback(3)_v1.xlsx,New rule: Press 'space' when you see 1-back (i.e. the same letter as the one that appeared 1 letter ago.),X,None,,,,,,,,,0,11,11,11,0,6,6,6,,,,,,,,,,,,,,,,,,,,,,,,,,,,,,,,,,,,,,,,,,,,,,,,,,,,,,,,,,,,,,,,,,,,,1.041,903.6726756999851,None,None,1,903.6726756999851,None,,P005,fencog,1,Pre,2021_Jul_13_1127,N-Back (New Version 2021),2021.1.4,120.58973202368163,
,,,,Conditions/Version_1/oneback(3)_v1.xlsx,New rule: Press 'space' when you see 1-back (i.e. the same letter as the one that appeared 1 letter ago.),r,None,,,,,,,,,0,11,11,11,0,7,7,7,,,,,,,,,,,,,,,,,,,,,,,,,,,,,,,,,,,,,,,,,,,,,,,,,,,,,,,,,,,,,,,,,,,,,1.661,907.3468485000194,None,None,1,907.3468485000194,None,,P005,fencog,1,Pre,2021_Jul_13_1127,N-Back (New Version 2021),2021.1.4,120.58973202368163,
,,,,Conditions/Version_1/oneback(3)_v1.xlsx,New rule: Press 'space' when you see 1-back (i.e. the same letter as the one that appeared 1 letter ago.),r,space,,,,,,,,,0,11,11,11,0,8,8,8,,,,,,,,,,,,,,,,,,,,,,,,,,,,,,,,,,,,,,,,,,,,,,,,,,,,,,,,,,,,,,,,,,,,,1.6548,911.0102769000223,None,space,1,911.0102769000223,None,0.592090799997095,P005,fencog,1,Pre,2021_Jul_13_1127,N-Back (New Version 2021),2021.1.4,120.58973202368163,
,,,,Conditions/Version_1/oneback(3)_v1.xlsx,New rule: Press 'space' when you see 1-back (i.e. the same letter as the one that appeared 1 letter ago.),P,None,,,,,,,,,0,11,11,11,0,9,9,9,,,,,,,,,,,,,,,,,,,,,,,,,,,,,,,,,,,,,,,,,,,,,,,,,,,,,,,,,,,,,,,,,,,,,1.4316,914.4447608999908,None,None,1,914.4447608999908,None,,P005,fencog,1,Pre,2021_Jul_13_1127,N-Back (New Version 2021),2021.1.4,120.58973202368163,
,,,,Conditions/Version_1/oneback(3)_v1.xlsx,New rule: Press 'space' when you see 1-back (i.e. the same letter as the one that appeared 1 letter ago.),,,,,,,,,,,0,11,11,11,,,,,,,,,,,,,,,,,,,,,,,,,,,,,,,,,,,,,,,,,,,,,,,,,,,,,,,,,,,,,,,,,,,,,,,,,,,,,,,,,P005,fencog,1,Pre,2021_Jul_13_1127,N-Back (New Version 2021),2021.1.4,120.58973202368163,
,,,,Conditions/Version_1/twoback(4)_v1.xlsx,New rule: Press 'space' when you see 2-back (i.e. the same letter as the one that appeared 2 letters ago.),r,None,,,,,,,,,0,12,12,12,0,0,0,0,,,,,,,,,,,,,,,,,,,,,,,,,,,,,,,,,,,,,,,,,,,,,,,,,,,,,,,,,,,916.4754412000184,None,919.4601465999731,None,space,0.38208109996048734,919.4601465999731,None,916.4754412000184,None,1.103,920.9677016999922,None,None,1,920.9677016999922,None,,P005,fencog,1,Pre,2021_Jul_13_1127,N-Back (New Version 2021),2021.1.4,120.58973202368163,
,,,,Conditions/Version_1/twoback(4)_v1.xlsx,New rule: Press 'space' when you see 2-back (i.e. the same letter as the one that appeared 2 letters ago.),T,None,,,,,,,,,0,12,12,12,0,1,1,1,,,,,,,,,,,,,,,,,,,,,,,,,,,,,,,,,,,,,,,,,,,,,,,,,,,,,,,,,,,,,,,,,,,,,1.351,924.3312381000142,None,None,1,924.3312381000142,None,,P005,fencog,1,Pre,2021_Jul_13_1127,N-Back (New Version 2021),2021.1.4,120.58973202368163,
,,,,Conditions/Version_1/twoback(4)_v1.xlsx,New rule: Press 'space' when you see 2-back (i.e. the same letter as the one that appeared 2 letters ago.),o,None,,,,,,,,,0,12,12,12,0,2,2,2,,,,,,,,,,,,,,,,,,,,,,,,,,,,,,,,,,,,,,,,,,,,,,,,,,,,,,,,,,,,,,,,,,,,,1.8036,928.1394773999928,None,None,1,928.1394773999928,None,,P005,fencog,1,Pre,2021_Jul_13_1127,N-Back (New Version 2021),2021.1.4,120.58973202368163,
,,,,Conditions/Version_1/twoback(4)_v1.xlsx,New rule: Press 'space' when you see 2-back (i.e. the same letter as the one that appeared 2 letters ago.),p,None,,,,,,,,,0,12,12,12,0,3,3,3,,,,,,,,,,,,,,,,,,,,,,,,,,,,,,,,,,,,,,,,,,,,,,,,,,,,,,,,,,,,,,,,,,,,,1.0782,931.2312917999807,None,None,1,931.2312917999807,None,,P005,fencog,1,Pre,2021_Jul_13_1127,N-Back (New Version 2021),2021.1.4,120.58973202368163,
,,,,Conditions/Version_1/twoback(4)_v1.xlsx,New rule: Press 'space' when you see 2-back (i.e. the same letter as the one that appeared 2 letters ago.),p,None,,,,,,,,,0,12,12,12,0,4,4,4,,,,,,,,,,,,,,,,,,,,,,,,,,,,,,,,,,,,,,,,,,,,,,,,,,,,,,,,,,,,,,,,,,,,,1.32,934.5533445000183,None,None,1,934.5533445000183,None,,P005,fencog,1,Pre,2021_Jul_13_1127,N-Back (New Version 2021),2021.1.4,120.58973202368163,
,,,,Conditions/Version_1/twoback(4)_v1.xlsx,New rule: Press 'space' when you see 2-back (i.e. the same letter as the one that appeared 2 letters ago.),y,None,,,,,,,,,0,12,12,12,0,5,5,5,,,,,,,,,,,,,,,,,,,,,,,,,,,,,,,,,,,,,,,,,,,,,,,,,,,,,,,,,,,,,,,,,,,,,1.9276,938.4866138999932,None,None,1,938.4866138999932,None,,P005,fencog,1,Pre,2021_Jul_13_1127,N-Back (New Version 2021),2021.1.4,120.58973202368163,
,,,,Conditions/Version_1/twoback(4)_v1.xlsx,New rule: Press 'space' when you see 2-back (i.e. the same letter as the one that appeared 2 letters ago.),P,space,,,,,,,,,0,12,12,12,0,6,6,6,,,,,,,,,,,,,,,,,,,,,,,,,,,,,,,,,,,,,,,,,,,,,,,,,,,,,,,,,,,,,,,,,,,,,1.1588,941.6535173999728,None,space,1,941.6535173999728,None,0.7485629000002518,P005,fencog,1,Pre,2021_Jul_13_1127,N-Back (New Version 2021),2021.1.4,120.58973202368163,
,,,,Conditions/Version_1/twoback(4)_v1.xlsx,New rule: Press 'space' when you see 2-back (i.e. the same letter as the one that appeared 2 letters ago.),y,None,,,,,,,,,0,12,12,12,0,7,7,7,,,,,,,,,,,,,,,,,,,,,,,,,,,,,,,,,,,,,,,,,,,,,,,,,,,,,,,,,,,,,,,,,,,,,1.5804,945.2807403000188,None,space,0,945.2807403000188,None,0.5931870999629609,P005,fencog,1,Pre,2021_Jul_13_1127,N-Back (New Version 2021),2021.1.4,120.58973202368163,
,,,,Conditions/Version_1/twoback(4)_v1.xlsx,New rule: Press 'space' when you see 2-back (i.e. the same letter as the one that appeared 2 letters ago.),y,space,,,,,,,,,0,12,12,12,0,8,8,8,,,,,,,,,,,,,,,,,,,,,,,,,,,,,,,,,,,,,,,,,,,,,,,,,,,,,,,,,,,,,,,,,,,,,1.0596,948.3166605000151,None,None,0,948.3166605000151,None,,P005,fencog,1,Pre,2021_Jul_13_1127,N-Back (New Version 2021),2021.1.4,120.58973202368163,
,,,,Conditions/Version_1/twoback(4)_v1.xlsx,New rule: Press 'space' when you see 2-back (i.e. the same letter as the one that appeared 2 letters ago.),,,,,,,,,,,0,12,12,12,,,,,,,,,,,,,,,,,,,,,,,,,,,,,,,,,,,,,,,,,,,,,,,,,,,,,,,,,,,,,,,,,,,,,,,,,,,,,,,,,P005,fencog,1,Pre,2021_Jul_13_1127,N-Back (New Version 2021),2021.1.4,120.58973202368163,
,,,,Conditions/Version_1/zeroback(4)_v1.xlsx,New rule: Press 'space' when you see the letter 'x' or 'X'.,o,None,,,,,,,,,0,13,13,13,0,0,0,0,,,,,,,,,,,,,,,,,,,,,,,,,,,,,,,,,,,,,,,,,,,,,,,,,,,,,,,,,,,950.345738700009,None,953.3330973999691,None,space,0.34107700001914054,953.3330973999691,None,950.345738700009,None,1.599,955.2909528000164,None,None,1,955.2909528000164,None,,P005,fencog,1,Pre,2021_Jul_13_1127,N-Back (New Version 2021),2021.1.4,120.58973202368163,
,,,,Conditions/Version_1/zeroback(4)_v1.xlsx,New rule: Press 'space' when you see the letter 'x' or 'X'.,X,space,,,,,,,,,0,13,13,13,0,1,1,1,,,,,,,,,,,,,,,,,,,,,,,,,,,,,,,,,,,,,,,,,,,,,,,,,,,,,,,,,,,,,,,,,,,,,1.7664,959.0626413999707,None,space,1,959.0626413999707,None,0.37957460002508014,P005,fencog,1,Pre,2021_Jul_13_1127,N-Back (New Version 2021),2021.1.4,120.58973202368163,
,,,,Conditions/Version_1/zeroback(4)_v1.xlsx,New rule: Press 'space' when you see the letter 'x' or 'X'.,p,None,,,,,,,,,0,13,13,13,0,2,2,2,,,,,,,,,,,,,,,,,,,,,,,,,,,,,,,,,,,,,,,,,,,,,,,,,,,,,,,,,,,,,,,,,,,,,1.5928,962.6630136999884,None,None,1,962.6630136999884,None,,P005,fencog,1,Pre,2021_Jul_13_1127,N-Back (New Version 2021),2021.1.4,120.58973202368163,
,,,,Conditions/Version_1/zeroback(4)_v1.xlsx,New rule: Press 'space' when you see the letter 'x' or 'X'.,m,None,,,,,,,,,0,13,13,13,0,3,3,3,,,,,,,,,,,,,,,,,,,,,,,,,,,,,,,,,,,,,,,,,,,,,,,,,,,,,,,,,,,,,,,,,,,,,1.8346,966.512211299967,None,None,1,966.512211299967,None,,P005,fencog,1,Pre,2021_Jul_13_1127,N-Back (New Version 2021),2021.1.4,120.58973202368163,
,,,,Conditions/Version_1/zeroback(4)_v1.xlsx,New rule: Press 'space' when you see the letter 'x' or 'X'.,n,None,,,,,,,,,0,13,13,13,0,4,4,4,,,,,,,,,,,,,,,,,,,,,,,,,,,,,,,,,,,,,,,,,,,,,,,,,,,,,,,,,,,,,,,,,,,,,1.2518,969.7761305000167,None,None,1,969.7761305000167,None,,P005,fencog,1,Pre,2021_Jul_13_1127,N-Back (New Version 2021),2021.1.4,120.58973202368163,
,,,,Conditions/Version_1/zeroback(4)_v1.xlsx,New rule: Press 'space' when you see the letter 'x' or 'X'.,m,None,,,,,,,,,0,13,13,13,0,5,5,5,,,,,,,,,,,,,,,,,,,,,,,,,,,,,,,,,,,,,,,,,,,,,,,,,,,,,,,,,,,,,,,,,,,,,1.6486,973.4262629000004,None,None,1,973.4262629000004,None,,P005,fencog,1,Pre,2021_Jul_13_1127,N-Back (New Version 2021),2021.1.4,120.58973202368163,
,,,,Conditions/Version_1/zeroback(4)_v1.xlsx,New rule: Press 'space' when you see the letter 'x' or 'X'.,C,None,,,,,,,,,0,13,13,13,0,6,6,6,,,,,,,,,,,,,,,,,,,,,,,,,,,,,,,,,,,,,,,,,,,,,,,,,,,,,,,,,,,,,,,,,,,,,1.5804,977.01567719999,None,None,1,977.01567719999,None,,P005,fencog,1,Pre,2021_Jul_13_1127,N-Back (New Version 2021),2021.1.4,120.58973202368163,
,,,,Conditions/Version_1/zeroback(4)_v1.xlsx,New rule: Press 'space' when you see the letter 'x' or 'X'.,m,None,,,,,,,,,0,13,13,13,0,7,7,7,,,,,,,,,,,,,,,,,,,,,,,,,,,,,,,,,,,,,,,,,,,,,,,,,,,,,,,,,,,,,,,,,,,,,1.568,980.5911613000208,None,None,1,980.5911613000208,None,,P005,fencog,1,Pre,2021_Jul_13_1127,N-Back (New Version 2021),2021.1.4,120.58973202368163,
,,,,Conditions/Version_1/zeroback(4)_v1.xlsx,New rule: Press 'space' when you see the letter 'x' or 'X'.,p,None,,,,,,,,,0,13,13,13,0,8,8,8,,,,,,,,,,,,,,,,,,,,,,,,,,,,,,,,,,,,,,,,,,,,,,,,,,,,,,,,,,,,,,,,,,,,,1.94,984.5399031999987,None,None,1,984.5399031999987,None,,P005,fencog,1,Pre,2021_Jul_13_1127,N-Back (New Version 2021),2021.1.4,120.58973202368163,
,,,,Conditions/Version_1/zeroback(4)_v1.xlsx,New rule: Press 'space' when you see the letter 'x' or 'X'.,X,space,,,,,,,,,0,13,13,13,0,9,9,9,,,,,,,,,,,,,,,,,,,,,,,,,,,,,,,,,,,,,,,,,,,,,,,,,,,,,,,,,,,,,,,,,,,,,1.2022,987.7565636999789,None,space,1,987.7565636999789,None,0.43785989994648844,P005,fencog,1,Pre,2021_Jul_13_1127,N-Back (New Version 2021),2021.1.4,120.58973202368163,
,,,,Conditions/Version_1/zeroback(4)_v1.xlsx,New rule: Press 'space' when you see the letter 'x' or 'X'.,,,,,,,,,,,0,13,13,13,,,,,,,,,,,,,,,,,,,,,,,,,,,,,,,,,,,,,,,,,,,,,,,,,,,,,,,,,,,,,,,,,,,,,,,,,,,,,,,,,P005,fencog,1,Pre,2021_Jul_13_1127,N-Back (New Version 2021),2021.1.4,120.58973202368163,
,,,,Conditions/Version_1/oneback(4)_v1.xlsx,New rule: Press 'space' when you see 1-back (i.e. the same letter as the one that appeared 1 letter ago.),w,None,,,,,,,,,0,14,14,14,0,0,0,0,,,,,,,,,,,,,,,,,,,,,,,,,,,,,,,,,,,,,,,,,,,,,,,,,,,,,,,,,,,989.7831940000178,None,992.7730176000041,None,space,2.461102099972777,992.7730176000041,None,989.7831940000178,None,1.7788,997.0353113000165,None,None,1,997.0353113000165,None,,P005,fencog,1,Pre,2021_Jul_13_1127,N-Back (New Version 2021),2021.1.4,120.58973202368163,
,,,,Conditions/Version_1/oneback(4)_v1.xlsx,New rule: Press 'space' when you see 1-back (i.e. the same letter as the one that appeared 1 letter ago.),q,None,,,,,,,,,0,14,14,14,0,1,1,1,,,,,,,,,,,,,,,,,,,,,,,,,,,,,,,,,,,,,,,,,,,,,,,,,,,,,,,,,,,,,,,,,,,,,1.8346,1000.8788092000177,None,None,1,1000.8788092000177,None,,P005,fencog,1,Pre,2021_Jul_13_1127,N-Back (New Version 2021),2021.1.4,120.58973202368163,
,,,,Conditions/Version_1/oneback(4)_v1.xlsx,New rule: Press 'space' when you see 1-back (i.e. the same letter as the one that appeared 1 letter ago.),i,None,,,,,,,,,0,14,14,14,0,2,2,2,,,,,,,,,,,,,,,,,,,,,,,,,,,,,,,,,,,,,,,,,,,,,,,,,,,,,,,,,,,,,,,,,,,,,1.0782,1003.9686304000206,None,None,1,1003.9686304000206,None,,P005,fencog,1,Pre,2021_Jul_13_1127,N-Back (New Version 2021),2021.1.4,120.58973202368163,
,,,,Conditions/Version_1/oneback(4)_v1.xlsx,New rule: Press 'space' when you see 1-back (i.e. the same letter as the one that appeared 1 letter ago.),t,None,,,,,,,,,0,14,14,14,0,3,3,3,,,,,,,,,,,,,,,,,,,,,,,,,,,,,,,,,,,,,,,,,,,,,,,,,,,,,,,,,,,,,,,,,,,,,1.4316,1007.4080079999985,None,None,1,1007.4080079999985,None,,P005,fencog,1,Pre,2021_Jul_13_1127,N-Back (New Version 2021),2021.1.4,120.58973202368163,
,,,,Conditions/Version_1/oneback(4)_v1.xlsx,New rule: Press 'space' when you see 1-back (i.e. the same letter as the one that appeared 1 letter ago.),v,None,,,,,,,,,0,14,14,14,0,4,4,4,,,,,,,,,,,,,,,,,,,,,,,,,,,,,,,,,,,,,,,,,,,,,,,,,,,,,,,,,,,,,,,,,,,,,1.6114,1011.0364675999735,None,None,1,1011.0364675999735,None,,P005,fencog,1,Pre,2021_Jul_13_1127,N-Back (New Version 2021),2021.1.4,120.58973202368163,
,,,,Conditions/Version_1/oneback(4)_v1.xlsx,New rule: Press 'space' when you see 1-back (i.e. the same letter as the one that appeared 1 letter ago.),V,space,,,,,,,,,0,14,14,14,0,5,5,5,,,,,,,,,,,,,,,,,,,,,,,,,,,,,,,,,,,,,,,,,,,,,,,,,,,,,,,,,,,,,,,,,,,,,1.1154,1014.1585763000185,None,space,1,1014.1585763000185,None,0.6276370999985375,P005,fencog,1,Pre,2021_Jul_13_1127,N-Back (New Version 2021),2021.1.4,120.58973202368163,
,,,,Conditions/Version_1/oneback(4)_v1.xlsx,New rule: Press 'space' when you see 1-back (i.e. the same letter as the one that appeared 1 letter ago.),v,space,,,,,,,,,0,14,14,14,0,6,6,6,,,,,,,,,,,,,,,,,,,,,,,,,,,,,,,,,,,,,,,,,,,,,,,,,,,,,,,,,,,,,,,,,,,,,1.7974,1017.9619195999694,None,space,1,1017.9619195999694,None,0.4718791000195779,P005,fencog,1,Pre,2021_Jul_13_1127,N-Back (New Version 2021),2021.1.4,120.58973202368163,
,,,,Conditions/Version_1/oneback(4)_v1.xlsx,New rule: Press 'space' when you see 1-back (i.e. the same letter as the one that appeared 1 letter ago.),p,None,,,,,,,,,0,14,14,14,0,7,7,7,,,,,,,,,,,,,,,,,,,,,,,,,,,,,,,,,,,,,,,,,,,,,,,,,,,,,,,,,,,,,,,,,,,,,1.8532,1021.8206877000048,None,None,1,1021.8206877000048,None,,P005,fencog,1,Pre,2021_Jul_13_1127,N-Back (New Version 2021),2021.1.4,120.58973202368163,
,,,,Conditions/Version_1/oneback(4)_v1.xlsx,New rule: Press 'space' when you see 1-back (i.e. the same letter as the one that appeared 1 letter ago.),w,None,,,,,,,,,0,14,14,14,0,8,8,8,,,,,,,,,,,,,,,,,,,,,,,,,,,,,,,,,,,,,,,,,,,,,,,,,,,,,,,,,,,,,,,,,,,,,1.4192,1025.2473178000073,None,None,1,1025.2473178000073,None,,P005,fencog,1,Pre,2021_Jul_13_1127,N-Back (New Version 2021),2021.1.4,120.58973202368163,
,,,,Conditions/Version_1/oneback(4)_v1.xlsx,New rule: Press 'space' when you see 1-back (i.e. the same letter as the one that appeared 1 letter ago.),W,space,,,,,,,,,0,14,14,14,0,9,9,9,,,,,,,,,,,,,,,,,,,,,,,,,,,,,,,,,,,,,,,,,,,,,,,,,,,,,,,,,,,,,,,,,,,,,1.0658,1028.3186687999987,None,space,1,1028.3186687999987,None,0.8118239999748766,P005,fencog,1,Pre,2021_Jul_13_1127,N-Back (New Version 2021),2021.1.4,120.58973202368163,
,,,,Conditions/Version_1/oneback(4)_v1.xlsx,New rule: Press 'space' when you see 1-back (i.e. the same letter as the one that appeared 1 letter ago.),,,,,,,,,,,0,14,14,14,,,,,,,,,,,,,,,,,,,,,,,,,,,,,,,,,,,,,,,,,,,,,,,,,,,,,,,,,,,,,,,,,,,,,,,,,,,,,,,,,P005,fencog,1,Pre,2021_Jul_13_1127,N-Back (New Version 2021),2021.1.4,120.58973202368163,
,,,,Conditions/Version_1/threeback(4)_v1.xlsx,New rule: Press 'space' when you see 3-back (i.e. the same letter as the one that appeared 3 letters ago.),A,None,,,,,,,,,0,15,15,15,0,0,0,0,,,,,,,,,,,,,,,,,,,,,,,,,,,,,,,,,,,,,,,,,,,,,,,,,,,,,,,,,,,1030.358709299995,None,1033.3258435999742,None,space,0.38866880000568926,1033.3258435999742,None,1030.358709299995,None,1.8842,1035.6343044000096,None,None,1,1035.6343044000096,None,,P005,fencog,1,Pre,2021_Jul_13_1127,N-Back (New Version 2021),2021.1.4,120.58973202368163,
,,,,Conditions/Version_1/threeback(4)_v1.xlsx,New rule: Press 'space' when you see 3-back (i.e. the same letter as the one that appeared 3 letters ago.),n,None,,,,,,,,,0,15,15,15,0,1,1,1,,,,,,,,,,,,,,,,,,,,,,,,,,,,,,,,,,,,,,,,,,,,,,,,,,,,,,,,,,,,,,,,,,,,,1.6486,1039.2902317999979,None,None,1,1039.2902317999979,None,,P005,fencog,1,Pre,2021_Jul_13_1127,N-Back (New Version 2021),2021.1.4,120.58973202368163,
,,,,Conditions/Version_1/threeback(4)_v1.xlsx,New rule: Press 'space' when you see 3-back (i.e. the same letter as the one that appeared 3 letters ago.),g,None,,,,,,,,,0,15,15,15,0,2,2,2,,,,,,,,,,,,,,,,,,,,,,,,,,,,,,,,,,,,,,,,,,,,,,,,,,,,,,,,,,,,,,,,,,,,,1.258,1042.556087600009,None,None,1,1042.556087600009,None,,P005,fencog,1,Pre,2021_Jul_13_1127,N-Back (New Version 2021),2021.1.4,120.58973202368163,
,,,,Conditions/Version_1/threeback(4)_v1.xlsx,New rule: Press 'space' when you see 3-back (i.e. the same letter as the one that appeared 3 letters ago.),A,space,,,,,,,,,0,15,15,15,0,3,3,3,,,,,,,,,,,,,,,,,,,,,,,,,,,,,,,,,,,,,,,,,,,,,,,,,,,,,,,,,,,,,,,,,,,,,1.1402,1045.705081299995,None,space,1,1045.705081299995,None,0.769104500010144,P005,fencog,1,Pre,2021_Jul_13_1127,N-Back (New Version 2021),2021.1.4,120.58973202368163,
,,,,Conditions/Version_1/threeback(4)_v1.xlsx,New rule: Press 'space' when you see 3-back (i.e. the same letter as the one that appeared 3 letters ago.),p,None,,,,,,,,,0,15,15,15,0,4,4,4,,,,,,,,,,,,,,,,,,,,,,,,,,,,,,,,,,,,,,,,,,,,,,,,,,,,,,,,,,,,,,,,,,,,,1.0224,1048.7382074000197,None,None,1,1048.7382074000197,None,,P005,fencog,1,Pre,2021_Jul_13_1127,N-Back (New Version 2021),2021.1.4,120.58973202368163,
,,,,Conditions/Version_1/threeback(4)_v1.xlsx,New rule: Press 'space' when you see 3-back (i.e. the same letter as the one that appeared 3 letters ago.),O,None,,,,,,,,,0,15,15,15,0,5,5,5,,,,,,,,,,,,,,,,,,,,,,,,,,,,,,,,,,,,,,,,,,,,,,,,,,,,,,,,,,,,,,,,,,,,,1.3634,1052.110769699968,None,None,1,1052.110769699968,None,,P005,fencog,1,Pre,2021_Jul_13_1127,N-Back (New Version 2021),2021.1.4,120.58973202368163,
,,,,Conditions/Version_1/threeback(4)_v1.xlsx,New rule: Press 'space' when you see 3-back (i.e. the same letter as the one that appeared 3 letters ago.),a,space,,,,,,,,,0,15,15,15,0,6,6,6,,,,,,,,,,,,,,,,,,,,,,,,,,,,,,,,,,,,,,,,,,,,,,,,,,,,,,,,,,,,,,,,,,,,,1.2332,1055.3533108999836,None,space,1,1055.3533108999836,None,0.4967641999828629,P005,fencog,1,Pre,2021_Jul_13_1127,N-Back (New Version 2021),2021.1.4,120.58973202368163,
,,,,Conditions/Version_1/threeback(4)_v1.xlsx,New rule: Press 'space' when you see 3-back (i.e. the same letter as the one that appeared 3 letters ago.),p,space,,,,,,,,,0,15,15,15,0,7,7,7,,,,,,,,,,,,,,,,,,,,,,,,,,,,,,,,,,,,,,,,,,,,,,,,,,,,,,,,,,,,,,,,,,,,,1.475,1058.8369562000153,None,space,1,1058.8369562000153,None,0.7889396999962628,P005,fencog,1,Pre,2021_Jul_13_1127,N-Back (New Version 2021),2021.1.4,120.58973202368163,
,,,,Conditions/Version_1/threeback(4)_v1.xlsx,New rule: Press 'space' when you see 3-back (i.e. the same letter as the one that appeared 3 letters ago.),x,None,,,,,,,,,0,15,15,15,0,8,8,8,,,,,,,,,,,,,,,,,,,,,,,,,,,,,,,,,,,,,,,,,,,,,,,,,,,,,,,,,,,,,,,,,,,,,1.94,1062.7832337999716,None,None,1,1062.7832337999716,None,,P005,fencog,1,Pre,2021_Jul_13_1127,N-Back (New Version 2021),2021.1.4,120.58973202368163,
,,,,Conditions/Version_1/threeback(4)_v1.xlsx,New rule: Press 'space' when you see 3-back (i.e. the same letter as the one that appeared 3 letters ago.),X,None,,,,,,,,,0,15,15,15,0,9,9,9,,,,,,,,,,,,,,,,,,,,,,,,,,,,,,,,,,,,,,,,,,,,,,,,,,,,,,,,,,,,,,,,,,,,,1.8036,1066.5974976000143,None,None,1,1066.5974976000143,None,,P005,fencog,1,Pre,2021_Jul_13_1127,N-Back (New Version 2021),2021.1.4,120.58973202368163,
,,,,Conditions/Version_1/threeback(4)_v1.xlsx,New rule: Press 'space' when you see 3-back (i.e. the same letter as the one that appeared 3 letters ago.),,,,,,,,,,,0,15,15,15,,,,,,,,,,,,,,,,,,,,,,,,,,,,,,,,,,,,,,,,,,,,,,,,,,,,,,,,,,,,,,,,,,,,,,,,,,,,,,,,,P005,fencog,1,Pre,2021_Jul_13_1127,N-Back (New Version 2021),2021.1.4,120.58973202368163,
