CondFileP,InstructionsP,LettersDisplayedP,CorrectnessP,CondFile,Instructions,LettersDisplayed,Correctness,practicetrials.thisRepN,practicetrials.thisTrialN,practicetrials.thisN,practicetrials.thisIndex,InnerLoopPractice.thisRepN,InnerLoopPractice.thisTrialN,InnerLoopPractice.thisN,InnerLoopPractice.thisIndex,trials.thisRepN,trials.thisTrialN,trials.thisN,trials.thisIndex,InnerLoop.thisRepN,InnerLoop.thisTrialN,InnerLoop.thisN,InnerLoop.thisIndex,TaskVersionText.started,TaskVersionText.stopped,InstrKey1.keys,InstrKey1.rt,InstrKey1.started,InstrKey1.stopped,text.started,text.stopped,key_resp_4.keys,key_resp_4.rt,key_resp_4.started,key_resp_4.stopped,text_2.started,text_2.stopped,key_resp_3.keys,key_resp_3.rt,key_resp_3.started,key_resp_3.stopped,text_3.started,text_3.stopped,key_resp_2.keys,key_resp_2.rt,key_resp_2.started,key_resp_2.stopped,PractIn1.started,PractIn1.stopped,PractIn2.started,PractIn2.stopped,PractInstructionPass.keys,PractInstructionPass.rt,PractInstructionPass.started,PractInstructionPass.stopped,PractBlock1.started,PractBlock1.stopped,ISIjitterPractice,ISI_Pract_Fixation.started,ISI_Pract_Fixation.stopped,N_backP.started,N_backP.stopped,KeyPractice.keys,KeyPractice.corr,KeyPractice.rt,KeyPractice.started,KeyPractice.stopped,text_4.started,text_4.stopped,TransitionText.started,TransitionText.stopped,key_resp_6.keys,key_resp_6.rt,key_resp_6.started,key_resp_6.stopped,text_5.started,text_5.stopped,key_resp_5.keys,key_resp_5.rt,key_resp_5.started,key_resp_5.stopped,MainInt1.started,MainInt1.stopped,MainInt2.started,MainInt2.stopped,InstructionPass.keys,InstructionPass.rt,InstructionPass.started,InstructionPass.stopped,Blocks1.started,Blocks1.stopped,ISIjitter,N_backD.started,N_backD.stopped,key_resp.keys,key_resp.corr,key_resp.started,key_resp.stopped,key_resp.rt,participant,Study Name,Task Version (required to run),PRE/POST,date,expName,psychopyVersion,frameRate
,,,,,,,,,,,,,,,,,,,,,,,,27.5994971,None,space,39.0369254,28.0958368,None,,,,,,,,,,,,,,,,,,,,,,,,,,,,,,,,,,,,,,,,,,,,,,,,,,,,,,,,,,,,,,,,,,,,,,,P005,fencog,2,Post,2021_Jul_20_1148,N-Back (New Version 2021),2021.1.4,119.89157
,,,,,,,,,,,,,,,,,,,,,,,,,,,,,,67.1651841,None,space,5.8728386,67.6598081,None,,,,,,,,,,,,,,,,,,,,,,,,,,,,,,,,,,,,,,,,,,,,,,,,,,,,,,,,,,,,,,,,,P005,fencog,2,Post,2021_Jul_20_1148,N-Back (New Version 2021),2021.1.4,119.89157
,,,,,,,,,,,,,,,,,,,,,,,,,,,,,,,,,,,,73.565307,None,space,6.1626433,74.0497929,None,,,,,,,,,,,,,,,,,,,,,,,,,,,,,,,,,,,,,,,,,,,,,,,,,,,,,,,,,,,P005,fencog,2,Post,2021_Jul_20_1148,N-Back (New Version 2021),2021.1.4,119.89157
,,,,,,,,,,,,,,,,,,,,,,,,,,,,,,,,,,,,,,,,,,80.2407546,None,space,7.2976148,80.7310272,None,,,,,,,,,,,,,,,,,,,,,,,,,,,,,,,,,,,,,,,,,,,,,,,,,,,,,P005,fencog,2,Post,2021_Jul_20_1148,N-Back (New Version 2021),2021.1.4,119.89157
Conditions/Version_2Pr/zeroback(1)_v2.xlsx,Rule: Press 'space' when you see the letter 'x' or 'X'.,x,space,,,,,0,0,0,0,0,0,0,0,,,,,,,,,,,,,,,,,,,,,,,,,,,,,,,,,89.3813772,None,92.3722929,None,space,2.8643186,92.3722929,None,89.3813772,None,1.99,95.2577766,None,97.2540921,None,space,1,0.3188476,97.2540921,None,97.5884579,None,,,,,,,,,,,,,,,,,,,,,,,,,,,,,,,P005,fencog,2,Post,2021_Jul_20_1148,N-Back (New Version 2021),2021.1.4,119.89157
Conditions/Version_2Pr/zeroback(1)_v2.xlsx,Rule: Press 'space' when you see the letter 'x' or 'X'.,R,None,,,,,0,0,0,0,0,1,1,1,,,,,,,,,,,,,,,,,,,,,,,,,,,,,,,,,,,,,,,,,,,1.615,99.091485,None,100.7114428,None,None,1,,100.7114428,None,102.7155655,None,,,,,,,,,,,,,,,,,,,,,,,,,,,,,,,P005,fencog,2,Post,2021_Jul_20_1148,N-Back (New Version 2021),2021.1.4,119.89157
Conditions/Version_2Pr/zeroback(1)_v2.xlsx,Rule: Press 'space' when you see the letter 'x' or 'X'.,p,None,,,,,0,0,0,0,0,2,2,2,,,,,,,,,,,,,,,,,,,,,,,,,,,,,,,,,,,,,,,,,,,1.865,104.2149892,None,106.0845943,None,None,1,,106.0845943,None,108.0888167,None,,,,,,,,,,,,,,,,,,,,,,,,,,,,,,,P005,fencog,2,Post,2021_Jul_20_1148,N-Back (New Version 2021),2021.1.4,119.89157
Conditions/Version_2Pr/zeroback(1)_v2.xlsx,Rule: Press 'space' when you see the letter 'x' or 'X'.,O,None,,,,,0,0,0,0,0,3,3,3,,,,,,,,,,,,,,,,,,,,,,,,,,,,,,,,,,,,,,,,,,,1.19,109.5883244,None,110.7820355,None,None,1,,110.7820355,None,112.7873885,None,,,,,,,,,,,,,,,,,,,,,,,,,,,,,,,P005,fencog,2,Post,2021_Jul_20_1148,N-Back (New Version 2021),2021.1.4,119.89157
Conditions/Version_2Pr/zeroback(1)_v2.xlsx,Rule: Press 'space' when you see the letter 'x' or 'X'.,i,None,,,,,0,0,0,0,0,4,4,4,,,,,,,,,,,,,,,,,,,,,,,,,,,,,,,,,,,,,,,,,,,1.89,114.2870101,None,116.180641,None,None,1,,116.180641,None,118.1859385,None,,,,,,,,,,,,,,,,,,,,,,,,,,,,,,,P005,fencog,2,Post,2021_Jul_20_1148,N-Back (New Version 2021),2021.1.4,119.89157
Conditions/Version_2Pr/zeroback(1)_v2.xlsx,Rule: Press 'space' when you see the letter 'x' or 'X'.,U,None,,,,,0,0,0,0,0,5,5,5,,,,,,,,,,,,,,,,,,,,,,,,,,,,,,,,,,,,,,,,,,,1.94,119.6854428,None,121.6297342,None,None,1,,121.6297342,None,123.6342347,None,,,,,,,,,,,,,,,,,,,,,,,,,,,,,,,P005,fencog,2,Post,2021_Jul_20_1148,N-Back (New Version 2021),2021.1.4,119.89157
Conditions/Version_2Pr/zeroback(1)_v2.xlsx,Rule: Press 'space' when you see the letter 'x' or 'X'.,N,None,,,,,0,0,0,0,0,6,6,6,,,,,,,,,,,,,,,,,,,,,,,,,,,,,,,,,,,,,,,,,,,1.39,125.1337571,None,126.5273414,None,None,1,,126.5273414,None,128.5328361,None,,,,,,,,,,,,,,,,,,,,,,,,,,,,,,,P005,fencog,2,Post,2021_Jul_20_1148,N-Back (New Version 2021),2021.1.4,119.89157
Conditions/Version_2Pr/zeroback(1)_v2.xlsx,Rule: Press 'space' when you see the letter 'x' or 'X'.,m,None,,,,,0,0,0,0,0,7,7,7,,,,,,,,,,,,,,,,,,,,,,,,,,,,,,,,,,,,,,,,,,,1.49,130.0322891,None,131.526852,None,None,1,,131.526852,None,133.5313474,None,,,,,,,,,,,,,,,,,,,,,,,,,,,,,,,P005,fencog,2,Post,2021_Jul_20_1148,N-Back (New Version 2021),2021.1.4,119.89157
Conditions/Version_2Pr/zeroback(1)_v2.xlsx,Rule: Press 'space' when you see the letter 'x' or 'X'.,x,space,,,,,0,0,0,0,0,8,8,8,,,,,,,,,,,,,,,,,,,,,,,,,,,,,,,,,,,,,,,,,,,1.715,135.0306531,None,136.7468756,None,space,1,0.3376701,136.7468756,None,137.1002545,None,,,,,,,,,,,,,,,,,,,,,,,,,,,,,,,P005,fencog,2,Post,2021_Jul_20_1148,N-Back (New Version 2021),2021.1.4,119.89157
Conditions/Version_2Pr/zeroback(1)_v2.xlsx,Rule: Press 'space' when you see the letter 'x' or 'X'.,X,space,,,,,0,0,0,0,0,9,9,9,,,,,,,,,,,,,,,,,,,,,,,,,,,,,,,,,,,,,,,,,,,1.79,138.6046261,None,140.399719,None,space,1,0.5011816,140.399719,None,140.91222,None,,,,,,,,,,,,,,,,,,,,,,,,,,,,,,,P005,fencog,2,Post,2021_Jul_20_1148,N-Back (New Version 2021),2021.1.4,119.89157
Conditions/Version_2Pr/zeroback(1)_v2.xlsx,Rule: Press 'space' when you see the letter 'x' or 'X'.,,,,,,,0,0,0,0,,,,,,,,,,,,,,,,,,,,,,,,,,,,,,,,,,,,,,,,,,,,,,,,,,,,,,,,,,,,,,,,,,,,,,,,,,,,,,,,,,,,,,,,,P005,fencog,2,Post,2021_Jul_20_1148,N-Back (New Version 2021),2021.1.4,119.89157
Conditions/Version_2Pr/oneback(1)_v2.xlsx,New rule: Press 'space' when you see 1-back (i.e. the same letter as the one that appeared 1 letter ago.),r,None,,,,,0,1,1,1,0,0,0,0,,,,,,,,,,,,,,,,,,,,,,,,,,,,,,,,,142.4331319,None,145.4208912,None,space,57.8472716,145.4208912,None,142.4331319,None,1.04,203.3001119,None,204.3464081,None,None,1,,204.3464081,None,206.351377,None,,,,,,,,,,,,,,,,,,,,,,,,,,,,,,,P005,fencog,2,Post,2021_Jul_20_1148,N-Back (New Version 2021),2021.1.4,119.89157
Conditions/Version_2Pr/oneback(1)_v2.xlsx,New rule: Press 'space' when you see 1-back (i.e. the same letter as the one that appeared 1 letter ago.),t,None,,,,,0,1,1,1,0,1,1,1,,,,,,,,,,,,,,,,,,,,,,,,,,,,,,,,,,,,,,,,,,,1.29,207.8510277,None,209.1483062,None,None,1,,209.1483062,None,211.1500414,None,,,,,,,,,,,,,,,,,,,,,,,,,,,,,,,P005,fencog,2,Post,2021_Jul_20_1148,N-Back (New Version 2021),2021.1.4,119.89157
Conditions/Version_2Pr/oneback(1)_v2.xlsx,New rule: Press 'space' when you see 1-back (i.e. the same letter as the one that appeared 1 letter ago.),Y,None,,,,,0,1,1,1,0,2,2,2,,,,,,,,,,,,,,,,,,,,,,,,,,,,,,,,,,,,,,,,,,,1.065,212.6495159,None,213.7177175,None,None,1,,213.7177175,None,215.7236841,None,,,,,,,,,,,,,,,,,,,,,,,,,,,,,,,P005,fencog,2,Post,2021_Jul_20_1148,N-Back (New Version 2021),2021.1.4,119.89157
Conditions/Version_2Pr/oneback(1)_v2.xlsx,New rule: Press 'space' when you see 1-back (i.e. the same letter as the one that appeared 1 letter ago.),y,space,,,,,0,1,1,1,0,3,3,3,,,,,,,,,,,,,,,,,,,,,,,,,,,,,,,,,,,,,,,,,,,1.165,217.2232452,None,218.3945274,None,space,1,0.8103696,218.3945274,None,219.2173981,None,,,,,,,,,,,,,,,,,,,,,,,,,,,,,,,P005,fencog,2,Post,2021_Jul_20_1148,N-Back (New Version 2021),2021.1.4,119.89157
Conditions/Version_2Pr/oneback(1)_v2.xlsx,New rule: Press 'space' when you see 1-back (i.e. the same letter as the one that appeared 1 letter ago.),p,None,,,,,0,1,1,1,0,4,4,4,,,,,,,,,,,,,,,,,,,,,,,,,,,,,,,,,,,,,,,,,,,1.115,220.7217885,None,221.8411688,None,None,1,,221.8411688,None,223.8458604,None,,,,,,,,,,,,,,,,,,,,,,,,,,,,,,,P005,fencog,2,Post,2021_Jul_20_1148,N-Back (New Version 2021),2021.1.4,119.89157
Conditions/Version_2Pr/oneback(1)_v2.xlsx,New rule: Press 'space' when you see 1-back (i.e. the same letter as the one that appeared 1 letter ago.),P,space,,,,,0,1,1,1,0,5,5,5,,,,,,,,,,,,,,,,,,,,,,,,,,,,,,,,,,,,,,,,,,,1.715,225.3454002,None,227.0648689,None,space,1,0.4999523,227.0648689,None,227.5732762,None,,,,,,,,,,,,,,,,,,,,,,,,,,,,,,,P005,fencog,2,Post,2021_Jul_20_1148,N-Back (New Version 2021),2021.1.4,119.89157
Conditions/Version_2Pr/oneback(1)_v2.xlsx,New rule: Press 'space' when you see 1-back (i.e. the same letter as the one that appeared 1 letter ago.),e,None,,,,,0,1,1,1,0,6,6,6,,,,,,,,,,,,,,,,,,,,,,,,,,,,,,,,,,,,,,,,,,,1.315,229.0780423,None,230.3969601,None,None,1,,230.3969601,None,232.4020712,None,,,,,,,,,,,,,,,,,,,,,,,,,,,,,,,P005,fencog,2,Post,2021_Jul_20_1148,N-Back (New Version 2021),2021.1.4,119.89157
Conditions/Version_2Pr/oneback(1)_v2.xlsx,New rule: Press 'space' when you see 1-back (i.e. the same letter as the one that appeared 1 letter ago.),r,None,,,,,0,1,1,1,0,7,7,7,,,,,,,,,,,,,,,,,,,,,,,,,,,,,,,,,,,,,,,,,,,1.365,233.9016306,None,235.2684439,None,None,1,,235.2684439,None,237.275725,None,,,,,,,,,,,,,,,,,,,,,,,,,,,,,,,P005,fencog,2,Post,2021_Jul_20_1148,N-Back (New Version 2021),2021.1.4,119.89157
Conditions/Version_2Pr/oneback(1)_v2.xlsx,New rule: Press 'space' when you see 1-back (i.e. the same letter as the one that appeared 1 letter ago.),R,space,,,,,0,1,1,1,0,8,8,8,,,,,,,,,,,,,,,,,,,,,,,,,,,,,,,,,,,,,,,,,,,1.865,238.7751844,None,240.6431144,None,space,1,0.8653441,240.6431144,None,241.5169997,None,,,,,,,,,,,,,,,,,,,,,,,,,,,,,,,P005,fencog,2,Post,2021_Jul_20_1148,N-Back (New Version 2021),2021.1.4,119.89157
Conditions/Version_2Pr/oneback(1)_v2.xlsx,New rule: Press 'space' when you see 1-back (i.e. the same letter as the one that appeared 1 letter ago.),p,None,,,,,0,1,1,1,0,9,9,9,,,,,,,,,,,,,,,,,,,,,,,,,,,,,,,,,,,,,,,,,,,1.94,243.0238632,None,244.9672547,None,None,1,,244.9672547,None,246.9728246,None,,,,,,,,,,,,,,,,,,,,,,,,,,,,,,,P005,fencog,2,Post,2021_Jul_20_1148,N-Back (New Version 2021),2021.1.4,119.89157
Conditions/Version_2Pr/oneback(1)_v2.xlsx,New rule: Press 'space' when you see 1-back (i.e. the same letter as the one that appeared 1 letter ago.),,,,,,,0,1,1,1,,,,,,,,,,,,,,,,,,,,,,,,,,,,,,,,,,,,,,,,,,,,,,,,,,,,,,,,,,,,,,,,,,,,,,,,,,,,,,,,,,,,,,,,,P005,fencog,2,Post,2021_Jul_20_1148,N-Back (New Version 2021),2021.1.4,119.89157
Conditions/Version_2Pr/twoback(1)_v2.xlsx,New rule: Press 'space' when you see 2-back (i.e. the same letter as the one that appeared 2 letters ago.),r,None,,,,,0,2,2,2,0,0,0,0,,,,,,,,,,,,,,,,,,,,,,,,,,,,,,,,,248.4965533,None,251.4739761,None,space,4.8263573,251.4739761,None,248.4965533,None,1.34,256.3216705,None,257.6620674,None,None,1,,257.6620674,None,259.6689853,None,,,,,,,,,,,,,,,,,,,,,,,,,,,,,,,P005,fencog,2,Post,2021_Jul_20_1148,N-Back (New Version 2021),2021.1.4,119.89157
Conditions/Version_2Pr/twoback(1)_v2.xlsx,New rule: Press 'space' when you see 2-back (i.e. the same letter as the one that appeared 2 letters ago.),P,None,,,,,0,2,2,2,0,1,1,1,,,,,,,,,,,,,,,,,,,,,,,,,,,,,,,,,,,,,,,,,,,1.39,261.1683058,None,262.5619146,None,None,1,,262.5619146,None,264.5675578,None,,,,,,,,,,,,,,,,,,,,,,,,,,,,,,,P005,fencog,2,Post,2021_Jul_20_1148,N-Back (New Version 2021),2021.1.4,119.89157
Conditions/Version_2Pr/twoback(1)_v2.xlsx,New rule: Press 'space' when you see 2-back (i.e. the same letter as the one that appeared 2 letters ago.),o,None,,,,,0,2,2,2,0,2,2,2,,,,,,,,,,,,,,,,,,,,,,,,,,,,,,,,,,,,,,,,,,,1.04,266.067071,None,267.1117194,None,None,1,,267.1117194,None,269.1162671,None,,,,,,,,,,,,,,,,,,,,,,,,,,,,,,,P005,fencog,2,Post,2021_Jul_20_1148,N-Back (New Version 2021),2021.1.4,119.89157
Conditions/Version_2Pr/twoback(1)_v2.xlsx,New rule: Press 'space' when you see 2-back (i.e. the same letter as the one that appeared 2 letters ago.),p,space,,,,,0,2,2,2,0,3,3,3,,,,,,,,,,,,,,,,,,,,,,,,,,,,,,,,,,,,,,,,,,,1.89,270.6157248,None,272.5087223,None,space,1,1.2637101,272.5087223,None,273.782057,None,,,,,,,,,,,,,,,,,,,,,,,,,,,,,,,P005,fencog,2,Post,2021_Jul_20_1148,N-Back (New Version 2021),2021.1.4,119.89157
Conditions/Version_2Pr/twoback(1)_v2.xlsx,New rule: Press 'space' when you see 2-back (i.e. the same letter as the one that appeared 2 letters ago.),Y,None,,,,,0,2,2,2,0,4,4,4,,,,,,,,,,,,,,,,,,,,,,,,,,,,,,,,,,,,,,,,,,,1.14,275.2811089,None,276.4235824,None,None,1,,276.4235824,None,278.4301437,None,,,,,,,,,,,,,,,,,,,,,,,,,,,,,,,P005,fencog,2,Post,2021_Jul_20_1148,N-Back (New Version 2021),2021.1.4,119.89157
Conditions/Version_2Pr/twoback(1)_v2.xlsx,New rule: Press 'space' when you see 2-back (i.e. the same letter as the one that appeared 2 letters ago.),q,None,,,,,0,2,2,2,0,5,5,5,,,,,,,,,,,,,,,,,,,,,,,,,,,,,,,,,,,,,,,,,,,1.19,279.9295664,None,281.1236742,None,None,1,,281.1236742,None,283.1287371,None,,,,,,,,,,,,,,,,,,,,,,,,,,,,,,,P005,fencog,2,Post,2021_Jul_20_1148,N-Back (New Version 2021),2021.1.4,119.89157
Conditions/Version_2Pr/twoback(1)_v2.xlsx,New rule: Press 'space' when you see 2-back (i.e. the same letter as the one that appeared 2 letters ago.),m,None,,,,,0,2,2,2,0,6,6,6,,,,,,,,,,,,,,,,,,,,,,,,,,,,,,,,,,,,,,,,,,,1.69,284.6282856,None,286.3203295,None,None,1,,286.3203295,None,288.3273012,None,,,,,,,,,,,,,,,,,,,,,,,,,,,,,,,P005,fencog,2,Post,2021_Jul_20_1148,N-Back (New Version 2021),2021.1.4,119.89157
Conditions/Version_2Pr/twoback(1)_v2.xlsx,New rule: Press 'space' when you see 2-back (i.e. the same letter as the one that appeared 2 letters ago.),Q,space,,,,,0,2,2,2,0,7,7,7,,,,,,,,,,,,,,,,,,,,,,,,,,,,,,,,,,,,,,,,,,,1.465,289.8266411,None,291.3045708,None,space,1,1.0436804,291.3045708,None,292.3659418,None,,,,,,,,,,,,,,,,,,,,,,,,,,,,,,,P005,fencog,2,Post,2021_Jul_20_1148,N-Back (New Version 2021),2021.1.4,119.89157
Conditions/Version_2Pr/twoback(1)_v2.xlsx,New rule: Press 'space' when you see 2-back (i.e. the same letter as the one that appeared 2 letters ago.),L,None,,,,,0,2,2,2,0,8,8,8,,,,,,,,,,,,,,,,,,,,,,,,,,,,,,,,,,,,,,,,,,,1.965,293.8670663,None,295.8363052,None,None,1,,295.8363052,None,297.8410157,None,,,,,,,,,,,,,,,,,,,,,,,,,,,,,,,P005,fencog,2,Post,2021_Jul_20_1148,N-Back (New Version 2021),2021.1.4,119.89157
Conditions/Version_2Pr/twoback(1)_v2.xlsx,New rule: Press 'space' when you see 2-back (i.e. the same letter as the one that appeared 2 letters ago.),q,space,,,,,0,2,2,2,0,9,9,9,,,,,,,,,,,,,,,,,,,,,,,,,,,,,,,,,,,,,,,,,,,1.065,299.3406174,None,300.4084008,None,space,1,0.7241533,300.4084008,None,301.1409367,None,,,,,,,,,,,,,,,,,,,,,,,,,,,,,,,P005,fencog,2,Post,2021_Jul_20_1148,N-Back (New Version 2021),2021.1.4,119.89157
Conditions/Version_2Pr/twoback(1)_v2.xlsx,New rule: Press 'space' when you see 2-back (i.e. the same letter as the one that appeared 2 letters ago.),,,,,,,0,2,2,2,,,,,,,,,,,,,,,,,,,,,,,,,,,,,,,,,,,,,,,,,,,,,,,,,,,,,,,,,,,,,,,,,,,,,,,,,,,,,,,,,,,,,,,,,P005,fencog,2,Post,2021_Jul_20_1148,N-Back (New Version 2021),2021.1.4,119.89157
Conditions/Version_2Pr/threeback(1)_v2.xlsx,New rule: Press 'space' when you see 3-back (i.e. the same letter as the one that appeared 3 letters ago.),u,None,,,,,0,3,3,3,0,0,0,0,,,,,,,,,,,,,,,,,,,,,,,,,,,,,,,,,302.6751909,None,305.6580418,None,space,39.6022371,305.6580418,None,302.6751909,None,1.565,345.2778407,None,346.8465406,None,None,1,,346.8465406,None,348.850906,None,,,,,,,,,,,,,,,,,,,,,,,,,,,,,,,P005,fencog,2,Post,2021_Jul_20_1148,N-Back (New Version 2021),2021.1.4,119.89157
Conditions/Version_2Pr/threeback(1)_v2.xlsx,New rule: Press 'space' when you see 3-back (i.e. the same letter as the one that appeared 3 letters ago.),U,None,,,,,0,3,3,3,0,1,1,1,,,,,,,,,,,,,,,,,,,,,,,,,,,,,,,,,,,,,,,,,,,1.415,350.3506331,None,351.7675678,None,None,1,,351.7675678,None,353.7744569,None,,,,,,,,,,,,,,,,,,,,,,,,,,,,,,,P005,fencog,2,Post,2021_Jul_20_1148,N-Back (New Version 2021),2021.1.4,119.89157
Conditions/Version_2Pr/threeback(1)_v2.xlsx,New rule: Press 'space' when you see 3-back (i.e. the same letter as the one that appeared 3 letters ago.),p,None,,,,,0,3,3,3,0,2,2,2,,,,,,,,,,,,,,,,,,,,,,,,,,,,,,,,,,,,,,,,,,,1.79,355.2739399,None,357.0666485,None,None,1,,357.0666485,None,359.0728427,None,,,,,,,,,,,,,,,,,,,,,,,,,,,,,,,P005,fencog,2,Post,2021_Jul_20_1148,N-Back (New Version 2021),2021.1.4,119.89157
Conditions/Version_2Pr/threeback(1)_v2.xlsx,New rule: Press 'space' when you see 3-back (i.e. the same letter as the one that appeared 3 letters ago.),U,space,,,,,0,3,3,3,0,3,3,3,,,,,,,,,,,,,,,,,,,,,,,,,,,,,,,,,,,,,,,,,,,1.465,360.5724904,None,362.0423875,None,space,1,1.5698176,362.0423875,None,363.6225183,None,,,,,,,,,,,,,,,,,,,,,,,,,,,,,,,P005,fencog,2,Post,2021_Jul_20_1148,N-Back (New Version 2021),2021.1.4,119.89157
Conditions/Version_2Pr/threeback(1)_v2.xlsx,New rule: Press 'space' when you see 3-back (i.e. the same letter as the one that appeared 3 letters ago.),e,None,,,,,0,3,3,3,0,4,4,4,,,,,,,,,,,,,,,,,,,,,,,,,,,,,,,,,,,,,,,,,,,1.49,365.1301515,None,366.6230629,None,None,1,,366.6230629,None,368.628287,None,,,,,,,,,,,,,,,,,,,,,,,,,,,,,,,P005,fencog,2,Post,2021_Jul_20_1148,N-Back (New Version 2021),2021.1.4,119.89157
Conditions/Version_2Pr/threeback(1)_v2.xlsx,New rule: Press 'space' when you see 3-back (i.e. the same letter as the one that appeared 3 letters ago.),R,None,,,,,0,3,3,3,0,5,5,5,,,,,,,,,,,,,,,,,,,,,,,,,,,,,,,,,,,,,,,,,,,1.715,370.128079,None,371.8464524,None,None,1,,371.8464524,None,373.8517395,None,,,,,,,,,,,,,,,,,,,,,,,,,,,,,,,P005,fencog,2,Post,2021_Jul_20_1148,N-Back (New Version 2021),2021.1.4,119.89157
Conditions/Version_2Pr/threeback(1)_v2.xlsx,New rule: Press 'space' when you see 3-back (i.e. the same letter as the one that appeared 3 letters ago.),p,None,,,,,0,3,3,3,0,6,6,6,,,,,,,,,,,,,,,,,,,,,,,,,,,,,,,,,,,,,,,,,,,1.265,375.3514083,None,376.6188376,None,None,1,,376.6188376,None,378.6254861,None,,,,,,,,,,,,,,,,,,,,,,,,,,,,,,,P005,fencog,2,Post,2021_Jul_20_1148,N-Back (New Version 2021),2021.1.4,119.89157
Conditions/Version_2Pr/threeback(1)_v2.xlsx,New rule: Press 'space' when you see 3-back (i.e. the same letter as the one that appeared 3 letters ago.),E,space,,,,,0,3,3,3,0,7,7,7,,,,,,,,,,,,,,,,,,,,,,,,,,,,,,,,,,,,,,,,,,,1.24,380.1250184,None,381.3735316,None,space,1,1.0867507,381.3735316,None,382.4800435,None,,,,,,,,,,,,,,,,,,,,,,,,,,,,,,,P005,fencog,2,Post,2021_Jul_20_1148,N-Back (New Version 2021),2021.1.4,119.89157
Conditions/Version_2Pr/threeback(1)_v2.xlsx,New rule: Press 'space' when you see 3-back (i.e. the same letter as the one that appeared 3 letters ago.),k,None,,,,,0,3,3,3,0,8,8,8,,,,,,,,,,,,,,,,,,,,,,,,,,,,,,,,,,,,,,,,,,,1.315,383.9819106,None,385.3014436,None,None,1,,385.3014436,None,387.3062666,None,,,,,,,,,,,,,,,,,,,,,,,,,,,,,,,P005,fencog,2,Post,2021_Jul_20_1148,N-Back (New Version 2021),2021.1.4,119.89157
Conditions/Version_2Pr/threeback(1)_v2.xlsx,New rule: Press 'space' when you see 3-back (i.e. the same letter as the one that appeared 3 letters ago.),m,None,,,,,0,3,3,3,0,9,9,9,,,,,,,,,,,,,,,,,,,,,,,,,,,,,,,,,,,,,,,,,,,1.74,388.8056853,None,390.5484799,None,None,1,,390.5484799,None,392.5547334,None,,,,,,,,,,,,,,,,,,,,,,,,,,,,,,,P005,fencog,2,Post,2021_Jul_20_1148,N-Back (New Version 2021),2021.1.4,119.89157
Conditions/Version_2Pr/threeback(1)_v2.xlsx,New rule: Press 'space' when you see 3-back (i.e. the same letter as the one that appeared 3 letters ago.),,,,,,,0,3,3,3,,,,,,,,,,,,,,,,,,,,,,,,,,,,,,,,,,,,,,,,,,,,,,,,,,,,,,,,,,,,,,,,,,,,,,,,,,,,,,,,,,,,,,,,,P005,fencog,2,Post,2021_Jul_20_1148,N-Back (New Version 2021),2021.1.4,119.89157
,,,,,,,,,,,,,,,,,,,,,,,,,,,,,,,,,,,,,,,,,,,,,,,,,,,,,,,,,,,,,,,,,,,,,,394.0650789,None,space,7.681833,394.5543513,None,,,,,,,,,,,,,,,,,,,,,,,,,P005,fencog,2,Post,2021_Jul_20_1148,N-Back (New Version 2021),2021.1.4,119.89157
,,,,,,,,,,,,,,,,,,,,,,,,,,,,,,,,,,,,,,,,,,,,,,,,,,,,,,,,,,,,,,,,,,,,,,,,,,,,402.257727,None,space,3.7960928,402.752171,None,,,,,,,,,,,,,,,,,,,P005,fencog,2,Post,2021_Jul_20_1148,N-Back (New Version 2021),2021.1.4,119.89157
,,,,Conditions/Version_1/zeroback(1)_v1.xlsx,Rule: Press 'space' when you see the letter 'x' or 'X'.,b,None,,,,,,,,,0,0,0,0,0,0,0,0,,,,,,,,,,,,,,,,,,,,,,,,,,,,,,,,,,,,,,,,,,,,,,,,,,,,,,,,,,,406.6496976,None,409.6347424,None,space,1.9532781,409.6347424,None,406.6496976,None,1.1774,412.7928837,None,None,1,412.7928837,None,,P005,fencog,2,Post,2021_Jul_20_1148,N-Back (New Version 2021),2021.1.4,119.89157
,,,,Conditions/Version_1/zeroback(1)_v1.xlsx,Rule: Press 'space' when you see the letter 'x' or 'X'.,T,None,,,,,,,,,0,0,0,0,0,1,1,1,,,,,,,,,,,,,,,,,,,,,,,,,,,,,,,,,,,,,,,,,,,,,,,,,,,,,,,,,,,,,,,,,,,,,1.9834,416.7814318,None,None,1,416.7814318,None,,P005,fencog,2,Post,2021_Jul_20_1148,N-Back (New Version 2021),2021.1.4,119.89157
,,,,Conditions/Version_1/zeroback(1)_v1.xlsx,Rule: Press 'space' when you see the letter 'x' or 'X'.,L,None,,,,,,,,,0,0,0,0,0,2,2,2,,,,,,,,,,,,,,,,,,,,,,,,,,,,,,,,,,,,,,,,,,,,,,,,,,,,,,,,,,,,,,,,,,,,,1.3014,420.0975825,None,None,1,420.0975825,None,,P005,fencog,2,Post,2021_Jul_20_1148,N-Back (New Version 2021),2021.1.4,119.89157
,,,,Conditions/Version_1/zeroback(1)_v1.xlsx,Rule: Press 'space' when you see the letter 'x' or 'X'.,x,space,,,,,,,,,0,0,0,0,0,3,3,3,,,,,,,,,,,,,,,,,,,,,,,,,,,,,,,,,,,,,,,,,,,,,,,,,,,,,,,,,,,,,,,,,,,,,1.7044,423.8126617,None,space,1,423.8126617,None,0.58335,P005,fencog,2,Post,2021_Jul_20_1148,N-Back (New Version 2021),2021.1.4,119.89157
,,,,Conditions/Version_1/zeroback(1)_v1.xlsx,Rule: Press 'space' when you see the letter 'x' or 'X'.,o,None,,,,,,,,,0,0,0,0,0,4,4,4,,,,,,,,,,,,,,,,,,,,,,,,,,,,,,,,,,,,,,,,,,,,,,,,,,,,,,,,,,,,,,,,,,,,,1.8904,427.7107847,None,None,1,427.7107847,None,,P005,fencog,2,Post,2021_Jul_20_1148,N-Back (New Version 2021),2021.1.4,119.89157
,,,,Conditions/Version_1/zeroback(1)_v1.xlsx,Rule: Press 'space' when you see the letter 'x' or 'X'.,P,None,,,,,,,,,0,0,0,0,0,5,5,5,,,,,,,,,,,,,,,,,,,,,,,,,,,,,,,,,,,,,,,,,,,,,,,,,,,,,,,,,,,,,,,,,,,,,1.568,431.2870626,None,None,1,431.2870626,None,,P005,fencog,2,Post,2021_Jul_20_1148,N-Back (New Version 2021),2021.1.4,119.89157
,,,,Conditions/Version_1/zeroback(1)_v1.xlsx,Rule: Press 'space' when you see the letter 'x' or 'X'.,X,space,,,,,,,,,0,0,0,0,0,6,6,6,,,,,,,,,,,,,,,,,,,,,,,,,,,,,,,,,,,,,,,,,,,,,,,,,,,,,,,,,,,,,,,,,,,,,1.9462,435.2444456,None,space,1,435.2444456,None,0.3679111,P005,fencog,2,Post,2021_Jul_20_1148,N-Back (New Version 2021),2021.1.4,119.89157
,,,,Conditions/Version_1/zeroback(1)_v1.xlsx,Rule: Press 'space' when you see the letter 'x' or 'X'.,n,None,,,,,,,,,0,0,0,0,0,7,7,7,,,,,,,,,,,,,,,,,,,,,,,,,,,,,,,,,,,,,,,,,,,,,,,,,,,,,,,,,,,,,,,,,,,,,1.2952,438.5523832,None,None,1,438.5523832,None,,P005,fencog,2,Post,2021_Jul_20_1148,N-Back (New Version 2021),2021.1.4,119.89157
,,,,Conditions/Version_1/zeroback(1)_v1.xlsx,Rule: Press 'space' when you see the letter 'x' or 'X'.,M,None,,,,,,,,,0,0,0,0,0,8,8,8,,,,,,,,,,,,,,,,,,,,,,,,,,,,,,,,,,,,,,,,,,,,,,,,,,,,,,,,,,,,,,,,,,,,,1.5866,442.1534883,None,None,1,442.1534883,None,,P005,fencog,2,Post,2021_Jul_20_1148,N-Back (New Version 2021),2021.1.4,119.89157
,,,,Conditions/Version_1/zeroback(1)_v1.xlsx,Rule: Press 'space' when you see the letter 'x' or 'X'.,a,None,,,,,,,,,0,0,0,0,0,9,9,9,,,,,,,,,,,,,,,,,,,,,,,,,,,,,,,,,,,,,,,,,,,,,,,,,,,,,,,,,,,,,,,,,,,,,1.6052,445.7679441,None,None,1,445.7679441,None,,P005,fencog,2,Post,2021_Jul_20_1148,N-Back (New Version 2021),2021.1.4,119.89157
,,,,Conditions/Version_1/zeroback(1)_v1.xlsx,Rule: Press 'space' when you see the letter 'x' or 'X'.,,,,,,,,,,,0,0,0,0,,,,,,,,,,,,,,,,,,,,,,,,,,,,,,,,,,,,,,,,,,,,,,,,,,,,,,,,,,,,,,,,,,,,,,,,,,,,,,,,,P005,fencog,2,Post,2021_Jul_20_1148,N-Back (New Version 2021),2021.1.4,119.89157
,,,,Conditions/Version_1/oneback(1)_v1.xlsx,New rule: Press 'space' when you see 1-back (i.e. the same letter as the one that appeared 1 letter ago.),b,None,,,,,,,,,0,1,1,1,0,0,0,0,,,,,,,,,,,,,,,,,,,,,,,,,,,,,,,,,,,,,,,,,,,,,,,,,,,,,,,,,,,447.795926,None,450.780375,None,space,0.5916776,450.780375,None,447.795926,None,1.785,453.1821428,None,None,1,453.1821428,None,,P005,fencog,2,Post,2021_Jul_20_1148,N-Back (New Version 2021),2021.1.4,119.89157
,,,,Conditions/Version_1/oneback(1)_v1.xlsx,New rule: Press 'space' when you see 1-back (i.e. the same letter as the one that appeared 1 letter ago.),p,None,,,,,,,,,0,1,1,1,0,1,1,1,,,,,,,,,,,,,,,,,,,,,,,,,,,,,,,,,,,,,,,,,,,,,,,,,,,,,,,,,,,,,,,,,,,,,1.444,456.6395332,None,None,1,456.6395332,None,,P005,fencog,2,Post,2021_Jul_20_1148,N-Back (New Version 2021),2021.1.4,119.89157
,,,,Conditions/Version_1/oneback(1)_v1.xlsx,New rule: Press 'space' when you see 1-back (i.e. the same letter as the one that appeared 1 letter ago.),M,None,,,,,,,,,0,1,1,1,0,2,2,2,,,,,,,,,,,,,,,,,,,,,,,,,,,,,,,,,,,,,,,,,,,,,,,,,,,,,,,,,,,,,,,,,,,,,1.9896,460.6341651,None,None,1,460.6341651,None,,P005,fencog,2,Post,2021_Jul_20_1148,N-Back (New Version 2021),2021.1.4,119.89157
,,,,Conditions/Version_1/oneback(1)_v1.xlsx,New rule: Press 'space' when you see 1-back (i.e. the same letter as the one that appeared 1 letter ago.),M,space,,,,,,,,,0,1,1,1,0,3,3,3,,,,,,,,,,,,,,,,,,,,,,,,,,,,,,,,,,,,,,,,,,,,,,,,,,,,,,,,,,,,,,,,,,,,,1.2952,463.9335437,None,space,1,463.9335437,None,0.4939137,P005,fencog,2,Post,2021_Jul_20_1148,N-Back (New Version 2021),2021.1.4,119.89157
,,,,Conditions/Version_1/oneback(1)_v1.xlsx,New rule: Press 'space' when you see 1-back (i.e. the same letter as the one that appeared 1 letter ago.),n,None,,,,,,,,,0,1,1,1,0,4,4,4,,,,,,,,,,,,,,,,,,,,,,,,,,,,,,,,,,,,,,,,,,,,,,,,,,,,,,,,,,,,,,,,,,,,,1.8408,467.7758258,None,None,1,467.7758258,None,,P005,fencog,2,Post,2021_Jul_20_1148,N-Back (New Version 2021),2021.1.4,119.89157
,,,,Conditions/Version_1/oneback(1)_v1.xlsx,New rule: Press 'space' when you see 1-back (i.e. the same letter as the one that appeared 1 letter ago.),g,None,,,,,,,,,0,1,1,1,0,5,5,5,,,,,,,,,,,,,,,,,,,,,,,,,,,,,,,,,,,,,,,,,,,,,,,,,,,,,,,,,,,,,,,,,,,,,1.6362,471.4259125,None,None,1,471.4259125,None,,P005,fencog,2,Post,2021_Jul_20_1148,N-Back (New Version 2021),2021.1.4,119.89157
,,,,Conditions/Version_1/oneback(1)_v1.xlsx,New rule: Press 'space' when you see 1-back (i.e. the same letter as the one that appeared 1 letter ago.),P,None,,,,,,,,,0,1,1,1,0,6,6,6,,,,,,,,,,,,,,,,,,,,,,,,,,,,,,,,,,,,,,,,,,,,,,,,,,,,,,,,,,,,,,,,,,,,,1.01,474.4492935,None,None,1,474.4492935,None,,P005,fencog,2,Post,2021_Jul_20_1148,N-Back (New Version 2021),2021.1.4,119.89157
,,,,Conditions/Version_1/oneback(1)_v1.xlsx,New rule: Press 'space' when you see 1-back (i.e. the same letter as the one that appeared 1 letter ago.),o,None,,,,,,,,,0,1,1,1,0,7,7,7,,,,,,,,,,,,,,,,,,,,,,,,,,,,,,,,,,,,,,,,,,,,,,,,,,,,,,,,,,,,,,,,,,,,,1.7416,478.1969628,None,None,1,478.1969628,None,,P005,fencog,2,Post,2021_Jul_20_1148,N-Back (New Version 2021),2021.1.4,119.89157
,,,,Conditions/Version_1/oneback(1)_v1.xlsx,New rule: Press 'space' when you see 1-back (i.e. the same letter as the one that appeared 1 letter ago.),f,None,,,,,,,,,0,1,1,1,0,8,8,8,,,,,,,,,,,,,,,,,,,,,,,,,,,,,,,,,,,,,,,,,,,,,,,,,,,,,,,,,,,,,,,,,,,,,1.1712,481.3740951,None,None,1,481.3740951,None,,P005,fencog,2,Post,2021_Jul_20_1148,N-Back (New Version 2021),2021.1.4,119.89157
,,,,Conditions/Version_1/oneback(1)_v1.xlsx,New rule: Press 'space' when you see 1-back (i.e. the same letter as the one that appeared 1 letter ago.),F,space,,,,,,,,,0,1,1,1,0,9,9,9,,,,,,,,,,,,,,,,,,,,,,,,,,,,,,,,,,,,,,,,,,,,,,,,,,,,,,,,,,,,,,,,,,,,,1.6858,485.0696726,None,space,1,485.0696726,None,0.6142492,P005,fencog,2,Post,2021_Jul_20_1148,N-Back (New Version 2021),2021.1.4,119.89157
,,,,Conditions/Version_1/oneback(1)_v1.xlsx,New rule: Press 'space' when you see 1-back (i.e. the same letter as the one that appeared 1 letter ago.),,,,,,,,,,,0,1,1,1,,,,,,,,,,,,,,,,,,,,,,,,,,,,,,,,,,,,,,,,,,,,,,,,,,,,,,,,,,,,,,,,,,,,,,,,,,,,,,,,,P005,fencog,2,Post,2021_Jul_20_1148,N-Back (New Version 2021),2021.1.4,119.89157
,,,,Conditions/Version_1/twoback(1)_v1.xlsx,New rule: Press 'space' when you see 2-back (i.e. the same letter as the one that appeared 2 letters ago.),b,None,,,,,,,,,0,2,2,2,0,0,0,0,,,,,,,,,,,,,,,,,,,,,,,,,,,,,,,,,,,,,,,,,,,,,,,,,,,,,,,,,,,487.1079817,None,490.0863304,None,space,0.3178561,490.0863304,None,487.1079817,None,1.0968,491.5262075,None,None,1,491.5262075,None,,P005,fencog,2,Post,2021_Jul_20_1148,N-Back (New Version 2021),2021.1.4,119.89157
,,,,Conditions/Version_1/twoback(1)_v1.xlsx,New rule: Press 'space' when you see 2-back (i.e. the same letter as the one that appeared 2 letters ago.),h,None,,,,,,,,,0,2,2,2,0,1,1,1,,,,,,,,,,,,,,,,,,,,,,,,,,,,,,,,,,,,,,,,,,,,,,,,,,,,,,,,,,,,,,,,,,,,,1.9028,495.4441374,None,None,1,495.4441374,None,,P005,fencog,2,Post,2021_Jul_20_1148,N-Back (New Version 2021),2021.1.4,119.89157
,,,,Conditions/Version_1/twoback(1)_v1.xlsx,New rule: Press 'space' when you see 2-back (i.e. the same letter as the one that appeared 2 letters ago.),j,None,,,,,,,,,0,2,2,2,0,2,2,2,,,,,,,,,,,,,,,,,,,,,,,,,,,,,,,,,,,,,,,,,,,,,,,,,,,,,,,,,,,,,,,,,,,,,1.5742,499.0270618,None,None,1,499.0270618,None,,P005,fencog,2,Post,2021_Jul_20_1148,N-Back (New Version 2021),2021.1.4,119.89157
,,,,Conditions/Version_1/twoback(1)_v1.xlsx,New rule: Press 'space' when you see 2-back (i.e. the same letter as the one that appeared 2 letters ago.),H,space,,,,,,,,,0,2,2,2,0,3,3,3,,,,,,,,,,,,,,,,,,,,,,,,,,,,,,,,,,,,,,,,,,,,,,,,,,,,,,,,,,,,,,,,,,,,,1.3324,502.3667393,None,space,1,502.3667393,None,0.4213682,P005,fencog,2,Post,2021_Jul_20_1148,N-Back (New Version 2021),2021.1.4,119.89157
,,,,Conditions/Version_1/twoback(1)_v1.xlsx,New rule: Press 'space' when you see 2-back (i.e. the same letter as the one that appeared 2 letters ago.),p,None,,,,,,,,,0,2,2,2,0,4,4,4,,,,,,,,,,,,,,,,,,,,,,,,,,,,,,,,,,,,,,,,,,,,,,,,,,,,,,,,,,,,,,,,,,,,,1.8656,506.2394929,None,None,1,506.2394929,None,,P005,fencog,2,Post,2021_Jul_20_1148,N-Back (New Version 2021),2021.1.4,119.89157
,,,,Conditions/Version_1/twoback(1)_v1.xlsx,New rule: Press 'space' when you see 2-back (i.e. the same letter as the one that appeared 2 letters ago.),p,None,,,,,,,,,0,2,2,2,0,5,5,5,,,,,,,,,,,,,,,,,,,,,,,,,,,,,,,,,,,,,,,,,,,,,,,,,,,,,,,,,,,,,,,,,,,,,1.2642,509.5117416,None,None,1,509.5117416,None,,P005,fencog,2,Post,2021_Jul_20_1148,N-Back (New Version 2021),2021.1.4,119.89157
,,,,Conditions/Version_1/twoback(1)_v1.xlsx,New rule: Press 'space' when you see 2-back (i.e. the same letter as the one that appeared 2 letters ago.),w,None,,,,,,,,,0,2,2,2,0,6,6,6,,,,,,,,,,,,,,,,,,,,,,,,,,,,,,,,,,,,,,,,,,,,,,,,,,,,,,,,,,,,,,,,,,,,,1.3696,512.8952731,None,None,1,512.8952731,None,,P005,fencog,2,Post,2021_Jul_20_1148,N-Back (New Version 2021),2021.1.4,119.89157
,,,,Conditions/Version_1/twoback(1)_v1.xlsx,New rule: Press 'space' when you see 2-back (i.e. the same letter as the one that appeared 2 letters ago.),R,None,,,,,,,,,0,2,2,2,0,7,7,7,,,,,,,,,,,,,,,,,,,,,,,,,,,,,,,,,,,,,,,,,,,,,,,,,,,,,,,,,,,,,,,,,,,,,1.072,515.9681989,None,None,1,515.9681989,None,,P005,fencog,2,Post,2021_Jul_20_1148,N-Back (New Version 2021),2021.1.4,119.89157
,,,,Conditions/Version_1/twoback(1)_v1.xlsx,New rule: Press 'space' when you see 2-back (i.e. the same letter as the one that appeared 2 letters ago.),a,None,,,,,,,,,0,2,2,2,0,8,8,8,,,,,,,,,,,,,,,,,,,,,,,,,,,,,,,,,,,,,,,,,,,,,,,,,,,,,,,,,,,,,,,,,,,,,1.0348,519.0097843,None,None,1,519.0097843,None,,P005,fencog,2,Post,2021_Jul_20_1148,N-Back (New Version 2021),2021.1.4,119.89157
,,,,Conditions/Version_1/twoback(1)_v1.xlsx,New rule: Press 'space' when you see 2-back (i.e. the same letter as the one that appeared 2 letters ago.),r,space,,,,,,,,,0,2,2,2,0,9,9,9,,,,,,,,,,,,,,,,,,,,,,,,,,,,,,,,,,,,,,,,,,,,,,,,,,,,,,,,,,,,,,,,,,,,,1.6796,522.7016382,None,space,1,522.7016382,None,0.5745284,P005,fencog,2,Post,2021_Jul_20_1148,N-Back (New Version 2021),2021.1.4,119.89157
,,,,Conditions/Version_1/twoback(1)_v1.xlsx,New rule: Press 'space' when you see 2-back (i.e. the same letter as the one that appeared 2 letters ago.),,,,,,,,,,,0,2,2,2,,,,,,,,,,,,,,,,,,,,,,,,,,,,,,,,,,,,,,,,,,,,,,,,,,,,,,,,,,,,,,,,,,,,,,,,,,,,,,,,,P005,fencog,2,Post,2021_Jul_20_1148,N-Back (New Version 2021),2021.1.4,119.89157
,,,,Conditions/Version_1/threeback(1)_v1.xlsx,New rule: Press 'space' when you see 3-back (i.e. the same letter as the one that appeared 3 letters ago.),r,None,,,,,,,,,0,3,3,3,0,0,0,0,,,,,,,,,,,,,,,,,,,,,,,,,,,,,,,,,,,,,,,,,,,,,,,,,,,,,,,,,,,524.7289792,None,527.7168748,None,space,1.111368,527.7168748,None,524.7289792,None,1.6362,530.4887243,None,None,1,530.4887243,None,,P005,fencog,2,Post,2021_Jul_20_1148,N-Back (New Version 2021),2021.1.4,119.89157
,,,,Conditions/Version_1/threeback(1)_v1.xlsx,New rule: Press 'space' when you see 3-back (i.e. the same letter as the one that appeared 3 letters ago.),o,None,,,,,,,,,0,3,3,3,0,1,1,1,,,,,,,,,,,,,,,,,,,,,,,,,,,,,,,,,,,,,,,,,,,,,,,,,,,,,,,,,,,,,,,,,,,,,1.8718,534.3625966,None,None,1,534.3625966,None,,P005,fencog,2,Post,2021_Jul_20_1148,N-Back (New Version 2021),2021.1.4,119.89157
,,,,Conditions/Version_1/threeback(1)_v1.xlsx,New rule: Press 'space' when you see 3-back (i.e. the same letter as the one that appeared 3 letters ago.),P,None,,,,,,,,,0,3,3,3,0,2,2,2,,,,,,,,,,,,,,,,,,,,,,,,,,,,,,,,,,,,,,,,,,,,,,,,,,,,,,,,,,,,,,,,,,,,,1.9834,538.3467413,None,None,1,538.3467413,None,,P005,fencog,2,Post,2021_Jul_20_1148,N-Back (New Version 2021),2021.1.4,119.89157
,,,,Conditions/Version_1/threeback(1)_v1.xlsx,New rule: Press 'space' when you see 3-back (i.e. the same letter as the one that appeared 3 letters ago.),R,space,,,,,,,,,0,3,3,3,0,3,3,3,,,,,,,,,,,,,,,,,,,,,,,,,,,,,,,,,,,,,,,,,,,,,,,,,,,,,,,,,,,,,,,,,,,,,1.2456,541.6089409,None,space,1,541.6089409,None,0.8833632,P005,fencog,2,Post,2021_Jul_20_1148,N-Back (New Version 2021),2021.1.4,119.89157
,,,,Conditions/Version_1/threeback(1)_v1.xlsx,New rule: Press 'space' when you see 3-back (i.e. the same letter as the one that appeared 3 letters ago.),p,None,,,,,,,,,0,3,3,3,0,4,4,4,,,,,,,,,,,,,,,,,,,,,,,,,,,,,,,,,,,,,,,,,,,,,,,,,,,,,,,,,,,,,,,,,,,,,1.7478,545.3611108,None,None,1,545.3611108,None,,P005,fencog,2,Post,2021_Jul_20_1148,N-Back (New Version 2021),2021.1.4,119.89157
,,,,Conditions/Version_1/threeback(1)_v1.xlsx,New rule: Press 'space' when you see 3-back (i.e. the same letter as the one that appeared 3 letters ago.),E,None,,,,,,,,,0,3,3,3,0,5,5,5,,,,,,,,,,,,,,,,,,,,,,,,,,,,,,,,,,,,,,,,,,,,,,,,,,,,,,,,,,,,,,,,,,,,,1.9524,549.3257997,None,None,1,549.3257997,None,,P005,fencog,2,Post,2021_Jul_20_1148,N-Back (New Version 2021),2021.1.4,119.89157
,,,,Conditions/Version_1/threeback(1)_v1.xlsx,New rule: Press 'space' when you see 3-back (i.e. the same letter as the one that appeared 3 letters ago.),e,None,,,,,,,,,0,3,3,3,0,6,6,6,,,,,,,,,,,,,,,,,,,,,,,,,,,,,,,,,,,,,,,,,,,,,,,,,,,,,,,,,,,,,,,,,,,,,1.4316,552.7696005,None,None,1,552.7696005,None,,P005,fencog,2,Post,2021_Jul_20_1148,N-Back (New Version 2021),2021.1.4,119.89157
,,,,Conditions/Version_1/threeback(1)_v1.xlsx,New rule: Press 'space' when you see 3-back (i.e. the same letter as the one that appeared 3 letters ago.),m,None,,,,,,,,,0,3,3,3,0,7,7,7,,,,,,,,,,,,,,,,,,,,,,,,,,,,,,,,,,,,,,,,,,,,,,,,,,,,,,,,,,,,,,,,,,,,,1.1216,555.8978984,None,None,1,555.8978984,None,,P005,fencog,2,Post,2021_Jul_20_1148,N-Back (New Version 2021),2021.1.4,119.89157
,,,,Conditions/Version_1/threeback(1)_v1.xlsx,New rule: Press 'space' when you see 3-back (i.e. the same letter as the one that appeared 3 letters ago.),n,None,,,,,,,,,0,3,3,3,0,8,8,8,,,,,,,,,,,,,,,,,,,,,,,,,,,,,,,,,,,,,,,,,,,,,,,,,,,,,,,,,,,,,,,,,,,,,1.3014,559.2073472,None,None,1,559.2073472,None,,P005,fencog,2,Post,2021_Jul_20_1148,N-Back (New Version 2021),2021.1.4,119.89157
,,,,Conditions/Version_1/threeback(1)_v1.xlsx,New rule: Press 'space' when you see 3-back (i.e. the same letter as the one that appeared 3 letters ago.),e,space,,,,,,,,,0,3,3,3,0,9,9,9,,,,,,,,,,,,,,,,,,,,,,,,,,,,,,,,,,,,,,,,,,,,,,,,,,,,,,,,,,,,,,,,,,,,,1.7726,562.9875235,None,space,1,562.9875235,None,0.768629,P005,fencog,2,Post,2021_Jul_20_1148,N-Back (New Version 2021),2021.1.4,119.89157
,,,,Conditions/Version_1/threeback(1)_v1.xlsx,New rule: Press 'space' when you see 3-back (i.e. the same letter as the one that appeared 3 letters ago.),,,,,,,,,,,0,3,3,3,,,,,,,,,,,,,,,,,,,,,,,,,,,,,,,,,,,,,,,,,,,,,,,,,,,,,,,,,,,,,,,,,,,,,,,,,,,,,,,,,P005,fencog,2,Post,2021_Jul_20_1148,N-Back (New Version 2021),2021.1.4,119.89157
,,,,Conditions/Version_1/oneback(2)_v1.xlsx,New rule: Press 'space' when you see 1-back (i.e. the same letter as the one that appeared 1 letter ago.),q,None,,,,,,,,,0,4,4,4,0,0,0,0,,,,,,,,,,,,,,,,,,,,,,,,,,,,,,,,,,,,,,,,,,,,,,,,,,,,,,,,,,,565.0153048,None,567.996454,None,space,0.3356396,567.996454,None,565.0153048,None,1.2332,569.5877639,None,None,1,569.5877639,None,,P005,fencog,2,Post,2021_Jul_20_1148,N-Back (New Version 2021),2021.1.4,119.89157
,,,,Conditions/Version_1/oneback(2)_v1.xlsx,New rule: Press 'space' when you see 1-back (i.e. the same letter as the one that appeared 1 letter ago.),Q,space,,,,,,,,,0,4,4,4,0,1,1,1,,,,,,,,,,,,,,,,,,,,,,,,,,,,,,,,,,,,,,,,,,,,,,,,,,,,,,,,,,,,,,,,,,,,,1.3944,572.9951542,None,space,1,572.9951542,None,0.3449322,P005,fencog,2,Post,2021_Jul_20_1148,N-Back (New Version 2021),2021.1.4,119.89157
,,,,Conditions/Version_1/oneback(2)_v1.xlsx,New rule: Press 'space' when you see 1-back (i.e. the same letter as the one that appeared 1 letter ago.),P,None,,,,,,,,,0,4,4,4,0,2,2,2,,,,,,,,,,,,,,,,,,,,,,,,,,,,,,,,,,,,,,,,,,,,,,,,,,,,,,,,,,,,,,,,,,,,,1.1588,576.1585853,None,None,1,576.1585853,None,,P005,fencog,2,Post,2021_Jul_20_1148,N-Back (New Version 2021),2021.1.4,119.89157
,,,,Conditions/Version_1/oneback(2)_v1.xlsx,New rule: Press 'space' when you see 1-back (i.e. the same letter as the one that appeared 1 letter ago.),o,None,,,,,,,,,0,4,4,4,0,3,3,3,,,,,,,,,,,,,,,,,,,,,,,,,,,,,,,,,,,,,,,,,,,,,,,,,,,,,,,,,,,,,,,,,,,,,1.9772,580.1444721,None,None,1,580.1444721,None,,P005,fencog,2,Post,2021_Jul_20_1148,N-Back (New Version 2021),2021.1.4,119.89157
,,,,Conditions/Version_1/oneback(2)_v1.xlsx,New rule: Press 'space' when you see 1-back (i.e. the same letter as the one that appeared 1 letter ago.),m,None,,,,,,,,,0,4,4,4,0,4,4,4,,,,,,,,,,,,,,,,,,,,,,,,,,,,,,,,,,,,,,,,,,,,,,,,,,,,,,,,,,,,,,,,,,,,,1.227,583.3824236,None,None,1,583.3824236,None,,P005,fencog,2,Post,2021_Jul_20_1148,N-Back (New Version 2021),2021.1.4,119.89157
,,,,Conditions/Version_1/oneback(2)_v1.xlsx,New rule: Press 'space' when you see 1-back (i.e. the same letter as the one that appeared 1 letter ago.),Z,None,,,,,,,,,0,4,4,4,0,5,5,5,,,,,,,,,,,,,,,,,,,,,,,,,,,,,,,,,,,,,,,,,,,,,,,,,,,,,,,,,,,,,,,,,,,,,1.7974,587.189969,None,None,1,587.189969,None,,P005,fencog,2,Post,2021_Jul_20_1148,N-Back (New Version 2021),2021.1.4,119.89157
,,,,Conditions/Version_1/oneback(2)_v1.xlsx,New rule: Press 'space' when you see 1-back (i.e. the same letter as the one that appeared 1 letter ago.),c,None,,,,,,,,,0,4,4,4,0,6,6,6,,,,,,,,,,,,,,,,,,,,,,,,,,,,,,,,,,,,,,,,,,,,,,,,,,,,,,,,,,,,,,,,,,,,,1.3634,590.5671579,None,None,1,590.5671579,None,,P005,fencog,2,Post,2021_Jul_20_1148,N-Back (New Version 2021),2021.1.4,119.89157
,,,,Conditions/Version_1/oneback(2)_v1.xlsx,New rule: Press 'space' when you see 1-back (i.e. the same letter as the one that appeared 1 letter ago.),c,space,,,,,,,,,0,4,4,4,0,7,7,7,,,,,,,,,,,,,,,,,,,,,,,,,,,,,,,,,,,,,,,,,,,,,,,,,,,,,,,,,,,,,,,,,,,,,1.5618,594.1365758,None,space,1,594.1365758,None,0.7706247,P005,fencog,2,Post,2021_Jul_20_1148,N-Back (New Version 2021),2021.1.4,119.89157
,,,,Conditions/Version_1/oneback(2)_v1.xlsx,New rule: Press 'space' when you see 1-back (i.e. the same letter as the one that appeared 1 letter ago.),P,None,,,,,,,,,0,4,4,4,0,8,8,8,,,,,,,,,,,,,,,,,,,,,,,,,,,,,,,,,,,,,,,,,,,,,,,,,,,,,,,,,,,,,,,,,,,,,1.4688,597.611453,None,None,1,597.611453,None,,P005,fencog,2,Post,2021_Jul_20_1148,N-Back (New Version 2021),2021.1.4,119.89157
,,,,Conditions/Version_1/oneback(2)_v1.xlsx,New rule: Press 'space' when you see 1-back (i.e. the same letter as the one that appeared 1 letter ago.),p,space,,,,,,,,,0,4,4,4,0,9,9,9,,,,,,,,,,,,,,,,,,,,,,,,,,,,,,,,,,,,,,,,,,,,,,,,,,,,,,,,,,,,,,,,,,,,,1.4316,601.0533087,None,space,1,601.0533087,None,0.9107284,P005,fencog,2,Post,2021_Jul_20_1148,N-Back (New Version 2021),2021.1.4,119.89157
,,,,Conditions/Version_1/oneback(2)_v1.xlsx,New rule: Press 'space' when you see 1-back (i.e. the same letter as the one that appeared 1 letter ago.),,,,,,,,,,,0,4,4,4,,,,,,,,,,,,,,,,,,,,,,,,,,,,,,,,,,,,,,,,,,,,,,,,,,,,,,,,,,,,,,,,,,,,,,,,,,,,,,,,,P005,fencog,2,Post,2021_Jul_20_1148,N-Back (New Version 2021),2021.1.4,119.89157
,,,,Conditions/Version_1/zeroback(2)_v1.xlsx,New rule: Press 'space' when you see the letter 'x' or 'X'.,p,None,,,,,,,,,0,5,5,5,0,0,0,0,,,,,,,,,,,,,,,,,,,,,,,,,,,,,,,,,,,,,,,,,,,,,,,,,,,,,,,,,,,603.082877,None,606.068239,None,space,0.4636628,606.068239,None,603.082877,None,1.94,608.4989586,None,None,1,608.4989586,None,,P005,fencog,2,Post,2021_Jul_20_1148,N-Back (New Version 2021),2021.1.4,119.89157
,,,,Conditions/Version_1/zeroback(2)_v1.xlsx,New rule: Press 'space' when you see the letter 'x' or 'X'.,L,None,,,,,,,,,0,5,5,5,0,1,1,1,,,,,,,,,,,,,,,,,,,,,,,,,,,,,,,,,,,,,,,,,,,,,,,,,,,,,,,,,,,,,,,,,,,,,1.5804,612.0812664,None,None,1,612.0812664,None,,P005,fencog,2,Post,2021_Jul_20_1148,N-Back (New Version 2021),2021.1.4,119.89157
,,,,Conditions/Version_1/zeroback(2)_v1.xlsx,New rule: Press 'space' when you see the letter 'x' or 'X'.,G,None,,,,,,,,,0,5,5,5,0,2,2,2,,,,,,,,,,,,,,,,,,,,,,,,,,,,,,,,,,,,,,,,,,,,,,,,,,,,,,,,,,,,,,,,,,,,,1.4378,615.5265178,None,None,1,615.5265178,None,,P005,fencog,2,Post,2021_Jul_20_1148,N-Back (New Version 2021),2021.1.4,119.89157
,,,,Conditions/Version_1/zeroback(2)_v1.xlsx,New rule: Press 'space' when you see the letter 'x' or 'X'.,y,None,,,,,,,,,0,5,5,5,0,3,3,3,,,,,,,,,,,,,,,,,,,,,,,,,,,,,,,,,,,,,,,,,,,,,,,,,,,,,,,,,,,,,,,,,,,,,1.8036,619.3373288,None,None,1,619.3373288,None,,P005,fencog,2,Post,2021_Jul_20_1148,N-Back (New Version 2021),2021.1.4,119.89157
,,,,Conditions/Version_1/zeroback(2)_v1.xlsx,New rule: Press 'space' when you see the letter 'x' or 'X'.,Y,None,,,,,,,,,0,5,5,5,0,4,4,4,,,,,,,,,,,,,,,,,,,,,,,,,,,,,,,,,,,,,,,,,,,,,,,,,,,,,,,,,,,,,,,,,,,,,1.4502,622.7958865,None,None,1,622.7958865,None,,P005,fencog,2,Post,2021_Jul_20_1148,N-Back (New Version 2021),2021.1.4,119.89157
,,,,Conditions/Version_1/zeroback(2)_v1.xlsx,New rule: Press 'space' when you see the letter 'x' or 'X'.,W,None,,,,,,,,,0,5,5,5,0,5,5,5,,,,,,,,,,,,,,,,,,,,,,,,,,,,,,,,,,,,,,,,,,,,,,,,,,,,,,,,,,,,,,,,,,,,,1.227,626.0359811,None,None,1,626.0359811,None,,P005,fencog,2,Post,2021_Jul_20_1148,N-Back (New Version 2021),2021.1.4,119.89157
,,,,Conditions/Version_1/zeroback(2)_v1.xlsx,New rule: Press 'space' when you see the letter 'x' or 'X'.,x,space,,,,,,,,,0,5,5,5,0,6,6,6,,,,,,,,,,,,,,,,,,,,,,,,,,,,,,,,,,,,,,,,,,,,,,,,,,,,,,,,,,,,,,,,,,,,,1.537,629.5784582,None,space,1,629.5784582,None,0.3695779,P005,fencog,2,Post,2021_Jul_20_1148,N-Back (New Version 2021),2021.1.4,119.89157
,,,,Conditions/Version_1/zeroback(2)_v1.xlsx,New rule: Press 'space' when you see the letter 'x' or 'X'.,X,space,,,,,,,,,0,5,5,5,0,7,7,7,,,,,,,,,,,,,,,,,,,,,,,,,,,,,,,,,,,,,,,,,,,,,,,,,,,,,,,,,,,,,,,,,,,,,1.134,632.7249264,None,space,1,632.7249264,None,0.4070829,P005,fencog,2,Post,2021_Jul_20_1148,N-Back (New Version 2021),2021.1.4,119.89157
,,,,Conditions/Version_1/zeroback(2)_v1.xlsx,New rule: Press 'space' when you see the letter 'x' or 'X'.,p,None,,,,,,,,,0,5,5,5,0,8,8,8,,,,,,,,,,,,,,,,,,,,,,,,,,,,,,,,,,,,,,,,,,,,,,,,,,,,,,,,,,,,,,,,,,,,,1.5246,636.2513569,None,None,1,636.2513569,None,,P005,fencog,2,Post,2021_Jul_20_1148,N-Back (New Version 2021),2021.1.4,119.89157
,,,,Conditions/Version_1/zeroback(2)_v1.xlsx,New rule: Press 'space' when you see the letter 'x' or 'X'.,h,None,,,,,,,,,0,5,5,5,0,9,9,9,,,,,,,,,,,,,,,,,,,,,,,,,,,,,,,,,,,,,,,,,,,,,,,,,,,,,,,,,,,,,,,,,,,,,1.9152,640.1748063,None,None,1,640.1748063,None,,P005,fencog,2,Post,2021_Jul_20_1148,N-Back (New Version 2021),2021.1.4,119.89157
,,,,Conditions/Version_1/zeroback(2)_v1.xlsx,New rule: Press 'space' when you see the letter 'x' or 'X'.,,,,,,,,,,,0,5,5,5,,,,,,,,,,,,,,,,,,,,,,,,,,,,,,,,,,,,,,,,,,,,,,,,,,,,,,,,,,,,,,,,,,,,,,,,,,,,,,,,,P005,fencog,2,Post,2021_Jul_20_1148,N-Back (New Version 2021),2021.1.4,119.89157
,,,,Conditions/Version_1/threeback(2)_v1.xlsx,New rule: Press 'space' when you see 3-back (i.e. the same letter as the one that appeared 3 letters ago.),q,None,,,,,,,,,0,6,6,6,0,0,0,0,,,,,,,,,,,,,,,,,,,,,,,,,,,,,,,,,,,,,,,,,,,,,,,,,,,,,,,,,,,642.2029948,None,645.1904695,None,space,0.3974048,645.1904695,None,642.2029948,None,1.971,647.5811401,None,None,1,647.5811401,None,,P005,fencog,2,Post,2021_Jul_20_1148,N-Back (New Version 2021),2021.1.4,119.89157
,,,,Conditions/Version_1/threeback(2)_v1.xlsx,New rule: Press 'space' when you see 3-back (i.e. the same letter as the one that appeared 3 letters ago.),Y,None,,,,,,,,,0,6,6,6,0,1,1,1,,,,,,,,,,,,,,,,,,,,,,,,,,,,,,,,,,,,,,,,,,,,,,,,,,,,,,,,,,,,,,,,,,,,,1.1154,650.7060401,None,None,1,650.7060401,None,,P005,fencog,2,Post,2021_Jul_20_1148,N-Back (New Version 2021),2021.1.4,119.89157
,,,,Conditions/Version_1/threeback(2)_v1.xlsx,New rule: Press 'space' when you see 3-back (i.e. the same letter as the one that appeared 3 letters ago.),p,None,,,,,,,,,0,6,6,6,0,2,2,2,,,,,,,,,,,,,,,,,,,,,,,,,,,,,,,,,,,,,,,,,,,,,,,,,,,,,,,,,,,,,,,,,,,,,1.9896,654.7055448,None,None,1,654.7055448,None,,P005,fencog,2,Post,2021_Jul_20_1148,N-Back (New Version 2021),2021.1.4,119.89157
,,,,Conditions/Version_1/threeback(2)_v1.xlsx,New rule: Press 'space' when you see 3-back (i.e. the same letter as the one that appeared 3 letters ago.),p,None,,,,,,,,,0,6,6,6,0,3,3,3,,,,,,,,,,,,,,,,,,,,,,,,,,,,,,,,,,,,,,,,,,,,,,,,,,,,,,,,,,,,,,,,,,,,,1.3014,658.0177679,None,None,1,658.0177679,None,,P005,fencog,2,Post,2021_Jul_20_1148,N-Back (New Version 2021),2021.1.4,119.89157
,,,,Conditions/Version_1/threeback(2)_v1.xlsx,New rule: Press 'space' when you see 3-back (i.e. the same letter as the one that appeared 3 letters ago.),y,space,,,,,,,,,0,6,6,6,0,4,4,4,,,,,,,,,,,,,,,,,,,,,,,,,,,,,,,,,,,,,,,,,,,,,,,,,,,,,,,,,,,,,,,,,,,,,1.5494,661.5697283,None,space,1,661.5697283,None,1.7064871,P005,fencog,2,Post,2021_Jul_20_1148,N-Back (New Version 2021),2021.1.4,119.89157
,,,,Conditions/Version_1/threeback(2)_v1.xlsx,New rule: Press 'space' when you see 3-back (i.e. the same letter as the one that appeared 3 letters ago.),u,None,,,,,,,,,0,6,6,6,0,5,5,5,,,,,,,,,,,,,,,,,,,,,,,,,,,,,,,,,,,,,,,,,,,,,,,,,,,,,,,,,,,,,,,,,,,,,1.9028,665.4832521,None,None,1,665.4832521,None,,P005,fencog,2,Post,2021_Jul_20_1148,N-Back (New Version 2021),2021.1.4,119.89157
,,,,Conditions/Version_1/threeback(2)_v1.xlsx,New rule: Press 'space' when you see 3-back (i.e. the same letter as the one that appeared 3 letters ago.),P,space,,,,,,,,,0,6,6,6,0,6,6,6,,,,,,,,,,,,,,,,,,,,,,,,,,,,,,,,,,,,,,,,,,,,,,,,,,,,,,,,,,,,,,,,,,,,,1.816,669.305952,None,space,1,669.305952,None,1.073598,P005,fencog,2,Post,2021_Jul_20_1148,N-Back (New Version 2021),2021.1.4,119.89157
,,,,Conditions/Version_1/threeback(2)_v1.xlsx,New rule: Press 'space' when you see 3-back (i.e. the same letter as the one that appeared 3 letters ago.),a,None,,,,,,,,,0,6,6,6,0,7,7,7,,,,,,,,,,,,,,,,,,,,,,,,,,,,,,,,,,,,,,,,,,,,,,,,,,,,,,,,,,,,,,,,,,,,,1.01,672.3251409,None,None,1,672.3251409,None,,P005,fencog,2,Post,2021_Jul_20_1148,N-Back (New Version 2021),2021.1.4,119.89157
,,,,Conditions/Version_1/threeback(2)_v1.xlsx,New rule: Press 'space' when you see 3-back (i.e. the same letter as the one that appeared 3 letters ago.),U,space,,,,,,,,,0,6,6,6,0,8,8,8,,,,,,,,,,,,,,,,,,,,,,,,,,,,,,,,,,,,,,,,,,,,,,,,,,,,,,,,,,,,,,,,,,,,,1.5308,675.8685845,None,space,1,675.8685845,None,0.9433479,P005,fencog,2,Post,2021_Jul_20_1148,N-Back (New Version 2021),2021.1.4,119.89157
,,,,Conditions/Version_1/threeback(2)_v1.xlsx,New rule: Press 'space' when you see 3-back (i.e. the same letter as the one that appeared 3 letters ago.),q,None,,,,,,,,,0,6,6,6,0,9,9,9,,,,,,,,,,,,,,,,,,,,,,,,,,,,,,,,,,,,,,,,,,,,,,,,,,,,,,,,,,,,,,,,,,,,,1.7974,679.671509,None,None,1,679.671509,None,,P005,fencog,2,Post,2021_Jul_20_1148,N-Back (New Version 2021),2021.1.4,119.89157
,,,,Conditions/Version_1/threeback(2)_v1.xlsx,New rule: Press 'space' when you see 3-back (i.e. the same letter as the one that appeared 3 letters ago.),,,,,,,,,,,0,6,6,6,,,,,,,,,,,,,,,,,,,,,,,,,,,,,,,,,,,,,,,,,,,,,,,,,,,,,,,,,,,,,,,,,,,,,,,,,,,,,,,,,P005,fencog,2,Post,2021_Jul_20_1148,N-Back (New Version 2021),2021.1.4,119.89157
,,,,Conditions/Version_1/twoback(2)_v1.xlsx,New rule: Press 'space' when you see 2-back (i.e. the same letter as the one that appeared 2 letters ago.),q,None,,,,,,,,,0,7,7,7,0,0,0,0,,,,,,,,,,,,,,,,,,,,,,,,,,,,,,,,,,,,,,,,,,,,,,,,,,,,,,,,,,,681.7004176,None,684.6870956,None,space,0.3967633,684.6870956,None,681.7004176,None,1.3572,686.4676043,None,None,1,686.4676043,None,,P005,fencog,2,Post,2021_Jul_20_1148,N-Back (New Version 2021),2021.1.4,119.89157
,,,,Conditions/Version_1/twoback(2)_v1.xlsx,New rule: Press 'space' when you see 2-back (i.e. the same letter as the one that appeared 2 letters ago.),r,None,,,,,,,,,0,7,7,7,0,1,1,1,,,,,,,,,,,,,,,,,,,,,,,,,,,,,,,,,,,,,,,,,,,,,,,,,,,,,,,,,,,,,,,,,,,,,1.9586,690.4370383,None,None,1,690.4370383,None,,P005,fencog,2,Post,2021_Jul_20_1148,N-Back (New Version 2021),2021.1.4,119.89157
,,,,Conditions/Version_1/twoback(2)_v1.xlsx,New rule: Press 'space' when you see 2-back (i.e. the same letter as the one that appeared 2 letters ago.),q,space,,,,,,,,,0,7,7,7,0,2,2,2,,,,,,,,,,,,,,,,,,,,,,,,,,,,,,,,,,,,,,,,,,,,,,,,,,,,,,,,,,,,,,,,,,,,,1.7788,694.2236263,None,space,1,694.2236263,None,1.1401872,P005,fencog,2,Post,2021_Jul_20_1148,N-Back (New Version 2021),2021.1.4,119.89157
,,,,Conditions/Version_1/twoback(2)_v1.xlsx,New rule: Press 'space' when you see 2-back (i.e. the same letter as the one that appeared 2 letters ago.),P,None,,,,,,,,,0,7,7,7,0,3,3,3,,,,,,,,,,,,,,,,,,,,,,,,,,,,,,,,,,,,,,,,,,,,,,,,,,,,,,,,,,,,,,,,,,,,,1.6548,697.8852184,None,None,1,697.8852184,None,,P005,fencog,2,Post,2021_Jul_20_1148,N-Back (New Version 2021),2021.1.4,119.89157
,,,,Conditions/Version_1/twoback(2)_v1.xlsx,New rule: Press 'space' when you see 2-back (i.e. the same letter as the one that appeared 2 letters ago.),p,None,,,,,,,,,0,7,7,7,0,4,4,4,,,,,,,,,,,,,,,,,,,,,,,,,,,,,,,,,,,,,,,,,,,,,,,,,,,,,,,,,,,,,,,,,,,,,1.4626,701.3556781,None,None,1,701.3556781,None,,P005,fencog,2,Post,2021_Jul_20_1148,N-Back (New Version 2021),2021.1.4,119.89157
,,,,Conditions/Version_1/twoback(2)_v1.xlsx,New rule: Press 'space' when you see 2-back (i.e. the same letter as the one that appeared 2 letters ago.),H,None,,,,,,,,,0,7,7,7,0,5,5,5,,,,,,,,,,,,,,,,,,,,,,,,,,,,,,,,,,,,,,,,,,,,,,,,,,,,,,,,,,,,,,,,,,,,,1.8904,705.2557897,None,None,1,705.2557897,None,,P005,fencog,2,Post,2021_Jul_20_1148,N-Back (New Version 2021),2021.1.4,119.89157
,,,,Conditions/Version_1/twoback(2)_v1.xlsx,New rule: Press 'space' when you see 2-back (i.e. the same letter as the one that appeared 2 letters ago.),g,None,,,,,,,,,0,7,7,7,0,6,6,6,,,,,,,,,,,,,,,,,,,,,,,,,,,,,,,,,,,,,,,,,,,,,,,,,,,,,,,,,,,,,,,,,,,,,1.909,709.1796617,None,None,1,709.1796617,None,,P005,fencog,2,Post,2021_Jul_20_1148,N-Back (New Version 2021),2021.1.4,119.89157
,,,,Conditions/Version_1/twoback(2)_v1.xlsx,New rule: Press 'space' when you see 2-back (i.e. the same letter as the one that appeared 2 letters ago.),j,None,,,,,,,,,0,7,7,7,0,7,7,7,,,,,,,,,,,,,,,,,,,,,,,,,,,,,,,,,,,,,,,,,,,,,,,,,,,,,,,,,,,,,,,,,,,,,1.6114,712.8033484,None,None,1,712.8033484,None,,P005,fencog,2,Post,2021_Jul_20_1148,N-Back (New Version 2021),2021.1.4,119.89157
,,,,Conditions/Version_1/twoback(2)_v1.xlsx,New rule: Press 'space' when you see 2-back (i.e. the same letter as the one that appeared 2 letters ago.),g,space,,,,,,,,,0,7,7,7,0,8,8,8,,,,,,,,,,,,,,,,,,,,,,,,,,,,,,,,,,,,,,,,,,,,,,,,,,,,,,,,,,,,,,,,,,,,,1.7044,716.5171975,None,space,1,716.5171975,None,0.8866945,P005,fencog,2,Post,2021_Jul_20_1148,N-Back (New Version 2021),2021.1.4,119.89157
,,,,Conditions/Version_1/twoback(2)_v1.xlsx,New rule: Press 'space' when you see 2-back (i.e. the same letter as the one that appeared 2 letters ago.),G,None,,,,,,,,,0,7,7,7,0,9,9,9,,,,,,,,,,,,,,,,,,,,,,,,,,,,,,,,,,,,,,,,,,,,,,,,,,,,,,,,,,,,,,,,,,,,,1.4192,719.9434119,None,space,0,719.9434119,None,1.813472,P005,fencog,2,Post,2021_Jul_20_1148,N-Back (New Version 2021),2021.1.4,119.89157
,,,,Conditions/Version_1/twoback(2)_v1.xlsx,New rule: Press 'space' when you see 2-back (i.e. the same letter as the one that appeared 2 letters ago.),,,,,,,,,,,0,7,7,7,,,,,,,,,,,,,,,,,,,,,,,,,,,,,,,,,,,,,,,,,,,,,,,,,,,,,,,,,,,,,,,,,,,,,,,,,,,,,,,,,P005,fencog,2,Post,2021_Jul_20_1148,N-Back (New Version 2021),2021.1.4,119.89157
,,,,Conditions/Version_1/threeback(3)_v1.xlsx,New rule: Press 'space' when you see 3-back (i.e. the same letter as the one that appeared 3 letters ago.),w,None,,,,,,,,,0,8,8,8,0,0,0,0,,,,,,,,,,,,,,,,,,,,,,,,,,,,,,,,,,,,,,,,,,,,,,,,,,,,,,,,,,,721.97035,None,724.9585438,None,space,9.9011159,724.9585438,None,721.97035,None,1.0348,735.9222635,None,None,1,735.9222635,None,,P005,fencog,2,Post,2021_Jul_20_1148,N-Back (New Version 2021),2021.1.4,119.89157
,,,,Conditions/Version_1/threeback(3)_v1.xlsx,New rule: Press 'space' when you see 3-back (i.e. the same letter as the one that appeared 3 letters ago.),p,None,,,,,,,,,0,8,8,8,0,1,1,1,,,,,,,,,,,,,,,,,,,,,,,,,,,,,,,,,,,,,,,,,,,,,,,,,,,,,,,,,,,,,,,,,,,,,1.6424,739.5813733,None,None,1,739.5813733,None,,P005,fencog,2,Post,2021_Jul_20_1148,N-Back (New Version 2021),2021.1.4,119.89157
,,,,Conditions/Version_1/threeback(3)_v1.xlsx,New rule: Press 'space' when you see 3-back (i.e. the same letter as the one that appeared 3 letters ago.),P,None,,,,,,,,,0,8,8,8,0,2,2,2,,,,,,,,,,,,,,,,,,,,,,,,,,,,,,,,,,,,,,,,,,,,,,,,,,,,,,,,,,,,,,,,,,,,,1.4874,743.0780091,None,None,1,743.0780091,None,,P005,fencog,2,Post,2021_Jul_20_1148,N-Back (New Version 2021),2021.1.4,119.89157
,,,,Conditions/Version_1/threeback(3)_v1.xlsx,New rule: Press 'space' when you see 3-back (i.e. the same letter as the one that appeared 3 letters ago.),i,None,,,,,,,,,0,8,8,8,0,3,3,3,,,,,,,,,,,,,,,,,,,,,,,,,,,,,,,,,,,,,,,,,,,,,,,,,,,,,,,,,,,,,,,,,,,,,1.4006,746.4926384,None,None,1,746.4926384,None,,P005,fencog,2,Post,2021_Jul_20_1148,N-Back (New Version 2021),2021.1.4,119.89157
,,,,Conditions/Version_1/threeback(3)_v1.xlsx,New rule: Press 'space' when you see 3-back (i.e. the same letter as the one that appeared 3 letters ago.),f,None,,,,,,,,,0,8,8,8,0,4,4,4,,,,,,,,,,,,,,,,,,,,,,,,,,,,,,,,,,,,,,,,,,,,,,,,,,,,,,,,,,,,,,,,,,,,,1.8904,750.391017,None,None,1,750.391017,None,,P005,fencog,2,Post,2021_Jul_20_1148,N-Back (New Version 2021),2021.1.4,119.89157
,,,,Conditions/Version_1/threeback(3)_v1.xlsx,New rule: Press 'space' when you see 3-back (i.e. the same letter as the one that appeared 3 letters ago.),o,None,,,,,,,,,0,8,8,8,0,5,5,5,,,,,,,,,,,,,,,,,,,,,,,,,,,,,,,,,,,,,,,,,,,,,,,,,,,,,,,,,,,,,,,,,,,,,1.1278,753.5330388,None,None,1,753.5330388,None,,P005,fencog,2,Post,2021_Jul_20_1148,N-Back (New Version 2021),2021.1.4,119.89157
,,,,Conditions/Version_1/threeback(3)_v1.xlsx,New rule: Press 'space' when you see 3-back (i.e. the same letter as the one that appeared 3 letters ago.),w,None,,,,,,,,,0,8,8,8,0,6,6,6,,,,,,,,,,,,,,,,,,,,,,,,,,,,,,,,,,,,,,,,,,,,,,,,,,,,,,,,,,,,,,,,,,,,,1.3944,756.9407975,None,None,1,756.9407975,None,,P005,fencog,2,Post,2021_Jul_20_1148,N-Back (New Version 2021),2021.1.4,119.89157
,,,,Conditions/Version_1/threeback(3)_v1.xlsx,New rule: Press 'space' when you see 3-back (i.e. the same letter as the one that appeared 3 letters ago.),F,space,,,,,,,,,0,8,8,8,0,7,7,7,,,,,,,,,,,,,,,,,,,,,,,,,,,,,,,,,,,,,,,,,,,,,,,,,,,,,,,,,,,,,,,,,,,,,1.8966,760.8469283,None,space,1,760.8469283,None,1.0211024,P005,fencog,2,Post,2021_Jul_20_1148,N-Back (New Version 2021),2021.1.4,119.89157
,,,,Conditions/Version_1/threeback(3)_v1.xlsx,New rule: Press 'space' when you see 3-back (i.e. the same letter as the one that appeared 3 letters ago.),p,None,,,,,,,,,0,8,8,8,0,8,8,8,,,,,,,,,,,,,,,,,,,,,,,,,,,,,,,,,,,,,,,,,,,,,,,,,,,,,,,,,,,,,,,,,,,,,1.9214,764.7777087,None,None,1,764.7777087,None,,P005,fencog,2,Post,2021_Jul_20_1148,N-Back (New Version 2021),2021.1.4,119.89157
,,,,Conditions/Version_1/threeback(3)_v1.xlsx,New rule: Press 'space' when you see 3-back (i.e. the same letter as the one that appeared 3 letters ago.),W,space,,,,,,,,,0,8,8,8,0,9,9,9,,,,,,,,,,,,,,,,,,,,,,,,,,,,,,,,,,,,,,,,,,,,,,,,,,,,,,,,,,,,,,,,,,,,,1.4192,768.2083495,None,space,1,768.2083495,None,0.4276269,P005,fencog,2,Post,2021_Jul_20_1148,N-Back (New Version 2021),2021.1.4,119.89157
,,,,Conditions/Version_1/threeback(3)_v1.xlsx,New rule: Press 'space' when you see 3-back (i.e. the same letter as the one that appeared 3 letters ago.),,,,,,,,,,,0,8,8,8,,,,,,,,,,,,,,,,,,,,,,,,,,,,,,,,,,,,,,,,,,,,,,,,,,,,,,,,,,,,,,,,,,,,,,,,,,,,,,,,,P005,fencog,2,Post,2021_Jul_20_1148,N-Back (New Version 2021),2021.1.4,119.89157
,,,,Conditions/Version_1/zeroback(3)_v1.xlsx,New rule: Press 'space' when you see the letter 'x' or 'X'.,X,space,,,,,,,,,0,9,9,9,0,0,0,0,,,,,,,,,,,,,,,,,,,,,,,,,,,,,,,,,,,,,,,,,,,,,,,,,,,,,,,,,,,770.232597,None,773.2198302,None,space,0.391804,773.2198302,None,770.232597,None,1.8966,775.5258847,None,space,1,775.5258847,None,0.7659887,P005,fencog,2,Post,2021_Jul_20_1148,N-Back (New Version 2021),2021.1.4,119.89157
,,,,Conditions/Version_1/zeroback(3)_v1.xlsx,New rule: Press 'space' when you see the letter 'x' or 'X'.,B,None,,,,,,,,,0,9,9,9,0,1,1,1,,,,,,,,,,,,,,,,,,,,,,,,,,,,,,,,,,,,,,,,,,,,,,,,,,,,,,,,,,,,,,,,,,,,,1.3882,778.928218,None,None,1,778.928218,None,,P005,fencog,2,Post,2021_Jul_20_1148,N-Back (New Version 2021),2021.1.4,119.89157
,,,,Conditions/Version_1/zeroback(3)_v1.xlsx,New rule: Press 'space' when you see the letter 'x' or 'X'.,m,None,,,,,,,,,0,9,9,9,0,2,2,2,,,,,,,,,,,,,,,,,,,,,,,,,,,,,,,,,,,,,,,,,,,,,,,,,,,,,,,,,,,,,,,,,,,,,1.3572,782.2913641,None,None,1,782.2913641,None,,P005,fencog,2,Post,2021_Jul_20_1148,N-Back (New Version 2021),2021.1.4,119.89157
,,,,Conditions/Version_1/zeroback(3)_v1.xlsx,New rule: Press 'space' when you see the letter 'x' or 'X'.,m,None,,,,,,,,,0,9,9,9,0,3,3,3,,,,,,,,,,,,,,,,,,,,,,,,,,,,,,,,,,,,,,,,,,,,,,,,,,,,,,,,,,,,,,,,,,,,,1.506,785.8050002,None,None,1,785.8050002,None,,P005,fencog,2,Post,2021_Jul_20_1148,N-Back (New Version 2021),2021.1.4,119.89157
,,,,Conditions/Version_1/zeroback(3)_v1.xlsx,New rule: Press 'space' when you see the letter 'x' or 'X'.,o,None,,,,,,,,,0,9,9,9,0,4,4,4,,,,,,,,,,,,,,,,,,,,,,,,,,,,,,,,,,,,,,,,,,,,,,,,,,,,,,,,,,,,,,,,,,,,,1.5308,789.3388401,None,None,1,789.3388401,None,,P005,fencog,2,Post,2021_Jul_20_1148,N-Back (New Version 2021),2021.1.4,119.89157
,,,,Conditions/Version_1/zeroback(3)_v1.xlsx,New rule: Press 'space' when you see the letter 'x' or 'X'.,p,None,,,,,,,,,0,9,9,9,0,5,5,5,,,,,,,,,,,,,,,,,,,,,,,,,,,,,,,,,,,,,,,,,,,,,,,,,,,,,,,,,,,,,,,,,,,,,1.2518,792.6053704,None,None,1,792.6053704,None,,P005,fencog,2,Post,2021_Jul_20_1148,N-Back (New Version 2021),2021.1.4,119.89157
,,,,Conditions/Version_1/zeroback(3)_v1.xlsx,New rule: Press 'space' when you see the letter 'x' or 'X'.,G,None,,,,,,,,,0,9,9,9,0,6,6,6,,,,,,,,,,,,,,,,,,,,,,,,,,,,,,,,,,,,,,,,,,,,,,,,,,,,,,,,,,,,,,,,,,,,,1.3386,795.9527563,None,None,1,795.9527563,None,,P005,fencog,2,Post,2021_Jul_20_1148,N-Back (New Version 2021),2021.1.4,119.89157
,,,,Conditions/Version_1/zeroback(3)_v1.xlsx,New rule: Press 'space' when you see the letter 'x' or 'X'.,X,space,,,,,,,,,0,9,9,9,0,7,7,7,,,,,,,,,,,,,,,,,,,,,,,,,,,,,,,,,,,,,,,,,,,,,,,,,,,,,,,,,,,,,,,,,,,,,1.0844,799.0531031,None,space,1,799.0531031,None,0.4787834,P005,fencog,2,Post,2021_Jul_20_1148,N-Back (New Version 2021),2021.1.4,119.89157
,,,,Conditions/Version_1/zeroback(3)_v1.xlsx,New rule: Press 'space' when you see the letter 'x' or 'X'.,p,None,,,,,,,,,0,9,9,9,0,8,8,8,,,,,,,,,,,,,,,,,,,,,,,,,,,,,,,,,,,,,,,,,,,,,,,,,,,,,,,,,,,,,,,,,,,,,1.2704,802.3275411,None,None,1,802.3275411,None,,P005,fencog,2,Post,2021_Jul_20_1148,N-Back (New Version 2021),2021.1.4,119.89157
,,,,Conditions/Version_1/zeroback(3)_v1.xlsx,New rule: Press 'space' when you see the letter 'x' or 'X'.,x,space,,,,,,,,,0,9,9,9,0,9,9,9,,,,,,,,,,,,,,,,,,,,,,,,,,,,,,,,,,,,,,,,,,,,,,,,,,,,,,,,,,,,,,,,,,,,,1.4626,805.7991311,None,space,1,805.7991311,None,0.4849417,P005,fencog,2,Post,2021_Jul_20_1148,N-Back (New Version 2021),2021.1.4,119.89157
,,,,Conditions/Version_1/zeroback(3)_v1.xlsx,New rule: Press 'space' when you see the letter 'x' or 'X'.,,,,,,,,,,,0,9,9,9,,,,,,,,,,,,,,,,,,,,,,,,,,,,,,,,,,,,,,,,,,,,,,,,,,,,,,,,,,,,,,,,,,,,,,,,,,,,,,,,,P005,fencog,2,Post,2021_Jul_20_1148,N-Back (New Version 2021),2021.1.4,119.89157
,,,,Conditions/Version_1/twoback(3)_v1.xlsx,New rule: Press 'space' when you see 2-back (i.e. the same letter as the one that appeared 2 letters ago.),e,None,,,,,,,,,0,10,10,10,0,0,0,0,,,,,,,,,,,,,,,,,,,,,,,,,,,,,,,,,,,,,,,,,,,,,,,,,,,,,,,,,,,807.8234193,None,810.7998678,None,space,2.0360264,810.7998678,None,807.8234193,None,1.7478,814.6144315,None,None,1,814.6144315,None,,P005,fencog,2,Post,2021_Jul_20_1148,N-Back (New Version 2021),2021.1.4,119.89157
,,,,Conditions/Version_1/twoback(3)_v1.xlsx,New rule: Press 'space' when you see 2-back (i.e. the same letter as the one that appeared 2 letters ago.),o,None,,,,,,,,,0,10,10,10,0,1,1,1,,,,,,,,,,,,,,,,,,,,,,,,,,,,,,,,,,,,,,,,,,,,,,,,,,,,,,,,,,,,,,,,,,,,,1.6548,818.2830188,None,None,1,818.2830188,None,,P005,fencog,2,Post,2021_Jul_20_1148,N-Back (New Version 2021),2021.1.4,119.89157
,,,,Conditions/Version_1/twoback(3)_v1.xlsx,New rule: Press 'space' when you see 2-back (i.e. the same letter as the one that appeared 2 letters ago.),P,None,,,,,,,,,0,10,10,10,0,2,2,2,,,,,,,,,,,,,,,,,,,,,,,,,,,,,,,,,,,,,,,,,,,,,,,,,,,,,,,,,,,,,,,,,,,,,1.3572,821.6469003,None,None,1,821.6469003,None,,P005,fencog,2,Post,2021_Jul_20_1148,N-Back (New Version 2021),2021.1.4,119.89157
,,,,Conditions/Version_1/twoback(3)_v1.xlsx,New rule: Press 'space' when you see 2-back (i.e. the same letter as the one that appeared 2 letters ago.),z,None,,,,,,,,,0,10,10,10,0,3,3,3,,,,,,,,,,,,,,,,,,,,,,,,,,,,,,,,,,,,,,,,,,,,,,,,,,,,,,,,,,,,,,,,,,,,,1.351,825.0187871,None,None,1,825.0187871,None,,P005,fencog,2,Post,2021_Jul_20_1148,N-Back (New Version 2021),2021.1.4,119.89157
,,,,Conditions/Version_1/twoback(3)_v1.xlsx,New rule: Press 'space' when you see 2-back (i.e. the same letter as the one that appeared 2 letters ago.),X,None,,,,,,,,,0,10,10,10,0,4,4,4,,,,,,,,,,,,,,,,,,,,,,,,,,,,,,,,,,,,,,,,,,,,,,,,,,,,,,,,,,,,,,,,,,,,,1.4874,828.5102122,None,None,1,828.5102122,None,,P005,fencog,2,Post,2021_Jul_20_1148,N-Back (New Version 2021),2021.1.4,119.89157
,,,,Conditions/Version_1/twoback(3)_v1.xlsx,New rule: Press 'space' when you see 2-back (i.e. the same letter as the one that appeared 2 letters ago.),z,space,,,,,,,,,0,10,10,10,0,5,5,5,,,,,,,,,,,,,,,,,,,,,,,,,,,,,,,,,,,,,,,,,,,,,,,,,,,,,,,,,,,,,,,,,,,,,1.2518,831.776622,None,space,1,831.776622,None,0.9072618,P005,fencog,2,Post,2021_Jul_20_1148,N-Back (New Version 2021),2021.1.4,119.89157
,,,,Conditions/Version_1/twoback(3)_v1.xlsx,New rule: Press 'space' when you see 2-back (i.e. the same letter as the one that appeared 2 letters ago.),x,space,,,,,,,,,0,10,10,10,0,6,6,6,,,,,,,,,,,,,,,,,,,,,,,,,,,,,,,,,,,,,,,,,,,,,,,,,,,,,,,,,,,,,,,,,,,,,1.9338,835.7254389,None,space,1,835.7254389,None,0.8391596,P005,fencog,2,Post,2021_Jul_20_1148,N-Back (New Version 2021),2021.1.4,119.89157
,,,,Conditions/Version_1/twoback(3)_v1.xlsx,New rule: Press 'space' when you see 2-back (i.e. the same letter as the one that appeared 2 letters ago.),c,None,,,,,,,,,0,10,10,10,0,7,7,7,,,,,,,,,,,,,,,,,,,,,,,,,,,,,,,,,,,,,,,,,,,,,,,,,,,,,,,,,,,,,,,,,,,,,1.4998,839.2374318,None,None,1,839.2374318,None,,P005,fencog,2,Post,2021_Jul_20_1148,N-Back (New Version 2021),2021.1.4,119.89157
,,,,Conditions/Version_1/twoback(3)_v1.xlsx,New rule: Press 'space' when you see 2-back (i.e. the same letter as the one that appeared 2 letters ago.),i,None,,,,,,,,,0,10,10,10,0,8,8,8,,,,,,,,,,,,,,,,,,,,,,,,,,,,,,,,,,,,,,,,,,,,,,,,,,,,,,,,,,,,,,,,,,,,,1.5742,842.8153338,None,None,1,842.8153338,None,,P005,fencog,2,Post,2021_Jul_20_1148,N-Back (New Version 2021),2021.1.4,119.89157
,,,,Conditions/Version_1/twoback(3)_v1.xlsx,New rule: Press 'space' when you see 2-back (i.e. the same letter as the one that appeared 2 letters ago.),C,space,,,,,,,,,0,10,10,10,0,9,9,9,,,,,,,,,,,,,,,,,,,,,,,,,,,,,,,,,,,,,,,,,,,,,,,,,,,,,,,,,,,,,,,,,,,,,1.4626,846.2902964,None,space,1,846.2902964,None,0.5775583,P005,fencog,2,Post,2021_Jul_20_1148,N-Back (New Version 2021),2021.1.4,119.89157
,,,,Conditions/Version_1/twoback(3)_v1.xlsx,New rule: Press 'space' when you see 2-back (i.e. the same letter as the one that appeared 2 letters ago.),,,,,,,,,,,0,10,10,10,,,,,,,,,,,,,,,,,,,,,,,,,,,,,,,,,,,,,,,,,,,,,,,,,,,,,,,,,,,,,,,,,,,,,,,,,,,,,,,,,P005,fencog,2,Post,2021_Jul_20_1148,N-Back (New Version 2021),2021.1.4,119.89157
,,,,Conditions/Version_1/oneback(3)_v1.xlsx,New rule: Press 'space' when you see 1-back (i.e. the same letter as the one that appeared 1 letter ago.),o,None,,,,,,,,,0,11,11,11,0,0,0,0,,,,,,,,,,,,,,,,,,,,,,,,,,,,,,,,,,,,,,,,,,,,,,,,,,,,,,,,,,,848.3167529,None,851.3036567,None,space,0.2520535,851.3036567,None,848.3167529,None,1.1836,852.7813304,None,None,1,852.7813304,None,,P005,fencog,2,Post,2021_Jul_20_1148,N-Back (New Version 2021),2021.1.4,119.89157
,,,,Conditions/Version_1/oneback(3)_v1.xlsx,New rule: Press 'space' when you see 1-back (i.e. the same letter as the one that appeared 1 letter ago.),O,space,,,,,,,,,0,11,11,11,0,1,1,1,,,,,,,,,,,,,,,,,,,,,,,,,,,,,,,,,,,,,,,,,,,,,,,,,,,,,,,,,,,,,,,,,,,,,1.6486,856.4431657,None,space,1,856.4431657,None,0.7764569,P005,fencog,2,Post,2021_Jul_20_1148,N-Back (New Version 2021),2021.1.4,119.89157
,,,,Conditions/Version_1/oneback(3)_v1.xlsx,New rule: Press 'space' when you see 1-back (i.e. the same letter as the one that appeared 1 letter ago.),h,None,,,,,,,,,0,11,11,11,0,2,2,2,,,,,,,,,,,,,,,,,,,,,,,,,,,,,,,,,,,,,,,,,,,,,,,,,,,,,,,,,,,,,,,,,,,,,1.8284,860.2849634,None,None,1,860.2849634,None,,P005,fencog,2,Post,2021_Jul_20_1148,N-Back (New Version 2021),2021.1.4,119.89157
,,,,Conditions/Version_1/oneback(3)_v1.xlsx,New rule: Press 'space' when you see 1-back (i.e. the same letter as the one that appeared 1 letter ago.),g,None,,,,,,,,,0,11,11,11,0,3,3,3,,,,,,,,,,,,,,,,,,,,,,,,,,,,,,,,,,,,,,,,,,,,,,,,,,,,,,,,,,,,,,,,,,,,,1.5432,863.844438,None,None,1,863.844438,None,,P005,fencog,2,Post,2021_Jul_20_1148,N-Back (New Version 2021),2021.1.4,119.89157
,,,,Conditions/Version_1/oneback(3)_v1.xlsx,New rule: Press 'space' when you see 1-back (i.e. the same letter as the one that appeared 1 letter ago.),n,None,,,,,,,,,0,11,11,11,0,4,4,4,,,,,,,,,,,,,,,,,,,,,,,,,,,,,,,,,,,,,,,,,,,,,,,,,,,,,,,,,,,,,,,,,,,,,1.7044,867.5575944,None,None,1,867.5575944,None,,P005,fencog,2,Post,2021_Jul_20_1148,N-Back (New Version 2021),2021.1.4,119.89157
,,,,Conditions/Version_1/oneback(3)_v1.xlsx,New rule: Press 'space' when you see 1-back (i.e. the same letter as the one that appeared 1 letter ago.),z,None,,,,,,,,,0,11,11,11,0,5,5,5,,,,,,,,,,,,,,,,,,,,,,,,,,,,,,,,,,,,,,,,,,,,,,,,,,,,,,,,,,,,,,,,,,,,,1.2518,870.8233138,None,None,1,870.8233138,None,,P005,fencog,2,Post,2021_Jul_20_1148,N-Back (New Version 2021),2021.1.4,119.89157
,,,,Conditions/Version_1/oneback(3)_v1.xlsx,New rule: Press 'space' when you see 1-back (i.e. the same letter as the one that appeared 1 letter ago.),X,None,,,,,,,,,0,11,11,11,0,6,6,6,,,,,,,,,,,,,,,,,,,,,,,,,,,,,,,,,,,,,,,,,,,,,,,,,,,,,,,,,,,,,,,,,,,,,1.7292,874.5630029,None,None,1,874.5630029,None,,P005,fencog,2,Post,2021_Jul_20_1148,N-Back (New Version 2021),2021.1.4,119.89157
,,,,Conditions/Version_1/oneback(3)_v1.xlsx,New rule: Press 'space' when you see 1-back (i.e. the same letter as the one that appeared 1 letter ago.),r,None,,,,,,,,,0,11,11,11,0,7,7,7,,,,,,,,,,,,,,,,,,,,,,,,,,,,,,,,,,,,,,,,,,,,,,,,,,,,,,,,,,,,,,,,,,,,,1.382,877.9548294,None,None,1,877.9548294,None,,P005,fencog,2,Post,2021_Jul_20_1148,N-Back (New Version 2021),2021.1.4,119.89157
,,,,Conditions/Version_1/oneback(3)_v1.xlsx,New rule: Press 'space' when you see 1-back (i.e. the same letter as the one that appeared 1 letter ago.),r,space,,,,,,,,,0,11,11,11,0,8,8,8,,,,,,,,,,,,,,,,,,,,,,,,,,,,,,,,,,,,,,,,,,,,,,,,,,,,,,,,,,,,,,,,,,,,,1.506,881.4689482,None,space,1,881.4689482,None,1.2867862,P005,fencog,2,Post,2021_Jul_20_1148,N-Back (New Version 2021),2021.1.4,119.89157
,,,,Conditions/Version_1/oneback(3)_v1.xlsx,New rule: Press 'space' when you see 1-back (i.e. the same letter as the one that appeared 1 letter ago.),P,None,,,,,,,,,0,11,11,11,0,9,9,9,,,,,,,,,,,,,,,,,,,,,,,,,,,,,,,,,,,,,,,,,,,,,,,,,,,,,,,,,,,,,,,,,,,,,1.568,885.0548102,None,None,1,885.0548102,None,,P005,fencog,2,Post,2021_Jul_20_1148,N-Back (New Version 2021),2021.1.4,119.89157
,,,,Conditions/Version_1/oneback(3)_v1.xlsx,New rule: Press 'space' when you see 1-back (i.e. the same letter as the one that appeared 1 letter ago.),,,,,,,,,,,0,11,11,11,,,,,,,,,,,,,,,,,,,,,,,,,,,,,,,,,,,,,,,,,,,,,,,,,,,,,,,,,,,,,,,,,,,,,,,,,,,,,,,,,P005,fencog,2,Post,2021_Jul_20_1148,N-Back (New Version 2021),2021.1.4,119.89157
,,,,Conditions/Version_1/twoback(4)_v1.xlsx,New rule: Press 'space' when you see 2-back (i.e. the same letter as the one that appeared 2 letters ago.),r,None,,,,,,,,,0,12,12,12,0,0,0,0,,,,,,,,,,,,,,,,,,,,,,,,,,,,,,,,,,,,,,,,,,,,,,,,,,,,,,,,,,,887.0822291,None,890.0692535,None,space,0.2785455,890.0692535,None,887.0822291,None,1.0348,891.4244683,None,None,1,891.4244683,None,,P005,fencog,2,Post,2021_Jul_20_1148,N-Back (New Version 2021),2021.1.4,119.89157
,,,,Conditions/Version_1/twoback(4)_v1.xlsx,New rule: Press 'space' when you see 2-back (i.e. the same letter as the one that appeared 2 letters ago.),T,None,,,,,,,,,0,12,12,12,0,1,1,1,,,,,,,,,,,,,,,,,,,,,,,,,,,,,,,,,,,,,,,,,,,,,,,,,,,,,,,,,,,,,,,,,,,,,1.2332,894.666589,None,None,1,894.666589,None,,P005,fencog,2,Post,2021_Jul_20_1148,N-Back (New Version 2021),2021.1.4,119.89157
,,,,Conditions/Version_1/twoback(4)_v1.xlsx,New rule: Press 'space' when you see 2-back (i.e. the same letter as the one that appeared 2 letters ago.),o,None,,,,,,,,,0,12,12,12,0,2,2,2,,,,,,,,,,,,,,,,,,,,,,,,,,,,,,,,,,,,,,,,,,,,,,,,,,,,,,,,,,,,,,,,,,,,,1.4316,898.1075506,None,None,1,898.1075506,None,,P005,fencog,2,Post,2021_Jul_20_1148,N-Back (New Version 2021),2021.1.4,119.89157
,,,,Conditions/Version_1/twoback(4)_v1.xlsx,New rule: Press 'space' when you see 2-back (i.e. the same letter as the one that appeared 2 letters ago.),p,None,,,,,,,,,0,12,12,12,0,3,3,3,,,,,,,,,,,,,,,,,,,,,,,,,,,,,,,,,,,,,,,,,,,,,,,,,,,,,,,,,,,,,,,,,,,,,1.072,901.1893277,None,None,1,901.1893277,None,,P005,fencog,2,Post,2021_Jul_20_1148,N-Back (New Version 2021),2021.1.4,119.89157
,,,,Conditions/Version_1/twoback(4)_v1.xlsx,New rule: Press 'space' when you see 2-back (i.e. the same letter as the one that appeared 2 letters ago.),p,None,,,,,,,,,0,12,12,12,0,4,4,4,,,,,,,,,,,,,,,,,,,,,,,,,,,,,,,,,,,,,,,,,,,,,,,,,,,,,,,,,,,,,,,,,,,,,1.4068,904.6032837,None,None,1,904.6032837,None,,P005,fencog,2,Post,2021_Jul_20_1148,N-Back (New Version 2021),2021.1.4,119.89157
,,,,Conditions/Version_1/twoback(4)_v1.xlsx,New rule: Press 'space' when you see 2-back (i.e. the same letter as the one that appeared 2 letters ago.),y,None,,,,,,,,,0,12,12,12,0,5,5,5,,,,,,,,,,,,,,,,,,,,,,,,,,,,,,,,,,,,,,,,,,,,,,,,,,,,,,,,,,,,,,,,,,,,,1.3696,907.9792253,None,None,1,907.9792253,None,,P005,fencog,2,Post,2021_Jul_20_1148,N-Back (New Version 2021),2021.1.4,119.89157
,,,,Conditions/Version_1/twoback(4)_v1.xlsx,New rule: Press 'space' when you see 2-back (i.e. the same letter as the one that appeared 2 letters ago.),P,space,,,,,,,,,0,12,12,12,0,6,6,6,,,,,,,,,,,,,,,,,,,,,,,,,,,,,,,,,,,,,,,,,,,,,,,,,,,,,,,,,,,,,,,,,,,,,1.1588,911.1589697,None,space,1,911.1589697,None,0.9095848,P005,fencog,2,Post,2021_Jul_20_1148,N-Back (New Version 2021),2021.1.4,119.89157
,,,,Conditions/Version_1/twoback(4)_v1.xlsx,New rule: Press 'space' when you see 2-back (i.e. the same letter as the one that appeared 2 letters ago.),y,None,,,,,,,,,0,12,12,12,0,7,7,7,,,,,,,,,,,,,,,,,,,,,,,,,,,,,,,,,,,,,,,,,,,,,,,,,,,,,,,,,,,,,,,,,,,,,1.1278,914.2933029,None,space,0,914.2933029,None,0.7743639,P005,fencog,2,Post,2021_Jul_20_1148,N-Back (New Version 2021),2021.1.4,119.89157
,,,,Conditions/Version_1/twoback(4)_v1.xlsx,New rule: Press 'space' when you see 2-back (i.e. the same letter as the one that appeared 2 letters ago.),y,space,,,,,,,,,0,12,12,12,0,8,8,8,,,,,,,,,,,,,,,,,,,,,,,,,,,,,,,,,,,,,,,,,,,,,,,,,,,,,,,,,,,,,,,,,,,,,1.1836,917.4828312,None,None,0,917.4828312,None,,P005,fencog,2,Post,2021_Jul_20_1148,N-Back (New Version 2021),2021.1.4,119.89157
,,,,Conditions/Version_1/twoback(4)_v1.xlsx,New rule: Press 'space' when you see 2-back (i.e. the same letter as the one that appeared 2 letters ago.),,,,,,,,,,,0,12,12,12,,,,,,,,,,,,,,,,,,,,,,,,,,,,,,,,,,,,,,,,,,,,,,,,,,,,,,,,,,,,,,,,,,,,,,,,,,,,,,,,,P005,fencog,2,Post,2021_Jul_20_1148,N-Back (New Version 2021),2021.1.4,119.89157
,,,,Conditions/Version_1/zeroback(4)_v1.xlsx,New rule: Press 'space' when you see the letter 'x' or 'X'.,o,None,,,,,,,,,0,13,13,13,0,0,0,0,,,,,,,,,,,,,,,,,,,,,,,,,,,,,,,,,,,,,,,,,,,,,,,,,,,,,,,,,,,919.5430893,None,922.5249958,None,space,0.0227508,922.5249958,None,919.5430893,None,1.3758,923.9497738,None,None,1,923.9497738,None,,P005,fencog,2,Post,2021_Jul_20_1148,N-Back (New Version 2021),2021.1.4,119.89157
,,,,Conditions/Version_1/zeroback(4)_v1.xlsx,New rule: Press 'space' when you see the letter 'x' or 'X'.,X,space,,,,,,,,,0,13,13,13,0,1,1,1,,,,,,,,,,,,,,,,,,,,,,,,,,,,,,,,,,,,,,,,,,,,,,,,,,,,,,,,,,,,,,,,,,,,,1.3572,927.315309,None,space,1,927.315309,None,0.3444475,P005,fencog,2,Post,2021_Jul_20_1148,N-Back (New Version 2021),2021.1.4,119.89157
,,,,Conditions/Version_1/zeroback(4)_v1.xlsx,New rule: Press 'space' when you see the letter 'x' or 'X'.,p,None,,,,,,,,,0,13,13,13,0,2,2,2,,,,,,,,,,,,,,,,,,,,,,,,,,,,,,,,,,,,,,,,,,,,,,,,,,,,,,,,,,,,,,,,,,,,,1.537,930.8620249,None,None,1,930.8620249,None,,P005,fencog,2,Post,2021_Jul_20_1148,N-Back (New Version 2021),2021.1.4,119.89157
,,,,Conditions/Version_1/zeroback(4)_v1.xlsx,New rule: Press 'space' when you see the letter 'x' or 'X'.,m,None,,,,,,,,,0,13,13,13,0,3,3,3,,,,,,,,,,,,,,,,,,,,,,,,,,,,,,,,,,,,,,,,,,,,,,,,,,,,,,,,,,,,,,,,,,,,,1.5308,934.3955065,None,None,1,934.3955065,None,,P005,fencog,2,Post,2021_Jul_20_1148,N-Back (New Version 2021),2021.1.4,119.89157
,,,,Conditions/Version_1/zeroback(4)_v1.xlsx,New rule: Press 'space' when you see the letter 'x' or 'X'.,n,None,,,,,,,,,0,13,13,13,0,4,4,4,,,,,,,,,,,,,,,,,,,,,,,,,,,,,,,,,,,,,,,,,,,,,,,,,,,,,,,,,,,,,,,,,,,,,1.6238,938.0302786,None,None,1,938.0302786,None,,P005,fencog,2,Post,2021_Jul_20_1148,N-Back (New Version 2021),2021.1.4,119.89157
,,,,Conditions/Version_1/zeroback(4)_v1.xlsx,New rule: Press 'space' when you see the letter 'x' or 'X'.,m,None,,,,,,,,,0,13,13,13,0,5,5,5,,,,,,,,,,,,,,,,,,,,,,,,,,,,,,,,,,,,,,,,,,,,,,,,,,,,,,,,,,,,,,,,,,,,,1.8966,941.9356056,None,None,1,941.9356056,None,,P005,fencog,2,Post,2021_Jul_20_1148,N-Back (New Version 2021),2021.1.4,119.89157
,,,,Conditions/Version_1/zeroback(4)_v1.xlsx,New rule: Press 'space' when you see the letter 'x' or 'X'.,C,None,,,,,,,,,0,13,13,13,0,6,6,6,,,,,,,,,,,,,,,,,,,,,,,,,,,,,,,,,,,,,,,,,,,,,,,,,,,,,,,,,,,,,,,,,,,,,1.971,945.9164868,None,None,1,945.9164868,None,,P005,fencog,2,Post,2021_Jul_20_1148,N-Back (New Version 2021),2021.1.4,119.89157
,,,,Conditions/Version_1/zeroback(4)_v1.xlsx,New rule: Press 'space' when you see the letter 'x' or 'X'.,m,None,,,,,,,,,0,13,13,13,0,7,7,7,,,,,,,,,,,,,,,,,,,,,,,,,,,,,,,,,,,,,,,,,,,,,,,,,,,,,,,,,,,,,,,,,,,,,1.3138,949.2408891,None,None,1,949.2408891,None,,P005,fencog,2,Post,2021_Jul_20_1148,N-Back (New Version 2021),2021.1.4,119.89157
,,,,Conditions/Version_1/zeroback(4)_v1.xlsx,New rule: Press 'space' when you see the letter 'x' or 'X'.,p,None,,,,,,,,,0,13,13,13,0,8,8,8,,,,,,,,,,,,,,,,,,,,,,,,,,,,,,,,,,,,,,,,,,,,,,,,,,,,,,,,,,,,,,,,,,,,,1.1278,952.3816273,None,None,1,952.3816273,None,,P005,fencog,2,Post,2021_Jul_20_1148,N-Back (New Version 2021),2021.1.4,119.89157
,,,,Conditions/Version_1/zeroback(4)_v1.xlsx,New rule: Press 'space' when you see the letter 'x' or 'X'.,X,space,,,,,,,,,0,13,13,13,0,9,9,9,,,,,,,,,,,,,,,,,,,,,,,,,,,,,,,,,,,,,,,,,,,,,,,,,,,,,,,,,,,,,,,,,,,,,1.4998,955.8896675,None,space,1,955.8896675,None,0.481966,P005,fencog,2,Post,2021_Jul_20_1148,N-Back (New Version 2021),2021.1.4,119.89157
,,,,Conditions/Version_1/zeroback(4)_v1.xlsx,New rule: Press 'space' when you see the letter 'x' or 'X'.,,,,,,,,,,,0,13,13,13,,,,,,,,,,,,,,,,,,,,,,,,,,,,,,,,,,,,,,,,,,,,,,,,,,,,,,,,,,,,,,,,,,,,,,,,,,,,,,,,,P005,fencog,2,Post,2021_Jul_20_1148,N-Back (New Version 2021),2021.1.4,119.89157
,,,,Conditions/Version_1/oneback(4)_v1.xlsx,New rule: Press 'space' when you see 1-back (i.e. the same letter as the one that appeared 1 letter ago.),w,None,,,,,,,,,0,14,14,14,0,0,0,0,,,,,,,,,,,,,,,,,,,,,,,,,,,,,,,,,,,,,,,,,,,,,,,,,,,,,,,,,,,957.9173255,None,960.9050235,None,space,4.8185689,960.9050235,None,957.9173255,None,1.5928,967.3428782,None,None,1,967.3428782,None,,P005,fencog,2,Post,2021_Jul_20_1148,N-Back (New Version 2021),2021.1.4,119.89157
,,,,Conditions/Version_1/oneback(4)_v1.xlsx,New rule: Press 'space' when you see 1-back (i.e. the same letter as the one that appeared 1 letter ago.),q,None,,,,,,,,,0,14,14,14,0,1,1,1,,,,,,,,,,,,,,,,,,,,,,,,,,,,,,,,,,,,,,,,,,,,,,,,,,,,,,,,,,,,,,,,,,,,,1.2828,970.6271922,None,None,1,970.6271922,None,,P005,fencog,2,Post,2021_Jul_20_1148,N-Back (New Version 2021),2021.1.4,119.89157
,,,,Conditions/Version_1/oneback(4)_v1.xlsx,New rule: Press 'space' when you see 1-back (i.e. the same letter as the one that appeared 1 letter ago.),i,None,,,,,,,,,0,14,14,14,0,2,2,2,,,,,,,,,,,,,,,,,,,,,,,,,,,,,,,,,,,,,,,,,,,,,,,,,,,,,,,,,,,,,,,,,,,,,1.0844,973.7263748,None,None,1,973.7263748,None,,P005,fencog,2,Post,2021_Jul_20_1148,N-Back (New Version 2021),2021.1.4,119.89157
,,,,Conditions/Version_1/oneback(4)_v1.xlsx,New rule: Press 'space' when you see 1-back (i.e. the same letter as the one that appeared 1 letter ago.),t,None,,,,,,,,,0,14,14,14,0,3,3,3,,,,,,,,,,,,,,,,,,,,,,,,,,,,,,,,,,,,,,,,,,,,,,,,,,,,,,,,,,,,,,,,,,,,,1.9276,977.667095,None,None,1,977.667095,None,,P005,fencog,2,Post,2021_Jul_20_1148,N-Back (New Version 2021),2021.1.4,119.89157
,,,,Conditions/Version_1/oneback(4)_v1.xlsx,New rule: Press 'space' when you see 1-back (i.e. the same letter as the one that appeared 1 letter ago.),v,None,,,,,,,,,0,14,14,14,0,4,4,4,,,,,,,,,,,,,,,,,,,,,,,,,,,,,,,,,,,,,,,,,,,,,,,,,,,,,,,,,,,,,,,,,,,,,1.692,981.3674234,None,None,1,981.3674234,None,,P005,fencog,2,Post,2021_Jul_20_1148,N-Back (New Version 2021),2021.1.4,119.89157
,,,,Conditions/Version_1/oneback(4)_v1.xlsx,New rule: Press 'space' when you see 1-back (i.e. the same letter as the one that appeared 1 letter ago.),V,space,,,,,,,,,0,14,14,14,0,5,5,5,,,,,,,,,,,,,,,,,,,,,,,,,,,,,,,,,,,,,,,,,,,,,,,,,,,,,,,,,,,,,,,,,,,,,1.2208,984.5988841,None,space,1,984.5988841,None,0.5407993,P005,fencog,2,Post,2021_Jul_20_1148,N-Back (New Version 2021),2021.1.4,119.89157
,,,,Conditions/Version_1/oneback(4)_v1.xlsx,New rule: Press 'space' when you see 1-back (i.e. the same letter as the one that appeared 1 letter ago.),v,space,,,,,,,,,0,14,14,14,0,6,6,6,,,,,,,,,,,,,,,,,,,,,,,,,,,,,,,,,,,,,,,,,,,,,,,,,,,,,,,,,,,,,,,,,,,,,1.5804,988.1880183,None,space,1,988.1880183,None,0.5354344,P005,fencog,2,Post,2021_Jul_20_1148,N-Back (New Version 2021),2021.1.4,119.89157
,,,,Conditions/Version_1/oneback(4)_v1.xlsx,New rule: Press 'space' when you see 1-back (i.e. the same letter as the one that appeared 1 letter ago.),p,None,,,,,,,,,0,14,14,14,0,7,7,7,,,,,,,,,,,,,,,,,,,,,,,,,,,,,,,,,,,,,,,,,,,,,,,,,,,,,,,,,,,,,,,,,,,,,1.8036,991.9953676,None,None,1,991.9953676,None,,P005,fencog,2,Post,2021_Jul_20_1148,N-Back (New Version 2021),2021.1.4,119.89157
,,,,Conditions/Version_1/oneback(4)_v1.xlsx,New rule: Press 'space' when you see 1-back (i.e. the same letter as the one that appeared 1 letter ago.),w,None,,,,,,,,,0,14,14,14,0,8,8,8,,,,,,,,,,,,,,,,,,,,,,,,,,,,,,,,,,,,,,,,,,,,,,,,,,,,,,,,,,,,,,,,,,,,,1.8098,995.8197204,None,None,1,995.8197204,None,,P005,fencog,2,Post,2021_Jul_20_1148,N-Back (New Version 2021),2021.1.4,119.89157
,,,,Conditions/Version_1/oneback(4)_v1.xlsx,New rule: Press 'space' when you see 1-back (i.e. the same letter as the one that appeared 1 letter ago.),W,space,,,,,,,,,0,14,14,14,0,9,9,9,,,,,,,,,,,,,,,,,,,,,,,,,,,,,,,,,,,,,,,,,,,,,,,,,,,,,,,,,,,,,,,,,,,,,1.4626,999.294001,None,space,1,999.294001,None,0.5176066,P005,fencog,2,Post,2021_Jul_20_1148,N-Back (New Version 2021),2021.1.4,119.89157
,,,,Conditions/Version_1/oneback(4)_v1.xlsx,New rule: Press 'space' when you see 1-back (i.e. the same letter as the one that appeared 1 letter ago.),,,,,,,,,,,0,14,14,14,,,,,,,,,,,,,,,,,,,,,,,,,,,,,,,,,,,,,,,,,,,,,,,,,,,,,,,,,,,,,,,,,,,,,,,,,,,,,,,,,P005,fencog,2,Post,2021_Jul_20_1148,N-Back (New Version 2021),2021.1.4,119.89157
,,,,Conditions/Version_1/threeback(4)_v1.xlsx,New rule: Press 'space' when you see 3-back (i.e. the same letter as the one that appeared 3 letters ago.),A,None,,,,,,,,,0,15,15,15,0,0,0,0,,,,,,,,,,,,,,,,,,,,,,,,,,,,,,,,,,,,,,,,,,,,,,,,,,,,,,,,,,,1001.324331,None,1004.309862,None,space,0.2696388,1004.309862,None,1001.324331,None,1.878,1006.482546,None,None,1,1006.482546,None,,P005,fencog,2,Post,2021_Jul_20_1148,N-Back (New Version 2021),2021.1.4,119.89157
,,,,Conditions/Version_1/threeback(4)_v1.xlsx,New rule: Press 'space' when you see 3-back (i.e. the same letter as the one that appeared 3 letters ago.),n,None,,,,,,,,,0,15,15,15,0,1,1,1,,,,,,,,,,,,,,,,,,,,,,,,,,,,,,,,,,,,,,,,,,,,,,,,,,,,,,,,,,,,,,,,,,,,,1.9958,1010.487351,None,None,1,1010.487351,None,,P005,fencog,2,Post,2021_Jul_20_1148,N-Back (New Version 2021),2021.1.4,119.89157
,,,,Conditions/Version_1/threeback(4)_v1.xlsx,New rule: Press 'space' when you see 3-back (i.e. the same letter as the one that appeared 3 letters ago.),g,None,,,,,,,,,0,15,15,15,0,2,2,2,,,,,,,,,,,,,,,,,,,,,,,,,,,,,,,,,,,,,,,,,,,,,,,,,,,,,,,,,,,,,,,,,,,,,1.2704,1013.765297,None,None,1,1013.765297,None,,P005,fencog,2,Post,2021_Jul_20_1148,N-Back (New Version 2021),2021.1.4,119.89157
,,,,Conditions/Version_1/threeback(4)_v1.xlsx,New rule: Press 'space' when you see 3-back (i.e. the same letter as the one that appeared 3 letters ago.),A,space,,,,,,,,,0,15,15,15,0,3,3,3,,,,,,,,,,,,,,,,,,,,,,,,,,,,,,,,,,,,,,,,,,,,,,,,,,,,,,,,,,,,,,,,,,,,,1.8222,1017.596538,None,space,1,1017.596538,None,0.9751323,P005,fencog,2,Post,2021_Jul_20_1148,N-Back (New Version 2021),2021.1.4,119.89157
,,,,Conditions/Version_1/threeback(4)_v1.xlsx,New rule: Press 'space' when you see 3-back (i.e. the same letter as the one that appeared 3 letters ago.),p,None,,,,,,,,,0,15,15,15,0,4,4,4,,,,,,,,,,,,,,,,,,,,,,,,,,,,,,,,,,,,,,,,,,,,,,,,,,,,,,,,,,,,,,,,,,,,,1.9152,1021.523127,None,None,1,1021.523127,None,,P005,fencog,2,Post,2021_Jul_20_1148,N-Back (New Version 2021),2021.1.4,119.89157
,,,,Conditions/Version_1/threeback(4)_v1.xlsx,New rule: Press 'space' when you see 3-back (i.e. the same letter as the one that appeared 3 letters ago.),O,None,,,,,,,,,0,15,15,15,0,5,5,5,,,,,,,,,,,,,,,,,,,,,,,,,,,,,,,,,,,,,,,,,,,,,,,,,,,,,,,,,,,,,,,,,,,,,1.8966,1025.427605,None,None,1,1025.427605,None,,P005,fencog,2,Post,2021_Jul_20_1148,N-Back (New Version 2021),2021.1.4,119.89157
,,,,Conditions/Version_1/threeback(4)_v1.xlsx,New rule: Press 'space' when you see 3-back (i.e. the same letter as the one that appeared 3 letters ago.),a,space,,,,,,,,,0,15,15,15,0,6,6,6,,,,,,,,,,,,,,,,,,,,,,,,,,,,,,,,,,,,,,,,,,,,,,,,,,,,,,,,,,,,,,,,,,,,,1.7106,1029.153372,None,space,1,1029.153372,None,1.0982377,P005,fencog,2,Post,2021_Jul_20_1148,N-Back (New Version 2021),2021.1.4,119.89157
,,,,Conditions/Version_1/threeback(4)_v1.xlsx,New rule: Press 'space' when you see 3-back (i.e. the same letter as the one that appeared 3 letters ago.),p,space,,,,,,,,,0,15,15,15,0,7,7,7,,,,,,,,,,,,,,,,,,,,,,,,,,,,,,,,,,,,,,,,,,,,,,,,,,,,,,,,,,,,,,,,,,,,,1.2084,1032.373669,None,space,1,1032.373669,None,0.8856238,P005,fencog,2,Post,2021_Jul_20_1148,N-Back (New Version 2021),2021.1.4,119.89157
,,,,Conditions/Version_1/threeback(4)_v1.xlsx,New rule: Press 'space' when you see 3-back (i.e. the same letter as the one that appeared 3 letters ago.),x,None,,,,,,,,,0,15,15,15,0,8,8,8,,,,,,,,,,,,,,,,,,,,,,,,,,,,,,,,,,,,,,,,,,,,,,,,,,,,,,,,,,,,,,,,,,,,,1.01,1035.391722,None,None,1,1035.391722,None,,P005,fencog,2,Post,2021_Jul_20_1148,N-Back (New Version 2021),2021.1.4,119.89157
,,,,Conditions/Version_1/threeback(4)_v1.xlsx,New rule: Press 'space' when you see 3-back (i.e. the same letter as the one that appeared 3 letters ago.),X,None,,,,,,,,,0,15,15,15,0,9,9,9,,,,,,,,,,,,,,,,,,,,,,,,,,,,,,,,,,,,,,,,,,,,,,,,,,,,,,,,,,,,,,,,,,,,,1.4192,1038.822704,None,None,1,1038.822704,None,,P005,fencog,2,Post,2021_Jul_20_1148,N-Back (New Version 2021),2021.1.4,119.89157
,,,,Conditions/Version_1/threeback(4)_v1.xlsx,New rule: Press 'space' when you see 3-back (i.e. the same letter as the one that appeared 3 letters ago.),,,,,,,,,,,0,15,15,15,,,,,,,,,,,,,,,,,,,,,,,,,,,,,,,,,,,,,,,,,,,,,,,,,,,,,,,,,,,,,,,,,,,,,,,,,,,,,,,,,P005,fencog,2,Post,2021_Jul_20_1148,N-Back (New Version 2021),2021.1.4,119.89157
