CondFileP,InstructionsP,LettersDisplayedP,CorrectnessP,CondFile,Instructions,LettersDisplayed,Correctness,practicetrials.thisRepN,practicetrials.thisTrialN,practicetrials.thisN,practicetrials.thisIndex,InnerLoopPractice.thisRepN,InnerLoopPractice.thisTrialN,InnerLoopPractice.thisN,InnerLoopPractice.thisIndex,trials.thisRepN,trials.thisTrialN,trials.thisN,trials.thisIndex,InnerLoop.thisRepN,InnerLoop.thisTrialN,InnerLoop.thisN,InnerLoop.thisIndex,TaskVersionText.started,TaskVersionText.stopped,InstrKey1.keys,InstrKey1.rt,InstrKey1.started,InstrKey1.stopped,text.started,text.stopped,key_resp_4.keys,key_resp_4.rt,key_resp_4.started,key_resp_4.stopped,text_2.started,text_2.stopped,key_resp_3.keys,key_resp_3.rt,key_resp_3.started,key_resp_3.stopped,text_3.started,text_3.stopped,key_resp_2.keys,key_resp_2.rt,key_resp_2.started,key_resp_2.stopped,PractIn1.started,PractIn1.stopped,PractIn2.started,PractIn2.stopped,PractInstructionPass.keys,PractInstructionPass.rt,PractInstructionPass.started,PractInstructionPass.stopped,PractBlock1.started,PractBlock1.stopped,ISIjitterPractice,ISI_Pract_Fixation.started,ISI_Pract_Fixation.stopped,N_backP.started,N_backP.stopped,KeyPractice.keys,KeyPractice.corr,KeyPractice.rt,KeyPractice.started,KeyPractice.stopped,text_4.started,text_4.stopped,TransitionText.started,TransitionText.stopped,key_resp_6.keys,key_resp_6.rt,key_resp_6.started,key_resp_6.stopped,text_5.started,text_5.stopped,key_resp_5.keys,key_resp_5.rt,key_resp_5.started,key_resp_5.stopped,MainInt1.started,MainInt1.stopped,MainInt2.started,MainInt2.stopped,InstructionPass.keys,InstructionPass.rt,InstructionPass.started,InstructionPass.stopped,Blocks1.started,Blocks1.stopped,ISIjitter,N_backD.started,N_backD.stopped,key_resp.keys,key_resp.corr,key_resp.started,key_resp.stopped,key_resp.rt,participant,Study Name,Task Version (required to run),PRE/POST,date,expName,psychopyVersion,frameRate
,,,,,,,,,,,,,,,,,,,,,,,,26.910143,None,space,2.1758646,27.3987215,None,,,,,,,,,,,,,,,,,,,,,,,,,,,,,,,,,,,,,,,,,,,,,,,,,,,,,,,,,,,,,,,,,,,,,,,P006,fencog,2,Post,2021_Jul_21_1313,N-Back (New Version 2021),2021.1.4,120.2734056
,,,,,,,,,,,,,,,,,,,,,,,,,,,,,,29.6115127,None,space,88.203783,30.1065509,None,,,,,,,,,,,,,,,,,,,,,,,,,,,,,,,,,,,,,,,,,,,,,,,,,,,,,,,,,,,,,,,,,P006,fencog,2,Post,2021_Jul_21_1313,N-Back (New Version 2021),2021.1.4,120.2734056
,,,,,,,,,,,,,,,,,,,,,,,,,,,,,,,,,,,,118.344401,None,space,4.9910808,118.8389985,None,,,,,,,,,,,,,,,,,,,,,,,,,,,,,,,,,,,,,,,,,,,,,,,,,,,,,,,,,,,P006,fencog,2,Post,2021_Jul_21_1313,N-Back (New Version 2021),2021.1.4,120.2734056
,,,,,,,,,,,,,,,,,,,,,,,,,,,,,,,,,,,,,,,,,,123.8560506,None,space,6.7408578,124.3454348,None,,,,,,,,,,,,,,,,,,,,,,,,,,,,,,,,,,,,,,,,,,,,,,,,,,,,,P006,fencog,2,Post,2021_Jul_21_1313,N-Back (New Version 2021),2021.1.4,120.2734056
Conditions/Version_2Pr/zeroback(1)_v2.xlsx,Rule: Press 'space' when you see the letter 'x' or 'X'.,x,space,,,,,0,0,0,0,0,0,0,0,,,,,,,,,,,,,,,,,,,,,,,,,,,,,,,,,132.4519503,None,135.4434199,None,space,3.1277458,135.4434199,None,132.4519503,None,1.99,138.5943071,None,140.5941232,None,space,1,0.3563505,140.5941232,None,140.9807085,None,,,,,,,,,,,,,,,,,,,,,,,,,,,,,,,P006,fencog,2,Post,2021_Jul_21_1313,N-Back (New Version 2021),2021.1.4,120.2734056
Conditions/Version_2Pr/zeroback(1)_v2.xlsx,Rule: Press 'space' when you see the letter 'x' or 'X'.,R,None,,,,,0,0,0,0,0,1,1,1,,,,,,,,,,,,,,,,,,,,,,,,,,,,,,,,,,,,,,,,,,,1.09,142.4809514,None,143.5797528,None,None,1,,143.5797528,None,145.5766653,None,,,,,,,,,,,,,,,,,,,,,,,,,,,,,,,P006,fencog,2,Post,2021_Jul_21_1313,N-Back (New Version 2021),2021.1.4,120.2734056
Conditions/Version_2Pr/zeroback(1)_v2.xlsx,Rule: Press 'space' when you see the letter 'x' or 'X'.,p,None,,,,,0,0,0,0,0,2,2,2,,,,,,,,,,,,,,,,,,,,,,,,,,,,,,,,,,,,,,,,,,,1.115,147.0796209,None,148.1989057,None,None,1,,148.1989057,None,150.2033303,None,,,,,,,,,,,,,,,,,,,,,,,,,,,,,,,P006,fencog,2,Post,2021_Jul_21_1313,N-Back (New Version 2021),2021.1.4,120.2734056
Conditions/Version_2Pr/zeroback(1)_v2.xlsx,Rule: Press 'space' when you see the letter 'x' or 'X'.,O,None,,,,,0,0,0,0,0,3,3,3,,,,,,,,,,,,,,,,,,,,,,,,,,,,,,,,,,,,,,,,,,,1.59,151.7032074,None,153.29697,None,None,1,,153.29697,None,155.302255,None,,,,,,,,,,,,,,,,,,,,,,,,,,,,,,,P006,fencog,2,Post,2021_Jul_21_1313,N-Back (New Version 2021),2021.1.4,120.2734056
Conditions/Version_2Pr/zeroback(1)_v2.xlsx,Rule: Press 'space' when you see the letter 'x' or 'X'.,i,None,,,,,0,0,0,0,0,4,4,4,,,,,,,,,,,,,,,,,,,,,,,,,,,,,,,,,,,,,,,,,,,1.14,156.8017191,None,157.943374,None,None,1,,157.943374,None,159.9424738,None,,,,,,,,,,,,,,,,,,,,,,,,,,,,,,,P006,fencog,2,Post,2021_Jul_21_1313,N-Back (New Version 2021),2021.1.4,120.2734056
Conditions/Version_2Pr/zeroback(1)_v2.xlsx,Rule: Press 'space' when you see the letter 'x' or 'X'.,U,None,,,,,0,0,0,0,0,5,5,5,,,,,,,,,,,,,,,,,,,,,,,,,,,,,,,,,,,,,,,,,,,1.715,161.4419808,None,163.159991,None,None,1,,163.159991,None,165.1660702,None,,,,,,,,,,,,,,,,,,,,,,,,,,,,,,,P006,fencog,2,Post,2021_Jul_21_1313,N-Back (New Version 2021),2021.1.4,120.2734056
Conditions/Version_2Pr/zeroback(1)_v2.xlsx,Rule: Press 'space' when you see the letter 'x' or 'X'.,N,None,,,,,0,0,0,0,0,6,6,6,,,,,,,,,,,,,,,,,,,,,,,,,,,,,,,,,,,,,,,,,,,1.39,166.6654496,None,168.0606904,None,None,1,,168.0606904,None,170.0645862,None,,,,,,,,,,,,,,,,,,,,,,,,,,,,,,,P006,fencog,2,Post,2021_Jul_21_1313,N-Back (New Version 2021),2021.1.4,120.2734056
Conditions/Version_2Pr/zeroback(1)_v2.xlsx,Rule: Press 'space' when you see the letter 'x' or 'X'.,m,None,,,,,0,0,0,0,0,7,7,7,,,,,,,,,,,,,,,,,,,,,,,,,,,,,,,,,,,,,,,,,,,1.54,171.5639842,None,173.1082672,None,None,1,,173.1082672,None,175.1129459,None,,,,,,,,,,,,,,,,,,,,,,,,,,,,,,,P006,fencog,2,Post,2021_Jul_21_1313,N-Back (New Version 2021),2021.1.4,120.2734056
Conditions/Version_2Pr/zeroback(1)_v2.xlsx,Rule: Press 'space' when you see the letter 'x' or 'X'.,x,space,,,,,0,0,0,0,0,8,8,8,,,,,,,,,,,,,,,,,,,,,,,,,,,,,,,,,,,,,,,,,,,1.84,176.6125579,None,178.4558424,None,space,1,0.3903133,178.4558424,None,178.8545422,None,,,,,,,,,,,,,,,,,,,,,,,,,,,,,,,P006,fencog,2,Post,2021_Jul_21_1313,N-Back (New Version 2021),2021.1.4,120.2734056
Conditions/Version_2Pr/zeroback(1)_v2.xlsx,Rule: Press 'space' when you see the letter 'x' or 'X'.,X,space,,,,,0,0,0,0,0,9,9,9,,,,,,,,,,,,,,,,,,,,,,,,,,,,,,,,,,,,,,,,,,,1.89,180.3612612,None,182.2591944,None,space,1,0.5391571,182.2591944,None,182.8114416,None,,,,,,,,,,,,,,,,,,,,,,,,,,,,,,,P006,fencog,2,Post,2021_Jul_21_1313,N-Back (New Version 2021),2021.1.4,120.2734056
Conditions/Version_2Pr/zeroback(1)_v2.xlsx,Rule: Press 'space' when you see the letter 'x' or 'X'.,,,,,,,0,0,0,0,,,,,,,,,,,,,,,,,,,,,,,,,,,,,,,,,,,,,,,,,,,,,,,,,,,,,,,,,,,,,,,,,,,,,,,,,,,,,,,,,,,,,,,,,P006,fencog,2,Post,2021_Jul_21_1313,N-Back (New Version 2021),2021.1.4,120.2734056
Conditions/Version_2Pr/oneback(1)_v2.xlsx,New rule: Press 'space' when you see 1-back (i.e. the same letter as the one that appeared 1 letter ago.),r,None,,,,,0,1,1,1,0,0,0,0,,,,,,,,,,,,,,,,,,,,,,,,,,,,,,,,,184.3406977,None,187.3199325,None,space,1.2143905,187.3199325,None,184.3406977,None,1.84,188.5577367,None,190.4034295,None,None,1,,190.4034295,None,192.408011,None,,,,,,,,,,,,,,,,,,,,,,,,,,,,,,,P006,fencog,2,Post,2021_Jul_21_1313,N-Back (New Version 2021),2021.1.4,120.2734056
Conditions/Version_2Pr/oneback(1)_v2.xlsx,New rule: Press 'space' when you see 1-back (i.e. the same letter as the one that appeared 1 letter ago.),t,None,,,,,0,1,1,1,0,1,1,1,,,,,,,,,,,,,,,,,,,,,,,,,,,,,,,,,,,,,,,,,,,1.09,193.9074065,None,194.9994447,None,None,1,,194.9994447,None,197.0065934,None,,,,,,,,,,,,,,,,,,,,,,,,,,,,,,,P006,fencog,2,Post,2021_Jul_21_1313,N-Back (New Version 2021),2021.1.4,120.2734056
Conditions/Version_2Pr/oneback(1)_v2.xlsx,New rule: Press 'space' when you see 1-back (i.e. the same letter as the one that appeared 1 letter ago.),Y,None,,,,,0,1,1,1,0,2,2,2,,,,,,,,,,,,,,,,,,,,,,,,,,,,,,,,,,,,,,,,,,,1.59,198.5060639,None,200.1093181,None,None,1,,200.1093181,None,202.1051713,None,,,,,,,,,,,,,,,,,,,,,,,,,,,,,,,P006,fencog,2,Post,2021_Jul_21_1313,N-Back (New Version 2021),2021.1.4,120.2734056
Conditions/Version_2Pr/oneback(1)_v2.xlsx,New rule: Press 'space' when you see 1-back (i.e. the same letter as the one that appeared 1 letter ago.),y,space,,,,,0,1,1,1,0,3,3,3,,,,,,,,,,,,,,,,,,,,,,,,,,,,,,,,,,,,,,,,,,,1.49,203.6046224,None,205.0975719,None,space,1,0.3580943,205.0975719,None,205.4737738,None,,,,,,,,,,,,,,,,,,,,,,,,,,,,,,,P006,fencog,2,Post,2021_Jul_21_1313,N-Back (New Version 2021),2021.1.4,120.2734056
Conditions/Version_2Pr/oneback(1)_v2.xlsx,New rule: Press 'space' when you see 1-back (i.e. the same letter as the one that appeared 1 letter ago.),p,None,,,,,0,1,1,1,0,4,4,4,,,,,,,,,,,,,,,,,,,,,,,,,,,,,,,,,,,,,,,,,,,1.365,206.9797356,None,208.3471424,None,None,1,,208.3471424,None,210.3484316,None,,,,,,,,,,,,,,,,,,,,,,,,,,,,,,,P006,fencog,2,Post,2021_Jul_21_1313,N-Back (New Version 2021),2021.1.4,120.2734056
Conditions/Version_2Pr/oneback(1)_v2.xlsx,New rule: Press 'space' when you see 1-back (i.e. the same letter as the one that appeared 1 letter ago.),P,space,,,,,0,1,1,1,0,5,5,5,,,,,,,,,,,,,,,,,,,,,,,,,,,,,,,,,,,,,,,,,,,1.04,211.8521117,None,212.8962846,None,space,1,0.3178672,212.8962846,None,213.2319927,None,,,,,,,,,,,,,,,,,,,,,,,,,,,,,,,P006,fencog,2,Post,2021_Jul_21_1313,N-Back (New Version 2021),2021.1.4,120.2734056
Conditions/Version_2Pr/oneback(1)_v2.xlsx,New rule: Press 'space' when you see 1-back (i.e. the same letter as the one that appeared 1 letter ago.),e,None,,,,,0,1,1,1,0,6,6,6,,,,,,,,,,,,,,,,,,,,,,,,,,,,,,,,,,,,,,,,,,,1.64,214.7359209,None,216.3823653,None,None,1,,216.3823653,None,218.3835608,None,,,,,,,,,,,,,,,,,,,,,,,,,,,,,,,P006,fencog,2,Post,2021_Jul_21_1313,N-Back (New Version 2021),2021.1.4,120.2734056
Conditions/Version_2Pr/oneback(1)_v2.xlsx,New rule: Press 'space' when you see 1-back (i.e. the same letter as the one that appeared 1 letter ago.),r,None,,,,,0,1,1,1,0,7,7,7,,,,,,,,,,,,,,,,,,,,,,,,,,,,,,,,,,,,,,,,,,,1.99,219.8830695,None,221.8752829,None,None,1,,221.8752829,None,223.8819862,None,,,,,,,,,,,,,,,,,,,,,,,,,,,,,,,P006,fencog,2,Post,2021_Jul_21_1313,N-Back (New Version 2021),2021.1.4,120.2734056
Conditions/Version_2Pr/oneback(1)_v2.xlsx,New rule: Press 'space' when you see 1-back (i.e. the same letter as the one that appeared 1 letter ago.),R,space,,,,,0,1,1,1,0,8,8,8,,,,,,,,,,,,,,,,,,,,,,,,,,,,,,,,,,,,,,,,,,,1.715,225.381504,None,227.1048798,None,space,1,0.3732326,227.1048798,None,227.4930432,None,,,,,,,,,,,,,,,,,,,,,,,,,,,,,,,P006,fencog,2,Post,2021_Jul_21_1313,N-Back (New Version 2021),2021.1.4,120.2734056
Conditions/Version_2Pr/oneback(1)_v2.xlsx,New rule: Press 'space' when you see 1-back (i.e. the same letter as the one that appeared 1 letter ago.),p,None,,,,,0,1,1,1,0,9,9,9,,,,,,,,,,,,,,,,,,,,,,,,,,,,,,,,,,,,,,,,,,,1.94,228.9969752,None,230.9402614,None,None,1,,230.9402614,None,232.9457607,None,,,,,,,,,,,,,,,,,,,,,,,,,,,,,,,P006,fencog,2,Post,2021_Jul_21_1313,N-Back (New Version 2021),2021.1.4,120.2734056
Conditions/Version_2Pr/oneback(1)_v2.xlsx,New rule: Press 'space' when you see 1-back (i.e. the same letter as the one that appeared 1 letter ago.),,,,,,,0,1,1,1,,,,,,,,,,,,,,,,,,,,,,,,,,,,,,,,,,,,,,,,,,,,,,,,,,,,,,,,,,,,,,,,,,,,,,,,,,,,,,,,,,,,,,,,,P006,fencog,2,Post,2021_Jul_21_1313,N-Back (New Version 2021),2021.1.4,120.2734056
Conditions/Version_2Pr/twoback(1)_v2.xlsx,New rule: Press 'space' when you see 2-back (i.e. the same letter as the one that appeared 2 letters ago.),r,None,,,,,0,2,2,2,0,0,0,0,,,,,,,,,,,,,,,,,,,,,,,,,,,,,,,,,234.4692361,None,237.452719,None,space,0.7298282,237.452719,None,234.4692361,None,1.04,238.2000086,None,239.2486908,None,None,1,,239.2486908,None,241.2518345,None,,,,,,,,,,,,,,,,,,,,,,,,,,,,,,,P006,fencog,2,Post,2021_Jul_21_1313,N-Back (New Version 2021),2021.1.4,120.2734056
Conditions/Version_2Pr/twoback(1)_v2.xlsx,New rule: Press 'space' when you see 2-back (i.e. the same letter as the one that appeared 2 letters ago.),P,None,,,,,0,2,2,2,0,1,1,1,,,,,,,,,,,,,,,,,,,,,,,,,,,,,,,,,,,,,,,,,,,1.215,242.7512094,None,243.9682755,None,None,1,,243.9682755,None,245.9754125,None,,,,,,,,,,,,,,,,,,,,,,,,,,,,,,,P006,fencog,2,Post,2021_Jul_21_1313,N-Back (New Version 2021),2021.1.4,120.2734056
Conditions/Version_2Pr/twoback(1)_v2.xlsx,New rule: Press 'space' when you see 2-back (i.e. the same letter as the one that appeared 2 letters ago.),o,None,,,,,0,2,2,2,0,2,2,2,,,,,,,,,,,,,,,,,,,,,,,,,,,,,,,,,,,,,,,,,,,1.44,247.4749585,None,248.9198479,None,None,1,,248.9198479,None,250.9240189,None,,,,,,,,,,,,,,,,,,,,,,,,,,,,,,,P006,fencog,2,Post,2021_Jul_21_1313,N-Back (New Version 2021),2021.1.4,120.2734056
Conditions/Version_2Pr/twoback(1)_v2.xlsx,New rule: Press 'space' when you see 2-back (i.e. the same letter as the one that appeared 2 letters ago.),p,space,,,,,0,2,2,2,0,3,3,3,,,,,,,,,,,,,,,,,,,,,,,,,,,,,,,,,,,,,,,,,,,1.89,252.4231152,None,254.3154676,None,space,1,0.3310448,254.3154676,None,254.657588,None,,,,,,,,,,,,,,,,,,,,,,,,,,,,,,,P006,fencog,2,Post,2021_Jul_21_1313,N-Back (New Version 2021),2021.1.4,120.2734056
Conditions/Version_2Pr/twoback(1)_v2.xlsx,New rule: Press 'space' when you see 2-back (i.e. the same letter as the one that appeared 2 letters ago.),Y,None,,,,,0,2,2,2,0,4,4,4,,,,,,,,,,,,,,,,,,,,,,,,,,,,,,,,,,,,,,,,,,,1.065,256.1639021,None,257.2323155,None,None,1,,257.2323155,None,259.2382372,None,,,,,,,,,,,,,,,,,,,,,,,,,,,,,,,P006,fencog,2,Post,2021_Jul_21_1313,N-Back (New Version 2021),2021.1.4,120.2734056
Conditions/Version_2Pr/twoback(1)_v2.xlsx,New rule: Press 'space' when you see 2-back (i.e. the same letter as the one that appeared 2 letters ago.),q,None,,,,,0,2,2,2,0,5,5,5,,,,,,,,,,,,,,,,,,,,,,,,,,,,,,,,,,,,,,,,,,,1.515,260.7377496,None,262.255622,None,None,1,,262.255622,None,264.2616389,None,,,,,,,,,,,,,,,,,,,,,,,,,,,,,,,P006,fencog,2,Post,2021_Jul_21_1313,N-Back (New Version 2021),2021.1.4,120.2734056
Conditions/Version_2Pr/twoback(1)_v2.xlsx,New rule: Press 'space' when you see 2-back (i.e. the same letter as the one that appeared 2 letters ago.),m,None,,,,,0,2,2,2,0,6,6,6,,,,,,,,,,,,,,,,,,,,,,,,,,,,,,,,,,,,,,,,,,,1.84,265.7609906,None,267.6071858,None,None,1,,267.6071858,None,269.6101095,None,,,,,,,,,,,,,,,,,,,,,,,,,,,,,,,P006,fencog,2,Post,2021_Jul_21_1313,N-Back (New Version 2021),2021.1.4,120.2734056
Conditions/Version_2Pr/twoback(1)_v2.xlsx,New rule: Press 'space' when you see 2-back (i.e. the same letter as the one that appeared 2 letters ago.),Q,space,,,,,0,2,2,2,0,7,7,7,,,,,,,,,,,,,,,,,,,,,,,,,,,,,,,,,,,,,,,,,,,1.39,271.109702,None,272.50288,None,space,1,0.9993528,272.50288,None,273.5186594,None,,,,,,,,,,,,,,,,,,,,,,,,,,,,,,,P006,fencog,2,Post,2021_Jul_21_1313,N-Back (New Version 2021),2021.1.4,120.2734056
Conditions/Version_2Pr/twoback(1)_v2.xlsx,New rule: Press 'space' when you see 2-back (i.e. the same letter as the one that appeared 2 letters ago.),L,None,,,,,0,2,2,2,0,8,8,8,,,,,,,,,,,,,,,,,,,,,,,,,,,,,,,,,,,,,,,,,,,1.49,275.02511,None,276.5199133,None,None,1,,276.5199133,None,278.5180709,None,,,,,,,,,,,,,,,,,,,,,,,,,,,,,,,P006,fencog,2,Post,2021_Jul_21_1313,N-Back (New Version 2021),2021.1.4,120.2734056
Conditions/Version_2Pr/twoback(1)_v2.xlsx,New rule: Press 'space' when you see 2-back (i.e. the same letter as the one that appeared 2 letters ago.),q,space,,,,,0,2,2,2,0,9,9,9,,,,,,,,,,,,,,,,,,,,,,,,,,,,,,,,,,,,,,,,,,,1.34,280.0236574,None,281.3648635,None,space,1,0.7051854,281.3648635,None,282.0884083,None,,,,,,,,,,,,,,,,,,,,,,,,,,,,,,,P006,fencog,2,Post,2021_Jul_21_1313,N-Back (New Version 2021),2021.1.4,120.2734056
Conditions/Version_2Pr/twoback(1)_v2.xlsx,New rule: Press 'space' when you see 2-back (i.e. the same letter as the one that appeared 2 letters ago.),,,,,,,0,2,2,2,,,,,,,,,,,,,,,,,,,,,,,,,,,,,,,,,,,,,,,,,,,,,,,,,,,,,,,,,,,,,,,,,,,,,,,,,,,,,,,,,,,,,,,,,P006,fencog,2,Post,2021_Jul_21_1313,N-Back (New Version 2021),2021.1.4,120.2734056
Conditions/Version_2Pr/threeback(1)_v2.xlsx,New rule: Press 'space' when you see 3-back (i.e. the same letter as the one that appeared 3 letters ago.),u,None,,,,,0,3,3,3,0,0,0,0,,,,,,,,,,,,,,,,,,,,,,,,,,,,,,,,,283.6219903,None,286.606842,None,space,8.1353125,286.606842,None,283.6219903,None,1.34,294.7688893,None,296.1134288,None,None,1,,296.1134288,None,298.1181409,None,,,,,,,,,,,,,,,,,,,,,,,,,,,,,,,P006,fencog,2,Post,2021_Jul_21_1313,N-Back (New Version 2021),2021.1.4,120.2734056
Conditions/Version_2Pr/threeback(1)_v2.xlsx,New rule: Press 'space' when you see 3-back (i.e. the same letter as the one that appeared 3 letters ago.),U,None,,,,,0,3,3,3,0,1,1,1,,,,,,,,,,,,,,,,,,,,,,,,,,,,,,,,,,,,,,,,,,,1.14,299.6176931,None,300.7597888,None,None,1,,300.7597888,None,302.7584264,None,,,,,,,,,,,,,,,,,,,,,,,,,,,,,,,P006,fencog,2,Post,2021_Jul_21_1313,N-Back (New Version 2021),2021.1.4,120.2734056
Conditions/Version_2Pr/threeback(1)_v2.xlsx,New rule: Press 'space' when you see 3-back (i.e. the same letter as the one that appeared 3 letters ago.),p,None,,,,,0,3,3,3,0,2,2,2,,,,,,,,,,,,,,,,,,,,,,,,,,,,,,,,,,,,,,,,,,,1.54,304.2579417,None,305.80086,None,None,1,,305.80086,None,307.8069391,None,,,,,,,,,,,,,,,,,,,,,,,,,,,,,,,P006,fencog,2,Post,2021_Jul_21_1313,N-Back (New Version 2021),2021.1.4,120.2734056
Conditions/Version_2Pr/threeback(1)_v2.xlsx,New rule: Press 'space' when you see 3-back (i.e. the same letter as the one that appeared 3 letters ago.),U,space,,,,,0,3,3,3,0,3,3,3,,,,,,,,,,,,,,,,,,,,,,,,,,,,,,,,,,,,,,,,,,,1.065,309.3065724,None,310.3751852,None,space,1,0.303487,310.3751852,None,310.6984216,None,,,,,,,,,,,,,,,,,,,,,,,,,,,,,,,P006,fencog,2,Post,2021_Jul_21_1313,N-Back (New Version 2021),2021.1.4,120.2734056
Conditions/Version_2Pr/threeback(1)_v2.xlsx,New rule: Press 'space' when you see 3-back (i.e. the same letter as the one that appeared 3 letters ago.),e,None,,,,,0,3,3,3,0,4,4,4,,,,,,,,,,,,,,,,,,,,,,,,,,,,,,,,,,,,,,,,,,,1.49,312.1974135,None,313.6886117,None,None,1,,313.6886117,None,315.6877885,None,,,,,,,,,,,,,,,,,,,,,,,,,,,,,,,P006,fencog,2,Post,2021_Jul_21_1313,N-Back (New Version 2021),2021.1.4,120.2734056
Conditions/Version_2Pr/threeback(1)_v2.xlsx,New rule: Press 'space' when you see 3-back (i.e. the same letter as the one that appeared 3 letters ago.),R,None,,,,,0,3,3,3,0,5,5,5,,,,,,,,,,,,,,,,,,,,,,,,,,,,,,,,,,,,,,,,,,,1.465,317.190605,None,318.6621989,None,None,1,,318.6621989,None,320.6614479,None,,,,,,,,,,,,,,,,,,,,,,,,,,,,,,,P006,fencog,2,Post,2021_Jul_21_1313,N-Back (New Version 2021),2021.1.4,120.2734056
Conditions/Version_2Pr/threeback(1)_v2.xlsx,New rule: Press 'space' when you see 3-back (i.e. the same letter as the one that appeared 3 letters ago.),p,None,,,,,0,3,3,3,0,6,6,6,,,,,,,,,,,,,,,,,,,,,,,,,,,,,,,,,,,,,,,,,,,1.715,322.1612144,None,323.8793178,None,space,0,0.6228023,323.8793178,None,324.5154444,None,,,,,,,,,,,,,,,,,,,,,,,,,,,,,,,P006,fencog,2,Post,2021_Jul_21_1313,N-Back (New Version 2021),2021.1.4,120.2734056
Conditions/Version_2Pr/threeback(1)_v2.xlsx,New rule: Press 'space' when you see 3-back (i.e. the same letter as the one that appeared 3 letters ago.),E,space,,,,,0,3,3,3,0,7,7,7,,,,,,,,,,,,,,,,,,,,,,,,,,,,,,,,,,,,,,,,,,,1.74,326.0184837,None,327.762692,None,None,0,,327.762692,None,329.7713612,None,,,,,,,,,,,,,,,,,,,,,,,,,,,,,,,P006,fencog,2,Post,2021_Jul_21_1313,N-Back (New Version 2021),2021.1.4,120.2734056
Conditions/Version_2Pr/threeback(1)_v2.xlsx,New rule: Press 'space' when you see 3-back (i.e. the same letter as the one that appeared 3 letters ago.),k,None,,,,,0,3,3,3,0,8,8,8,,,,,,,,,,,,,,,,,,,,,,,,,,,,,,,,,,,,,,,,,,,1.965,331.2668388,None,333.2362833,None,None,1,,333.2362833,None,335.2408698,None,,,,,,,,,,,,,,,,,,,,,,,,,,,,,,,P006,fencog,2,Post,2021_Jul_21_1313,N-Back (New Version 2021),2021.1.4,120.2734056
Conditions/Version_2Pr/threeback(1)_v2.xlsx,New rule: Press 'space' when you see 3-back (i.e. the same letter as the one that appeared 3 letters ago.),m,None,,,,,0,3,3,3,0,9,9,9,,,,,,,,,,,,,,,,,,,,,,,,,,,,,,,,,,,,,,,,,,,1.44,336.7402122,None,338.1825179,None,None,1,,338.1825179,None,340.1892714,None,,,,,,,,,,,,,,,,,,,,,,,,,,,,,,,P006,fencog,2,Post,2021_Jul_21_1313,N-Back (New Version 2021),2021.1.4,120.2734056
Conditions/Version_2Pr/threeback(1)_v2.xlsx,New rule: Press 'space' when you see 3-back (i.e. the same letter as the one that appeared 3 letters ago.),,,,,,,0,3,3,3,,,,,,,,,,,,,,,,,,,,,,,,,,,,,,,,,,,,,,,,,,,,,,,,,,,,,,,,,,,,,,,,,,,,,,,,,,,,,,,,,,,,,,,,,P006,fencog,2,Post,2021_Jul_21_1313,N-Back (New Version 2021),2021.1.4,120.2734056
,,,,,,,,,,,,,,,,,,,,,,,,,,,,,,,,,,,,,,,,,,,,,,,,,,,,,,,,,,,,,,,,,,,,,,341.7007878,None,space,23.3221024,342.1886735,None,,,,,,,,,,,,,,,,,,,,,,,,,P006,fencog,2,Post,2021_Jul_21_1313,N-Back (New Version 2021),2021.1.4,120.2734056
,,,,,,,,,,,,,,,,,,,,,,,,,,,,,,,,,,,,,,,,,,,,,,,,,,,,,,,,,,,,,,,,,,,,,,,,,,,,365.5325054,None,space,5.8859127,366.0321268,None,,,,,,,,,,,,,,,,,,,P006,fencog,2,Post,2021_Jul_21_1313,N-Back (New Version 2021),2021.1.4,120.2734056
,,,,Conditions/Version_1/zeroback(1)_v1.xlsx,Rule: Press 'space' when you see the letter 'x' or 'X'.,b,None,,,,,,,,,0,0,0,0,0,0,0,0,,,,,,,,,,,,,,,,,,,,,,,,,,,,,,,,,,,,,,,,,,,,,,,,,,,,,,,,,,,372.0252104,None,375.0143086,None,space,0.5436231,375.0143086,None,372.0252104,None,1.1092,376.6987222,None,None,1,376.6987222,None,,P006,fencog,2,Post,2021_Jul_21_1313,N-Back (New Version 2021),2021.1.4,120.2734056
,,,,Conditions/Version_1/zeroback(1)_v1.xlsx,Rule: Press 'space' when you see the letter 'x' or 'X'.,T,None,,,,,,,,,0,0,0,0,0,1,1,1,,,,,,,,,,,,,,,,,,,,,,,,,,,,,,,,,,,,,,,,,,,,,,,,,,,,,,,,,,,,,,,,,,,,,1.3572,380.0616349,None,None,1,380.0616349,None,,P006,fencog,2,Post,2021_Jul_21_1313,N-Back (New Version 2021),2021.1.4,120.2734056
,,,,Conditions/Version_1/zeroback(1)_v1.xlsx,Rule: Press 'space' when you see the letter 'x' or 'X'.,L,None,,,,,,,,,0,0,0,0,0,2,2,2,,,,,,,,,,,,,,,,,,,,,,,,,,,,,,,,,,,,,,,,,,,,,,,,,,,,,,,,,,,,,,,,,,,,,1.0224,383.094893,None,None,1,383.094893,None,,P006,fencog,2,Post,2021_Jul_21_1313,N-Back (New Version 2021),2021.1.4,120.2734056
,,,,Conditions/Version_1/zeroback(1)_v1.xlsx,Rule: Press 'space' when you see the letter 'x' or 'X'.,x,space,,,,,,,,,0,0,0,0,0,3,3,3,,,,,,,,,,,,,,,,,,,,,,,,,,,,,,,,,,,,,,,,,,,,,,,,,,,,,,,,,,,,,,,,,,,,,1.2022,386.3098893,None,space,1,386.3098893,None,1.1605068,P006,fencog,2,Post,2021_Jul_21_1313,N-Back (New Version 2021),2021.1.4,120.2734056
,,,,Conditions/Version_1/zeroback(1)_v1.xlsx,Rule: Press 'space' when you see the letter 'x' or 'X'.,o,None,,,,,,,,,0,0,0,0,0,4,4,4,,,,,,,,,,,,,,,,,,,,,,,,,,,,,,,,,,,,,,,,,,,,,,,,,,,,,,,,,,,,,,,,,,,,,1.1898,389.5095555,None,None,1,389.5095555,None,,P006,fencog,2,Post,2021_Jul_21_1313,N-Back (New Version 2021),2021.1.4,120.2734056
,,,,Conditions/Version_1/zeroback(1)_v1.xlsx,Rule: Press 'space' when you see the letter 'x' or 'X'.,P,None,,,,,,,,,0,0,0,0,0,5,5,5,,,,,,,,,,,,,,,,,,,,,,,,,,,,,,,,,,,,,,,,,,,,,,,,,,,,,,,,,,,,,,,,,,,,,1.5308,393.0503426,None,None,1,393.0503426,None,,P006,fencog,2,Post,2021_Jul_21_1313,N-Back (New Version 2021),2021.1.4,120.2734056
,,,,Conditions/Version_1/zeroback(1)_v1.xlsx,Rule: Press 'space' when you see the letter 'x' or 'X'.,X,space,,,,,,,,,0,0,0,0,0,6,6,6,,,,,,,,,,,,,,,,,,,,,,,,,,,,,,,,,,,,,,,,,,,,,,,,,,,,,,,,,,,,,,,,,,,,,1.2208,396.2857744,None,space,1,396.2857744,None,0.3443241,P006,fencog,2,Post,2021_Jul_21_1313,N-Back (New Version 2021),2021.1.4,120.2734056
,,,,Conditions/Version_1/zeroback(1)_v1.xlsx,Rule: Press 'space' when you see the letter 'x' or 'X'.,n,None,,,,,,,,,0,0,0,0,0,7,7,7,,,,,,,,,,,,,,,,,,,,,,,,,,,,,,,,,,,,,,,,,,,,,,,,,,,,,,,,,,,,,,,,,,,,,1.2456,399.5393832,None,None,1,399.5393832,None,,P006,fencog,2,Post,2021_Jul_21_1313,N-Back (New Version 2021),2021.1.4,120.2734056
,,,,Conditions/Version_1/zeroback(1)_v1.xlsx,Rule: Press 'space' when you see the letter 'x' or 'X'.,M,None,,,,,,,,,0,0,0,0,0,8,8,8,,,,,,,,,,,,,,,,,,,,,,,,,,,,,,,,,,,,,,,,,,,,,,,,,,,,,,,,,,,,,,,,,,,,,1.0286,402.5848675,None,None,1,402.5848675,None,,P006,fencog,2,Post,2021_Jul_21_1313,N-Back (New Version 2021),2021.1.4,120.2734056
,,,,Conditions/Version_1/zeroback(1)_v1.xlsx,Rule: Press 'space' when you see the letter 'x' or 'X'.,a,None,,,,,,,,,0,0,0,0,0,9,9,9,,,,,,,,,,,,,,,,,,,,,,,,,,,,,,,,,,,,,,,,,,,,,,,,,,,,,,,,,,,,,,,,,,,,,1.4068,405.9978235,None,None,1,405.9978235,None,,P006,fencog,2,Post,2021_Jul_21_1313,N-Back (New Version 2021),2021.1.4,120.2734056
,,,,Conditions/Version_1/zeroback(1)_v1.xlsx,Rule: Press 'space' when you see the letter 'x' or 'X'.,,,,,,,,,,,0,0,0,0,,,,,,,,,,,,,,,,,,,,,,,,,,,,,,,,,,,,,,,,,,,,,,,,,,,,,,,,,,,,,,,,,,,,,,,,,,,,,,,,,P006,fencog,2,Post,2021_Jul_21_1313,N-Back (New Version 2021),2021.1.4,120.2734056
,,,,Conditions/Version_1/oneback(1)_v1.xlsx,New rule: Press 'space' when you see 1-back (i.e. the same letter as the one that appeared 1 letter ago.),b,None,,,,,,,,,0,1,1,1,0,0,0,0,,,,,,,,,,,,,,,,,,,,,,,,,,,,,,,,,,,,,,,,,,,,,,,,,,,,,,,,,,,408.0230364,None,411.011553,None,space,1.6268493,411.011553,None,408.0230364,None,1.4564,414.1192975,None,None,1,414.1192975,None,,P006,fencog,2,Post,2021_Jul_21_1313,N-Back (New Version 2021),2021.1.4,120.2734056
,,,,Conditions/Version_1/oneback(1)_v1.xlsx,New rule: Press 'space' when you see 1-back (i.e. the same letter as the one that appeared 1 letter ago.),p,None,,,,,,,,,0,1,1,1,0,1,1,1,,,,,,,,,,,,,,,,,,,,,,,,,,,,,,,,,,,,,,,,,,,,,,,,,,,,,,,,,,,,,,,,,,,,,1.94,418.0688348,None,None,1,418.0688348,None,,P006,fencog,2,Post,2021_Jul_21_1313,N-Back (New Version 2021),2021.1.4,120.2734056
,,,,Conditions/Version_1/oneback(1)_v1.xlsx,New rule: Press 'space' when you see 1-back (i.e. the same letter as the one that appeared 1 letter ago.),M,None,,,,,,,,,0,1,1,1,0,2,2,2,,,,,,,,,,,,,,,,,,,,,,,,,,,,,,,,,,,,,,,,,,,,,,,,,,,,,,,,,,,,,,,,,,,,,1.7416,421.8163396,None,None,1,421.8163396,None,,P006,fencog,2,Post,2021_Jul_21_1313,N-Back (New Version 2021),2021.1.4,120.2734056
,,,,Conditions/Version_1/oneback(1)_v1.xlsx,New rule: Press 'space' when you see 1-back (i.e. the same letter as the one that appeared 1 letter ago.),M,space,,,,,,,,,0,1,1,1,0,3,3,3,,,,,,,,,,,,,,,,,,,,,,,,,,,,,,,,,,,,,,,,,,,,,,,,,,,,,,,,,,,,,,,,,,,,,1.692,425.5142901,None,space,1,425.5142901,None,0.4439122,P006,fencog,2,Post,2021_Jul_21_1313,N-Back (New Version 2021),2021.1.4,120.2734056
,,,,Conditions/Version_1/oneback(1)_v1.xlsx,New rule: Press 'space' when you see 1-back (i.e. the same letter as the one that appeared 1 letter ago.),n,None,,,,,,,,,0,1,1,1,0,4,4,4,,,,,,,,,,,,,,,,,,,,,,,,,,,,,,,,,,,,,,,,,,,,,,,,,,,,,,,,,,,,,,,,,,,,,1.5494,429.0642826,None,None,1,429.0642826,None,,P006,fencog,2,Post,2021_Jul_21_1313,N-Back (New Version 2021),2021.1.4,120.2734056
,,,,Conditions/Version_1/oneback(1)_v1.xlsx,New rule: Press 'space' when you see 1-back (i.e. the same letter as the one that appeared 1 letter ago.),g,None,,,,,,,,,0,1,1,1,0,5,5,5,,,,,,,,,,,,,,,,,,,,,,,,,,,,,,,,,,,,,,,,,,,,,,,,,,,,,,,,,,,,,,,,,,,,,1.4192,432.4883418,None,None,1,432.4883418,None,,P006,fencog,2,Post,2021_Jul_21_1313,N-Back (New Version 2021),2021.1.4,120.2734056
,,,,Conditions/Version_1/oneback(1)_v1.xlsx,New rule: Press 'space' when you see 1-back (i.e. the same letter as the one that appeared 1 letter ago.),P,None,,,,,,,,,0,1,1,1,0,6,6,6,,,,,,,,,,,,,,,,,,,,,,,,,,,,,,,,,,,,,,,,,,,,,,,,,,,,,,,,,,,,,,,,,,,,,1.1464,435.6460423,None,None,1,435.6460423,None,,P006,fencog,2,Post,2021_Jul_21_1313,N-Back (New Version 2021),2021.1.4,120.2734056
,,,,Conditions/Version_1/oneback(1)_v1.xlsx,New rule: Press 'space' when you see 1-back (i.e. the same letter as the one that appeared 1 letter ago.),o,None,,,,,,,,,0,1,1,1,0,7,7,7,,,,,,,,,,,,,,,,,,,,,,,,,,,,,,,,,,,,,,,,,,,,,,,,,,,,,,,,,,,,,,,,,,,,,1.6486,439.3033934,None,None,1,439.3033934,None,,P006,fencog,2,Post,2021_Jul_21_1313,N-Back (New Version 2021),2021.1.4,120.2734056
,,,,Conditions/Version_1/oneback(1)_v1.xlsx,New rule: Press 'space' when you see 1-back (i.e. the same letter as the one that appeared 1 letter ago.),f,None,,,,,,,,,0,1,1,1,0,8,8,8,,,,,,,,,,,,,,,,,,,,,,,,,,,,,,,,,,,,,,,,,,,,,,,,,,,,,,,,,,,,,,,,,,,,,1.382,442.6938686,None,None,1,442.6938686,None,,P006,fencog,2,Post,2021_Jul_21_1313,N-Back (New Version 2021),2021.1.4,120.2734056
,,,,Conditions/Version_1/oneback(1)_v1.xlsx,New rule: Press 'space' when you see 1-back (i.e. the same letter as the one that appeared 1 letter ago.),F,space,,,,,,,,,0,1,1,1,0,9,9,9,,,,,,,,,,,,,,,,,,,,,,,,,,,,,,,,,,,,,,,,,,,,,,,,,,,,,,,,,,,,,,,,,,,,,1.227,445.936043,None,space,1,445.936043,None,0.3499579,P006,fencog,2,Post,2021_Jul_21_1313,N-Back (New Version 2021),2021.1.4,120.2734056
,,,,Conditions/Version_1/oneback(1)_v1.xlsx,New rule: Press 'space' when you see 1-back (i.e. the same letter as the one that appeared 1 letter ago.),,,,,,,,,,,0,1,1,1,,,,,,,,,,,,,,,,,,,,,,,,,,,,,,,,,,,,,,,,,,,,,,,,,,,,,,,,,,,,,,,,,,,,,,,,,,,,,,,,,P006,fencog,2,Post,2021_Jul_21_1313,N-Back (New Version 2021),2021.1.4,120.2734056
,,,,Conditions/Version_1/twoback(1)_v1.xlsx,New rule: Press 'space' when you see 2-back (i.e. the same letter as the one that appeared 2 letters ago.),b,None,,,,,,,,,0,2,2,2,0,0,0,0,,,,,,,,,,,,,,,,,,,,,,,,,,,,,,,,,,,,,,,,,,,,,,,,,,,,,,,,,,,447.9614265,None,450.9502945,None,space,1.7916794,450.9502945,None,447.9614265,None,1.8098,454.5746997,None,None,1,454.5746997,None,,P006,fencog,2,Post,2021_Jul_21_1313,N-Back (New Version 2021),2021.1.4,120.2734056
,,,,Conditions/Version_1/twoback(1)_v1.xlsx,New rule: Press 'space' when you see 2-back (i.e. the same letter as the one that appeared 2 letters ago.),h,None,,,,,,,,,0,2,2,2,0,1,1,1,,,,,,,,,,,,,,,,,,,,,,,,,,,,,,,,,,,,,,,,,,,,,,,,,,,,,,,,,,,,,,,,,,,,,1.9896,458.5735494,None,None,1,458.5735494,None,,P006,fencog,2,Post,2021_Jul_21_1313,N-Back (New Version 2021),2021.1.4,120.2734056
,,,,Conditions/Version_1/twoback(1)_v1.xlsx,New rule: Press 'space' when you see 2-back (i.e. the same letter as the one that appeared 2 letters ago.),j,None,,,,,,,,,0,2,2,2,0,2,2,2,,,,,,,,,,,,,,,,,,,,,,,,,,,,,,,,,,,,,,,,,,,,,,,,,,,,,,,,,,,,,,,,,,,,,1.9648,462.5484559,None,None,1,462.5484559,None,,P006,fencog,2,Post,2021_Jul_21_1313,N-Back (New Version 2021),2021.1.4,120.2734056
,,,,Conditions/Version_1/twoback(1)_v1.xlsx,New rule: Press 'space' when you see 2-back (i.e. the same letter as the one that appeared 2 letters ago.),H,space,,,,,,,,,0,2,2,2,0,3,3,3,,,,,,,,,,,,,,,,,,,,,,,,,,,,,,,,,,,,,,,,,,,,,,,,,,,,,,,,,,,,,,,,,,,,,1.9276,466.4927762,None,space,1,466.4927762,None,0.7534582,P006,fencog,2,Post,2021_Jul_21_1313,N-Back (New Version 2021),2021.1.4,120.2734056
,,,,Conditions/Version_1/twoback(1)_v1.xlsx,New rule: Press 'space' when you see 2-back (i.e. the same letter as the one that appeared 2 letters ago.),p,None,,,,,,,,,0,2,2,2,0,4,4,4,,,,,,,,,,,,,,,,,,,,,,,,,,,,,,,,,,,,,,,,,,,,,,,,,,,,,,,,,,,,,,,,,,,,,1.4564,469.9603793,None,None,1,469.9603793,None,,P006,fencog,2,Post,2021_Jul_21_1313,N-Back (New Version 2021),2021.1.4,120.2734056
,,,,Conditions/Version_1/twoback(1)_v1.xlsx,New rule: Press 'space' when you see 2-back (i.e. the same letter as the one that appeared 2 letters ago.),p,None,,,,,,,,,0,2,2,2,0,5,5,5,,,,,,,,,,,,,,,,,,,,,,,,,,,,,,,,,,,,,,,,,,,,,,,,,,,,,,,,,,,,,,,,,,,,,1.2146,473.1831865,None,None,1,473.1831865,None,,P006,fencog,2,Post,2021_Jul_21_1313,N-Back (New Version 2021),2021.1.4,120.2734056
,,,,Conditions/Version_1/twoback(1)_v1.xlsx,New rule: Press 'space' when you see 2-back (i.e. the same letter as the one that appeared 2 letters ago.),w,None,,,,,,,,,0,2,2,2,0,6,6,6,,,,,,,,,,,,,,,,,,,,,,,,,,,,,,,,,,,,,,,,,,,,,,,,,,,,,,,,,,,,,,,,,,,,,1.8904,477.074911,None,None,1,477.074911,None,,P006,fencog,2,Post,2021_Jul_21_1313,N-Back (New Version 2021),2021.1.4,120.2734056
,,,,Conditions/Version_1/twoback(1)_v1.xlsx,New rule: Press 'space' when you see 2-back (i.e. the same letter as the one that appeared 2 letters ago.),R,None,,,,,,,,,0,2,2,2,0,7,7,7,,,,,,,,,,,,,,,,,,,,,,,,,,,,,,,,,,,,,,,,,,,,,,,,,,,,,,,,,,,,,,,,,,,,,1.6548,480.7403558,None,None,1,480.7403558,None,,P006,fencog,2,Post,2021_Jul_21_1313,N-Back (New Version 2021),2021.1.4,120.2734056
,,,,Conditions/Version_1/twoback(1)_v1.xlsx,New rule: Press 'space' when you see 2-back (i.e. the same letter as the one that appeared 2 letters ago.),a,None,,,,,,,,,0,2,2,2,0,8,8,8,,,,,,,,,,,,,,,,,,,,,,,,,,,,,,,,,,,,,,,,,,,,,,,,,,,,,,,,,,,,,,,,,,,,,1.94,484.6880212,None,None,1,484.6880212,None,,P006,fencog,2,Post,2021_Jul_21_1313,N-Back (New Version 2021),2021.1.4,120.2734056
,,,,Conditions/Version_1/twoback(1)_v1.xlsx,New rule: Press 'space' when you see 2-back (i.e. the same letter as the one that appeared 2 letters ago.),r,space,,,,,,,,,0,2,2,2,0,9,9,9,,,,,,,,,,,,,,,,,,,,,,,,,,,,,,,,,,,,,,,,,,,,,,,,,,,,,,,,,,,,,,,,,,,,,1.258,487.9453147,None,space,1,487.9453147,None,0.7173591,P006,fencog,2,Post,2021_Jul_21_1313,N-Back (New Version 2021),2021.1.4,120.2734056
,,,,Conditions/Version_1/twoback(1)_v1.xlsx,New rule: Press 'space' when you see 2-back (i.e. the same letter as the one that appeared 2 letters ago.),,,,,,,,,,,0,2,2,2,,,,,,,,,,,,,,,,,,,,,,,,,,,,,,,,,,,,,,,,,,,,,,,,,,,,,,,,,,,,,,,,,,,,,,,,,,,,,,,,,P006,fencog,2,Post,2021_Jul_21_1313,N-Back (New Version 2021),2021.1.4,120.2734056
,,,,Conditions/Version_1/threeback(1)_v1.xlsx,New rule: Press 'space' when you see 3-back (i.e. the same letter as the one that appeared 3 letters ago.),r,None,,,,,,,,,0,3,3,3,0,0,0,0,,,,,,,,,,,,,,,,,,,,,,,,,,,,,,,,,,,,,,,,,,,,,,,,,,,,,,,,,,,489.9698914,None,492.9549402,None,space,13.5790699,492.9549402,None,489.9698914,None,1.7602,508.3228293,None,None,1,508.3228293,None,,P006,fencog,2,Post,2021_Jul_21_1313,N-Back (New Version 2021),2021.1.4,120.2734056
,,,,Conditions/Version_1/threeback(1)_v1.xlsx,New rule: Press 'space' when you see 3-back (i.e. the same letter as the one that appeared 3 letters ago.),o,None,,,,,,,,,0,3,3,3,0,1,1,1,,,,,,,,,,,,,,,,,,,,,,,,,,,,,,,,,,,,,,,,,,,,,,,,,,,,,,,,,,,,,,,,,,,,,1.9028,512.2323204,None,None,1,512.2323204,None,,P006,fencog,2,Post,2021_Jul_21_1313,N-Back (New Version 2021),2021.1.4,120.2734056
,,,,Conditions/Version_1/threeback(1)_v1.xlsx,New rule: Press 'space' when you see 3-back (i.e. the same letter as the one that appeared 3 letters ago.),P,None,,,,,,,,,0,3,3,3,0,2,2,2,,,,,,,,,,,,,,,,,,,,,,,,,,,,,,,,,,,,,,,,,,,,,,,,,,,,,,,,,,,,,,,,,,,,,1.7478,515.9967494,None,None,1,515.9967494,None,,P006,fencog,2,Post,2021_Jul_21_1313,N-Back (New Version 2021),2021.1.4,120.2734056
,,,,Conditions/Version_1/threeback(1)_v1.xlsx,New rule: Press 'space' when you see 3-back (i.e. the same letter as the one that appeared 3 letters ago.),R,space,,,,,,,,,0,3,3,3,0,3,3,3,,,,,,,,,,,,,,,,,,,,,,,,,,,,,,,,,,,,,,,,,,,,,,,,,,,,,,,,,,,,,,,,,,,,,1.8284,519.8378109,None,space,1,519.8378109,None,0.4481782,P006,fencog,2,Post,2021_Jul_21_1313,N-Back (New Version 2021),2021.1.4,120.2734056
,,,,Conditions/Version_1/threeback(1)_v1.xlsx,New rule: Press 'space' when you see 3-back (i.e. the same letter as the one that appeared 3 letters ago.),p,None,,,,,,,,,0,3,3,3,0,4,4,4,,,,,,,,,,,,,,,,,,,,,,,,,,,,,,,,,,,,,,,,,,,,,,,,,,,,,,,,,,,,,,,,,,,,,1.9276,523.7782397,None,None,1,523.7782397,None,,P006,fencog,2,Post,2021_Jul_21_1313,N-Back (New Version 2021),2021.1.4,120.2734056
,,,,Conditions/Version_1/threeback(1)_v1.xlsx,New rule: Press 'space' when you see 3-back (i.e. the same letter as the one that appeared 3 letters ago.),E,None,,,,,,,,,0,3,3,3,0,5,5,5,,,,,,,,,,,,,,,,,,,,,,,,,,,,,,,,,,,,,,,,,,,,,,,,,,,,,,,,,,,,,,,,,,,,,1.6672,527.4529602,None,None,1,527.4529602,None,,P006,fencog,2,Post,2021_Jul_21_1313,N-Back (New Version 2021),2021.1.4,120.2734056
,,,,Conditions/Version_1/threeback(1)_v1.xlsx,New rule: Press 'space' when you see 3-back (i.e. the same letter as the one that appeared 3 letters ago.),e,None,,,,,,,,,0,3,3,3,0,6,6,6,,,,,,,,,,,,,,,,,,,,,,,,,,,,,,,,,,,,,,,,,,,,,,,,,,,,,,,,,,,,,,,,,,,,,1.4998,530.9583867,None,None,1,530.9583867,None,,P006,fencog,2,Post,2021_Jul_21_1313,N-Back (New Version 2021),2021.1.4,120.2734056
,,,,Conditions/Version_1/threeback(1)_v1.xlsx,New rule: Press 'space' when you see 3-back (i.e. the same letter as the one that appeared 3 letters ago.),m,None,,,,,,,,,0,3,3,3,0,7,7,7,,,,,,,,,,,,,,,,,,,,,,,,,,,,,,,,,,,,,,,,,,,,,,,,,,,,,,,,,,,,,,,,,,,,,1.6734,534.6399669,None,None,1,534.6399669,None,,P006,fencog,2,Post,2021_Jul_21_1313,N-Back (New Version 2021),2021.1.4,120.2734056
,,,,Conditions/Version_1/threeback(1)_v1.xlsx,New rule: Press 'space' when you see 3-back (i.e. the same letter as the one that appeared 3 letters ago.),n,None,,,,,,,,,0,3,3,3,0,8,8,8,,,,,,,,,,,,,,,,,,,,,,,,,,,,,,,,,,,,,,,,,,,,,,,,,,,,,,,,,,,,,,,,,,,,,1.847,538.4897816,None,None,1,538.4897816,None,,P006,fencog,2,Post,2021_Jul_21_1313,N-Back (New Version 2021),2021.1.4,120.2734056
,,,,Conditions/Version_1/threeback(1)_v1.xlsx,New rule: Press 'space' when you see 3-back (i.e. the same letter as the one that appeared 3 letters ago.),e,space,,,,,,,,,0,3,3,3,0,9,9,9,,,,,,,,,,,,,,,,,,,,,,,,,,,,,,,,,,,,,,,,,,,,,,,,,,,,,,,,,,,,,,,,,,,,,1.9834,542.4792241,None,space,1,542.4792241,None,0.9668528,P006,fencog,2,Post,2021_Jul_21_1313,N-Back (New Version 2021),2021.1.4,120.2734056
,,,,Conditions/Version_1/threeback(1)_v1.xlsx,New rule: Press 'space' when you see 3-back (i.e. the same letter as the one that appeared 3 letters ago.),,,,,,,,,,,0,3,3,3,,,,,,,,,,,,,,,,,,,,,,,,,,,,,,,,,,,,,,,,,,,,,,,,,,,,,,,,,,,,,,,,,,,,,,,,,,,,,,,,,P006,fencog,2,Post,2021_Jul_21_1313,N-Back (New Version 2021),2021.1.4,120.2734056
,,,,Conditions/Version_1/oneback(2)_v1.xlsx,New rule: Press 'space' when you see 1-back (i.e. the same letter as the one that appeared 1 letter ago.),q,None,,,,,,,,,0,4,4,4,0,0,0,0,,,,,,,,,,,,,,,,,,,,,,,,,,,,,,,,,,,,,,,,,,,,,,,,,,,,,,,,,,,544.5036937,None,547.4885271,None,space,1.8534954,547.4885271,None,544.5036937,None,1.8532,551.2225588,None,None,1,551.2225588,None,,P006,fencog,2,Post,2021_Jul_21_1313,N-Back (New Version 2021),2021.1.4,120.2734056
,,,,Conditions/Version_1/oneback(2)_v1.xlsx,New rule: Press 'space' when you see 1-back (i.e. the same letter as the one that appeared 1 letter ago.),Q,space,,,,,,,,,0,4,4,4,0,1,1,1,,,,,,,,,,,,,,,,,,,,,,,,,,,,,,,,,,,,,,,,,,,,,,,,,,,,,,,,,,,,,,,,,,,,,1.3014,554.5337662,None,space,1,554.5337662,None,0.5442717,P006,fencog,2,Post,2021_Jul_21_1313,N-Back (New Version 2021),2021.1.4,120.2734056
,,,,Conditions/Version_1/oneback(2)_v1.xlsx,New rule: Press 'space' when you see 1-back (i.e. the same letter as the one that appeared 1 letter ago.),P,None,,,,,,,,,0,4,4,4,0,2,2,2,,,,,,,,,,,,,,,,,,,,,,,,,,,,,,,,,,,,,,,,,,,,,,,,,,,,,,,,,,,,,,,,,,,,,1.413,557.9495889,None,None,1,557.9495889,None,,P006,fencog,2,Post,2021_Jul_21_1313,N-Back (New Version 2021),2021.1.4,120.2734056
,,,,Conditions/Version_1/oneback(2)_v1.xlsx,New rule: Press 'space' when you see 1-back (i.e. the same letter as the one that appeared 1 letter ago.),o,None,,,,,,,,,0,4,4,4,0,3,3,3,,,,,,,,,,,,,,,,,,,,,,,,,,,,,,,,,,,,,,,,,,,,,,,,,,,,,,,,,,,,,,,,,,,,,1.6362,561.5912915,None,None,1,561.5912915,None,,P006,fencog,2,Post,2021_Jul_21_1313,N-Back (New Version 2021),2021.1.4,120.2734056
,,,,Conditions/Version_1/oneback(2)_v1.xlsx,New rule: Press 'space' when you see 1-back (i.e. the same letter as the one that appeared 1 letter ago.),m,None,,,,,,,,,0,4,4,4,0,4,4,4,,,,,,,,,,,,,,,,,,,,,,,,,,,,,,,,,,,,,,,,,,,,,,,,,,,,,,,,,,,,,,,,,,,,,1.5122,565.1143196,None,None,1,565.1143196,None,,P006,fencog,2,Post,2021_Jul_21_1313,N-Back (New Version 2021),2021.1.4,120.2734056
,,,,Conditions/Version_1/oneback(2)_v1.xlsx,New rule: Press 'space' when you see 1-back (i.e. the same letter as the one that appeared 1 letter ago.),Z,None,,,,,,,,,0,4,4,4,0,5,5,5,,,,,,,,,,,,,,,,,,,,,,,,,,,,,,,,,,,,,,,,,,,,,,,,,,,,,,,,,,,,,,,,,,,,,1.3572,568.4755215,None,None,1,568.4755215,None,,P006,fencog,2,Post,2021_Jul_21_1313,N-Back (New Version 2021),2021.1.4,120.2734056
,,,,Conditions/Version_1/oneback(2)_v1.xlsx,New rule: Press 'space' when you see 1-back (i.e. the same letter as the one that appeared 1 letter ago.),c,None,,,,,,,,,0,4,4,4,0,6,6,6,,,,,,,,,,,,,,,,,,,,,,,,,,,,,,,,,,,,,,,,,,,,,,,,,,,,,,,,,,,,,,,,,,,,,1.8098,572.2986273,None,None,1,572.2986273,None,,P006,fencog,2,Post,2021_Jul_21_1313,N-Back (New Version 2021),2021.1.4,120.2734056
,,,,Conditions/Version_1/oneback(2)_v1.xlsx,New rule: Press 'space' when you see 1-back (i.e. the same letter as the one that appeared 1 letter ago.),c,space,,,,,,,,,0,4,4,4,0,7,7,7,,,,,,,,,,,,,,,,,,,,,,,,,,,,,,,,,,,,,,,,,,,,,,,,,,,,,,,,,,,,,,,,,,,,,1.878,576.1860761,None,space,1,576.1860761,None,0.6361508,P006,fencog,2,Post,2021_Jul_21_1313,N-Back (New Version 2021),2021.1.4,120.2734056
,,,,Conditions/Version_1/oneback(2)_v1.xlsx,New rule: Press 'space' when you see 1-back (i.e. the same letter as the one that appeared 1 letter ago.),P,None,,,,,,,,,0,4,4,4,0,8,8,8,,,,,,,,,,,,,,,,,,,,,,,,,,,,,,,,,,,,,,,,,,,,,,,,,,,,,,,,,,,,,,,,,,,,,1.0348,579.2268374,None,None,1,579.2268374,None,,P006,fencog,2,Post,2021_Jul_21_1313,N-Back (New Version 2021),2021.1.4,120.2734056
,,,,Conditions/Version_1/oneback(2)_v1.xlsx,New rule: Press 'space' when you see 1-back (i.e. the same letter as the one that appeared 1 letter ago.),p,space,,,,,,,,,0,4,4,4,0,9,9,9,,,,,,,,,,,,,,,,,,,,,,,,,,,,,,,,,,,,,,,,,,,,,,,,,,,,,,,,,,,,,,,,,,,,,1.3138,582.5423321,None,space,1,582.5423321,None,1.4075641,P006,fencog,2,Post,2021_Jul_21_1313,N-Back (New Version 2021),2021.1.4,120.2734056
,,,,Conditions/Version_1/oneback(2)_v1.xlsx,New rule: Press 'space' when you see 1-back (i.e. the same letter as the one that appeared 1 letter ago.),,,,,,,,,,,0,4,4,4,,,,,,,,,,,,,,,,,,,,,,,,,,,,,,,,,,,,,,,,,,,,,,,,,,,,,,,,,,,,,,,,,,,,,,,,,,,,,,,,,P006,fencog,2,Post,2021_Jul_21_1313,N-Back (New Version 2021),2021.1.4,120.2734056
,,,,Conditions/Version_1/zeroback(2)_v1.xlsx,New rule: Press 'space' when you see the letter 'x' or 'X'.,p,None,,,,,,,,,0,5,5,5,0,0,0,0,,,,,,,,,,,,,,,,,,,,,,,,,,,,,,,,,,,,,,,,,,,,,,,,,,,,,,,,,,,584.5618139,None,587.5516101,None,space,0.5904054,587.5516101,None,584.5618139,None,1.2084,589.3839442,None,None,1,589.3839442,None,,P006,fencog,2,Post,2021_Jul_21_1313,N-Back (New Version 2021),2021.1.4,120.2734056
,,,,Conditions/Version_1/zeroback(2)_v1.xlsx,New rule: Press 'space' when you see the letter 'x' or 'X'.,L,None,,,,,,,,,0,5,5,5,0,1,1,1,,,,,,,,,,,,,,,,,,,,,,,,,,,,,,,,,,,,,,,,,,,,,,,,,,,,,,,,,,,,,,,,,,,,,1.2518,592.6477488,None,None,1,592.6477488,None,,P006,fencog,2,Post,2021_Jul_21_1313,N-Back (New Version 2021),2021.1.4,120.2734056
,,,,Conditions/Version_1/zeroback(2)_v1.xlsx,New rule: Press 'space' when you see the letter 'x' or 'X'.,G,None,,,,,,,,,0,5,5,5,0,2,2,2,,,,,,,,,,,,,,,,,,,,,,,,,,,,,,,,,,,,,,,,,,,,,,,,,,,,,,,,,,,,,,,,,,,,,1.0162,595.665256,None,None,1,595.665256,None,,P006,fencog,2,Post,2021_Jul_21_1313,N-Back (New Version 2021),2021.1.4,120.2734056
,,,,Conditions/Version_1/zeroback(2)_v1.xlsx,New rule: Press 'space' when you see the letter 'x' or 'X'.,y,None,,,,,,,,,0,5,5,5,0,3,3,3,,,,,,,,,,,,,,,,,,,,,,,,,,,,,,,,,,,,,,,,,,,,,,,,,,,,,,,,,,,,,,,,,,,,,1.723,599.3979735,None,None,1,599.3979735,None,,P006,fencog,2,Post,2021_Jul_21_1313,N-Back (New Version 2021),2021.1.4,120.2734056
,,,,Conditions/Version_1/zeroback(2)_v1.xlsx,New rule: Press 'space' when you see the letter 'x' or 'X'.,Y,None,,,,,,,,,0,5,5,5,0,4,4,4,,,,,,,,,,,,,,,,,,,,,,,,,,,,,,,,,,,,,,,,,,,,,,,,,,,,,,,,,,,,,,,,,,,,,1.9834,603.387448,None,None,1,603.387448,None,,P006,fencog,2,Post,2021_Jul_21_1313,N-Back (New Version 2021),2021.1.4,120.2734056
,,,,Conditions/Version_1/zeroback(2)_v1.xlsx,New rule: Press 'space' when you see the letter 'x' or 'X'.,W,None,,,,,,,,,0,5,5,5,0,5,5,5,,,,,,,,,,,,,,,,,,,,,,,,,,,,,,,,,,,,,,,,,,,,,,,,,,,,,,,,,,,,,,,,,,,,,1.3572,606.7547011,None,None,1,606.7547011,None,,P006,fencog,2,Post,2021_Jul_21_1313,N-Back (New Version 2021),2021.1.4,120.2734056
,,,,Conditions/Version_1/zeroback(2)_v1.xlsx,New rule: Press 'space' when you see the letter 'x' or 'X'.,x,space,,,,,,,,,0,5,5,5,0,6,6,6,,,,,,,,,,,,,,,,,,,,,,,,,,,,,,,,,,,,,,,,,,,,,,,,,,,,,,,,,,,,,,,,,,,,,1.8532,610.6103112,None,space,1,610.6103112,None,0.4034278,P006,fencog,2,Post,2021_Jul_21_1313,N-Back (New Version 2021),2021.1.4,120.2734056
,,,,Conditions/Version_1/zeroback(2)_v1.xlsx,New rule: Press 'space' when you see the letter 'x' or 'X'.,X,space,,,,,,,,,0,5,5,5,0,7,7,7,,,,,,,,,,,,,,,,,,,,,,,,,,,,,,,,,,,,,,,,,,,,,,,,,,,,,,,,,,,,,,,,,,,,,1.7974,614.4183936,None,space,1,614.4183936,None,0.467536,P006,fencog,2,Post,2021_Jul_21_1313,N-Back (New Version 2021),2021.1.4,120.2734056
,,,,Conditions/Version_1/zeroback(2)_v1.xlsx,New rule: Press 'space' when you see the letter 'x' or 'X'.,p,None,,,,,,,,,0,5,5,5,0,8,8,8,,,,,,,,,,,,,,,,,,,,,,,,,,,,,,,,,,,,,,,,,,,,,,,,,,,,,,,,,,,,,,,,,,,,,1.599,618.0247125,None,None,1,618.0247125,None,,P006,fencog,2,Post,2021_Jul_21_1313,N-Back (New Version 2021),2021.1.4,120.2734056
,,,,Conditions/Version_1/zeroback(2)_v1.xlsx,New rule: Press 'space' when you see the letter 'x' or 'X'.,h,None,,,,,,,,,0,5,5,5,0,9,9,9,,,,,,,,,,,,,,,,,,,,,,,,,,,,,,,,,,,,,,,,,,,,,,,,,,,,,,,,,,,,,,,,,,,,,1.816,621.8493233,None,None,1,621.8493233,None,,P006,fencog,2,Post,2021_Jul_21_1313,N-Back (New Version 2021),2021.1.4,120.2734056
,,,,Conditions/Version_1/zeroback(2)_v1.xlsx,New rule: Press 'space' when you see the letter 'x' or 'X'.,,,,,,,,,,,0,5,5,5,,,,,,,,,,,,,,,,,,,,,,,,,,,,,,,,,,,,,,,,,,,,,,,,,,,,,,,,,,,,,,,,,,,,,,,,,,,,,,,,,P006,fencog,2,Post,2021_Jul_21_1313,N-Back (New Version 2021),2021.1.4,120.2734056
,,,,Conditions/Version_1/threeback(2)_v1.xlsx,New rule: Press 'space' when you see 3-back (i.e. the same letter as the one that appeared 3 letters ago.),q,None,,,,,,,,,0,6,6,6,0,0,0,0,,,,,,,,,,,,,,,,,,,,,,,,,,,,,,,,,,,,,,,,,,,,,,,,,,,,,,,,,,,623.8791137,None,626.8654378,None,space,9.668405,626.8654378,None,623.8791137,None,1.7788,638.3343825,None,None,1,638.3343825,None,,P006,fencog,2,Post,2021_Jul_21_1313,N-Back (New Version 2021),2021.1.4,120.2734056
,,,,Conditions/Version_1/threeback(2)_v1.xlsx,New rule: Press 'space' when you see 3-back (i.e. the same letter as the one that appeared 3 letters ago.),Y,None,,,,,,,,,0,6,6,6,0,1,1,1,,,,,,,,,,,,,,,,,,,,,,,,,,,,,,,,,,,,,,,,,,,,,,,,,,,,,,,,,,,,,,,,,,,,,1.5184,641.8590225,None,None,1,641.8590225,None,,P006,fencog,2,Post,2021_Jul_21_1313,N-Back (New Version 2021),2021.1.4,120.2734056
,,,,Conditions/Version_1/threeback(2)_v1.xlsx,New rule: Press 'space' when you see 3-back (i.e. the same letter as the one that appeared 3 letters ago.),p,None,,,,,,,,,0,6,6,6,0,2,2,2,,,,,,,,,,,,,,,,,,,,,,,,,,,,,,,,,,,,,,,,,,,,,,,,,,,,,,,,,,,,,,,,,,,,,1.0286,644.8993065,None,None,1,644.8993065,None,,P006,fencog,2,Post,2021_Jul_21_1313,N-Back (New Version 2021),2021.1.4,120.2734056
,,,,Conditions/Version_1/threeback(2)_v1.xlsx,New rule: Press 'space' when you see 3-back (i.e. the same letter as the one that appeared 3 letters ago.),p,None,,,,,,,,,0,6,6,6,0,3,3,3,,,,,,,,,,,,,,,,,,,,,,,,,,,,,,,,,,,,,,,,,,,,,,,,,,,,,,,,,,,,,,,,,,,,,1.7292,648.6310896,None,None,1,648.6310896,None,,P006,fencog,2,Post,2021_Jul_21_1313,N-Back (New Version 2021),2021.1.4,120.2734056
,,,,Conditions/Version_1/threeback(2)_v1.xlsx,New rule: Press 'space' when you see 3-back (i.e. the same letter as the one that appeared 3 letters ago.),y,space,,,,,,,,,0,6,6,6,0,4,4,4,,,,,,,,,,,,,,,,,,,,,,,,,,,,,,,,,,,,,,,,,,,,,,,,,,,,,,,,,,,,,,,,,,,,,1.258,651.8909182,None,space,1,651.8909182,None,0.6911653,P006,fencog,2,Post,2021_Jul_21_1313,N-Back (New Version 2021),2021.1.4,120.2734056
,,,,Conditions/Version_1/threeback(2)_v1.xlsx,New rule: Press 'space' when you see 3-back (i.e. the same letter as the one that appeared 3 letters ago.),u,None,,,,,,,,,0,6,6,6,0,5,5,5,,,,,,,,,,,,,,,,,,,,,,,,,,,,,,,,,,,,,,,,,,,,,,,,,,,,,,,,,,,,,,,,,,,,,1.0224,654.9237729,None,None,1,654.9237729,None,,P006,fencog,2,Post,2021_Jul_21_1313,N-Back (New Version 2021),2021.1.4,120.2734056
,,,,Conditions/Version_1/threeback(2)_v1.xlsx,New rule: Press 'space' when you see 3-back (i.e. the same letter as the one that appeared 3 letters ago.),P,space,,,,,,,,,0,6,6,6,0,6,6,6,,,,,,,,,,,,,,,,,,,,,,,,,,,,,,,,,,,,,,,,,,,,,,,,,,,,,,,,,,,,,,,,,,,,,1.5804,658.5122721,None,space,1,658.5122721,None,0.421562,P006,fencog,2,Post,2021_Jul_21_1313,N-Back (New Version 2021),2021.1.4,120.2734056
,,,,Conditions/Version_1/threeback(2)_v1.xlsx,New rule: Press 'space' when you see 3-back (i.e. the same letter as the one that appeared 3 letters ago.),a,None,,,,,,,,,0,6,6,6,0,7,7,7,,,,,,,,,,,,,,,,,,,,,,,,,,,,,,,,,,,,,,,,,,,,,,,,,,,,,,,,,,,,,,,,,,,,,1.3138,661.8278065,None,None,1,661.8278065,None,,P006,fencog,2,Post,2021_Jul_21_1313,N-Back (New Version 2021),2021.1.4,120.2734056
,,,,Conditions/Version_1/threeback(2)_v1.xlsx,New rule: Press 'space' when you see 3-back (i.e. the same letter as the one that appeared 3 letters ago.),U,space,,,,,,,,,0,6,6,6,0,8,8,8,,,,,,,,,,,,,,,,,,,,,,,,,,,,,,,,,,,,,,,,,,,,,,,,,,,,,,,,,,,,,,,,,,,,,1.4626,665.2931916,None,space,1,665.2931916,None,1.9609876,P006,fencog,2,Post,2021_Jul_21_1313,N-Back (New Version 2021),2021.1.4,120.2734056
,,,,Conditions/Version_1/threeback(2)_v1.xlsx,New rule: Press 'space' when you see 3-back (i.e. the same letter as the one that appeared 3 letters ago.),q,None,,,,,,,,,0,6,6,6,0,9,9,9,,,,,,,,,,,,,,,,,,,,,,,,,,,,,,,,,,,,,,,,,,,,,,,,,,,,,,,,,,,,,,,,,,,,,1.847,669.1418262,None,None,1,669.1418262,None,,P006,fencog,2,Post,2021_Jul_21_1313,N-Back (New Version 2021),2021.1.4,120.2734056
,,,,Conditions/Version_1/threeback(2)_v1.xlsx,New rule: Press 'space' when you see 3-back (i.e. the same letter as the one that appeared 3 letters ago.),,,,,,,,,,,0,6,6,6,,,,,,,,,,,,,,,,,,,,,,,,,,,,,,,,,,,,,,,,,,,,,,,,,,,,,,,,,,,,,,,,,,,,,,,,,,,,,,,,,P006,fencog,2,Post,2021_Jul_21_1313,N-Back (New Version 2021),2021.1.4,120.2734056
,,,,Conditions/Version_1/twoback(2)_v1.xlsx,New rule: Press 'space' when you see 2-back (i.e. the same letter as the one that appeared 2 letters ago.),q,None,,,,,,,,,0,7,7,7,0,0,0,0,,,,,,,,,,,,,,,,,,,,,,,,,,,,,,,,,,,,,,,,,,,,,,,,,,,,,,,,,,,671.1652717,None,674.1507717,None,space,0.399046,674.1507717,None,671.1652717,None,1.9152,676.4895635,None,None,1,676.4895635,None,,P006,fencog,2,Post,2021_Jul_21_1313,N-Back (New Version 2021),2021.1.4,120.2734056
,,,,Conditions/Version_1/twoback(2)_v1.xlsx,New rule: Press 'space' when you see 2-back (i.e. the same letter as the one that appeared 2 letters ago.),r,None,,,,,,,,,0,7,7,7,0,1,1,1,,,,,,,,,,,,,,,,,,,,,,,,,,,,,,,,,,,,,,,,,,,,,,,,,,,,,,,,,,,,,,,,,,,,,1.6486,680.1398725,None,None,1,680.1398725,None,,P006,fencog,2,Post,2021_Jul_21_1313,N-Back (New Version 2021),2021.1.4,120.2734056
,,,,Conditions/Version_1/twoback(2)_v1.xlsx,New rule: Press 'space' when you see 2-back (i.e. the same letter as the one that appeared 2 letters ago.),q,space,,,,,,,,,0,7,7,7,0,2,2,2,,,,,,,,,,,,,,,,,,,,,,,,,,,,,,,,,,,,,,,,,,,,,,,,,,,,,,,,,,,,,,,,,,,,,1.5308,683.6791554,None,space,1,683.6791554,None,0.7663935,P006,fencog,2,Post,2021_Jul_21_1313,N-Back (New Version 2021),2021.1.4,120.2734056
,,,,Conditions/Version_1/twoback(2)_v1.xlsx,New rule: Press 'space' when you see 2-back (i.e. the same letter as the one that appeared 2 letters ago.),P,None,,,,,,,,,0,7,7,7,0,3,3,3,,,,,,,,,,,,,,,,,,,,,,,,,,,,,,,,,,,,,,,,,,,,,,,,,,,,,,,,,,,,,,,,,,,,,1.0224,686.7032511,None,None,1,686.7032511,None,,P006,fencog,2,Post,2021_Jul_21_1313,N-Back (New Version 2021),2021.1.4,120.2734056
,,,,Conditions/Version_1/twoback(2)_v1.xlsx,New rule: Press 'space' when you see 2-back (i.e. the same letter as the one that appeared 2 letters ago.),p,None,,,,,,,,,0,7,7,7,0,4,4,4,,,,,,,,,,,,,,,,,,,,,,,,,,,,,,,,,,,,,,,,,,,,,,,,,,,,,,,,,,,,,,,,,,,,,1.9028,690.6114188,None,space,0,690.6114188,None,0.7945628,P006,fencog,2,Post,2021_Jul_21_1313,N-Back (New Version 2021),2021.1.4,120.2734056
,,,,Conditions/Version_1/twoback(2)_v1.xlsx,New rule: Press 'space' when you see 2-back (i.e. the same letter as the one that appeared 2 letters ago.),H,None,,,,,,,,,0,7,7,7,0,5,5,5,,,,,,,,,,,,,,,,,,,,,,,,,,,,,,,,,,,,,,,,,,,,,,,,,,,,,,,,,,,,,,,,,,,,,1.2456,693.869682,None,None,1,693.869682,None,,P006,fencog,2,Post,2021_Jul_21_1313,N-Back (New Version 2021),2021.1.4,120.2734056
,,,,Conditions/Version_1/twoback(2)_v1.xlsx,New rule: Press 'space' when you see 2-back (i.e. the same letter as the one that appeared 2 letters ago.),g,None,,,,,,,,,0,7,7,7,0,6,6,6,,,,,,,,,,,,,,,,,,,,,,,,,,,,,,,,,,,,,,,,,,,,,,,,,,,,,,,,,,,,,,,,,,,,,1.7106,697.594179,None,None,1,697.594179,None,,P006,fencog,2,Post,2021_Jul_21_1313,N-Back (New Version 2021),2021.1.4,120.2734056
,,,,Conditions/Version_1/twoback(2)_v1.xlsx,New rule: Press 'space' when you see 2-back (i.e. the same letter as the one that appeared 2 letters ago.),j,None,,,,,,,,,0,7,7,7,0,7,7,7,,,,,,,,,,,,,,,,,,,,,,,,,,,,,,,,,,,,,,,,,,,,,,,,,,,,,,,,,,,,,,,,,,,,,1.7974,701.3989757,None,None,1,701.3989757,None,,P006,fencog,2,Post,2021_Jul_21_1313,N-Back (New Version 2021),2021.1.4,120.2734056
,,,,Conditions/Version_1/twoback(2)_v1.xlsx,New rule: Press 'space' when you see 2-back (i.e. the same letter as the one that appeared 2 letters ago.),g,space,,,,,,,,,0,7,7,7,0,8,8,8,,,,,,,,,,,,,,,,,,,,,,,,,,,,,,,,,,,,,,,,,,,,,,,,,,,,,,,,,,,,,,,,,,,,,1.2766,704.683012,None,space,1,704.683012,None,0.5385582,P006,fencog,2,Post,2021_Jul_21_1313,N-Back (New Version 2021),2021.1.4,120.2734056
,,,,Conditions/Version_1/twoback(2)_v1.xlsx,New rule: Press 'space' when you see 2-back (i.e. the same letter as the one that appeared 2 letters ago.),G,None,,,,,,,,,0,7,7,7,0,9,9,9,,,,,,,,,,,,,,,,,,,,,,,,,,,,,,,,,,,,,,,,,,,,,,,,,,,,,,,,,,,,,,,,,,,,,1.785,708.482891,None,None,1,708.482891,None,,P006,fencog,2,Post,2021_Jul_21_1313,N-Back (New Version 2021),2021.1.4,120.2734056
,,,,Conditions/Version_1/twoback(2)_v1.xlsx,New rule: Press 'space' when you see 2-back (i.e. the same letter as the one that appeared 2 letters ago.),,,,,,,,,,,0,7,7,7,,,,,,,,,,,,,,,,,,,,,,,,,,,,,,,,,,,,,,,,,,,,,,,,,,,,,,,,,,,,,,,,,,,,,,,,,,,,,,,,,P006,fencog,2,Post,2021_Jul_21_1313,N-Back (New Version 2021),2021.1.4,120.2734056
,,,,Conditions/Version_1/threeback(3)_v1.xlsx,New rule: Press 'space' when you see 3-back (i.e. the same letter as the one that appeared 3 letters ago.),w,None,,,,,,,,,0,8,8,8,0,0,0,0,,,,,,,,,,,,,,,,,,,,,,,,,,,,,,,,,,,,,,,,,,,,,,,,,,,,,,,,,,,710.5110213,None,713.49836,None,space,13.3230572,713.49836,None,710.5110213,None,1.909,728.7597327,None,None,1,728.7597327,None,,P006,fencog,2,Post,2021_Jul_21_1313,N-Back (New Version 2021),2021.1.4,120.2734056
,,,,Conditions/Version_1/threeback(3)_v1.xlsx,New rule: Press 'space' when you see 3-back (i.e. the same letter as the one that appeared 3 letters ago.),p,None,,,,,,,,,0,8,8,8,0,1,1,1,,,,,,,,,,,,,,,,,,,,,,,,,,,,,,,,,,,,,,,,,,,,,,,,,,,,,,,,,,,,,,,,,,,,,1.0596,731.8319477,None,None,1,731.8319477,None,,P006,fencog,2,Post,2021_Jul_21_1313,N-Back (New Version 2021),2021.1.4,120.2734056
,,,,Conditions/Version_1/threeback(3)_v1.xlsx,New rule: Press 'space' when you see 3-back (i.e. the same letter as the one that appeared 3 letters ago.),P,None,,,,,,,,,0,8,8,8,0,2,2,2,,,,,,,,,,,,,,,,,,,,,,,,,,,,,,,,,,,,,,,,,,,,,,,,,,,,,,,,,,,,,,,,,,,,,1.0782,734.9157651,None,None,1,734.9157651,None,,P006,fencog,2,Post,2021_Jul_21_1313,N-Back (New Version 2021),2021.1.4,120.2734056
,,,,Conditions/Version_1/threeback(3)_v1.xlsx,New rule: Press 'space' when you see 3-back (i.e. the same letter as the one that appeared 3 letters ago.),i,None,,,,,,,,,0,8,8,8,0,3,3,3,,,,,,,,,,,,,,,,,,,,,,,,,,,,,,,,,,,,,,,,,,,,,,,,,,,,,,,,,,,,,,,,,,,,,1.6796,738.6068378,None,None,1,738.6068378,None,,P006,fencog,2,Post,2021_Jul_21_1313,N-Back (New Version 2021),2021.1.4,120.2734056
,,,,Conditions/Version_1/threeback(3)_v1.xlsx,New rule: Press 'space' when you see 3-back (i.e. the same letter as the one that appeared 3 letters ago.),f,None,,,,,,,,,0,8,8,8,0,4,4,4,,,,,,,,,,,,,,,,,,,,,,,,,,,,,,,,,,,,,,,,,,,,,,,,,,,,,,,,,,,,,,,,,,,,,1.2146,741.8285125,None,None,1,741.8285125,None,,P006,fencog,2,Post,2021_Jul_21_1313,N-Back (New Version 2021),2021.1.4,120.2734056
,,,,Conditions/Version_1/threeback(3)_v1.xlsx,New rule: Press 'space' when you see 3-back (i.e. the same letter as the one that appeared 3 letters ago.),o,None,,,,,,,,,0,8,8,8,0,5,5,5,,,,,,,,,,,,,,,,,,,,,,,,,,,,,,,,,,,,,,,,,,,,,,,,,,,,,,,,,,,,,,,,,,,,,1.2084,745.0381262,None,None,1,745.0381262,None,,P006,fencog,2,Post,2021_Jul_21_1313,N-Back (New Version 2021),2021.1.4,120.2734056
,,,,Conditions/Version_1/threeback(3)_v1.xlsx,New rule: Press 'space' when you see 3-back (i.e. the same letter as the one that appeared 3 letters ago.),w,None,,,,,,,,,0,8,8,8,0,6,6,6,,,,,,,,,,,,,,,,,,,,,,,,,,,,,,,,,,,,,,,,,,,,,,,,,,,,,,,,,,,,,,,,,,,,,1.723,748.7703056,None,None,1,748.7703056,None,,P006,fencog,2,Post,2021_Jul_21_1313,N-Back (New Version 2021),2021.1.4,120.2734056
,,,,Conditions/Version_1/threeback(3)_v1.xlsx,New rule: Press 'space' when you see 3-back (i.e. the same letter as the one that appeared 3 letters ago.),F,space,,,,,,,,,0,8,8,8,0,7,7,7,,,,,,,,,,,,,,,,,,,,,,,,,,,,,,,,,,,,,,,,,,,,,,,,,,,,,,,,,,,,,,,,,,,,,1.7912,752.5697911,None,space,1,752.5697911,None,0.4278508,P006,fencog,2,Post,2021_Jul_21_1313,N-Back (New Version 2021),2021.1.4,120.2734056
,,,,Conditions/Version_1/threeback(3)_v1.xlsx,New rule: Press 'space' when you see 3-back (i.e. the same letter as the one that appeared 3 letters ago.),p,None,,,,,,,,,0,8,8,8,0,8,8,8,,,,,,,,,,,,,,,,,,,,,,,,,,,,,,,,,,,,,,,,,,,,,,,,,,,,,,,,,,,,,,,,,,,,,1.3386,755.91821,None,None,1,755.91821,None,,P006,fencog,2,Post,2021_Jul_21_1313,N-Back (New Version 2021),2021.1.4,120.2734056
,,,,Conditions/Version_1/threeback(3)_v1.xlsx,New rule: Press 'space' when you see 3-back (i.e. the same letter as the one that appeared 3 letters ago.),W,space,,,,,,,,,0,8,8,8,0,9,9,9,,,,,,,,,,,,,,,,,,,,,,,,,,,,,,,,,,,,,,,,,,,,,,,,,,,,,,,,,,,,,,,,,,,,,1.9214,759.8509157,None,None,0,759.8509157,None,,P006,fencog,2,Post,2021_Jul_21_1313,N-Back (New Version 2021),2021.1.4,120.2734056
,,,,Conditions/Version_1/threeback(3)_v1.xlsx,New rule: Press 'space' when you see 3-back (i.e. the same letter as the one that appeared 3 letters ago.),,,,,,,,,,,0,8,8,8,,,,,,,,,,,,,,,,,,,,,,,,,,,,,,,,,,,,,,,,,,,,,,,,,,,,,,,,,,,,,,,,,,,,,,,,,,,,,,,,,P006,fencog,2,Post,2021_Jul_21_1313,N-Back (New Version 2021),2021.1.4,120.2734056
,,,,Conditions/Version_1/zeroback(3)_v1.xlsx,New rule: Press 'space' when you see the letter 'x' or 'X'.,X,space,,,,,,,,,0,9,9,9,0,0,0,0,,,,,,,,,,,,,,,,,,,,,,,,,,,,,,,,,,,,,,,,,,,,,,,,,,,,,,,,,,,761.8755677,None,764.8675021,None,space,0.6899194,764.8675021,None,761.8755677,None,1.9586,767.5481983,None,space,1,767.5481983,None,0.4331903,P006,fencog,2,Post,2021_Jul_21_1313,N-Back (New Version 2021),2021.1.4,120.2734056
,,,,Conditions/Version_1/zeroback(3)_v1.xlsx,New rule: Press 'space' when you see the letter 'x' or 'X'.,B,None,,,,,,,,,0,9,9,9,0,1,1,1,,,,,,,,,,,,,,,,,,,,,,,,,,,,,,,,,,,,,,,,,,,,,,,,,,,,,,,,,,,,,,,,,,,,,1.7726,771.3301113,None,None,1,771.3301113,None,,P006,fencog,2,Post,2021_Jul_21_1313,N-Back (New Version 2021),2021.1.4,120.2734056
,,,,Conditions/Version_1/zeroback(3)_v1.xlsx,New rule: Press 'space' when you see the letter 'x' or 'X'.,m,None,,,,,,,,,0,9,9,9,0,2,2,2,,,,,,,,,,,,,,,,,,,,,,,,,,,,,,,,,,,,,,,,,,,,,,,,,,,,,,,,,,,,,,,,,,,,,1.7478,775.0877551,None,None,1,775.0877551,None,,P006,fencog,2,Post,2021_Jul_21_1313,N-Back (New Version 2021),2021.1.4,120.2734056
,,,,Conditions/Version_1/zeroback(3)_v1.xlsx,New rule: Press 'space' when you see the letter 'x' or 'X'.,m,None,,,,,,,,,0,9,9,9,0,3,3,3,,,,,,,,,,,,,,,,,,,,,,,,,,,,,,,,,,,,,,,,,,,,,,,,,,,,,,,,,,,,,,,,,,,,,1.0968,778.1930298,None,None,1,778.1930298,None,,P006,fencog,2,Post,2021_Jul_21_1313,N-Back (New Version 2021),2021.1.4,120.2734056
,,,,Conditions/Version_1/zeroback(3)_v1.xlsx,New rule: Press 'space' when you see the letter 'x' or 'X'.,o,None,,,,,,,,,0,9,9,9,0,4,4,4,,,,,,,,,,,,,,,,,,,,,,,,,,,,,,,,,,,,,,,,,,,,,,,,,,,,,,,,,,,,,,,,,,,,,1.8594,782.0595788,None,None,1,782.0595788,None,,P006,fencog,2,Post,2021_Jul_21_1313,N-Back (New Version 2021),2021.1.4,120.2734056
,,,,Conditions/Version_1/zeroback(3)_v1.xlsx,New rule: Press 'space' when you see the letter 'x' or 'X'.,p,None,,,,,,,,,0,9,9,9,0,5,5,5,,,,,,,,,,,,,,,,,,,,,,,,,,,,,,,,,,,,,,,,,,,,,,,,,,,,,,,,,,,,,,,,,,,,,1.6734,785.7428398,None,None,1,785.7428398,None,,P006,fencog,2,Post,2021_Jul_21_1313,N-Back (New Version 2021),2021.1.4,120.2734056
,,,,Conditions/Version_1/zeroback(3)_v1.xlsx,New rule: Press 'space' when you see the letter 'x' or 'X'.,G,None,,,,,,,,,0,9,9,9,0,6,6,6,,,,,,,,,,,,,,,,,,,,,,,,,,,,,,,,,,,,,,,,,,,,,,,,,,,,,,,,,,,,,,,,,,,,,1.1464,788.9001342,None,None,1,788.9001342,None,,P006,fencog,2,Post,2021_Jul_21_1313,N-Back (New Version 2021),2021.1.4,120.2734056
,,,,Conditions/Version_1/zeroback(3)_v1.xlsx,New rule: Press 'space' when you see the letter 'x' or 'X'.,X,space,,,,,,,,,0,9,9,9,0,7,7,7,,,,,,,,,,,,,,,,,,,,,,,,,,,,,,,,,,,,,,,,,,,,,,,,,,,,,,,,,,,,,,,,,,,,,1.0348,791.9485385,None,space,1,791.9485385,None,0.4571336,P006,fencog,2,Post,2021_Jul_21_1313,N-Back (New Version 2021),2021.1.4,120.2734056
,,,,Conditions/Version_1/zeroback(3)_v1.xlsx,New rule: Press 'space' when you see the letter 'x' or 'X'.,p,None,,,,,,,,,0,9,9,9,0,8,8,8,,,,,,,,,,,,,,,,,,,,,,,,,,,,,,,,,,,,,,,,,,,,,,,,,,,,,,,,,,,,,,,,,,,,,1.7912,795.7482019,None,None,1,795.7482019,None,,P006,fencog,2,Post,2021_Jul_21_1313,N-Back (New Version 2021),2021.1.4,120.2734056
,,,,Conditions/Version_1/zeroback(3)_v1.xlsx,New rule: Press 'space' when you see the letter 'x' or 'X'.,x,space,,,,,,,,,0,9,9,9,0,9,9,9,,,,,,,,,,,,,,,,,,,,,,,,,,,,,,,,,,,,,,,,,,,,,,,,,,,,,,,,,,,,,,,,,,,,,1.723,799.480378,None,space,1,799.480378,None,0.4613501,P006,fencog,2,Post,2021_Jul_21_1313,N-Back (New Version 2021),2021.1.4,120.2734056
,,,,Conditions/Version_1/zeroback(3)_v1.xlsx,New rule: Press 'space' when you see the letter 'x' or 'X'.,,,,,,,,,,,0,9,9,9,,,,,,,,,,,,,,,,,,,,,,,,,,,,,,,,,,,,,,,,,,,,,,,,,,,,,,,,,,,,,,,,,,,,,,,,,,,,,,,,,P006,fencog,2,Post,2021_Jul_21_1313,N-Back (New Version 2021),2021.1.4,120.2734056
,,,,Conditions/Version_1/twoback(3)_v1.xlsx,New rule: Press 'space' when you see 2-back (i.e. the same letter as the one that appeared 2 letters ago.),e,None,,,,,,,,,0,10,10,10,0,0,0,0,,,,,,,,,,,,,,,,,,,,,,,,,,,,,,,,,,,,,,,,,,,,,,,,,,,,,,,,,,,801.5073623,None,804.4957603,None,space,13.1980331,804.4957603,None,801.5073623,None,1.351,819.0652775,None,None,1,819.0652775,None,,P006,fencog,2,Post,2021_Jul_21_1313,N-Back (New Version 2021),2021.1.4,120.2734056
,,,,Conditions/Version_1/twoback(3)_v1.xlsx,New rule: Press 'space' when you see 2-back (i.e. the same letter as the one that appeared 2 letters ago.),o,None,,,,,,,,,0,10,10,10,0,1,1,1,,,,,,,,,,,,,,,,,,,,,,,,,,,,,,,,,,,,,,,,,,,,,,,,,,,,,,,,,,,,,,,,,,,,,1.7664,822.8392546,None,None,1,822.8392546,None,,P006,fencog,2,Post,2021_Jul_21_1313,N-Back (New Version 2021),2021.1.4,120.2734056
,,,,Conditions/Version_1/twoback(3)_v1.xlsx,New rule: Press 'space' when you see 2-back (i.e. the same letter as the one that appeared 2 letters ago.),P,None,,,,,,,,,0,10,10,10,0,2,2,2,,,,,,,,,,,,,,,,,,,,,,,,,,,,,,,,,,,,,,,,,,,,,,,,,,,,,,,,,,,,,,,,,,,,,1.2394,826.0895002,None,None,1,826.0895002,None,,P006,fencog,2,Post,2021_Jul_21_1313,N-Back (New Version 2021),2021.1.4,120.2734056
,,,,Conditions/Version_1/twoback(3)_v1.xlsx,New rule: Press 'space' when you see 2-back (i.e. the same letter as the one that appeared 2 letters ago.),z,None,,,,,,,,,0,10,10,10,0,3,3,3,,,,,,,,,,,,,,,,,,,,,,,,,,,,,,,,,,,,,,,,,,,,,,,,,,,,,,,,,,,,,,,,,,,,,1.94,830.0394991,None,None,1,830.0394991,None,,P006,fencog,2,Post,2021_Jul_21_1313,N-Back (New Version 2021),2021.1.4,120.2734056
,,,,Conditions/Version_1/twoback(3)_v1.xlsx,New rule: Press 'space' when you see 2-back (i.e. the same letter as the one that appeared 2 letters ago.),X,None,,,,,,,,,0,10,10,10,0,4,4,4,,,,,,,,,,,,,,,,,,,,,,,,,,,,,,,,,,,,,,,,,,,,,,,,,,,,,,,,,,,,,,,,,,,,,1.4316,833.478423,None,None,1,833.478423,None,,P006,fencog,2,Post,2021_Jul_21_1313,N-Back (New Version 2021),2021.1.4,120.2734056
,,,,Conditions/Version_1/twoback(3)_v1.xlsx,New rule: Press 'space' when you see 2-back (i.e. the same letter as the one that appeared 2 letters ago.),z,space,,,,,,,,,0,10,10,10,0,5,5,5,,,,,,,,,,,,,,,,,,,,,,,,,,,,,,,,,,,,,,,,,,,,,,,,,,,,,,,,,,,,,,,,,,,,,1.1464,836.6262101,None,space,1,836.6262101,None,0.4191518,P006,fencog,2,Post,2021_Jul_21_1313,N-Back (New Version 2021),2021.1.4,120.2734056
,,,,Conditions/Version_1/twoback(3)_v1.xlsx,New rule: Press 'space' when you see 2-back (i.e. the same letter as the one that appeared 2 letters ago.),x,space,,,,,,,,,0,10,10,10,0,6,6,6,,,,,,,,,,,,,,,,,,,,,,,,,,,,,,,,,,,,,,,,,,,,,,,,,,,,,,,,,,,,,,,,,,,,,1.289,839.9173348,None,None,0,839.9173348,None,,P006,fencog,2,Post,2021_Jul_21_1313,N-Back (New Version 2021),2021.1.4,120.2734056
,,,,Conditions/Version_1/twoback(3)_v1.xlsx,New rule: Press 'space' when you see 2-back (i.e. the same letter as the one that appeared 2 letters ago.),c,None,,,,,,,,,0,10,10,10,0,7,7,7,,,,,,,,,,,,,,,,,,,,,,,,,,,,,,,,,,,,,,,,,,,,,,,,,,,,,,,,,,,,,,,,,,,,,1.5618,843.4911599,None,None,1,843.4911599,None,,P006,fencog,2,Post,2021_Jul_21_1313,N-Back (New Version 2021),2021.1.4,120.2734056
,,,,Conditions/Version_1/twoback(3)_v1.xlsx,New rule: Press 'space' when you see 2-back (i.e. the same letter as the one that appeared 2 letters ago.),i,None,,,,,,,,,0,10,10,10,0,8,8,8,,,,,,,,,,,,,,,,,,,,,,,,,,,,,,,,,,,,,,,,,,,,,,,,,,,,,,,,,,,,,,,,,,,,,1.041,846.5398939,None,None,1,846.5398939,None,,P006,fencog,2,Post,2021_Jul_21_1313,N-Back (New Version 2021),2021.1.4,120.2734056
,,,,Conditions/Version_1/twoback(3)_v1.xlsx,New rule: Press 'space' when you see 2-back (i.e. the same letter as the one that appeared 2 letters ago.),C,space,,,,,,,,,0,10,10,10,0,9,9,9,,,,,,,,,,,,,,,,,,,,,,,,,,,,,,,,,,,,,,,,,,,,,,,,,,,,,,,,,,,,,,,,,,,,,1.8222,850.3662795,None,space,1,850.3662795,None,0.3837681,P006,fencog,2,Post,2021_Jul_21_1313,N-Back (New Version 2021),2021.1.4,120.2734056
,,,,Conditions/Version_1/twoback(3)_v1.xlsx,New rule: Press 'space' when you see 2-back (i.e. the same letter as the one that appeared 2 letters ago.),,,,,,,,,,,0,10,10,10,,,,,,,,,,,,,,,,,,,,,,,,,,,,,,,,,,,,,,,,,,,,,,,,,,,,,,,,,,,,,,,,,,,,,,,,,,,,,,,,,P006,fencog,2,Post,2021_Jul_21_1313,N-Back (New Version 2021),2021.1.4,120.2734056
,,,,Conditions/Version_1/oneback(3)_v1.xlsx,New rule: Press 'space' when you see 1-back (i.e. the same letter as the one that appeared 1 letter ago.),o,None,,,,,,,,,0,11,11,11,0,0,0,0,,,,,,,,,,,,,,,,,,,,,,,,,,,,,,,,,,,,,,,,,,,,,,,,,,,,,,,,,,,852.3924749,None,855.380082,None,space,0.2251677,855.380082,None,852.3924749,None,1.878,857.5215208,None,None,1,857.5215208,None,,P006,fencog,2,Post,2021_Jul_21_1313,N-Back (New Version 2021),2021.1.4,120.2734056
,,,,Conditions/Version_1/oneback(3)_v1.xlsx,New rule: Press 'space' when you see 1-back (i.e. the same letter as the one that appeared 1 letter ago.),O,space,,,,,,,,,0,11,11,11,0,1,1,1,,,,,,,,,,,,,,,,,,,,,,,,,,,,,,,,,,,,,,,,,,,,,,,,,,,,,,,,,,,,,,,,,,,,,1.7168,861.2458491,None,space,1,861.2458491,None,0.3596168,P006,fencog,2,Post,2021_Jul_21_1313,N-Back (New Version 2021),2021.1.4,120.2734056
,,,,Conditions/Version_1/oneback(3)_v1.xlsx,New rule: Press 'space' when you see 1-back (i.e. the same letter as the one that appeared 1 letter ago.),h,None,,,,,,,,,0,11,11,11,0,2,2,2,,,,,,,,,,,,,,,,,,,,,,,,,,,,,,,,,,,,,,,,,,,,,,,,,,,,,,,,,,,,,,,,,,,,,1.723,864.9755424,None,None,1,864.9755424,None,,P006,fencog,2,Post,2021_Jul_21_1313,N-Back (New Version 2021),2021.1.4,120.2734056
,,,,Conditions/Version_1/oneback(3)_v1.xlsx,New rule: Press 'space' when you see 1-back (i.e. the same letter as the one that appeared 1 letter ago.),g,None,,,,,,,,,0,11,11,11,0,3,3,3,,,,,,,,,,,,,,,,,,,,,,,,,,,,,,,,,,,,,,,,,,,,,,,,,,,,,,,,,,,,,,,,,,,,,1.3882,868.3661696,None,None,1,868.3661696,None,,P006,fencog,2,Post,2021_Jul_21_1313,N-Back (New Version 2021),2021.1.4,120.2734056
,,,,Conditions/Version_1/oneback(3)_v1.xlsx,New rule: Press 'space' when you see 1-back (i.e. the same letter as the one that appeared 1 letter ago.),n,None,,,,,,,,,0,11,11,11,0,4,4,4,,,,,,,,,,,,,,,,,,,,,,,,,,,,,,,,,,,,,,,,,,,,,,,,,,,,,,,,,,,,,,,,,,,,,1.3138,871.6844148,None,None,1,871.6844148,None,,P006,fencog,2,Post,2021_Jul_21_1313,N-Back (New Version 2021),2021.1.4,120.2734056
,,,,Conditions/Version_1/oneback(3)_v1.xlsx,New rule: Press 'space' when you see 1-back (i.e. the same letter as the one that appeared 1 letter ago.),z,None,,,,,,,,,0,11,11,11,0,5,5,5,,,,,,,,,,,,,,,,,,,,,,,,,,,,,,,,,,,,,,,,,,,,,,,,,,,,,,,,,,,,,,,,,,,,,1.7292,875.4225267,None,None,1,875.4225267,None,,P006,fencog,2,Post,2021_Jul_21_1313,N-Back (New Version 2021),2021.1.4,120.2734056
,,,,Conditions/Version_1/oneback(3)_v1.xlsx,New rule: Press 'space' when you see 1-back (i.e. the same letter as the one that appeared 1 letter ago.),X,None,,,,,,,,,0,11,11,11,0,6,6,6,,,,,,,,,,,,,,,,,,,,,,,,,,,,,,,,,,,,,,,,,,,,,,,,,,,,,,,,,,,,,,,,,,,,,1.2642,878.6950388,None,None,1,878.6950388,None,,P006,fencog,2,Post,2021_Jul_21_1313,N-Back (New Version 2021),2021.1.4,120.2734056
,,,,Conditions/Version_1/oneback(3)_v1.xlsx,New rule: Press 'space' when you see 1-back (i.e. the same letter as the one that appeared 1 letter ago.),r,None,,,,,,,,,0,11,11,11,0,7,7,7,,,,,,,,,,,,,,,,,,,,,,,,,,,,,,,,,,,,,,,,,,,,,,,,,,,,,,,,,,,,,,,,,,,,,1.0658,881.7647902,None,None,1,881.7647902,None,,P006,fencog,2,Post,2021_Jul_21_1313,N-Back (New Version 2021),2021.1.4,120.2734056
,,,,Conditions/Version_1/oneback(3)_v1.xlsx,New rule: Press 'space' when you see 1-back (i.e. the same letter as the one that appeared 1 letter ago.),r,space,,,,,,,,,0,11,11,11,0,8,8,8,,,,,,,,,,,,,,,,,,,,,,,,,,,,,,,,,,,,,,,,,,,,,,,,,,,,,,,,,,,,,,,,,,,,,1.382,885.1531814,None,space,1,885.1531814,None,0.4924307,P006,fencog,2,Post,2021_Jul_21_1313,N-Back (New Version 2021),2021.1.4,120.2734056
,,,,Conditions/Version_1/oneback(3)_v1.xlsx,New rule: Press 'space' when you see 1-back (i.e. the same letter as the one that appeared 1 letter ago.),P,None,,,,,,,,,0,11,11,11,0,9,9,9,,,,,,,,,,,,,,,,,,,,,,,,,,,,,,,,,,,,,,,,,,,,,,,,,,,,,,,,,,,,,,,,,,,,,1.9338,889.0953341,None,None,1,889.0953341,None,,P006,fencog,2,Post,2021_Jul_21_1313,N-Back (New Version 2021),2021.1.4,120.2734056
,,,,Conditions/Version_1/oneback(3)_v1.xlsx,New rule: Press 'space' when you see 1-back (i.e. the same letter as the one that appeared 1 letter ago.),,,,,,,,,,,0,11,11,11,,,,,,,,,,,,,,,,,,,,,,,,,,,,,,,,,,,,,,,,,,,,,,,,,,,,,,,,,,,,,,,,,,,,,,,,,,,,,,,,,P006,fencog,2,Post,2021_Jul_21_1313,N-Back (New Version 2021),2021.1.4,120.2734056
,,,,Conditions/Version_1/twoback(4)_v1.xlsx,New rule: Press 'space' when you see 2-back (i.e. the same letter as the one that appeared 2 letters ago.),r,None,,,,,,,,,0,12,12,12,0,0,0,0,,,,,,,,,,,,,,,,,,,,,,,,,,,,,,,,,,,,,,,,,,,,,,,,,,,,,,,,,,,891.1168661,None,894.1018647,None,space,14.4635171,894.1018647,None,891.1168661,None,1.3262,909.9658939,None,None,1,909.9658939,None,,P006,fencog,2,Post,2021_Jul_21_1313,N-Back (New Version 2021),2021.1.4,120.2734056
,,,,Conditions/Version_1/twoback(4)_v1.xlsx,New rule: Press 'space' when you see 2-back (i.e. the same letter as the one that appeared 2 letters ago.),T,None,,,,,,,,,0,12,12,12,0,1,1,1,,,,,,,,,,,,,,,,,,,,,,,,,,,,,,,,,,,,,,,,,,,,,,,,,,,,,,,,,,,,,,,,,,,,,1.599,913.5747336,None,None,1,913.5747336,None,,P006,fencog,2,Post,2021_Jul_21_1313,N-Back (New Version 2021),2021.1.4,120.2734056
,,,,Conditions/Version_1/twoback(4)_v1.xlsx,New rule: Press 'space' when you see 2-back (i.e. the same letter as the one that appeared 2 letters ago.),o,None,,,,,,,,,0,12,12,12,0,2,2,2,,,,,,,,,,,,,,,,,,,,,,,,,,,,,,,,,,,,,,,,,,,,,,,,,,,,,,,,,,,,,,,,,,,,,1.7664,917.3453012,None,None,1,917.3453012,None,,P006,fencog,2,Post,2021_Jul_21_1313,N-Back (New Version 2021),2021.1.4,120.2734056
,,,,Conditions/Version_1/twoback(4)_v1.xlsx,New rule: Press 'space' when you see 2-back (i.e. the same letter as the one that appeared 2 letters ago.),p,None,,,,,,,,,0,12,12,12,0,3,3,3,,,,,,,,,,,,,,,,,,,,,,,,,,,,,,,,,,,,,,,,,,,,,,,,,,,,,,,,,,,,,,,,,,,,,1.0224,920.3771401,None,None,1,920.3771401,None,,P006,fencog,2,Post,2021_Jul_21_1313,N-Back (New Version 2021),2021.1.4,120.2734056
,,,,Conditions/Version_1/twoback(4)_v1.xlsx,New rule: Press 'space' when you see 2-back (i.e. the same letter as the one that appeared 2 letters ago.),p,None,,,,,,,,,0,12,12,12,0,4,4,4,,,,,,,,,,,,,,,,,,,,,,,,,,,,,,,,,,,,,,,,,,,,,,,,,,,,,,,,,,,,,,,,,,,,,1.8408,924.2246781,None,None,1,924.2246781,None,,P006,fencog,2,Post,2021_Jul_21_1313,N-Back (New Version 2021),2021.1.4,120.2734056
,,,,Conditions/Version_1/twoback(4)_v1.xlsx,New rule: Press 'space' when you see 2-back (i.e. the same letter as the one that appeared 2 letters ago.),y,None,,,,,,,,,0,12,12,12,0,5,5,5,,,,,,,,,,,,,,,,,,,,,,,,,,,,,,,,,,,,,,,,,,,,,,,,,,,,,,,,,,,,,,,,,,,,,1.4378,927.6695554,None,None,1,927.6695554,None,,P006,fencog,2,Post,2021_Jul_21_1313,N-Back (New Version 2021),2021.1.4,120.2734056
,,,,Conditions/Version_1/twoback(4)_v1.xlsx,New rule: Press 'space' when you see 2-back (i.e. the same letter as the one that appeared 2 letters ago.),P,space,,,,,,,,,0,12,12,12,0,6,6,6,,,,,,,,,,,,,,,,,,,,,,,,,,,,,,,,,,,,,,,,,,,,,,,,,,,,,,,,,,,,,,,,,,,,,1.4936,931.1736956,None,space,1,931.1736956,None,0.6559304,P006,fencog,2,Post,2021_Jul_21_1313,N-Back (New Version 2021),2021.1.4,120.2734056
,,,,Conditions/Version_1/twoback(4)_v1.xlsx,New rule: Press 'space' when you see 2-back (i.e. the same letter as the one that appeared 2 letters ago.),y,None,,,,,,,,,0,12,12,12,0,7,7,7,,,,,,,,,,,,,,,,,,,,,,,,,,,,,,,,,,,,,,,,,,,,,,,,,,,,,,,,,,,,,,,,,,,,,1.4006,934.579873,None,space,0,934.579873,None,1.097448,P006,fencog,2,Post,2021_Jul_21_1313,N-Back (New Version 2021),2021.1.4,120.2734056
,,,,Conditions/Version_1/twoback(4)_v1.xlsx,New rule: Press 'space' when you see 2-back (i.e. the same letter as the one that appeared 2 letters ago.),y,space,,,,,,,,,0,12,12,12,0,8,8,8,,,,,,,,,,,,,,,,,,,,,,,,,,,,,,,,,,,,,,,,,,,,,,,,,,,,,,,,,,,,,,,,,,,,,1.9276,938.512273,None,None,0,938.512273,None,,P006,fencog,2,Post,2021_Jul_21_1313,N-Back (New Version 2021),2021.1.4,120.2734056
,,,,Conditions/Version_1/twoback(4)_v1.xlsx,New rule: Press 'space' when you see 2-back (i.e. the same letter as the one that appeared 2 letters ago.),,,,,,,,,,,0,12,12,12,,,,,,,,,,,,,,,,,,,,,,,,,,,,,,,,,,,,,,,,,,,,,,,,,,,,,,,,,,,,,,,,,,,,,,,,,,,,,,,,,P006,fencog,2,Post,2021_Jul_21_1313,N-Back (New Version 2021),2021.1.4,120.2734056
,,,,Conditions/Version_1/zeroback(4)_v1.xlsx,New rule: Press 'space' when you see the letter 'x' or 'X'.,o,None,,,,,,,,,0,13,13,13,0,0,0,0,,,,,,,,,,,,,,,,,,,,,,,,,,,,,,,,,,,,,,,,,,,,,,,,,,,,,,,,,,,940.5338561,None,943.5208917,None,space,0.4124864,943.5208917,None,940.5338561,None,1.878,945.8536028,None,None,1,945.8536028,None,,P006,fencog,2,Post,2021_Jul_21_1313,N-Back (New Version 2021),2021.1.4,120.2734056
,,,,Conditions/Version_1/zeroback(4)_v1.xlsx,New rule: Press 'space' when you see the letter 'x' or 'X'.,X,space,,,,,,,,,0,13,13,13,0,1,1,1,,,,,,,,,,,,,,,,,,,,,,,,,,,,,,,,,,,,,,,,,,,,,,,,,,,,,,,,,,,,,,,,,,,,,1.4316,949.2921983,None,space,1,949.2921983,None,0.4493909,P006,fencog,2,Post,2021_Jul_21_1313,N-Back (New Version 2021),2021.1.4,120.2734056
,,,,Conditions/Version_1/zeroback(4)_v1.xlsx,New rule: Press 'space' when you see the letter 'x' or 'X'.,p,None,,,,,,,,,0,13,13,13,0,2,2,2,,,,,,,,,,,,,,,,,,,,,,,,,,,,,,,,,,,,,,,,,,,,,,,,,,,,,,,,,,,,,,,,,,,,,1.5618,952.8593505,None,None,1,952.8593505,None,,P006,fencog,2,Post,2021_Jul_21_1313,N-Back (New Version 2021),2021.1.4,120.2734056
,,,,Conditions/Version_1/zeroback(4)_v1.xlsx,New rule: Press 'space' when you see the letter 'x' or 'X'.,m,None,,,,,,,,,0,13,13,13,0,3,3,3,,,,,,,,,,,,,,,,,,,,,,,,,,,,,,,,,,,,,,,,,,,,,,,,,,,,,,,,,,,,,,,,,,,,,1.196,956.0694428,None,None,1,956.0694428,None,,P006,fencog,2,Post,2021_Jul_21_1313,N-Back (New Version 2021),2021.1.4,120.2734056
,,,,Conditions/Version_1/zeroback(4)_v1.xlsx,New rule: Press 'space' when you see the letter 'x' or 'X'.,n,None,,,,,,,,,0,13,13,13,0,4,4,4,,,,,,,,,,,,,,,,,,,,,,,,,,,,,,,,,,,,,,,,,,,,,,,,,,,,,,,,,,,,,,,,,,,,,1.4068,959.4837487,None,None,1,959.4837487,None,,P006,fencog,2,Post,2021_Jul_21_1313,N-Back (New Version 2021),2021.1.4,120.2734056
,,,,Conditions/Version_1/zeroback(4)_v1.xlsx,New rule: Press 'space' when you see the letter 'x' or 'X'.,m,None,,,,,,,,,0,13,13,13,0,5,5,5,,,,,,,,,,,,,,,,,,,,,,,,,,,,,,,,,,,,,,,,,,,,,,,,,,,,,,,,,,,,,,,,,,,,,1.3572,962.847953,None,None,1,962.847953,None,,P006,fencog,2,Post,2021_Jul_21_1313,N-Back (New Version 2021),2021.1.4,120.2734056
,,,,Conditions/Version_1/zeroback(4)_v1.xlsx,New rule: Press 'space' when you see the letter 'x' or 'X'.,C,None,,,,,,,,,0,13,13,13,0,6,6,6,,,,,,,,,,,,,,,,,,,,,,,,,,,,,,,,,,,,,,,,,,,,,,,,,,,,,,,,,,,,,,,,,,,,,1.2456,966.105291,None,None,1,966.105291,None,,P006,fencog,2,Post,2021_Jul_21_1313,N-Back (New Version 2021),2021.1.4,120.2734056
,,,,Conditions/Version_1/zeroback(4)_v1.xlsx,New rule: Press 'space' when you see the letter 'x' or 'X'.,m,None,,,,,,,,,0,13,13,13,0,7,7,7,,,,,,,,,,,,,,,,,,,,,,,,,,,,,,,,,,,,,,,,,,,,,,,,,,,,,,,,,,,,,,,,,,,,,1.7168,969.8288916,None,None,1,969.8288916,None,,P006,fencog,2,Post,2021_Jul_21_1313,N-Back (New Version 2021),2021.1.4,120.2734056
,,,,Conditions/Version_1/zeroback(4)_v1.xlsx,New rule: Press 'space' when you see the letter 'x' or 'X'.,p,None,,,,,,,,,0,13,13,13,0,8,8,8,,,,,,,,,,,,,,,,,,,,,,,,,,,,,,,,,,,,,,,,,,,,,,,,,,,,,,,,,,,,,,,,,,,,,1.6548,973.4942778,None,None,1,973.4942778,None,,P006,fencog,2,Post,2021_Jul_21_1313,N-Back (New Version 2021),2021.1.4,120.2734056
,,,,Conditions/Version_1/zeroback(4)_v1.xlsx,New rule: Press 'space' when you see the letter 'x' or 'X'.,X,space,,,,,,,,,0,13,13,13,0,9,9,9,,,,,,,,,,,,,,,,,,,,,,,,,,,,,,,,,,,,,,,,,,,,,,,,,,,,,,,,,,,,,,,,,,,,,1.63,977.1265225,None,space,1,977.1265225,None,0.5509505,P006,fencog,2,Post,2021_Jul_21_1313,N-Back (New Version 2021),2021.1.4,120.2734056
,,,,Conditions/Version_1/zeroback(4)_v1.xlsx,New rule: Press 'space' when you see the letter 'x' or 'X'.,,,,,,,,,,,0,13,13,13,,,,,,,,,,,,,,,,,,,,,,,,,,,,,,,,,,,,,,,,,,,,,,,,,,,,,,,,,,,,,,,,,,,,,,,,,,,,,,,,,P006,fencog,2,Post,2021_Jul_21_1313,N-Back (New Version 2021),2021.1.4,120.2734056
,,,,Conditions/Version_1/oneback(4)_v1.xlsx,New rule: Press 'space' when you see 1-back (i.e. the same letter as the one that appeared 1 letter ago.),w,None,,,,,,,,,0,14,14,14,0,0,0,0,,,,,,,,,,,,,,,,,,,,,,,,,,,,,,,,,,,,,,,,,,,,,,,,,,,,,,,,,,,979.1570544,None,982.1434068,None,space,0.4141085,982.1434068,None,979.1570544,None,1.909,984.4900566,None,None,1,984.4900566,None,,P006,fencog,2,Post,2021_Jul_21_1313,N-Back (New Version 2021),2021.1.4,120.2734056
,,,,Conditions/Version_1/oneback(4)_v1.xlsx,New rule: Press 'space' when you see 1-back (i.e. the same letter as the one that appeared 1 letter ago.),q,None,,,,,,,,,0,14,14,14,0,1,1,1,,,,,,,,,,,,,,,,,,,,,,,,,,,,,,,,,,,,,,,,,,,,,,,,,,,,,,,,,,,,,,,,,,,,,1.413,987.9114791,None,None,1,987.9114791,None,,P006,fencog,2,Post,2021_Jul_21_1313,N-Back (New Version 2021),2021.1.4,120.2734056
,,,,Conditions/Version_1/oneback(4)_v1.xlsx,New rule: Press 'space' when you see 1-back (i.e. the same letter as the one that appeared 1 letter ago.),i,None,,,,,,,,,0,14,14,14,0,2,2,2,,,,,,,,,,,,,,,,,,,,,,,,,,,,,,,,,,,,,,,,,,,,,,,,,,,,,,,,,,,,,,,,,,,,,1.4564,991.373576,None,None,1,991.373576,None,,P006,fencog,2,Post,2021_Jul_21_1313,N-Back (New Version 2021),2021.1.4,120.2734056
,,,,Conditions/Version_1/oneback(4)_v1.xlsx,New rule: Press 'space' when you see 1-back (i.e. the same letter as the one that appeared 1 letter ago.),t,None,,,,,,,,,0,14,14,14,0,3,3,3,,,,,,,,,,,,,,,,,,,,,,,,,,,,,,,,,,,,,,,,,,,,,,,,,,,,,,,,,,,,,,,,,,,,,1.2766,994.6622155,None,None,1,994.6622155,None,,P006,fencog,2,Post,2021_Jul_21_1313,N-Back (New Version 2021),2021.1.4,120.2734056
,,,,Conditions/Version_1/oneback(4)_v1.xlsx,New rule: Press 'space' when you see 1-back (i.e. the same letter as the one that appeared 1 letter ago.),v,None,,,,,,,,,0,14,14,14,0,4,4,4,,,,,,,,,,,,,,,,,,,,,,,,,,,,,,,,,,,,,,,,,,,,,,,,,,,,,,,,,,,,,,,,,,,,,1.7044,998.3750711,None,None,1,998.3750711,None,,P006,fencog,2,Post,2021_Jul_21_1313,N-Back (New Version 2021),2021.1.4,120.2734056
,,,,Conditions/Version_1/oneback(4)_v1.xlsx,New rule: Press 'space' when you see 1-back (i.e. the same letter as the one that appeared 1 letter ago.),V,space,,,,,,,,,0,14,14,14,0,5,5,5,,,,,,,,,,,,,,,,,,,,,,,,,,,,,,,,,,,,,,,,,,,,,,,,,,,,,,,,,,,,,,,,,,,,,1.9276,1002.311341,None,space,1,1002.311341,None,0.7983024,P006,fencog,2,Post,2021_Jul_21_1313,N-Back (New Version 2021),2021.1.4,120.2734056
,,,,Conditions/Version_1/oneback(4)_v1.xlsx,New rule: Press 'space' when you see 1-back (i.e. the same letter as the one that appeared 1 letter ago.),v,space,,,,,,,,,0,14,14,14,0,6,6,6,,,,,,,,,,,,,,,,,,,,,,,,,,,,,,,,,,,,,,,,,,,,,,,,,,,,,,,,,,,,,,,,,,,,,1.4812,1005.80259,None,space,1,1005.80259,None,1.0270177,P006,fencog,2,Post,2021_Jul_21_1313,N-Back (New Version 2021),2021.1.4,120.2734056
,,,,Conditions/Version_1/oneback(4)_v1.xlsx,New rule: Press 'space' when you see 1-back (i.e. the same letter as the one that appeared 1 letter ago.),p,None,,,,,,,,,0,14,14,14,0,7,7,7,,,,,,,,,,,,,,,,,,,,,,,,,,,,,,,,,,,,,,,,,,,,,,,,,,,,,,,,,,,,,,,,,,,,,1.165,1008.97464,None,None,1,1008.97464,None,,P006,fencog,2,Post,2021_Jul_21_1313,N-Back (New Version 2021),2021.1.4,120.2734056
,,,,Conditions/Version_1/oneback(4)_v1.xlsx,New rule: Press 'space' when you see 1-back (i.e. the same letter as the one that appeared 1 letter ago.),w,None,,,,,,,,,0,14,14,14,0,8,8,8,,,,,,,,,,,,,,,,,,,,,,,,,,,,,,,,,,,,,,,,,,,,,,,,,,,,,,,,,,,,,,,,,,,,,1.0782,1012.059053,None,None,1,1012.059053,None,,P006,fencog,2,Post,2021_Jul_21_1313,N-Back (New Version 2021),2021.1.4,120.2734056
,,,,Conditions/Version_1/oneback(4)_v1.xlsx,New rule: Press 'space' when you see 1-back (i.e. the same letter as the one that appeared 1 letter ago.),W,space,,,,,,,,,0,14,14,14,0,9,9,9,,,,,,,,,,,,,,,,,,,,,,,,,,,,,,,,,,,,,,,,,,,,,,,,,,,,,,,,,,,,,,,,,,,,,1.382,1015.448699,None,space,1,1015.448699,None,0.428741,P006,fencog,2,Post,2021_Jul_21_1313,N-Back (New Version 2021),2021.1.4,120.2734056
,,,,Conditions/Version_1/oneback(4)_v1.xlsx,New rule: Press 'space' when you see 1-back (i.e. the same letter as the one that appeared 1 letter ago.),,,,,,,,,,,0,14,14,14,,,,,,,,,,,,,,,,,,,,,,,,,,,,,,,,,,,,,,,,,,,,,,,,,,,,,,,,,,,,,,,,,,,,,,,,,,,,,,,,,P006,fencog,2,Post,2021_Jul_21_1313,N-Back (New Version 2021),2021.1.4,120.2734056
,,,,Conditions/Version_1/threeback(4)_v1.xlsx,New rule: Press 'space' when you see 3-back (i.e. the same letter as the one that appeared 3 letters ago.),A,None,,,,,,,,,0,15,15,15,0,0,0,0,,,,,,,,,,,,,,,,,,,,,,,,,,,,,,,,,,,,,,,,,,,,,,,,,,,,,,,,,,,1017.477325,None,1020.465126,None,space,8.0201939,1020.465126,None,1017.477325,None,1.2146,1029.732383,None,None,1,1029.732383,None,,P006,fencog,2,Post,2021_Jul_21_1313,N-Back (New Version 2021),2021.1.4,120.2734056
,,,,Conditions/Version_1/threeback(4)_v1.xlsx,New rule: Press 'space' when you see 3-back (i.e. the same letter as the one that appeared 3 letters ago.),n,None,,,,,,,,,0,15,15,15,0,1,1,1,,,,,,,,,,,,,,,,,,,,,,,,,,,,,,,,,,,,,,,,,,,,,,,,,,,,,,,,,,,,,,,,,,,,,1.723,1033.46014,None,None,1,1033.46014,None,,P006,fencog,2,Post,2021_Jul_21_1313,N-Back (New Version 2021),2021.1.4,120.2734056
,,,,Conditions/Version_1/threeback(4)_v1.xlsx,New rule: Press 'space' when you see 3-back (i.e. the same letter as the one that appeared 3 letters ago.),g,None,,,,,,,,,0,15,15,15,0,2,2,2,,,,,,,,,,,,,,,,,,,,,,,,,,,,,,,,,,,,,,,,,,,,,,,,,,,,,,,,,,,,,,,,,,,,,1.909,1037.38733,None,None,1,1037.38733,None,,P006,fencog,2,Post,2021_Jul_21_1313,N-Back (New Version 2021),2021.1.4,120.2734056
,,,,Conditions/Version_1/threeback(4)_v1.xlsx,New rule: Press 'space' when you see 3-back (i.e. the same letter as the one that appeared 3 letters ago.),A,space,,,,,,,,,0,15,15,15,0,3,3,3,,,,,,,,,,,,,,,,,,,,,,,,,,,,,,,,,,,,,,,,,,,,,,,,,,,,,,,,,,,,,,,,,,,,,1.9586,1041.348413,None,space,1,1041.348413,None,0.4172408,P006,fencog,2,Post,2021_Jul_21_1313,N-Back (New Version 2021),2021.1.4,120.2734056
,,,,Conditions/Version_1/threeback(4)_v1.xlsx,New rule: Press 'space' when you see 3-back (i.e. the same letter as the one that appeared 3 letters ago.),p,None,,,,,,,,,0,15,15,15,0,4,4,4,,,,,,,,,,,,,,,,,,,,,,,,,,,,,,,,,,,,,,,,,,,,,,,,,,,,,,,,,,,,,,,,,,,,,1.5804,1044.932779,None,None,1,1044.932779,None,,P006,fencog,2,Post,2021_Jul_21_1313,N-Back (New Version 2021),2021.1.4,120.2734056
,,,,Conditions/Version_1/threeback(4)_v1.xlsx,New rule: Press 'space' when you see 3-back (i.e. the same letter as the one that appeared 3 letters ago.),O,None,,,,,,,,,0,15,15,15,0,5,5,5,,,,,,,,,,,,,,,,,,,,,,,,,,,,,,,,,,,,,,,,,,,,,,,,,,,,,,,,,,,,,,,,,,,,,1.2828,1048.222567,None,None,1,1048.222567,None,,P006,fencog,2,Post,2021_Jul_21_1313,N-Back (New Version 2021),2021.1.4,120.2734056
,,,,Conditions/Version_1/threeback(4)_v1.xlsx,New rule: Press 'space' when you see 3-back (i.e. the same letter as the one that appeared 3 letters ago.),a,space,,,,,,,,,0,15,15,15,0,6,6,6,,,,,,,,,,,,,,,,,,,,,,,,,,,,,,,,,,,,,,,,,,,,,,,,,,,,,,,,,,,,,,,,,,,,,1.4812,1051.714272,None,space,1,1051.714272,None,0.8108961,P006,fencog,2,Post,2021_Jul_21_1313,N-Back (New Version 2021),2021.1.4,120.2734056
,,,,Conditions/Version_1/threeback(4)_v1.xlsx,New rule: Press 'space' when you see 3-back (i.e. the same letter as the one that appeared 3 letters ago.),p,space,,,,,,,,,0,15,15,15,0,7,7,7,,,,,,,,,,,,,,,,,,,,,,,,,,,,,,,,,,,,,,,,,,,,,,,,,,,,,,,,,,,,,,,,,,,,,1.0596,1054.786047,None,None,0,1054.786047,None,,P006,fencog,2,Post,2021_Jul_21_1313,N-Back (New Version 2021),2021.1.4,120.2734056
,,,,Conditions/Version_1/threeback(4)_v1.xlsx,New rule: Press 'space' when you see 3-back (i.e. the same letter as the one that appeared 3 letters ago.),x,None,,,,,,,,,0,15,15,15,0,8,8,8,,,,,,,,,,,,,,,,,,,,,,,,,,,,,,,,,,,,,,,,,,,,,,,,,,,,,,,,,,,,,,,,,,,,,1.6114,1058.403765,None,None,1,1058.403765,None,,P006,fencog,2,Post,2021_Jul_21_1313,N-Back (New Version 2021),2021.1.4,120.2734056
,,,,Conditions/Version_1/threeback(4)_v1.xlsx,New rule: Press 'space' when you see 3-back (i.e. the same letter as the one that appeared 3 letters ago.),X,None,,,,,,,,,0,15,15,15,0,9,9,9,,,,,,,,,,,,,,,,,,,,,,,,,,,,,,,,,,,,,,,,,,,,,,,,,,,,,,,,,,,,,,,,,,,,,1.9648,1062.377499,None,space,0,1062.377499,None,0.9155788,P006,fencog,2,Post,2021_Jul_21_1313,N-Back (New Version 2021),2021.1.4,120.2734056
,,,,Conditions/Version_1/threeback(4)_v1.xlsx,New rule: Press 'space' when you see 3-back (i.e. the same letter as the one that appeared 3 letters ago.),,,,,,,,,,,0,15,15,15,,,,,,,,,,,,,,,,,,,,,,,,,,,,,,,,,,,,,,,,,,,,,,,,,,,,,,,,,,,,,,,,,,,,,,,,,,,,,,,,,P006,fencog,2,Post,2021_Jul_21_1313,N-Back (New Version 2021),2021.1.4,120.2734056
