CondFileP,InstructionsP,LettersDisplayedP,CorrectnessP,CondFile,Instructions,LettersDisplayed,Correctness,practicetrials.thisRepN,practicetrials.thisTrialN,practicetrials.thisN,practicetrials.thisIndex,InnerLoopPractice.thisRepN,InnerLoopPractice.thisTrialN,InnerLoopPractice.thisN,InnerLoopPractice.thisIndex,trials.thisRepN,trials.thisTrialN,trials.thisN,trials.thisIndex,InnerLoop.thisRepN,InnerLoop.thisTrialN,InnerLoop.thisN,InnerLoop.thisIndex,TaskVersionText.started,TaskVersionText.stopped,InstrKey1.keys,InstrKey1.rt,InstrKey1.started,InstrKey1.stopped,text.started,text.stopped,key_resp_4.keys,key_resp_4.rt,key_resp_4.started,key_resp_4.stopped,text_2.started,text_2.stopped,key_resp_3.keys,key_resp_3.rt,key_resp_3.started,key_resp_3.stopped,text_3.started,text_3.stopped,key_resp_2.keys,key_resp_2.rt,key_resp_2.started,key_resp_2.stopped,PractIn1.started,PractIn1.stopped,PractIn2.started,PractIn2.stopped,PractInstructionPass.keys,PractInstructionPass.rt,PractInstructionPass.started,PractInstructionPass.stopped,PractBlock1.started,PractBlock1.stopped,ISIjitterPractice,ISI_Pract_Fixation.started,ISI_Pract_Fixation.stopped,N_backP.started,N_backP.stopped,KeyPractice.keys,KeyPractice.corr,KeyPractice.started,KeyPractice.stopped,text_4.started,text_4.stopped,KeyPractice.rt,TransitionText.started,TransitionText.stopped,key_resp_6.keys,key_resp_6.rt,key_resp_6.started,key_resp_6.stopped,text_5.started,text_5.stopped,key_resp_5.keys,key_resp_5.rt,key_resp_5.started,key_resp_5.stopped,MainInt1.started,MainInt1.stopped,MainInt2.started,MainInt2.stopped,InstructionPass.keys,InstructionPass.rt,InstructionPass.started,InstructionPass.stopped,Blocks1.started,Blocks1.stopped,ISIjitter,N_backD.started,N_backD.stopped,key_resp.keys,key_resp.corr,key_resp.started,key_resp.stopped,key_resp.rt,participant,Study Name,Task Version (required to run),PRE/POST,date,expName,psychopyVersion,frameRate,
,,,,,,,,,,,,,,,,,,,,,,,,23.11962140002288,None,space,5.486800400016364,23.615636300004553,None,,,,,,,,,,,,,,,,,,,,,,,,,,,,,,,,,,,,,,,,,,,,,,,,,,,,,,,,,,,,,,,,,,,,,,,P006,fencog,1,Pre,2021_Jul_14_1101,N-Back (New Version 2021),2021.1.4,119.94866197275073,
,,,,,,,,,,,,,,,,,,,,,,,,,,,,,,29.13617549999617,None,space,165.5113712999737,29.630949500016868,None,,,,,,,,,,,,,,,,,,,,,,,,,,,,,,,,,,,,,,,,,,,,,,,,,,,,,,,,,,,,,,,,,P006,fencog,1,Pre,2021_Jul_14_1101,N-Back (New Version 2021),2021.1.4,119.94866197275073,
,,,,,,,,,,,,,,,,,,,,,,,,,,,,,,,,,,,,195.18064390000654,None,space,14.108285500027705,195.67389129998628,None,,,,,,,,,,,,,,,,,,,,,,,,,,,,,,,,,,,,,,,,,,,,,,,,,,,,,,,,,,,P006,fencog,1,Pre,2021_Jul_14_1101,N-Back (New Version 2021),2021.1.4,119.94866197275073,
,,,,,,,,,,,,,,,,,,,,,,,,,,,,,,,,,,,,,,,,,,209.8118511000066,None,space,17.439551000017673,210.30274439998902,None,,,,,,,,,,,,,,,,,,,,,,,,,,,,,,,,,,,,,,,,,,,,,,,,,,,,,P006,fencog,1,Pre,2021_Jul_14_1101,N-Back (New Version 2021),2021.1.4,119.94866197275073,
Conditions/Version_1Pr/zeroback(1)_v1.xlsx,Rule: Press 'space' when you see the letter 'x' or 'X'.,Z,None,,,,,0,0,0,0,0,0,0,0,,,,,,,,,,,,,,,,,,,,,,,,,,,,,,,,,229.1039931999985,None,232.08998519997112,None,space,4.636108900012914,232.08998519997112,None,229.1039931999985,None,1.49,236.74461080000037,None,238.23774160002358,None,None,1,238.23774160002358,None,240.24139440001454,None,,,,,,,,,,,,,,,,,,,,,,,,,,,,,,,,P006,fencog,1,Pre,2021_Jul_14_1101,N-Back (New Version 2021),2021.1.4,119.94866197275073,
Conditions/Version_1Pr/zeroback(1)_v1.xlsx,Rule: Press 'space' when you see the letter 'x' or 'X'.,r,None,,,,,0,0,0,0,0,1,1,1,,,,,,,,,,,,,,,,,,,,,,,,,,,,,,,,,,,,,,,,,,,1.465,241.74257750000106,None,243.21179199998733,None,None,1,243.21179199998733,None,245.21668050001608,None,,,,,,,,,,,,,,,,,,,,,,,,,,,,,,,,P006,fencog,1,Pre,2021_Jul_14_1101,N-Back (New Version 2021),2021.1.4,119.94866197275073,
Conditions/Version_1Pr/zeroback(1)_v1.xlsx,Rule: Press 'space' when you see the letter 'x' or 'X'.,X,space,,,,,0,0,0,0,0,2,2,2,,,,,,,,,,,,,,,,,,,,,,,,,,,,,,,,,,,,,,,,,,,1.39,246.71608189999824,None,248.11077019997174,None,space,1,248.11077019997174,None,248.47608809999656,None,0.35151830001268536,,,,,,,,,,,,,,,,,,,,,,,,,,,,,,,P006,fencog,1,Pre,2021_Jul_14_1101,N-Back (New Version 2021),2021.1.4,119.94866197275073,
Conditions/Version_1Pr/zeroback(1)_v1.xlsx,Rule: Press 'space' when you see the letter 'x' or 'X'.,p,None,,,,,0,0,0,0,0,3,3,3,,,,,,,,,,,,,,,,,,,,,,,,,,,,,,,,,,,,,,,,,,,1.215,249.98289709998062,None,251.20427230000496,None,None,1,251.20427230000496,None,253.205982399988,None,,,,,,,,,,,,,,,,,,,,,,,,,,,,,,,,P006,fencog,1,Pre,2021_Jul_14_1101,N-Back (New Version 2021),2021.1.4,119.94866197275073,
Conditions/Version_1Pr/zeroback(1)_v1.xlsx,Rule: Press 'space' when you see the letter 'x' or 'X'.,w,None,,,,,0,0,0,0,0,4,4,4,,,,,,,,,,,,,,,,,,,,,,,,,,,,,,,,,,,,,,,,,,,1.74,254.7054574000067,None,256.44935319997603,None,None,1,256.44935319997603,None,258.4543115000124,None,,,,,,,,,,,,,,,,,,,,,,,,,,,,,,,,P006,fencog,1,Pre,2021_Jul_14_1101,N-Back (New Version 2021),2021.1.4,119.94866197275073,
Conditions/Version_1Pr/zeroback(1)_v1.xlsx,Rule: Press 'space' when you see the letter 'x' or 'X'.,e,None,,,,,0,0,0,0,0,5,5,5,,,,,,,,,,,,,,,,,,,,,,,,,,,,,,,,,,,,,,,,,,,1.915,259.9538410999812,None,261.87265009997645,None,None,1,261.87265009997645,None,263.87778270000126,None,,,,,,,,,,,,,,,,,,,,,,,,,,,,,,,,P006,fencog,1,Pre,2021_Jul_14_1101,N-Back (New Version 2021),2021.1.4,119.94866197275073,
Conditions/Version_1Pr/zeroback(1)_v1.xlsx,Rule: Press 'space' when you see the letter 'x' or 'X'.,X,space,,,,,0,0,0,0,0,6,6,6,,,,,,,,,,,,,,,,,,,,,,,,,,,,,,,,,,,,,,,,,,,1.565,265.3772816999699,None,266.9434044000227,None,space,1,266.9434044000227,None,267.31930259999353,None,0.366990500013344,,,,,,,,,,,,,,,,,,,,,,,,,,,,,,,P006,fencog,1,Pre,2021_Jul_14_1101,N-Back (New Version 2021),2021.1.4,119.94866197275073,
Conditions/Version_1Pr/zeroback(1)_v1.xlsx,Rule: Press 'space' when you see the letter 'x' or 'X'.,x,space,,,,,0,0,0,0,0,7,7,7,,,,,,,,,,,,,,,,,,,,,,,,,,,,,,,,,,,,,,,,,,,2.015,268.8259056999814,None,270.8445944999694,None,space,1,270.8445944999694,None,271.31824509997386,None,0.46545590000459924,,,,,,,,,,,,,,,,,,,,,,,,,,,,,,,P006,fencog,1,Pre,2021_Jul_14_1101,N-Back (New Version 2021),2021.1.4,119.94866197275073,
Conditions/Version_1Pr/zeroback(1)_v1.xlsx,Rule: Press 'space' when you see the letter 'x' or 'X'.,p,None,,,,,0,0,0,0,0,8,8,8,,,,,,,,,,,,,,,,,,,,,,,,,,,,,,,,,,,,,,,,,,,1.265,272.82594100001734,None,274.0916397999972,None,None,1,274.0916397999972,None,276.090819199977,None,,,,,,,,,,,,,,,,,,,,,,,,,,,,,,,,P006,fencog,1,Pre,2021_Jul_14_1101,N-Back (New Version 2021),2021.1.4,119.94866197275073,
Conditions/Version_1Pr/zeroback(1)_v1.xlsx,Rule: Press 'space' when you see the letter 'x' or 'X'.,r,None,,,,,0,0,0,0,0,9,9,9,,,,,,,,,,,,,,,,,,,,,,,,,,,,,,,,,,,,,,,,,,,1.89,277.5902092999895,None,279.4826978999772,None,None,1,279.4826978999772,None,281.4892133999965,None,,,,,,,,,,,,,,,,,,,,,,,,,,,,,,,,P006,fencog,1,Pre,2021_Jul_14_1101,N-Back (New Version 2021),2021.1.4,119.94866197275073,
Conditions/Version_1Pr/zeroback(1)_v1.xlsx,Rule: Press 'space' when you see the letter 'x' or 'X'.,,,,,,,0,0,0,0,,,,,,,,,,,,,,,,,,,,,,,,,,,,,,,,,,,,,,,,,,,,,,,,,,,,,,,,,,,,,,,,,,,,,,,,,,,,,,,,,,,,,,,,,P006,fencog,1,Pre,2021_Jul_14_1101,N-Back (New Version 2021),2021.1.4,119.94866197275073,
Conditions/Version_1Pr/oneback(1)_v1.xlsx,New rule: Press 'space' when you see 1-back (i.e. the same letter as the one that appeared 1 letter ago.),a,None,,,,,0,1,1,1,0,0,0,0,,,,,,,,,,,,,,,,,,,,,,,,,,,,,,,,,283.0121930000023,None,285.99796519998927,None,space,6.088181799976155,285.99796519998927,None,283.0121930000023,None,1.215,292.1067437999882,None,293.3312097999733,None,None,1,293.3312097999733,None,295.3351220000186,None,,,,,,,,,,,,,,,,,,,,,,,,,,,,,,,,P006,fencog,1,Pre,2021_Jul_14_1101,N-Back (New Version 2021),2021.1.4,119.94866197275073,
Conditions/Version_1Pr/oneback(1)_v1.xlsx,New rule: Press 'space' when you see 1-back (i.e. the same letter as the one that appeared 1 letter ago.),x,None,,,,,0,1,1,1,0,1,1,1,,,,,,,,,,,,,,,,,,,,,,,,,,,,,,,,,,,,,,,,,,,1.14,296.83460619999096,None,297.9773281000089,None,None,1,297.9773281000089,None,299.9835485999938,None,,,,,,,,,,,,,,,,,,,,,,,,,,,,,,,,P006,fencog,1,Pre,2021_Jul_14_1101,N-Back (New Version 2021),2021.1.4,119.94866197275073,
Conditions/Version_1Pr/oneback(1)_v1.xlsx,New rule: Press 'space' when you see 1-back (i.e. the same letter as the one that appeared 1 letter ago.),g,None,,,,,0,1,1,1,0,2,2,2,,,,,,,,,,,,,,,,,,,,,,,,,,,,,,,,,,,,,,,,,,,1.89,301.4833643999882,None,303.3768662000075,None,None,1,303.3768662000075,None,305.38214930001413,None,,,,,,,,,,,,,,,,,,,,,,,,,,,,,,,,P006,fencog,1,Pre,2021_Jul_14_1101,N-Back (New Version 2021),2021.1.4,119.94866197275073,
Conditions/Version_1Pr/oneback(1)_v1.xlsx,New rule: Press 'space' when you see 1-back (i.e. the same letter as the one that appeared 1 letter ago.),G,space,,,,,0,1,1,1,0,3,3,3,,,,,,,,,,,,,,,,,,,,,,,,,,,,,,,,,,,,,,,,,,,1.79,306.881606800016,None,308.67821240000194,None,space,1,308.67821240000194,None,309.15464389999397,None,0.4560950000304729,,,,,,,,,,,,,,,,,,,,,,,,,,,,,,,P006,fencog,1,Pre,2021_Jul_14_1101,N-Back (New Version 2021),2021.1.4,119.94866197275073,
Conditions/Version_1Pr/oneback(1)_v1.xlsx,New rule: Press 'space' when you see 1-back (i.e. the same letter as the one that appeared 1 letter ago.),u,None,,,,,0,1,1,1,0,4,4,4,,,,,,,,,,,,,,,,,,,,,,,,,,,,,,,,,,,,,,,,,,,1.04,310.65543619997334,None,311.7007729000179,None,None,1,311.7007729000179,None,313.70470880001085,None,,,,,,,,,,,,,,,,,,,,,,,,,,,,,,,,P006,fencog,1,Pre,2021_Jul_14_1101,N-Back (New Version 2021),2021.1.4,119.94866197275073,
Conditions/Version_1Pr/oneback(1)_v1.xlsx,New rule: Press 'space' when you see 1-back (i.e. the same letter as the one that appeared 1 letter ago.),y,None,,,,,0,1,1,1,0,5,5,5,,,,,,,,,,,,,,,,,,,,,,,,,,,,,,,,,,,,,,,,,,,1.715,315.2042374999728,None,316.92435970000224,None,None,1,316.92435970000224,None,318.9325708000106,None,,,,,,,,,,,,,,,,,,,,,,,,,,,,,,,,P006,fencog,1,Pre,2021_Jul_14_1101,N-Back (New Version 2021),2021.1.4,119.94866197275073,
Conditions/Version_1Pr/oneback(1)_v1.xlsx,New rule: Press 'space' when you see 1-back (i.e. the same letter as the one that appeared 1 letter ago.),y,space,,,,,0,1,1,1,0,6,6,6,,,,,,,,,,,,,,,,,,,,,,,,,,,,,,,,,,,,,,,,,,,1.965,320.42767449998064,None,322.3935961999814,None,space,1,322.3935961999814,None,322.7362092999974,None,0.3324209999991581,,,,,,,,,,,,,,,,,,,,,,,,,,,,,,,P006,fencog,1,Pre,2021_Jul_14_1101,N-Back (New Version 2021),2021.1.4,119.94866197275073,
Conditions/Version_1Pr/oneback(1)_v1.xlsx,New rule: Press 'space' when you see 1-back (i.e. the same letter as the one that appeared 1 letter ago.),k,None,,,,,0,1,1,1,0,7,7,7,,,,,,,,,,,,,,,,,,,,,,,,,,,,,,,,,,,,,,,,,,,1.265,324.2429857000243,None,325.51297969999723,None,None,1,325.51297969999723,None,327.51730890001636,None,,,,,,,,,,,,,,,,,,,,,,,,,,,,,,,,P006,fencog,1,Pre,2021_Jul_14_1101,N-Back (New Version 2021),2021.1.4,119.94866197275073,
Conditions/Version_1Pr/oneback(1)_v1.xlsx,New rule: Press 'space' when you see 1-back (i.e. the same letter as the one that appeared 1 letter ago.),c,None,,,,,0,1,1,1,0,8,8,8,,,,,,,,,,,,,,,,,,,,,,,,,,,,,,,,,,,,,,,,,,,1.24,329.01672700000927,None,330.26481530000456,None,None,1,330.26481530000456,None,332.2658242000034,None,,,,,,,,,,,,,,,,,,,,,,,,,,,,,,,,P006,fencog,1,Pre,2021_Jul_14_1101,N-Back (New Version 2021),2021.1.4,119.94866197275073,
Conditions/Version_1Pr/oneback(1)_v1.xlsx,New rule: Press 'space' when you see 1-back (i.e. the same letter as the one that appeared 1 letter ago.),r,None,,,,,0,1,1,1,0,9,9,9,,,,,,,,,,,,,,,,,,,,,,,,,,,,,,,,,,,,,,,,,,,1.44,333.7654201000114,None,335.20870590000413,None,None,1,335.20870590000413,None,337.214361499995,None,,,,,,,,,,,,,,,,,,,,,,,,,,,,,,,,P006,fencog,1,Pre,2021_Jul_14_1101,N-Back (New Version 2021),2021.1.4,119.94866197275073,
Conditions/Version_1Pr/oneback(1)_v1.xlsx,New rule: Press 'space' when you see 1-back (i.e. the same letter as the one that appeared 1 letter ago.),,,,,,,0,1,1,1,,,,,,,,,,,,,,,,,,,,,,,,,,,,,,,,,,,,,,,,,,,,,,,,,,,,,,,,,,,,,,,,,,,,,,,,,,,,,,,,,,,,,,,,,P006,fencog,1,Pre,2021_Jul_14_1101,N-Back (New Version 2021),2021.1.4,119.94866197275073,
Conditions/Version_1Pr/twoback(1)_v1.xlsx,New rule: Press 'space' when you see 2-back (i.e. the same letter as the one that appeared 2 letters ago.),E,None,,,,,0,2,2,2,0,0,0,0,,,,,,,,,,,,,,,,,,,,,,,,,,,,,,,,,338.73730799998157,None,341.7234968999983,None,space,4.5145497000194155,341.7234968999983,None,338.73730799998157,None,1.915,346.253182400018,None,348.1726144999848,None,None,1,348.1726144999848,None,350.1771525000222,None,,,,,,,,,,,,,,,,,,,,,,,,,,,,,,,,P006,fencog,1,Pre,2021_Jul_14_1101,N-Back (New Version 2021),2021.1.4,119.94866197275073,
Conditions/Version_1Pr/twoback(1)_v1.xlsx,New rule: Press 'space' when you see 2-back (i.e. the same letter as the one that appeared 2 letters ago.),p,None,,,,,0,2,2,2,0,1,1,1,,,,,,,,,,,,,,,,,,,,,,,,,,,,,,,,,,,,,,,,,,,1.79,351.67674329999136,None,353.46876000001794,None,None,1,353.46876000001794,None,355.4757344999816,None,,,,,,,,,,,,,,,,,,,,,,,,,,,,,,,,P006,fencog,1,Pre,2021_Jul_14_1101,N-Back (New Version 2021),2021.1.4,119.94866197275073,
Conditions/Version_1Pr/twoback(1)_v1.xlsx,New rule: Press 'space' when you see 2-back (i.e. the same letter as the one that appeared 2 letters ago.),e,space,,,,,0,2,2,2,0,2,2,2,,,,,,,,,,,,,,,,,,,,,,,,,,,,,,,,,,,,,,,,,,,1.615,356.9751068999758,None,358.59320190001745,None,space,1,358.59320190001745,None,359.09106659999816,None,0.4848329000524245,,,,,,,,,,,,,,,,,,,,,,,,,,,,,,,P006,fencog,1,Pre,2021_Jul_14_1101,N-Back (New Version 2021),2021.1.4,119.94866197275073,
Conditions/Version_1Pr/twoback(1)_v1.xlsx,New rule: Press 'space' when you see 2-back (i.e. the same letter as the one that appeared 2 letters ago.),s,None,,,,,0,2,2,2,0,3,3,3,,,,,,,,,,,,,,,,,,,,,,,,,,,,,,,,,,,,,,,,,,,1.44,360.59070100000827,None,362.0347589000012,None,None,1,362.0347589000012,None,364.03966060001403,None,,,,,,,,,,,,,,,,,,,,,,,,,,,,,,,,P006,fencog,1,Pre,2021_Jul_14_1101,N-Back (New Version 2021),2021.1.4,119.94866197275073,
Conditions/Version_1Pr/twoback(1)_v1.xlsx,New rule: Press 'space' when you see 2-back (i.e. the same letter as the one that appeared 2 letters ago.),S,None,,,,,0,2,2,2,0,4,4,4,,,,,,,,,,,,,,,,,,,,,,,,,,,,,,,,,,,,,,,,,,,1.165,365.5392983999918,None,366.70798559999093,None,None,1,366.70798559999093,None,368.71341389999725,None,,,,,,,,,,,,,,,,,,,,,,,,,,,,,,,,P006,fencog,1,Pre,2021_Jul_14_1101,N-Back (New Version 2021),2021.1.4,119.94866197275073,
Conditions/Version_1Pr/twoback(1)_v1.xlsx,New rule: Press 'space' when you see 2-back (i.e. the same letter as the one that appeared 2 letters ago.),s,space,,,,,0,2,2,2,0,5,5,5,,,,,,,,,,,,,,,,,,,,,,,,,,,,,,,,,,,,,,,,,,,1.84,370.21303410001565,None,372.0549816999701,None,space,1,372.0549816999701,None,372.4129214999848,None,0.34297569998307154,,,,,,,,,,,,,,,,,,,,,,,,,,,,,,,P006,fencog,1,Pre,2021_Jul_14_1101,N-Back (New Version 2021),2021.1.4,119.94866197275073,
Conditions/Version_1Pr/twoback(1)_v1.xlsx,New rule: Press 'space' when you see 2-back (i.e. the same letter as the one that appeared 2 letters ago.),P,None,,,,,0,2,2,2,0,6,6,6,,,,,,,,,,,,,,,,,,,,,,,,,,,,,,,,,,,,,,,,,,,1.065,373.9200071999803,None,374.98920840001665,None,None,1,374.98920840001665,None,376.99426130001666,None,,,,,,,,,,,,,,,,,,,,,,,,,,,,,,,,P006,fencog,1,Pre,2021_Jul_14_1101,N-Back (New Version 2021),2021.1.4,119.94866197275073,
Conditions/Version_1Pr/twoback(1)_v1.xlsx,New rule: Press 'space' when you see 2-back (i.e. the same letter as the one that appeared 2 letters ago.),C,None,,,,,0,2,2,2,0,7,7,7,,,,,,,,,,,,,,,,,,,,,,,,,,,,,,,,,,,,,,,,,,,1.39,378.4938880999689,None,379.8867428000085,None,None,1,379.8867428000085,None,381.8928050000104,None,,,,,,,,,,,,,,,,,,,,,,,,,,,,,,,,P006,fencog,1,Pre,2021_Jul_14_1101,N-Back (New Version 2021),2021.1.4,119.94866197275073,
Conditions/Version_1Pr/twoback(1)_v1.xlsx,New rule: Press 'space' when you see 2-back (i.e. the same letter as the one that appeared 2 letters ago.),x,None,,,,,0,2,2,2,0,8,8,8,,,,,,,,,,,,,,,,,,,,,,,,,,,,,,,,,,,,,,,,,,,1.865,383.3924031999777,None,385.2601106999791,None,None,1,385.2601106999791,None,387.2660370999947,None,,,,,,,,,,,,,,,,,,,,,,,,,,,,,,,,P006,fencog,1,Pre,2021_Jul_14_1101,N-Back (New Version 2021),2021.1.4,119.94866197275073,
Conditions/Version_1Pr/twoback(1)_v1.xlsx,New rule: Press 'space' when you see 2-back (i.e. the same letter as the one that appeared 2 letters ago.),Z,None,,,,,0,2,2,2,0,9,9,9,,,,,,,,,,,,,,,,,,,,,,,,,,,,,,,,,,,,,,,,,,,1.815,388.7657870000112,None,390.5824480999727,None,None,1,390.5824480999727,None,392.58976030000485,None,,,,,,,,,,,,,,,,,,,,,,,,,,,,,,,,P006,fencog,1,Pre,2021_Jul_14_1101,N-Back (New Version 2021),2021.1.4,119.94866197275073,
Conditions/Version_1Pr/twoback(1)_v1.xlsx,New rule: Press 'space' when you see 2-back (i.e. the same letter as the one that appeared 2 letters ago.),,,,,,,0,2,2,2,,,,,,,,,,,,,,,,,,,,,,,,,,,,,,,,,,,,,,,,,,,,,,,,,,,,,,,,,,,,,,,,,,,,,,,,,,,,,,,,,,,,,,,,,P006,fencog,1,Pre,2021_Jul_14_1101,N-Back (New Version 2021),2021.1.4,119.94866197275073,
Conditions/Version_1Pr/threeback(1)_v1.xlsx,New rule: Press 'space' when you see 3-back (i.e. the same letter as the one that appeared 3 letters ago.),r,None,,,,,0,3,3,3,0,0,0,0,,,,,,,,,,,,,,,,,,,,,,,,,,,,,,,,,394.109012299974,None,397.1007217000006,None,space,0.20926500001223758,397.1007217000006,None,394.109012299974,None,1.465,397.32846350001637,None,398.7998252999969,None,None,1,398.7998252999969,None,400.80137489998015,None,,,,,,,,,,,,,,,,,,,,,,,,,,,,,,,,P006,fencog,1,Pre,2021_Jul_14_1101,N-Back (New Version 2021),2021.1.4,119.94866197275073,
Conditions/Version_1Pr/threeback(1)_v1.xlsx,New rule: Press 'space' when you see 3-back (i.e. the same letter as the one that appeared 3 letters ago.),a,None,,,,,0,3,3,3,0,1,1,1,,,,,,,,,,,,,,,,,,,,,,,,,,,,,,,,,,,,,,,,,,,1.29,402.3035166999907,None,403.59577030001674,None,None,1,403.59577030001674,None,405.60258930001874,None,,,,,,,,,,,,,,,,,,,,,,,,,,,,,,,,P006,fencog,1,Pre,2021_Jul_14_1101,N-Back (New Version 2021),2021.1.4,119.94866197275073,
Conditions/Version_1Pr/threeback(1)_v1.xlsx,New rule: Press 'space' when you see 3-back (i.e. the same letter as the one that appeared 3 letters ago.),t,None,,,,,0,3,3,3,0,2,2,2,,,,,,,,,,,,,,,,,,,,,,,,,,,,,,,,,,,,,,,,,,,1.715,407.1019319000188,None,408.81909090001136,None,None,1,408.81909090001136,None,410.8258855000022,None,,,,,,,,,,,,,,,,,,,,,,,,,,,,,,,,P006,fencog,1,Pre,2021_Jul_14_1101,N-Back (New Version 2021),2021.1.4,119.94866197275073,
Conditions/Version_1Pr/threeback(1)_v1.xlsx,New rule: Press 'space' when you see 3-back (i.e. the same letter as the one that appeared 3 letters ago.),r,space,,,,,0,3,3,3,0,3,3,3,,,,,,,,,,,,,,,,,,,,,,,,,,,,,,,,,,,,,,,,,,,1.24,412.32538679998834,None,413.5676279999898,None,space,1,413.5676279999898,None,413.90904210001463,None,0.32631480001145974,,,,,,,,,,,,,,,,,,,,,,,,,,,,,,,P006,fencog,1,Pre,2021_Jul_14_1101,N-Back (New Version 2021),2021.1.4,119.94866197275073,
Conditions/Version_1Pr/threeback(1)_v1.xlsx,New rule: Press 'space' when you see 3-back (i.e. the same letter as the one that appeared 3 letters ago.),a,None,,,,,0,3,3,3,0,4,4,4,,,,,,,,,,,,,,,,,,,,,,,,,,,,,,,,,,,,,,,,,,,1.19,415.41624499997124,None,416.60957700002473,None,space,0,416.60957700002473,None,417.51235299999826,None,0.8842395000392571,,,,,,,,,,,,,,,,,,,,,,,,,,,,,,,P006,fencog,1,Pre,2021_Jul_14_1101,N-Back (New Version 2021),2021.1.4,119.94866197275073,
Conditions/Version_1Pr/threeback(1)_v1.xlsx,New rule: Press 'space' when you see 3-back (i.e. the same letter as the one that appeared 3 letters ago.),Y,None,,,,,0,3,3,3,0,5,5,5,,,,,,,,,,,,,,,,,,,,,,,,,,,,,,,,,,,,,,,,,,,1.84,419.01528719998896,None,420.857504900021,None,None,1,420.857504900021,None,422.8638339000172,None,,,,,,,,,,,,,,,,,,,,,,,,,,,,,,,,P006,fencog,1,Pre,2021_Jul_14_1101,N-Back (New Version 2021),2021.1.4,119.94866197275073,
Conditions/Version_1Pr/threeback(1)_v1.xlsx,New rule: Press 'space' when you see 3-back (i.e. the same letter as the one that appeared 3 letters ago.),q,None,,,,,0,3,3,3,0,6,6,6,,,,,,,,,,,,,,,,,,,,,,,,,,,,,,,,,,,,,,,,,,,1.74,424.3635616999818,None,426.1087191000115,None,None,1,426.1087191000115,None,428.1126026000129,None,,,,,,,,,,,,,,,,,,,,,,,,,,,,,,,,P006,fencog,1,Pre,2021_Jul_14_1101,N-Back (New Version 2021),2021.1.4,119.94866197275073,
Conditions/Version_1Pr/threeback(1)_v1.xlsx,New rule: Press 'space' when you see 3-back (i.e. the same letter as the one that appeared 3 letters ago.),A,space,,,,,0,3,3,3,0,7,7,7,,,,,,,,,,,,,,,,,,,,,,,,,,,,,,,,,,,,,,,,,,,1.54,429.6120788999833,None,431.1571597000002,None,None,0,431.1571597000002,None,433.16567860002397,None,,,,,,,,,,,,,,,,,,,,,,,,,,,,,,,,P006,fencog,1,Pre,2021_Jul_14_1101,N-Back (New Version 2021),2021.1.4,119.94866197275073,
Conditions/Version_1Pr/threeback(1)_v1.xlsx,New rule: Press 'space' when you see 3-back (i.e. the same letter as the one that appeared 3 letters ago.),y,None,,,,,0,3,3,3,0,8,8,8,,,,,,,,,,,,,,,,,,,,,,,,,,,,,,,,,,,,,,,,,,,1.065,434.6605142999906,None,435.72780120000243,None,space,0,435.72780120000243,None,436.67189559998224,None,0.926748999976553,,,,,,,,,,,,,,,,,,,,,,,,,,,,,,,P006,fencog,1,Pre,2021_Jul_14_1101,N-Back (New Version 2021),2021.1.4,119.94866197275073,
Conditions/Version_1Pr/threeback(1)_v1.xlsx,New rule: Press 'space' when you see 3-back (i.e. the same letter as the one that appeared 3 letters ago.),r,None,,,,,0,3,3,3,0,9,9,9,,,,,,,,,,,,,,,,,,,,,,,,,,,,,,,,,,,,,,,,,,,1.365,438.1771164999809,None,439.54414860002,None,None,1,439.54414860002,None,441.54993769997964,None,,,,,,,,,,,,,,,,,,,,,,,,,,,,,,,,P006,fencog,1,Pre,2021_Jul_14_1101,N-Back (New Version 2021),2021.1.4,119.94866197275073,
Conditions/Version_1Pr/threeback(1)_v1.xlsx,New rule: Press 'space' when you see 3-back (i.e. the same letter as the one that appeared 3 letters ago.),,,,,,,0,3,3,3,,,,,,,,,,,,,,,,,,,,,,,,,,,,,,,,,,,,,,,,,,,,,,,,,,,,,,,,,,,,,,,,,,,,,,,,,,,,,,,,,,,,,,,,,P006,fencog,1,Pre,2021_Jul_14_1101,N-Back (New Version 2021),2021.1.4,119.94866197275073,
,,,,,,,,,,,,,,,,,,,,,,,,,,,,,,,,,,,,,,,,,,,,,,,,,,,,,,,,,,,,,,,,,,,,,,443.0566027999739,None,space,4.735701699974015,443.5499029000057,None,,,,,,,,,,,,,,,,,,,,,,,,,P006,fencog,1,Pre,2021_Jul_14_1101,N-Back (New Version 2021),2021.1.4,119.94866197275073,
,,,,,,,,,,,,,,,,,,,,,,,,,,,,,,,,,,,,,,,,,,,,,,,,,,,,,,,,,,,,,,,,,,,,,,,,,,,,448.3321527999942,None,space,5.670151599973906,448.8236347999773,None,,,,,,,,,,,,,,,,,,,P006,fencog,1,Pre,2021_Jul_14_1101,N-Back (New Version 2021),2021.1.4,119.94866197275073,
,,,,Conditions/Version_1/zeroback(1)_v1.xlsx,Rule: Press 'space' when you see the letter 'x' or 'X'.,b,None,,,,,,,,,0,0,0,0,0,0,0,0,,,,,,,,,,,,,,,,,,,,,,,,,,,,,,,,,,,,,,,,,,,,,,,,,,,,,,,,,,,454.5933584999875,None,457.5807094000047,None,space,2.4811440000194125,457.5807094000047,None,454.5933584999875,None,1.1898,461.2890188000165,None,None,1,461.2890188000165,None,,P006,fencog,1,Pre,2021_Jul_14_1101,N-Back (New Version 2021),2021.1.4,119.94866197275073,
,,,,Conditions/Version_1/zeroback(1)_v1.xlsx,Rule: Press 'space' when you see the letter 'x' or 'X'.,T,None,,,,,,,,,0,0,0,0,0,1,1,1,,,,,,,,,,,,,,,,,,,,,,,,,,,,,,,,,,,,,,,,,,,,,,,,,,,,,,,,,,,,,,,,,,,,,1.8718,465.1696976000094,None,None,1,465.1696976000094,None,,P006,fencog,1,Pre,2021_Jul_14_1101,N-Back (New Version 2021),2021.1.4,119.94866197275073,
,,,,Conditions/Version_1/zeroback(1)_v1.xlsx,Rule: Press 'space' when you see the letter 'x' or 'X'.,L,None,,,,,,,,,0,0,0,0,0,2,2,2,,,,,,,,,,,,,,,,,,,,,,,,,,,,,,,,,,,,,,,,,,,,,,,,,,,,,,,,,,,,,,,,,,,,,1.599,468.7762736000004,None,None,1,468.7762736000004,None,,P006,fencog,1,Pre,2021_Jul_14_1101,N-Back (New Version 2021),2021.1.4,119.94866197275073,
,,,,Conditions/Version_1/zeroback(1)_v1.xlsx,Rule: Press 'space' when you see the letter 'x' or 'X'.,x,space,,,,,,,,,0,0,0,0,0,3,3,3,,,,,,,,,,,,,,,,,,,,,,,,,,,,,,,,,,,,,,,,,,,,,,,,,,,,,,,,,,,,,,,,,,,,,1.351,472.14358909998555,None,space,1,472.14358909998555,None,1.3904066000250168,P006,fencog,1,Pre,2021_Jul_14_1101,N-Back (New Version 2021),2021.1.4,119.94866197275073,
,,,,Conditions/Version_1/zeroback(1)_v1.xlsx,Rule: Press 'space' when you see the letter 'x' or 'X'.,o,None,,,,,,,,,0,0,0,0,0,4,4,4,,,,,,,,,,,,,,,,,,,,,,,,,,,,,,,,,,,,,,,,,,,,,,,,,,,,,,,,,,,,,,,,,,,,,1.5556,475.7094801000203,None,None,1,475.7094801000203,None,,P006,fencog,1,Pre,2021_Jul_14_1101,N-Back (New Version 2021),2021.1.4,119.94866197275073,
,,,,Conditions/Version_1/zeroback(1)_v1.xlsx,Rule: Press 'space' when you see the letter 'x' or 'X'.,P,None,,,,,,,,,0,0,0,0,0,5,5,5,,,,,,,,,,,,,,,,,,,,,,,,,,,,,,,,,,,,,,,,,,,,,,,,,,,,,,,,,,,,,,,,,,,,,1.3944,479.11638189997757,None,None,1,479.11638189997757,None,,P006,fencog,1,Pre,2021_Jul_14_1101,N-Back (New Version 2021),2021.1.4,119.94866197275073,
,,,,Conditions/Version_1/zeroback(1)_v1.xlsx,Rule: Press 'space' when you see the letter 'x' or 'X'.,X,space,,,,,,,,,0,0,0,0,0,6,6,6,,,,,,,,,,,,,,,,,,,,,,,,,,,,,,,,,,,,,,,,,,,,,,,,,,,,,,,,,,,,,,,,,,,,,1.289,482.4142017000122,None,space,1,482.4142017000122,None,0.3516947999596596,P006,fencog,1,Pre,2021_Jul_14_1101,N-Back (New Version 2021),2021.1.4,119.94866197275073,
,,,,Conditions/Version_1/zeroback(1)_v1.xlsx,Rule: Press 'space' when you see the letter 'x' or 'X'.,n,None,,,,,,,,,0,0,0,0,0,7,7,7,,,,,,,,,,,,,,,,,,,,,,,,,,,,,,,,,,,,,,,,,,,,,,,,,,,,,,,,,,,,,,,,,,,,,1.4936,485.9244214000064,None,None,1,485.9244214000064,None,,P006,fencog,1,Pre,2021_Jul_14_1101,N-Back (New Version 2021),2021.1.4,119.94866197275073,
,,,,Conditions/Version_1/zeroback(1)_v1.xlsx,Rule: Press 'space' when you see the letter 'x' or 'X'.,M,None,,,,,,,,,0,0,0,0,0,8,8,8,,,,,,,,,,,,,,,,,,,,,,,,,,,,,,,,,,,,,,,,,,,,,,,,,,,,,,,,,,,,,,,,,,,,,1.9462,489.88206440000795,None,None,1,489.88206440000795,None,,P006,fencog,1,Pre,2021_Jul_14_1101,N-Back (New Version 2021),2021.1.4,119.94866197275073,
,,,,Conditions/Version_1/zeroback(1)_v1.xlsx,Rule: Press 'space' when you see the letter 'x' or 'X'.,a,None,,,,,,,,,0,0,0,0,0,9,9,9,,,,,,,,,,,,,,,,,,,,,,,,,,,,,,,,,,,,,,,,,,,,,,,,,,,,,,,,,,,,,,,,,,,,,1.8408,493.73167690000264,None,None,1,493.73167690000264,None,,P006,fencog,1,Pre,2021_Jul_14_1101,N-Back (New Version 2021),2021.1.4,119.94866197275073,
,,,,Conditions/Version_1/zeroback(1)_v1.xlsx,Rule: Press 'space' when you see the letter 'x' or 'X'.,,,,,,,,,,,0,0,0,0,,,,,,,,,,,,,,,,,,,,,,,,,,,,,,,,,,,,,,,,,,,,,,,,,,,,,,,,,,,,,,,,,,,,,,,,,,,,,,,,,P006,fencog,1,Pre,2021_Jul_14_1101,N-Back (New Version 2021),2021.1.4,119.94866197275073,
,,,,Conditions/Version_1/oneback(1)_v1.xlsx,New rule: Press 'space' when you see 1-back (i.e. the same letter as the one that appeared 1 letter ago.),b,None,,,,,,,,,0,1,1,1,0,0,0,0,,,,,,,,,,,,,,,,,,,,,,,,,,,,,,,,,,,,,,,,,,,,,,,,,,,,,,,,,,,495.75636190001387,None,498.7436279000249,None,space,1.742194099992048,498.7436279000249,None,495.75636190001387,None,1.1154,501.61758449999616,None,None,1,501.61758449999616,None,,P006,fencog,1,Pre,2021_Jul_14_1101,N-Back (New Version 2021),2021.1.4,119.94866197275073,
,,,,Conditions/Version_1/oneback(1)_v1.xlsx,New rule: Press 'space' when you see 1-back (i.e. the same letter as the one that appeared 1 letter ago.),p,None,,,,,,,,,0,1,1,1,0,1,1,1,,,,,,,,,,,,,,,,,,,,,,,,,,,,,,,,,,,,,,,,,,,,,,,,,,,,,,,,,,,,,,,,,,,,,1.382,505.0086450999952,None,None,1,505.0086450999952,None,,P006,fencog,1,Pre,2021_Jul_14_1101,N-Back (New Version 2021),2021.1.4,119.94866197275073,
,,,,Conditions/Version_1/oneback(1)_v1.xlsx,New rule: Press 'space' when you see 1-back (i.e. the same letter as the one that appeared 1 letter ago.),M,None,,,,,,,,,0,1,1,1,0,2,2,2,,,,,,,,,,,,,,,,,,,,,,,,,,,,,,,,,,,,,,,,,,,,,,,,,,,,,,,,,,,,,,,,,,,,,1.7168,508.73205980000785,None,None,1,508.73205980000785,None,,P006,fencog,1,Pre,2021_Jul_14_1101,N-Back (New Version 2021),2021.1.4,119.94866197275073,
,,,,Conditions/Version_1/oneback(1)_v1.xlsx,New rule: Press 'space' when you see 1-back (i.e. the same letter as the one that appeared 1 letter ago.),M,space,,,,,,,,,0,1,1,1,0,3,3,3,,,,,,,,,,,,,,,,,,,,,,,,,,,,,,,,,,,,,,,,,,,,,,,,,,,,,,,,,,,,,,,,,,,,,1.4378,512.1792789999745,None,space,1,512.1792789999745,None,0.3306633000029251,P006,fencog,1,Pre,2021_Jul_14_1101,N-Back (New Version 2021),2021.1.4,119.94866197275073,
,,,,Conditions/Version_1/oneback(1)_v1.xlsx,New rule: Press 'space' when you see 1-back (i.e. the same letter as the one that appeared 1 letter ago.),n,None,,,,,,,,,0,1,1,1,0,4,4,4,,,,,,,,,,,,,,,,,,,,,,,,,,,,,,,,,,,,,,,,,,,,,,,,,,,,,,,,,,,,,,,,,,,,,1.2208,515.4044302999973,None,None,1,515.4044302999973,None,,P006,fencog,1,Pre,2021_Jul_14_1101,N-Back (New Version 2021),2021.1.4,119.94866197275073,
,,,,Conditions/Version_1/oneback(1)_v1.xlsx,New rule: Press 'space' when you see 1-back (i.e. the same letter as the one that appeared 1 letter ago.),g,None,,,,,,,,,0,1,1,1,0,5,5,5,,,,,,,,,,,,,,,,,,,,,,,,,,,,,,,,,,,,,,,,,,,,,,,,,,,,,,,,,,,,,,,,,,,,,1.5122,518.9293621999677,None,None,1,518.9293621999677,None,,P006,fencog,1,Pre,2021_Jul_14_1101,N-Back (New Version 2021),2021.1.4,119.94866197275073,
,,,,Conditions/Version_1/oneback(1)_v1.xlsx,New rule: Press 'space' when you see 1-back (i.e. the same letter as the one that appeared 1 letter ago.),P,None,,,,,,,,,0,1,1,1,0,6,6,6,,,,,,,,,,,,,,,,,,,,,,,,,,,,,,,,,,,,,,,,,,,,,,,,,,,,,,,,,,,,,,,,,,,,,1.0224,521.9601278000046,None,None,1,521.9601278000046,None,,P006,fencog,1,Pre,2021_Jul_14_1101,N-Back (New Version 2021),2021.1.4,119.94866197275073,
,,,,Conditions/Version_1/oneback(1)_v1.xlsx,New rule: Press 'space' when you see 1-back (i.e. the same letter as the one that appeared 1 letter ago.),o,None,,,,,,,,,0,1,1,1,0,7,7,7,,,,,,,,,,,,,,,,,,,,,,,,,,,,,,,,,,,,,,,,,,,,,,,,,,,,,,,,,,,,,,,,,,,,,1.2022,525.1752939000144,None,None,1,525.1752939000144,None,,P006,fencog,1,Pre,2021_Jul_14_1101,N-Back (New Version 2021),2021.1.4,119.94866197275073,
,,,,Conditions/Version_1/oneback(1)_v1.xlsx,New rule: Press 'space' when you see 1-back (i.e. the same letter as the one that appeared 1 letter ago.),f,None,,,,,,,,,0,1,1,1,0,8,8,8,,,,,,,,,,,,,,,,,,,,,,,,,,,,,,,,,,,,,,,,,,,,,,,,,,,,,,,,,,,,,,,,,,,,,1.2518,528.4332065000199,None,None,1,528.4332065000199,None,,P006,fencog,1,Pre,2021_Jul_14_1101,N-Back (New Version 2021),2021.1.4,119.94866197275073,
,,,,Conditions/Version_1/oneback(1)_v1.xlsx,New rule: Press 'space' when you see 1-back (i.e. the same letter as the one that appeared 1 letter ago.),F,space,,,,,,,,,0,1,1,1,0,9,9,9,,,,,,,,,,,,,,,,,,,,,,,,,,,,,,,,,,,,,,,,,,,,,,,,,,,,,,,,,,,,,,,,,,,,,1.7292,532.1742907000007,None,space,1,532.1742907000007,None,1.959656399965752,P006,fencog,1,Pre,2021_Jul_14_1101,N-Back (New Version 2021),2021.1.4,119.94866197275073,
,,,,Conditions/Version_1/oneback(1)_v1.xlsx,New rule: Press 'space' when you see 1-back (i.e. the same letter as the one that appeared 1 letter ago.),,,,,,,,,,,0,1,1,1,,,,,,,,,,,,,,,,,,,,,,,,,,,,,,,,,,,,,,,,,,,,,,,,,,,,,,,,,,,,,,,,,,,,,,,,,,,,,,,,,P006,fencog,1,Pre,2021_Jul_14_1101,N-Back (New Version 2021),2021.1.4,119.94866197275073,
,,,,Conditions/Version_1/twoback(1)_v1.xlsx,New rule: Press 'space' when you see 2-back (i.e. the same letter as the one that appeared 2 letters ago.),b,None,,,,,,,,,0,2,2,2,0,0,0,0,,,,,,,,,,,,,,,,,,,,,,,,,,,,,,,,,,,,,,,,,,,,,,,,,,,,,,,,,,,534.2007636000053,None,537.1918848999776,None,space,2.053758399968501,537.1918848999776,None,534.2007636000053,None,1.0596,540.3296353999758,None,None,1,540.3296353999758,None,,P006,fencog,1,Pre,2021_Jul_14_1101,N-Back (New Version 2021),2021.1.4,119.94866197275073,
,,,,Conditions/Version_1/twoback(1)_v1.xlsx,New rule: Press 'space' when you see 2-back (i.e. the same letter as the one that appeared 2 letters ago.),h,None,,,,,,,,,0,2,2,2,0,1,1,1,,,,,,,,,,,,,,,,,,,,,,,,,,,,,,,,,,,,,,,,,,,,,,,,,,,,,,,,,,,,,,,,,,,,,1.258,543.5962375000236,None,None,1,543.5962375000236,None,,P006,fencog,1,Pre,2021_Jul_14_1101,N-Back (New Version 2021),2021.1.4,119.94866197275073,
,,,,Conditions/Version_1/twoback(1)_v1.xlsx,New rule: Press 'space' when you see 2-back (i.e. the same letter as the one that appeared 2 letters ago.),j,None,,,,,,,,,0,2,2,2,0,2,2,2,,,,,,,,,,,,,,,,,,,,,,,,,,,,,,,,,,,,,,,,,,,,,,,,,,,,,,,,,,,,,,,,,,,,,1.289,546.8954779999913,None,None,1,546.8954779999913,None,,P006,fencog,1,Pre,2021_Jul_14_1101,N-Back (New Version 2021),2021.1.4,119.94866197275073,
,,,,Conditions/Version_1/twoback(1)_v1.xlsx,New rule: Press 'space' when you see 2-back (i.e. the same letter as the one that appeared 2 letters ago.),H,space,,,,,,,,,0,2,2,2,0,3,3,3,,,,,,,,,,,,,,,,,,,,,,,,,,,,,,,,,,,,,,,,,,,,,,,,,,,,,,,,,,,,,,,,,,,,,1.3386,550.246867400012,None,space,1,550.246867400012,None,0.6472720000310801,P006,fencog,1,Pre,2021_Jul_14_1101,N-Back (New Version 2021),2021.1.4,119.94866197275073,
,,,,Conditions/Version_1/twoback(1)_v1.xlsx,New rule: Press 'space' when you see 2-back (i.e. the same letter as the one that appeared 2 letters ago.),p,None,,,,,,,,,0,2,2,2,0,4,4,4,,,,,,,,,,,,,,,,,,,,,,,,,,,,,,,,,,,,,,,,,,,,,,,,,,,,,,,,,,,,,,,,,,,,,1.1464,553.4003712999984,None,None,1,553.4003712999984,None,,P006,fencog,1,Pre,2021_Jul_14_1101,N-Back (New Version 2021),2021.1.4,119.94866197275073,
,,,,Conditions/Version_1/twoback(1)_v1.xlsx,New rule: Press 'space' when you see 2-back (i.e. the same letter as the one that appeared 2 letters ago.),p,None,,,,,,,,,0,2,2,2,0,5,5,5,,,,,,,,,,,,,,,,,,,,,,,,,,,,,,,,,,,,,,,,,,,,,,,,,,,,,,,,,,,,,,,,,,,,,1.1278,556.5327971000224,None,space,0,556.5327971000224,None,0.6737674999749288,P006,fencog,1,Pre,2021_Jul_14_1101,N-Back (New Version 2021),2021.1.4,119.94866197275073,
,,,,Conditions/Version_1/twoback(1)_v1.xlsx,New rule: Press 'space' when you see 2-back (i.e. the same letter as the one that appeared 2 letters ago.),w,None,,,,,,,,,0,2,2,2,0,6,6,6,,,,,,,,,,,,,,,,,,,,,,,,,,,,,,,,,,,,,,,,,,,,,,,,,,,,,,,,,,,,,,,,,,,,,1.4316,559.9693392000045,None,None,1,559.9693392000045,None,,P006,fencog,1,Pre,2021_Jul_14_1101,N-Back (New Version 2021),2021.1.4,119.94866197275073,
,,,,Conditions/Version_1/twoback(1)_v1.xlsx,New rule: Press 'space' when you see 2-back (i.e. the same letter as the one that appeared 2 letters ago.),R,None,,,,,,,,,0,2,2,2,0,7,7,7,,,,,,,,,,,,,,,,,,,,,,,,,,,,,,,,,,,,,,,,,,,,,,,,,,,,,,,,,,,,,,,,,,,,,1.2022,563.1817217000062,None,None,1,563.1817217000062,None,,P006,fencog,1,Pre,2021_Jul_14_1101,N-Back (New Version 2021),2021.1.4,119.94866197275073,
,,,,Conditions/Version_1/twoback(1)_v1.xlsx,New rule: Press 'space' when you see 2-back (i.e. the same letter as the one that appeared 2 letters ago.),a,None,,,,,,,,,0,2,2,2,0,8,8,8,,,,,,,,,,,,,,,,,,,,,,,,,,,,,,,,,,,,,,,,,,,,,,,,,,,,,,,,,,,,,,,,,,,,,1.8284,567.0217490000068,None,None,1,567.0217490000068,None,,P006,fencog,1,Pre,2021_Jul_14_1101,N-Back (New Version 2021),2021.1.4,119.94866197275073,
,,,,Conditions/Version_1/twoback(1)_v1.xlsx,New rule: Press 'space' when you see 2-back (i.e. the same letter as the one that appeared 2 letters ago.),r,space,,,,,,,,,0,2,2,2,0,9,9,9,,,,,,,,,,,,,,,,,,,,,,,,,,,,,,,,,,,,,,,,,,,,,,,,,,,,,,,,,,,,,,,,,,,,,1.2518,570.2881798999733,None,space,1,570.2881798999733,None,0.33379970001988113,P006,fencog,1,Pre,2021_Jul_14_1101,N-Back (New Version 2021),2021.1.4,119.94866197275073,
,,,,Conditions/Version_1/twoback(1)_v1.xlsx,New rule: Press 'space' when you see 2-back (i.e. the same letter as the one that appeared 2 letters ago.),,,,,,,,,,,0,2,2,2,,,,,,,,,,,,,,,,,,,,,,,,,,,,,,,,,,,,,,,,,,,,,,,,,,,,,,,,,,,,,,,,,,,,,,,,,,,,,,,,,P006,fencog,1,Pre,2021_Jul_14_1101,N-Back (New Version 2021),2021.1.4,119.94866197275073,
,,,,Conditions/Version_1/threeback(1)_v1.xlsx,New rule: Press 'space' when you see 3-back (i.e. the same letter as the one that appeared 3 letters ago.),r,None,,,,,,,,,0,3,3,3,0,0,0,0,,,,,,,,,,,,,,,,,,,,,,,,,,,,,,,,,,,,,,,,,,,,,,,,,,,,,,,,,,,572.3151272999821,None,575.2966567999683,None,space,1.3331862000050023,575.2966567999683,None,572.3151272999821,None,1.6362,578.2848466999712,None,None,1,578.2848466999712,None,,P006,fencog,1,Pre,2021_Jul_14_1101,N-Back (New Version 2021),2021.1.4,119.94866197275073,
,,,,Conditions/Version_1/threeback(1)_v1.xlsx,New rule: Press 'space' when you see 3-back (i.e. the same letter as the one that appeared 3 letters ago.),o,None,,,,,,,,,0,3,3,3,0,1,1,1,,,,,,,,,,,,,,,,,,,,,,,,,,,,,,,,,,,,,,,,,,,,,,,,,,,,,,,,,,,,,,,,,,,,,1.816,582.101818199968,None,None,1,582.101818199968,None,,P006,fencog,1,Pre,2021_Jul_14_1101,N-Back (New Version 2021),2021.1.4,119.94866197275073,
,,,,Conditions/Version_1/threeback(1)_v1.xlsx,New rule: Press 'space' when you see 3-back (i.e. the same letter as the one that appeared 3 letters ago.),P,None,,,,,,,,,0,3,3,3,0,2,2,2,,,,,,,,,,,,,,,,,,,,,,,,,,,,,,,,,,,,,,,,,,,,,,,,,,,,,,,,,,,,,,,,,,,,,1.4068,585.5167786999955,None,None,1,585.5167786999955,None,,P006,fencog,1,Pre,2021_Jul_14_1101,N-Back (New Version 2021),2021.1.4,119.94866197275073,
,,,,Conditions/Version_1/threeback(1)_v1.xlsx,New rule: Press 'space' when you see 3-back (i.e. the same letter as the one that appeared 3 letters ago.),R,space,,,,,,,,,0,3,3,3,0,3,3,3,,,,,,,,,,,,,,,,,,,,,,,,,,,,,,,,,,,,,,,,,,,,,,,,,,,,,,,,,,,,,,,,,,,,,1.6672,589.1999271999812,None,space,1,589.1999271999812,None,0.39784480002708733,P006,fencog,1,Pre,2021_Jul_14_1101,N-Back (New Version 2021),2021.1.4,119.94866197275073,
,,,,Conditions/Version_1/threeback(1)_v1.xlsx,New rule: Press 'space' when you see 3-back (i.e. the same letter as the one that appeared 3 letters ago.),p,None,,,,,,,,,0,3,3,3,0,4,4,4,,,,,,,,,,,,,,,,,,,,,,,,,,,,,,,,,,,,,,,,,,,,,,,,,,,,,,,,,,,,,,,,,,,,,1.072,592.2851730000111,None,space,0,592.2851730000111,None,1.2166195000172593,P006,fencog,1,Pre,2021_Jul_14_1101,N-Back (New Version 2021),2021.1.4,119.94866197275073,
,,,,Conditions/Version_1/threeback(1)_v1.xlsx,New rule: Press 'space' when you see 3-back (i.e. the same letter as the one that appeared 3 letters ago.),E,None,,,,,,,,,0,3,3,3,0,5,5,5,,,,,,,,,,,,,,,,,,,,,,,,,,,,,,,,,,,,,,,,,,,,,,,,,,,,,,,,,,,,,,,,,,,,,1.0534,595.3433355999878,None,None,1,595.3433355999878,None,,P006,fencog,1,Pre,2021_Jul_14_1101,N-Back (New Version 2021),2021.1.4,119.94866197275073,
,,,,Conditions/Version_1/threeback(1)_v1.xlsx,New rule: Press 'space' when you see 3-back (i.e. the same letter as the one that appeared 3 letters ago.),e,None,,,,,,,,,0,3,3,3,0,6,6,6,,,,,,,,,,,,,,,,,,,,,,,,,,,,,,,,,,,,,,,,,,,,,,,,,,,,,,,,,,,,,,,,,,,,,1.3696,598.7224765999708,None,None,1,598.7224765999708,None,,P006,fencog,1,Pre,2021_Jul_14_1101,N-Back (New Version 2021),2021.1.4,119.94866197275073,
,,,,Conditions/Version_1/threeback(1)_v1.xlsx,New rule: Press 'space' when you see 3-back (i.e. the same letter as the one that appeared 3 letters ago.),m,None,,,,,,,,,0,3,3,3,0,7,7,7,,,,,,,,,,,,,,,,,,,,,,,,,,,,,,,,,,,,,,,,,,,,,,,,,,,,,,,,,,,,,,,,,,,,,1.1092,601.8471959999879,None,None,1,601.8471959999879,None,,P006,fencog,1,Pre,2021_Jul_14_1101,N-Back (New Version 2021),2021.1.4,119.94866197275073,
,,,,Conditions/Version_1/threeback(1)_v1.xlsx,New rule: Press 'space' when you see 3-back (i.e. the same letter as the one that appeared 3 letters ago.),n,None,,,,,,,,,0,3,3,3,0,8,8,8,,,,,,,,,,,,,,,,,,,,,,,,,,,,,,,,,,,,,,,,,,,,,,,,,,,,,,,,,,,,,,,,,,,,,1.6114,605.4689109000028,None,None,1,605.4689109000028,None,,P006,fencog,1,Pre,2021_Jul_14_1101,N-Back (New Version 2021),2021.1.4,119.94866197275073,
,,,,Conditions/Version_1/threeback(1)_v1.xlsx,New rule: Press 'space' when you see 3-back (i.e. the same letter as the one that appeared 3 letters ago.),e,space,,,,,,,,,0,3,3,3,0,9,9,9,,,,,,,,,,,,,,,,,,,,,,,,,,,,,,,,,,,,,,,,,,,,,,,,,,,,,,,,,,,,,,,,,,,,,1.6176,609.1013821000233,None,space,1,609.1013821000233,None,0.6563382999738678,P006,fencog,1,Pre,2021_Jul_14_1101,N-Back (New Version 2021),2021.1.4,119.94866197275073,
,,,,Conditions/Version_1/threeback(1)_v1.xlsx,New rule: Press 'space' when you see 3-back (i.e. the same letter as the one that appeared 3 letters ago.),,,,,,,,,,,0,3,3,3,,,,,,,,,,,,,,,,,,,,,,,,,,,,,,,,,,,,,,,,,,,,,,,,,,,,,,,,,,,,,,,,,,,,,,,,,,,,,,,,,P006,fencog,1,Pre,2021_Jul_14_1101,N-Back (New Version 2021),2021.1.4,119.94866197275073,
,,,,Conditions/Version_1/oneback(2)_v1.xlsx,New rule: Press 'space' when you see 1-back (i.e. the same letter as the one that appeared 1 letter ago.),q,None,,,,,,,,,0,4,4,4,0,0,0,0,,,,,,,,,,,,,,,,,,,,,,,,,,,,,,,,,,,,,,,,,,,,,,,,,,,,,,,,,,,611.132354100002,None,614.1108806999982,None,space,3.623020800005179,614.1108806999982,None,611.132354100002,None,1.2828,619.0471036999952,None,None,1,619.0471036999952,None,,P006,fencog,1,Pre,2021_Jul_14_1101,N-Back (New Version 2021),2021.1.4,119.94866197275073,
,,,,Conditions/Version_1/oneback(2)_v1.xlsx,New rule: Press 'space' when you see 1-back (i.e. the same letter as the one that appeared 1 letter ago.),Q,space,,,,,,,,,0,4,4,4,0,1,1,1,,,,,,,,,,,,,,,,,,,,,,,,,,,,,,,,,,,,,,,,,,,,,,,,,,,,,,,,,,,,,,,,,,,,,1.01,622.0659365999745,None,None,0,622.0659365999745,None,,P006,fencog,1,Pre,2021_Jul_14_1101,N-Back (New Version 2021),2021.1.4,119.94866197275073,
,,,,Conditions/Version_1/oneback(2)_v1.xlsx,New rule: Press 'space' when you see 1-back (i.e. the same letter as the one that appeared 1 letter ago.),P,None,,,,,,,,,0,4,4,4,0,2,2,2,,,,,,,,,,,,,,,,,,,,,,,,,,,,,,,,,,,,,,,,,,,,,,,,,,,,,,,,,,,,,,,,,,,,,1.7354,625.8065294999979,None,None,1,625.8065294999979,None,,P006,fencog,1,Pre,2021_Jul_14_1101,N-Back (New Version 2021),2021.1.4,119.94866197275073,
,,,,Conditions/Version_1/oneback(2)_v1.xlsx,New rule: Press 'space' when you see 1-back (i.e. the same letter as the one that appeared 1 letter ago.),o,None,,,,,,,,,0,4,4,4,0,3,3,3,,,,,,,,,,,,,,,,,,,,,,,,,,,,,,,,,,,,,,,,,,,,,,,,,,,,,,,,,,,,,,,,,,,,,1.382,629.195547899988,None,None,1,629.195547899988,None,,P006,fencog,1,Pre,2021_Jul_14_1101,N-Back (New Version 2021),2021.1.4,119.94866197275073,
,,,,Conditions/Version_1/oneback(2)_v1.xlsx,New rule: Press 'space' when you see 1-back (i.e. the same letter as the one that appeared 1 letter ago.),m,None,,,,,,,,,0,4,4,4,0,4,4,4,,,,,,,,,,,,,,,,,,,,,,,,,,,,,,,,,,,,,,,,,,,,,,,,,,,,,,,,,,,,,,,,,,,,,1.5246,632.7277904999792,None,None,1,632.7277904999792,None,,P006,fencog,1,Pre,2021_Jul_14_1101,N-Back (New Version 2021),2021.1.4,119.94866197275073,
,,,,Conditions/Version_1/oneback(2)_v1.xlsx,New rule: Press 'space' when you see 1-back (i.e. the same letter as the one that appeared 1 letter ago.),Z,None,,,,,,,,,0,4,4,4,0,5,5,5,,,,,,,,,,,,,,,,,,,,,,,,,,,,,,,,,,,,,,,,,,,,,,,,,,,,,,,,,,,,,,,,,,,,,1.94,636.6858539999812,None,None,1,636.6858539999812,None,,P006,fencog,1,Pre,2021_Jul_14_1101,N-Back (New Version 2021),2021.1.4,119.94866197275073,
,,,,Conditions/Version_1/oneback(2)_v1.xlsx,New rule: Press 'space' when you see 1-back (i.e. the same letter as the one that appeared 1 letter ago.),c,None,,,,,,,,,0,4,4,4,0,6,6,6,,,,,,,,,,,,,,,,,,,,,,,,,,,,,,,,,,,,,,,,,,,,,,,,,,,,,,,,,,,,,,,,,,,,,1.8098,640.5076522000018,None,None,1,640.5076522000018,None,,P006,fencog,1,Pre,2021_Jul_14_1101,N-Back (New Version 2021),2021.1.4,119.94866197275073,
,,,,Conditions/Version_1/oneback(2)_v1.xlsx,New rule: Press 'space' when you see 1-back (i.e. the same letter as the one that appeared 1 letter ago.),c,space,,,,,,,,,0,4,4,4,0,7,7,7,,,,,,,,,,,,,,,,,,,,,,,,,,,,,,,,,,,,,,,,,,,,,,,,,,,,,,,,,,,,,,,,,,,,,1.0596,643.5747776000062,None,space,1,643.5747776000062,None,0.5349333999911323,P006,fencog,1,Pre,2021_Jul_14_1101,N-Back (New Version 2021),2021.1.4,119.94866197275073,
,,,,Conditions/Version_1/oneback(2)_v1.xlsx,New rule: Press 'space' when you see 1-back (i.e. the same letter as the one that appeared 1 letter ago.),P,None,,,,,,,,,0,4,4,4,0,8,8,8,,,,,,,,,,,,,,,,,,,,,,,,,,,,,,,,,,,,,,,,,,,,,,,,,,,,,,,,,,,,,,,,,,,,,1.4254,647.0060243000044,None,None,1,647.0060243000044,None,,P006,fencog,1,Pre,2021_Jul_14_1101,N-Back (New Version 2021),2021.1.4,119.94866197275073,
,,,,Conditions/Version_1/oneback(2)_v1.xlsx,New rule: Press 'space' when you see 1-back (i.e. the same letter as the one that appeared 1 letter ago.),p,space,,,,,,,,,0,4,4,4,0,9,9,9,,,,,,,,,,,,,,,,,,,,,,,,,,,,,,,,,,,,,,,,,,,,,,,,,,,,,,,,,,,,,,,,,,,,,1.1402,650.1466564000002,None,space,1,650.1466564000002,None,0.3710212000296451,P006,fencog,1,Pre,2021_Jul_14_1101,N-Back (New Version 2021),2021.1.4,119.94866197275073,
,,,,Conditions/Version_1/oneback(2)_v1.xlsx,New rule: Press 'space' when you see 1-back (i.e. the same letter as the one that appeared 1 letter ago.),,,,,,,,,,,0,4,4,4,,,,,,,,,,,,,,,,,,,,,,,,,,,,,,,,,,,,,,,,,,,,,,,,,,,,,,,,,,,,,,,,,,,,,,,,,,,,,,,,,P006,fencog,1,Pre,2021_Jul_14_1101,N-Back (New Version 2021),2021.1.4,119.94866197275073,
,,,,Conditions/Version_1/zeroback(2)_v1.xlsx,New rule: Press 'space' when you see the letter 'x' or 'X'.,p,None,,,,,,,,,0,5,5,5,0,0,0,0,,,,,,,,,,,,,,,,,,,,,,,,,,,,,,,,,,,,,,,,,,,,,,,,,,,,,,,,,,,652.1646931999712,None,655.1472895999905,None,space,0.4104107999592088,655.1472895999905,None,652.1646931999712,None,1.1898,656.7698412999744,None,None,1,656.7698412999744,None,,P006,fencog,1,Pre,2021_Jul_14_1101,N-Back (New Version 2021),2021.1.4,119.94866197275073,
,,,,Conditions/Version_1/zeroback(2)_v1.xlsx,New rule: Press 'space' when you see the letter 'x' or 'X'.,L,None,,,,,,,,,0,5,5,5,0,1,1,1,,,,,,,,,,,,,,,,,,,,,,,,,,,,,,,,,,,,,,,,,,,,,,,,,,,,,,,,,,,,,,,,,,,,,1.7478,660.5211346999859,None,None,1,660.5211346999859,None,,P006,fencog,1,Pre,2021_Jul_14_1101,N-Back (New Version 2021),2021.1.4,119.94866197275073,
,,,,Conditions/Version_1/zeroback(2)_v1.xlsx,New rule: Press 'space' when you see the letter 'x' or 'X'.,G,None,,,,,,,,,0,5,5,5,0,2,2,2,,,,,,,,,,,,,,,,,,,,,,,,,,,,,,,,,,,,,,,,,,,,,,,,,,,,,,,,,,,,,,,,,,,,,1.1402,663.6699087999878,None,None,1,663.6699087999878,None,,P006,fencog,1,Pre,2021_Jul_14_1101,N-Back (New Version 2021),2021.1.4,119.94866197275073,
,,,,Conditions/Version_1/zeroback(2)_v1.xlsx,New rule: Press 'space' when you see the letter 'x' or 'X'.,y,None,,,,,,,,,0,5,5,5,0,3,3,3,,,,,,,,,,,,,,,,,,,,,,,,,,,,,,,,,,,,,,,,,,,,,,,,,,,,,,,,,,,,,,,,,,,,,1.9772,667.6582196999807,None,None,1,667.6582196999807,None,,P006,fencog,1,Pre,2021_Jul_14_1101,N-Back (New Version 2021),2021.1.4,119.94866197275073,
,,,,Conditions/Version_1/zeroback(2)_v1.xlsx,New rule: Press 'space' when you see the letter 'x' or 'X'.,Y,None,,,,,,,,,0,5,5,5,0,4,4,4,,,,,,,,,,,,,,,,,,,,,,,,,,,,,,,,,,,,,,,,,,,,,,,,,,,,,,,,,,,,,,,,,,,,,1.3758,671.0421231000219,None,None,1,671.0421231000219,None,,P006,fencog,1,Pre,2021_Jul_14_1101,N-Back (New Version 2021),2021.1.4,119.94866197275073,
,,,,Conditions/Version_1/zeroback(2)_v1.xlsx,New rule: Press 'space' when you see the letter 'x' or 'X'.,W,None,,,,,,,,,0,5,5,5,0,5,5,5,,,,,,,,,,,,,,,,,,,,,,,,,,,,,,,,,,,,,,,,,,,,,,,,,,,,,,,,,,,,,,,,,,,,,1.8036,674.8606404999737,None,None,1,674.8606404999737,None,,P006,fencog,1,Pre,2021_Jul_14_1101,N-Back (New Version 2021),2021.1.4,119.94866197275073,
,,,,Conditions/Version_1/zeroback(2)_v1.xlsx,New rule: Press 'space' when you see the letter 'x' or 'X'.,x,space,,,,,,,,,0,5,5,5,0,6,6,6,,,,,,,,,,,,,,,,,,,,,,,,,,,,,,,,,,,,,,,,,,,,,,,,,,,,,,,,,,,,,,,,,,,,,1.2084,678.071878799994,None,space,1,678.071878799994,None,0.38204990001395345,P006,fencog,1,Pre,2021_Jul_14_1101,N-Back (New Version 2021),2021.1.4,119.94866197275073,
,,,,Conditions/Version_1/zeroback(2)_v1.xlsx,New rule: Press 'space' when you see the letter 'x' or 'X'.,X,space,,,,,,,,,0,5,5,5,0,7,7,7,,,,,,,,,,,,,,,,,,,,,,,,,,,,,,,,,,,,,,,,,,,,,,,,,,,,,,,,,,,,,,,,,,,,,1.7106,681.7887944999966,None,space,1,681.7887944999966,None,1.2169746999861673,P006,fencog,1,Pre,2021_Jul_14_1101,N-Back (New Version 2021),2021.1.4,119.94866197275073,
,,,,Conditions/Version_1/zeroback(2)_v1.xlsx,New rule: Press 'space' when you see the letter 'x' or 'X'.,p,None,,,,,,,,,0,5,5,5,0,8,8,8,,,,,,,,,,,,,,,,,,,,,,,,,,,,,,,,,,,,,,,,,,,,,,,,,,,,,,,,,,,,,,,,,,,,,1.2518,685.0529856000212,None,None,1,685.0529856000212,None,,P006,fencog,1,Pre,2021_Jul_14_1101,N-Back (New Version 2021),2021.1.4,119.94866197275073,
,,,,Conditions/Version_1/zeroback(2)_v1.xlsx,New rule: Press 'space' when you see the letter 'x' or 'X'.,h,None,,,,,,,,,0,5,5,5,0,9,9,9,,,,,,,,,,,,,,,,,,,,,,,,,,,,,,,,,,,,,,,,,,,,,,,,,,,,,,,,,,,,,,,,,,,,,1.5246,688.5774537000107,None,None,1,688.5774537000107,None,,P006,fencog,1,Pre,2021_Jul_14_1101,N-Back (New Version 2021),2021.1.4,119.94866197275073,
,,,,Conditions/Version_1/zeroback(2)_v1.xlsx,New rule: Press 'space' when you see the letter 'x' or 'X'.,,,,,,,,,,,0,5,5,5,,,,,,,,,,,,,,,,,,,,,,,,,,,,,,,,,,,,,,,,,,,,,,,,,,,,,,,,,,,,,,,,,,,,,,,,,,,,,,,,,P006,fencog,1,Pre,2021_Jul_14_1101,N-Back (New Version 2021),2021.1.4,119.94866197275073,
,,,,Conditions/Version_1/threeback(2)_v1.xlsx,New rule: Press 'space' when you see 3-back (i.e. the same letter as the one that appeared 3 letters ago.),q,None,,,,,,,,,0,6,6,6,0,0,0,0,,,,,,,,,,,,,,,,,,,,,,,,,,,,,,,,,,,,,,,,,,,,,,,,,,,,,,,,,,,690.6034360000049,None,693.5860183999757,None,space,4.0676704999641515,693.5860183999757,None,690.6034360000049,None,1.413,699.0845400000107,None,None,1,699.0845400000107,None,,P006,fencog,1,Pre,2021_Jul_14_1101,N-Back (New Version 2021),2021.1.4,119.94866197275073,
,,,,Conditions/Version_1/threeback(2)_v1.xlsx,New rule: Press 'space' when you see 3-back (i.e. the same letter as the one that appeared 3 letters ago.),Y,None,,,,,,,,,0,6,6,6,0,1,1,1,,,,,,,,,,,,,,,,,,,,,,,,,,,,,,,,,,,,,,,,,,,,,,,,,,,,,,,,,,,,,,,,,,,,,1.9524,703.0493195999879,None,None,1,703.0493195999879,None,,P006,fencog,1,Pre,2021_Jul_14_1101,N-Back (New Version 2021),2021.1.4,119.94866197275073,
,,,,Conditions/Version_1/threeback(2)_v1.xlsx,New rule: Press 'space' when you see 3-back (i.e. the same letter as the one that appeared 3 letters ago.),p,None,,,,,,,,,0,6,6,6,0,2,2,2,,,,,,,,,,,,,,,,,,,,,,,,,,,,,,,,,,,,,,,,,,,,,,,,,,,,,,,,,,,,,,,,,,,,,1.4254,706.4831620000186,None,None,1,706.4831620000186,None,,P006,fencog,1,Pre,2021_Jul_14_1101,N-Back (New Version 2021),2021.1.4,119.94866197275073,
,,,,Conditions/Version_1/threeback(2)_v1.xlsx,New rule: Press 'space' when you see 3-back (i.e. the same letter as the one that appeared 3 letters ago.),p,None,,,,,,,,,0,6,6,6,0,3,3,3,,,,,,,,,,,,,,,,,,,,,,,,,,,,,,,,,,,,,,,,,,,,,,,,,,,,,,,,,,,,,,,,,,,,,1.2084,709.6957307999837,None,None,1,709.6957307999837,None,,P006,fencog,1,Pre,2021_Jul_14_1101,N-Back (New Version 2021),2021.1.4,119.94866197275073,
,,,,Conditions/Version_1/threeback(2)_v1.xlsx,New rule: Press 'space' when you see 3-back (i.e. the same letter as the one that appeared 3 letters ago.),y,space,,,,,,,,,0,6,6,6,0,4,4,4,,,,,,,,,,,,,,,,,,,,,,,,,,,,,,,,,,,,,,,,,,,,,,,,,,,,,,,,,,,,,,,,,,,,,1.165,712.862796499976,None,space,1,712.862796499976,None,0.9430447000195272,P006,fencog,1,Pre,2021_Jul_14_1101,N-Back (New Version 2021),2021.1.4,119.94866197275073,
,,,,Conditions/Version_1/threeback(2)_v1.xlsx,New rule: Press 'space' when you see 3-back (i.e. the same letter as the one that appeared 3 letters ago.),u,None,,,,,,,,,0,6,6,6,0,5,5,5,,,,,,,,,,,,,,,,,,,,,,,,,,,,,,,,,,,,,,,,,,,,,,,,,,,,,,,,,,,,,,,,,,,,,1.1774,716.0547753999708,None,None,1,716.0547753999708,None,,P006,fencog,1,Pre,2021_Jul_14_1101,N-Back (New Version 2021),2021.1.4,119.94866197275073,
,,,,Conditions/Version_1/threeback(2)_v1.xlsx,New rule: Press 'space' when you see 3-back (i.e. the same letter as the one that appeared 3 letters ago.),P,space,,,,,,,,,0,6,6,6,0,6,6,6,,,,,,,,,,,,,,,,,,,,,,,,,,,,,,,,,,,,,,,,,,,,,,,,,,,,,,,,,,,,,,,,,,,,,1.9958,720.0631180999917,None,None,0,720.0631180999917,None,,P006,fencog,1,Pre,2021_Jul_14_1101,N-Back (New Version 2021),2021.1.4,119.94866197275073,
,,,,Conditions/Version_1/threeback(2)_v1.xlsx,New rule: Press 'space' when you see 3-back (i.e. the same letter as the one that appeared 3 letters ago.),a,None,,,,,,,,,0,6,6,6,0,7,7,7,,,,,,,,,,,,,,,,,,,,,,,,,,,,,,,,,,,,,,,,,,,,,,,,,,,,,,,,,,,,,,,,,,,,,1.8346,723.9129722000216,None,None,1,723.9129722000216,None,,P006,fencog,1,Pre,2021_Jul_14_1101,N-Back (New Version 2021),2021.1.4,119.94866197275073,
,,,,Conditions/Version_1/threeback(2)_v1.xlsx,New rule: Press 'space' when you see 3-back (i.e. the same letter as the one that appeared 3 letters ago.),U,space,,,,,,,,,0,6,6,6,0,8,8,8,,,,,,,,,,,,,,,,,,,,,,,,,,,,,,,,,,,,,,,,,,,,,,,,,,,,,,,,,,,,,,,,,,,,,1.6672,727.5949860999826,None,None,0,727.5949860999826,None,,P006,fencog,1,Pre,2021_Jul_14_1101,N-Back (New Version 2021),2021.1.4,119.94866197275073,
,,,,Conditions/Version_1/threeback(2)_v1.xlsx,New rule: Press 'space' when you see 3-back (i.e. the same letter as the one that appeared 3 letters ago.),q,None,,,,,,,,,0,6,6,6,0,9,9,9,,,,,,,,,,,,,,,,,,,,,,,,,,,,,,,,,,,,,,,,,,,,,,,,,,,,,,,,,,,,,,,,,,,,,1.661,731.2648598999949,None,None,1,731.2648598999949,None,,P006,fencog,1,Pre,2021_Jul_14_1101,N-Back (New Version 2021),2021.1.4,119.94866197275073,
,,,,Conditions/Version_1/threeback(2)_v1.xlsx,New rule: Press 'space' when you see 3-back (i.e. the same letter as the one that appeared 3 letters ago.),,,,,,,,,,,0,6,6,6,,,,,,,,,,,,,,,,,,,,,,,,,,,,,,,,,,,,,,,,,,,,,,,,,,,,,,,,,,,,,,,,,,,,,,,,,,,,,,,,,P006,fencog,1,Pre,2021_Jul_14_1101,N-Back (New Version 2021),2021.1.4,119.94866197275073,
,,,,Conditions/Version_1/twoback(2)_v1.xlsx,New rule: Press 'space' when you see 2-back (i.e. the same letter as the one that appeared 2 letters ago.),q,None,,,,,,,,,0,7,7,7,0,0,0,0,,,,,,,,,,,,,,,,,,,,,,,,,,,,,,,,,,,,,,,,,,,,,,,,,,,,,,,,,,,733.2969323999714,None,736.2812632999849,None,space,0.5881407999549992,736.2812632999849,None,733.2969323999714,None,1.6052,738.4956064000144,None,None,1,738.4956064000144,None,,P006,fencog,1,Pre,2021_Jul_14_1101,N-Back (New Version 2021),2021.1.4,119.94866197275073,
,,,,Conditions/Version_1/twoback(2)_v1.xlsx,New rule: Press 'space' when you see 2-back (i.e. the same letter as the one that appeared 2 letters ago.),r,None,,,,,,,,,0,7,7,7,0,1,1,1,,,,,,,,,,,,,,,,,,,,,,,,,,,,,,,,,,,,,,,,,,,,,,,,,,,,,,,,,,,,,,,,,,,,,1.5928,742.1033444000059,None,None,1,742.1033444000059,None,,P006,fencog,1,Pre,2021_Jul_14_1101,N-Back (New Version 2021),2021.1.4,119.94866197275073,
,,,,Conditions/Version_1/twoback(2)_v1.xlsx,New rule: Press 'space' when you see 2-back (i.e. the same letter as the one that appeared 2 letters ago.),q,space,,,,,,,,,0,7,7,7,0,2,2,2,,,,,,,,,,,,,,,,,,,,,,,,,,,,,,,,,,,,,,,,,,,,,,,,,,,,,,,,,,,,,,,,,,,,,1.041,745.1517858000007,None,space,1,745.1517858000007,None,0.3739553000195883,P006,fencog,1,Pre,2021_Jul_14_1101,N-Back (New Version 2021),2021.1.4,119.94866197275073,
,,,,Conditions/Version_1/twoback(2)_v1.xlsx,New rule: Press 'space' when you see 2-back (i.e. the same letter as the one that appeared 2 letters ago.),P,None,,,,,,,,,0,7,7,7,0,3,3,3,,,,,,,,,,,,,,,,,,,,,,,,,,,,,,,,,,,,,,,,,,,,,,,,,,,,,,,,,,,,,,,,,,,,,1.2332,748.387009500002,None,None,1,748.387009500002,None,,P006,fencog,1,Pre,2021_Jul_14_1101,N-Back (New Version 2021),2021.1.4,119.94866197275073,
,,,,Conditions/Version_1/twoback(2)_v1.xlsx,New rule: Press 'space' when you see 2-back (i.e. the same letter as the one that appeared 2 letters ago.),p,None,,,,,,,,,0,7,7,7,0,4,4,4,,,,,,,,,,,,,,,,,,,,,,,,,,,,,,,,,,,,,,,,,,,,,,,,,,,,,,,,,,,,,,,,,,,,,1.0782,751.4750154999783,None,space,0,751.4750154999783,None,1.1708816000027582,P006,fencog,1,Pre,2021_Jul_14_1101,N-Back (New Version 2021),2021.1.4,119.94866197275073,
,,,,Conditions/Version_1/twoback(2)_v1.xlsx,New rule: Press 'space' when you see 2-back (i.e. the same letter as the one that appeared 2 letters ago.),H,None,,,,,,,,,0,7,7,7,0,5,5,5,,,,,,,,,,,,,,,,,,,,,,,,,,,,,,,,,,,,,,,,,,,,,,,,,,,,,,,,,,,,,,,,,,,,,1.9958,755.4740286999731,None,None,1,755.4740286999731,None,,P006,fencog,1,Pre,2021_Jul_14_1101,N-Back (New Version 2021),2021.1.4,119.94866197275073,
,,,,Conditions/Version_1/twoback(2)_v1.xlsx,New rule: Press 'space' when you see 2-back (i.e. the same letter as the one that appeared 2 letters ago.),g,None,,,,,,,,,0,7,7,7,0,6,6,6,,,,,,,,,,,,,,,,,,,,,,,,,,,,,,,,,,,,,,,,,,,,,,,,,,,,,,,,,,,,,,,,,,,,,1.5308,759.0087555000209,None,None,1,759.0087555000209,None,,P006,fencog,1,Pre,2021_Jul_14_1101,N-Back (New Version 2021),2021.1.4,119.94866197275073,
,,,,Conditions/Version_1/twoback(2)_v1.xlsx,New rule: Press 'space' when you see 2-back (i.e. the same letter as the one that appeared 2 letters ago.),j,None,,,,,,,,,0,7,7,7,0,7,7,7,,,,,,,,,,,,,,,,,,,,,,,,,,,,,,,,,,,,,,,,,,,,,,,,,,,,,,,,,,,,,,,,,,,,,1.2084,762.2225198000087,None,None,1,762.2225198000087,None,,P006,fencog,1,Pre,2021_Jul_14_1101,N-Back (New Version 2021),2021.1.4,119.94866197275073,
,,,,Conditions/Version_1/twoback(2)_v1.xlsx,New rule: Press 'space' when you see 2-back (i.e. the same letter as the one that appeared 2 letters ago.),g,space,,,,,,,,,0,7,7,7,0,8,8,8,,,,,,,,,,,,,,,,,,,,,,,,,,,,,,,,,,,,,,,,,,,,,,,,,,,,,,,,,,,,,,,,,,,,,1.8346,766.0730772999814,None,space,1,766.0730772999814,None,0.39629409997723997,P006,fencog,1,Pre,2021_Jul_14_1101,N-Back (New Version 2021),2021.1.4,119.94866197275073,
,,,,Conditions/Version_1/twoback(2)_v1.xlsx,New rule: Press 'space' when you see 2-back (i.e. the same letter as the one that appeared 2 letters ago.),G,None,,,,,,,,,0,7,7,7,0,9,9,9,,,,,,,,,,,,,,,,,,,,,,,,,,,,,,,,,,,,,,,,,,,,,,,,,,,,,,,,,,,,,,,,,,,,,1.475,769.5549064999796,None,None,1,769.5549064999796,None,,P006,fencog,1,Pre,2021_Jul_14_1101,N-Back (New Version 2021),2021.1.4,119.94866197275073,
,,,,Conditions/Version_1/twoback(2)_v1.xlsx,New rule: Press 'space' when you see 2-back (i.e. the same letter as the one that appeared 2 letters ago.),,,,,,,,,,,0,7,7,7,,,,,,,,,,,,,,,,,,,,,,,,,,,,,,,,,,,,,,,,,,,,,,,,,,,,,,,,,,,,,,,,,,,,,,,,,,,,,,,,,P006,fencog,1,Pre,2021_Jul_14_1101,N-Back (New Version 2021),2021.1.4,119.94866197275073,
,,,,Conditions/Version_1/threeback(3)_v1.xlsx,New rule: Press 'space' when you see 3-back (i.e. the same letter as the one that appeared 3 letters ago.),w,None,,,,,,,,,0,8,8,8,0,0,0,0,,,,,,,,,,,,,,,,,,,,,,,,,,,,,,,,,,,,,,,,,,,,,,,,,,,,,,,,,,,771.5831403000047,None,774.5720781999989,None,space,1.625427299994044,774.5720781999989,None,771.5831403000047,None,1.785,778.0029744000058,None,None,1,778.0029744000058,None,,P006,fencog,1,Pre,2021_Jul_14_1101,N-Back (New Version 2021),2021.1.4,119.94866197275073,
,,,,Conditions/Version_1/threeback(3)_v1.xlsx,New rule: Press 'space' when you see 3-back (i.e. the same letter as the one that appeared 3 letters ago.),p,None,,,,,,,,,0,8,8,8,0,1,1,1,,,,,,,,,,,,,,,,,,,,,,,,,,,,,,,,,,,,,,,,,,,,,,,,,,,,,,,,,,,,,,,,,,,,,1.2208,781.2328129999805,None,None,1,781.2328129999805,None,,P006,fencog,1,Pre,2021_Jul_14_1101,N-Back (New Version 2021),2021.1.4,119.94866197275073,
,,,,Conditions/Version_1/threeback(3)_v1.xlsx,New rule: Press 'space' when you see 3-back (i.e. the same letter as the one that appeared 3 letters ago.),P,None,,,,,,,,,0,8,8,8,0,2,2,2,,,,,,,,,,,,,,,,,,,,,,,,,,,,,,,,,,,,,,,,,,,,,,,,,,,,,,,,,,,,,,,,,,,,,1.971,785.2088820000063,None,None,1,785.2088820000063,None,,P006,fencog,1,Pre,2021_Jul_14_1101,N-Back (New Version 2021),2021.1.4,119.94866197275073,
,,,,Conditions/Version_1/threeback(3)_v1.xlsx,New rule: Press 'space' when you see 3-back (i.e. the same letter as the one that appeared 3 letters ago.),i,None,,,,,,,,,0,8,8,8,0,3,3,3,,,,,,,,,,,,,,,,,,,,,,,,,,,,,,,,,,,,,,,,,,,,,,,,,,,,,,,,,,,,,,,,,,,,,1.9152,789.1323490000213,None,None,1,789.1323490000213,None,,P006,fencog,1,Pre,2021_Jul_14_1101,N-Back (New Version 2021),2021.1.4,119.94866197275073,
,,,,Conditions/Version_1/threeback(3)_v1.xlsx,New rule: Press 'space' when you see 3-back (i.e. the same letter as the one that appeared 3 letters ago.),f,None,,,,,,,,,0,8,8,8,0,4,4,4,,,,,,,,,,,,,,,,,,,,,,,,,,,,,,,,,,,,,,,,,,,,,,,,,,,,,,,,,,,,,,,,,,,,,1.4316,792.5736991000012,None,None,1,792.5736991000012,None,,P006,fencog,1,Pre,2021_Jul_14_1101,N-Back (New Version 2021),2021.1.4,119.94866197275073,
,,,,Conditions/Version_1/threeback(3)_v1.xlsx,New rule: Press 'space' when you see 3-back (i.e. the same letter as the one that appeared 3 letters ago.),o,None,,,,,,,,,0,8,8,8,0,5,5,5,,,,,,,,,,,,,,,,,,,,,,,,,,,,,,,,,,,,,,,,,,,,,,,,,,,,,,,,,,,,,,,,,,,,,1.9462,796.5296712999698,None,None,1,796.5296712999698,None,,P006,fencog,1,Pre,2021_Jul_14_1101,N-Back (New Version 2021),2021.1.4,119.94866197275073,
,,,,Conditions/Version_1/threeback(3)_v1.xlsx,New rule: Press 'space' when you see 3-back (i.e. the same letter as the one that appeared 3 letters ago.),w,None,,,,,,,,,0,8,8,8,0,6,6,6,,,,,,,,,,,,,,,,,,,,,,,,,,,,,,,,,,,,,,,,,,,,,,,,,,,,,,,,,,,,,,,,,,,,,1.4254,799.9617108000093,None,None,1,799.9617108000093,None,,P006,fencog,1,Pre,2021_Jul_14_1101,N-Back (New Version 2021),2021.1.4,119.94866197275073,
,,,,Conditions/Version_1/threeback(3)_v1.xlsx,New rule: Press 'space' when you see 3-back (i.e. the same letter as the one that appeared 3 letters ago.),F,space,,,,,,,,,0,8,8,8,0,7,7,7,,,,,,,,,,,,,,,,,,,,,,,,,,,,,,,,,,,,,,,,,,,,,,,,,,,,,,,,,,,,,,,,,,,,,1.0782,803.0521395999822,None,None,0,803.0521395999822,None,,P006,fencog,1,Pre,2021_Jul_14_1101,N-Back (New Version 2021),2021.1.4,119.94866197275073,
,,,,Conditions/Version_1/threeback(3)_v1.xlsx,New rule: Press 'space' when you see 3-back (i.e. the same letter as the one that appeared 3 letters ago.),p,None,,,,,,,,,0,8,8,8,0,8,8,8,,,,,,,,,,,,,,,,,,,,,,,,,,,,,,,,,,,,,,,,,,,,,,,,,,,,,,,,,,,,,,,,,,,,,1.6238,806.6844425000018,None,None,1,806.6844425000018,None,,P006,fencog,1,Pre,2021_Jul_14_1101,N-Back (New Version 2021),2021.1.4,119.94866197275073,
,,,,Conditions/Version_1/threeback(3)_v1.xlsx,New rule: Press 'space' when you see 3-back (i.e. the same letter as the one that appeared 3 letters ago.),W,space,,,,,,,,,0,8,8,8,0,9,9,9,,,,,,,,,,,,,,,,,,,,,,,,,,,,,,,,,,,,,,,,,,,,,,,,,,,,,,,,,,,,,,,,,,,,,1.196,809.8910447999951,None,None,0,809.8910447999951,None,,P006,fencog,1,Pre,2021_Jul_14_1101,N-Back (New Version 2021),2021.1.4,119.94866197275073,
,,,,Conditions/Version_1/threeback(3)_v1.xlsx,New rule: Press 'space' when you see 3-back (i.e. the same letter as the one that appeared 3 letters ago.),,,,,,,,,,,0,8,8,8,,,,,,,,,,,,,,,,,,,,,,,,,,,,,,,,,,,,,,,,,,,,,,,,,,,,,,,,,,,,,,,,,,,,,,,,,,,,,,,,,P006,fencog,1,Pre,2021_Jul_14_1101,N-Back (New Version 2021),2021.1.4,119.94866197275073,
,,,,Conditions/Version_1/zeroback(3)_v1.xlsx,New rule: Press 'space' when you see the letter 'x' or 'X'.,X,space,,,,,,,,,0,9,9,9,0,0,0,0,,,,,,,,,,,,,,,,,,,,,,,,,,,,,,,,,,,,,,,,,,,,,,,,,,,,,,,,,,,811.9114431000198,None,814.90104289999,None,space,0.5845155999995768,814.90104289999,None,811.9114431000198,None,1.9772,817.4887776999967,None,space,1,817.4887776999967,None,0.48472040001070127,P006,fencog,1,Pre,2021_Jul_14_1101,N-Back (New Version 2021),2021.1.4,119.94866197275073,
,,,,Conditions/Version_1/zeroback(3)_v1.xlsx,New rule: Press 'space' when you see the letter 'x' or 'X'.,B,None,,,,,,,,,0,9,9,9,0,1,1,1,,,,,,,,,,,,,,,,,,,,,,,,,,,,,,,,,,,,,,,,,,,,,,,,,,,,,,,,,,,,,,,,,,,,,1.9338,821.4319798999932,None,None,1,821.4319798999932,None,,P006,fencog,1,Pre,2021_Jul_14_1101,N-Back (New Version 2021),2021.1.4,119.94866197275073,
,,,,Conditions/Version_1/zeroback(3)_v1.xlsx,New rule: Press 'space' when you see the letter 'x' or 'X'.,m,None,,,,,,,,,0,9,9,9,0,2,2,2,,,,,,,,,,,,,,,,,,,,,,,,,,,,,,,,,,,,,,,,,,,,,,,,,,,,,,,,,,,,,,,,,,,,,1.165,824.60480739997,None,None,1,824.60480739997,None,,P006,fencog,1,Pre,2021_Jul_14_1101,N-Back (New Version 2021),2021.1.4,119.94866197275073,
,,,,Conditions/Version_1/zeroback(3)_v1.xlsx,New rule: Press 'space' when you see the letter 'x' or 'X'.,m,None,,,,,,,,,0,9,9,9,0,3,3,3,,,,,,,,,,,,,,,,,,,,,,,,,,,,,,,,,,,,,,,,,,,,,,,,,,,,,,,,,,,,,,,,,,,,,1.3696,827.9776177000022,None,None,1,827.9776177000022,None,,P006,fencog,1,Pre,2021_Jul_14_1101,N-Back (New Version 2021),2021.1.4,119.94866197275073,
,,,,Conditions/Version_1/zeroback(3)_v1.xlsx,New rule: Press 'space' when you see the letter 'x' or 'X'.,o,None,,,,,,,,,0,9,9,9,0,4,4,4,,,,,,,,,,,,,,,,,,,,,,,,,,,,,,,,,,,,,,,,,,,,,,,,,,,,,,,,,,,,,,,,,,,,,1.351,831.3345256000175,None,None,1,831.3345256000175,None,,P006,fencog,1,Pre,2021_Jul_14_1101,N-Back (New Version 2021),2021.1.4,119.94866197275073,
,,,,Conditions/Version_1/zeroback(3)_v1.xlsx,New rule: Press 'space' when you see the letter 'x' or 'X'.,p,None,,,,,,,,,0,9,9,9,0,5,5,5,,,,,,,,,,,,,,,,,,,,,,,,,,,,,,,,,,,,,,,,,,,,,,,,,,,,,,,,,,,,,,,,,,,,,1.5618,834.9003276000149,None,None,1,834.9003276000149,None,,P006,fencog,1,Pre,2021_Jul_14_1101,N-Back (New Version 2021),2021.1.4,119.94866197275073,
,,,,Conditions/Version_1/zeroback(3)_v1.xlsx,New rule: Press 'space' when you see the letter 'x' or 'X'.,G,None,,,,,,,,,0,9,9,9,0,6,6,6,,,,,,,,,,,,,,,,,,,,,,,,,,,,,,,,,,,,,,,,,,,,,,,,,,,,,,,,,,,,,,,,,,,,,1.8222,838.7267650999711,None,None,1,838.7267650999711,None,,P006,fencog,1,Pre,2021_Jul_14_1101,N-Back (New Version 2021),2021.1.4,119.94866197275073,
,,,,Conditions/Version_1/zeroback(3)_v1.xlsx,New rule: Press 'space' when you see the letter 'x' or 'X'.,X,space,,,,,,,,,0,9,9,9,0,7,7,7,,,,,,,,,,,,,,,,,,,,,,,,,,,,,,,,,,,,,,,,,,,,,,,,,,,,,,,,,,,,,,,,,,,,,1.847,842.5818099000026,None,space,1,842.5818099000026,None,0.4157571999821812,P006,fencog,1,Pre,2021_Jul_14_1101,N-Back (New Version 2021),2021.1.4,119.94866197275073,
,,,,Conditions/Version_1/zeroback(3)_v1.xlsx,New rule: Press 'space' when you see the letter 'x' or 'X'.,p,None,,,,,,,,,0,9,9,9,0,8,8,8,,,,,,,,,,,,,,,,,,,,,,,,,,,,,,,,,,,,,,,,,,,,,,,,,,,,,,,,,,,,,,,,,,,,,1.258,845.8491157999961,None,None,1,845.8491157999961,None,,P006,fencog,1,Pre,2021_Jul_14_1101,N-Back (New Version 2021),2021.1.4,119.94866197275073,
,,,,Conditions/Version_1/zeroback(3)_v1.xlsx,New rule: Press 'space' when you see the letter 'x' or 'X'.,x,space,,,,,,,,,0,9,9,9,0,9,9,9,,,,,,,,,,,,,,,,,,,,,,,,,,,,,,,,,,,,,,,,,,,,,,,,,,,,,,,,,,,,,,,,,,,,,1.8966,849.7543001999729,None,space,1,849.7543001999729,None,0.3875014999648556,P006,fencog,1,Pre,2021_Jul_14_1101,N-Back (New Version 2021),2021.1.4,119.94866197275073,
,,,,Conditions/Version_1/zeroback(3)_v1.xlsx,New rule: Press 'space' when you see the letter 'x' or 'X'.,,,,,,,,,,,0,9,9,9,,,,,,,,,,,,,,,,,,,,,,,,,,,,,,,,,,,,,,,,,,,,,,,,,,,,,,,,,,,,,,,,,,,,,,,,,,,,,,,,,P006,fencog,1,Pre,2021_Jul_14_1101,N-Back (New Version 2021),2021.1.4,119.94866197275073,
,,,,Conditions/Version_1/twoback(3)_v1.xlsx,New rule: Press 'space' when you see 2-back (i.e. the same letter as the one that appeared 2 letters ago.),e,None,,,,,,,,,0,10,10,10,0,0,0,0,,,,,,,,,,,,,,,,,,,,,,,,,,,,,,,,,,,,,,,,,,,,,,,,,,,,,,,,,,,851.7723355999915,None,854.7552065000054,None,space,5.762361200002488,854.7552065000054,None,851.7723355999915,None,1.599,862.1447916000034,None,None,1,862.1447916000034,None,,P006,fencog,1,Pre,2021_Jul_14_1101,N-Back (New Version 2021),2021.1.4,119.94866197275073,
,,,,Conditions/Version_1/twoback(3)_v1.xlsx,New rule: Press 'space' when you see 2-back (i.e. the same letter as the one that appeared 2 letters ago.),o,None,,,,,,,,,0,10,10,10,0,1,1,1,,,,,,,,,,,,,,,,,,,,,,,,,,,,,,,,,,,,,,,,,,,,,,,,,,,,,,,,,,,,,,,,,,,,,1.7664,865.9162279000157,None,None,1,865.9162279000157,None,,P006,fencog,1,Pre,2021_Jul_14_1101,N-Back (New Version 2021),2021.1.4,119.94866197275073,
,,,,Conditions/Version_1/twoback(3)_v1.xlsx,New rule: Press 'space' when you see 2-back (i.e. the same letter as the one that appeared 2 letters ago.),P,None,,,,,,,,,0,10,10,10,0,2,2,2,,,,,,,,,,,,,,,,,,,,,,,,,,,,,,,,,,,,,,,,,,,,,,,,,,,,,,,,,,,,,,,,,,,,,1.4316,869.3567976999911,None,None,1,869.3567976999911,None,,P006,fencog,1,Pre,2021_Jul_14_1101,N-Back (New Version 2021),2021.1.4,119.94866197275073,
,,,,Conditions/Version_1/twoback(3)_v1.xlsx,New rule: Press 'space' when you see 2-back (i.e. the same letter as the one that appeared 2 letters ago.),z,None,,,,,,,,,0,10,10,10,0,3,3,3,,,,,,,,,,,,,,,,,,,,,,,,,,,,,,,,,,,,,,,,,,,,,,,,,,,,,,,,,,,,,,,,,,,,,1.6858,873.0562637000112,None,None,1,873.0562637000112,None,,P006,fencog,1,Pre,2021_Jul_14_1101,N-Back (New Version 2021),2021.1.4,119.94866197275073,
,,,,Conditions/Version_1/twoback(3)_v1.xlsx,New rule: Press 'space' when you see 2-back (i.e. the same letter as the one that appeared 2 letters ago.),X,None,,,,,,,,,0,10,10,10,0,4,4,4,,,,,,,,,,,,,,,,,,,,,,,,,,,,,,,,,,,,,,,,,,,,,,,,,,,,,,,,,,,,,,,,,,,,,1.6486,876.7066130000167,None,None,1,876.7066130000167,None,,P006,fencog,1,Pre,2021_Jul_14_1101,N-Back (New Version 2021),2021.1.4,119.94866197275073,
,,,,Conditions/Version_1/twoback(3)_v1.xlsx,New rule: Press 'space' when you see 2-back (i.e. the same letter as the one that appeared 2 letters ago.),z,space,,,,,,,,,0,10,10,10,0,5,5,5,,,,,,,,,,,,,,,,,,,,,,,,,,,,,,,,,,,,,,,,,,,,,,,,,,,,,,,,,,,,,,,,,,,,,1.4936,880.214625499968,None,None,0,880.214625499968,None,,P006,fencog,1,Pre,2021_Jul_14_1101,N-Back (New Version 2021),2021.1.4,119.94866197275073,
,,,,Conditions/Version_1/twoback(3)_v1.xlsx,New rule: Press 'space' when you see 2-back (i.e. the same letter as the one that appeared 2 letters ago.),x,space,,,,,,,,,0,10,10,10,0,6,6,6,,,,,,,,,,,,,,,,,,,,,,,,,,,,,,,,,,,,,,,,,,,,,,,,,,,,,,,,,,,,,,,,,,,,,1.754,883.9798294000211,None,space,1,883.9798294000211,None,1.121432600019034,P006,fencog,1,Pre,2021_Jul_14_1101,N-Back (New Version 2021),2021.1.4,119.94866197275073,
,,,,Conditions/Version_1/twoback(3)_v1.xlsx,New rule: Press 'space' when you see 2-back (i.e. the same letter as the one that appeared 2 letters ago.),c,None,,,,,,,,,0,10,10,10,0,7,7,7,,,,,,,,,,,,,,,,,,,,,,,,,,,,,,,,,,,,,,,,,,,,,,,,,,,,,,,,,,,,,,,,,,,,,1.4626,887.4538235000218,None,None,1,887.4538235000218,None,,P006,fencog,1,Pre,2021_Jul_14_1101,N-Back (New Version 2021),2021.1.4,119.94866197275073,
,,,,Conditions/Version_1/twoback(3)_v1.xlsx,New rule: Press 'space' when you see 2-back (i.e. the same letter as the one that appeared 2 letters ago.),i,None,,,,,,,,,0,10,10,10,0,8,8,8,,,,,,,,,,,,,,,,,,,,,,,,,,,,,,,,,,,,,,,,,,,,,,,,,,,,,,,,,,,,,,,,,,,,,1.692,891.1503709999961,None,None,1,891.1503709999961,None,,P006,fencog,1,Pre,2021_Jul_14_1101,N-Back (New Version 2021),2021.1.4,119.94866197275073,
,,,,Conditions/Version_1/twoback(3)_v1.xlsx,New rule: Press 'space' when you see 2-back (i.e. the same letter as the one that appeared 2 letters ago.),C,space,,,,,,,,,0,10,10,10,0,9,9,9,,,,,,,,,,,,,,,,,,,,,,,,,,,,,,,,,,,,,,,,,,,,,,,,,,,,,,,,,,,,,,,,,,,,,1.8222,894.9762450999697,None,space,1,894.9762450999697,None,0.40587160002905875,P006,fencog,1,Pre,2021_Jul_14_1101,N-Back (New Version 2021),2021.1.4,119.94866197275073,
,,,,Conditions/Version_1/twoback(3)_v1.xlsx,New rule: Press 'space' when you see 2-back (i.e. the same letter as the one that appeared 2 letters ago.),,,,,,,,,,,0,10,10,10,,,,,,,,,,,,,,,,,,,,,,,,,,,,,,,,,,,,,,,,,,,,,,,,,,,,,,,,,,,,,,,,,,,,,,,,,,,,,,,,,P006,fencog,1,Pre,2021_Jul_14_1101,N-Back (New Version 2021),2021.1.4,119.94866197275073,
,,,,Conditions/Version_1/oneback(3)_v1.xlsx,New rule: Press 'space' when you see 1-back (i.e. the same letter as the one that appeared 1 letter ago.),o,None,,,,,,,,,0,11,11,11,0,0,0,0,,,,,,,,,,,,,,,,,,,,,,,,,,,,,,,,,,,,,,,,,,,,,,,,,,,,,,,,,,,897.0043347000028,None,899.9917853000225,None,space,0.7736236000200734,899.9917853000225,None,897.0043347000028,None,1.7726,902.5554125999915,None,None,1,902.5554125999915,None,,P006,fencog,1,Pre,2021_Jul_14_1101,N-Back (New Version 2021),2021.1.4,119.94866197275073,
,,,,Conditions/Version_1/oneback(3)_v1.xlsx,New rule: Press 'space' when you see 1-back (i.e. the same letter as the one that appeared 1 letter ago.),O,space,,,,,,,,,0,11,11,11,0,1,1,1,,,,,,,,,,,,,,,,,,,,,,,,,,,,,,,,,,,,,,,,,,,,,,,,,,,,,,,,,,,,,,,,,,,,,1.0286,905.592770599993,None,space,1,905.592770599993,None,0.38045830000191927,P006,fencog,1,Pre,2021_Jul_14_1101,N-Back (New Version 2021),2021.1.4,119.94866197275073,
,,,,Conditions/Version_1/oneback(3)_v1.xlsx,New rule: Press 'space' when you see 1-back (i.e. the same letter as the one that appeared 1 letter ago.),h,None,,,,,,,,,0,11,11,11,0,2,2,2,,,,,,,,,,,,,,,,,,,,,,,,,,,,,,,,,,,,,,,,,,,,,,,,,,,,,,,,,,,,,,,,,,,,,1.5494,909.1450526000117,None,None,1,909.1450526000117,None,,P006,fencog,1,Pre,2021_Jul_14_1101,N-Back (New Version 2021),2021.1.4,119.94866197275073,
,,,,Conditions/Version_1/oneback(3)_v1.xlsx,New rule: Press 'space' when you see 1-back (i.e. the same letter as the one that appeared 1 letter ago.),g,None,,,,,,,,,0,11,11,11,0,3,3,3,,,,,,,,,,,,,,,,,,,,,,,,,,,,,,,,,,,,,,,,,,,,,,,,,,,,,,,,,,,,,,,,,,,,,1.94,913.0878123000148,None,None,1,913.0878123000148,None,,P006,fencog,1,Pre,2021_Jul_14_1101,N-Back (New Version 2021),2021.1.4,119.94866197275073,
,,,,Conditions/Version_1/oneback(3)_v1.xlsx,New rule: Press 'space' when you see 1-back (i.e. the same letter as the one that appeared 1 letter ago.),n,None,,,,,,,,,0,11,11,11,0,4,4,4,,,,,,,,,,,,,,,,,,,,,,,,,,,,,,,,,,,,,,,,,,,,,,,,,,,,,,,,,,,,,,,,,,,,,1.4626,916.5614477000199,None,None,1,916.5614477000199,None,,P006,fencog,1,Pre,2021_Jul_14_1101,N-Back (New Version 2021),2021.1.4,119.94866197275073,
,,,,Conditions/Version_1/oneback(3)_v1.xlsx,New rule: Press 'space' when you see 1-back (i.e. the same letter as the one that appeared 1 letter ago.),z,None,,,,,,,,,0,11,11,11,0,5,5,5,,,,,,,,,,,,,,,,,,,,,,,,,,,,,,,,,,,,,,,,,,,,,,,,,,,,,,,,,,,,,,,,,,,,,1.878,920.4502440000069,None,None,1,920.4502440000069,None,,P006,fencog,1,Pre,2021_Jul_14_1101,N-Back (New Version 2021),2021.1.4,119.94866197275073,
,,,,Conditions/Version_1/oneback(3)_v1.xlsx,New rule: Press 'space' when you see 1-back (i.e. the same letter as the one that appeared 1 letter ago.),X,None,,,,,,,,,0,11,11,11,0,6,6,6,,,,,,,,,,,,,,,,,,,,,,,,,,,,,,,,,,,,,,,,,,,,,,,,,,,,,,,,,,,,,,,,,,,,,1.3014,923.7575014000176,None,None,1,923.7575014000176,None,,P006,fencog,1,Pre,2021_Jul_14_1101,N-Back (New Version 2021),2021.1.4,119.94866197275073,
,,,,Conditions/Version_1/oneback(3)_v1.xlsx,New rule: Press 'space' when you see 1-back (i.e. the same letter as the one that appeared 1 letter ago.),r,None,,,,,,,,,0,11,11,11,0,7,7,7,,,,,,,,,,,,,,,,,,,,,,,,,,,,,,,,,,,,,,,,,,,,,,,,,,,,,,,,,,,,,,,,,,,,,1.3882,927.1503466999857,None,None,1,927.1503466999857,None,,P006,fencog,1,Pre,2021_Jul_14_1101,N-Back (New Version 2021),2021.1.4,119.94866197275073,
,,,,Conditions/Version_1/oneback(3)_v1.xlsx,New rule: Press 'space' when you see 1-back (i.e. the same letter as the one that appeared 1 letter ago.),r,space,,,,,,,,,0,11,11,11,0,8,8,8,,,,,,,,,,,,,,,,,,,,,,,,,,,,,,,,,,,,,,,,,,,,,,,,,,,,,,,,,,,,,,,,,,,,,1.1836,930.3388817000086,None,space,1,930.3388817000086,None,0.5144819000270218,P006,fencog,1,Pre,2021_Jul_14_1101,N-Back (New Version 2021),2021.1.4,119.94866197275073,
,,,,Conditions/Version_1/oneback(3)_v1.xlsx,New rule: Press 'space' when you see 1-back (i.e. the same letter as the one that appeared 1 letter ago.),P,None,,,,,,,,,0,11,11,11,0,9,9,9,,,,,,,,,,,,,,,,,,,,,,,,,,,,,,,,,,,,,,,,,,,,,,,,,,,,,,,,,,,,,,,,,,,,,1.0596,933.4065084999893,None,None,1,933.4065084999893,None,,P006,fencog,1,Pre,2021_Jul_14_1101,N-Back (New Version 2021),2021.1.4,119.94866197275073,
,,,,Conditions/Version_1/oneback(3)_v1.xlsx,New rule: Press 'space' when you see 1-back (i.e. the same letter as the one that appeared 1 letter ago.),,,,,,,,,,,0,11,11,11,,,,,,,,,,,,,,,,,,,,,,,,,,,,,,,,,,,,,,,,,,,,,,,,,,,,,,,,,,,,,,,,,,,,,,,,,,,,,,,,,P006,fencog,1,Pre,2021_Jul_14_1101,N-Back (New Version 2021),2021.1.4,119.94866197275073,
,,,,Conditions/Version_1/twoback(4)_v1.xlsx,New rule: Press 'space' when you see 2-back (i.e. the same letter as the one that appeared 2 letters ago.),r,None,,,,,,,,,0,12,12,12,0,0,0,0,,,,,,,,,,,,,,,,,,,,,,,,,,,,,,,,,,,,,,,,,,,,,,,,,,,,,,,,,,,935.4422850999981,None,938.4221051000059,None,space,5.719085899996571,938.4221051000059,None,935.4422850999981,None,1.3572,945.5368551000138,None,None,1,945.5368551000138,None,,P006,fencog,1,Pre,2021_Jul_14_1101,N-Back (New Version 2021),2021.1.4,119.94866197275073,
,,,,Conditions/Version_1/twoback(4)_v1.xlsx,New rule: Press 'space' when you see 2-back (i.e. the same letter as the one that appeared 2 letters ago.),T,None,,,,,,,,,0,12,12,12,0,1,1,1,,,,,,,,,,,,,,,,,,,,,,,,,,,,,,,,,,,,,,,,,,,,,,,,,,,,,,,,,,,,,,,,,,,,,1.9214,949.4677524999715,None,None,1,949.4677524999715,None,,P006,fencog,1,Pre,2021_Jul_14_1101,N-Back (New Version 2021),2021.1.4,119.94866197275073,
,,,,Conditions/Version_1/twoback(4)_v1.xlsx,New rule: Press 'space' when you see 2-back (i.e. the same letter as the one that appeared 2 letters ago.),o,None,,,,,,,,,0,12,12,12,0,2,2,2,,,,,,,,,,,,,,,,,,,,,,,,,,,,,,,,,,,,,,,,,,,,,,,,,,,,,,,,,,,,,,,,,,,,,1.9772,953.4570951000205,None,None,1,953.4570951000205,None,,P006,fencog,1,Pre,2021_Jul_14_1101,N-Back (New Version 2021),2021.1.4,119.94866197275073,
,,,,Conditions/Version_1/twoback(4)_v1.xlsx,New rule: Press 'space' when you see 2-back (i.e. the same letter as the one that appeared 2 letters ago.),p,None,,,,,,,,,0,12,12,12,0,3,3,3,,,,,,,,,,,,,,,,,,,,,,,,,,,,,,,,,,,,,,,,,,,,,,,,,,,,,,,,,,,,,,,,,,,,,1.4502,956.9068136999849,None,None,1,956.9068136999849,None,,P006,fencog,1,Pre,2021_Jul_14_1101,N-Back (New Version 2021),2021.1.4,119.94866197275073,
,,,,Conditions/Version_1/twoback(4)_v1.xlsx,New rule: Press 'space' when you see 2-back (i.e. the same letter as the one that appeared 2 letters ago.),p,None,,,,,,,,,0,12,12,12,0,4,4,4,,,,,,,,,,,,,,,,,,,,,,,,,,,,,,,,,,,,,,,,,,,,,,,,,,,,,,,,,,,,,,,,,,,,,1.3324,960.2467697000247,None,None,1,960.2467697000247,None,,P006,fencog,1,Pre,2021_Jul_14_1101,N-Back (New Version 2021),2021.1.4,119.94866197275073,
,,,,Conditions/Version_1/twoback(4)_v1.xlsx,New rule: Press 'space' when you see 2-back (i.e. the same letter as the one that appeared 2 letters ago.),y,None,,,,,,,,,0,12,12,12,0,5,5,5,,,,,,,,,,,,,,,,,,,,,,,,,,,,,,,,,,,,,,,,,,,,,,,,,,,,,,,,,,,,,,,,,,,,,1.0782,963.3319580000243,None,None,1,963.3319580000243,None,,P006,fencog,1,Pre,2021_Jul_14_1101,N-Back (New Version 2021),2021.1.4,119.94866197275073,
,,,,Conditions/Version_1/twoback(4)_v1.xlsx,New rule: Press 'space' when you see 2-back (i.e. the same letter as the one that appeared 2 letters ago.),P,space,,,,,,,,,0,12,12,12,0,6,6,6,,,,,,,,,,,,,,,,,,,,,,,,,,,,,,,,,,,,,,,,,,,,,,,,,,,,,,,,,,,,,,,,,,,,,1.8408,967.1801373999915,None,space,1,967.1801373999915,None,0.49724349996540695,P006,fencog,1,Pre,2021_Jul_14_1101,N-Back (New Version 2021),2021.1.4,119.94866197275073,
,,,,Conditions/Version_1/twoback(4)_v1.xlsx,New rule: Press 'space' when you see 2-back (i.e. the same letter as the one that appeared 2 letters ago.),y,None,,,,,,,,,0,12,12,12,0,7,7,7,,,,,,,,,,,,,,,,,,,,,,,,,,,,,,,,,,,,,,,,,,,,,,,,,,,,,,,,,,,,,,,,,,,,,1.7478,970.9757064000005,None,space,0,970.9757064000005,None,1.1976967999944463,P006,fencog,1,Pre,2021_Jul_14_1101,N-Back (New Version 2021),2021.1.4,119.94866197275073,
,,,,Conditions/Version_1/twoback(4)_v1.xlsx,New rule: Press 'space' when you see 2-back (i.e. the same letter as the one that appeared 2 letters ago.),y,space,,,,,,,,,0,12,12,12,0,8,8,8,,,,,,,,,,,,,,,,,,,,,,,,,,,,,,,,,,,,,,,,,,,,,,,,,,,,,,,,,,,,,,,,,,,,,1.227,974.176059200021,None,None,0,974.176059200021,None,,P006,fencog,1,Pre,2021_Jul_14_1101,N-Back (New Version 2021),2021.1.4,119.94866197275073,
,,,,Conditions/Version_1/twoback(4)_v1.xlsx,New rule: Press 'space' when you see 2-back (i.e. the same letter as the one that appeared 2 letters ago.),,,,,,,,,,,0,12,12,12,,,,,,,,,,,,,,,,,,,,,,,,,,,,,,,,,,,,,,,,,,,,,,,,,,,,,,,,,,,,,,,,,,,,,,,,,,,,,,,,,P006,fencog,1,Pre,2021_Jul_14_1101,N-Back (New Version 2021),2021.1.4,119.94866197275073,
,,,,Conditions/Version_1/zeroback(4)_v1.xlsx,New rule: Press 'space' when you see the letter 'x' or 'X'.,o,None,,,,,,,,,0,13,13,13,0,0,0,0,,,,,,,,,,,,,,,,,,,,,,,,,,,,,,,,,,,,,,,,,,,,,,,,,,,,,,,,,,,976.195362599974,None,979.1767809999874,None,space,3.524551499984227,979.1767809999874,None,976.195362599974,None,1.0286,983.7673866999685,None,None,1,983.7673866999685,None,,P006,fencog,1,Pre,2021_Jul_14_1101,N-Back (New Version 2021),2021.1.4,119.94866197275073,
,,,,Conditions/Version_1/zeroback(4)_v1.xlsx,New rule: Press 'space' when you see the letter 'x' or 'X'.,X,space,,,,,,,,,0,13,13,13,0,1,1,1,,,,,,,,,,,,,,,,,,,,,,,,,,,,,,,,,,,,,,,,,,,,,,,,,,,,,,,,,,,,,,,,,,,,,1.7974,987.5730372999678,None,space,1,987.5730372999678,None,0.38427939999382943,P006,fencog,1,Pre,2021_Jul_14_1101,N-Back (New Version 2021),2021.1.4,119.94866197275073,
,,,,Conditions/Version_1/zeroback(4)_v1.xlsx,New rule: Press 'space' when you see the letter 'x' or 'X'.,p,None,,,,,,,,,0,13,13,13,0,2,2,2,,,,,,,,,,,,,,,,,,,,,,,,,,,,,,,,,,,,,,,,,,,,,,,,,,,,,,,,,,,,,,,,,,,,,1.785,991.3657258999883,None,None,1,991.3657258999883,None,,P006,fencog,1,Pre,2021_Jul_14_1101,N-Back (New Version 2021),2021.1.4,119.94866197275073,
,,,,Conditions/Version_1/zeroback(4)_v1.xlsx,New rule: Press 'space' when you see the letter 'x' or 'X'.,m,None,,,,,,,,,0,13,13,13,0,3,3,3,,,,,,,,,,,,,,,,,,,,,,,,,,,,,,,,,,,,,,,,,,,,,,,,,,,,,,,,,,,,,,,,,,,,,1.2828,994.654250499967,None,None,1,994.654250499967,None,,P006,fencog,1,Pre,2021_Jul_14_1101,N-Back (New Version 2021),2021.1.4,119.94866197275073,
,,,,Conditions/Version_1/zeroback(4)_v1.xlsx,New rule: Press 'space' when you see the letter 'x' or 'X'.,n,None,,,,,,,,,0,13,13,13,0,4,4,4,,,,,,,,,,,,,,,,,,,,,,,,,,,,,,,,,,,,,,,,,,,,,,,,,,,,,,,,,,,,,,,,,,,,,1.01,997.6779359999928,None,None,1,997.6779359999928,None,,P006,fencog,1,Pre,2021_Jul_14_1101,N-Back (New Version 2021),2021.1.4,119.94866197275073,
,,,,Conditions/Version_1/zeroback(4)_v1.xlsx,New rule: Press 'space' when you see the letter 'x' or 'X'.,m,None,,,,,,,,,0,13,13,13,0,5,5,5,,,,,,,,,,,,,,,,,,,,,,,,,,,,,,,,,,,,,,,,,,,,,,,,,,,,,,,,,,,,,,,,,,,,,1.2084,1000.8950495999889,None,None,1,1000.8950495999889,None,,P006,fencog,1,Pre,2021_Jul_14_1101,N-Back (New Version 2021),2021.1.4,119.94866197275073,
,,,,Conditions/Version_1/zeroback(4)_v1.xlsx,New rule: Press 'space' when you see the letter 'x' or 'X'.,C,None,,,,,,,,,0,13,13,13,0,6,6,6,,,,,,,,,,,,,,,,,,,,,,,,,,,,,,,,,,,,,,,,,,,,,,,,,,,,,,,,,,,,,,,,,,,,,1.103,1004.0087278999854,None,None,1,1004.0087278999854,None,,P006,fencog,1,Pre,2021_Jul_14_1101,N-Back (New Version 2021),2021.1.4,119.94866197275073,
,,,,Conditions/Version_1/zeroback(4)_v1.xlsx,New rule: Press 'space' when you see the letter 'x' or 'X'.,m,None,,,,,,,,,0,13,13,13,0,7,7,7,,,,,,,,,,,,,,,,,,,,,,,,,,,,,,,,,,,,,,,,,,,,,,,,,,,,,,,,,,,,,,,,,,,,,1.0348,1007.0517911000061,None,None,1,1007.0517911000061,None,,P006,fencog,1,Pre,2021_Jul_14_1101,N-Back (New Version 2021),2021.1.4,119.94866197275073,
,,,,Conditions/Version_1/zeroback(4)_v1.xlsx,New rule: Press 'space' when you see the letter 'x' or 'X'.,p,None,,,,,,,,,0,13,13,13,0,8,8,8,,,,,,,,,,,,,,,,,,,,,,,,,,,,,,,,,,,,,,,,,,,,,,,,,,,,,,,,,,,,,,,,,,,,,1.4502,1010.5074965999811,None,None,1,1010.5074965999811,None,,P006,fencog,1,Pre,2021_Jul_14_1101,N-Back (New Version 2021),2021.1.4,119.94866197275073,
,,,,Conditions/Version_1/zeroback(4)_v1.xlsx,New rule: Press 'space' when you see the letter 'x' or 'X'.,X,space,,,,,,,,,0,13,13,13,0,9,9,9,,,,,,,,,,,,,,,,,,,,,,,,,,,,,,,,,,,,,,,,,,,,,,,,,,,,,,,,,,,,,,,,,,,,,1.7168,1014.232554199989,None,space,1,1014.232554199989,None,0.5005038999952376,P006,fencog,1,Pre,2021_Jul_14_1101,N-Back (New Version 2021),2021.1.4,119.94866197275073,
,,,,Conditions/Version_1/zeroback(4)_v1.xlsx,New rule: Press 'space' when you see the letter 'x' or 'X'.,,,,,,,,,,,0,13,13,13,,,,,,,,,,,,,,,,,,,,,,,,,,,,,,,,,,,,,,,,,,,,,,,,,,,,,,,,,,,,,,,,,,,,,,,,,,,,,,,,,P006,fencog,1,Pre,2021_Jul_14_1101,N-Back (New Version 2021),2021.1.4,119.94866197275073,
,,,,Conditions/Version_1/oneback(4)_v1.xlsx,New rule: Press 'space' when you see 1-back (i.e. the same letter as the one that appeared 1 letter ago.),w,None,,,,,,,,,0,14,14,14,0,0,0,0,,,,,,,,,,,,,,,,,,,,,,,,,,,,,,,,,,,,,,,,,,,,,,,,,,,,,,,,,,,1016.2604675000184,None,1019.2479634999763,None,space,1.6370587999699637,1019.2479634999763,None,1016.2604675000184,None,1.5556,1022.4719646999729,None,None,1,1022.4719646999729,None,,P006,fencog,1,Pre,2021_Jul_14_1101,N-Back (New Version 2021),2021.1.4,119.94866197275073,
,,,,Conditions/Version_1/oneback(4)_v1.xlsx,New rule: Press 'space' when you see 1-back (i.e. the same letter as the one that appeared 1 letter ago.),q,None,,,,,,,,,0,14,14,14,0,1,1,1,,,,,,,,,,,,,,,,,,,,,,,,,,,,,,,,,,,,,,,,,,,,,,,,,,,,,,,,,,,,,,,,,,,,,1.1774,1025.664431000012,None,None,1,1025.664431000012,None,,P006,fencog,1,Pre,2021_Jul_14_1101,N-Back (New Version 2021),2021.1.4,119.94866197275073,
,,,,Conditions/Version_1/oneback(4)_v1.xlsx,New rule: Press 'space' when you see 1-back (i.e. the same letter as the one that appeared 1 letter ago.),i,None,,,,,,,,,0,14,14,14,0,2,2,2,,,,,,,,,,,,,,,,,,,,,,,,,,,,,,,,,,,,,,,,,,,,,,,,,,,,,,,,,,,,,,,,,,,,,1.7602,1029.4344588000095,None,None,1,1029.4344588000095,None,,P006,fencog,1,Pre,2021_Jul_14_1101,N-Back (New Version 2021),2021.1.4,119.94866197275073,
,,,,Conditions/Version_1/oneback(4)_v1.xlsx,New rule: Press 'space' when you see 1-back (i.e. the same letter as the one that appeared 1 letter ago.),t,None,,,,,,,,,0,14,14,14,0,3,3,3,,,,,,,,,,,,,,,,,,,,,,,,,,,,,,,,,,,,,,,,,,,,,,,,,,,,,,,,,,,,,,,,,,,,,1.3696,1032.8108325999929,None,None,1,1032.8108325999929,None,,P006,fencog,1,Pre,2021_Jul_14_1101,N-Back (New Version 2021),2021.1.4,119.94866197275073,
,,,,Conditions/Version_1/oneback(4)_v1.xlsx,New rule: Press 'space' when you see 1-back (i.e. the same letter as the one that appeared 1 letter ago.),v,None,,,,,,,,,0,14,14,14,0,4,4,4,,,,,,,,,,,,,,,,,,,,,,,,,,,,,,,,,,,,,,,,,,,,,,,,,,,,,,,,,,,,,,,,,,,,,1.6548,1036.4758593000006,None,None,1,1036.4758593000006,None,,P006,fencog,1,Pre,2021_Jul_14_1101,N-Back (New Version 2021),2021.1.4,119.94866197275073,
,,,,Conditions/Version_1/oneback(4)_v1.xlsx,New rule: Press 'space' when you see 1-back (i.e. the same letter as the one that appeared 1 letter ago.),V,space,,,,,,,,,0,14,14,14,0,5,5,5,,,,,,,,,,,,,,,,,,,,,,,,,,,,,,,,,,,,,,,,,,,,,,,,,,,,,,,,,,,,,,,,,,,,,1.2146,1039.7021302999929,None,None,0,1039.7021302999929,None,,P006,fencog,1,Pre,2021_Jul_14_1101,N-Back (New Version 2021),2021.1.4,119.94866197275073,
,,,,Conditions/Version_1/oneback(4)_v1.xlsx,New rule: Press 'space' when you see 1-back (i.e. the same letter as the one that appeared 1 letter ago.),v,space,,,,,,,,,0,14,14,14,0,6,6,6,,,,,,,,,,,,,,,,,,,,,,,,,,,,,,,,,,,,,,,,,,,,,,,,,,,,,,,,,,,,,,,,,,,,,1.4998,1043.2053872999968,None,space,1,1043.2053872999968,None,0.7119332000147551,P006,fencog,1,Pre,2021_Jul_14_1101,N-Back (New Version 2021),2021.1.4,119.94866197275073,
,,,,Conditions/Version_1/oneback(4)_v1.xlsx,New rule: Press 'space' when you see 1-back (i.e. the same letter as the one that appeared 1 letter ago.),p,None,,,,,,,,,0,14,14,14,0,7,7,7,,,,,,,,,,,,,,,,,,,,,,,,,,,,,,,,,,,,,,,,,,,,,,,,,,,,,,,,,,,,,,,,,,,,,1.165,1046.3710205999669,None,None,1,1046.3710205999669,None,,P006,fencog,1,Pre,2021_Jul_14_1101,N-Back (New Version 2021),2021.1.4,119.94866197275073,
,,,,Conditions/Version_1/oneback(4)_v1.xlsx,New rule: Press 'space' when you see 1-back (i.e. the same letter as the one that appeared 1 letter ago.),w,None,,,,,,,,,0,14,14,14,0,8,8,8,,,,,,,,,,,,,,,,,,,,,,,,,,,,,,,,,,,,,,,,,,,,,,,,,,,,,,,,,,,,,,,,,,,,,1.0906,1049.4638229999691,None,None,1,1049.4638229999691,None,,P006,fencog,1,Pre,2021_Jul_14_1101,N-Back (New Version 2021),2021.1.4,119.94866197275073,
,,,,Conditions/Version_1/oneback(4)_v1.xlsx,New rule: Press 'space' when you see 1-back (i.e. the same letter as the one that appeared 1 letter ago.),W,space,,,,,,,,,0,14,14,14,0,9,9,9,,,,,,,,,,,,,,,,,,,,,,,,,,,,,,,,,,,,,,,,,,,,,,,,,,,,,,,,,,,,,,,,,,,,,1.4006,1052.87770979997,None,space,1,1052.87770979997,None,0.9683389999554493,P006,fencog,1,Pre,2021_Jul_14_1101,N-Back (New Version 2021),2021.1.4,119.94866197275073,
,,,,Conditions/Version_1/oneback(4)_v1.xlsx,New rule: Press 'space' when you see 1-back (i.e. the same letter as the one that appeared 1 letter ago.),,,,,,,,,,,0,14,14,14,,,,,,,,,,,,,,,,,,,,,,,,,,,,,,,,,,,,,,,,,,,,,,,,,,,,,,,,,,,,,,,,,,,,,,,,,,,,,,,,,P006,fencog,1,Pre,2021_Jul_14_1101,N-Back (New Version 2021),2021.1.4,119.94866197275073,
,,,,Conditions/Version_1/threeback(4)_v1.xlsx,New rule: Press 'space' when you see 3-back (i.e. the same letter as the one that appeared 3 letters ago.),A,None,,,,,,,,,0,15,15,15,0,0,0,0,,,,,,,,,,,,,,,,,,,,,,,,,,,,,,,,,,,,,,,,,,,,,,,,,,,,,,,,,,,1054.8997301000054,None,1057.8871729000239,None,space,1.0306004000012763,1057.8871729000239,None,1054.8997301000054,None,1.661,1060.6021601000102,None,None,1,1060.6021601000102,None,,P006,fencog,1,Pre,2021_Jul_14_1101,N-Back (New Version 2021),2021.1.4,119.94866197275073,
,,,,Conditions/Version_1/threeback(4)_v1.xlsx,New rule: Press 'space' when you see 3-back (i.e. the same letter as the one that appeared 3 letters ago.),n,None,,,,,,,,,0,15,15,15,0,1,1,1,,,,,,,,,,,,,,,,,,,,,,,,,,,,,,,,,,,,,,,,,,,,,,,,,,,,,,,,,,,,,,,,,,,,,1.8408,1064.4492046000087,None,None,1,1064.4492046000087,None,,P006,fencog,1,Pre,2021_Jul_14_1101,N-Back (New Version 2021),2021.1.4,119.94866197275073,
,,,,Conditions/Version_1/threeback(4)_v1.xlsx,New rule: Press 'space' when you see 3-back (i.e. the same letter as the one that appeared 3 letters ago.),g,None,,,,,,,,,0,15,15,15,0,2,2,2,,,,,,,,,,,,,,,,,,,,,,,,,,,,,,,,,,,,,,,,,,,,,,,,,,,,,,,,,,,,,,,,,,,,,1.4564,1067.9085340999882,None,None,1,1067.9085340999882,None,,P006,fencog,1,Pre,2021_Jul_14_1101,N-Back (New Version 2021),2021.1.4,119.94866197275073,
,,,,Conditions/Version_1/threeback(4)_v1.xlsx,New rule: Press 'space' when you see 3-back (i.e. the same letter as the one that appeared 3 letters ago.),A,space,,,,,,,,,0,15,15,15,0,3,3,3,,,,,,,,,,,,,,,,,,,,,,,,,,,,,,,,,,,,,,,,,,,,,,,,,,,,,,,,,,,,,,,,,,,,,1.258,1071.1733158999705,None,space,1,1071.1733158999705,None,0.6556713000172749,P006,fencog,1,Pre,2021_Jul_14_1101,N-Back (New Version 2021),2021.1.4,119.94866197275073,
,,,,Conditions/Version_1/threeback(4)_v1.xlsx,New rule: Press 'space' when you see 3-back (i.e. the same letter as the one that appeared 3 letters ago.),p,None,,,,,,,,,0,15,15,15,0,4,4,4,,,,,,,,,,,,,,,,,,,,,,,,,,,,,,,,,,,,,,,,,,,,,,,,,,,,,,,,,,,,,,,,,,,,,1.9896,1075.1729727999773,None,None,1,1075.1729727999773,None,,P006,fencog,1,Pre,2021_Jul_14_1101,N-Back (New Version 2021),2021.1.4,119.94866197275073,
,,,,Conditions/Version_1/threeback(4)_v1.xlsx,New rule: Press 'space' when you see 3-back (i.e. the same letter as the one that appeared 3 letters ago.),O,None,,,,,,,,,0,15,15,15,0,5,5,5,,,,,,,,,,,,,,,,,,,,,,,,,,,,,,,,,,,,,,,,,,,,,,,,,,,,,,,,,,,,,,,,,,,,,1.8346,1079.0220817999798,None,None,1,1079.0220817999798,None,,P006,fencog,1,Pre,2021_Jul_14_1101,N-Back (New Version 2021),2021.1.4,119.94866197275073,
,,,,Conditions/Version_1/threeback(4)_v1.xlsx,New rule: Press 'space' when you see 3-back (i.e. the same letter as the one that appeared 3 letters ago.),a,space,,,,,,,,,0,15,15,15,0,6,6,6,,,,,,,,,,,,,,,,,,,,,,,,,,,,,,,,,,,,,,,,,,,,,,,,,,,,,,,,,,,,,,,,,,,,,1.2704,1082.3078597999993,None,None,0,1082.3078597999993,None,,P006,fencog,1,Pre,2021_Jul_14_1101,N-Back (New Version 2021),2021.1.4,119.94866197275073,
,,,,Conditions/Version_1/threeback(4)_v1.xlsx,New rule: Press 'space' when you see 3-back (i.e. the same letter as the one that appeared 3 letters ago.),p,space,,,,,,,,,0,15,15,15,0,7,7,7,,,,,,,,,,,,,,,,,,,,,,,,,,,,,,,,,,,,,,,,,,,,,,,,,,,,,,,,,,,,,,,,,,,,,1.0968,1085.409817399981,None,None,0,1085.409817399981,None,,P006,fencog,1,Pre,2021_Jul_14_1101,N-Back (New Version 2021),2021.1.4,119.94866197275073,
,,,,Conditions/Version_1/threeback(4)_v1.xlsx,New rule: Press 'space' when you see 3-back (i.e. the same letter as the one that appeared 3 letters ago.),x,None,,,,,,,,,0,15,15,15,0,8,8,8,,,,,,,,,,,,,,,,,,,,,,,,,,,,,,,,,,,,,,,,,,,,,,,,,,,,,,,,,,,,,,,,,,,,,1.0348,1088.4521967999754,None,None,1,1088.4521967999754,None,,P006,fencog,1,Pre,2021_Jul_14_1101,N-Back (New Version 2021),2021.1.4,119.94866197275073,
,,,,Conditions/Version_1/threeback(4)_v1.xlsx,New rule: Press 'space' when you see 3-back (i.e. the same letter as the one that appeared 3 letters ago.),X,None,,,,,,,,,0,15,15,15,0,9,9,9,,,,,,,,,,,,,,,,,,,,,,,,,,,,,,,,,,,,,,,,,,,,,,,,,,,,,,,,,,,,,,,,,,,,,1.7788,1092.2426063999883,None,None,1,1092.2426063999883,None,,P006,fencog,1,Pre,2021_Jul_14_1101,N-Back (New Version 2021),2021.1.4,119.94866197275073,
,,,,Conditions/Version_1/threeback(4)_v1.xlsx,New rule: Press 'space' when you see 3-back (i.e. the same letter as the one that appeared 3 letters ago.),,,,,,,,,,,0,15,15,15,,,,,,,,,,,,,,,,,,,,,,,,,,,,,,,,,,,,,,,,,,,,,,,,,,,,,,,,,,,,,,,,,,,,,,,,,,,,,,,,,P006,fencog,1,Pre,2021_Jul_14_1101,N-Back (New Version 2021),2021.1.4,119.94866197275073,
