CondFileP,InstructionsP,LettersDisplayedP,CorrectnessP,CondFile,Instructions,LettersDisplayed,Correctness,practicetrials.thisRepN,practicetrials.thisTrialN,practicetrials.thisN,practicetrials.thisIndex,InnerLoopPractice.thisRepN,InnerLoopPractice.thisTrialN,InnerLoopPractice.thisN,InnerLoopPractice.thisIndex,trials.thisRepN,trials.thisTrialN,trials.thisN,trials.thisIndex,InnerLoop.thisRepN,InnerLoop.thisTrialN,InnerLoop.thisN,InnerLoop.thisIndex,TaskVersionText.started,TaskVersionText.stopped,InstrKey1.keys,InstrKey1.rt,InstrKey1.started,InstrKey1.stopped,text.started,text.stopped,key_resp_4.keys,key_resp_4.rt,key_resp_4.started,key_resp_4.stopped,text_2.started,text_2.stopped,key_resp_3.keys,key_resp_3.rt,key_resp_3.started,key_resp_3.stopped,text_3.started,text_3.stopped,key_resp_2.keys,key_resp_2.rt,key_resp_2.started,key_resp_2.stopped,PractIn1.started,PractIn1.stopped,PractIn2.started,PractIn2.stopped,PractInstructionPass.keys,PractInstructionPass.rt,PractInstructionPass.started,PractInstructionPass.stopped,PractBlock1.started,PractBlock1.stopped,ISIjitterPractice,ISI_Pract_Fixation.started,ISI_Pract_Fixation.stopped,N_backP.started,N_backP.stopped,KeyPractice.keys,KeyPractice.corr,KeyPractice.rt,KeyPractice.started,KeyPractice.stopped,text_4.started,text_4.stopped,TransitionText.started,TransitionText.stopped,key_resp_6.keys,key_resp_6.rt,key_resp_6.started,key_resp_6.stopped,text_5.started,text_5.stopped,key_resp_5.keys,key_resp_5.rt,key_resp_5.started,key_resp_5.stopped,MainInt1.started,MainInt1.stopped,MainInt2.started,MainInt2.stopped,InstructionPass.keys,InstructionPass.rt,InstructionPass.started,InstructionPass.stopped,Blocks1.started,Blocks1.stopped,ISIjitter,N_backD.started,N_backD.stopped,key_resp.keys,key_resp.corr,key_resp.started,key_resp.stopped,key_resp.rt,participant,Study Name,Task Version (required to run),PRE/POST,date,expName,psychopyVersion,frameRate,
,,,,,,,,,,,,,,,,,,,,,,,,23.062044200021774,None,space,3.652189299929887,23.551742400042713,None,,,,,,,,,,,,,,,,,,,,,,,,,,,,,,,,,,,,,,,,,,,,,,,,,,,,,,,,,,,,,,,,,,,,,,,P007,fencog,2,Pre,2021_Aug_04_1130,N-Back (New Version 2021),2021.1.4,119.77783610697595,
,,,,,,,,,,,,,,,,,,,,,,,,,,,,,,27.26717730006203,None,space,99.33075700001791,27.760952699929476,None,,,,,,,,,,,,,,,,,,,,,,,,,,,,,,,,,,,,,,,,,,,,,,,,,,,,,,,,,,,,,,,,,P007,fencog,2,Pre,2021_Aug_04_1130,N-Back (New Version 2021),2021.1.4,119.77783610697595,
,,,,,,,,,,,,,,,,,,,,,,,,,,,,,,,,,,,,127.15923950029537,None,space,37.731605499982834,127.64806029992178,None,,,,,,,,,,,,,,,,,,,,,,,,,,,,,,,,,,,,,,,,,,,,,,,,,,,,,,,,,,,P007,fencog,2,Pre,2021_Aug_04_1130,N-Back (New Version 2021),2021.1.4,119.77783610697595,
,,,,,,,,,,,,,,,,,,,,,,,,,,,,,,,,,,,,,,,,,,165.43948560021818,None,space,9.334758300334215,165.93249949999154,None,,,,,,,,,,,,,,,,,,,,,,,,,,,,,,,,,,,,,,,,,,,,,,,,,,,,,P007,fencog,2,Pre,2021_Aug_04_1130,N-Back (New Version 2021),2021.1.4,119.77783610697595,
Conditions/Version_2Pr/zeroback(1)_v2.xlsx,Rule: Press 'space' when you see the letter 'x' or 'X'.,x,space,,,,,0,0,0,0,0,0,0,0,,,,,,,,,,,,,,,,,,,,,,,,,,,,,,,,,176.855262900237,None,179.8424843000248,None,space,1.9604973001405597,179.8424843000248,None,176.855262900237,None,1.04,181.83301650034264,None,182.89434330025688,None,space,1,0.46053559985011816,182.89434330025688,None,183.37042460031807,None,,,,,,,,,,,,,,,,,,,,,,,,,,,,,,,P007,fencog,2,Pre,2021_Aug_04_1130,N-Back (New Version 2021),2021.1.4,119.77783610697595,
Conditions/Version_2Pr/zeroback(1)_v2.xlsx,Rule: Press 'space' when you see the letter 'x' or 'X'.,R,None,,,,,0,0,0,0,0,1,1,1,,,,,,,,,,,,,,,,,,,,,,,,,,,,,,,,,,,,,,,,,,,1.39,184.87210300005972,None,186.26996570033953,None,None,1,,186.26996570033953,None,188.27167499996722,None,,,,,,,,,,,,,,,,,,,,,,,,,,,,,,,P007,fencog,2,Pre,2021_Aug_04_1130,N-Back (New Version 2021),2021.1.4,119.77783610697595,
Conditions/Version_2Pr/zeroback(1)_v2.xlsx,Rule: Press 'space' when you see the letter 'x' or 'X'.,p,None,,,,,0,0,0,0,0,2,2,2,,,,,,,,,,,,,,,,,,,,,,,,,,,,,,,,,,,,,,,,,,,1.49,189.7695373003371,None,191.270167700015,None,None,1,,191.270167700015,None,193.27429530024529,None,,,,,,,,,,,,,,,,,,,,,,,,,,,,,,,P007,fencog,2,Pre,2021_Aug_04_1130,N-Back (New Version 2021),2021.1.4,119.77783610697595,
Conditions/Version_2Pr/zeroback(1)_v2.xlsx,Rule: Press 'space' when you see the letter 'x' or 'X'.,O,None,,,,,0,0,0,0,0,3,3,3,,,,,,,,,,,,,,,,,,,,,,,,,,,,,,,,,,,,,,,,,,,1.74,194.76796169998124,None,196.51781090022996,None,None,1,,196.51781090022996,None,198.52293060021475,None,,,,,,,,,,,,,,,,,,,,,,,,,,,,,,,P007,fencog,2,Pre,2021_Aug_04_1130,N-Back (New Version 2021),2021.1.4,119.77783610697595,
Conditions/Version_2Pr/zeroback(1)_v2.xlsx,Rule: Press 'space' when you see the letter 'x' or 'X'.,i,None,,,,,0,0,0,0,0,4,4,4,,,,,,,,,,,,,,,,,,,,,,,,,,,,,,,,,,,,,,,,,,,1.215,200.01570239989087,None,201.24245710019022,None,None,1,,201.24245710019022,None,203.2390075000003,None,,,,,,,,,,,,,,,,,,,,,,,,,,,,,,,P007,fencog,2,Pre,2021_Aug_04_1130,N-Back (New Version 2021),2021.1.4,119.77783610697595,
Conditions/Version_2Pr/zeroback(1)_v2.xlsx,Rule: Press 'space' when you see the letter 'x' or 'X'.,U,None,,,,,0,0,0,0,0,5,5,5,,,,,,,,,,,,,,,,,,,,,,,,,,,,,,,,,,,,,,,,,,,1.44,204.74003930017352,None,206.18843080010265,None,None,1,,206.18843080010265,None,208.19130220031366,None,,,,,,,,,,,,,,,,,,,,,,,,,,,,,,,P007,fencog,2,Pre,2021_Aug_04_1130,N-Back (New Version 2021),2021.1.4,119.77783610697595,
Conditions/Version_2Pr/zeroback(1)_v2.xlsx,Rule: Press 'space' when you see the letter 'x' or 'X'.,N,None,,,,,0,0,0,0,0,6,6,6,,,,,,,,,,,,,,,,,,,,,,,,,,,,,,,,,,,,,,,,,,,1.565,209.6880115000531,None,211.2632699003443,None,None,1,,211.2632699003443,None,213.2688243999146,None,,,,,,,,,,,,,,,,,,,,,,,,,,,,,,,P007,fencog,2,Pre,2021_Aug_04_1130,N-Back (New Version 2021),2021.1.4,119.77783610697595,
Conditions/Version_2Pr/zeroback(1)_v2.xlsx,Rule: Press 'space' when you see the letter 'x' or 'X'.,m,None,,,,,0,0,0,0,0,7,7,7,,,,,,,,,,,,,,,,,,,,,,,,,,,,,,,,,,,,,,,,,,,1.165,214.76158680021763,None,215.9362714001909,None,None,1,,215.9362714001909,None,217.94178600003943,None,,,,,,,,,,,,,,,,,,,,,,,,,,,,,,,P007,fencog,2,Pre,2021_Aug_04_1130,N-Back (New Version 2021),2021.1.4,119.77783610697595,
Conditions/Version_2Pr/zeroback(1)_v2.xlsx,Rule: Press 'space' when you see the letter 'x' or 'X'.,x,space,,,,,0,0,0,0,0,8,8,8,,,,,,,,,,,,,,,,,,,,,,,,,,,,,,,,,,,,,,,,,,,1.515,219.43461180012673,None,222.17759110033512,None,space,1,1.8580298000015318,222.17759110033512,None,224.05423750029877,None,,,,,,,,,,,,,,,,,,,,,,,,,,,,,,,P007,fencog,2,Pre,2021_Aug_04_1130,N-Back (New Version 2021),2021.1.4,119.77783610697595,
Conditions/Version_2Pr/zeroback(1)_v2.xlsx,Rule: Press 'space' when you see the letter 'x' or 'X'.,X,space,,,,,0,0,0,0,0,9,9,9,,,,,,,,,,,,,,,,,,,,,,,,,,,,,,,,,,,,,,,,,,,1.865,225.55831660004333,None,229.27714740019292,None,space,1,1.3374795001000166,229.27714740019292,None,230.6265651001595,None,,,,,,,,,,,,,,,,,,,,,,,,,,,,,,,P007,fencog,2,Pre,2021_Aug_04_1130,N-Back (New Version 2021),2021.1.4,119.77783610697595,
Conditions/Version_2Pr/zeroback(1)_v2.xlsx,Rule: Press 'space' when you see the letter 'x' or 'X'.,,,,,,,0,0,0,0,,,,,,,,,,,,,,,,,,,,,,,,,,,,,,,,,,,,,,,,,,,,,,,,,,,,,,,,,,,,,,,,,,,,,,,,,,,,,,,,,,,,,,,,,P007,fencog,2,Pre,2021_Aug_04_1130,N-Back (New Version 2021),2021.1.4,119.77783610697595,
Conditions/Version_2Pr/oneback(1)_v2.xlsx,New rule: Press 'space' when you see 1-back (i.e. the same letter as the one that appeared 1 letter ago.),r,None,,,,,0,1,1,1,0,0,0,0,,,,,,,,,,,,,,,,,,,,,,,,,,,,,,,,,232.16305579990149,None,235.14790780004114,None,space,22.158750499598682,235.14790780004114,None,232.16305579990149,None,1.24,257.32870370009914,None,258.57933080010116,None,None,1,,258.57933080010116,None,260.5786451003514,None,,,,,,,,,,,,,,,,,,,,,,,,,,,,,,,P007,fencog,2,Pre,2021_Aug_04_1130,N-Back (New Version 2021),2021.1.4,119.77783610697595,
Conditions/Version_2Pr/oneback(1)_v2.xlsx,New rule: Press 'space' when you see 1-back (i.e. the same letter as the one that appeared 1 letter ago.),t,None,,,,,0,1,1,1,0,1,1,1,,,,,,,,,,,,,,,,,,,,,,,,,,,,,,,,,,,,,,,,,,,1.39,262.0770566998981,None,263.477320600301,None,None,1,,263.477320600301,None,265.4806445003487,None,,,,,,,,,,,,,,,,,,,,,,,,,,,,,,,P007,fencog,2,Pre,2021_Aug_04_1130,N-Back (New Version 2021),2021.1.4,119.77783610697595,
Conditions/Version_2Pr/oneback(1)_v2.xlsx,New rule: Press 'space' when you see 1-back (i.e. the same letter as the one that appeared 1 letter ago.),Y,None,,,,,0,1,1,1,0,2,2,2,,,,,,,,,,,,,,,,,,,,,,,,,,,,,,,,,,,,,,,,,,,1.84,266.9745390000753,None,268.8182676001452,None,None,1,,268.8182676001452,None,270.8217418002896,None,,,,,,,,,,,,,,,,,,,,,,,,,,,,,,,P007,fencog,2,Pre,2021_Aug_04_1130,N-Back (New Version 2021),2021.1.4,119.77783610697595,
Conditions/Version_2Pr/oneback(1)_v2.xlsx,New rule: Press 'space' when you see 1-back (i.e. the same letter as the one that appeared 1 letter ago.),y,space,,,,,0,1,1,1,0,3,3,3,,,,,,,,,,,,,,,,,,,,,,,,,,,,,,,,,,,,,,,,,,,1.44,272.32221770007163,None,273.7738504000008,None,space,1,0.48517420003190637,273.7738504000008,None,274.27928050002083,None,,,,,,,,,,,,,,,,,,,,,,,,,,,,,,,P007,fencog,2,Pre,2021_Aug_04_1130,N-Back (New Version 2021),2021.1.4,119.77783610697595,
Conditions/Version_2Pr/oneback(1)_v2.xlsx,New rule: Press 'space' when you see 1-back (i.e. the same letter as the one that appeared 1 letter ago.),p,None,,,,,0,1,1,1,0,4,4,4,,,,,,,,,,,,,,,,,,,,,,,,,,,,,,,,,,,,,,,,,,,1.765,275.7815570002422,None,277.553268100135,None,None,1,,277.553268100135,None,279.5596536002122,None,,,,,,,,,,,,,,,,,,,,,,,,,,,,,,,P007,fencog,2,Pre,2021_Aug_04_1130,N-Back (New Version 2021),2021.1.4,119.77783610697595,
Conditions/Version_2Pr/oneback(1)_v2.xlsx,New rule: Press 'space' when you see 1-back (i.e. the same letter as the one that appeared 1 letter ago.),P,space,,,,,0,1,1,1,0,5,5,5,,,,,,,,,,,,,,,,,,,,,,,,,,,,,,,,,,,,,,,,,,,1.14,281.05463219992816,None,282.2005960000679,None,space,1,0.5468986998312175,282.2005960000679,None,282.76981940027326,None,,,,,,,,,,,,,,,,,,,,,,,,,,,,,,,P007,fencog,2,Pre,2021_Aug_04_1130,N-Back (New Version 2021),2021.1.4,119.77783610697595,
Conditions/Version_2Pr/oneback(1)_v2.xlsx,New rule: Press 'space' when you see 1-back (i.e. the same letter as the one that appeared 1 letter ago.),e,None,,,,,0,1,1,1,0,6,6,6,,,,,,,,,,,,,,,,,,,,,,,,,,,,,,,,,,,,,,,,,,,2.015,284.27130840020254,None,286.302815400064,None,None,1,,286.302815400064,None,288.3035989003256,None,,,,,,,,,,,,,,,,,,,,,,,,,,,,,,,P007,fencog,2,Pre,2021_Aug_04_1130,N-Back (New Version 2021),2021.1.4,119.77783610697595,
Conditions/Version_2Pr/oneback(1)_v2.xlsx,New rule: Press 'space' when you see 1-back (i.e. the same letter as the one that appeared 1 letter ago.),r,None,,,,,0,1,1,1,0,7,7,7,,,,,,,,,,,,,,,,,,,,,,,,,,,,,,,,,,,,,,,,,,,1.565,289.80083309998736,None,291.37407870031893,None,None,1,,291.37407870031893,None,293.37674990016967,None,,,,,,,,,,,,,,,,,,,,,,,,,,,,,,,P007,fencog,2,Pre,2021_Aug_04_1130,N-Back (New Version 2021),2021.1.4,119.77783610697595,
Conditions/Version_2Pr/oneback(1)_v2.xlsx,New rule: Press 'space' when you see 1-back (i.e. the same letter as the one that appeared 1 letter ago.),R,space,,,,,0,1,1,1,0,8,8,8,,,,,,,,,,,,,,,,,,,,,,,,,,,,,,,,,,,,,,,,,,,1.89,294.8740678001195,None,296.7735629999079,None,space,1,0.4859582995995879,296.7735629999079,None,297.27986240014434,None,,,,,,,,,,,,,,,,,,,,,,,,,,,,,,,P007,fencog,2,Pre,2021_Aug_04_1130,N-Back (New Version 2021),2021.1.4,119.77783610697595,
Conditions/Version_2Pr/oneback(1)_v2.xlsx,New rule: Press 'space' when you see 1-back (i.e. the same letter as the one that appeared 1 letter ago.),p,None,,,,,0,1,1,1,0,9,9,9,,,,,,,,,,,,,,,,,,,,,,,,,,,,,,,,,,,,,,,,,,,1.69,298.78365630004555,None,300.4879777999595,None,None,1,,300.4879777999595,None,302.4905175999738,None,,,,,,,,,,,,,,,,,,,,,,,,,,,,,,,P007,fencog,2,Pre,2021_Aug_04_1130,N-Back (New Version 2021),2021.1.4,119.77783610697595,
Conditions/Version_2Pr/oneback(1)_v2.xlsx,New rule: Press 'space' when you see 1-back (i.e. the same letter as the one that appeared 1 letter ago.),,,,,,,0,1,1,1,,,,,,,,,,,,,,,,,,,,,,,,,,,,,,,,,,,,,,,,,,,,,,,,,,,,,,,,,,,,,,,,,,,,,,,,,,,,,,,,,,,,,,,,,P007,fencog,2,Pre,2021_Aug_04_1130,N-Back (New Version 2021),2021.1.4,119.77783610697595,
Conditions/Version_2Pr/twoback(1)_v2.xlsx,New rule: Press 'space' when you see 2-back (i.e. the same letter as the one that appeared 2 letters ago.),r,None,,,,,0,2,2,2,0,0,0,0,,,,,,,,,,,,,,,,,,,,,,,,,,,,,,,,,304.0547830001451,None,307.02540630009025,None,space,0.10527680022642016,307.02540630009025,None,304.0547830001451,None,1.665,307.15209020022303,None,308.8274242002517,None,None,1,,308.8274242002517,None,310.8344706003554,None,,,,,,,,,,,,,,,,,,,,,,,,,,,,,,,P007,fencog,2,Pre,2021_Aug_04_1130,N-Back (New Version 2021),2021.1.4,119.77783610697595,
Conditions/Version_2Pr/twoback(1)_v2.xlsx,New rule: Press 'space' when you see 2-back (i.e. the same letter as the one that appeared 2 letters ago.),P,None,,,,,0,2,2,2,0,1,1,1,,,,,,,,,,,,,,,,,,,,,,,,,,,,,,,,,,,,,,,,,,,1.065,312.32858940027654,None,313.400540899951,None,None,1,,313.400540899951,None,315.40417509991676,None,,,,,,,,,,,,,,,,,,,,,,,,,,,,,,,P007,fencog,2,Pre,2021_Aug_04_1130,N-Back (New Version 2021),2021.1.4,119.77783610697595,
Conditions/Version_2Pr/twoback(1)_v2.xlsx,New rule: Press 'space' when you see 2-back (i.e. the same letter as the one that appeared 2 letters ago.),o,None,,,,,0,2,2,2,0,2,2,2,,,,,,,,,,,,,,,,,,,,,,,,,,,,,,,,,,,,,,,,,,,1.54,316.9022254999727,None,318.4528135000728,None,None,1,,318.4528135000728,None,320.45604149997234,None,,,,,,,,,,,,,,,,,,,,,,,,,,,,,,,P007,fencog,2,Pre,2021_Aug_04_1130,N-Back (New Version 2021),2021.1.4,119.77783610697595,
Conditions/Version_2Pr/twoback(1)_v2.xlsx,New rule: Press 'space' when you see 2-back (i.e. the same letter as the one that appeared 2 letters ago.),p,space,,,,,0,2,2,2,0,3,3,3,,,,,,,,,,,,,,,,,,,,,,,,,,,,,,,,,,,,,,,,,,,1.415,321.9500855002552,None,323.3729364001192,None,space,1,0.34263839991763234,323.3729364001192,None,323.7304970002733,None,,,,,,,,,,,,,,,,,,,,,,,,,,,,,,,P007,fencog,2,Pre,2021_Aug_04_1130,N-Back (New Version 2021),2021.1.4,119.77783610697595,
Conditions/Version_2Pr/twoback(1)_v2.xlsx,New rule: Press 'space' when you see 2-back (i.e. the same letter as the one that appeared 2 letters ago.),Y,None,,,,,0,2,2,2,0,4,4,4,,,,,,,,,,,,,,,,,,,,,,,,,,,,,,,,,,,,,,,,,,,1.19,325.235240300186,None,326.439116100315,None,None,1,,326.439116100315,None,328.4423593999818,None,,,,,,,,,,,,,,,,,,,,,,,,,,,,,,,P007,fencog,2,Pre,2021_Aug_04_1130,N-Back (New Version 2021),2021.1.4,119.77783610697595,
Conditions/Version_2Pr/twoback(1)_v2.xlsx,New rule: Press 'space' when you see 2-back (i.e. the same letter as the one that appeared 2 letters ago.),q,None,,,,,0,2,2,2,0,5,5,5,,,,,,,,,,,,,,,,,,,,,,,,,,,,,,,,,,,,,,,,,,,1.74,329.93979889992625,None,331.6888234000653,None,None,1,,331.6888234000653,None,333.6933788000606,None,,,,,,,,,,,,,,,,,,,,,,,,,,,,,,,P007,fencog,2,Pre,2021_Aug_04_1130,N-Back (New Version 2021),2021.1.4,119.77783610697595,
Conditions/Version_2Pr/twoback(1)_v2.xlsx,New rule: Press 'space' when you see 2-back (i.e. the same letter as the one that appeared 2 letters ago.),m,None,,,,,0,2,2,2,0,6,6,6,,,,,,,,,,,,,,,,,,,,,,,,,,,,,,,,,,,,,,,,,,,1.34,335.18826620001346,None,336.5357690001838,None,None,1,,336.5357690001838,None,338.53500350005925,None,,,,,,,,,,,,,,,,,,,,,,,,,,,,,,,P007,fencog,2,Pre,2021_Aug_04_1130,N-Back (New Version 2021),2021.1.4,119.77783610697595,
Conditions/Version_2Pr/twoback(1)_v2.xlsx,New rule: Press 'space' when you see 2-back (i.e. the same letter as the one that appeared 2 letters ago.),Q,space,,,,,0,2,2,2,0,7,7,7,,,,,,,,,,,,,,,,,,,,,,,,,,,,,,,,,,,,,,,,,,,1.69,340.036348100286,None,341.740177300293,None,space,1,0.6231095995754004,341.740177300293,None,342.3860034001991,None,,,,,,,,,,,,,,,,,,,,,,,,,,,,,,,P007,fencog,2,Pre,2021_Aug_04_1130,N-Back (New Version 2021),2021.1.4,119.77783610697595,
Conditions/Version_2Pr/twoback(1)_v2.xlsx,New rule: Press 'space' when you see 2-back (i.e. the same letter as the one that appeared 2 letters ago.),L,None,,,,,0,2,2,2,0,8,8,8,,,,,,,,,,,,,,,,,,,,,,,,,,,,,,,,,,,,,,,,,,,1.09,343.8944967999123,None,344.99421770032495,None,None,1,,344.99421770032495,None,346.98854009993374,None,,,,,,,,,,,,,,,,,,,,,,,,,,,,,,,P007,fencog,2,Pre,2021_Aug_04_1130,N-Back (New Version 2021),2021.1.4,119.77783610697595,
Conditions/Version_2Pr/twoback(1)_v2.xlsx,New rule: Press 'space' when you see 2-back (i.e. the same letter as the one that appeared 2 letters ago.),q,space,,,,,0,2,2,2,0,9,9,9,,,,,,,,,,,,,,,,,,,,,,,,,,,,,,,,,,,,,,,,,,,1.565,348.49178950022906,None,350.0646093003452,None,None,0,,350.0646093003452,None,352.07983139995486,None,,,,,,,,,,,,,,,,,,,,,,,,,,,,,,,P007,fencog,2,Pre,2021_Aug_04_1130,N-Back (New Version 2021),2021.1.4,119.77783610697595,
Conditions/Version_2Pr/twoback(1)_v2.xlsx,New rule: Press 'space' when you see 2-back (i.e. the same letter as the one that appeared 2 letters ago.),,,,,,,0,2,2,2,,,,,,,,,,,,,,,,,,,,,,,,,,,,,,,,,,,,,,,,,,,,,,,,,,,,,,,,,,,,,,,,,,,,,,,,,,,,,,,,,,,,,,,,,P007,fencog,2,Pre,2021_Aug_04_1130,N-Back (New Version 2021),2021.1.4,119.77783610697595,
Conditions/Version_2Pr/threeback(1)_v2.xlsx,New rule: Press 'space' when you see 3-back (i.e. the same letter as the one that appeared 3 letters ago.),u,None,,,,,0,3,3,3,0,0,0,0,,,,,,,,,,,,,,,,,,,,,,,,,,,,,,,,,353.6145778000355,None,356.59179829992354,None,space,1.298685499932617,356.59179829992354,None,353.6145778000355,None,1.59,357.91183090023696,None,359.51299980003387,None,None,1,,359.51299980003387,None,361.520304299891,None,,,,,,,,,,,,,,,,,,,,,,,,,,,,,,,P007,fencog,2,Pre,2021_Aug_04_1130,N-Back (New Version 2021),2021.1.4,119.77783610697595,
Conditions/Version_2Pr/threeback(1)_v2.xlsx,New rule: Press 'space' when you see 3-back (i.e. the same letter as the one that appeared 3 letters ago.),U,None,,,,,0,3,3,3,0,1,1,1,,,,,,,,,,,,,,,,,,,,,,,,,,,,,,,,,,,,,,,,,,,1.19,363.0143303000368,None,364.21092890016735,None,None,1,,364.21092890016735,None,366.21553110005334,None,,,,,,,,,,,,,,,,,,,,,,,,,,,,,,,P007,fencog,2,Pre,2021_Aug_04_1130,N-Back (New Version 2021),2021.1.4,119.77783610697595,
Conditions/Version_2Pr/threeback(1)_v2.xlsx,New rule: Press 'space' when you see 3-back (i.e. the same letter as the one that appeared 3 letters ago.),p,None,,,,,0,3,3,3,0,2,2,2,,,,,,,,,,,,,,,,,,,,,,,,,,,,,,,,,,,,,,,,,,,1.515,367.7113733002916,None,369.23395870020613,None,None,1,,369.23395870020613,None,371.23837159993127,None,,,,,,,,,,,,,,,,,,,,,,,,,,,,,,,P007,fencog,2,Pre,2021_Aug_04_1130,N-Back (New Version 2021),2021.1.4,119.77783610697595,
Conditions/Version_2Pr/threeback(1)_v2.xlsx,New rule: Press 'space' when you see 3-back (i.e. the same letter as the one that appeared 3 letters ago.),U,space,,,,,0,3,3,3,0,3,3,3,,,,,,,,,,,,,,,,,,,,,,,,,,,,,,,,,,,,,,,,,,,1.79,372.7354369000532,None,374.53273109998554,None,space,1,0.3504090001806617,374.53273109998554,None,374.90413850033656,None,,,,,,,,,,,,,,,,,,,,,,,,,,,,,,,P007,fencog,2,Pre,2021_Aug_04_1130,N-Back (New Version 2021),2021.1.4,119.77783610697595,
Conditions/Version_2Pr/threeback(1)_v2.xlsx,New rule: Press 'space' when you see 3-back (i.e. the same letter as the one that appeared 3 letters ago.),e,None,,,,,0,3,3,3,0,4,4,4,,,,,,,,,,,,,,,,,,,,,,,,,,,,,,,,,,,,,,,,,,,1.39,376.4098690999672,None,377.8065587999299,None,None,1,,377.8065587999299,None,379.80577989993617,None,,,,,,,,,,,,,,,,,,,,,,,,,,,,,,,P007,fencog,2,Pre,2021_Aug_04_1130,N-Back (New Version 2021),2021.1.4,119.77783610697595,
Conditions/Version_2Pr/threeback(1)_v2.xlsx,New rule: Press 'space' when you see 3-back (i.e. the same letter as the one that appeared 3 letters ago.),R,None,,,,,0,3,3,3,0,5,5,5,,,,,,,,,,,,,,,,,,,,,,,,,,,,,,,,,,,,,,,,,,,1.615,381.3068233001977,None,382.9305251003243,None,None,1,,382.9305251003243,None,384.9365440001711,None,,,,,,,,,,,,,,,,,,,,,,,,,,,,,,,P007,fencog,2,Pre,2021_Aug_04_1130,N-Back (New Version 2021),2021.1.4,119.77783610697595,
Conditions/Version_2Pr/threeback(1)_v2.xlsx,New rule: Press 'space' when you see 3-back (i.e. the same letter as the one that appeared 3 letters ago.),p,None,,,,,0,3,3,3,0,6,6,6,,,,,,,,,,,,,,,,,,,,,,,,,,,,,,,,,,,,,,,,,,,1.865,386.43063329998404,None,388.30419540032744,None,None,1,,388.30419540032744,None,390.3100771000609,None,,,,,,,,,,,,,,,,,,,,,,,,,,,,,,,P007,fencog,2,Pre,2021_Aug_04_1130,N-Back (New Version 2021),2021.1.4,119.77783610697595,
Conditions/Version_2Pr/threeback(1)_v2.xlsx,New rule: Press 'space' when you see 3-back (i.e. the same letter as the one that appeared 3 letters ago.),E,space,,,,,0,3,3,3,0,7,7,7,,,,,,,,,,,,,,,,,,,,,,,,,,,,,,,,,,,,,,,,,,,1.94,391.8045453000814,None,393.7548287999816,None,space,1,0.36841849982738495,393.7548287999816,None,394.14439760008827,None,,,,,,,,,,,,,,,,,,,,,,,,,,,,,,,P007,fencog,2,Pre,2021_Aug_04_1130,N-Back (New Version 2021),2021.1.4,119.77783610697595,
Conditions/Version_2Pr/threeback(1)_v2.xlsx,New rule: Press 'space' when you see 3-back (i.e. the same letter as the one that appeared 3 letters ago.),k,None,,,,,0,3,3,3,0,8,8,8,,,,,,,,,,,,,,,,,,,,,,,,,,,,,,,,,,,,,,,,,,,1.765,395.64574930025265,None,397.4209548002109,None,None,1,,397.4209548002109,None,399.41858240030706,None,,,,,,,,,,,,,,,,,,,,,,,,,,,,,,,P007,fencog,2,Pre,2021_Aug_04_1130,N-Back (New Version 2021),2021.1.4,119.77783610697595,
Conditions/Version_2Pr/threeback(1)_v2.xlsx,New rule: Press 'space' when you see 3-back (i.e. the same letter as the one that appeared 3 letters ago.),m,None,,,,,0,3,3,3,0,9,9,9,,,,,,,,,,,,,,,,,,,,,,,,,,,,,,,,,,,,,,,,,,,1.315,400.918276600074,None,402.2416781000793,None,None,1,,402.2416781000793,None,404.24197810003534,None,,,,,,,,,,,,,,,,,,,,,,,,,,,,,,,P007,fencog,2,Pre,2021_Aug_04_1130,N-Back (New Version 2021),2021.1.4,119.77783610697595,
Conditions/Version_2Pr/threeback(1)_v2.xlsx,New rule: Press 'space' when you see 3-back (i.e. the same letter as the one that appeared 3 letters ago.),,,,,,,0,3,3,3,,,,,,,,,,,,,,,,,,,,,,,,,,,,,,,,,,,,,,,,,,,,,,,,,,,,,,,,,,,,,,,,,,,,,,,,,,,,,,,,,,,,,,,,,P007,fencog,2,Pre,2021_Aug_04_1130,N-Back (New Version 2021),2021.1.4,119.77783610697595,
,,,,,,,,,,,,,,,,,,,,,,,,,,,,,,,,,,,,,,,,,,,,,,,,,,,,,,,,,,,,,,,,,,,,,,405.7586747999303,None,space,0.6575338998809457,406.24980350025,None,,,,,,,,,,,,,,,,,,,,,,,,,P007,fencog,2,Pre,2021_Aug_04_1130,N-Back (New Version 2021),2021.1.4,119.77783610697595,
,,,,,,,,,,,,,,,,,,,,,,,,,,,,,,,,,,,,,,,,,,,,,,,,,,,,,,,,,,,,,,,,,,,,,,,,,,,,406.9461755999364,None,space,4.499557400122285,407.44003019994125,None,,,,,,,,,,,,,,,,,,,P007,fencog,2,Pre,2021_Aug_04_1130,N-Back (New Version 2021),2021.1.4,119.77783610697595,
,,,,Conditions/Version_1/zeroback(1)_v1.xlsx,Rule: Press 'space' when you see the letter 'x' or 'X'.,b,None,,,,,,,,,0,0,0,0,0,0,0,0,,,,,,,,,,,,,,,,,,,,,,,,,,,,,,,,,,,,,,,,,,,,,,,,,,,,,,,,,,,412.07916840026155,None,415.06618309998885,None,space,0.4883348997682333,415.06618309998885,None,412.07916840026155,None,1.4378,417.03141640033573,None,None,1,417.03141640033573,None,,P007,fencog,2,Pre,2021_Aug_04_1130,N-Back (New Version 2021),2021.1.4,119.77783610697595,
,,,,Conditions/Version_1/zeroback(1)_v1.xlsx,Rule: Press 'space' when you see the letter 'x' or 'X'.,T,None,,,,,,,,,0,0,0,0,0,1,1,1,,,,,,,,,,,,,,,,,,,,,,,,,,,,,,,,,,,,,,,,,,,,,,,,,,,,,,,,,,,,,,,,,,,,,1.4254,420.4722074000165,None,None,1,420.4722074000165,None,,P007,fencog,2,Pre,2021_Aug_04_1130,N-Back (New Version 2021),2021.1.4,119.77783610697595,
,,,,Conditions/Version_1/zeroback(1)_v1.xlsx,Rule: Press 'space' when you see the letter 'x' or 'X'.,L,None,,,,,,,,,0,0,0,0,0,2,2,2,,,,,,,,,,,,,,,,,,,,,,,,,,,,,,,,,,,,,,,,,,,,,,,,,,,,,,,,,,,,,,,,,,,,,1.1402,423.62570830015466,None,None,1,423.62570830015466,None,,P007,fencog,2,Pre,2021_Aug_04_1130,N-Back (New Version 2021),2021.1.4,119.77783610697595,
,,,,Conditions/Version_1/zeroback(1)_v1.xlsx,Rule: Press 'space' when you see the letter 'x' or 'X'.,x,space,,,,,,,,,0,0,0,0,0,3,3,3,,,,,,,,,,,,,,,,,,,,,,,,,,,,,,,,,,,,,,,,,,,,,,,,,,,,,,,,,,,,,,,,,,,,,1.9834,427.61623120028526,None,space,1,427.61623120028526,None,1.5469180000945926,P007,fencog,2,Pre,2021_Aug_04_1130,N-Back (New Version 2021),2021.1.4,119.77783610697595,
,,,,Conditions/Version_1/zeroback(1)_v1.xlsx,Rule: Press 'space' when you see the letter 'x' or 'X'.,o,None,,,,,,,,,0,0,0,0,0,4,4,4,,,,,,,,,,,,,,,,,,,,,,,,,,,,,,,,,,,,,,,,,,,,,,,,,,,,,,,,,,,,,,,,,,,,,1.8842,431.5149314003065,None,None,1,431.5149314003065,None,,P007,fencog,2,Pre,2021_Aug_04_1130,N-Back (New Version 2021),2021.1.4,119.77783610697595,
,,,,Conditions/Version_1/zeroback(1)_v1.xlsx,Rule: Press 'space' when you see the letter 'x' or 'X'.,P,None,,,,,,,,,0,0,0,0,0,5,5,5,,,,,,,,,,,,,,,,,,,,,,,,,,,,,,,,,,,,,,,,,,,,,,,,,,,,,,,,,,,,,,,,,,,,,1.4626,434.99781760014594,None,None,1,434.99781760014594,None,,P007,fencog,2,Pre,2021_Aug_04_1130,N-Back (New Version 2021),2021.1.4,119.77783610697595,
,,,,Conditions/Version_1/zeroback(1)_v1.xlsx,Rule: Press 'space' when you see the letter 'x' or 'X'.,X,space,,,,,,,,,0,0,0,0,0,6,6,6,,,,,,,,,,,,,,,,,,,,,,,,,,,,,,,,,,,,,,,,,,,,,,,,,,,,,,,,,,,,,,,,,,,,,1.568,438.5790368001908,None,space,1,438.5790368001908,None,0.4476972003467381,P007,fencog,2,Pre,2021_Aug_04_1130,N-Back (New Version 2021),2021.1.4,119.77783610697595,
,,,,Conditions/Version_1/zeroback(1)_v1.xlsx,Rule: Press 'space' when you see the letter 'x' or 'X'.,n,None,,,,,,,,,0,0,0,0,0,7,7,7,,,,,,,,,,,,,,,,,,,,,,,,,,,,,,,,,,,,,,,,,,,,,,,,,,,,,,,,,,,,,,,,,,,,,1.0968,441.6999911000021,None,None,1,441.6999911000021,None,,P007,fencog,2,Pre,2021_Aug_04_1130,N-Back (New Version 2021),2021.1.4,119.77783610697595,
,,,,Conditions/Version_1/zeroback(1)_v1.xlsx,Rule: Press 'space' when you see the letter 'x' or 'X'.,M,None,,,,,,,,,0,0,0,0,0,8,8,8,,,,,,,,,,,,,,,,,,,,,,,,,,,,,,,,,,,,,,,,,,,,,,,,,,,,,,,,,,,,,,,,,,,,,1.971,445.6804333003238,None,None,1,445.6804333003238,None,,P007,fencog,2,Pre,2021_Aug_04_1130,N-Back (New Version 2021),2021.1.4,119.77783610697595,
,,,,Conditions/Version_1/zeroback(1)_v1.xlsx,Rule: Press 'space' when you see the letter 'x' or 'X'.,a,None,,,,,,,,,0,0,0,0,0,9,9,9,,,,,,,,,,,,,,,,,,,,,,,,,,,,,,,,,,,,,,,,,,,,,,,,,,,,,,,,,,,,,,,,,,,,,1.599,449.2944527002983,None,None,1,449.2944527002983,None,,P007,fencog,2,Pre,2021_Aug_04_1130,N-Back (New Version 2021),2021.1.4,119.77783610697595,
,,,,Conditions/Version_1/zeroback(1)_v1.xlsx,Rule: Press 'space' when you see the letter 'x' or 'X'.,,,,,,,,,,,0,0,0,0,,,,,,,,,,,,,,,,,,,,,,,,,,,,,,,,,,,,,,,,,,,,,,,,,,,,,,,,,,,,,,,,,,,,,,,,,,,,,,,,,P007,fencog,2,Pre,2021_Aug_04_1130,N-Back (New Version 2021),2021.1.4,119.77783610697595,
,,,,Conditions/Version_1/oneback(1)_v1.xlsx,New rule: Press 'space' when you see 1-back (i.e. the same letter as the one that appeared 1 letter ago.),b,None,,,,,,,,,0,1,1,1,0,0,0,0,,,,,,,,,,,,,,,,,,,,,,,,,,,,,,,,,,,,,,,,,,,,,,,,,,,,,,,,,,,451.34074230026454,None,454.3214262002148,None,space,0.512784100137651,454.3214262002148,None,451.34074230026454,None,1.5122,456.38414430012926,None,None,1,456.38414430012926,None,,P007,fencog,2,Pre,2021_Aug_04_1130,N-Back (New Version 2021),2021.1.4,119.77783610697595,
,,,,Conditions/Version_1/oneback(1)_v1.xlsx,New rule: Press 'space' when you see 1-back (i.e. the same letter as the one that appeared 1 letter ago.),p,None,,,,,,,,,0,1,1,1,0,1,1,1,,,,,,,,,,,,,,,,,,,,,,,,,,,,,,,,,,,,,,,,,,,,,,,,,,,,,,,,,,,,,,,,,,,,,1.9524,460.3561704000458,None,None,1,460.3561704000458,None,,P007,fencog,2,Pre,2021_Aug_04_1130,N-Back (New Version 2021),2021.1.4,119.77783610697595,
,,,,Conditions/Version_1/oneback(1)_v1.xlsx,New rule: Press 'space' when you see 1-back (i.e. the same letter as the one that appeared 1 letter ago.),M,None,,,,,,,,,0,1,1,1,0,2,2,2,,,,,,,,,,,,,,,,,,,,,,,,,,,,,,,,,,,,,,,,,,,,,,,,,,,,,,,,,,,,,,,,,,,,,1.3572,463.7224925002083,None,None,1,463.7224925002083,None,,P007,fencog,2,Pre,2021_Aug_04_1130,N-Back (New Version 2021),2021.1.4,119.77783610697595,
,,,,Conditions/Version_1/oneback(1)_v1.xlsx,New rule: Press 'space' when you see 1-back (i.e. the same letter as the one that appeared 1 letter ago.),M,space,,,,,,,,,0,1,1,1,0,3,3,3,,,,,,,,,,,,,,,,,,,,,,,,,,,,,,,,,,,,,,,,,,,,,,,,,,,,,,,,,,,,,,,,,,,,,1.6114,467.3410813002847,None,space,1,467.3410813002847,None,0.4059536997228861,P007,fencog,2,Pre,2021_Aug_04_1130,N-Back (New Version 2021),2021.1.4,119.77783610697595,
,,,,Conditions/Version_1/oneback(1)_v1.xlsx,New rule: Press 'space' when you see 1-back (i.e. the same letter as the one that appeared 1 letter ago.),n,None,,,,,,,,,0,1,1,1,0,4,4,4,,,,,,,,,,,,,,,,,,,,,,,,,,,,,,,,,,,,,,,,,,,,,,,,,,,,,,,,,,,,,,,,,,,,,1.8594,471.220299300272,None,None,1,471.220299300272,None,,P007,fencog,2,Pre,2021_Aug_04_1130,N-Back (New Version 2021),2021.1.4,119.77783610697595,
,,,,Conditions/Version_1/oneback(1)_v1.xlsx,New rule: Press 'space' when you see 1-back (i.e. the same letter as the one that appeared 1 letter ago.),g,None,,,,,,,,,0,1,1,1,0,5,5,5,,,,,,,,,,,,,,,,,,,,,,,,,,,,,,,,,,,,,,,,,,,,,,,,,,,,,,,,,,,,,,,,,,,,,1.9338,475.1730591002852,None,None,1,475.1730591002852,None,,P007,fencog,2,Pre,2021_Aug_04_1130,N-Back (New Version 2021),2021.1.4,119.77783610697595,
,,,,Conditions/Version_1/oneback(1)_v1.xlsx,New rule: Press 'space' when you see 1-back (i.e. the same letter as the one that appeared 1 letter ago.),P,None,,,,,,,,,0,1,1,1,0,6,6,6,,,,,,,,,,,,,,,,,,,,,,,,,,,,,,,,,,,,,,,,,,,,,,,,,,,,,,,,,,,,,,,,,,,,,1.134,478.31776469992474,None,None,1,478.31776469992474,None,,P007,fencog,2,Pre,2021_Aug_04_1130,N-Back (New Version 2021),2021.1.4,119.77783610697595,
,,,,Conditions/Version_1/oneback(1)_v1.xlsx,New rule: Press 'space' when you see 1-back (i.e. the same letter as the one that appeared 1 letter ago.),o,None,,,,,,,,,0,1,1,1,0,7,7,7,,,,,,,,,,,,,,,,,,,,,,,,,,,,,,,,,,,,,,,,,,,,,,,,,,,,,,,,,,,,,,,,,,,,,1.8222,482.15160300023854,None,None,1,482.15160300023854,None,,P007,fencog,2,Pre,2021_Aug_04_1130,N-Back (New Version 2021),2021.1.4,119.77783610697595,
,,,,Conditions/Version_1/oneback(1)_v1.xlsx,New rule: Press 'space' when you see 1-back (i.e. the same letter as the one that appeared 1 letter ago.),f,None,,,,,,,,,0,1,1,1,0,8,8,8,,,,,,,,,,,,,,,,,,,,,,,,,,,,,,,,,,,,,,,,,,,,,,,,,,,,,,,,,,,,,,,,,,,,,1.537,485.70216940017417,None,None,1,485.70216940017417,None,,P007,fencog,2,Pre,2021_Aug_04_1130,N-Back (New Version 2021),2021.1.4,119.77783610697595,
,,,,Conditions/Version_1/oneback(1)_v1.xlsx,New rule: Press 'space' when you see 1-back (i.e. the same letter as the one that appeared 1 letter ago.),F,space,,,,,,,,,0,1,1,1,0,9,9,9,,,,,,,,,,,,,,,,,,,,,,,,,,,,,,,,,,,,,,,,,,,,,,,,,,,,,,,,,,,,,,,,,,,,,1.413,489.12696130014956,None,space,1,489.12696130014956,None,0.3481553001329303,P007,fencog,2,Pre,2021_Aug_04_1130,N-Back (New Version 2021),2021.1.4,119.77783610697595,
,,,,Conditions/Version_1/oneback(1)_v1.xlsx,New rule: Press 'space' when you see 1-back (i.e. the same letter as the one that appeared 1 letter ago.),,,,,,,,,,,0,1,1,1,,,,,,,,,,,,,,,,,,,,,,,,,,,,,,,,,,,,,,,,,,,,,,,,,,,,,,,,,,,,,,,,,,,,,,,,,,,,,,,,,P007,fencog,2,Pre,2021_Aug_04_1130,N-Back (New Version 2021),2021.1.4,119.77783610697595,
,,,,Conditions/Version_1/twoback(1)_v1.xlsx,New rule: Press 'space' when you see 2-back (i.e. the same letter as the one that appeared 2 letters ago.),b,None,,,,,,,,,0,2,2,2,0,0,0,0,,,,,,,,,,,,,,,,,,,,,,,,,,,,,,,,,,,,,,,,,,,,,,,,,,,,,,,,,,,491.1694876002148,None,494.15480619994923,None,space,1.0795673001557589,494.15480619994923,None,491.1694876002148,None,1.1774,496.445676300209,None,None,1,496.445676300209,None,,P007,fencog,2,Pre,2021_Aug_04_1130,N-Back (New Version 2021),2021.1.4,119.77783610697595,
,,,,Conditions/Version_1/twoback(1)_v1.xlsx,New rule: Press 'space' when you see 2-back (i.e. the same letter as the one that appeared 2 letters ago.),h,None,,,,,,,,,0,2,2,2,0,1,1,1,,,,,,,,,,,,,,,,,,,,,,,,,,,,,,,,,,,,,,,,,,,,,,,,,,,,,,,,,,,,,,,,,,,,,1.1588,499.6235067001544,None,None,1,499.6235067001544,None,,P007,fencog,2,Pre,2021_Aug_04_1130,N-Back (New Version 2021),2021.1.4,119.77783610697595,
,,,,Conditions/Version_1/twoback(1)_v1.xlsx,New rule: Press 'space' when you see 2-back (i.e. the same letter as the one that appeared 2 letters ago.),j,None,,,,,,,,,0,2,2,2,0,2,2,2,,,,,,,,,,,,,,,,,,,,,,,,,,,,,,,,,,,,,,,,,,,,,,,,,,,,,,,,,,,,,,,,,,,,,1.0906,502.7244887999259,None,None,1,502.7244887999259,None,,P007,fencog,2,Pre,2021_Aug_04_1130,N-Back (New Version 2021),2021.1.4,119.77783610697595,
,,,,Conditions/Version_1/twoback(1)_v1.xlsx,New rule: Press 'space' when you see 2-back (i.e. the same letter as the one that appeared 2 letters ago.),H,space,,,,,,,,,0,2,2,2,0,3,3,3,,,,,,,,,,,,,,,,,,,,,,,,,,,,,,,,,,,,,,,,,,,,,,,,,,,,,,,,,,,,,,,,,,,,,1.0286,505.75613430002704,None,space,1,505.75613430002704,None,0.8310758001171052,P007,fencog,2,Pre,2021_Aug_04_1130,N-Back (New Version 2021),2021.1.4,119.77783610697595,
,,,,Conditions/Version_1/twoback(1)_v1.xlsx,New rule: Press 'space' when you see 2-back (i.e. the same letter as the one that appeared 2 letters ago.),p,None,,,,,,,,,0,2,2,2,0,4,4,4,,,,,,,,,,,,,,,,,,,,,,,,,,,,,,,,,,,,,,,,,,,,,,,,,,,,,,,,,,,,,,,,,,,,,1.258,509.02566350018606,None,None,1,509.02566350018606,None,,P007,fencog,2,Pre,2021_Aug_04_1130,N-Back (New Version 2021),2021.1.4,119.77783610697595,
,,,,Conditions/Version_1/twoback(1)_v1.xlsx,New rule: Press 'space' when you see 2-back (i.e. the same letter as the one that appeared 2 letters ago.),p,None,,,,,,,,,0,2,2,2,0,5,5,5,,,,,,,,,,,,,,,,,,,,,,,,,,,,,,,,,,,,,,,,,,,,,,,,,,,,,,,,,,,,,,,,,,,,,1.0224,512.0531794000417,None,None,1,512.0531794000417,None,,P007,fencog,2,Pre,2021_Aug_04_1130,N-Back (New Version 2021),2021.1.4,119.77783610697595,
,,,,Conditions/Version_1/twoback(1)_v1.xlsx,New rule: Press 'space' when you see 2-back (i.e. the same letter as the one that appeared 2 letters ago.),w,None,,,,,,,,,0,2,2,2,0,6,6,6,,,,,,,,,,,,,,,,,,,,,,,,,,,,,,,,,,,,,,,,,,,,,,,,,,,,,,,,,,,,,,,,,,,,,1.785,515.8507505003363,None,None,1,515.8507505003363,None,,P007,fencog,2,Pre,2021_Aug_04_1130,N-Back (New Version 2021),2021.1.4,119.77783610697595,
,,,,Conditions/Version_1/twoback(1)_v1.xlsx,New rule: Press 'space' when you see 2-back (i.e. the same letter as the one that appeared 2 letters ago.),R,None,,,,,,,,,0,2,2,2,0,7,7,7,,,,,,,,,,,,,,,,,,,,,,,,,,,,,,,,,,,,,,,,,,,,,,,,,,,,,,,,,,,,,,,,,,,,,1.4564,519.3232571003027,None,None,1,519.3232571003027,None,,P007,fencog,2,Pre,2021_Aug_04_1130,N-Back (New Version 2021),2021.1.4,119.77783610697595,
,,,,Conditions/Version_1/twoback(1)_v1.xlsx,New rule: Press 'space' when you see 2-back (i.e. the same letter as the one that appeared 2 letters ago.),a,None,,,,,,,,,0,2,2,2,0,8,8,8,,,,,,,,,,,,,,,,,,,,,,,,,,,,,,,,,,,,,,,,,,,,,,,,,,,,,,,,,,,,,,,,,,,,,1.7292,523.0719138002023,None,None,1,523.0719138002023,None,,P007,fencog,2,Pre,2021_Aug_04_1130,N-Back (New Version 2021),2021.1.4,119.77783610697595,
,,,,Conditions/Version_1/twoback(1)_v1.xlsx,New rule: Press 'space' when you see 2-back (i.e. the same letter as the one that appeared 2 letters ago.),r,space,,,,,,,,,0,2,2,2,0,9,9,9,,,,,,,,,,,,,,,,,,,,,,,,,,,,,,,,,,,,,,,,,,,,,,,,,,,,,,,,,,,,,,,,,,,,,1.9276,527.0123334000818,None,space,1,527.0123334000818,None,0.4788243002258241,P007,fencog,2,Pre,2021_Aug_04_1130,N-Back (New Version 2021),2021.1.4,119.77783610697595,
,,,,Conditions/Version_1/twoback(1)_v1.xlsx,New rule: Press 'space' when you see 2-back (i.e. the same letter as the one that appeared 2 letters ago.),,,,,,,,,,,0,2,2,2,,,,,,,,,,,,,,,,,,,,,,,,,,,,,,,,,,,,,,,,,,,,,,,,,,,,,,,,,,,,,,,,,,,,,,,,,,,,,,,,,P007,fencog,2,Pre,2021_Aug_04_1130,N-Back (New Version 2021),2021.1.4,119.77783610697595,
,,,,Conditions/Version_1/threeback(1)_v1.xlsx,New rule: Press 'space' when you see 3-back (i.e. the same letter as the one that appeared 3 letters ago.),r,None,,,,,,,,,0,3,3,3,0,0,0,0,,,,,,,,,,,,,,,,,,,,,,,,,,,,,,,,,,,,,,,,,,,,,,,,,,,,,,,,,,,529.0705416002311,None,532.0517175002024,None,space,0.7991838003508747,532.0517175002024,None,529.0705416002311,None,1.3138,534.1970196003094,None,None,1,534.1970196003094,None,,P007,fencog,2,Pre,2021_Aug_04_1130,N-Back (New Version 2021),2021.1.4,119.77783610697595,
,,,,Conditions/Version_1/threeback(1)_v1.xlsx,New rule: Press 'space' when you see 3-back (i.e. the same letter as the one that appeared 3 letters ago.),o,None,,,,,,,,,0,3,3,3,0,1,1,1,,,,,,,,,,,,,,,,,,,,,,,,,,,,,,,,,,,,,,,,,,,,,,,,,,,,,,,,,,,,,,,,,,,,,1.9648,538.1748329000548,None,None,1,538.1748329000548,None,,P007,fencog,2,Pre,2021_Aug_04_1130,N-Back (New Version 2021),2021.1.4,119.77783610697595,
,,,,Conditions/Version_1/threeback(1)_v1.xlsx,New rule: Press 'space' when you see 3-back (i.e. the same letter as the one that appeared 3 letters ago.),P,None,,,,,,,,,0,3,3,3,0,2,2,2,,,,,,,,,,,,,,,,,,,,,,,,,,,,,,,,,,,,,,,,,,,,,,,,,,,,,,,,,,,,,,,,,,,,,1.4502,541.6407054001465,None,None,1,541.6407054001465,None,,P007,fencog,2,Pre,2021_Aug_04_1130,N-Back (New Version 2021),2021.1.4,119.77783610697595,
,,,,Conditions/Version_1/threeback(1)_v1.xlsx,New rule: Press 'space' when you see 3-back (i.e. the same letter as the one that appeared 3 letters ago.),R,space,,,,,,,,,0,3,3,3,0,3,3,3,,,,,,,,,,,,,,,,,,,,,,,,,,,,,,,,,,,,,,,,,,,,,,,,,,,,,,,,,,,,,,,,,,,,,1.8408,545.4978708000854,None,space,1,545.4978708000854,None,0.9294663001783192,P007,fencog,2,Pre,2021_Aug_04_1130,N-Back (New Version 2021),2021.1.4,119.77783610697595,
,,,,Conditions/Version_1/threeback(1)_v1.xlsx,New rule: Press 'space' when you see 3-back (i.e. the same letter as the one that appeared 3 letters ago.),p,None,,,,,,,,,0,3,3,3,0,4,4,4,,,,,,,,,,,,,,,,,,,,,,,,,,,,,,,,,,,,,,,,,,,,,,,,,,,,,,,,,,,,,,,,,,,,,1.134,548.6473997002468,None,None,1,548.6473997002468,None,,P007,fencog,2,Pre,2021_Aug_04_1130,N-Back (New Version 2021),2021.1.4,119.77783610697595,
,,,,Conditions/Version_1/threeback(1)_v1.xlsx,New rule: Press 'space' when you see 3-back (i.e. the same letter as the one that appeared 3 letters ago.),E,None,,,,,,,,,0,3,3,3,0,5,5,5,,,,,,,,,,,,,,,,,,,,,,,,,,,,,,,,,,,,,,,,,,,,,,,,,,,,,,,,,,,,,,,,,,,,,1.0596,551.7222519000061,None,None,1,551.7222519000061,None,,P007,fencog,2,Pre,2021_Aug_04_1130,N-Back (New Version 2021),2021.1.4,119.77783610697595,
,,,,Conditions/Version_1/threeback(1)_v1.xlsx,New rule: Press 'space' when you see 3-back (i.e. the same letter as the one that appeared 3 letters ago.),e,None,,,,,,,,,0,3,3,3,0,6,6,6,,,,,,,,,,,,,,,,,,,,,,,,,,,,,,,,,,,,,,,,,,,,,,,,,,,,,,,,,,,,,,,,,,,,,1.3262,555.0618700003251,None,None,1,555.0618700003251,None,,P007,fencog,2,Pre,2021_Aug_04_1130,N-Back (New Version 2021),2021.1.4,119.77783610697595,
,,,,Conditions/Version_1/threeback(1)_v1.xlsx,New rule: Press 'space' when you see 3-back (i.e. the same letter as the one that appeared 3 letters ago.),m,None,,,,,,,,,0,3,3,3,0,7,7,7,,,,,,,,,,,,,,,,,,,,,,,,,,,,,,,,,,,,,,,,,,,,,,,,,,,,,,,,,,,,,,,,,,,,,1.8966,558.9688532003202,None,None,1,558.9688532003202,None,,P007,fencog,2,Pre,2021_Aug_04_1130,N-Back (New Version 2021),2021.1.4,119.77783610697595,
,,,,Conditions/Version_1/threeback(1)_v1.xlsx,New rule: Press 'space' when you see 3-back (i.e. the same letter as the one that appeared 3 letters ago.),n,None,,,,,,,,,0,3,3,3,0,8,8,8,,,,,,,,,,,,,,,,,,,,,,,,,,,,,,,,,,,,,,,,,,,,,,,,,,,,,,,,,,,,,,,,,,,,,1.227,562.2106901002117,None,None,1,562.2106901002117,None,,P007,fencog,2,Pre,2021_Aug_04_1130,N-Back (New Version 2021),2021.1.4,119.77783610697595,
,,,,Conditions/Version_1/threeback(1)_v1.xlsx,New rule: Press 'space' when you see 3-back (i.e. the same letter as the one that appeared 3 letters ago.),e,space,,,,,,,,,0,3,3,3,0,9,9,9,,,,,,,,,,,,,,,,,,,,,,,,,,,,,,,,,,,,,,,,,,,,,,,,,,,,,,,,,,,,,,,,,,,,,1.5494,565.7752068000846,None,space,1,565.7752068000846,None,0.58789880014956,P007,fencog,2,Pre,2021_Aug_04_1130,N-Back (New Version 2021),2021.1.4,119.77783610697595,
,,,,Conditions/Version_1/threeback(1)_v1.xlsx,New rule: Press 'space' when you see 3-back (i.e. the same letter as the one that appeared 3 letters ago.),,,,,,,,,,,0,3,3,3,,,,,,,,,,,,,,,,,,,,,,,,,,,,,,,,,,,,,,,,,,,,,,,,,,,,,,,,,,,,,,,,,,,,,,,,,,,,,,,,,P007,fencog,2,Pre,2021_Aug_04_1130,N-Back (New Version 2021),2021.1.4,119.77783610697595,
,,,,Conditions/Version_1/oneback(2)_v1.xlsx,New rule: Press 'space' when you see 1-back (i.e. the same letter as the one that appeared 1 letter ago.),q,None,,,,,,,,,0,4,4,4,0,0,0,0,,,,,,,,,,,,,,,,,,,,,,,,,,,,,,,,,,,,,,,,,,,,,,,,,,,,,,,,,,,567.7967463000678,None,570.7828295002691,None,space,0.9476718003861606,570.7828295002691,None,567.7967463000678,None,1.6796,573.4501245999709,None,None,1,573.4501245999709,None,,P007,fencog,2,Pre,2021_Aug_04_1130,N-Back (New Version 2021),2021.1.4,119.77783610697595,
,,,,Conditions/Version_1/oneback(2)_v1.xlsx,New rule: Press 'space' when you see 1-back (i.e. the same letter as the one that appeared 1 letter ago.),Q,space,,,,,,,,,0,4,4,4,0,1,1,1,,,,,,,,,,,,,,,,,,,,,,,,,,,,,,,,,,,,,,,,,,,,,,,,,,,,,,,,,,,,,,,,,,,,,1.196,576.656759200152,None,space,1,576.656759200152,None,1.6823853002861142,P007,fencog,2,Pre,2021_Aug_04_1130,N-Back (New Version 2021),2021.1.4,119.77783610697595,
,,,,Conditions/Version_1/oneback(2)_v1.xlsx,New rule: Press 'space' when you see 1-back (i.e. the same letter as the one that appeared 1 letter ago.),P,None,,,,,,,,,0,4,4,4,0,2,2,2,,,,,,,,,,,,,,,,,,,,,,,,,,,,,,,,,,,,,,,,,,,,,,,,,,,,,,,,,,,,,,,,,,,,,1.5432,580.2154560000636,None,None,1,580.2154560000636,None,,P007,fencog,2,Pre,2021_Aug_04_1130,N-Back (New Version 2021),2021.1.4,119.77783610697595,
,,,,Conditions/Version_1/oneback(2)_v1.xlsx,New rule: Press 'space' when you see 1-back (i.e. the same letter as the one that appeared 1 letter ago.),o,None,,,,,,,,,0,4,4,4,0,3,3,3,,,,,,,,,,,,,,,,,,,,,,,,,,,,,,,,,,,,,,,,,,,,,,,,,,,,,,,,,,,,,,,,,,,,,1.0596,583.2871670001186,None,None,1,583.2871670001186,None,,P007,fencog,2,Pre,2021_Aug_04_1130,N-Back (New Version 2021),2021.1.4,119.77783610697595,
,,,,Conditions/Version_1/oneback(2)_v1.xlsx,New rule: Press 'space' when you see 1-back (i.e. the same letter as the one that appeared 1 letter ago.),m,None,,,,,,,,,0,4,4,4,0,4,4,4,,,,,,,,,,,,,,,,,,,,,,,,,,,,,,,,,,,,,,,,,,,,,,,,,,,,,,,,,,,,,,,,,,,,,1.1154,586.4197217999026,None,None,1,586.4197217999026,None,,P007,fencog,2,Pre,2021_Aug_04_1130,N-Back (New Version 2021),2021.1.4,119.77783610697595,
,,,,Conditions/Version_1/oneback(2)_v1.xlsx,New rule: Press 'space' when you see 1-back (i.e. the same letter as the one that appeared 1 letter ago.),Z,None,,,,,,,,,0,4,4,4,0,5,5,5,,,,,,,,,,,,,,,,,,,,,,,,,,,,,,,,,,,,,,,,,,,,,,,,,,,,,,,,,,,,,,,,,,,,,1.8408,590.2794763999991,None,None,1,590.2794763999991,None,,P007,fencog,2,Pre,2021_Aug_04_1130,N-Back (New Version 2021),2021.1.4,119.77783610697595,
,,,,Conditions/Version_1/oneback(2)_v1.xlsx,New rule: Press 'space' when you see 1-back (i.e. the same letter as the one that appeared 1 letter ago.),c,None,,,,,,,,,0,4,4,4,0,6,6,6,,,,,,,,,,,,,,,,,,,,,,,,,,,,,,,,,,,,,,,,,,,,,,,,,,,,,,,,,,,,,,,,,,,,,1.289,593.5794200003147,None,None,1,593.5794200003147,None,,P007,fencog,2,Pre,2021_Aug_04_1130,N-Back (New Version 2021),2021.1.4,119.77783610697595,
,,,,Conditions/Version_1/oneback(2)_v1.xlsx,New rule: Press 'space' when you see 1-back (i.e. the same letter as the one that appeared 1 letter ago.),c,space,,,,,,,,,0,4,4,4,0,7,7,7,,,,,,,,,,,,,,,,,,,,,,,,,,,,,,,,,,,,,,,,,,,,,,,,,,,,,,,,,,,,,,,,,,,,,1.7354,597.3192429002374,None,space,1,597.3192429002374,None,1.1721538002602756,P007,fencog,2,Pre,2021_Aug_04_1130,N-Back (New Version 2021),2021.1.4,119.77783610697595,
,,,,Conditions/Version_1/oneback(2)_v1.xlsx,New rule: Press 'space' when you see 1-back (i.e. the same letter as the one that appeared 1 letter ago.),P,None,,,,,,,,,0,4,4,4,0,8,8,8,,,,,,,,,,,,,,,,,,,,,,,,,,,,,,,,,,,,,,,,,,,,,,,,,,,,,,,,,,,,,,,,,,,,,1.8904,601.2242717999034,None,None,1,601.2242717999034,None,,P007,fencog,2,Pre,2021_Aug_04_1130,N-Back (New Version 2021),2021.1.4,119.77783610697595,
,,,,Conditions/Version_1/oneback(2)_v1.xlsx,New rule: Press 'space' when you see 1-back (i.e. the same letter as the one that appeared 1 letter ago.),p,space,,,,,,,,,0,4,4,4,0,9,9,9,,,,,,,,,,,,,,,,,,,,,,,,,,,,,,,,,,,,,,,,,,,,,,,,,,,,,,,,,,,,,,,,,,,,,1.8842,605.121889800299,None,space,1,605.121889800299,None,0.7692579999566078,P007,fencog,2,Pre,2021_Aug_04_1130,N-Back (New Version 2021),2021.1.4,119.77783610697595,
,,,,Conditions/Version_1/oneback(2)_v1.xlsx,New rule: Press 'space' when you see 1-back (i.e. the same letter as the one that appeared 1 letter ago.),,,,,,,,,,,0,4,4,4,,,,,,,,,,,,,,,,,,,,,,,,,,,,,,,,,,,,,,,,,,,,,,,,,,,,,,,,,,,,,,,,,,,,,,,,,,,,,,,,,P007,fencog,2,Pre,2021_Aug_04_1130,N-Back (New Version 2021),2021.1.4,119.77783610697595,
,,,,Conditions/Version_1/zeroback(2)_v1.xlsx,New rule: Press 'space' when you see the letter 'x' or 'X'.,p,None,,,,,,,,,0,5,5,5,0,0,0,0,,,,,,,,,,,,,,,,,,,,,,,,,,,,,,,,,,,,,,,,,,,,,,,,,,,,,,,,,,,607.1701032002456,None,610.143596299924,None,space,0.5548399998806417,610.143596299924,None,607.1701032002456,None,1.7788,612.5069849002175,None,None,1,612.5069849002175,None,,P007,fencog,2,Pre,2021_Aug_04_1130,N-Back (New Version 2021),2021.1.4,119.77783610697595,
,,,,Conditions/Version_1/zeroback(2)_v1.xlsx,New rule: Press 'space' when you see the letter 'x' or 'X'.,L,None,,,,,,,,,0,5,5,5,0,1,1,1,,,,,,,,,,,,,,,,,,,,,,,,,,,,,,,,,,,,,,,,,,,,,,,,,,,,,,,,,,,,,,,,,,,,,1.723,616.2432928001508,None,None,1,616.2432928001508,None,,P007,fencog,2,Pre,2021_Aug_04_1130,N-Back (New Version 2021),2021.1.4,119.77783610697595,
,,,,Conditions/Version_1/zeroback(2)_v1.xlsx,New rule: Press 'space' when you see the letter 'x' or 'X'.,G,None,,,,,,,,,0,5,5,5,0,2,2,2,,,,,,,,,,,,,,,,,,,,,,,,,,,,,,,,,,,,,,,,,,,,,,,,,,,,,,,,,,,,,,,,,,,,,1.0224,619.2911179000512,None,None,1,619.2911179000512,None,,P007,fencog,2,Pre,2021_Aug_04_1130,N-Back (New Version 2021),2021.1.4,119.77783610697595,
,,,,Conditions/Version_1/zeroback(2)_v1.xlsx,New rule: Press 'space' when you see the letter 'x' or 'X'.,y,None,,,,,,,,,0,5,5,5,0,3,3,3,,,,,,,,,,,,,,,,,,,,,,,,,,,,,,,,,,,,,,,,,,,,,,,,,,,,,,,,,,,,,,,,,,,,,1.6982,622.993036000058,None,None,1,622.993036000058,None,,P007,fencog,2,Pre,2021_Aug_04_1130,N-Back (New Version 2021),2021.1.4,119.77783610697595,
,,,,Conditions/Version_1/zeroback(2)_v1.xlsx,New rule: Press 'space' when you see the letter 'x' or 'X'.,Y,None,,,,,,,,,0,5,5,5,0,4,4,4,,,,,,,,,,,,,,,,,,,,,,,,,,,,,,,,,,,,,,,,,,,,,,,,,,,,,,,,,,,,,,,,,,,,,1.8532,626.8584835999645,None,None,1,626.8584835999645,None,,P007,fencog,2,Pre,2021_Aug_04_1130,N-Back (New Version 2021),2021.1.4,119.77783610697595,
,,,,Conditions/Version_1/zeroback(2)_v1.xlsx,New rule: Press 'space' when you see the letter 'x' or 'X'.,W,None,,,,,,,,,0,5,5,5,0,5,5,5,,,,,,,,,,,,,,,,,,,,,,,,,,,,,,,,,,,,,,,,,,,,,,,,,,,,,,,,,,,,,,,,,,,,,1.0906,629.960724900011,None,None,1,629.960724900011,None,,P007,fencog,2,Pre,2021_Aug_04_1130,N-Back (New Version 2021),2021.1.4,119.77783610697595,
,,,,Conditions/Version_1/zeroback(2)_v1.xlsx,New rule: Press 'space' when you see the letter 'x' or 'X'.,x,space,,,,,,,,,0,5,5,5,0,6,6,6,,,,,,,,,,,,,,,,,,,,,,,,,,,,,,,,,,,,,,,,,,,,,,,,,,,,,,,,,,,,,,,,,,,,,1.2084,633.1813147002831,None,space,1,633.1813147002831,None,0.405404900200665,P007,fencog,2,Pre,2021_Aug_04_1130,N-Back (New Version 2021),2021.1.4,119.77783610697595,
,,,,Conditions/Version_1/zeroback(2)_v1.xlsx,New rule: Press 'space' when you see the letter 'x' or 'X'.,X,space,,,,,,,,,0,5,5,5,0,7,7,7,,,,,,,,,,,,,,,,,,,,,,,,,,,,,,,,,,,,,,,,,,,,,,,,,,,,,,,,,,,,,,,,,,,,,1.2394,636.4305873000994,None,space,1,636.4305873000994,None,0.5802393998019397,P007,fencog,2,Pre,2021_Aug_04_1130,N-Back (New Version 2021),2021.1.4,119.77783610697595,
,,,,Conditions/Version_1/zeroback(2)_v1.xlsx,New rule: Press 'space' when you see the letter 'x' or 'X'.,p,None,,,,,,,,,0,5,5,5,0,8,8,8,,,,,,,,,,,,,,,,,,,,,,,,,,,,,,,,,,,,,,,,,,,,,,,,,,,,,,,,,,,,,,,,,,,,,1.537,639.9789670999162,None,None,1,639.9789670999162,None,,P007,fencog,2,Pre,2021_Aug_04_1130,N-Back (New Version 2021),2021.1.4,119.77783610697595,
,,,,Conditions/Version_1/zeroback(2)_v1.xlsx,New rule: Press 'space' when you see the letter 'x' or 'X'.,h,None,,,,,,,,,0,5,5,5,0,9,9,9,,,,,,,,,,,,,,,,,,,,,,,,,,,,,,,,,,,,,,,,,,,,,,,,,,,,,,,,,,,,,,,,,,,,,1.3882,643.3785891002044,None,None,1,643.3785891002044,None,,P007,fencog,2,Pre,2021_Aug_04_1130,N-Back (New Version 2021),2021.1.4,119.77783610697595,
,,,,Conditions/Version_1/zeroback(2)_v1.xlsx,New rule: Press 'space' when you see the letter 'x' or 'X'.,,,,,,,,,,,0,5,5,5,,,,,,,,,,,,,,,,,,,,,,,,,,,,,,,,,,,,,,,,,,,,,,,,,,,,,,,,,,,,,,,,,,,,,,,,,,,,,,,,,P007,fencog,2,Pre,2021_Aug_04_1130,N-Back (New Version 2021),2021.1.4,119.77783610697595,
,,,,Conditions/Version_1/threeback(2)_v1.xlsx,New rule: Press 'space' when you see 3-back (i.e. the same letter as the one that appeared 3 letters ago.),q,None,,,,,,,,,0,6,6,6,0,0,0,0,,,,,,,,,,,,,,,,,,,,,,,,,,,,,,,,,,,,,,,,,,,,,,,,,,,,,,,,,,,645.4166345000267,None,648.4018411999568,None,space,1.7603241996839643,648.4018411999568,None,645.4166345000267,None,1.94,652.1402984000742,None,None,1,652.1402984000742,None,,P007,fencog,2,Pre,2021_Aug_04_1130,N-Back (New Version 2021),2021.1.4,119.77783610697595,
,,,,Conditions/Version_1/threeback(2)_v1.xlsx,New rule: Press 'space' when you see 3-back (i.e. the same letter as the one that appeared 3 letters ago.),Y,None,,,,,,,,,0,6,6,6,0,1,1,1,,,,,,,,,,,,,,,,,,,,,,,,,,,,,,,,,,,,,,,,,,,,,,,,,,,,,,,,,,,,,,,,,,,,,1.0658,655.2240773001686,None,None,1,655.2240773001686,None,,P007,fencog,2,Pre,2021_Aug_04_1130,N-Back (New Version 2021),2021.1.4,119.77783610697595,
,,,,Conditions/Version_1/threeback(2)_v1.xlsx,New rule: Press 'space' when you see 3-back (i.e. the same letter as the one that appeared 3 letters ago.),p,None,,,,,,,,,0,6,6,6,0,2,2,2,,,,,,,,,,,,,,,,,,,,,,,,,,,,,,,,,,,,,,,,,,,,,,,,,,,,,,,,,,,,,,,,,,,,,1.8222,659.0557494000532,None,None,1,659.0557494000532,None,,P007,fencog,2,Pre,2021_Aug_04_1130,N-Back (New Version 2021),2021.1.4,119.77783610697595,
,,,,Conditions/Version_1/threeback(2)_v1.xlsx,New rule: Press 'space' when you see 3-back (i.e. the same letter as the one that appeared 3 letters ago.),p,None,,,,,,,,,0,6,6,6,0,3,3,3,,,,,,,,,,,,,,,,,,,,,,,,,,,,,,,,,,,,,,,,,,,,,,,,,,,,,,,,,,,,,,,,,,,,,1.6796,662.741884900257,None,None,1,662.741884900257,None,,P007,fencog,2,Pre,2021_Aug_04_1130,N-Back (New Version 2021),2021.1.4,119.77783610697595,
,,,,Conditions/Version_1/threeback(2)_v1.xlsx,New rule: Press 'space' when you see 3-back (i.e. the same letter as the one that appeared 3 letters ago.),y,space,,,,,,,,,0,6,6,6,0,4,4,4,,,,,,,,,,,,,,,,,,,,,,,,,,,,,,,,,,,,,,,,,,,,,,,,,,,,,,,,,,,,,,,,,,,,,1.3882,666.1455824999139,None,space,1,666.1455824999139,None,1.6659957999363542,P007,fencog,2,Pre,2021_Aug_04_1130,N-Back (New Version 2021),2021.1.4,119.77783610697595,
,,,,Conditions/Version_1/threeback(2)_v1.xlsx,New rule: Press 'space' when you see 3-back (i.e. the same letter as the one that appeared 3 letters ago.),u,None,,,,,,,,,0,6,6,6,0,5,5,5,,,,,,,,,,,,,,,,,,,,,,,,,,,,,,,,,,,,,,,,,,,,,,,,,,,,,,,,,,,,,,,,,,,,,1.8594,670.0092986002564,None,None,1,670.0092986002564,None,,P007,fencog,2,Pre,2021_Aug_04_1130,N-Back (New Version 2021),2021.1.4,119.77783610697595,
,,,,Conditions/Version_1/threeback(2)_v1.xlsx,New rule: Press 'space' when you see 3-back (i.e. the same letter as the one that appeared 3 letters ago.),P,space,,,,,,,,,0,6,6,6,0,6,6,6,,,,,,,,,,,,,,,,,,,,,,,,,,,,,,,,,,,,,,,,,,,,,,,,,,,,,,,,,,,,,,,,,,,,,1.7168,673.7347258999944,None,None,0,673.7347258999944,None,,P007,fencog,2,Pre,2021_Aug_04_1130,N-Back (New Version 2021),2021.1.4,119.77783610697595,
,,,,Conditions/Version_1/threeback(2)_v1.xlsx,New rule: Press 'space' when you see 3-back (i.e. the same letter as the one that appeared 3 letters ago.),a,None,,,,,,,,,0,6,6,6,0,7,7,7,,,,,,,,,,,,,,,,,,,,,,,,,,,,,,,,,,,,,,,,,,,,,,,,,,,,,,,,,,,,,,,,,,,,,1.5494,677.3035630001687,None,None,1,677.3035630001687,None,,P007,fencog,2,Pre,2021_Aug_04_1130,N-Back (New Version 2021),2021.1.4,119.77783610697595,
,,,,Conditions/Version_1/threeback(2)_v1.xlsx,New rule: Press 'space' when you see 3-back (i.e. the same letter as the one that appeared 3 letters ago.),U,space,,,,,,,,,0,6,6,6,0,8,8,8,,,,,,,,,,,,,,,,,,,,,,,,,,,,,,,,,,,,,,,,,,,,,,,,,,,,,,,,,,,,,,,,,,,,,1.4068,680.717050100211,None,space,1,680.717050100211,None,1.3580045001581311,P007,fencog,2,Pre,2021_Aug_04_1130,N-Back (New Version 2021),2021.1.4,119.77783610697595,
,,,,Conditions/Version_1/threeback(2)_v1.xlsx,New rule: Press 'space' when you see 3-back (i.e. the same letter as the one that appeared 3 letters ago.),q,None,,,,,,,,,0,6,6,6,0,9,9,9,,,,,,,,,,,,,,,,,,,,,,,,,,,,,,,,,,,,,,,,,,,,,,,,,,,,,,,,,,,,,,,,,,,,,1.4626,684.1906743003055,None,None,1,684.1906743003055,None,,P007,fencog,2,Pre,2021_Aug_04_1130,N-Back (New Version 2021),2021.1.4,119.77783610697595,
,,,,Conditions/Version_1/threeback(2)_v1.xlsx,New rule: Press 'space' when you see 3-back (i.e. the same letter as the one that appeared 3 letters ago.),,,,,,,,,,,0,6,6,6,,,,,,,,,,,,,,,,,,,,,,,,,,,,,,,,,,,,,,,,,,,,,,,,,,,,,,,,,,,,,,,,,,,,,,,,,,,,,,,,,P007,fencog,2,Pre,2021_Aug_04_1130,N-Back (New Version 2021),2021.1.4,119.77783610697595,
,,,,Conditions/Version_1/twoback(2)_v1.xlsx,New rule: Press 'space' when you see 2-back (i.e. the same letter as the one that appeared 2 letters ago.),q,None,,,,,,,,,0,7,7,7,0,0,0,0,,,,,,,,,,,,,,,,,,,,,,,,,,,,,,,,,,,,,,,,,,,,,,,,,,,,,,,,,,,686.2373052001931,None,689.2224600003101,None,space,0.38016129983589053,689.2224600003101,None,686.2373052001931,None,1.2146,690.8497796002775,None,None,1,690.8497796002775,None,,P007,fencog,2,Pre,2021_Aug_04_1130,N-Back (New Version 2021),2021.1.4,119.77783610697595,
,,,,Conditions/Version_1/twoback(2)_v1.xlsx,New rule: Press 'space' when you see 2-back (i.e. the same letter as the one that appeared 2 letters ago.),r,None,,,,,,,,,0,7,7,7,0,1,1,1,,,,,,,,,,,,,,,,,,,,,,,,,,,,,,,,,,,,,,,,,,,,,,,,,,,,,,,,,,,,,,,,,,,,,1.227,694.087422200013,None,None,1,694.087422200013,None,,P007,fencog,2,Pre,2021_Aug_04_1130,N-Back (New Version 2021),2021.1.4,119.77783610697595,
,,,,Conditions/Version_1/twoback(2)_v1.xlsx,New rule: Press 'space' when you see 2-back (i.e. the same letter as the one that appeared 2 letters ago.),q,space,,,,,,,,,0,7,7,7,0,2,2,2,,,,,,,,,,,,,,,,,,,,,,,,,,,,,,,,,,,,,,,,,,,,,,,,,,,,,,,,,,,,,,,,,,,,,1.1712,697.2703058999032,None,space,1,697.2703058999032,None,0.4925325997173786,P007,fencog,2,Pre,2021_Aug_04_1130,N-Back (New Version 2021),2021.1.4,119.77783610697595,
,,,,Conditions/Version_1/twoback(2)_v1.xlsx,New rule: Press 'space' when you see 2-back (i.e. the same letter as the one that appeared 2 letters ago.),P,None,,,,,,,,,0,7,7,7,0,3,3,3,,,,,,,,,,,,,,,,,,,,,,,,,,,,,,,,,,,,,,,,,,,,,,,,,,,,,,,,,,,,,,,,,,,,,1.7416,701.0279397000559,None,None,1,701.0279397000559,None,,P007,fencog,2,Pre,2021_Aug_04_1130,N-Back (New Version 2021),2021.1.4,119.77783610697595,
,,,,Conditions/Version_1/twoback(2)_v1.xlsx,New rule: Press 'space' when you see 2-back (i.e. the same letter as the one that appeared 2 letters ago.),p,None,,,,,,,,,0,7,7,7,0,4,4,4,,,,,,,,,,,,,,,,,,,,,,,,,,,,,,,,,,,,,,,,,,,,,,,,,,,,,,,,,,,,,,,,,,,,,1.0472,704.0857903002761,None,None,1,704.0857903002761,None,,P007,fencog,2,Pre,2021_Aug_04_1130,N-Back (New Version 2021),2021.1.4,119.77783610697595,
,,,,Conditions/Version_1/twoback(2)_v1.xlsx,New rule: Press 'space' when you see 2-back (i.e. the same letter as the one that appeared 2 letters ago.),H,None,,,,,,,,,0,7,7,7,0,5,5,5,,,,,,,,,,,,,,,,,,,,,,,,,,,,,,,,,,,,,,,,,,,,,,,,,,,,,,,,,,,,,,,,,,,,,1.63,707.7254059002735,None,None,1,707.7254059002735,None,,P007,fencog,2,Pre,2021_Aug_04_1130,N-Back (New Version 2021),2021.1.4,119.77783610697595,
,,,,Conditions/Version_1/twoback(2)_v1.xlsx,New rule: Press 'space' when you see 2-back (i.e. the same letter as the one that appeared 2 letters ago.),g,None,,,,,,,,,0,7,7,7,0,6,6,6,,,,,,,,,,,,,,,,,,,,,,,,,,,,,,,,,,,,,,,,,,,,,,,,,,,,,,,,,,,,,,,,,,,,,1.7912,711.5330006000586,None,None,1,711.5330006000586,None,,P007,fencog,2,Pre,2021_Aug_04_1130,N-Back (New Version 2021),2021.1.4,119.77783610697595,
,,,,Conditions/Version_1/twoback(2)_v1.xlsx,New rule: Press 'space' when you see 2-back (i.e. the same letter as the one that appeared 2 letters ago.),j,None,,,,,,,,,0,7,7,7,0,7,7,7,,,,,,,,,,,,,,,,,,,,,,,,,,,,,,,,,,,,,,,,,,,,,,,,,,,,,,,,,,,,,,,,,,,,,1.0844,714.6233884003013,None,None,1,714.6233884003013,None,,P007,fencog,2,Pre,2021_Aug_04_1130,N-Back (New Version 2021),2021.1.4,119.77783610697595,
,,,,Conditions/Version_1/twoback(2)_v1.xlsx,New rule: Press 'space' when you see 2-back (i.e. the same letter as the one that appeared 2 letters ago.),g,space,,,,,,,,,0,7,7,7,0,8,8,8,,,,,,,,,,,,,,,,,,,,,,,,,,,,,,,,,,,,,,,,,,,,,,,,,,,,,,,,,,,,,,,,,,,,,1.9896,718.6223758999258,None,space,1,718.6223758999258,None,0.4765254002995789,P007,fencog,2,Pre,2021_Aug_04_1130,N-Back (New Version 2021),2021.1.4,119.77783610697595,
,,,,Conditions/Version_1/twoback(2)_v1.xlsx,New rule: Press 'space' when you see 2-back (i.e. the same letter as the one that appeared 2 letters ago.),G,None,,,,,,,,,0,7,7,7,0,9,9,9,,,,,,,,,,,,,,,,,,,,,,,,,,,,,,,,,,,,,,,,,,,,,,,,,,,,,,,,,,,,,,,,,,,,,1.4006,722.0374060003087,None,None,1,722.0374060003087,None,,P007,fencog,2,Pre,2021_Aug_04_1130,N-Back (New Version 2021),2021.1.4,119.77783610697595,
,,,,Conditions/Version_1/twoback(2)_v1.xlsx,New rule: Press 'space' when you see 2-back (i.e. the same letter as the one that appeared 2 letters ago.),,,,,,,,,,,0,7,7,7,,,,,,,,,,,,,,,,,,,,,,,,,,,,,,,,,,,,,,,,,,,,,,,,,,,,,,,,,,,,,,,,,,,,,,,,,,,,,,,,,P007,fencog,2,Pre,2021_Aug_04_1130,N-Back (New Version 2021),2021.1.4,119.77783610697595,
,,,,Conditions/Version_1/threeback(3)_v1.xlsx,New rule: Press 'space' when you see 3-back (i.e. the same letter as the one that appeared 3 letters ago.),w,None,,,,,,,,,0,8,8,8,0,0,0,0,,,,,,,,,,,,,,,,,,,,,,,,,,,,,,,,,,,,,,,,,,,,,,,,,,,,,,,,,,,724.0816208999604,None,727.0692517003044,None,space,0.4368963995948434,727.0692517003044,None,724.0816208999604,None,1.7602,729.3018400999717,None,None,1,729.3018400999717,None,,P007,fencog,2,Pre,2021_Aug_04_1130,N-Back (New Version 2021),2021.1.4,119.77783610697595,
,,,,Conditions/Version_1/threeback(3)_v1.xlsx,New rule: Press 'space' when you see 3-back (i.e. the same letter as the one that appeared 3 letters ago.),p,None,,,,,,,,,0,8,8,8,0,1,1,1,,,,,,,,,,,,,,,,,,,,,,,,,,,,,,,,,,,,,,,,,,,,,,,,,,,,,,,,,,,,,,,,,,,,,1.8098,733.1268021003343,None,None,1,733.1268021003343,None,,P007,fencog,2,Pre,2021_Aug_04_1130,N-Back (New Version 2021),2021.1.4,119.77783610697595,
,,,,Conditions/Version_1/threeback(3)_v1.xlsx,New rule: Press 'space' when you see 3-back (i.e. the same letter as the one that appeared 3 letters ago.),P,None,,,,,,,,,0,8,8,8,0,2,2,2,,,,,,,,,,,,,,,,,,,,,,,,,,,,,,,,,,,,,,,,,,,,,,,,,,,,,,,,,,,,,,,,,,,,,1.6176,736.7575643002056,None,None,1,736.7575643002056,None,,P007,fencog,2,Pre,2021_Aug_04_1130,N-Back (New Version 2021),2021.1.4,119.77783610697595,
,,,,Conditions/Version_1/threeback(3)_v1.xlsx,New rule: Press 'space' when you see 3-back (i.e. the same letter as the one that appeared 3 letters ago.),i,None,,,,,,,,,0,8,8,8,0,3,3,3,,,,,,,,,,,,,,,,,,,,,,,,,,,,,,,,,,,,,,,,,,,,,,,,,,,,,,,,,,,,,,,,,,,,,1.5618,740.3329440001398,None,None,1,740.3329440001398,None,,P007,fencog,2,Pre,2021_Aug_04_1130,N-Back (New Version 2021),2021.1.4,119.77783610697595,
,,,,Conditions/Version_1/threeback(3)_v1.xlsx,New rule: Press 'space' when you see 3-back (i.e. the same letter as the one that appeared 3 letters ago.),f,None,,,,,,,,,0,8,8,8,0,4,4,4,,,,,,,,,,,,,,,,,,,,,,,,,,,,,,,,,,,,,,,,,,,,,,,,,,,,,,,,,,,,,,,,,,,,,1.3386,743.6805509999394,None,None,1,743.6805509999394,None,,P007,fencog,2,Pre,2021_Aug_04_1130,N-Back (New Version 2021),2021.1.4,119.77783610697595,
,,,,Conditions/Version_1/threeback(3)_v1.xlsx,New rule: Press 'space' when you see 3-back (i.e. the same letter as the one that appeared 3 letters ago.),o,None,,,,,,,,,0,8,8,8,0,5,5,5,,,,,,,,,,,,,,,,,,,,,,,,,,,,,,,,,,,,,,,,,,,,,,,,,,,,,,,,,,,,,,,,,,,,,1.3944,747.0893341000192,None,None,1,747.0893341000192,None,,P007,fencog,2,Pre,2021_Aug_04_1130,N-Back (New Version 2021),2021.1.4,119.77783610697595,
,,,,Conditions/Version_1/threeback(3)_v1.xlsx,New rule: Press 'space' when you see 3-back (i.e. the same letter as the one that appeared 3 letters ago.),w,None,,,,,,,,,0,8,8,8,0,6,6,6,,,,,,,,,,,,,,,,,,,,,,,,,,,,,,,,,,,,,,,,,,,,,,,,,,,,,,,,,,,,,,,,,,,,,1.599,750.7052584001794,None,space,0,750.7052584001794,None,0.6733770999126136,P007,fencog,2,Pre,2021_Aug_04_1130,N-Back (New Version 2021),2021.1.4,119.77783610697595,
,,,,Conditions/Version_1/threeback(3)_v1.xlsx,New rule: Press 'space' when you see 3-back (i.e. the same letter as the one that appeared 3 letters ago.),F,space,,,,,,,,,0,8,8,8,0,7,7,7,,,,,,,,,,,,,,,,,,,,,,,,,,,,,,,,,,,,,,,,,,,,,,,,,,,,,,,,,,,,,,,,,,,,,1.382,754.1030394001864,None,None,0,754.1030394001864,None,,P007,fencog,2,Pre,2021_Aug_04_1130,N-Back (New Version 2021),2021.1.4,119.77783610697595,
,,,,Conditions/Version_1/threeback(3)_v1.xlsx,New rule: Press 'space' when you see 3-back (i.e. the same letter as the one that appeared 3 letters ago.),p,None,,,,,,,,,0,8,8,8,0,8,8,8,,,,,,,,,,,,,,,,,,,,,,,,,,,,,,,,,,,,,,,,,,,,,,,,,,,,,,,,,,,,,,,,,,,,,1.692,757.8103404999711,None,space,0,757.8103404999711,None,1.8725108001381159,P007,fencog,2,Pre,2021_Aug_04_1130,N-Back (New Version 2021),2021.1.4,119.77783610697595,
,,,,Conditions/Version_1/threeback(3)_v1.xlsx,New rule: Press 'space' when you see 3-back (i.e. the same letter as the one that appeared 3 letters ago.),W,space,,,,,,,,,0,8,8,8,0,9,9,9,,,,,,,,,,,,,,,,,,,,,,,,,,,,,,,,,,,,,,,,,,,,,,,,,,,,,,,,,,,,,,,,,,,,,1.5246,761.34282180015,None,None,0,761.34282180015,None,,P007,fencog,2,Pre,2021_Aug_04_1130,N-Back (New Version 2021),2021.1.4,119.77783610697595,
,,,,Conditions/Version_1/threeback(3)_v1.xlsx,New rule: Press 'space' when you see 3-back (i.e. the same letter as the one that appeared 3 letters ago.),,,,,,,,,,,0,8,8,8,,,,,,,,,,,,,,,,,,,,,,,,,,,,,,,,,,,,,,,,,,,,,,,,,,,,,,,,,,,,,,,,,,,,,,,,,,,,,,,,,P007,fencog,2,Pre,2021_Aug_04_1130,N-Back (New Version 2021),2021.1.4,119.77783610697595,
,,,,Conditions/Version_1/zeroback(3)_v1.xlsx,New rule: Press 'space' when you see the letter 'x' or 'X'.,X,space,,,,,,,,,0,9,9,9,0,0,0,0,,,,,,,,,,,,,,,,,,,,,,,,,,,,,,,,,,,,,,,,,,,,,,,,,,,,,,,,,,,763.3828676003031,None,766.3764287000522,None,space,0.33783029997721314,766.3764287000522,None,763.3828676003031,None,1.754,768.5075147002935,None,space,1,768.5075147002935,None,0.6394989001564682,P007,fencog,2,Pre,2021_Aug_04_1130,N-Back (New Version 2021),2021.1.4,119.77783610697595,
,,,,Conditions/Version_1/zeroback(3)_v1.xlsx,New rule: Press 'space' when you see the letter 'x' or 'X'.,B,None,,,,,,,,,0,9,9,9,0,1,1,1,,,,,,,,,,,,,,,,,,,,,,,,,,,,,,,,,,,,,,,,,,,,,,,,,,,,,,,,,,,,,,,,,,,,,1.1526,771.6822434999049,None,None,1,771.6822434999049,None,,P007,fencog,2,Pre,2021_Aug_04_1130,N-Back (New Version 2021),2021.1.4,119.77783610697595,
,,,,Conditions/Version_1/zeroback(3)_v1.xlsx,New rule: Press 'space' when you see the letter 'x' or 'X'.,m,None,,,,,,,,,0,9,9,9,0,2,2,2,,,,,,,,,,,,,,,,,,,,,,,,,,,,,,,,,,,,,,,,,,,,,,,,,,,,,,,,,,,,,,,,,,,,,1.2828,774.972663000226,None,None,1,774.972663000226,None,,P007,fencog,2,Pre,2021_Aug_04_1130,N-Back (New Version 2021),2021.1.4,119.77783610697595,
,,,,Conditions/Version_1/zeroback(3)_v1.xlsx,New rule: Press 'space' when you see the letter 'x' or 'X'.,m,None,,,,,,,,,0,9,9,9,0,3,3,3,,,,,,,,,,,,,,,,,,,,,,,,,,,,,,,,,,,,,,,,,,,,,,,,,,,,,,,,,,,,,,,,,,,,,1.661,778.6409440999851,None,None,1,778.6409440999851,None,,P007,fencog,2,Pre,2021_Aug_04_1130,N-Back (New Version 2021),2021.1.4,119.77783610697595,
,,,,Conditions/Version_1/zeroback(3)_v1.xlsx,New rule: Press 'space' when you see the letter 'x' or 'X'.,o,None,,,,,,,,,0,9,9,9,0,4,4,4,,,,,,,,,,,,,,,,,,,,,,,,,,,,,,,,,,,,,,,,,,,,,,,,,,,,,,,,,,,,,,,,,,,,,1.8036,782.4612162001431,None,None,1,782.4612162001431,None,,P007,fencog,2,Pre,2021_Aug_04_1130,N-Back (New Version 2021),2021.1.4,119.77783610697595,
,,,,Conditions/Version_1/zeroback(3)_v1.xlsx,New rule: Press 'space' when you see the letter 'x' or 'X'.,p,None,,,,,,,,,0,9,9,9,0,5,5,5,,,,,,,,,,,,,,,,,,,,,,,,,,,,,,,,,,,,,,,,,,,,,,,,,,,,,,,,,,,,,,,,,,,,,1.7106,786.1864891001023,None,None,1,786.1864891001023,None,,P007,fencog,2,Pre,2021_Aug_04_1130,N-Back (New Version 2021),2021.1.4,119.77783610697595,
,,,,Conditions/Version_1/zeroback(3)_v1.xlsx,New rule: Press 'space' when you see the letter 'x' or 'X'.,G,None,,,,,,,,,0,9,9,9,0,6,6,6,,,,,,,,,,,,,,,,,,,,,,,,,,,,,,,,,,,,,,,,,,,,,,,,,,,,,,,,,,,,,,,,,,,,,1.7664,789.9604144003242,None,None,1,789.9604144003242,None,,P007,fencog,2,Pre,2021_Aug_04_1130,N-Back (New Version 2021),2021.1.4,119.77783610697595,
,,,,Conditions/Version_1/zeroback(3)_v1.xlsx,New rule: Press 'space' when you see the letter 'x' or 'X'.,X,space,,,,,,,,,0,9,9,9,0,7,7,7,,,,,,,,,,,,,,,,,,,,,,,,,,,,,,,,,,,,,,,,,,,,,,,,,,,,,,,,,,,,,,,,,,,,,1.7354,793.7092025000602,None,space,1,793.7092025000602,None,0.4709700997918844,P007,fencog,2,Pre,2021_Aug_04_1130,N-Back (New Version 2021),2021.1.4,119.77783610697595,
,,,,Conditions/Version_1/zeroback(3)_v1.xlsx,New rule: Press 'space' when you see the letter 'x' or 'X'.,p,None,,,,,,,,,0,9,9,9,0,8,8,8,,,,,,,,,,,,,,,,,,,,,,,,,,,,,,,,,,,,,,,,,,,,,,,,,,,,,,,,,,,,,,,,,,,,,1.7416,797.457163900137,None,None,1,797.457163900137,None,,P007,fencog,2,Pre,2021_Aug_04_1130,N-Back (New Version 2021),2021.1.4,119.77783610697595,
,,,,Conditions/Version_1/zeroback(3)_v1.xlsx,New rule: Press 'space' when you see the letter 'x' or 'X'.,x,space,,,,,,,,,0,9,9,9,0,9,9,9,,,,,,,,,,,,,,,,,,,,,,,,,,,,,,,,,,,,,,,,,,,,,,,,,,,,,,,,,,,,,,,,,,,,,1.9462,801.4228664999828,None,space,1,801.4228664999828,None,0.4280289001762867,P007,fencog,2,Pre,2021_Aug_04_1130,N-Back (New Version 2021),2021.1.4,119.77783610697595,
,,,,Conditions/Version_1/zeroback(3)_v1.xlsx,New rule: Press 'space' when you see the letter 'x' or 'X'.,,,,,,,,,,,0,9,9,9,,,,,,,,,,,,,,,,,,,,,,,,,,,,,,,,,,,,,,,,,,,,,,,,,,,,,,,,,,,,,,,,,,,,,,,,,,,,,,,,,P007,fencog,2,Pre,2021_Aug_04_1130,N-Back (New Version 2021),2021.1.4,119.77783610697595,
,,,,Conditions/Version_1/twoback(3)_v1.xlsx,New rule: Press 'space' when you see 2-back (i.e. the same letter as the one that appeared 2 letters ago.),e,None,,,,,,,,,0,10,10,10,0,0,0,0,,,,,,,,,,,,,,,,,,,,,,,,,,,,,,,,,,,,,,,,,,,,,,,,,,,,,,,,,,,803.4692089003511,None,806.4545829002745,None,space,0.29174220003187656,806.4545829002745,None,803.4692089003511,None,1.4378,808.2215225002728,None,None,1,808.2215225002728,None,,P007,fencog,2,Pre,2021_Aug_04_1130,N-Back (New Version 2021),2021.1.4,119.77783610697595,
,,,,Conditions/Version_1/twoback(3)_v1.xlsx,New rule: Press 'space' when you see 2-back (i.e. the same letter as the one that appeared 2 letters ago.),o,None,,,,,,,,,0,10,10,10,0,1,1,1,,,,,,,,,,,,,,,,,,,,,,,,,,,,,,,,,,,,,,,,,,,,,,,,,,,,,,,,,,,,,,,,,,,,,1.6734,811.9121615001932,None,None,1,811.9121615001932,None,,P007,fencog,2,Pre,2021_Aug_04_1130,N-Back (New Version 2021),2021.1.4,119.77783610697595,
,,,,Conditions/Version_1/twoback(3)_v1.xlsx,New rule: Press 'space' when you see 2-back (i.e. the same letter as the one that appeared 2 letters ago.),P,None,,,,,,,,,0,10,10,10,0,2,2,2,,,,,,,,,,,,,,,,,,,,,,,,,,,,,,,,,,,,,,,,,,,,,,,,,,,,,,,,,,,,,,,,,,,,,1.661,815.5852745999582,None,None,1,815.5852745999582,None,,P007,fencog,2,Pre,2021_Aug_04_1130,N-Back (New Version 2021),2021.1.4,119.77783610697595,
,,,,Conditions/Version_1/twoback(3)_v1.xlsx,New rule: Press 'space' when you see 2-back (i.e. the same letter as the one that appeared 2 letters ago.),z,None,,,,,,,,,0,10,10,10,0,3,3,3,,,,,,,,,,,,,,,,,,,,,,,,,,,,,,,,,,,,,,,,,,,,,,,,,,,,,,,,,,,,,,,,,,,,,1.196,818.8051754999906,None,None,1,818.8051754999906,None,,P007,fencog,2,Pre,2021_Aug_04_1130,N-Back (New Version 2021),2021.1.4,119.77783610697595,
,,,,Conditions/Version_1/twoback(3)_v1.xlsx,New rule: Press 'space' when you see 2-back (i.e. the same letter as the one that appeared 2 letters ago.),X,None,,,,,,,,,0,10,10,10,0,4,4,4,,,,,,,,,,,,,,,,,,,,,,,,,,,,,,,,,,,,,,,,,,,,,,,,,,,,,,,,,,,,,,,,,,,,,1.5742,822.3830611002631,None,None,1,822.3830611002631,None,,P007,fencog,2,Pre,2021_Aug_04_1130,N-Back (New Version 2021),2021.1.4,119.77783610697595,
,,,,Conditions/Version_1/twoback(3)_v1.xlsx,New rule: Press 'space' when you see 2-back (i.e. the same letter as the one that appeared 2 letters ago.),z,space,,,,,,,,,0,10,10,10,0,5,5,5,,,,,,,,,,,,,,,,,,,,,,,,,,,,,,,,,,,,,,,,,,,,,,,,,,,,,,,,,,,,,,,,,,,,,1.0534,825.4487952999771,None,space,1,825.4487952999771,None,0.45775549998506904,P007,fencog,2,Pre,2021_Aug_04_1130,N-Back (New Version 2021),2021.1.4,119.77783610697595,
,,,,Conditions/Version_1/twoback(3)_v1.xlsx,New rule: Press 'space' when you see 2-back (i.e. the same letter as the one that appeared 2 letters ago.),x,space,,,,,,,,,0,10,10,10,0,6,6,6,,,,,,,,,,,,,,,,,,,,,,,,,,,,,,,,,,,,,,,,,,,,,,,,,,,,,,,,,,,,,,,,,,,,,1.6176,829.0733754001558,None,space,1,829.0733754001558,None,1.7136312001384795,P007,fencog,2,Pre,2021_Aug_04_1130,N-Back (New Version 2021),2021.1.4,119.77783610697595,
,,,,Conditions/Version_1/twoback(3)_v1.xlsx,New rule: Press 'space' when you see 2-back (i.e. the same letter as the one that appeared 2 letters ago.),c,None,,,,,,,,,0,10,10,10,0,7,7,7,,,,,,,,,,,,,,,,,,,,,,,,,,,,,,,,,,,,,,,,,,,,,,,,,,,,,,,,,,,,,,,,,,,,,1.6424,832.7217304003425,None,None,1,832.7217304003425,None,,P007,fencog,2,Pre,2021_Aug_04_1130,N-Back (New Version 2021),2021.1.4,119.77783610697595,
,,,,Conditions/Version_1/twoback(3)_v1.xlsx,New rule: Press 'space' when you see 2-back (i.e. the same letter as the one that appeared 2 letters ago.),i,None,,,,,,,,,0,10,10,10,0,8,8,8,,,,,,,,,,,,,,,,,,,,,,,,,,,,,,,,,,,,,,,,,,,,,,,,,,,,,,,,,,,,,,,,,,,,,1.7912,836.5297395000234,None,None,1,836.5297395000234,None,,P007,fencog,2,Pre,2021_Aug_04_1130,N-Back (New Version 2021),2021.1.4,119.77783610697595,
,,,,Conditions/Version_1/twoback(3)_v1.xlsx,New rule: Press 'space' when you see 2-back (i.e. the same letter as the one that appeared 2 letters ago.),C,space,,,,,,,,,0,10,10,10,0,9,9,9,,,,,,,,,,,,,,,,,,,,,,,,,,,,,,,,,,,,,,,,,,,,,,,,,,,,,,,,,,,,,,,,,,,,,1.4936,840.0363806001842,None,space,1,840.0363806001842,None,0.38215210009366274,P007,fencog,2,Pre,2021_Aug_04_1130,N-Back (New Version 2021),2021.1.4,119.77783610697595,
,,,,Conditions/Version_1/twoback(3)_v1.xlsx,New rule: Press 'space' when you see 2-back (i.e. the same letter as the one that appeared 2 letters ago.),,,,,,,,,,,0,10,10,10,,,,,,,,,,,,,,,,,,,,,,,,,,,,,,,,,,,,,,,,,,,,,,,,,,,,,,,,,,,,,,,,,,,,,,,,,,,,,,,,,P007,fencog,2,Pre,2021_Aug_04_1130,N-Back (New Version 2021),2021.1.4,119.77783610697595,
,,,,Conditions/Version_1/oneback(3)_v1.xlsx,New rule: Press 'space' when you see 1-back (i.e. the same letter as the one that appeared 1 letter ago.),o,None,,,,,,,,,0,11,11,11,0,0,0,0,,,,,,,,,,,,,,,,,,,,,,,,,,,,,,,,,,,,,,,,,,,,,,,,,,,,,,,,,,,842.0773971001618,None,845.059644300025,None,space,0.31053349981084466,845.059644300025,None,842.0773971001618,None,1.2332,846.6436372003518,None,None,1,846.6436372003518,None,,P007,fencog,2,Pre,2021_Aug_04_1130,N-Back (New Version 2021),2021.1.4,119.77783610697595,
,,,,Conditions/Version_1/oneback(3)_v1.xlsx,New rule: Press 'space' when you see 1-back (i.e. the same letter as the one that appeared 1 letter ago.),O,space,,,,,,,,,0,11,11,11,0,1,1,1,,,,,,,,,,,,,,,,,,,,,,,,,,,,,,,,,,,,,,,,,,,,,,,,,,,,,,,,,,,,,,,,,,,,,1.1402,849.799663899932,None,None,0,849.799663899932,None,,P007,fencog,2,Pre,2021_Aug_04_1130,N-Back (New Version 2021),2021.1.4,119.77783610697595,
,,,,Conditions/Version_1/oneback(3)_v1.xlsx,New rule: Press 'space' when you see 1-back (i.e. the same letter as the one that appeared 1 letter ago.),h,None,,,,,,,,,0,11,11,11,0,2,2,2,,,,,,,,,,,,,,,,,,,,,,,,,,,,,,,,,,,,,,,,,,,,,,,,,,,,,,,,,,,,,,,,,,,,,1.6114,853.4242023001425,None,None,1,853.4242023001425,None,,P007,fencog,2,Pre,2021_Aug_04_1130,N-Back (New Version 2021),2021.1.4,119.77783610697595,
,,,,Conditions/Version_1/oneback(3)_v1.xlsx,New rule: Press 'space' when you see 1-back (i.e. the same letter as the one that appeared 1 letter ago.),g,None,,,,,,,,,0,11,11,11,0,3,3,3,,,,,,,,,,,,,,,,,,,,,,,,,,,,,,,,,,,,,,,,,,,,,,,,,,,,,,,,,,,,,,,,,,,,,1.9462,857.3811014001258,None,None,1,857.3811014001258,None,,P007,fencog,2,Pre,2021_Aug_04_1130,N-Back (New Version 2021),2021.1.4,119.77783610697595,
,,,,Conditions/Version_1/oneback(3)_v1.xlsx,New rule: Press 'space' when you see 1-back (i.e. the same letter as the one that appeared 1 letter ago.),n,None,,,,,,,,,0,11,11,11,0,4,4,4,,,,,,,,,,,,,,,,,,,,,,,,,,,,,,,,,,,,,,,,,,,,,,,,,,,,,,,,,,,,,,,,,,,,,1.754,861.1464164000936,None,None,1,861.1464164000936,None,,P007,fencog,2,Pre,2021_Aug_04_1130,N-Back (New Version 2021),2021.1.4,119.77783610697595,
,,,,Conditions/Version_1/oneback(3)_v1.xlsx,New rule: Press 'space' when you see 1-back (i.e. the same letter as the one that appeared 1 letter ago.),z,None,,,,,,,,,0,11,11,11,0,5,5,5,,,,,,,,,,,,,,,,,,,,,,,,,,,,,,,,,,,,,,,,,,,,,,,,,,,,,,,,,,,,,,,,,,,,,1.2642,864.4293080000207,None,None,1,864.4293080000207,None,,P007,fencog,2,Pre,2021_Aug_04_1130,N-Back (New Version 2021),2021.1.4,119.77783610697595,
,,,,Conditions/Version_1/oneback(3)_v1.xlsx,New rule: Press 'space' when you see 1-back (i.e. the same letter as the one that appeared 1 letter ago.),X,None,,,,,,,,,0,11,11,11,0,6,6,6,,,,,,,,,,,,,,,,,,,,,,,,,,,,,,,,,,,,,,,,,,,,,,,,,,,,,,,,,,,,,,,,,,,,,1.4006,867.8365927999839,None,None,1,867.8365927999839,None,,P007,fencog,2,Pre,2021_Aug_04_1130,N-Back (New Version 2021),2021.1.4,119.77783610697595,
,,,,Conditions/Version_1/oneback(3)_v1.xlsx,New rule: Press 'space' when you see 1-back (i.e. the same letter as the one that appeared 1 letter ago.),r,None,,,,,,,,,0,11,11,11,0,7,7,7,,,,,,,,,,,,,,,,,,,,,,,,,,,,,,,,,,,,,,,,,,,,,,,,,,,,,,,,,,,,,,,,,,,,,1.103,870.9536005002446,None,None,1,870.9536005002446,None,,P007,fencog,2,Pre,2021_Aug_04_1130,N-Back (New Version 2021),2021.1.4,119.77783610697595,
,,,,Conditions/Version_1/oneback(3)_v1.xlsx,New rule: Press 'space' when you see 1-back (i.e. the same letter as the one that appeared 1 letter ago.),r,space,,,,,,,,,0,11,11,11,0,8,8,8,,,,,,,,,,,,,,,,,,,,,,,,,,,,,,,,,,,,,,,,,,,,,,,,,,,,,,,,,,,,,,,,,,,,,1.6734,874.6293219001964,None,space,1,874.6293219001964,None,0.7411095998249948,P007,fencog,2,Pre,2021_Aug_04_1130,N-Back (New Version 2021),2021.1.4,119.77783610697595,
,,,,Conditions/Version_1/oneback(3)_v1.xlsx,New rule: Press 'space' when you see 1-back (i.e. the same letter as the one that appeared 1 letter ago.),P,None,,,,,,,,,0,11,11,11,0,9,9,9,,,,,,,,,,,,,,,,,,,,,,,,,,,,,,,,,,,,,,,,,,,,,,,,,,,,,,,,,,,,,,,,,,,,,1.7044,878.3506375001743,None,None,1,878.3506375001743,None,,P007,fencog,2,Pre,2021_Aug_04_1130,N-Back (New Version 2021),2021.1.4,119.77783610697595,
,,,,Conditions/Version_1/oneback(3)_v1.xlsx,New rule: Press 'space' when you see 1-back (i.e. the same letter as the one that appeared 1 letter ago.),,,,,,,,,,,0,11,11,11,,,,,,,,,,,,,,,,,,,,,,,,,,,,,,,,,,,,,,,,,,,,,,,,,,,,,,,,,,,,,,,,,,,,,,,,,,,,,,,,,P007,fencog,2,Pre,2021_Aug_04_1130,N-Back (New Version 2021),2021.1.4,119.77783610697595,
,,,,Conditions/Version_1/twoback(4)_v1.xlsx,New rule: Press 'space' when you see 2-back (i.e. the same letter as the one that appeared 2 letters ago.),r,None,,,,,,,,,0,12,12,12,0,0,0,0,,,,,,,,,,,,,,,,,,,,,,,,,,,,,,,,,,,,,,,,,,,,,,,,,,,,,,,,,,,880.3962538000196,None,883.3848341000266,None,space,12.600919200107455,883.3848341000266,None,880.3962538000196,None,1.2146,897.2354637999088,None,None,1,897.2354637999088,None,,P007,fencog,2,Pre,2021_Aug_04_1130,N-Back (New Version 2021),2021.1.4,119.77783610697595,
,,,,Conditions/Version_1/twoback(4)_v1.xlsx,New rule: Press 'space' when you see 2-back (i.e. the same letter as the one that appeared 2 letters ago.),T,None,,,,,,,,,0,12,12,12,0,1,1,1,,,,,,,,,,,,,,,,,,,,,,,,,,,,,,,,,,,,,,,,,,,,,,,,,,,,,,,,,,,,,,,,,,,,,1.6238,900.8696174002253,None,None,1,900.8696174002253,None,,P007,fencog,2,Pre,2021_Aug_04_1130,N-Back (New Version 2021),2021.1.4,119.77783610697595,
,,,,Conditions/Version_1/twoback(4)_v1.xlsx,New rule: Press 'space' when you see 2-back (i.e. the same letter as the one that appeared 2 letters ago.),o,None,,,,,,,,,0,12,12,12,0,2,2,2,,,,,,,,,,,,,,,,,,,,,,,,,,,,,,,,,,,,,,,,,,,,,,,,,,,,,,,,,,,,,,,,,,,,,1.3448,904.2334497002885,None,None,1,904.2334497002885,None,,P007,fencog,2,Pre,2021_Aug_04_1130,N-Back (New Version 2021),2021.1.4,119.77783610697595,
,,,,Conditions/Version_1/twoback(4)_v1.xlsx,New rule: Press 'space' when you see 2-back (i.e. the same letter as the one that appeared 2 letters ago.),p,None,,,,,,,,,0,12,12,12,0,3,3,3,,,,,,,,,,,,,,,,,,,,,,,,,,,,,,,,,,,,,,,,,,,,,,,,,,,,,,,,,,,,,,,,,,,,,1.1402,907.3906781002879,None,None,1,907.3906781002879,None,,P007,fencog,2,Pre,2021_Aug_04_1130,N-Back (New Version 2021),2021.1.4,119.77783610697595,
,,,,Conditions/Version_1/twoback(4)_v1.xlsx,New rule: Press 'space' when you see 2-back (i.e. the same letter as the one that appeared 2 letters ago.),p,None,,,,,,,,,0,12,12,12,0,4,4,4,,,,,,,,,,,,,,,,,,,,,,,,,,,,,,,,,,,,,,,,,,,,,,,,,,,,,,,,,,,,,,,,,,,,,1.2084,910.6104812999256,None,None,1,910.6104812999256,None,,P007,fencog,2,Pre,2021_Aug_04_1130,N-Back (New Version 2021),2021.1.4,119.77783610697595,
,,,,Conditions/Version_1/twoback(4)_v1.xlsx,New rule: Press 'space' when you see 2-back (i.e. the same letter as the one that appeared 2 letters ago.),y,None,,,,,,,,,0,12,12,12,0,5,5,5,,,,,,,,,,,,,,,,,,,,,,,,,,,,,,,,,,,,,,,,,,,,,,,,,,,,,,,,,,,,,,,,,,,,,1.5494,914.1751930001192,None,None,1,914.1751930001192,None,,P007,fencog,2,Pre,2021_Aug_04_1130,N-Back (New Version 2021),2021.1.4,119.77783610697595,
,,,,Conditions/Version_1/twoback(4)_v1.xlsx,New rule: Press 'space' when you see 2-back (i.e. the same letter as the one that appeared 2 letters ago.),P,space,,,,,,,,,0,12,12,12,0,6,6,6,,,,,,,,,,,,,,,,,,,,,,,,,,,,,,,,,,,,,,,,,,,,,,,,,,,,,,,,,,,,,,,,,,,,,1.3324,917.5141246002167,None,space,1,917.5141246002167,None,0.3686596001498401,P007,fencog,2,Pre,2021_Aug_04_1130,N-Back (New Version 2021),2021.1.4,119.77783610697595,
,,,,Conditions/Version_1/twoback(4)_v1.xlsx,New rule: Press 'space' when you see 2-back (i.e. the same letter as the one that appeared 2 letters ago.),y,None,,,,,,,,,0,12,12,12,0,7,7,7,,,,,,,,,,,,,,,,,,,,,,,,,,,,,,,,,,,,,,,,,,,,,,,,,,,,,,,,,,,,,,,,,,,,,1.3696,920.8948193001561,None,None,1,920.8948193001561,None,,P007,fencog,2,Pre,2021_Aug_04_1130,N-Back (New Version 2021),2021.1.4,119.77783610697595,
,,,,Conditions/Version_1/twoback(4)_v1.xlsx,New rule: Press 'space' when you see 2-back (i.e. the same letter as the one that appeared 2 letters ago.),y,space,,,,,,,,,0,12,12,12,0,8,8,8,,,,,,,,,,,,,,,,,,,,,,,,,,,,,,,,,,,,,,,,,,,,,,,,,,,,,,,,,,,,,,,,,,,,,1.475,924.3811506000347,None,None,0,924.3811506000347,None,,P007,fencog,2,Pre,2021_Aug_04_1130,N-Back (New Version 2021),2021.1.4,119.77783610697595,
,,,,Conditions/Version_1/twoback(4)_v1.xlsx,New rule: Press 'space' when you see 2-back (i.e. the same letter as the one that appeared 2 letters ago.),,,,,,,,,,,0,12,12,12,,,,,,,,,,,,,,,,,,,,,,,,,,,,,,,,,,,,,,,,,,,,,,,,,,,,,,,,,,,,,,,,,,,,,,,,,,,,,,,,,P007,fencog,2,Pre,2021_Aug_04_1130,N-Back (New Version 2021),2021.1.4,119.77783610697595,
,,,,Conditions/Version_1/zeroback(4)_v1.xlsx,New rule: Press 'space' when you see the letter 'x' or 'X'.,o,None,,,,,,,,,0,13,13,13,0,0,0,0,,,,,,,,,,,,,,,,,,,,,,,,,,,,,,,,,,,,,,,,,,,,,,,,,,,,,,,,,,,926.4627704001032,None,929.4540936001576,None,space,122.54790409980342,929.4540936001576,None,926.4627704001032,None,1.785,1053.8237886000425,None,None,1,1053.8237886000425,None,,P007,fencog,2,Pre,2021_Aug_04_1130,N-Back (New Version 2021),2021.1.4,119.77783610697595,
,,,,Conditions/Version_1/zeroback(4)_v1.xlsx,New rule: Press 'space' when you see the letter 'x' or 'X'.,X,space,,,,,,,,,0,13,13,13,0,1,1,1,,,,,,,,,,,,,,,,,,,,,,,,,,,,,,,,,,,,,,,,,,,,,,,,,,,,,,,,,,,,,,,,,,,,,1.227,1057.0645838002674,None,space,1,1057.0645838002674,None,1.4426391003653407,P007,fencog,2,Pre,2021_Aug_04_1130,N-Back (New Version 2021),2021.1.4,119.77783610697595,
,,,,Conditions/Version_1/zeroback(4)_v1.xlsx,New rule: Press 'space' when you see the letter 'x' or 'X'.,p,None,,,,,,,,,0,13,13,13,0,2,2,2,,,,,,,,,,,,,,,,,,,,,,,,,,,,,,,,,,,,,,,,,,,,,,,,,,,,,,,,,,,,,,,,,,,,,1.909,1060.9878398999572,None,None,1,1060.9878398999572,None,,P007,fencog,2,Pre,2021_Aug_04_1130,N-Back (New Version 2021),2021.1.4,119.77783610697595,
,,,,Conditions/Version_1/zeroback(4)_v1.xlsx,New rule: Press 'space' when you see the letter 'x' or 'X'.,m,None,,,,,,,,,0,13,13,13,0,3,3,3,,,,,,,,,,,,,,,,,,,,,,,,,,,,,,,,,,,,,,,,,,,,,,,,,,,,,,,,,,,,,,,,,,,,,1.0162,1064.0196809000336,None,None,1,1064.0196809000336,None,,P007,fencog,2,Pre,2021_Aug_04_1130,N-Back (New Version 2021),2021.1.4,119.77783610697595,
,,,,Conditions/Version_1/zeroback(4)_v1.xlsx,New rule: Press 'space' when you see the letter 'x' or 'X'.,n,None,,,,,,,,,0,13,13,13,0,4,4,4,,,,,,,,,,,,,,,,,,,,,,,,,,,,,,,,,,,,,,,,,,,,,,,,,,,,,,,,,,,,,,,,,,,,,1.1464,1067.1775432000868,None,None,1,1067.1775432000868,None,,P007,fencog,2,Pre,2021_Aug_04_1130,N-Back (New Version 2021),2021.1.4,119.77783610697595,
,,,,Conditions/Version_1/zeroback(4)_v1.xlsx,New rule: Press 'space' when you see the letter 'x' or 'X'.,m,None,,,,,,,,,0,13,13,13,0,5,5,5,,,,,,,,,,,,,,,,,,,,,,,,,,,,,,,,,,,,,,,,,,,,,,,,,,,,,,,,,,,,,,,,,,,,,1.0968,1070.2823438001797,None,None,1,1070.2823438001797,None,,P007,fencog,2,Pre,2021_Aug_04_1130,N-Back (New Version 2021),2021.1.4,119.77783610697595,
,,,,Conditions/Version_1/zeroback(4)_v1.xlsx,New rule: Press 'space' when you see the letter 'x' or 'X'.,C,None,,,,,,,,,0,13,13,13,0,6,6,6,,,,,,,,,,,,,,,,,,,,,,,,,,,,,,,,,,,,,,,,,,,,,,,,,,,,,,,,,,,,,,,,,,,,,1.9896,1074.2926019001752,None,None,1,1074.2926019001752,None,,P007,fencog,2,Pre,2021_Aug_04_1130,N-Back (New Version 2021),2021.1.4,119.77783610697595,
,,,,Conditions/Version_1/zeroback(4)_v1.xlsx,New rule: Press 'space' when you see the letter 'x' or 'X'.,m,None,,,,,,,,,0,13,13,13,0,7,7,7,,,,,,,,,,,,,,,,,,,,,,,,,,,,,,,,,,,,,,,,,,,,,,,,,,,,,,,,,,,,,,,,,,,,,1.6796,1077.9797319001518,None,None,1,1077.9797319001518,None,,P007,fencog,2,Pre,2021_Aug_04_1130,N-Back (New Version 2021),2021.1.4,119.77783610697595,
,,,,Conditions/Version_1/zeroback(4)_v1.xlsx,New rule: Press 'space' when you see the letter 'x' or 'X'.,p,None,,,,,,,,,0,13,13,13,0,8,8,8,,,,,,,,,,,,,,,,,,,,,,,,,,,,,,,,,,,,,,,,,,,,,,,,,,,,,,,,,,,,,,,,,,,,,1.475,1081.4732866003178,None,None,1,1081.4732866003178,None,,P007,fencog,2,Pre,2021_Aug_04_1130,N-Back (New Version 2021),2021.1.4,119.77783610697595,
,,,,Conditions/Version_1/zeroback(4)_v1.xlsx,New rule: Press 'space' when you see the letter 'x' or 'X'.,X,space,,,,,,,,,0,13,13,13,0,9,9,9,,,,,,,,,,,,,,,,,,,,,,,,,,,,,,,,,,,,,,,,,,,,,,,,,,,,,,,,,,,,,,,,,,,,,1.072,1084.5634433003142,None,None,0,1084.5634433003142,None,,P007,fencog,2,Pre,2021_Aug_04_1130,N-Back (New Version 2021),2021.1.4,119.77783610697595,
,,,,Conditions/Version_1/zeroback(4)_v1.xlsx,New rule: Press 'space' when you see the letter 'x' or 'X'.,,,,,,,,,,,0,13,13,13,,,,,,,,,,,,,,,,,,,,,,,,,,,,,,,,,,,,,,,,,,,,,,,,,,,,,,,,,,,,,,,,,,,,,,,,,,,,,,,,,P007,fencog,2,Pre,2021_Aug_04_1130,N-Back (New Version 2021),2021.1.4,119.77783610697595,
,,,,Conditions/Version_1/oneback(4)_v1.xlsx,New rule: Press 'space' when you see 1-back (i.e. the same letter as the one that appeared 1 letter ago.),w,None,,,,,,,,,0,14,14,14,0,0,0,0,,,,,,,,,,,,,,,,,,,,,,,,,,,,,,,,,,,,,,,,,,,,,,,,,,,,,,,,,,,1086.6126482002437,None,1089.5952779999934,None,space,0.37464029993861914,1089.5952779999934,None,1086.6126482002437,None,1.8408,1091.853885000106,None,None,1,1091.853885000106,None,,P007,fencog,2,Pre,2021_Aug_04_1130,N-Back (New Version 2021),2021.1.4,119.77783610697595,
,,,,Conditions/Version_1/oneback(4)_v1.xlsx,New rule: Press 'space' when you see 1-back (i.e. the same letter as the one that appeared 1 letter ago.),q,None,,,,,,,,,0,14,14,14,0,1,1,1,,,,,,,,,,,,,,,,,,,,,,,,,,,,,,,,,,,,,,,,,,,,,,,,,,,,,,,,,,,,,,,,,,,,,1.7416,1095.6113188001327,None,None,1,1095.6113188001327,None,,P007,fencog,2,Pre,2021_Aug_04_1130,N-Back (New Version 2021),2021.1.4,119.77783610697595,
,,,,Conditions/Version_1/oneback(4)_v1.xlsx,New rule: Press 'space' when you see 1-back (i.e. the same letter as the one that appeared 1 letter ago.),i,None,,,,,,,,,0,14,14,14,0,2,2,2,,,,,,,,,,,,,,,,,,,,,,,,,,,,,,,,,,,,,,,,,,,,,,,,,,,,,,,,,,,,,,,,,,,,,1.1278,1098.75151490001,None,None,1,1098.75151490001,None,,P007,fencog,2,Pre,2021_Aug_04_1130,N-Back (New Version 2021),2021.1.4,119.77783610697595,
,,,,Conditions/Version_1/oneback(4)_v1.xlsx,New rule: Press 'space' when you see 1-back (i.e. the same letter as the one that appeared 1 letter ago.),t,None,,,,,,,,,0,14,14,14,0,3,3,3,,,,,,,,,,,,,,,,,,,,,,,,,,,,,,,,,,,,,,,,,,,,,,,,,,,,,,,,,,,,,,,,,,,,,1.444,1102.2097952999175,None,None,1,1102.2097952999175,None,,P007,fencog,2,Pre,2021_Aug_04_1130,N-Back (New Version 2021),2021.1.4,119.77783610697595,
,,,,Conditions/Version_1/oneback(4)_v1.xlsx,New rule: Press 'space' when you see 1-back (i.e. the same letter as the one that appeared 1 letter ago.),v,None,,,,,,,,,0,14,14,14,0,4,4,4,,,,,,,,,,,,,,,,,,,,,,,,,,,,,,,,,,,,,,,,,,,,,,,,,,,,,,,,,,,,,,,,,,,,,1.5308,1105.7597861001268,None,None,1,1105.7597861001268,None,,P007,fencog,2,Pre,2021_Aug_04_1130,N-Back (New Version 2021),2021.1.4,119.77783610697595,
,,,,Conditions/Version_1/oneback(4)_v1.xlsx,New rule: Press 'space' when you see 1-back (i.e. the same letter as the one that appeared 1 letter ago.),V,space,,,,,,,,,0,14,14,14,0,5,5,5,,,,,,,,,,,,,,,,,,,,,,,,,,,,,,,,,,,,,,,,,,,,,,,,,,,,,,,,,,,,,,,,,,,,,1.1092,1108.8774413000792,None,space,1,1108.8774413000792,None,0.5089687998406589,P007,fencog,2,Pre,2021_Aug_04_1130,N-Back (New Version 2021),2021.1.4,119.77783610697595,
,,,,Conditions/Version_1/oneback(4)_v1.xlsx,New rule: Press 'space' when you see 1-back (i.e. the same letter as the one that appeared 1 letter ago.),v,space,,,,,,,,,0,14,14,14,0,6,6,6,,,,,,,,,,,,,,,,,,,,,,,,,,,,,,,,,,,,,,,,,,,,,,,,,,,,,,,,,,,,,,,,,,,,,1.4378,1112.3221042002551,None,space,1,1112.3221042002551,None,0.34410349978134036,P007,fencog,2,Pre,2021_Aug_04_1130,N-Back (New Version 2021),2021.1.4,119.77783610697595,
,,,,Conditions/Version_1/oneback(4)_v1.xlsx,New rule: Press 'space' when you see 1-back (i.e. the same letter as the one that appeared 1 letter ago.),p,None,,,,,,,,,0,14,14,14,0,7,7,7,,,,,,,,,,,,,,,,,,,,,,,,,,,,,,,,,,,,,,,,,,,,,,,,,,,,,,,,,,,,,,,,,,,,,1.692,1116.0295347003266,None,None,1,1116.0295347003266,None,,P007,fencog,2,Pre,2021_Aug_04_1130,N-Back (New Version 2021),2021.1.4,119.77783610697595,
,,,,Conditions/Version_1/oneback(4)_v1.xlsx,New rule: Press 'space' when you see 1-back (i.e. the same letter as the one that appeared 1 letter ago.),w,None,,,,,,,,,0,14,14,14,0,8,8,8,,,,,,,,,,,,,,,,,,,,,,,,,,,,,,,,,,,,,,,,,,,,,,,,,,,,,,,,,,,,,,,,,,,,,1.7726,1119.8193020001054,None,None,1,1119.8193020001054,None,,P007,fencog,2,Pre,2021_Aug_04_1130,N-Back (New Version 2021),2021.1.4,119.77783610697595,
,,,,Conditions/Version_1/oneback(4)_v1.xlsx,New rule: Press 'space' when you see 1-back (i.e. the same letter as the one that appeared 1 letter ago.),W,space,,,,,,,,,0,14,14,14,0,9,9,9,,,,,,,,,,,,,,,,,,,,,,,,,,,,,,,,,,,,,,,,,,,,,,,,,,,,,,,,,,,,,,,,,,,,,1.1774,1123.0112733999267,None,space,1,1123.0112733999267,None,0.5740665998309851,P007,fencog,2,Pre,2021_Aug_04_1130,N-Back (New Version 2021),2021.1.4,119.77783610697595,
,,,,Conditions/Version_1/oneback(4)_v1.xlsx,New rule: Press 'space' when you see 1-back (i.e. the same letter as the one that appeared 1 letter ago.),,,,,,,,,,,0,14,14,14,,,,,,,,,,,,,,,,,,,,,,,,,,,,,,,,,,,,,,,,,,,,,,,,,,,,,,,,,,,,,,,,,,,,,,,,,,,,,,,,,P007,fencog,2,Pre,2021_Aug_04_1130,N-Back (New Version 2021),2021.1.4,119.77783610697595,
,,,,Conditions/Version_1/threeback(4)_v1.xlsx,New rule: Press 'space' when you see 3-back (i.e. the same letter as the one that appeared 3 letters ago.),A,None,,,,,,,,,0,15,15,15,0,0,0,0,,,,,,,,,,,,,,,,,,,,,,,,,,,,,,,,,,,,,,,,,,,,,,,,,,,,,,,,,,,1125.0556419002824,None,1128.0420181001537,None,space,56.7674364997074,1128.0420181001537,None,1125.0556419002824,None,1.2394,1186.0896781003103,None,None,1,1186.0896781003103,None,,P007,fencog,2,Pre,2021_Aug_04_1130,N-Back (New Version 2021),2021.1.4,119.77783610697595,
,,,,Conditions/Version_1/threeback(4)_v1.xlsx,New rule: Press 'space' when you see 3-back (i.e. the same letter as the one that appeared 3 letters ago.),n,None,,,,,,,,,0,15,15,15,0,1,1,1,,,,,,,,,,,,,,,,,,,,,,,,,,,,,,,,,,,,,,,,,,,,,,,,,,,,,,,,,,,,,,,,,,,,,1.6424,1189.7412564000115,None,None,1,1189.7412564000115,None,,P007,fencog,2,Pre,2021_Aug_04_1130,N-Back (New Version 2021),2021.1.4,119.77783610697595,
,,,,Conditions/Version_1/threeback(4)_v1.xlsx,New rule: Press 'space' when you see 3-back (i.e. the same letter as the one that appeared 3 letters ago.),g,None,,,,,,,,,0,15,15,15,0,2,2,2,,,,,,,,,,,,,,,,,,,,,,,,,,,,,,,,,,,,,,,,,,,,,,,,,,,,,,,,,,,,,,,,,,,,,1.2766,1193.0245746001601,None,None,1,1193.0245746001601,None,,P007,fencog,2,Pre,2021_Aug_04_1130,N-Back (New Version 2021),2021.1.4,119.77783610697595,
,,,,Conditions/Version_1/threeback(4)_v1.xlsx,New rule: Press 'space' when you see 3-back (i.e. the same letter as the one that appeared 3 letters ago.),A,space,,,,,,,,,0,15,15,15,0,3,3,3,,,,,,,,,,,,,,,,,,,,,,,,,,,,,,,,,,,,,,,,,,,,,,,,,,,,,,,,,,,,,,,,,,,,,1.7106,1196.747219600249,None,space,1,1196.747219600249,None,0.6711355000734329,P007,fencog,2,Pre,2021_Aug_04_1130,N-Back (New Version 2021),2021.1.4,119.77783610697595,
,,,,Conditions/Version_1/threeback(4)_v1.xlsx,New rule: Press 'space' when you see 3-back (i.e. the same letter as the one that appeared 3 letters ago.),p,None,,,,,,,,,0,15,15,15,0,4,4,4,,,,,,,,,,,,,,,,,,,,,,,,,,,,,,,,,,,,,,,,,,,,,,,,,,,,,,,,,,,,,,,,,,,,,1.6734,1200.429792100098,None,None,1,1200.429792100098,None,,P007,fencog,2,Pre,2021_Aug_04_1130,N-Back (New Version 2021),2021.1.4,119.77783610697595,
,,,,Conditions/Version_1/threeback(4)_v1.xlsx,New rule: Press 'space' when you see 3-back (i.e. the same letter as the one that appeared 3 letters ago.),O,None,,,,,,,,,0,15,15,15,0,5,5,5,,,,,,,,,,,,,,,,,,,,,,,,,,,,,,,,,,,,,,,,,,,,,,,,,,,,,,,,,,,,,,,,,,,,,1.9958,1204.4280190002173,None,None,1,1204.4280190002173,None,,P007,fencog,2,Pre,2021_Aug_04_1130,N-Back (New Version 2021),2021.1.4,119.77783610697595,
,,,,Conditions/Version_1/threeback(4)_v1.xlsx,New rule: Press 'space' when you see 3-back (i.e. the same letter as the one that appeared 3 letters ago.),a,space,,,,,,,,,0,15,15,15,0,6,6,6,,,,,,,,,,,,,,,,,,,,,,,,,,,,,,,,,,,,,,,,,,,,,,,,,,,,,,,,,,,,,,,,,,,,,1.475,1207.920793800149,None,space,1,1207.920793800149,None,0.3935916000045836,P007,fencog,2,Pre,2021_Aug_04_1130,N-Back (New Version 2021),2021.1.4,119.77783610697595,
,,,,Conditions/Version_1/threeback(4)_v1.xlsx,New rule: Press 'space' when you see 3-back (i.e. the same letter as the one that appeared 3 letters ago.),p,space,,,,,,,,,0,15,15,15,0,7,7,7,,,,,,,,,,,,,,,,,,,,,,,,,,,,,,,,,,,,,,,,,,,,,,,,,,,,,,,,,,,,,,,,,,,,,1.4192,1211.3514172001742,None,space,1,1211.3514172001742,None,1.0753934998065233,P007,fencog,2,Pre,2021_Aug_04_1130,N-Back (New Version 2021),2021.1.4,119.77783610697595,
,,,,Conditions/Version_1/threeback(4)_v1.xlsx,New rule: Press 'space' when you see 3-back (i.e. the same letter as the one that appeared 3 letters ago.),x,None,,,,,,,,,0,15,15,15,0,8,8,8,,,,,,,,,,,,,,,,,,,,,,,,,,,,,,,,,,,,,,,,,,,,,,,,,,,,,,,,,,,,,,,,,,,,,1.382,1214.7509869001806,None,None,1,1214.7509869001806,None,,P007,fencog,2,Pre,2021_Aug_04_1130,N-Back (New Version 2021),2021.1.4,119.77783610697595,
,,,,Conditions/Version_1/threeback(4)_v1.xlsx,New rule: Press 'space' when you see 3-back (i.e. the same letter as the one that appeared 3 letters ago.),X,None,,,,,,,,,0,15,15,15,0,9,9,9,,,,,,,,,,,,,,,,,,,,,,,,,,,,,,,,,,,,,,,,,,,,,,,,,,,,,,,,,,,,,,,,,,,,,1.2146,1217.9835127000697,None,space,0,1217.9835127000697,None,0.5472492002882063,P007,fencog,2,Pre,2021_Aug_04_1130,N-Back (New Version 2021),2021.1.4,119.77783610697595,
,,,,Conditions/Version_1/threeback(4)_v1.xlsx,New rule: Press 'space' when you see 3-back (i.e. the same letter as the one that appeared 3 letters ago.),,,,,,,,,,,0,15,15,15,,,,,,,,,,,,,,,,,,,,,,,,,,,,,,,,,,,,,,,,,,,,,,,,,,,,,,,,,,,,,,,,,,,,,,,,,,,,,,,,,P007,fencog,2,Pre,2021_Aug_04_1130,N-Back (New Version 2021),2021.1.4,119.77783610697595,
