CondFileP,InstructionsP,LettersDisplayedP,CorrectnessP,CondFile,Instructions,LettersDisplayed,Correctness,practicetrials.thisRepN,practicetrials.thisTrialN,practicetrials.thisN,practicetrials.thisIndex,InnerLoopPractice.thisRepN,InnerLoopPractice.thisTrialN,InnerLoopPractice.thisN,InnerLoopPractice.thisIndex,trials.thisRepN,trials.thisTrialN,trials.thisN,trials.thisIndex,InnerLoop.thisRepN,InnerLoop.thisTrialN,InnerLoop.thisN,InnerLoop.thisIndex,TaskVersionText.started,TaskVersionText.stopped,InstrKey1.keys,InstrKey1.rt,InstrKey1.started,InstrKey1.stopped,text.started,text.stopped,key_resp_4.keys,key_resp_4.rt,key_resp_4.started,key_resp_4.stopped,text_2.started,text_2.stopped,key_resp_3.keys,key_resp_3.rt,key_resp_3.started,key_resp_3.stopped,text_3.started,text_3.stopped,key_resp_2.keys,key_resp_2.rt,key_resp_2.started,key_resp_2.stopped,PractIn1.started,PractIn1.stopped,PractIn2.started,PractIn2.stopped,PractInstructionPass.keys,PractInstructionPass.rt,PractInstructionPass.started,PractInstructionPass.stopped,PractBlock1.started,PractBlock1.stopped,ISIjitterPractice,ISI_Pract_Fixation.started,ISI_Pract_Fixation.stopped,N_backP.started,N_backP.stopped,KeyPractice.keys,KeyPractice.corr,KeyPractice.started,KeyPractice.stopped,text_4.started,text_4.stopped,KeyPractice.rt,TransitionText.started,TransitionText.stopped,key_resp_6.keys,key_resp_6.rt,key_resp_6.started,key_resp_6.stopped,text_5.started,text_5.stopped,key_resp_5.keys,key_resp_5.rt,key_resp_5.started,key_resp_5.stopped,MainInt1.started,MainInt1.stopped,MainInt2.started,MainInt2.stopped,InstructionPass.keys,InstructionPass.rt,InstructionPass.started,InstructionPass.stopped,Blocks1.started,Blocks1.stopped,ISIjitter,N_backD.started,N_backD.stopped,key_resp.keys,key_resp.corr,key_resp.started,key_resp.stopped,key_resp.rt,participant,Study Name,Task Version (required to run),PRE/POST,date,expName,psychopyVersion,frameRate
,,,,,,,,,,,,,,,,,,,,,,,,39.855175,None,space,71.3247336,40.3460214,None,,,,,,,,,,,,,,,,,,,,,,,,,,,,,,,,,,,,,,,,,,,,,,,,,,,,,,,,,,,,,,,,,,,,,,,P007,fencog,1,Post,2021_Aug_11_0946,N-Back (New Version 2021),2021.1.4,119.94003
,,,,,,,,,,,,,,,,,,,,,,,,,,,,,,111.7041851,None,space,16.7744792,112.20025,None,,,,,,,,,,,,,,,,,,,,,,,,,,,,,,,,,,,,,,,,,,,,,,,,,,,,,,,,,,,,,,,,,P007,fencog,1,Post,2021_Aug_11_0946,N-Back (New Version 2021),2021.1.4,119.94003
,,,,,,,,,,,,,,,,,,,,,,,,,,,,,,,,,,,,129.0107881,None,space,7.1277898,129.5037726,None,,,,,,,,,,,,,,,,,,,,,,,,,,,,,,,,,,,,,,,,,,,,,,,,,,,,,,,,,,,P007,fencog,1,Post,2021_Aug_11_0946,N-Back (New Version 2021),2021.1.4,119.94003
,,,,,,,,,,,,,,,,,,,,,,,,,,,,,,,,,,,,,,,,,,136.6580926,None,space,1.3034012,137.1514299,None,,,,,,,,,,,,,,,,,,,,,,,,,,,,,,,,,,,,,,,,,,,,,,,,,,,,,P007,fencog,1,Post,2021_Aug_11_0946,N-Back (New Version 2021),2021.1.4,119.94003
Conditions/Version_1Pr/zeroback(1)_v1.xlsx,Rule: Press 'space' when you see the letter 'x' or 'X'.,Z,None,,,,,0,0,0,0,0,0,0,0,,,,,,,,,,,,,,,,,,,,,,,,,,,,,,,,,139.8298372,None,142.8181831,None,space,1.652256,142.8181831,None,139.8298372,None,1.54,144.4924304,None,146.0447754,None,None,1,146.0447754,None,148.0479116,None,,,,,,,,,,,,,,,,,,,,,,,,,,,,,,,,P007,fencog,1,Post,2021_Aug_11_0946,N-Back (New Version 2021),2021.1.4,119.94003
Conditions/Version_1Pr/zeroback(1)_v1.xlsx,Rule: Press 'space' when you see the letter 'x' or 'X'.,r,None,,,,,0,0,0,0,0,1,1,1,,,,,,,,,,,,,,,,,,,,,,,,,,,,,,,,,,,,,,,,,,,1.565,149.5468466,None,151.1155388,None,None,1,151.1155388,None,153.1208737,None,,,,,,,,,,,,,,,,,,,,,,,,,,,,,,,,P007,fencog,1,Post,2021_Aug_11_0946,N-Back (New Version 2021),2021.1.4,119.94003
Conditions/Version_1Pr/zeroback(1)_v1.xlsx,Rule: Press 'space' when you see the letter 'x' or 'X'.,X,space,,,,,0,0,0,0,0,2,2,2,,,,,,,,,,,,,,,,,,,,,,,,,,,,,,,,,,,,,,,,,,,1.39,154.6222772,None,156.0177207,None,space,1,156.0177207,None,156.4459062,None,0.4203111,,,,,,,,,,,,,,,,,,,,,,,,,,,,,,,P007,fencog,1,Post,2021_Aug_11_0946,N-Back (New Version 2021),2021.1.4,119.94003
Conditions/Version_1Pr/zeroback(1)_v1.xlsx,Rule: Press 'space' when you see the letter 'x' or 'X'.,p,None,,,,,0,0,0,0,0,3,3,3,,,,,,,,,,,,,,,,,,,,,,,,,,,,,,,,,,,,,,,,,,,1.215,157.9526556,None,159.1706171,None,None,1,159.1706171,None,161.1769233,None,,,,,,,,,,,,,,,,,,,,,,,,,,,,,,,,P007,fencog,1,Post,2021_Aug_11_0946,N-Back (New Version 2021),2021.1.4,119.94003
Conditions/Version_1Pr/zeroback(1)_v1.xlsx,Rule: Press 'space' when you see the letter 'x' or 'X'.,w,None,,,,,0,0,0,0,0,4,4,4,,,,,,,,,,,,,,,,,,,,,,,,,,,,,,,,,,,,,,,,,,,1.915,162.6763566,None,164.594129,None,None,1,164.594129,None,166.6002288,None,,,,,,,,,,,,,,,,,,,,,,,,,,,,,,,,P007,fencog,1,Post,2021_Aug_11_0946,N-Back (New Version 2021),2021.1.4,119.94003
Conditions/Version_1Pr/zeroback(1)_v1.xlsx,Rule: Press 'space' when you see the letter 'x' or 'X'.,e,None,,,,,0,0,0,0,0,5,5,5,,,,,,,,,,,,,,,,,,,,,,,,,,,,,,,,,,,,,,,,,,,1.69,168.0995266,None,169.7924599,None,None,1,169.7924599,None,171.7986166,None,,,,,,,,,,,,,,,,,,,,,,,,,,,,,,,,P007,fencog,1,Post,2021_Aug_11_0946,N-Back (New Version 2021),2021.1.4,119.94003
Conditions/Version_1Pr/zeroback(1)_v1.xlsx,Rule: Press 'space' when you see the letter 'x' or 'X'.,X,space,,,,,0,0,0,0,0,6,6,6,,,,,,,,,,,,,,,,,,,,,,,,,,,,,,,,,,,,,,,,,,,1.415,173.2982271,None,174.7164964,None,space,1,174.7164964,None,175.05678,None,0.3299056,,,,,,,,,,,,,,,,,,,,,,,,,,,,,,,P007,fencog,1,Post,2021_Aug_11_0946,N-Back (New Version 2021),2021.1.4,119.94003
Conditions/Version_1Pr/zeroback(1)_v1.xlsx,Rule: Press 'space' when you see the letter 'x' or 'X'.,x,space,,,,,0,0,0,0,0,7,7,7,,,,,,,,,,,,,,,,,,,,,,,,,,,,,,,,,,,,,,,,,,,1.49,176.5637993,None,178.059443,None,space,1,178.059443,None,178.4925769,None,0.4194073,,,,,,,,,,,,,,,,,,,,,,,,,,,,,,,P007,fencog,1,Post,2021_Aug_11_0946,N-Back (New Version 2021),2021.1.4,119.94003
Conditions/Version_1Pr/zeroback(1)_v1.xlsx,Rule: Press 'space' when you see the letter 'x' or 'X'.,p,None,,,,,0,0,0,0,0,8,8,8,,,,,,,,,,,,,,,,,,,,,,,,,,,,,,,,,,,,,,,,,,,1.765,179.9960084,None,181.7631727,None,None,1,181.7631727,None,183.7700722,None,,,,,,,,,,,,,,,,,,,,,,,,,,,,,,,,P007,fencog,1,Post,2021_Aug_11_0946,N-Back (New Version 2021),2021.1.4,119.94003
Conditions/Version_1Pr/zeroback(1)_v1.xlsx,Rule: Press 'space' when you see the letter 'x' or 'X'.,r,None,,,,,0,0,0,0,0,9,9,9,,,,,,,,,,,,,,,,,,,,,,,,,,,,,,,,,,,,,,,,,,,1.64,185.2697788,None,186.9113272,None,None,1,186.9113272,None,188.9185741,None,,,,,,,,,,,,,,,,,,,,,,,,,,,,,,,,P007,fencog,1,Post,2021_Aug_11_0946,N-Back (New Version 2021),2021.1.4,119.94003
Conditions/Version_1Pr/zeroback(1)_v1.xlsx,Rule: Press 'space' when you see the letter 'x' or 'X'.,,,,,,,0,0,0,0,,,,,,,,,,,,,,,,,,,,,,,,,,,,,,,,,,,,,,,,,,,,,,,,,,,,,,,,,,,,,,,,,,,,,,,,,,,,,,,,,,,,,,,,,P007,fencog,1,Post,2021_Aug_11_0946,N-Back (New Version 2021),2021.1.4,119.94003
Conditions/Version_1Pr/oneback(1)_v1.xlsx,New rule: Press 'space' when you see 1-back (i.e. the same letter as the one that appeared 1 letter ago.),a,None,,,,,0,1,1,1,0,0,0,0,,,,,,,,,,,,,,,,,,,,,,,,,,,,,,,,,190.4398524,None,193.4277387,None,space,0.0668022,193.4277387,None,190.4398524,None,1.215,193.5223297,None,194.743825,None,None,1,194.743825,None,196.7502404,None,,,,,,,,,,,,,,,,,,,,,,,,,,,,,,,,P007,fencog,1,Post,2021_Aug_11_0946,N-Back (New Version 2021),2021.1.4,119.94003
Conditions/Version_1Pr/oneback(1)_v1.xlsx,New rule: Press 'space' when you see 1-back (i.e. the same letter as the one that appeared 1 letter ago.),x,None,,,,,0,1,1,1,0,1,1,1,,,,,,,,,,,,,,,,,,,,,,,,,,,,,,,,,,,,,,,,,,,1.39,198.24913,None,199.6421892,None,None,1,199.6421892,None,201.6453233,None,,,,,,,,,,,,,,,,,,,,,,,,,,,,,,,,P007,fencog,1,Post,2021_Aug_11_0946,N-Back (New Version 2021),2021.1.4,119.94003
Conditions/Version_1Pr/oneback(1)_v1.xlsx,New rule: Press 'space' when you see 1-back (i.e. the same letter as the one that appeared 1 letter ago.),g,None,,,,,0,1,1,1,0,2,2,2,,,,,,,,,,,,,,,,,,,,,,,,,,,,,,,,,,,,,,,,,,,1.165,203.1477383,None,204.3170336,None,None,1,204.3170336,None,206.3217806,None,,,,,,,,,,,,,,,,,,,,,,,,,,,,,,,,P007,fencog,1,Post,2021_Aug_11_0946,N-Back (New Version 2021),2021.1.4,119.94003
Conditions/Version_1Pr/oneback(1)_v1.xlsx,New rule: Press 'space' when you see 1-back (i.e. the same letter as the one that appeared 1 letter ago.),G,space,,,,,0,1,1,1,0,3,3,3,,,,,,,,,,,,,,,,,,,,,,,,,,,,,,,,,,,,,,,,,,,2.015,207.8214091,None,209.8408291,None,space,1,209.8408291,None,210.1924333,None,0.3417508,,,,,,,,,,,,,,,,,,,,,,,,,,,,,,,P007,fencog,1,Post,2021_Aug_11_0946,N-Back (New Version 2021),2021.1.4,119.94003
Conditions/Version_1Pr/oneback(1)_v1.xlsx,New rule: Press 'space' when you see 1-back (i.e. the same letter as the one that appeared 1 letter ago.),u,None,,,,,0,1,1,1,0,4,4,4,,,,,,,,,,,,,,,,,,,,,,,,,,,,,,,,,,,,,,,,,,,1.84,211.6955686,None,213.5365113,None,None,1,213.5365113,None,215.5357184,None,,,,,,,,,,,,,,,,,,,,,,,,,,,,,,,,P007,fencog,1,Post,2021_Aug_11_0946,N-Back (New Version 2021),2021.1.4,119.94003
Conditions/Version_1Pr/oneback(1)_v1.xlsx,New rule: Press 'space' when you see 1-back (i.e. the same letter as the one that appeared 1 letter ago.),y,None,,,,,0,1,1,1,0,5,5,5,,,,,,,,,,,,,,,,,,,,,,,,,,,,,,,,,,,,,,,,,,,1.99,217.0351522,None,219.0280469,None,None,1,219.0280469,None,221.0341565,None,,,,,,,,,,,,,,,,,,,,,,,,,,,,,,,,P007,fencog,1,Post,2021_Aug_11_0946,N-Back (New Version 2021),2021.1.4,119.94003
Conditions/Version_1Pr/oneback(1)_v1.xlsx,New rule: Press 'space' when you see 1-back (i.e. the same letter as the one that appeared 1 letter ago.),y,space,,,,,0,1,1,1,0,6,6,6,,,,,,,,,,,,,,,,,,,,,,,,,,,,,,,,,,,,,,,,,,,1.615,222.5336503,None,224.1510485,None,space,1,224.1510485,None,224.5921464,None,0.4314397,,,,,,,,,,,,,,,,,,,,,,,,,,,,,,,P007,fencog,1,Post,2021_Aug_11_0946,N-Back (New Version 2021),2021.1.4,119.94003
Conditions/Version_1Pr/oneback(1)_v1.xlsx,New rule: Press 'space' when you see 1-back (i.e. the same letter as the one that appeared 1 letter ago.),k,None,,,,,0,1,1,1,0,7,7,7,,,,,,,,,,,,,,,,,,,,,,,,,,,,,,,,,,,,,,,,,,,1.565,226.099279,None,227.6680526,None,None,1,227.6680526,None,229.6680562,None,,,,,,,,,,,,,,,,,,,,,,,,,,,,,,,,P007,fencog,1,Post,2021_Aug_11_0946,N-Back (New Version 2021),2021.1.4,119.94003
Conditions/Version_1Pr/oneback(1)_v1.xlsx,New rule: Press 'space' when you see 1-back (i.e. the same letter as the one that appeared 1 letter ago.),c,None,,,,,0,1,1,1,0,8,8,8,,,,,,,,,,,,,,,,,,,,,,,,,,,,,,,,,,,,,,,,,,,1.69,231.1727809,None,232.8681797,None,None,1,232.8681797,None,234.8714042,None,,,,,,,,,,,,,,,,,,,,,,,,,,,,,,,,P007,fencog,1,Post,2021_Aug_11_0946,N-Back (New Version 2021),2021.1.4,119.94003
Conditions/Version_1Pr/oneback(1)_v1.xlsx,New rule: Press 'space' when you see 1-back (i.e. the same letter as the one that appeared 1 letter ago.),r,None,,,,,0,1,1,1,0,9,9,9,,,,,,,,,,,,,,,,,,,,,,,,,,,,,,,,,,,,,,,,,,,1.24,236.3710604,None,237.6191082,None,None,1,237.6191082,None,239.6203895,None,,,,,,,,,,,,,,,,,,,,,,,,,,,,,,,,P007,fencog,1,Post,2021_Aug_11_0946,N-Back (New Version 2021),2021.1.4,119.94003
Conditions/Version_1Pr/oneback(1)_v1.xlsx,New rule: Press 'space' when you see 1-back (i.e. the same letter as the one that appeared 1 letter ago.),,,,,,,0,1,1,1,,,,,,,,,,,,,,,,,,,,,,,,,,,,,,,,,,,,,,,,,,,,,,,,,,,,,,,,,,,,,,,,,,,,,,,,,,,,,,,,,,,,,,,,,P007,fencog,1,Post,2021_Aug_11_0946,N-Back (New Version 2021),2021.1.4,119.94003
Conditions/Version_1Pr/twoback(1)_v1.xlsx,New rule: Press 'space' when you see 2-back (i.e. the same letter as the one that appeared 2 letters ago.),E,None,,,,,0,2,2,2,0,0,0,0,,,,,,,,,,,,,,,,,,,,,,,,,,,,,,,,,241.1448796,None,244.1299029,None,space,0.371926,244.1299029,None,241.1448796,None,1.44,244.5354843,None,245.9797557,None,None,1,245.9797557,None,247.9822506,None,,,,,,,,,,,,,,,,,,,,,,,,,,,,,,,,P007,fencog,1,Post,2021_Aug_11_0946,N-Back (New Version 2021),2021.1.4,119.94003
Conditions/Version_1Pr/twoback(1)_v1.xlsx,New rule: Press 'space' when you see 2-back (i.e. the same letter as the one that appeared 2 letters ago.),p,None,,,,,0,2,2,2,0,1,1,1,,,,,,,,,,,,,,,,,,,,,,,,,,,,,,,,,,,,,,,,,,,1.615,249.4840312,None,251.1027824,None,None,1,251.1027824,None,253.1075222,None,,,,,,,,,,,,,,,,,,,,,,,,,,,,,,,,P007,fencog,1,Post,2021_Aug_11_0946,N-Back (New Version 2021),2021.1.4,119.94003
Conditions/Version_1Pr/twoback(1)_v1.xlsx,New rule: Press 'space' when you see 2-back (i.e. the same letter as the one that appeared 2 letters ago.),e,space,,,,,0,2,2,2,0,2,2,2,,,,,,,,,,,,,,,,,,,,,,,,,,,,,,,,,,,,,,,,,,,1.89,254.6076465,None,256.4996557,None,space,1,256.4996557,None,257.0827334,None,0.570782,,,,,,,,,,,,,,,,,,,,,,,,,,,,,,,P007,fencog,1,Post,2021_Aug_11_0946,N-Back (New Version 2021),2021.1.4,119.94003
Conditions/Version_1Pr/twoback(1)_v1.xlsx,New rule: Press 'space' when you see 2-back (i.e. the same letter as the one that appeared 2 letters ago.),s,None,,,,,0,2,2,2,0,3,3,3,,,,,,,,,,,,,,,,,,,,,,,,,,,,,,,,,,,,,,,,,,,1.54,258.5894546,None,260.1325541,None,None,1,260.1325541,None,262.1387387,None,,,,,,,,,,,,,,,,,,,,,,,,,,,,,,,,P007,fencog,1,Post,2021_Aug_11_0946,N-Back (New Version 2021),2021.1.4,119.94003
Conditions/Version_1Pr/twoback(1)_v1.xlsx,New rule: Press 'space' when you see 2-back (i.e. the same letter as the one that appeared 2 letters ago.),S,None,,,,,0,2,2,2,0,4,4,4,,,,,,,,,,,,,,,,,,,,,,,,,,,,,,,,,,,,,,,,,,,1.065,263.6382106,None,264.7064205,None,None,1,264.7064205,None,266.7147111,None,,,,,,,,,,,,,,,,,,,,,,,,,,,,,,,,P007,fencog,1,Post,2021_Aug_11_0946,N-Back (New Version 2021),2021.1.4,119.94003
Conditions/Version_1Pr/twoback(1)_v1.xlsx,New rule: Press 'space' when you see 2-back (i.e. the same letter as the one that appeared 2 letters ago.),s,space,,,,,0,2,2,2,0,5,5,5,,,,,,,,,,,,,,,,,,,,,,,,,,,,,,,,,,,,,,,,,,,1.84,268.2119859,None,270.0548804,None,space,1,270.0548804,None,270.3526877,None,0.2867806,,,,,,,,,,,,,,,,,,,,,,,,,,,,,,,P007,fencog,1,Post,2021_Aug_11_0946,N-Back (New Version 2021),2021.1.4,119.94003
Conditions/Version_1Pr/twoback(1)_v1.xlsx,New rule: Press 'space' when you see 2-back (i.e. the same letter as the one that appeared 2 letters ago.),P,None,,,,,0,2,2,2,0,6,6,6,,,,,,,,,,,,,,,,,,,,,,,,,,,,,,,,,,,,,,,,,,,1.515,271.8524445,None,273.3688725,None,None,1,273.3688725,None,275.3681153,None,,,,,,,,,,,,,,,,,,,,,,,,,,,,,,,,P007,fencog,1,Post,2021_Aug_11_0946,N-Back (New Version 2021),2021.1.4,119.94003
Conditions/Version_1Pr/twoback(1)_v1.xlsx,New rule: Press 'space' when you see 2-back (i.e. the same letter as the one that appeared 2 letters ago.),C,None,,,,,0,2,2,2,0,7,7,7,,,,,,,,,,,,,,,,,,,,,,,,,,,,,,,,,,,,,,,,,,,1.115,276.8680826,None,277.9856089,None,None,1,277.9856089,None,279.9907068,None,,,,,,,,,,,,,,,,,,,,,,,,,,,,,,,,P007,fencog,1,Post,2021_Aug_11_0946,N-Back (New Version 2021),2021.1.4,119.94003
Conditions/Version_1Pr/twoback(1)_v1.xlsx,New rule: Press 'space' when you see 2-back (i.e. the same letter as the one that appeared 2 letters ago.),x,None,,,,,0,2,2,2,0,8,8,8,,,,,,,,,,,,,,,,,,,,,,,,,,,,,,,,,,,,,,,,,,,1.815,281.4911855,None,283.3071881,None,None,1,283.3071881,None,285.3067858,None,,,,,,,,,,,,,,,,,,,,,,,,,,,,,,,,P007,fencog,1,Post,2021_Aug_11_0946,N-Back (New Version 2021),2021.1.4,119.94003
Conditions/Version_1Pr/twoback(1)_v1.xlsx,New rule: Press 'space' when you see 2-back (i.e. the same letter as the one that appeared 2 letters ago.),Z,None,,,,,0,2,2,2,0,9,9,9,,,,,,,,,,,,,,,,,,,,,,,,,,,,,,,,,,,,,,,,,,,1.965,286.8063188,None,288.7740911,None,None,1,288.7740911,None,290.7802425,None,,,,,,,,,,,,,,,,,,,,,,,,,,,,,,,,P007,fencog,1,Post,2021_Aug_11_0946,N-Back (New Version 2021),2021.1.4,119.94003
Conditions/Version_1Pr/twoback(1)_v1.xlsx,New rule: Press 'space' when you see 2-back (i.e. the same letter as the one that appeared 2 letters ago.),,,,,,,0,2,2,2,,,,,,,,,,,,,,,,,,,,,,,,,,,,,,,,,,,,,,,,,,,,,,,,,,,,,,,,,,,,,,,,,,,,,,,,,,,,,,,,,,,,,,,,,P007,fencog,1,Post,2021_Aug_11_0946,N-Back (New Version 2021),2021.1.4,119.94003
Conditions/Version_1Pr/threeback(1)_v1.xlsx,New rule: Press 'space' when you see 3-back (i.e. the same letter as the one that appeared 3 letters ago.),r,None,,,,,0,3,3,3,0,0,0,0,,,,,,,,,,,,,,,,,,,,,,,,,,,,,,,,,292.3051729,None,295.2890977,None,space,0.3652741,295.2890977,None,292.3051729,None,1.215,295.6783062,None,296.8958651,None,None,1,296.8958651,None,298.9027571,None,,,,,,,,,,,,,,,,,,,,,,,,,,,,,,,,P007,fencog,1,Post,2021_Aug_11_0946,N-Back (New Version 2021),2021.1.4,119.94003
Conditions/Version_1Pr/threeback(1)_v1.xlsx,New rule: Press 'space' when you see 3-back (i.e. the same letter as the one that appeared 3 letters ago.),a,None,,,,,0,3,3,3,0,1,1,1,,,,,,,,,,,,,,,,,,,,,,,,,,,,,,,,,,,,,,,,,,,1.94,300.4021226,None,302.343171,None,None,1,302.343171,None,304.3428493,None,,,,,,,,,,,,,,,,,,,,,,,,,,,,,,,,P007,fencog,1,Post,2021_Aug_11_0946,N-Back (New Version 2021),2021.1.4,119.94003
Conditions/Version_1Pr/threeback(1)_v1.xlsx,New rule: Press 'space' when you see 3-back (i.e. the same letter as the one that appeared 3 letters ago.),t,None,,,,,0,3,3,3,0,2,2,2,,,,,,,,,,,,,,,,,,,,,,,,,,,,,,,,,,,,,,,,,,,1.465,305.8422999,None,307.3092344,None,None,1,307.3092344,None,309.3164988,None,,,,,,,,,,,,,,,,,,,,,,,,,,,,,,,,P007,fencog,1,Post,2021_Aug_11_0946,N-Back (New Version 2021),2021.1.4,119.94003
Conditions/Version_1Pr/threeback(1)_v1.xlsx,New rule: Press 'space' when you see 3-back (i.e. the same letter as the one that appeared 3 letters ago.),r,space,,,,,0,3,3,3,0,3,3,3,,,,,,,,,,,,,,,,,,,,,,,,,,,,,,,,,,,,,,,,,,,1.49,310.8160367,None,312.3078321,None,space,1,312.3078321,None,313.6911533,None,1.3708105,,,,,,,,,,,,,,,,,,,,,,,,,,,,,,,P007,fencog,1,Post,2021_Aug_11_0946,N-Back (New Version 2021),2021.1.4,119.94003
Conditions/Version_1Pr/threeback(1)_v1.xlsx,New rule: Press 'space' when you see 3-back (i.e. the same letter as the one that appeared 3 letters ago.),a,None,,,,,0,3,3,3,0,4,4,4,,,,,,,,,,,,,,,,,,,,,,,,,,,,,,,,,,,,,,,,,,,1.24,315.1978568,None,316.4393431,None,space,0,316.4393431,None,317.5028573,None,1.0471222,,,,,,,,,,,,,,,,,,,,,,,,,,,,,,,P007,fencog,1,Post,2021_Aug_11_0946,N-Back (New Version 2021),2021.1.4,119.94003
Conditions/Version_1Pr/threeback(1)_v1.xlsx,New rule: Press 'space' when you see 3-back (i.e. the same letter as the one that appeared 3 letters ago.),Y,None,,,,,0,3,3,3,0,5,5,5,,,,,,,,,,,,,,,,,,,,,,,,,,,,,,,,,,,,,,,,,,,1.44,319.0064795,None,320.4518997,None,None,1,320.4518997,None,322.464396,None,,,,,,,,,,,,,,,,,,,,,,,,,,,,,,,,P007,fencog,1,Post,2021_Aug_11_0946,N-Back (New Version 2021),2021.1.4,119.94003
Conditions/Version_1Pr/threeback(1)_v1.xlsx,New rule: Press 'space' when you see 3-back (i.e. the same letter as the one that appeared 3 letters ago.),q,None,,,,,0,3,3,3,0,6,6,6,,,,,,,,,,,,,,,,,,,,,,,,,,,,,,,,,,,,,,,,,,,1.815,323.9536672,None,325.7758017,None,None,1,325.7758017,None,327.7777056,None,,,,,,,,,,,,,,,,,,,,,,,,,,,,,,,,P007,fencog,1,Post,2021_Aug_11_0946,N-Back (New Version 2021),2021.1.4,119.94003
Conditions/Version_1Pr/threeback(1)_v1.xlsx,New rule: Press 'space' when you see 3-back (i.e. the same letter as the one that appeared 3 letters ago.),A,space,,,,,0,3,3,3,0,7,7,7,,,,,,,,,,,,,,,,,,,,,,,,,,,,,,,,,,,,,,,,,,,1.365,329.2771673,None,330.6449406,None,None,0,330.6449406,None,332.6584967,None,,,,,,,,,,,,,,,,,,,,,,,,,,,,,,,,P007,fencog,1,Post,2021_Aug_11_0946,N-Back (New Version 2021),2021.1.4,119.94003
Conditions/Version_1Pr/threeback(1)_v1.xlsx,New rule: Press 'space' when you see 3-back (i.e. the same letter as the one that appeared 3 letters ago.),y,None,,,,,0,3,3,3,0,8,8,8,,,,,,,,,,,,,,,,,,,,,,,,,,,,,,,,,,,,,,,,,,,1.765,334.1507977,None,335.9189851,None,space,0,335.9189851,None,336.7283769,None,0.7912338,,,,,,,,,,,,,,,,,,,,,,,,,,,,,,,P007,fencog,1,Post,2021_Aug_11_0946,N-Back (New Version 2021),2021.1.4,119.94003
Conditions/Version_1Pr/threeback(1)_v1.xlsx,New rule: Press 'space' when you see 3-back (i.e. the same letter as the one that appeared 3 letters ago.),r,None,,,,,0,3,3,3,0,9,9,9,,,,,,,,,,,,,,,,,,,,,,,,,,,,,,,,,,,,,,,,,,,1.615,338.2328625,None,339.8510438,None,None,1,339.8510438,None,341.8580651,None,,,,,,,,,,,,,,,,,,,,,,,,,,,,,,,,P007,fencog,1,Post,2021_Aug_11_0946,N-Back (New Version 2021),2021.1.4,119.94003
Conditions/Version_1Pr/threeback(1)_v1.xlsx,New rule: Press 'space' when you see 3-back (i.e. the same letter as the one that appeared 3 letters ago.),,,,,,,0,3,3,3,,,,,,,,,,,,,,,,,,,,,,,,,,,,,,,,,,,,,,,,,,,,,,,,,,,,,,,,,,,,,,,,,,,,,,,,,,,,,,,,,,,,,,,,,P007,fencog,1,Post,2021_Aug_11_0946,N-Back (New Version 2021),2021.1.4,119.94003
,,,,,,,,,,,,,,,,,,,,,,,,,,,,,,,,,,,,,,,,,,,,,,,,,,,,,,,,,,,,,,,,,,,,,,343.3656708,None,space,1.4943125,343.8563985,None,,,,,,,,,,,,,,,,,,,,,,,,,P007,fencog,1,Post,2021_Aug_11_0946,N-Back (New Version 2021),2021.1.4,119.94003
,,,,,,,,,,,,,,,,,,,,,,,,,,,,,,,,,,,,,,,,,,,,,,,,,,,,,,,,,,,,,,,,,,,,,,,,,,,,345.3769169,None,space,4.4941933,345.8725966,None,,,,,,,,,,,,,,,,,,,P007,fencog,1,Post,2021_Aug_11_0946,N-Back (New Version 2021),2021.1.4,119.94003
,,,,Conditions/Version_1/zeroback(1)_v1.xlsx,Rule: Press 'space' when you see the letter 'x' or 'X'.,b,None,,,,,,,,,0,0,0,0,0,0,0,0,,,,,,,,,,,,,,,,,,,,,,,,,,,,,,,,,,,,,,,,,,,,,,,,,,,,,,,,,,,350.4884192,None,353.4721586,None,space,0.7511673,353.4721586,None,350.4884192,None,1.1402,355.3966929,None,None,1,355.3966929,None,,P007,fencog,1,Post,2021_Aug_11_0946,N-Back (New Version 2021),2021.1.4,119.94003
,,,,Conditions/Version_1/zeroback(1)_v1.xlsx,Rule: Press 'space' when you see the letter 'x' or 'X'.,T,None,,,,,,,,,0,0,0,0,0,1,1,1,,,,,,,,,,,,,,,,,,,,,,,,,,,,,,,,,,,,,,,,,,,,,,,,,,,,,,,,,,,,,,,,,,,,,1.9028,359.3100918,None,None,1,359.3100918,None,,P007,fencog,1,Post,2021_Aug_11_0946,N-Back (New Version 2021),2021.1.4,119.94003
,,,,Conditions/Version_1/zeroback(1)_v1.xlsx,Rule: Press 'space' when you see the letter 'x' or 'X'.,L,None,,,,,,,,,0,0,0,0,0,2,2,2,,,,,,,,,,,,,,,,,,,,,,,,,,,,,,,,,,,,,,,,,,,,,,,,,,,,,,,,,,,,,,,,,,,,,1.1836,362.4976758,None,None,1,362.4976758,None,,P007,fencog,1,Post,2021_Aug_11_0946,N-Back (New Version 2021),2021.1.4,119.94003
,,,,Conditions/Version_1/zeroback(1)_v1.xlsx,Rule: Press 'space' when you see the letter 'x' or 'X'.,x,space,,,,,,,,,0,0,0,0,0,3,3,3,,,,,,,,,,,,,,,,,,,,,,,,,,,,,,,,,,,,,,,,,,,,,,,,,,,,,,,,,,,,,,,,,,,,,1.4068,365.908643,None,space,1,365.908643,None,0.897895,P007,fencog,1,Post,2021_Aug_11_0946,N-Back (New Version 2021),2021.1.4,119.94003
,,,,Conditions/Version_1/zeroback(1)_v1.xlsx,Rule: Press 'space' when you see the letter 'x' or 'X'.,o,None,,,,,,,,,0,0,0,0,0,4,4,4,,,,,,,,,,,,,,,,,,,,,,,,,,,,,,,,,,,,,,,,,,,,,,,,,,,,,,,,,,,,,,,,,,,,,1.5618,369.4847586,None,None,1,369.4847586,None,,P007,fencog,1,Post,2021_Aug_11_0946,N-Back (New Version 2021),2021.1.4,119.94003
,,,,Conditions/Version_1/zeroback(1)_v1.xlsx,Rule: Press 'space' when you see the letter 'x' or 'X'.,P,None,,,,,,,,,0,0,0,0,0,5,5,5,,,,,,,,,,,,,,,,,,,,,,,,,,,,,,,,,,,,,,,,,,,,,,,,,,,,,,,,,,,,,,,,,,,,,1.0348,372.5313758,None,None,1,372.5313758,None,,P007,fencog,1,Post,2021_Aug_11_0946,N-Back (New Version 2021),2021.1.4,119.94003
,,,,Conditions/Version_1/zeroback(1)_v1.xlsx,Rule: Press 'space' when you see the letter 'x' or 'X'.,X,space,,,,,,,,,0,0,0,0,0,6,6,6,,,,,,,,,,,,,,,,,,,,,,,,,,,,,,,,,,,,,,,,,,,,,,,,,,,,,,,,,,,,,,,,,,,,,1.878,376.4156182,None,space,1,376.4156182,None,0.3823912,P007,fencog,1,Post,2021_Aug_11_0946,N-Back (New Version 2021),2021.1.4,119.94003
,,,,Conditions/Version_1/zeroback(1)_v1.xlsx,Rule: Press 'space' when you see the letter 'x' or 'X'.,n,None,,,,,,,,,0,0,0,0,0,7,7,7,,,,,,,,,,,,,,,,,,,,,,,,,,,,,,,,,,,,,,,,,,,,,,,,,,,,,,,,,,,,,,,,,,,,,1.0906,379.5140839,None,None,1,379.5140839,None,,P007,fencog,1,Post,2021_Aug_11_0946,N-Back (New Version 2021),2021.1.4,119.94003
,,,,Conditions/Version_1/zeroback(1)_v1.xlsx,Rule: Press 'space' when you see the letter 'x' or 'X'.,M,None,,,,,,,,,0,0,0,0,0,8,8,8,,,,,,,,,,,,,,,,,,,,,,,,,,,,,,,,,,,,,,,,,,,,,,,,,,,,,,,,,,,,,,,,,,,,,1.0162,382.5383828,None,None,1,382.5383828,None,,P007,fencog,1,Post,2021_Aug_11_0946,N-Back (New Version 2021),2021.1.4,119.94003
,,,,Conditions/Version_1/zeroback(1)_v1.xlsx,Rule: Press 'space' when you see the letter 'x' or 'X'.,a,None,,,,,,,,,0,0,0,0,0,9,9,9,,,,,,,,,,,,,,,,,,,,,,,,,,,,,,,,,,,,,,,,,,,,,,,,,,,,,,,,,,,,,,,,,,,,,1.2828,385.8294829,None,None,1,385.8294829,None,,P007,fencog,1,Post,2021_Aug_11_0946,N-Back (New Version 2021),2021.1.4,119.94003
,,,,Conditions/Version_1/zeroback(1)_v1.xlsx,Rule: Press 'space' when you see the letter 'x' or 'X'.,,,,,,,,,,,0,0,0,0,,,,,,,,,,,,,,,,,,,,,,,,,,,,,,,,,,,,,,,,,,,,,,,,,,,,,,,,,,,,,,,,,,,,,,,,,,,,,,,,,P007,fencog,1,Post,2021_Aug_11_0946,N-Back (New Version 2021),2021.1.4,119.94003
,,,,Conditions/Version_1/oneback(1)_v1.xlsx,New rule: Press 'space' when you see 1-back (i.e. the same letter as the one that appeared 1 letter ago.),b,None,,,,,,,,,0,1,1,1,0,0,0,0,,,,,,,,,,,,,,,,,,,,,,,,,,,,,,,,,,,,,,,,,,,,,,,,,,,,,,,,,,,387.8546209,None,390.8395799,None,space,0.0707052,390.8395799,None,387.8546209,None,1.8036,392.7355624,None,None,1,392.7355624,None,,P007,fencog,1,Post,2021_Aug_11_0946,N-Back (New Version 2021),2021.1.4,119.94003
,,,,Conditions/Version_1/oneback(1)_v1.xlsx,New rule: Press 'space' when you see 1-back (i.e. the same letter as the one that appeared 1 letter ago.),p,None,,,,,,,,,0,1,1,1,0,1,1,1,,,,,,,,,,,,,,,,,,,,,,,,,,,,,,,,,,,,,,,,,,,,,,,,,,,,,,,,,,,,,,,,,,,,,1.289,396.0323046,None,None,1,396.0323046,None,,P007,fencog,1,Post,2021_Aug_11_0946,N-Back (New Version 2021),2021.1.4,119.94003
,,,,Conditions/Version_1/oneback(1)_v1.xlsx,New rule: Press 'space' when you see 1-back (i.e. the same letter as the one that appeared 1 letter ago.),M,None,,,,,,,,,0,1,1,1,0,2,2,2,,,,,,,,,,,,,,,,,,,,,,,,,,,,,,,,,,,,,,,,,,,,,,,,,,,,,,,,,,,,,,,,,,,,,1.4254,399.4573519,None,None,1,399.4573519,None,,P007,fencog,1,Post,2021_Aug_11_0946,N-Back (New Version 2021),2021.1.4,119.94003
,,,,Conditions/Version_1/oneback(1)_v1.xlsx,New rule: Press 'space' when you see 1-back (i.e. the same letter as the one that appeared 1 letter ago.),M,space,,,,,,,,,0,1,1,1,0,3,3,3,,,,,,,,,,,,,,,,,,,,,,,,,,,,,,,,,,,,,,,,,,,,,,,,,,,,,,,,,,,,,,,,,,,,,1.4006,402.8721884,None,space,1,402.8721884,None,0.5429922,P007,fencog,1,Post,2021_Aug_11_0946,N-Back (New Version 2021),2021.1.4,119.94003
,,,,Conditions/Version_1/oneback(1)_v1.xlsx,New rule: Press 'space' when you see 1-back (i.e. the same letter as the one that appeared 1 letter ago.),n,None,,,,,,,,,0,1,1,1,0,4,4,4,,,,,,,,,,,,,,,,,,,,,,,,,,,,,,,,,,,,,,,,,,,,,,,,,,,,,,,,,,,,,,,,,,,,,1.9028,406.7790776,None,None,1,406.7790776,None,,P007,fencog,1,Post,2021_Aug_11_0946,N-Back (New Version 2021),2021.1.4,119.94003
,,,,Conditions/Version_1/oneback(1)_v1.xlsx,New rule: Press 'space' when you see 1-back (i.e. the same letter as the one that appeared 1 letter ago.),g,None,,,,,,,,,0,1,1,1,0,5,5,5,,,,,,,,,,,,,,,,,,,,,,,,,,,,,,,,,,,,,,,,,,,,,,,,,,,,,,,,,,,,,,,,,,,,,1.661,410.451198,None,None,1,410.451198,None,,P007,fencog,1,Post,2021_Aug_11_0946,N-Back (New Version 2021),2021.1.4,119.94003
,,,,Conditions/Version_1/oneback(1)_v1.xlsx,New rule: Press 'space' when you see 1-back (i.e. the same letter as the one that appeared 1 letter ago.),P,None,,,,,,,,,0,1,1,1,0,6,6,6,,,,,,,,,,,,,,,,,,,,,,,,,,,,,,,,,,,,,,,,,,,,,,,,,,,,,,,,,,,,,,,,,,,,,1.2022,413.6603467,None,None,1,413.6603467,None,,P007,fencog,1,Post,2021_Aug_11_0946,N-Back (New Version 2021),2021.1.4,119.94003
,,,,Conditions/Version_1/oneback(1)_v1.xlsx,New rule: Press 'space' when you see 1-back (i.e. the same letter as the one that appeared 1 letter ago.),o,None,,,,,,,,,0,1,1,1,0,7,7,7,,,,,,,,,,,,,,,,,,,,,,,,,,,,,,,,,,,,,,,,,,,,,,,,,,,,,,,,,,,,,,,,,,,,,1.2828,416.9473446,None,None,1,416.9473446,None,,P007,fencog,1,Post,2021_Aug_11_0946,N-Back (New Version 2021),2021.1.4,119.94003
,,,,Conditions/Version_1/oneback(1)_v1.xlsx,New rule: Press 'space' when you see 1-back (i.e. the same letter as the one that appeared 1 letter ago.),f,None,,,,,,,,,0,1,1,1,0,8,8,8,,,,,,,,,,,,,,,,,,,,,,,,,,,,,,,,,,,,,,,,,,,,,,,,,,,,,,,,,,,,,,,,,,,,,1.6486,420.6093247,None,None,1,420.6093247,None,,P007,fencog,1,Post,2021_Aug_11_0946,N-Back (New Version 2021),2021.1.4,119.94003
,,,,Conditions/Version_1/oneback(1)_v1.xlsx,New rule: Press 'space' when you see 1-back (i.e. the same letter as the one that appeared 1 letter ago.),F,space,,,,,,,,,0,1,1,1,0,9,9,9,,,,,,,,,,,,,,,,,,,,,,,,,,,,,,,,,,,,,,,,,,,,,,,,,,,,,,,,,,,,,,,,,,,,,1.692,424.3084524,None,space,1,424.3084524,None,0.4178416,P007,fencog,1,Post,2021_Aug_11_0946,N-Back (New Version 2021),2021.1.4,119.94003
,,,,Conditions/Version_1/oneback(1)_v1.xlsx,New rule: Press 'space' when you see 1-back (i.e. the same letter as the one that appeared 1 letter ago.),,,,,,,,,,,0,1,1,1,,,,,,,,,,,,,,,,,,,,,,,,,,,,,,,,,,,,,,,,,,,,,,,,,,,,,,,,,,,,,,,,,,,,,,,,,,,,,,,,,P007,fencog,1,Post,2021_Aug_11_0946,N-Back (New Version 2021),2021.1.4,119.94003
,,,,Conditions/Version_1/twoback(1)_v1.xlsx,New rule: Press 'space' when you see 2-back (i.e. the same letter as the one that appeared 2 letters ago.),b,None,,,,,,,,,0,2,2,2,0,0,0,0,,,,,,,,,,,,,,,,,,,,,,,,,,,,,,,,,,,,,,,,,,,,,,,,,,,,,,,,,,,426.3261009,None,429.3074883,None,space,0.6187745,429.3074883,None,426.3261009,None,1.165,431.1136701,None,None,1,431.1136701,None,,P007,fencog,1,Post,2021_Aug_11_0946,N-Back (New Version 2021),2021.1.4,119.94003
,,,,Conditions/Version_1/twoback(1)_v1.xlsx,New rule: Press 'space' when you see 2-back (i.e. the same letter as the one that appeared 2 letters ago.),h,None,,,,,,,,,0,2,2,2,0,1,1,1,,,,,,,,,,,,,,,,,,,,,,,,,,,,,,,,,,,,,,,,,,,,,,,,,,,,,,,,,,,,,,,,,,,,,1.4812,434.5975762,None,None,1,434.5975762,None,,P007,fencog,1,Post,2021_Aug_11_0946,N-Back (New Version 2021),2021.1.4,119.94003
,,,,Conditions/Version_1/twoback(1)_v1.xlsx,New rule: Press 'space' when you see 2-back (i.e. the same letter as the one that appeared 2 letters ago.),j,None,,,,,,,,,0,2,2,2,0,2,2,2,,,,,,,,,,,,,,,,,,,,,,,,,,,,,,,,,,,,,,,,,,,,,,,,,,,,,,,,,,,,,,,,,,,,,1.3572,437.9627818,None,None,1,437.9627818,None,,P007,fencog,1,Post,2021_Aug_11_0946,N-Back (New Version 2021),2021.1.4,119.94003
,,,,Conditions/Version_1/twoback(1)_v1.xlsx,New rule: Press 'space' when you see 2-back (i.e. the same letter as the one that appeared 2 letters ago.),H,space,,,,,,,,,0,2,2,2,0,3,3,3,,,,,,,,,,,,,,,,,,,,,,,,,,,,,,,,,,,,,,,,,,,,,,,,,,,,,,,,,,,,,,,,,,,,,1.2208,441.1970137,None,space,1,441.1970137,None,0.409451,P007,fencog,1,Post,2021_Aug_11_0946,N-Back (New Version 2021),2021.1.4,119.94003
,,,,Conditions/Version_1/twoback(1)_v1.xlsx,New rule: Press 'space' when you see 2-back (i.e. the same letter as the one that appeared 2 letters ago.),p,None,,,,,,,,,0,2,2,2,0,4,4,4,,,,,,,,,,,,,,,,,,,,,,,,,,,,,,,,,,,,,,,,,,,,,,,,,,,,,,,,,,,,,,,,,,,,,1.1216,444.3273698,None,None,1,444.3273698,None,,P007,fencog,1,Post,2021_Aug_11_0946,N-Back (New Version 2021),2021.1.4,119.94003
,,,,Conditions/Version_1/twoback(1)_v1.xlsx,New rule: Press 'space' when you see 2-back (i.e. the same letter as the one that appeared 2 letters ago.),p,None,,,,,,,,,0,2,2,2,0,5,5,5,,,,,,,,,,,,,,,,,,,,,,,,,,,,,,,,,,,,,,,,,,,,,,,,,,,,,,,,,,,,,,,,,,,,,1.4502,447.7838647,None,None,1,447.7838647,None,,P007,fencog,1,Post,2021_Aug_11_0946,N-Back (New Version 2021),2021.1.4,119.94003
,,,,Conditions/Version_1/twoback(1)_v1.xlsx,New rule: Press 'space' when you see 2-back (i.e. the same letter as the one that appeared 2 letters ago.),w,None,,,,,,,,,0,2,2,2,0,6,6,6,,,,,,,,,,,,,,,,,,,,,,,,,,,,,,,,,,,,,,,,,,,,,,,,,,,,,,,,,,,,,,,,,,,,,1.7726,451.5682416,None,None,1,451.5682416,None,,P007,fencog,1,Post,2021_Aug_11_0946,N-Back (New Version 2021),2021.1.4,119.94003
,,,,Conditions/Version_1/twoback(1)_v1.xlsx,New rule: Press 'space' when you see 2-back (i.e. the same letter as the one that appeared 2 letters ago.),R,None,,,,,,,,,0,2,2,2,0,7,7,7,,,,,,,,,,,,,,,,,,,,,,,,,,,,,,,,,,,,,,,,,,,,,,,,,,,,,,,,,,,,,,,,,,,,,1.351,454.9343393,None,None,1,454.9343393,None,,P007,fencog,1,Post,2021_Aug_11_0946,N-Back (New Version 2021),2021.1.4,119.94003
,,,,Conditions/Version_1/twoback(1)_v1.xlsx,New rule: Press 'space' when you see 2-back (i.e. the same letter as the one that appeared 2 letters ago.),a,None,,,,,,,,,0,2,2,2,0,8,8,8,,,,,,,,,,,,,,,,,,,,,,,,,,,,,,,,,,,,,,,,,,,,,,,,,,,,,,,,,,,,,,,,,,,,,1.2456,458.189967,None,None,1,458.189967,None,,P007,fencog,1,Post,2021_Aug_11_0946,N-Back (New Version 2021),2021.1.4,119.94003
,,,,Conditions/Version_1/twoback(1)_v1.xlsx,New rule: Press 'space' when you see 2-back (i.e. the same letter as the one that appeared 2 letters ago.),r,space,,,,,,,,,0,2,2,2,0,9,9,9,,,,,,,,,,,,,,,,,,,,,,,,,,,,,,,,,,,,,,,,,,,,,,,,,,,,,,,,,,,,,,,,,,,,,1.7168,461.9127873,None,space,1,461.9127873,None,0.6458221,P007,fencog,1,Post,2021_Aug_11_0946,N-Back (New Version 2021),2021.1.4,119.94003
,,,,Conditions/Version_1/twoback(1)_v1.xlsx,New rule: Press 'space' when you see 2-back (i.e. the same letter as the one that appeared 2 letters ago.),,,,,,,,,,,0,2,2,2,,,,,,,,,,,,,,,,,,,,,,,,,,,,,,,,,,,,,,,,,,,,,,,,,,,,,,,,,,,,,,,,,,,,,,,,,,,,,,,,,P007,fencog,1,Post,2021_Aug_11_0946,N-Back (New Version 2021),2021.1.4,119.94003
,,,,Conditions/Version_1/threeback(1)_v1.xlsx,New rule: Press 'space' when you see 3-back (i.e. the same letter as the one that appeared 3 letters ago.),r,None,,,,,,,,,0,3,3,3,0,0,0,0,,,,,,,,,,,,,,,,,,,,,,,,,,,,,,,,,,,,,,,,,,,,,,,,,,,,,,,,,,,463.9331929,None,466.9248802,None,space,0.377397,466.9248802,None,463.9331929,None,1.7044,469.0360318,None,None,1,469.0360318,None,,P007,fencog,1,Post,2021_Aug_11_0946,N-Back (New Version 2021),2021.1.4,119.94003
,,,,Conditions/Version_1/threeback(1)_v1.xlsx,New rule: Press 'space' when you see 3-back (i.e. the same letter as the one that appeared 3 letters ago.),o,None,,,,,,,,,0,3,3,3,0,1,1,1,,,,,,,,,,,,,,,,,,,,,,,,,,,,,,,,,,,,,,,,,,,,,,,,,,,,,,,,,,,,,,,,,,,,,1.3014,472.3460483,None,None,1,472.3460483,None,,P007,fencog,1,Post,2021_Aug_11_0946,N-Back (New Version 2021),2021.1.4,119.94003
,,,,Conditions/Version_1/threeback(1)_v1.xlsx,New rule: Press 'space' when you see 3-back (i.e. the same letter as the one that appeared 3 letters ago.),P,None,,,,,,,,,0,3,3,3,0,2,2,2,,,,,,,,,,,,,,,,,,,,,,,,,,,,,,,,,,,,,,,,,,,,,,,,,,,,,,,,,,,,,,,,,,,,,1.9214,476.2785871,None,None,1,476.2785871,None,,P007,fencog,1,Post,2021_Aug_11_0946,N-Back (New Version 2021),2021.1.4,119.94003
,,,,Conditions/Version_1/threeback(1)_v1.xlsx,New rule: Press 'space' when you see 3-back (i.e. the same letter as the one that appeared 3 letters ago.),R,space,,,,,,,,,0,3,3,3,0,3,3,3,,,,,,,,,,,,,,,,,,,,,,,,,,,,,,,,,,,,,,,,,,,,,,,,,,,,,,,,,,,,,,,,,,,,,1.4688,479.7575729,None,space,1,479.7575729,None,0.4092152,P007,fencog,1,Post,2021_Aug_11_0946,N-Back (New Version 2021),2021.1.4,119.94003
,,,,Conditions/Version_1/threeback(1)_v1.xlsx,New rule: Press 'space' when you see 3-back (i.e. the same letter as the one that appeared 3 letters ago.),p,None,,,,,,,,,0,3,3,3,0,4,4,4,,,,,,,,,,,,,,,,,,,,,,,,,,,,,,,,,,,,,,,,,,,,,,,,,,,,,,,,,,,,,,,,,,,,,1.258,483.0161971,None,None,1,483.0161971,None,,P007,fencog,1,Post,2021_Aug_11_0946,N-Back (New Version 2021),2021.1.4,119.94003
,,,,Conditions/Version_1/threeback(1)_v1.xlsx,New rule: Press 'space' when you see 3-back (i.e. the same letter as the one that appeared 3 letters ago.),E,None,,,,,,,,,0,3,3,3,0,5,5,5,,,,,,,,,,,,,,,,,,,,,,,,,,,,,,,,,,,,,,,,,,,,,,,,,,,,,,,,,,,,,,,,,,,,,1.7416,486.7651126,None,None,1,486.7651126,None,,P007,fencog,1,Post,2021_Aug_11_0946,N-Back (New Version 2021),2021.1.4,119.94003
,,,,Conditions/Version_1/threeback(1)_v1.xlsx,New rule: Press 'space' when you see 3-back (i.e. the same letter as the one that appeared 3 letters ago.),e,None,,,,,,,,,0,3,3,3,0,6,6,6,,,,,,,,,,,,,,,,,,,,,,,,,,,,,,,,,,,,,,,,,,,,,,,,,,,,,,,,,,,,,,,,,,,,,1.7478,490.5210889,None,None,1,490.5210889,None,,P007,fencog,1,Post,2021_Aug_11_0946,N-Back (New Version 2021),2021.1.4,119.94003
,,,,Conditions/Version_1/threeback(1)_v1.xlsx,New rule: Press 'space' when you see 3-back (i.e. the same letter as the one that appeared 3 letters ago.),m,None,,,,,,,,,0,3,3,3,0,7,7,7,,,,,,,,,,,,,,,,,,,,,,,,,,,,,,,,,,,,,,,,,,,,,,,,,,,,,,,,,,,,,,,,,,,,,1.9524,494.4813531,None,None,1,494.4813531,None,,P007,fencog,1,Post,2021_Aug_11_0946,N-Back (New Version 2021),2021.1.4,119.94003
,,,,Conditions/Version_1/threeback(1)_v1.xlsx,New rule: Press 'space' when you see 3-back (i.e. the same letter as the one that appeared 3 letters ago.),n,None,,,,,,,,,0,3,3,3,0,8,8,8,,,,,,,,,,,,,,,,,,,,,,,,,,,,,,,,,,,,,,,,,,,,,,,,,,,,,,,,,,,,,,,,,,,,,1.971,498.4638881,None,None,1,498.4638881,None,,P007,fencog,1,Post,2021_Aug_11_0946,N-Back (New Version 2021),2021.1.4,119.94003
,,,,Conditions/Version_1/threeback(1)_v1.xlsx,New rule: Press 'space' when you see 3-back (i.e. the same letter as the one that appeared 3 letters ago.),e,space,,,,,,,,,0,3,3,3,0,9,9,9,,,,,,,,,,,,,,,,,,,,,,,,,,,,,,,,,,,,,,,,,,,,,,,,,,,,,,,,,,,,,,,,,,,,,1.5928,502.0675925,None,space,1,502.0675925,None,0.4427015,P007,fencog,1,Post,2021_Aug_11_0946,N-Back (New Version 2021),2021.1.4,119.94003
,,,,Conditions/Version_1/threeback(1)_v1.xlsx,New rule: Press 'space' when you see 3-back (i.e. the same letter as the one that appeared 3 letters ago.),,,,,,,,,,,0,3,3,3,,,,,,,,,,,,,,,,,,,,,,,,,,,,,,,,,,,,,,,,,,,,,,,,,,,,,,,,,,,,,,,,,,,,,,,,,,,,,,,,,P007,fencog,1,Post,2021_Aug_11_0946,N-Back (New Version 2021),2021.1.4,119.94003
,,,,Conditions/Version_1/oneback(2)_v1.xlsx,New rule: Press 'space' when you see 1-back (i.e. the same letter as the one that appeared 1 letter ago.),q,None,,,,,,,,,0,4,4,4,0,0,0,0,,,,,,,,,,,,,,,,,,,,,,,,,,,,,,,,,,,,,,,,,,,,,,,,,,,,,,,,,,,504.08958,None,507.0768571,None,space,0.0573791,507.0768571,None,504.08958,None,1.6176,508.7741488,None,None,1,508.7741488,None,,P007,fencog,1,Post,2021_Aug_11_0946,N-Back (New Version 2021),2021.1.4,119.94003
,,,,Conditions/Version_1/oneback(2)_v1.xlsx,New rule: Press 'space' when you see 1-back (i.e. the same letter as the one that appeared 1 letter ago.),Q,space,,,,,,,,,0,4,4,4,0,1,1,1,,,,,,,,,,,,,,,,,,,,,,,,,,,,,,,,,,,,,,,,,,,,,,,,,,,,,,,,,,,,,,,,,,,,,1.785,512.5656033,None,space,1,512.5656033,None,0.3925951,P007,fencog,1,Post,2021_Aug_11_0946,N-Back (New Version 2021),2021.1.4,119.94003
,,,,Conditions/Version_1/oneback(2)_v1.xlsx,New rule: Press 'space' when you see 1-back (i.e. the same letter as the one that appeared 1 letter ago.),P,None,,,,,,,,,0,4,4,4,0,2,2,2,,,,,,,,,,,,,,,,,,,,,,,,,,,,,,,,,,,,,,,,,,,,,,,,,,,,,,,,,,,,,,,,,,,,,1.692,516.2658395,None,None,1,516.2658395,None,,P007,fencog,1,Post,2021_Aug_11_0946,N-Back (New Version 2021),2021.1.4,119.94003
,,,,Conditions/Version_1/oneback(2)_v1.xlsx,New rule: Press 'space' when you see 1-back (i.e. the same letter as the one that appeared 1 letter ago.),o,None,,,,,,,,,0,4,4,4,0,3,3,3,,,,,,,,,,,,,,,,,,,,,,,,,,,,,,,,,,,,,,,,,,,,,,,,,,,,,,,,,,,,,,,,,,,,,1.2146,519.487462,None,None,1,519.487462,None,,P007,fencog,1,Post,2021_Aug_11_0946,N-Back (New Version 2021),2021.1.4,119.94003
,,,,Conditions/Version_1/oneback(2)_v1.xlsx,New rule: Press 'space' when you see 1-back (i.e. the same letter as the one that appeared 1 letter ago.),m,None,,,,,,,,,0,4,4,4,0,4,4,4,,,,,,,,,,,,,,,,,,,,,,,,,,,,,,,,,,,,,,,,,,,,,,,,,,,,,,,,,,,,,,,,,,,,,1.0596,522.5537762,None,None,1,522.5537762,None,,P007,fencog,1,Post,2021_Aug_11_0946,N-Back (New Version 2021),2021.1.4,119.94003
,,,,Conditions/Version_1/oneback(2)_v1.xlsx,New rule: Press 'space' when you see 1-back (i.e. the same letter as the one that appeared 1 letter ago.),Z,None,,,,,,,,,0,4,4,4,0,5,5,5,,,,,,,,,,,,,,,,,,,,,,,,,,,,,,,,,,,,,,,,,,,,,,,,,,,,,,,,,,,,,,,,,,,,,1.8532,526.420878,None,None,1,526.420878,None,,P007,fencog,1,Post,2021_Aug_11_0946,N-Back (New Version 2021),2021.1.4,119.94003
,,,,Conditions/Version_1/oneback(2)_v1.xlsx,New rule: Press 'space' when you see 1-back (i.e. the same letter as the one that appeared 1 letter ago.),c,None,,,,,,,,,0,4,4,4,0,6,6,6,,,,,,,,,,,,,,,,,,,,,,,,,,,,,,,,,,,,,,,,,,,,,,,,,,,,,,,,,,,,,,,,,,,,,1.0844,529.5114756,None,None,1,529.5114756,None,,P007,fencog,1,Post,2021_Aug_11_0946,N-Back (New Version 2021),2021.1.4,119.94003
,,,,Conditions/Version_1/oneback(2)_v1.xlsx,New rule: Press 'space' when you see 1-back (i.e. the same letter as the one that appeared 1 letter ago.),c,space,,,,,,,,,0,4,4,4,0,7,7,7,,,,,,,,,,,,,,,,,,,,,,,,,,,,,,,,,,,,,,,,,,,,,,,,,,,,,,,,,,,,,,,,,,,,,1.3014,532.8263729,None,space,1,532.8263729,None,0.5641791,P007,fencog,1,Post,2021_Aug_11_0946,N-Back (New Version 2021),2021.1.4,119.94003
,,,,Conditions/Version_1/oneback(2)_v1.xlsx,New rule: Press 'space' when you see 1-back (i.e. the same letter as the one that appeared 1 letter ago.),P,None,,,,,,,,,0,4,4,4,0,8,8,8,,,,,,,,,,,,,,,,,,,,,,,,,,,,,,,,,,,,,,,,,,,,,,,,,,,,,,,,,,,,,,,,,,,,,1.506,536.3415321,None,None,1,536.3415321,None,,P007,fencog,1,Post,2021_Aug_11_0946,N-Back (New Version 2021),2021.1.4,119.94003
,,,,Conditions/Version_1/oneback(2)_v1.xlsx,New rule: Press 'space' when you see 1-back (i.e. the same letter as the one that appeared 1 letter ago.),p,space,,,,,,,,,0,4,4,4,0,9,9,9,,,,,,,,,,,,,,,,,,,,,,,,,,,,,,,,,,,,,,,,,,,,,,,,,,,,,,,,,,,,,,,,,,,,,1.8346,540.1924303,None,space,1,540.1924303,None,0.3738809,P007,fencog,1,Post,2021_Aug_11_0946,N-Back (New Version 2021),2021.1.4,119.94003
,,,,Conditions/Version_1/oneback(2)_v1.xlsx,New rule: Press 'space' when you see 1-back (i.e. the same letter as the one that appeared 1 letter ago.),,,,,,,,,,,0,4,4,4,,,,,,,,,,,,,,,,,,,,,,,,,,,,,,,,,,,,,,,,,,,,,,,,,,,,,,,,,,,,,,,,,,,,,,,,,,,,,,,,,P007,fencog,1,Post,2021_Aug_11_0946,N-Back (New Version 2021),2021.1.4,119.94003
,,,,Conditions/Version_1/zeroback(2)_v1.xlsx,New rule: Press 'space' when you see the letter 'x' or 'X'.,p,None,,,,,,,,,0,5,5,5,0,0,0,0,,,,,,,,,,,,,,,,,,,,,,,,,,,,,,,,,,,,,,,,,,,,,,,,,,,,,,,,,,,542.217436,None,545.2075315,None,space,0.3506554,545.2075315,None,542.217436,None,1.8656,547.4625442,None,None,1,547.4625442,None,,P007,fencog,1,Post,2021_Aug_11_0946,N-Back (New Version 2021),2021.1.4,119.94003
,,,,Conditions/Version_1/zeroback(2)_v1.xlsx,New rule: Press 'space' when you see the letter 'x' or 'X'.,L,None,,,,,,,,,0,5,5,5,0,1,1,1,,,,,,,,,,,,,,,,,,,,,,,,,,,,,,,,,,,,,,,,,,,,,,,,,,,,,,,,,,,,,,,,,,,,,1.8718,551.3471492,None,None,1,551.3471492,None,,P007,fencog,1,Post,2021_Aug_11_0946,N-Back (New Version 2021),2021.1.4,119.94003
,,,,Conditions/Version_1/zeroback(2)_v1.xlsx,New rule: Press 'space' when you see the letter 'x' or 'X'.,G,None,,,,,,,,,0,5,5,5,0,2,2,2,,,,,,,,,,,,,,,,,,,,,,,,,,,,,,,,,,,,,,,,,,,,,,,,,,,,,,,,,,,,,,,,,,,,,1.1588,554.5108969,None,None,1,554.5108969,None,,P007,fencog,1,Post,2021_Aug_11_0946,N-Back (New Version 2021),2021.1.4,119.94003
,,,,Conditions/Version_1/zeroback(2)_v1.xlsx,New rule: Press 'space' when you see the letter 'x' or 'X'.,y,None,,,,,,,,,0,5,5,5,0,3,3,3,,,,,,,,,,,,,,,,,,,,,,,,,,,,,,,,,,,,,,,,,,,,,,,,,,,,,,,,,,,,,,,,,,,,,1.6982,558.2177235,None,None,1,558.2177235,None,,P007,fencog,1,Post,2021_Aug_11_0946,N-Back (New Version 2021),2021.1.4,119.94003
,,,,Conditions/Version_1/zeroback(2)_v1.xlsx,New rule: Press 'space' when you see the letter 'x' or 'X'.,Y,None,,,,,,,,,0,5,5,5,0,4,4,4,,,,,,,,,,,,,,,,,,,,,,,,,,,,,,,,,,,,,,,,,,,,,,,,,,,,,,,,,,,,,,,,,,,,,1.5556,561.7913035,None,None,1,561.7913035,None,,P007,fencog,1,Post,2021_Aug_11_0946,N-Back (New Version 2021),2021.1.4,119.94003
,,,,Conditions/Version_1/zeroback(2)_v1.xlsx,New rule: Press 'space' when you see the letter 'x' or 'X'.,W,None,,,,,,,,,0,5,5,5,0,5,5,5,,,,,,,,,,,,,,,,,,,,,,,,,,,,,,,,,,,,,,,,,,,,,,,,,,,,,,,,,,,,,,,,,,,,,1.754,565.5556673,None,None,1,565.5556673,None,,P007,fencog,1,Post,2021_Aug_11_0946,N-Back (New Version 2021),2021.1.4,119.94003
,,,,Conditions/Version_1/zeroback(2)_v1.xlsx,New rule: Press 'space' when you see the letter 'x' or 'X'.,x,space,,,,,,,,,0,5,5,5,0,6,6,6,,,,,,,,,,,,,,,,,,,,,,,,,,,,,,,,,,,,,,,,,,,,,,,,,,,,,,,,,,,,,,,,,,,,,1.8284,569.3906725,None,space,1,569.3906725,None,0.3515554,P007,fencog,1,Post,2021_Aug_11_0946,N-Back (New Version 2021),2021.1.4,119.94003
,,,,Conditions/Version_1/zeroback(2)_v1.xlsx,New rule: Press 'space' when you see the letter 'x' or 'X'.,X,space,,,,,,,,,0,5,5,5,0,7,7,7,,,,,,,,,,,,,,,,,,,,,,,,,,,,,,,,,,,,,,,,,,,,,,,,,,,,,,,,,,,,,,,,,,,,,1.5308,572.9311736,None,space,1,572.9311736,None,0.4357825,P007,fencog,1,Post,2021_Aug_11_0946,N-Back (New Version 2021),2021.1.4,119.94003
,,,,Conditions/Version_1/zeroback(2)_v1.xlsx,New rule: Press 'space' when you see the letter 'x' or 'X'.,p,None,,,,,,,,,0,5,5,5,0,8,8,8,,,,,,,,,,,,,,,,,,,,,,,,,,,,,,,,,,,,,,,,,,,,,,,,,,,,,,,,,,,,,,,,,,,,,1.7292,576.6707842,None,None,1,576.6707842,None,,P007,fencog,1,Post,2021_Aug_11_0946,N-Back (New Version 2021),2021.1.4,119.94003
,,,,Conditions/Version_1/zeroback(2)_v1.xlsx,New rule: Press 'space' when you see the letter 'x' or 'X'.,h,None,,,,,,,,,0,5,5,5,0,9,9,9,,,,,,,,,,,,,,,,,,,,,,,,,,,,,,,,,,,,,,,,,,,,,,,,,,,,,,,,,,,,,,,,,,,,,1.041,579.7198471,None,None,1,579.7198471,None,,P007,fencog,1,Post,2021_Aug_11_0946,N-Back (New Version 2021),2021.1.4,119.94003
,,,,Conditions/Version_1/zeroback(2)_v1.xlsx,New rule: Press 'space' when you see the letter 'x' or 'X'.,,,,,,,,,,,0,5,5,5,,,,,,,,,,,,,,,,,,,,,,,,,,,,,,,,,,,,,,,,,,,,,,,,,,,,,,,,,,,,,,,,,,,,,,,,,,,,,,,,,P007,fencog,1,Post,2021_Aug_11_0946,N-Back (New Version 2021),2021.1.4,119.94003
,,,,Conditions/Version_1/threeback(2)_v1.xlsx,New rule: Press 'space' when you see 3-back (i.e. the same letter as the one that appeared 3 letters ago.),q,None,,,,,,,,,0,6,6,6,0,0,0,0,,,,,,,,,,,,,,,,,,,,,,,,,,,,,,,,,,,,,,,,,,,,,,,,,,,,,,,,,,,581.7504965,None,584.7372473,None,space,0.3330942,584.7372473,None,581.7504965,None,1.0844,586.1776155,None,None,1,586.1776155,None,,P007,fencog,1,Post,2021_Aug_11_0946,N-Back (New Version 2021),2021.1.4,119.94003
,,,,Conditions/Version_1/threeback(2)_v1.xlsx,New rule: Press 'space' when you see 3-back (i.e. the same letter as the one that appeared 3 letters ago.),Y,None,,,,,,,,,0,6,6,6,0,1,1,1,,,,,,,,,,,,,,,,,,,,,,,,,,,,,,,,,,,,,,,,,,,,,,,,,,,,,,,,,,,,,,,,,,,,,1.32,589.5010596,None,None,1,589.5010596,None,,P007,fencog,1,Post,2021_Aug_11_0946,N-Back (New Version 2021),2021.1.4,119.94003
,,,,Conditions/Version_1/threeback(2)_v1.xlsx,New rule: Press 'space' when you see 3-back (i.e. the same letter as the one that appeared 3 letters ago.),p,None,,,,,,,,,0,6,6,6,0,2,2,2,,,,,,,,,,,,,,,,,,,,,,,,,,,,,,,,,,,,,,,,,,,,,,,,,,,,,,,,,,,,,,,,,,,,,1.5308,593.040805,None,None,1,593.040805,None,,P007,fencog,1,Post,2021_Aug_11_0946,N-Back (New Version 2021),2021.1.4,119.94003
,,,,Conditions/Version_1/threeback(2)_v1.xlsx,New rule: Press 'space' when you see 3-back (i.e. the same letter as the one that appeared 3 letters ago.),p,None,,,,,,,,,0,6,6,6,0,3,3,3,,,,,,,,,,,,,,,,,,,,,,,,,,,,,,,,,,,,,,,,,,,,,,,,,,,,,,,,,,,,,,,,,,,,,1.5432,596.5898007,None,None,1,596.5898007,None,,P007,fencog,1,Post,2021_Aug_11_0946,N-Back (New Version 2021),2021.1.4,119.94003
,,,,Conditions/Version_1/threeback(2)_v1.xlsx,New rule: Press 'space' when you see 3-back (i.e. the same letter as the one that appeared 3 letters ago.),y,space,,,,,,,,,0,6,6,6,0,4,4,4,,,,,,,,,,,,,,,,,,,,,,,,,,,,,,,,,,,,,,,,,,,,,,,,,,,,,,,,,,,,,,,,,,,,,1.661,600.2554404,None,space,1,600.2554404,None,1.6869949,P007,fencog,1,Post,2021_Aug_11_0946,N-Back (New Version 2021),2021.1.4,119.94003
,,,,Conditions/Version_1/threeback(2)_v1.xlsx,New rule: Press 'space' when you see 3-back (i.e. the same letter as the one that appeared 3 letters ago.),u,None,,,,,,,,,0,6,6,6,0,5,5,5,,,,,,,,,,,,,,,,,,,,,,,,,,,,,,,,,,,,,,,,,,,,,,,,,,,,,,,,,,,,,,,,,,,,,1.2828,603.537688,None,None,1,603.537688,None,,P007,fencog,1,Post,2021_Aug_11_0946,N-Back (New Version 2021),2021.1.4,119.94003
,,,,Conditions/Version_1/threeback(2)_v1.xlsx,New rule: Press 'space' when you see 3-back (i.e. the same letter as the one that appeared 3 letters ago.),P,space,,,,,,,,,0,6,6,6,0,6,6,6,,,,,,,,,,,,,,,,,,,,,,,,,,,,,,,,,,,,,,,,,,,,,,,,,,,,,,,,,,,,,,,,,,,,,1.2952,606.8365688,None,space,1,606.8365688,None,0.4102459,P007,fencog,1,Post,2021_Aug_11_0946,N-Back (New Version 2021),2021.1.4,119.94003
,,,,Conditions/Version_1/threeback(2)_v1.xlsx,New rule: Press 'space' when you see 3-back (i.e. the same letter as the one that appeared 3 letters ago.),a,None,,,,,,,,,0,6,6,6,0,7,7,7,,,,,,,,,,,,,,,,,,,,,,,,,,,,,,,,,,,,,,,,,,,,,,,,,,,,,,,,,,,,,,,,,,,,,1.7168,610.5522171,None,None,1,610.5522171,None,,P007,fencog,1,Post,2021_Aug_11_0946,N-Back (New Version 2021),2021.1.4,119.94003
,,,,Conditions/Version_1/threeback(2)_v1.xlsx,New rule: Press 'space' when you see 3-back (i.e. the same letter as the one that appeared 3 letters ago.),U,space,,,,,,,,,0,6,6,6,0,8,8,8,,,,,,,,,,,,,,,,,,,,,,,,,,,,,,,,,,,,,,,,,,,,,,,,,,,,,,,,,,,,,,,,,,,,,1.9214,614.4818077,None,space,1,614.4818077,None,0.4764219,P007,fencog,1,Post,2021_Aug_11_0946,N-Back (New Version 2021),2021.1.4,119.94003
,,,,Conditions/Version_1/threeback(2)_v1.xlsx,New rule: Press 'space' when you see 3-back (i.e. the same letter as the one that appeared 3 letters ago.),q,None,,,,,,,,,0,6,6,6,0,9,9,9,,,,,,,,,,,,,,,,,,,,,,,,,,,,,,,,,,,,,,,,,,,,,,,,,,,,,,,,,,,,,,,,,,,,,1.5494,618.0334764,None,None,1,618.0334764,None,,P007,fencog,1,Post,2021_Aug_11_0946,N-Back (New Version 2021),2021.1.4,119.94003
,,,,Conditions/Version_1/threeback(2)_v1.xlsx,New rule: Press 'space' when you see 3-back (i.e. the same letter as the one that appeared 3 letters ago.),,,,,,,,,,,0,6,6,6,,,,,,,,,,,,,,,,,,,,,,,,,,,,,,,,,,,,,,,,,,,,,,,,,,,,,,,,,,,,,,,,,,,,,,,,,,,,,,,,,P007,fencog,1,Post,2021_Aug_11_0946,N-Back (New Version 2021),2021.1.4,119.94003
,,,,Conditions/Version_1/twoback(2)_v1.xlsx,New rule: Press 'space' when you see 2-back (i.e. the same letter as the one that appeared 2 letters ago.),q,None,,,,,,,,,0,7,7,7,0,0,0,0,,,,,,,,,,,,,,,,,,,,,,,,,,,,,,,,,,,,,,,,,,,,,,,,,,,,,,,,,,,620.0558777,None,623.0438168,None,space,0.3384227,623.0438168,None,620.0558777,None,1.1154,624.525009,None,None,1,624.525009,None,,P007,fencog,1,Post,2021_Aug_11_0946,N-Back (New Version 2021),2021.1.4,119.94003
,,,,Conditions/Version_1/twoback(2)_v1.xlsx,New rule: Press 'space' when you see 2-back (i.e. the same letter as the one that appeared 2 letters ago.),r,None,,,,,,,,,0,7,7,7,0,1,1,1,,,,,,,,,,,,,,,,,,,,,,,,,,,,,,,,,,,,,,,,,,,,,,,,,,,,,,,,,,,,,,,,,,,,,1.4626,627.9994305,None,None,1,627.9994305,None,,P007,fencog,1,Post,2021_Aug_11_0946,N-Back (New Version 2021),2021.1.4,119.94003
,,,,Conditions/Version_1/twoback(2)_v1.xlsx,New rule: Press 'space' when you see 2-back (i.e. the same letter as the one that appeared 2 letters ago.),q,space,,,,,,,,,0,7,7,7,0,2,2,2,,,,,,,,,,,,,,,,,,,,,,,,,,,,,,,,,,,,,,,,,,,,,,,,,,,,,,,,,,,,,,,,,,,,,1.6362,631.6470837,None,space,1,631.6470837,None,0.4150915,P007,fencog,1,Post,2021_Aug_11_0946,N-Back (New Version 2021),2021.1.4,119.94003
,,,,Conditions/Version_1/twoback(2)_v1.xlsx,New rule: Press 'space' when you see 2-back (i.e. the same letter as the one that appeared 2 letters ago.),P,None,,,,,,,,,0,7,7,7,0,3,3,3,,,,,,,,,,,,,,,,,,,,,,,,,,,,,,,,,,,,,,,,,,,,,,,,,,,,,,,,,,,,,,,,,,,,,1.9586,635.6132985,None,None,1,635.6132985,None,,P007,fencog,1,Post,2021_Aug_11_0946,N-Back (New Version 2021),2021.1.4,119.94003
,,,,Conditions/Version_1/twoback(2)_v1.xlsx,New rule: Press 'space' when you see 2-back (i.e. the same letter as the one that appeared 2 letters ago.),p,None,,,,,,,,,0,7,7,7,0,4,4,4,,,,,,,,,,,,,,,,,,,,,,,,,,,,,,,,,,,,,,,,,,,,,,,,,,,,,,,,,,,,,,,,,,,,,1.9152,639.5363068,None,None,1,639.5363068,None,,P007,fencog,1,Post,2021_Aug_11_0946,N-Back (New Version 2021),2021.1.4,119.94003
,,,,Conditions/Version_1/twoback(2)_v1.xlsx,New rule: Press 'space' when you see 2-back (i.e. the same letter as the one that appeared 2 letters ago.),H,None,,,,,,,,,0,7,7,7,0,5,5,5,,,,,,,,,,,,,,,,,,,,,,,,,,,,,,,,,,,,,,,,,,,,,,,,,,,,,,,,,,,,,,,,,,,,,1.9524,643.5029835,None,None,1,643.5029835,None,,P007,fencog,1,Post,2021_Aug_11_0946,N-Back (New Version 2021),2021.1.4,119.94003
,,,,Conditions/Version_1/twoback(2)_v1.xlsx,New rule: Press 'space' when you see 2-back (i.e. the same letter as the one that appeared 2 letters ago.),g,None,,,,,,,,,0,7,7,7,0,6,6,6,,,,,,,,,,,,,,,,,,,,,,,,,,,,,,,,,,,,,,,,,,,,,,,,,,,,,,,,,,,,,,,,,,,,,1.5122,647.0272999,None,None,1,647.0272999,None,,P007,fencog,1,Post,2021_Aug_11_0946,N-Back (New Version 2021),2021.1.4,119.94003
,,,,Conditions/Version_1/twoback(2)_v1.xlsx,New rule: Press 'space' when you see 2-back (i.e. the same letter as the one that appeared 2 letters ago.),j,None,,,,,,,,,0,7,7,7,0,7,7,7,,,,,,,,,,,,,,,,,,,,,,,,,,,,,,,,,,,,,,,,,,,,,,,,,,,,,,,,,,,,,,,,,,,,,1.5494,650.5832811,None,None,1,650.5832811,None,,P007,fencog,1,Post,2021_Aug_11_0946,N-Back (New Version 2021),2021.1.4,119.94003
,,,,Conditions/Version_1/twoback(2)_v1.xlsx,New rule: Press 'space' when you see 2-back (i.e. the same letter as the one that appeared 2 letters ago.),g,space,,,,,,,,,0,7,7,7,0,8,8,8,,,,,,,,,,,,,,,,,,,,,,,,,,,,,,,,,,,,,,,,,,,,,,,,,,,,,,,,,,,,,,,,,,,,,1.0658,653.6600405,None,space,1,653.6600405,None,0.4433732,P007,fencog,1,Post,2021_Aug_11_0946,N-Back (New Version 2021),2021.1.4,119.94003
,,,,Conditions/Version_1/twoback(2)_v1.xlsx,New rule: Press 'space' when you see 2-back (i.e. the same letter as the one that appeared 2 letters ago.),G,None,,,,,,,,,0,7,7,7,0,9,9,9,,,,,,,,,,,,,,,,,,,,,,,,,,,,,,,,,,,,,,,,,,,,,,,,,,,,,,,,,,,,,,,,,,,,,1.32,656.9886006,None,None,1,656.9886006,None,,P007,fencog,1,Post,2021_Aug_11_0946,N-Back (New Version 2021),2021.1.4,119.94003
,,,,Conditions/Version_1/twoback(2)_v1.xlsx,New rule: Press 'space' when you see 2-back (i.e. the same letter as the one that appeared 2 letters ago.),,,,,,,,,,,0,7,7,7,,,,,,,,,,,,,,,,,,,,,,,,,,,,,,,,,,,,,,,,,,,,,,,,,,,,,,,,,,,,,,,,,,,,,,,,,,,,,,,,,P007,fencog,1,Post,2021_Aug_11_0946,N-Back (New Version 2021),2021.1.4,119.94003
,,,,Conditions/Version_1/threeback(3)_v1.xlsx,New rule: Press 'space' when you see 3-back (i.e. the same letter as the one that appeared 3 letters ago.),w,None,,,,,,,,,0,8,8,8,0,0,0,0,,,,,,,,,,,,,,,,,,,,,,,,,,,,,,,,,,,,,,,,,,,,,,,,,,,,,,,,,,,659.01245,None,661.988887,None,space,0.313483,661.988887,None,659.01245,None,1.94,664.2709534,None,None,1,664.2709534,None,,P007,fencog,1,Post,2021_Aug_11_0946,N-Back (New Version 2021),2021.1.4,119.94003
,,,,Conditions/Version_1/threeback(3)_v1.xlsx,New rule: Press 'space' when you see 3-back (i.e. the same letter as the one that appeared 3 letters ago.),p,None,,,,,,,,,0,8,8,8,0,1,1,1,,,,,,,,,,,,,,,,,,,,,,,,,,,,,,,,,,,,,,,,,,,,,,,,,,,,,,,,,,,,,,,,,,,,,1.6114,667.8945973,None,None,1,667.8945973,None,,P007,fencog,1,Post,2021_Aug_11_0946,N-Back (New Version 2021),2021.1.4,119.94003
,,,,Conditions/Version_1/threeback(3)_v1.xlsx,New rule: Press 'space' when you see 3-back (i.e. the same letter as the one that appeared 3 letters ago.),P,None,,,,,,,,,0,8,8,8,0,2,2,2,,,,,,,,,,,,,,,,,,,,,,,,,,,,,,,,,,,,,,,,,,,,,,,,,,,,,,,,,,,,,,,,,,,,,1.3076,671.2112261,None,None,1,671.2112261,None,,P007,fencog,1,Post,2021_Aug_11_0946,N-Back (New Version 2021),2021.1.4,119.94003
,,,,Conditions/Version_1/threeback(3)_v1.xlsx,New rule: Press 'space' when you see 3-back (i.e. the same letter as the one that appeared 3 letters ago.),i,None,,,,,,,,,0,8,8,8,0,3,3,3,,,,,,,,,,,,,,,,,,,,,,,,,,,,,,,,,,,,,,,,,,,,,,,,,,,,,,,,,,,,,,,,,,,,,1.8036,675.0330543,None,None,1,675.0330543,None,,P007,fencog,1,Post,2021_Aug_11_0946,N-Back (New Version 2021),2021.1.4,119.94003
,,,,Conditions/Version_1/threeback(3)_v1.xlsx,New rule: Press 'space' when you see 3-back (i.e. the same letter as the one that appeared 3 letters ago.),f,None,,,,,,,,,0,8,8,8,0,4,4,4,,,,,,,,,,,,,,,,,,,,,,,,,,,,,,,,,,,,,,,,,,,,,,,,,,,,,,,,,,,,,,,,,,,,,1.6486,678.6834686,None,None,1,678.6834686,None,,P007,fencog,1,Post,2021_Aug_11_0946,N-Back (New Version 2021),2021.1.4,119.94003
,,,,Conditions/Version_1/threeback(3)_v1.xlsx,New rule: Press 'space' when you see 3-back (i.e. the same letter as the one that appeared 3 letters ago.),o,None,,,,,,,,,0,8,8,8,0,5,5,5,,,,,,,,,,,,,,,,,,,,,,,,,,,,,,,,,,,,,,,,,,,,,,,,,,,,,,,,,,,,,,,,,,,,,1.9214,682.6144995,None,None,1,682.6144995,None,,P007,fencog,1,Post,2021_Aug_11_0946,N-Back (New Version 2021),2021.1.4,119.94003
,,,,Conditions/Version_1/threeback(3)_v1.xlsx,New rule: Press 'space' when you see 3-back (i.e. the same letter as the one that appeared 3 letters ago.),w,None,,,,,,,,,0,8,8,8,0,6,6,6,,,,,,,,,,,,,,,,,,,,,,,,,,,,,,,,,,,,,,,,,,,,,,,,,,,,,,,,,,,,,,,,,,,,,1.4626,686.0803143,None,None,1,686.0803143,None,,P007,fencog,1,Post,2021_Aug_11_0946,N-Back (New Version 2021),2021.1.4,119.94003
,,,,Conditions/Version_1/threeback(3)_v1.xlsx,New rule: Press 'space' when you see 3-back (i.e. the same letter as the one that appeared 3 letters ago.),F,space,,,,,,,,,0,8,8,8,0,7,7,7,,,,,,,,,,,,,,,,,,,,,,,,,,,,,,,,,,,,,,,,,,,,,,,,,,,,,,,,,,,,,,,,,,,,,1.258,689.3398756,None,space,1,689.3398756,None,1.4503281,P007,fencog,1,Post,2021_Aug_11_0946,N-Back (New Version 2021),2021.1.4,119.94003
,,,,Conditions/Version_1/threeback(3)_v1.xlsx,New rule: Press 'space' when you see 3-back (i.e. the same letter as the one that appeared 3 letters ago.),p,None,,,,,,,,,0,8,8,8,0,8,8,8,,,,,,,,,,,,,,,,,,,,,,,,,,,,,,,,,,,,,,,,,,,,,,,,,,,,,,,,,,,,,,,,,,,,,1.1402,692.4864406,None,space,0,692.4864406,None,1.2399284,P007,fencog,1,Post,2021_Aug_11_0946,N-Back (New Version 2021),2021.1.4,119.94003
,,,,Conditions/Version_1/threeback(3)_v1.xlsx,New rule: Press 'space' when you see 3-back (i.e. the same letter as the one that appeared 3 letters ago.),W,space,,,,,,,,,0,8,8,8,0,9,9,9,,,,,,,,,,,,,,,,,,,,,,,,,,,,,,,,,,,,,,,,,,,,,,,,,,,,,,,,,,,,,,,,,,,,,1.1526,695.6466319,None,None,0,695.6466319,None,,P007,fencog,1,Post,2021_Aug_11_0946,N-Back (New Version 2021),2021.1.4,119.94003
,,,,Conditions/Version_1/threeback(3)_v1.xlsx,New rule: Press 'space' when you see 3-back (i.e. the same letter as the one that appeared 3 letters ago.),,,,,,,,,,,0,8,8,8,,,,,,,,,,,,,,,,,,,,,,,,,,,,,,,,,,,,,,,,,,,,,,,,,,,,,,,,,,,,,,,,,,,,,,,,,,,,,,,,,P007,fencog,1,Post,2021_Aug_11_0946,N-Back (New Version 2021),2021.1.4,119.94003
,,,,Conditions/Version_1/zeroback(3)_v1.xlsx,New rule: Press 'space' when you see the letter 'x' or 'X'.,X,space,,,,,,,,,0,9,9,9,0,0,0,0,,,,,,,,,,,,,,,,,,,,,,,,,,,,,,,,,,,,,,,,,,,,,,,,,,,,,,,,,,,697.6699589,None,700.6527478,None,space,0.9773411,700.6527478,None,697.6699589,None,1.9338,703.5914402,None,space,1,703.5914402,None,0.4548876,P007,fencog,1,Post,2021_Aug_11_0946,N-Back (New Version 2021),2021.1.4,119.94003
,,,,Conditions/Version_1/zeroback(3)_v1.xlsx,New rule: Press 'space' when you see the letter 'x' or 'X'.,B,None,,,,,,,,,0,9,9,9,0,1,1,1,,,,,,,,,,,,,,,,,,,,,,,,,,,,,,,,,,,,,,,,,,,,,,,,,,,,,,,,,,,,,,,,,,,,,1.9028,707.5026432,None,None,1,707.5026432,None,,P007,fencog,1,Post,2021_Aug_11_0946,N-Back (New Version 2021),2021.1.4,119.94003
,,,,Conditions/Version_1/zeroback(3)_v1.xlsx,New rule: Press 'space' when you see the letter 'x' or 'X'.,m,None,,,,,,,,,0,9,9,9,0,2,2,2,,,,,,,,,,,,,,,,,,,,,,,,,,,,,,,,,,,,,,,,,,,,,,,,,,,,,,,,,,,,,,,,,,,,,1.2828,710.7893409,None,None,1,710.7893409,None,,P007,fencog,1,Post,2021_Aug_11_0946,N-Back (New Version 2021),2021.1.4,119.94003
,,,,Conditions/Version_1/zeroback(3)_v1.xlsx,New rule: Press 'space' when you see the letter 'x' or 'X'.,m,None,,,,,,,,,0,9,9,9,0,3,3,3,,,,,,,,,,,,,,,,,,,,,,,,,,,,,,,,,,,,,,,,,,,,,,,,,,,,,,,,,,,,,,,,,,,,,1.196,713.9885777,None,None,1,713.9885777,None,,P007,fencog,1,Post,2021_Aug_11_0946,N-Back (New Version 2021),2021.1.4,119.94003
,,,,Conditions/Version_1/zeroback(3)_v1.xlsx,New rule: Press 'space' when you see the letter 'x' or 'X'.,o,None,,,,,,,,,0,9,9,9,0,4,4,4,,,,,,,,,,,,,,,,,,,,,,,,,,,,,,,,,,,,,,,,,,,,,,,,,,,,,,,,,,,,,,,,,,,,,1.5866,717.5850963,None,None,1,717.5850963,None,,P007,fencog,1,Post,2021_Aug_11_0946,N-Back (New Version 2021),2021.1.4,119.94003
,,,,Conditions/Version_1/zeroback(3)_v1.xlsx,New rule: Press 'space' when you see the letter 'x' or 'X'.,p,None,,,,,,,,,0,9,9,9,0,5,5,5,,,,,,,,,,,,,,,,,,,,,,,,,,,,,,,,,,,,,,,,,,,,,,,,,,,,,,,,,,,,,,,,,,,,,1.4502,721.0363692,None,None,1,721.0363692,None,,P007,fencog,1,Post,2021_Aug_11_0946,N-Back (New Version 2021),2021.1.4,119.94003
,,,,Conditions/Version_1/zeroback(3)_v1.xlsx,New rule: Press 'space' when you see the letter 'x' or 'X'.,G,None,,,,,,,,,0,9,9,9,0,6,6,6,,,,,,,,,,,,,,,,,,,,,,,,,,,,,,,,,,,,,,,,,,,,,,,,,,,,,,,,,,,,,,,,,,,,,1.3448,724.3889271,None,None,1,724.3889271,None,,P007,fencog,1,Post,2021_Aug_11_0946,N-Back (New Version 2021),2021.1.4,119.94003
,,,,Conditions/Version_1/zeroback(3)_v1.xlsx,New rule: Press 'space' when you see the letter 'x' or 'X'.,X,space,,,,,,,,,0,9,9,9,0,7,7,7,,,,,,,,,,,,,,,,,,,,,,,,,,,,,,,,,,,,,,,,,,,,,,,,,,,,,,,,,,,,,,,,,,,,,1.3076,727.7023723,None,space,1,727.7023723,None,0.3438284,P007,fencog,1,Post,2021_Aug_11_0946,N-Back (New Version 2021),2021.1.4,119.94003
,,,,Conditions/Version_1/zeroback(3)_v1.xlsx,New rule: Press 'space' when you see the letter 'x' or 'X'.,p,None,,,,,,,,,0,9,9,9,0,8,8,8,,,,,,,,,,,,,,,,,,,,,,,,,,,,,,,,,,,,,,,,,,,,,,,,,,,,,,,,,,,,,,,,,,,,,1.7974,731.5080972,None,None,1,731.5080972,None,,P007,fencog,1,Post,2021_Aug_11_0946,N-Back (New Version 2021),2021.1.4,119.94003
,,,,Conditions/Version_1/zeroback(3)_v1.xlsx,New rule: Press 'space' when you see the letter 'x' or 'X'.,x,space,,,,,,,,,0,9,9,9,0,9,9,9,,,,,,,,,,,,,,,,,,,,,,,,,,,,,,,,,,,,,,,,,,,,,,,,,,,,,,,,,,,,,,,,,,,,,1.2146,734.7240426,None,space,1,734.7240426,None,0.4742484,P007,fencog,1,Post,2021_Aug_11_0946,N-Back (New Version 2021),2021.1.4,119.94003
,,,,Conditions/Version_1/zeroback(3)_v1.xlsx,New rule: Press 'space' when you see the letter 'x' or 'X'.,,,,,,,,,,,0,9,9,9,,,,,,,,,,,,,,,,,,,,,,,,,,,,,,,,,,,,,,,,,,,,,,,,,,,,,,,,,,,,,,,,,,,,,,,,,,,,,,,,,P007,fencog,1,Post,2021_Aug_11_0946,N-Back (New Version 2021),2021.1.4,119.94003
,,,,Conditions/Version_1/twoback(3)_v1.xlsx,New rule: Press 'space' when you see 2-back (i.e. the same letter as the one that appeared 2 letters ago.),e,None,,,,,,,,,0,10,10,10,0,0,0,0,,,,,,,,,,,,,,,,,,,,,,,,,,,,,,,,,,,,,,,,,,,,,,,,,,,,,,,,,,,736.7474268,None,739.7247868,None,space,0.3295751,739.7247868,None,736.7474268,None,1.6424,741.7218393,None,None,1,741.7218393,None,,P007,fencog,1,Post,2021_Aug_11_0946,N-Back (New Version 2021),2021.1.4,119.94003
,,,,Conditions/Version_1/twoback(3)_v1.xlsx,New rule: Press 'space' when you see 2-back (i.e. the same letter as the one that appeared 2 letters ago.),o,None,,,,,,,,,0,10,10,10,0,1,1,1,,,,,,,,,,,,,,,,,,,,,,,,,,,,,,,,,,,,,,,,,,,,,,,,,,,,,,,,,,,,,,,,,,,,,1.0162,744.7469487,None,None,1,744.7469487,None,,P007,fencog,1,Post,2021_Aug_11_0946,N-Back (New Version 2021),2021.1.4,119.94003
,,,,Conditions/Version_1/twoback(3)_v1.xlsx,New rule: Press 'space' when you see 2-back (i.e. the same letter as the one that appeared 2 letters ago.),P,None,,,,,,,,,0,10,10,10,0,2,2,2,,,,,,,,,,,,,,,,,,,,,,,,,,,,,,,,,,,,,,,,,,,,,,,,,,,,,,,,,,,,,,,,,,,,,1.816,748.5731562,None,None,1,748.5731562,None,,P007,fencog,1,Post,2021_Aug_11_0946,N-Back (New Version 2021),2021.1.4,119.94003
,,,,Conditions/Version_1/twoback(3)_v1.xlsx,New rule: Press 'space' when you see 2-back (i.e. the same letter as the one that appeared 2 letters ago.),z,None,,,,,,,,,0,10,10,10,0,3,3,3,,,,,,,,,,,,,,,,,,,,,,,,,,,,,,,,,,,,,,,,,,,,,,,,,,,,,,,,,,,,,,,,,,,,,1.5494,752.1310529,None,None,1,752.1310529,None,,P007,fencog,1,Post,2021_Aug_11_0946,N-Back (New Version 2021),2021.1.4,119.94003
,,,,Conditions/Version_1/twoback(3)_v1.xlsx,New rule: Press 'space' when you see 2-back (i.e. the same letter as the one that appeared 2 letters ago.),X,None,,,,,,,,,0,10,10,10,0,4,4,4,,,,,,,,,,,,,,,,,,,,,,,,,,,,,,,,,,,,,,,,,,,,,,,,,,,,,,,,,,,,,,,,,,,,,1.2332,755.3690224,None,None,1,755.3690224,None,,P007,fencog,1,Post,2021_Aug_11_0946,N-Back (New Version 2021),2021.1.4,119.94003
,,,,Conditions/Version_1/twoback(3)_v1.xlsx,New rule: Press 'space' when you see 2-back (i.e. the same letter as the one that appeared 2 letters ago.),z,space,,,,,,,,,0,10,10,10,0,5,5,5,,,,,,,,,,,,,,,,,,,,,,,,,,,,,,,,,,,,,,,,,,,,,,,,,,,,,,,,,,,,,,,,,,,,,1.909,759.283366,None,space,1,759.283366,None,0.5792299,P007,fencog,1,Post,2021_Aug_11_0946,N-Back (New Version 2021),2021.1.4,119.94003
,,,,Conditions/Version_1/twoback(3)_v1.xlsx,New rule: Press 'space' when you see 2-back (i.e. the same letter as the one that appeared 2 letters ago.),x,space,,,,,,,,,0,10,10,10,0,6,6,6,,,,,,,,,,,,,,,,,,,,,,,,,,,,,,,,,,,,,,,,,,,,,,,,,,,,,,,,,,,,,,,,,,,,,1.1464,762.4323802,None,space,1,762.4323802,None,0.6617492,P007,fencog,1,Post,2021_Aug_11_0946,N-Back (New Version 2021),2021.1.4,119.94003
,,,,Conditions/Version_1/twoback(3)_v1.xlsx,New rule: Press 'space' when you see 2-back (i.e. the same letter as the one that appeared 2 letters ago.),c,None,,,,,,,,,0,10,10,10,0,7,7,7,,,,,,,,,,,,,,,,,,,,,,,,,,,,,,,,,,,,,,,,,,,,,,,,,,,,,,,,,,,,,,,,,,,,,1.1154,765.5481568,None,None,1,765.5481568,None,,P007,fencog,1,Post,2021_Aug_11_0946,N-Back (New Version 2021),2021.1.4,119.94003
,,,,Conditions/Version_1/twoback(3)_v1.xlsx,New rule: Press 'space' when you see 2-back (i.e. the same letter as the one that appeared 2 letters ago.),i,None,,,,,,,,,0,10,10,10,0,8,8,8,,,,,,,,,,,,,,,,,,,,,,,,,,,,,,,,,,,,,,,,,,,,,,,,,,,,,,,,,,,,,,,,,,,,,1.3448,768.8984676,None,None,1,768.8984676,None,,P007,fencog,1,Post,2021_Aug_11_0946,N-Back (New Version 2021),2021.1.4,119.94003
,,,,Conditions/Version_1/twoback(3)_v1.xlsx,New rule: Press 'space' when you see 2-back (i.e. the same letter as the one that appeared 2 letters ago.),C,space,,,,,,,,,0,10,10,10,0,9,9,9,,,,,,,,,,,,,,,,,,,,,,,,,,,,,,,,,,,,,,,,,,,,,,,,,,,,,,,,,,,,,,,,,,,,,1.661,772.563986,None,space,1,772.563986,None,0.3624854,P007,fencog,1,Post,2021_Aug_11_0946,N-Back (New Version 2021),2021.1.4,119.94003
,,,,Conditions/Version_1/twoback(3)_v1.xlsx,New rule: Press 'space' when you see 2-back (i.e. the same letter as the one that appeared 2 letters ago.),,,,,,,,,,,0,10,10,10,,,,,,,,,,,,,,,,,,,,,,,,,,,,,,,,,,,,,,,,,,,,,,,,,,,,,,,,,,,,,,,,,,,,,,,,,,,,,,,,,P007,fencog,1,Post,2021_Aug_11_0946,N-Back (New Version 2021),2021.1.4,119.94003
,,,,Conditions/Version_1/oneback(3)_v1.xlsx,New rule: Press 'space' when you see 1-back (i.e. the same letter as the one that appeared 1 letter ago.),o,None,,,,,,,,,0,11,11,11,0,0,0,0,,,,,,,,,,,,,,,,,,,,,,,,,,,,,,,,,,,,,,,,,,,,,,,,,,,,,,,,,,,774.5912173,None,777.5810292,None,space,0.4892364,777.5810292,None,774.5912173,None,1.4874,779.5875871,None,None,1,779.5875871,None,,P007,fencog,1,Post,2021_Aug_11_0946,N-Back (New Version 2021),2021.1.4,119.94003
,,,,Conditions/Version_1/oneback(3)_v1.xlsx,New rule: Press 'space' when you see 1-back (i.e. the same letter as the one that appeared 1 letter ago.),O,space,,,,,,,,,0,11,11,11,0,1,1,1,,,,,,,,,,,,,,,,,,,,,,,,,,,,,,,,,,,,,,,,,,,,,,,,,,,,,,,,,,,,,,,,,,,,,1.4626,783.0610901,None,space,1,783.0610901,None,0.3853207,P007,fencog,1,Post,2021_Aug_11_0946,N-Back (New Version 2021),2021.1.4,119.94003
,,,,Conditions/Version_1/oneback(3)_v1.xlsx,New rule: Press 'space' when you see 1-back (i.e. the same letter as the one that appeared 1 letter ago.),h,None,,,,,,,,,0,11,11,11,0,2,2,2,,,,,,,,,,,,,,,,,,,,,,,,,,,,,,,,,,,,,,,,,,,,,,,,,,,,,,,,,,,,,,,,,,,,,1.0844,786.1585746,None,None,1,786.1585746,None,,P007,fencog,1,Post,2021_Aug_11_0946,N-Back (New Version 2021),2021.1.4,119.94003
,,,,Conditions/Version_1/oneback(3)_v1.xlsx,New rule: Press 'space' when you see 1-back (i.e. the same letter as the one that appeared 1 letter ago.),g,None,,,,,,,,,0,11,11,11,0,3,3,3,,,,,,,,,,,,,,,,,,,,,,,,,,,,,,,,,,,,,,,,,,,,,,,,,,,,,,,,,,,,,,,,,,,,,1.7106,789.8835673,None,None,1,789.8835673,None,,P007,fencog,1,Post,2021_Aug_11_0946,N-Back (New Version 2021),2021.1.4,119.94003
,,,,Conditions/Version_1/oneback(3)_v1.xlsx,New rule: Press 'space' when you see 1-back (i.e. the same letter as the one that appeared 1 letter ago.),n,None,,,,,,,,,0,11,11,11,0,4,4,4,,,,,,,,,,,,,,,,,,,,,,,,,,,,,,,,,,,,,,,,,,,,,,,,,,,,,,,,,,,,,,,,,,,,,1.041,792.9330716,None,None,1,792.9330716,None,,P007,fencog,1,Post,2021_Aug_11_0946,N-Back (New Version 2021),2021.1.4,119.94003
,,,,Conditions/Version_1/oneback(3)_v1.xlsx,New rule: Press 'space' when you see 1-back (i.e. the same letter as the one that appeared 1 letter ago.),z,None,,,,,,,,,0,11,11,11,0,5,5,5,,,,,,,,,,,,,,,,,,,,,,,,,,,,,,,,,,,,,,,,,,,,,,,,,,,,,,,,,,,,,,,,,,,,,1.413,796.3598869,None,None,1,796.3598869,None,,P007,fencog,1,Post,2021_Aug_11_0946,N-Back (New Version 2021),2021.1.4,119.94003
,,,,Conditions/Version_1/oneback(3)_v1.xlsx,New rule: Press 'space' when you see 1-back (i.e. the same letter as the one that appeared 1 letter ago.),X,None,,,,,,,,,0,11,11,11,0,6,6,6,,,,,,,,,,,,,,,,,,,,,,,,,,,,,,,,,,,,,,,,,,,,,,,,,,,,,,,,,,,,,,,,,,,,,1.0472,799.4158836,None,None,1,799.4158836,None,,P007,fencog,1,Post,2021_Aug_11_0946,N-Back (New Version 2021),2021.1.4,119.94003
,,,,Conditions/Version_1/oneback(3)_v1.xlsx,New rule: Press 'space' when you see 1-back (i.e. the same letter as the one that appeared 1 letter ago.),r,None,,,,,,,,,0,11,11,11,0,7,7,7,,,,,,,,,,,,,,,,,,,,,,,,,,,,,,,,,,,,,,,,,,,,,,,,,,,,,,,,,,,,,,,,,,,,,1.0224,802.4456455,None,None,1,802.4456455,None,,P007,fencog,1,Post,2021_Aug_11_0946,N-Back (New Version 2021),2021.1.4,119.94003
,,,,Conditions/Version_1/oneback(3)_v1.xlsx,New rule: Press 'space' when you see 1-back (i.e. the same letter as the one that appeared 1 letter ago.),r,space,,,,,,,,,0,11,11,11,0,8,8,8,,,,,,,,,,,,,,,,,,,,,,,,,,,,,,,,,,,,,,,,,,,,,,,,,,,,,,,,,,,,,,,,,,,,,1.1712,805.6282614,None,space,1,805.6282614,None,0.4500568,P007,fencog,1,Post,2021_Aug_11_0946,N-Back (New Version 2021),2021.1.4,119.94003
,,,,Conditions/Version_1/oneback(3)_v1.xlsx,New rule: Press 'space' when you see 1-back (i.e. the same letter as the one that appeared 1 letter ago.),P,None,,,,,,,,,0,11,11,11,0,9,9,9,,,,,,,,,,,,,,,,,,,,,,,,,,,,,,,,,,,,,,,,,,,,,,,,,,,,,,,,,,,,,,,,,,,,,1.7912,809.4217188,None,None,1,809.4217188,None,,P007,fencog,1,Post,2021_Aug_11_0946,N-Back (New Version 2021),2021.1.4,119.94003
,,,,Conditions/Version_1/oneback(3)_v1.xlsx,New rule: Press 'space' when you see 1-back (i.e. the same letter as the one that appeared 1 letter ago.),,,,,,,,,,,0,11,11,11,,,,,,,,,,,,,,,,,,,,,,,,,,,,,,,,,,,,,,,,,,,,,,,,,,,,,,,,,,,,,,,,,,,,,,,,,,,,,,,,,P007,fencog,1,Post,2021_Aug_11_0946,N-Back (New Version 2021),2021.1.4,119.94003
,,,,Conditions/Version_1/twoback(4)_v1.xlsx,New rule: Press 'space' when you see 2-back (i.e. the same letter as the one that appeared 2 letters ago.),r,None,,,,,,,,,0,12,12,12,0,0,0,0,,,,,,,,,,,,,,,,,,,,,,,,,,,,,,,,,,,,,,,,,,,,,,,,,,,,,,,,,,,811.4481005,None,814.4366392,None,space,0.2975909,814.4366392,None,811.4481005,None,1.0348,815.8374592,None,None,1,815.8374592,None,,P007,fencog,1,Post,2021_Aug_11_0946,N-Back (New Version 2021),2021.1.4,119.94003
,,,,Conditions/Version_1/twoback(4)_v1.xlsx,New rule: Press 'space' when you see 2-back (i.e. the same letter as the one that appeared 2 letters ago.),T,None,,,,,,,,,0,12,12,12,0,1,1,1,,,,,,,,,,,,,,,,,,,,,,,,,,,,,,,,,,,,,,,,,,,,,,,,,,,,,,,,,,,,,,,,,,,,,1.8594,819.7103689,None,None,1,819.7103689,None,,P007,fencog,1,Post,2021_Aug_11_0946,N-Back (New Version 2021),2021.1.4,119.94003
,,,,Conditions/Version_1/twoback(4)_v1.xlsx,New rule: Press 'space' when you see 2-back (i.e. the same letter as the one that appeared 2 letters ago.),o,None,,,,,,,,,0,12,12,12,0,2,2,2,,,,,,,,,,,,,,,,,,,,,,,,,,,,,,,,,,,,,,,,,,,,,,,,,,,,,,,,,,,,,,,,,,,,,1.9462,823.6679421,None,None,1,823.6679421,None,,P007,fencog,1,Post,2021_Aug_11_0946,N-Back (New Version 2021),2021.1.4,119.94003
,,,,Conditions/Version_1/twoback(4)_v1.xlsx,New rule: Press 'space' when you see 2-back (i.e. the same letter as the one that appeared 2 letters ago.),p,None,,,,,,,,,0,12,12,12,0,3,3,3,,,,,,,,,,,,,,,,,,,,,,,,,,,,,,,,,,,,,,,,,,,,,,,,,,,,,,,,,,,,,,,,,,,,,1.6982,827.3718207,None,None,1,827.3718207,None,,P007,fencog,1,Post,2021_Aug_11_0946,N-Back (New Version 2021),2021.1.4,119.94003
,,,,Conditions/Version_1/twoback(4)_v1.xlsx,New rule: Press 'space' when you see 2-back (i.e. the same letter as the one that appeared 2 letters ago.),p,None,,,,,,,,,0,12,12,12,0,4,4,4,,,,,,,,,,,,,,,,,,,,,,,,,,,,,,,,,,,,,,,,,,,,,,,,,,,,,,,,,,,,,,,,,,,,,1.1898,830.5623346,None,None,1,830.5623346,None,,P007,fencog,1,Post,2021_Aug_11_0946,N-Back (New Version 2021),2021.1.4,119.94003
,,,,Conditions/Version_1/twoback(4)_v1.xlsx,New rule: Press 'space' when you see 2-back (i.e. the same letter as the one that appeared 2 letters ago.),y,None,,,,,,,,,0,12,12,12,0,5,5,5,,,,,,,,,,,,,,,,,,,,,,,,,,,,,,,,,,,,,,,,,,,,,,,,,,,,,,,,,,,,,,,,,,,,,1.1154,833.6810649,None,None,1,833.6810649,None,,P007,fencog,1,Post,2021_Aug_11_0946,N-Back (New Version 2021),2021.1.4,119.94003
,,,,Conditions/Version_1/twoback(4)_v1.xlsx,New rule: Press 'space' when you see 2-back (i.e. the same letter as the one that appeared 2 letters ago.),P,space,,,,,,,,,0,12,12,12,0,6,6,6,,,,,,,,,,,,,,,,,,,,,,,,,,,,,,,,,,,,,,,,,,,,,,,,,,,,,,,,,,,,,,,,,,,,,1.5308,837.2262033,None,space,1,837.2262033,None,0.4358892,P007,fencog,1,Post,2021_Aug_11_0946,N-Back (New Version 2021),2021.1.4,119.94003
,,,,Conditions/Version_1/twoback(4)_v1.xlsx,New rule: Press 'space' when you see 2-back (i.e. the same letter as the one that appeared 2 letters ago.),y,None,,,,,,,,,0,12,12,12,0,7,7,7,,,,,,,,,,,,,,,,,,,,,,,,,,,,,,,,,,,,,,,,,,,,,,,,,,,,,,,,,,,,,,,,,,,,,1.599,840.8259421,None,space,0,840.8259421,None,0.4602821,P007,fencog,1,Post,2021_Aug_11_0946,N-Back (New Version 2021),2021.1.4,119.94003
,,,,Conditions/Version_1/twoback(4)_v1.xlsx,New rule: Press 'space' when you see 2-back (i.e. the same letter as the one that appeared 2 letters ago.),y,space,,,,,,,,,0,12,12,12,0,8,8,8,,,,,,,,,,,,,,,,,,,,,,,,,,,,,,,,,,,,,,,,,,,,,,,,,,,,,,,,,,,,,,,,,,,,,1.6672,844.4917694,None,None,0,844.4917694,None,,P007,fencog,1,Post,2021_Aug_11_0946,N-Back (New Version 2021),2021.1.4,119.94003
,,,,Conditions/Version_1/twoback(4)_v1.xlsx,New rule: Press 'space' when you see 2-back (i.e. the same letter as the one that appeared 2 letters ago.),,,,,,,,,,,0,12,12,12,,,,,,,,,,,,,,,,,,,,,,,,,,,,,,,,,,,,,,,,,,,,,,,,,,,,,,,,,,,,,,,,,,,,,,,,,,,,,,,,,P007,fencog,1,Post,2021_Aug_11_0946,N-Back (New Version 2021),2021.1.4,119.94003
,,,,Conditions/Version_1/zeroback(4)_v1.xlsx,New rule: Press 'space' when you see the letter 'x' or 'X'.,o,None,,,,,,,,,0,13,13,13,0,0,0,0,,,,,,,,,,,,,,,,,,,,,,,,,,,,,,,,,,,,,,,,,,,,,,,,,,,,,,,,,,,846.5091267,None,849.4921435,None,space,0.2831886,849.4921435,None,846.5091267,None,1.6238,851.4407965,None,None,1,851.4407965,None,,P007,fencog,1,Post,2021_Aug_11_0946,N-Back (New Version 2021),2021.1.4,119.94003
,,,,Conditions/Version_1/zeroback(4)_v1.xlsx,New rule: Press 'space' when you see the letter 'x' or 'X'.,X,space,,,,,,,,,0,13,13,13,0,1,1,1,,,,,,,,,,,,,,,,,,,,,,,,,,,,,,,,,,,,,,,,,,,,,,,,,,,,,,,,,,,,,,,,,,,,,1.8904,855.3404127,None,space,1,855.3404127,None,0.4256777,P007,fencog,1,Post,2021_Aug_11_0946,N-Back (New Version 2021),2021.1.4,119.94003
,,,,Conditions/Version_1/zeroback(4)_v1.xlsx,New rule: Press 'space' when you see the letter 'x' or 'X'.,p,None,,,,,,,,,0,13,13,13,0,2,2,2,,,,,,,,,,,,,,,,,,,,,,,,,,,,,,,,,,,,,,,,,,,,,,,,,,,,,,,,,,,,,,,,,,,,,1.9276,859.2833693,None,None,1,859.2833693,None,,P007,fencog,1,Post,2021_Aug_11_0946,N-Back (New Version 2021),2021.1.4,119.94003
,,,,Conditions/Version_1/zeroback(4)_v1.xlsx,New rule: Press 'space' when you see the letter 'x' or 'X'.,m,None,,,,,,,,,0,13,13,13,0,3,3,3,,,,,,,,,,,,,,,,,,,,,,,,,,,,,,,,,,,,,,,,,,,,,,,,,,,,,,,,,,,,,,,,,,,,,1.5618,862.8579413,None,None,1,862.8579413,None,,P007,fencog,1,Post,2021_Aug_11_0946,N-Back (New Version 2021),2021.1.4,119.94003
,,,,Conditions/Version_1/zeroback(4)_v1.xlsx,New rule: Press 'space' when you see the letter 'x' or 'X'.,n,None,,,,,,,,,0,13,13,13,0,4,4,4,,,,,,,,,,,,,,,,,,,,,,,,,,,,,,,,,,,,,,,,,,,,,,,,,,,,,,,,,,,,,,,,,,,,,1.2146,866.0786057,None,None,1,866.0786057,None,,P007,fencog,1,Post,2021_Aug_11_0946,N-Back (New Version 2021),2021.1.4,119.94003
,,,,Conditions/Version_1/zeroback(4)_v1.xlsx,New rule: Press 'space' when you see the letter 'x' or 'X'.,m,None,,,,,,,,,0,13,13,13,0,5,5,5,,,,,,,,,,,,,,,,,,,,,,,,,,,,,,,,,,,,,,,,,,,,,,,,,,,,,,,,,,,,,,,,,,,,,1.9648,870.056858,None,None,1,870.056858,None,,P007,fencog,1,Post,2021_Aug_11_0946,N-Back (New Version 2021),2021.1.4,119.94003
,,,,Conditions/Version_1/zeroback(4)_v1.xlsx,New rule: Press 'space' when you see the letter 'x' or 'X'.,C,None,,,,,,,,,0,13,13,13,0,6,6,6,,,,,,,,,,,,,,,,,,,,,,,,,,,,,,,,,,,,,,,,,,,,,,,,,,,,,,,,,,,,,,,,,,,,,1.4564,873.5162896,None,None,1,873.5162896,None,,P007,fencog,1,Post,2021_Aug_11_0946,N-Back (New Version 2021),2021.1.4,119.94003
,,,,Conditions/Version_1/zeroback(4)_v1.xlsx,New rule: Press 'space' when you see the letter 'x' or 'X'.,m,None,,,,,,,,,0,13,13,13,0,7,7,7,,,,,,,,,,,,,,,,,,,,,,,,,,,,,,,,,,,,,,,,,,,,,,,,,,,,,,,,,,,,,,,,,,,,,1.4254,876.9455134,None,None,1,876.9455134,None,,P007,fencog,1,Post,2021_Aug_11_0946,N-Back (New Version 2021),2021.1.4,119.94003
,,,,Conditions/Version_1/zeroback(4)_v1.xlsx,New rule: Press 'space' when you see the letter 'x' or 'X'.,p,None,,,,,,,,,0,13,13,13,0,8,8,8,,,,,,,,,,,,,,,,,,,,,,,,,,,,,,,,,,,,,,,,,,,,,,,,,,,,,,,,,,,,,,,,,,,,,1.5432,880.5009487,None,None,1,880.5009487,None,,P007,fencog,1,Post,2021_Aug_11_0946,N-Back (New Version 2021),2021.1.4,119.94003
,,,,Conditions/Version_1/zeroback(4)_v1.xlsx,New rule: Press 'space' when you see the letter 'x' or 'X'.,X,space,,,,,,,,,0,13,13,13,0,9,9,9,,,,,,,,,,,,,,,,,,,,,,,,,,,,,,,,,,,,,,,,,,,,,,,,,,,,,,,,,,,,,,,,,,,,,1.1402,883.646718,None,space,1,883.646718,None,0.5913362,P007,fencog,1,Post,2021_Aug_11_0946,N-Back (New Version 2021),2021.1.4,119.94003
,,,,Conditions/Version_1/zeroback(4)_v1.xlsx,New rule: Press 'space' when you see the letter 'x' or 'X'.,,,,,,,,,,,0,13,13,13,,,,,,,,,,,,,,,,,,,,,,,,,,,,,,,,,,,,,,,,,,,,,,,,,,,,,,,,,,,,,,,,,,,,,,,,,,,,,,,,,P007,fencog,1,Post,2021_Aug_11_0946,N-Back (New Version 2021),2021.1.4,119.94003
,,,,Conditions/Version_1/oneback(4)_v1.xlsx,New rule: Press 'space' when you see 1-back (i.e. the same letter as the one that appeared 1 letter ago.),w,None,,,,,,,,,0,14,14,14,0,0,0,0,,,,,,,,,,,,,,,,,,,,,,,,,,,,,,,,,,,,,,,,,,,,,,,,,,,,,,,,,,,885.6699576,None,888.6571409,None,space,0.3569886,888.6571409,None,885.6699576,None,1.7168,890.7739423,None,None,1,890.7739423,None,,P007,fencog,1,Post,2021_Aug_11_0946,N-Back (New Version 2021),2021.1.4,119.94003
,,,,Conditions/Version_1/oneback(4)_v1.xlsx,New rule: Press 'space' when you see 1-back (i.e. the same letter as the one that appeared 1 letter ago.),q,None,,,,,,,,,0,14,14,14,0,1,1,1,,,,,,,,,,,,,,,,,,,,,,,,,,,,,,,,,,,,,,,,,,,,,,,,,,,,,,,,,,,,,,,,,,,,,1.3572,894.1364886,None,None,1,894.1364886,None,,P007,fencog,1,Post,2021_Aug_11_0946,N-Back (New Version 2021),2021.1.4,119.94003
,,,,Conditions/Version_1/oneback(4)_v1.xlsx,New rule: Press 'space' when you see 1-back (i.e. the same letter as the one that appeared 1 letter ago.),i,None,,,,,,,,,0,14,14,14,0,2,2,2,,,,,,,,,,,,,,,,,,,,,,,,,,,,,,,,,,,,,,,,,,,,,,,,,,,,,,,,,,,,,,,,,,,,,1.1154,897.2605457,None,None,1,897.2605457,None,,P007,fencog,1,Post,2021_Aug_11_0946,N-Back (New Version 2021),2021.1.4,119.94003
,,,,Conditions/Version_1/oneback(4)_v1.xlsx,New rule: Press 'space' when you see 1-back (i.e. the same letter as the one that appeared 1 letter ago.),t,None,,,,,,,,,0,14,14,14,0,3,3,3,,,,,,,,,,,,,,,,,,,,,,,,,,,,,,,,,,,,,,,,,,,,,,,,,,,,,,,,,,,,,,,,,,,,,1.4688,900.7436834,None,None,1,900.7436834,None,,P007,fencog,1,Post,2021_Aug_11_0946,N-Back (New Version 2021),2021.1.4,119.94003
,,,,Conditions/Version_1/oneback(4)_v1.xlsx,New rule: Press 'space' when you see 1-back (i.e. the same letter as the one that appeared 1 letter ago.),v,None,,,,,,,,,0,14,14,14,0,4,4,4,,,,,,,,,,,,,,,,,,,,,,,,,,,,,,,,,,,,,,,,,,,,,,,,,,,,,,,,,,,,,,,,,,,,,1.94,904.6935774,None,None,1,904.6935774,None,,P007,fencog,1,Post,2021_Aug_11_0946,N-Back (New Version 2021),2021.1.4,119.94003
,,,,Conditions/Version_1/oneback(4)_v1.xlsx,New rule: Press 'space' when you see 1-back (i.e. the same letter as the one that appeared 1 letter ago.),V,space,,,,,,,,,0,14,14,14,0,5,5,5,,,,,,,,,,,,,,,,,,,,,,,,,,,,,,,,,,,,,,,,,,,,,,,,,,,,,,,,,,,,,,,,,,,,,1.816,908.5159815,None,space,1,908.5159815,None,0.3859464,P007,fencog,1,Post,2021_Aug_11_0946,N-Back (New Version 2021),2021.1.4,119.94003
,,,,Conditions/Version_1/oneback(4)_v1.xlsx,New rule: Press 'space' when you see 1-back (i.e. the same letter as the one that appeared 1 letter ago.),v,space,,,,,,,,,0,14,14,14,0,6,6,6,,,,,,,,,,,,,,,,,,,,,,,,,,,,,,,,,,,,,,,,,,,,,,,,,,,,,,,,,,,,,,,,,,,,,1.5122,912.0389719,None,space,1,912.0389719,None,0.5590554,P007,fencog,1,Post,2021_Aug_11_0946,N-Back (New Version 2021),2021.1.4,119.94003
,,,,Conditions/Version_1/oneback(4)_v1.xlsx,New rule: Press 'space' when you see 1-back (i.e. the same letter as the one that appeared 1 letter ago.),p,None,,,,,,,,,0,14,14,14,0,7,7,7,,,,,,,,,,,,,,,,,,,,,,,,,,,,,,,,,,,,,,,,,,,,,,,,,,,,,,,,,,,,,,,,,,,,,1.9772,916.0288324,None,None,1,916.0288324,None,,P007,fencog,1,Post,2021_Aug_11_0946,N-Back (New Version 2021),2021.1.4,119.94003
,,,,Conditions/Version_1/oneback(4)_v1.xlsx,New rule: Press 'space' when you see 1-back (i.e. the same letter as the one that appeared 1 letter ago.),w,None,,,,,,,,,0,14,14,14,0,8,8,8,,,,,,,,,,,,,,,,,,,,,,,,,,,,,,,,,,,,,,,,,,,,,,,,,,,,,,,,,,,,,,,,,,,,,1.9462,919.9797449,None,None,1,919.9797449,None,,P007,fencog,1,Post,2021_Aug_11_0946,N-Back (New Version 2021),2021.1.4,119.94003
,,,,Conditions/Version_1/oneback(4)_v1.xlsx,New rule: Press 'space' when you see 1-back (i.e. the same letter as the one that appeared 1 letter ago.),W,space,,,,,,,,,0,14,14,14,0,9,9,9,,,,,,,,,,,,,,,,,,,,,,,,,,,,,,,,,,,,,,,,,,,,,,,,,,,,,,,,,,,,,,,,,,,,,1.3076,923.2933037,None,space,1,923.2933037,None,0.3847969,P007,fencog,1,Post,2021_Aug_11_0946,N-Back (New Version 2021),2021.1.4,119.94003
,,,,Conditions/Version_1/oneback(4)_v1.xlsx,New rule: Press 'space' when you see 1-back (i.e. the same letter as the one that appeared 1 letter ago.),,,,,,,,,,,0,14,14,14,,,,,,,,,,,,,,,,,,,,,,,,,,,,,,,,,,,,,,,,,,,,,,,,,,,,,,,,,,,,,,,,,,,,,,,,,,,,,,,,,P007,fencog,1,Post,2021_Aug_11_0946,N-Back (New Version 2021),2021.1.4,119.94003
,,,,Conditions/Version_1/threeback(4)_v1.xlsx,New rule: Press 'space' when you see 3-back (i.e. the same letter as the one that appeared 3 letters ago.),A,None,,,,,,,,,0,15,15,15,0,0,0,0,,,,,,,,,,,,,,,,,,,,,,,,,,,,,,,,,,,,,,,,,,,,,,,,,,,,,,,,,,,925.3196456,None,928.3032285,None,space,0.3986747,928.3032285,None,925.3196456,None,1.4378,930.1580371,None,None,1,930.1580371,None,,P007,fencog,1,Post,2021_Aug_11_0946,N-Back (New Version 2021),2021.1.4,119.94003
,,,,Conditions/Version_1/threeback(4)_v1.xlsx,New rule: Press 'space' when you see 3-back (i.e. the same letter as the one that appeared 3 letters ago.),n,None,,,,,,,,,0,15,15,15,0,1,1,1,,,,,,,,,,,,,,,,,,,,,,,,,,,,,,,,,,,,,,,,,,,,,,,,,,,,,,,,,,,,,,,,,,,,,1.0844,933.2564575,None,None,1,933.2564575,None,,P007,fencog,1,Post,2021_Aug_11_0946,N-Back (New Version 2021),2021.1.4,119.94003
,,,,Conditions/Version_1/threeback(4)_v1.xlsx,New rule: Press 'space' when you see 3-back (i.e. the same letter as the one that appeared 3 letters ago.),g,None,,,,,,,,,0,15,15,15,0,2,2,2,,,,,,,,,,,,,,,,,,,,,,,,,,,,,,,,,,,,,,,,,,,,,,,,,,,,,,,,,,,,,,,,,,,,,1.2146,936.4737775,None,None,1,936.4737775,None,,P007,fencog,1,Post,2021_Aug_11_0946,N-Back (New Version 2021),2021.1.4,119.94003
,,,,Conditions/Version_1/threeback(4)_v1.xlsx,New rule: Press 'space' when you see 3-back (i.e. the same letter as the one that appeared 3 letters ago.),A,space,,,,,,,,,0,15,15,15,0,3,3,3,,,,,,,,,,,,,,,,,,,,,,,,,,,,,,,,,,,,,,,,,,,,,,,,,,,,,,,,,,,,,,,,,,,,,1.9958,940.4726601,None,space,1,940.4726601,None,0.4052651,P007,fencog,1,Post,2021_Aug_11_0946,N-Back (New Version 2021),2021.1.4,119.94003
,,,,Conditions/Version_1/threeback(4)_v1.xlsx,New rule: Press 'space' when you see 3-back (i.e. the same letter as the one that appeared 3 letters ago.),p,None,,,,,,,,,0,15,15,15,0,4,4,4,,,,,,,,,,,,,,,,,,,,,,,,,,,,,,,,,,,,,,,,,,,,,,,,,,,,,,,,,,,,,,,,,,,,,1.6486,944.1330648,None,None,1,944.1330648,None,,P007,fencog,1,Post,2021_Aug_11_0946,N-Back (New Version 2021),2021.1.4,119.94003
,,,,Conditions/Version_1/threeback(4)_v1.xlsx,New rule: Press 'space' when you see 3-back (i.e. the same letter as the one that appeared 3 letters ago.),O,None,,,,,,,,,0,15,15,15,0,5,5,5,,,,,,,,,,,,,,,,,,,,,,,,,,,,,,,,,,,,,,,,,,,,,,,,,,,,,,,,,,,,,,,,,,,,,1.6238,947.761953,None,None,1,947.761953,None,,P007,fencog,1,Post,2021_Aug_11_0946,N-Back (New Version 2021),2021.1.4,119.94003
,,,,Conditions/Version_1/threeback(4)_v1.xlsx,New rule: Press 'space' when you see 3-back (i.e. the same letter as the one that appeared 3 letters ago.),a,space,,,,,,,,,0,15,15,15,0,6,6,6,,,,,,,,,,,,,,,,,,,,,,,,,,,,,,,,,,,,,,,,,,,,,,,,,,,,,,,,,,,,,,,,,,,,,1.94,951.709112,None,None,0,951.709112,None,,P007,fencog,1,Post,2021_Aug_11_0946,N-Back (New Version 2021),2021.1.4,119.94003
,,,,Conditions/Version_1/threeback(4)_v1.xlsx,New rule: Press 'space' when you see 3-back (i.e. the same letter as the one that appeared 3 letters ago.),p,space,,,,,,,,,0,15,15,15,0,7,7,7,,,,,,,,,,,,,,,,,,,,,,,,,,,,,,,,,,,,,,,,,,,,,,,,,,,,,,,,,,,,,,,,,,,,,1.3572,955.0671384,None,space,1,955.0671384,None,1.1706489,P007,fencog,1,Post,2021_Aug_11_0946,N-Back (New Version 2021),2021.1.4,119.94003
,,,,Conditions/Version_1/threeback(4)_v1.xlsx,New rule: Press 'space' when you see 3-back (i.e. the same letter as the one that appeared 3 letters ago.),x,None,,,,,,,,,0,15,15,15,0,8,8,8,,,,,,,,,,,,,,,,,,,,,,,,,,,,,,,,,,,,,,,,,,,,,,,,,,,,,,,,,,,,,,,,,,,,,1.0782,958.1513723,None,None,1,958.1513723,None,,P007,fencog,1,Post,2021_Aug_11_0946,N-Back (New Version 2021),2021.1.4,119.94003
,,,,Conditions/Version_1/threeback(4)_v1.xlsx,New rule: Press 'space' when you see 3-back (i.e. the same letter as the one that appeared 3 letters ago.),X,None,,,,,,,,,0,15,15,15,0,9,9,9,,,,,,,,,,,,,,,,,,,,,,,,,,,,,,,,,,,,,,,,,,,,,,,,,,,,,,,,,,,,,,,,,,,,,1.8222,961.9817107,None,None,1,961.9817107,None,,P007,fencog,1,Post,2021_Aug_11_0946,N-Back (New Version 2021),2021.1.4,119.94003
,,,,Conditions/Version_1/threeback(4)_v1.xlsx,New rule: Press 'space' when you see 3-back (i.e. the same letter as the one that appeared 3 letters ago.),,,,,,,,,,,0,15,15,15,,,,,,,,,,,,,,,,,,,,,,,,,,,,,,,,,,,,,,,,,,,,,,,,,,,,,,,,,,,,,,,,,,,,,,,,,,,,,,,,,P007,fencog,1,Post,2021_Aug_11_0946,N-Back (New Version 2021),2021.1.4,119.94003
