CondFileP,InstructionsP,LettersDisplayedP,CorrectnessP,CondFile,Instructions,LettersDisplayed,Correctness,practicetrials.thisRepN,practicetrials.thisTrialN,practicetrials.thisN,practicetrials.thisIndex,InnerLoopPractice.thisRepN,InnerLoopPractice.thisTrialN,InnerLoopPractice.thisN,InnerLoopPractice.thisIndex,trials.thisRepN,trials.thisTrialN,trials.thisN,trials.thisIndex,InnerLoop.thisRepN,InnerLoop.thisTrialN,InnerLoop.thisN,InnerLoop.thisIndex,TaskVersionText.started,TaskVersionText.stopped,InstrKey1.keys,InstrKey1.rt,InstrKey1.started,InstrKey1.stopped,text.started,text.stopped,key_resp_4.keys,key_resp_4.rt,key_resp_4.started,key_resp_4.stopped,text_2.started,text_2.stopped,key_resp_3.keys,key_resp_3.rt,key_resp_3.started,key_resp_3.stopped,text_3.started,text_3.stopped,key_resp_2.keys,key_resp_2.rt,key_resp_2.started,key_resp_2.stopped,PractIn1.started,PractIn1.stopped,PractIn2.started,PractIn2.stopped,PractInstructionPass.keys,PractInstructionPass.rt,PractInstructionPass.started,PractInstructionPass.stopped,PractBlock1.started,PractBlock1.stopped,ISIjitterPractice,ISI_Pract_Fixation.started,ISI_Pract_Fixation.stopped,N_backP.started,N_backP.stopped,KeyPractice.keys,KeyPractice.corr,KeyPractice.started,KeyPractice.stopped,text_4.started,text_4.stopped,TransitionText.started,TransitionText.stopped,key_resp_6.keys,key_resp_6.rt,key_resp_6.started,key_resp_6.stopped,text_5.started,text_5.stopped,key_resp_5.keys,key_resp_5.rt,key_resp_5.started,key_resp_5.stopped,MainInt1.started,MainInt1.stopped,MainInt2.started,MainInt2.stopped,InstructionPass.keys,InstructionPass.rt,InstructionPass.started,InstructionPass.stopped,Blocks1.started,Blocks1.stopped,ISIjitter,N_backD.started,N_backD.stopped,key_resp.keys,key_resp.corr,key_resp.started,key_resp.stopped,key_resp.rt,participant,Study Name,Task Version (required to run),PRE/POST,date,expName,psychopyVersion,frameRate
,,,,,,,,,,,,,,,,,,,,,,,,26.2378778,None,space,3.9805244,26.729675,None,,,,,,,,,,,,,,,,,,,,,,,,,,,,,,,,,,,,,,,,,,,,,,,,,,,,,,,,,,,,,,,,,,,,,,P008,fencog,1,Post,2021_Aug_13_1114,N-Back (New Version 2021),2021.1.4,119.9666492
,,,,,,,,,,,,,,,,,,,,,,,,,,,,,,30.742048,None,space,0.1677569,31.2388785,None,,,,,,,,,,,,,,,,,,,,,,,,,,,,,,,,,,,,,,,,,,,,,,,,,,,,,,,,,,,,,,,,P008,fencog,1,Post,2021_Aug_13_1114,N-Back (New Version 2021),2021.1.4,119.9666492
,,,,,,,,,,,,,,,,,,,,,,,,,,,,,,,,,,,,31.4439957,None,space,0.2530885,31.9372571,None,,,,,,,,,,,,,,,,,,,,,,,,,,,,,,,,,,,,,,,,,,,,,,,,,,,,,,,,,,P008,fencog,1,Post,2021_Aug_13_1114,N-Back (New Version 2021),2021.1.4,119.9666492
,,,,,,,,,,,,,,,,,,,,,,,,,,,,,,,,,,,,,,,,,,32.2155966,None,space,0.3994752,32.7036271,None,,,,,,,,,,,,,,,,,,,,,,,,,,,,,,,,,,,,,,,,,,,,,,,,,,,,P008,fencog,1,Post,2021_Aug_13_1114,N-Back (New Version 2021),2021.1.4,119.9666492
Conditions/Version_1Pr/zeroback(1)_v1.xlsx,Rule: Press 'space' when you see the letter 'x' or 'X'.,Z,None,,,,,0,0,0,0,0,0,0,0,,,,,,,,,,,,,,,,,,,,,,,,,,,,,,,,,34.4200042,None,37.4103158,None,space,9.6918525,37.4103158,None,34.4200042,None,1.215,47.1208381,None,48.3426305,None,None,1,48.3426305,None,50.3490714,None,,,,,,,,,,,,,,,,,,,,,,,,,,,,,,,P008,fencog,1,Post,2021_Aug_13_1114,N-Back (New Version 2021),2021.1.4,119.9666492
Conditions/Version_1Pr/zeroback(1)_v1.xlsx,Rule: Press 'space' when you see the letter 'x' or 'X'.,r,None,,,,,0,0,0,0,0,1,1,1,,,,,,,,,,,,,,,,,,,,,,,,,,,,,,,,,,,,,,,,,,,1.14,51.8482703,None,52.9890572,None,None,1,52.9890572,None,54.9967336,None,,,,,,,,,,,,,,,,,,,,,,,,,,,,,,,P008,fencog,1,Post,2021_Aug_13_1114,N-Back (New Version 2021),2021.1.4,119.9666492
Conditions/Version_1Pr/zeroback(1)_v1.xlsx,Rule: Press 'space' when you see the letter 'x' or 'X'.,X,space,,,,,0,0,0,0,0,2,2,2,,,,,,,,,,,,,,,,,,,,,,,,,,,,,,,,,,,,,,,,,,,1.415,56.4957983,None,57.9136059,None,None,0,57.9136059,None,59.9213268,None,,,,,,,,,,,,,,,,,,,,,,,,,,,,,,,P008,fencog,1,Post,2021_Aug_13_1114,N-Back (New Version 2021),2021.1.4,119.9666492
Conditions/Version_1Pr/zeroback(1)_v1.xlsx,Rule: Press 'space' when you see the letter 'x' or 'X'.,p,None,,,,,0,0,0,0,0,3,3,3,,,,,,,,,,,,,,,,,,,,,,,,,,,,,,,,,,,,,,,,,,,1.565,61.419341,None,62.9872866,None,None,1,62.9872866,None,64.9931468,None,,,,,,,,,,,,,,,,,,,,,,,,,,,,,,,P008,fencog,1,Post,2021_Aug_13_1114,N-Back (New Version 2021),2021.1.4,119.9666492
Conditions/Version_1Pr/zeroback(1)_v1.xlsx,Rule: Press 'space' when you see the letter 'x' or 'X'.,w,None,,,,,0,0,0,0,0,4,4,4,,,,,,,,,,,,,,,,,,,,,,,,,,,,,,,,,,,,,,,,,,,1.04,66.4927572,None,67.5359339,None,None,1,67.5359339,None,69.5360988,None,,,,,,,,,,,,,,,,,,,,,,,,,,,,,,,P008,fencog,1,Post,2021_Aug_13_1114,N-Back (New Version 2021),2021.1.4,119.9666492
Conditions/Version_1Pr/zeroback(1)_v1.xlsx,Rule: Press 'space' when you see the letter 'x' or 'X'.,e,None,,,,,0,0,0,0,0,5,5,5,,,,,,,,,,,,,,,,,,,,,,,,,,,,,,,,,,,,,,,,,,,1.94,71.0414304,None,72.982961,None,None,1,72.982961,None,74.9820081,None,,,,,,,,,,,,,,,,,,,,,,,,,,,,,,,P008,fencog,1,Post,2021_Aug_13_1114,N-Back (New Version 2021),2021.1.4,119.9666492
Conditions/Version_1Pr/zeroback(1)_v1.xlsx,Rule: Press 'space' when you see the letter 'x' or 'X'.,X,space,,,,,0,0,0,0,0,6,6,6,,,,,,,,,,,,,,,,,,,,,,,,,,,,,,,,,,,,,,,,,,,1.54,76.4814982,None,78.0276819,None,None,0,78.0276819,None,80.0354898,None,,,,,,,,,,,,,,,,,,,,,,,,,,,,,,,P008,fencog,1,Post,2021_Aug_13_1114,N-Back (New Version 2021),2021.1.4,119.9666492
Conditions/Version_1Pr/zeroback(1)_v1.xlsx,Rule: Press 'space' when you see the letter 'x' or 'X'.,x,space,,,,,0,0,0,0,0,7,7,7,,,,,,,,,,,,,,,,,,,,,,,,,,,,,,,,,,,,,,,,,,,1.465,81.5300297,None,82.9977414,None,None,0,82.9977414,None,84.9990269,None,,,,,,,,,,,,,,,,,,,,,,,,,,,,,,,P008,fencog,1,Post,2021_Aug_13_1114,N-Back (New Version 2021),2021.1.4,119.9666492
Conditions/Version_1Pr/zeroback(1)_v1.xlsx,Rule: Press 'space' when you see the letter 'x' or 'X'.,p,None,,,,,0,0,0,0,0,8,8,8,,,,,,,,,,,,,,,,,,,,,,,,,,,,,,,,,,,,,,,,,,,1.915,86.5033289,None,88.4205876,None,None,1,88.4205876,None,90.4229373,None,,,,,,,,,,,,,,,,,,,,,,,,,,,,,,,P008,fencog,1,Post,2021_Aug_13_1114,N-Back (New Version 2021),2021.1.4,119.9666492
Conditions/Version_1Pr/zeroback(1)_v1.xlsx,Rule: Press 'space' when you see the letter 'x' or 'X'.,r,None,,,,,0,0,0,0,0,9,9,9,,,,,,,,,,,,,,,,,,,,,,,,,,,,,,,,,,,,,,,,,,,1.59,91.9268097,None,93.5179325,None,None,1,93.5179325,None,95.517226,None,,,,,,,,,,,,,,,,,,,,,,,,,,,,,,,P008,fencog,1,Post,2021_Aug_13_1114,N-Back (New Version 2021),2021.1.4,119.9666492
Conditions/Version_1Pr/zeroback(1)_v1.xlsx,Rule: Press 'space' when you see the letter 'x' or 'X'.,,,,,,,0,0,0,0,,,,,,,,,,,,,,,,,,,,,,,,,,,,,,,,,,,,,,,,,,,,,,,,,,,,,,,,,,,,,,,,,,,,,,,,,,,,,,,,,,,,,,,,P008,fencog,1,Post,2021_Aug_13_1114,N-Back (New Version 2021),2021.1.4,119.9666492
Conditions/Version_1Pr/oneback(1)_v1.xlsx,New rule: Press 'space' when you see 1-back (i.e. the same letter as the one that appeared 1 letter ago.),a,None,,,,,0,1,1,1,0,0,0,0,,,,,,,,,,,,,,,,,,,,,,,,,,,,,,,,,97.0495367,None,100.0358078,None,space,1.5304037,100.0358078,None,97.0495367,None,1.215,101.5810353,None,102.800883,None,None,1,102.800883,None,104.8065245,None,,,,,,,,,,,,,,,,,,,,,,,,,,,,,,,P008,fencog,1,Post,2021_Aug_13_1114,N-Back (New Version 2021),2021.1.4,119.9666492
Conditions/Version_1Pr/oneback(1)_v1.xlsx,New rule: Press 'space' when you see 1-back (i.e. the same letter as the one that appeared 1 letter ago.),x,None,,,,,0,1,1,1,0,1,1,1,,,,,,,,,,,,,,,,,,,,,,,,,,,,,,,,,,,,,,,,,,,1.34,106.3060685,None,107.6482118,None,None,1,107.6482118,None,109.6535759,None,,,,,,,,,,,,,,,,,,,,,,,,,,,,,,,P008,fencog,1,Post,2021_Aug_13_1114,N-Back (New Version 2021),2021.1.4,119.9666492
Conditions/Version_1Pr/oneback(1)_v1.xlsx,New rule: Press 'space' when you see 1-back (i.e. the same letter as the one that appeared 1 letter ago.),g,None,,,,,0,1,1,1,0,2,2,2,,,,,,,,,,,,,,,,,,,,,,,,,,,,,,,,,,,,,,,,,,,1.14,111.1546173,None,112.2968937,None,None,1,112.2968937,None,114.3035969,None,,,,,,,,,,,,,,,,,,,,,,,,,,,,,,,P008,fencog,1,Post,2021_Aug_13_1114,N-Back (New Version 2021),2021.1.4,119.9666492
Conditions/Version_1Pr/oneback(1)_v1.xlsx,New rule: Press 'space' when you see 1-back (i.e. the same letter as the one that appeared 1 letter ago.),G,space,,,,,0,1,1,1,0,3,3,3,,,,,,,,,,,,,,,,,,,,,,,,,,,,,,,,,,,,,,,,,,,1.69,115.8031723,None,117.5003721,None,None,0,117.5003721,None,119.5046478,None,,,,,,,,,,,,,,,,,,,,,,,,,,,,,,,P008,fencog,1,Post,2021_Aug_13_1114,N-Back (New Version 2021),2021.1.4,119.9666492
Conditions/Version_1Pr/oneback(1)_v1.xlsx,New rule: Press 'space' when you see 1-back (i.e. the same letter as the one that appeared 1 letter ago.),u,None,,,,,0,1,1,1,0,4,4,4,,,,,,,,,,,,,,,,,,,,,,,,,,,,,,,,,,,,,,,,,,,1.815,121.0017459,None,122.8282646,None,None,1,122.8282646,None,124.8254607,None,,,,,,,,,,,,,,,,,,,,,,,,,,,,,,,P008,fencog,1,Post,2021_Aug_13_1114,N-Back (New Version 2021),2021.1.4,119.9666492
Conditions/Version_1Pr/oneback(1)_v1.xlsx,New rule: Press 'space' when you see 1-back (i.e. the same letter as the one that appeared 1 letter ago.),y,None,,,,,0,1,1,1,0,5,5,5,,,,,,,,,,,,,,,,,,,,,,,,,,,,,,,,,,,,,,,,,,,1.54,126.3251196,None,127.8675678,None,None,1,127.8675678,None,129.8741073,None,,,,,,,,,,,,,,,,,,,,,,,,,,,,,,,P008,fencog,1,Post,2021_Aug_13_1114,N-Back (New Version 2021),2021.1.4,119.9666492
Conditions/Version_1Pr/oneback(1)_v1.xlsx,New rule: Press 'space' when you see 1-back (i.e. the same letter as the one that appeared 1 letter ago.),y,space,,,,,0,1,1,1,0,6,6,6,,,,,,,,,,,,,,,,,,,,,,,,,,,,,,,,,,,,,,,,,,,1.365,131.3736279,None,132.7400758,None,None,0,132.7400758,None,134.7535601,None,,,,,,,,,,,,,,,,,,,,,,,,,,,,,,,P008,fencog,1,Post,2021_Aug_13_1114,N-Back (New Version 2021),2021.1.4,119.9666492
Conditions/Version_1Pr/oneback(1)_v1.xlsx,New rule: Press 'space' when you see 1-back (i.e. the same letter as the one that appeared 1 letter ago.),k,None,,,,,0,1,1,1,0,7,7,7,,,,,,,,,,,,,,,,,,,,,,,,,,,,,,,,,,,,,,,,,,,1.865,136.2473401,None,138.1238145,None,None,1,138.1238145,None,140.1259272,None,,,,,,,,,,,,,,,,,,,,,,,,,,,,,,,P008,fencog,1,Post,2021_Aug_13_1114,N-Back (New Version 2021),2021.1.4,119.9666492
Conditions/Version_1Pr/oneback(1)_v1.xlsx,New rule: Press 'space' when you see 1-back (i.e. the same letter as the one that appeared 1 letter ago.),c,None,,,,,0,1,1,1,0,8,8,8,,,,,,,,,,,,,,,,,,,,,,,,,,,,,,,,,,,,,,,,,,,1.64,141.6207016,None,143.2631213,None,None,1,143.2631213,None,145.2694584,None,,,,,,,,,,,,,,,,,,,,,,,,,,,,,,,P008,fencog,1,Post,2021_Aug_13_1114,N-Back (New Version 2021),2021.1.4,119.9666492
Conditions/Version_1Pr/oneback(1)_v1.xlsx,New rule: Press 'space' when you see 1-back (i.e. the same letter as the one that appeared 1 letter ago.),r,None,,,,,0,1,1,1,0,9,9,9,,,,,,,,,,,,,,,,,,,,,,,,,,,,,,,,,,,,,,,,,,,1.515,146.7690496,None,148.2857383,None,None,1,148.2857383,None,150.2906022,None,,,,,,,,,,,,,,,,,,,,,,,,,,,,,,,P008,fencog,1,Post,2021_Aug_13_1114,N-Back (New Version 2021),2021.1.4,119.9666492
Conditions/Version_1Pr/oneback(1)_v1.xlsx,New rule: Press 'space' when you see 1-back (i.e. the same letter as the one that appeared 1 letter ago.),,,,,,,0,1,1,1,,,,,,,,,,,,,,,,,,,,,,,,,,,,,,,,,,,,,,,,,,,,,,,,,,,,,,,,,,,,,,,,,,,,,,,,,,,,,,,,,,,,,,,,P008,fencog,1,Post,2021_Aug_13_1114,N-Back (New Version 2021),2021.1.4,119.9666492
Conditions/Version_1Pr/twoback(1)_v1.xlsx,New rule: Press 'space' when you see 2-back (i.e. the same letter as the one that appeared 2 letters ago.),E,None,,,,,0,2,2,2,0,0,0,0,,,,,,,,,,,,,,,,,,,,,,,,,,,,,,,,,151.8143558,None,154.8090191,None,space,2.2691598,154.8090191,None,151.8143558,None,1.965,157.1106464,None,159.0894218,None,None,1,159.0894218,None,161.0898974,None,,,,,,,,,,,,,,,,,,,,,,,,,,,,,,,P008,fencog,1,Post,2021_Aug_13_1114,N-Back (New Version 2021),2021.1.4,119.9666492
Conditions/Version_1Pr/twoback(1)_v1.xlsx,New rule: Press 'space' when you see 2-back (i.e. the same letter as the one that appeared 2 letters ago.),p,None,,,,,0,2,2,2,0,1,1,1,,,,,,,,,,,,,,,,,,,,,,,,,,,,,,,,,,,,,,,,,,,1.19,162.5893934,None,163.7805426,None,None,1,163.7805426,None,165.779937,None,,,,,,,,,,,,,,,,,,,,,,,,,,,,,,,P008,fencog,1,Post,2021_Aug_13_1114,N-Back (New Version 2021),2021.1.4,119.9666492
Conditions/Version_1Pr/twoback(1)_v1.xlsx,New rule: Press 'space' when you see 2-back (i.e. the same letter as the one that appeared 2 letters ago.),e,space,,,,,0,2,2,2,0,2,2,2,,,,,,,,,,,,,,,,,,,,,,,,,,,,,,,,,,,,,,,,,,,1.465,167.2797443,None,168.7468954,None,None,0,168.7468954,None,170.7548932,None,,,,,,,,,,,,,,,,,,,,,,,,,,,,,,,P008,fencog,1,Post,2021_Aug_13_1114,N-Back (New Version 2021),2021.1.4,119.9666492
Conditions/Version_1Pr/twoback(1)_v1.xlsx,New rule: Press 'space' when you see 2-back (i.e. the same letter as the one that appeared 2 letters ago.),s,None,,,,,0,2,2,2,0,3,3,3,,,,,,,,,,,,,,,,,,,,,,,,,,,,,,,,,,,,,,,,,,,1.79,172.2532557,None,174.045901,None,None,1,174.045901,None,176.0561034,None,,,,,,,,,,,,,,,,,,,,,,,,,,,,,,,P008,fencog,1,Post,2021_Aug_13_1114,N-Back (New Version 2021),2021.1.4,119.9666492
Conditions/Version_1Pr/twoback(1)_v1.xlsx,New rule: Press 'space' when you see 2-back (i.e. the same letter as the one that appeared 2 letters ago.),S,None,,,,,0,2,2,2,0,4,4,4,,,,,,,,,,,,,,,,,,,,,,,,,,,,,,,,,,,,,,,,,,,1.615,177.5516734,None,179.1752326,None,None,1,179.1752326,None,181.1756221,None,,,,,,,,,,,,,,,,,,,,,,,,,,,,,,,P008,fencog,1,Post,2021_Aug_13_1114,N-Back (New Version 2021),2021.1.4,119.9666492
Conditions/Version_1Pr/twoback(1)_v1.xlsx,New rule: Press 'space' when you see 2-back (i.e. the same letter as the one that appeared 2 letters ago.),s,space,,,,,0,2,2,2,0,5,5,5,,,,,,,,,,,,,,,,,,,,,,,,,,,,,,,,,,,,,,,,,,,1.815,182.675097,None,184.4910467,None,None,0,184.4910467,None,186.4938263,None,,,,,,,,,,,,,,,,,,,,,,,,,,,,,,,P008,fencog,1,Post,2021_Aug_13_1114,N-Back (New Version 2021),2021.1.4,119.9666492
Conditions/Version_1Pr/twoback(1)_v1.xlsx,New rule: Press 'space' when you see 2-back (i.e. the same letter as the one that appeared 2 letters ago.),P,None,,,,,0,2,2,2,0,6,6,6,,,,,,,,,,,,,,,,,,,,,,,,,,,,,,,,,,,,,,,,,,,1.04,187.9986642,None,189.0426416,None,None,1,189.0426416,None,191.0473384,None,,,,,,,,,,,,,,,,,,,,,,,,,,,,,,,P008,fencog,1,Post,2021_Aug_13_1114,N-Back (New Version 2021),2021.1.4,119.9666492
Conditions/Version_1Pr/twoback(1)_v1.xlsx,New rule: Press 'space' when you see 2-back (i.e. the same letter as the one that appeared 2 letters ago.),C,None,,,,,0,2,2,2,0,7,7,7,,,,,,,,,,,,,,,,,,,,,,,,,,,,,,,,,,,,,,,,,,,1.84,192.5470471,None,194.3886641,None,None,1,194.3886641,None,196.3876657,None,,,,,,,,,,,,,,,,,,,,,,,,,,,,,,,P008,fencog,1,Post,2021_Aug_13_1114,N-Back (New Version 2021),2021.1.4,119.9666492
Conditions/Version_1Pr/twoback(1)_v1.xlsx,New rule: Press 'space' when you see 2-back (i.e. the same letter as the one that appeared 2 letters ago.),x,None,,,,,0,2,2,2,0,8,8,8,,,,,,,,,,,,,,,,,,,,,,,,,,,,,,,,,,,,,,,,,,,1.415,197.8873129,None,199.3044445,None,None,1,199.3044445,None,201.3060543,None,,,,,,,,,,,,,,,,,,,,,,,,,,,,,,,P008,fencog,1,Post,2021_Aug_13_1114,N-Back (New Version 2021),2021.1.4,119.9666492
Conditions/Version_1Pr/twoback(1)_v1.xlsx,New rule: Press 'space' when you see 2-back (i.e. the same letter as the one that appeared 2 letters ago.),Z,None,,,,,0,2,2,2,0,9,9,9,,,,,,,,,,,,,,,,,,,,,,,,,,,,,,,,,,,,,,,,,,,1.94,202.8109281,None,204.7530724,None,None,1,204.7530724,None,206.7596095,None,,,,,,,,,,,,,,,,,,,,,,,,,,,,,,,P008,fencog,1,Post,2021_Aug_13_1114,N-Back (New Version 2021),2021.1.4,119.9666492
Conditions/Version_1Pr/twoback(1)_v1.xlsx,New rule: Press 'space' when you see 2-back (i.e. the same letter as the one that appeared 2 letters ago.),,,,,,,0,2,2,2,,,,,,,,,,,,,,,,,,,,,,,,,,,,,,,,,,,,,,,,,,,,,,,,,,,,,,,,,,,,,,,,,,,,,,,,,,,,,,,,,,,,,,,,P008,fencog,1,Post,2021_Aug_13_1114,N-Back (New Version 2021),2021.1.4,119.9666492
Conditions/Version_1Pr/threeback(1)_v1.xlsx,New rule: Press 'space' when you see 3-back (i.e. the same letter as the one that appeared 3 letters ago.),r,None,,,,,0,3,3,3,0,0,0,0,,,,,,,,,,,,,,,,,,,,,,,,,,,,,,,,,208.279532,None,211.2686234,None,space,5.6097833,211.2686234,None,208.279532,None,1.79,216.8940073,None,218.6905914,None,None,1,218.6905914,None,220.6973502,None,,,,,,,,,,,,,,,,,,,,,,,,,,,,,,,P008,fencog,1,Post,2021_Aug_13_1114,N-Back (New Version 2021),2021.1.4,119.9666492
Conditions/Version_1Pr/threeback(1)_v1.xlsx,New rule: Press 'space' when you see 3-back (i.e. the same letter as the one that appeared 3 letters ago.),a,None,,,,,0,3,3,3,0,1,1,1,,,,,,,,,,,,,,,,,,,,,,,,,,,,,,,,,,,,,,,,,,,1.365,222.1968845,None,223.5638997,None,None,1,223.5638997,None,225.570882,None,,,,,,,,,,,,,,,,,,,,,,,,,,,,,,,P008,fencog,1,Post,2021_Aug_13_1114,N-Back (New Version 2021),2021.1.4,119.9666492
Conditions/Version_1Pr/threeback(1)_v1.xlsx,New rule: Press 'space' when you see 3-back (i.e. the same letter as the one that appeared 3 letters ago.),t,None,,,,,0,3,3,3,0,2,2,2,,,,,,,,,,,,,,,,,,,,,,,,,,,,,,,,,,,,,,,,,,,1.265,227.0702218,None,228.3380069,None,None,1,228.3380069,None,230.3442345,None,,,,,,,,,,,,,,,,,,,,,,,,,,,,,,,P008,fencog,1,Post,2021_Aug_13_1114,N-Back (New Version 2021),2021.1.4,119.9666492
Conditions/Version_1Pr/threeback(1)_v1.xlsx,New rule: Press 'space' when you see 3-back (i.e. the same letter as the one that appeared 3 letters ago.),r,space,,,,,0,3,3,3,0,3,3,3,,,,,,,,,,,,,,,,,,,,,,,,,,,,,,,,,,,,,,,,,,,1.14,231.8439375,None,232.9851037,None,None,0,232.9851037,None,234.9889333,None,,,,,,,,,,,,,,,,,,,,,,,,,,,,,,,P008,fencog,1,Post,2021_Aug_13_1114,N-Back (New Version 2021),2021.1.4,119.9666492
Conditions/Version_1Pr/threeback(1)_v1.xlsx,New rule: Press 'space' when you see 3-back (i.e. the same letter as the one that appeared 3 letters ago.),a,None,,,,,0,3,3,3,0,4,4,4,,,,,,,,,,,,,,,,,,,,,,,,,,,,,,,,,,,,,,,,,,,1.69,236.4925186,None,238.1882845,None,None,1,238.1882845,None,240.1950731,None,,,,,,,,,,,,,,,,,,,,,,,,,,,,,,,P008,fencog,1,Post,2021_Aug_13_1114,N-Back (New Version 2021),2021.1.4,119.9666492
Conditions/Version_1Pr/threeback(1)_v1.xlsx,New rule: Press 'space' when you see 3-back (i.e. the same letter as the one that appeared 3 letters ago.),Y,None,,,,,0,3,3,3,0,5,5,5,,,,,,,,,,,,,,,,,,,,,,,,,,,,,,,,,,,,,,,,,,,1.165,241.691055,None,242.8592161,None,None,1,242.8592161,None,244.8651912,None,,,,,,,,,,,,,,,,,,,,,,,,,,,,,,,P008,fencog,1,Post,2021_Aug_13_1114,N-Back (New Version 2021),2021.1.4,119.9666492
Conditions/Version_1Pr/threeback(1)_v1.xlsx,New rule: Press 'space' when you see 3-back (i.e. the same letter as the one that appeared 3 letters ago.),q,None,,,,,0,3,3,3,0,6,6,6,,,,,,,,,,,,,,,,,,,,,,,,,,,,,,,,,,,,,,,,,,,1.215,246.3647129,None,247.5844125,None,None,1,247.5844125,None,249.5846619,None,,,,,,,,,,,,,,,,,,,,,,,,,,,,,,,P008,fencog,1,Post,2021_Aug_13_1114,N-Back (New Version 2021),2021.1.4,119.9666492
Conditions/Version_1Pr/threeback(1)_v1.xlsx,New rule: Press 'space' when you see 3-back (i.e. the same letter as the one that appeared 3 letters ago.),A,space,,,,,0,3,3,3,0,7,7,7,,,,,,,,,,,,,,,,,,,,,,,,,,,,,,,,,,,,,,,,,,,2.015,251.0881555,None,253.106164,None,None,0,253.106164,None,255.1166221,None,,,,,,,,,,,,,,,,,,,,,,,,,,,,,,,P008,fencog,1,Post,2021_Aug_13_1114,N-Back (New Version 2021),2021.1.4,119.9666492
Conditions/Version_1Pr/threeback(1)_v1.xlsx,New rule: Press 'space' when you see 3-back (i.e. the same letter as the one that appeared 3 letters ago.),y,None,,,,,0,3,3,3,0,8,8,8,,,,,,,,,,,,,,,,,,,,,,,,,,,,,,,,,,,,,,,,,,,1.04,256.6117543,None,257.6561683,None,None,1,257.6561683,None,259.6608554,None,,,,,,,,,,,,,,,,,,,,,,,,,,,,,,,P008,fencog,1,Post,2021_Aug_13_1114,N-Back (New Version 2021),2021.1.4,119.9666492
Conditions/Version_1Pr/threeback(1)_v1.xlsx,New rule: Press 'space' when you see 3-back (i.e. the same letter as the one that appeared 3 letters ago.),r,None,,,,,0,3,3,3,0,9,9,9,,,,,,,,,,,,,,,,,,,,,,,,,,,,,,,,,,,,,,,,,,,1.065,261.1602527,None,262.2274363,None,None,1,262.2274363,None,264.2343243,None,,,,,,,,,,,,,,,,,,,,,,,,,,,,,,,P008,fencog,1,Post,2021_Aug_13_1114,N-Back (New Version 2021),2021.1.4,119.9666492
Conditions/Version_1Pr/threeback(1)_v1.xlsx,New rule: Press 'space' when you see 3-back (i.e. the same letter as the one that appeared 3 letters ago.),,,,,,,0,3,3,3,,,,,,,,,,,,,,,,,,,,,,,,,,,,,,,,,,,,,,,,,,,,,,,,,,,,,,,,,,,,,,,,,,,,,,,,,,,,,,,,,,,,,,,,P008,fencog,1,Post,2021_Aug_13_1114,N-Back (New Version 2021),2021.1.4,119.9666492
,,,,,,,,,,,,,,,,,,,,,,,,,,,,,,,,,,,,,,,,,,,,,,,,,,,,,,,,,,,,,,,,,,,,,265.7455417,None,space,78.3157219,266.2423759,None,,,,,,,,,,,,,,,,,,,,,,,,,P008,fencog,1,Post,2021_Aug_13_1114,N-Back (New Version 2021),2021.1.4,119.9666492
,,,,,,,,,,,,,,,,,,,,,,,,,,,,,,,,,,,,,,,,,,,,,,,,,,,,,,,,,,,,,,,,,,,,,,,,,,,344.5832188,None,space,2.5371292,345.0778156,None,,,,,,,,,,,,,,,,,,,P008,fencog,1,Post,2021_Aug_13_1114,N-Back (New Version 2021),2021.1.4,119.9666492
,,,,Conditions/Version_1/zeroback(1)_v1.xlsx,Rule: Press 'space' when you see the letter 'x' or 'X'.,b,None,,,,,,,,,0,0,0,0,0,0,0,0,,,,,,,,,,,,,,,,,,,,,,,,,,,,,,,,,,,,,,,,,,,,,,,,,,,,,,,,,,347.7146868,None,350.7031484,None,space,1.1429706,350.7031484,None,347.7146868,None,1.01,352.8765693,None,None,1,352.8765693,None,,P008,fencog,1,Post,2021_Aug_13_1114,N-Back (New Version 2021),2021.1.4,119.9666492
,,,,Conditions/Version_1/zeroback(1)_v1.xlsx,Rule: Press 'space' when you see the letter 'x' or 'X'.,T,None,,,,,,,,,0,0,0,0,0,1,1,1,,,,,,,,,,,,,,,,,,,,,,,,,,,,,,,,,,,,,,,,,,,,,,,,,,,,,,,,,,,,,,,,,,,,1.4626,356.3516996,None,None,1,356.3516996,None,,P008,fencog,1,Post,2021_Aug_13_1114,N-Back (New Version 2021),2021.1.4,119.9666492
,,,,Conditions/Version_1/zeroback(1)_v1.xlsx,Rule: Press 'space' when you see the letter 'x' or 'X'.,L,None,,,,,,,,,0,0,0,0,0,2,2,2,,,,,,,,,,,,,,,,,,,,,,,,,,,,,,,,,,,,,,,,,,,,,,,,,,,,,,,,,,,,,,,,,,,,1.382,359.745052,None,None,1,359.745052,None,,P008,fencog,1,Post,2021_Aug_13_1114,N-Back (New Version 2021),2021.1.4,119.9666492
,,,,Conditions/Version_1/zeroback(1)_v1.xlsx,Rule: Press 'space' when you see the letter 'x' or 'X'.,x,space,,,,,,,,,0,0,0,0,0,3,3,3,,,,,,,,,,,,,,,,,,,,,,,,,,,,,,,,,,,,,,,,,,,,,,,,,,,,,,,,,,,,,,,,,,,,1.4812,363.2377146,None,space,1,363.2377146,None,0.3845481,P008,fencog,1,Post,2021_Aug_13_1114,N-Back (New Version 2021),2021.1.4,119.9666492
,,,,Conditions/Version_1/zeroback(1)_v1.xlsx,Rule: Press 'space' when you see the letter 'x' or 'X'.,o,None,,,,,,,,,0,0,0,0,0,4,4,4,,,,,,,,,,,,,,,,,,,,,,,,,,,,,,,,,,,,,,,,,,,,,,,,,,,,,,,,,,,,,,,,,,,,1.7912,367.0383025,None,None,1,367.0383025,None,,P008,fencog,1,Post,2021_Aug_13_1114,N-Back (New Version 2021),2021.1.4,119.9666492
,,,,Conditions/Version_1/zeroback(1)_v1.xlsx,Rule: Press 'space' when you see the letter 'x' or 'X'.,P,None,,,,,,,,,0,0,0,0,0,5,5,5,,,,,,,,,,,,,,,,,,,,,,,,,,,,,,,,,,,,,,,,,,,,,,,,,,,,,,,,,,,,,,,,,,,,1.2828,370.330594,None,None,1,370.330594,None,,P008,fencog,1,Post,2021_Aug_13_1114,N-Back (New Version 2021),2021.1.4,119.9666492
,,,,Conditions/Version_1/zeroback(1)_v1.xlsx,Rule: Press 'space' when you see the letter 'x' or 'X'.,X,space,,,,,,,,,0,0,0,0,0,6,6,6,,,,,,,,,,,,,,,,,,,,,,,,,,,,,,,,,,,,,,,,,,,,,,,,,,,,,,,,,,,,,,,,,,,,1.8966,374.2351089,None,space,1,374.2351089,None,0.523552,P008,fencog,1,Post,2021_Aug_13_1114,N-Back (New Version 2021),2021.1.4,119.9666492
,,,,Conditions/Version_1/zeroback(1)_v1.xlsx,Rule: Press 'space' when you see the letter 'x' or 'X'.,n,None,,,,,,,,,0,0,0,0,0,7,7,7,,,,,,,,,,,,,,,,,,,,,,,,,,,,,,,,,,,,,,,,,,,,,,,,,,,,,,,,,,,,,,,,,,,,1.9152,378.1524998,None,None,1,378.1524998,None,,P008,fencog,1,Post,2021_Aug_13_1114,N-Back (New Version 2021),2021.1.4,119.9666492
,,,,Conditions/Version_1/zeroback(1)_v1.xlsx,Rule: Press 'space' when you see the letter 'x' or 'X'.,M,None,,,,,,,,,0,0,0,0,0,8,8,8,,,,,,,,,,,,,,,,,,,,,,,,,,,,,,,,,,,,,,,,,,,,,,,,,,,,,,,,,,,,,,,,,,,,1.0968,381.2591889,None,None,1,381.2591889,None,,P008,fencog,1,Post,2021_Aug_13_1114,N-Back (New Version 2021),2021.1.4,119.9666492
,,,,Conditions/Version_1/zeroback(1)_v1.xlsx,Rule: Press 'space' when you see the letter 'x' or 'X'.,a,None,,,,,,,,,0,0,0,0,0,9,9,9,,,,,,,,,,,,,,,,,,,,,,,,,,,,,,,,,,,,,,,,,,,,,,,,,,,,,,,,,,,,,,,,,,,,1.9648,385.2320876,None,None,1,385.2320876,None,,P008,fencog,1,Post,2021_Aug_13_1114,N-Back (New Version 2021),2021.1.4,119.9666492
,,,,Conditions/Version_1/zeroback(1)_v1.xlsx,Rule: Press 'space' when you see the letter 'x' or 'X'.,,,,,,,,,,,0,0,0,0,,,,,,,,,,,,,,,,,,,,,,,,,,,,,,,,,,,,,,,,,,,,,,,,,,,,,,,,,,,,,,,,,,,,,,,,,,,,,,,,P008,fencog,1,Post,2021_Aug_13_1114,N-Back (New Version 2021),2021.1.4,119.9666492
,,,,Conditions/Version_1/oneback(1)_v1.xlsx,New rule: Press 'space' when you see 1-back (i.e. the same letter as the one that appeared 1 letter ago.),b,None,,,,,,,,,0,1,1,1,0,0,0,0,,,,,,,,,,,,,,,,,,,,,,,,,,,,,,,,,,,,,,,,,,,,,,,,,,,,,,,,,,387.2523458,None,390.2411137,None,space,0.6287133,390.2411137,None,387.2523458,None,1.5556,392.446416,None,None,1,392.446416,None,,P008,fencog,1,Post,2021_Aug_13_1114,N-Back (New Version 2021),2021.1.4,119.9666492
,,,,Conditions/Version_1/oneback(1)_v1.xlsx,New rule: Press 'space' when you see 1-back (i.e. the same letter as the one that appeared 1 letter ago.),p,None,,,,,,,,,0,1,1,1,0,1,1,1,,,,,,,,,,,,,,,,,,,,,,,,,,,,,,,,,,,,,,,,,,,,,,,,,,,,,,,,,,,,,,,,,,,,1.754,396.2064426,None,None,1,396.2064426,None,,P008,fencog,1,Post,2021_Aug_13_1114,N-Back (New Version 2021),2021.1.4,119.9666492
,,,,Conditions/Version_1/oneback(1)_v1.xlsx,New rule: Press 'space' when you see 1-back (i.e. the same letter as the one that appeared 1 letter ago.),M,None,,,,,,,,,0,1,1,1,0,2,2,2,,,,,,,,,,,,,,,,,,,,,,,,,,,,,,,,,,,,,,,,,,,,,,,,,,,,,,,,,,,,,,,,,,,,1.9152,400.1284009,None,None,1,400.1284009,None,,P008,fencog,1,Post,2021_Aug_13_1114,N-Back (New Version 2021),2021.1.4,119.9666492
,,,,Conditions/Version_1/oneback(1)_v1.xlsx,New rule: Press 'space' when you see 1-back (i.e. the same letter as the one that appeared 1 letter ago.),M,space,,,,,,,,,0,1,1,1,0,3,3,3,,,,,,,,,,,,,,,,,,,,,,,,,,,,,,,,,,,,,,,,,,,,,,,,,,,,,,,,,,,,,,,,,,,,1.0596,403.2019269,None,space,1,403.2019269,None,0.724255,P008,fencog,1,Post,2021_Aug_13_1114,N-Back (New Version 2021),2021.1.4,119.9666492
,,,,Conditions/Version_1/oneback(1)_v1.xlsx,New rule: Press 'space' when you see 1-back (i.e. the same letter as the one that appeared 1 letter ago.),n,None,,,,,,,,,0,1,1,1,0,4,4,4,,,,,,,,,,,,,,,,,,,,,,,,,,,,,,,,,,,,,,,,,,,,,,,,,,,,,,,,,,,,,,,,,,,,1.8408,407.0459481,None,None,1,407.0459481,None,,P008,fencog,1,Post,2021_Aug_13_1114,N-Back (New Version 2021),2021.1.4,119.9666492
,,,,Conditions/Version_1/oneback(1)_v1.xlsx,New rule: Press 'space' when you see 1-back (i.e. the same letter as the one that appeared 1 letter ago.),g,None,,,,,,,,,0,1,1,1,0,5,5,5,,,,,,,,,,,,,,,,,,,,,,,,,,,,,,,,,,,,,,,,,,,,,,,,,,,,,,,,,,,,,,,,,,,,1.2704,410.3245904,None,None,1,410.3245904,None,,P008,fencog,1,Post,2021_Aug_13_1114,N-Back (New Version 2021),2021.1.4,119.9666492
,,,,Conditions/Version_1/oneback(1)_v1.xlsx,New rule: Press 'space' when you see 1-back (i.e. the same letter as the one that appeared 1 letter ago.),P,None,,,,,,,,,0,1,1,1,0,6,6,6,,,,,,,,,,,,,,,,,,,,,,,,,,,,,,,,,,,,,,,,,,,,,,,,,,,,,,,,,,,,,,,,,,,,1.7044,414.0343799,None,None,1,414.0343799,None,,P008,fencog,1,Post,2021_Aug_13_1114,N-Back (New Version 2021),2021.1.4,119.9666492
,,,,Conditions/Version_1/oneback(1)_v1.xlsx,New rule: Press 'space' when you see 1-back (i.e. the same letter as the one that appeared 1 letter ago.),o,None,,,,,,,,,0,1,1,1,0,7,7,7,,,,,,,,,,,,,,,,,,,,,,,,,,,,,,,,,,,,,,,,,,,,,,,,,,,,,,,,,,,,,,,,,,,,1.4192,417.464593,None,None,1,417.464593,None,,P008,fencog,1,Post,2021_Aug_13_1114,N-Back (New Version 2021),2021.1.4,119.9666492
,,,,Conditions/Version_1/oneback(1)_v1.xlsx,New rule: Press 'space' when you see 1-back (i.e. the same letter as the one that appeared 1 letter ago.),f,None,,,,,,,,,0,1,1,1,0,8,8,8,,,,,,,,,,,,,,,,,,,,,,,,,,,,,,,,,,,,,,,,,,,,,,,,,,,,,,,,,,,,,,,,,,,,1.661,421.1301052,None,None,1,421.1301052,None,,P008,fencog,1,Post,2021_Aug_13_1114,N-Back (New Version 2021),2021.1.4,119.9666492
,,,,Conditions/Version_1/oneback(1)_v1.xlsx,New rule: Press 'space' when you see 1-back (i.e. the same letter as the one that appeared 1 letter ago.),F,space,,,,,,,,,0,1,1,1,0,9,9,9,,,,,,,,,,,,,,,,,,,,,,,,,,,,,,,,,,,,,,,,,,,,,,,,,,,,,,,,,,,,,,,,,,,,1.8036,424.9383659,None,space,1,424.9383659,None,0.6602399,P008,fencog,1,Post,2021_Aug_13_1114,N-Back (New Version 2021),2021.1.4,119.9666492
,,,,Conditions/Version_1/oneback(1)_v1.xlsx,New rule: Press 'space' when you see 1-back (i.e. the same letter as the one that appeared 1 letter ago.),,,,,,,,,,,0,1,1,1,,,,,,,,,,,,,,,,,,,,,,,,,,,,,,,,,,,,,,,,,,,,,,,,,,,,,,,,,,,,,,,,,,,,,,,,,,,,,,,,P008,fencog,1,Post,2021_Aug_13_1114,N-Back (New Version 2021),2021.1.4,119.9666492
,,,,Conditions/Version_1/twoback(1)_v1.xlsx,New rule: Press 'space' when you see 2-back (i.e. the same letter as the one that appeared 2 letters ago.),b,None,,,,,,,,,0,2,2,2,0,0,0,0,,,,,,,,,,,,,,,,,,,,,,,,,,,,,,,,,,,,,,,,,,,,,,,,,,,,,,,,,,426.9827269,None,429.9632884,None,space,0.8749104,429.9632884,None,426.9827269,None,1.1092,431.9799072,None,None,1,431.9799072,None,,P008,fencog,1,Post,2021_Aug_13_1114,N-Back (New Version 2021),2021.1.4,119.9666492
,,,,Conditions/Version_1/twoback(1)_v1.xlsx,New rule: Press 'space' when you see 2-back (i.e. the same letter as the one that appeared 2 letters ago.),h,None,,,,,,,,,0,2,2,2,0,1,1,1,,,,,,,,,,,,,,,,,,,,,,,,,,,,,,,,,,,,,,,,,,,,,,,,,,,,,,,,,,,,,,,,,,,,1.2146,435.2044403,None,None,1,435.2044403,None,,P008,fencog,1,Post,2021_Aug_13_1114,N-Back (New Version 2021),2021.1.4,119.9666492
,,,,Conditions/Version_1/twoback(1)_v1.xlsx,New rule: Press 'space' when you see 2-back (i.e. the same letter as the one that appeared 2 letters ago.),j,None,,,,,,,,,0,2,2,2,0,2,2,2,,,,,,,,,,,,,,,,,,,,,,,,,,,,,,,,,,,,,,,,,,,,,,,,,,,,,,,,,,,,,,,,,,,,1.847,439.0606365,None,None,1,439.0606365,None,,P008,fencog,1,Post,2021_Aug_13_1114,N-Back (New Version 2021),2021.1.4,119.9666492
,,,,Conditions/Version_1/twoback(1)_v1.xlsx,New rule: Press 'space' when you see 2-back (i.e. the same letter as the one that appeared 2 letters ago.),H,space,,,,,,,,,0,2,2,2,0,3,3,3,,,,,,,,,,,,,,,,,,,,,,,,,,,,,,,,,,,,,,,,,,,,,,,,,,,,,,,,,,,,,,,,,,,,1.4564,442.5289453,None,None,0,442.5289453,None,,P008,fencog,1,Post,2021_Aug_13_1114,N-Back (New Version 2021),2021.1.4,119.9666492
,,,,Conditions/Version_1/twoback(1)_v1.xlsx,New rule: Press 'space' when you see 2-back (i.e. the same letter as the one that appeared 2 letters ago.),p,None,,,,,,,,,0,2,2,2,0,4,4,4,,,,,,,,,,,,,,,,,,,,,,,,,,,,,,,,,,,,,,,,,,,,,,,,,,,,,,,,,,,,,,,,,,,,1.6362,446.1722095,None,None,1,446.1722095,None,,P008,fencog,1,Post,2021_Aug_13_1114,N-Back (New Version 2021),2021.1.4,119.9666492
,,,,Conditions/Version_1/twoback(1)_v1.xlsx,New rule: Press 'space' when you see 2-back (i.e. the same letter as the one that appeared 2 letters ago.),p,None,,,,,,,,,0,2,2,2,0,5,5,5,,,,,,,,,,,,,,,,,,,,,,,,,,,,,,,,,,,,,,,,,,,,,,,,,,,,,,,,,,,,,,,,,,,,1.382,449.5563327,None,None,1,449.5563327,None,,P008,fencog,1,Post,2021_Aug_13_1114,N-Back (New Version 2021),2021.1.4,119.9666492
,,,,Conditions/Version_1/twoback(1)_v1.xlsx,New rule: Press 'space' when you see 2-back (i.e. the same letter as the one that appeared 2 letters ago.),w,None,,,,,,,,,0,2,2,2,0,6,6,6,,,,,,,,,,,,,,,,,,,,,,,,,,,,,,,,,,,,,,,,,,,,,,,,,,,,,,,,,,,,,,,,,,,,1.0534,452.6203389,None,None,1,452.6203389,None,,P008,fencog,1,Post,2021_Aug_13_1114,N-Back (New Version 2021),2021.1.4,119.9666492
,,,,Conditions/Version_1/twoback(1)_v1.xlsx,New rule: Press 'space' when you see 2-back (i.e. the same letter as the one that appeared 2 letters ago.),R,None,,,,,,,,,0,2,2,2,0,7,7,7,,,,,,,,,,,,,,,,,,,,,,,,,,,,,,,,,,,,,,,,,,,,,,,,,,,,,,,,,,,,,,,,,,,,1.1588,455.7823168,None,None,1,455.7823168,None,,P008,fencog,1,Post,2021_Aug_13_1114,N-Back (New Version 2021),2021.1.4,119.9666492
,,,,Conditions/Version_1/twoback(1)_v1.xlsx,New rule: Press 'space' when you see 2-back (i.e. the same letter as the one that appeared 2 letters ago.),a,None,,,,,,,,,0,2,2,2,0,8,8,8,,,,,,,,,,,,,,,,,,,,,,,,,,,,,,,,,,,,,,,,,,,,,,,,,,,,,,,,,,,,,,,,,,,,1.2828,459.0703098,None,None,1,459.0703098,None,,P008,fencog,1,Post,2021_Aug_13_1114,N-Back (New Version 2021),2021.1.4,119.9666492
,,,,Conditions/Version_1/twoback(1)_v1.xlsx,New rule: Press 'space' when you see 2-back (i.e. the same letter as the one that appeared 2 letters ago.),r,space,,,,,,,,,0,2,2,2,0,9,9,9,,,,,,,,,,,,,,,,,,,,,,,,,,,,,,,,,,,,,,,,,,,,,,,,,,,,,,,,,,,,,,,,,,,,1.6486,462.725633,None,space,1,462.725633,None,1.1448734,P008,fencog,1,Post,2021_Aug_13_1114,N-Back (New Version 2021),2021.1.4,119.9666492
,,,,Conditions/Version_1/twoback(1)_v1.xlsx,New rule: Press 'space' when you see 2-back (i.e. the same letter as the one that appeared 2 letters ago.),,,,,,,,,,,0,2,2,2,,,,,,,,,,,,,,,,,,,,,,,,,,,,,,,,,,,,,,,,,,,,,,,,,,,,,,,,,,,,,,,,,,,,,,,,,,,,,,,,P008,fencog,1,Post,2021_Aug_13_1114,N-Back (New Version 2021),2021.1.4,119.9666492
,,,,Conditions/Version_1/threeback(1)_v1.xlsx,New rule: Press 'space' when you see 3-back (i.e. the same letter as the one that appeared 3 letters ago.),r,None,,,,,,,,,0,3,3,3,0,0,0,0,,,,,,,,,,,,,,,,,,,,,,,,,,,,,,,,,,,,,,,,,,,,,,,,,,,,,,,,,,464.7470619,None,467.7389506,None,space,2.2749466,467.7389506,None,464.7470619,None,1.1154,471.148355,None,None,1,471.148355,None,,P008,fencog,1,Post,2021_Aug_13_1114,N-Back (New Version 2021),2021.1.4,119.9666492
,,,,Conditions/Version_1/threeback(1)_v1.xlsx,New rule: Press 'space' when you see 3-back (i.e. the same letter as the one that appeared 3 letters ago.),o,None,,,,,,,,,0,3,3,3,0,1,1,1,,,,,,,,,,,,,,,,,,,,,,,,,,,,,,,,,,,,,,,,,,,,,,,,,,,,,,,,,,,,,,,,,,,,1.909,475.0645061,None,None,1,475.0645061,None,,P008,fencog,1,Post,2021_Aug_13_1114,N-Back (New Version 2021),2021.1.4,119.9666492
,,,,Conditions/Version_1/threeback(1)_v1.xlsx,New rule: Press 'space' when you see 3-back (i.e. the same letter as the one that appeared 3 letters ago.),P,None,,,,,,,,,0,3,3,3,0,2,2,2,,,,,,,,,,,,,,,,,,,,,,,,,,,,,,,,,,,,,,,,,,,,,,,,,,,,,,,,,,,,,,,,,,,,1.9214,479.0016004,None,None,1,479.0016004,None,,P008,fencog,1,Post,2021_Aug_13_1114,N-Back (New Version 2021),2021.1.4,119.9666492
,,,,Conditions/Version_1/threeback(1)_v1.xlsx,New rule: Press 'space' when you see 3-back (i.e. the same letter as the one that appeared 3 letters ago.),R,space,,,,,,,,,0,3,3,3,0,3,3,3,,,,,,,,,,,,,,,,,,,,,,,,,,,,,,,,,,,,,,,,,,,,,,,,,,,,,,,,,,,,,,,,,,,,1.5804,482.5865341,None,space,1,482.5865341,None,0.523102,P008,fencog,1,Post,2021_Aug_13_1114,N-Back (New Version 2021),2021.1.4,119.9666492
,,,,Conditions/Version_1/threeback(1)_v1.xlsx,New rule: Press 'space' when you see 3-back (i.e. the same letter as the one that appeared 3 letters ago.),p,None,,,,,,,,,0,3,3,3,0,4,4,4,,,,,,,,,,,,,,,,,,,,,,,,,,,,,,,,,,,,,,,,,,,,,,,,,,,,,,,,,,,,,,,,,,,,1.3262,485.9188844,None,None,1,485.9188844,None,,P008,fencog,1,Post,2021_Aug_13_1114,N-Back (New Version 2021),2021.1.4,119.9666492
,,,,Conditions/Version_1/threeback(1)_v1.xlsx,New rule: Press 'space' when you see 3-back (i.e. the same letter as the one that appeared 3 letters ago.),E,None,,,,,,,,,0,3,3,3,0,5,5,5,,,,,,,,,,,,,,,,,,,,,,,,,,,,,,,,,,,,,,,,,,,,,,,,,,,,,,,,,,,,,,,,,,,,1.7478,489.6679034,None,None,1,489.6679034,None,,P008,fencog,1,Post,2021_Aug_13_1114,N-Back (New Version 2021),2021.1.4,119.9666492
,,,,Conditions/Version_1/threeback(1)_v1.xlsx,New rule: Press 'space' when you see 3-back (i.e. the same letter as the one that appeared 3 letters ago.),e,None,,,,,,,,,0,3,3,3,0,6,6,6,,,,,,,,,,,,,,,,,,,,,,,,,,,,,,,,,,,,,,,,,,,,,,,,,,,,,,,,,,,,,,,,,,,,1.3944,493.0667217,None,None,1,493.0667217,None,,P008,fencog,1,Post,2021_Aug_13_1114,N-Back (New Version 2021),2021.1.4,119.9666492
,,,,Conditions/Version_1/threeback(1)_v1.xlsx,New rule: Press 'space' when you see 3-back (i.e. the same letter as the one that appeared 3 letters ago.),m,None,,,,,,,,,0,3,3,3,0,7,7,7,,,,,,,,,,,,,,,,,,,,,,,,,,,,,,,,,,,,,,,,,,,,,,,,,,,,,,,,,,,,,,,,,,,,1.692,496.7605819,None,None,1,496.7605819,None,,P008,fencog,1,Post,2021_Aug_13_1114,N-Back (New Version 2021),2021.1.4,119.9666492
,,,,Conditions/Version_1/threeback(1)_v1.xlsx,New rule: Press 'space' when you see 3-back (i.e. the same letter as the one that appeared 3 letters ago.),n,None,,,,,,,,,0,3,3,3,0,8,8,8,,,,,,,,,,,,,,,,,,,,,,,,,,,,,,,,,,,,,,,,,,,,,,,,,,,,,,,,,,,,,,,,,,,,1.134,499.9063971,None,None,1,499.9063971,None,,P008,fencog,1,Post,2021_Aug_13_1114,N-Back (New Version 2021),2021.1.4,119.9666492
,,,,Conditions/Version_1/threeback(1)_v1.xlsx,New rule: Press 'space' when you see 3-back (i.e. the same letter as the one that appeared 3 letters ago.),e,space,,,,,,,,,0,3,3,3,0,9,9,9,,,,,,,,,,,,,,,,,,,,,,,,,,,,,,,,,,,,,,,,,,,,,,,,,,,,,,,,,,,,,,,,,,,,1.5494,503.4565273,None,space,1,503.4565273,None,0.9095895,P008,fencog,1,Post,2021_Aug_13_1114,N-Back (New Version 2021),2021.1.4,119.9666492
,,,,Conditions/Version_1/threeback(1)_v1.xlsx,New rule: Press 'space' when you see 3-back (i.e. the same letter as the one that appeared 3 letters ago.),,,,,,,,,,,0,3,3,3,,,,,,,,,,,,,,,,,,,,,,,,,,,,,,,,,,,,,,,,,,,,,,,,,,,,,,,,,,,,,,,,,,,,,,,,,,,,,,,,P008,fencog,1,Post,2021_Aug_13_1114,N-Back (New Version 2021),2021.1.4,119.9666492
,,,,Conditions/Version_1/oneback(2)_v1.xlsx,New rule: Press 'space' when you see 1-back (i.e. the same letter as the one that appeared 1 letter ago.),q,None,,,,,,,,,0,4,4,4,0,0,0,0,,,,,,,,,,,,,,,,,,,,,,,,,,,,,,,,,,,,,,,,,,,,,,,,,,,,,,,,,,505.4841171,None,508.4726776,None,space,0.5414104,508.4726776,None,505.4841171,None,1.568,510.6114362,None,None,1,510.6114362,None,,P008,fencog,1,Post,2021_Aug_13_1114,N-Back (New Version 2021),2021.1.4,119.9666492
,,,,Conditions/Version_1/oneback(2)_v1.xlsx,New rule: Press 'space' when you see 1-back (i.e. the same letter as the one that appeared 1 letter ago.),Q,space,,,,,,,,,0,4,4,4,0,1,1,1,,,,,,,,,,,,,,,,,,,,,,,,,,,,,,,,,,,,,,,,,,,,,,,,,,,,,,,,,,,,,,,,,,,,1.0968,513.7110577,None,space,1,513.7110577,None,0.5429335,P008,fencog,1,Post,2021_Aug_13_1114,N-Back (New Version 2021),2021.1.4,119.9666492
,,,,Conditions/Version_1/oneback(2)_v1.xlsx,New rule: Press 'space' when you see 1-back (i.e. the same letter as the one that appeared 1 letter ago.),P,None,,,,,,,,,0,4,4,4,0,2,2,2,,,,,,,,,,,,,,,,,,,,,,,,,,,,,,,,,,,,,,,,,,,,,,,,,,,,,,,,,,,,,,,,,,,,1.1712,516.8929985,None,None,1,516.8929985,None,,P008,fencog,1,Post,2021_Aug_13_1114,N-Back (New Version 2021),2021.1.4,119.9666492
,,,,Conditions/Version_1/oneback(2)_v1.xlsx,New rule: Press 'space' when you see 1-back (i.e. the same letter as the one that appeared 1 letter ago.),o,None,,,,,,,,,0,4,4,4,0,3,3,3,,,,,,,,,,,,,,,,,,,,,,,,,,,,,,,,,,,,,,,,,,,,,,,,,,,,,,,,,,,,,,,,,,,,1.3696,520.2670021,None,None,1,520.2670021,None,,P008,fencog,1,Post,2021_Aug_13_1114,N-Back (New Version 2021),2021.1.4,119.9666492
,,,,Conditions/Version_1/oneback(2)_v1.xlsx,New rule: Press 'space' when you see 1-back (i.e. the same letter as the one that appeared 1 letter ago.),m,None,,,,,,,,,0,4,4,4,0,4,4,4,,,,,,,,,,,,,,,,,,,,,,,,,,,,,,,,,,,,,,,,,,,,,,,,,,,,,,,,,,,,,,,,,,,,1.289,523.5734947,None,None,1,523.5734947,None,,P008,fencog,1,Post,2021_Aug_13_1114,N-Back (New Version 2021),2021.1.4,119.9666492
,,,,Conditions/Version_1/oneback(2)_v1.xlsx,New rule: Press 'space' when you see 1-back (i.e. the same letter as the one that appeared 1 letter ago.),Z,None,,,,,,,,,0,4,4,4,0,5,5,5,,,,,,,,,,,,,,,,,,,,,,,,,,,,,,,,,,,,,,,,,,,,,,,,,,,,,,,,,,,,,,,,,,,,1.2208,526.7982094,None,None,1,526.7982094,None,,P008,fencog,1,Post,2021_Aug_13_1114,N-Back (New Version 2021),2021.1.4,119.9666492
,,,,Conditions/Version_1/oneback(2)_v1.xlsx,New rule: Press 'space' when you see 1-back (i.e. the same letter as the one that appeared 1 letter ago.),c,None,,,,,,,,,0,4,4,4,0,6,6,6,,,,,,,,,,,,,,,,,,,,,,,,,,,,,,,,,,,,,,,,,,,,,,,,,,,,,,,,,,,,,,,,,,,,1.3634,530.1639216,None,None,1,530.1639216,None,,P008,fencog,1,Post,2021_Aug_13_1114,N-Back (New Version 2021),2021.1.4,119.9666492
,,,,Conditions/Version_1/oneback(2)_v1.xlsx,New rule: Press 'space' when you see 1-back (i.e. the same letter as the one that appeared 1 letter ago.),c,space,,,,,,,,,0,4,4,4,0,7,7,7,,,,,,,,,,,,,,,,,,,,,,,,,,,,,,,,,,,,,,,,,,,,,,,,,,,,,,,,,,,,,,,,,,,,1.3572,533.5358246,None,space,1,533.5358246,None,0.5014757,P008,fencog,1,Post,2021_Aug_13_1114,N-Back (New Version 2021),2021.1.4,119.9666492
,,,,Conditions/Version_1/oneback(2)_v1.xlsx,New rule: Press 'space' when you see 1-back (i.e. the same letter as the one that appeared 1 letter ago.),P,None,,,,,,,,,0,4,4,4,0,8,8,8,,,,,,,,,,,,,,,,,,,,,,,,,,,,,,,,,,,,,,,,,,,,,,,,,,,,,,,,,,,,,,,,,,,,1.2828,536.8119208,None,None,1,536.8119208,None,,P008,fencog,1,Post,2021_Aug_13_1114,N-Back (New Version 2021),2021.1.4,119.9666492
,,,,Conditions/Version_1/oneback(2)_v1.xlsx,New rule: Press 'space' when you see 1-back (i.e. the same letter as the one that appeared 1 letter ago.),p,space,,,,,,,,,0,4,4,4,0,9,9,9,,,,,,,,,,,,,,,,,,,,,,,,,,,,,,,,,,,,,,,,,,,,,,,,,,,,,,,,,,,,,,,,,,,,1.5308,540.3441637,None,space,1,540.3441637,None,0.605084,P008,fencog,1,Post,2021_Aug_13_1114,N-Back (New Version 2021),2021.1.4,119.9666492
,,,,Conditions/Version_1/oneback(2)_v1.xlsx,New rule: Press 'space' when you see 1-back (i.e. the same letter as the one that appeared 1 letter ago.),,,,,,,,,,,0,4,4,4,,,,,,,,,,,,,,,,,,,,,,,,,,,,,,,,,,,,,,,,,,,,,,,,,,,,,,,,,,,,,,,,,,,,,,,,,,,,,,,,P008,fencog,1,Post,2021_Aug_13_1114,N-Back (New Version 2021),2021.1.4,119.9666492
,,,,Conditions/Version_1/zeroback(2)_v1.xlsx,New rule: Press 'space' when you see the letter 'x' or 'X'.,p,None,,,,,,,,,0,5,5,5,0,0,0,0,,,,,,,,,,,,,,,,,,,,,,,,,,,,,,,,,,,,,,,,,,,,,,,,,,,,,,,,,,542.3591006,None,545.3437079,None,space,0.4695249,545.3437079,None,542.3591006,None,1.816,547.6503322,None,None,1,547.6503322,None,,P008,fencog,1,Post,2021_Aug_13_1114,N-Back (New Version 2021),2021.1.4,119.9666492
,,,,Conditions/Version_1/zeroback(2)_v1.xlsx,New rule: Press 'space' when you see the letter 'x' or 'X'.,L,None,,,,,,,,,0,5,5,5,0,1,1,1,,,,,,,,,,,,,,,,,,,,,,,,,,,,,,,,,,,,,,,,,,,,,,,,,,,,,,,,,,,,,,,,,,,,1.9896,551.6407901,None,None,1,551.6407901,None,,P008,fencog,1,Post,2021_Aug_13_1114,N-Back (New Version 2021),2021.1.4,119.9666492
,,,,Conditions/Version_1/zeroback(2)_v1.xlsx,New rule: Press 'space' when you see the letter 'x' or 'X'.,G,None,,,,,,,,,0,5,5,5,0,2,2,2,,,,,,,,,,,,,,,,,,,,,,,,,,,,,,,,,,,,,,,,,,,,,,,,,,,,,,,,,,,,,,,,,,,,1.7292,555.373016,None,None,1,555.373016,None,,P008,fencog,1,Post,2021_Aug_13_1114,N-Back (New Version 2021),2021.1.4,119.9666492
,,,,Conditions/Version_1/zeroback(2)_v1.xlsx,New rule: Press 'space' when you see the letter 'x' or 'X'.,y,None,,,,,,,,,0,5,5,5,0,3,3,3,,,,,,,,,,,,,,,,,,,,,,,,,,,,,,,,,,,,,,,,,,,,,,,,,,,,,,,,,,,,,,,,,,,,1.1216,558.4971427,None,None,1,558.4971427,None,,P008,fencog,1,Post,2021_Aug_13_1114,N-Back (New Version 2021),2021.1.4,119.9666492
,,,,Conditions/Version_1/zeroback(2)_v1.xlsx,New rule: Press 'space' when you see the letter 'x' or 'X'.,Y,None,,,,,,,,,0,5,5,5,0,4,4,4,,,,,,,,,,,,,,,,,,,,,,,,,,,,,,,,,,,,,,,,,,,,,,,,,,,,,,,,,,,,,,,,,,,,1.5494,562.0462009,None,None,1,562.0462009,None,,P008,fencog,1,Post,2021_Aug_13_1114,N-Back (New Version 2021),2021.1.4,119.9666492
,,,,Conditions/Version_1/zeroback(2)_v1.xlsx,New rule: Press 'space' when you see the letter 'x' or 'X'.,W,None,,,,,,,,,0,5,5,5,0,5,5,5,,,,,,,,,,,,,,,,,,,,,,,,,,,,,,,,,,,,,,,,,,,,,,,,,,,,,,,,,,,,,,,,,,,,1.2394,565.2876598,None,None,1,565.2876598,None,,P008,fencog,1,Post,2021_Aug_13_1114,N-Back (New Version 2021),2021.1.4,119.9666492
,,,,Conditions/Version_1/zeroback(2)_v1.xlsx,New rule: Press 'space' when you see the letter 'x' or 'X'.,x,space,,,,,,,,,0,5,5,5,0,6,6,6,,,,,,,,,,,,,,,,,,,,,,,,,,,,,,,,,,,,,,,,,,,,,,,,,,,,,,,,,,,,,,,,,,,,1.8718,569.1690852,None,space,1,569.1690852,None,0.5001597,P008,fencog,1,Post,2021_Aug_13_1114,N-Back (New Version 2021),2021.1.4,119.9666492
,,,,Conditions/Version_1/zeroback(2)_v1.xlsx,New rule: Press 'space' when you see the letter 'x' or 'X'.,X,space,,,,,,,,,0,5,5,5,0,7,7,7,,,,,,,,,,,,,,,,,,,,,,,,,,,,,,,,,,,,,,,,,,,,,,,,,,,,,,,,,,,,,,,,,,,,1.041,572.2099217,None,space,1,572.2099217,None,0.5953039,P008,fencog,1,Post,2021_Aug_13_1114,N-Back (New Version 2021),2021.1.4,119.9666492
,,,,Conditions/Version_1/zeroback(2)_v1.xlsx,New rule: Press 'space' when you see the letter 'x' or 'X'.,p,None,,,,,,,,,0,5,5,5,0,8,8,8,,,,,,,,,,,,,,,,,,,,,,,,,,,,,,,,,,,,,,,,,,,,,,,,,,,,,,,,,,,,,,,,,,,,1.1154,575.3254763,None,None,1,575.3254763,None,,P008,fencog,1,Post,2021_Aug_13_1114,N-Back (New Version 2021),2021.1.4,119.9666492
,,,,Conditions/Version_1/zeroback(2)_v1.xlsx,New rule: Press 'space' when you see the letter 'x' or 'X'.,h,None,,,,,,,,,0,5,5,5,0,9,9,9,,,,,,,,,,,,,,,,,,,,,,,,,,,,,,,,,,,,,,,,,,,,,,,,,,,,,,,,,,,,,,,,,,,,1.9834,579.3113925,None,None,1,579.3113925,None,,P008,fencog,1,Post,2021_Aug_13_1114,N-Back (New Version 2021),2021.1.4,119.9666492
,,,,Conditions/Version_1/zeroback(2)_v1.xlsx,New rule: Press 'space' when you see the letter 'x' or 'X'.,,,,,,,,,,,0,5,5,5,,,,,,,,,,,,,,,,,,,,,,,,,,,,,,,,,,,,,,,,,,,,,,,,,,,,,,,,,,,,,,,,,,,,,,,,,,,,,,,,P008,fencog,1,Post,2021_Aug_13_1114,N-Back (New Version 2021),2021.1.4,119.9666492
,,,,Conditions/Version_1/threeback(2)_v1.xlsx,New rule: Press 'space' when you see 3-back (i.e. the same letter as the one that appeared 3 letters ago.),q,None,,,,,,,,,0,6,6,6,0,0,0,0,,,,,,,,,,,,,,,,,,,,,,,,,,,,,,,,,,,,,,,,,,,,,,,,,,,,,,,,,,581.3384372,None,584.3260691,None,space,51.6557296,584.3260691,None,581.3384372,None,1.8036,637.8072401,None,None,1,637.8072401,None,,P008,fencog,1,Post,2021_Aug_13_1114,N-Back (New Version 2021),2021.1.4,119.9666492
,,,,Conditions/Version_1/threeback(2)_v1.xlsx,New rule: Press 'space' when you see 3-back (i.e. the same letter as the one that appeared 3 letters ago.),Y,None,,,,,,,,,0,6,6,6,0,1,1,1,,,,,,,,,,,,,,,,,,,,,,,,,,,,,,,,,,,,,,,,,,,,,,,,,,,,,,,,,,,,,,,,,,,,1.1278,640.955963,None,None,1,640.955963,None,,P008,fencog,1,Post,2021_Aug_13_1114,N-Back (New Version 2021),2021.1.4,119.9666492
,,,,Conditions/Version_1/threeback(2)_v1.xlsx,New rule: Press 'space' when you see 3-back (i.e. the same letter as the one that appeared 3 letters ago.),p,None,,,,,,,,,0,6,6,6,0,2,2,2,,,,,,,,,,,,,,,,,,,,,,,,,,,,,,,,,,,,,,,,,,,,,,,,,,,,,,,,,,,,,,,,,,,,1.0596,644.0221407,None,None,1,644.0221407,None,,P008,fencog,1,Post,2021_Aug_13_1114,N-Back (New Version 2021),2021.1.4,119.9666492
,,,,Conditions/Version_1/threeback(2)_v1.xlsx,New rule: Press 'space' when you see 3-back (i.e. the same letter as the one that appeared 3 letters ago.),p,None,,,,,,,,,0,6,6,6,0,3,3,3,,,,,,,,,,,,,,,,,,,,,,,,,,,,,,,,,,,,,,,,,,,,,,,,,,,,,,,,,,,,,,,,,,,,1.6052,647.6379994,None,None,1,647.6379994,None,,P008,fencog,1,Post,2021_Aug_13_1114,N-Back (New Version 2021),2021.1.4,119.9666492
,,,,Conditions/Version_1/threeback(2)_v1.xlsx,New rule: Press 'space' when you see 3-back (i.e. the same letter as the one that appeared 3 letters ago.),y,space,,,,,,,,,0,6,6,6,0,4,4,4,,,,,,,,,,,,,,,,,,,,,,,,,,,,,,,,,,,,,,,,,,,,,,,,,,,,,,,,,,,,,,,,,,,,1.4626,651.1048568,None,space,1,651.1048568,None,0.5659548,P008,fencog,1,Post,2021_Aug_13_1114,N-Back (New Version 2021),2021.1.4,119.9666492
,,,,Conditions/Version_1/threeback(2)_v1.xlsx,New rule: Press 'space' when you see 3-back (i.e. the same letter as the one that appeared 3 letters ago.),u,None,,,,,,,,,0,6,6,6,0,5,5,5,,,,,,,,,,,,,,,,,,,,,,,,,,,,,,,,,,,,,,,,,,,,,,,,,,,,,,,,,,,,,,,,,,,,1.2642,654.3773718,None,None,1,654.3773718,None,,P008,fencog,1,Post,2021_Aug_13_1114,N-Back (New Version 2021),2021.1.4,119.9666492
,,,,Conditions/Version_1/threeback(2)_v1.xlsx,New rule: Press 'space' when you see 3-back (i.e. the same letter as the one that appeared 3 letters ago.),P,space,,,,,,,,,0,6,6,6,0,6,6,6,,,,,,,,,,,,,,,,,,,,,,,,,,,,,,,,,,,,,,,,,,,,,,,,,,,,,,,,,,,,,,,,,,,,1.0658,657.4434617,None,space,1,657.4434617,None,1.2026,P008,fencog,1,Post,2021_Aug_13_1114,N-Back (New Version 2021),2021.1.4,119.9666492
,,,,Conditions/Version_1/threeback(2)_v1.xlsx,New rule: Press 'space' when you see 3-back (i.e. the same letter as the one that appeared 3 letters ago.),a,None,,,,,,,,,0,6,6,6,0,7,7,7,,,,,,,,,,,,,,,,,,,,,,,,,,,,,,,,,,,,,,,,,,,,,,,,,,,,,,,,,,,,,,,,,,,,1.2208,660.6673179,None,None,1,660.6673179,None,,P008,fencog,1,Post,2021_Aug_13_1114,N-Back (New Version 2021),2021.1.4,119.9666492
,,,,Conditions/Version_1/threeback(2)_v1.xlsx,New rule: Press 'space' when you see 3-back (i.e. the same letter as the one that appeared 3 letters ago.),U,space,,,,,,,,,0,6,6,6,0,8,8,8,,,,,,,,,,,,,,,,,,,,,,,,,,,,,,,,,,,,,,,,,,,,,,,,,,,,,,,,,,,,,,,,,,,,1.1588,663.8263369,None,None,0,663.8263369,None,,P008,fencog,1,Post,2021_Aug_13_1114,N-Back (New Version 2021),2021.1.4,119.9666492
,,,,Conditions/Version_1/threeback(2)_v1.xlsx,New rule: Press 'space' when you see 3-back (i.e. the same letter as the one that appeared 3 letters ago.),q,None,,,,,,,,,0,6,6,6,0,9,9,9,,,,,,,,,,,,,,,,,,,,,,,,,,,,,,,,,,,,,,,,,,,,,,,,,,,,,,,,,,,,,,,,,,,,1.2704,667.1080652,None,None,1,667.1080652,None,,P008,fencog,1,Post,2021_Aug_13_1114,N-Back (New Version 2021),2021.1.4,119.9666492
,,,,Conditions/Version_1/threeback(2)_v1.xlsx,New rule: Press 'space' when you see 3-back (i.e. the same letter as the one that appeared 3 letters ago.),,,,,,,,,,,0,6,6,6,,,,,,,,,,,,,,,,,,,,,,,,,,,,,,,,,,,,,,,,,,,,,,,,,,,,,,,,,,,,,,,,,,,,,,,,,,,,,,,,P008,fencog,1,Post,2021_Aug_13_1114,N-Back (New Version 2021),2021.1.4,119.9666492
,,,,Conditions/Version_1/twoback(2)_v1.xlsx,New rule: Press 'space' when you see 2-back (i.e. the same letter as the one that appeared 2 letters ago.),q,None,,,,,,,,,0,7,7,7,0,0,0,0,,,,,,,,,,,,,,,,,,,,,,,,,,,,,,,,,,,,,,,,,,,,,,,,,,,,,,,,,,669.1367534,None,672.1254825,None,space,0.0646661,672.1254825,None,669.1367534,None,1.1526,673.3637046,None,None,1,673.3637046,None,,P008,fencog,1,Post,2021_Aug_13_1114,N-Back (New Version 2021),2021.1.4,119.9666492
,,,,Conditions/Version_1/twoback(2)_v1.xlsx,New rule: Press 'space' when you see 2-back (i.e. the same letter as the one that appeared 2 letters ago.),r,None,,,,,,,,,0,7,7,7,0,1,1,1,,,,,,,,,,,,,,,,,,,,,,,,,,,,,,,,,,,,,,,,,,,,,,,,,,,,,,,,,,,,,,,,,,,,1.7168,677.0873417,None,None,1,677.0873417,None,,P008,fencog,1,Post,2021_Aug_13_1114,N-Back (New Version 2021),2021.1.4,119.9666492
,,,,Conditions/Version_1/twoback(2)_v1.xlsx,New rule: Press 'space' when you see 2-back (i.e. the same letter as the one that appeared 2 letters ago.),q,space,,,,,,,,,0,7,7,7,0,2,2,2,,,,,,,,,,,,,,,,,,,,,,,,,,,,,,,,,,,,,,,,,,,,,,,,,,,,,,,,,,,,,,,,,,,,1.5866,680.6781972,None,space,1,680.6781972,None,0.6401189,P008,fencog,1,Post,2021_Aug_13_1114,N-Back (New Version 2021),2021.1.4,119.9666492
,,,,Conditions/Version_1/twoback(2)_v1.xlsx,New rule: Press 'space' when you see 2-back (i.e. the same letter as the one that appeared 2 letters ago.),P,None,,,,,,,,,0,7,7,7,0,3,3,3,,,,,,,,,,,,,,,,,,,,,,,,,,,,,,,,,,,,,,,,,,,,,,,,,,,,,,,,,,,,,,,,,,,,1.32,684.0102771,None,None,1,684.0102771,None,,P008,fencog,1,Post,2021_Aug_13_1114,N-Back (New Version 2021),2021.1.4,119.9666492
,,,,Conditions/Version_1/twoback(2)_v1.xlsx,New rule: Press 'space' when you see 2-back (i.e. the same letter as the one that appeared 2 letters ago.),p,None,,,,,,,,,0,7,7,7,0,4,4,4,,,,,,,,,,,,,,,,,,,,,,,,,,,,,,,,,,,,,,,,,,,,,,,,,,,,,,,,,,,,,,,,,,,,1.4378,687.4509517,None,None,1,687.4509517,None,,P008,fencog,1,Post,2021_Aug_13_1114,N-Back (New Version 2021),2021.1.4,119.9666492
,,,,Conditions/Version_1/twoback(2)_v1.xlsx,New rule: Press 'space' when you see 2-back (i.e. the same letter as the one that appeared 2 letters ago.),H,None,,,,,,,,,0,7,7,7,0,5,5,5,,,,,,,,,,,,,,,,,,,,,,,,,,,,,,,,,,,,,,,,,,,,,,,,,,,,,,,,,,,,,,,,,,,,1.6858,691.1453832,None,None,1,691.1453832,None,,P008,fencog,1,Post,2021_Aug_13_1114,N-Back (New Version 2021),2021.1.4,119.9666492
,,,,Conditions/Version_1/twoback(2)_v1.xlsx,New rule: Press 'space' when you see 2-back (i.e. the same letter as the one that appeared 2 letters ago.),g,None,,,,,,,,,0,7,7,7,0,6,6,6,,,,,,,,,,,,,,,,,,,,,,,,,,,,,,,,,,,,,,,,,,,,,,,,,,,,,,,,,,,,,,,,,,,,1.8098,694.9632152,None,None,1,694.9632152,None,,P008,fencog,1,Post,2021_Aug_13_1114,N-Back (New Version 2021),2021.1.4,119.9666492
,,,,Conditions/Version_1/twoback(2)_v1.xlsx,New rule: Press 'space' when you see 2-back (i.e. the same letter as the one that appeared 2 letters ago.),j,None,,,,,,,,,0,7,7,7,0,7,7,7,,,,,,,,,,,,,,,,,,,,,,,,,,,,,,,,,,,,,,,,,,,,,,,,,,,,,,,,,,,,,,,,,,,,1.9772,698.947863,None,None,1,698.947863,None,,P008,fencog,1,Post,2021_Aug_13_1114,N-Back (New Version 2021),2021.1.4,119.9666492
,,,,Conditions/Version_1/twoback(2)_v1.xlsx,New rule: Press 'space' when you see 2-back (i.e. the same letter as the one that appeared 2 letters ago.),g,space,,,,,,,,,0,7,7,7,0,8,8,8,,,,,,,,,,,,,,,,,,,,,,,,,,,,,,,,,,,,,,,,,,,,,,,,,,,,,,,,,,,,,,,,,,,,1.6548,702.605051,None,space,1,702.605051,None,0.8568326,P008,fencog,1,Post,2021_Aug_13_1114,N-Back (New Version 2021),2021.1.4,119.9666492
,,,,Conditions/Version_1/twoback(2)_v1.xlsx,New rule: Press 'space' when you see 2-back (i.e. the same letter as the one that appeared 2 letters ago.),G,None,,,,,,,,,0,7,7,7,0,9,9,9,,,,,,,,,,,,,,,,,,,,,,,,,,,,,,,,,,,,,,,,,,,,,,,,,,,,,,,,,,,,,,,,,,,,1.8718,706.4787815,None,space,0,706.4787815,None,0.8870127,P008,fencog,1,Post,2021_Aug_13_1114,N-Back (New Version 2021),2021.1.4,119.9666492
,,,,Conditions/Version_1/twoback(2)_v1.xlsx,New rule: Press 'space' when you see 2-back (i.e. the same letter as the one that appeared 2 letters ago.),,,,,,,,,,,0,7,7,7,,,,,,,,,,,,,,,,,,,,,,,,,,,,,,,,,,,,,,,,,,,,,,,,,,,,,,,,,,,,,,,,,,,,,,,,,,,,,,,,P008,fencog,1,Post,2021_Aug_13_1114,N-Back (New Version 2021),2021.1.4,119.9666492
,,,,Conditions/Version_1/threeback(3)_v1.xlsx,New rule: Press 'space' when you see 3-back (i.e. the same letter as the one that appeared 3 letters ago.),w,None,,,,,,,,,0,8,8,8,0,0,0,0,,,,,,,,,,,,,,,,,,,,,,,,,,,,,,,,,,,,,,,,,,,,,,,,,,,,,,,,,,708.5196851,None,711.504426,None,space,0.077473,711.504426,None,708.5196851,None,1.8966,713.5045693,None,None,1,713.5045693,None,,P008,fencog,1,Post,2021_Aug_13_1114,N-Back (New Version 2021),2021.1.4,119.9666492
,,,,Conditions/Version_1/threeback(3)_v1.xlsx,New rule: Press 'space' when you see 3-back (i.e. the same letter as the one that appeared 3 letters ago.),p,None,,,,,,,,,0,8,8,8,0,1,1,1,,,,,,,,,,,,,,,,,,,,,,,,,,,,,,,,,,,,,,,,,,,,,,,,,,,,,,,,,,,,,,,,,,,,1.6796,717.1921991,None,None,1,717.1921991,None,,P008,fencog,1,Post,2021_Aug_13_1114,N-Back (New Version 2021),2021.1.4,119.9666492
,,,,Conditions/Version_1/threeback(3)_v1.xlsx,New rule: Press 'space' when you see 3-back (i.e. the same letter as the one that appeared 3 letters ago.),P,None,,,,,,,,,0,8,8,8,0,2,2,2,,,,,,,,,,,,,,,,,,,,,,,,,,,,,,,,,,,,,,,,,,,,,,,,,,,,,,,,,,,,,,,,,,,,1.7168,720.9077829,None,None,1,720.9077829,None,,P008,fencog,1,Post,2021_Aug_13_1114,N-Back (New Version 2021),2021.1.4,119.9666492
,,,,Conditions/Version_1/threeback(3)_v1.xlsx,New rule: Press 'space' when you see 3-back (i.e. the same letter as the one that appeared 3 letters ago.),i,None,,,,,,,,,0,8,8,8,0,3,3,3,,,,,,,,,,,,,,,,,,,,,,,,,,,,,,,,,,,,,,,,,,,,,,,,,,,,,,,,,,,,,,,,,,,,1.8408,724.7487434,None,None,1,724.7487434,None,,P008,fencog,1,Post,2021_Aug_13_1114,N-Back (New Version 2021),2021.1.4,119.9666492
,,,,Conditions/Version_1/threeback(3)_v1.xlsx,New rule: Press 'space' when you see 3-back (i.e. the same letter as the one that appeared 3 letters ago.),f,None,,,,,,,,,0,8,8,8,0,4,4,4,,,,,,,,,,,,,,,,,,,,,,,,,,,,,,,,,,,,,,,,,,,,,,,,,,,,,,,,,,,,,,,,,,,,1.1712,727.925118,None,None,1,727.925118,None,,P008,fencog,1,Post,2021_Aug_13_1114,N-Back (New Version 2021),2021.1.4,119.9666492
,,,,Conditions/Version_1/threeback(3)_v1.xlsx,New rule: Press 'space' when you see 3-back (i.e. the same letter as the one that appeared 3 letters ago.),o,None,,,,,,,,,0,8,8,8,0,5,5,5,,,,,,,,,,,,,,,,,,,,,,,,,,,,,,,,,,,,,,,,,,,,,,,,,,,,,,,,,,,,,,,,,,,,1.4688,731.4046478,None,None,1,731.4046478,None,,P008,fencog,1,Post,2021_Aug_13_1114,N-Back (New Version 2021),2021.1.4,119.9666492
,,,,Conditions/Version_1/threeback(3)_v1.xlsx,New rule: Press 'space' when you see 3-back (i.e. the same letter as the one that appeared 3 letters ago.),w,None,,,,,,,,,0,8,8,8,0,6,6,6,,,,,,,,,,,,,,,,,,,,,,,,,,,,,,,,,,,,,,,,,,,,,,,,,,,,,,,,,,,,,,,,,,,,1.1898,734.5953696,None,None,1,734.5953696,None,,P008,fencog,1,Post,2021_Aug_13_1114,N-Back (New Version 2021),2021.1.4,119.9666492
,,,,Conditions/Version_1/threeback(3)_v1.xlsx,New rule: Press 'space' when you see 3-back (i.e. the same letter as the one that appeared 3 letters ago.),F,space,,,,,,,,,0,8,8,8,0,7,7,7,,,,,,,,,,,,,,,,,,,,,,,,,,,,,,,,,,,,,,,,,,,,,,,,,,,,,,,,,,,,,,,,,,,,1.7416,738.3365587,None,space,1,738.3365587,None,1.3176718,P008,fencog,1,Post,2021_Aug_13_1114,N-Back (New Version 2021),2021.1.4,119.9666492
,,,,Conditions/Version_1/threeback(3)_v1.xlsx,New rule: Press 'space' when you see 3-back (i.e. the same letter as the one that appeared 3 letters ago.),p,None,,,,,,,,,0,8,8,8,0,8,8,8,,,,,,,,,,,,,,,,,,,,,,,,,,,,,,,,,,,,,,,,,,,,,,,,,,,,,,,,,,,,,,,,,,,,1.134,741.4773678,None,None,1,741.4773678,None,,P008,fencog,1,Post,2021_Aug_13_1114,N-Back (New Version 2021),2021.1.4,119.9666492
,,,,Conditions/Version_1/threeback(3)_v1.xlsx,New rule: Press 'space' when you see 3-back (i.e. the same letter as the one that appeared 3 letters ago.),W,space,,,,,,,,,0,8,8,8,0,9,9,9,,,,,,,,,,,,,,,,,,,,,,,,,,,,,,,,,,,,,,,,,,,,,,,,,,,,,,,,,,,,,,,,,,,,1.0596,744.5508939,None,space,1,744.5508939,None,0.8632782,P008,fencog,1,Post,2021_Aug_13_1114,N-Back (New Version 2021),2021.1.4,119.9666492
,,,,Conditions/Version_1/threeback(3)_v1.xlsx,New rule: Press 'space' when you see 3-back (i.e. the same letter as the one that appeared 3 letters ago.),,,,,,,,,,,0,8,8,8,,,,,,,,,,,,,,,,,,,,,,,,,,,,,,,,,,,,,,,,,,,,,,,,,,,,,,,,,,,,,,,,,,,,,,,,,,,,,,,,P008,fencog,1,Post,2021_Aug_13_1114,N-Back (New Version 2021),2021.1.4,119.9666492
,,,,Conditions/Version_1/zeroback(3)_v1.xlsx,New rule: Press 'space' when you see the letter 'x' or 'X'.,X,space,,,,,,,,,0,9,9,9,0,0,0,0,,,,,,,,,,,,,,,,,,,,,,,,,,,,,,,,,,,,,,,,,,,,,,,,,,,,,,,,,,746.5717043,None,749.559768,None,space,6.5662553,749.559768,None,746.5717043,None,1.8966,758.0481228,None,space,1,758.0481228,None,1.110732,P008,fencog,1,Post,2021_Aug_13_1114,N-Back (New Version 2021),2021.1.4,119.9666492
,,,,Conditions/Version_1/zeroback(3)_v1.xlsx,New rule: Press 'space' when you see the letter 'x' or 'X'.,B,None,,,,,,,,,0,9,9,9,0,1,1,1,,,,,,,,,,,,,,,,,,,,,,,,,,,,,,,,,,,,,,,,,,,,,,,,,,,,,,,,,,,,,,,,,,,,1.9214,761.9808037,None,None,1,761.9808037,None,,P008,fencog,1,Post,2021_Aug_13_1114,N-Back (New Version 2021),2021.1.4,119.9666492
,,,,Conditions/Version_1/zeroback(3)_v1.xlsx,New rule: Press 'space' when you see the letter 'x' or 'X'.,m,None,,,,,,,,,0,9,9,9,0,2,2,2,,,,,,,,,,,,,,,,,,,,,,,,,,,,,,,,,,,,,,,,,,,,,,,,,,,,,,,,,,,,,,,,,,,,1.6362,765.6313047,None,None,1,765.6313047,None,,P008,fencog,1,Post,2021_Aug_13_1114,N-Back (New Version 2021),2021.1.4,119.9666492
,,,,Conditions/Version_1/zeroback(3)_v1.xlsx,New rule: Press 'space' when you see the letter 'x' or 'X'.,m,None,,,,,,,,,0,9,9,9,0,3,3,3,,,,,,,,,,,,,,,,,,,,,,,,,,,,,,,,,,,,,,,,,,,,,,,,,,,,,,,,,,,,,,,,,,,,1.3634,769.0021105,None,None,1,769.0021105,None,,P008,fencog,1,Post,2021_Aug_13_1114,N-Back (New Version 2021),2021.1.4,119.9666492
,,,,Conditions/Version_1/zeroback(3)_v1.xlsx,New rule: Press 'space' when you see the letter 'x' or 'X'.,o,None,,,,,,,,,0,9,9,9,0,4,4,4,,,,,,,,,,,,,,,,,,,,,,,,,,,,,,,,,,,,,,,,,,,,,,,,,,,,,,,,,,,,,,,,,,,,1.6052,772.6090463,None,None,1,772.6090463,None,,P008,fencog,1,Post,2021_Aug_13_1114,N-Back (New Version 2021),2021.1.4,119.9666492
,,,,Conditions/Version_1/zeroback(3)_v1.xlsx,New rule: Press 'space' when you see the letter 'x' or 'X'.,p,None,,,,,,,,,0,9,9,9,0,5,5,5,,,,,,,,,,,,,,,,,,,,,,,,,,,,,,,,,,,,,,,,,,,,,,,,,,,,,,,,,,,,,,,,,,,,1.8098,776.4246876,None,None,1,776.4246876,None,,P008,fencog,1,Post,2021_Aug_13_1114,N-Back (New Version 2021),2021.1.4,119.9666492
,,,,Conditions/Version_1/zeroback(3)_v1.xlsx,New rule: Press 'space' when you see the letter 'x' or 'X'.,G,None,,,,,,,,,0,9,9,9,0,6,6,6,,,,,,,,,,,,,,,,,,,,,,,,,,,,,,,,,,,,,,,,,,,,,,,,,,,,,,,,,,,,,,,,,,,,1.0162,779.4421776,None,None,1,779.4421776,None,,P008,fencog,1,Post,2021_Aug_13_1114,N-Back (New Version 2021),2021.1.4,119.9666492
,,,,Conditions/Version_1/zeroback(3)_v1.xlsx,New rule: Press 'space' when you see the letter 'x' or 'X'.,X,space,,,,,,,,,0,9,9,9,0,7,7,7,,,,,,,,,,,,,,,,,,,,,,,,,,,,,,,,,,,,,,,,,,,,,,,,,,,,,,,,,,,,,,,,,,,,1.8284,783.2809873,None,space,1,783.2809873,None,0.9729965,P008,fencog,1,Post,2021_Aug_13_1114,N-Back (New Version 2021),2021.1.4,119.9666492
,,,,Conditions/Version_1/zeroback(3)_v1.xlsx,New rule: Press 'space' when you see the letter 'x' or 'X'.,p,None,,,,,,,,,0,9,9,9,0,8,8,8,,,,,,,,,,,,,,,,,,,,,,,,,,,,,,,,,,,,,,,,,,,,,,,,,,,,,,,,,,,,,,,,,,,,1.568,786.8550265,None,None,1,786.8550265,None,,P008,fencog,1,Post,2021_Aug_13_1114,N-Back (New Version 2021),2021.1.4,119.9666492
,,,,Conditions/Version_1/zeroback(3)_v1.xlsx,New rule: Press 'space' when you see the letter 'x' or 'X'.,x,space,,,,,,,,,0,9,9,9,0,9,9,9,,,,,,,,,,,,,,,,,,,,,,,,,,,,,,,,,,,,,,,,,,,,,,,,,,,,,,,,,,,,,,,,,,,,1.6858,790.5461753,None,space,1,790.5461753,None,0.8835569,P008,fencog,1,Post,2021_Aug_13_1114,N-Back (New Version 2021),2021.1.4,119.9666492
,,,,Conditions/Version_1/zeroback(3)_v1.xlsx,New rule: Press 'space' when you see the letter 'x' or 'X'.,,,,,,,,,,,0,9,9,9,,,,,,,,,,,,,,,,,,,,,,,,,,,,,,,,,,,,,,,,,,,,,,,,,,,,,,,,,,,,,,,,,,,,,,,,,,,,,,,,P008,fencog,1,Post,2021_Aug_13_1114,N-Back (New Version 2021),2021.1.4,119.9666492
,,,,Conditions/Version_1/twoback(3)_v1.xlsx,New rule: Press 'space' when you see 2-back (i.e. the same letter as the one that appeared 2 letters ago.),e,None,,,,,,,,,0,10,10,10,0,0,0,0,,,,,,,,,,,,,,,,,,,,,,,,,,,,,,,,,,,,,,,,,,,,,,,,,,,,,,,,,,792.5659011,None,795.5545335,None,space,18.2432762,795.5545335,None,792.5659011,None,1.7788,815.5994263,None,None,1,815.5994263,None,,P008,fencog,1,Post,2021_Aug_13_1114,N-Back (New Version 2021),2021.1.4,119.9666492
,,,,Conditions/Version_1/twoback(3)_v1.xlsx,New rule: Press 'space' when you see 2-back (i.e. the same letter as the one that appeared 2 letters ago.),o,None,,,,,,,,,0,10,10,10,0,1,1,1,,,,,,,,,,,,,,,,,,,,,,,,,,,,,,,,,,,,,,,,,,,,,,,,,,,,,,,,,,,,,,,,,,,,1.1588,818.7645183,None,None,1,818.7645183,None,,P008,fencog,1,Post,2021_Aug_13_1114,N-Back (New Version 2021),2021.1.4,119.9666492
,,,,Conditions/Version_1/twoback(3)_v1.xlsx,New rule: Press 'space' when you see 2-back (i.e. the same letter as the one that appeared 2 letters ago.),P,None,,,,,,,,,0,10,10,10,0,2,2,2,,,,,,,,,,,,,,,,,,,,,,,,,,,,,,,,,,,,,,,,,,,,,,,,,,,,,,,,,,,,,,,,,,,,1.2952,822.0696045,None,None,1,822.0696045,None,,P008,fencog,1,Post,2021_Aug_13_1114,N-Back (New Version 2021),2021.1.4,119.9666492
,,,,Conditions/Version_1/twoback(3)_v1.xlsx,New rule: Press 'space' when you see 2-back (i.e. the same letter as the one that appeared 2 letters ago.),z,None,,,,,,,,,0,10,10,10,0,3,3,3,,,,,,,,,,,,,,,,,,,,,,,,,,,,,,,,,,,,,,,,,,,,,,,,,,,,,,,,,,,,,,,,,,,,1.9772,826.0535826,None,None,1,826.0535826,None,,P008,fencog,1,Post,2021_Aug_13_1114,N-Back (New Version 2021),2021.1.4,119.9666492
,,,,Conditions/Version_1/twoback(3)_v1.xlsx,New rule: Press 'space' when you see 2-back (i.e. the same letter as the one that appeared 2 letters ago.),X,None,,,,,,,,,0,10,10,10,0,4,4,4,,,,,,,,,,,,,,,,,,,,,,,,,,,,,,,,,,,,,,,,,,,,,,,,,,,,,,,,,,,,,,,,,,,,1.2704,829.33436,None,None,1,829.33436,None,,P008,fencog,1,Post,2021_Aug_13_1114,N-Back (New Version 2021),2021.1.4,119.9666492
,,,,Conditions/Version_1/twoback(3)_v1.xlsx,New rule: Press 'space' when you see 2-back (i.e. the same letter as the one that appeared 2 letters ago.),z,space,,,,,,,,,0,10,10,10,0,5,5,5,,,,,,,,,,,,,,,,,,,,,,,,,,,,,,,,,,,,,,,,,,,,,,,,,,,,,,,,,,,,,,,,,,,,1.692,833.0246341,None,space,1,833.0246341,None,0.6210733,P008,fencog,1,Post,2021_Aug_13_1114,N-Back (New Version 2021),2021.1.4,119.9666492
,,,,Conditions/Version_1/twoback(3)_v1.xlsx,New rule: Press 'space' when you see 2-back (i.e. the same letter as the one that appeared 2 letters ago.),x,space,,,,,,,,,0,10,10,10,0,6,6,6,,,,,,,,,,,,,,,,,,,,,,,,,,,,,,,,,,,,,,,,,,,,,,,,,,,,,,,,,,,,,,,,,,,,1.3138,836.3428226,None,space,1,836.3428226,None,0.8631088,P008,fencog,1,Post,2021_Aug_13_1114,N-Back (New Version 2021),2021.1.4,119.9666492
,,,,Conditions/Version_1/twoback(3)_v1.xlsx,New rule: Press 'space' when you see 2-back (i.e. the same letter as the one that appeared 2 letters ago.),c,None,,,,,,,,,0,10,10,10,0,7,7,7,,,,,,,,,,,,,,,,,,,,,,,,,,,,,,,,,,,,,,,,,,,,,,,,,,,,,,,,,,,,,,,,,,,,1.9338,840.290287,None,None,1,840.290287,None,,P008,fencog,1,Post,2021_Aug_13_1114,N-Back (New Version 2021),2021.1.4,119.9666492
,,,,Conditions/Version_1/twoback(3)_v1.xlsx,New rule: Press 'space' when you see 2-back (i.e. the same letter as the one that appeared 2 letters ago.),i,None,,,,,,,,,0,10,10,10,0,8,8,8,,,,,,,,,,,,,,,,,,,,,,,,,,,,,,,,,,,,,,,,,,,,,,,,,,,,,,,,,,,,,,,,,,,,1.7478,844.0463916,None,None,1,844.0463916,None,,P008,fencog,1,Post,2021_Aug_13_1114,N-Back (New Version 2021),2021.1.4,119.9666492
,,,,Conditions/Version_1/twoback(3)_v1.xlsx,New rule: Press 'space' when you see 2-back (i.e. the same letter as the one that appeared 2 letters ago.),C,space,,,,,,,,,0,10,10,10,0,9,9,9,,,,,,,,,,,,,,,,,,,,,,,,,,,,,,,,,,,,,,,,,,,,,,,,,,,,,,,,,,,,,,,,,,,,1.2146,847.2723478,None,None,0,847.2723478,None,,P008,fencog,1,Post,2021_Aug_13_1114,N-Back (New Version 2021),2021.1.4,119.9666492
,,,,Conditions/Version_1/twoback(3)_v1.xlsx,New rule: Press 'space' when you see 2-back (i.e. the same letter as the one that appeared 2 letters ago.),,,,,,,,,,,0,10,10,10,,,,,,,,,,,,,,,,,,,,,,,,,,,,,,,,,,,,,,,,,,,,,,,,,,,,,,,,,,,,,,,,,,,,,,,,,,,,,,,,P008,fencog,1,Post,2021_Aug_13_1114,N-Back (New Version 2021),2021.1.4,119.9666492
,,,,Conditions/Version_1/oneback(3)_v1.xlsx,New rule: Press 'space' when you see 1-back (i.e. the same letter as the one that appeared 1 letter ago.),o,None,,,,,,,,,0,11,11,11,0,0,0,0,,,,,,,,,,,,,,,,,,,,,,,,,,,,,,,,,,,,,,,,,,,,,,,,,,,,,,,,,,849.299806,None,852.2876433,None,space,27.4701692,852.2876433,None,849.299806,None,1.0658,880.8776263,None,None,1,880.8776263,None,,P008,fencog,1,Post,2021_Aug_13_1114,N-Back (New Version 2021),2021.1.4,119.9666492
,,,,Conditions/Version_1/oneback(3)_v1.xlsx,New rule: Press 'space' when you see 1-back (i.e. the same letter as the one that appeared 1 letter ago.),O,space,,,,,,,,,0,11,11,11,0,1,1,1,,,,,,,,,,,,,,,,,,,,,,,,,,,,,,,,,,,,,,,,,,,,,,,,,,,,,,,,,,,,,,,,,,,,1.3138,884.1932466,None,space,1,884.1932466,None,0.5327265,P008,fencog,1,Post,2021_Aug_13_1114,N-Back (New Version 2021),2021.1.4,119.9666492
,,,,Conditions/Version_1/oneback(3)_v1.xlsx,New rule: Press 'space' when you see 1-back (i.e. the same letter as the one that appeared 1 letter ago.),h,None,,,,,,,,,0,11,11,11,0,2,2,2,,,,,,,,,,,,,,,,,,,,,,,,,,,,,,,,,,,,,,,,,,,,,,,,,,,,,,,,,,,,,,,,,,,,1.4812,887.6762583,None,None,1,887.6762583,None,,P008,fencog,1,Post,2021_Aug_13_1114,N-Back (New Version 2021),2021.1.4,119.9666492
,,,,Conditions/Version_1/oneback(3)_v1.xlsx,New rule: Press 'space' when you see 1-back (i.e. the same letter as the one that appeared 1 letter ago.),g,None,,,,,,,,,0,11,11,11,0,3,3,3,,,,,,,,,,,,,,,,,,,,,,,,,,,,,,,,,,,,,,,,,,,,,,,,,,,,,,,,,,,,,,,,,,,,1.568,891.2573139,None,None,1,891.2573139,None,,P008,fencog,1,Post,2021_Aug_13_1114,N-Back (New Version 2021),2021.1.4,119.9666492
,,,,Conditions/Version_1/oneback(3)_v1.xlsx,New rule: Press 'space' when you see 1-back (i.e. the same letter as the one that appeared 1 letter ago.),n,None,,,,,,,,,0,11,11,11,0,4,4,4,,,,,,,,,,,,,,,,,,,,,,,,,,,,,,,,,,,,,,,,,,,,,,,,,,,,,,,,,,,,,,,,,,,,1.661,894.9238969,None,None,1,894.9238969,None,,P008,fencog,1,Post,2021_Aug_13_1114,N-Back (New Version 2021),2021.1.4,119.9666492
,,,,Conditions/Version_1/oneback(3)_v1.xlsx,New rule: Press 'space' when you see 1-back (i.e. the same letter as the one that appeared 1 letter ago.),z,None,,,,,,,,,0,11,11,11,0,5,5,5,,,,,,,,,,,,,,,,,,,,,,,,,,,,,,,,,,,,,,,,,,,,,,,,,,,,,,,,,,,,,,,,,,,,1.7416,898.6720138,None,None,1,898.6720138,None,,P008,fencog,1,Post,2021_Aug_13_1114,N-Back (New Version 2021),2021.1.4,119.9666492
,,,,Conditions/Version_1/oneback(3)_v1.xlsx,New rule: Press 'space' when you see 1-back (i.e. the same letter as the one that appeared 1 letter ago.),X,None,,,,,,,,,0,11,11,11,0,6,6,6,,,,,,,,,,,,,,,,,,,,,,,,,,,,,,,,,,,,,,,,,,,,,,,,,,,,,,,,,,,,,,,,,,,,1.723,902.3969894,None,None,1,902.3969894,None,,P008,fencog,1,Post,2021_Aug_13_1114,N-Back (New Version 2021),2021.1.4,119.9666492
,,,,Conditions/Version_1/oneback(3)_v1.xlsx,New rule: Press 'space' when you see 1-back (i.e. the same letter as the one that appeared 1 letter ago.),r,None,,,,,,,,,0,11,11,11,0,7,7,7,,,,,,,,,,,,,,,,,,,,,,,,,,,,,,,,,,,,,,,,,,,,,,,,,,,,,,,,,,,,,,,,,,,,1.6858,906.0977031,None,None,1,906.0977031,None,,P008,fencog,1,Post,2021_Aug_13_1114,N-Back (New Version 2021),2021.1.4,119.9666492
,,,,Conditions/Version_1/oneback(3)_v1.xlsx,New rule: Press 'space' when you see 1-back (i.e. the same letter as the one that appeared 1 letter ago.),r,space,,,,,,,,,0,11,11,11,0,8,8,8,,,,,,,,,,,,,,,,,,,,,,,,,,,,,,,,,,,,,,,,,,,,,,,,,,,,,,,,,,,,,,,,,,,,1.909,910.0188144,None,space,1,910.0188144,None,0.803058,P008,fencog,1,Post,2021_Aug_13_1114,N-Back (New Version 2021),2021.1.4,119.9666492
,,,,Conditions/Version_1/oneback(3)_v1.xlsx,New rule: Press 'space' when you see 1-back (i.e. the same letter as the one that appeared 1 letter ago.),P,None,,,,,,,,,0,11,11,11,0,9,9,9,,,,,,,,,,,,,,,,,,,,,,,,,,,,,,,,,,,,,,,,,,,,,,,,,,,,,,,,,,,,,,,,,,,,1.1154,913.1354745,None,None,1,913.1354745,None,,P008,fencog,1,Post,2021_Aug_13_1114,N-Back (New Version 2021),2021.1.4,119.9666492
,,,,Conditions/Version_1/oneback(3)_v1.xlsx,New rule: Press 'space' when you see 1-back (i.e. the same letter as the one that appeared 1 letter ago.),,,,,,,,,,,0,11,11,11,,,,,,,,,,,,,,,,,,,,,,,,,,,,,,,,,,,,,,,,,,,,,,,,,,,,,,,,,,,,,,,,,,,,,,,,,,,,,,,,P008,fencog,1,Post,2021_Aug_13_1114,N-Back (New Version 2021),2021.1.4,119.9666492
,,,,Conditions/Version_1/twoback(4)_v1.xlsx,New rule: Press 'space' when you see 2-back (i.e. the same letter as the one that appeared 2 letters ago.),r,None,,,,,,,,,0,12,12,12,0,0,0,0,,,,,,,,,,,,,,,,,,,,,,,,,,,,,,,,,,,,,,,,,,,,,,,,,,,,,,,,,,915.1621105,None,918.152585,None,space,9.9333341,918.152585,None,915.1621105,None,1.3758,929.4906269,None,None,1,929.4906269,None,,P008,fencog,1,Post,2021_Aug_13_1114,N-Back (New Version 2021),2021.1.4,119.9666492
,,,,Conditions/Version_1/twoback(4)_v1.xlsx,New rule: Press 'space' when you see 2-back (i.e. the same letter as the one that appeared 2 letters ago.),T,None,,,,,,,,,0,12,12,12,0,1,1,1,,,,,,,,,,,,,,,,,,,,,,,,,,,,,,,,,,,,,,,,,,,,,,,,,,,,,,,,,,,,,,,,,,,,1.4254,932.9209362,None,None,1,932.9209362,None,,P008,fencog,1,Post,2021_Aug_13_1114,N-Back (New Version 2021),2021.1.4,119.9666492
,,,,Conditions/Version_1/twoback(4)_v1.xlsx,New rule: Press 'space' when you see 2-back (i.e. the same letter as the one that appeared 2 letters ago.),o,None,,,,,,,,,0,12,12,12,0,2,2,2,,,,,,,,,,,,,,,,,,,,,,,,,,,,,,,,,,,,,,,,,,,,,,,,,,,,,,,,,,,,,,,,,,,,1.816,936.7477551,None,None,1,936.7477551,None,,P008,fencog,1,Post,2021_Aug_13_1114,N-Back (New Version 2021),2021.1.4,119.9666492
,,,,Conditions/Version_1/twoback(4)_v1.xlsx,New rule: Press 'space' when you see 2-back (i.e. the same letter as the one that appeared 2 letters ago.),p,None,,,,,,,,,0,12,12,12,0,3,3,3,,,,,,,,,,,,,,,,,,,,,,,,,,,,,,,,,,,,,,,,,,,,,,,,,,,,,,,,,,,,,,,,,,,,1.8532,940.6103037,None,None,1,940.6103037,None,,P008,fencog,1,Post,2021_Aug_13_1114,N-Back (New Version 2021),2021.1.4,119.9666492
,,,,Conditions/Version_1/twoback(4)_v1.xlsx,New rule: Press 'space' when you see 2-back (i.e. the same letter as the one that appeared 2 letters ago.),p,None,,,,,,,,,0,12,12,12,0,4,4,4,,,,,,,,,,,,,,,,,,,,,,,,,,,,,,,,,,,,,,,,,,,,,,,,,,,,,,,,,,,,,,,,,,,,1.7602,944.3753757,None,None,1,944.3753757,None,,P008,fencog,1,Post,2021_Aug_13_1114,N-Back (New Version 2021),2021.1.4,119.9666492
,,,,Conditions/Version_1/twoback(4)_v1.xlsx,New rule: Press 'space' when you see 2-back (i.e. the same letter as the one that appeared 2 letters ago.),y,None,,,,,,,,,0,12,12,12,0,5,5,5,,,,,,,,,,,,,,,,,,,,,,,,,,,,,,,,,,,,,,,,,,,,,,,,,,,,,,,,,,,,,,,,,,,,1.9276,948.3075874,None,None,1,948.3075874,None,,P008,fencog,1,Post,2021_Aug_13_1114,N-Back (New Version 2021),2021.1.4,119.9666492
,,,,Conditions/Version_1/twoback(4)_v1.xlsx,New rule: Press 'space' when you see 2-back (i.e. the same letter as the one that appeared 2 letters ago.),P,space,,,,,,,,,0,12,12,12,0,6,6,6,,,,,,,,,,,,,,,,,,,,,,,,,,,,,,,,,,,,,,,,,,,,,,,,,,,,,,,,,,,,,,,,,,,,1.6176,951.9311471,None,space,1,951.9311471,None,1.2830691,P008,fencog,1,Post,2021_Aug_13_1114,N-Back (New Version 2021),2021.1.4,119.9666492
,,,,Conditions/Version_1/twoback(4)_v1.xlsx,New rule: Press 'space' when you see 2-back (i.e. the same letter as the one that appeared 2 letters ago.),y,None,,,,,,,,,0,12,12,12,0,7,7,7,,,,,,,,,,,,,,,,,,,,,,,,,,,,,,,,,,,,,,,,,,,,,,,,,,,,,,,,,,,,,,,,,,,,1.6858,955.6229955,None,space,0,955.6229955,None,1.3275113,P008,fencog,1,Post,2021_Aug_13_1114,N-Back (New Version 2021),2021.1.4,119.9666492
,,,,Conditions/Version_1/twoback(4)_v1.xlsx,New rule: Press 'space' when you see 2-back (i.e. the same letter as the one that appeared 2 letters ago.),y,space,,,,,,,,,0,12,12,12,0,8,8,8,,,,,,,,,,,,,,,,,,,,,,,,,,,,,,,,,,,,,,,,,,,,,,,,,,,,,,,,,,,,,,,,,,,,1.4378,959.0709522,None,None,0,959.0709522,None,,P008,fencog,1,Post,2021_Aug_13_1114,N-Back (New Version 2021),2021.1.4,119.9666492
,,,,Conditions/Version_1/twoback(4)_v1.xlsx,New rule: Press 'space' when you see 2-back (i.e. the same letter as the one that appeared 2 letters ago.),,,,,,,,,,,0,12,12,12,,,,,,,,,,,,,,,,,,,,,,,,,,,,,,,,,,,,,,,,,,,,,,,,,,,,,,,,,,,,,,,,,,,,,,,,,,,,,,,,P008,fencog,1,Post,2021_Aug_13_1114,N-Back (New Version 2021),2021.1.4,119.9666492
,,,,Conditions/Version_1/zeroback(4)_v1.xlsx,New rule: Press 'space' when you see the letter 'x' or 'X'.,o,None,,,,,,,,,0,13,13,13,0,0,0,0,,,,,,,,,,,,,,,,,,,,,,,,,,,,,,,,,,,,,,,,,,,,,,,,,,,,,,,,,,961.1053878,None,964.0972058,None,space,0.4847789,964.0972058,None,961.1053878,None,1.6796,966.2853014,None,None,1,966.2853014,None,,P008,fencog,1,Post,2021_Aug_13_1114,N-Back (New Version 2021),2021.1.4,119.9666492
,,,,Conditions/Version_1/zeroback(4)_v1.xlsx,New rule: Press 'space' when you see the letter 'x' or 'X'.,X,space,,,,,,,,,0,13,13,13,0,1,1,1,,,,,,,,,,,,,,,,,,,,,,,,,,,,,,,,,,,,,,,,,,,,,,,,,,,,,,,,,,,,,,,,,,,,1.32,969.6093749,None,space,1,969.6093749,None,0.4044031,P008,fencog,1,Post,2021_Aug_13_1114,N-Back (New Version 2021),2021.1.4,119.9666492
,,,,Conditions/Version_1/zeroback(4)_v1.xlsx,New rule: Press 'space' when you see the letter 'x' or 'X'.,p,None,,,,,,,,,0,13,13,13,0,2,2,2,,,,,,,,,,,,,,,,,,,,,,,,,,,,,,,,,,,,,,,,,,,,,,,,,,,,,,,,,,,,,,,,,,,,1.8036,973.4184135,None,None,1,973.4184135,None,,P008,fencog,1,Post,2021_Aug_13_1114,N-Back (New Version 2021),2021.1.4,119.9666492
,,,,Conditions/Version_1/zeroback(4)_v1.xlsx,New rule: Press 'space' when you see the letter 'x' or 'X'.,m,None,,,,,,,,,0,13,13,13,0,3,3,3,,,,,,,,,,,,,,,,,,,,,,,,,,,,,,,,,,,,,,,,,,,,,,,,,,,,,,,,,,,,,,,,,,,,1.041,976.4745977,None,None,1,976.4745977,None,,P008,fencog,1,Post,2021_Aug_13_1114,N-Back (New Version 2021),2021.1.4,119.9666492
,,,,Conditions/Version_1/zeroback(4)_v1.xlsx,New rule: Press 'space' when you see the letter 'x' or 'X'.,n,None,,,,,,,,,0,13,13,13,0,4,4,4,,,,,,,,,,,,,,,,,,,,,,,,,,,,,,,,,,,,,,,,,,,,,,,,,,,,,,,,,,,,,,,,,,,,1.6176,980.1085754,None,None,1,980.1085754,None,,P008,fencog,1,Post,2021_Aug_13_1114,N-Back (New Version 2021),2021.1.4,119.9666492
,,,,Conditions/Version_1/zeroback(4)_v1.xlsx,New rule: Press 'space' when you see the letter 'x' or 'X'.,m,None,,,,,,,,,0,13,13,13,0,5,5,5,,,,,,,,,,,,,,,,,,,,,,,,,,,,,,,,,,,,,,,,,,,,,,,,,,,,,,,,,,,,,,,,,,,,1.7354,983.8552957,None,None,1,983.8552957,None,,P008,fencog,1,Post,2021_Aug_13_1114,N-Back (New Version 2021),2021.1.4,119.9666492
,,,,Conditions/Version_1/zeroback(4)_v1.xlsx,New rule: Press 'space' when you see the letter 'x' or 'X'.,C,None,,,,,,,,,0,13,13,13,0,6,6,6,,,,,,,,,,,,,,,,,,,,,,,,,,,,,,,,,,,,,,,,,,,,,,,,,,,,,,,,,,,,,,,,,,,,1.6548,987.5149073,None,None,1,987.5149073,None,,P008,fencog,1,Post,2021_Aug_13_1114,N-Back (New Version 2021),2021.1.4,119.9666492
,,,,Conditions/Version_1/zeroback(4)_v1.xlsx,New rule: Press 'space' when you see the letter 'x' or 'X'.,m,None,,,,,,,,,0,13,13,13,0,7,7,7,,,,,,,,,,,,,,,,,,,,,,,,,,,,,,,,,,,,,,,,,,,,,,,,,,,,,,,,,,,,,,,,,,,,1.4254,990.9447448,None,None,1,990.9447448,None,,P008,fencog,1,Post,2021_Aug_13_1114,N-Back (New Version 2021),2021.1.4,119.9666492
,,,,Conditions/Version_1/zeroback(4)_v1.xlsx,New rule: Press 'space' when you see the letter 'x' or 'X'.,p,None,,,,,,,,,0,13,13,13,0,8,8,8,,,,,,,,,,,,,,,,,,,,,,,,,,,,,,,,,,,,,,,,,,,,,,,,,,,,,,,,,,,,,,,,,,,,1.754,994.7048672,None,None,1,994.7048672,None,,P008,fencog,1,Post,2021_Aug_13_1114,N-Back (New Version 2021),2021.1.4,119.9666492
,,,,Conditions/Version_1/zeroback(4)_v1.xlsx,New rule: Press 'space' when you see the letter 'x' or 'X'.,X,space,,,,,,,,,0,13,13,13,0,9,9,9,,,,,,,,,,,,,,,,,,,,,,,,,,,,,,,,,,,,,,,,,,,,,,,,,,,,,,,,,,,,,,,,,,,,1.506,998.2096884,None,space,1,998.2096884,None,0.7802964,P008,fencog,1,Post,2021_Aug_13_1114,N-Back (New Version 2021),2021.1.4,119.9666492
,,,,Conditions/Version_1/zeroback(4)_v1.xlsx,New rule: Press 'space' when you see the letter 'x' or 'X'.,,,,,,,,,,,0,13,13,13,,,,,,,,,,,,,,,,,,,,,,,,,,,,,,,,,,,,,,,,,,,,,,,,,,,,,,,,,,,,,,,,,,,,,,,,,,,,,,,,P008,fencog,1,Post,2021_Aug_13_1114,N-Back (New Version 2021),2021.1.4,119.9666492
,,,,Conditions/Version_1/oneback(4)_v1.xlsx,New rule: Press 'space' when you see 1-back (i.e. the same letter as the one that appeared 1 letter ago.),w,None,,,,,,,,,0,14,14,14,0,0,0,0,,,,,,,,,,,,,,,,,,,,,,,,,,,,,,,,,,,,,,,,,,,,,,,,,,,,,,,,,,1000.246373,None,1003.227642,None,space,0.7702011,1003.227642,None,1000.246373,None,1.971,1005.990267,None,None,1,1005.990267,None,,P008,fencog,1,Post,2021_Aug_13_1114,N-Back (New Version 2021),2021.1.4,119.9666492
,,,,Conditions/Version_1/oneback(4)_v1.xlsx,New rule: Press 'space' when you see 1-back (i.e. the same letter as the one that appeared 1 letter ago.),q,None,,,,,,,,,0,14,14,14,0,1,1,1,,,,,,,,,,,,,,,,,,,,,,,,,,,,,,,,,,,,,,,,,,,,,,,,,,,,,,,,,,,,,,,,,,,,1.6734,1009.667874,None,None,1,1009.667874,None,,P008,fencog,1,Post,2021_Aug_13_1114,N-Back (New Version 2021),2021.1.4,119.9666492
,,,,Conditions/Version_1/oneback(4)_v1.xlsx,New rule: Press 'space' when you see 1-back (i.e. the same letter as the one that appeared 1 letter ago.),i,None,,,,,,,,,0,14,14,14,0,2,2,2,,,,,,,,,,,,,,,,,,,,,,,,,,,,,,,,,,,,,,,,,,,,,,,,,,,,,,,,,,,,,,,,,,,,1.7354,1013.416862,None,None,1,1013.416862,None,,P008,fencog,1,Post,2021_Aug_13_1114,N-Back (New Version 2021),2021.1.4,119.9666492
,,,,Conditions/Version_1/oneback(4)_v1.xlsx,New rule: Press 'space' when you see 1-back (i.e. the same letter as the one that appeared 1 letter ago.),t,None,,,,,,,,,0,14,14,14,0,3,3,3,,,,,,,,,,,,,,,,,,,,,,,,,,,,,,,,,,,,,,,,,,,,,,,,,,,,,,,,,,,,,,,,,,,,1.4688,1016.895327,None,None,1,1016.895327,None,,P008,fencog,1,Post,2021_Aug_13_1114,N-Back (New Version 2021),2021.1.4,119.9666492
,,,,Conditions/Version_1/oneback(4)_v1.xlsx,New rule: Press 'space' when you see 1-back (i.e. the same letter as the one that appeared 1 letter ago.),v,None,,,,,,,,,0,14,14,14,0,4,4,4,,,,,,,,,,,,,,,,,,,,,,,,,,,,,,,,,,,,,,,,,,,,,,,,,,,,,,,,,,,,,,,,,,,,1.134,1020.029361,None,None,1,1020.029361,None,,P008,fencog,1,Post,2021_Aug_13_1114,N-Back (New Version 2021),2021.1.4,119.9666492
,,,,Conditions/Version_1/oneback(4)_v1.xlsx,New rule: Press 'space' when you see 1-back (i.e. the same letter as the one that appeared 1 letter ago.),V,space,,,,,,,,,0,14,14,14,0,5,5,5,,,,,,,,,,,,,,,,,,,,,,,,,,,,,,,,,,,,,,,,,,,,,,,,,,,,,,,,,,,,,,,,,,,,1.9524,1024.005029,None,space,1,1024.005029,None,0.8246367,P008,fencog,1,Post,2021_Aug_13_1114,N-Back (New Version 2021),2021.1.4,119.9666492
,,,,Conditions/Version_1/oneback(4)_v1.xlsx,New rule: Press 'space' when you see 1-back (i.e. the same letter as the one that appeared 1 letter ago.),v,space,,,,,,,,,0,14,14,14,0,6,6,6,,,,,,,,,,,,,,,,,,,,,,,,,,,,,,,,,,,,,,,,,,,,,,,,,,,,,,,,,,,,,,,,,,,,1.4316,1027.433912,None,None,0,1027.433912,None,,P008,fencog,1,Post,2021_Aug_13_1114,N-Back (New Version 2021),2021.1.4,119.9666492
,,,,Conditions/Version_1/oneback(4)_v1.xlsx,New rule: Press 'space' when you see 1-back (i.e. the same letter as the one that appeared 1 letter ago.),p,None,,,,,,,,,0,14,14,14,0,7,7,7,,,,,,,,,,,,,,,,,,,,,,,,,,,,,,,,,,,,,,,,,,,,,,,,,,,,,,,,,,,,,,,,,,,,1.0658,1030.499806,None,None,1,1030.499806,None,,P008,fencog,1,Post,2021_Aug_13_1114,N-Back (New Version 2021),2021.1.4,119.9666492
,,,,Conditions/Version_1/oneback(4)_v1.xlsx,New rule: Press 'space' when you see 1-back (i.e. the same letter as the one that appeared 1 letter ago.),w,None,,,,,,,,,0,14,14,14,0,8,8,8,,,,,,,,,,,,,,,,,,,,,,,,,,,,,,,,,,,,,,,,,,,,,,,,,,,,,,,,,,,,,,,,,,,,1.7788,1034.281916,None,None,1,1034.281916,None,,P008,fencog,1,Post,2021_Aug_13_1114,N-Back (New Version 2021),2021.1.4,119.9666492
,,,,Conditions/Version_1/oneback(4)_v1.xlsx,New rule: Press 'space' when you see 1-back (i.e. the same letter as the one that appeared 1 letter ago.),W,space,,,,,,,,,0,14,14,14,0,9,9,9,,,,,,,,,,,,,,,,,,,,,,,,,,,,,,,,,,,,,,,,,,,,,,,,,,,,,,,,,,,,,,,,,,,,1.2146,1037.505968,None,space,1,1037.505968,None,0.6278537,P008,fencog,1,Post,2021_Aug_13_1114,N-Back (New Version 2021),2021.1.4,119.9666492
,,,,Conditions/Version_1/oneback(4)_v1.xlsx,New rule: Press 'space' when you see 1-back (i.e. the same letter as the one that appeared 1 letter ago.),,,,,,,,,,,0,14,14,14,,,,,,,,,,,,,,,,,,,,,,,,,,,,,,,,,,,,,,,,,,,,,,,,,,,,,,,,,,,,,,,,,,,,,,,,,,,,,,,,P008,fencog,1,Post,2021_Aug_13_1114,N-Back (New Version 2021),2021.1.4,119.9666492
,,,,Conditions/Version_1/threeback(4)_v1.xlsx,New rule: Press 'space' when you see 3-back (i.e. the same letter as the one that appeared 3 letters ago.),A,None,,,,,,,,,0,15,15,15,0,0,0,0,,,,,,,,,,,,,,,,,,,,,,,,,,,,,,,,,,,,,,,,,,,,,,,,,,,,,,,,,,1039.527425,None,1042.515308,None,space,1.2186068,1042.515308,None,1039.527425,None,1.878,1045.628529,None,None,1,1045.628529,None,,P008,fencog,1,Post,2021_Aug_13_1114,N-Back (New Version 2021),2021.1.4,119.9666492
,,,,Conditions/Version_1/threeback(4)_v1.xlsx,New rule: Press 'space' when you see 3-back (i.e. the same letter as the one that appeared 3 letters ago.),n,None,,,,,,,,,0,15,15,15,0,1,1,1,,,,,,,,,,,,,,,,,,,,,,,,,,,,,,,,,,,,,,,,,,,,,,,,,,,,,,,,,,,,,,,,,,,,1.3076,1048.952383,None,None,1,1048.952383,None,,P008,fencog,1,Post,2021_Aug_13_1114,N-Back (New Version 2021),2021.1.4,119.9666492
,,,,Conditions/Version_1/threeback(4)_v1.xlsx,New rule: Press 'space' when you see 3-back (i.e. the same letter as the one that appeared 3 letters ago.),g,None,,,,,,,,,0,15,15,15,0,2,2,2,,,,,,,,,,,,,,,,,,,,,,,,,,,,,,,,,,,,,,,,,,,,,,,,,,,,,,,,,,,,,,,,,,,,1.7664,1052.720059,None,None,1,1052.720059,None,,P008,fencog,1,Post,2021_Aug_13_1114,N-Back (New Version 2021),2021.1.4,119.9666492
,,,,Conditions/Version_1/threeback(4)_v1.xlsx,New rule: Press 'space' when you see 3-back (i.e. the same letter as the one that appeared 3 letters ago.),A,space,,,,,,,,,0,15,15,15,0,3,3,3,,,,,,,,,,,,,,,,,,,,,,,,,,,,,,,,,,,,,,,,,,,,,,,,,,,,,,,,,,,,,,,,,,,,1.7602,1056.493115,None,space,1,1056.493115,None,1.8804135,P008,fencog,1,Post,2021_Aug_13_1114,N-Back (New Version 2021),2021.1.4,119.9666492
,,,,Conditions/Version_1/threeback(4)_v1.xlsx,New rule: Press 'space' when you see 3-back (i.e. the same letter as the one that appeared 3 letters ago.),p,None,,,,,,,,,0,15,15,15,0,4,4,4,,,,,,,,,,,,,,,,,,,,,,,,,,,,,,,,,,,,,,,,,,,,,,,,,,,,,,,,,,,,,,,,,,,,1.5432,1060.049401,None,None,1,1060.049401,None,,P008,fencog,1,Post,2021_Aug_13_1114,N-Back (New Version 2021),2021.1.4,119.9666492
,,,,Conditions/Version_1/threeback(4)_v1.xlsx,New rule: Press 'space' when you see 3-back (i.e. the same letter as the one that appeared 3 letters ago.),O,None,,,,,,,,,0,15,15,15,0,5,5,5,,,,,,,,,,,,,,,,,,,,,,,,,,,,,,,,,,,,,,,,,,,,,,,,,,,,,,,,,,,,,,,,,,,,1.9896,1064.043117,None,None,1,1064.043117,None,,P008,fencog,1,Post,2021_Aug_13_1114,N-Back (New Version 2021),2021.1.4,119.9666492
,,,,Conditions/Version_1/threeback(4)_v1.xlsx,New rule: Press 'space' when you see 3-back (i.e. the same letter as the one that appeared 3 letters ago.),a,space,,,,,,,,,0,15,15,15,0,6,6,6,,,,,,,,,,,,,,,,,,,,,,,,,,,,,,,,,,,,,,,,,,,,,,,,,,,,,,,,,,,,,,,,,,,,1.8656,1067.913669,None,space,1,1067.913669,None,1.3880639,P008,fencog,1,Post,2021_Aug_13_1114,N-Back (New Version 2021),2021.1.4,119.9666492
,,,,Conditions/Version_1/threeback(4)_v1.xlsx,New rule: Press 'space' when you see 3-back (i.e. the same letter as the one that appeared 3 letters ago.),p,space,,,,,,,,,0,15,15,15,0,7,7,7,,,,,,,,,,,,,,,,,,,,,,,,,,,,,,,,,,,,,,,,,,,,,,,,,,,,,,,,,,,,,,,,,,,,1.258,1071.171637,None,None,0,1071.171637,None,,P008,fencog,1,Post,2021_Aug_13_1114,N-Back (New Version 2021),2021.1.4,119.9666492
,,,,Conditions/Version_1/threeback(4)_v1.xlsx,New rule: Press 'space' when you see 3-back (i.e. the same letter as the one that appeared 3 letters ago.),x,None,,,,,,,,,0,15,15,15,0,8,8,8,,,,,,,,,,,,,,,,,,,,,,,,,,,,,,,,,,,,,,,,,,,,,,,,,,,,,,,,,,,,,,,,,,,,1.8904,1075.062288,None,None,1,1075.062288,None,,P008,fencog,1,Post,2021_Aug_13_1114,N-Back (New Version 2021),2021.1.4,119.9666492
,,,,Conditions/Version_1/threeback(4)_v1.xlsx,New rule: Press 'space' when you see 3-back (i.e. the same letter as the one that appeared 3 letters ago.),X,None,,,,,,,,,0,15,15,15,0,9,9,9,,,,,,,,,,,,,,,,,,,,,,,,,,,,,,,,,,,,,,,,,,,,,,,,,,,,,,,,,,,,,,,,,,,,1.103,1078.180093,None,None,1,1078.180093,None,,P008,fencog,1,Post,2021_Aug_13_1114,N-Back (New Version 2021),2021.1.4,119.9666492
,,,,Conditions/Version_1/threeback(4)_v1.xlsx,New rule: Press 'space' when you see 3-back (i.e. the same letter as the one that appeared 3 letters ago.),,,,,,,,,,,0,15,15,15,,,,,,,,,,,,,,,,,,,,,,,,,,,,,,,,,,,,,,,,,,,,,,,,,,,,,,,,,,,,,,,,,,,,,,,,,,,,,,,,P008,fencog,1,Post,2021_Aug_13_1114,N-Back (New Version 2021),2021.1.4,119.9666492
