CondFileP,InstructionsP,LettersDisplayedP,CorrectnessP,CondFile,Instructions,LettersDisplayed,Correctness,practicetrials.thisRepN,practicetrials.thisTrialN,practicetrials.thisN,practicetrials.thisIndex,InnerLoopPractice.thisRepN,InnerLoopPractice.thisTrialN,InnerLoopPractice.thisN,InnerLoopPractice.thisIndex,trials.thisRepN,trials.thisTrialN,trials.thisN,trials.thisIndex,InnerLoop.thisRepN,InnerLoop.thisTrialN,InnerLoop.thisN,InnerLoop.thisIndex,TaskVersionText.started,TaskVersionText.stopped,InstrKey1.keys,InstrKey1.rt,InstrKey1.started,InstrKey1.stopped,text.started,text.stopped,key_resp_4.keys,key_resp_4.rt,key_resp_4.started,key_resp_4.stopped,text_2.started,text_2.stopped,key_resp_3.keys,key_resp_3.rt,key_resp_3.started,key_resp_3.stopped,text_3.started,text_3.stopped,key_resp_2.keys,key_resp_2.rt,key_resp_2.started,key_resp_2.stopped,PractIn1.started,PractIn1.stopped,PractIn2.started,PractIn2.stopped,PractInstructionPass.keys,PractInstructionPass.rt,PractInstructionPass.started,PractInstructionPass.stopped,PractBlock1.started,PractBlock1.stopped,ISIjitterPractice,ISI_Pract_Fixation.started,ISI_Pract_Fixation.stopped,N_backP.started,N_backP.stopped,KeyPractice.keys,KeyPractice.corr,KeyPractice.rt,KeyPractice.started,KeyPractice.stopped,text_4.started,text_4.stopped,TransitionText.started,TransitionText.stopped,key_resp_6.keys,key_resp_6.rt,key_resp_6.started,key_resp_6.stopped,text_5.started,text_5.stopped,key_resp_5.keys,key_resp_5.rt,key_resp_5.started,key_resp_5.stopped,MainInt1.started,MainInt1.stopped,MainInt2.started,MainInt2.stopped,InstructionPass.keys,InstructionPass.rt,InstructionPass.started,InstructionPass.stopped,Blocks1.started,Blocks1.stopped,ISIjitter,N_backD.started,N_backD.stopped,key_resp.keys,key_resp.corr,key_resp.started,key_resp.stopped,key_resp.rt,participant,Study Name,Task Version (required to run),PRE/POST,date,expName,psychopyVersion,frameRate,
,,,,,,,,,,,,,,,,,,,,,,,,29.80463259993121,None,space,0.8256393996998668,30.301161699928343,None,,,,,,,,,,,,,,,,,,,,,,,,,,,,,,,,,,,,,,,,,,,,,,,,,,,,,,,,,,,,,,,,,,,,,,,P008,fencog,2,Pre,2021_Aug_06_1212,N-Back (New Version 2021),2021.1.4,120.22019536302781,
,,,,,,,,,,,,,,,,,,,,,,,,,,,,,,31.1542747002095,None,space,148.6759179001674,31.65110390027985,None,,,,,,,,,,,,,,,,,,,,,,,,,,,,,,,,,,,,,,,,,,,,,,,,,,,,,,,,,,,,,,,,,P008,fencog,2,Pre,2021_Aug_06_1212,N-Back (New Version 2021),2021.1.4,120.22019536302781,
,,,,,,,,,,,,,,,,,,,,,,,,,,,,,,,,,,,,180.36511520016938,None,space,21.18150220019743,180.85713780019432,None,,,,,,,,,,,,,,,,,,,,,,,,,,,,,,,,,,,,,,,,,,,,,,,,,,,,,,,,,,,P008,fencog,2,Pre,2021_Aug_06_1212,N-Back (New Version 2021),2021.1.4,120.22019536302781,
,,,,,,,,,,,,,,,,,,,,,,,,,,,,,,,,,,,,,,,,,,202.067956100218,None,space,9.775897599756718,202.55898529989645,None,,,,,,,,,,,,,,,,,,,,,,,,,,,,,,,,,,,,,,,,,,,,,,,,,,,,,P008,fencog,2,Pre,2021_Aug_06_1212,N-Back (New Version 2021),2021.1.4,120.22019536302781,
Conditions/Version_2Pr/zeroback(1)_v2.xlsx,Rule: Press 'space' when you see the letter 'x' or 'X'.,x,space,,,,,0,0,0,0,0,0,0,0,,,,,,,,,,,,,,,,,,,,,,,,,,,,,,,,,213.69512889999896,None,216.6810087999329,None,space,0.5816616998054087,216.6810087999329,None,213.69512889999896,None,1.64,217.28763729985803,None,218.93207379989326,None,space,1,0.5789065002463758,218.93207379989326,None,219.5250471001491,None,,,,,,,,,,,,,,,,,,,,,,,,,,,,,,,P008,fencog,2,Pre,2021_Aug_06_1212,N-Back (New Version 2021),2021.1.4,120.22019536302781,
Conditions/Version_2Pr/zeroback(1)_v2.xlsx,Rule: Press 'space' when you see the letter 'x' or 'X'.,R,None,,,,,0,0,0,0,0,1,1,1,,,,,,,,,,,,,,,,,,,,,,,,,,,,,,,,,,,,,,,,,,,1.49,221.0284168999642,None,222.52147760009393,None,None,1,,222.52147760009393,None,224.52670719986781,None,,,,,,,,,,,,,,,,,,,,,,,,,,,,,,,P008,fencog,2,Pre,2021_Aug_06_1212,N-Back (New Version 2021),2021.1.4,120.22019536302781,
Conditions/Version_2Pr/zeroback(1)_v2.xlsx,Rule: Press 'space' when you see the letter 'x' or 'X'.,p,None,,,,,0,0,0,0,0,2,2,2,,,,,,,,,,,,,,,,,,,,,,,,,,,,,,,,,,,,,,,,,,,1.565,226.02617610013112,None,227.59590219985694,None,None,1,,227.59590219985694,None,229.6000713002868,None,,,,,,,,,,,,,,,,,,,,,,,,,,,,,,,P008,fencog,2,Pre,2021_Aug_06_1212,N-Back (New Version 2021),2021.1.4,120.22019536302781,
Conditions/Version_2Pr/zeroback(1)_v2.xlsx,Rule: Press 'space' when you see the letter 'x' or 'X'.,O,None,,,,,0,0,0,0,0,3,3,3,,,,,,,,,,,,,,,,,,,,,,,,,,,,,,,,,,,,,,,,,,,1.39,231.09976110002026,None,232.49265630031005,None,None,1,,232.49265630031005,None,234.49869999988005,None,,,,,,,,,,,,,,,,,,,,,,,,,,,,,,,P008,fencog,2,Pre,2021_Aug_06_1212,N-Back (New Version 2021),2021.1.4,120.22019536302781,
Conditions/Version_2Pr/zeroback(1)_v2.xlsx,Rule: Press 'space' when you see the letter 'x' or 'X'.,i,None,,,,,0,0,0,0,0,4,4,4,,,,,,,,,,,,,,,,,,,,,,,,,,,,,,,,,,,,,,,,,,,1.89,235.99814089993015,None,237.89210900012404,None,None,1,,237.89210900012404,None,239.8971465001814,None,,,,,,,,,,,,,,,,,,,,,,,,,,,,,,,P008,fencog,2,Pre,2021_Aug_06_1212,N-Back (New Version 2021),2021.1.4,120.22019536302781,
Conditions/Version_2Pr/zeroback(1)_v2.xlsx,Rule: Press 'space' when you see the letter 'x' or 'X'.,U,None,,,,,0,0,0,0,0,5,5,5,,,,,,,,,,,,,,,,,,,,,,,,,,,,,,,,,,,,,,,,,,,1.19,241.39658700022846,None,242.59087439998984,None,None,1,,242.59087439998984,None,244.59579070005566,None,,,,,,,,,,,,,,,,,,,,,,,,,,,,,,,P008,fencog,2,Pre,2021_Aug_06_1212,N-Back (New Version 2021),2021.1.4,120.22019536302781,
Conditions/Version_2Pr/zeroback(1)_v2.xlsx,Rule: Press 'space' when you see the letter 'x' or 'X'.,N,None,,,,,0,0,0,0,0,6,6,6,,,,,,,,,,,,,,,,,,,,,,,,,,,,,,,,,,,,,,,,,,,1.24,246.09508130000904,None,247.33970770007,None,None,1,,247.33970770007,None,249.34426619997248,None,,,,,,,,,,,,,,,,,,,,,,,,,,,,,,,P008,fencog,2,Pre,2021_Aug_06_1212,N-Back (New Version 2021),2021.1.4,120.22019536302781,
Conditions/Version_2Pr/zeroback(1)_v2.xlsx,Rule: Press 'space' when you see the letter 'x' or 'X'.,m,None,,,,,0,0,0,0,0,7,7,7,,,,,,,,,,,,,,,,,,,,,,,,,,,,,,,,,,,,,,,,,,,1.04,250.8439643001184,None,251.8885379000567,None,None,1,,251.8885379000567,None,253.89299659989774,None,,,,,,,,,,,,,,,,,,,,,,,,,,,,,,,P008,fencog,2,Pre,2021_Aug_06_1212,N-Back (New Version 2021),2021.1.4,120.22019536302781,
Conditions/Version_2Pr/zeroback(1)_v2.xlsx,Rule: Press 'space' when you see the letter 'x' or 'X'.,x,space,,,,,0,0,0,0,0,8,8,8,,,,,,,,,,,,,,,,,,,,,,,,,,,,,,,,,,,,,,,,,,,1.615,255.39251950010657,None,257.0126300002448,None,space,1,0.6663838997483253,257.0126300002448,None,257.6925401999615,None,,,,,,,,,,,,,,,,,,,,,,,,,,,,,,,P008,fencog,2,Pre,2021_Aug_06_1212,N-Back (New Version 2021),2021.1.4,120.22019536302781,
Conditions/Version_2Pr/zeroback(1)_v2.xlsx,Rule: Press 'space' when you see the letter 'x' or 'X'.,X,space,,,,,0,0,0,0,0,9,9,9,,,,,,,,,,,,,,,,,,,,,,,,,,,,,,,,,,,,,,,,,,,1.065,259.1995151001029,None,260.2698816000484,None,space,1,0.9609817997552454,260.2698816000484,None,261.24143159994856,None,,,,,,,,,,,,,,,,,,,,,,,,,,,,,,,P008,fencog,2,Pre,2021_Aug_06_1212,N-Back (New Version 2021),2021.1.4,120.22019536302781,
Conditions/Version_2Pr/zeroback(1)_v2.xlsx,Rule: Press 'space' when you see the letter 'x' or 'X'.,,,,,,,0,0,0,0,,,,,,,,,,,,,,,,,,,,,,,,,,,,,,,,,,,,,,,,,,,,,,,,,,,,,,,,,,,,,,,,,,,,,,,,,,,,,,,,,,,,,,,,,P008,fencog,2,Pre,2021_Aug_06_1212,N-Back (New Version 2021),2021.1.4,120.22019536302781,
Conditions/Version_2Pr/oneback(1)_v2.xlsx,New rule: Press 'space' when you see 1-back (i.e. the same letter as the one that appeared 1 letter ago.),r,None,,,,,0,1,1,1,0,0,0,0,,,,,,,,,,,,,,,,,,,,,,,,,,,,,,,,,262.77150190016255,None,265.7508629001677,None,space,5.5915738004259765,265.7508629001677,None,262.77150190016255,None,1.94,271.35905650025234,None,273.3067495999858,None,None,1,,273.3067495999858,None,275.3115411000326,None,,,,,,,,,,,,,,,,,,,,,,,,,,,,,,,P008,fencog,2,Pre,2021_Aug_06_1212,N-Back (New Version 2021),2021.1.4,120.22019536302781,
Conditions/Version_2Pr/oneback(1)_v2.xlsx,New rule: Press 'space' when you see 1-back (i.e. the same letter as the one that appeared 1 letter ago.),t,None,,,,,0,1,1,1,0,1,1,1,,,,,,,,,,,,,,,,,,,,,,,,,,,,,,,,,,,,,,,,,,,1.19,276.8111358000897,None,278.00595699995756,None,None,1,,278.00595699995756,None,280.01014479994774,None,,,,,,,,,,,,,,,,,,,,,,,,,,,,,,,P008,fencog,2,Pre,2021_Aug_06_1212,N-Back (New Version 2021),2021.1.4,120.22019536302781,
Conditions/Version_2Pr/oneback(1)_v2.xlsx,New rule: Press 'space' when you see 1-back (i.e. the same letter as the one that appeared 1 letter ago.),Y,None,,,,,0,1,1,1,0,2,2,2,,,,,,,,,,,,,,,,,,,,,,,,,,,,,,,,,,,,,,,,,,,1.99,281.50989049999043,None,283.507530100178,None,None,1,,283.507530100178,None,285.5068966001272,None,,,,,,,,,,,,,,,,,,,,,,,,,,,,,,,P008,fencog,2,Pre,2021_Aug_06_1212,N-Back (New Version 2021),2021.1.4,120.22019536302781,
Conditions/Version_2Pr/oneback(1)_v2.xlsx,New rule: Press 'space' when you see 1-back (i.e. the same letter as the one that appeared 1 letter ago.),y,space,,,,,0,1,1,1,0,3,3,3,,,,,,,,,,,,,,,,,,,,,,,,,,,,,,,,,,,,,,,,,,,1.09,287.00811249995604,None,288.1026309002191,None,space,1,0.7520818999037147,288.1026309002191,None,288.86686319997534,None,,,,,,,,,,,,,,,,,,,,,,,,,,,,,,,P008,fencog,2,Pre,2021_Aug_06_1212,N-Back (New Version 2021),2021.1.4,120.22019536302781,
Conditions/Version_2Pr/oneback(1)_v2.xlsx,New rule: Press 'space' when you see 1-back (i.e. the same letter as the one that appeared 1 letter ago.),p,None,,,,,0,1,1,1,0,4,4,4,,,,,,,,,,,,,,,,,,,,,,,,,,,,,,,,,,,,,,,,,,,1.265,290.3735150001012,None,291.64205690007657,None,None,1,,291.64205690007657,None,293.64795230003074,None,,,,,,,,,,,,,,,,,,,,,,,,,,,,,,,P008,fencog,2,Pre,2021_Aug_06_1212,N-Back (New Version 2021),2021.1.4,120.22019536302781,
Conditions/Version_2Pr/oneback(1)_v2.xlsx,New rule: Press 'space' when you see 1-back (i.e. the same letter as the one that appeared 1 letter ago.),P,space,,,,,0,1,1,1,0,5,5,5,,,,,,,,,,,,,,,,,,,,,,,,,,,,,,,,,,,,,,,,,,,1.74,295.14748120028526,None,296.89218660024926,None,space,1,0.4665712998248637,296.89218660024926,None,297.37877190019935,None,,,,,,,,,,,,,,,,,,,,,,,,,,,,,,,P008,fencog,2,Pre,2021_Aug_06_1212,N-Back (New Version 2021),2021.1.4,120.22019536302781,
Conditions/Version_2Pr/oneback(1)_v2.xlsx,New rule: Press 'space' when you see 1-back (i.e. the same letter as the one that appeared 1 letter ago.),e,None,,,,,0,1,1,1,0,6,6,6,,,,,,,,,,,,,,,,,,,,,,,,,,,,,,,,,,,,,,,,,,,1.165,298.8794591999613,None,300.04845750005916,None,None,1,,300.04845750005916,None,302.0537435002625,None,,,,,,,,,,,,,,,,,,,,,,,,,,,,,,,P008,fencog,2,Pre,2021_Aug_06_1212,N-Back (New Version 2021),2021.1.4,120.22019536302781,
Conditions/Version_2Pr/oneback(1)_v2.xlsx,New rule: Press 'space' when you see 1-back (i.e. the same letter as the one that appeared 1 letter ago.),r,None,,,,,0,1,1,1,0,7,7,7,,,,,,,,,,,,,,,,,,,,,,,,,,,,,,,,,,,,,,,,,,,1.39,303.5533194001764,None,304.9463245002553,None,None,1,,304.9463245002553,None,306.95224500028417,None,,,,,,,,,,,,,,,,,,,,,,,,,,,,,,,P008,fencog,2,Pre,2021_Aug_06_1212,N-Back (New Version 2021),2021.1.4,120.22019536302781,
Conditions/Version_2Pr/oneback(1)_v2.xlsx,New rule: Press 'space' when you see 1-back (i.e. the same letter as the one that appeared 1 letter ago.),R,space,,,,,0,1,1,1,0,8,8,8,,,,,,,,,,,,,,,,,,,,,,,,,,,,,,,,,,,,,,,,,,,1.34,308.4517435999587,None,309.79487940017134,None,None,0,,309.79487940017134,None,311.80919060017914,None,,,,,,,,,,,,,,,,,,,,,,,,,,,,,,,P008,fencog,2,Pre,2021_Aug_06_1212,N-Back (New Version 2021),2021.1.4,120.22019536302781,
Conditions/Version_2Pr/oneback(1)_v2.xlsx,New rule: Press 'space' when you see 1-back (i.e. the same letter as the one that appeared 1 letter ago.),p,None,,,,,0,1,1,1,0,9,9,9,,,,,,,,,,,,,,,,,,,,,,,,,,,,,,,,,,,,,,,,,,,1.29,313.3004887001589,None,314.5923685003072,None,None,1,,314.5923685003072,None,316.60039420006797,None,,,,,,,,,,,,,,,,,,,,,,,,,,,,,,,P008,fencog,2,Pre,2021_Aug_06_1212,N-Back (New Version 2021),2021.1.4,120.22019536302781,
Conditions/Version_2Pr/oneback(1)_v2.xlsx,New rule: Press 'space' when you see 1-back (i.e. the same letter as the one that appeared 1 letter ago.),,,,,,,0,1,1,1,,,,,,,,,,,,,,,,,,,,,,,,,,,,,,,,,,,,,,,,,,,,,,,,,,,,,,,,,,,,,,,,,,,,,,,,,,,,,,,,,,,,,,,,,P008,fencog,2,Pre,2021_Aug_06_1212,N-Back (New Version 2021),2021.1.4,120.22019536302781,
Conditions/Version_2Pr/twoback(1)_v2.xlsx,New rule: Press 'space' when you see 2-back (i.e. the same letter as the one that appeared 2 letters ago.),r,None,,,,,0,2,2,2,0,0,0,0,,,,,,,,,,,,,,,,,,,,,,,,,,,,,,,,,318.11942119989544,None,321.10824549989775,None,space,0.8344393000006676,321.10824549989775,None,318.11942119989544,None,1.09,321.9658404998481,None,323.05571300024167,None,None,1,,323.05571300024167,None,325.0562034002505,None,,,,,,,,,,,,,,,,,,,,,,,,,,,,,,,P008,fencog,2,Pre,2021_Aug_06_1212,N-Back (New Version 2021),2021.1.4,120.22019536302781,
Conditions/Version_2Pr/twoback(1)_v2.xlsx,New rule: Press 'space' when you see 2-back (i.e. the same letter as the one that appeared 2 letters ago.),P,None,,,,,0,2,2,2,0,1,1,1,,,,,,,,,,,,,,,,,,,,,,,,,,,,,,,,,,,,,,,,,,,1.89,326.56309959990904,None,328.45555640012026,None,None,1,,328.45555640012026,None,330.46198600018397,None,,,,,,,,,,,,,,,,,,,,,,,,,,,,,,,P008,fencog,2,Pre,2021_Aug_06_1212,N-Back (New Version 2021),2021.1.4,120.22019536302781,
Conditions/Version_2Pr/twoback(1)_v2.xlsx,New rule: Press 'space' when you see 2-back (i.e. the same letter as the one that appeared 2 letters ago.),o,None,,,,,0,2,2,2,0,2,2,2,,,,,,,,,,,,,,,,,,,,,,,,,,,,,,,,,,,,,,,,,,,1.515,331.9615619000979,None,333.47806040011346,None,None,1,,333.47806040011346,None,335.4770104000345,None,,,,,,,,,,,,,,,,,,,,,,,,,,,,,,,P008,fencog,2,Pre,2021_Aug_06_1212,N-Back (New Version 2021),2021.1.4,120.22019536302781,
Conditions/Version_2Pr/twoback(1)_v2.xlsx,New rule: Press 'space' when you see 2-back (i.e. the same letter as the one that appeared 2 letters ago.),p,space,,,,,0,2,2,2,0,3,3,3,,,,,,,,,,,,,,,,,,,,,,,,,,,,,,,,,,,,,,,,,,,2.015,336.9765415000729,None,338.99831659998745,None,space,1,0.792539999820292,338.99831659998745,None,339.80194099992514,None,,,,,,,,,,,,,,,,,,,,,,,,,,,,,,,P008,fencog,2,Pre,2021_Aug_06_1212,N-Back (New Version 2021),2021.1.4,120.22019536302781,
Conditions/Version_2Pr/twoback(1)_v2.xlsx,New rule: Press 'space' when you see 2-back (i.e. the same letter as the one that appeared 2 letters ago.),Y,None,,,,,0,2,2,2,0,4,4,4,,,,,,,,,,,,,,,,,,,,,,,,,,,,,,,,,,,,,,,,,,,1.165,341.30859970021993,None,342.4760632002726,None,None,1,,342.4760632002726,None,344.4828254999593,None,,,,,,,,,,,,,,,,,,,,,,,,,,,,,,,P008,fencog,2,Pre,2021_Aug_06_1212,N-Back (New Version 2021),2021.1.4,120.22019536302781,
Conditions/Version_2Pr/twoback(1)_v2.xlsx,New rule: Press 'space' when you see 2-back (i.e. the same letter as the one that appeared 2 letters ago.),q,None,,,,,0,2,2,2,0,5,5,5,,,,,,,,,,,,,,,,,,,,,,,,,,,,,,,,,,,,,,,,,,,1.415,345.9823958002962,None,347.40008810022846,None,None,1,,347.40008810022846,None,349.40644610021263,None,,,,,,,,,,,,,,,,,,,,,,,,,,,,,,,P008,fencog,2,Pre,2021_Aug_06_1212,N-Back (New Version 2021),2021.1.4,120.22019536302781,
Conditions/Version_2Pr/twoback(1)_v2.xlsx,New rule: Press 'space' when you see 2-back (i.e. the same letter as the one that appeared 2 letters ago.),m,None,,,,,0,2,2,2,0,6,6,6,,,,,,,,,,,,,,,,,,,,,,,,,,,,,,,,,,,,,,,,,,,1.24,350.9058735999279,None,352.14795730030164,None,None,1,,352.14795730030164,None,354.15497730020434,None,,,,,,,,,,,,,,,,,,,,,,,,,,,,,,,P008,fencog,2,Pre,2021_Aug_06_1212,N-Back (New Version 2021),2021.1.4,120.22019536302781,
Conditions/Version_2Pr/twoback(1)_v2.xlsx,New rule: Press 'space' when you see 2-back (i.e. the same letter as the one that appeared 2 letters ago.),Q,space,,,,,0,2,2,2,0,7,7,7,,,,,,,,,,,,,,,,,,,,,,,,,,,,,,,,,,,,,,,,,,,1.565,355.6544685000554,None,357.22499040002003,None,space,1,0.5255247997120023,357.22499040002003,None,357.7629904001951,None,,,,,,,,,,,,,,,,,,,,,,,,,,,,,,,P008,fencog,2,Pre,2021_Aug_06_1212,N-Back (New Version 2021),2021.1.4,120.22019536302781,
Conditions/Version_2Pr/twoback(1)_v2.xlsx,New rule: Press 'space' when you see 2-back (i.e. the same letter as the one that appeared 2 letters ago.),L,None,,,,,0,2,2,2,0,8,8,8,,,,,,,,,,,,,,,,,,,,,,,,,,,,,,,,,,,,,,,,,,,1.99,359.2699595000595,None,361.26602589990944,None,None,1,,361.26602589990944,None,363.268962000031,None,,,,,,,,,,,,,,,,,,,,,,,,,,,,,,,P008,fencog,2,Pre,2021_Aug_06_1212,N-Back (New Version 2021),2021.1.4,120.22019536302781,
Conditions/Version_2Pr/twoback(1)_v2.xlsx,New rule: Press 'space' when you see 2-back (i.e. the same letter as the one that appeared 2 letters ago.),q,space,,,,,0,2,2,2,0,9,9,9,,,,,,,,,,,,,,,,,,,,,,,,,,,,,,,,,,,,,,,,,,,1.265,364.7682512002066,None,366.0368194999173,None,None,0,,366.0368194999173,None,368.04520690022036,None,,,,,,,,,,,,,,,,,,,,,,,,,,,,,,,P008,fencog,2,Pre,2021_Aug_06_1212,N-Back (New Version 2021),2021.1.4,120.22019536302781,
Conditions/Version_2Pr/twoback(1)_v2.xlsx,New rule: Press 'space' when you see 2-back (i.e. the same letter as the one that appeared 2 letters ago.),,,,,,,0,2,2,2,,,,,,,,,,,,,,,,,,,,,,,,,,,,,,,,,,,,,,,,,,,,,,,,,,,,,,,,,,,,,,,,,,,,,,,,,,,,,,,,,,,,,,,,,P008,fencog,2,Pre,2021_Aug_06_1212,N-Back (New Version 2021),2021.1.4,120.22019536302781,
Conditions/Version_2Pr/threeback(1)_v2.xlsx,New rule: Press 'space' when you see 3-back (i.e. the same letter as the one that appeared 3 letters ago.),u,None,,,,,0,3,3,3,0,0,0,0,,,,,,,,,,,,,,,,,,,,,,,,,,,,,,,,,369.57435940019786,None,372.5509743001312,None,space,0.9595087002962828,372.5509743001312,None,369.57435940019786,None,1.39,373.54768260009587,None,374.9438756001182,None,None,1,,374.9438756001182,None,376.94793300004676,None,,,,,,,,,,,,,,,,,,,,,,,,,,,,,,,P008,fencog,2,Pre,2021_Aug_06_1212,N-Back (New Version 2021),2021.1.4,120.22019536302781,
Conditions/Version_2Pr/threeback(1)_v2.xlsx,New rule: Press 'space' when you see 3-back (i.e. the same letter as the one that appeared 3 letters ago.),U,None,,,,,0,3,3,3,0,1,1,1,,,,,,,,,,,,,,,,,,,,,,,,,,,,,,,,,,,,,,,,,,,1.69,378.4477542000823,None,380.13975550001487,None,None,1,,380.13975550001487,None,382.150729900226,None,,,,,,,,,,,,,,,,,,,,,,,,,,,,,,,P008,fencog,2,Pre,2021_Aug_06_1212,N-Back (New Version 2021),2021.1.4,120.22019536302781,
Conditions/Version_2Pr/threeback(1)_v2.xlsx,New rule: Press 'space' when you see 3-back (i.e. the same letter as the one that appeared 3 letters ago.),p,None,,,,,0,3,3,3,0,2,2,2,,,,,,,,,,,,,,,,,,,,,,,,,,,,,,,,,,,,,,,,,,,1.94,383.64629349997267,None,385.59089490026236,None,None,1,,385.59089490026236,None,387.5952536999248,None,,,,,,,,,,,,,,,,,,,,,,,,,,,,,,,P008,fencog,2,Pre,2021_Aug_06_1212,N-Back (New Version 2021),2021.1.4,120.22019536302781,
Conditions/Version_2Pr/threeback(1)_v2.xlsx,New rule: Press 'space' when you see 3-back (i.e. the same letter as the one that appeared 3 letters ago.),U,space,,,,,0,3,3,3,0,3,3,3,,,,,,,,,,,,,,,,,,,,,,,,,,,,,,,,,,,,,,,,,,,1.315,389.09465110022575,None,390.4146615001373,None,space,1,0.9356435998342931,390.4146615001373,None,391.3668798999861,None,,,,,,,,,,,,,,,,,,,,,,,,,,,,,,,P008,fencog,2,Pre,2021_Aug_06_1212,N-Back (New Version 2021),2021.1.4,120.22019536302781,
Conditions/Version_2Pr/threeback(1)_v2.xlsx,New rule: Press 'space' when you see 3-back (i.e. the same letter as the one that appeared 3 letters ago.),e,None,,,,,0,3,3,3,0,4,4,4,,,,,,,,,,,,,,,,,,,,,,,,,,,,,,,,,,,,,,,,,,,1.865,392.8683255999349,None,394.73649869998917,None,None,1,,394.73649869998917,None,396.74237080011517,None,,,,,,,,,,,,,,,,,,,,,,,,,,,,,,,P008,fencog,2,Pre,2021_Aug_06_1212,N-Back (New Version 2021),2021.1.4,120.22019536302781,
Conditions/Version_2Pr/threeback(1)_v2.xlsx,New rule: Press 'space' when you see 3-back (i.e. the same letter as the one that appeared 3 letters ago.),R,None,,,,,0,3,3,3,0,5,5,5,,,,,,,,,,,,,,,,,,,,,,,,,,,,,,,,,,,,,,,,,,,1.715,398.2418424002826,None,399.95999999996275,None,None,1,,399.95999999996275,None,401.9659867002629,None,,,,,,,,,,,,,,,,,,,,,,,,,,,,,,,P008,fencog,2,Pre,2021_Aug_06_1212,N-Back (New Version 2021),2021.1.4,120.22019536302781,
Conditions/Version_2Pr/threeback(1)_v2.xlsx,New rule: Press 'space' when you see 3-back (i.e. the same letter as the one that appeared 3 letters ago.),p,None,,,,,0,3,3,3,0,6,6,6,,,,,,,,,,,,,,,,,,,,,,,,,,,,,,,,,,,,,,,,,,,1.915,403.4653660999611,None,405.3850922002457,None,None,1,,405.3850922002457,None,407.38925149990246,None,,,,,,,,,,,,,,,,,,,,,,,,,,,,,,,P008,fencog,2,Pre,2021_Aug_06_1212,N-Back (New Version 2021),2021.1.4,120.22019536302781,
Conditions/Version_2Pr/threeback(1)_v2.xlsx,New rule: Press 'space' when you see 3-back (i.e. the same letter as the one that appeared 3 letters ago.),E,space,,,,,0,3,3,3,0,7,7,7,,,,,,,,,,,,,,,,,,,,,,,,,,,,,,,,,,,,,,,,,,,1.24,408.8887344999239,None,410.1346467002295,None,space,1,0.6557156997732818,410.1346467002295,None,410.8060820000246,None,,,,,,,,,,,,,,,,,,,,,,,,,,,,,,,P008,fencog,2,Pre,2021_Aug_06_1212,N-Back (New Version 2021),2021.1.4,120.22019536302781,
Conditions/Version_2Pr/threeback(1)_v2.xlsx,New rule: Press 'space' when you see 3-back (i.e. the same letter as the one that appeared 3 letters ago.),k,None,,,,,0,3,3,3,0,8,8,8,,,,,,,,,,,,,,,,,,,,,,,,,,,,,,,,,,,,,,,,,,,1.04,412.3126423000358,None,413.35563990008086,None,None,1,,413.35563990008086,None,415.36183900013566,None,,,,,,,,,,,,,,,,,,,,,,,,,,,,,,,P008,fencog,2,Pre,2021_Aug_06_1212,N-Back (New Version 2021),2021.1.4,120.22019536302781,
Conditions/Version_2Pr/threeback(1)_v2.xlsx,New rule: Press 'space' when you see 3-back (i.e. the same letter as the one that appeared 3 letters ago.),m,None,,,,,0,3,3,3,0,9,9,9,,,,,,,,,,,,,,,,,,,,,,,,,,,,,,,,,,,,,,,,,,,1.415,416.86141630029306,None,418.2811330999248,None,space,0,1.5814471999183297,418.2811330999248,None,419.88190310029313,None,,,,,,,,,,,,,,,,,,,,,,,,,,,,,,,P008,fencog,2,Pre,2021_Aug_06_1212,N-Back (New Version 2021),2021.1.4,120.22019536302781,
Conditions/Version_2Pr/threeback(1)_v2.xlsx,New rule: Press 'space' when you see 3-back (i.e. the same letter as the one that appeared 3 letters ago.),,,,,,,0,3,3,3,,,,,,,,,,,,,,,,,,,,,,,,,,,,,,,,,,,,,,,,,,,,,,,,,,,,,,,,,,,,,,,,,,,,,,,,,,,,,,,,,,,,,,,,,P008,fencog,2,Pre,2021_Aug_06_1212,N-Back (New Version 2021),2021.1.4,120.22019536302781,
,,,,,,,,,,,,,,,,,,,,,,,,,,,,,,,,,,,,,,,,,,,,,,,,,,,,,,,,,,,,,,,,,,,,,,421.395736400038,None,space,9.273127099964768,421.8935712999664,None,,,,,,,,,,,,,,,,,,,,,,,,,P008,fencog,2,Pre,2021_Aug_06_1212,N-Back (New Version 2021),2021.1.4,120.22019536302781,
,,,,,,,,,,,,,,,,,,,,,,,,,,,,,,,,,,,,,,,,,,,,,,,,,,,,,,,,,,,,,,,,,,,,,,,,,,,,431.1878446000628,None,space,2.700734700076282,431.68268189998344,None,,,,,,,,,,,,,,,,,,,P008,fencog,2,Pre,2021_Aug_06_1212,N-Back (New Version 2021),2021.1.4,120.22019536302781,
,,,,Conditions/Version_1/zeroback(1)_v1.xlsx,Rule: Press 'space' when you see the letter 'x' or 'X'.,b,None,,,,,,,,,0,0,0,0,0,0,0,0,,,,,,,,,,,,,,,,,,,,,,,,,,,,,,,,,,,,,,,,,,,,,,,,,,,,,,,,,,,434.4860824001953,None,437.47387599991634,None,space,3.196440000087023,437.47387599991634,None,434.4860824001953,None,1.9834,442.69866729993373,None,None,1,442.69866729993373,None,,P008,fencog,2,Pre,2021_Aug_06_1212,N-Back (New Version 2021),2021.1.4,120.22019536302781,
,,,,Conditions/Version_1/zeroback(1)_v1.xlsx,Rule: Press 'space' when you see the letter 'x' or 'X'.,T,None,,,,,,,,,0,0,0,0,0,1,1,1,,,,,,,,,,,,,,,,,,,,,,,,,,,,,,,,,,,,,,,,,,,,,,,,,,,,,,,,,,,,,,,,,,,,,1.8718,446.5789288999513,None,None,1,446.5789288999513,None,,P008,fencog,2,Pre,2021_Aug_06_1212,N-Back (New Version 2021),2021.1.4,120.22019536302781,
,,,,Conditions/Version_1/zeroback(1)_v1.xlsx,Rule: Press 'space' when you see the letter 'x' or 'X'.,L,None,,,,,,,,,0,0,0,0,0,2,2,2,,,,,,,,,,,,,,,,,,,,,,,,,,,,,,,,,,,,,,,,,,,,,,,,,,,,,,,,,,,,,,,,,,,,,1.1216,449.7167139002122,None,None,1,449.7167139002122,None,,P008,fencog,2,Pre,2021_Aug_06_1212,N-Back (New Version 2021),2021.1.4,120.22019536302781,
,,,,Conditions/Version_1/zeroback(1)_v1.xlsx,Rule: Press 'space' when you see the letter 'x' or 'X'.,x,space,,,,,,,,,0,0,0,0,0,3,3,3,,,,,,,,,,,,,,,,,,,,,,,,,,,,,,,,,,,,,,,,,,,,,,,,,,,,,,,,,,,,,,,,,,,,,1.258,452.97754870029166,None,space,1,452.97754870029166,None,1.5333986999467015,P008,fencog,2,Pre,2021_Aug_06_1212,N-Back (New Version 2021),2021.1.4,120.22019536302781,
,,,,Conditions/Version_1/zeroback(1)_v1.xlsx,Rule: Press 'space' when you see the letter 'x' or 'X'.,o,None,,,,,,,,,0,0,0,0,0,4,4,4,,,,,,,,,,,,,,,,,,,,,,,,,,,,,,,,,,,,,,,,,,,,,,,,,,,,,,,,,,,,,,,,,,,,,1.7974,456.7848681001924,None,None,1,456.7848681001924,None,,P008,fencog,2,Pre,2021_Aug_06_1212,N-Back (New Version 2021),2021.1.4,120.22019536302781,
,,,,Conditions/Version_1/zeroback(1)_v1.xlsx,Rule: Press 'space' when you see the letter 'x' or 'X'.,P,None,,,,,,,,,0,0,0,0,0,5,5,5,,,,,,,,,,,,,,,,,,,,,,,,,,,,,,,,,,,,,,,,,,,,,,,,,,,,,,,,,,,,,,,,,,,,,1.7106,460.50949960015714,None,None,1,460.50949960015714,None,,P008,fencog,2,Pre,2021_Aug_06_1212,N-Back (New Version 2021),2021.1.4,120.22019536302781,
,,,,Conditions/Version_1/zeroback(1)_v1.xlsx,Rule: Press 'space' when you see the letter 'x' or 'X'.,X,space,,,,,,,,,0,0,0,0,0,6,6,6,,,,,,,,,,,,,,,,,,,,,,,,,,,,,,,,,,,,,,,,,,,,,,,,,,,,,,,,,,,,,,,,,,,,,1.909,464.4316203999333,None,space,1,464.4316203999333,None,0.41482979990541935,P008,fencog,2,Pre,2021_Aug_06_1212,N-Back (New Version 2021),2021.1.4,120.22019536302781,
,,,,Conditions/Version_1/zeroback(1)_v1.xlsx,Rule: Press 'space' when you see the letter 'x' or 'X'.,n,None,,,,,,,,,0,0,0,0,0,7,7,7,,,,,,,,,,,,,,,,,,,,,,,,,,,,,,,,,,,,,,,,,,,,,,,,,,,,,,,,,,,,,,,,,,,,,1.3324,467.77275700028986,None,None,1,467.77275700028986,None,,P008,fencog,2,Pre,2021_Aug_06_1212,N-Back (New Version 2021),2021.1.4,120.22019536302781,
,,,,Conditions/Version_1/zeroback(1)_v1.xlsx,Rule: Press 'space' when you see the letter 'x' or 'X'.,M,None,,,,,,,,,0,0,0,0,0,8,8,8,,,,,,,,,,,,,,,,,,,,,,,,,,,,,,,,,,,,,,,,,,,,,,,,,,,,,,,,,,,,,,,,,,,,,1.7416,471.5231770002283,None,None,1,471.5231770002283,None,,P008,fencog,2,Pre,2021_Aug_06_1212,N-Back (New Version 2021),2021.1.4,120.22019536302781,
,,,,Conditions/Version_1/zeroback(1)_v1.xlsx,Rule: Press 'space' when you see the letter 'x' or 'X'.,a,None,,,,,,,,,0,0,0,0,0,9,9,9,,,,,,,,,,,,,,,,,,,,,,,,,,,,,,,,,,,,,,,,,,,,,,,,,,,,,,,,,,,,,,,,,,,,,1.8036,475.3383917999454,None,None,1,475.3383917999454,None,,P008,fencog,2,Pre,2021_Aug_06_1212,N-Back (New Version 2021),2021.1.4,120.22019536302781,
,,,,Conditions/Version_1/zeroback(1)_v1.xlsx,Rule: Press 'space' when you see the letter 'x' or 'X'.,,,,,,,,,,,0,0,0,0,,,,,,,,,,,,,,,,,,,,,,,,,,,,,,,,,,,,,,,,,,,,,,,,,,,,,,,,,,,,,,,,,,,,,,,,,,,,,,,,,P008,fencog,2,Pre,2021_Aug_06_1212,N-Back (New Version 2021),2021.1.4,120.22019536302781,
,,,,Conditions/Version_1/oneback(1)_v1.xlsx,New rule: Press 'space' when you see 1-back (i.e. the same letter as the one that appeared 1 letter ago.),b,None,,,,,,,,,0,1,1,1,0,0,0,0,,,,,,,,,,,,,,,,,,,,,,,,,,,,,,,,,,,,,,,,,,,,,,,,,,,,,,,,,,,477.3662139000371,None,480.3527933000587,None,space,0.9256441001780331,480.3527933000587,None,477.3662139000371,None,1.4378,482.7353353998624,None,None,1,482.7353353998624,None,,P008,fencog,2,Pre,2021_Aug_06_1212,N-Back (New Version 2021),2021.1.4,120.22019536302781,
,,,,Conditions/Version_1/oneback(1)_v1.xlsx,New rule: Press 'space' when you see 1-back (i.e. the same letter as the one that appeared 1 letter ago.),p,None,,,,,,,,,0,1,1,1,0,1,1,1,,,,,,,,,,,,,,,,,,,,,,,,,,,,,,,,,,,,,,,,,,,,,,,,,,,,,,,,,,,,,,,,,,,,,1.3386,486.08373930025846,None,None,1,486.08373930025846,None,,P008,fencog,2,Pre,2021_Aug_06_1212,N-Back (New Version 2021),2021.1.4,120.22019536302781,
,,,,Conditions/Version_1/oneback(1)_v1.xlsx,New rule: Press 'space' when you see 1-back (i.e. the same letter as the one that appeared 1 letter ago.),M,None,,,,,,,,,0,1,1,1,0,2,2,2,,,,,,,,,,,,,,,,,,,,,,,,,,,,,,,,,,,,,,,,,,,,,,,,,,,,,,,,,,,,,,,,,,,,,1.134,489.22423100005835,None,None,1,489.22423100005835,None,,P008,fencog,2,Pre,2021_Aug_06_1212,N-Back (New Version 2021),2021.1.4,120.22019536302781,
,,,,Conditions/Version_1/oneback(1)_v1.xlsx,New rule: Press 'space' when you see 1-back (i.e. the same letter as the one that appeared 1 letter ago.),M,space,,,,,,,,,0,1,1,1,0,3,3,3,,,,,,,,,,,,,,,,,,,,,,,,,,,,,,,,,,,,,,,,,,,,,,,,,,,,,,,,,,,,,,,,,,,,,1.2394,492.4726078999229,None,space,1,492.4726078999229,None,0.5097822998650372,P008,fencog,2,Pre,2021_Aug_06_1212,N-Back (New Version 2021),2021.1.4,120.22019536302781,
,,,,Conditions/Version_1/oneback(1)_v1.xlsx,New rule: Press 'space' when you see 1-back (i.e. the same letter as the one that appeared 1 letter ago.),n,None,,,,,,,,,0,1,1,1,0,4,4,4,,,,,,,,,,,,,,,,,,,,,,,,,,,,,,,,,,,,,,,,,,,,,,,,,,,,,,,,,,,,,,,,,,,,,1.9834,496.4649318000302,None,None,1,496.4649318000302,None,,P008,fencog,2,Pre,2021_Aug_06_1212,N-Back (New Version 2021),2021.1.4,120.22019536302781,
,,,,Conditions/Version_1/oneback(1)_v1.xlsx,New rule: Press 'space' when you see 1-back (i.e. the same letter as the one that appeared 1 letter ago.),g,None,,,,,,,,,0,1,1,1,0,5,5,5,,,,,,,,,,,,,,,,,,,,,,,,,,,,,,,,,,,,,,,,,,,,,,,,,,,,,,,,,,,,,,,,,,,,,1.4688,499.9470045999624,None,None,1,499.9470045999624,None,,P008,fencog,2,Pre,2021_Aug_06_1212,N-Back (New Version 2021),2021.1.4,120.22019536302781,
,,,,Conditions/Version_1/oneback(1)_v1.xlsx,New rule: Press 'space' when you see 1-back (i.e. the same letter as the one that appeared 1 letter ago.),P,None,,,,,,,,,0,1,1,1,0,6,6,6,,,,,,,,,,,,,,,,,,,,,,,,,,,,,,,,,,,,,,,,,,,,,,,,,,,,,,,,,,,,,,,,,,,,,1.3634,503.32169030001387,None,None,1,503.32169030001387,None,,P008,fencog,2,Pre,2021_Aug_06_1212,N-Back (New Version 2021),2021.1.4,120.22019536302781,
,,,,Conditions/Version_1/oneback(1)_v1.xlsx,New rule: Press 'space' when you see 1-back (i.e. the same letter as the one that appeared 1 letter ago.),o,None,,,,,,,,,0,1,1,1,0,7,7,7,,,,,,,,,,,,,,,,,,,,,,,,,,,,,,,,,,,,,,,,,,,,,,,,,,,,,,,,,,,,,,,,,,,,,1.2828,506.61073009995744,None,None,1,506.61073009995744,None,,P008,fencog,2,Pre,2021_Aug_06_1212,N-Back (New Version 2021),2021.1.4,120.22019536302781,
,,,,Conditions/Version_1/oneback(1)_v1.xlsx,New rule: Press 'space' when you see 1-back (i.e. the same letter as the one that appeared 1 letter ago.),f,None,,,,,,,,,0,1,1,1,0,8,8,8,,,,,,,,,,,,,,,,,,,,,,,,,,,,,,,,,,,,,,,,,,,,,,,,,,,,,,,,,,,,,,,,,,,,,1.0658,509.68480500020087,None,None,1,509.68480500020087,None,,P008,fencog,2,Pre,2021_Aug_06_1212,N-Back (New Version 2021),2021.1.4,120.22019536302781,
,,,,Conditions/Version_1/oneback(1)_v1.xlsx,New rule: Press 'space' when you see 1-back (i.e. the same letter as the one that appeared 1 letter ago.),F,space,,,,,,,,,0,1,1,1,0,9,9,9,,,,,,,,,,,,,,,,,,,,,,,,,,,,,,,,,,,,,,,,,,,,,,,,,,,,,,,,,,,,,,,,,,,,,1.9648,513.6602703002281,None,space,1,513.6602703002281,None,0.5302496999502182,P008,fencog,2,Pre,2021_Aug_06_1212,N-Back (New Version 2021),2021.1.4,120.22019536302781,
,,,,Conditions/Version_1/oneback(1)_v1.xlsx,New rule: Press 'space' when you see 1-back (i.e. the same letter as the one that appeared 1 letter ago.),,,,,,,,,,,0,1,1,1,,,,,,,,,,,,,,,,,,,,,,,,,,,,,,,,,,,,,,,,,,,,,,,,,,,,,,,,,,,,,,,,,,,,,,,,,,,,,,,,,P008,fencog,2,Pre,2021_Aug_06_1212,N-Back (New Version 2021),2021.1.4,120.22019536302781,
,,,,Conditions/Version_1/twoback(1)_v1.xlsx,New rule: Press 'space' when you see 2-back (i.e. the same letter as the one that appeared 2 letters ago.),b,None,,,,,,,,,0,2,2,2,0,0,0,0,,,,,,,,,,,,,,,,,,,,,,,,,,,,,,,,,,,,,,,,,,,,,,,,,,,,,,,,,,,515.6858665999025,None,518.6672760001384,None,space,1.2912246002815664,518.6672760001384,None,515.6858665999025,None,1.6114,521.599306399934,None,None,1,521.599306399934,None,,P008,fencog,2,Pre,2021_Aug_06_1212,N-Back (New Version 2021),2021.1.4,120.22019536302781,
,,,,Conditions/Version_1/twoback(1)_v1.xlsx,New rule: Press 'space' when you see 2-back (i.e. the same letter as the one that appeared 2 letters ago.),h,None,,,,,,,,,0,2,2,2,0,1,1,1,,,,,,,,,,,,,,,,,,,,,,,,,,,,,,,,,,,,,,,,,,,,,,,,,,,,,,,,,,,,,,,,,,,,,1.3448,524.960495099891,None,None,1,524.960495099891,None,,P008,fencog,2,Pre,2021_Aug_06_1212,N-Back (New Version 2021),2021.1.4,120.22019536302781,
,,,,Conditions/Version_1/twoback(1)_v1.xlsx,New rule: Press 'space' when you see 2-back (i.e. the same letter as the one that appeared 2 letters ago.),j,None,,,,,,,,,0,2,2,2,0,2,2,2,,,,,,,,,,,,,,,,,,,,,,,,,,,,,,,,,,,,,,,,,,,,,,,,,,,,,,,,,,,,,,,,,,,,,1.5122,528.4821128002368,None,None,1,528.4821128002368,None,,P008,fencog,2,Pre,2021_Aug_06_1212,N-Back (New Version 2021),2021.1.4,120.22019536302781,
,,,,Conditions/Version_1/twoback(1)_v1.xlsx,New rule: Press 'space' when you see 2-back (i.e. the same letter as the one that appeared 2 letters ago.),H,space,,,,,,,,,0,2,2,2,0,3,3,3,,,,,,,,,,,,,,,,,,,,,,,,,,,,,,,,,,,,,,,,,,,,,,,,,,,,,,,,,,,,,,,,,,,,,1.7726,532.2643335000612,None,space,1,532.2643335000612,None,0.670259099919349,P008,fencog,2,Pre,2021_Aug_06_1212,N-Back (New Version 2021),2021.1.4,120.22019536302781,
,,,,Conditions/Version_1/twoback(1)_v1.xlsx,New rule: Press 'space' when you see 2-back (i.e. the same letter as the one that appeared 2 letters ago.),p,None,,,,,,,,,0,2,2,2,0,4,4,4,,,,,,,,,,,,,,,,,,,,,,,,,,,,,,,,,,,,,,,,,,,,,,,,,,,,,,,,,,,,,,,,,,,,,1.7664,536.036543500144,None,None,1,536.036543500144,None,,P008,fencog,2,Pre,2021_Aug_06_1212,N-Back (New Version 2021),2021.1.4,120.22019536302781,
,,,,Conditions/Version_1/twoback(1)_v1.xlsx,New rule: Press 'space' when you see 2-back (i.e. the same letter as the one that appeared 2 letters ago.),p,None,,,,,,,,,0,2,2,2,0,5,5,5,,,,,,,,,,,,,,,,,,,,,,,,,,,,,,,,,,,,,,,,,,,,,,,,,,,,,,,,,,,,,,,,,,,,,1.8036,539.8500224002637,None,None,1,539.8500224002637,None,,P008,fencog,2,Pre,2021_Aug_06_1212,N-Back (New Version 2021),2021.1.4,120.22019536302781,
,,,,Conditions/Version_1/twoback(1)_v1.xlsx,New rule: Press 'space' when you see 2-back (i.e. the same letter as the one that appeared 2 letters ago.),w,None,,,,,,,,,0,2,2,2,0,6,6,6,,,,,,,,,,,,,,,,,,,,,,,,,,,,,,,,,,,,,,,,,,,,,,,,,,,,,,,,,,,,,,,,,,,,,1.723,543.5768490000628,None,None,1,543.5768490000628,None,,P008,fencog,2,Pre,2021_Aug_06_1212,N-Back (New Version 2021),2021.1.4,120.22019536302781,
,,,,Conditions/Version_1/twoback(1)_v1.xlsx,New rule: Press 'space' when you see 2-back (i.e. the same letter as the one that appeared 2 letters ago.),R,None,,,,,,,,,0,2,2,2,0,7,7,7,,,,,,,,,,,,,,,,,,,,,,,,,,,,,,,,,,,,,,,,,,,,,,,,,,,,,,,,,,,,,,,,,,,,,1.5246,547.1069543003105,None,None,1,547.1069543003105,None,,P008,fencog,2,Pre,2021_Aug_06_1212,N-Back (New Version 2021),2021.1.4,120.22019536302781,
,,,,Conditions/Version_1/twoback(1)_v1.xlsx,New rule: Press 'space' when you see 2-back (i.e. the same letter as the one that appeared 2 letters ago.),a,None,,,,,,,,,0,2,2,2,0,8,8,8,,,,,,,,,,,,,,,,,,,,,,,,,,,,,,,,,,,,,,,,,,,,,,,,,,,,,,,,,,,,,,,,,,,,,1.2642,550.3842092002742,None,None,1,550.3842092002742,None,,P008,fencog,2,Pre,2021_Aug_06_1212,N-Back (New Version 2021),2021.1.4,120.22019536302781,
,,,,Conditions/Version_1/twoback(1)_v1.xlsx,New rule: Press 'space' when you see 2-back (i.e. the same letter as the one that appeared 2 letters ago.),r,space,,,,,,,,,0,2,2,2,0,9,9,9,,,,,,,,,,,,,,,,,,,,,,,,,,,,,,,,,,,,,,,,,,,,,,,,,,,,,,,,,,,,,,,,,,,,,1.3076,553.6959458002821,None,None,0,553.6959458002821,None,,P008,fencog,2,Pre,2021_Aug_06_1212,N-Back (New Version 2021),2021.1.4,120.22019536302781,
,,,,Conditions/Version_1/twoback(1)_v1.xlsx,New rule: Press 'space' when you see 2-back (i.e. the same letter as the one that appeared 2 letters ago.),,,,,,,,,,,0,2,2,2,,,,,,,,,,,,,,,,,,,,,,,,,,,,,,,,,,,,,,,,,,,,,,,,,,,,,,,,,,,,,,,,,,,,,,,,,,,,,,,,,P008,fencog,2,Pre,2021_Aug_06_1212,N-Back (New Version 2021),2021.1.4,120.22019536302781,
,,,,Conditions/Version_1/threeback(1)_v1.xlsx,New rule: Press 'space' when you see 3-back (i.e. the same letter as the one that appeared 3 letters ago.),r,None,,,,,,,,,0,3,3,3,0,0,0,0,,,,,,,,,,,,,,,,,,,,,,,,,,,,,,,,,,,,,,,,,,,,,,,,,,,,,,,,,,,555.7166141001508,None,558.705128100235,None,space,1.381162100005895,558.705128100235,None,555.7166141001508,None,1.3324,561.4436313998885,None,None,1,561.4436313998885,None,,P008,fencog,2,Pre,2021_Aug_06_1212,N-Back (New Version 2021),2021.1.4,120.22019536302781,
,,,,Conditions/Version_1/threeback(1)_v1.xlsx,New rule: Press 'space' when you see 3-back (i.e. the same letter as the one that appeared 3 letters ago.),o,None,,,,,,,,,0,3,3,3,0,1,1,1,,,,,,,,,,,,,,,,,,,,,,,,,,,,,,,,,,,,,,,,,,,,,,,,,,,,,,,,,,,,,,,,,,,,,1.971,565.4196446002461,None,None,1,565.4196446002461,None,,P008,fencog,2,Pre,2021_Aug_06_1212,N-Back (New Version 2021),2021.1.4,120.22019536302781,
,,,,Conditions/Version_1/threeback(1)_v1.xlsx,New rule: Press 'space' when you see 3-back (i.e. the same letter as the one that appeared 3 letters ago.),P,None,,,,,,,,,0,3,3,3,0,2,2,2,,,,,,,,,,,,,,,,,,,,,,,,,,,,,,,,,,,,,,,,,,,,,,,,,,,,,,,,,,,,,,,,,,,,,1.9834,569.4098789002746,None,None,1,569.4098789002746,None,,P008,fencog,2,Pre,2021_Aug_06_1212,N-Back (New Version 2021),2021.1.4,120.22019536302781,
,,,,Conditions/Version_1/threeback(1)_v1.xlsx,New rule: Press 'space' when you see 3-back (i.e. the same letter as the one that appeared 3 letters ago.),R,space,,,,,,,,,0,3,3,3,0,3,3,3,,,,,,,,,,,,,,,,,,,,,,,,,,,,,,,,,,,,,,,,,,,,,,,,,,,,,,,,,,,,,,,,,,,,,1.0844,572.5087688001804,None,None,0,572.5087688001804,None,,P008,fencog,2,Pre,2021_Aug_06_1212,N-Back (New Version 2021),2021.1.4,120.22019536302781,
,,,,Conditions/Version_1/threeback(1)_v1.xlsx,New rule: Press 'space' when you see 3-back (i.e. the same letter as the one that appeared 3 letters ago.),p,None,,,,,,,,,0,3,3,3,0,4,4,4,,,,,,,,,,,,,,,,,,,,,,,,,,,,,,,,,,,,,,,,,,,,,,,,,,,,,,,,,,,,,,,,,,,,,1.0472,575.5655880002305,None,space,0,575.5655880002305,None,1.3208349999040365,P008,fencog,2,Pre,2021_Aug_06_1212,N-Back (New Version 2021),2021.1.4,120.22019536302781,
,,,,Conditions/Version_1/threeback(1)_v1.xlsx,New rule: Press 'space' when you see 3-back (i.e. the same letter as the one that appeared 3 letters ago.),E,None,,,,,,,,,0,3,3,3,0,5,5,5,,,,,,,,,,,,,,,,,,,,,,,,,,,,,,,,,,,,,,,,,,,,,,,,,,,,,,,,,,,,,,,,,,,,,1.4564,579.0313021000475,None,None,1,579.0313021000475,None,,P008,fencog,2,Pre,2021_Aug_06_1212,N-Back (New Version 2021),2021.1.4,120.22019536302781,
,,,,Conditions/Version_1/threeback(1)_v1.xlsx,New rule: Press 'space' when you see 3-back (i.e. the same letter as the one that appeared 3 letters ago.),e,None,,,,,,,,,0,3,3,3,0,6,6,6,,,,,,,,,,,,,,,,,,,,,,,,,,,,,,,,,,,,,,,,,,,,,,,,,,,,,,,,,,,,,,,,,,,,,1.6486,582.6895583001897,None,space,0,582.6895583001897,None,1.132739800028503,P008,fencog,2,Pre,2021_Aug_06_1212,N-Back (New Version 2021),2021.1.4,120.22019536302781,
,,,,Conditions/Version_1/threeback(1)_v1.xlsx,New rule: Press 'space' when you see 3-back (i.e. the same letter as the one that appeared 3 letters ago.),m,None,,,,,,,,,0,3,3,3,0,7,7,7,,,,,,,,,,,,,,,,,,,,,,,,,,,,,,,,,,,,,,,,,,,,,,,,,,,,,,,,,,,,,,,,,,,,,1.506,586.2039840999059,None,None,1,586.2039840999059,None,,P008,fencog,2,Pre,2021_Aug_06_1212,N-Back (New Version 2021),2021.1.4,120.22019536302781,
,,,,Conditions/Version_1/threeback(1)_v1.xlsx,New rule: Press 'space' when you see 3-back (i.e. the same letter as the one that appeared 3 letters ago.),n,None,,,,,,,,,0,3,3,3,0,8,8,8,,,,,,,,,,,,,,,,,,,,,,,,,,,,,,,,,,,,,,,,,,,,,,,,,,,,,,,,,,,,,,,,,,,,,1.5184,589.7371789002791,None,None,1,589.7371789002791,None,,P008,fencog,2,Pre,2021_Aug_06_1212,N-Back (New Version 2021),2021.1.4,120.22019536302781,
,,,,Conditions/Version_1/threeback(1)_v1.xlsx,New rule: Press 'space' when you see 3-back (i.e. the same letter as the one that appeared 3 letters ago.),e,space,,,,,,,,,0,3,3,3,0,9,9,9,,,,,,,,,,,,,,,,,,,,,,,,,,,,,,,,,,,,,,,,,,,,,,,,,,,,,,,,,,,,,,,,,,,,,1.3262,593.0759479999542,None,space,1,593.0759479999542,None,0.9223938998766243,P008,fencog,2,Pre,2021_Aug_06_1212,N-Back (New Version 2021),2021.1.4,120.22019536302781,
,,,,Conditions/Version_1/threeback(1)_v1.xlsx,New rule: Press 'space' when you see 3-back (i.e. the same letter as the one that appeared 3 letters ago.),,,,,,,,,,,0,3,3,3,,,,,,,,,,,,,,,,,,,,,,,,,,,,,,,,,,,,,,,,,,,,,,,,,,,,,,,,,,,,,,,,,,,,,,,,,,,,,,,,,P008,fencog,2,Pre,2021_Aug_06_1212,N-Back (New Version 2021),2021.1.4,120.22019536302781,
,,,,Conditions/Version_1/oneback(2)_v1.xlsx,New rule: Press 'space' when you see 1-back (i.e. the same letter as the one that appeared 1 letter ago.),q,None,,,,,,,,,0,4,4,4,0,0,0,0,,,,,,,,,,,,,,,,,,,,,,,,,,,,,,,,,,,,,,,,,,,,,,,,,,,,,,,,,,,595.1001852001064,None,598.0855165002868,None,space,1.4967239000834525,598.0855165002868,None,595.1001852001064,None,1.3882,601.0089970999397,None,None,1,601.0089970999397,None,,P008,fencog,2,Pre,2021_Aug_06_1212,N-Back (New Version 2021),2021.1.4,120.22019536302781,
,,,,Conditions/Version_1/oneback(2)_v1.xlsx,New rule: Press 'space' when you see 1-back (i.e. the same letter as the one that appeared 1 letter ago.),Q,space,,,,,,,,,0,4,4,4,0,1,1,1,,,,,,,,,,,,,,,,,,,,,,,,,,,,,,,,,,,,,,,,,,,,,,,,,,,,,,,,,,,,,,,,,,,,,1.7416,604.7577949999832,None,None,0,604.7577949999832,None,,P008,fencog,2,Pre,2021_Aug_06_1212,N-Back (New Version 2021),2021.1.4,120.22019536302781,
,,,,Conditions/Version_1/oneback(2)_v1.xlsx,New rule: Press 'space' when you see 1-back (i.e. the same letter as the one that appeared 1 letter ago.),P,None,,,,,,,,,0,4,4,4,0,2,2,2,,,,,,,,,,,,,,,,,,,,,,,,,,,,,,,,,,,,,,,,,,,,,,,,,,,,,,,,,,,,,,,,,,,,,1.1526,607.9140468998812,None,None,1,607.9140468998812,None,,P008,fencog,2,Pre,2021_Aug_06_1212,N-Back (New Version 2021),2021.1.4,120.22019536302781,
,,,,Conditions/Version_1/oneback(2)_v1.xlsx,New rule: Press 'space' when you see 1-back (i.e. the same letter as the one that appeared 1 letter ago.),o,None,,,,,,,,,0,4,4,4,0,3,3,3,,,,,,,,,,,,,,,,,,,,,,,,,,,,,,,,,,,,,,,,,,,,,,,,,,,,,,,,,,,,,,,,,,,,,1.661,611.5881341998465,None,None,1,611.5881341998465,None,,P008,fencog,2,Pre,2021_Aug_06_1212,N-Back (New Version 2021),2021.1.4,120.22019536302781,
,,,,Conditions/Version_1/oneback(2)_v1.xlsx,New rule: Press 'space' when you see 1-back (i.e. the same letter as the one that appeared 1 letter ago.),m,None,,,,,,,,,0,4,4,4,0,4,4,4,,,,,,,,,,,,,,,,,,,,,,,,,,,,,,,,,,,,,,,,,,,,,,,,,,,,,,,,,,,,,,,,,,,,,1.5866,615.1777701000683,None,None,1,615.1777701000683,None,,P008,fencog,2,Pre,2021_Aug_06_1212,N-Back (New Version 2021),2021.1.4,120.22019536302781,
,,,,Conditions/Version_1/oneback(2)_v1.xlsx,New rule: Press 'space' when you see 1-back (i.e. the same letter as the one that appeared 1 letter ago.),Z,None,,,,,,,,,0,4,4,4,0,5,5,5,,,,,,,,,,,,,,,,,,,,,,,,,,,,,,,,,,,,,,,,,,,,,,,,,,,,,,,,,,,,,,,,,,,,,1.8718,619.0565837002359,None,None,1,619.0565837002359,None,,P008,fencog,2,Pre,2021_Aug_06_1212,N-Back (New Version 2021),2021.1.4,120.22019536302781,
,,,,Conditions/Version_1/oneback(2)_v1.xlsx,New rule: Press 'space' when you see 1-back (i.e. the same letter as the one that appeared 1 letter ago.),c,None,,,,,,,,,0,4,4,4,0,6,6,6,,,,,,,,,,,,,,,,,,,,,,,,,,,,,,,,,,,,,,,,,,,,,,,,,,,,,,,,,,,,,,,,,,,,,1.8036,622.86857829988,None,None,1,622.86857829988,None,,P008,fencog,2,Pre,2021_Aug_06_1212,N-Back (New Version 2021),2021.1.4,120.22019536302781,
,,,,Conditions/Version_1/oneback(2)_v1.xlsx,New rule: Press 'space' when you see 1-back (i.e. the same letter as the one that appeared 1 letter ago.),c,space,,,,,,,,,0,4,4,4,0,7,7,7,,,,,,,,,,,,,,,,,,,,,,,,,,,,,,,,,,,,,,,,,,,,,,,,,,,,,,,,,,,,,,,,,,,,,1.444,626.3251585001126,None,space,1,626.3251585001126,None,0.4090634002350271,P008,fencog,2,Pre,2021_Aug_06_1212,N-Back (New Version 2021),2021.1.4,120.22019536302781,
,,,,Conditions/Version_1/oneback(2)_v1.xlsx,New rule: Press 'space' when you see 1-back (i.e. the same letter as the one that appeared 1 letter ago.),P,None,,,,,,,,,0,4,4,4,0,8,8,8,,,,,,,,,,,,,,,,,,,,,,,,,,,,,,,,,,,,,,,,,,,,,,,,,,,,,,,,,,,,,,,,,,,,,1.6486,629.9834906999022,None,None,1,629.9834906999022,None,,P008,fencog,2,Pre,2021_Aug_06_1212,N-Back (New Version 2021),2021.1.4,120.22019536302781,
,,,,Conditions/Version_1/oneback(2)_v1.xlsx,New rule: Press 'space' when you see 1-back (i.e. the same letter as the one that appeared 1 letter ago.),p,space,,,,,,,,,0,4,4,4,0,9,9,9,,,,,,,,,,,,,,,,,,,,,,,,,,,,,,,,,,,,,,,,,,,,,,,,,,,,,,,,,,,,,,,,,,,,,1.599,633.5911556002684,None,space,1,633.5911556002684,None,0.6791856000199914,P008,fencog,2,Pre,2021_Aug_06_1212,N-Back (New Version 2021),2021.1.4,120.22019536302781,
,,,,Conditions/Version_1/oneback(2)_v1.xlsx,New rule: Press 'space' when you see 1-back (i.e. the same letter as the one that appeared 1 letter ago.),,,,,,,,,,,0,4,4,4,,,,,,,,,,,,,,,,,,,,,,,,,,,,,,,,,,,,,,,,,,,,,,,,,,,,,,,,,,,,,,,,,,,,,,,,,,,,,,,,,P008,fencog,2,Pre,2021_Aug_06_1212,N-Back (New Version 2021),2021.1.4,120.22019536302781,
,,,,Conditions/Version_1/zeroback(2)_v1.xlsx,New rule: Press 'space' when you see the letter 'x' or 'X'.,p,None,,,,,,,,,0,5,5,5,0,0,0,0,,,,,,,,,,,,,,,,,,,,,,,,,,,,,,,,,,,,,,,,,,,,,,,,,,,,,,,,,,,635.6159190000035,None,638.5991978999227,None,space,6.343095299787819,638.5991978999227,None,635.6159190000035,None,1.3448,646.3102444000542,None,None,1,646.3102444000542,None,,P008,fencog,2,Pre,2021_Aug_06_1212,N-Back (New Version 2021),2021.1.4,120.22019536302781,
,,,,Conditions/Version_1/zeroback(2)_v1.xlsx,New rule: Press 'space' when you see the letter 'x' or 'X'.,L,None,,,,,,,,,0,5,5,5,0,1,1,1,,,,,,,,,,,,,,,,,,,,,,,,,,,,,,,,,,,,,,,,,,,,,,,,,,,,,,,,,,,,,,,,,,,,,1.0782,649.3939229999669,None,space,0,649.3939229999669,None,1.6763993999920785,P008,fencog,2,Pre,2021_Aug_06_1212,N-Back (New Version 2021),2021.1.4,120.22019536302781,
,,,,Conditions/Version_1/zeroback(2)_v1.xlsx,New rule: Press 'space' when you see the letter 'x' or 'X'.,G,None,,,,,,,,,0,5,5,5,0,2,2,2,,,,,,,,,,,,,,,,,,,,,,,,,,,,,,,,,,,,,,,,,,,,,,,,,,,,,,,,,,,,,,,,,,,,,1.2394,652.6452101999894,None,None,1,652.6452101999894,None,,P008,fencog,2,Pre,2021_Aug_06_1212,N-Back (New Version 2021),2021.1.4,120.22019536302781,
,,,,Conditions/Version_1/zeroback(2)_v1.xlsx,New rule: Press 'space' when you see the letter 'x' or 'X'.,y,None,,,,,,,,,0,5,5,5,0,3,3,3,,,,,,,,,,,,,,,,,,,,,,,,,,,,,,,,,,,,,,,,,,,,,,,,,,,,,,,,,,,,,,,,,,,,,1.9958,656.6507029999048,None,None,1,656.6507029999048,None,,P008,fencog,2,Pre,2021_Aug_06_1212,N-Back (New Version 2021),2021.1.4,120.22019536302781,
,,,,Conditions/Version_1/zeroback(2)_v1.xlsx,New rule: Press 'space' when you see the letter 'x' or 'X'.,Y,None,,,,,,,,,0,5,5,5,0,4,4,4,,,,,,,,,,,,,,,,,,,,,,,,,,,,,,,,,,,,,,,,,,,,,,,,,,,,,,,,,,,,,,,,,,,,,1.3944,660.0570586002432,None,None,1,660.0570586002432,None,,P008,fencog,2,Pre,2021_Aug_06_1212,N-Back (New Version 2021),2021.1.4,120.22019536302781,
,,,,Conditions/Version_1/zeroback(2)_v1.xlsx,New rule: Press 'space' when you see the letter 'x' or 'X'.,W,None,,,,,,,,,0,5,5,5,0,5,5,5,,,,,,,,,,,,,,,,,,,,,,,,,,,,,,,,,,,,,,,,,,,,,,,,,,,,,,,,,,,,,,,,,,,,,1.5556,663.6246326002292,None,None,1,663.6246326002292,None,,P008,fencog,2,Pre,2021_Aug_06_1212,N-Back (New Version 2021),2021.1.4,120.22019536302781,
,,,,Conditions/Version_1/zeroback(2)_v1.xlsx,New rule: Press 'space' when you see the letter 'x' or 'X'.,x,space,,,,,,,,,0,5,5,5,0,6,6,6,,,,,,,,,,,,,,,,,,,,,,,,,,,,,,,,,,,,,,,,,,,,,,,,,,,,,,,,,,,,,,,,,,,,,1.9028,667.5383096002042,None,space,1,667.5383096002042,None,0.4359510000795126,P008,fencog,2,Pre,2021_Aug_06_1212,N-Back (New Version 2021),2021.1.4,120.22019536302781,
,,,,Conditions/Version_1/zeroback(2)_v1.xlsx,New rule: Press 'space' when you see the letter 'x' or 'X'.,X,space,,,,,,,,,0,5,5,5,0,7,7,7,,,,,,,,,,,,,,,,,,,,,,,,,,,,,,,,,,,,,,,,,,,,,,,,,,,,,,,,,,,,,,,,,,,,,1.94,671.488519300241,None,space,1,671.488519300241,None,0.6378154000267386,P008,fencog,2,Pre,2021_Aug_06_1212,N-Back (New Version 2021),2021.1.4,120.22019536302781,
,,,,Conditions/Version_1/zeroback(2)_v1.xlsx,New rule: Press 'space' when you see the letter 'x' or 'X'.,p,None,,,,,,,,,0,5,5,5,0,8,8,8,,,,,,,,,,,,,,,,,,,,,,,,,,,,,,,,,,,,,,,,,,,,,,,,,,,,,,,,,,,,,,,,,,,,,1.5184,675.0180517998524,None,None,1,675.0180517998524,None,,P008,fencog,2,Pre,2021_Aug_06_1212,N-Back (New Version 2021),2021.1.4,120.22019536302781,
,,,,Conditions/Version_1/zeroback(2)_v1.xlsx,New rule: Press 'space' when you see the letter 'x' or 'X'.,h,None,,,,,,,,,0,5,5,5,0,9,9,9,,,,,,,,,,,,,,,,,,,,,,,,,,,,,,,,,,,,,,,,,,,,,,,,,,,,,,,,,,,,,,,,,,,,,1.5928,678.6187315001152,None,None,1,678.6187315001152,None,,P008,fencog,2,Pre,2021_Aug_06_1212,N-Back (New Version 2021),2021.1.4,120.22019536302781,
,,,,Conditions/Version_1/zeroback(2)_v1.xlsx,New rule: Press 'space' when you see the letter 'x' or 'X'.,,,,,,,,,,,0,5,5,5,,,,,,,,,,,,,,,,,,,,,,,,,,,,,,,,,,,,,,,,,,,,,,,,,,,,,,,,,,,,,,,,,,,,,,,,,,,,,,,,,P008,fencog,2,Pre,2021_Aug_06_1212,N-Back (New Version 2021),2021.1.4,120.22019536302781,
,,,,Conditions/Version_1/threeback(2)_v1.xlsx,New rule: Press 'space' when you see 3-back (i.e. the same letter as the one that appeared 3 letters ago.),q,None,,,,,,,,,0,6,6,6,0,0,0,0,,,,,,,,,,,,,,,,,,,,,,,,,,,,,,,,,,,,,,,,,,,,,,,,,,,,,,,,,,,680.6493871998973,None,683.6346733998507,None,space,0.9878935003653169,683.6346733998507,None,680.6493871998973,None,1.3448,685.9921202003025,None,None,1,685.9921202003025,None,,P008,fencog,2,Pre,2021_Aug_06_1212,N-Back (New Version 2021),2021.1.4,120.22019536302781,
,,,,Conditions/Version_1/threeback(2)_v1.xlsx,New rule: Press 'space' when you see 3-back (i.e. the same letter as the one that appeared 3 letters ago.),Y,None,,,,,,,,,0,6,6,6,0,1,1,1,,,,,,,,,,,,,,,,,,,,,,,,,,,,,,,,,,,,,,,,,,,,,,,,,,,,,,,,,,,,,,,,,,,,,1.1526,689.157821000088,None,None,1,689.157821000088,None,,P008,fencog,2,Pre,2021_Aug_06_1212,N-Back (New Version 2021),2021.1.4,120.22019536302781,
,,,,Conditions/Version_1/threeback(2)_v1.xlsx,New rule: Press 'space' when you see 3-back (i.e. the same letter as the one that appeared 3 letters ago.),p,None,,,,,,,,,0,6,6,6,0,2,2,2,,,,,,,,,,,,,,,,,,,,,,,,,,,,,,,,,,,,,,,,,,,,,,,,,,,,,,,,,,,,,,,,,,,,,1.227,692.3991474001668,None,None,1,692.3991474001668,None,,P008,fencog,2,Pre,2021_Aug_06_1212,N-Back (New Version 2021),2021.1.4,120.22019536302781,
,,,,Conditions/Version_1/threeback(2)_v1.xlsx,New rule: Press 'space' when you see 3-back (i.e. the same letter as the one that appeared 3 letters ago.),p,None,,,,,,,,,0,6,6,6,0,3,3,3,,,,,,,,,,,,,,,,,,,,,,,,,,,,,,,,,,,,,,,,,,,,,,,,,,,,,,,,,,,,,,,,,,,,,1.8408,696.245328000281,None,None,1,696.245328000281,None,,P008,fencog,2,Pre,2021_Aug_06_1212,N-Back (New Version 2021),2021.1.4,120.22019536302781,
,,,,Conditions/Version_1/threeback(2)_v1.xlsx,New rule: Press 'space' when you see 3-back (i.e. the same letter as the one that appeared 3 letters ago.),y,space,,,,,,,,,0,6,6,6,0,4,4,4,,,,,,,,,,,,,,,,,,,,,,,,,,,,,,,,,,,,,,,,,,,,,,,,,,,,,,,,,,,,,,,,,,,,,1.1898,699.4379838001914,None,None,0,699.4379838001914,None,,P008,fencog,2,Pre,2021_Aug_06_1212,N-Back (New Version 2021),2021.1.4,120.22019536302781,
,,,,Conditions/Version_1/threeback(2)_v1.xlsx,New rule: Press 'space' when you see 3-back (i.e. the same letter as the one that appeared 3 letters ago.),u,None,,,,,,,,,0,6,6,6,0,5,5,5,,,,,,,,,,,,,,,,,,,,,,,,,,,,,,,,,,,,,,,,,,,,,,,,,,,,,,,,,,,,,,,,,,,,,1.0844,702.537785100285,None,None,1,702.537785100285,None,,P008,fencog,2,Pre,2021_Aug_06_1212,N-Back (New Version 2021),2021.1.4,120.22019536302781,
,,,,Conditions/Version_1/threeback(2)_v1.xlsx,New rule: Press 'space' when you see 3-back (i.e. the same letter as the one that appeared 3 letters ago.),P,space,,,,,,,,,0,6,6,6,0,6,6,6,,,,,,,,,,,,,,,,,,,,,,,,,,,,,,,,,,,,,,,,,,,,,,,,,,,,,,,,,,,,,,,,,,,,,1.0534,705.6030977000482,None,None,0,705.6030977000482,None,,P008,fencog,2,Pre,2021_Aug_06_1212,N-Back (New Version 2021),2021.1.4,120.22019536302781,
,,,,Conditions/Version_1/threeback(2)_v1.xlsx,New rule: Press 'space' when you see 3-back (i.e. the same letter as the one that appeared 3 letters ago.),a,None,,,,,,,,,0,6,6,6,0,7,7,7,,,,,,,,,,,,,,,,,,,,,,,,,,,,,,,,,,,,,,,,,,,,,,,,,,,,,,,,,,,,,,,,,,,,,1.6238,709.2339615002275,None,None,1,709.2339615002275,None,,P008,fencog,2,Pre,2021_Aug_06_1212,N-Back (New Version 2021),2021.1.4,120.22019536302781,
,,,,Conditions/Version_1/threeback(2)_v1.xlsx,New rule: Press 'space' when you see 3-back (i.e. the same letter as the one that appeared 3 letters ago.),U,space,,,,,,,,,0,6,6,6,0,8,8,8,,,,,,,,,,,,,,,,,,,,,,,,,,,,,,,,,,,,,,,,,,,,,,,,,,,,,,,,,,,,,,,,,,,,,1.5122,712.7591718998738,None,None,0,712.7591718998738,None,,P008,fencog,2,Pre,2021_Aug_06_1212,N-Back (New Version 2021),2021.1.4,120.22019536302781,
,,,,Conditions/Version_1/threeback(2)_v1.xlsx,New rule: Press 'space' when you see 3-back (i.e. the same letter as the one that appeared 3 letters ago.),q,None,,,,,,,,,0,6,6,6,0,9,9,9,,,,,,,,,,,,,,,,,,,,,,,,,,,,,,,,,,,,,,,,,,,,,,,,,,,,,,,,,,,,,,,,,,,,,1.0968,715.8645497001708,None,None,1,715.8645497001708,None,,P008,fencog,2,Pre,2021_Aug_06_1212,N-Back (New Version 2021),2021.1.4,120.22019536302781,
,,,,Conditions/Version_1/threeback(2)_v1.xlsx,New rule: Press 'space' when you see 3-back (i.e. the same letter as the one that appeared 3 letters ago.),,,,,,,,,,,0,6,6,6,,,,,,,,,,,,,,,,,,,,,,,,,,,,,,,,,,,,,,,,,,,,,,,,,,,,,,,,,,,,,,,,,,,,,,,,,,,,,,,,,P008,fencog,2,Pre,2021_Aug_06_1212,N-Back (New Version 2021),2021.1.4,120.22019536302781,
,,,,Conditions/Version_1/twoback(2)_v1.xlsx,New rule: Press 'space' when you see 2-back (i.e. the same letter as the one that appeared 2 letters ago.),q,None,,,,,,,,,0,7,7,7,0,0,0,0,,,,,,,,,,,,,,,,,,,,,,,,,,,,,,,,,,,,,,,,,,,,,,,,,,,,,,,,,,,717.8898010998964,None,720.8737226999365,None,space,2.4123945999890566,720.8737226999365,None,717.8898010998964,None,1.8408,725.1543922000565,None,None,1,725.1543922000565,None,,P008,fencog,2,Pre,2021_Aug_06_1212,N-Back (New Version 2021),2021.1.4,120.22019536302781,
,,,,Conditions/Version_1/twoback(2)_v1.xlsx,New rule: Press 'space' when you see 2-back (i.e. the same letter as the one that appeared 2 letters ago.),r,None,,,,,,,,,0,7,7,7,0,1,1,1,,,,,,,,,,,,,,,,,,,,,,,,,,,,,,,,,,,,,,,,,,,,,,,,,,,,,,,,,,,,,,,,,,,,,1.2642,728.42810619995,None,None,1,728.42810619995,None,,P008,fencog,2,Pre,2021_Aug_06_1212,N-Back (New Version 2021),2021.1.4,120.22019536302781,
,,,,Conditions/Version_1/twoback(2)_v1.xlsx,New rule: Press 'space' when you see 2-back (i.e. the same letter as the one that appeared 2 letters ago.),q,space,,,,,,,,,0,7,7,7,0,2,2,2,,,,,,,,,,,,,,,,,,,,,,,,,,,,,,,,,,,,,,,,,,,,,,,,,,,,,,,,,,,,,,,,,,,,,1.785,732.2285545999184,None,space,1,732.2285545999184,None,0.601915099658072,P008,fencog,2,Pre,2021_Aug_06_1212,N-Back (New Version 2021),2021.1.4,120.22019536302781,
,,,,Conditions/Version_1/twoback(2)_v1.xlsx,New rule: Press 'space' when you see 2-back (i.e. the same letter as the one that appeared 2 letters ago.),P,None,,,,,,,,,0,7,7,7,0,3,3,3,,,,,,,,,,,,,,,,,,,,,,,,,,,,,,,,,,,,,,,,,,,,,,,,,,,,,,,,,,,,,,,,,,,,,1.32,735.5598593000323,None,None,1,735.5598593000323,None,,P008,fencog,2,Pre,2021_Aug_06_1212,N-Back (New Version 2021),2021.1.4,120.22019536302781,
,,,,Conditions/Version_1/twoback(2)_v1.xlsx,New rule: Press 'space' when you see 2-back (i.e. the same letter as the one that appeared 2 letters ago.),p,None,,,,,,,,,0,7,7,7,0,4,4,4,,,,,,,,,,,,,,,,,,,,,,,,,,,,,,,,,,,,,,,,,,,,,,,,,,,,,,,,,,,,,,,,,,,,,1.0906,738.6589453001507,None,None,1,738.6589453001507,None,,P008,fencog,2,Pre,2021_Aug_06_1212,N-Back (New Version 2021),2021.1.4,120.22019536302781,
,,,,Conditions/Version_1/twoback(2)_v1.xlsx,New rule: Press 'space' when you see 2-back (i.e. the same letter as the one that appeared 2 letters ago.),H,None,,,,,,,,,0,7,7,7,0,5,5,5,,,,,,,,,,,,,,,,,,,,,,,,,,,,,,,,,,,,,,,,,,,,,,,,,,,,,,,,,,,,,,,,,,,,,1.909,742.5835715001449,None,None,1,742.5835715001449,None,,P008,fencog,2,Pre,2021_Aug_06_1212,N-Back (New Version 2021),2021.1.4,120.22019536302781,
,,,,Conditions/Version_1/twoback(2)_v1.xlsx,New rule: Press 'space' when you see 2-back (i.e. the same letter as the one that appeared 2 letters ago.),g,None,,,,,,,,,0,7,7,7,0,6,6,6,,,,,,,,,,,,,,,,,,,,,,,,,,,,,,,,,,,,,,,,,,,,,,,,,,,,,,,,,,,,,,,,,,,,,1.0162,745.6058326000348,None,None,1,745.6058326000348,None,,P008,fencog,2,Pre,2021_Aug_06_1212,N-Back (New Version 2021),2021.1.4,120.22019536302781,
,,,,Conditions/Version_1/twoback(2)_v1.xlsx,New rule: Press 'space' when you see 2-back (i.e. the same letter as the one that appeared 2 letters ago.),j,None,,,,,,,,,0,7,7,7,0,7,7,7,,,,,,,,,,,,,,,,,,,,,,,,,,,,,,,,,,,,,,,,,,,,,,,,,,,,,,,,,,,,,,,,,,,,,1.568,749.1804788000882,None,None,1,749.1804788000882,None,,P008,fencog,2,Pre,2021_Aug_06_1212,N-Back (New Version 2021),2021.1.4,120.22019536302781,
,,,,Conditions/Version_1/twoback(2)_v1.xlsx,New rule: Press 'space' when you see 2-back (i.e. the same letter as the one that appeared 2 letters ago.),g,space,,,,,,,,,0,7,7,7,0,8,8,8,,,,,,,,,,,,,,,,,,,,,,,,,,,,,,,,,,,,,,,,,,,,,,,,,,,,,,,,,,,,,,,,,,,,,1.4688,752.6536453999579,None,space,1,752.6536453999579,None,0.6488978997804224,P008,fencog,2,Pre,2021_Aug_06_1212,N-Back (New Version 2021),2021.1.4,120.22019536302781,
,,,,Conditions/Version_1/twoback(2)_v1.xlsx,New rule: Press 'space' when you see 2-back (i.e. the same letter as the one that appeared 2 letters ago.),G,None,,,,,,,,,0,7,7,7,0,9,9,9,,,,,,,,,,,,,,,,,,,,,,,,,,,,,,,,,,,,,,,,,,,,,,,,,,,,,,,,,,,,,,,,,,,,,1.1402,755.7964868000709,None,None,1,755.7964868000709,None,,P008,fencog,2,Pre,2021_Aug_06_1212,N-Back (New Version 2021),2021.1.4,120.22019536302781,
,,,,Conditions/Version_1/twoback(2)_v1.xlsx,New rule: Press 'space' when you see 2-back (i.e. the same letter as the one that appeared 2 letters ago.),,,,,,,,,,,0,7,7,7,,,,,,,,,,,,,,,,,,,,,,,,,,,,,,,,,,,,,,,,,,,,,,,,,,,,,,,,,,,,,,,,,,,,,,,,,,,,,,,,,P008,fencog,2,Pre,2021_Aug_06_1212,N-Back (New Version 2021),2021.1.4,120.22019536302781,
,,,,Conditions/Version_1/threeback(3)_v1.xlsx,New rule: Press 'space' when you see 3-back (i.e. the same letter as the one that appeared 3 letters ago.),w,None,,,,,,,,,0,8,8,8,0,0,0,0,,,,,,,,,,,,,,,,,,,,,,,,,,,,,,,,,,,,,,,,,,,,,,,,,,,,,,,,,,,757.8312427001074,None,760.8203926002607,None,space,3.8684998000971973,760.8203926002607,None,757.8312427001074,None,1.2952,766.0093237999827,None,None,1,766.0093237999827,None,,P008,fencog,2,Pre,2021_Aug_06_1212,N-Back (New Version 2021),2021.1.4,120.22019536302781,
,,,,Conditions/Version_1/threeback(3)_v1.xlsx,New rule: Press 'space' when you see 3-back (i.e. the same letter as the one that appeared 3 letters ago.),p,None,,,,,,,,,0,8,8,8,0,1,1,1,,,,,,,,,,,,,,,,,,,,,,,,,,,,,,,,,,,,,,,,,,,,,,,,,,,,,,,,,,,,,,,,,,,,,1.8718,769.8901764000766,None,None,1,769.8901764000766,None,,P008,fencog,2,Pre,2021_Aug_06_1212,N-Back (New Version 2021),2021.1.4,120.22019536302781,
,,,,Conditions/Version_1/threeback(3)_v1.xlsx,New rule: Press 'space' when you see 3-back (i.e. the same letter as the one that appeared 3 letters ago.),P,None,,,,,,,,,0,8,8,8,0,2,2,2,,,,,,,,,,,,,,,,,,,,,,,,,,,,,,,,,,,,,,,,,,,,,,,,,,,,,,,,,,,,,,,,,,,,,1.3324,773.2237360002473,None,None,1,773.2237360002473,None,,P008,fencog,2,Pre,2021_Aug_06_1212,N-Back (New Version 2021),2021.1.4,120.22019536302781,
,,,,Conditions/Version_1/threeback(3)_v1.xlsx,New rule: Press 'space' when you see 3-back (i.e. the same letter as the one that appeared 3 letters ago.),i,None,,,,,,,,,0,8,8,8,0,3,3,3,,,,,,,,,,,,,,,,,,,,,,,,,,,,,,,,,,,,,,,,,,,,,,,,,,,,,,,,,,,,,,,,,,,,,1.63,776.863116200082,None,None,1,776.863116200082,None,,P008,fencog,2,Pre,2021_Aug_06_1212,N-Back (New Version 2021),2021.1.4,120.22019536302781,
,,,,Conditions/Version_1/threeback(3)_v1.xlsx,New rule: Press 'space' when you see 3-back (i.e. the same letter as the one that appeared 3 letters ago.),f,None,,,,,,,,,0,8,8,8,0,4,4,4,,,,,,,,,,,,,,,,,,,,,,,,,,,,,,,,,,,,,,,,,,,,,,,,,,,,,,,,,,,,,,,,,,,,,1.9028,780.7728372998536,None,None,1,780.7728372998536,None,,P008,fencog,2,Pre,2021_Aug_06_1212,N-Back (New Version 2021),2021.1.4,120.22019536302781,
,,,,Conditions/Version_1/threeback(3)_v1.xlsx,New rule: Press 'space' when you see 3-back (i.e. the same letter as the one that appeared 3 letters ago.),o,None,,,,,,,,,0,8,8,8,0,5,5,5,,,,,,,,,,,,,,,,,,,,,,,,,,,,,,,,,,,,,,,,,,,,,,,,,,,,,,,,,,,,,,,,,,,,,1.1216,783.9046912002377,None,None,1,783.9046912002377,None,,P008,fencog,2,Pre,2021_Aug_06_1212,N-Back (New Version 2021),2021.1.4,120.22019536302781,
,,,,Conditions/Version_1/threeback(3)_v1.xlsx,New rule: Press 'space' when you see 3-back (i.e. the same letter as the one that appeared 3 letters ago.),w,None,,,,,,,,,0,8,8,8,0,6,6,6,,,,,,,,,,,,,,,,,,,,,,,,,,,,,,,,,,,,,,,,,,,,,,,,,,,,,,,,,,,,,,,,,,,,,1.9462,787.8610864998773,None,None,1,787.8610864998773,None,,P008,fencog,2,Pre,2021_Aug_06_1212,N-Back (New Version 2021),2021.1.4,120.22019536302781,
,,,,Conditions/Version_1/threeback(3)_v1.xlsx,New rule: Press 'space' when you see 3-back (i.e. the same letter as the one that appeared 3 letters ago.),F,space,,,,,,,,,0,8,8,8,0,7,7,7,,,,,,,,,,,,,,,,,,,,,,,,,,,,,,,,,,,,,,,,,,,,,,,,,,,,,,,,,,,,,,,,,,,,,1.8594,791.7350754998624,None,None,0,791.7350754998624,None,,P008,fencog,2,Pre,2021_Aug_06_1212,N-Back (New Version 2021),2021.1.4,120.22019536302781,
,,,,Conditions/Version_1/threeback(3)_v1.xlsx,New rule: Press 'space' when you see 3-back (i.e. the same letter as the one that appeared 3 letters ago.),p,None,,,,,,,,,0,8,8,8,0,8,8,8,,,,,,,,,,,,,,,,,,,,,,,,,,,,,,,,,,,,,,,,,,,,,,,,,,,,,,,,,,,,,,,,,,,,,1.3758,795.1262413999066,None,None,1,795.1262413999066,None,,P008,fencog,2,Pre,2021_Aug_06_1212,N-Back (New Version 2021),2021.1.4,120.22019536302781,
,,,,Conditions/Version_1/threeback(3)_v1.xlsx,New rule: Press 'space' when you see 3-back (i.e. the same letter as the one that appeared 3 letters ago.),W,space,,,,,,,,,0,8,8,8,0,9,9,9,,,,,,,,,,,,,,,,,,,,,,,,,,,,,,,,,,,,,,,,,,,,,,,,,,,,,,,,,,,,,,,,,,,,,1.4998,798.6317568002269,None,space,1,798.6317568002269,None,1.9184709000401199,P008,fencog,2,Pre,2021_Aug_06_1212,N-Back (New Version 2021),2021.1.4,120.22019536302781,
,,,,Conditions/Version_1/threeback(3)_v1.xlsx,New rule: Press 'space' when you see 3-back (i.e. the same letter as the one that appeared 3 letters ago.),,,,,,,,,,,0,8,8,8,,,,,,,,,,,,,,,,,,,,,,,,,,,,,,,,,,,,,,,,,,,,,,,,,,,,,,,,,,,,,,,,,,,,,,,,,,,,,,,,,P008,fencog,2,Pre,2021_Aug_06_1212,N-Back (New Version 2021),2021.1.4,120.22019536302781,
,,,,Conditions/Version_1/zeroback(3)_v1.xlsx,New rule: Press 'space' when you see the letter 'x' or 'X'.,X,space,,,,,,,,,0,9,9,9,0,0,0,0,,,,,,,,,,,,,,,,,,,,,,,,,,,,,,,,,,,,,,,,,,,,,,,,,,,,,,,,,,,800.6667122999206,None,803.649909700267,None,space,13.46818510023877,803.649909700267,None,800.6667122999206,None,1.0906,818.2271886998788,None,space,1,818.2271886998788,None,0.7389517002739012,P008,fencog,2,Pre,2021_Aug_06_1212,N-Back (New Version 2021),2021.1.4,120.22019536302781,
,,,,Conditions/Version_1/zeroback(3)_v1.xlsx,New rule: Press 'space' when you see the letter 'x' or 'X'.,B,None,,,,,,,,,0,9,9,9,0,1,1,1,,,,,,,,,,,,,,,,,,,,,,,,,,,,,,,,,,,,,,,,,,,,,,,,,,,,,,,,,,,,,,,,,,,,,1.9586,822.20034640003,None,None,1,822.20034640003,None,,P008,fencog,2,Pre,2021_Aug_06_1212,N-Back (New Version 2021),2021.1.4,120.22019536302781,
,,,,Conditions/Version_1/zeroback(3)_v1.xlsx,New rule: Press 'space' when you see the letter 'x' or 'X'.,m,None,,,,,,,,,0,9,9,9,0,2,2,2,,,,,,,,,,,,,,,,,,,,,,,,,,,,,,,,,,,,,,,,,,,,,,,,,,,,,,,,,,,,,,,,,,,,,1.9772,826.1932461000979,None,None,1,826.1932461000979,None,,P008,fencog,2,Pre,2021_Aug_06_1212,N-Back (New Version 2021),2021.1.4,120.22019536302781,
,,,,Conditions/Version_1/zeroback(3)_v1.xlsx,New rule: Press 'space' when you see the letter 'x' or 'X'.,m,None,,,,,,,,,0,9,9,9,0,3,3,3,,,,,,,,,,,,,,,,,,,,,,,,,,,,,,,,,,,,,,,,,,,,,,,,,,,,,,,,,,,,,,,,,,,,,1.4192,829.6227164999582,None,None,1,829.6227164999582,None,,P008,fencog,2,Pre,2021_Aug_06_1212,N-Back (New Version 2021),2021.1.4,120.22019536302781,
,,,,Conditions/Version_1/zeroback(3)_v1.xlsx,New rule: Press 'space' when you see the letter 'x' or 'X'.,o,None,,,,,,,,,0,9,9,9,0,4,4,4,,,,,,,,,,,,,,,,,,,,,,,,,,,,,,,,,,,,,,,,,,,,,,,,,,,,,,,,,,,,,,,,,,,,,1.6982,833.3231508000754,None,None,1,833.3231508000754,None,,P008,fencog,2,Pre,2021_Aug_06_1212,N-Back (New Version 2021),2021.1.4,120.22019536302781,
,,,,Conditions/Version_1/zeroback(3)_v1.xlsx,New rule: Press 'space' when you see the letter 'x' or 'X'.,p,None,,,,,,,,,0,9,9,9,0,5,5,5,,,,,,,,,,,,,,,,,,,,,,,,,,,,,,,,,,,,,,,,,,,,,,,,,,,,,,,,,,,,,,,,,,,,,1.2952,836.6297229998745,None,None,1,836.6297229998745,None,,P008,fencog,2,Pre,2021_Aug_06_1212,N-Back (New Version 2021),2021.1.4,120.22019536302781,
,,,,Conditions/Version_1/zeroback(3)_v1.xlsx,New rule: Press 'space' when you see the letter 'x' or 'X'.,G,None,,,,,,,,,0,9,9,9,0,6,6,6,,,,,,,,,,,,,,,,,,,,,,,,,,,,,,,,,,,,,,,,,,,,,,,,,,,,,,,,,,,,,,,,,,,,,1.3634,840.0030125002377,None,None,1,840.0030125002377,None,,P008,fencog,2,Pre,2021_Aug_06_1212,N-Back (New Version 2021),2021.1.4,120.22019536302781,
,,,,Conditions/Version_1/zeroback(3)_v1.xlsx,New rule: Press 'space' when you see the letter 'x' or 'X'.,X,space,,,,,,,,,0,9,9,9,0,7,7,7,,,,,,,,,,,,,,,,,,,,,,,,,,,,,,,,,,,,,,,,,,,,,,,,,,,,,,,,,,,,,,,,,,,,,1.6114,843.6184383998625,None,space,1,843.6184383998625,None,0.6916522001847625,P008,fencog,2,Pre,2021_Aug_06_1212,N-Back (New Version 2021),2021.1.4,120.22019536302781,
,,,,Conditions/Version_1/zeroback(3)_v1.xlsx,New rule: Press 'space' when you see the letter 'x' or 'X'.,p,None,,,,,,,,,0,9,9,9,0,8,8,8,,,,,,,,,,,,,,,,,,,,,,,,,,,,,,,,,,,,,,,,,,,,,,,,,,,,,,,,,,,,,,,,,,,,,1.723,847.3436004002579,None,None,1,847.3436004002579,None,,P008,fencog,2,Pre,2021_Aug_06_1212,N-Back (New Version 2021),2021.1.4,120.22019536302781,
,,,,Conditions/Version_1/zeroback(3)_v1.xlsx,New rule: Press 'space' when you see the letter 'x' or 'X'.,x,space,,,,,,,,,0,9,9,9,0,9,9,9,,,,,,,,,,,,,,,,,,,,,,,,,,,,,,,,,,,,,,,,,,,,,,,,,,,,,,,,,,,,,,,,,,,,,1.8036,851.1605302002281,None,space,1,851.1605302002281,None,0.9895495995879173,P008,fencog,2,Pre,2021_Aug_06_1212,N-Back (New Version 2021),2021.1.4,120.22019536302781,
,,,,Conditions/Version_1/zeroback(3)_v1.xlsx,New rule: Press 'space' when you see the letter 'x' or 'X'.,,,,,,,,,,,0,9,9,9,,,,,,,,,,,,,,,,,,,,,,,,,,,,,,,,,,,,,,,,,,,,,,,,,,,,,,,,,,,,,,,,,,,,,,,,,,,,,,,,,P008,fencog,2,Pre,2021_Aug_06_1212,N-Back (New Version 2021),2021.1.4,120.22019536302781,
,,,,Conditions/Version_1/twoback(3)_v1.xlsx,New rule: Press 'space' when you see 2-back (i.e. the same letter as the one that appeared 2 letters ago.),e,None,,,,,,,,,0,10,10,10,0,0,0,0,,,,,,,,,,,,,,,,,,,,,,,,,,,,,,,,,,,,,,,,,,,,,,,,,,,,,,,,,,,853.1878630002029,None,856.1748315002769,None,space,4.775239000096917,856.1748315002769,None,853.1878630002029,None,1.4006,862.372695799917,None,None,1,862.372695799917,None,,P008,fencog,2,Pre,2021_Aug_06_1212,N-Back (New Version 2021),2021.1.4,120.22019536302781,
,,,,Conditions/Version_1/twoback(3)_v1.xlsx,New rule: Press 'space' when you see 2-back (i.e. the same letter as the one that appeared 2 letters ago.),o,None,,,,,,,,,0,10,10,10,0,1,1,1,,,,,,,,,,,,,,,,,,,,,,,,,,,,,,,,,,,,,,,,,,,,,,,,,,,,,,,,,,,,,,,,,,,,,1.847,866.2301548998803,None,None,1,866.2301548998803,None,,P008,fencog,2,Pre,2021_Aug_06_1212,N-Back (New Version 2021),2021.1.4,120.22019536302781,
,,,,Conditions/Version_1/twoback(3)_v1.xlsx,New rule: Press 'space' when you see 2-back (i.e. the same letter as the one that appeared 2 letters ago.),P,None,,,,,,,,,0,10,10,10,0,2,2,2,,,,,,,,,,,,,,,,,,,,,,,,,,,,,,,,,,,,,,,,,,,,,,,,,,,,,,,,,,,,,,,,,,,,,1.5122,869.7543271998875,None,None,1,869.7543271998875,None,,P008,fencog,2,Pre,2021_Aug_06_1212,N-Back (New Version 2021),2021.1.4,120.22019536302781,
,,,,Conditions/Version_1/twoback(3)_v1.xlsx,New rule: Press 'space' when you see 2-back (i.e. the same letter as the one that appeared 2 letters ago.),z,None,,,,,,,,,0,10,10,10,0,3,3,3,,,,,,,,,,,,,,,,,,,,,,,,,,,,,,,,,,,,,,,,,,,,,,,,,,,,,,,,,,,,,,,,,,,,,1.475,873.2385468999855,None,None,1,873.2385468999855,None,,P008,fencog,2,Pre,2021_Aug_06_1212,N-Back (New Version 2021),2021.1.4,120.22019536302781,
,,,,Conditions/Version_1/twoback(3)_v1.xlsx,New rule: Press 'space' when you see 2-back (i.e. the same letter as the one that appeared 2 letters ago.),X,None,,,,,,,,,0,10,10,10,0,4,4,4,,,,,,,,,,,,,,,,,,,,,,,,,,,,,,,,,,,,,,,,,,,,,,,,,,,,,,,,,,,,,,,,,,,,,1.444,876.6928304000758,None,None,1,876.6928304000758,None,,P008,fencog,2,Pre,2021_Aug_06_1212,N-Back (New Version 2021),2021.1.4,120.22019536302781,
,,,,Conditions/Version_1/twoback(3)_v1.xlsx,New rule: Press 'space' when you see 2-back (i.e. the same letter as the one that appeared 2 letters ago.),z,space,,,,,,,,,0,10,10,10,0,5,5,5,,,,,,,,,,,,,,,,,,,,,,,,,,,,,,,,,,,,,,,,,,,,,,,,,,,,,,,,,,,,,,,,,,,,,1.4502,880.1513495999388,None,space,1,880.1513495999388,None,0.5987097001634538,P008,fencog,2,Pre,2021_Aug_06_1212,N-Back (New Version 2021),2021.1.4,120.22019536302781,
,,,,Conditions/Version_1/twoback(3)_v1.xlsx,New rule: Press 'space' when you see 2-back (i.e. the same letter as the one that appeared 2 letters ago.),x,space,,,,,,,,,0,10,10,10,0,6,6,6,,,,,,,,,,,,,,,,,,,,,,,,,,,,,,,,,,,,,,,,,,,,,,,,,,,,,,,,,,,,,,,,,,,,,1.6362,883.798870800063,None,space,1,883.798870800063,None,1.2070900998078287,P008,fencog,2,Pre,2021_Aug_06_1212,N-Back (New Version 2021),2021.1.4,120.22019536302781,
,,,,Conditions/Version_1/twoback(3)_v1.xlsx,New rule: Press 'space' when you see 2-back (i.e. the same letter as the one that appeared 2 letters ago.),c,None,,,,,,,,,0,10,10,10,0,7,7,7,,,,,,,,,,,,,,,,,,,,,,,,,,,,,,,,,,,,,,,,,,,,,,,,,,,,,,,,,,,,,,,,,,,,,1.382,887.1890953001566,None,None,1,887.1890953001566,None,,P008,fencog,2,Pre,2021_Aug_06_1212,N-Back (New Version 2021),2021.1.4,120.22019536302781,
,,,,Conditions/Version_1/twoback(3)_v1.xlsx,New rule: Press 'space' when you see 2-back (i.e. the same letter as the one that appeared 2 letters ago.),i,None,,,,,,,,,0,10,10,10,0,8,8,8,,,,,,,,,,,,,,,,,,,,,,,,,,,,,,,,,,,,,,,,,,,,,,,,,,,,,,,,,,,,,,,,,,,,,1.1588,890.3462415002286,None,None,1,890.3462415002286,None,,P008,fencog,2,Pre,2021_Aug_06_1212,N-Back (New Version 2021),2021.1.4,120.22019536302781,
,,,,Conditions/Version_1/twoback(3)_v1.xlsx,New rule: Press 'space' when you see 2-back (i.e. the same letter as the one that appeared 2 letters ago.),C,space,,,,,,,,,0,10,10,10,0,9,9,9,,,,,,,,,,,,,,,,,,,,,,,,,,,,,,,,,,,,,,,,,,,,,,,,,,,,,,,,,,,,,,,,,,,,,1.8594,894.2147987000644,None,None,0,894.2147987000644,None,,P008,fencog,2,Pre,2021_Aug_06_1212,N-Back (New Version 2021),2021.1.4,120.22019536302781,
,,,,Conditions/Version_1/twoback(3)_v1.xlsx,New rule: Press 'space' when you see 2-back (i.e. the same letter as the one that appeared 2 letters ago.),,,,,,,,,,,0,10,10,10,,,,,,,,,,,,,,,,,,,,,,,,,,,,,,,,,,,,,,,,,,,,,,,,,,,,,,,,,,,,,,,,,,,,,,,,,,,,,,,,,P008,fencog,2,Pre,2021_Aug_06_1212,N-Back (New Version 2021),2021.1.4,120.22019536302781,
,,,,Conditions/Version_1/oneback(3)_v1.xlsx,New rule: Press 'space' when you see 1-back (i.e. the same letter as the one that appeared 1 letter ago.),o,None,,,,,,,,,0,11,11,11,0,0,0,0,,,,,,,,,,,,,,,,,,,,,,,,,,,,,,,,,,,,,,,,,,,,,,,,,,,,,,,,,,,896.2432361003011,None,899.2286998000927,None,space,0.5530427997000515,899.2286998000927,None,896.2432361003011,None,1.4502,901.2692316998728,None,None,1,901.2692316998728,None,,P008,fencog,2,Pre,2021_Aug_06_1212,N-Back (New Version 2021),2021.1.4,120.22019536302781,
,,,,Conditions/Version_1/oneback(3)_v1.xlsx,New rule: Press 'space' when you see 1-back (i.e. the same letter as the one that appeared 1 letter ago.),O,space,,,,,,,,,0,11,11,11,0,1,1,1,,,,,,,,,,,,,,,,,,,,,,,,,,,,,,,,,,,,,,,,,,,,,,,,,,,,,,,,,,,,,,,,,,,,,1.103,904.3856763001531,None,space,1,904.3856763001531,None,0.45214550010859966,P008,fencog,2,Pre,2021_Aug_06_1212,N-Back (New Version 2021),2021.1.4,120.22019536302781,
,,,,Conditions/Version_1/oneback(3)_v1.xlsx,New rule: Press 'space' when you see 1-back (i.e. the same letter as the one that appeared 1 letter ago.),h,None,,,,,,,,,0,11,11,11,0,2,2,2,,,,,,,,,,,,,,,,,,,,,,,,,,,,,,,,,,,,,,,,,,,,,,,,,,,,,,,,,,,,,,,,,,,,,1.2704,907.66730070021,None,None,1,907.66730070021,None,,P008,fencog,2,Pre,2021_Aug_06_1212,N-Back (New Version 2021),2021.1.4,120.22019536302781,
,,,,Conditions/Version_1/oneback(3)_v1.xlsx,New rule: Press 'space' when you see 1-back (i.e. the same letter as the one that appeared 1 letter ago.),g,None,,,,,,,,,0,11,11,11,0,3,3,3,,,,,,,,,,,,,,,,,,,,,,,,,,,,,,,,,,,,,,,,,,,,,,,,,,,,,,,,,,,,,,,,,,,,,1.7478,911.4256234001368,None,None,1,911.4256234001368,None,,P008,fencog,2,Pre,2021_Aug_06_1212,N-Back (New Version 2021),2021.1.4,120.22019536302781,
,,,,Conditions/Version_1/oneback(3)_v1.xlsx,New rule: Press 'space' when you see 1-back (i.e. the same letter as the one that appeared 1 letter ago.),n,None,,,,,,,,,0,11,11,11,0,4,4,4,,,,,,,,,,,,,,,,,,,,,,,,,,,,,,,,,,,,,,,,,,,,,,,,,,,,,,,,,,,,,,,,,,,,,1.3758,914.8152171000838,None,None,1,914.8152171000838,None,,P008,fencog,2,Pre,2021_Aug_06_1212,N-Back (New Version 2021),2021.1.4,120.22019536302781,
,,,,Conditions/Version_1/oneback(3)_v1.xlsx,New rule: Press 'space' when you see 1-back (i.e. the same letter as the one that appeared 1 letter ago.),z,None,,,,,,,,,0,11,11,11,0,5,5,5,,,,,,,,,,,,,,,,,,,,,,,,,,,,,,,,,,,,,,,,,,,,,,,,,,,,,,,,,,,,,,,,,,,,,1.1464,917.9739319002256,None,None,1,917.9739319002256,None,,P008,fencog,2,Pre,2021_Aug_06_1212,N-Back (New Version 2021),2021.1.4,120.22019536302781,
,,,,Conditions/Version_1/oneback(3)_v1.xlsx,New rule: Press 'space' when you see 1-back (i.e. the same letter as the one that appeared 1 letter ago.),X,None,,,,,,,,,0,11,11,11,0,6,6,6,,,,,,,,,,,,,,,,,,,,,,,,,,,,,,,,,,,,,,,,,,,,,,,,,,,,,,,,,,,,,,,,,,,,,1.9276,921.9134184001014,None,None,1,921.9134184001014,None,,P008,fencog,2,Pre,2021_Aug_06_1212,N-Back (New Version 2021),2021.1.4,120.22019536302781,
,,,,Conditions/Version_1/oneback(3)_v1.xlsx,New rule: Press 'space' when you see 1-back (i.e. the same letter as the one that appeared 1 letter ago.),r,None,,,,,,,,,0,11,11,11,0,7,7,7,,,,,,,,,,,,,,,,,,,,,,,,,,,,,,,,,,,,,,,,,,,,,,,,,,,,,,,,,,,,,,,,,,,,,1.3882,925.3122266000137,None,None,1,925.3122266000137,None,,P008,fencog,2,Pre,2021_Aug_06_1212,N-Back (New Version 2021),2021.1.4,120.22019536302781,
,,,,Conditions/Version_1/oneback(3)_v1.xlsx,New rule: Press 'space' when you see 1-back (i.e. the same letter as the one that appeared 1 letter ago.),r,space,,,,,,,,,0,11,11,11,0,8,8,8,,,,,,,,,,,,,,,,,,,,,,,,,,,,,,,,,,,,,,,,,,,,,,,,,,,,,,,,,,,,,,,,,,,,,1.5928,928.918312500231,None,space,1,928.918312500231,None,0.5764345997013152,P008,fencog,2,Pre,2021_Aug_06_1212,N-Back (New Version 2021),2021.1.4,120.22019536302781,
,,,,Conditions/Version_1/oneback(3)_v1.xlsx,New rule: Press 'space' when you see 1-back (i.e. the same letter as the one that appeared 1 letter ago.),P,None,,,,,,,,,0,11,11,11,0,9,9,9,,,,,,,,,,,,,,,,,,,,,,,,,,,,,,,,,,,,,,,,,,,,,,,,,,,,,,,,,,,,,,,,,,,,,1.7168,932.6447712001391,None,None,1,932.6447712001391,None,,P008,fencog,2,Pre,2021_Aug_06_1212,N-Back (New Version 2021),2021.1.4,120.22019536302781,
,,,,Conditions/Version_1/oneback(3)_v1.xlsx,New rule: Press 'space' when you see 1-back (i.e. the same letter as the one that appeared 1 letter ago.),,,,,,,,,,,0,11,11,11,,,,,,,,,,,,,,,,,,,,,,,,,,,,,,,,,,,,,,,,,,,,,,,,,,,,,,,,,,,,,,,,,,,,,,,,,,,,,,,,,P008,fencog,2,Pre,2021_Aug_06_1212,N-Back (New Version 2021),2021.1.4,120.22019536302781,
,,,,Conditions/Version_1/twoback(4)_v1.xlsx,New rule: Press 'space' when you see 2-back (i.e. the same letter as the one that appeared 2 letters ago.),r,None,,,,,,,,,0,12,12,12,0,0,0,0,,,,,,,,,,,,,,,,,,,,,,,,,,,,,,,,,,,,,,,,,,,,,,,,,,,,,,,,,,,934.6761262002401,None,937.6605798001401,None,space,2.7370754000730813,937.6605798001401,None,934.6761262002401,None,1.444,941.9113428001292,None,None,1,941.9113428001292,None,,P008,fencog,2,Pre,2021_Aug_06_1212,N-Back (New Version 2021),2021.1.4,120.22019536302781,
,,,,Conditions/Version_1/twoback(4)_v1.xlsx,New rule: Press 'space' when you see 2-back (i.e. the same letter as the one that appeared 2 letters ago.),T,None,,,,,,,,,0,12,12,12,0,1,1,1,,,,,,,,,,,,,,,,,,,,,,,,,,,,,,,,,,,,,,,,,,,,,,,,,,,,,,,,,,,,,,,,,,,,,1.6424,945.5677364002913,None,None,1,945.5677364002913,None,,P008,fencog,2,Pre,2021_Aug_06_1212,N-Back (New Version 2021),2021.1.4,120.22019536302781,
,,,,Conditions/Version_1/twoback(4)_v1.xlsx,New rule: Press 'space' when you see 2-back (i.e. the same letter as the one that appeared 2 letters ago.),o,None,,,,,,,,,0,12,12,12,0,2,2,2,,,,,,,,,,,,,,,,,,,,,,,,,,,,,,,,,,,,,,,,,,,,,,,,,,,,,,,,,,,,,,,,,,,,,1.3758,948.9567447002046,None,None,1,948.9567447002046,None,,P008,fencog,2,Pre,2021_Aug_06_1212,N-Back (New Version 2021),2021.1.4,120.22019536302781,
,,,,Conditions/Version_1/twoback(4)_v1.xlsx,New rule: Press 'space' when you see 2-back (i.e. the same letter as the one that appeared 2 letters ago.),p,None,,,,,,,,,0,12,12,12,0,3,3,3,,,,,,,,,,,,,,,,,,,,,,,,,,,,,,,,,,,,,,,,,,,,,,,,,,,,,,,,,,,,,,,,,,,,,1.258,952.2211102000438,None,None,1,952.2211102000438,None,,P008,fencog,2,Pre,2021_Aug_06_1212,N-Back (New Version 2021),2021.1.4,120.22019536302781,
,,,,Conditions/Version_1/twoback(4)_v1.xlsx,New rule: Press 'space' when you see 2-back (i.e. the same letter as the one that appeared 2 letters ago.),p,None,,,,,,,,,0,12,12,12,0,4,4,4,,,,,,,,,,,,,,,,,,,,,,,,,,,,,,,,,,,,,,,,,,,,,,,,,,,,,,,,,,,,,,,,,,,,,1.351,955.585368399974,None,None,1,955.585368399974,None,,P008,fencog,2,Pre,2021_Aug_06_1212,N-Back (New Version 2021),2021.1.4,120.22019536302781,
,,,,Conditions/Version_1/twoback(4)_v1.xlsx,New rule: Press 'space' when you see 2-back (i.e. the same letter as the one that appeared 2 letters ago.),y,None,,,,,,,,,0,12,12,12,0,5,5,5,,,,,,,,,,,,,,,,,,,,,,,,,,,,,,,,,,,,,,,,,,,,,,,,,,,,,,,,,,,,,,,,,,,,,1.4192,959.0113073000684,None,None,1,959.0113073000684,None,,P008,fencog,2,Pre,2021_Aug_06_1212,N-Back (New Version 2021),2021.1.4,120.22019536302781,
,,,,Conditions/Version_1/twoback(4)_v1.xlsx,New rule: Press 'space' when you see 2-back (i.e. the same letter as the one that appeared 2 letters ago.),P,space,,,,,,,,,0,12,12,12,0,6,6,6,,,,,,,,,,,,,,,,,,,,,,,,,,,,,,,,,,,,,,,,,,,,,,,,,,,,,,,,,,,,,,,,,,,,,1.5432,962.5602410999127,None,None,0,962.5602410999127,None,,P008,fencog,2,Pre,2021_Aug_06_1212,N-Back (New Version 2021),2021.1.4,120.22019536302781,
,,,,Conditions/Version_1/twoback(4)_v1.xlsx,New rule: Press 'space' when you see 2-back (i.e. the same letter as the one that appeared 2 letters ago.),y,None,,,,,,,,,0,12,12,12,0,7,7,7,,,,,,,,,,,,,,,,,,,,,,,,,,,,,,,,,,,,,,,,,,,,,,,,,,,,,,,,,,,,,,,,,,,,,1.1154,965.6857937001623,None,space,0,965.6857937001623,None,1.1601625001057982,P008,fencog,2,Pre,2021_Aug_06_1212,N-Back (New Version 2021),2021.1.4,120.22019536302781,
,,,,Conditions/Version_1/twoback(4)_v1.xlsx,New rule: Press 'space' when you see 2-back (i.e. the same letter as the one that appeared 2 letters ago.),y,space,,,,,,,,,0,12,12,12,0,8,8,8,,,,,,,,,,,,,,,,,,,,,,,,,,,,,,,,,,,,,,,,,,,,,,,,,,,,,,,,,,,,,,,,,,,,,1.6672,969.356922800187,None,space,1,969.356922800187,None,1.248817800078541,P008,fencog,2,Pre,2021_Aug_06_1212,N-Back (New Version 2021),2021.1.4,120.22019536302781,
,,,,Conditions/Version_1/twoback(4)_v1.xlsx,New rule: Press 'space' when you see 2-back (i.e. the same letter as the one that appeared 2 letters ago.),,,,,,,,,,,0,12,12,12,,,,,,,,,,,,,,,,,,,,,,,,,,,,,,,,,,,,,,,,,,,,,,,,,,,,,,,,,,,,,,,,,,,,,,,,,,,,,,,,,P008,fencog,2,Pre,2021_Aug_06_1212,N-Back (New Version 2021),2021.1.4,120.22019536302781,
,,,,Conditions/Version_1/zeroback(4)_v1.xlsx,New rule: Press 'space' when you see the letter 'x' or 'X'.,o,None,,,,,,,,,0,13,13,13,0,0,0,0,,,,,,,,,,,,,,,,,,,,,,,,,,,,,,,,,,,,,,,,,,,,,,,,,,,,,,,,,,,971.3787739998661,None,974.3646170999855,None,space,0.6333042001351714,974.3646170999855,None,971.3787739998661,None,1.2084,976.2305733002722,None,None,1,976.2305733002722,None,,P008,fencog,2,Pre,2021_Aug_06_1212,N-Back (New Version 2021),2021.1.4,120.22019536302781,
,,,,Conditions/Version_1/zeroback(4)_v1.xlsx,New rule: Press 'space' when you see the letter 'x' or 'X'.,X,space,,,,,,,,,0,13,13,13,0,1,1,1,,,,,,,,,,,,,,,,,,,,,,,,,,,,,,,,,,,,,,,,,,,,,,,,,,,,,,,,,,,,,,,,,,,,,1.754,979.9966783002019,None,space,1,979.9966783002019,None,0.4811346000060439,P008,fencog,2,Pre,2021_Aug_06_1212,N-Back (New Version 2021),2021.1.4,120.22019536302781,
,,,,Conditions/Version_1/zeroback(4)_v1.xlsx,New rule: Press 'space' when you see the letter 'x' or 'X'.,p,None,,,,,,,,,0,13,13,13,0,2,2,2,,,,,,,,,,,,,,,,,,,,,,,,,,,,,,,,,,,,,,,,,,,,,,,,,,,,,,,,,,,,,,,,,,,,,1.692,983.6936504999176,None,None,1,983.6936504999176,None,,P008,fencog,2,Pre,2021_Aug_06_1212,N-Back (New Version 2021),2021.1.4,120.22019536302781,
,,,,Conditions/Version_1/zeroback(4)_v1.xlsx,New rule: Press 'space' when you see the letter 'x' or 'X'.,m,None,,,,,,,,,0,13,13,13,0,3,3,3,,,,,,,,,,,,,,,,,,,,,,,,,,,,,,,,,,,,,,,,,,,,,,,,,,,,,,,,,,,,,,,,,,,,,1.5184,987.2175716999918,None,None,1,987.2175716999918,None,,P008,fencog,2,Pre,2021_Aug_06_1212,N-Back (New Version 2021),2021.1.4,120.22019536302781,
,,,,Conditions/Version_1/zeroback(4)_v1.xlsx,New rule: Press 'space' when you see the letter 'x' or 'X'.,n,None,,,,,,,,,0,13,13,13,0,4,4,4,,,,,,,,,,,,,,,,,,,,,,,,,,,,,,,,,,,,,,,,,,,,,,,,,,,,,,,,,,,,,,,,,,,,,1.4006,990.6269073998556,None,None,1,990.6269073998556,None,,P008,fencog,2,Pre,2021_Aug_06_1212,N-Back (New Version 2021),2021.1.4,120.22019536302781,
,,,,Conditions/Version_1/zeroback(4)_v1.xlsx,New rule: Press 'space' when you see the letter 'x' or 'X'.,m,None,,,,,,,,,0,13,13,13,0,5,5,5,,,,,,,,,,,,,,,,,,,,,,,,,,,,,,,,,,,,,,,,,,,,,,,,,,,,,,,,,,,,,,,,,,,,,1.8284,994.4674014002085,None,None,1,994.4674014002085,None,,P008,fencog,2,Pre,2021_Aug_06_1212,N-Back (New Version 2021),2021.1.4,120.22019536302781,
,,,,Conditions/Version_1/zeroback(4)_v1.xlsx,New rule: Press 'space' when you see the letter 'x' or 'X'.,C,None,,,,,,,,,0,13,13,13,0,6,6,6,,,,,,,,,,,,,,,,,,,,,,,,,,,,,,,,,,,,,,,,,,,,,,,,,,,,,,,,,,,,,,,,,,,,,1.8594,998.341210000217,None,None,1,998.341210000217,None,,P008,fencog,2,Pre,2021_Aug_06_1212,N-Back (New Version 2021),2021.1.4,120.22019536302781,
,,,,Conditions/Version_1/zeroback(4)_v1.xlsx,New rule: Press 'space' when you see the letter 'x' or 'X'.,m,None,,,,,,,,,0,13,13,13,0,7,7,7,,,,,,,,,,,,,,,,,,,,,,,,,,,,,,,,,,,,,,,,,,,,,,,,,,,,,,,,,,,,,,,,,,,,,1.8098,1002.1645414000377,None,None,1,1002.1645414000377,None,,P008,fencog,2,Pre,2021_Aug_06_1212,N-Back (New Version 2021),2021.1.4,120.22019536302781,
,,,,Conditions/Version_1/zeroback(4)_v1.xlsx,New rule: Press 'space' when you see the letter 'x' or 'X'.,p,None,,,,,,,,,0,13,13,13,0,8,8,8,,,,,,,,,,,,,,,,,,,,,,,,,,,,,,,,,,,,,,,,,,,,,,,,,,,,,,,,,,,,,,,,,,,,,1.847,1006.0203853002749,None,None,1,1006.0203853002749,None,,P008,fencog,2,Pre,2021_Aug_06_1212,N-Back (New Version 2021),2021.1.4,120.22019536302781,
,,,,Conditions/Version_1/zeroback(4)_v1.xlsx,New rule: Press 'space' when you see the letter 'x' or 'X'.,X,space,,,,,,,,,0,13,13,13,0,9,9,9,,,,,,,,,,,,,,,,,,,,,,,,,,,,,,,,,,,,,,,,,,,,,,,,,,,,,,,,,,,,,,,,,,,,,1.7106,1009.7370214001276,None,space,1,1009.7370214001276,None,0.5964170000515878,P008,fencog,2,Pre,2021_Aug_06_1212,N-Back (New Version 2021),2021.1.4,120.22019536302781,
,,,,Conditions/Version_1/zeroback(4)_v1.xlsx,New rule: Press 'space' when you see the letter 'x' or 'X'.,,,,,,,,,,,0,13,13,13,,,,,,,,,,,,,,,,,,,,,,,,,,,,,,,,,,,,,,,,,,,,,,,,,,,,,,,,,,,,,,,,,,,,,,,,,,,,,,,,,P008,fencog,2,Pre,2021_Aug_06_1212,N-Back (New Version 2021),2021.1.4,120.22019536302781,
,,,,Conditions/Version_1/oneback(4)_v1.xlsx,New rule: Press 'space' when you see 1-back (i.e. the same letter as the one that appeared 1 letter ago.),w,None,,,,,,,,,0,14,14,14,0,0,0,0,,,,,,,,,,,,,,,,,,,,,,,,,,,,,,,,,,,,,,,,,,,,,,,,,,,,,,,,,,,1011.7675851001404,None,1014.7536511998624,None,space,23.972042199689895,1014.7536511998624,None,1011.7675851001404,None,1.692,1040.4455952001736,None,None,1,1040.4455952001736,None,,P008,fencog,2,Pre,2021_Aug_06_1212,N-Back (New Version 2021),2021.1.4,120.22019536302781,
,,,,Conditions/Version_1/oneback(4)_v1.xlsx,New rule: Press 'space' when you see 1-back (i.e. the same letter as the one that appeared 1 letter ago.),q,None,,,,,,,,,0,14,14,14,0,1,1,1,,,,,,,,,,,,,,,,,,,,,,,,,,,,,,,,,,,,,,,,,,,,,,,,,,,,,,,,,,,,,,,,,,,,,1.878,1044.335977599956,None,None,1,1044.335977599956,None,,P008,fencog,2,Pre,2021_Aug_06_1212,N-Back (New Version 2021),2021.1.4,120.22019536302781,
,,,,Conditions/Version_1/oneback(4)_v1.xlsx,New rule: Press 'space' when you see 1-back (i.e. the same letter as the one that appeared 1 letter ago.),i,None,,,,,,,,,0,14,14,14,0,2,2,2,,,,,,,,,,,,,,,,,,,,,,,,,,,,,,,,,,,,,,,,,,,,,,,,,,,,,,,,,,,,,,,,,,,,,1.9896,1048.3342810999602,None,None,1,1048.3342810999602,None,,P008,fencog,2,Pre,2021_Aug_06_1212,N-Back (New Version 2021),2021.1.4,120.22019536302781,
,,,,Conditions/Version_1/oneback(4)_v1.xlsx,New rule: Press 'space' when you see 1-back (i.e. the same letter as the one that appeared 1 letter ago.),t,None,,,,,,,,,0,14,14,14,0,3,3,3,,,,,,,,,,,,,,,,,,,,,,,,,,,,,,,,,,,,,,,,,,,,,,,,,,,,,,,,,,,,,,,,,,,,,1.8098,1052.1575301000848,None,None,1,1052.1575301000848,None,,P008,fencog,2,Pre,2021_Aug_06_1212,N-Back (New Version 2021),2021.1.4,120.22019536302781,
,,,,Conditions/Version_1/oneback(4)_v1.xlsx,New rule: Press 'space' when you see 1-back (i.e. the same letter as the one that appeared 1 letter ago.),v,None,,,,,,,,,0,14,14,14,0,4,4,4,,,,,,,,,,,,,,,,,,,,,,,,,,,,,,,,,,,,,,,,,,,,,,,,,,,,,,,,,,,,,,,,,,,,,1.2766,1055.449051400181,None,None,1,1055.449051400181,None,,P008,fencog,2,Pre,2021_Aug_06_1212,N-Back (New Version 2021),2021.1.4,120.22019536302781,
,,,,Conditions/Version_1/oneback(4)_v1.xlsx,New rule: Press 'space' when you see 1-back (i.e. the same letter as the one that appeared 1 letter ago.),V,space,,,,,,,,,0,14,14,14,0,5,5,5,,,,,,,,,,,,,,,,,,,,,,,,,,,,,,,,,,,,,,,,,,,,,,,,,,,,,,,,,,,,,,,,,,,,,1.0224,1058.4822347001173,None,None,0,1058.4822347001173,None,,P008,fencog,2,Pre,2021_Aug_06_1212,N-Back (New Version 2021),2021.1.4,120.22019536302781,
,,,,Conditions/Version_1/oneback(4)_v1.xlsx,New rule: Press 'space' when you see 1-back (i.e. the same letter as the one that appeared 1 letter ago.),v,space,,,,,,,,,0,14,14,14,0,6,6,6,,,,,,,,,,,,,,,,,,,,,,,,,,,,,,,,,,,,,,,,,,,,,,,,,,,,,,,,,,,,,,,,,,,,,1.7292,1062.2239926001057,None,None,0,1062.2239926001057,None,,P008,fencog,2,Pre,2021_Aug_06_1212,N-Back (New Version 2021),2021.1.4,120.22019536302781,
,,,,Conditions/Version_1/oneback(4)_v1.xlsx,New rule: Press 'space' when you see 1-back (i.e. the same letter as the one that appeared 1 letter ago.),p,None,,,,,,,,,0,14,14,14,0,7,7,7,,,,,,,,,,,,,,,,,,,,,,,,,,,,,,,,,,,,,,,,,,,,,,,,,,,,,,,,,,,,,,,,,,,,,1.0844,1065.3222107002512,None,None,1,1065.3222107002512,None,,P008,fencog,2,Pre,2021_Aug_06_1212,N-Back (New Version 2021),2021.1.4,120.22019536302781,
,,,,Conditions/Version_1/oneback(4)_v1.xlsx,New rule: Press 'space' when you see 1-back (i.e. the same letter as the one that appeared 1 letter ago.),w,None,,,,,,,,,0,14,14,14,0,8,8,8,,,,,,,,,,,,,,,,,,,,,,,,,,,,,,,,,,,,,,,,,,,,,,,,,,,,,,,,,,,,,,,,,,,,,1.5618,1068.8934239000082,None,None,1,1068.8934239000082,None,,P008,fencog,2,Pre,2021_Aug_06_1212,N-Back (New Version 2021),2021.1.4,120.22019536302781,
,,,,Conditions/Version_1/oneback(4)_v1.xlsx,New rule: Press 'space' when you see 1-back (i.e. the same letter as the one that appeared 1 letter ago.),W,space,,,,,,,,,0,14,14,14,0,9,9,9,,,,,,,,,,,,,,,,,,,,,,,,,,,,,,,,,,,,,,,,,,,,,,,,,,,,,,,,,,,,,,,,,,,,,1.8222,1072.7180993999355,None,space,1,1072.7180993999355,None,1.3754922999069095,P008,fencog,2,Pre,2021_Aug_06_1212,N-Back (New Version 2021),2021.1.4,120.22019536302781,
,,,,Conditions/Version_1/oneback(4)_v1.xlsx,New rule: Press 'space' when you see 1-back (i.e. the same letter as the one that appeared 1 letter ago.),,,,,,,,,,,0,14,14,14,,,,,,,,,,,,,,,,,,,,,,,,,,,,,,,,,,,,,,,,,,,,,,,,,,,,,,,,,,,,,,,,,,,,,,,,,,,,,,,,,P008,fencog,2,Pre,2021_Aug_06_1212,N-Back (New Version 2021),2021.1.4,120.22019536302781,
,,,,Conditions/Version_1/threeback(4)_v1.xlsx,New rule: Press 'space' when you see 3-back (i.e. the same letter as the one that appeared 3 letters ago.),A,None,,,,,,,,,0,15,15,15,0,0,0,0,,,,,,,,,,,,,,,,,,,,,,,,,,,,,,,,,,,,,,,,,,,,,,,,,,,,,,,,,,,1074.746478700079,None,1077.7350385002792,None,space,1.790562099777162,1077.7350385002792,None,1074.746478700079,None,1.0906,1080.633290400263,None,None,1,1080.633290400263,None,,P008,fencog,2,Pre,2021_Aug_06_1212,N-Back (New Version 2021),2021.1.4,120.22019536302781,
,,,,Conditions/Version_1/threeback(4)_v1.xlsx,New rule: Press 'space' when you see 3-back (i.e. the same letter as the one that appeared 3 letters ago.),n,None,,,,,,,,,0,15,15,15,0,1,1,1,,,,,,,,,,,,,,,,,,,,,,,,,,,,,,,,,,,,,,,,,,,,,,,,,,,,,,,,,,,,,,,,,,,,,1.568,1084.2158985999413,None,None,1,1084.2158985999413,None,,P008,fencog,2,Pre,2021_Aug_06_1212,N-Back (New Version 2021),2021.1.4,120.22019536302781,
,,,,Conditions/Version_1/threeback(4)_v1.xlsx,New rule: Press 'space' when you see 3-back (i.e. the same letter as the one that appeared 3 letters ago.),g,None,,,,,,,,,0,15,15,15,0,2,2,2,,,,,,,,,,,,,,,,,,,,,,,,,,,,,,,,,,,,,,,,,,,,,,,,,,,,,,,,,,,,,,,,,,,,,1.8036,1088.0319408001378,None,None,1,1088.0319408001378,None,,P008,fencog,2,Pre,2021_Aug_06_1212,N-Back (New Version 2021),2021.1.4,120.22019536302781,
,,,,Conditions/Version_1/threeback(4)_v1.xlsx,New rule: Press 'space' when you see 3-back (i.e. the same letter as the one that appeared 3 letters ago.),A,space,,,,,,,,,0,15,15,15,0,3,3,3,,,,,,,,,,,,,,,,,,,,,,,,,,,,,,,,,,,,,,,,,,,,,,,,,,,,,,,,,,,,,,,,,,,,,1.847,1091.8878220999613,None,None,0,1091.8878220999613,None,,P008,fencog,2,Pre,2021_Aug_06_1212,N-Back (New Version 2021),2021.1.4,120.22019536302781,
,,,,Conditions/Version_1/threeback(4)_v1.xlsx,New rule: Press 'space' when you see 3-back (i.e. the same letter as the one that appeared 3 letters ago.),p,None,,,,,,,,,0,15,15,15,0,4,4,4,,,,,,,,,,,,,,,,,,,,,,,,,,,,,,,,,,,,,,,,,,,,,,,,,,,,,,,,,,,,,,,,,,,,,1.1092,1095.0108393002301,None,None,1,1095.0108393002301,None,,P008,fencog,2,Pre,2021_Aug_06_1212,N-Back (New Version 2021),2021.1.4,120.22019536302781,
,,,,Conditions/Version_1/threeback(4)_v1.xlsx,New rule: Press 'space' when you see 3-back (i.e. the same letter as the one that appeared 3 letters ago.),O,None,,,,,,,,,0,15,15,15,0,5,5,5,,,,,,,,,,,,,,,,,,,,,,,,,,,,,,,,,,,,,,,,,,,,,,,,,,,,,,,,,,,,,,,,,,,,,1.6238,1098.634711000137,None,None,1,1098.634711000137,None,,P008,fencog,2,Pre,2021_Aug_06_1212,N-Back (New Version 2021),2021.1.4,120.22019536302781,
,,,,Conditions/Version_1/threeback(4)_v1.xlsx,New rule: Press 'space' when you see 3-back (i.e. the same letter as the one that appeared 3 letters ago.),a,space,,,,,,,,,0,15,15,15,0,6,6,6,,,,,,,,,,,,,,,,,,,,,,,,,,,,,,,,,,,,,,,,,,,,,,,,,,,,,,,,,,,,,,,,,,,,,1.351,1101.9964010003023,None,None,0,1101.9964010003023,None,,P008,fencog,2,Pre,2021_Aug_06_1212,N-Back (New Version 2021),2021.1.4,120.22019536302781,
,,,,Conditions/Version_1/threeback(4)_v1.xlsx,New rule: Press 'space' when you see 3-back (i.e. the same letter as the one that appeared 3 letters ago.),p,space,,,,,,,,,0,15,15,15,0,7,7,7,,,,,,,,,,,,,,,,,,,,,,,,,,,,,,,,,,,,,,,,,,,,,,,,,,,,,,,,,,,,,,,,,,,,,1.258,1105.2576993000694,None,space,1,1105.2576993000694,None,1.8037557997740805,P008,fencog,2,Pre,2021_Aug_06_1212,N-Back (New Version 2021),2021.1.4,120.22019536302781,
,,,,Conditions/Version_1/threeback(4)_v1.xlsx,New rule: Press 'space' when you see 3-back (i.e. the same letter as the one that appeared 3 letters ago.),x,None,,,,,,,,,0,15,15,15,0,8,8,8,,,,,,,,,,,,,,,,,,,,,,,,,,,,,,,,,,,,,,,,,,,,,,,,,,,,,,,,,,,,,,,,,,,,,1.7106,1108.9749078000896,None,None,1,1108.9749078000896,None,,P008,fencog,2,Pre,2021_Aug_06_1212,N-Back (New Version 2021),2021.1.4,120.22019536302781,
,,,,Conditions/Version_1/threeback(4)_v1.xlsx,New rule: Press 'space' when you see 3-back (i.e. the same letter as the one that appeared 3 letters ago.),X,None,,,,,,,,,0,15,15,15,0,9,9,9,,,,,,,,,,,,,,,,,,,,,,,,,,,,,,,,,,,,,,,,,,,,,,,,,,,,,,,,,,,,,,,,,,,,,1.1712,1112.159632100258,None,None,1,1112.159632100258,None,,P008,fencog,2,Pre,2021_Aug_06_1212,N-Back (New Version 2021),2021.1.4,120.22019536302781,
,,,,Conditions/Version_1/threeback(4)_v1.xlsx,New rule: Press 'space' when you see 3-back (i.e. the same letter as the one that appeared 3 letters ago.),,,,,,,,,,,0,15,15,15,,,,,,,,,,,,,,,,,,,,,,,,,,,,,,,,,,,,,,,,,,,,,,,,,,,,,,,,,,,,,,,,,,,,,,,,,,,,,,,,,P008,fencog,2,Pre,2021_Aug_06_1212,N-Back (New Version 2021),2021.1.4,120.22019536302781,
