CondFileP,InstructionsP,LettersDisplayedP,CorrectnessP,CondFile,Instructions,LettersDisplayed,Correctness,practicetrials.thisRepN,practicetrials.thisTrialN,practicetrials.thisN,practicetrials.thisIndex,InnerLoopPractice.thisRepN,InnerLoopPractice.thisTrialN,InnerLoopPractice.thisN,InnerLoopPractice.thisIndex,trials.thisRepN,trials.thisTrialN,trials.thisN,trials.thisIndex,InnerLoop.thisRepN,InnerLoop.thisTrialN,InnerLoop.thisN,InnerLoop.thisIndex,TaskVersionText.started,TaskVersionText.stopped,InstrKey1.keys,InstrKey1.rt,InstrKey1.started,InstrKey1.stopped,text.started,text.stopped,key_resp_4.keys,key_resp_4.rt,key_resp_4.started,key_resp_4.stopped,text_2.started,text_2.stopped,key_resp_3.keys,key_resp_3.rt,key_resp_3.started,key_resp_3.stopped,text_3.started,text_3.stopped,key_resp_2.keys,key_resp_2.rt,key_resp_2.started,key_resp_2.stopped,PractIn1.started,PractIn1.stopped,PractIn2.started,PractIn2.stopped,PractInstructionPass.keys,PractInstructionPass.rt,PractInstructionPass.started,PractInstructionPass.stopped,PractBlock1.started,PractBlock1.stopped,ISIjitterPractice,ISI_Pract_Fixation.started,ISI_Pract_Fixation.stopped,N_backP.started,N_backP.stopped,KeyPractice.keys,KeyPractice.corr,KeyPractice.started,KeyPractice.stopped,text_4.started,text_4.stopped,KeyPractice.rt,TransitionText.started,TransitionText.stopped,key_resp_6.keys,key_resp_6.rt,key_resp_6.started,key_resp_6.stopped,text_5.started,text_5.stopped,key_resp_5.keys,key_resp_5.rt,key_resp_5.started,key_resp_5.stopped,MainInt1.started,MainInt1.stopped,MainInt2.started,MainInt2.stopped,InstructionPass.keys,InstructionPass.rt,InstructionPass.started,InstructionPass.stopped,Blocks1.started,Blocks1.stopped,ISIjitter,N_backD.started,N_backD.stopped,key_resp.keys,key_resp.corr,key_resp.started,key_resp.stopped,key_resp.rt,participant,Study Name,Task Version (required to run),PRE/POST,date,expName,psychopyVersion,frameRate,
,,,,,,,,,,,,,,,,,,,,,,,,21.388948699925095,None,space,202.3776698000729,21.88331829989329,None,,,,,,,,,,,,,,,,,,,,,,,,,,,,,,,,,,,,,,,,,,,,,,,,,,,,,,,,,,,,,,,,,,,,,,,P009,fencog,1,Pre,2021_Aug_10_1132,N-Back (New Version 2021),2021.1.4,119.13157804925794,
,,,,,,,,,,,,,,,,,,,,,,,,,,,,,,224.29376110015437,None,space,20.622016799636185,224.79052119981498,None,,,,,,,,,,,,,,,,,,,,,,,,,,,,,,,,,,,,,,,,,,,,,,,,,,,,,,,,,,,,,,,,,P009,fencog,1,Pre,2021_Aug_10_1132,N-Back (New Version 2021),2021.1.4,119.13157804925794,
,,,,,,,,,,,,,,,,,,,,,,,,,,,,,,,,,,,,245.45017099985853,None,space,37.093772100284696,245.94280449999496,None,,,,,,,,,,,,,,,,,,,,,,,,,,,,,,,,,,,,,,,,,,,,,,,,,,,,,,,,,,,P009,fencog,1,Pre,2021_Aug_10_1132,N-Back (New Version 2021),2021.1.4,119.13157804925794,
,,,,,,,,,,,,,,,,,,,,,,,,,,,,,,,,,,,,,,,,,,283.0662707001902,None,space,27.83174840034917,283.55663120001554,None,,,,,,,,,,,,,,,,,,,,,,,,,,,,,,,,,,,,,,,,,,,,,,,,,,,,,P009,fencog,1,Pre,2021_Aug_10_1132,N-Back (New Version 2021),2021.1.4,119.13157804925794,
Conditions/Version_1Pr/zeroback(1)_v1.xlsx,Rule: Press 'space' when you see the letter 'x' or 'X'.,Z,None,,,,,0,0,0,0,0,0,0,0,,,,,,,,,,,,,,,,,,,,,,,,,,,,,,,,,312.731170500163,None,315.7148454999551,None,space,10.601456000003964,315.7148454999551,None,312.731170500163,None,1.365,326.3402439998463,None,327.7166071999818,None,None,1,327.7166071999818,None,329.71904119988903,None,,,,,,,,,,,,,,,,,,,,,,,,,,,,,,,,P009,fencog,1,Pre,2021_Aug_10_1132,N-Back (New Version 2021),2021.1.4,119.13157804925794,
Conditions/Version_1Pr/zeroback(1)_v1.xlsx,Rule: Press 'space' when you see the letter 'x' or 'X'.,r,None,,,,,0,0,0,0,0,1,1,1,,,,,,,,,,,,,,,,,,,,,,,,,,,,,,,,,,,,,,,,,,,1.29,331.2166221002117,None,332.5108337001875,None,None,1,332.5108337001875,None,334.515691800043,None,,,,,,,,,,,,,,,,,,,,,,,,,,,,,,,,P009,fencog,1,Pre,2021_Aug_10_1132,N-Back (New Version 2021),2021.1.4,119.13157804925794,
Conditions/Version_1Pr/zeroback(1)_v1.xlsx,Rule: Press 'space' when you see the letter 'x' or 'X'.,X,space,,,,,0,0,0,0,0,2,2,2,,,,,,,,,,,,,,,,,,,,,,,,,,,,,,,,,,,,,,,,,,,1.79,336.0152114001103,None,337.8103447998874,None,space,1,337.8103447998874,None,338.2314988998696,None,0.4100936003960669,,,,,,,,,,,,,,,,,,,,,,,,,,,,,,,P009,fencog,1,Pre,2021_Aug_10_1132,N-Back (New Version 2021),2021.1.4,119.13157804925794,
Conditions/Version_1Pr/zeroback(1)_v1.xlsx,Rule: Press 'space' when you see the letter 'x' or 'X'.,p,None,,,,,0,0,0,0,0,3,3,3,,,,,,,,,,,,,,,,,,,,,,,,,,,,,,,,,,,,,,,,,,,1.515,339.7306677000597,None,341.2484488999471,None,None,1,341.2484488999471,None,343.2592063001357,None,,,,,,,,,,,,,,,,,,,,,,,,,,,,,,,,P009,fencog,1,Pre,2021_Aug_10_1132,N-Back (New Version 2021),2021.1.4,119.13157804925794,
Conditions/Version_1Pr/zeroback(1)_v1.xlsx,Rule: Press 'space' when you see the letter 'x' or 'X'.,w,None,,,,,0,0,0,0,0,4,4,4,,,,,,,,,,,,,,,,,,,,,,,,,,,,,,,,,,,,,,,,,,,2.015,344.75454150000587,None,346.77056010020897,None,space,0,346.77056010020897,None,347.1414117999375,None,0.3540075998753309,,,,,,,,,,,,,,,,,,,,,,,,,,,,,,,P009,fencog,1,Pre,2021_Aug_10_1132,N-Back (New Version 2021),2021.1.4,119.13157804925794,
Conditions/Version_1Pr/zeroback(1)_v1.xlsx,Rule: Press 'space' when you see the letter 'x' or 'X'.,e,None,,,,,0,0,0,0,0,5,5,5,,,,,,,,,,,,,,,,,,,,,,,,,,,,,,,,,,,,,,,,,,,1.215,348.6447097999044,None,349.86155370017514,None,None,1,349.86155370017514,None,351.86216979986057,None,,,,,,,,,,,,,,,,,,,,,,,,,,,,,,,,P009,fencog,1,Pre,2021_Aug_10_1132,N-Back (New Version 2021),2021.1.4,119.13157804925794,
Conditions/Version_1Pr/zeroback(1)_v1.xlsx,Rule: Press 'space' when you see the letter 'x' or 'X'.,X,space,,,,,0,0,0,0,0,6,6,6,,,,,,,,,,,,,,,,,,,,,,,,,,,,,,,,,,,,,,,,,,,1.14,353.3684160998091,None,354.511566599831,None,space,1,354.511566599831,None,354.86167019978166,None,0.3407501997426152,,,,,,,,,,,,,,,,,,,,,,,,,,,,,,,P009,fencog,1,Pre,2021_Aug_10_1132,N-Back (New Version 2021),2021.1.4,119.13157804925794,
Conditions/Version_1Pr/zeroback(1)_v1.xlsx,Rule: Press 'space' when you see the letter 'x' or 'X'.,x,space,,,,,0,0,0,0,0,7,7,7,,,,,,,,,,,,,,,,,,,,,,,,,,,,,,,,,,,,,,,,,,,1.09,356.36728639993817,None,357.458653899841,None,space,1,357.458653899841,None,357.98448289977387,None,0.5133612998761237,,,,,,,,,,,,,,,,,,,,,,,,,,,,,,,P009,fencog,1,Pre,2021_Aug_10_1132,N-Back (New Version 2021),2021.1.4,119.13157804925794,
Conditions/Version_1Pr/zeroback(1)_v1.xlsx,Rule: Press 'space' when you see the letter 'x' or 'X'.,p,None,,,,,0,0,0,0,0,8,8,8,,,,,,,,,,,,,,,,,,,,,,,,,,,,,,,,,,,,,,,,,,,1.59,359.49215230019763,None,361.0834126002155,None,None,1,361.0834126002155,None,363.090612700209,None,,,,,,,,,,,,,,,,,,,,,,,,,,,,,,,,P009,fencog,1,Pre,2021_Aug_10_1132,N-Back (New Version 2021),2021.1.4,119.13157804925794,
Conditions/Version_1Pr/zeroback(1)_v1.xlsx,Rule: Press 'space' when you see the letter 'x' or 'X'.,r,None,,,,,0,0,0,0,0,9,9,9,,,,,,,,,,,,,,,,,,,,,,,,,,,,,,,,,,,,,,,,,,,1.115,364.5901504000649,None,365.7115189000033,None,None,1,365.7115189000033,None,367.714294699952,None,,,,,,,,,,,,,,,,,,,,,,,,,,,,,,,,P009,fencog,1,Pre,2021_Aug_10_1132,N-Back (New Version 2021),2021.1.4,119.13157804925794,
Conditions/Version_1Pr/zeroback(1)_v1.xlsx,Rule: Press 'space' when you see the letter 'x' or 'X'.,,,,,,,0,0,0,0,,,,,,,,,,,,,,,,,,,,,,,,,,,,,,,,,,,,,,,,,,,,,,,,,,,,,,,,,,,,,,,,,,,,,,,,,,,,,,,,,,,,,,,,,P009,fencog,1,Pre,2021_Aug_10_1132,N-Back (New Version 2021),2021.1.4,119.13157804925794,
Conditions/Version_1Pr/oneback(1)_v1.xlsx,New rule: Press 'space' when you see 1-back (i.e. the same letter as the one that appeared 1 letter ago.),a,None,,,,,0,1,1,1,0,0,0,0,,,,,,,,,,,,,,,,,,,,,,,,,,,,,,,,,369.2421296997927,None,372.2317634001374,None,space,10.716489600017667,372.2317634001374,None,369.2421296997927,None,1.165,382.9826038000174,None,384.15353599982336,None,None,1,384.15353599982336,None,386.15864219982177,None,,,,,,,,,,,,,,,,,,,,,,,,,,,,,,,,P009,fencog,1,Pre,2021_Aug_10_1132,N-Back (New Version 2021),2021.1.4,119.13157804925794,
Conditions/Version_1Pr/oneback(1)_v1.xlsx,New rule: Press 'space' when you see 1-back (i.e. the same letter as the one that appeared 1 letter ago.),x,None,,,,,0,1,1,1,0,1,1,1,,,,,,,,,,,,,,,,,,,,,,,,,,,,,,,,,,,,,,,,,,,1.34,387.6583051998168,None,389.00137419998646,None,None,1,389.00137419998646,None,391.0072987000458,None,,,,,,,,,,,,,,,,,,,,,,,,,,,,,,,,P009,fencog,1,Pre,2021_Aug_10_1132,N-Back (New Version 2021),2021.1.4,119.13157804925794,
Conditions/Version_1Pr/oneback(1)_v1.xlsx,New rule: Press 'space' when you see 1-back (i.e. the same letter as the one that appeared 1 letter ago.),g,None,,,,,0,1,1,1,0,2,2,2,,,,,,,,,,,,,,,,,,,,,,,,,,,,,,,,,,,,,,,,,,,1.39,392.5068819001317,None,393.9011614997871,None,None,1,393.9011614997871,None,395.9059386998415,None,,,,,,,,,,,,,,,,,,,,,,,,,,,,,,,,P009,fencog,1,Pre,2021_Aug_10_1132,N-Back (New Version 2021),2021.1.4,119.13157804925794,
Conditions/Version_1Pr/oneback(1)_v1.xlsx,New rule: Press 'space' when you see 1-back (i.e. the same letter as the one that appeared 1 letter ago.),G,space,,,,,0,1,1,1,0,3,3,3,,,,,,,,,,,,,,,,,,,,,,,,,,,,,,,,,,,,,,,,,,,1.29,397.40542519977316,None,398.70071720005944,None,space,1,398.70071720005944,None,399.34125910000876,None,0.6236095000058413,,,,,,,,,,,,,,,,,,,,,,,,,,,,,,,P009,fencog,1,Pre,2021_Aug_10_1132,N-Back (New Version 2021),2021.1.4,119.13157804925794,
Conditions/Version_1Pr/oneback(1)_v1.xlsx,New rule: Press 'space' when you see 1-back (i.e. the same letter as the one that appeared 1 letter ago.),u,None,,,,,0,1,1,1,0,4,4,4,,,,,,,,,,,,,,,,,,,,,,,,,,,,,,,,,,,,,,,,,,,1.24,400.8458803999238,None,402.087826800067,None,None,1,402.087826800067,None,404.0950787998736,None,,,,,,,,,,,,,,,,,,,,,,,,,,,,,,,,P009,fencog,1,Pre,2021_Aug_10_1132,N-Back (New Version 2021),2021.1.4,119.13157804925794,
Conditions/Version_1Pr/oneback(1)_v1.xlsx,New rule: Press 'space' when you see 1-back (i.e. the same letter as the one that appeared 1 letter ago.),y,None,,,,,0,1,1,1,0,5,5,5,,,,,,,,,,,,,,,,,,,,,,,,,,,,,,,,,,,,,,,,,,,1.84,405.59468010021374,None,407.4388565002009,None,None,1,407.4388565002009,None,409.44348380016163,None,,,,,,,,,,,,,,,,,,,,,,,,,,,,,,,,P009,fencog,1,Pre,2021_Aug_10_1132,N-Back (New Version 2021),2021.1.4,119.13157804925794,
Conditions/Version_1Pr/oneback(1)_v1.xlsx,New rule: Press 'space' when you see 1-back (i.e. the same letter as the one that appeared 1 letter ago.),y,space,,,,,0,1,1,1,0,6,6,6,,,,,,,,,,,,,,,,,,,,,,,,,,,,,,,,,,,,,,,,,,,1.44,410.9431150997989,None,412.3841618001461,None,space,1,412.3841618001461,None,413.11822579987347,None,0.7243058001622558,,,,,,,,,,,,,,,,,,,,,,,,,,,,,,,P009,fencog,1,Pre,2021_Aug_10_1132,N-Back (New Version 2021),2021.1.4,119.13157804925794,
Conditions/Version_1Pr/oneback(1)_v1.xlsx,New rule: Press 'space' when you see 1-back (i.e. the same letter as the one that appeared 1 letter ago.),k,None,,,,,0,1,1,1,0,7,7,7,,,,,,,,,,,,,,,,,,,,,,,,,,,,,,,,,,,,,,,,,,,1.565,414.62634979980066,None,416.1975798998028,None,None,1,416.1975798998028,None,418.19917570007965,None,,,,,,,,,,,,,,,,,,,,,,,,,,,,,,,,P009,fencog,1,Pre,2021_Aug_10_1132,N-Back (New Version 2021),2021.1.4,119.13157804925794,
Conditions/Version_1Pr/oneback(1)_v1.xlsx,New rule: Press 'space' when you see 1-back (i.e. the same letter as the one that appeared 1 letter ago.),c,None,,,,,0,1,1,1,0,8,8,8,,,,,,,,,,,,,,,,,,,,,,,,,,,,,,,,,,,,,,,,,,,1.715,419.69887100020424,None,421.41805789992213,None,None,1,421.41805789992213,None,423.42283120006323,None,,,,,,,,,,,,,,,,,,,,,,,,,,,,,,,,P009,fencog,1,Pre,2021_Aug_10_1132,N-Back (New Version 2021),2021.1.4,119.13157804925794,
Conditions/Version_1Pr/oneback(1)_v1.xlsx,New rule: Press 'space' when you see 1-back (i.e. the same letter as the one that appeared 1 letter ago.),r,None,,,,,0,1,1,1,0,9,9,9,,,,,,,,,,,,,,,,,,,,,,,,,,,,,,,,,,,,,,,,,,,1.69,424.9222820000723,None,426.61543420003727,None,None,1,426.61543420003727,None,428.62127010012046,None,,,,,,,,,,,,,,,,,,,,,,,,,,,,,,,,P009,fencog,1,Pre,2021_Aug_10_1132,N-Back (New Version 2021),2021.1.4,119.13157804925794,
Conditions/Version_1Pr/oneback(1)_v1.xlsx,New rule: Press 'space' when you see 1-back (i.e. the same letter as the one that appeared 1 letter ago.),,,,,,,0,1,1,1,,,,,,,,,,,,,,,,,,,,,,,,,,,,,,,,,,,,,,,,,,,,,,,,,,,,,,,,,,,,,,,,,,,,,,,,,,,,,,,,,,,,,,,,,P009,fencog,1,Pre,2021_Aug_10_1132,N-Back (New Version 2021),2021.1.4,119.13157804925794,
Conditions/Version_1Pr/twoback(1)_v1.xlsx,New rule: Press 'space' when you see 2-back (i.e. the same letter as the one that appeared 2 letters ago.),E,None,,,,,0,2,2,2,0,0,0,0,,,,,,,,,,,,,,,,,,,,,,,,,,,,,,,,,430.1455501001328,None,433.1311969999224,None,space,5.1689114002510905,433.1311969999224,None,430.1455501001328,None,1.065,438.330846699886,None,439.4037081999704,None,None,1,439.4037081999704,None,441.40907880011946,None,,,,,,,,,,,,,,,,,,,,,,,,,,,,,,,,P009,fencog,1,Pre,2021_Aug_10_1132,N-Back (New Version 2021),2021.1.4,119.13157804925794,
Conditions/Version_1Pr/twoback(1)_v1.xlsx,New rule: Press 'space' when you see 2-back (i.e. the same letter as the one that appeared 2 letters ago.),p,None,,,,,0,2,2,2,0,1,1,1,,,,,,,,,,,,,,,,,,,,,,,,,,,,,,,,,,,,,,,,,,,1.365,442.9086508001201,None,444.27840049983934,None,None,1,444.27840049983934,None,446.2827616999857,None,,,,,,,,,,,,,,,,,,,,,,,,,,,,,,,,P009,fencog,1,Pre,2021_Aug_10_1132,N-Back (New Version 2021),2021.1.4,119.13157804925794,
Conditions/Version_1Pr/twoback(1)_v1.xlsx,New rule: Press 'space' when you see 2-back (i.e. the same letter as the one that appeared 2 letters ago.),e,space,,,,,0,2,2,2,0,2,2,2,,,,,,,,,,,,,,,,,,,,,,,,,,,,,,,,,,,,,,,,,,,1.615,447.7821383001283,None,449.40018479991704,None,space,1,449.40018479991704,None,449.7911690999754,None,0.38017609994858503,,,,,,,,,,,,,,,,,,,,,,,,,,,,,,,P009,fencog,1,Pre,2021_Aug_10_1132,N-Back (New Version 2021),2021.1.4,119.13157804925794,
Conditions/Version_1Pr/twoback(1)_v1.xlsx,New rule: Press 'space' when you see 2-back (i.e. the same letter as the one that appeared 2 letters ago.),s,None,,,,,0,2,2,2,0,3,3,3,,,,,,,,,,,,,,,,,,,,,,,,,,,,,,,,,,,,,,,,,,,1.715,451.28981840005144,None,453.0086738001555,None,None,1,453.0086738001555,None,455.013454800006,None,,,,,,,,,,,,,,,,,,,,,,,,,,,,,,,,P009,fencog,1,Pre,2021_Aug_10_1132,N-Back (New Version 2021),2021.1.4,119.13157804925794,
Conditions/Version_1Pr/twoback(1)_v1.xlsx,New rule: Press 'space' when you see 2-back (i.e. the same letter as the one that appeared 2 letters ago.),S,None,,,,,0,2,2,2,0,4,4,4,,,,,,,,,,,,,,,,,,,,,,,,,,,,,,,,,,,,,,,,,,,1.415,456.5129722999409,None,457.9333287999034,None,None,1,457.9333287999034,None,459.93692780006677,None,,,,,,,,,,,,,,,,,,,,,,,,,,,,,,,,P009,fencog,1,Pre,2021_Aug_10_1132,N-Back (New Version 2021),2021.1.4,119.13157804925794,
Conditions/Version_1Pr/twoback(1)_v1.xlsx,New rule: Press 'space' when you see 2-back (i.e. the same letter as the one that appeared 2 letters ago.),s,space,,,,,0,2,2,2,0,5,5,5,,,,,,,,,,,,,,,,,,,,,,,,,,,,,,,,,,,,,,,,,,,1.815,461.4364833999425,None,463.25815600017086,None,space,1,463.25815600017086,None,463.6489832000807,None,0.3786197998560965,,,,,,,,,,,,,,,,,,,,,,,,,,,,,,,P009,fencog,1,Pre,2021_Aug_10_1132,N-Back (New Version 2021),2021.1.4,119.13157804925794,
Conditions/Version_1Pr/twoback(1)_v1.xlsx,New rule: Press 'space' when you see 2-back (i.e. the same letter as the one that appeared 2 letters ago.),P,None,,,,,0,2,2,2,0,6,6,6,,,,,,,,,,,,,,,,,,,,,,,,,,,,,,,,,,,,,,,,,,,1.515,465.15203730016947,None,466.6701484997757,None,None,1,466.6701484997757,None,468.6696965000592,None,,,,,,,,,,,,,,,,,,,,,,,,,,,,,,,,P009,fencog,1,Pre,2021_Aug_10_1132,N-Back (New Version 2021),2021.1.4,119.13157804925794,
Conditions/Version_1Pr/twoback(1)_v1.xlsx,New rule: Press 'space' when you see 2-back (i.e. the same letter as the one that appeared 2 letters ago.),C,None,,,,,0,2,2,2,0,7,7,7,,,,,,,,,,,,,,,,,,,,,,,,,,,,,,,,,,,,,,,,,,,1.665,470.1755503998138,None,471.8435386000201,None,None,1,471.8435386000201,None,473.84947799984366,None,,,,,,,,,,,,,,,,,,,,,,,,,,,,,,,,P009,fencog,1,Pre,2021_Aug_10_1132,N-Back (New Version 2021),2021.1.4,119.13157804925794,
Conditions/Version_1Pr/twoback(1)_v1.xlsx,New rule: Press 'space' when you see 2-back (i.e. the same letter as the one that appeared 2 letters ago.),x,None,,,,,0,2,2,2,0,8,8,8,,,,,,,,,,,,,,,,,,,,,,,,,,,,,,,,,,,,,,,,,,,1.965,475.34902059985325,None,477.3161499998532,None,None,1,477.3161499998532,None,479.32279360014945,None,,,,,,,,,,,,,,,,,,,,,,,,,,,,,,,,P009,fencog,1,Pre,2021_Aug_10_1132,N-Back (New Version 2021),2021.1.4,119.13157804925794,
Conditions/Version_1Pr/twoback(1)_v1.xlsx,New rule: Press 'space' when you see 2-back (i.e. the same letter as the one that appeared 2 letters ago.),Z,None,,,,,0,2,2,2,0,9,9,9,,,,,,,,,,,,,,,,,,,,,,,,,,,,,,,,,,,,,,,,,,,1.765,480.82238159980625,None,482.5885168001987,None,None,1,482.5885168001987,None,484.5887318998575,None,,,,,,,,,,,,,,,,,,,,,,,,,,,,,,,,P009,fencog,1,Pre,2021_Aug_10_1132,N-Back (New Version 2021),2021.1.4,119.13157804925794,
Conditions/Version_1Pr/twoback(1)_v1.xlsx,New rule: Press 'space' when you see 2-back (i.e. the same letter as the one that appeared 2 letters ago.),,,,,,,0,2,2,2,,,,,,,,,,,,,,,,,,,,,,,,,,,,,,,,,,,,,,,,,,,,,,,,,,,,,,,,,,,,,,,,,,,,,,,,,,,,,,,,,,,,,,,,,P009,fencog,1,Pre,2021_Aug_10_1132,N-Back (New Version 2021),2021.1.4,119.13157804925794,
Conditions/Version_1Pr/threeback(1)_v1.xlsx,New rule: Press 'space' when you see 3-back (i.e. the same letter as the one that appeared 3 letters ago.),r,None,,,,,0,3,3,3,0,0,0,0,,,,,,,,,,,,,,,,,,,,,,,,,,,,,,,,,486.1194742000662,None,489.1060668998398,None,space,5.9942569001577795,489.1060668998398,None,486.1194742000662,None,1.79,495.12095149978995,None,496.9176153000444,None,None,1,496.9176153000444,None,498.9177498999052,None,,,,,,,,,,,,,,,,,,,,,,,,,,,,,,,,P009,fencog,1,Pre,2021_Aug_10_1132,N-Back (New Version 2021),2021.1.4,119.13157804925794,
Conditions/Version_1Pr/threeback(1)_v1.xlsx,New rule: Press 'space' when you see 3-back (i.e. the same letter as the one that appeared 3 letters ago.),a,None,,,,,0,3,3,3,0,1,1,1,,,,,,,,,,,,,,,,,,,,,,,,,,,,,,,,,,,,,,,,,,,1.815,500.4249454000965,None,502.2417530999519,None,None,1,502.2417530999519,None,504.2411036998965,None,,,,,,,,,,,,,,,,,,,,,,,,,,,,,,,,P009,fencog,1,Pre,2021_Aug_10_1132,N-Back (New Version 2021),2021.1.4,119.13157804925794,
Conditions/Version_1Pr/threeback(1)_v1.xlsx,New rule: Press 'space' when you see 3-back (i.e. the same letter as the one that appeared 3 letters ago.),t,None,,,,,0,3,3,3,0,2,2,2,,,,,,,,,,,,,,,,,,,,,,,,,,,,,,,,,,,,,,,,,,,2.015,505.7483028997667,None,507.7682532002218,None,None,1,507.7682532002218,None,509.7721664002165,None,,,,,,,,,,,,,,,,,,,,,,,,,,,,,,,,P009,fencog,1,Pre,2021_Aug_10_1132,N-Back (New Version 2021),2021.1.4,119.13157804925794,
Conditions/Version_1Pr/threeback(1)_v1.xlsx,New rule: Press 'space' when you see 3-back (i.e. the same letter as the one that appeared 3 letters ago.),r,space,,,,,0,3,3,3,0,3,3,3,,,,,,,,,,,,,,,,,,,,,,,,,,,,,,,,,,,,,,,,,,,1.19,511.2717396002263,None,512.4663260001689,None,space,1,512.4663260001689,None,513.752487400081,None,1.2660103999078274,,,,,,,,,,,,,,,,,,,,,,,,,,,,,,,P009,fencog,1,Pre,2021_Aug_10_1132,N-Back (New Version 2021),2021.1.4,119.13157804925794,
Conditions/Version_1Pr/threeback(1)_v1.xlsx,New rule: Press 'space' when you see 3-back (i.e. the same letter as the one that appeared 3 letters ago.),a,None,,,,,0,3,3,3,0,4,4,4,,,,,,,,,,,,,,,,,,,,,,,,,,,,,,,,,,,,,,,,,,,1.465,515.2537234001793,None,516.7219365998171,None,space,0,516.7219365998171,None,517.3856974998489,None,0.6506909001618624,,,,,,,,,,,,,,,,,,,,,,,,,,,,,,,P009,fencog,1,Pre,2021_Aug_10_1132,N-Back (New Version 2021),2021.1.4,119.13157804925794,
Conditions/Version_1Pr/threeback(1)_v1.xlsx,New rule: Press 'space' when you see 3-back (i.e. the same letter as the one that appeared 3 letters ago.),Y,None,,,,,0,3,3,3,0,5,5,5,,,,,,,,,,,,,,,,,,,,,,,,,,,,,,,,,,,,,,,,,,,1.99,518.885954500176,None,520.8812266997993,None,None,1,520.8812266997993,None,522.8857718999498,None,,,,,,,,,,,,,,,,,,,,,,,,,,,,,,,,P009,fencog,1,Pre,2021_Aug_10_1132,N-Back (New Version 2021),2021.1.4,119.13157804925794,
Conditions/Version_1Pr/threeback(1)_v1.xlsx,New rule: Press 'space' when you see 3-back (i.e. the same letter as the one that appeared 3 letters ago.),q,None,,,,,0,3,3,3,0,6,6,6,,,,,,,,,,,,,,,,,,,,,,,,,,,,,,,,,,,,,,,,,,,1.69,524.3846481000073,None,526.078671600204,None,None,1,526.078671600204,None,528.0834416002035,None,,,,,,,,,,,,,,,,,,,,,,,,,,,,,,,,P009,fencog,1,Pre,2021_Aug_10_1132,N-Back (New Version 2021),2021.1.4,119.13157804925794,
Conditions/Version_1Pr/threeback(1)_v1.xlsx,New rule: Press 'space' when you see 3-back (i.e. the same letter as the one that appeared 3 letters ago.),A,space,,,,,0,3,3,3,0,7,7,7,,,,,,,,,,,,,,,,,,,,,,,,,,,,,,,,,,,,,,,,,,,1.49,529.5828599999659,None,531.0848620999604,None,space,1,531.0848620999604,None,531.7001976999454,None,0.6074494002386928,,,,,,,,,,,,,,,,,,,,,,,,,,,,,,,P009,fencog,1,Pre,2021_Aug_10_1132,N-Back (New Version 2021),2021.1.4,119.13157804925794,
Conditions/Version_1Pr/threeback(1)_v1.xlsx,New rule: Press 'space' when you see 3-back (i.e. the same letter as the one that appeared 3 letters ago.),y,None,,,,,0,3,3,3,0,8,8,8,,,,,,,,,,,,,,,,,,,,,,,,,,,,,,,,,,,,,,,,,,,1.04,533.2067736000754,None,534.2505259998143,None,space,0,534.2505259998143,None,535.3670121999457,None,1.1055933996103704,,,,,,,,,,,,,,,,,,,,,,,,,,,,,,,P009,fencog,1,Pre,2021_Aug_10_1132,N-Back (New Version 2021),2021.1.4,119.13157804925794,
Conditions/Version_1Pr/threeback(1)_v1.xlsx,New rule: Press 'space' when you see 3-back (i.e. the same letter as the one that appeared 3 letters ago.),r,None,,,,,0,3,3,3,0,9,9,9,,,,,,,,,,,,,,,,,,,,,,,,,,,,,,,,,,,,,,,,,,,1.515,536.872589699924,None,538.3889155997895,None,None,1,538.3889155997895,None,540.3889717999846,None,,,,,,,,,,,,,,,,,,,,,,,,,,,,,,,,P009,fencog,1,Pre,2021_Aug_10_1132,N-Back (New Version 2021),2021.1.4,119.13157804925794,
Conditions/Version_1Pr/threeback(1)_v1.xlsx,New rule: Press 'space' when you see 3-back (i.e. the same letter as the one that appeared 3 letters ago.),,,,,,,0,3,3,3,,,,,,,,,,,,,,,,,,,,,,,,,,,,,,,,,,,,,,,,,,,,,,,,,,,,,,,,,,,,,,,,,,,,,,,,,,,,,,,,,,,,,,,,,P009,fencog,1,Pre,2021_Aug_10_1132,N-Back (New Version 2021),2021.1.4,119.13157804925794,
,,,,,,,,,,,,,,,,,,,,,,,,,,,,,,,,,,,,,,,,,,,,,,,,,,,,,,,,,,,,,,,,,,,,,,541.9031557999551,None,space,7.632071900181472,542.3961947001517,None,,,,,,,,,,,,,,,,,,,,,,,,,P009,fencog,1,Pre,2021_Aug_10_1132,N-Back (New Version 2021),2021.1.4,119.13157804925794,
,,,,,,,,,,,,,,,,,,,,,,,,,,,,,,,,,,,,,,,,,,,,,,,,,,,,,,,,,,,,,,,,,,,,,,,,,,,,550.0495656998828,None,space,11.516298500355333,550.5440066000447,None,,,,,,,,,,,,,,,,,,,P009,fencog,1,Pre,2021_Aug_10_1132,N-Back (New Version 2021),2021.1.4,119.13157804925794,
,,,,Conditions/Version_1/zeroback(1)_v1.xlsx,Rule: Press 'space' when you see the letter 'x' or 'X'.,b,None,,,,,,,,,0,0,0,0,0,0,0,0,,,,,,,,,,,,,,,,,,,,,,,,,,,,,,,,,,,,,,,,,,,,,,,,,,,,,,,,,,,562.1629621000029,None,565.1510888999328,None,space,7.7491891998797655,565.1510888999328,None,562.1629621000029,None,1.4998,574.4311756999232,None,None,1,574.4311756999232,None,,P009,fencog,1,Pre,2021_Aug_10_1132,N-Back (New Version 2021),2021.1.4,119.13157804925794,
,,,,Conditions/Version_1/zeroback(1)_v1.xlsx,Rule: Press 'space' when you see the letter 'x' or 'X'.,T,None,,,,,,,,,0,0,0,0,0,1,1,1,,,,,,,,,,,,,,,,,,,,,,,,,,,,,,,,,,,,,,,,,,,,,,,,,,,,,,,,,,,,,,,,,,,,,1.8656,578.3035189001821,None,None,1,578.3035189001821,None,,P009,fencog,1,Pre,2021_Aug_10_1132,N-Back (New Version 2021),2021.1.4,119.13157804925794,
,,,,Conditions/Version_1/zeroback(1)_v1.xlsx,Rule: Press 'space' when you see the letter 'x' or 'X'.,L,None,,,,,,,,,0,0,0,0,0,2,2,2,,,,,,,,,,,,,,,,,,,,,,,,,,,,,,,,,,,,,,,,,,,,,,,,,,,,,,,,,,,,,,,,,,,,,1.8842,582.2092121001333,None,None,1,582.2092121001333,None,,P009,fencog,1,Pre,2021_Aug_10_1132,N-Back (New Version 2021),2021.1.4,119.13157804925794,
,,,,Conditions/Version_1/zeroback(1)_v1.xlsx,Rule: Press 'space' when you see the letter 'x' or 'X'.,x,space,,,,,,,,,0,0,0,0,0,3,3,3,,,,,,,,,,,,,,,,,,,,,,,,,,,,,,,,,,,,,,,,,,,,,,,,,,,,,,,,,,,,,,,,,,,,,1.5866,585.8020047000609,None,space,1,585.8020047000609,None,0.3863491998054087,P009,fencog,1,Pre,2021_Aug_10_1132,N-Back (New Version 2021),2021.1.4,119.13157804925794,
,,,,Conditions/Version_1/zeroback(1)_v1.xlsx,Rule: Press 'space' when you see the letter 'x' or 'X'.,o,None,,,,,,,,,0,0,0,0,0,4,4,4,,,,,,,,,,,,,,,,,,,,,,,,,,,,,,,,,,,,,,,,,,,,,,,,,,,,,,,,,,,,,,,,,,,,,1.568,589.3857315001078,None,None,1,589.3857315001078,None,,P009,fencog,1,Pre,2021_Aug_10_1132,N-Back (New Version 2021),2021.1.4,119.13157804925794,
,,,,Conditions/Version_1/zeroback(1)_v1.xlsx,Rule: Press 'space' when you see the letter 'x' or 'X'.,P,None,,,,,,,,,0,0,0,0,0,5,5,5,,,,,,,,,,,,,,,,,,,,,,,,,,,,,,,,,,,,,,,,,,,,,,,,,,,,,,,,,,,,,,,,,,,,,1.7912,593.1838430999778,None,None,1,593.1838430999778,None,,P009,fencog,1,Pre,2021_Aug_10_1132,N-Back (New Version 2021),2021.1.4,119.13157804925794,
,,,,Conditions/Version_1/zeroback(1)_v1.xlsx,Rule: Press 'space' when you see the letter 'x' or 'X'.,X,space,,,,,,,,,0,0,0,0,0,6,6,6,,,,,,,,,,,,,,,,,,,,,,,,,,,,,,,,,,,,,,,,,,,,,,,,,,,,,,,,,,,,,,,,,,,,,1.0472,596.2408020999283,None,space,1,596.2408020999283,None,0.515495500061661,P009,fencog,1,Pre,2021_Aug_10_1132,N-Back (New Version 2021),2021.1.4,119.13157804925794,
,,,,Conditions/Version_1/zeroback(1)_v1.xlsx,Rule: Press 'space' when you see the letter 'x' or 'X'.,n,None,,,,,,,,,0,0,0,0,0,7,7,7,,,,,,,,,,,,,,,,,,,,,,,,,,,,,,,,,,,,,,,,,,,,,,,,,,,,,,,,,,,,,,,,,,,,,1.1402,599.3892731000669,None,None,1,599.3892731000669,None,,P009,fencog,1,Pre,2021_Aug_10_1132,N-Back (New Version 2021),2021.1.4,119.13157804925794,
,,,,Conditions/Version_1/zeroback(1)_v1.xlsx,Rule: Press 'space' when you see the letter 'x' or 'X'.,M,None,,,,,,,,,0,0,0,0,0,8,8,8,,,,,,,,,,,,,,,,,,,,,,,,,,,,,,,,,,,,,,,,,,,,,,,,,,,,,,,,,,,,,,,,,,,,,1.1836,602.580574200023,None,None,1,602.580574200023,None,,P009,fencog,1,Pre,2021_Aug_10_1132,N-Back (New Version 2021),2021.1.4,119.13157804925794,
,,,,Conditions/Version_1/zeroback(1)_v1.xlsx,Rule: Press 'space' when you see the letter 'x' or 'X'.,a,None,,,,,,,,,0,0,0,0,0,9,9,9,,,,,,,,,,,,,,,,,,,,,,,,,,,,,,,,,,,,,,,,,,,,,,,,,,,,,,,,,,,,,,,,,,,,,1.6672,606.2529012002051,None,None,1,606.2529012002051,None,,P009,fencog,1,Pre,2021_Aug_10_1132,N-Back (New Version 2021),2021.1.4,119.13157804925794,
,,,,Conditions/Version_1/zeroback(1)_v1.xlsx,Rule: Press 'space' when you see the letter 'x' or 'X'.,,,,,,,,,,,0,0,0,0,,,,,,,,,,,,,,,,,,,,,,,,,,,,,,,,,,,,,,,,,,,,,,,,,,,,,,,,,,,,,,,,,,,,,,,,,,,,,,,,,P009,fencog,1,Pre,2021_Aug_10_1132,N-Back (New Version 2021),2021.1.4,119.13157804925794,
,,,,Conditions/Version_1/oneback(1)_v1.xlsx,New rule: Press 'space' when you see 1-back (i.e. the same letter as the one that appeared 1 letter ago.),b,None,,,,,,,,,0,1,1,1,0,0,0,0,,,,,,,,,,,,,,,,,,,,,,,,,,,,,,,,,,,,,,,,,,,,,,,,,,,,,,,,,,,608.2834505001083,None,611.2696322998963,None,space,5.622470700182021,611.2696322998963,None,608.2834505001083,None,1.3882,618.2994356998242,None,None,1,618.2994356998242,None,,P009,fencog,1,Pre,2021_Aug_10_1132,N-Back (New Version 2021),2021.1.4,119.13157804925794,
,,,,Conditions/Version_1/oneback(1)_v1.xlsx,New rule: Press 'space' when you see 1-back (i.e. the same letter as the one that appeared 1 letter ago.),p,None,,,,,,,,,0,1,1,1,0,1,1,1,,,,,,,,,,,,,,,,,,,,,,,,,,,,,,,,,,,,,,,,,,,,,,,,,,,,,,,,,,,,,,,,,,,,,1.1464,621.455593300052,None,None,1,621.455593300052,None,,P009,fencog,1,Pre,2021_Aug_10_1132,N-Back (New Version 2021),2021.1.4,119.13157804925794,
,,,,Conditions/Version_1/oneback(1)_v1.xlsx,New rule: Press 'space' when you see 1-back (i.e. the same letter as the one that appeared 1 letter ago.),M,None,,,,,,,,,0,1,1,1,0,2,2,2,,,,,,,,,,,,,,,,,,,,,,,,,,,,,,,,,,,,,,,,,,,,,,,,,,,,,,,,,,,,,,,,,,,,,1.1898,624.6566595998593,None,None,1,624.6566595998593,None,,P009,fencog,1,Pre,2021_Aug_10_1132,N-Back (New Version 2021),2021.1.4,119.13157804925794,
,,,,Conditions/Version_1/oneback(1)_v1.xlsx,New rule: Press 'space' when you see 1-back (i.e. the same letter as the one that appeared 1 letter ago.),M,space,,,,,,,,,0,1,1,1,0,3,3,3,,,,,,,,,,,,,,,,,,,,,,,,,,,,,,,,,,,,,,,,,,,,,,,,,,,,,,,,,,,,,,,,,,,,,1.4564,628.1205265000463,None,space,1,628.1205265000463,None,0.53194829961285,P009,fencog,1,Pre,2021_Aug_10_1132,N-Back (New Version 2021),2021.1.4,119.13157804925794,
,,,,Conditions/Version_1/oneback(1)_v1.xlsx,New rule: Press 'space' when you see 1-back (i.e. the same letter as the one that appeared 1 letter ago.),n,None,,,,,,,,,0,1,1,1,0,4,4,4,,,,,,,,,,,,,,,,,,,,,,,,,,,,,,,,,,,,,,,,,,,,,,,,,,,,,,,,,,,,,,,,,,,,,1.5246,631.65270339977,None,None,1,631.65270339977,None,,P009,fencog,1,Pre,2021_Aug_10_1132,N-Back (New Version 2021),2021.1.4,119.13157804925794,
,,,,Conditions/Version_1/oneback(1)_v1.xlsx,New rule: Press 'space' when you see 1-back (i.e. the same letter as the one that appeared 1 letter ago.),g,None,,,,,,,,,0,1,1,1,0,5,5,5,,,,,,,,,,,,,,,,,,,,,,,,,,,,,,,,,,,,,,,,,,,,,,,,,,,,,,,,,,,,,,,,,,,,,1.0348,634.6936411000788,None,None,1,634.6936411000788,None,,P009,fencog,1,Pre,2021_Aug_10_1132,N-Back (New Version 2021),2021.1.4,119.13157804925794,
,,,,Conditions/Version_1/oneback(1)_v1.xlsx,New rule: Press 'space' when you see 1-back (i.e. the same letter as the one that appeared 1 letter ago.),P,None,,,,,,,,,0,1,1,1,0,6,6,6,,,,,,,,,,,,,,,,,,,,,,,,,,,,,,,,,,,,,,,,,,,,,,,,,,,,,,,,,,,,,,,,,,,,,1.8594,638.5597525998019,None,None,1,638.5597525998019,None,,P009,fencog,1,Pre,2021_Aug_10_1132,N-Back (New Version 2021),2021.1.4,119.13157804925794,
,,,,Conditions/Version_1/oneback(1)_v1.xlsx,New rule: Press 'space' when you see 1-back (i.e. the same letter as the one that appeared 1 letter ago.),o,None,,,,,,,,,0,1,1,1,0,7,7,7,,,,,,,,,,,,,,,,,,,,,,,,,,,,,,,,,,,,,,,,,,,,,,,,,,,,,,,,,,,,,,,,,,,,,1.6424,642.2174185002223,None,None,1,642.2174185002223,None,,P009,fencog,1,Pre,2021_Aug_10_1132,N-Back (New Version 2021),2021.1.4,119.13157804925794,
,,,,Conditions/Version_1/oneback(1)_v1.xlsx,New rule: Press 'space' when you see 1-back (i.e. the same letter as the one that appeared 1 letter ago.),f,None,,,,,,,,,0,1,1,1,0,8,8,8,,,,,,,,,,,,,,,,,,,,,,,,,,,,,,,,,,,,,,,,,,,,,,,,,,,,,,,,,,,,,,,,,,,,,1.8966,646.1252251002006,None,None,1,646.1252251002006,None,,P009,fencog,1,Pre,2021_Aug_10_1132,N-Back (New Version 2021),2021.1.4,119.13157804925794,
,,,,Conditions/Version_1/oneback(1)_v1.xlsx,New rule: Press 'space' when you see 1-back (i.e. the same letter as the one that appeared 1 letter ago.),F,space,,,,,,,,,0,1,1,1,0,9,9,9,,,,,,,,,,,,,,,,,,,,,,,,,,,,,,,,,,,,,,,,,,,,,,,,,,,,,,,,,,,,,,,,,,,,,1.3014,649.4423944000155,None,space,1,649.4423944000155,None,0.5060497000813484,P009,fencog,1,Pre,2021_Aug_10_1132,N-Back (New Version 2021),2021.1.4,119.13157804925794,
,,,,Conditions/Version_1/oneback(1)_v1.xlsx,New rule: Press 'space' when you see 1-back (i.e. the same letter as the one that appeared 1 letter ago.),,,,,,,,,,,0,1,1,1,,,,,,,,,,,,,,,,,,,,,,,,,,,,,,,,,,,,,,,,,,,,,,,,,,,,,,,,,,,,,,,,,,,,,,,,,,,,,,,,,P009,fencog,1,Pre,2021_Aug_10_1132,N-Back (New Version 2021),2021.1.4,119.13157804925794,
,,,,Conditions/Version_1/twoback(1)_v1.xlsx,New rule: Press 'space' when you see 2-back (i.e. the same letter as the one that appeared 2 letters ago.),b,None,,,,,,,,,0,2,2,2,0,0,0,0,,,,,,,,,,,,,,,,,,,,,,,,,,,,,,,,,,,,,,,,,,,,,,,,,,,,,,,,,,,651.4687839001417,None,654.4557086997665,None,space,11.212322100065649,654.4557086997665,None,651.4687839001417,None,1.6548,667.3522823997773,None,None,1,667.3522823997773,None,,P009,fencog,1,Pre,2021_Aug_10_1132,N-Back (New Version 2021),2021.1.4,119.13157804925794,
,,,,Conditions/Version_1/twoback(1)_v1.xlsx,New rule: Press 'space' when you see 2-back (i.e. the same letter as the one that appeared 2 letters ago.),h,None,,,,,,,,,0,2,2,2,0,1,1,1,,,,,,,,,,,,,,,,,,,,,,,,,,,,,,,,,,,,,,,,,,,,,,,,,,,,,,,,,,,,,,,,,,,,,1.5928,670.9594781999476,None,None,1,670.9594781999476,None,,P009,fencog,1,Pre,2021_Aug_10_1132,N-Back (New Version 2021),2021.1.4,119.13157804925794,
,,,,Conditions/Version_1/twoback(1)_v1.xlsx,New rule: Press 'space' when you see 2-back (i.e. the same letter as the one that appeared 2 letters ago.),j,None,,,,,,,,,0,2,2,2,0,2,2,2,,,,,,,,,,,,,,,,,,,,,,,,,,,,,,,,,,,,,,,,,,,,,,,,,,,,,,,,,,,,,,,,,,,,,1.413,674.3852973999456,None,None,1,674.3852973999456,None,,P009,fencog,1,Pre,2021_Aug_10_1132,N-Back (New Version 2021),2021.1.4,119.13157804925794,
,,,,Conditions/Version_1/twoback(1)_v1.xlsx,New rule: Press 'space' when you see 2-back (i.e. the same letter as the one that appeared 2 letters ago.),H,space,,,,,,,,,0,2,2,2,0,3,3,3,,,,,,,,,,,,,,,,,,,,,,,,,,,,,,,,,,,,,,,,,,,,,,,,,,,,,,,,,,,,,,,,,,,,,1.4688,677.867811200209,None,space,1,677.867811200209,None,0.6005343999713659,P009,fencog,1,Pre,2021_Aug_10_1132,N-Back (New Version 2021),2021.1.4,119.13157804925794,
,,,,Conditions/Version_1/twoback(1)_v1.xlsx,New rule: Press 'space' when you see 2-back (i.e. the same letter as the one that appeared 2 letters ago.),p,None,,,,,,,,,0,2,2,2,0,4,4,4,,,,,,,,,,,,,,,,,,,,,,,,,,,,,,,,,,,,,,,,,,,,,,,,,,,,,,,,,,,,,,,,,,,,,1.9214,681.7973805000074,None,None,1,681.7973805000074,None,,P009,fencog,1,Pre,2021_Aug_10_1132,N-Back (New Version 2021),2021.1.4,119.13157804925794,
,,,,Conditions/Version_1/twoback(1)_v1.xlsx,New rule: Press 'space' when you see 2-back (i.e. the same letter as the one that appeared 2 letters ago.),p,None,,,,,,,,,0,2,2,2,0,5,5,5,,,,,,,,,,,,,,,,,,,,,,,,,,,,,,,,,,,,,,,,,,,,,,,,,,,,,,,,,,,,,,,,,,,,,1.8656,685.6703694998287,None,space,0,685.6703694998287,None,0.4216523002833128,P009,fencog,1,Pre,2021_Aug_10_1132,N-Back (New Version 2021),2021.1.4,119.13157804925794,
,,,,Conditions/Version_1/twoback(1)_v1.xlsx,New rule: Press 'space' when you see 2-back (i.e. the same letter as the one that appeared 2 letters ago.),w,None,,,,,,,,,0,2,2,2,0,6,6,6,,,,,,,,,,,,,,,,,,,,,,,,,,,,,,,,,,,,,,,,,,,,,,,,,,,,,,,,,,,,,,,,,,,,,1.3262,689.0039985999465,None,None,1,689.0039985999465,None,,P009,fencog,1,Pre,2021_Aug_10_1132,N-Back (New Version 2021),2021.1.4,119.13157804925794,
,,,,Conditions/Version_1/twoback(1)_v1.xlsx,New rule: Press 'space' when you see 2-back (i.e. the same letter as the one that appeared 2 letters ago.),R,None,,,,,,,,,0,2,2,2,0,7,7,7,,,,,,,,,,,,,,,,,,,,,,,,,,,,,,,,,,,,,,,,,,,,,,,,,,,,,,,,,,,,,,,,,,,,,1.7478,692.7656438997947,None,None,1,692.7656438997947,None,,P009,fencog,1,Pre,2021_Aug_10_1132,N-Back (New Version 2021),2021.1.4,119.13157804925794,
,,,,Conditions/Version_1/twoback(1)_v1.xlsx,New rule: Press 'space' when you see 2-back (i.e. the same letter as the one that appeared 2 letters ago.),a,None,,,,,,,,,0,2,2,2,0,8,8,8,,,,,,,,,,,,,,,,,,,,,,,,,,,,,,,,,,,,,,,,,,,,,,,,,,,,,,,,,,,,,,,,,,,,,1.3696,696.1494268998504,None,None,1,696.1494268998504,None,,P009,fencog,1,Pre,2021_Aug_10_1132,N-Back (New Version 2021),2021.1.4,119.13157804925794,
,,,,Conditions/Version_1/twoback(1)_v1.xlsx,New rule: Press 'space' when you see 2-back (i.e. the same letter as the one that appeared 2 letters ago.),r,space,,,,,,,,,0,2,2,2,0,9,9,9,,,,,,,,,,,,,,,,,,,,,,,,,,,,,,,,,,,,,,,,,,,,,,,,,,,,,,,,,,,,,,,,,,,,,1.3324,699.4847550000995,None,space,1,699.4847550000995,None,0.5751583999954164,P009,fencog,1,Pre,2021_Aug_10_1132,N-Back (New Version 2021),2021.1.4,119.13157804925794,
,,,,Conditions/Version_1/twoback(1)_v1.xlsx,New rule: Press 'space' when you see 2-back (i.e. the same letter as the one that appeared 2 letters ago.),,,,,,,,,,,0,2,2,2,,,,,,,,,,,,,,,,,,,,,,,,,,,,,,,,,,,,,,,,,,,,,,,,,,,,,,,,,,,,,,,,,,,,,,,,,,,,,,,,,P009,fencog,1,Pre,2021_Aug_10_1132,N-Back (New Version 2021),2021.1.4,119.13157804925794,
,,,,Conditions/Version_1/threeback(1)_v1.xlsx,New rule: Press 'space' when you see 3-back (i.e. the same letter as the one that appeared 3 letters ago.),r,None,,,,,,,,,0,3,3,3,0,0,0,0,,,,,,,,,,,,,,,,,,,,,,,,,,,,,,,,,,,,,,,,,,,,,,,,,,,,,,,,,,,701.5233155000024,None,704.5005554999225,None,space,5.63138459995389,704.5005554999225,None,701.5233155000024,None,1.9524,712.1122237001546,None,None,1,712.1122237001546,None,,P009,fencog,1,Pre,2021_Aug_10_1132,N-Back (New Version 2021),2021.1.4,119.13157804925794,
,,,,Conditions/Version_1/threeback(1)_v1.xlsx,New rule: Press 'space' when you see 3-back (i.e. the same letter as the one that appeared 3 letters ago.),o,None,,,,,,,,,0,3,3,3,0,1,1,1,,,,,,,,,,,,,,,,,,,,,,,,,,,,,,,,,,,,,,,,,,,,,,,,,,,,,,,,,,,,,,,,,,,,,1.7664,715.8816336002201,None,None,1,715.8816336002201,None,,P009,fencog,1,Pre,2021_Aug_10_1132,N-Back (New Version 2021),2021.1.4,119.13157804925794,
,,,,Conditions/Version_1/threeback(1)_v1.xlsx,New rule: Press 'space' when you see 3-back (i.e. the same letter as the one that appeared 3 letters ago.),P,None,,,,,,,,,0,3,3,3,0,2,2,2,,,,,,,,,,,,,,,,,,,,,,,,,,,,,,,,,,,,,,,,,,,,,,,,,,,,,,,,,,,,,,,,,,,,,1.8346,719.7274885000661,None,None,1,719.7274885000661,None,,P009,fencog,1,Pre,2021_Aug_10_1132,N-Back (New Version 2021),2021.1.4,119.13157804925794,
,,,,Conditions/Version_1/threeback(1)_v1.xlsx,New rule: Press 'space' when you see 3-back (i.e. the same letter as the one that appeared 3 letters ago.),R,space,,,,,,,,,0,3,3,3,0,3,3,3,,,,,,,,,,,,,,,,,,,,,,,,,,,,,,,,,,,,,,,,,,,,,,,,,,,,,,,,,,,,,,,,,,,,,1.94,723.6795378001407,None,space,1,723.6795378001407,None,0.5645007998682559,P009,fencog,1,Pre,2021_Aug_10_1132,N-Back (New Version 2021),2021.1.4,119.13157804925794,
,,,,Conditions/Version_1/threeback(1)_v1.xlsx,New rule: Press 'space' when you see 3-back (i.e. the same letter as the one that appeared 3 letters ago.),p,None,,,,,,,,,0,3,3,3,0,4,4,4,,,,,,,,,,,,,,,,,,,,,,,,,,,,,,,,,,,,,,,,,,,,,,,,,,,,,,,,,,,,,,,,,,,,,1.0162,726.7011087997817,None,None,1,726.7011087997817,None,,P009,fencog,1,Pre,2021_Aug_10_1132,N-Back (New Version 2021),2021.1.4,119.13157804925794,
,,,,Conditions/Version_1/threeback(1)_v1.xlsx,New rule: Press 'space' when you see 3-back (i.e. the same letter as the one that appeared 3 letters ago.),E,None,,,,,,,,,0,3,3,3,0,5,5,5,,,,,,,,,,,,,,,,,,,,,,,,,,,,,,,,,,,,,,,,,,,,,,,,,,,,,,,,,,,,,,,,,,,,,1.2456,729.9580828999169,None,None,1,729.9580828999169,None,,P009,fencog,1,Pre,2021_Aug_10_1132,N-Back (New Version 2021),2021.1.4,119.13157804925794,
,,,,Conditions/Version_1/threeback(1)_v1.xlsx,New rule: Press 'space' when you see 3-back (i.e. the same letter as the one that appeared 3 letters ago.),e,None,,,,,,,,,0,3,3,3,0,6,6,6,,,,,,,,,,,,,,,,,,,,,,,,,,,,,,,,,,,,,,,,,,,,,,,,,,,,,,,,,,,,,,,,,,,,,1.103,733.0740415002219,None,None,1,733.0740415002219,None,,P009,fencog,1,Pre,2021_Aug_10_1132,N-Back (New Version 2021),2021.1.4,119.13157804925794,
,,,,Conditions/Version_1/threeback(1)_v1.xlsx,New rule: Press 'space' when you see 3-back (i.e. the same letter as the one that appeared 3 letters ago.),m,None,,,,,,,,,0,3,3,3,0,7,7,7,,,,,,,,,,,,,,,,,,,,,,,,,,,,,,,,,,,,,,,,,,,,,,,,,,,,,,,,,,,,,,,,,,,,,1.723,736.8083529998548,None,None,1,736.8083529998548,None,,P009,fencog,1,Pre,2021_Aug_10_1132,N-Back (New Version 2021),2021.1.4,119.13157804925794,
,,,,Conditions/Version_1/threeback(1)_v1.xlsx,New rule: Press 'space' when you see 3-back (i.e. the same letter as the one that appeared 3 letters ago.),n,None,,,,,,,,,0,3,3,3,0,8,8,8,,,,,,,,,,,,,,,,,,,,,,,,,,,,,,,,,,,,,,,,,,,,,,,,,,,,,,,,,,,,,,,,,,,,,1.1836,739.9969454999082,None,None,1,739.9969454999082,None,,P009,fencog,1,Pre,2021_Aug_10_1132,N-Back (New Version 2021),2021.1.4,119.13157804925794,
,,,,Conditions/Version_1/threeback(1)_v1.xlsx,New rule: Press 'space' when you see 3-back (i.e. the same letter as the one that appeared 3 letters ago.),e,space,,,,,,,,,0,3,3,3,0,9,9,9,,,,,,,,,,,,,,,,,,,,,,,,,,,,,,,,,,,,,,,,,,,,,,,,,,,,,,,,,,,,,,,,,,,,,1.8098,743.8193089999259,None,None,0,743.8193089999259,None,,P009,fencog,1,Pre,2021_Aug_10_1132,N-Back (New Version 2021),2021.1.4,119.13157804925794,
,,,,Conditions/Version_1/threeback(1)_v1.xlsx,New rule: Press 'space' when you see 3-back (i.e. the same letter as the one that appeared 3 letters ago.),,,,,,,,,,,0,3,3,3,,,,,,,,,,,,,,,,,,,,,,,,,,,,,,,,,,,,,,,,,,,,,,,,,,,,,,,,,,,,,,,,,,,,,,,,,,,,,,,,,P009,fencog,1,Pre,2021_Aug_10_1132,N-Back (New Version 2021),2021.1.4,119.13157804925794,
,,,,Conditions/Version_1/oneback(2)_v1.xlsx,New rule: Press 'space' when you see 1-back (i.e. the same letter as the one that appeared 1 letter ago.),q,None,,,,,,,,,0,4,4,4,0,0,0,0,,,,,,,,,,,,,,,,,,,,,,,,,,,,,,,,,,,,,,,,,,,,,,,,,,,,,,,,,,,745.8433023001999,None,748.8315888000652,None,space,10.972502100281417,748.8315888000652,None,745.8433023001999,None,1.7106,761.5475956001319,None,None,1,761.5475956001319,None,,P009,fencog,1,Pre,2021_Aug_10_1132,N-Back (New Version 2021),2021.1.4,119.13157804925794,
,,,,Conditions/Version_1/oneback(2)_v1.xlsx,New rule: Press 'space' when you see 1-back (i.e. the same letter as the one that appeared 1 letter ago.),Q,space,,,,,,,,,0,4,4,4,0,1,1,1,,,,,,,,,,,,,,,,,,,,,,,,,,,,,,,,,,,,,,,,,,,,,,,,,,,,,,,,,,,,,,,,,,,,,1.9958,765.5479934001341,None,space,1,765.5479934001341,None,0.5839444999583066,P009,fencog,1,Pre,2021_Aug_10_1132,N-Back (New Version 2021),2021.1.4,119.13157804925794,
,,,,Conditions/Version_1/oneback(2)_v1.xlsx,New rule: Press 'space' when you see 1-back (i.e. the same letter as the one that appeared 1 letter ago.),P,None,,,,,,,,,0,4,4,4,0,2,2,2,,,,,,,,,,,,,,,,,,,,,,,,,,,,,,,,,,,,,,,,,,,,,,,,,,,,,,,,,,,,,,,,,,,,,1.7912,769.3478504000232,None,None,1,769.3478504000232,None,,P009,fencog,1,Pre,2021_Aug_10_1132,N-Back (New Version 2021),2021.1.4,119.13157804925794,
,,,,Conditions/Version_1/oneback(2)_v1.xlsx,New rule: Press 'space' when you see 1-back (i.e. the same letter as the one that appeared 1 letter ago.),o,None,,,,,,,,,0,4,4,4,0,3,3,3,,,,,,,,,,,,,,,,,,,,,,,,,,,,,,,,,,,,,,,,,,,,,,,,,,,,,,,,,,,,,,,,,,,,,1.0348,772.3962941002101,None,None,1,772.3962941002101,None,,P009,fencog,1,Pre,2021_Aug_10_1132,N-Back (New Version 2021),2021.1.4,119.13157804925794,
,,,,Conditions/Version_1/oneback(2)_v1.xlsx,New rule: Press 'space' when you see 1-back (i.e. the same letter as the one that appeared 1 letter ago.),m,None,,,,,,,,,0,4,4,4,0,4,4,4,,,,,,,,,,,,,,,,,,,,,,,,,,,,,,,,,,,,,,,,,,,,,,,,,,,,,,,,,,,,,,,,,,,,,1.3324,775.7350737000816,None,None,1,775.7350737000816,None,,P009,fencog,1,Pre,2021_Aug_10_1132,N-Back (New Version 2021),2021.1.4,119.13157804925794,
,,,,Conditions/Version_1/oneback(2)_v1.xlsx,New rule: Press 'space' when you see 1-back (i.e. the same letter as the one that appeared 1 letter ago.),Z,None,,,,,,,,,0,4,4,4,0,5,5,5,,,,,,,,,,,,,,,,,,,,,,,,,,,,,,,,,,,,,,,,,,,,,,,,,,,,,,,,,,,,,,,,,,,,,1.258,778.9935269998387,None,None,1,778.9935269998387,None,,P009,fencog,1,Pre,2021_Aug_10_1132,N-Back (New Version 2021),2021.1.4,119.13157804925794,
,,,,Conditions/Version_1/oneback(2)_v1.xlsx,New rule: Press 'space' when you see 1-back (i.e. the same letter as the one that appeared 1 letter ago.),c,None,,,,,,,,,0,4,4,4,0,6,6,6,,,,,,,,,,,,,,,,,,,,,,,,,,,,,,,,,,,,,,,,,,,,,,,,,,,,,,,,,,,,,,,,,,,,,1.8036,782.8103439998813,None,None,1,782.8103439998813,None,,P009,fencog,1,Pre,2021_Aug_10_1132,N-Back (New Version 2021),2021.1.4,119.13157804925794,
,,,,Conditions/Version_1/oneback(2)_v1.xlsx,New rule: Press 'space' when you see 1-back (i.e. the same letter as the one that appeared 1 letter ago.),c,space,,,,,,,,,0,4,4,4,0,7,7,7,,,,,,,,,,,,,,,,,,,,,,,,,,,,,,,,,,,,,,,,,,,,,,,,,,,,,,,,,,,,,,,,,,,,,1.2704,786.0904425000772,None,space,1,786.0904425000772,None,0.44961420027539134,P009,fencog,1,Pre,2021_Aug_10_1132,N-Back (New Version 2021),2021.1.4,119.13157804925794,
,,,,Conditions/Version_1/oneback(2)_v1.xlsx,New rule: Press 'space' when you see 1-back (i.e. the same letter as the one that appeared 1 letter ago.),P,None,,,,,,,,,0,4,4,4,0,8,8,8,,,,,,,,,,,,,,,,,,,,,,,,,,,,,,,,,,,,,,,,,,,,,,,,,,,,,,,,,,,,,,,,,,,,,1.165,789.2561301998794,None,None,1,789.2561301998794,None,,P009,fencog,1,Pre,2021_Aug_10_1132,N-Back (New Version 2021),2021.1.4,119.13157804925794,
,,,,Conditions/Version_1/oneback(2)_v1.xlsx,New rule: Press 'space' when you see 1-back (i.e. the same letter as the one that appeared 1 letter ago.),p,space,,,,,,,,,0,4,4,4,0,9,9,9,,,,,,,,,,,,,,,,,,,,,,,,,,,,,,,,,,,,,,,,,,,,,,,,,,,,,,,,,,,,,,,,,,,,,1.382,792.6397835002281,None,space,1,792.6397835002281,None,0.4443743000738323,P009,fencog,1,Pre,2021_Aug_10_1132,N-Back (New Version 2021),2021.1.4,119.13157804925794,
,,,,Conditions/Version_1/oneback(2)_v1.xlsx,New rule: Press 'space' when you see 1-back (i.e. the same letter as the one that appeared 1 letter ago.),,,,,,,,,,,0,4,4,4,,,,,,,,,,,,,,,,,,,,,,,,,,,,,,,,,,,,,,,,,,,,,,,,,,,,,,,,,,,,,,,,,,,,,,,,,,,,,,,,,P009,fencog,1,Pre,2021_Aug_10_1132,N-Back (New Version 2021),2021.1.4,119.13157804925794,
,,,,Conditions/Version_1/zeroback(2)_v1.xlsx,New rule: Press 'space' when you see the letter 'x' or 'X'.,p,None,,,,,,,,,0,5,5,5,0,0,0,0,,,,,,,,,,,,,,,,,,,,,,,,,,,,,,,,,,,,,,,,,,,,,,,,,,,,,,,,,,,794.6682714000344,None,797.6558965998702,None,space,1.515816600061953,797.6558965998702,None,794.6682714000344,None,1.1526,800.3610788001679,None,None,1,800.3610788001679,None,,P009,fencog,1,Pre,2021_Aug_10_1132,N-Back (New Version 2021),2021.1.4,119.13157804925794,
,,,,Conditions/Version_1/zeroback(2)_v1.xlsx,New rule: Press 'space' when you see the letter 'x' or 'X'.,L,None,,,,,,,,,0,5,5,5,0,1,1,1,,,,,,,,,,,,,,,,,,,,,,,,,,,,,,,,,,,,,,,,,,,,,,,,,,,,,,,,,,,,,,,,,,,,,1.7788,804.1449199998751,None,None,1,804.1449199998751,None,,P009,fencog,1,Pre,2021_Aug_10_1132,N-Back (New Version 2021),2021.1.4,119.13157804925794,
,,,,Conditions/Version_1/zeroback(2)_v1.xlsx,New rule: Press 'space' when you see the letter 'x' or 'X'.,G,None,,,,,,,,,0,5,5,5,0,2,2,2,,,,,,,,,,,,,,,,,,,,,,,,,,,,,,,,,,,,,,,,,,,,,,,,,,,,,,,,,,,,,,,,,,,,,1.4006,807.5590376998298,None,None,1,807.5590376998298,None,,P009,fencog,1,Pre,2021_Aug_10_1132,N-Back (New Version 2021),2021.1.4,119.13157804925794,
,,,,Conditions/Version_1/zeroback(2)_v1.xlsx,New rule: Press 'space' when you see the letter 'x' or 'X'.,y,None,,,,,,,,,0,5,5,5,0,3,3,3,,,,,,,,,,,,,,,,,,,,,,,,,,,,,,,,,,,,,,,,,,,,,,,,,,,,,,,,,,,,,,,,,,,,,1.5432,811.1113690999337,None,None,1,811.1113690999337,None,,P009,fencog,1,Pre,2021_Aug_10_1132,N-Back (New Version 2021),2021.1.4,119.13157804925794,
,,,,Conditions/Version_1/zeroback(2)_v1.xlsx,New rule: Press 'space' when you see the letter 'x' or 'X'.,Y,None,,,,,,,,,0,5,5,5,0,4,4,4,,,,,,,,,,,,,,,,,,,,,,,,,,,,,,,,,,,,,,,,,,,,,,,,,,,,,,,,,,,,,,,,,,,,,1.7044,814.8254116000608,None,None,1,814.8254116000608,None,,P009,fencog,1,Pre,2021_Aug_10_1132,N-Back (New Version 2021),2021.1.4,119.13157804925794,
,,,,Conditions/Version_1/zeroback(2)_v1.xlsx,New rule: Press 'space' when you see the letter 'x' or 'X'.,W,None,,,,,,,,,0,5,5,5,0,5,5,5,,,,,,,,,,,,,,,,,,,,,,,,,,,,,,,,,,,,,,,,,,,,,,,,,,,,,,,,,,,,,,,,,,,,,1.0658,817.9008344998583,None,None,1,817.9008344998583,None,,P009,fencog,1,Pre,2021_Aug_10_1132,N-Back (New Version 2021),2021.1.4,119.13157804925794,
,,,,Conditions/Version_1/zeroback(2)_v1.xlsx,New rule: Press 'space' when you see the letter 'x' or 'X'.,x,space,,,,,,,,,0,5,5,5,0,6,6,6,,,,,,,,,,,,,,,,,,,,,,,,,,,,,,,,,,,,,,,,,,,,,,,,,,,,,,,,,,,,,,,,,,,,,1.0224,820.9310770998709,None,space,1,820.9310770998709,None,0.4811107995919883,P009,fencog,1,Pre,2021_Aug_10_1132,N-Back (New Version 2021),2021.1.4,119.13157804925794,
,,,,Conditions/Version_1/zeroback(2)_v1.xlsx,New rule: Press 'space' when you see the letter 'x' or 'X'.,X,space,,,,,,,,,0,5,5,5,0,7,7,7,,,,,,,,,,,,,,,,,,,,,,,,,,,,,,,,,,,,,,,,,,,,,,,,,,,,,,,,,,,,,,,,,,,,,1.6672,824.6159680997953,None,space,1,824.6159680997953,None,0.5080817001871765,P009,fencog,1,Pre,2021_Aug_10_1132,N-Back (New Version 2021),2021.1.4,119.13157804925794,
,,,,Conditions/Version_1/zeroback(2)_v1.xlsx,New rule: Press 'space' when you see the letter 'x' or 'X'.,p,None,,,,,,,,,0,5,5,5,0,8,8,8,,,,,,,,,,,,,,,,,,,,,,,,,,,,,,,,,,,,,,,,,,,,,,,,,,,,,,,,,,,,,,,,,,,,,1.6114,828.2406327999197,None,None,1,828.2406327999197,None,,P009,fencog,1,Pre,2021_Aug_10_1132,N-Back (New Version 2021),2021.1.4,119.13157804925794,
,,,,Conditions/Version_1/zeroback(2)_v1.xlsx,New rule: Press 'space' when you see the letter 'x' or 'X'.,h,None,,,,,,,,,0,5,5,5,0,9,9,9,,,,,,,,,,,,,,,,,,,,,,,,,,,,,,,,,,,,,,,,,,,,,,,,,,,,,,,,,,,,,,,,,,,,,1.6548,831.9062295998447,None,None,1,831.9062295998447,None,,P009,fencog,1,Pre,2021_Aug_10_1132,N-Back (New Version 2021),2021.1.4,119.13157804925794,
,,,,Conditions/Version_1/zeroback(2)_v1.xlsx,New rule: Press 'space' when you see the letter 'x' or 'X'.,,,,,,,,,,,0,5,5,5,,,,,,,,,,,,,,,,,,,,,,,,,,,,,,,,,,,,,,,,,,,,,,,,,,,,,,,,,,,,,,,,,,,,,,,,,,,,,,,,,P009,fencog,1,Pre,2021_Aug_10_1132,N-Back (New Version 2021),2021.1.4,119.13157804925794,
,,,,Conditions/Version_1/threeback(2)_v1.xlsx,New rule: Press 'space' when you see 3-back (i.e. the same letter as the one that appeared 3 letters ago.),q,None,,,,,,,,,0,6,6,6,0,0,0,0,,,,,,,,,,,,,,,,,,,,,,,,,,,,,,,,,,,,,,,,,,,,,,,,,,,,,,,,,,,833.9323022998869,None,836.9193120999262,None,space,5.364248299971223,836.9193120999262,None,833.9323022998869,None,1.816,844.1255316999741,None,None,1,844.1255316999741,None,,P009,fencog,1,Pre,2021_Aug_10_1132,N-Back (New Version 2021),2021.1.4,119.13157804925794,
,,,,Conditions/Version_1/threeback(2)_v1.xlsx,New rule: Press 'space' when you see 3-back (i.e. the same letter as the one that appeared 3 letters ago.),Y,None,,,,,,,,,0,6,6,6,0,1,1,1,,,,,,,,,,,,,,,,,,,,,,,,,,,,,,,,,,,,,,,,,,,,,,,,,,,,,,,,,,,,,,,,,,,,,1.1526,847.2910923999734,None,None,1,847.2910923999734,None,,P009,fencog,1,Pre,2021_Aug_10_1132,N-Back (New Version 2021),2021.1.4,119.13157804925794,
,,,,Conditions/Version_1/threeback(2)_v1.xlsx,New rule: Press 'space' when you see 3-back (i.e. the same letter as the one that appeared 3 letters ago.),p,None,,,,,,,,,0,6,6,6,0,2,2,2,,,,,,,,,,,,,,,,,,,,,,,,,,,,,,,,,,,,,,,,,,,,,,,,,,,,,,,,,,,,,,,,,,,,,1.4626,850.7671229001135,None,None,1,850.7671229001135,None,,P009,fencog,1,Pre,2021_Aug_10_1132,N-Back (New Version 2021),2021.1.4,119.13157804925794,
,,,,Conditions/Version_1/threeback(2)_v1.xlsx,New rule: Press 'space' when you see 3-back (i.e. the same letter as the one that appeared 3 letters ago.),p,None,,,,,,,,,0,6,6,6,0,3,3,3,,,,,,,,,,,,,,,,,,,,,,,,,,,,,,,,,,,,,,,,,,,,,,,,,,,,,,,,,,,,,,,,,,,,,1.1402,853.9119461001828,None,None,1,853.9119461001828,None,,P009,fencog,1,Pre,2021_Aug_10_1132,N-Back (New Version 2021),2021.1.4,119.13157804925794,
,,,,Conditions/Version_1/threeback(2)_v1.xlsx,New rule: Press 'space' when you see 3-back (i.e. the same letter as the one that appeared 3 letters ago.),y,space,,,,,,,,,0,6,6,6,0,4,4,4,,,,,,,,,,,,,,,,,,,,,,,,,,,,,,,,,,,,,,,,,,,,,,,,,,,,,,,,,,,,,,,,,,,,,1.0286,856.9481866997667,None,space,1,856.9481866997667,None,0.967749800067395,P009,fencog,1,Pre,2021_Aug_10_1132,N-Back (New Version 2021),2021.1.4,119.13157804925794,
,,,,Conditions/Version_1/threeback(2)_v1.xlsx,New rule: Press 'space' when you see 3-back (i.e. the same letter as the one that appeared 3 letters ago.),u,None,,,,,,,,,0,6,6,6,0,5,5,5,,,,,,,,,,,,,,,,,,,,,,,,,,,,,,,,,,,,,,,,,,,,,,,,,,,,,,,,,,,,,,,,,,,,,1.2518,860.2100388999097,None,None,1,860.2100388999097,None,,P009,fencog,1,Pre,2021_Aug_10_1132,N-Back (New Version 2021),2021.1.4,119.13157804925794,
,,,,Conditions/Version_1/threeback(2)_v1.xlsx,New rule: Press 'space' when you see 3-back (i.e. the same letter as the one that appeared 3 letters ago.),P,space,,,,,,,,,0,6,6,6,0,6,6,6,,,,,,,,,,,,,,,,,,,,,,,,,,,,,,,,,,,,,,,,,,,,,,,,,,,,,,,,,,,,,,,,,,,,,1.1154,863.3279148000292,None,space,1,863.3279148000292,None,0.6201140000484884,P009,fencog,1,Pre,2021_Aug_10_1132,N-Back (New Version 2021),2021.1.4,119.13157804925794,
,,,,Conditions/Version_1/threeback(2)_v1.xlsx,New rule: Press 'space' when you see 3-back (i.e. the same letter as the one that appeared 3 letters ago.),a,None,,,,,,,,,0,6,6,6,0,7,7,7,,,,,,,,,,,,,,,,,,,,,,,,,,,,,,,,,,,,,,,,,,,,,,,,,,,,,,,,,,,,,,,,,,,,,1.0906,866.4370591999032,None,None,1,866.4370591999032,None,,P009,fencog,1,Pre,2021_Aug_10_1132,N-Back (New Version 2021),2021.1.4,119.13157804925794,
,,,,Conditions/Version_1/threeback(2)_v1.xlsx,New rule: Press 'space' when you see 3-back (i.e. the same letter as the one that appeared 3 letters ago.),U,space,,,,,,,,,0,6,6,6,0,8,8,8,,,,,,,,,,,,,,,,,,,,,,,,,,,,,,,,,,,,,,,,,,,,,,,,,,,,,,,,,,,,,,,,,,,,,1.0162,869.4605306000449,None,None,0,869.4605306000449,None,,P009,fencog,1,Pre,2021_Aug_10_1132,N-Back (New Version 2021),2021.1.4,119.13157804925794,
,,,,Conditions/Version_1/threeback(2)_v1.xlsx,New rule: Press 'space' when you see 3-back (i.e. the same letter as the one that appeared 3 letters ago.),q,None,,,,,,,,,0,6,6,6,0,9,9,9,,,,,,,,,,,,,,,,,,,,,,,,,,,,,,,,,,,,,,,,,,,,,,,,,,,,,,,,,,,,,,,,,,,,,1.6548,873.1268686000258,None,None,1,873.1268686000258,None,,P009,fencog,1,Pre,2021_Aug_10_1132,N-Back (New Version 2021),2021.1.4,119.13157804925794,
,,,,Conditions/Version_1/threeback(2)_v1.xlsx,New rule: Press 'space' when you see 3-back (i.e. the same letter as the one that appeared 3 letters ago.),,,,,,,,,,,0,6,6,6,,,,,,,,,,,,,,,,,,,,,,,,,,,,,,,,,,,,,,,,,,,,,,,,,,,,,,,,,,,,,,,,,,,,,,,,,,,,,,,,,P009,fencog,1,Pre,2021_Aug_10_1132,N-Back (New Version 2021),2021.1.4,119.13157804925794,
,,,,Conditions/Version_1/twoback(2)_v1.xlsx,New rule: Press 'space' when you see 2-back (i.e. the same letter as the one that appeared 2 letters ago.),q,None,,,,,,,,,0,7,7,7,0,0,0,0,,,,,,,,,,,,,,,,,,,,,,,,,,,,,,,,,,,,,,,,,,,,,,,,,,,,,,,,,,,875.1526144999079,None,878.1398168001324,None,space,5.43203129991889,878.1398168001324,None,875.1526144999079,None,1.6796,885.2776470999233,None,None,1,885.2776470999233,None,,P009,fencog,1,Pre,2021_Aug_10_1132,N-Back (New Version 2021),2021.1.4,119.13157804925794,
,,,,Conditions/Version_1/twoback(2)_v1.xlsx,New rule: Press 'space' when you see 2-back (i.e. the same letter as the one that appeared 2 letters ago.),r,None,,,,,,,,,0,7,7,7,0,1,1,1,,,,,,,,,,,,,,,,,,,,,,,,,,,,,,,,,,,,,,,,,,,,,,,,,,,,,,,,,,,,,,,,,,,,,1.134,888.4184198998846,None,None,1,888.4184198998846,None,,P009,fencog,1,Pre,2021_Aug_10_1132,N-Back (New Version 2021),2021.1.4,119.13157804925794,
,,,,Conditions/Version_1/twoback(2)_v1.xlsx,New rule: Press 'space' when you see 2-back (i.e. the same letter as the one that appeared 2 letters ago.),q,space,,,,,,,,,0,7,7,7,0,2,2,2,,,,,,,,,,,,,,,,,,,,,,,,,,,,,,,,,,,,,,,,,,,,,,,,,,,,,,,,,,,,,,,,,,,,,1.5246,891.9423421998508,None,space,1,891.9423421998508,None,0.6617201999761164,P009,fencog,1,Pre,2021_Aug_10_1132,N-Back (New Version 2021),2021.1.4,119.13157804925794,
,,,,Conditions/Version_1/twoback(2)_v1.xlsx,New rule: Press 'space' when you see 2-back (i.e. the same letter as the one that appeared 2 letters ago.),P,None,,,,,,,,,0,7,7,7,0,3,3,3,,,,,,,,,,,,,,,,,,,,,,,,,,,,,,,,,,,,,,,,,,,,,,,,,,,,,,,,,,,,,,,,,,,,,1.8718,895.817466000095,None,None,1,895.817466000095,None,,P009,fencog,1,Pre,2021_Aug_10_1132,N-Back (New Version 2021),2021.1.4,119.13157804925794,
,,,,Conditions/Version_1/twoback(2)_v1.xlsx,New rule: Press 'space' when you see 2-back (i.e. the same letter as the one that appeared 2 letters ago.),p,None,,,,,,,,,0,7,7,7,0,4,4,4,,,,,,,,,,,,,,,,,,,,,,,,,,,,,,,,,,,,,,,,,,,,,,,,,,,,,,,,,,,,,,,,,,,,,1.3572,899.18341219984,None,None,1,899.18341219984,None,,P009,fencog,1,Pre,2021_Aug_10_1132,N-Back (New Version 2021),2021.1.4,119.13157804925794,
,,,,Conditions/Version_1/twoback(2)_v1.xlsx,New rule: Press 'space' when you see 2-back (i.e. the same letter as the one that appeared 2 letters ago.),H,None,,,,,,,,,0,7,7,7,0,5,5,5,,,,,,,,,,,,,,,,,,,,,,,,,,,,,,,,,,,,,,,,,,,,,,,,,,,,,,,,,,,,,,,,,,,,,1.8532,903.048591400031,None,None,1,903.048591400031,None,,P009,fencog,1,Pre,2021_Aug_10_1132,N-Back (New Version 2021),2021.1.4,119.13157804925794,
,,,,Conditions/Version_1/twoback(2)_v1.xlsx,New rule: Press 'space' when you see 2-back (i.e. the same letter as the one that appeared 2 letters ago.),g,None,,,,,,,,,0,7,7,7,0,6,6,6,,,,,,,,,,,,,,,,,,,,,,,,,,,,,,,,,,,,,,,,,,,,,,,,,,,,,,,,,,,,,,,,,,,,,1.9462,907.0064349002205,None,None,1,907.0064349002205,None,,P009,fencog,1,Pre,2021_Aug_10_1132,N-Back (New Version 2021),2021.1.4,119.13157804925794,
,,,,Conditions/Version_1/twoback(2)_v1.xlsx,New rule: Press 'space' when you see 2-back (i.e. the same letter as the one that appeared 2 letters ago.),j,None,,,,,,,,,0,7,7,7,0,7,7,7,,,,,,,,,,,,,,,,,,,,,,,,,,,,,,,,,,,,,,,,,,,,,,,,,,,,,,,,,,,,,,,,,,,,,1.7416,910.7545154001564,None,None,1,910.7545154001564,None,,P009,fencog,1,Pre,2021_Aug_10_1132,N-Back (New Version 2021),2021.1.4,119.13157804925794,
,,,,Conditions/Version_1/twoback(2)_v1.xlsx,New rule: Press 'space' when you see 2-back (i.e. the same letter as the one that appeared 2 letters ago.),g,space,,,,,,,,,0,7,7,7,0,8,8,8,,,,,,,,,,,,,,,,,,,,,,,,,,,,,,,,,,,,,,,,,,,,,,,,,,,,,,,,,,,,,,,,,,,,,1.9648,914.7294242000207,None,space,1,914.7294242000207,None,0.5786863001994789,P009,fencog,1,Pre,2021_Aug_10_1132,N-Back (New Version 2021),2021.1.4,119.13157804925794,
,,,,Conditions/Version_1/twoback(2)_v1.xlsx,New rule: Press 'space' when you see 2-back (i.e. the same letter as the one that appeared 2 letters ago.),G,None,,,,,,,,,0,7,7,7,0,9,9,9,,,,,,,,,,,,,,,,,,,,,,,,,,,,,,,,,,,,,,,,,,,,,,,,,,,,,,,,,,,,,,,,,,,,,1.9338,918.6762298000976,None,None,1,918.6762298000976,None,,P009,fencog,1,Pre,2021_Aug_10_1132,N-Back (New Version 2021),2021.1.4,119.13157804925794,
,,,,Conditions/Version_1/twoback(2)_v1.xlsx,New rule: Press 'space' when you see 2-back (i.e. the same letter as the one that appeared 2 letters ago.),,,,,,,,,,,0,7,7,7,,,,,,,,,,,,,,,,,,,,,,,,,,,,,,,,,,,,,,,,,,,,,,,,,,,,,,,,,,,,,,,,,,,,,,,,,,,,,,,,,P009,fencog,1,Pre,2021_Aug_10_1132,N-Back (New Version 2021),2021.1.4,119.13157804925794,
,,,,Conditions/Version_1/threeback(3)_v1.xlsx,New rule: Press 'space' when you see 3-back (i.e. the same letter as the one that appeared 3 letters ago.),w,None,,,,,,,,,0,8,8,8,0,0,0,0,,,,,,,,,,,,,,,,,,,,,,,,,,,,,,,,,,,,,,,,,,,,,,,,,,,,,,,,,,,920.7019609999843,None,923.6853666999377,None,space,9.918386900331825,923.6853666999377,None,920.7019609999843,None,1.0534,934.6900550997816,None,None,1,934.6900550997816,None,,P009,fencog,1,Pre,2021_Aug_10_1132,N-Back (New Version 2021),2021.1.4,119.13157804925794,
,,,,Conditions/Version_1/threeback(3)_v1.xlsx,New rule: Press 'space' when you see 3-back (i.e. the same letter as the one that appeared 3 letters ago.),p,None,,,,,,,,,0,8,8,8,0,1,1,1,,,,,,,,,,,,,,,,,,,,,,,,,,,,,,,,,,,,,,,,,,,,,,,,,,,,,,,,,,,,,,,,,,,,,1.8532,938.5560857001692,None,None,1,938.5560857001692,None,,P009,fencog,1,Pre,2021_Aug_10_1132,N-Back (New Version 2021),2021.1.4,119.13157804925794,
,,,,Conditions/Version_1/threeback(3)_v1.xlsx,New rule: Press 'space' when you see 3-back (i.e. the same letter as the one that appeared 3 letters ago.),P,None,,,,,,,,,0,8,8,8,0,2,2,2,,,,,,,,,,,,,,,,,,,,,,,,,,,,,,,,,,,,,,,,,,,,,,,,,,,,,,,,,,,,,,,,,,,,,1.5742,942.1371597000398,None,None,1,942.1371597000398,None,,P009,fencog,1,Pre,2021_Aug_10_1132,N-Back (New Version 2021),2021.1.4,119.13157804925794,
,,,,Conditions/Version_1/threeback(3)_v1.xlsx,New rule: Press 'space' when you see 3-back (i.e. the same letter as the one that appeared 3 letters ago.),i,None,,,,,,,,,0,8,8,8,0,3,3,3,,,,,,,,,,,,,,,,,,,,,,,,,,,,,,,,,,,,,,,,,,,,,,,,,,,,,,,,,,,,,,,,,,,,,1.5308,945.681980300229,None,None,1,945.681980300229,None,,P009,fencog,1,Pre,2021_Aug_10_1132,N-Back (New Version 2021),2021.1.4,119.13157804925794,
,,,,Conditions/Version_1/threeback(3)_v1.xlsx,New rule: Press 'space' when you see 3-back (i.e. the same letter as the one that appeared 3 letters ago.),f,None,,,,,,,,,0,8,8,8,0,4,4,4,,,,,,,,,,,,,,,,,,,,,,,,,,,,,,,,,,,,,,,,,,,,,,,,,,,,,,,,,,,,,,,,,,,,,1.3386,949.0295660002157,None,None,1,949.0295660002157,None,,P009,fencog,1,Pre,2021_Aug_10_1132,N-Back (New Version 2021),2021.1.4,119.13157804925794,
,,,,Conditions/Version_1/threeback(3)_v1.xlsx,New rule: Press 'space' when you see 3-back (i.e. the same letter as the one that appeared 3 letters ago.),o,None,,,,,,,,,0,8,8,8,0,5,5,5,,,,,,,,,,,,,,,,,,,,,,,,,,,,,,,,,,,,,,,,,,,,,,,,,,,,,,,,,,,,,,,,,,,,,1.5432,952.5837106998079,None,None,1,952.5837106998079,None,,P009,fencog,1,Pre,2021_Aug_10_1132,N-Back (New Version 2021),2021.1.4,119.13157804925794,
,,,,Conditions/Version_1/threeback(3)_v1.xlsx,New rule: Press 'space' when you see 3-back (i.e. the same letter as the one that appeared 3 letters ago.),w,None,,,,,,,,,0,8,8,8,0,6,6,6,,,,,,,,,,,,,,,,,,,,,,,,,,,,,,,,,,,,,,,,,,,,,,,,,,,,,,,,,,,,,,,,,,,,,1.8656,956.4582838998176,None,None,1,956.4582838998176,None,,P009,fencog,1,Pre,2021_Aug_10_1132,N-Back (New Version 2021),2021.1.4,119.13157804925794,
,,,,Conditions/Version_1/threeback(3)_v1.xlsx,New rule: Press 'space' when you see 3-back (i.e. the same letter as the one that appeared 3 letters ago.),F,space,,,,,,,,,0,8,8,8,0,7,7,7,,,,,,,,,,,,,,,,,,,,,,,,,,,,,,,,,,,,,,,,,,,,,,,,,,,,,,,,,,,,,,,,,,,,,1.3262,959.798319700174,None,space,1,959.798319700174,None,0.47720180032774806,P009,fencog,1,Pre,2021_Aug_10_1132,N-Back (New Version 2021),2021.1.4,119.13157804925794,
,,,,Conditions/Version_1/threeback(3)_v1.xlsx,New rule: Press 'space' when you see 3-back (i.e. the same letter as the one that appeared 3 letters ago.),p,None,,,,,,,,,0,8,8,8,0,8,8,8,,,,,,,,,,,,,,,,,,,,,,,,,,,,,,,,,,,,,,,,,,,,,,,,,,,,,,,,,,,,,,,,,,,,,1.103,962.9149417001754,None,space,0,962.9149417001754,None,1.0008656000718474,P009,fencog,1,Pre,2021_Aug_10_1132,N-Back (New Version 2021),2021.1.4,119.13157804925794,
,,,,Conditions/Version_1/threeback(3)_v1.xlsx,New rule: Press 'space' when you see 3-back (i.e. the same letter as the one that appeared 3 letters ago.),W,space,,,,,,,,,0,8,8,8,0,9,9,9,,,,,,,,,,,,,,,,,,,,,,,,,,,,,,,,,,,,,,,,,,,,,,,,,,,,,,,,,,,,,,,,,,,,,1.2146,966.1376383001916,None,space,1,966.1376383001916,None,1.0104375001974404,P009,fencog,1,Pre,2021_Aug_10_1132,N-Back (New Version 2021),2021.1.4,119.13157804925794,
,,,,Conditions/Version_1/threeback(3)_v1.xlsx,New rule: Press 'space' when you see 3-back (i.e. the same letter as the one that appeared 3 letters ago.),,,,,,,,,,,0,8,8,8,,,,,,,,,,,,,,,,,,,,,,,,,,,,,,,,,,,,,,,,,,,,,,,,,,,,,,,,,,,,,,,,,,,,,,,,,,,,,,,,,P009,fencog,1,Pre,2021_Aug_10_1132,N-Back (New Version 2021),2021.1.4,119.13157804925794,
,,,,Conditions/Version_1/zeroback(3)_v1.xlsx,New rule: Press 'space' when you see the letter 'x' or 'X'.,X,space,,,,,,,,,0,9,9,9,0,0,0,0,,,,,,,,,,,,,,,,,,,,,,,,,,,,,,,,,,,,,,,,,,,,,,,,,,,,,,,,,,,968.1586059001274,None,971.146342500113,None,space,0.5133756003342569,971.146342500113,None,968.1586059001274,None,1.5866,973.2870130999945,None,space,1,973.2870130999945,None,0.5084351999685168,P009,fencog,1,Pre,2021_Aug_10_1132,N-Back (New Version 2021),2021.1.4,119.13157804925794,
,,,,Conditions/Version_1/zeroback(3)_v1.xlsx,New rule: Press 'space' when you see the letter 'x' or 'X'.,B,None,,,,,,,,,0,9,9,9,0,1,1,1,,,,,,,,,,,,,,,,,,,,,,,,,,,,,,,,,,,,,,,,,,,,,,,,,,,,,,,,,,,,,,,,,,,,,1.8718,977.170389899984,None,None,1,977.170389899984,None,,P009,fencog,1,Pre,2021_Aug_10_1132,N-Back (New Version 2021),2021.1.4,119.13157804925794,
,,,,Conditions/Version_1/zeroback(3)_v1.xlsx,New rule: Press 'space' when you see the letter 'x' or 'X'.,m,None,,,,,,,,,0,9,9,9,0,2,2,2,,,,,,,,,,,,,,,,,,,,,,,,,,,,,,,,,,,,,,,,,,,,,,,,,,,,,,,,,,,,,,,,,,,,,1.1898,980.3683020002209,None,None,1,980.3683020002209,None,,P009,fencog,1,Pre,2021_Aug_10_1132,N-Back (New Version 2021),2021.1.4,119.13157804925794,
,,,,Conditions/Version_1/zeroback(3)_v1.xlsx,New rule: Press 'space' when you see the letter 'x' or 'X'.,m,None,,,,,,,,,0,9,9,9,0,3,3,3,,,,,,,,,,,,,,,,,,,,,,,,,,,,,,,,,,,,,,,,,,,,,,,,,,,,,,,,,,,,,,,,,,,,,1.227,983.6071378001943,None,None,1,983.6071378001943,None,,P009,fencog,1,Pre,2021_Aug_10_1132,N-Back (New Version 2021),2021.1.4,119.13157804925794,
,,,,Conditions/Version_1/zeroback(3)_v1.xlsx,New rule: Press 'space' when you see the letter 'x' or 'X'.,o,None,,,,,,,,,0,9,9,9,0,4,4,4,,,,,,,,,,,,,,,,,,,,,,,,,,,,,,,,,,,,,,,,,,,,,,,,,,,,,,,,,,,,,,,,,,,,,1.4006,987.0142172998749,None,None,1,987.0142172998749,None,,P009,fencog,1,Pre,2021_Aug_10_1132,N-Back (New Version 2021),2021.1.4,119.13157804925794,
,,,,Conditions/Version_1/zeroback(3)_v1.xlsx,New rule: Press 'space' when you see the letter 'x' or 'X'.,p,None,,,,,,,,,0,9,9,9,0,5,5,5,,,,,,,,,,,,,,,,,,,,,,,,,,,,,,,,,,,,,,,,,,,,,,,,,,,,,,,,,,,,,,,,,,,,,1.3014,990.3231584001333,None,None,1,990.3231584001333,None,,P009,fencog,1,Pre,2021_Aug_10_1132,N-Back (New Version 2021),2021.1.4,119.13157804925794,
,,,,Conditions/Version_1/zeroback(3)_v1.xlsx,New rule: Press 'space' when you see the letter 'x' or 'X'.,G,None,,,,,,,,,0,9,9,9,0,6,6,6,,,,,,,,,,,,,,,,,,,,,,,,,,,,,,,,,,,,,,,,,,,,,,,,,,,,,,,,,,,,,,,,,,,,,1.8098,994.1463274997659,None,None,1,994.1463274997659,None,,P009,fencog,1,Pre,2021_Aug_10_1132,N-Back (New Version 2021),2021.1.4,119.13157804925794,
,,,,Conditions/Version_1/zeroback(3)_v1.xlsx,New rule: Press 'space' when you see the letter 'x' or 'X'.,X,space,,,,,,,,,0,9,9,9,0,7,7,7,,,,,,,,,,,,,,,,,,,,,,,,,,,,,,,,,,,,,,,,,,,,,,,,,,,,,,,,,,,,,,,,,,,,,1.847,998.0025379001163,None,space,1,998.0025379001163,None,0.4812707002274692,P009,fencog,1,Pre,2021_Aug_10_1132,N-Back (New Version 2021),2021.1.4,119.13157804925794,
,,,,Conditions/Version_1/zeroback(3)_v1.xlsx,New rule: Press 'space' when you see the letter 'x' or 'X'.,p,None,,,,,,,,,0,9,9,9,0,8,8,8,,,,,,,,,,,,,,,,,,,,,,,,,,,,,,,,,,,,,,,,,,,,,,,,,,,,,,,,,,,,,,,,,,,,,1.3944,1001.4016252998263,None,None,1,1001.4016252998263,None,,P009,fencog,1,Pre,2021_Aug_10_1132,N-Back (New Version 2021),2021.1.4,119.13157804925794,
,,,,Conditions/Version_1/zeroback(3)_v1.xlsx,New rule: Press 'space' when you see the letter 'x' or 'X'.,x,space,,,,,,,,,0,9,9,9,0,9,9,9,,,,,,,,,,,,,,,,,,,,,,,,,,,,,,,,,,,,,,,,,,,,,,,,,,,,,,,,,,,,,,,,,,,,,1.8222,1005.2274719001725,None,space,1,1005.2274719001725,None,0.44843100011348724,P009,fencog,1,Pre,2021_Aug_10_1132,N-Back (New Version 2021),2021.1.4,119.13157804925794,
,,,,Conditions/Version_1/zeroback(3)_v1.xlsx,New rule: Press 'space' when you see the letter 'x' or 'X'.,,,,,,,,,,,0,9,9,9,,,,,,,,,,,,,,,,,,,,,,,,,,,,,,,,,,,,,,,,,,,,,,,,,,,,,,,,,,,,,,,,,,,,,,,,,,,,,,,,,P009,fencog,1,Pre,2021_Aug_10_1132,N-Back (New Version 2021),2021.1.4,119.13157804925794,
,,,,Conditions/Version_1/twoback(3)_v1.xlsx,New rule: Press 'space' when you see 2-back (i.e. the same letter as the one that appeared 2 letters ago.),e,None,,,,,,,,,0,10,10,10,0,0,0,0,,,,,,,,,,,,,,,,,,,,,,,,,,,,,,,,,,,,,,,,,,,,,,,,,,,,,,,,,,,1007.258044899907,None,1010.2436667000875,None,space,6.199800899717957,1010.2436667000875,None,1007.258044899907,None,1.5618,1018.0298836999573,None,None,1,1018.0298836999573,None,,P009,fencog,1,Pre,2021_Aug_10_1132,N-Back (New Version 2021),2021.1.4,119.13157804925794,
,,,,Conditions/Version_1/twoback(3)_v1.xlsx,New rule: Press 'space' when you see 2-back (i.e. the same letter as the one that appeared 2 letters ago.),o,None,,,,,,,,,0,10,10,10,0,1,1,1,,,,,,,,,,,,,,,,,,,,,,,,,,,,,,,,,,,,,,,,,,,,,,,,,,,,,,,,,,,,,,,,,,,,,1.3882,1021.4347760998644,None,None,1,1021.4347760998644,None,,P009,fencog,1,Pre,2021_Aug_10_1132,N-Back (New Version 2021),2021.1.4,119.13157804925794,
,,,,Conditions/Version_1/twoback(3)_v1.xlsx,New rule: Press 'space' when you see 2-back (i.e. the same letter as the one that appeared 2 letters ago.),P,None,,,,,,,,,0,10,10,10,0,2,2,2,,,,,,,,,,,,,,,,,,,,,,,,,,,,,,,,,,,,,,,,,,,,,,,,,,,,,,,,,,,,,,,,,,,,,1.2146,1024.6551672997884,None,None,1,1024.6551672997884,None,,P009,fencog,1,Pre,2021_Aug_10_1132,N-Back (New Version 2021),2021.1.4,119.13157804925794,
,,,,Conditions/Version_1/twoback(3)_v1.xlsx,New rule: Press 'space' when you see 2-back (i.e. the same letter as the one that appeared 2 letters ago.),z,None,,,,,,,,,0,10,10,10,0,3,3,3,,,,,,,,,,,,,,,,,,,,,,,,,,,,,,,,,,,,,,,,,,,,,,,,,,,,,,,,,,,,,,,,,,,,,1.9958,1028.6672148997895,None,None,1,1028.6672148997895,None,,P009,fencog,1,Pre,2021_Aug_10_1132,N-Back (New Version 2021),2021.1.4,119.13157804925794,
,,,,Conditions/Version_1/twoback(3)_v1.xlsx,New rule: Press 'space' when you see 2-back (i.e. the same letter as the one that appeared 2 letters ago.),X,None,,,,,,,,,0,10,10,10,0,4,4,4,,,,,,,,,,,,,,,,,,,,,,,,,,,,,,,,,,,,,,,,,,,,,,,,,,,,,,,,,,,,,,,,,,,,,1.6858,1032.361567699816,None,None,1,1032.361567699816,None,,P009,fencog,1,Pre,2021_Aug_10_1132,N-Back (New Version 2021),2021.1.4,119.13157804925794,
,,,,Conditions/Version_1/twoback(3)_v1.xlsx,New rule: Press 'space' when you see 2-back (i.e. the same letter as the one that appeared 2 letters ago.),z,space,,,,,,,,,0,10,10,10,0,5,5,5,,,,,,,,,,,,,,,,,,,,,,,,,,,,,,,,,,,,,,,,,,,,,,,,,,,,,,,,,,,,,,,,,,,,,1.9152,1036.283024000004,None,space,1,1036.283024000004,None,0.35283750016242266,P009,fencog,1,Pre,2021_Aug_10_1132,N-Back (New Version 2021),2021.1.4,119.13157804925794,
,,,,Conditions/Version_1/twoback(3)_v1.xlsx,New rule: Press 'space' when you see 2-back (i.e. the same letter as the one that appeared 2 letters ago.),x,space,,,,,,,,,0,10,10,10,0,6,6,6,,,,,,,,,,,,,,,,,,,,,,,,,,,,,,,,,,,,,,,,,,,,,,,,,,,,,,,,,,,,,,,,,,,,,1.1092,1039.40039360011,None,space,1,1039.40039360011,None,0.42725270008668303,P009,fencog,1,Pre,2021_Aug_10_1132,N-Back (New Version 2021),2021.1.4,119.13157804925794,
,,,,Conditions/Version_1/twoback(3)_v1.xlsx,New rule: Press 'space' when you see 2-back (i.e. the same letter as the one that appeared 2 letters ago.),c,None,,,,,,,,,0,10,10,10,0,7,7,7,,,,,,,,,,,,,,,,,,,,,,,,,,,,,,,,,,,,,,,,,,,,,,,,,,,,,,,,,,,,,,,,,,,,,1.816,1043.2226136000827,None,None,1,1043.2226136000827,None,,P009,fencog,1,Pre,2021_Aug_10_1132,N-Back (New Version 2021),2021.1.4,119.13157804925794,
,,,,Conditions/Version_1/twoback(3)_v1.xlsx,New rule: Press 'space' when you see 2-back (i.e. the same letter as the one that appeared 2 letters ago.),i,None,,,,,,,,,0,10,10,10,0,8,8,8,,,,,,,,,,,,,,,,,,,,,,,,,,,,,,,,,,,,,,,,,,,,,,,,,,,,,,,,,,,,,,,,,,,,,1.9276,1047.1559850000776,None,None,1,1047.1559850000776,None,,P009,fencog,1,Pre,2021_Aug_10_1132,N-Back (New Version 2021),2021.1.4,119.13157804925794,
,,,,Conditions/Version_1/twoback(3)_v1.xlsx,New rule: Press 'space' when you see 2-back (i.e. the same letter as the one that appeared 2 letters ago.),C,space,,,,,,,,,0,10,10,10,0,9,9,9,,,,,,,,,,,,,,,,,,,,,,,,,,,,,,,,,,,,,,,,,,,,,,,,,,,,,,,,,,,,,,,,,,,,,1.8284,1050.9966246997938,None,space,1,1050.9966246997938,None,0.5990485004149377,P009,fencog,1,Pre,2021_Aug_10_1132,N-Back (New Version 2021),2021.1.4,119.13157804925794,
,,,,Conditions/Version_1/twoback(3)_v1.xlsx,New rule: Press 'space' when you see 2-back (i.e. the same letter as the one that appeared 2 letters ago.),,,,,,,,,,,0,10,10,10,,,,,,,,,,,,,,,,,,,,,,,,,,,,,,,,,,,,,,,,,,,,,,,,,,,,,,,,,,,,,,,,,,,,,,,,,,,,,,,,,P009,fencog,1,Pre,2021_Aug_10_1132,N-Back (New Version 2021),2021.1.4,119.13157804925794,
,,,,Conditions/Version_1/oneback(3)_v1.xlsx,New rule: Press 'space' when you see 1-back (i.e. the same letter as the one that appeared 1 letter ago.),o,None,,,,,,,,,0,11,11,11,0,0,0,0,,,,,,,,,,,,,,,,,,,,,,,,,,,,,,,,,,,,,,,,,,,,,,,,,,,,,,,,,,,1053.025604700204,None,1056.0133043001406,None,space,1.942208199761808,1056.0133043001406,None,1053.025604700204,None,1.6114,1059.5850438000634,None,None,1,1059.5850438000634,None,,P009,fencog,1,Pre,2021_Aug_10_1132,N-Back (New Version 2021),2021.1.4,119.13157804925794,
,,,,Conditions/Version_1/oneback(3)_v1.xlsx,New rule: Press 'space' when you see 1-back (i.e. the same letter as the one that appeared 1 letter ago.),O,space,,,,,,,,,0,11,11,11,0,1,1,1,,,,,,,,,,,,,,,,,,,,,,,,,,,,,,,,,,,,,,,,,,,,,,,,,,,,,,,,,,,,,,,,,,,,,1.3944,1062.9937364999205,None,space,1,1062.9937364999205,None,0.4266233001835644,P009,fencog,1,Pre,2021_Aug_10_1132,N-Back (New Version 2021),2021.1.4,119.13157804925794,
,,,,Conditions/Version_1/oneback(3)_v1.xlsx,New rule: Press 'space' when you see 1-back (i.e. the same letter as the one that appeared 1 letter ago.),h,None,,,,,,,,,0,11,11,11,0,2,2,2,,,,,,,,,,,,,,,,,,,,,,,,,,,,,,,,,,,,,,,,,,,,,,,,,,,,,,,,,,,,,,,,,,,,,1.8222,1066.824113599956,None,None,1,1066.824113599956,None,,P009,fencog,1,Pre,2021_Aug_10_1132,N-Back (New Version 2021),2021.1.4,119.13157804925794,
,,,,Conditions/Version_1/oneback(3)_v1.xlsx,New rule: Press 'space' when you see 1-back (i.e. the same letter as the one that appeared 1 letter ago.),g,None,,,,,,,,,0,11,11,11,0,3,3,3,,,,,,,,,,,,,,,,,,,,,,,,,,,,,,,,,,,,,,,,,,,,,,,,,,,,,,,,,,,,,,,,,,,,,1.4068,1070.2338296999224,None,None,1,1070.2338296999224,None,,P009,fencog,1,Pre,2021_Aug_10_1132,N-Back (New Version 2021),2021.1.4,119.13157804925794,
,,,,Conditions/Version_1/oneback(3)_v1.xlsx,New rule: Press 'space' when you see 1-back (i.e. the same letter as the one that appeared 1 letter ago.),n,None,,,,,,,,,0,11,11,11,0,4,4,4,,,,,,,,,,,,,,,,,,,,,,,,,,,,,,,,,,,,,,,,,,,,,,,,,,,,,,,,,,,,,,,,,,,,,1.4006,1073.6483522001654,None,None,1,1073.6483522001654,None,,P009,fencog,1,Pre,2021_Aug_10_1132,N-Back (New Version 2021),2021.1.4,119.13157804925794,
,,,,Conditions/Version_1/oneback(3)_v1.xlsx,New rule: Press 'space' when you see 1-back (i.e. the same letter as the one that appeared 1 letter ago.),z,None,,,,,,,,,0,11,11,11,0,5,5,5,,,,,,,,,,,,,,,,,,,,,,,,,,,,,,,,,,,,,,,,,,,,,,,,,,,,,,,,,,,,,,,,,,,,,1.3448,1077.005227799993,None,None,1,1077.005227799993,None,,P009,fencog,1,Pre,2021_Aug_10_1132,N-Back (New Version 2021),2021.1.4,119.13157804925794,
,,,,Conditions/Version_1/oneback(3)_v1.xlsx,New rule: Press 'space' when you see 1-back (i.e. the same letter as the one that appeared 1 letter ago.),X,None,,,,,,,,,0,11,11,11,0,6,6,6,,,,,,,,,,,,,,,,,,,,,,,,,,,,,,,,,,,,,,,,,,,,,,,,,,,,,,,,,,,,,,,,,,,,,1.4688,1080.4880670998245,None,None,1,1080.4880670998245,None,,P009,fencog,1,Pre,2021_Aug_10_1132,N-Back (New Version 2021),2021.1.4,119.13157804925794,
,,,,Conditions/Version_1/oneback(3)_v1.xlsx,New rule: Press 'space' when you see 1-back (i.e. the same letter as the one that appeared 1 letter ago.),r,None,,,,,,,,,0,11,11,11,0,7,7,7,,,,,,,,,,,,,,,,,,,,,,,,,,,,,,,,,,,,,,,,,,,,,,,,,,,,,,,,,,,,,,,,,,,,,1.5432,1084.047396400012,None,None,1,1084.047396400012,None,,P009,fencog,1,Pre,2021_Aug_10_1132,N-Back (New Version 2021),2021.1.4,119.13157804925794,
,,,,Conditions/Version_1/oneback(3)_v1.xlsx,New rule: Press 'space' when you see 1-back (i.e. the same letter as the one that appeared 1 letter ago.),r,space,,,,,,,,,0,11,11,11,0,8,8,8,,,,,,,,,,,,,,,,,,,,,,,,,,,,,,,,,,,,,,,,,,,,,,,,,,,,,,,,,,,,,,,,,,,,,1.8656,1087.9177039000206,None,space,1,1087.9177039000206,None,0.5658435001969337,P009,fencog,1,Pre,2021_Aug_10_1132,N-Back (New Version 2021),2021.1.4,119.13157804925794,
,,,,Conditions/Version_1/oneback(3)_v1.xlsx,New rule: Press 'space' when you see 1-back (i.e. the same letter as the one that appeared 1 letter ago.),P,None,,,,,,,,,0,11,11,11,0,9,9,9,,,,,,,,,,,,,,,,,,,,,,,,,,,,,,,,,,,,,,,,,,,,,,,,,,,,,,,,,,,,,,,,,,,,,1.5928,1091.5186254000291,None,None,1,1091.5186254000291,None,,P009,fencog,1,Pre,2021_Aug_10_1132,N-Back (New Version 2021),2021.1.4,119.13157804925794,
,,,,Conditions/Version_1/oneback(3)_v1.xlsx,New rule: Press 'space' when you see 1-back (i.e. the same letter as the one that appeared 1 letter ago.),,,,,,,,,,,0,11,11,11,,,,,,,,,,,,,,,,,,,,,,,,,,,,,,,,,,,,,,,,,,,,,,,,,,,,,,,,,,,,,,,,,,,,,,,,,,,,,,,,,P009,fencog,1,Pre,2021_Aug_10_1132,N-Back (New Version 2021),2021.1.4,119.13157804925794,
,,,,Conditions/Version_1/twoback(4)_v1.xlsx,New rule: Press 'space' when you see 2-back (i.e. the same letter as the one that appeared 2 letters ago.),r,None,,,,,,,,,0,12,12,12,0,0,0,0,,,,,,,,,,,,,,,,,,,,,,,,,,,,,,,,,,,,,,,,,,,,,,,,,,,,,,,,,,,1093.559414899908,None,1096.5343029000796,None,space,1.141328299883753,1096.5343029000796,None,1093.559414899908,None,1.2208,1098.9582850001752,None,None,1,1098.9582850001752,None,,P009,fencog,1,Pre,2021_Aug_10_1132,N-Back (New Version 2021),2021.1.4,119.13157804925794,
,,,,Conditions/Version_1/twoback(4)_v1.xlsx,New rule: Press 'space' when you see 2-back (i.e. the same letter as the one that appeared 2 letters ago.),T,None,,,,,,,,,0,12,12,12,0,1,1,1,,,,,,,,,,,,,,,,,,,,,,,,,,,,,,,,,,,,,,,,,,,,,,,,,,,,,,,,,,,,,,,,,,,,,1.3572,1102.3217674000189,None,None,1,1102.3217674000189,None,,P009,fencog,1,Pre,2021_Aug_10_1132,N-Back (New Version 2021),2021.1.4,119.13157804925794,
,,,,Conditions/Version_1/twoback(4)_v1.xlsx,New rule: Press 'space' when you see 2-back (i.e. the same letter as the one that appeared 2 letters ago.),o,None,,,,,,,,,0,12,12,12,0,2,2,2,,,,,,,,,,,,,,,,,,,,,,,,,,,,,,,,,,,,,,,,,,,,,,,,,,,,,,,,,,,,,,,,,,,,,1.475,1105.7996693998575,None,None,1,1105.7996693998575,None,,P009,fencog,1,Pre,2021_Aug_10_1132,N-Back (New Version 2021),2021.1.4,119.13157804925794,
,,,,Conditions/Version_1/twoback(4)_v1.xlsx,New rule: Press 'space' when you see 2-back (i.e. the same letter as the one that appeared 2 letters ago.),p,None,,,,,,,,,0,12,12,12,0,3,3,3,,,,,,,,,,,,,,,,,,,,,,,,,,,,,,,,,,,,,,,,,,,,,,,,,,,,,,,,,,,,,,,,,,,,,1.0596,1108.8700120002031,None,None,1,1108.8700120002031,None,,P009,fencog,1,Pre,2021_Aug_10_1132,N-Back (New Version 2021),2021.1.4,119.13157804925794,
,,,,Conditions/Version_1/twoback(4)_v1.xlsx,New rule: Press 'space' when you see 2-back (i.e. the same letter as the one that appeared 2 letters ago.),p,None,,,,,,,,,0,12,12,12,0,4,4,4,,,,,,,,,,,,,,,,,,,,,,,,,,,,,,,,,,,,,,,,,,,,,,,,,,,,,,,,,,,,,,,,,,,,,1.4378,1112.310717499815,None,None,1,1112.310717499815,None,,P009,fencog,1,Pre,2021_Aug_10_1132,N-Back (New Version 2021),2021.1.4,119.13157804925794,
,,,,Conditions/Version_1/twoback(4)_v1.xlsx,New rule: Press 'space' when you see 2-back (i.e. the same letter as the one that appeared 2 letters ago.),y,None,,,,,,,,,0,12,12,12,0,5,5,5,,,,,,,,,,,,,,,,,,,,,,,,,,,,,,,,,,,,,,,,,,,,,,,,,,,,,,,,,,,,,,,,,,,,,1.9462,1116.2594392998144,None,None,1,1116.2594392998144,None,,P009,fencog,1,Pre,2021_Aug_10_1132,N-Back (New Version 2021),2021.1.4,119.13157804925794,
,,,,Conditions/Version_1/twoback(4)_v1.xlsx,New rule: Press 'space' when you see 2-back (i.e. the same letter as the one that appeared 2 letters ago.),P,space,,,,,,,,,0,12,12,12,0,6,6,6,,,,,,,,,,,,,,,,,,,,,,,,,,,,,,,,,,,,,,,,,,,,,,,,,,,,,,,,,,,,,,,,,,,,,1.3944,1119.6604186999612,None,space,1,1119.6604186999612,None,0.31920559983700514,P009,fencog,1,Pre,2021_Aug_10_1132,N-Back (New Version 2021),2021.1.4,119.13157804925794,
,,,,Conditions/Version_1/twoback(4)_v1.xlsx,New rule: Press 'space' when you see 2-back (i.e. the same letter as the one that appeared 2 letters ago.),y,None,,,,,,,,,0,12,12,12,0,7,7,7,,,,,,,,,,,,,,,,,,,,,,,,,,,,,,,,,,,,,,,,,,,,,,,,,,,,,,,,,,,,,,,,,,,,,1.6734,1123.3416256997734,None,space,0,1123.3416256997734,None,0.6940969000570476,P009,fencog,1,Pre,2021_Aug_10_1132,N-Back (New Version 2021),2021.1.4,119.13157804925794,
,,,,Conditions/Version_1/twoback(4)_v1.xlsx,New rule: Press 'space' when you see 2-back (i.e. the same letter as the one that appeared 2 letters ago.),y,space,,,,,,,,,0,12,12,12,0,8,8,8,,,,,,,,,,,,,,,,,,,,,,,,,,,,,,,,,,,,,,,,,,,,,,,,,,,,,,,,,,,,,,,,,,,,,1.4006,1126.7478872002102,None,None,0,1126.7478872002102,None,,P009,fencog,1,Pre,2021_Aug_10_1132,N-Back (New Version 2021),2021.1.4,119.13157804925794,
,,,,Conditions/Version_1/twoback(4)_v1.xlsx,New rule: Press 'space' when you see 2-back (i.e. the same letter as the one that appeared 2 letters ago.),,,,,,,,,,,0,12,12,12,,,,,,,,,,,,,,,,,,,,,,,,,,,,,,,,,,,,,,,,,,,,,,,,,,,,,,,,,,,,,,,,,,,,,,,,,,,,,,,,,P009,fencog,1,Pre,2021_Aug_10_1132,N-Back (New Version 2021),2021.1.4,119.13157804925794,
,,,,Conditions/Version_1/zeroback(4)_v1.xlsx,New rule: Press 'space' when you see the letter 'x' or 'X'.,o,None,,,,,,,,,0,13,13,13,0,0,0,0,,,,,,,,,,,,,,,,,,,,,,,,,,,,,,,,,,,,,,,,,,,,,,,,,,,,,,,,,,,1128.7675109999254,None,1131.7571021998301,None,space,3.318507300224155,1131.7571021998301,None,1128.7675109999254,None,1.196,1136.287327699829,None,None,1,1136.287327699829,None,,P009,fencog,1,Pre,2021_Aug_10_1132,N-Back (New Version 2021),2021.1.4,119.13157804925794,
,,,,Conditions/Version_1/zeroback(4)_v1.xlsx,New rule: Press 'space' when you see the letter 'x' or 'X'.,X,space,,,,,,,,,0,13,13,13,0,1,1,1,,,,,,,,,,,,,,,,,,,,,,,,,,,,,,,,,,,,,,,,,,,,,,,,,,,,,,,,,,,,,,,,,,,,,1.6424,1139.9377997000702,None,space,1,1139.9377997000702,None,0.5136684998869896,P009,fencog,1,Pre,2021_Aug_10_1132,N-Back (New Version 2021),2021.1.4,119.13157804925794,
,,,,Conditions/Version_1/zeroback(4)_v1.xlsx,New rule: Press 'space' when you see the letter 'x' or 'X'.,p,None,,,,,,,,,0,13,13,13,0,2,2,2,,,,,,,,,,,,,,,,,,,,,,,,,,,,,,,,,,,,,,,,,,,,,,,,,,,,,,,,,,,,,,,,,,,,,1.7912,1143.7346530999057,None,None,1,1143.7346530999057,None,,P009,fencog,1,Pre,2021_Aug_10_1132,N-Back (New Version 2021),2021.1.4,119.13157804925794,
,,,,Conditions/Version_1/zeroback(4)_v1.xlsx,New rule: Press 'space' when you see the letter 'x' or 'X'.,m,None,,,,,,,,,0,13,13,13,0,3,3,3,,,,,,,,,,,,,,,,,,,,,,,,,,,,,,,,,,,,,,,,,,,,,,,,,,,,,,,,,,,,,,,,,,,,,1.9896,1147.7286613998003,None,None,1,1147.7286613998003,None,,P009,fencog,1,Pre,2021_Aug_10_1132,N-Back (New Version 2021),2021.1.4,119.13157804925794,
,,,,Conditions/Version_1/zeroback(4)_v1.xlsx,New rule: Press 'space' when you see the letter 'x' or 'X'.,n,None,,,,,,,,,0,13,13,13,0,4,4,4,,,,,,,,,,,,,,,,,,,,,,,,,,,,,,,,,,,,,,,,,,,,,,,,,,,,,,,,,,,,,,,,,,,,,1.0534,1150.7921179998666,None,None,1,1150.7921179998666,None,,P009,fencog,1,Pre,2021_Aug_10_1132,N-Back (New Version 2021),2021.1.4,119.13157804925794,
,,,,Conditions/Version_1/zeroback(4)_v1.xlsx,New rule: Press 'space' when you see the letter 'x' or 'X'.,m,None,,,,,,,,,0,13,13,13,0,5,5,5,,,,,,,,,,,,,,,,,,,,,,,,,,,,,,,,,,,,,,,,,,,,,,,,,,,,,,,,,,,,,,,,,,,,,1.6114,1154.4168361001648,None,None,1,1154.4168361001648,None,,P009,fencog,1,Pre,2021_Aug_10_1132,N-Back (New Version 2021),2021.1.4,119.13157804925794,
,,,,Conditions/Version_1/zeroback(4)_v1.xlsx,New rule: Press 'space' when you see the letter 'x' or 'X'.,C,None,,,,,,,,,0,13,13,13,0,6,6,6,,,,,,,,,,,,,,,,,,,,,,,,,,,,,,,,,,,,,,,,,,,,,,,,,,,,,,,,,,,,,,,,,,,,,1.9152,1158.338471900206,None,None,1,1158.338471900206,None,,P009,fencog,1,Pre,2021_Aug_10_1132,N-Back (New Version 2021),2021.1.4,119.13157804925794,
,,,,Conditions/Version_1/zeroback(4)_v1.xlsx,New rule: Press 'space' when you see the letter 'x' or 'X'.,m,None,,,,,,,,,0,13,13,13,0,7,7,7,,,,,,,,,,,,,,,,,,,,,,,,,,,,,,,,,,,,,,,,,,,,,,,,,,,,,,,,,,,,,,,,,,,,,1.0906,1161.4308029999956,None,None,1,1161.4308029999956,None,,P009,fencog,1,Pre,2021_Aug_10_1132,N-Back (New Version 2021),2021.1.4,119.13157804925794,
,,,,Conditions/Version_1/zeroback(4)_v1.xlsx,New rule: Press 'space' when you see the letter 'x' or 'X'.,p,None,,,,,,,,,0,13,13,13,0,8,8,8,,,,,,,,,,,,,,,,,,,,,,,,,,,,,,,,,,,,,,,,,,,,,,,,,,,,,,,,,,,,,,,,,,,,,1.3014,1164.746007699985,None,None,1,1164.746007699985,None,,P009,fencog,1,Pre,2021_Aug_10_1132,N-Back (New Version 2021),2021.1.4,119.13157804925794,
,,,,Conditions/Version_1/zeroback(4)_v1.xlsx,New rule: Press 'space' when you see the letter 'x' or 'X'.,X,space,,,,,,,,,0,13,13,13,0,9,9,9,,,,,,,,,,,,,,,,,,,,,,,,,,,,,,,,,,,,,,,,,,,,,,,,,,,,,,,,,,,,,,,,,,,,,1.4192,1168.179471900221,None,space,1,1168.179471900221,None,0.41615420021116734,P009,fencog,1,Pre,2021_Aug_10_1132,N-Back (New Version 2021),2021.1.4,119.13157804925794,
,,,,Conditions/Version_1/zeroback(4)_v1.xlsx,New rule: Press 'space' when you see the letter 'x' or 'X'.,,,,,,,,,,,0,13,13,13,,,,,,,,,,,,,,,,,,,,,,,,,,,,,,,,,,,,,,,,,,,,,,,,,,,,,,,,,,,,,,,,,,,,,,,,,,,,,,,,,P009,fencog,1,Pre,2021_Aug_10_1132,N-Back (New Version 2021),2021.1.4,119.13157804925794,
,,,,Conditions/Version_1/oneback(4)_v1.xlsx,New rule: Press 'space' when you see 1-back (i.e. the same letter as the one that appeared 1 letter ago.),w,None,,,,,,,,,0,14,14,14,0,0,0,0,,,,,,,,,,,,,,,,,,,,,,,,,,,,,,,,,,,,,,,,,,,,,,,,,,,,,,,,,,,1170.2067606998608,None,1173.1954442998394,None,space,1.0246970001608133,1173.1954442998394,None,1170.2067606998608,None,1.1588,1175.4025229997933,None,None,1,1175.4025229997933,None,,P009,fencog,1,Pre,2021_Aug_10_1132,N-Back (New Version 2021),2021.1.4,119.13157804925794,
,,,,Conditions/Version_1/oneback(4)_v1.xlsx,New rule: Press 'space' when you see 1-back (i.e. the same letter as the one that appeared 1 letter ago.),q,None,,,,,,,,,0,14,14,14,0,1,1,1,,,,,,,,,,,,,,,,,,,,,,,,,,,,,,,,,,,,,,,,,,,,,,,,,,,,,,,,,,,,,,,,,,,,,1.847,1179.261477400083,None,None,1,1179.261477400083,None,,P009,fencog,1,Pre,2021_Aug_10_1132,N-Back (New Version 2021),2021.1.4,119.13157804925794,
,,,,Conditions/Version_1/oneback(4)_v1.xlsx,New rule: Press 'space' when you see 1-back (i.e. the same letter as the one that appeared 1 letter ago.),i,None,,,,,,,,,0,14,14,14,0,2,2,2,,,,,,,,,,,,,,,,,,,,,,,,,,,,,,,,,,,,,,,,,,,,,,,,,,,,,,,,,,,,,,,,,,,,,1.5928,1182.8671784000471,None,None,1,1182.8671784000471,None,,P009,fencog,1,Pre,2021_Aug_10_1132,N-Back (New Version 2021),2021.1.4,119.13157804925794,
,,,,Conditions/Version_1/oneback(4)_v1.xlsx,New rule: Press 'space' when you see 1-back (i.e. the same letter as the one that appeared 1 letter ago.),t,None,,,,,,,,,0,14,14,14,0,3,3,3,,,,,,,,,,,,,,,,,,,,,,,,,,,,,,,,,,,,,,,,,,,,,,,,,,,,,,,,,,,,,,,,,,,,,1.2642,1186.142417400144,None,None,1,1186.142417400144,None,,P009,fencog,1,Pre,2021_Aug_10_1132,N-Back (New Version 2021),2021.1.4,119.13157804925794,
,,,,Conditions/Version_1/oneback(4)_v1.xlsx,New rule: Press 'space' when you see 1-back (i.e. the same letter as the one that appeared 1 letter ago.),v,None,,,,,,,,,0,14,14,14,0,4,4,4,,,,,,,,,,,,,,,,,,,,,,,,,,,,,,,,,,,,,,,,,,,,,,,,,,,,,,,,,,,,,,,,,,,,,1.6362,1189.7916195001453,None,None,1,1189.7916195001453,None,,P009,fencog,1,Pre,2021_Aug_10_1132,N-Back (New Version 2021),2021.1.4,119.13157804925794,
,,,,Conditions/Version_1/oneback(4)_v1.xlsx,New rule: Press 'space' when you see 1-back (i.e. the same letter as the one that appeared 1 letter ago.),V,space,,,,,,,,,0,14,14,14,0,5,5,5,,,,,,,,,,,,,,,,,,,,,,,,,,,,,,,,,,,,,,,,,,,,,,,,,,,,,,,,,,,,,,,,,,,,,1.8408,1193.6383659997955,None,space,1,1193.6383659997955,None,0.5091756000183523,P009,fencog,1,Pre,2021_Aug_10_1132,N-Back (New Version 2021),2021.1.4,119.13157804925794,
,,,,Conditions/Version_1/oneback(4)_v1.xlsx,New rule: Press 'space' when you see 1-back (i.e. the same letter as the one that appeared 1 letter ago.),v,space,,,,,,,,,0,14,14,14,0,6,6,6,,,,,,,,,,,,,,,,,,,,,,,,,,,,,,,,,,,,,,,,,,,,,,,,,,,,,,,,,,,,,,,,,,,,,1.8594,1197.5037536001764,None,space,1,1197.5037536001764,None,0.3399527999572456,P009,fencog,1,Pre,2021_Aug_10_1132,N-Back (New Version 2021),2021.1.4,119.13157804925794,
,,,,Conditions/Version_1/oneback(4)_v1.xlsx,New rule: Press 'space' when you see 1-back (i.e. the same letter as the one that appeared 1 letter ago.),p,None,,,,,,,,,0,14,14,14,0,7,7,7,,,,,,,,,,,,,,,,,,,,,,,,,,,,,,,,,,,,,,,,,,,,,,,,,,,,,,,,,,,,,,,,,,,,,1.4378,1200.9509549997747,None,None,1,1200.9509549997747,None,,P009,fencog,1,Pre,2021_Aug_10_1132,N-Back (New Version 2021),2021.1.4,119.13157804925794,
,,,,Conditions/Version_1/oneback(4)_v1.xlsx,New rule: Press 'space' when you see 1-back (i.e. the same letter as the one that appeared 1 letter ago.),w,None,,,,,,,,,0,14,14,14,0,8,8,8,,,,,,,,,,,,,,,,,,,,,,,,,,,,,,,,,,,,,,,,,,,,,,,,,,,,,,,,,,,,,,,,,,,,,1.1712,1204.1370983999223,None,None,1,1204.1370983999223,None,,P009,fencog,1,Pre,2021_Aug_10_1132,N-Back (New Version 2021),2021.1.4,119.13157804925794,
,,,,Conditions/Version_1/oneback(4)_v1.xlsx,New rule: Press 'space' when you see 1-back (i.e. the same letter as the one that appeared 1 letter ago.),W,space,,,,,,,,,0,14,14,14,0,9,9,9,,,,,,,,,,,,,,,,,,,,,,,,,,,,,,,,,,,,,,,,,,,,,,,,,,,,,,,,,,,,,,,,,,,,,1.258,1207.399028699845,None,space,1,1207.399028699845,None,0.6362453000620008,P009,fencog,1,Pre,2021_Aug_10_1132,N-Back (New Version 2021),2021.1.4,119.13157804925794,
,,,,Conditions/Version_1/oneback(4)_v1.xlsx,New rule: Press 'space' when you see 1-back (i.e. the same letter as the one that appeared 1 letter ago.),,,,,,,,,,,0,14,14,14,,,,,,,,,,,,,,,,,,,,,,,,,,,,,,,,,,,,,,,,,,,,,,,,,,,,,,,,,,,,,,,,,,,,,,,,,,,,,,,,,P009,fencog,1,Pre,2021_Aug_10_1132,N-Back (New Version 2021),2021.1.4,119.13157804925794,
,,,,Conditions/Version_1/threeback(4)_v1.xlsx,New rule: Press 'space' when you see 3-back (i.e. the same letter as the one that appeared 3 letters ago.),A,None,,,,,,,,,0,15,15,15,0,0,0,0,,,,,,,,,,,,,,,,,,,,,,,,,,,,,,,,,,,,,,,,,,,,,,,,,,,,,,,,,,,1209.433283300139,None,1212.4072524001822,None,space,12.252131499815732,1212.4072524001822,None,1209.433283300139,None,1.1464,1225.8290098998696,None,None,1,1225.8290098998696,None,,P009,fencog,1,Pre,2021_Aug_10_1132,N-Back (New Version 2021),2021.1.4,119.13157804925794,
,,,,Conditions/Version_1/threeback(4)_v1.xlsx,New rule: Press 'space' when you see 3-back (i.e. the same letter as the one that appeared 3 letters ago.),n,None,,,,,,,,,0,15,15,15,0,1,1,1,,,,,,,,,,,,,,,,,,,,,,,,,,,,,,,,,,,,,,,,,,,,,,,,,,,,,,,,,,,,,,,,,,,,,1.6796,1229.5187750998884,None,None,1,1229.5187750998884,None,,P009,fencog,1,Pre,2021_Aug_10_1132,N-Back (New Version 2021),2021.1.4,119.13157804925794,
,,,,Conditions/Version_1/threeback(4)_v1.xlsx,New rule: Press 'space' when you see 3-back (i.e. the same letter as the one that appeared 3 letters ago.),g,None,,,,,,,,,0,15,15,15,0,2,2,2,,,,,,,,,,,,,,,,,,,,,,,,,,,,,,,,,,,,,,,,,,,,,,,,,,,,,,,,,,,,,,,,,,,,,1.4812,1233.0090899001807,None,None,1,1233.0090899001807,None,,P009,fencog,1,Pre,2021_Aug_10_1132,N-Back (New Version 2021),2021.1.4,119.13157804925794,
,,,,Conditions/Version_1/threeback(4)_v1.xlsx,New rule: Press 'space' when you see 3-back (i.e. the same letter as the one that appeared 3 letters ago.),A,space,,,,,,,,,0,15,15,15,0,3,3,3,,,,,,,,,,,,,,,,,,,,,,,,,,,,,,,,,,,,,,,,,,,,,,,,,,,,,,,,,,,,,,,,,,,,,1.8718,1236.8917698999867,None,space,1,1236.8917698999867,None,0.4719626996666193,P009,fencog,1,Pre,2021_Aug_10_1132,N-Back (New Version 2021),2021.1.4,119.13157804925794,
,,,,Conditions/Version_1/threeback(4)_v1.xlsx,New rule: Press 'space' when you see 3-back (i.e. the same letter as the one that appeared 3 letters ago.),p,None,,,,,,,,,0,15,15,15,0,4,4,4,,,,,,,,,,,,,,,,,,,,,,,,,,,,,,,,,,,,,,,,,,,,,,,,,,,,,,,,,,,,,,,,,,,,,1.165,1240.065762499813,None,None,1,1240.065762499813,None,,P009,fencog,1,Pre,2021_Aug_10_1132,N-Back (New Version 2021),2021.1.4,119.13157804925794,
,,,,Conditions/Version_1/threeback(4)_v1.xlsx,New rule: Press 'space' when you see 3-back (i.e. the same letter as the one that appeared 3 letters ago.),O,None,,,,,,,,,0,15,15,15,0,5,5,5,,,,,,,,,,,,,,,,,,,,,,,,,,,,,,,,,,,,,,,,,,,,,,,,,,,,,,,,,,,,,,,,,,,,,1.3882,1243.4661973998882,None,None,1,1243.4661973998882,None,,P009,fencog,1,Pre,2021_Aug_10_1132,N-Back (New Version 2021),2021.1.4,119.13157804925794,
,,,,Conditions/Version_1/threeback(4)_v1.xlsx,New rule: Press 'space' when you see 3-back (i.e. the same letter as the one that appeared 3 letters ago.),a,space,,,,,,,,,0,15,15,15,0,6,6,6,,,,,,,,,,,,,,,,,,,,,,,,,,,,,,,,,,,,,,,,,,,,,,,,,,,,,,,,,,,,,,,,,,,,,1.9524,1247.4310612999834,None,space,1,1247.4310612999834,None,0.6444744002074003,P009,fencog,1,Pre,2021_Aug_10_1132,N-Back (New Version 2021),2021.1.4,119.13157804925794,
,,,,Conditions/Version_1/threeback(4)_v1.xlsx,New rule: Press 'space' when you see 3-back (i.e. the same letter as the one that appeared 3 letters ago.),p,space,,,,,,,,,0,15,15,15,0,7,7,7,,,,,,,,,,,,,,,,,,,,,,,,,,,,,,,,,,,,,,,,,,,,,,,,,,,,,,,,,,,,,,,,,,,,,1.1154,1250.5544703002088,None,space,1,1250.5544703002088,None,0.6410470996052027,P009,fencog,1,Pre,2021_Aug_10_1132,N-Back (New Version 2021),2021.1.4,119.13157804925794,
,,,,Conditions/Version_1/threeback(4)_v1.xlsx,New rule: Press 'space' when you see 3-back (i.e. the same letter as the one that appeared 3 letters ago.),x,None,,,,,,,,,0,15,15,15,0,8,8,8,,,,,,,,,,,,,,,,,,,,,,,,,,,,,,,,,,,,,,,,,,,,,,,,,,,,,,,,,,,,,,,,,,,,,1.1278,1253.6955876997672,None,space,0,1253.6955876997672,None,0.9958985997363925,P009,fencog,1,Pre,2021_Aug_10_1132,N-Back (New Version 2021),2021.1.4,119.13157804925794,
,,,,Conditions/Version_1/threeback(4)_v1.xlsx,New rule: Press 'space' when you see 3-back (i.e. the same letter as the one that appeared 3 letters ago.),X,None,,,,,,,,,0,15,15,15,0,9,9,9,,,,,,,,,,,,,,,,,,,,,,,,,,,,,,,,,,,,,,,,,,,,,,,,,,,,,,,,,,,,,,,,,,,,,1.9152,1257.6173319998197,None,None,1,1257.6173319998197,None,,P009,fencog,1,Pre,2021_Aug_10_1132,N-Back (New Version 2021),2021.1.4,119.13157804925794,
,,,,Conditions/Version_1/threeback(4)_v1.xlsx,New rule: Press 'space' when you see 3-back (i.e. the same letter as the one that appeared 3 letters ago.),,,,,,,,,,,0,15,15,15,,,,,,,,,,,,,,,,,,,,,,,,,,,,,,,,,,,,,,,,,,,,,,,,,,,,,,,,,,,,,,,,,,,,,,,,,,,,,,,,,P009,fencog,1,Pre,2021_Aug_10_1132,N-Back (New Version 2021),2021.1.4,119.13157804925794,
