CondFileP,InstructionsP,LettersDisplayedP,CorrectnessP,CondFile,Instructions,LettersDisplayed,Correctness,practicetrials.thisRepN,practicetrials.thisTrialN,practicetrials.thisN,practicetrials.thisIndex,InnerLoopPractice.thisRepN,InnerLoopPractice.thisTrialN,InnerLoopPractice.thisN,InnerLoopPractice.thisIndex,trials.thisRepN,trials.thisTrialN,trials.thisN,trials.thisIndex,InnerLoop.thisRepN,InnerLoop.thisTrialN,InnerLoop.thisN,InnerLoop.thisIndex,TaskVersionText.started,TaskVersionText.stopped,InstrKey1.keys,InstrKey1.rt,InstrKey1.started,InstrKey1.stopped,text.started,text.stopped,key_resp_4.keys,key_resp_4.rt,key_resp_4.started,key_resp_4.stopped,text_2.started,text_2.stopped,key_resp_3.keys,key_resp_3.rt,key_resp_3.started,key_resp_3.stopped,text_3.started,text_3.stopped,key_resp_2.keys,key_resp_2.rt,key_resp_2.started,key_resp_2.stopped,PractIn1.started,PractIn1.stopped,PractIn2.started,PractIn2.stopped,PractInstructionPass.keys,PractInstructionPass.rt,PractInstructionPass.started,PractInstructionPass.stopped,PractBlock1.started,PractBlock1.stopped,ISIjitterPractice,ISI_Pract_Fixation.started,ISI_Pract_Fixation.stopped,N_backP.started,N_backP.stopped,KeyPractice.keys,KeyPractice.corr,KeyPractice.rt,KeyPractice.started,KeyPractice.stopped,text_4.started,text_4.stopped,TransitionText.started,TransitionText.stopped,key_resp_6.keys,key_resp_6.rt,key_resp_6.started,key_resp_6.stopped,text_5.started,text_5.stopped,key_resp_5.keys,key_resp_5.rt,key_resp_5.started,key_resp_5.stopped,MainInt1.started,MainInt1.stopped,MainInt2.started,MainInt2.stopped,InstructionPass.keys,InstructionPass.rt,InstructionPass.started,InstructionPass.stopped,Blocks1.started,Blocks1.stopped,ISIjitter,N_backD.started,N_backD.stopped,key_resp.keys,key_resp.corr,key_resp.started,key_resp.stopped,key_resp.rt,participant,Study Name,Task Version (required to run),PRE/POST,date,expName,psychopyVersion,frameRate
,,,,,,,,,,,,,,,,,,,,,,,,32.952741,None,space,1.5845292,33.4430429,None,,,,,,,,,,,,,,,,,,,,,,,,,,,,,,,,,,,,,,,,,,,,,,,,,,,,,,,,,,,,,,,,,,,,,,,P009,fencog,2,Post,2021_Aug_17_1226,N-Back (New Version 2021),2021.1.4,120.0558019
,,,,,,,,,,,,,,,,,,,,,,,,,,,,,,35.0755705,None,space,98.3401027,35.5677595,None,,,,,,,,,,,,,,,,,,,,,,,,,,,,,,,,,,,,,,,,,,,,,,,,,,,,,,,,,,,,,,,,,P009,fencog,2,Post,2021_Aug_17_1226,N-Back (New Version 2021),2021.1.4,120.0558019
,,,,,,,,,,,,,,,,,,,,,,,,,,,,,,,,,,,,133.9466615,None,space,1.6931036,134.4387312,None,,,,,,,,,,,,,,,,,,,,,,,,,,,,,,,,,,,,,,,,,,,,,,,,,,,,,,,,,,,P009,fencog,2,Post,2021_Aug_17_1226,N-Back (New Version 2021),2021.1.4,120.0558019
,,,,,,,,,,,,,,,,,,,,,,,,,,,,,,,,,,,,,,,,,,136.1586528,None,space,1.2214513,136.6464452,None,,,,,,,,,,,,,,,,,,,,,,,,,,,,,,,,,,,,,,,,,,,,,,,,,,,,,P009,fencog,2,Post,2021_Aug_17_1226,N-Back (New Version 2021),2021.1.4,120.0558019
Conditions/Version_2Pr/zeroback(1)_v2.xlsx,Rule: Press 'space' when you see the letter 'x' or 'X'.,x,space,,,,,0,0,0,0,0,0,0,0,,,,,,,,,,,,,,,,,,,,,,,,,,,,,,,,,139.2431755,None,142.2296024,None,space,15.5822807,142.2296024,None,139.2431755,None,1.515,157.8313728,None,159.3508942,None,space,1,0.5491136,159.3508942,None,159.9186508,None,,,,,,,,,,,,,,,,,,,,,,,,,,,,,,,P009,fencog,2,Post,2021_Aug_17_1226,N-Back (New Version 2021),2021.1.4,120.0558019
Conditions/Version_2Pr/zeroback(1)_v2.xlsx,Rule: Press 'space' when you see the letter 'x' or 'X'.,R,None,,,,,0,0,0,0,0,1,1,1,,,,,,,,,,,,,,,,,,,,,,,,,,,,,,,,,,,,,,,,,,,1.79,161.4216225,None,163.217414,None,None,1,,163.217414,None,165.2204954,None,,,,,,,,,,,,,,,,,,,,,,,,,,,,,,,P009,fencog,2,Post,2021_Aug_17_1226,N-Back (New Version 2021),2021.1.4,120.0558019
Conditions/Version_2Pr/zeroback(1)_v2.xlsx,Rule: Press 'space' when you see the letter 'x' or 'X'.,p,None,,,,,0,0,0,0,0,2,2,2,,,,,,,,,,,,,,,,,,,,,,,,,,,,,,,,,,,,,,,,,,,1.415,166.7201127,None,168.1397267,None,None,1,,168.1397267,None,170.1439809,None,,,,,,,,,,,,,,,,,,,,,,,,,,,,,,,P009,fencog,2,Post,2021_Aug_17_1226,N-Back (New Version 2021),2021.1.4,120.0558019
Conditions/Version_2Pr/zeroback(1)_v2.xlsx,Rule: Press 'space' when you see the letter 'x' or 'X'.,O,None,,,,,0,0,0,0,0,3,3,3,,,,,,,,,,,,,,,,,,,,,,,,,,,,,,,,,,,,,,,,,,,1.615,171.6437194,None,173.2614696,None,None,1,,173.2614696,None,175.2676145,None,,,,,,,,,,,,,,,,,,,,,,,,,,,,,,,P009,fencog,2,Post,2021_Aug_17_1226,N-Back (New Version 2021),2021.1.4,120.0558019
Conditions/Version_2Pr/zeroback(1)_v2.xlsx,Rule: Press 'space' when you see the letter 'x' or 'X'.,i,None,,,,,0,0,0,0,0,4,4,4,,,,,,,,,,,,,,,,,,,,,,,,,,,,,,,,,,,,,,,,,,,1.565,176.7671007,None,178.3362384,None,None,1,,178.3362384,None,180.3410417,None,,,,,,,,,,,,,,,,,,,,,,,,,,,,,,,P009,fencog,2,Post,2021_Aug_17_1226,N-Back (New Version 2021),2021.1.4,120.0558019
Conditions/Version_2Pr/zeroback(1)_v2.xlsx,Rule: Press 'space' when you see the letter 'x' or 'X'.,U,None,,,,,0,0,0,0,0,5,5,5,,,,,,,,,,,,,,,,,,,,,,,,,,,,,,,,,,,,,,,,,,,1.315,181.8404173,None,183.1592332,None,None,1,,183.1592332,None,185.1647966,None,,,,,,,,,,,,,,,,,,,,,,,,,,,,,,,P009,fencog,2,Post,2021_Aug_17_1226,N-Back (New Version 2021),2021.1.4,120.0558019
Conditions/Version_2Pr/zeroback(1)_v2.xlsx,Rule: Press 'space' when you see the letter 'x' or 'X'.,N,None,,,,,0,0,0,0,0,6,6,6,,,,,,,,,,,,,,,,,,,,,,,,,,,,,,,,,,,,,,,,,,,1.09,186.6643641,None,187.7596902,None,None,1,,187.7596902,None,189.7632027,None,,,,,,,,,,,,,,,,,,,,,,,,,,,,,,,P009,fencog,2,Post,2021_Aug_17_1226,N-Back (New Version 2021),2021.1.4,120.0558019
Conditions/Version_2Pr/zeroback(1)_v2.xlsx,Rule: Press 'space' when you see the letter 'x' or 'X'.,m,None,,,,,0,0,0,0,0,7,7,7,,,,,,,,,,,,,,,,,,,,,,,,,,,,,,,,,,,,,,,,,,,1.99,191.2628632,None,193.2550386,None,None,1,,193.2550386,None,195.261781,None,,,,,,,,,,,,,,,,,,,,,,,,,,,,,,,P009,fencog,2,Post,2021_Aug_17_1226,N-Back (New Version 2021),2021.1.4,120.0558019
Conditions/Version_2Pr/zeroback(1)_v2.xlsx,Rule: Press 'space' when you see the letter 'x' or 'X'.,x,space,,,,,0,0,0,0,0,8,8,8,,,,,,,,,,,,,,,,,,,,,,,,,,,,,,,,,,,,,,,,,,,1.265,196.7613283,None,198.0324094,None,space,1,0.5316264,198.0324094,None,198.5773737,None,,,,,,,,,,,,,,,,,,,,,,,,,,,,,,,P009,fencog,2,Post,2021_Aug_17_1226,N-Back (New Version 2021),2021.1.4,120.0558019
Conditions/Version_2Pr/zeroback(1)_v2.xlsx,Rule: Press 'space' when you see the letter 'x' or 'X'.,X,space,,,,,0,0,0,0,0,9,9,9,,,,,,,,,,,,,,,,,,,,,,,,,,,,,,,,,,,,,,,,,,,1.365,200.0769421,None,201.4457797,None,space,1,0.5821768,201.4457797,None,202.0357912,None,,,,,,,,,,,,,,,,,,,,,,,,,,,,,,,P009,fencog,2,Post,2021_Aug_17_1226,N-Back (New Version 2021),2021.1.4,120.0558019
Conditions/Version_2Pr/zeroback(1)_v2.xlsx,Rule: Press 'space' when you see the letter 'x' or 'X'.,,,,,,,0,0,0,0,,,,,,,,,,,,,,,,,,,,,,,,,,,,,,,,,,,,,,,,,,,,,,,,,,,,,,,,,,,,,,,,,,,,,,,,,,,,,,,,,,,,,,,,,P009,fencog,2,Post,2021_Aug_17_1226,N-Back (New Version 2021),2021.1.4,120.0558019
Conditions/Version_2Pr/oneback(1)_v2.xlsx,New rule: Press 'space' when you see 1-back (i.e. the same letter as the one that appeared 1 letter ago.),r,None,,,,,0,1,1,1,0,0,0,0,,,,,,,,,,,,,,,,,,,,,,,,,,,,,,,,,203.5682496,None,206.5541771,None,space,11.7777885,206.5541771,None,203.5682496,None,1.615,218.3528481,None,219.973832,None,None,1,,219.973832,None,221.9789283,None,,,,,,,,,,,,,,,,,,,,,,,,,,,,,,,P009,fencog,2,Post,2021_Aug_17_1226,N-Back (New Version 2021),2021.1.4,120.0558019
Conditions/Version_2Pr/oneback(1)_v2.xlsx,New rule: Press 'space' when you see 1-back (i.e. the same letter as the one that appeared 1 letter ago.),t,None,,,,,0,1,1,1,0,1,1,1,,,,,,,,,,,,,,,,,,,,,,,,,,,,,,,,,,,,,,,,,,,1.59,223.4784979,None,225.0723965,None,None,1,,225.0723965,None,227.0773562,None,,,,,,,,,,,,,,,,,,,,,,,,,,,,,,,P009,fencog,2,Post,2021_Aug_17_1226,N-Back (New Version 2021),2021.1.4,120.0558019
Conditions/Version_2Pr/oneback(1)_v2.xlsx,New rule: Press 'space' when you see 1-back (i.e. the same letter as the one that appeared 1 letter ago.),Y,None,,,,,0,1,1,1,0,2,2,2,,,,,,,,,,,,,,,,,,,,,,,,,,,,,,,,,,,,,,,,,,,1.34,228.5769594,None,229.9212,None,None,1,,229.9212,None,231.92602,None,,,,,,,,,,,,,,,,,,,,,,,,,,,,,,,P009,fencog,2,Post,2021_Aug_17_1226,N-Back (New Version 2021),2021.1.4,120.0558019
Conditions/Version_2Pr/oneback(1)_v2.xlsx,New rule: Press 'space' when you see 1-back (i.e. the same letter as the one that appeared 1 letter ago.),y,space,,,,,0,1,1,1,0,3,3,3,,,,,,,,,,,,,,,,,,,,,,,,,,,,,,,,,,,,,,,,,,,1.94,233.4254091,None,235.3673009,None,space,1,0.4448131,235.3673009,None,235.8247642,None,,,,,,,,,,,,,,,,,,,,,,,,,,,,,,,P009,fencog,2,Post,2021_Aug_17_1226,N-Back (New Version 2021),2021.1.4,120.0558019
Conditions/Version_2Pr/oneback(1)_v2.xlsx,New rule: Press 'space' when you see 1-back (i.e. the same letter as the one that appeared 1 letter ago.),p,None,,,,,0,1,1,1,0,4,4,4,,,,,,,,,,,,,,,,,,,,,,,,,,,,,,,,,,,,,,,,,,,1.715,237.3243616,None,239.0403231,None,None,1,,239.0403231,None,241.0398234,None,,,,,,,,,,,,,,,,,,,,,,,,,,,,,,,P009,fencog,2,Post,2021_Aug_17_1226,N-Back (New Version 2021),2021.1.4,120.0558019
Conditions/Version_2Pr/oneback(1)_v2.xlsx,New rule: Press 'space' when you see 1-back (i.e. the same letter as the one that appeared 1 letter ago.),P,space,,,,,0,1,1,1,0,5,5,5,,,,,,,,,,,,,,,,,,,,,,,,,,,,,,,,,,,,,,,,,,,1.89,242.539249,None,244.4337193,None,space,1,0.578713,244.4337193,None,245.0233621,None,,,,,,,,,,,,,,,,,,,,,,,,,,,,,,,P009,fencog,2,Post,2021_Aug_17_1226,N-Back (New Version 2021),2021.1.4,120.0558019
Conditions/Version_2Pr/oneback(1)_v2.xlsx,New rule: Press 'space' when you see 1-back (i.e. the same letter as the one that appeared 1 letter ago.),e,None,,,,,0,1,1,1,0,6,6,6,,,,,,,,,,,,,,,,,,,,,,,,,,,,,,,,,,,,,,,,,,,1.74,246.5300527,None,248.274284,None,None,1,,248.274284,None,250.2751225,None,,,,,,,,,,,,,,,,,,,,,,,,,,,,,,,P009,fencog,2,Post,2021_Aug_17_1226,N-Back (New Version 2021),2021.1.4,120.0558019
Conditions/Version_2Pr/oneback(1)_v2.xlsx,New rule: Press 'space' when you see 1-back (i.e. the same letter as the one that appeared 1 letter ago.),r,None,,,,,0,1,1,1,0,7,7,7,,,,,,,,,,,,,,,,,,,,,,,,,,,,,,,,,,,,,,,,,,,1.765,251.7784309,None,253.5464154,None,space,0,0.4736949,253.5464154,None,254.0331774,None,,,,,,,,,,,,,,,,,,,,,,,,,,,,,,,P009,fencog,2,Post,2021_Aug_17_1226,N-Back (New Version 2021),2021.1.4,120.0558019
Conditions/Version_2Pr/oneback(1)_v2.xlsx,New rule: Press 'space' when you see 1-back (i.e. the same letter as the one that appeared 1 letter ago.),R,space,,,,,0,1,1,1,0,8,8,8,,,,,,,,,,,,,,,,,,,,,,,,,,,,,,,,,,,,,,,,,,,1.565,255.5354383,None,257.101758,None,space,1,0.4063848,257.101758,None,257.5217928,None,,,,,,,,,,,,,,,,,,,,,,,,,,,,,,,P009,fencog,2,Post,2021_Aug_17_1226,N-Back (New Version 2021),2021.1.4,120.0558019
Conditions/Version_2Pr/oneback(1)_v2.xlsx,New rule: Press 'space' when you see 1-back (i.e. the same letter as the one that appeared 1 letter ago.),p,None,,,,,0,1,1,1,0,9,9,9,,,,,,,,,,,,,,,,,,,,,,,,,,,,,,,,,,,,,,,,,,,1.115,259.0276368,None,260.1447693,None,None,1,,260.1447693,None,262.1504651,None,,,,,,,,,,,,,,,,,,,,,,,,,,,,,,,P009,fencog,2,Post,2021_Aug_17_1226,N-Back (New Version 2021),2021.1.4,120.0558019
Conditions/Version_2Pr/oneback(1)_v2.xlsx,New rule: Press 'space' when you see 1-back (i.e. the same letter as the one that appeared 1 letter ago.),,,,,,,0,1,1,1,,,,,,,,,,,,,,,,,,,,,,,,,,,,,,,,,,,,,,,,,,,,,,,,,,,,,,,,,,,,,,,,,,,,,,,,,,,,,,,,,,,,,,,,,P009,fencog,2,Post,2021_Aug_17_1226,N-Back (New Version 2021),2021.1.4,120.0558019
Conditions/Version_2Pr/twoback(1)_v2.xlsx,New rule: Press 'space' when you see 2-back (i.e. the same letter as the one that appeared 2 letters ago.),r,None,,,,,0,2,2,2,0,0,0,0,,,,,,,,,,,,,,,,,,,,,,,,,,,,,,,,,263.6730356,None,266.6587982,None,space,23.6093652,266.6587982,None,263.6730356,None,1.64,290.2924829,None,291.9345013,None,None,1,,291.9345013,None,293.9409624,None,,,,,,,,,,,,,,,,,,,,,,,,,,,,,,,P009,fencog,2,Post,2021_Aug_17_1226,N-Back (New Version 2021),2021.1.4,120.0558019
Conditions/Version_2Pr/twoback(1)_v2.xlsx,New rule: Press 'space' when you see 2-back (i.e. the same letter as the one that appeared 2 letters ago.),P,None,,,,,0,2,2,2,0,1,1,1,,,,,,,,,,,,,,,,,,,,,,,,,,,,,,,,,,,,,,,,,,,1.19,295.4406192,None,296.6317609,None,None,1,,296.6317609,None,298.6313337,None,,,,,,,,,,,,,,,,,,,,,,,,,,,,,,,P009,fencog,2,Post,2021_Aug_17_1226,N-Back (New Version 2021),2021.1.4,120.0558019
Conditions/Version_2Pr/twoback(1)_v2.xlsx,New rule: Press 'space' when you see 2-back (i.e. the same letter as the one that appeared 2 letters ago.),o,None,,,,,0,2,2,2,0,2,2,2,,,,,,,,,,,,,,,,,,,,,,,,,,,,,,,,,,,,,,,,,,,1.24,300.1306924,None,301.3724429,None,None,1,,301.3724429,None,303.3715623,None,,,,,,,,,,,,,,,,,,,,,,,,,,,,,,,P009,fencog,2,Post,2021_Aug_17_1226,N-Back (New Version 2021),2021.1.4,120.0558019
Conditions/Version_2Pr/twoback(1)_v2.xlsx,New rule: Press 'space' when you see 2-back (i.e. the same letter as the one that appeared 2 letters ago.),p,space,,,,,0,2,2,2,0,3,3,3,,,,,,,,,,,,,,,,,,,,,,,,,,,,,,,,,,,,,,,,,,,1.94,304.8711853,None,306.815861,None,space,1,0.4599938,306.815861,None,307.2934527,None,,,,,,,,,,,,,,,,,,,,,,,,,,,,,,,P009,fencog,2,Post,2021_Aug_17_1226,N-Back (New Version 2021),2021.1.4,120.0558019
Conditions/Version_2Pr/twoback(1)_v2.xlsx,New rule: Press 'space' when you see 2-back (i.e. the same letter as the one that appeared 2 letters ago.),Y,None,,,,,0,2,2,2,0,4,4,4,,,,,,,,,,,,,,,,,,,,,,,,,,,,,,,,,,,,,,,,,,,1.815,308.7949923,None,310.6137519,None,None,1,,310.6137519,None,312.619022,None,,,,,,,,,,,,,,,,,,,,,,,,,,,,,,,P009,fencog,2,Post,2021_Aug_17_1226,N-Back (New Version 2021),2021.1.4,120.0558019
Conditions/Version_2Pr/twoback(1)_v2.xlsx,New rule: Press 'space' when you see 2-back (i.e. the same letter as the one that appeared 2 letters ago.),q,None,,,,,0,2,2,2,0,5,5,5,,,,,,,,,,,,,,,,,,,,,,,,,,,,,,,,,,,,,,,,,,,1.04,314.1184546,None,315.1624763,None,None,1,,315.1624763,None,317.167495,None,,,,,,,,,,,,,,,,,,,,,,,,,,,,,,,P009,fencog,2,Post,2021_Aug_17_1226,N-Back (New Version 2021),2021.1.4,120.0558019
Conditions/Version_2Pr/twoback(1)_v2.xlsx,New rule: Press 'space' when you see 2-back (i.e. the same letter as the one that appeared 2 letters ago.),m,None,,,,,0,2,2,2,0,6,6,6,,,,,,,,,,,,,,,,,,,,,,,,,,,,,,,,,,,,,,,,,,,1.44,318.6670577,None,320.1100186,None,None,1,,320.1100186,None,322.1161157,None,,,,,,,,,,,,,,,,,,,,,,,,,,,,,,,P009,fencog,2,Post,2021_Aug_17_1226,N-Back (New Version 2021),2021.1.4,120.0558019
Conditions/Version_2Pr/twoback(1)_v2.xlsx,New rule: Press 'space' when you see 2-back (i.e. the same letter as the one that appeared 2 letters ago.),Q,space,,,,,0,2,2,2,0,7,7,7,,,,,,,,,,,,,,,,,,,,,,,,,,,,,,,,,,,,,,,,,,,1.465,323.6157077,None,325.085772,None,space,1,0.8464581,325.085772,None,325.9413048,None,,,,,,,,,,,,,,,,,,,,,,,,,,,,,,,P009,fencog,2,Post,2021_Aug_17_1226,N-Back (New Version 2021),2021.1.4,120.0558019
Conditions/Version_2Pr/twoback(1)_v2.xlsx,New rule: Press 'space' when you see 2-back (i.e. the same letter as the one that appeared 2 letters ago.),L,None,,,,,0,2,2,2,0,8,8,8,,,,,,,,,,,,,,,,,,,,,,,,,,,,,,,,,,,,,,,,,,,1.515,327.4478655,None,328.9658124,None,None,1,,328.9658124,None,330.9716689,None,,,,,,,,,,,,,,,,,,,,,,,,,,,,,,,P009,fencog,2,Post,2021_Aug_17_1226,N-Back (New Version 2021),2021.1.4,120.0558019
Conditions/Version_2Pr/twoback(1)_v2.xlsx,New rule: Press 'space' when you see 2-back (i.e. the same letter as the one that appeared 2 letters ago.),q,space,,,,,0,2,2,2,0,9,9,9,,,,,,,,,,,,,,,,,,,,,,,,,,,,,,,,,,,,,,,,,,,1.865,332.4714539,None,334.338252,None,space,1,0.4256868,334.338252,None,334.7796999,None,,,,,,,,,,,,,,,,,,,,,,,,,,,,,,,P009,fencog,2,Post,2021_Aug_17_1226,N-Back (New Version 2021),2021.1.4,120.0558019
Conditions/Version_2Pr/twoback(1)_v2.xlsx,New rule: Press 'space' when you see 2-back (i.e. the same letter as the one that appeared 2 letters ago.),,,,,,,0,2,2,2,,,,,,,,,,,,,,,,,,,,,,,,,,,,,,,,,,,,,,,,,,,,,,,,,,,,,,,,,,,,,,,,,,,,,,,,,,,,,,,,,,,,,,,,,P009,fencog,2,Post,2021_Aug_17_1226,N-Back (New Version 2021),2021.1.4,120.0558019
Conditions/Version_2Pr/threeback(1)_v2.xlsx,New rule: Press 'space' when you see 3-back (i.e. the same letter as the one that appeared 3 letters ago.),u,None,,,,,0,3,3,3,0,0,0,0,,,,,,,,,,,,,,,,,,,,,,,,,,,,,,,,,336.3121418,None,339.2964252,None,space,0.3314969,339.2964252,None,336.3121418,None,1.14,339.6460716,None,340.7889902,None,None,1,,340.7889902,None,342.7933711,None,,,,,,,,,,,,,,,,,,,,,,,,,,,,,,,P009,fencog,2,Post,2021_Aug_17_1226,N-Back (New Version 2021),2021.1.4,120.0558019
Conditions/Version_2Pr/threeback(1)_v2.xlsx,New rule: Press 'space' when you see 3-back (i.e. the same letter as the one that appeared 3 letters ago.),U,None,,,,,0,3,3,3,0,1,1,1,,,,,,,,,,,,,,,,,,,,,,,,,,,,,,,,,,,,,,,,,,,1.715,344.2928748,None,346.0088477,None,space,0,0.4673037,346.0088477,None,346.4873743,None,,,,,,,,,,,,,,,,,,,,,,,,,,,,,,,P009,fencog,2,Post,2021_Aug_17_1226,N-Back (New Version 2021),2021.1.4,120.0558019
Conditions/Version_2Pr/threeback(1)_v2.xlsx,New rule: Press 'space' when you see 3-back (i.e. the same letter as the one that appeared 3 letters ago.),p,None,,,,,0,3,3,3,0,2,2,2,,,,,,,,,,,,,,,,,,,,,,,,,,,,,,,,,,,,,,,,,,,1.39,347.9918309,None,349.3868355,None,None,1,,349.3868355,None,351.3905179,None,,,,,,,,,,,,,,,,,,,,,,,,,,,,,,,P009,fencog,2,Post,2021_Aug_17_1226,N-Back (New Version 2021),2021.1.4,120.0558019
Conditions/Version_2Pr/threeback(1)_v2.xlsx,New rule: Press 'space' when you see 3-back (i.e. the same letter as the one that appeared 3 letters ago.),U,space,,,,,0,3,3,3,0,3,3,3,,,,,,,,,,,,,,,,,,,,,,,,,,,,,,,,,,,,,,,,,,,1.615,352.8903392,None,354.5074461,None,space,1,0.5685445,354.5074461,None,355.0966808,None,,,,,,,,,,,,,,,,,,,,,,,,,,,,,,,P009,fencog,2,Post,2021_Aug_17_1226,N-Back (New Version 2021),2021.1.4,120.0558019
Conditions/Version_2Pr/threeback(1)_v2.xlsx,New rule: Press 'space' when you see 3-back (i.e. the same letter as the one that appeared 3 letters ago.),e,None,,,,,0,3,3,3,0,4,4,4,,,,,,,,,,,,,,,,,,,,,,,,,,,,,,,,,,,,,,,,,,,1.815,356.5975293,None,358.4157211,None,None,1,,358.4157211,None,360.4215884,None,,,,,,,,,,,,,,,,,,,,,,,,,,,,,,,P009,fencog,2,Post,2021_Aug_17_1226,N-Back (New Version 2021),2021.1.4,120.0558019
Conditions/Version_2Pr/threeback(1)_v2.xlsx,New rule: Press 'space' when you see 3-back (i.e. the same letter as the one that appeared 3 letters ago.),R,None,,,,,0,3,3,3,0,5,5,5,,,,,,,,,,,,,,,,,,,,,,,,,,,,,,,,,,,,,,,,,,,1.09,361.9210353,None,363.0122645,None,None,1,,363.0122645,None,365.0118704,None,,,,,,,,,,,,,,,,,,,,,,,,,,,,,,,P009,fencog,2,Post,2021_Aug_17_1226,N-Back (New Version 2021),2021.1.4,120.0558019
Conditions/Version_2Pr/threeback(1)_v2.xlsx,New rule: Press 'space' when you see 3-back (i.e. the same letter as the one that appeared 3 letters ago.),p,None,,,,,0,3,3,3,0,6,6,6,,,,,,,,,,,,,,,,,,,,,,,,,,,,,,,,,,,,,,,,,,,1.365,366.5112041,None,367.8785808,None,None,1,,367.8785808,None,369.8853863,None,,,,,,,,,,,,,,,,,,,,,,,,,,,,,,,P009,fencog,2,Post,2021_Aug_17_1226,N-Back (New Version 2021),2021.1.4,120.0558019
Conditions/Version_2Pr/threeback(1)_v2.xlsx,New rule: Press 'space' when you see 3-back (i.e. the same letter as the one that appeared 3 letters ago.),E,space,,,,,0,3,3,3,0,7,7,7,,,,,,,,,,,,,,,,,,,,,,,,,,,,,,,,,,,,,,,,,,,1.765,371.3848773,None,373.1526981,None,space,1,0.2835019,373.1526981,None,373.4588615,None,,,,,,,,,,,,,,,,,,,,,,,,,,,,,,,P009,fencog,2,Post,2021_Aug_17_1226,N-Back (New Version 2021),2021.1.4,120.0558019
Conditions/Version_2Pr/threeback(1)_v2.xlsx,New rule: Press 'space' when you see 3-back (i.e. the same letter as the one that appeared 3 letters ago.),k,None,,,,,0,3,3,3,0,8,8,8,,,,,,,,,,,,,,,,,,,,,,,,,,,,,,,,,,,,,,,,,,,1.065,374.9586302,None,376.0278439,None,None,1,,376.0278439,None,378.0327768,None,,,,,,,,,,,,,,,,,,,,,,,,,,,,,,,P009,fencog,2,Post,2021_Aug_17_1226,N-Back (New Version 2021),2021.1.4,120.0558019
Conditions/Version_2Pr/threeback(1)_v2.xlsx,New rule: Press 'space' when you see 3-back (i.e. the same letter as the one that appeared 3 letters ago.),m,None,,,,,0,3,3,3,0,9,9,9,,,,,,,,,,,,,,,,,,,,,,,,,,,,,,,,,,,,,,,,,,,1.565,379.5323532,None,381.1002181,None,None,1,,381.1002181,None,383.1065245,None,,,,,,,,,,,,,,,,,,,,,,,,,,,,,,,P009,fencog,2,Post,2021_Aug_17_1226,N-Back (New Version 2021),2021.1.4,120.0558019
Conditions/Version_2Pr/threeback(1)_v2.xlsx,New rule: Press 'space' when you see 3-back (i.e. the same letter as the one that appeared 3 letters ago.),,,,,,,0,3,3,3,,,,,,,,,,,,,,,,,,,,,,,,,,,,,,,,,,,,,,,,,,,,,,,,,,,,,,,,,,,,,,,,,,,,,,,,,,,,,,,,,,,,,,,,,P009,fencog,2,Post,2021_Aug_17_1226,N-Back (New Version 2021),2021.1.4,120.0558019
,,,,,,,,,,,,,,,,,,,,,,,,,,,,,,,,,,,,,,,,,,,,,,,,,,,,,,,,,,,,,,,,,,,,,,384.6151961,None,space,0.8898878,385.1060575,None,,,,,,,,,,,,,,,,,,,,,,,,,P009,fencog,2,Post,2021_Aug_17_1226,N-Back (New Version 2021),2021.1.4,120.0558019
,,,,,,,,,,,,,,,,,,,,,,,,,,,,,,,,,,,,,,,,,,,,,,,,,,,,,,,,,,,,,,,,,,,,,,,,,,,,386.0196588,None,space,0.8257401,386.5142819,None,,,,,,,,,,,,,,,,,,,P009,fencog,2,Post,2021_Aug_17_1226,N-Back (New Version 2021),2021.1.4,120.0558019
,,,,Conditions/Version_1/zeroback(1)_v1.xlsx,Rule: Press 'space' when you see the letter 'x' or 'X'.,b,None,,,,,,,,,0,0,0,0,0,0,0,0,,,,,,,,,,,,,,,,,,,,,,,,,,,,,,,,,,,,,,,,,,,,,,,,,,,,,,,,,,,387.4376874,None,390.422242,None,space,0.8544977,390.422242,None,387.4376874,None,1.6362,392.9397668,None,None,1,392.9397668,None,,P009,fencog,2,Post,2021_Aug_17_1226,N-Back (New Version 2021),2021.1.4,120.0558019
,,,,Conditions/Version_1/zeroback(1)_v1.xlsx,Rule: Press 'space' when you see the letter 'x' or 'X'.,T,None,,,,,,,,,0,0,0,0,0,1,1,1,,,,,,,,,,,,,,,,,,,,,,,,,,,,,,,,,,,,,,,,,,,,,,,,,,,,,,,,,,,,,,,,,,,,,1.2084,396.1543131,None,None,1,396.1543131,None,,P009,fencog,2,Post,2021_Aug_17_1226,N-Back (New Version 2021),2021.1.4,120.0558019
,,,,Conditions/Version_1/zeroback(1)_v1.xlsx,Rule: Press 'space' when you see the letter 'x' or 'X'.,L,None,,,,,,,,,0,0,0,0,0,2,2,2,,,,,,,,,,,,,,,,,,,,,,,,,,,,,,,,,,,,,,,,,,,,,,,,,,,,,,,,,,,,,,,,,,,,,1.2518,399.4207794,None,None,1,399.4207794,None,,P009,fencog,2,Post,2021_Aug_17_1226,N-Back (New Version 2021),2021.1.4,120.0558019
,,,,Conditions/Version_1/zeroback(1)_v1.xlsx,Rule: Press 'space' when you see the letter 'x' or 'X'.,x,space,,,,,,,,,0,0,0,0,0,3,3,3,,,,,,,,,,,,,,,,,,,,,,,,,,,,,,,,,,,,,,,,,,,,,,,,,,,,,,,,,,,,,,,,,,,,,1.847,403.2773746,None,space,1,403.2773746,None,0.3508215,P009,fencog,2,Post,2021_Aug_17_1226,N-Back (New Version 2021),2021.1.4,120.0558019
,,,,Conditions/Version_1/zeroback(1)_v1.xlsx,Rule: Press 'space' when you see the letter 'x' or 'X'.,o,None,,,,,,,,,0,0,0,0,0,4,4,4,,,,,,,,,,,,,,,,,,,,,,,,,,,,,,,,,,,,,,,,,,,,,,,,,,,,,,,,,,,,,,,,,,,,,1.2704,406.5584923,None,None,1,406.5584923,None,,P009,fencog,2,Post,2021_Aug_17_1226,N-Back (New Version 2021),2021.1.4,120.0558019
,,,,Conditions/Version_1/zeroback(1)_v1.xlsx,Rule: Press 'space' when you see the letter 'x' or 'X'.,P,None,,,,,,,,,0,0,0,0,0,5,5,5,,,,,,,,,,,,,,,,,,,,,,,,,,,,,,,,,,,,,,,,,,,,,,,,,,,,,,,,,,,,,,,,,,,,,1.8718,410.4398347,None,None,1,410.4398347,None,,P009,fencog,2,Post,2021_Aug_17_1226,N-Back (New Version 2021),2021.1.4,120.0558019
,,,,Conditions/Version_1/zeroback(1)_v1.xlsx,Rule: Press 'space' when you see the letter 'x' or 'X'.,X,space,,,,,,,,,0,0,0,0,0,6,6,6,,,,,,,,,,,,,,,,,,,,,,,,,,,,,,,,,,,,,,,,,,,,,,,,,,,,,,,,,,,,,,,,,,,,,1.9772,414.4232878,None,space,1,414.4232878,None,0.3245299,P009,fencog,2,Post,2021_Aug_17_1226,N-Back (New Version 2021),2021.1.4,120.0558019
,,,,Conditions/Version_1/zeroback(1)_v1.xlsx,Rule: Press 'space' when you see the letter 'x' or 'X'.,n,None,,,,,,,,,0,0,0,0,0,7,7,7,,,,,,,,,,,,,,,,,,,,,,,,,,,,,,,,,,,,,,,,,,,,,,,,,,,,,,,,,,,,,,,,,,,,,1.9524,418.3896399,None,None,1,418.3896399,None,,P009,fencog,2,Post,2021_Aug_17_1226,N-Back (New Version 2021),2021.1.4,120.0558019
,,,,Conditions/Version_1/zeroback(1)_v1.xlsx,Rule: Press 'space' when you see the letter 'x' or 'X'.,M,None,,,,,,,,,0,0,0,0,0,8,8,8,,,,,,,,,,,,,,,,,,,,,,,,,,,,,,,,,,,,,,,,,,,,,,,,,,,,,,,,,,,,,,,,,,,,,1.692,422.0970705,None,None,1,422.0970705,None,,P009,fencog,2,Post,2021_Aug_17_1226,N-Back (New Version 2021),2021.1.4,120.0558019
,,,,Conditions/Version_1/zeroback(1)_v1.xlsx,Rule: Press 'space' when you see the letter 'x' or 'X'.,a,None,,,,,,,,,0,0,0,0,0,9,9,9,,,,,,,,,,,,,,,,,,,,,,,,,,,,,,,,,,,,,,,,,,,,,,,,,,,,,,,,,,,,,,,,,,,,,1.3014,425.4146321,None,space,0,425.4146321,None,1.5575069,P009,fencog,2,Post,2021_Aug_17_1226,N-Back (New Version 2021),2021.1.4,120.0558019
,,,,Conditions/Version_1/zeroback(1)_v1.xlsx,Rule: Press 'space' when you see the letter 'x' or 'X'.,,,,,,,,,,,0,0,0,0,,,,,,,,,,,,,,,,,,,,,,,,,,,,,,,,,,,,,,,,,,,,,,,,,,,,,,,,,,,,,,,,,,,,,,,,,,,,,,,,,P009,fencog,2,Post,2021_Aug_17_1226,N-Back (New Version 2021),2021.1.4,120.0558019
,,,,Conditions/Version_1/oneback(1)_v1.xlsx,New rule: Press 'space' when you see 1-back (i.e. the same letter as the one that appeared 1 letter ago.),b,None,,,,,,,,,0,1,1,1,0,0,0,0,,,,,,,,,,,,,,,,,,,,,,,,,,,,,,,,,,,,,,,,,,,,,,,,,,,,,,,,,,,427.4417569,None,430.427394,None,space,4.1767964,430.427394,None,427.4417569,None,1.5618,436.2084473,None,None,1,436.2084473,None,,P009,fencog,2,Post,2021_Aug_17_1226,N-Back (New Version 2021),2021.1.4,120.0558019
,,,,Conditions/Version_1/oneback(1)_v1.xlsx,New rule: Press 'space' when you see 1-back (i.e. the same letter as the one that appeared 1 letter ago.),p,None,,,,,,,,,0,1,1,1,0,1,1,1,,,,,,,,,,,,,,,,,,,,,,,,,,,,,,,,,,,,,,,,,,,,,,,,,,,,,,,,,,,,,,,,,,,,,1.3138,439.5325529,None,None,1,439.5325529,None,,P009,fencog,2,Post,2021_Aug_17_1226,N-Back (New Version 2021),2021.1.4,120.0558019
,,,,Conditions/Version_1/oneback(1)_v1.xlsx,New rule: Press 'space' when you see 1-back (i.e. the same letter as the one that appeared 1 letter ago.),M,None,,,,,,,,,0,1,1,1,0,2,2,2,,,,,,,,,,,,,,,,,,,,,,,,,,,,,,,,,,,,,,,,,,,,,,,,,,,,,,,,,,,,,,,,,,,,,1.1836,442.7221598,None,None,1,442.7221598,None,,P009,fencog,2,Post,2021_Aug_17_1226,N-Back (New Version 2021),2021.1.4,120.0558019
,,,,Conditions/Version_1/oneback(1)_v1.xlsx,New rule: Press 'space' when you see 1-back (i.e. the same letter as the one that appeared 1 letter ago.),M,space,,,,,,,,,0,1,1,1,0,3,3,3,,,,,,,,,,,,,,,,,,,,,,,,,,,,,,,,,,,,,,,,,,,,,,,,,,,,,,,,,,,,,,,,,,,,,1.6982,446.4211268,None,space,1,446.4211268,None,0.5987905,P009,fencog,2,Post,2021_Aug_17_1226,N-Back (New Version 2021),2021.1.4,120.0558019
,,,,Conditions/Version_1/oneback(1)_v1.xlsx,New rule: Press 'space' when you see 1-back (i.e. the same letter as the one that appeared 1 letter ago.),n,None,,,,,,,,,0,1,1,1,0,4,4,4,,,,,,,,,,,,,,,,,,,,,,,,,,,,,,,,,,,,,,,,,,,,,,,,,,,,,,,,,,,,,,,,,,,,,1.227,449.6552494,None,None,1,449.6552494,None,,P009,fencog,2,Post,2021_Aug_17_1226,N-Back (New Version 2021),2021.1.4,120.0558019
,,,,Conditions/Version_1/oneback(1)_v1.xlsx,New rule: Press 'space' when you see 1-back (i.e. the same letter as the one that appeared 1 letter ago.),g,None,,,,,,,,,0,1,1,1,0,5,5,5,,,,,,,,,,,,,,,,,,,,,,,,,,,,,,,,,,,,,,,,,,,,,,,,,,,,,,,,,,,,,,,,,,,,,1.01,452.680388,None,None,1,452.680388,None,,P009,fencog,2,Post,2021_Aug_17_1226,N-Back (New Version 2021),2021.1.4,120.0558019
,,,,Conditions/Version_1/oneback(1)_v1.xlsx,New rule: Press 'space' when you see 1-back (i.e. the same letter as the one that appeared 1 letter ago.),P,None,,,,,,,,,0,1,1,1,0,6,6,6,,,,,,,,,,,,,,,,,,,,,,,,,,,,,,,,,,,,,,,,,,,,,,,,,,,,,,,,,,,,,,,,,,,,,1.4936,456.1867387,None,None,1,456.1867387,None,,P009,fencog,2,Post,2021_Aug_17_1226,N-Back (New Version 2021),2021.1.4,120.0558019
,,,,Conditions/Version_1/oneback(1)_v1.xlsx,New rule: Press 'space' when you see 1-back (i.e. the same letter as the one that appeared 1 letter ago.),o,None,,,,,,,,,0,1,1,1,0,7,7,7,,,,,,,,,,,,,,,,,,,,,,,,,,,,,,,,,,,,,,,,,,,,,,,,,,,,,,,,,,,,,,,,,,,,,1.3634,459.5609533,None,None,1,459.5609533,None,,P009,fencog,2,Post,2021_Aug_17_1226,N-Back (New Version 2021),2021.1.4,120.0558019
,,,,Conditions/Version_1/oneback(1)_v1.xlsx,New rule: Press 'space' when you see 1-back (i.e. the same letter as the one that appeared 1 letter ago.),f,None,,,,,,,,,0,1,1,1,0,8,8,8,,,,,,,,,,,,,,,,,,,,,,,,,,,,,,,,,,,,,,,,,,,,,,,,,,,,,,,,,,,,,,,,,,,,,1.878,463.4504374,None,None,1,463.4504374,None,,P009,fencog,2,Post,2021_Aug_17_1226,N-Back (New Version 2021),2021.1.4,120.0558019
,,,,Conditions/Version_1/oneback(1)_v1.xlsx,New rule: Press 'space' when you see 1-back (i.e. the same letter as the one that appeared 1 letter ago.),F,space,,,,,,,,,0,1,1,1,0,9,9,9,,,,,,,,,,,,,,,,,,,,,,,,,,,,,,,,,,,,,,,,,,,,,,,,,,,,,,,,,,,,,,,,,,,,,1.3882,466.8504768,None,space,1,466.8504768,None,0.578338,P009,fencog,2,Post,2021_Aug_17_1226,N-Back (New Version 2021),2021.1.4,120.0558019
,,,,Conditions/Version_1/oneback(1)_v1.xlsx,New rule: Press 'space' when you see 1-back (i.e. the same letter as the one that appeared 1 letter ago.),,,,,,,,,,,0,1,1,1,,,,,,,,,,,,,,,,,,,,,,,,,,,,,,,,,,,,,,,,,,,,,,,,,,,,,,,,,,,,,,,,,,,,,,,,,,,,,,,,,P009,fencog,2,Post,2021_Aug_17_1226,N-Back (New Version 2021),2021.1.4,120.0558019
,,,,Conditions/Version_1/twoback(1)_v1.xlsx,New rule: Press 'space' when you see 2-back (i.e. the same letter as the one that appeared 2 letters ago.),b,None,,,,,,,,,0,2,2,2,0,0,0,0,,,,,,,,,,,,,,,,,,,,,,,,,,,,,,,,,,,,,,,,,,,,,,,,,,,,,,,,,,,468.8785899,None,471.865462,None,space,0.7628049,471.865462,None,468.8785899,None,1.7354,474.3886562,None,None,1,474.3886562,None,,P009,fencog,2,Post,2021_Aug_17_1226,N-Back (New Version 2021),2021.1.4,120.0558019
,,,,Conditions/Version_1/twoback(1)_v1.xlsx,New rule: Press 'space' when you see 2-back (i.e. the same letter as the one that appeared 2 letters ago.),h,None,,,,,,,,,0,2,2,2,0,1,1,1,,,,,,,,,,,,,,,,,,,,,,,,,,,,,,,,,,,,,,,,,,,,,,,,,,,,,,,,,,,,,,,,,,,,,1.444,477.8482759,None,None,1,477.8482759,None,,P009,fencog,2,Post,2021_Aug_17_1226,N-Back (New Version 2021),2021.1.4,120.0558019
,,,,Conditions/Version_1/twoback(1)_v1.xlsx,New rule: Press 'space' when you see 2-back (i.e. the same letter as the one that appeared 2 letters ago.),j,None,,,,,,,,,0,2,2,2,0,2,2,2,,,,,,,,,,,,,,,,,,,,,,,,,,,,,,,,,,,,,,,,,,,,,,,,,,,,,,,,,,,,,,,,,,,,,1.2022,481.0668701,None,None,1,481.0668701,None,,P009,fencog,2,Post,2021_Aug_17_1226,N-Back (New Version 2021),2021.1.4,120.0558019
,,,,Conditions/Version_1/twoback(1)_v1.xlsx,New rule: Press 'space' when you see 2-back (i.e. the same letter as the one that appeared 2 letters ago.),H,space,,,,,,,,,0,2,2,2,0,3,3,3,,,,,,,,,,,,,,,,,,,,,,,,,,,,,,,,,,,,,,,,,,,,,,,,,,,,,,,,,,,,,,,,,,,,,1.1092,484.1854525,None,space,1,484.1854525,None,0.3705746,P009,fencog,2,Post,2021_Aug_17_1226,N-Back (New Version 2021),2021.1.4,120.0558019
,,,,Conditions/Version_1/twoback(1)_v1.xlsx,New rule: Press 'space' when you see 2-back (i.e. the same letter as the one that appeared 2 letters ago.),p,None,,,,,,,,,0,2,2,2,0,4,4,4,,,,,,,,,,,,,,,,,,,,,,,,,,,,,,,,,,,,,,,,,,,,,,,,,,,,,,,,,,,,,,,,,,,,,1.7292,487.9189838,None,None,1,487.9189838,None,,P009,fencog,2,Post,2021_Aug_17_1226,N-Back (New Version 2021),2021.1.4,120.0558019
,,,,Conditions/Version_1/twoback(1)_v1.xlsx,New rule: Press 'space' when you see 2-back (i.e. the same letter as the one that appeared 2 letters ago.),p,None,,,,,,,,,0,2,2,2,0,5,5,5,,,,,,,,,,,,,,,,,,,,,,,,,,,,,,,,,,,,,,,,,,,,,,,,,,,,,,,,,,,,,,,,,,,,,1.7788,491.699514,None,space,0,491.699514,None,0.5370283,P009,fencog,2,Post,2021_Aug_17_1226,N-Back (New Version 2021),2021.1.4,120.0558019
,,,,Conditions/Version_1/twoback(1)_v1.xlsx,New rule: Press 'space' when you see 2-back (i.e. the same letter as the one that appeared 2 letters ago.),w,None,,,,,,,,,0,2,2,2,0,6,6,6,,,,,,,,,,,,,,,,,,,,,,,,,,,,,,,,,,,,,,,,,,,,,,,,,,,,,,,,,,,,,,,,,,,,,1.8656,495.5663828,None,None,1,495.5663828,None,,P009,fencog,2,Post,2021_Aug_17_1226,N-Back (New Version 2021),2021.1.4,120.0558019
,,,,Conditions/Version_1/twoback(1)_v1.xlsx,New rule: Press 'space' when you see 2-back (i.e. the same letter as the one that appeared 2 letters ago.),R,None,,,,,,,,,0,2,2,2,0,7,7,7,,,,,,,,,,,,,,,,,,,,,,,,,,,,,,,,,,,,,,,,,,,,,,,,,,,,,,,,,,,,,,,,,,,,,1.4192,498.9893576,None,None,1,498.9893576,None,,P009,fencog,2,Post,2021_Aug_17_1226,N-Back (New Version 2021),2021.1.4,120.0558019
,,,,Conditions/Version_1/twoback(1)_v1.xlsx,New rule: Press 'space' when you see 2-back (i.e. the same letter as the one that appeared 2 letters ago.),a,None,,,,,,,,,0,2,2,2,0,8,8,8,,,,,,,,,,,,,,,,,,,,,,,,,,,,,,,,,,,,,,,,,,,,,,,,,,,,,,,,,,,,,,,,,,,,,1.8346,502.8316272,None,None,1,502.8316272,None,,P009,fencog,2,Post,2021_Aug_17_1226,N-Back (New Version 2021),2021.1.4,120.0558019
,,,,Conditions/Version_1/twoback(1)_v1.xlsx,New rule: Press 'space' when you see 2-back (i.e. the same letter as the one that appeared 2 letters ago.),r,space,,,,,,,,,0,2,2,2,0,9,9,9,,,,,,,,,,,,,,,,,,,,,,,,,,,,,,,,,,,,,,,,,,,,,,,,,,,,,,,,,,,,,,,,,,,,,1.4564,506.2975432,None,space,1,506.2975432,None,0.642496,P009,fencog,2,Post,2021_Aug_17_1226,N-Back (New Version 2021),2021.1.4,120.0558019
,,,,Conditions/Version_1/twoback(1)_v1.xlsx,New rule: Press 'space' when you see 2-back (i.e. the same letter as the one that appeared 2 letters ago.),,,,,,,,,,,0,2,2,2,,,,,,,,,,,,,,,,,,,,,,,,,,,,,,,,,,,,,,,,,,,,,,,,,,,,,,,,,,,,,,,,,,,,,,,,,,,,,,,,,P009,fencog,2,Post,2021_Aug_17_1226,N-Back (New Version 2021),2021.1.4,120.0558019
,,,,Conditions/Version_1/threeback(1)_v1.xlsx,New rule: Press 'space' when you see 3-back (i.e. the same letter as the one that appeared 3 letters ago.),r,None,,,,,,,,,0,3,3,3,0,0,0,0,,,,,,,,,,,,,,,,,,,,,,,,,,,,,,,,,,,,,,,,,,,,,,,,,,,,,,,,,,,508.3220722,None,511.3129812,None,space,0.883055,511.3129812,None,508.3220722,None,1.6796,513.9012324,None,None,1,513.9012324,None,,P009,fencog,2,Post,2021_Aug_17_1226,N-Back (New Version 2021),2021.1.4,120.0558019
,,,,Conditions/Version_1/threeback(1)_v1.xlsx,New rule: Press 'space' when you see 3-back (i.e. the same letter as the one that appeared 3 letters ago.),o,None,,,,,,,,,0,3,3,3,0,1,1,1,,,,,,,,,,,,,,,,,,,,,,,,,,,,,,,,,,,,,,,,,,,,,,,,,,,,,,,,,,,,,,,,,,,,,1.1588,517.0691382,None,None,1,517.0691382,None,,P009,fencog,2,Post,2021_Aug_17_1226,N-Back (New Version 2021),2021.1.4,120.0558019
,,,,Conditions/Version_1/threeback(1)_v1.xlsx,New rule: Press 'space' when you see 3-back (i.e. the same letter as the one that appeared 3 letters ago.),P,None,,,,,,,,,0,3,3,3,0,2,2,2,,,,,,,,,,,,,,,,,,,,,,,,,,,,,,,,,,,,,,,,,,,,,,,,,,,,,,,,,,,,,,,,,,,,,1.6176,520.7009825,None,None,1,520.7009825,None,,P009,fencog,2,Post,2021_Aug_17_1226,N-Back (New Version 2021),2021.1.4,120.0558019
,,,,Conditions/Version_1/threeback(1)_v1.xlsx,New rule: Press 'space' when you see 3-back (i.e. the same letter as the one that appeared 3 letters ago.),R,space,,,,,,,,,0,3,3,3,0,3,3,3,,,,,,,,,,,,,,,,,,,,,,,,,,,,,,,,,,,,,,,,,,,,,,,,,,,,,,,,,,,,,,,,,,,,,1.6982,524.410193,None,space,1,524.410193,None,0.3137151,P009,fencog,2,Post,2021_Aug_17_1226,N-Back (New Version 2021),2021.1.4,120.0558019
,,,,Conditions/Version_1/threeback(1)_v1.xlsx,New rule: Press 'space' when you see 3-back (i.e. the same letter as the one that appeared 3 letters ago.),p,None,,,,,,,,,0,3,3,3,0,4,4,4,,,,,,,,,,,,,,,,,,,,,,,,,,,,,,,,,,,,,,,,,,,,,,,,,,,,,,,,,,,,,,,,,,,,,1.2332,527.6471589,None,None,1,527.6471589,None,,P009,fencog,2,Post,2021_Aug_17_1226,N-Back (New Version 2021),2021.1.4,120.0558019
,,,,Conditions/Version_1/threeback(1)_v1.xlsx,New rule: Press 'space' when you see 3-back (i.e. the same letter as the one that appeared 3 letters ago.),E,None,,,,,,,,,0,3,3,3,0,5,5,5,,,,,,,,,,,,,,,,,,,,,,,,,,,,,,,,,,,,,,,,,,,,,,,,,,,,,,,,,,,,,,,,,,,,,1.8656,531.5149537,None,None,1,531.5149537,None,,P009,fencog,2,Post,2021_Aug_17_1226,N-Back (New Version 2021),2021.1.4,120.0558019
,,,,Conditions/Version_1/threeback(1)_v1.xlsx,New rule: Press 'space' when you see 3-back (i.e. the same letter as the one that appeared 3 letters ago.),e,None,,,,,,,,,0,3,3,3,0,6,6,6,,,,,,,,,,,,,,,,,,,,,,,,,,,,,,,,,,,,,,,,,,,,,,,,,,,,,,,,,,,,,,,,,,,,,1.4006,534.9287554,None,space,0,534.9287554,None,0.6033021,P009,fencog,2,Post,2021_Aug_17_1226,N-Back (New Version 2021),2021.1.4,120.0558019
,,,,Conditions/Version_1/threeback(1)_v1.xlsx,New rule: Press 'space' when you see 3-back (i.e. the same letter as the one that appeared 3 letters ago.),m,None,,,,,,,,,0,3,3,3,0,7,7,7,,,,,,,,,,,,,,,,,,,,,,,,,,,,,,,,,,,,,,,,,,,,,,,,,,,,,,,,,,,,,,,,,,,,,1.5928,538.5368556,None,None,1,538.5368556,None,,P009,fencog,2,Post,2021_Aug_17_1226,N-Back (New Version 2021),2021.1.4,120.0558019
,,,,Conditions/Version_1/threeback(1)_v1.xlsx,New rule: Press 'space' when you see 3-back (i.e. the same letter as the one that appeared 3 letters ago.),n,None,,,,,,,,,0,3,3,3,0,8,8,8,,,,,,,,,,,,,,,,,,,,,,,,,,,,,,,,,,,,,,,,,,,,,,,,,,,,,,,,,,,,,,,,,,,,,1.3262,541.877454,None,None,1,541.877454,None,,P009,fencog,2,Post,2021_Aug_17_1226,N-Back (New Version 2021),2021.1.4,120.0558019
,,,,Conditions/Version_1/threeback(1)_v1.xlsx,New rule: Press 'space' when you see 3-back (i.e. the same letter as the one that appeared 3 letters ago.),e,space,,,,,,,,,0,3,3,3,0,9,9,9,,,,,,,,,,,,,,,,,,,,,,,,,,,,,,,,,,,,,,,,,,,,,,,,,,,,,,,,,,,,,,,,,,,,,1.7478,545.634579,None,space,1,545.634579,None,0.4020116,P009,fencog,2,Post,2021_Aug_17_1226,N-Back (New Version 2021),2021.1.4,120.0558019
,,,,Conditions/Version_1/threeback(1)_v1.xlsx,New rule: Press 'space' when you see 3-back (i.e. the same letter as the one that appeared 3 letters ago.),,,,,,,,,,,0,3,3,3,,,,,,,,,,,,,,,,,,,,,,,,,,,,,,,,,,,,,,,,,,,,,,,,,,,,,,,,,,,,,,,,,,,,,,,,,,,,,,,,,P009,fencog,2,Post,2021_Aug_17_1226,N-Back (New Version 2021),2021.1.4,120.0558019
,,,,Conditions/Version_1/oneback(2)_v1.xlsx,New rule: Press 'space' when you see 1-back (i.e. the same letter as the one that appeared 1 letter ago.),q,None,,,,,,,,,0,4,4,4,0,0,0,0,,,,,,,,,,,,,,,,,,,,,,,,,,,,,,,,,,,,,,,,,,,,,,,,,,,,,,,,,,,547.6662349,None,550.6508397,None,space,0.9452698,550.6508397,None,547.6662349,None,1.1774,552.7979596,None,None,1,552.7979596,None,,P009,fencog,2,Post,2021_Aug_17_1226,N-Back (New Version 2021),2021.1.4,120.0558019
,,,,Conditions/Version_1/oneback(2)_v1.xlsx,New rule: Press 'space' when you see 1-back (i.e. the same letter as the one that appeared 1 letter ago.),Q,space,,,,,,,,,0,4,4,4,0,1,1,1,,,,,,,,,,,,,,,,,,,,,,,,,,,,,,,,,,,,,,,,,,,,,,,,,,,,,,,,,,,,,,,,,,,,,1.723,556.5312679,None,space,1,556.5312679,None,0.3449952,P009,fencog,2,Post,2021_Aug_17_1226,N-Back (New Version 2021),2021.1.4,120.0558019
,,,,Conditions/Version_1/oneback(2)_v1.xlsx,New rule: Press 'space' when you see 1-back (i.e. the same letter as the one that appeared 1 letter ago.),P,None,,,,,,,,,0,4,4,4,0,2,2,2,,,,,,,,,,,,,,,,,,,,,,,,,,,,,,,,,,,,,,,,,,,,,,,,,,,,,,,,,,,,,,,,,,,,,1.4564,559.9983173,None,None,1,559.9983173,None,,P009,fencog,2,Post,2021_Aug_17_1226,N-Back (New Version 2021),2021.1.4,120.0558019
,,,,Conditions/Version_1/oneback(2)_v1.xlsx,New rule: Press 'space' when you see 1-back (i.e. the same letter as the one that appeared 1 letter ago.),o,None,,,,,,,,,0,4,4,4,0,3,3,3,,,,,,,,,,,,,,,,,,,,,,,,,,,,,,,,,,,,,,,,,,,,,,,,,,,,,,,,,,,,,,,,,,,,,1.4936,563.5033256,None,None,1,563.5033256,None,,P009,fencog,2,Post,2021_Aug_17_1226,N-Back (New Version 2021),2021.1.4,120.0558019
,,,,Conditions/Version_1/oneback(2)_v1.xlsx,New rule: Press 'space' when you see 1-back (i.e. the same letter as the one that appeared 1 letter ago.),m,None,,,,,,,,,0,4,4,4,0,4,4,4,,,,,,,,,,,,,,,,,,,,,,,,,,,,,,,,,,,,,,,,,,,,,,,,,,,,,,,,,,,,,,,,,,,,,1.6796,567.187479,None,None,1,567.187479,None,,P009,fencog,2,Post,2021_Aug_17_1226,N-Back (New Version 2021),2021.1.4,120.0558019
,,,,Conditions/Version_1/oneback(2)_v1.xlsx,New rule: Press 'space' when you see 1-back (i.e. the same letter as the one that appeared 1 letter ago.),Z,None,,,,,,,,,0,4,4,4,0,5,5,5,,,,,,,,,,,,,,,,,,,,,,,,,,,,,,,,,,,,,,,,,,,,,,,,,,,,,,,,,,,,,,,,,,,,,1.8036,571.004916,None,None,1,571.004916,None,,P009,fencog,2,Post,2021_Aug_17_1226,N-Back (New Version 2021),2021.1.4,120.0558019
,,,,Conditions/Version_1/oneback(2)_v1.xlsx,New rule: Press 'space' when you see 1-back (i.e. the same letter as the one that appeared 1 letter ago.),c,None,,,,,,,,,0,4,4,4,0,6,6,6,,,,,,,,,,,,,,,,,,,,,,,,,,,,,,,,,,,,,,,,,,,,,,,,,,,,,,,,,,,,,,,,,,,,,1.847,574.8644465,None,None,1,574.8644465,None,,P009,fencog,2,Post,2021_Aug_17_1226,N-Back (New Version 2021),2021.1.4,120.0558019
,,,,Conditions/Version_1/oneback(2)_v1.xlsx,New rule: Press 'space' when you see 1-back (i.e. the same letter as the one that appeared 1 letter ago.),c,space,,,,,,,,,0,4,4,4,0,7,7,7,,,,,,,,,,,,,,,,,,,,,,,,,,,,,,,,,,,,,,,,,,,,,,,,,,,,,,,,,,,,,,,,,,,,,1.1216,577.9906488,None,space,1,577.9906488,None,0.5898649,P009,fencog,2,Post,2021_Aug_17_1226,N-Back (New Version 2021),2021.1.4,120.0558019
,,,,Conditions/Version_1/oneback(2)_v1.xlsx,New rule: Press 'space' when you see 1-back (i.e. the same letter as the one that appeared 1 letter ago.),P,None,,,,,,,,,0,4,4,4,0,8,8,8,,,,,,,,,,,,,,,,,,,,,,,,,,,,,,,,,,,,,,,,,,,,,,,,,,,,,,,,,,,,,,,,,,,,,1.9152,581.9080729,None,None,1,581.9080729,None,,P009,fencog,2,Post,2021_Aug_17_1226,N-Back (New Version 2021),2021.1.4,120.0558019
,,,,Conditions/Version_1/oneback(2)_v1.xlsx,New rule: Press 'space' when you see 1-back (i.e. the same letter as the one that appeared 1 letter ago.),p,space,,,,,,,,,0,4,4,4,0,9,9,9,,,,,,,,,,,,,,,,,,,,,,,,,,,,,,,,,,,,,,,,,,,,,,,,,,,,,,,,,,,,,,,,,,,,,1.8966,585.8159498,None,space,1,585.8159498,None,0.5160191,P009,fencog,2,Post,2021_Aug_17_1226,N-Back (New Version 2021),2021.1.4,120.0558019
,,,,Conditions/Version_1/oneback(2)_v1.xlsx,New rule: Press 'space' when you see 1-back (i.e. the same letter as the one that appeared 1 letter ago.),,,,,,,,,,,0,4,4,4,,,,,,,,,,,,,,,,,,,,,,,,,,,,,,,,,,,,,,,,,,,,,,,,,,,,,,,,,,,,,,,,,,,,,,,,,,,,,,,,,P009,fencog,2,Post,2021_Aug_17_1226,N-Back (New Version 2021),2021.1.4,120.0558019
,,,,Conditions/Version_1/zeroback(2)_v1.xlsx,New rule: Press 'space' when you see the letter 'x' or 'X'.,p,None,,,,,,,,,0,5,5,5,0,0,0,0,,,,,,,,,,,,,,,,,,,,,,,,,,,,,,,,,,,,,,,,,,,,,,,,,,,,,,,,,,,587.8412044,None,590.8230749,None,space,0.5806272,590.8230749,None,587.8412044,None,1.971,593.3946483,None,None,1,593.3946483,None,,P009,fencog,2,Post,2021_Aug_17_1226,N-Back (New Version 2021),2021.1.4,120.0558019
,,,,Conditions/Version_1/zeroback(2)_v1.xlsx,New rule: Press 'space' when you see the letter 'x' or 'X'.,L,None,,,,,,,,,0,5,5,5,0,1,1,1,,,,,,,,,,,,,,,,,,,,,,,,,,,,,,,,,,,,,,,,,,,,,,,,,,,,,,,,,,,,,,,,,,,,,1.909,597.3138302,None,None,1,597.3138302,None,,P009,fencog,2,Post,2021_Aug_17_1226,N-Back (New Version 2021),2021.1.4,120.0558019
,,,,Conditions/Version_1/zeroback(2)_v1.xlsx,New rule: Press 'space' when you see the letter 'x' or 'X'.,G,None,,,,,,,,,0,5,5,5,0,2,2,2,,,,,,,,,,,,,,,,,,,,,,,,,,,,,,,,,,,,,,,,,,,,,,,,,,,,,,,,,,,,,,,,,,,,,1.847,601.1697561,None,None,1,601.1697561,None,,P009,fencog,2,Post,2021_Aug_17_1226,N-Back (New Version 2021),2021.1.4,120.0558019
,,,,Conditions/Version_1/zeroback(2)_v1.xlsx,New rule: Press 'space' when you see the letter 'x' or 'X'.,y,None,,,,,,,,,0,5,5,5,0,3,3,3,,,,,,,,,,,,,,,,,,,,,,,,,,,,,,,,,,,,,,,,,,,,,,,,,,,,,,,,,,,,,,,,,,,,,1.7974,604.977028,None,None,1,604.977028,None,,P009,fencog,2,Post,2021_Aug_17_1226,N-Back (New Version 2021),2021.1.4,120.0558019
,,,,Conditions/Version_1/zeroback(2)_v1.xlsx,New rule: Press 'space' when you see the letter 'x' or 'X'.,Y,None,,,,,,,,,0,5,5,5,0,4,4,4,,,,,,,,,,,,,,,,,,,,,,,,,,,,,,,,,,,,,,,,,,,,,,,,,,,,,,,,,,,,,,,,,,,,,1.7292,608.7164446,None,None,1,608.7164446,None,,P009,fencog,2,Post,2021_Aug_17_1226,N-Back (New Version 2021),2021.1.4,120.0558019
,,,,Conditions/Version_1/zeroback(2)_v1.xlsx,New rule: Press 'space' when you see the letter 'x' or 'X'.,W,None,,,,,,,,,0,5,5,5,0,5,5,5,,,,,,,,,,,,,,,,,,,,,,,,,,,,,,,,,,,,,,,,,,,,,,,,,,,,,,,,,,,,,,,,,,,,,1.4192,612.1494899,None,None,1,612.1494899,None,,P009,fencog,2,Post,2021_Aug_17_1226,N-Back (New Version 2021),2021.1.4,120.0558019
,,,,Conditions/Version_1/zeroback(2)_v1.xlsx,New rule: Press 'space' when you see the letter 'x' or 'X'.,x,space,,,,,,,,,0,5,5,5,0,6,6,6,,,,,,,,,,,,,,,,,,,,,,,,,,,,,,,,,,,,,,,,,,,,,,,,,,,,,,,,,,,,,,,,,,,,,1.9834,616.137863,None,space,1,616.137863,None,0.9865996,P009,fencog,2,Post,2021_Aug_17_1226,N-Back (New Version 2021),2021.1.4,120.0558019
,,,,Conditions/Version_1/zeroback(2)_v1.xlsx,New rule: Press 'space' when you see the letter 'x' or 'X'.,X,space,,,,,,,,,0,5,5,5,0,7,7,7,,,,,,,,,,,,,,,,,,,,,,,,,,,,,,,,,,,,,,,,,,,,,,,,,,,,,,,,,,,,,,,,,,,,,1.1402,619.2798266,None,None,0,619.2798266,None,,P009,fencog,2,Post,2021_Aug_17_1226,N-Back (New Version 2021),2021.1.4,120.0558019
,,,,Conditions/Version_1/zeroback(2)_v1.xlsx,New rule: Press 'space' when you see the letter 'x' or 'X'.,p,None,,,,,,,,,0,5,5,5,0,8,8,8,,,,,,,,,,,,,,,,,,,,,,,,,,,,,,,,,,,,,,,,,,,,,,,,,,,,,,,,,,,,,,,,,,,,,1.63,622.9189255,None,None,1,622.9189255,None,,P009,fencog,2,Post,2021_Aug_17_1226,N-Back (New Version 2021),2021.1.4,120.0558019
,,,,Conditions/Version_1/zeroback(2)_v1.xlsx,New rule: Press 'space' when you see the letter 'x' or 'X'.,h,None,,,,,,,,,0,5,5,5,0,9,9,9,,,,,,,,,,,,,,,,,,,,,,,,,,,,,,,,,,,,,,,,,,,,,,,,,,,,,,,,,,,,,,,,,,,,,1.2642,626.1849209,None,None,1,626.1849209,None,,P009,fencog,2,Post,2021_Aug_17_1226,N-Back (New Version 2021),2021.1.4,120.0558019
,,,,Conditions/Version_1/zeroback(2)_v1.xlsx,New rule: Press 'space' when you see the letter 'x' or 'X'.,,,,,,,,,,,0,5,5,5,,,,,,,,,,,,,,,,,,,,,,,,,,,,,,,,,,,,,,,,,,,,,,,,,,,,,,,,,,,,,,,,,,,,,,,,,,,,,,,,,P009,fencog,2,Post,2021_Aug_17_1226,N-Back (New Version 2021),2021.1.4,120.0558019
,,,,Conditions/Version_1/threeback(2)_v1.xlsx,New rule: Press 'space' when you see 3-back (i.e. the same letter as the one that appeared 3 letters ago.),q,None,,,,,,,,,0,6,6,6,0,0,0,0,,,,,,,,,,,,,,,,,,,,,,,,,,,,,,,,,,,,,,,,,,,,,,,,,,,,,,,,,,,628.2088509,None,631.1939362,None,space,2.0340941,631.1939362,None,628.2088509,None,1.6982,634.9592989,None,None,1,634.9592989,None,,P009,fencog,2,Post,2021_Aug_17_1226,N-Back (New Version 2021),2021.1.4,120.0558019
,,,,Conditions/Version_1/threeback(2)_v1.xlsx,New rule: Press 'space' when you see 3-back (i.e. the same letter as the one that appeared 3 letters ago.),Y,None,,,,,,,,,0,6,6,6,0,1,1,1,,,,,,,,,,,,,,,,,,,,,,,,,,,,,,,,,,,,,,,,,,,,,,,,,,,,,,,,,,,,,,,,,,,,,1.3076,638.273041,None,None,1,638.273041,None,,P009,fencog,2,Post,2021_Aug_17_1226,N-Back (New Version 2021),2021.1.4,120.0558019
,,,,Conditions/Version_1/threeback(2)_v1.xlsx,New rule: Press 'space' when you see 3-back (i.e. the same letter as the one that appeared 3 letters ago.),p,None,,,,,,,,,0,6,6,6,0,2,2,2,,,,,,,,,,,,,,,,,,,,,,,,,,,,,,,,,,,,,,,,,,,,,,,,,,,,,,,,,,,,,,,,,,,,,1.0844,641.3648772,None,None,1,641.3648772,None,,P009,fencog,2,Post,2021_Aug_17_1226,N-Back (New Version 2021),2021.1.4,120.0558019
,,,,Conditions/Version_1/threeback(2)_v1.xlsx,New rule: Press 'space' when you see 3-back (i.e. the same letter as the one that appeared 3 letters ago.),p,None,,,,,,,,,0,6,6,6,0,3,3,3,,,,,,,,,,,,,,,,,,,,,,,,,,,,,,,,,,,,,,,,,,,,,,,,,,,,,,,,,,,,,,,,,,,,,1.5556,644.9294395,None,None,1,644.9294395,None,,P009,fencog,2,Post,2021_Aug_17_1226,N-Back (New Version 2021),2021.1.4,120.0558019
,,,,Conditions/Version_1/threeback(2)_v1.xlsx,New rule: Press 'space' when you see 3-back (i.e. the same letter as the one that appeared 3 letters ago.),y,space,,,,,,,,,0,6,6,6,0,4,4,4,,,,,,,,,,,,,,,,,,,,,,,,,,,,,,,,,,,,,,,,,,,,,,,,,,,,,,,,,,,,,,,,,,,,,1.6734,648.611565,None,space,1,648.611565,None,0.3447821,P009,fencog,2,Post,2021_Aug_17_1226,N-Back (New Version 2021),2021.1.4,120.0558019
,,,,Conditions/Version_1/threeback(2)_v1.xlsx,New rule: Press 'space' when you see 3-back (i.e. the same letter as the one that appeared 3 letters ago.),u,None,,,,,,,,,0,6,6,6,0,5,5,5,,,,,,,,,,,,,,,,,,,,,,,,,,,,,,,,,,,,,,,,,,,,,,,,,,,,,,,,,,,,,,,,,,,,,1.692,652.3134253,None,None,1,652.3134253,None,,P009,fencog,2,Post,2021_Aug_17_1226,N-Back (New Version 2021),2021.1.4,120.0558019
,,,,Conditions/Version_1/threeback(2)_v1.xlsx,New rule: Press 'space' when you see 3-back (i.e. the same letter as the one that appeared 3 letters ago.),P,space,,,,,,,,,0,6,6,6,0,6,6,6,,,,,,,,,,,,,,,,,,,,,,,,,,,,,,,,,,,,,,,,,,,,,,,,,,,,,,,,,,,,,,,,,,,,,1.8594,656.1862006,None,space,1,656.1862006,None,0.3461507,P009,fencog,2,Post,2021_Aug_17_1226,N-Back (New Version 2021),2021.1.4,120.0558019
,,,,Conditions/Version_1/threeback(2)_v1.xlsx,New rule: Press 'space' when you see 3-back (i.e. the same letter as the one that appeared 3 letters ago.),a,None,,,,,,,,,0,6,6,6,0,7,7,7,,,,,,,,,,,,,,,,,,,,,,,,,,,,,,,,,,,,,,,,,,,,,,,,,,,,,,,,,,,,,,,,,,,,,1.382,659.5769252,None,None,1,659.5769252,None,,P009,fencog,2,Post,2021_Aug_17_1226,N-Back (New Version 2021),2021.1.4,120.0558019
,,,,Conditions/Version_1/threeback(2)_v1.xlsx,New rule: Press 'space' when you see 3-back (i.e. the same letter as the one that appeared 3 letters ago.),U,space,,,,,,,,,0,6,6,6,0,8,8,8,,,,,,,,,,,,,,,,,,,,,,,,,,,,,,,,,,,,,,,,,,,,,,,,,,,,,,,,,,,,,,,,,,,,,1.506,663.0907034,None,space,1,663.0907034,None,0.4500359,P009,fencog,2,Post,2021_Aug_17_1226,N-Back (New Version 2021),2021.1.4,120.0558019
,,,,Conditions/Version_1/threeback(2)_v1.xlsx,New rule: Press 'space' when you see 3-back (i.e. the same letter as the one that appeared 3 letters ago.),q,None,,,,,,,,,0,6,6,6,0,9,9,9,,,,,,,,,,,,,,,,,,,,,,,,,,,,,,,,,,,,,,,,,,,,,,,,,,,,,,,,,,,,,,,,,,,,,1.2642,666.3563264,None,None,1,666.3563264,None,,P009,fencog,2,Post,2021_Aug_17_1226,N-Back (New Version 2021),2021.1.4,120.0558019
,,,,Conditions/Version_1/threeback(2)_v1.xlsx,New rule: Press 'space' when you see 3-back (i.e. the same letter as the one that appeared 3 letters ago.),,,,,,,,,,,0,6,6,6,,,,,,,,,,,,,,,,,,,,,,,,,,,,,,,,,,,,,,,,,,,,,,,,,,,,,,,,,,,,,,,,,,,,,,,,,,,,,,,,,P009,fencog,2,Post,2021_Aug_17_1226,N-Back (New Version 2021),2021.1.4,120.0558019
,,,,Conditions/Version_1/twoback(2)_v1.xlsx,New rule: Press 'space' when you see 2-back (i.e. the same letter as the one that appeared 2 letters ago.),q,None,,,,,,,,,0,7,7,7,0,0,0,0,,,,,,,,,,,,,,,,,,,,,,,,,,,,,,,,,,,,,,,,,,,,,,,,,,,,,,,,,,,668.3793863,None,671.3651644,None,space,0.4952175,671.3651644,None,668.3793863,None,1.2394,673.1209689,None,None,1,673.1209689,None,,P009,fencog,2,Post,2021_Aug_17_1226,N-Back (New Version 2021),2021.1.4,120.0558019
,,,,Conditions/Version_1/twoback(2)_v1.xlsx,New rule: Press 'space' when you see 2-back (i.e. the same letter as the one that appeared 2 letters ago.),r,None,,,,,,,,,0,7,7,7,0,1,1,1,,,,,,,,,,,,,,,,,,,,,,,,,,,,,,,,,,,,,,,,,,,,,,,,,,,,,,,,,,,,,,,,,,,,,1.506,676.6344172,None,None,1,676.6344172,None,,P009,fencog,2,Post,2021_Aug_17_1226,N-Back (New Version 2021),2021.1.4,120.0558019
,,,,Conditions/Version_1/twoback(2)_v1.xlsx,New rule: Press 'space' when you see 2-back (i.e. the same letter as the one that appeared 2 letters ago.),q,space,,,,,,,,,0,7,7,7,0,2,2,2,,,,,,,,,,,,,,,,,,,,,,,,,,,,,,,,,,,,,,,,,,,,,,,,,,,,,,,,,,,,,,,,,,,,,1.1464,679.787847,None,space,1,679.787847,None,0.696585,P009,fencog,2,Post,2021_Aug_17_1226,N-Back (New Version 2021),2021.1.4,120.0558019
,,,,Conditions/Version_1/twoback(2)_v1.xlsx,New rule: Press 'space' when you see 2-back (i.e. the same letter as the one that appeared 2 letters ago.),P,None,,,,,,,,,0,7,7,7,0,3,3,3,,,,,,,,,,,,,,,,,,,,,,,,,,,,,,,,,,,,,,,,,,,,,,,,,,,,,,,,,,,,,,,,,,,,,1.2456,683.0430904,None,None,1,683.0430904,None,,P009,fencog,2,Post,2021_Aug_17_1226,N-Back (New Version 2021),2021.1.4,120.0558019
,,,,Conditions/Version_1/twoback(2)_v1.xlsx,New rule: Press 'space' when you see 2-back (i.e. the same letter as the one that appeared 2 letters ago.),p,None,,,,,,,,,0,7,7,7,0,4,4,4,,,,,,,,,,,,,,,,,,,,,,,,,,,,,,,,,,,,,,,,,,,,,,,,,,,,,,,,,,,,,,,,,,,,,1.1588,686.2025334,None,None,1,686.2025334,None,,P009,fencog,2,Post,2021_Aug_17_1226,N-Back (New Version 2021),2021.1.4,120.0558019
,,,,Conditions/Version_1/twoback(2)_v1.xlsx,New rule: Press 'space' when you see 2-back (i.e. the same letter as the one that appeared 2 letters ago.),H,None,,,,,,,,,0,7,7,7,0,5,5,5,,,,,,,,,,,,,,,,,,,,,,,,,,,,,,,,,,,,,,,,,,,,,,,,,,,,,,,,,,,,,,,,,,,,,1.785,690.0006782,None,None,1,690.0006782,None,,P009,fencog,2,Post,2021_Aug_17_1226,N-Back (New Version 2021),2021.1.4,120.0558019
,,,,Conditions/Version_1/twoback(2)_v1.xlsx,New rule: Press 'space' when you see 2-back (i.e. the same letter as the one that appeared 2 letters ago.),g,None,,,,,,,,,0,7,7,7,0,6,6,6,,,,,,,,,,,,,,,,,,,,,,,,,,,,,,,,,,,,,,,,,,,,,,,,,,,,,,,,,,,,,,,,,,,,,1.0596,693.0735746,None,None,1,693.0735746,None,,P009,fencog,2,Post,2021_Aug_17_1226,N-Back (New Version 2021),2021.1.4,120.0558019
,,,,Conditions/Version_1/twoback(2)_v1.xlsx,New rule: Press 'space' when you see 2-back (i.e. the same letter as the one that appeared 2 letters ago.),j,None,,,,,,,,,0,7,7,7,0,7,7,7,,,,,,,,,,,,,,,,,,,,,,,,,,,,,,,,,,,,,,,,,,,,,,,,,,,,,,,,,,,,,,,,,,,,,1.0286,696.1070047,None,None,1,696.1070047,None,,P009,fencog,2,Post,2021_Aug_17_1226,N-Back (New Version 2021),2021.1.4,120.0558019
,,,,Conditions/Version_1/twoback(2)_v1.xlsx,New rule: Press 'space' when you see 2-back (i.e. the same letter as the one that appeared 2 letters ago.),g,space,,,,,,,,,0,7,7,7,0,8,8,8,,,,,,,,,,,,,,,,,,,,,,,,,,,,,,,,,,,,,,,,,,,,,,,,,,,,,,,,,,,,,,,,,,,,,1.6424,699.7643391,None,space,1,699.7643391,None,0.5760536,P009,fencog,2,Post,2021_Aug_17_1226,N-Back (New Version 2021),2021.1.4,120.0558019
,,,,Conditions/Version_1/twoback(2)_v1.xlsx,New rule: Press 'space' when you see 2-back (i.e. the same letter as the one that appeared 2 letters ago.),G,None,,,,,,,,,0,7,7,7,0,9,9,9,,,,,,,,,,,,,,,,,,,,,,,,,,,,,,,,,,,,,,,,,,,,,,,,,,,,,,,,,,,,,,,,,,,,,1.9462,703.7239075,None,space,0,703.7239075,None,0.9364848,P009,fencog,2,Post,2021_Aug_17_1226,N-Back (New Version 2021),2021.1.4,120.0558019
,,,,Conditions/Version_1/twoback(2)_v1.xlsx,New rule: Press 'space' when you see 2-back (i.e. the same letter as the one that appeared 2 letters ago.),,,,,,,,,,,0,7,7,7,,,,,,,,,,,,,,,,,,,,,,,,,,,,,,,,,,,,,,,,,,,,,,,,,,,,,,,,,,,,,,,,,,,,,,,,,,,,,,,,,P009,fencog,2,Post,2021_Aug_17_1226,N-Back (New Version 2021),2021.1.4,120.0558019
,,,,Conditions/Version_1/threeback(3)_v1.xlsx,New rule: Press 'space' when you see 3-back (i.e. the same letter as the one that appeared 3 letters ago.),w,None,,,,,,,,,0,8,8,8,0,0,0,0,,,,,,,,,,,,,,,,,,,,,,,,,,,,,,,,,,,,,,,,,,,,,,,,,,,,,,,,,,,705.7528181,None,708.7373792,None,space,0.8983723,708.7373792,None,705.7528181,None,1.692,711.3535284,None,None,1,711.3535284,None,,P009,fencog,2,Post,2021_Aug_17_1226,N-Back (New Version 2021),2021.1.4,120.0558019
,,,,Conditions/Version_1/threeback(3)_v1.xlsx,New rule: Press 'space' when you see 3-back (i.e. the same letter as the one that appeared 3 letters ago.),p,None,,,,,,,,,0,8,8,8,0,1,1,1,,,,,,,,,,,,,,,,,,,,,,,,,,,,,,,,,,,,,,,,,,,,,,,,,,,,,,,,,,,,,,,,,,,,,1.9958,715.360767,None,None,1,715.360767,None,,P009,fencog,2,Post,2021_Aug_17_1226,N-Back (New Version 2021),2021.1.4,120.0558019
,,,,Conditions/Version_1/threeback(3)_v1.xlsx,New rule: Press 'space' when you see 3-back (i.e. the same letter as the one that appeared 3 letters ago.),P,None,,,,,,,,,0,8,8,8,0,2,2,2,,,,,,,,,,,,,,,,,,,,,,,,,,,,,,,,,,,,,,,,,,,,,,,,,,,,,,,,,,,,,,,,,,,,,1.0906,718.4576149,None,None,1,718.4576149,None,,P009,fencog,2,Post,2021_Aug_17_1226,N-Back (New Version 2021),2021.1.4,120.0558019
,,,,Conditions/Version_1/threeback(3)_v1.xlsx,New rule: Press 'space' when you see 3-back (i.e. the same letter as the one that appeared 3 letters ago.),i,None,,,,,,,,,0,8,8,8,0,3,3,3,,,,,,,,,,,,,,,,,,,,,,,,,,,,,,,,,,,,,,,,,,,,,,,,,,,,,,,,,,,,,,,,,,,,,1.9524,722.4158374,None,None,1,722.4158374,None,,P009,fencog,2,Post,2021_Aug_17_1226,N-Back (New Version 2021),2021.1.4,120.0558019
,,,,Conditions/Version_1/threeback(3)_v1.xlsx,New rule: Press 'space' when you see 3-back (i.e. the same letter as the one that appeared 3 letters ago.),f,None,,,,,,,,,0,8,8,8,0,4,4,4,,,,,,,,,,,,,,,,,,,,,,,,,,,,,,,,,,,,,,,,,,,,,,,,,,,,,,,,,,,,,,,,,,,,,1.2084,725.6317657,None,None,1,725.6317657,None,,P009,fencog,2,Post,2021_Aug_17_1226,N-Back (New Version 2021),2021.1.4,120.0558019
,,,,Conditions/Version_1/threeback(3)_v1.xlsx,New rule: Press 'space' when you see 3-back (i.e. the same letter as the one that appeared 3 letters ago.),o,None,,,,,,,,,0,8,8,8,0,5,5,5,,,,,,,,,,,,,,,,,,,,,,,,,,,,,,,,,,,,,,,,,,,,,,,,,,,,,,,,,,,,,,,,,,,,,1.413,729.0553789,None,None,1,729.0553789,None,,P009,fencog,2,Post,2021_Aug_17_1226,N-Back (New Version 2021),2021.1.4,120.0558019
,,,,Conditions/Version_1/threeback(3)_v1.xlsx,New rule: Press 'space' when you see 3-back (i.e. the same letter as the one that appeared 3 letters ago.),w,None,,,,,,,,,0,8,8,8,0,6,6,6,,,,,,,,,,,,,,,,,,,,,,,,,,,,,,,,,,,,,,,,,,,,,,,,,,,,,,,,,,,,,,,,,,,,,1.8656,732.9285381,None,None,1,732.9285381,None,,P009,fencog,2,Post,2021_Aug_17_1226,N-Back (New Version 2021),2021.1.4,120.0558019
,,,,Conditions/Version_1/threeback(3)_v1.xlsx,New rule: Press 'space' when you see 3-back (i.e. the same letter as the one that appeared 3 letters ago.),F,space,,,,,,,,,0,8,8,8,0,7,7,7,,,,,,,,,,,,,,,,,,,,,,,,,,,,,,,,,,,,,,,,,,,,,,,,,,,,,,,,,,,,,,,,,,,,,1.7478,736.6771777,None,space,1,736.6771777,None,0.4472602,P009,fencog,2,Post,2021_Aug_17_1226,N-Back (New Version 2021),2021.1.4,120.0558019
,,,,Conditions/Version_1/threeback(3)_v1.xlsx,New rule: Press 'space' when you see 3-back (i.e. the same letter as the one that appeared 3 letters ago.),p,None,,,,,,,,,0,8,8,8,0,8,8,8,,,,,,,,,,,,,,,,,,,,,,,,,,,,,,,,,,,,,,,,,,,,,,,,,,,,,,,,,,,,,,,,,,,,,1.3696,740.0533517,None,None,1,740.0533517,None,,P009,fencog,2,Post,2021_Aug_17_1226,N-Back (New Version 2021),2021.1.4,120.0558019
,,,,Conditions/Version_1/threeback(3)_v1.xlsx,New rule: Press 'space' when you see 3-back (i.e. the same letter as the one that appeared 3 letters ago.),W,space,,,,,,,,,0,8,8,8,0,9,9,9,,,,,,,,,,,,,,,,,,,,,,,,,,,,,,,,,,,,,,,,,,,,,,,,,,,,,,,,,,,,,,,,,,,,,1.4936,743.5587021,None,space,1,743.5587021,None,0.4778639,P009,fencog,2,Post,2021_Aug_17_1226,N-Back (New Version 2021),2021.1.4,120.0558019
,,,,Conditions/Version_1/threeback(3)_v1.xlsx,New rule: Press 'space' when you see 3-back (i.e. the same letter as the one that appeared 3 letters ago.),,,,,,,,,,,0,8,8,8,,,,,,,,,,,,,,,,,,,,,,,,,,,,,,,,,,,,,,,,,,,,,,,,,,,,,,,,,,,,,,,,,,,,,,,,,,,,,,,,,P009,fencog,2,Post,2021_Aug_17_1226,N-Back (New Version 2021),2021.1.4,120.0558019
,,,,Conditions/Version_1/zeroback(3)_v1.xlsx,New rule: Press 'space' when you see the letter 'x' or 'X'.,X,space,,,,,,,,,0,9,9,9,0,0,0,0,,,,,,,,,,,,,,,,,,,,,,,,,,,,,,,,,,,,,,,,,,,,,,,,,,,,,,,,,,,745.5778771,None,748.5678284,None,space,0.8205513,748.5678284,None,745.5778771,None,1.9772,751.3916121,None,space,1,751.3916121,None,0.5568652,P009,fencog,2,Post,2021_Aug_17_1226,N-Back (New Version 2021),2021.1.4,120.0558019
,,,,Conditions/Version_1/zeroback(3)_v1.xlsx,New rule: Press 'space' when you see the letter 'x' or 'X'.,B,None,,,,,,,,,0,9,9,9,0,1,1,1,,,,,,,,,,,,,,,,,,,,,,,,,,,,,,,,,,,,,,,,,,,,,,,,,,,,,,,,,,,,,,,,,,,,,1.599,754.9991641,None,None,1,754.9991641,None,,P009,fencog,2,Post,2021_Aug_17_1226,N-Back (New Version 2021),2021.1.4,120.0558019
,,,,Conditions/Version_1/zeroback(3)_v1.xlsx,New rule: Press 'space' when you see the letter 'x' or 'X'.,m,None,,,,,,,,,0,9,9,9,0,2,2,2,,,,,,,,,,,,,,,,,,,,,,,,,,,,,,,,,,,,,,,,,,,,,,,,,,,,,,,,,,,,,,,,,,,,,1.6238,758.6293665,None,None,1,758.6293665,None,,P009,fencog,2,Post,2021_Aug_17_1226,N-Back (New Version 2021),2021.1.4,120.0558019
,,,,Conditions/Version_1/zeroback(3)_v1.xlsx,New rule: Press 'space' when you see the letter 'x' or 'X'.,m,None,,,,,,,,,0,9,9,9,0,3,3,3,,,,,,,,,,,,,,,,,,,,,,,,,,,,,,,,,,,,,,,,,,,,,,,,,,,,,,,,,,,,,,,,,,,,,1.3882,762.020082,None,None,1,762.020082,None,,P009,fencog,2,Post,2021_Aug_17_1226,N-Back (New Version 2021),2021.1.4,120.0558019
,,,,Conditions/Version_1/zeroback(3)_v1.xlsx,New rule: Press 'space' when you see the letter 'x' or 'X'.,o,None,,,,,,,,,0,9,9,9,0,4,4,4,,,,,,,,,,,,,,,,,,,,,,,,,,,,,,,,,,,,,,,,,,,,,,,,,,,,,,,,,,,,,,,,,,,,,1.4254,765.4534349,None,None,1,765.4534349,None,,P009,fencog,2,Post,2021_Aug_17_1226,N-Back (New Version 2021),2021.1.4,120.0558019
,,,,Conditions/Version_1/zeroback(3)_v1.xlsx,New rule: Press 'space' when you see the letter 'x' or 'X'.,p,None,,,,,,,,,0,9,9,9,0,5,5,5,,,,,,,,,,,,,,,,,,,,,,,,,,,,,,,,,,,,,,,,,,,,,,,,,,,,,,,,,,,,,,,,,,,,,1.0968,768.56182,None,None,1,768.56182,None,,P009,fencog,2,Post,2021_Aug_17_1226,N-Back (New Version 2021),2021.1.4,120.0558019
,,,,Conditions/Version_1/zeroback(3)_v1.xlsx,New rule: Press 'space' when you see the letter 'x' or 'X'.,G,None,,,,,,,,,0,9,9,9,0,6,6,6,,,,,,,,,,,,,,,,,,,,,,,,,,,,,,,,,,,,,,,,,,,,,,,,,,,,,,,,,,,,,,,,,,,,,1.3138,771.8838633,None,None,1,771.8838633,None,,P009,fencog,2,Post,2021_Aug_17_1226,N-Back (New Version 2021),2021.1.4,120.0558019
,,,,Conditions/Version_1/zeroback(3)_v1.xlsx,New rule: Press 'space' when you see the letter 'x' or 'X'.,X,space,,,,,,,,,0,9,9,9,0,7,7,7,,,,,,,,,,,,,,,,,,,,,,,,,,,,,,,,,,,,,,,,,,,,,,,,,,,,,,,,,,,,,,,,,,,,,1.9276,775.8166585,None,space,1,775.8166585,None,0.4356652,P009,fencog,2,Post,2021_Aug_17_1226,N-Back (New Version 2021),2021.1.4,120.0558019
,,,,Conditions/Version_1/zeroback(3)_v1.xlsx,New rule: Press 'space' when you see the letter 'x' or 'X'.,p,None,,,,,,,,,0,9,9,9,0,8,8,8,,,,,,,,,,,,,,,,,,,,,,,,,,,,,,,,,,,,,,,,,,,,,,,,,,,,,,,,,,,,,,,,,,,,,1.0162,778.8409922,None,None,1,778.8409922,None,,P009,fencog,2,Post,2021_Aug_17_1226,N-Back (New Version 2021),2021.1.4,120.0558019
,,,,Conditions/Version_1/zeroback(3)_v1.xlsx,New rule: Press 'space' when you see the letter 'x' or 'X'.,x,space,,,,,,,,,0,9,9,9,0,9,9,9,,,,,,,,,,,,,,,,,,,,,,,,,,,,,,,,,,,,,,,,,,,,,,,,,,,,,,,,,,,,,,,,,,,,,1.0472,781.8992093,None,space,1,781.8992093,None,0.4489384,P009,fencog,2,Post,2021_Aug_17_1226,N-Back (New Version 2021),2021.1.4,120.0558019
,,,,Conditions/Version_1/zeroback(3)_v1.xlsx,New rule: Press 'space' when you see the letter 'x' or 'X'.,,,,,,,,,,,0,9,9,9,,,,,,,,,,,,,,,,,,,,,,,,,,,,,,,,,,,,,,,,,,,,,,,,,,,,,,,,,,,,,,,,,,,,,,,,,,,,,,,,,P009,fencog,2,Post,2021_Aug_17_1226,N-Back (New Version 2021),2021.1.4,120.0558019
,,,,Conditions/Version_1/twoback(3)_v1.xlsx,New rule: Press 'space' when you see 2-back (i.e. the same letter as the one that appeared 2 letters ago.),e,None,,,,,,,,,0,10,10,10,0,0,0,0,,,,,,,,,,,,,,,,,,,,,,,,,,,,,,,,,,,,,,,,,,,,,,,,,,,,,,,,,,,783.9260574,None,786.9147472,None,space,2.0494516,786.9147472,None,783.9260574,None,1.0968,790.0886696,None,None,1,790.0886696,None,,P009,fencog,2,Post,2021_Aug_17_1226,N-Back (New Version 2021),2021.1.4,120.0558019
,,,,Conditions/Version_1/twoback(3)_v1.xlsx,New rule: Press 'space' when you see 2-back (i.e. the same letter as the one that appeared 2 letters ago.),o,None,,,,,,,,,0,10,10,10,0,1,1,1,,,,,,,,,,,,,,,,,,,,,,,,,,,,,,,,,,,,,,,,,,,,,,,,,,,,,,,,,,,,,,,,,,,,,1.5928,793.6965519,None,None,1,793.6965519,None,,P009,fencog,2,Post,2021_Aug_17_1226,N-Back (New Version 2021),2021.1.4,120.0558019
,,,,Conditions/Version_1/twoback(3)_v1.xlsx,New rule: Press 'space' when you see 2-back (i.e. the same letter as the one that appeared 2 letters ago.),P,None,,,,,,,,,0,10,10,10,0,2,2,2,,,,,,,,,,,,,,,,,,,,,,,,,,,,,,,,,,,,,,,,,,,,,,,,,,,,,,,,,,,,,,,,,,,,,1.8036,797.5093672,None,None,1,797.5093672,None,,P009,fencog,2,Post,2021_Aug_17_1226,N-Back (New Version 2021),2021.1.4,120.0558019
,,,,Conditions/Version_1/twoback(3)_v1.xlsx,New rule: Press 'space' when you see 2-back (i.e. the same letter as the one that appeared 2 letters ago.),z,None,,,,,,,,,0,10,10,10,0,3,3,3,,,,,,,,,,,,,,,,,,,,,,,,,,,,,,,,,,,,,,,,,,,,,,,,,,,,,,,,,,,,,,,,,,,,,1.0534,800.5686138,None,None,1,800.5686138,None,,P009,fencog,2,Post,2021_Aug_17_1226,N-Back (New Version 2021),2021.1.4,120.0558019
,,,,Conditions/Version_1/twoback(3)_v1.xlsx,New rule: Press 'space' when you see 2-back (i.e. the same letter as the one that appeared 2 letters ago.),X,None,,,,,,,,,0,10,10,10,0,4,4,4,,,,,,,,,,,,,,,,,,,,,,,,,,,,,,,,,,,,,,,,,,,,,,,,,,,,,,,,,,,,,,,,,,,,,1.9772,804.5584298,None,None,1,804.5584298,None,,P009,fencog,2,Post,2021_Aug_17_1226,N-Back (New Version 2021),2021.1.4,120.0558019
,,,,Conditions/Version_1/twoback(3)_v1.xlsx,New rule: Press 'space' when you see 2-back (i.e. the same letter as the one that appeared 2 letters ago.),z,space,,,,,,,,,0,10,10,10,0,5,5,5,,,,,,,,,,,,,,,,,,,,,,,,,,,,,,,,,,,,,,,,,,,,,,,,,,,,,,,,,,,,,,,,,,,,,1.1526,807.7231544,None,space,1,807.7231544,None,0.4332321,P009,fencog,2,Post,2021_Aug_17_1226,N-Back (New Version 2021),2021.1.4,120.0558019
,,,,Conditions/Version_1/twoback(3)_v1.xlsx,New rule: Press 'space' when you see 2-back (i.e. the same letter as the one that appeared 2 letters ago.),x,space,,,,,,,,,0,10,10,10,0,6,6,6,,,,,,,,,,,,,,,,,,,,,,,,,,,,,,,,,,,,,,,,,,,,,,,,,,,,,,,,,,,,,,,,,,,,,1.6424,811.3743892,None,space,1,811.3743892,None,0.5179521,P009,fencog,2,Post,2021_Aug_17_1226,N-Back (New Version 2021),2021.1.4,120.0558019
,,,,Conditions/Version_1/twoback(3)_v1.xlsx,New rule: Press 'space' when you see 2-back (i.e. the same letter as the one that appeared 2 letters ago.),c,None,,,,,,,,,0,10,10,10,0,7,7,7,,,,,,,,,,,,,,,,,,,,,,,,,,,,,,,,,,,,,,,,,,,,,,,,,,,,,,,,,,,,,,,,,,,,,1.7664,815.1459636,None,None,1,815.1459636,None,,P009,fencog,2,Post,2021_Aug_17_1226,N-Back (New Version 2021),2021.1.4,120.0558019
,,,,Conditions/Version_1/twoback(3)_v1.xlsx,New rule: Press 'space' when you see 2-back (i.e. the same letter as the one that appeared 2 letters ago.),i,None,,,,,,,,,0,10,10,10,0,8,8,8,,,,,,,,,,,,,,,,,,,,,,,,,,,,,,,,,,,,,,,,,,,,,,,,,,,,,,,,,,,,,,,,,,,,,1.0472,818.196108,None,None,1,818.196108,None,,P009,fencog,2,Post,2021_Aug_17_1226,N-Back (New Version 2021),2021.1.4,120.0558019
,,,,Conditions/Version_1/twoback(3)_v1.xlsx,New rule: Press 'space' when you see 2-back (i.e. the same letter as the one that appeared 2 letters ago.),C,space,,,,,,,,,0,10,10,10,0,9,9,9,,,,,,,,,,,,,,,,,,,,,,,,,,,,,,,,,,,,,,,,,,,,,,,,,,,,,,,,,,,,,,,,,,,,,1.4812,821.687246,None,space,1,821.687246,None,0.7651654,P009,fencog,2,Post,2021_Aug_17_1226,N-Back (New Version 2021),2021.1.4,120.0558019
,,,,Conditions/Version_1/twoback(3)_v1.xlsx,New rule: Press 'space' when you see 2-back (i.e. the same letter as the one that appeared 2 letters ago.),,,,,,,,,,,0,10,10,10,,,,,,,,,,,,,,,,,,,,,,,,,,,,,,,,,,,,,,,,,,,,,,,,,,,,,,,,,,,,,,,,,,,,,,,,,,,,,,,,,P009,fencog,2,Post,2021_Aug_17_1226,N-Back (New Version 2021),2021.1.4,120.0558019
,,,,Conditions/Version_1/oneback(3)_v1.xlsx,New rule: Press 'space' when you see 1-back (i.e. the same letter as the one that appeared 1 letter ago.),o,None,,,,,,,,,0,11,11,11,0,0,0,0,,,,,,,,,,,,,,,,,,,,,,,,,,,,,,,,,,,,,,,,,,,,,,,,,,,,,,,,,,,823.7152868,None,826.6983629,None,space,0.8096569,826.6983629,None,823.7152868,None,1.103,828.6344305,None,None,1,828.6344305,None,,P009,fencog,2,Post,2021_Aug_17_1226,N-Back (New Version 2021),2021.1.4,120.0558019
,,,,Conditions/Version_1/oneback(3)_v1.xlsx,New rule: Press 'space' when you see 1-back (i.e. the same letter as the one that appeared 1 letter ago.),O,space,,,,,,,,,0,11,11,11,0,1,1,1,,,,,,,,,,,,,,,,,,,,,,,,,,,,,,,,,,,,,,,,,,,,,,,,,,,,,,,,,,,,,,,,,,,,,1.9152,832.5597594,None,space,1,832.5597594,None,0.3565953,P009,fencog,2,Post,2021_Aug_17_1226,N-Back (New Version 2021),2021.1.4,120.0558019
,,,,Conditions/Version_1/oneback(3)_v1.xlsx,New rule: Press 'space' when you see 1-back (i.e. the same letter as the one that appeared 1 letter ago.),h,None,,,,,,,,,0,11,11,11,0,2,2,2,,,,,,,,,,,,,,,,,,,,,,,,,,,,,,,,,,,,,,,,,,,,,,,,,,,,,,,,,,,,,,,,,,,,,1.475,836.0416954,None,None,1,836.0416954,None,,P009,fencog,2,Post,2021_Aug_17_1226,N-Back (New Version 2021),2021.1.4,120.0558019
,,,,Conditions/Version_1/oneback(3)_v1.xlsx,New rule: Press 'space' when you see 1-back (i.e. the same letter as the one that appeared 1 letter ago.),g,None,,,,,,,,,0,11,11,11,0,3,3,3,,,,,,,,,,,,,,,,,,,,,,,,,,,,,,,,,,,,,,,,,,,,,,,,,,,,,,,,,,,,,,,,,,,,,1.4006,839.4565973,None,None,1,839.4565973,None,,P009,fencog,2,Post,2021_Aug_17_1226,N-Back (New Version 2021),2021.1.4,120.0558019
,,,,Conditions/Version_1/oneback(3)_v1.xlsx,New rule: Press 'space' when you see 1-back (i.e. the same letter as the one that appeared 1 letter ago.),n,None,,,,,,,,,0,11,11,11,0,4,4,4,,,,,,,,,,,,,,,,,,,,,,,,,,,,,,,,,,,,,,,,,,,,,,,,,,,,,,,,,,,,,,,,,,,,,1.692,843.1624473,None,None,1,843.1624473,None,,P009,fencog,2,Post,2021_Aug_17_1226,N-Back (New Version 2021),2021.1.4,120.0558019
,,,,Conditions/Version_1/oneback(3)_v1.xlsx,New rule: Press 'space' when you see 1-back (i.e. the same letter as the one that appeared 1 letter ago.),z,None,,,,,,,,,0,11,11,11,0,5,5,5,,,,,,,,,,,,,,,,,,,,,,,,,,,,,,,,,,,,,,,,,,,,,,,,,,,,,,,,,,,,,,,,,,,,,1.3696,846.5380216,None,None,1,846.5380216,None,,P009,fencog,2,Post,2021_Aug_17_1226,N-Back (New Version 2021),2021.1.4,120.0558019
,,,,Conditions/Version_1/oneback(3)_v1.xlsx,New rule: Press 'space' when you see 1-back (i.e. the same letter as the one that appeared 1 letter ago.),X,None,,,,,,,,,0,11,11,11,0,6,6,6,,,,,,,,,,,,,,,,,,,,,,,,,,,,,,,,,,,,,,,,,,,,,,,,,,,,,,,,,,,,,,,,,,,,,1.0596,849.6117751,None,None,1,849.6117751,None,,P009,fencog,2,Post,2021_Aug_17_1226,N-Back (New Version 2021),2021.1.4,120.0558019
,,,,Conditions/Version_1/oneback(3)_v1.xlsx,New rule: Press 'space' when you see 1-back (i.e. the same letter as the one that appeared 1 letter ago.),r,None,,,,,,,,,0,11,11,11,0,7,7,7,,,,,,,,,,,,,,,,,,,,,,,,,,,,,,,,,,,,,,,,,,,,,,,,,,,,,,,,,,,,,,,,,,,,,1.8098,853.4374327,None,None,1,853.4374327,None,,P009,fencog,2,Post,2021_Aug_17_1226,N-Back (New Version 2021),2021.1.4,120.0558019
,,,,Conditions/Version_1/oneback(3)_v1.xlsx,New rule: Press 'space' when you see 1-back (i.e. the same letter as the one that appeared 1 letter ago.),r,space,,,,,,,,,0,11,11,11,0,8,8,8,,,,,,,,,,,,,,,,,,,,,,,,,,,,,,,,,,,,,,,,,,,,,,,,,,,,,,,,,,,,,,,,,,,,,1.1836,856.6254618,None,space,1,856.6254618,None,0.5387569,P009,fencog,2,Post,2021_Aug_17_1226,N-Back (New Version 2021),2021.1.4,120.0558019
,,,,Conditions/Version_1/oneback(3)_v1.xlsx,New rule: Press 'space' when you see 1-back (i.e. the same letter as the one that appeared 1 letter ago.),P,None,,,,,,,,,0,11,11,11,0,9,9,9,,,,,,,,,,,,,,,,,,,,,,,,,,,,,,,,,,,,,,,,,,,,,,,,,,,,,,,,,,,,,,,,,,,,,1.8346,860.4672566,None,None,1,860.4672566,None,,P009,fencog,2,Post,2021_Aug_17_1226,N-Back (New Version 2021),2021.1.4,120.0558019
,,,,Conditions/Version_1/oneback(3)_v1.xlsx,New rule: Press 'space' when you see 1-back (i.e. the same letter as the one that appeared 1 letter ago.),,,,,,,,,,,0,11,11,11,,,,,,,,,,,,,,,,,,,,,,,,,,,,,,,,,,,,,,,,,,,,,,,,,,,,,,,,,,,,,,,,,,,,,,,,,,,,,,,,,P009,fencog,2,Post,2021_Aug_17_1226,N-Back (New Version 2021),2021.1.4,120.0558019
,,,,Conditions/Version_1/twoback(4)_v1.xlsx,New rule: Press 'space' when you see 2-back (i.e. the same letter as the one that appeared 2 letters ago.),r,None,,,,,,,,,0,12,12,12,0,0,0,0,,,,,,,,,,,,,,,,,,,,,,,,,,,,,,,,,,,,,,,,,,,,,,,,,,,,,,,,,,,862.5326672,None,865.5164184,None,space,0.5117704,865.5164184,None,862.5326672,None,1.506,867.5578123,None,None,1,867.5578123,None,,P009,fencog,2,Post,2021_Aug_17_1226,N-Back (New Version 2021),2021.1.4,120.0558019
,,,,Conditions/Version_1/twoback(4)_v1.xlsx,New rule: Press 'space' when you see 2-back (i.e. the same letter as the one that appeared 2 letters ago.),T,None,,,,,,,,,0,12,12,12,0,1,1,1,,,,,,,,,,,,,,,,,,,,,,,,,,,,,,,,,,,,,,,,,,,,,,,,,,,,,,,,,,,,,,,,,,,,,1.3386,870.9051839,None,None,1,870.9051839,None,,P009,fencog,2,Post,2021_Aug_17_1226,N-Back (New Version 2021),2021.1.4,120.0558019
,,,,Conditions/Version_1/twoback(4)_v1.xlsx,New rule: Press 'space' when you see 2-back (i.e. the same letter as the one that appeared 2 letters ago.),o,None,,,,,,,,,0,12,12,12,0,2,2,2,,,,,,,,,,,,,,,,,,,,,,,,,,,,,,,,,,,,,,,,,,,,,,,,,,,,,,,,,,,,,,,,,,,,,1.2146,874.1285621,None,None,1,874.1285621,None,,P009,fencog,2,Post,2021_Aug_17_1226,N-Back (New Version 2021),2021.1.4,120.0558019
,,,,Conditions/Version_1/twoback(4)_v1.xlsx,New rule: Press 'space' when you see 2-back (i.e. the same letter as the one that appeared 2 letters ago.),p,None,,,,,,,,,0,12,12,12,0,3,3,3,,,,,,,,,,,,,,,,,,,,,,,,,,,,,,,,,,,,,,,,,,,,,,,,,,,,,,,,,,,,,,,,,,,,,1.103,877.2359751,None,None,1,877.2359751,None,,P009,fencog,2,Post,2021_Aug_17_1226,N-Back (New Version 2021),2021.1.4,120.0558019
,,,,Conditions/Version_1/twoback(4)_v1.xlsx,New rule: Press 'space' when you see 2-back (i.e. the same letter as the one that appeared 2 letters ago.),p,None,,,,,,,,,0,12,12,12,0,4,4,4,,,,,,,,,,,,,,,,,,,,,,,,,,,,,,,,,,,,,,,,,,,,,,,,,,,,,,,,,,,,,,,,,,,,,1.1898,880.4268436,None,space,0,880.4268436,None,0.6176522,P009,fencog,2,Post,2021_Aug_17_1226,N-Back (New Version 2021),2021.1.4,120.0558019
,,,,Conditions/Version_1/twoback(4)_v1.xlsx,New rule: Press 'space' when you see 2-back (i.e. the same letter as the one that appeared 2 letters ago.),y,None,,,,,,,,,0,12,12,12,0,5,5,5,,,,,,,,,,,,,,,,,,,,,,,,,,,,,,,,,,,,,,,,,,,,,,,,,,,,,,,,,,,,,,,,,,,,,1.9586,884.3934607,None,None,1,884.3934607,None,,P009,fencog,2,Post,2021_Aug_17_1226,N-Back (New Version 2021),2021.1.4,120.0558019
,,,,Conditions/Version_1/twoback(4)_v1.xlsx,New rule: Press 'space' when you see 2-back (i.e. the same letter as the one that appeared 2 letters ago.),P,space,,,,,,,,,0,12,12,12,0,6,6,6,,,,,,,,,,,,,,,,,,,,,,,,,,,,,,,,,,,,,,,,,,,,,,,,,,,,,,,,,,,,,,,,,,,,,1.382,887.7850194,None,space,1,887.7850194,None,0.3152841,P009,fencog,2,Post,2021_Aug_17_1226,N-Back (New Version 2021),2021.1.4,120.0558019
,,,,Conditions/Version_1/twoback(4)_v1.xlsx,New rule: Press 'space' when you see 2-back (i.e. the same letter as the one that appeared 2 letters ago.),y,None,,,,,,,,,0,12,12,12,0,7,7,7,,,,,,,,,,,,,,,,,,,,,,,,,,,,,,,,,,,,,,,,,,,,,,,,,,,,,,,,,,,,,,,,,,,,,1.9276,891.724542,None,space,0,891.724542,None,0.311442,P009,fencog,2,Post,2021_Aug_17_1226,N-Back (New Version 2021),2021.1.4,120.0558019
,,,,Conditions/Version_1/twoback(4)_v1.xlsx,New rule: Press 'space' when you see 2-back (i.e. the same letter as the one that appeared 2 letters ago.),y,space,,,,,,,,,0,12,12,12,0,8,8,8,,,,,,,,,,,,,,,,,,,,,,,,,,,,,,,,,,,,,,,,,,,,,,,,,,,,,,,,,,,,,,,,,,,,,1.847,895.5806611,None,None,0,895.5806611,None,,P009,fencog,2,Post,2021_Aug_17_1226,N-Back (New Version 2021),2021.1.4,120.0558019
,,,,Conditions/Version_1/twoback(4)_v1.xlsx,New rule: Press 'space' when you see 2-back (i.e. the same letter as the one that appeared 2 letters ago.),,,,,,,,,,,0,12,12,12,,,,,,,,,,,,,,,,,,,,,,,,,,,,,,,,,,,,,,,,,,,,,,,,,,,,,,,,,,,,,,,,,,,,,,,,,,,,,,,,,P009,fencog,2,Post,2021_Aug_17_1226,N-Back (New Version 2021),2021.1.4,120.0558019
,,,,Conditions/Version_1/zeroback(4)_v1.xlsx,New rule: Press 'space' when you see the letter 'x' or 'X'.,o,None,,,,,,,,,0,13,13,13,0,0,0,0,,,,,,,,,,,,,,,,,,,,,,,,,,,,,,,,,,,,,,,,,,,,,,,,,,,,,,,,,,,897.6014932,None,900.5889048,None,space,0.3748095,900.5889048,None,897.6014932,None,1.1278,902.1121574,None,None,1,902.1121574,None,,P009,fencog,2,Post,2021_Aug_17_1226,N-Back (New Version 2021),2021.1.4,120.0558019
,,,,Conditions/Version_1/zeroback(4)_v1.xlsx,New rule: Press 'space' when you see the letter 'x' or 'X'.,X,space,,,,,,,,,0,13,13,13,0,1,1,1,,,,,,,,,,,,,,,,,,,,,,,,,,,,,,,,,,,,,,,,,,,,,,,,,,,,,,,,,,,,,,,,,,,,,1.7044,905.820025,None,space,1,905.820025,None,0.5682943,P009,fencog,2,Post,2021_Aug_17_1226,N-Back (New Version 2021),2021.1.4,120.0558019
,,,,Conditions/Version_1/zeroback(4)_v1.xlsx,New rule: Press 'space' when you see the letter 'x' or 'X'.,p,None,,,,,,,,,0,13,13,13,0,2,2,2,,,,,,,,,,,,,,,,,,,,,,,,,,,,,,,,,,,,,,,,,,,,,,,,,,,,,,,,,,,,,,,,,,,,,1.2828,909.1118744,None,None,1,909.1118744,None,,P009,fencog,2,Post,2021_Aug_17_1226,N-Back (New Version 2021),2021.1.4,120.0558019
,,,,Conditions/Version_1/zeroback(4)_v1.xlsx,New rule: Press 'space' when you see the letter 'x' or 'X'.,m,None,,,,,,,,,0,13,13,13,0,3,3,3,,,,,,,,,,,,,,,,,,,,,,,,,,,,,,,,,,,,,,,,,,,,,,,,,,,,,,,,,,,,,,,,,,,,,1.9276,913.0507488,None,None,1,913.0507488,None,,P009,fencog,2,Post,2021_Aug_17_1226,N-Back (New Version 2021),2021.1.4,120.0558019
,,,,Conditions/Version_1/zeroback(4)_v1.xlsx,New rule: Press 'space' when you see the letter 'x' or 'X'.,n,None,,,,,,,,,0,13,13,13,0,4,4,4,,,,,,,,,,,,,,,,,,,,,,,,,,,,,,,,,,,,,,,,,,,,,,,,,,,,,,,,,,,,,,,,,,,,,1.5494,916.6005914,None,None,1,916.6005914,None,,P009,fencog,2,Post,2021_Aug_17_1226,N-Back (New Version 2021),2021.1.4,120.0558019
,,,,Conditions/Version_1/zeroback(4)_v1.xlsx,New rule: Press 'space' when you see the letter 'x' or 'X'.,m,None,,,,,,,,,0,13,13,13,0,5,5,5,,,,,,,,,,,,,,,,,,,,,,,,,,,,,,,,,,,,,,,,,,,,,,,,,,,,,,,,,,,,,,,,,,,,,1.2022,919.8159364,None,None,1,919.8159364,None,,P009,fencog,2,Post,2021_Aug_17_1226,N-Back (New Version 2021),2021.1.4,120.0558019
,,,,Conditions/Version_1/zeroback(4)_v1.xlsx,New rule: Press 'space' when you see the letter 'x' or 'X'.,C,None,,,,,,,,,0,13,13,13,0,6,6,6,,,,,,,,,,,,,,,,,,,,,,,,,,,,,,,,,,,,,,,,,,,,,,,,,,,,,,,,,,,,,,,,,,,,,1.9524,923.7722588,None,None,1,923.7722588,None,,P009,fencog,2,Post,2021_Aug_17_1226,N-Back (New Version 2021),2021.1.4,120.0558019
,,,,Conditions/Version_1/zeroback(4)_v1.xlsx,New rule: Press 'space' when you see the letter 'x' or 'X'.,m,None,,,,,,,,,0,13,13,13,0,7,7,7,,,,,,,,,,,,,,,,,,,,,,,,,,,,,,,,,,,,,,,,,,,,,,,,,,,,,,,,,,,,,,,,,,,,,1.6114,927.3893997,None,None,1,927.3893997,None,,P009,fencog,2,Post,2021_Aug_17_1226,N-Back (New Version 2021),2021.1.4,120.0558019
,,,,Conditions/Version_1/zeroback(4)_v1.xlsx,New rule: Press 'space' when you see the letter 'x' or 'X'.,p,None,,,,,,,,,0,13,13,13,0,8,8,8,,,,,,,,,,,,,,,,,,,,,,,,,,,,,,,,,,,,,,,,,,,,,,,,,,,,,,,,,,,,,,,,,,,,,1.7106,931.1157942,None,None,1,931.1157942,None,,P009,fencog,2,Post,2021_Aug_17_1226,N-Back (New Version 2021),2021.1.4,120.0558019
,,,,Conditions/Version_1/zeroback(4)_v1.xlsx,New rule: Press 'space' when you see the letter 'x' or 'X'.,X,space,,,,,,,,,0,13,13,13,0,9,9,9,,,,,,,,,,,,,,,,,,,,,,,,,,,,,,,,,,,,,,,,,,,,,,,,,,,,,,,,,,,,,,,,,,,,,1.3076,934.4299268,None,space,1,934.4299268,None,0.430567,P009,fencog,2,Post,2021_Aug_17_1226,N-Back (New Version 2021),2021.1.4,120.0558019
,,,,Conditions/Version_1/zeroback(4)_v1.xlsx,New rule: Press 'space' when you see the letter 'x' or 'X'.,,,,,,,,,,,0,13,13,13,,,,,,,,,,,,,,,,,,,,,,,,,,,,,,,,,,,,,,,,,,,,,,,,,,,,,,,,,,,,,,,,,,,,,,,,,,,,,,,,,P009,fencog,2,Post,2021_Aug_17_1226,N-Back (New Version 2021),2021.1.4,120.0558019
,,,,Conditions/Version_1/oneback(4)_v1.xlsx,New rule: Press 'space' when you see 1-back (i.e. the same letter as the one that appeared 1 letter ago.),w,None,,,,,,,,,0,14,14,14,0,0,0,0,,,,,,,,,,,,,,,,,,,,,,,,,,,,,,,,,,,,,,,,,,,,,,,,,,,,,,,,,,,936.4683377,None,939.4453026,None,space,0.4469598,939.4453026,None,936.4683377,None,1.072,940.9933565,None,None,1,940.9933565,None,,P009,fencog,2,Post,2021_Aug_17_1226,N-Back (New Version 2021),2021.1.4,120.0558019
,,,,Conditions/Version_1/oneback(4)_v1.xlsx,New rule: Press 'space' when you see 1-back (i.e. the same letter as the one that appeared 1 letter ago.),q,None,,,,,,,,,0,14,14,14,0,1,1,1,,,,,,,,,,,,,,,,,,,,,,,,,,,,,,,,,,,,,,,,,,,,,,,,,,,,,,,,,,,,,,,,,,,,,1.6114,944.6162305,None,None,1,944.6162305,None,,P009,fencog,2,Post,2021_Aug_17_1226,N-Back (New Version 2021),2021.1.4,120.0558019
,,,,Conditions/Version_1/oneback(4)_v1.xlsx,New rule: Press 'space' when you see 1-back (i.e. the same letter as the one that appeared 1 letter ago.),i,None,,,,,,,,,0,14,14,14,0,2,2,2,,,,,,,,,,,,,,,,,,,,,,,,,,,,,,,,,,,,,,,,,,,,,,,,,,,,,,,,,,,,,,,,,,,,,1.568,948.1915482,None,None,1,948.1915482,None,,P009,fencog,2,Post,2021_Aug_17_1226,N-Back (New Version 2021),2021.1.4,120.0558019
,,,,Conditions/Version_1/oneback(4)_v1.xlsx,New rule: Press 'space' when you see 1-back (i.e. the same letter as the one that appeared 1 letter ago.),t,None,,,,,,,,,0,14,14,14,0,3,3,3,,,,,,,,,,,,,,,,,,,,,,,,,,,,,,,,,,,,,,,,,,,,,,,,,,,,,,,,,,,,,,,,,,,,,1.7478,951.9492866,None,None,1,951.9492866,None,,P009,fencog,2,Post,2021_Aug_17_1226,N-Back (New Version 2021),2021.1.4,120.0558019
,,,,Conditions/Version_1/oneback(4)_v1.xlsx,New rule: Press 'space' when you see 1-back (i.e. the same letter as the one that appeared 1 letter ago.),v,None,,,,,,,,,0,14,14,14,0,4,4,4,,,,,,,,,,,,,,,,,,,,,,,,,,,,,,,,,,,,,,,,,,,,,,,,,,,,,,,,,,,,,,,,,,,,,1.878,955.8423519,None,space,0,955.8423519,None,0.7782094,P009,fencog,2,Post,2021_Aug_17_1226,N-Back (New Version 2021),2021.1.4,120.0558019
,,,,Conditions/Version_1/oneback(4)_v1.xlsx,New rule: Press 'space' when you see 1-back (i.e. the same letter as the one that appeared 1 letter ago.),V,space,,,,,,,,,0,14,14,14,0,5,5,5,,,,,,,,,,,,,,,,,,,,,,,,,,,,,,,,,,,,,,,,,,,,,,,,,,,,,,,,,,,,,,,,,,,,,1.723,959.5729478,None,space,1,959.5729478,None,0.6476813,P009,fencog,2,Post,2021_Aug_17_1226,N-Back (New Version 2021),2021.1.4,120.0558019
,,,,Conditions/Version_1/oneback(4)_v1.xlsx,New rule: Press 'space' when you see 1-back (i.e. the same letter as the one that appeared 1 letter ago.),v,space,,,,,,,,,0,14,14,14,0,6,6,6,,,,,,,,,,,,,,,,,,,,,,,,,,,,,,,,,,,,,,,,,,,,,,,,,,,,,,,,,,,,,,,,,,,,,1.1836,962.7628495,None,space,1,962.7628495,None,0.6254706,P009,fencog,2,Post,2021_Aug_17_1226,N-Back (New Version 2021),2021.1.4,120.0558019
,,,,Conditions/Version_1/oneback(4)_v1.xlsx,New rule: Press 'space' when you see 1-back (i.e. the same letter as the one that appeared 1 letter ago.),p,None,,,,,,,,,0,14,14,14,0,7,7,7,,,,,,,,,,,,,,,,,,,,,,,,,,,,,,,,,,,,,,,,,,,,,,,,,,,,,,,,,,,,,,,,,,,,,1.3324,966.1017257,None,None,1,966.1017257,None,,P009,fencog,2,Post,2021_Aug_17_1226,N-Back (New Version 2021),2021.1.4,120.0558019
,,,,Conditions/Version_1/oneback(4)_v1.xlsx,New rule: Press 'space' when you see 1-back (i.e. the same letter as the one that appeared 1 letter ago.),w,None,,,,,,,,,0,14,14,14,0,8,8,8,,,,,,,,,,,,,,,,,,,,,,,,,,,,,,,,,,,,,,,,,,,,,,,,,,,,,,,,,,,,,,,,,,,,,1.196,969.3015964,None,None,1,969.3015964,None,,P009,fencog,2,Post,2021_Aug_17_1226,N-Back (New Version 2021),2021.1.4,120.0558019
,,,,Conditions/Version_1/oneback(4)_v1.xlsx,New rule: Press 'space' when you see 1-back (i.e. the same letter as the one that appeared 1 letter ago.),W,space,,,,,,,,,0,14,14,14,0,9,9,9,,,,,,,,,,,,,,,,,,,,,,,,,,,,,,,,,,,,,,,,,,,,,,,,,,,,,,,,,,,,,,,,,,,,,1.8718,973.1912251,None,space,1,973.1912251,None,0.5734752,P009,fencog,2,Post,2021_Aug_17_1226,N-Back (New Version 2021),2021.1.4,120.0558019
,,,,Conditions/Version_1/oneback(4)_v1.xlsx,New rule: Press 'space' when you see 1-back (i.e. the same letter as the one that appeared 1 letter ago.),,,,,,,,,,,0,14,14,14,,,,,,,,,,,,,,,,,,,,,,,,,,,,,,,,,,,,,,,,,,,,,,,,,,,,,,,,,,,,,,,,,,,,,,,,,,,,,,,,,P009,fencog,2,Post,2021_Aug_17_1226,N-Back (New Version 2021),2021.1.4,120.0558019
,,,,Conditions/Version_1/threeback(4)_v1.xlsx,New rule: Press 'space' when you see 3-back (i.e. the same letter as the one that appeared 3 letters ago.),A,None,,,,,,,,,0,15,15,15,0,0,0,0,,,,,,,,,,,,,,,,,,,,,,,,,,,,,,,,,,,,,,,,,,,,,,,,,,,,,,,,,,,975.2147877,None,978.2000837,None,space,5.019973,978.2000837,None,975.2147877,None,1.2456,984.4978829,None,None,1,984.4978829,None,,P009,fencog,2,Post,2021_Aug_17_1226,N-Back (New Version 2021),2021.1.4,120.0558019
,,,,Conditions/Version_1/threeback(4)_v1.xlsx,New rule: Press 'space' when you see 3-back (i.e. the same letter as the one that appeared 3 letters ago.),n,None,,,,,,,,,0,15,15,15,0,1,1,1,,,,,,,,,,,,,,,,,,,,,,,,,,,,,,,,,,,,,,,,,,,,,,,,,,,,,,,,,,,,,,,,,,,,,1.9214,988.4320159,None,None,1,988.4320159,None,,P009,fencog,2,Post,2021_Aug_17_1226,N-Back (New Version 2021),2021.1.4,120.0558019
,,,,Conditions/Version_1/threeback(4)_v1.xlsx,New rule: Press 'space' when you see 3-back (i.e. the same letter as the one that appeared 3 letters ago.),g,None,,,,,,,,,0,15,15,15,0,2,2,2,,,,,,,,,,,,,,,,,,,,,,,,,,,,,,,,,,,,,,,,,,,,,,,,,,,,,,,,,,,,,,,,,,,,,1.1526,991.5961844,None,None,1,991.5961844,None,,P009,fencog,2,Post,2021_Aug_17_1226,N-Back (New Version 2021),2021.1.4,120.0558019
,,,,Conditions/Version_1/threeback(4)_v1.xlsx,New rule: Press 'space' when you see 3-back (i.e. the same letter as the one that appeared 3 letters ago.),A,space,,,,,,,,,0,15,15,15,0,3,3,3,,,,,,,,,,,,,,,,,,,,,,,,,,,,,,,,,,,,,,,,,,,,,,,,,,,,,,,,,,,,,,,,,,,,,1.444,995.0525109,None,space,1,995.0525109,None,0.3678584,P009,fencog,2,Post,2021_Aug_17_1226,N-Back (New Version 2021),2021.1.4,120.0558019
,,,,Conditions/Version_1/threeback(4)_v1.xlsx,New rule: Press 'space' when you see 3-back (i.e. the same letter as the one that appeared 3 letters ago.),p,None,,,,,,,,,0,15,15,15,0,4,4,4,,,,,,,,,,,,,,,,,,,,,,,,,,,,,,,,,,,,,,,,,,,,,,,,,,,,,,,,,,,,,,,,,,,,,1.2518,998.3186735,None,None,1,998.3186735,None,,P009,fencog,2,Post,2021_Aug_17_1226,N-Back (New Version 2021),2021.1.4,120.0558019
,,,,Conditions/Version_1/threeback(4)_v1.xlsx,New rule: Press 'space' when you see 3-back (i.e. the same letter as the one that appeared 3 letters ago.),O,None,,,,,,,,,0,15,15,15,0,5,5,5,,,,,,,,,,,,,,,,,,,,,,,,,,,,,,,,,,,,,,,,,,,,,,,,,,,,,,,,,,,,,,,,,,,,,1.7044,1002.036496,None,None,1,1002.036496,None,,P009,fencog,2,Post,2021_Aug_17_1226,N-Back (New Version 2021),2021.1.4,120.0558019
,,,,Conditions/Version_1/threeback(4)_v1.xlsx,New rule: Press 'space' when you see 3-back (i.e. the same letter as the one that appeared 3 letters ago.),a,space,,,,,,,,,0,15,15,15,0,6,6,6,,,,,,,,,,,,,,,,,,,,,,,,,,,,,,,,,,,,,,,,,,,,,,,,,,,,,,,,,,,,,,,,,,,,,1.3572,1005.399414,None,space,1,1005.399414,None,0.5649205,P009,fencog,2,Post,2021_Aug_17_1226,N-Back (New Version 2021),2021.1.4,120.0558019
,,,,Conditions/Version_1/threeback(4)_v1.xlsx,New rule: Press 'space' when you see 3-back (i.e. the same letter as the one that appeared 3 letters ago.),p,space,,,,,,,,,0,15,15,15,0,7,7,7,,,,,,,,,,,,,,,,,,,,,,,,,,,,,,,,,,,,,,,,,,,,,,,,,,,,,,,,,,,,,,,,,,,,,1.7788,1009.182752,None,space,1,1009.182752,None,0.3099378,P009,fencog,2,Post,2021_Aug_17_1226,N-Back (New Version 2021),2021.1.4,120.0558019
,,,,Conditions/Version_1/threeback(4)_v1.xlsx,New rule: Press 'space' when you see 3-back (i.e. the same letter as the one that appeared 3 letters ago.),x,None,,,,,,,,,0,15,15,15,0,8,8,8,,,,,,,,,,,,,,,,,,,,,,,,,,,,,,,,,,,,,,,,,,,,,,,,,,,,,,,,,,,,,,,,,,,,,1.7602,1012.956543,None,space,0,1012.956543,None,0.4479675,P009,fencog,2,Post,2021_Aug_17_1226,N-Back (New Version 2021),2021.1.4,120.0558019
,,,,Conditions/Version_1/threeback(4)_v1.xlsx,New rule: Press 'space' when you see 3-back (i.e. the same letter as the one that appeared 3 letters ago.),X,None,,,,,,,,,0,15,15,15,0,9,9,9,,,,,,,,,,,,,,,,,,,,,,,,,,,,,,,,,,,,,,,,,,,,,,,,,,,,,,,,,,,,,,,,,,,,,1.6052,1016.571968,None,None,1,1016.571968,None,,P009,fencog,2,Post,2021_Aug_17_1226,N-Back (New Version 2021),2021.1.4,120.0558019
,,,,Conditions/Version_1/threeback(4)_v1.xlsx,New rule: Press 'space' when you see 3-back (i.e. the same letter as the one that appeared 3 letters ago.),,,,,,,,,,,0,15,15,15,,,,,,,,,,,,,,,,,,,,,,,,,,,,,,,,,,,,,,,,,,,,,,,,,,,,,,,,,,,,,,,,,,,,,,,,,,,,,,,,,P009,fencog,2,Post,2021_Aug_17_1226,N-Back (New Version 2021),2021.1.4,120.0558019
