CondFileP,InstructionsP,LettersDisplayedP,CorrectnessP,CondFile,Instructions,LettersDisplayed,Correctness,practicetrials.thisRepN,practicetrials.thisTrialN,practicetrials.thisN,practicetrials.thisIndex,InnerLoopPractice.thisRepN,InnerLoopPractice.thisTrialN,InnerLoopPractice.thisN,InnerLoopPractice.thisIndex,trials.thisRepN,trials.thisTrialN,trials.thisN,trials.thisIndex,InnerLoop.thisRepN,InnerLoop.thisTrialN,InnerLoop.thisN,InnerLoop.thisIndex,TaskVersionText.started,TaskVersionText.stopped,InstrKey1.keys,InstrKey1.rt,InstrKey1.started,InstrKey1.stopped,text.started,text.stopped,key_resp_4.keys,key_resp_4.rt,key_resp_4.started,key_resp_4.stopped,text_2.started,text_2.stopped,key_resp_3.keys,key_resp_3.rt,key_resp_3.started,key_resp_3.stopped,text_3.started,text_3.stopped,key_resp_2.keys,key_resp_2.rt,key_resp_2.started,key_resp_2.stopped,PractIn1.started,PractIn1.stopped,PractIn2.started,PractIn2.stopped,PractInstructionPass.keys,PractInstructionPass.rt,PractInstructionPass.started,PractInstructionPass.stopped,PractBlock1.started,PractBlock1.stopped,ISIjitterPractice,ISI_Pract_Fixation.started,ISI_Pract_Fixation.stopped,N_backP.started,N_backP.stopped,KeyPractice.keys,KeyPractice.corr,KeyPractice.started,KeyPractice.stopped,text_4.started,text_4.stopped,KeyPractice.rt,TransitionText.started,TransitionText.stopped,key_resp_6.keys,key_resp_6.rt,key_resp_6.started,key_resp_6.stopped,text_5.started,text_5.stopped,key_resp_5.keys,key_resp_5.rt,key_resp_5.started,key_resp_5.stopped,MainInt1.started,MainInt1.stopped,MainInt2.started,MainInt2.stopped,InstructionPass.keys,InstructionPass.rt,InstructionPass.started,InstructionPass.stopped,Blocks1.started,Blocks1.stopped,ISIjitter,N_backD.started,N_backD.stopped,key_resp.keys,key_resp.corr,key_resp.started,key_resp.stopped,key_resp.rt,participant,Study Name,Task Version (required to run),PRE/POST,date,expName,psychopyVersion,frameRate
,,,,,,,,,,,,,,,,,,,,,,,,91.2182757,None,space,51.3034593,91.709913,None,,,,,,,,,,,,,,,,,,,,,,,,,,,,,,,,,,,,,,,,,,,,,,,,,,,,,,,,,,,,,,,,,,,,,,,P010,FENCOG,1,Post,2021_Sep_13_1205,N-Back (New Version 2021),2021.1.4,119.8081153
,,,,,,,,,,,,,,,,,,,,,,,,,,,,,,143.0431758,None,space,1.3571653,143.5287287,None,,,,,,,,,,,,,,,,,,,,,,,,,,,,,,,,,,,,,,,,,,,,,,,,,,,,,,,,,,,,,,,,,P010,FENCOG,1,Post,2021_Sep_13_1205,N-Back (New Version 2021),2021.1.4,119.8081153
,,,,,,,,,,,,,,,,,,,,,,,,,,,,,,,,,,,,144.9239385,None,space,4.1294271,145.4117577,None,,,,,,,,,,,,,,,,,,,,,,,,,,,,,,,,,,,,,,,,,,,,,,,,,,,,,,,,,,,P010,FENCOG,1,Post,2021_Sep_13_1205,N-Back (New Version 2021),2021.1.4,119.8081153
,,,,,,,,,,,,,,,,,,,,,,,,,,,,,,,,,,,,,,,,,,149.5680914,None,space,1.8894507,150.0602648,None,,,,,,,,,,,,,,,,,,,,,,,,,,,,,,,,,,,,,,,,,,,,,,,,,,,,,P010,FENCOG,1,Post,2021_Sep_13_1205,N-Back (New Version 2021),2021.1.4,119.8081153
Conditions/Version_1Pr/zeroback(1)_v1.xlsx,Rule: Press 'space' when you see the letter 'x' or 'X'.,Z,None,,,,,0,0,0,0,0,0,0,0,,,,,,,,,,,,,,,,,,,,,,,,,,,,,,,,,153.315019,None,156.3025922,None,space,0.7995952,156.3025922,None,153.315019,None,1.265,157.1273724,None,158.4100787,None,None,1,158.4100787,None,160.407118,None,,,,,,,,,,,,,,,,,,,,,,,,,,,,,,,,P010,FENCOG,1,Post,2021_Sep_13_1205,N-Back (New Version 2021),2021.1.4,119.8081153
Conditions/Version_1Pr/zeroback(1)_v1.xlsx,Rule: Press 'space' when you see the letter 'x' or 'X'.,r,None,,,,,0,0,0,0,0,1,1,1,,,,,,,,,,,,,,,,,,,,,,,,,,,,,,,,,,,,,,,,,,,1.94,161.9059479,None,163.8490115,None,None,1,163.8490115,None,165.8548379,None,,,,,,,,,,,,,,,,,,,,,,,,,,,,,,,,P010,FENCOG,1,Post,2021_Sep_13_1205,N-Back (New Version 2021),2021.1.4,119.8081153
Conditions/Version_1Pr/zeroback(1)_v1.xlsx,Rule: Press 'space' when you see the letter 'x' or 'X'.,X,space,,,,,0,0,0,0,0,2,2,2,,,,,,,,,,,,,,,,,,,,,,,,,,,,,,,,,,,,,,,,,,,1.14,167.354259,None,168.4962279,None,space,1,168.4962279,None,168.8551442,None,0.3495461,,,,,,,,,,,,,,,,,,,,,,,,,,,,,,,P010,FENCOG,1,Post,2021_Sep_13_1205,N-Back (New Version 2021),2021.1.4,119.8081153
Conditions/Version_1Pr/zeroback(1)_v1.xlsx,Rule: Press 'space' when you see the letter 'x' or 'X'.,p,None,,,,,0,0,0,0,0,3,3,3,,,,,,,,,,,,,,,,,,,,,,,,,,,,,,,,,,,,,,,,,,,1.64,170.3617834,None,172.0039493,None,None,1,172.0039493,None,174.0106346,None,,,,,,,,,,,,,,,,,,,,,,,,,,,,,,,,P010,FENCOG,1,Post,2021_Sep_13_1205,N-Back (New Version 2021),2021.1.4,119.8081153
Conditions/Version_1Pr/zeroback(1)_v1.xlsx,Rule: Press 'space' when you see the letter 'x' or 'X'.,w,None,,,,,0,0,0,0,0,4,4,4,,,,,,,,,,,,,,,,,,,,,,,,,,,,,,,,,,,,,,,,,,,1.19,175.5101805,None,176.7021073,None,None,1,176.7021073,None,178.7092881,None,,,,,,,,,,,,,,,,,,,,,,,,,,,,,,,,P010,FENCOG,1,Post,2021_Sep_13_1205,N-Back (New Version 2021),2021.1.4,119.8081153
Conditions/Version_1Pr/zeroback(1)_v1.xlsx,Rule: Press 'space' when you see the letter 'x' or 'X'.,e,None,,,,,0,0,0,0,0,5,5,5,,,,,,,,,,,,,,,,,,,,,,,,,,,,,,,,,,,,,,,,,,,1.565,180.2094255,None,181.7748577,None,None,1,181.7748577,None,183.7796255,None,,,,,,,,,,,,,,,,,,,,,,,,,,,,,,,,P010,FENCOG,1,Post,2021_Sep_13_1205,N-Back (New Version 2021),2021.1.4,119.8081153
Conditions/Version_1Pr/zeroback(1)_v1.xlsx,Rule: Press 'space' when you see the letter 'x' or 'X'.,X,space,,,,,0,0,0,0,0,6,6,6,,,,,,,,,,,,,,,,,,,,,,,,,,,,,,,,,,,,,,,,,,,1.44,185.2823834,None,186.7253463,None,space,1,186.7253463,None,187.0914368,None,0.3522001,,,,,,,,,,,,,,,,,,,,,,,,,,,,,,,P010,FENCOG,1,Post,2021_Sep_13_1205,N-Back (New Version 2021),2021.1.4,119.8081153
Conditions/Version_1Pr/zeroback(1)_v1.xlsx,Rule: Press 'space' when you see the letter 'x' or 'X'.,x,space,,,,,0,0,0,0,0,7,7,7,,,,,,,,,,,,,,,,,,,,,,,,,,,,,,,,,,,,,,,,,,,1.315,188.5978526,None,189.9174047,None,space,1,189.9174047,None,190.3765734,None,0.4487954,,,,,,,,,,,,,,,,,,,,,,,,,,,,,,,P010,FENCOG,1,Post,2021_Sep_13_1205,N-Back (New Version 2021),2021.1.4,119.8081153
Conditions/Version_1Pr/zeroback(1)_v1.xlsx,Rule: Press 'space' when you see the letter 'x' or 'X'.,p,None,,,,,0,0,0,0,0,8,8,8,,,,,,,,,,,,,,,,,,,,,,,,,,,,,,,,,,,,,,,,,,,1.465,191.8803,None,193.3482326,None,None,1,193.3482326,None,195.3544336,None,,,,,,,,,,,,,,,,,,,,,,,,,,,,,,,,P010,FENCOG,1,Post,2021_Sep_13_1205,N-Back (New Version 2021),2021.1.4,119.8081153
Conditions/Version_1Pr/zeroback(1)_v1.xlsx,Rule: Press 'space' when you see the letter 'x' or 'X'.,r,None,,,,,0,0,0,0,0,9,9,9,,,,,,,,,,,,,,,,,,,,,,,,,,,,,,,,,,,,,,,,,,,1.84,196.8539346,None,198.6960947,None,None,1,198.6960947,None,200.7028252,None,,,,,,,,,,,,,,,,,,,,,,,,,,,,,,,,P010,FENCOG,1,Post,2021_Sep_13_1205,N-Back (New Version 2021),2021.1.4,119.8081153
Conditions/Version_1Pr/zeroback(1)_v1.xlsx,Rule: Press 'space' when you see the letter 'x' or 'X'.,,,,,,,0,0,0,0,,,,,,,,,,,,,,,,,,,,,,,,,,,,,,,,,,,,,,,,,,,,,,,,,,,,,,,,,,,,,,,,,,,,,,,,,,,,,,,,,,,,,,,,,P010,FENCOG,1,Post,2021_Sep_13_1205,N-Back (New Version 2021),2021.1.4,119.8081153
Conditions/Version_1Pr/oneback(1)_v1.xlsx,New rule: Press 'space' when you see 1-back (i.e. the same letter as the one that appeared 1 letter ago.),a,None,,,,,0,1,1,1,0,0,0,0,,,,,,,,,,,,,,,,,,,,,,,,,,,,,,,,,202.226048,None,205.2132449,None,space,1.9522174,205.2132449,None,202.226048,None,1.29,207.2025667,None,208.4948803,None,None,1,208.4948803,None,210.4998463,None,,,,,,,,,,,,,,,,,,,,,,,,,,,,,,,,P010,FENCOG,1,Post,2021_Sep_13_1205,N-Back (New Version 2021),2021.1.4,119.8081153
Conditions/Version_1Pr/oneback(1)_v1.xlsx,New rule: Press 'space' when you see 1-back (i.e. the same letter as the one that appeared 1 letter ago.),x,None,,,,,0,1,1,1,0,1,1,1,,,,,,,,,,,,,,,,,,,,,,,,,,,,,,,,,,,,,,,,,,,1.115,211.9997398,None,213.1192388,None,None,1,213.1192388,None,215.1279831,None,,,,,,,,,,,,,,,,,,,,,,,,,,,,,,,,P010,FENCOG,1,Post,2021_Sep_13_1205,N-Back (New Version 2021),2021.1.4,119.8081153
Conditions/Version_1Pr/oneback(1)_v1.xlsx,New rule: Press 'space' when you see 1-back (i.e. the same letter as the one that appeared 1 letter ago.),g,None,,,,,0,1,1,1,0,2,2,2,,,,,,,,,,,,,,,,,,,,,,,,,,,,,,,,,,,,,,,,,,,1.54,216.6247725,None,218.169569,None,None,1,218.169569,None,220.1721848,None,,,,,,,,,,,,,,,,,,,,,,,,,,,,,,,,P010,FENCOG,1,Post,2021_Sep_13_1205,N-Back (New Version 2021),2021.1.4,119.8081153
Conditions/Version_1Pr/oneback(1)_v1.xlsx,New rule: Press 'space' when you see 1-back (i.e. the same letter as the one that appeared 1 letter ago.),G,space,,,,,0,1,1,1,0,3,3,3,,,,,,,,,,,,,,,,,,,,,,,,,,,,,,,,,,,,,,,,,,,1.74,221.6715715,None,223.4153873,None,space,1,223.4153873,None,224.5812202,None,1.1508939,,,,,,,,,,,,,,,,,,,,,,,,,,,,,,,P010,FENCOG,1,Post,2021_Sep_13_1205,N-Back (New Version 2021),2021.1.4,119.8081153
Conditions/Version_1Pr/oneback(1)_v1.xlsx,New rule: Press 'space' when you see 1-back (i.e. the same letter as the one that appeared 1 letter ago.),u,None,,,,,0,1,1,1,0,4,4,4,,,,,,,,,,,,,,,,,,,,,,,,,,,,,,,,,,,,,,,,,,,1.915,226.086933,None,228.0078848,None,None,1,228.0078848,None,230.0130889,None,,,,,,,,,,,,,,,,,,,,,,,,,,,,,,,,P010,FENCOG,1,Post,2021_Sep_13_1205,N-Back (New Version 2021),2021.1.4,119.8081153
Conditions/Version_1Pr/oneback(1)_v1.xlsx,New rule: Press 'space' when you see 1-back (i.e. the same letter as the one that appeared 1 letter ago.),y,None,,,,,0,1,1,1,0,5,5,5,,,,,,,,,,,,,,,,,,,,,,,,,,,,,,,,,,,,,,,,,,,1.365,231.5102588,None,232.8778807,None,None,1,232.8778807,None,234.8788446,None,,,,,,,,,,,,,,,,,,,,,,,,,,,,,,,,P010,FENCOG,1,Post,2021_Sep_13_1205,N-Back (New Version 2021),2021.1.4,119.8081153
Conditions/Version_1Pr/oneback(1)_v1.xlsx,New rule: Press 'space' when you see 1-back (i.e. the same letter as the one that appeared 1 letter ago.),y,space,,,,,0,1,1,1,0,6,6,6,,,,,,,,,,,,,,,,,,,,,,,,,,,,,,,,,,,,,,,,,,,1.64,236.3839205,None,238.0250849,None,space,1,238.0250849,None,238.5331882,None,0.4935921,,,,,,,,,,,,,,,,,,,,,,,,,,,,,,,P010,FENCOG,1,Post,2021_Sep_13_1205,N-Back (New Version 2021),2021.1.4,119.8081153
Conditions/Version_1Pr/oneback(1)_v1.xlsx,New rule: Press 'space' when you see 1-back (i.e. the same letter as the one that appeared 1 letter ago.),k,None,,,,,0,1,1,1,0,7,7,7,,,,,,,,,,,,,,,,,,,,,,,,,,,,,,,,,,,,,,,,,,,1.565,240.0328268,None,241.6024401,None,None,1,241.6024401,None,243.6066016,None,,,,,,,,,,,,,,,,,,,,,,,,,,,,,,,,P010,FENCOG,1,Post,2021_Sep_13_1205,N-Back (New Version 2021),2021.1.4,119.8081153
Conditions/Version_1Pr/oneback(1)_v1.xlsx,New rule: Press 'space' when you see 1-back (i.e. the same letter as the one that appeared 1 letter ago.),c,None,,,,,0,1,1,1,0,8,8,8,,,,,,,,,,,,,,,,,,,,,,,,,,,,,,,,,,,,,,,,,,,2.015,245.1061863,None,247.1252277,None,None,1,247.1252277,None,249.1300411,None,,,,,,,,,,,,,,,,,,,,,,,,,,,,,,,,P010,FENCOG,1,Post,2021_Sep_13_1205,N-Back (New Version 2021),2021.1.4,119.8081153
Conditions/Version_1Pr/oneback(1)_v1.xlsx,New rule: Press 'space' when you see 1-back (i.e. the same letter as the one that appeared 1 letter ago.),r,None,,,,,0,1,1,1,0,9,9,9,,,,,,,,,,,,,,,,,,,,,,,,,,,,,,,,,,,,,,,,,,,1.39,250.6297985,None,252.0218581,None,None,1,252.0218581,None,254.0287588,None,,,,,,,,,,,,,,,,,,,,,,,,,,,,,,,,P010,FENCOG,1,Post,2021_Sep_13_1205,N-Back (New Version 2021),2021.1.4,119.8081153
Conditions/Version_1Pr/oneback(1)_v1.xlsx,New rule: Press 'space' when you see 1-back (i.e. the same letter as the one that appeared 1 letter ago.),,,,,,,0,1,1,1,,,,,,,,,,,,,,,,,,,,,,,,,,,,,,,,,,,,,,,,,,,,,,,,,,,,,,,,,,,,,,,,,,,,,,,,,,,,,,,,,,,,,,,,,P010,FENCOG,1,Post,2021_Sep_13_1205,N-Back (New Version 2021),2021.1.4,119.8081153
Conditions/Version_1Pr/twoback(1)_v1.xlsx,New rule: Press 'space' when you see 2-back (i.e. the same letter as the one that appeared 2 letters ago.),E,None,,,,,0,2,2,2,0,0,0,0,,,,,,,,,,,,,,,,,,,,,,,,,,,,,,,,,255.5501412,None,258.5383736,None,space,6.8192683,258.5383736,None,255.5501412,None,1.24,265.3754462,None,266.6251514,None,None,1,266.6251514,None,268.6243233,None,,,,,,,,,,,,,,,,,,,,,,,,,,,,,,,,P010,FENCOG,1,Post,2021_Sep_13_1205,N-Back (New Version 2021),2021.1.4,119.8081153
Conditions/Version_1Pr/twoback(1)_v1.xlsx,New rule: Press 'space' when you see 2-back (i.e. the same letter as the one that appeared 2 letters ago.),p,None,,,,,0,2,2,2,0,1,1,1,,,,,,,,,,,,,,,,,,,,,,,,,,,,,,,,,,,,,,,,,,,1.89,270.12394,None,272.0184864,None,None,1,272.0184864,None,274.0228027,None,,,,,,,,,,,,,,,,,,,,,,,,,,,,,,,,P010,FENCOG,1,Post,2021_Sep_13_1205,N-Back (New Version 2021),2021.1.4,119.8081153
Conditions/Version_1Pr/twoback(1)_v1.xlsx,New rule: Press 'space' when you see 2-back (i.e. the same letter as the one that appeared 2 letters ago.),e,space,,,,,0,2,2,2,0,2,2,2,,,,,,,,,,,,,,,,,,,,,,,,,,,,,,,,,,,,,,,,,,,1.94,275.5224151,None,277.4670221,None,space,1,277.4670221,None,277.852656,None,0.370925,,,,,,,,,,,,,,,,,,,,,,,,,,,,,,,P010,FENCOG,1,Post,2021_Sep_13_1205,N-Back (New Version 2021),2021.1.4,119.8081153
Conditions/Version_1Pr/twoback(1)_v1.xlsx,New rule: Press 'space' when you see 2-back (i.e. the same letter as the one that appeared 2 letters ago.),s,None,,,,,0,2,2,2,0,3,3,3,,,,,,,,,,,,,,,,,,,,,,,,,,,,,,,,,,,,,,,,,,,1.665,279.3544459,None,281.0224722,None,None,1,281.0224722,None,283.0231092,None,,,,,,,,,,,,,,,,,,,,,,,,,,,,,,,,P010,FENCOG,1,Post,2021_Sep_13_1205,N-Back (New Version 2021),2021.1.4,119.8081153
Conditions/Version_1Pr/twoback(1)_v1.xlsx,New rule: Press 'space' when you see 2-back (i.e. the same letter as the one that appeared 2 letters ago.),S,None,,,,,0,2,2,2,0,4,4,4,,,,,,,,,,,,,,,,,,,,,,,,,,,,,,,,,,,,,,,,,,,1.54,284.5278568,None,286.0731859,None,None,1,286.0731859,None,288.0769458,None,,,,,,,,,,,,,,,,,,,,,,,,,,,,,,,,P010,FENCOG,1,Post,2021_Sep_13_1205,N-Back (New Version 2021),2021.1.4,119.8081153
Conditions/Version_1Pr/twoback(1)_v1.xlsx,New rule: Press 'space' when you see 2-back (i.e. the same letter as the one that appeared 2 letters ago.),s,space,,,,,0,2,2,2,0,5,5,5,,,,,,,,,,,,,,,,,,,,,,,,,,,,,,,,,,,,,,,,,,,1.965,289.576363,None,291.5464121,None,space,1,291.5464121,None,291.9642989,None,0.4033715,,,,,,,,,,,,,,,,,,,,,,,,,,,,,,,P010,FENCOG,1,Post,2021_Sep_13_1205,N-Back (New Version 2021),2021.1.4,119.8081153
Conditions/Version_1Pr/twoback(1)_v1.xlsx,New rule: Press 'space' when you see 2-back (i.e. the same letter as the one that appeared 2 letters ago.),P,None,,,,,0,2,2,2,0,6,6,6,,,,,,,,,,,,,,,,,,,,,,,,,,,,,,,,,,,,,,,,,,,1.165,293.4679899,None,294.6349082,None,space,0,294.6349082,None,295.1797597,None,0.5303926,,,,,,,,,,,,,,,,,,,,,,,,,,,,,,,P010,FENCOG,1,Post,2021_Sep_13_1205,N-Back (New Version 2021),2021.1.4,119.8081153
Conditions/Version_1Pr/twoback(1)_v1.xlsx,New rule: Press 'space' when you see 2-back (i.e. the same letter as the one that appeared 2 letters ago.),C,None,,,,,0,2,2,2,0,7,7,7,,,,,,,,,,,,,,,,,,,,,,,,,,,,,,,,,,,,,,,,,,,1.765,296.6827719,None,298.4549136,None,None,1,298.4549136,None,300.4563865,None,,,,,,,,,,,,,,,,,,,,,,,,,,,,,,,,P010,FENCOG,1,Post,2021_Sep_13_1205,N-Back (New Version 2021),2021.1.4,119.8081153
Conditions/Version_1Pr/twoback(1)_v1.xlsx,New rule: Press 'space' when you see 2-back (i.e. the same letter as the one that appeared 2 letters ago.),x,None,,,,,0,2,2,2,0,8,8,8,,,,,,,,,,,,,,,,,,,,,,,,,,,,,,,,,,,,,,,,,,,1.815,301.9562894,None,303.7721623,None,None,1,303.7721623,None,305.771664,None,,,,,,,,,,,,,,,,,,,,,,,,,,,,,,,,P010,FENCOG,1,Post,2021_Sep_13_1205,N-Back (New Version 2021),2021.1.4,119.8081153
Conditions/Version_1Pr/twoback(1)_v1.xlsx,New rule: Press 'space' when you see 2-back (i.e. the same letter as the one that appeared 2 letters ago.),Z,None,,,,,0,2,2,2,0,9,9,9,,,,,,,,,,,,,,,,,,,,,,,,,,,,,,,,,,,,,,,,,,,1.265,307.2708411,None,308.5447996,None,None,1,308.5447996,None,310.5454172,None,,,,,,,,,,,,,,,,,,,,,,,,,,,,,,,,P010,FENCOG,1,Post,2021_Sep_13_1205,N-Back (New Version 2021),2021.1.4,119.8081153
Conditions/Version_1Pr/twoback(1)_v1.xlsx,New rule: Press 'space' when you see 2-back (i.e. the same letter as the one that appeared 2 letters ago.),,,,,,,0,2,2,2,,,,,,,,,,,,,,,,,,,,,,,,,,,,,,,,,,,,,,,,,,,,,,,,,,,,,,,,,,,,,,,,,,,,,,,,,,,,,,,,,,,,,,,,,P010,FENCOG,1,Post,2021_Sep_13_1205,N-Back (New Version 2021),2021.1.4,119.8081153
Conditions/Version_1Pr/threeback(1)_v1.xlsx,New rule: Press 'space' when you see 3-back (i.e. the same letter as the one that appeared 3 letters ago.),r,None,,,,,0,3,3,3,0,0,0,0,,,,,,,,,,,,,,,,,,,,,,,,,,,,,,,,,312.0690111,None,315.0543353,None,space,0.4468279,315.0543353,None,312.0690111,None,1.54,315.5185573,None,317.0614985,None,None,1,317.0614985,None,319.0678388,None,,,,,,,,,,,,,,,,,,,,,,,,,,,,,,,,P010,FENCOG,1,Post,2021_Sep_13_1205,N-Back (New Version 2021),2021.1.4,119.8081153
Conditions/Version_1Pr/threeback(1)_v1.xlsx,New rule: Press 'space' when you see 3-back (i.e. the same letter as the one that appeared 3 letters ago.),a,None,,,,,0,3,3,3,0,1,1,1,,,,,,,,,,,,,,,,,,,,,,,,,,,,,,,,,,,,,,,,,,,1.065,320.5673929,None,321.6345745,None,None,1,321.6345745,None,323.6338904,None,,,,,,,,,,,,,,,,,,,,,,,,,,,,,,,,P010,FENCOG,1,Post,2021_Sep_13_1205,N-Back (New Version 2021),2021.1.4,119.8081153
Conditions/Version_1Pr/threeback(1)_v1.xlsx,New rule: Press 'space' when you see 3-back (i.e. the same letter as the one that appeared 3 letters ago.),t,None,,,,,0,3,3,3,0,2,2,2,,,,,,,,,,,,,,,,,,,,,,,,,,,,,,,,,,,,,,,,,,,1.965,325.1410574,None,327.118437,None,None,1,327.118437,None,329.1147257,None,,,,,,,,,,,,,,,,,,,,,,,,,,,,,,,,P010,FENCOG,1,Post,2021_Sep_13_1205,N-Back (New Version 2021),2021.1.4,119.8081153
Conditions/Version_1Pr/threeback(1)_v1.xlsx,New rule: Press 'space' when you see 3-back (i.e. the same letter as the one that appeared 3 letters ago.),r,space,,,,,0,3,3,3,0,3,3,3,,,,,,,,,,,,,,,,,,,,,,,,,,,,,,,,,,,,,,,,,,,1.715,330.6143804,None,332.3320902,None,space,1,332.3320902,None,333.4396254,None,1.097316,,,,,,,,,,,,,,,,,,,,,,,,,,,,,,,P010,FENCOG,1,Post,2021_Sep_13_1205,N-Back (New Version 2021),2021.1.4,119.8081153
Conditions/Version_1Pr/threeback(1)_v1.xlsx,New rule: Press 'space' when you see 3-back (i.e. the same letter as the one that appeared 3 letters ago.),a,None,,,,,0,3,3,3,0,4,4,4,,,,,,,,,,,,,,,,,,,,,,,,,,,,,,,,,,,,,,,,,,,1.59,334.9464899,None,336.5396817,None,space,0,336.5396817,None,337.3714314,None,0.8179673,,,,,,,,,,,,,,,,,,,,,,,,,,,,,,,P010,FENCOG,1,Post,2021_Sep_13_1205,N-Back (New Version 2021),2021.1.4,119.8081153
Conditions/Version_1Pr/threeback(1)_v1.xlsx,New rule: Press 'space' when you see 3-back (i.e. the same letter as the one that appeared 3 letters ago.),Y,None,,,,,0,3,3,3,0,5,5,5,,,,,,,,,,,,,,,,,,,,,,,,,,,,,,,,,,,,,,,,,,,1.14,338.8785296,None,340.0228167,None,None,1,340.0228167,None,342.0277826,None,,,,,,,,,,,,,,,,,,,,,,,,,,,,,,,,P010,FENCOG,1,Post,2021_Sep_13_1205,N-Back (New Version 2021),2021.1.4,119.8081153
Conditions/Version_1Pr/threeback(1)_v1.xlsx,New rule: Press 'space' when you see 3-back (i.e. the same letter as the one that appeared 3 letters ago.),q,None,,,,,0,3,3,3,0,6,6,6,,,,,,,,,,,,,,,,,,,,,,,,,,,,,,,,,,,,,,,,,,,1.39,343.52722,None,344.9225763,None,None,1,344.9225763,None,346.9262319,None,,,,,,,,,,,,,,,,,,,,,,,,,,,,,,,,P010,FENCOG,1,Post,2021_Sep_13_1205,N-Back (New Version 2021),2021.1.4,119.8081153
Conditions/Version_1Pr/threeback(1)_v1.xlsx,New rule: Press 'space' when you see 3-back (i.e. the same letter as the one that appeared 3 letters ago.),A,space,,,,,0,3,3,3,0,7,7,7,,,,,,,,,,,,,,,,,,,,,,,,,,,,,,,,,,,,,,,,,,,1.465,348.4257968,None,349.893504,None,space,1,349.893504,None,350.717922,None,0.8160129,,,,,,,,,,,,,,,,,,,,,,,,,,,,,,,P010,FENCOG,1,Post,2021_Sep_13_1205,N-Back (New Version 2021),2021.1.4,119.8081153
Conditions/Version_1Pr/threeback(1)_v1.xlsx,New rule: Press 'space' when you see 3-back (i.e. the same letter as the one that appeared 3 letters ago.),y,None,,,,,0,3,3,3,0,8,8,8,,,,,,,,,,,,,,,,,,,,,,,,,,,,,,,,,,,,,,,,,,,1.165,352.2246541,None,353.3951292,None,space,0,353.3951292,None,353.9525214,None,0.5464603,,,,,,,,,,,,,,,,,,,,,,,,,,,,,,,P010,FENCOG,1,Post,2021_Sep_13_1205,N-Back (New Version 2021),2021.1.4,119.8081153
Conditions/Version_1Pr/threeback(1)_v1.xlsx,New rule: Press 'space' when you see 3-back (i.e. the same letter as the one that appeared 3 letters ago.),r,None,,,,,0,3,3,3,0,9,9,9,,,,,,,,,,,,,,,,,,,,,,,,,,,,,,,,,,,,,,,,,,,1.115,355.4578664,None,356.5768673,None,space,0,356.5768673,None,357.3910166,None,0.8045942,,,,,,,,,,,,,,,,,,,,,,,,,,,,,,,P010,FENCOG,1,Post,2021_Sep_13_1205,N-Back (New Version 2021),2021.1.4,119.8081153
Conditions/Version_1Pr/threeback(1)_v1.xlsx,New rule: Press 'space' when you see 3-back (i.e. the same letter as the one that appeared 3 letters ago.),,,,,,,0,3,3,3,,,,,,,,,,,,,,,,,,,,,,,,,,,,,,,,,,,,,,,,,,,,,,,,,,,,,,,,,,,,,,,,,,,,,,,,,,,,,,,,,,,,,,,,,P010,FENCOG,1,Post,2021_Sep_13_1205,N-Back (New Version 2021),2021.1.4,119.8081153
,,,,,,,,,,,,,,,,,,,,,,,,,,,,,,,,,,,,,,,,,,,,,,,,,,,,,,,,,,,,,,,,,,,,,,358.9052134,None,space,0.5834023,359.3978193,None,,,,,,,,,,,,,,,,,,,,,,,,,P010,FENCOG,1,Post,2021_Sep_13_1205,N-Back (New Version 2021),2021.1.4,119.8081153
,,,,,,,,,,,,,,,,,,,,,,,,,,,,,,,,,,,,,,,,,,,,,,,,,,,,,,,,,,,,,,,,,,,,,,,,,,,,360.002536,None,space,0.8515656,360.4978259,None,,,,,,,,,,,,,,,,,,,P010,FENCOG,1,Post,2021_Sep_13_1205,N-Back (New Version 2021),2021.1.4,119.8081153
,,,,Conditions/Version_1/zeroback(1)_v1.xlsx,Rule: Press 'space' when you see the letter 'x' or 'X'.,b,None,,,,,,,,,0,0,0,0,0,0,0,0,,,,,,,,,,,,,,,,,,,,,,,,,,,,,,,,,,,,,,,,,,,,,,,,,,,,,,,,,,,361.4730419,None,364.4559652,None,space,0.446024,364.4559652,None,361.4730419,None,1.0596,366.0052408,None,None,1,366.0052408,None,,P010,FENCOG,1,Post,2021_Sep_13_1205,N-Back (New Version 2021),2021.1.4,119.8081153
,,,,Conditions/Version_1/zeroback(1)_v1.xlsx,Rule: Press 'space' when you see the letter 'x' or 'X'.,T,None,,,,,,,,,0,0,0,0,0,1,1,1,,,,,,,,,,,,,,,,,,,,,,,,,,,,,,,,,,,,,,,,,,,,,,,,,,,,,,,,,,,,,,,,,,,,,1.8966,369.9118806,None,None,1,369.9118806,None,,P010,FENCOG,1,Post,2021_Sep_13_1205,N-Back (New Version 2021),2021.1.4,119.8081153
,,,,Conditions/Version_1/zeroback(1)_v1.xlsx,Rule: Press 'space' when you see the letter 'x' or 'X'.,L,None,,,,,,,,,0,0,0,0,0,2,2,2,,,,,,,,,,,,,,,,,,,,,,,,,,,,,,,,,,,,,,,,,,,,,,,,,,,,,,,,,,,,,,,,,,,,,1.3076,373.2276439,None,None,1,373.2276439,None,,P010,FENCOG,1,Post,2021_Sep_13_1205,N-Back (New Version 2021),2021.1.4,119.8081153
,,,,Conditions/Version_1/zeroback(1)_v1.xlsx,Rule: Press 'space' when you see the letter 'x' or 'X'.,x,space,,,,,,,,,0,0,0,0,0,3,3,3,,,,,,,,,,,,,,,,,,,,,,,,,,,,,,,,,,,,,,,,,,,,,,,,,,,,,,,,,,,,,,,,,,,,,1.506,376.7432107,None,space,1,376.7432107,None,1.2061763,P010,FENCOG,1,Post,2021_Sep_13_1205,N-Back (New Version 2021),2021.1.4,119.8081153
,,,,Conditions/Version_1/zeroback(1)_v1.xlsx,Rule: Press 'space' when you see the letter 'x' or 'X'.,o,None,,,,,,,,,0,0,0,0,0,4,4,4,,,,,,,,,,,,,,,,,,,,,,,,,,,,,,,,,,,,,,,,,,,,,,,,,,,,,,,,,,,,,,,,,,,,,1.6858,380.4426462,None,None,1,380.4426462,None,,P010,FENCOG,1,Post,2021_Sep_13_1205,N-Back (New Version 2021),2021.1.4,119.8081153
,,,,Conditions/Version_1/zeroback(1)_v1.xlsx,Rule: Press 'space' when you see the letter 'x' or 'X'.,P,None,,,,,,,,,0,0,0,0,0,5,5,5,,,,,,,,,,,,,,,,,,,,,,,,,,,,,,,,,,,,,,,,,,,,,,,,,,,,,,,,,,,,,,,,,,,,,1.971,384.4296301,None,None,1,384.4296301,None,,P010,FENCOG,1,Post,2021_Sep_13_1205,N-Back (New Version 2021),2021.1.4,119.8081153
,,,,Conditions/Version_1/zeroback(1)_v1.xlsx,Rule: Press 'space' when you see the letter 'x' or 'X'.,X,space,,,,,,,,,0,0,0,0,0,6,6,6,,,,,,,,,,,,,,,,,,,,,,,,,,,,,,,,,,,,,,,,,,,,,,,,,,,,,,,,,,,,,,,,,,,,,1.9524,388.3895386,None,space,1,388.3895386,None,0.3758801,P010,FENCOG,1,Post,2021_Sep_13_1205,N-Back (New Version 2021),2021.1.4,119.8081153
,,,,Conditions/Version_1/zeroback(1)_v1.xlsx,Rule: Press 'space' when you see the letter 'x' or 'X'.,n,None,,,,,,,,,0,0,0,0,0,7,7,7,,,,,,,,,,,,,,,,,,,,,,,,,,,,,,,,,,,,,,,,,,,,,,,,,,,,,,,,,,,,,,,,,,,,,1.8904,392.2903015,None,None,1,392.2903015,None,,P010,FENCOG,1,Post,2021_Sep_13_1205,N-Back (New Version 2021),2021.1.4,119.8081153
,,,,Conditions/Version_1/zeroback(1)_v1.xlsx,Rule: Press 'space' when you see the letter 'x' or 'X'.,M,None,,,,,,,,,0,0,0,0,0,8,8,8,,,,,,,,,,,,,,,,,,,,,,,,,,,,,,,,,,,,,,,,,,,,,,,,,,,,,,,,,,,,,,,,,,,,,1.2518,395.5564529,None,None,1,395.5564529,None,,P010,FENCOG,1,Post,2021_Sep_13_1205,N-Back (New Version 2021),2021.1.4,119.8081153
,,,,Conditions/Version_1/zeroback(1)_v1.xlsx,Rule: Press 'space' when you see the letter 'x' or 'X'.,a,None,,,,,,,,,0,0,0,0,0,9,9,9,,,,,,,,,,,,,,,,,,,,,,,,,,,,,,,,,,,,,,,,,,,,,,,,,,,,,,,,,,,,,,,,,,,,,1.8036,399.3688061,None,None,1,399.3688061,None,,P010,FENCOG,1,Post,2021_Sep_13_1205,N-Back (New Version 2021),2021.1.4,119.8081153
,,,,Conditions/Version_1/zeroback(1)_v1.xlsx,Rule: Press 'space' when you see the letter 'x' or 'X'.,,,,,,,,,,,0,0,0,0,,,,,,,,,,,,,,,,,,,,,,,,,,,,,,,,,,,,,,,,,,,,,,,,,,,,,,,,,,,,,,,,,,,,,,,,,,,,,,,,,P010,FENCOG,1,Post,2021_Sep_13_1205,N-Back (New Version 2021),2021.1.4,119.8081153
,,,,Conditions/Version_1/oneback(1)_v1.xlsx,New rule: Press 'space' when you see 1-back (i.e. the same letter as the one that appeared 1 letter ago.),b,None,,,,,,,,,0,1,1,1,0,0,0,0,,,,,,,,,,,,,,,,,,,,,,,,,,,,,,,,,,,,,,,,,,,,,,,,,,,,,,,,,,,401.3923676,None,404.378144,None,space,0.3551779,404.378144,None,401.3923676,None,1.0224,405.784652,None,None,1,405.784652,None,,P010,FENCOG,1,Post,2021_Sep_13_1205,N-Back (New Version 2021),2021.1.4,119.8081153
,,,,Conditions/Version_1/oneback(1)_v1.xlsx,New rule: Press 'space' when you see 1-back (i.e. the same letter as the one that appeared 1 letter ago.),p,None,,,,,,,,,0,1,1,1,0,1,1,1,,,,,,,,,,,,,,,,,,,,,,,,,,,,,,,,,,,,,,,,,,,,,,,,,,,,,,,,,,,,,,,,,,,,,1.7602,409.5575019,None,None,1,409.5575019,None,,P010,FENCOG,1,Post,2021_Sep_13_1205,N-Back (New Version 2021),2021.1.4,119.8081153
,,,,Conditions/Version_1/oneback(1)_v1.xlsx,New rule: Press 'space' when you see 1-back (i.e. the same letter as the one that appeared 1 letter ago.),M,None,,,,,,,,,0,1,1,1,0,2,2,2,,,,,,,,,,,,,,,,,,,,,,,,,,,,,,,,,,,,,,,,,,,,,,,,,,,,,,,,,,,,,,,,,,,,,1.32,412.8815845,None,None,1,412.8815845,None,,P010,FENCOG,1,Post,2021_Sep_13_1205,N-Back (New Version 2021),2021.1.4,119.8081153
,,,,Conditions/Version_1/oneback(1)_v1.xlsx,New rule: Press 'space' when you see 1-back (i.e. the same letter as the one that appeared 1 letter ago.),M,space,,,,,,,,,0,1,1,1,0,3,3,3,,,,,,,,,,,,,,,,,,,,,,,,,,,,,,,,,,,,,,,,,,,,,,,,,,,,,,,,,,,,,,,,,,,,,1.3696,416.2558406,None,space,1,416.2558406,None,0.6222478,P010,FENCOG,1,Post,2021_Sep_13_1205,N-Back (New Version 2021),2021.1.4,119.8081153
,,,,Conditions/Version_1/oneback(1)_v1.xlsx,New rule: Press 'space' when you see 1-back (i.e. the same letter as the one that appeared 1 letter ago.),n,None,,,,,,,,,0,1,1,1,0,4,4,4,,,,,,,,,,,,,,,,,,,,,,,,,,,,,,,,,,,,,,,,,,,,,,,,,,,,,,,,,,,,,,,,,,,,,1.8098,420.071107,None,None,1,420.071107,None,,P010,FENCOG,1,Post,2021_Sep_13_1205,N-Back (New Version 2021),2021.1.4,119.8081153
,,,,Conditions/Version_1/oneback(1)_v1.xlsx,New rule: Press 'space' when you see 1-back (i.e. the same letter as the one that appeared 1 letter ago.),g,None,,,,,,,,,0,1,1,1,0,5,5,5,,,,,,,,,,,,,,,,,,,,,,,,,,,,,,,,,,,,,,,,,,,,,,,,,,,,,,,,,,,,,,,,,,,,,1.9152,423.9871706,None,None,1,423.9871706,None,,P010,FENCOG,1,Post,2021_Sep_13_1205,N-Back (New Version 2021),2021.1.4,119.8081153
,,,,Conditions/Version_1/oneback(1)_v1.xlsx,New rule: Press 'space' when you see 1-back (i.e. the same letter as the one that appeared 1 letter ago.),P,None,,,,,,,,,0,1,1,1,0,6,6,6,,,,,,,,,,,,,,,,,,,,,,,,,,,,,,,,,,,,,,,,,,,,,,,,,,,,,,,,,,,,,,,,,,,,,1.8346,427.8310371,None,None,1,427.8310371,None,,P010,FENCOG,1,Post,2021_Sep_13_1205,N-Back (New Version 2021),2021.1.4,119.8081153
,,,,Conditions/Version_1/oneback(1)_v1.xlsx,New rule: Press 'space' when you see 1-back (i.e. the same letter as the one that appeared 1 letter ago.),o,None,,,,,,,,,0,1,1,1,0,7,7,7,,,,,,,,,,,,,,,,,,,,,,,,,,,,,,,,,,,,,,,,,,,,,,,,,,,,,,,,,,,,,,,,,,,,,1.196,431.0392587,None,None,1,431.0392587,None,,P010,FENCOG,1,Post,2021_Sep_13_1205,N-Back (New Version 2021),2021.1.4,119.8081153
,,,,Conditions/Version_1/oneback(1)_v1.xlsx,New rule: Press 'space' when you see 1-back (i.e. the same letter as the one that appeared 1 letter ago.),f,None,,,,,,,,,0,1,1,1,0,8,8,8,,,,,,,,,,,,,,,,,,,,,,,,,,,,,,,,,,,,,,,,,,,,,,,,,,,,,,,,,,,,,,,,,,,,,1.2084,434.2533424,None,None,1,434.2533424,None,,P010,FENCOG,1,Post,2021_Sep_13_1205,N-Back (New Version 2021),2021.1.4,119.8081153
,,,,Conditions/Version_1/oneback(1)_v1.xlsx,New rule: Press 'space' when you see 1-back (i.e. the same letter as the one that appeared 1 letter ago.),F,space,,,,,,,,,0,1,1,1,0,9,9,9,,,,,,,,,,,,,,,,,,,,,,,,,,,,,,,,,,,,,,,,,,,,,,,,,,,,,,,,,,,,,,,,,,,,,1.63,437.8912582,None,space,1,437.8912582,None,0.3776223,P010,FENCOG,1,Post,2021_Sep_13_1205,N-Back (New Version 2021),2021.1.4,119.8081153
,,,,Conditions/Version_1/oneback(1)_v1.xlsx,New rule: Press 'space' when you see 1-back (i.e. the same letter as the one that appeared 1 letter ago.),,,,,,,,,,,0,1,1,1,,,,,,,,,,,,,,,,,,,,,,,,,,,,,,,,,,,,,,,,,,,,,,,,,,,,,,,,,,,,,,,,,,,,,,,,,,,,,,,,,P010,FENCOG,1,Post,2021_Sep_13_1205,N-Back (New Version 2021),2021.1.4,119.8081153
,,,,Conditions/Version_1/twoback(1)_v1.xlsx,New rule: Press 'space' when you see 2-back (i.e. the same letter as the one that appeared 2 letters ago.),b,None,,,,,,,,,0,2,2,2,0,0,0,0,,,,,,,,,,,,,,,,,,,,,,,,,,,,,,,,,,,,,,,,,,,,,,,,,,,,,,,,,,,439.9131074,None,442.9009785,None,space,0.4161891,442.9009785,None,439.9131074,None,1.7106,445.0637796,None,None,1,445.0637796,None,,P010,FENCOG,1,Post,2021_Sep_13_1205,N-Back (New Version 2021),2021.1.4,119.8081153
,,,,Conditions/Version_1/twoback(1)_v1.xlsx,New rule: Press 'space' when you see 2-back (i.e. the same letter as the one that appeared 2 letters ago.),h,None,,,,,,,,,0,2,2,2,0,1,1,1,,,,,,,,,,,,,,,,,,,,,,,,,,,,,,,,,,,,,,,,,,,,,,,,,,,,,,,,,,,,,,,,,,,,,1.4192,448.4893333,None,None,1,448.4893333,None,,P010,FENCOG,1,Post,2021_Sep_13_1205,N-Back (New Version 2021),2021.1.4,119.8081153
,,,,Conditions/Version_1/twoback(1)_v1.xlsx,New rule: Press 'space' when you see 2-back (i.e. the same letter as the one that appeared 2 letters ago.),j,None,,,,,,,,,0,2,2,2,0,2,2,2,,,,,,,,,,,,,,,,,,,,,,,,,,,,,,,,,,,,,,,,,,,,,,,,,,,,,,,,,,,,,,,,,,,,,1.6672,452.1755396,None,None,1,452.1755396,None,,P010,FENCOG,1,Post,2021_Sep_13_1205,N-Back (New Version 2021),2021.1.4,119.8081153
,,,,Conditions/Version_1/twoback(1)_v1.xlsx,New rule: Press 'space' when you see 2-back (i.e. the same letter as the one that appeared 2 letters ago.),H,space,,,,,,,,,0,2,2,2,0,3,3,3,,,,,,,,,,,,,,,,,,,,,,,,,,,,,,,,,,,,,,,,,,,,,,,,,,,,,,,,,,,,,,,,,,,,,1.8036,455.9872271,None,space,1,455.9872271,None,0.4180701,P010,FENCOG,1,Post,2021_Sep_13_1205,N-Back (New Version 2021),2021.1.4,119.8081153
,,,,Conditions/Version_1/twoback(1)_v1.xlsx,New rule: Press 'space' when you see 2-back (i.e. the same letter as the one that appeared 2 letters ago.),p,None,,,,,,,,,0,2,2,2,0,4,4,4,,,,,,,,,,,,,,,,,,,,,,,,,,,,,,,,,,,,,,,,,,,,,,,,,,,,,,,,,,,,,,,,,,,,,1.1588,459.1532679,None,None,1,459.1532679,None,,P010,FENCOG,1,Post,2021_Sep_13_1205,N-Back (New Version 2021),2021.1.4,119.8081153
,,,,Conditions/Version_1/twoback(1)_v1.xlsx,New rule: Press 'space' when you see 2-back (i.e. the same letter as the one that appeared 2 letters ago.),p,None,,,,,,,,,0,2,2,2,0,5,5,5,,,,,,,,,,,,,,,,,,,,,,,,,,,,,,,,,,,,,,,,,,,,,,,,,,,,,,,,,,,,,,,,,,,,,1.382,462.5420238,None,space,0,462.5420238,None,0.7841199,P010,FENCOG,1,Post,2021_Sep_13_1205,N-Back (New Version 2021),2021.1.4,119.8081153
,,,,Conditions/Version_1/twoback(1)_v1.xlsx,New rule: Press 'space' when you see 2-back (i.e. the same letter as the one that appeared 2 letters ago.),w,None,,,,,,,,,0,2,2,2,0,6,6,6,,,,,,,,,,,,,,,,,,,,,,,,,,,,,,,,,,,,,,,,,,,,,,,,,,,,,,,,,,,,,,,,,,,,,1.7044,466.2496236,None,None,1,466.2496236,None,,P010,FENCOG,1,Post,2021_Sep_13_1205,N-Back (New Version 2021),2021.1.4,119.8081153
,,,,Conditions/Version_1/twoback(1)_v1.xlsx,New rule: Press 'space' when you see 2-back (i.e. the same letter as the one that appeared 2 letters ago.),R,None,,,,,,,,,0,2,2,2,0,7,7,7,,,,,,,,,,,,,,,,,,,,,,,,,,,,,,,,,,,,,,,,,,,,,,,,,,,,,,,,,,,,,,,,,,,,,1.0286,469.2848675,None,None,1,469.2848675,None,,P010,FENCOG,1,Post,2021_Sep_13_1205,N-Back (New Version 2021),2021.1.4,119.8081153
,,,,Conditions/Version_1/twoback(1)_v1.xlsx,New rule: Press 'space' when you see 2-back (i.e. the same letter as the one that appeared 2 letters ago.),a,None,,,,,,,,,0,2,2,2,0,8,8,8,,,,,,,,,,,,,,,,,,,,,,,,,,,,,,,,,,,,,,,,,,,,,,,,,,,,,,,,,,,,,,,,,,,,,1.3634,472.6580418,None,None,1,472.6580418,None,,P010,FENCOG,1,Post,2021_Sep_13_1205,N-Back (New Version 2021),2021.1.4,119.8081153
,,,,Conditions/Version_1/twoback(1)_v1.xlsx,New rule: Press 'space' when you see 2-back (i.e. the same letter as the one that appeared 2 letters ago.),r,space,,,,,,,,,0,2,2,2,0,9,9,9,,,,,,,,,,,,,,,,,,,,,,,,,,,,,,,,,,,,,,,,,,,,,,,,,,,,,,,,,,,,,,,,,,,,,1.9648,476.6361009,None,space,1,476.6361009,None,0.9608763,P010,FENCOG,1,Post,2021_Sep_13_1205,N-Back (New Version 2021),2021.1.4,119.8081153
,,,,Conditions/Version_1/twoback(1)_v1.xlsx,New rule: Press 'space' when you see 2-back (i.e. the same letter as the one that appeared 2 letters ago.),,,,,,,,,,,0,2,2,2,,,,,,,,,,,,,,,,,,,,,,,,,,,,,,,,,,,,,,,,,,,,,,,,,,,,,,,,,,,,,,,,,,,,,,,,,,,,,,,,,P010,FENCOG,1,Post,2021_Sep_13_1205,N-Back (New Version 2021),2021.1.4,119.8081153
,,,,Conditions/Version_1/threeback(1)_v1.xlsx,New rule: Press 'space' when you see 3-back (i.e. the same letter as the one that appeared 3 letters ago.),r,None,,,,,,,,,0,3,3,3,0,0,0,0,,,,,,,,,,,,,,,,,,,,,,,,,,,,,,,,,,,,,,,,,,,,,,,,,,,,,,,,,,,478.6592446,None,481.6475841,None,space,0.109754,481.6475841,None,478.6592446,None,1.1526,482.9274554,None,None,1,482.9274554,None,,P010,FENCOG,1,Post,2021_Sep_13_1205,N-Back (New Version 2021),2021.1.4,119.8081153
,,,,Conditions/Version_1/threeback(1)_v1.xlsx,New rule: Press 'space' when you see 3-back (i.e. the same letter as the one that appeared 3 letters ago.),o,None,,,,,,,,,0,3,3,3,0,1,1,1,,,,,,,,,,,,,,,,,,,,,,,,,,,,,,,,,,,,,,,,,,,,,,,,,,,,,,,,,,,,,,,,,,,,,1.5184,486.4538515,None,None,1,486.4538515,None,,P010,FENCOG,1,Post,2021_Sep_13_1205,N-Back (New Version 2021),2021.1.4,119.8081153
,,,,Conditions/Version_1/threeback(1)_v1.xlsx,New rule: Press 'space' when you see 3-back (i.e. the same letter as the one that appeared 3 letters ago.),P,None,,,,,,,,,0,3,3,3,0,2,2,2,,,,,,,,,,,,,,,,,,,,,,,,,,,,,,,,,,,,,,,,,,,,,,,,,,,,,,,,,,,,,,,,,,,,,1.0472,489.5091728,None,None,1,489.5091728,None,,P010,FENCOG,1,Post,2021_Sep_13_1205,N-Back (New Version 2021),2021.1.4,119.8081153
,,,,Conditions/Version_1/threeback(1)_v1.xlsx,New rule: Press 'space' when you see 3-back (i.e. the same letter as the one that appeared 3 letters ago.),R,space,,,,,,,,,0,3,3,3,0,3,3,3,,,,,,,,,,,,,,,,,,,,,,,,,,,,,,,,,,,,,,,,,,,,,,,,,,,,,,,,,,,,,,,,,,,,,1.5928,493.1079083,None,space,1,493.1079083,None,0.3456921,P010,FENCOG,1,Post,2021_Sep_13_1205,N-Back (New Version 2021),2021.1.4,119.8081153
,,,,Conditions/Version_1/threeback(1)_v1.xlsx,New rule: Press 'space' when you see 3-back (i.e. the same letter as the one that appeared 3 letters ago.),p,None,,,,,,,,,0,3,3,3,0,4,4,4,,,,,,,,,,,,,,,,,,,,,,,,,,,,,,,,,,,,,,,,,,,,,,,,,,,,,,,,,,,,,,,,,,,,,1.4998,496.6104034,None,None,1,496.6104034,None,,P010,FENCOG,1,Post,2021_Sep_13_1205,N-Back (New Version 2021),2021.1.4,119.8081153
,,,,Conditions/Version_1/threeback(1)_v1.xlsx,New rule: Press 'space' when you see 3-back (i.e. the same letter as the one that appeared 3 letters ago.),E,None,,,,,,,,,0,3,3,3,0,5,5,5,,,,,,,,,,,,,,,,,,,,,,,,,,,,,,,,,,,,,,,,,,,,,,,,,,,,,,,,,,,,,,,,,,,,,1.3572,499.9728059,None,None,1,499.9728059,None,,P010,FENCOG,1,Post,2021_Sep_13_1205,N-Back (New Version 2021),2021.1.4,119.8081153
,,,,Conditions/Version_1/threeback(1)_v1.xlsx,New rule: Press 'space' when you see 3-back (i.e. the same letter as the one that appeared 3 letters ago.),e,None,,,,,,,,,0,3,3,3,0,6,6,6,,,,,,,,,,,,,,,,,,,,,,,,,,,,,,,,,,,,,,,,,,,,,,,,,,,,,,,,,,,,,,,,,,,,,1.8842,503.855061,None,None,1,503.855061,None,,P010,FENCOG,1,Post,2021_Sep_13_1205,N-Back (New Version 2021),2021.1.4,119.8081153
,,,,Conditions/Version_1/threeback(1)_v1.xlsx,New rule: Press 'space' when you see 3-back (i.e. the same letter as the one that appeared 3 letters ago.),m,None,,,,,,,,,0,3,3,3,0,7,7,7,,,,,,,,,,,,,,,,,,,,,,,,,,,,,,,,,,,,,,,,,,,,,,,,,,,,,,,,,,,,,,,,,,,,,1.5308,507.3902687,None,None,1,507.3902687,None,,P010,FENCOG,1,Post,2021_Sep_13_1205,N-Back (New Version 2021),2021.1.4,119.8081153
,,,,Conditions/Version_1/threeback(1)_v1.xlsx,New rule: Press 'space' when you see 3-back (i.e. the same letter as the one that appeared 3 letters ago.),n,None,,,,,,,,,0,3,3,3,0,8,8,8,,,,,,,,,,,,,,,,,,,,,,,,,,,,,,,,,,,,,,,,,,,,,,,,,,,,,,,,,,,,,,,,,,,,,1.1464,510.5443544,None,None,1,510.5443544,None,,P010,FENCOG,1,Post,2021_Sep_13_1205,N-Back (New Version 2021),2021.1.4,119.8081153
,,,,Conditions/Version_1/threeback(1)_v1.xlsx,New rule: Press 'space' when you see 3-back (i.e. the same letter as the one that appeared 3 letters ago.),e,space,,,,,,,,,0,3,3,3,0,9,9,9,,,,,,,,,,,,,,,,,,,,,,,,,,,,,,,,,,,,,,,,,,,,,,,,,,,,,,,,,,,,,,,,,,,,,1.9834,514.5348369,None,space,1,514.5348369,None,0.6061991,P010,FENCOG,1,Post,2021_Sep_13_1205,N-Back (New Version 2021),2021.1.4,119.8081153
,,,,Conditions/Version_1/threeback(1)_v1.xlsx,New rule: Press 'space' when you see 3-back (i.e. the same letter as the one that appeared 3 letters ago.),,,,,,,,,,,0,3,3,3,,,,,,,,,,,,,,,,,,,,,,,,,,,,,,,,,,,,,,,,,,,,,,,,,,,,,,,,,,,,,,,,,,,,,,,,,,,,,,,,,P010,FENCOG,1,Post,2021_Sep_13_1205,N-Back (New Version 2021),2021.1.4,119.8081153
,,,,Conditions/Version_1/oneback(2)_v1.xlsx,New rule: Press 'space' when you see 1-back (i.e. the same letter as the one that appeared 1 letter ago.),q,None,,,,,,,,,0,4,4,4,0,0,0,0,,,,,,,,,,,,,,,,,,,,,,,,,,,,,,,,,,,,,,,,,,,,,,,,,,,,,,,,,,,516.5564157,None,519.5440696,None,space,0.4288406,519.5440696,None,516.5564157,None,1.165,521.1590064,None,None,1,521.1590064,None,,P010,FENCOG,1,Post,2021_Sep_13_1205,N-Back (New Version 2021),2021.1.4,119.8081153
,,,,Conditions/Version_1/oneback(2)_v1.xlsx,New rule: Press 'space' when you see 1-back (i.e. the same letter as the one that appeared 1 letter ago.),Q,space,,,,,,,,,0,4,4,4,0,1,1,1,,,,,,,,,,,,,,,,,,,,,,,,,,,,,,,,,,,,,,,,,,,,,,,,,,,,,,,,,,,,,,,,,,,,,1.4998,524.6675454,None,space,1,524.6675454,None,0.3057515,P010,FENCOG,1,Post,2021_Sep_13_1205,N-Back (New Version 2021),2021.1.4,119.8081153
,,,,Conditions/Version_1/oneback(2)_v1.xlsx,New rule: Press 'space' when you see 1-back (i.e. the same letter as the one that appeared 1 letter ago.),P,None,,,,,,,,,0,4,4,4,0,2,2,2,,,,,,,,,,,,,,,,,,,,,,,,,,,,,,,,,,,,,,,,,,,,,,,,,,,,,,,,,,,,,,,,,,,,,1.0472,527.7237847,None,None,1,527.7237847,None,,P010,FENCOG,1,Post,2021_Sep_13_1205,N-Back (New Version 2021),2021.1.4,119.8081153
,,,,Conditions/Version_1/oneback(2)_v1.xlsx,New rule: Press 'space' when you see 1-back (i.e. the same letter as the one that appeared 1 letter ago.),o,None,,,,,,,,,0,4,4,4,0,3,3,3,,,,,,,,,,,,,,,,,,,,,,,,,,,,,,,,,,,,,,,,,,,,,,,,,,,,,,,,,,,,,,,,,,,,,1.909,531.6464275,None,None,1,531.6464275,None,,P010,FENCOG,1,Post,2021_Sep_13_1205,N-Back (New Version 2021),2021.1.4,119.8081153
,,,,Conditions/Version_1/oneback(2)_v1.xlsx,New rule: Press 'space' when you see 1-back (i.e. the same letter as the one that appeared 1 letter ago.),m,None,,,,,,,,,0,4,4,4,0,4,4,4,,,,,,,,,,,,,,,,,,,,,,,,,,,,,,,,,,,,,,,,,,,,,,,,,,,,,,,,,,,,,,,,,,,,,1.9152,535.5644735,None,None,1,535.5644735,None,,P010,FENCOG,1,Post,2021_Sep_13_1205,N-Back (New Version 2021),2021.1.4,119.8081153
,,,,Conditions/Version_1/oneback(2)_v1.xlsx,New rule: Press 'space' when you see 1-back (i.e. the same letter as the one that appeared 1 letter ago.),Z,None,,,,,,,,,0,4,4,4,0,5,5,5,,,,,,,,,,,,,,,,,,,,,,,,,,,,,,,,,,,,,,,,,,,,,,,,,,,,,,,,,,,,,,,,,,,,,1.6672,539.2452245,None,None,1,539.2452245,None,,P010,FENCOG,1,Post,2021_Sep_13_1205,N-Back (New Version 2021),2021.1.4,119.8081153
,,,,Conditions/Version_1/oneback(2)_v1.xlsx,New rule: Press 'space' when you see 1-back (i.e. the same letter as the one that appeared 1 letter ago.),c,None,,,,,,,,,0,4,4,4,0,6,6,6,,,,,,,,,,,,,,,,,,,,,,,,,,,,,,,,,,,,,,,,,,,,,,,,,,,,,,,,,,,,,,,,,,,,,1.661,542.9183735,None,None,1,542.9183735,None,,P010,FENCOG,1,Post,2021_Sep_13_1205,N-Back (New Version 2021),2021.1.4,119.8081153
,,,,Conditions/Version_1/oneback(2)_v1.xlsx,New rule: Press 'space' when you see 1-back (i.e. the same letter as the one that appeared 1 letter ago.),c,space,,,,,,,,,0,4,4,4,0,7,7,7,,,,,,,,,,,,,,,,,,,,,,,,,,,,,,,,,,,,,,,,,,,,,,,,,,,,,,,,,,,,,,,,,,,,,1.5494,546.4754183,None,space,1,546.4754183,None,0.3299115,P010,FENCOG,1,Post,2021_Sep_13_1205,N-Back (New Version 2021),2021.1.4,119.8081153
,,,,Conditions/Version_1/oneback(2)_v1.xlsx,New rule: Press 'space' when you see 1-back (i.e. the same letter as the one that appeared 1 letter ago.),P,None,,,,,,,,,0,4,4,4,0,8,8,8,,,,,,,,,,,,,,,,,,,,,,,,,,,,,,,,,,,,,,,,,,,,,,,,,,,,,,,,,,,,,,,,,,,,,1.8408,550.3326902,None,None,1,550.3326902,None,,P010,FENCOG,1,Post,2021_Sep_13_1205,N-Back (New Version 2021),2021.1.4,119.8081153
,,,,Conditions/Version_1/oneback(2)_v1.xlsx,New rule: Press 'space' when you see 1-back (i.e. the same letter as the one that appeared 1 letter ago.),p,space,,,,,,,,,0,4,4,4,0,9,9,9,,,,,,,,,,,,,,,,,,,,,,,,,,,,,,,,,,,,,,,,,,,,,,,,,,,,,,,,,,,,,,,,,,,,,1.754,554.0904313,None,space,1,554.0904313,None,0.4990542,P010,FENCOG,1,Post,2021_Sep_13_1205,N-Back (New Version 2021),2021.1.4,119.8081153
,,,,Conditions/Version_1/oneback(2)_v1.xlsx,New rule: Press 'space' when you see 1-back (i.e. the same letter as the one that appeared 1 letter ago.),,,,,,,,,,,0,4,4,4,,,,,,,,,,,,,,,,,,,,,,,,,,,,,,,,,,,,,,,,,,,,,,,,,,,,,,,,,,,,,,,,,,,,,,,,,,,,,,,,,P010,FENCOG,1,Post,2021_Sep_13_1205,N-Back (New Version 2021),2021.1.4,119.8081153
,,,,Conditions/Version_1/zeroback(2)_v1.xlsx,New rule: Press 'space' when you see the letter 'x' or 'X'.,p,None,,,,,,,,,0,5,5,5,0,0,0,0,,,,,,,,,,,,,,,,,,,,,,,,,,,,,,,,,,,,,,,,,,,,,,,,,,,,,,,,,,,556.1146415,None,559.0991625,None,space,0.3941017,559.0991625,None,556.1146415,None,1.6796,561.1963372,None,None,1,561.1963372,None,,P010,FENCOG,1,Post,2021_Sep_13_1205,N-Back (New Version 2021),2021.1.4,119.8081153
,,,,Conditions/Version_1/zeroback(2)_v1.xlsx,New rule: Press 'space' when you see the letter 'x' or 'X'.,L,None,,,,,,,,,0,5,5,5,0,1,1,1,,,,,,,,,,,,,,,,,,,,,,,,,,,,,,,,,,,,,,,,,,,,,,,,,,,,,,,,,,,,,,,,,,,,,1.444,564.6455818,None,None,1,564.6455818,None,,P010,FENCOG,1,Post,2021_Sep_13_1205,N-Back (New Version 2021),2021.1.4,119.8081153
,,,,Conditions/Version_1/zeroback(2)_v1.xlsx,New rule: Press 'space' when you see the letter 'x' or 'X'.,G,None,,,,,,,,,0,5,5,5,0,2,2,2,,,,,,,,,,,,,,,,,,,,,,,,,,,,,,,,,,,,,,,,,,,,,,,,,,,,,,,,,,,,,,,,,,,,,1.1464,567.7949912,None,None,1,567.7949912,None,,P010,FENCOG,1,Post,2021_Sep_13_1205,N-Back (New Version 2021),2021.1.4,119.8081153
,,,,Conditions/Version_1/zeroback(2)_v1.xlsx,New rule: Press 'space' when you see the letter 'x' or 'X'.,y,None,,,,,,,,,0,5,5,5,0,3,3,3,,,,,,,,,,,,,,,,,,,,,,,,,,,,,,,,,,,,,,,,,,,,,,,,,,,,,,,,,,,,,,,,,,,,,1.1712,570.9765118,None,space,0,570.9765118,None,1.7566189,P010,FENCOG,1,Post,2021_Sep_13_1205,N-Back (New Version 2021),2021.1.4,119.8081153
,,,,Conditions/Version_1/zeroback(2)_v1.xlsx,New rule: Press 'space' when you see the letter 'x' or 'X'.,Y,None,,,,,,,,,0,5,5,5,0,4,4,4,,,,,,,,,,,,,,,,,,,,,,,,,,,,,,,,,,,,,,,,,,,,,,,,,,,,,,,,,,,,,,,,,,,,,1.0658,574.0508858,None,space,0,574.0508858,None,0.9145709,P010,FENCOG,1,Post,2021_Sep_13_1205,N-Back (New Version 2021),2021.1.4,119.8081153
,,,,Conditions/Version_1/zeroback(2)_v1.xlsx,New rule: Press 'space' when you see the letter 'x' or 'X'.,W,None,,,,,,,,,0,5,5,5,0,5,5,5,,,,,,,,,,,,,,,,,,,,,,,,,,,,,,,,,,,,,,,,,,,,,,,,,,,,,,,,,,,,,,,,,,,,,1.1278,577.1873866,None,None,1,577.1873866,None,,P010,FENCOG,1,Post,2021_Sep_13_1205,N-Back (New Version 2021),2021.1.4,119.8081153
,,,,Conditions/Version_1/zeroback(2)_v1.xlsx,New rule: Press 'space' when you see the letter 'x' or 'X'.,x,space,,,,,,,,,0,5,5,5,0,6,6,6,,,,,,,,,,,,,,,,,,,,,,,,,,,,,,,,,,,,,,,,,,,,,,,,,,,,,,,,,,,,,,,,,,,,,1.7354,580.9343815,None,None,0,580.9343815,None,,P010,FENCOG,1,Post,2021_Sep_13_1205,N-Back (New Version 2021),2021.1.4,119.8081153
,,,,Conditions/Version_1/zeroback(2)_v1.xlsx,New rule: Press 'space' when you see the letter 'x' or 'X'.,X,space,,,,,,,,,0,5,5,5,0,7,7,7,,,,,,,,,,,,,,,,,,,,,,,,,,,,,,,,,,,,,,,,,,,,,,,,,,,,,,,,,,,,,,,,,,,,,1.9276,584.8723939,None,space,1,584.8723939,None,1.1649483,P010,FENCOG,1,Post,2021_Sep_13_1205,N-Back (New Version 2021),2021.1.4,119.8081153
,,,,Conditions/Version_1/zeroback(2)_v1.xlsx,New rule: Press 'space' when you see the letter 'x' or 'X'.,p,None,,,,,,,,,0,5,5,5,0,8,8,8,,,,,,,,,,,,,,,,,,,,,,,,,,,,,,,,,,,,,,,,,,,,,,,,,,,,,,,,,,,,,,,,,,,,,1.0224,587.8964917,None,None,1,587.8964917,None,,P010,FENCOG,1,Post,2021_Sep_13_1205,N-Back (New Version 2021),2021.1.4,119.8081153
,,,,Conditions/Version_1/zeroback(2)_v1.xlsx,New rule: Press 'space' when you see the letter 'x' or 'X'.,h,None,,,,,,,,,0,5,5,5,0,9,9,9,,,,,,,,,,,,,,,,,,,,,,,,,,,,,,,,,,,,,,,,,,,,,,,,,,,,,,,,,,,,,,,,,,,,,1.9214,591.827196,None,None,1,591.827196,None,,P010,FENCOG,1,Post,2021_Sep_13_1205,N-Back (New Version 2021),2021.1.4,119.8081153
,,,,Conditions/Version_1/zeroback(2)_v1.xlsx,New rule: Press 'space' when you see the letter 'x' or 'X'.,,,,,,,,,,,0,5,5,5,,,,,,,,,,,,,,,,,,,,,,,,,,,,,,,,,,,,,,,,,,,,,,,,,,,,,,,,,,,,,,,,,,,,,,,,,,,,,,,,,P010,FENCOG,1,Post,2021_Sep_13_1205,N-Back (New Version 2021),2021.1.4,119.8081153
,,,,Conditions/Version_1/threeback(2)_v1.xlsx,New rule: Press 'space' when you see 3-back (i.e. the same letter as the one that appeared 3 letters ago.),q,None,,,,,,,,,0,6,6,6,0,0,0,0,,,,,,,,,,,,,,,,,,,,,,,,,,,,,,,,,,,,,,,,,,,,,,,,,,,,,,,,,,,593.8498939,None,596.8387679,None,space,0.4462522,596.8387679,None,593.8498939,None,1.103,598.4105534,None,None,1,598.4105534,None,,P010,FENCOG,1,Post,2021_Sep_13_1205,N-Back (New Version 2021),2021.1.4,119.8081153
,,,,Conditions/Version_1/threeback(2)_v1.xlsx,New rule: Press 'space' when you see 3-back (i.e. the same letter as the one that appeared 3 letters ago.),Y,None,,,,,,,,,0,6,6,6,0,1,1,1,,,,,,,,,,,,,,,,,,,,,,,,,,,,,,,,,,,,,,,,,,,,,,,,,,,,,,,,,,,,,,,,,,,,,1.568,601.9840022,None,None,1,601.9840022,None,,P010,FENCOG,1,Post,2021_Sep_13_1205,N-Back (New Version 2021),2021.1.4,119.8081153
,,,,Conditions/Version_1/threeback(2)_v1.xlsx,New rule: Press 'space' when you see 3-back (i.e. the same letter as the one that appeared 3 letters ago.),p,None,,,,,,,,,0,6,6,6,0,2,2,2,,,,,,,,,,,,,,,,,,,,,,,,,,,,,,,,,,,,,,,,,,,,,,,,,,,,,,,,,,,,,,,,,,,,,1.9834,605.9705479,None,None,1,605.9705479,None,,P010,FENCOG,1,Post,2021_Sep_13_1205,N-Back (New Version 2021),2021.1.4,119.8081153
,,,,Conditions/Version_1/threeback(2)_v1.xlsx,New rule: Press 'space' when you see 3-back (i.e. the same letter as the one that appeared 3 letters ago.),p,None,,,,,,,,,0,6,6,6,0,3,3,3,,,,,,,,,,,,,,,,,,,,,,,,,,,,,,,,,,,,,,,,,,,,,,,,,,,,,,,,,,,,,,,,,,,,,1.94,609.9151397,None,None,1,609.9151397,None,,P010,FENCOG,1,Post,2021_Sep_13_1205,N-Back (New Version 2021),2021.1.4,119.8081153
,,,,Conditions/Version_1/threeback(2)_v1.xlsx,New rule: Press 'space' when you see 3-back (i.e. the same letter as the one that appeared 3 letters ago.),y,space,,,,,,,,,0,6,6,6,0,4,4,4,,,,,,,,,,,,,,,,,,,,,,,,,,,,,,,,,,,,,,,,,,,,,,,,,,,,,,,,,,,,,,,,,,,,,1.847,613.7723246,None,space,1,613.7723246,None,0.944745,P010,FENCOG,1,Post,2021_Sep_13_1205,N-Back (New Version 2021),2021.1.4,119.8081153
,,,,Conditions/Version_1/threeback(2)_v1.xlsx,New rule: Press 'space' when you see 3-back (i.e. the same letter as the one that appeared 3 letters ago.),u,None,,,,,,,,,0,6,6,6,0,5,5,5,,,,,,,,,,,,,,,,,,,,,,,,,,,,,,,,,,,,,,,,,,,,,,,,,,,,,,,,,,,,,,,,,,,,,1.3386,617.1141276,None,None,1,617.1141276,None,,P010,FENCOG,1,Post,2021_Sep_13_1205,N-Back (New Version 2021),2021.1.4,119.8081153
,,,,Conditions/Version_1/threeback(2)_v1.xlsx,New rule: Press 'space' when you see 3-back (i.e. the same letter as the one that appeared 3 letters ago.),P,space,,,,,,,,,0,6,6,6,0,6,6,6,,,,,,,,,,,,,,,,,,,,,,,,,,,,,,,,,,,,,,,,,,,,,,,,,,,,,,,,,,,,,,,,,,,,,1.971,621.0948779,None,space,1,621.0948779,None,1.1183767,P010,FENCOG,1,Post,2021_Sep_13_1205,N-Back (New Version 2021),2021.1.4,119.8081153
,,,,Conditions/Version_1/threeback(2)_v1.xlsx,New rule: Press 'space' when you see 3-back (i.e. the same letter as the one that appeared 3 letters ago.),a,None,,,,,,,,,0,6,6,6,0,7,7,7,,,,,,,,,,,,,,,,,,,,,,,,,,,,,,,,,,,,,,,,,,,,,,,,,,,,,,,,,,,,,,,,,,,,,1.2952,624.3940981,None,None,1,624.3940981,None,,P010,FENCOG,1,Post,2021_Sep_13_1205,N-Back (New Version 2021),2021.1.4,119.8081153
,,,,Conditions/Version_1/threeback(2)_v1.xlsx,New rule: Press 'space' when you see 3-back (i.e. the same letter as the one that appeared 3 letters ago.),U,space,,,,,,,,,0,6,6,6,0,8,8,8,,,,,,,,,,,,,,,,,,,,,,,,,,,,,,,,,,,,,,,,,,,,,,,,,,,,,,,,,,,,,,,,,,,,,1.7292,628.1279231,None,space,1,628.1279231,None,1.2373512,P010,FENCOG,1,Post,2021_Sep_13_1205,N-Back (New Version 2021),2021.1.4,119.8081153
,,,,Conditions/Version_1/threeback(2)_v1.xlsx,New rule: Press 'space' when you see 3-back (i.e. the same letter as the one that appeared 3 letters ago.),q,None,,,,,,,,,0,6,6,6,0,9,9,9,,,,,,,,,,,,,,,,,,,,,,,,,,,,,,,,,,,,,,,,,,,,,,,,,,,,,,,,,,,,,,,,,,,,,1.8966,632.0364175,None,None,1,632.0364175,None,,P010,FENCOG,1,Post,2021_Sep_13_1205,N-Back (New Version 2021),2021.1.4,119.8081153
,,,,Conditions/Version_1/threeback(2)_v1.xlsx,New rule: Press 'space' when you see 3-back (i.e. the same letter as the one that appeared 3 letters ago.),,,,,,,,,,,0,6,6,6,,,,,,,,,,,,,,,,,,,,,,,,,,,,,,,,,,,,,,,,,,,,,,,,,,,,,,,,,,,,,,,,,,,,,,,,,,,,,,,,,P010,FENCOG,1,Post,2021_Sep_13_1205,N-Back (New Version 2021),2021.1.4,119.8081153
,,,,Conditions/Version_1/twoback(2)_v1.xlsx,New rule: Press 'space' when you see 2-back (i.e. the same letter as the one that appeared 2 letters ago.),q,None,,,,,,,,,0,7,7,7,0,0,0,0,,,,,,,,,,,,,,,,,,,,,,,,,,,,,,,,,,,,,,,,,,,,,,,,,,,,,,,,,,,634.0648436,None,637.050778,None,space,0.6585322,637.050778,None,634.0648436,None,1.5246,639.2563717,None,None,1,639.2563717,None,,P010,FENCOG,1,Post,2021_Sep_13_1205,N-Back (New Version 2021),2021.1.4,119.8081153
,,,,Conditions/Version_1/twoback(2)_v1.xlsx,New rule: Press 'space' when you see 2-back (i.e. the same letter as the one that appeared 2 letters ago.),r,None,,,,,,,,,0,7,7,7,0,1,1,1,,,,,,,,,,,,,,,,,,,,,,,,,,,,,,,,,,,,,,,,,,,,,,,,,,,,,,,,,,,,,,,,,,,,,1.5556,642.8157772,None,None,1,642.8157772,None,,P010,FENCOG,1,Post,2021_Sep_13_1205,N-Back (New Version 2021),2021.1.4,119.8081153
,,,,Conditions/Version_1/twoback(2)_v1.xlsx,New rule: Press 'space' when you see 2-back (i.e. the same letter as the one that appeared 2 letters ago.),q,space,,,,,,,,,0,7,7,7,0,2,2,2,,,,,,,,,,,,,,,,,,,,,,,,,,,,,,,,,,,,,,,,,,,,,,,,,,,,,,,,,,,,,,,,,,,,,1.6238,646.4472754,None,space,1,646.4472754,None,0.4459199,P010,FENCOG,1,Post,2021_Sep_13_1205,N-Back (New Version 2021),2021.1.4,119.8081153
,,,,Conditions/Version_1/twoback(2)_v1.xlsx,New rule: Press 'space' when you see 2-back (i.e. the same letter as the one that appeared 2 letters ago.),P,None,,,,,,,,,0,7,7,7,0,3,3,3,,,,,,,,,,,,,,,,,,,,,,,,,,,,,,,,,,,,,,,,,,,,,,,,,,,,,,,,,,,,,,,,,,,,,1.103,649.5623587,None,None,1,649.5623587,None,,P010,FENCOG,1,Post,2021_Sep_13_1205,N-Back (New Version 2021),2021.1.4,119.8081153
,,,,Conditions/Version_1/twoback(2)_v1.xlsx,New rule: Press 'space' when you see 2-back (i.e. the same letter as the one that appeared 2 letters ago.),p,None,,,,,,,,,0,7,7,7,0,4,4,4,,,,,,,,,,,,,,,,,,,,,,,,,,,,,,,,,,,,,,,,,,,,,,,,,,,,,,,,,,,,,,,,,,,,,1.9586,653.5336845,None,None,1,653.5336845,None,,P010,FENCOG,1,Post,2021_Sep_13_1205,N-Back (New Version 2021),2021.1.4,119.8081153
,,,,Conditions/Version_1/twoback(2)_v1.xlsx,New rule: Press 'space' when you see 2-back (i.e. the same letter as the one that appeared 2 letters ago.),H,None,,,,,,,,,0,7,7,7,0,5,5,5,,,,,,,,,,,,,,,,,,,,,,,,,,,,,,,,,,,,,,,,,,,,,,,,,,,,,,,,,,,,,,,,,,,,,1.9028,657.4427907,None,None,1,657.4427907,None,,P010,FENCOG,1,Post,2021_Sep_13_1205,N-Back (New Version 2021),2021.1.4,119.8081153
,,,,Conditions/Version_1/twoback(2)_v1.xlsx,New rule: Press 'space' when you see 2-back (i.e. the same letter as the one that appeared 2 letters ago.),g,None,,,,,,,,,0,7,7,7,0,6,6,6,,,,,,,,,,,,,,,,,,,,,,,,,,,,,,,,,,,,,,,,,,,,,,,,,,,,,,,,,,,,,,,,,,,,,1.4316,660.8750057,None,None,1,660.8750057,None,,P010,FENCOG,1,Post,2021_Sep_13_1205,N-Back (New Version 2021),2021.1.4,119.8081153
,,,,Conditions/Version_1/twoback(2)_v1.xlsx,New rule: Press 'space' when you see 2-back (i.e. the same letter as the one that appeared 2 letters ago.),j,None,,,,,,,,,0,7,7,7,0,7,7,7,,,,,,,,,,,,,,,,,,,,,,,,,,,,,,,,,,,,,,,,,,,,,,,,,,,,,,,,,,,,,,,,,,,,,1.1216,663.9992017,None,None,1,663.9992017,None,,P010,FENCOG,1,Post,2021_Sep_13_1205,N-Back (New Version 2021),2021.1.4,119.8081153
,,,,Conditions/Version_1/twoback(2)_v1.xlsx,New rule: Press 'space' when you see 2-back (i.e. the same letter as the one that appeared 2 letters ago.),g,space,,,,,,,,,0,7,7,7,0,8,8,8,,,,,,,,,,,,,,,,,,,,,,,,,,,,,,,,,,,,,,,,,,,,,,,,,,,,,,,,,,,,,,,,,,,,,1.909,667.9149598,None,space,1,667.9149598,None,0.889825,P010,FENCOG,1,Post,2021_Sep_13_1205,N-Back (New Version 2021),2021.1.4,119.8081153
,,,,Conditions/Version_1/twoback(2)_v1.xlsx,New rule: Press 'space' when you see 2-back (i.e. the same letter as the one that appeared 2 letters ago.),G,None,,,,,,,,,0,7,7,7,0,9,9,9,,,,,,,,,,,,,,,,,,,,,,,,,,,,,,,,,,,,,,,,,,,,,,,,,,,,,,,,,,,,,,,,,,,,,1.5184,671.4408817,None,None,1,671.4408817,None,,P010,FENCOG,1,Post,2021_Sep_13_1205,N-Back (New Version 2021),2021.1.4,119.8081153
,,,,Conditions/Version_1/twoback(2)_v1.xlsx,New rule: Press 'space' when you see 2-back (i.e. the same letter as the one that appeared 2 letters ago.),,,,,,,,,,,0,7,7,7,,,,,,,,,,,,,,,,,,,,,,,,,,,,,,,,,,,,,,,,,,,,,,,,,,,,,,,,,,,,,,,,,,,,,,,,,,,,,,,,,P010,FENCOG,1,Post,2021_Sep_13_1205,N-Back (New Version 2021),2021.1.4,119.8081153
,,,,Conditions/Version_1/threeback(3)_v1.xlsx,New rule: Press 'space' when you see 3-back (i.e. the same letter as the one that appeared 3 letters ago.),w,None,,,,,,,,,0,8,8,8,0,0,0,0,,,,,,,,,,,,,,,,,,,,,,,,,,,,,,,,,,,,,,,,,,,,,,,,,,,,,,,,,,,673.4683419,None,676.4561559,None,space,0.4688692,676.4561559,None,673.4683419,None,1.754,678.7039502,None,None,1,678.7039502,None,,P010,FENCOG,1,Post,2021_Sep_13_1205,N-Back (New Version 2021),2021.1.4,119.8081153
,,,,Conditions/Version_1/threeback(3)_v1.xlsx,New rule: Press 'space' when you see 3-back (i.e. the same letter as the one that appeared 3 letters ago.),p,None,,,,,,,,,0,8,8,8,0,1,1,1,,,,,,,,,,,,,,,,,,,,,,,,,,,,,,,,,,,,,,,,,,,,,,,,,,,,,,,,,,,,,,,,,,,,,1.0906,681.8026012,None,None,1,681.8026012,None,,P010,FENCOG,1,Post,2021_Sep_13_1205,N-Back (New Version 2021),2021.1.4,119.8081153
,,,,Conditions/Version_1/threeback(3)_v1.xlsx,New rule: Press 'space' when you see 3-back (i.e. the same letter as the one that appeared 3 letters ago.),P,None,,,,,,,,,0,8,8,8,0,2,2,2,,,,,,,,,,,,,,,,,,,,,,,,,,,,,,,,,,,,,,,,,,,,,,,,,,,,,,,,,,,,,,,,,,,,,1.5804,685.385453,None,None,1,685.385453,None,,P010,FENCOG,1,Post,2021_Sep_13_1205,N-Back (New Version 2021),2021.1.4,119.8081153
,,,,Conditions/Version_1/threeback(3)_v1.xlsx,New rule: Press 'space' when you see 3-back (i.e. the same letter as the one that appeared 3 letters ago.),i,None,,,,,,,,,0,8,8,8,0,3,3,3,,,,,,,,,,,,,,,,,,,,,,,,,,,,,,,,,,,,,,,,,,,,,,,,,,,,,,,,,,,,,,,,,,,,,1.8284,689.2263097,None,None,1,689.2263097,None,,P010,FENCOG,1,Post,2021_Sep_13_1205,N-Back (New Version 2021),2021.1.4,119.8081153
,,,,Conditions/Version_1/threeback(3)_v1.xlsx,New rule: Press 'space' when you see 3-back (i.e. the same letter as the one that appeared 3 letters ago.),f,None,,,,,,,,,0,8,8,8,0,4,4,4,,,,,,,,,,,,,,,,,,,,,,,,,,,,,,,,,,,,,,,,,,,,,,,,,,,,,,,,,,,,,,,,,,,,,1.8408,693.0738326,None,None,1,693.0738326,None,,P010,FENCOG,1,Post,2021_Sep_13_1205,N-Back (New Version 2021),2021.1.4,119.8081153
,,,,Conditions/Version_1/threeback(3)_v1.xlsx,New rule: Press 'space' when you see 3-back (i.e. the same letter as the one that appeared 3 letters ago.),o,None,,,,,,,,,0,8,8,8,0,5,5,5,,,,,,,,,,,,,,,,,,,,,,,,,,,,,,,,,,,,,,,,,,,,,,,,,,,,,,,,,,,,,,,,,,,,,1.6672,696.7486835,None,None,1,696.7486835,None,,P010,FENCOG,1,Post,2021_Sep_13_1205,N-Back (New Version 2021),2021.1.4,119.8081153
,,,,Conditions/Version_1/threeback(3)_v1.xlsx,New rule: Press 'space' when you see 3-back (i.e. the same letter as the one that appeared 3 letters ago.),w,None,,,,,,,,,0,8,8,8,0,6,6,6,,,,,,,,,,,,,,,,,,,,,,,,,,,,,,,,,,,,,,,,,,,,,,,,,,,,,,,,,,,,,,,,,,,,,1.5184,700.2820583,None,None,1,700.2820583,None,,P010,FENCOG,1,Post,2021_Sep_13_1205,N-Back (New Version 2021),2021.1.4,119.8081153
,,,,Conditions/Version_1/threeback(3)_v1.xlsx,New rule: Press 'space' when you see 3-back (i.e. the same letter as the one that appeared 3 letters ago.),F,space,,,,,,,,,0,8,8,8,0,7,7,7,,,,,,,,,,,,,,,,,,,,,,,,,,,,,,,,,,,,,,,,,,,,,,,,,,,,,,,,,,,,,,,,,,,,,1.4254,703.7213397,None,space,1,703.7213397,None,0.3958141,P010,FENCOG,1,Post,2021_Sep_13_1205,N-Back (New Version 2021),2021.1.4,119.8081153
,,,,Conditions/Version_1/threeback(3)_v1.xlsx,New rule: Press 'space' when you see 3-back (i.e. the same letter as the one that appeared 3 letters ago.),p,None,,,,,,,,,0,8,8,8,0,8,8,8,,,,,,,,,,,,,,,,,,,,,,,,,,,,,,,,,,,,,,,,,,,,,,,,,,,,,,,,,,,,,,,,,,,,,1.692,707.4276662,None,None,1,707.4276662,None,,P010,FENCOG,1,Post,2021_Sep_13_1205,N-Back (New Version 2021),2021.1.4,119.8081153
,,,,Conditions/Version_1/threeback(3)_v1.xlsx,New rule: Press 'space' when you see 3-back (i.e. the same letter as the one that appeared 3 letters ago.),W,space,,,,,,,,,0,8,8,8,0,9,9,9,,,,,,,,,,,,,,,,,,,,,,,,,,,,,,,,,,,,,,,,,,,,,,,,,,,,,,,,,,,,,,,,,,,,,1.661,711.0939784,None,space,1,711.0939784,None,1.3272098,P010,FENCOG,1,Post,2021_Sep_13_1205,N-Back (New Version 2021),2021.1.4,119.8081153
,,,,Conditions/Version_1/threeback(3)_v1.xlsx,New rule: Press 'space' when you see 3-back (i.e. the same letter as the one that appeared 3 letters ago.),,,,,,,,,,,0,8,8,8,,,,,,,,,,,,,,,,,,,,,,,,,,,,,,,,,,,,,,,,,,,,,,,,,,,,,,,,,,,,,,,,,,,,,,,,,,,,,,,,,P010,FENCOG,1,Post,2021_Sep_13_1205,N-Back (New Version 2021),2021.1.4,119.8081153
,,,,Conditions/Version_1/zeroback(3)_v1.xlsx,New rule: Press 'space' when you see the letter 'x' or 'X'.,X,space,,,,,,,,,0,9,9,9,0,0,0,0,,,,,,,,,,,,,,,,,,,,,,,,,,,,,,,,,,,,,,,,,,,,,,,,,,,,,,,,,,,713.1190167,None,716.1023726,None,space,0.7745011,716.1023726,None,713.1190167,None,1.4812,718.3869774,None,space,1,718.3869774,None,0.5778944,P010,FENCOG,1,Post,2021_Sep_13_1205,N-Back (New Version 2021),2021.1.4,119.8081153
,,,,Conditions/Version_1/zeroback(3)_v1.xlsx,New rule: Press 'space' when you see the letter 'x' or 'X'.,B,None,,,,,,,,,0,9,9,9,0,1,1,1,,,,,,,,,,,,,,,,,,,,,,,,,,,,,,,,,,,,,,,,,,,,,,,,,,,,,,,,,,,,,,,,,,,,,1.6362,722.0335371,None,None,1,722.0335371,None,,P010,FENCOG,1,Post,2021_Sep_13_1205,N-Back (New Version 2021),2021.1.4,119.8081153
,,,,Conditions/Version_1/zeroback(3)_v1.xlsx,New rule: Press 'space' when you see the letter 'x' or 'X'.,m,None,,,,,,,,,0,9,9,9,0,2,2,2,,,,,,,,,,,,,,,,,,,,,,,,,,,,,,,,,,,,,,,,,,,,,,,,,,,,,,,,,,,,,,,,,,,,,1.5556,725.5996277,None,None,1,725.5996277,None,,P010,FENCOG,1,Post,2021_Sep_13_1205,N-Back (New Version 2021),2021.1.4,119.8081153
,,,,Conditions/Version_1/zeroback(3)_v1.xlsx,New rule: Press 'space' when you see the letter 'x' or 'X'.,m,None,,,,,,,,,0,9,9,9,0,3,3,3,,,,,,,,,,,,,,,,,,,,,,,,,,,,,,,,,,,,,,,,,,,,,,,,,,,,,,,,,,,,,,,,,,,,,1.4068,729.0053644,None,None,1,729.0053644,None,,P010,FENCOG,1,Post,2021_Sep_13_1205,N-Back (New Version 2021),2021.1.4,119.8081153
,,,,Conditions/Version_1/zeroback(3)_v1.xlsx,New rule: Press 'space' when you see the letter 'x' or 'X'.,o,None,,,,,,,,,0,9,9,9,0,4,4,4,,,,,,,,,,,,,,,,,,,,,,,,,,,,,,,,,,,,,,,,,,,,,,,,,,,,,,,,,,,,,,,,,,,,,1.8408,732.8541807,None,None,1,732.8541807,None,,P010,FENCOG,1,Post,2021_Sep_13_1205,N-Back (New Version 2021),2021.1.4,119.8081153
,,,,Conditions/Version_1/zeroback(3)_v1.xlsx,New rule: Press 'space' when you see the letter 'x' or 'X'.,p,None,,,,,,,,,0,9,9,9,0,5,5,5,,,,,,,,,,,,,,,,,,,,,,,,,,,,,,,,,,,,,,,,,,,,,,,,,,,,,,,,,,,,,,,,,,,,,1.5928,736.45487,None,None,1,736.45487,None,,P010,FENCOG,1,Post,2021_Sep_13_1205,N-Back (New Version 2021),2021.1.4,119.8081153
,,,,Conditions/Version_1/zeroback(3)_v1.xlsx,New rule: Press 'space' when you see the letter 'x' or 'X'.,G,None,,,,,,,,,0,9,9,9,0,6,6,6,,,,,,,,,,,,,,,,,,,,,,,,,,,,,,,,,,,,,,,,,,,,,,,,,,,,,,,,,,,,,,,,,,,,,1.8718,740.336166,None,None,1,740.336166,None,,P010,FENCOG,1,Post,2021_Sep_13_1205,N-Back (New Version 2021),2021.1.4,119.8081153
,,,,Conditions/Version_1/zeroback(3)_v1.xlsx,New rule: Press 'space' when you see the letter 'x' or 'X'.,X,space,,,,,,,,,0,9,9,9,0,7,7,7,,,,,,,,,,,,,,,,,,,,,,,,,,,,,,,,,,,,,,,,,,,,,,,,,,,,,,,,,,,,,,,,,,,,,1.0968,743.4421767,None,space,1,743.4421767,None,0.4511964,P010,FENCOG,1,Post,2021_Sep_13_1205,N-Back (New Version 2021),2021.1.4,119.8081153
,,,,Conditions/Version_1/zeroback(3)_v1.xlsx,New rule: Press 'space' when you see the letter 'x' or 'X'.,p,None,,,,,,,,,0,9,9,9,0,8,8,8,,,,,,,,,,,,,,,,,,,,,,,,,,,,,,,,,,,,,,,,,,,,,,,,,,,,,,,,,,,,,,,,,,,,,1.3138,746.7578928,None,None,1,746.7578928,None,,P010,FENCOG,1,Post,2021_Sep_13_1205,N-Back (New Version 2021),2021.1.4,119.8081153
,,,,Conditions/Version_1/zeroback(3)_v1.xlsx,New rule: Press 'space' when you see the letter 'x' or 'X'.,x,space,,,,,,,,,0,9,9,9,0,9,9,9,,,,,,,,,,,,,,,,,,,,,,,,,,,,,,,,,,,,,,,,,,,,,,,,,,,,,,,,,,,,,,,,,,,,,1.1712,749.931994,None,space,1,749.931994,None,0.4011334,P010,FENCOG,1,Post,2021_Sep_13_1205,N-Back (New Version 2021),2021.1.4,119.8081153
,,,,Conditions/Version_1/zeroback(3)_v1.xlsx,New rule: Press 'space' when you see the letter 'x' or 'X'.,,,,,,,,,,,0,9,9,9,,,,,,,,,,,,,,,,,,,,,,,,,,,,,,,,,,,,,,,,,,,,,,,,,,,,,,,,,,,,,,,,,,,,,,,,,,,,,,,,,P010,FENCOG,1,Post,2021_Sep_13_1205,N-Back (New Version 2021),2021.1.4,119.8081153
,,,,Conditions/Version_1/twoback(3)_v1.xlsx,New rule: Press 'space' when you see 2-back (i.e. the same letter as the one that appeared 2 letters ago.),e,None,,,,,,,,,0,10,10,10,0,0,0,0,,,,,,,,,,,,,,,,,,,,,,,,,,,,,,,,,,,,,,,,,,,,,,,,,,,,,,,,,,,751.9525674,None,754.9413425,None,space,0.3998066,754.9413425,None,751.9525674,None,1.6052,756.9727259,None,None,1,756.9727259,None,,P010,FENCOG,1,Post,2021_Sep_13_1205,N-Back (New Version 2021),2021.1.4,119.8081153
,,,,Conditions/Version_1/twoback(3)_v1.xlsx,New rule: Press 'space' when you see 2-back (i.e. the same letter as the one that appeared 2 letters ago.),o,None,,,,,,,,,0,10,10,10,0,1,1,1,,,,,,,,,,,,,,,,,,,,,,,,,,,,,,,,,,,,,,,,,,,,,,,,,,,,,,,,,,,,,,,,,,,,,1.1712,760.1552723,None,None,1,760.1552723,None,,P010,FENCOG,1,Post,2021_Sep_13_1205,N-Back (New Version 2021),2021.1.4,119.8081153
,,,,Conditions/Version_1/twoback(3)_v1.xlsx,New rule: Press 'space' when you see 2-back (i.e. the same letter as the one that appeared 2 letters ago.),P,None,,,,,,,,,0,10,10,10,0,2,2,2,,,,,,,,,,,,,,,,,,,,,,,,,,,,,,,,,,,,,,,,,,,,,,,,,,,,,,,,,,,,,,,,,,,,,1.3076,763.4736432,None,None,1,763.4736432,None,,P010,FENCOG,1,Post,2021_Sep_13_1205,N-Back (New Version 2021),2021.1.4,119.8081153
,,,,Conditions/Version_1/twoback(3)_v1.xlsx,New rule: Press 'space' when you see 2-back (i.e. the same letter as the one that appeared 2 letters ago.),z,None,,,,,,,,,0,10,10,10,0,3,3,3,,,,,,,,,,,,,,,,,,,,,,,,,,,,,,,,,,,,,,,,,,,,,,,,,,,,,,,,,,,,,,,,,,,,,1.63,767.1129704,None,None,1,767.1129704,None,,P010,FENCOG,1,Post,2021_Sep_13_1205,N-Back (New Version 2021),2021.1.4,119.8081153
,,,,Conditions/Version_1/twoback(3)_v1.xlsx,New rule: Press 'space' when you see 2-back (i.e. the same letter as the one that appeared 2 letters ago.),X,None,,,,,,,,,0,10,10,10,0,4,4,4,,,,,,,,,,,,,,,,,,,,,,,,,,,,,,,,,,,,,,,,,,,,,,,,,,,,,,,,,,,,,,,,,,,,,1.568,770.6990766,None,None,1,770.6990766,None,,P010,FENCOG,1,Post,2021_Sep_13_1205,N-Back (New Version 2021),2021.1.4,119.8081153
,,,,Conditions/Version_1/twoback(3)_v1.xlsx,New rule: Press 'space' when you see 2-back (i.e. the same letter as the one that appeared 2 letters ago.),z,space,,,,,,,,,0,10,10,10,0,5,5,5,,,,,,,,,,,,,,,,,,,,,,,,,,,,,,,,,,,,,,,,,,,,,,,,,,,,,,,,,,,,,,,,,,,,,1.6796,774.3849288,None,space,1,774.3849288,None,0.4364369,P010,FENCOG,1,Post,2021_Sep_13_1205,N-Back (New Version 2021),2021.1.4,119.8081153
,,,,Conditions/Version_1/twoback(3)_v1.xlsx,New rule: Press 'space' when you see 2-back (i.e. the same letter as the one that appeared 2 letters ago.),x,space,,,,,,,,,0,10,10,10,0,6,6,6,,,,,,,,,,,,,,,,,,,,,,,,,,,,,,,,,,,,,,,,,,,,,,,,,,,,,,,,,,,,,,,,,,,,,1.134,777.5334428,None,space,1,777.5334428,None,0.8316401,P010,FENCOG,1,Post,2021_Sep_13_1205,N-Back (New Version 2021),2021.1.4,119.8081153
,,,,Conditions/Version_1/twoback(3)_v1.xlsx,New rule: Press 'space' when you see 2-back (i.e. the same letter as the one that appeared 2 letters ago.),c,None,,,,,,,,,0,10,10,10,0,7,7,7,,,,,,,,,,,,,,,,,,,,,,,,,,,,,,,,,,,,,,,,,,,,,,,,,,,,,,,,,,,,,,,,,,,,,1.661,781.2075114,None,None,1,781.2075114,None,,P010,FENCOG,1,Post,2021_Sep_13_1205,N-Back (New Version 2021),2021.1.4,119.8081153
,,,,Conditions/Version_1/twoback(3)_v1.xlsx,New rule: Press 'space' when you see 2-back (i.e. the same letter as the one that appeared 2 letters ago.),i,None,,,,,,,,,0,10,10,10,0,8,8,8,,,,,,,,,,,,,,,,,,,,,,,,,,,,,,,,,,,,,,,,,,,,,,,,,,,,,,,,,,,,,,,,,,,,,1.4626,784.6800464,None,None,1,784.6800464,None,,P010,FENCOG,1,Post,2021_Sep_13_1205,N-Back (New Version 2021),2021.1.4,119.8081153
,,,,Conditions/Version_1/twoback(3)_v1.xlsx,New rule: Press 'space' when you see 2-back (i.e. the same letter as the one that appeared 2 letters ago.),C,space,,,,,,,,,0,10,10,10,0,9,9,9,,,,,,,,,,,,,,,,,,,,,,,,,,,,,,,,,,,,,,,,,,,,,,,,,,,,,,,,,,,,,,,,,,,,,1.7912,788.4800135,None,space,1,788.4800135,None,0.3650415,P010,FENCOG,1,Post,2021_Sep_13_1205,N-Back (New Version 2021),2021.1.4,119.8081153
,,,,Conditions/Version_1/twoback(3)_v1.xlsx,New rule: Press 'space' when you see 2-back (i.e. the same letter as the one that appeared 2 letters ago.),,,,,,,,,,,0,10,10,10,,,,,,,,,,,,,,,,,,,,,,,,,,,,,,,,,,,,,,,,,,,,,,,,,,,,,,,,,,,,,,,,,,,,,,,,,,,,,,,,,P010,FENCOG,1,Post,2021_Sep_13_1205,N-Back (New Version 2021),2021.1.4,119.8081153
,,,,Conditions/Version_1/oneback(3)_v1.xlsx,New rule: Press 'space' when you see 1-back (i.e. the same letter as the one that appeared 1 letter ago.),o,None,,,,,,,,,0,11,11,11,0,0,0,0,,,,,,,,,,,,,,,,,,,,,,,,,,,,,,,,,,,,,,,,,,,,,,,,,,,,,,,,,,,790.5124088,None,793.4959806,None,space,0.2051364,793.4959806,None,790.5124088,None,1.9028,795.6289769,None,None,1,795.6289769,None,,P010,FENCOG,1,Post,2021_Sep_13_1205,N-Back (New Version 2021),2021.1.4,119.8081153
,,,,Conditions/Version_1/oneback(3)_v1.xlsx,New rule: Press 'space' when you see 1-back (i.e. the same letter as the one that appeared 1 letter ago.),O,space,,,,,,,,,0,11,11,11,0,1,1,1,,,,,,,,,,,,,,,,,,,,,,,,,,,,,,,,,,,,,,,,,,,,,,,,,,,,,,,,,,,,,,,,,,,,,1.506,799.1450556,None,space,1,799.1450556,None,0.3713137,P010,FENCOG,1,Post,2021_Sep_13_1205,N-Back (New Version 2021),2021.1.4,119.8081153
,,,,Conditions/Version_1/oneback(3)_v1.xlsx,New rule: Press 'space' when you see 1-back (i.e. the same letter as the one that appeared 1 letter ago.),h,None,,,,,,,,,0,11,11,11,0,2,2,2,,,,,,,,,,,,,,,,,,,,,,,,,,,,,,,,,,,,,,,,,,,,,,,,,,,,,,,,,,,,,,,,,,,,,1.816,802.9662965,None,None,1,802.9662965,None,,P010,FENCOG,1,Post,2021_Sep_13_1205,N-Back (New Version 2021),2021.1.4,119.8081153
,,,,Conditions/Version_1/oneback(3)_v1.xlsx,New rule: Press 'space' when you see 1-back (i.e. the same letter as the one that appeared 1 letter ago.),g,None,,,,,,,,,0,11,11,11,0,3,3,3,,,,,,,,,,,,,,,,,,,,,,,,,,,,,,,,,,,,,,,,,,,,,,,,,,,,,,,,,,,,,,,,,,,,,1.5742,806.5402335,None,None,1,806.5402335,None,,P010,FENCOG,1,Post,2021_Sep_13_1205,N-Back (New Version 2021),2021.1.4,119.8081153
,,,,Conditions/Version_1/oneback(3)_v1.xlsx,New rule: Press 'space' when you see 1-back (i.e. the same letter as the one that appeared 1 letter ago.),n,None,,,,,,,,,0,11,11,11,0,4,4,4,,,,,,,,,,,,,,,,,,,,,,,,,,,,,,,,,,,,,,,,,,,,,,,,,,,,,,,,,,,,,,,,,,,,,1.5494,810.0890229,None,None,1,810.0890229,None,,P010,FENCOG,1,Post,2021_Sep_13_1205,N-Back (New Version 2021),2021.1.4,119.8081153
,,,,Conditions/Version_1/oneback(3)_v1.xlsx,New rule: Press 'space' when you see 1-back (i.e. the same letter as the one that appeared 1 letter ago.),z,None,,,,,,,,,0,11,11,11,0,5,5,5,,,,,,,,,,,,,,,,,,,,,,,,,,,,,,,,,,,,,,,,,,,,,,,,,,,,,,,,,,,,,,,,,,,,,1.0844,813.1812136,None,None,1,813.1812136,None,,P010,FENCOG,1,Post,2021_Sep_13_1205,N-Back (New Version 2021),2021.1.4,119.8081153
,,,,Conditions/Version_1/oneback(3)_v1.xlsx,New rule: Press 'space' when you see 1-back (i.e. the same letter as the one that appeared 1 letter ago.),X,None,,,,,,,,,0,11,11,11,0,6,6,6,,,,,,,,,,,,,,,,,,,,,,,,,,,,,,,,,,,,,,,,,,,,,,,,,,,,,,,,,,,,,,,,,,,,,1.351,816.545622,None,None,1,816.545622,None,,P010,FENCOG,1,Post,2021_Sep_13_1205,N-Back (New Version 2021),2021.1.4,119.8081153
,,,,Conditions/Version_1/oneback(3)_v1.xlsx,New rule: Press 'space' when you see 1-back (i.e. the same letter as the one that appeared 1 letter ago.),r,None,,,,,,,,,0,11,11,11,0,7,7,7,,,,,,,,,,,,,,,,,,,,,,,,,,,,,,,,,,,,,,,,,,,,,,,,,,,,,,,,,,,,,,,,,,,,,1.0906,819.6386855,None,None,1,819.6386855,None,,P010,FENCOG,1,Post,2021_Sep_13_1205,N-Back (New Version 2021),2021.1.4,119.8081153
,,,,Conditions/Version_1/oneback(3)_v1.xlsx,New rule: Press 'space' when you see 1-back (i.e. the same letter as the one that appeared 1 letter ago.),r,space,,,,,,,,,0,11,11,11,0,8,8,8,,,,,,,,,,,,,,,,,,,,,,,,,,,,,,,,,,,,,,,,,,,,,,,,,,,,,,,,,,,,,,,,,,,,,1.2766,822.9270167,None,space,1,822.9270167,None,0.6457311,P010,FENCOG,1,Post,2021_Sep_13_1205,N-Back (New Version 2021),2021.1.4,119.8081153
,,,,Conditions/Version_1/oneback(3)_v1.xlsx,New rule: Press 'space' when you see 1-back (i.e. the same letter as the one that appeared 1 letter ago.),P,None,,,,,,,,,0,11,11,11,0,9,9,9,,,,,,,,,,,,,,,,,,,,,,,,,,,,,,,,,,,,,,,,,,,,,,,,,,,,,,,,,,,,,,,,,,,,,1.4998,826.4354099,None,None,1,826.4354099,None,,P010,FENCOG,1,Post,2021_Sep_13_1205,N-Back (New Version 2021),2021.1.4,119.8081153
,,,,Conditions/Version_1/oneback(3)_v1.xlsx,New rule: Press 'space' when you see 1-back (i.e. the same letter as the one that appeared 1 letter ago.),,,,,,,,,,,0,11,11,11,,,,,,,,,,,,,,,,,,,,,,,,,,,,,,,,,,,,,,,,,,,,,,,,,,,,,,,,,,,,,,,,,,,,,,,,,,,,,,,,,P010,FENCOG,1,Post,2021_Sep_13_1205,N-Back (New Version 2021),2021.1.4,119.8081153
,,,,Conditions/Version_1/twoback(4)_v1.xlsx,New rule: Press 'space' when you see 2-back (i.e. the same letter as the one that appeared 2 letters ago.),r,None,,,,,,,,,0,12,12,12,0,0,0,0,,,,,,,,,,,,,,,,,,,,,,,,,,,,,,,,,,,,,,,,,,,,,,,,,,,,,,,,,,,828.4673155,None,831.4514174,None,space,0.5134286,831.4514174,None,828.4673155,None,1.9586,833.9499795,None,None,1,833.9499795,None,,P010,FENCOG,1,Post,2021_Sep_13_1205,N-Back (New Version 2021),2021.1.4,119.8081153
,,,,Conditions/Version_1/twoback(4)_v1.xlsx,New rule: Press 'space' when you see 2-back (i.e. the same letter as the one that appeared 2 letters ago.),T,None,,,,,,,,,0,12,12,12,0,1,1,1,,,,,,,,,,,,,,,,,,,,,,,,,,,,,,,,,,,,,,,,,,,,,,,,,,,,,,,,,,,,,,,,,,,,,1.3572,837.3156593,None,None,1,837.3156593,None,,P010,FENCOG,1,Post,2021_Sep_13_1205,N-Back (New Version 2021),2021.1.4,119.8081153
,,,,Conditions/Version_1/twoback(4)_v1.xlsx,New rule: Press 'space' when you see 2-back (i.e. the same letter as the one that appeared 2 letters ago.),o,None,,,,,,,,,0,12,12,12,0,2,2,2,,,,,,,,,,,,,,,,,,,,,,,,,,,,,,,,,,,,,,,,,,,,,,,,,,,,,,,,,,,,,,,,,,,,,1.7168,841.0409307,None,None,1,841.0409307,None,,P010,FENCOG,1,Post,2021_Sep_13_1205,N-Back (New Version 2021),2021.1.4,119.8081153
,,,,Conditions/Version_1/twoback(4)_v1.xlsx,New rule: Press 'space' when you see 2-back (i.e. the same letter as the one that appeared 2 letters ago.),p,None,,,,,,,,,0,12,12,12,0,3,3,3,,,,,,,,,,,,,,,,,,,,,,,,,,,,,,,,,,,,,,,,,,,,,,,,,,,,,,,,,,,,,,,,,,,,,1.6424,844.6955395,None,None,1,844.6955395,None,,P010,FENCOG,1,Post,2021_Sep_13_1205,N-Back (New Version 2021),2021.1.4,119.8081153
,,,,Conditions/Version_1/twoback(4)_v1.xlsx,New rule: Press 'space' when you see 2-back (i.e. the same letter as the one that appeared 2 letters ago.),p,None,,,,,,,,,0,12,12,12,0,4,4,4,,,,,,,,,,,,,,,,,,,,,,,,,,,,,,,,,,,,,,,,,,,,,,,,,,,,,,,,,,,,,,,,,,,,,1.1526,847.8531921,None,space,0,847.8531921,None,0.8318064,P010,FENCOG,1,Post,2021_Sep_13_1205,N-Back (New Version 2021),2021.1.4,119.8081153
,,,,Conditions/Version_1/twoback(4)_v1.xlsx,New rule: Press 'space' when you see 2-back (i.e. the same letter as the one that appeared 2 letters ago.),y,None,,,,,,,,,0,12,12,12,0,5,5,5,,,,,,,,,,,,,,,,,,,,,,,,,,,,,,,,,,,,,,,,,,,,,,,,,,,,,,,,,,,,,,,,,,,,,1.3882,851.2437144,None,None,1,851.2437144,None,,P010,FENCOG,1,Post,2021_Sep_13_1205,N-Back (New Version 2021),2021.1.4,119.8081153
,,,,Conditions/Version_1/twoback(4)_v1.xlsx,New rule: Press 'space' when you see 2-back (i.e. the same letter as the one that appeared 2 letters ago.),P,space,,,,,,,,,0,12,12,12,0,6,6,6,,,,,,,,,,,,,,,,,,,,,,,,,,,,,,,,,,,,,,,,,,,,,,,,,,,,,,,,,,,,,,,,,,,,,1.7292,854.9768304,None,space,1,854.9768304,None,0.7480561,P010,FENCOG,1,Post,2021_Sep_13_1205,N-Back (New Version 2021),2021.1.4,119.8081153
,,,,Conditions/Version_1/twoback(4)_v1.xlsx,New rule: Press 'space' when you see 2-back (i.e. the same letter as the one that appeared 2 letters ago.),y,None,,,,,,,,,0,12,12,12,0,7,7,7,,,,,,,,,,,,,,,,,,,,,,,,,,,,,,,,,,,,,,,,,,,,,,,,,,,,,,,,,,,,,,,,,,,,,1.8036,858.8364806,None,space,0,858.8364806,None,0.7927111,P010,FENCOG,1,Post,2021_Sep_13_1205,N-Back (New Version 2021),2021.1.4,119.8081153
,,,,Conditions/Version_1/twoback(4)_v1.xlsx,New rule: Press 'space' when you see 2-back (i.e. the same letter as the one that appeared 2 letters ago.),y,space,,,,,,,,,0,12,12,12,0,8,8,8,,,,,,,,,,,,,,,,,,,,,,,,,,,,,,,,,,,,,,,,,,,,,,,,,,,,,,,,,,,,,,,,,,,,,1.4812,862.2830302,None,space,1,862.2830302,None,1.481913,P010,FENCOG,1,Post,2021_Sep_13_1205,N-Back (New Version 2021),2021.1.4,119.8081153
,,,,Conditions/Version_1/twoback(4)_v1.xlsx,New rule: Press 'space' when you see 2-back (i.e. the same letter as the one that appeared 2 letters ago.),,,,,,,,,,,0,12,12,12,,,,,,,,,,,,,,,,,,,,,,,,,,,,,,,,,,,,,,,,,,,,,,,,,,,,,,,,,,,,,,,,,,,,,,,,,,,,,,,,,P010,FENCOG,1,Post,2021_Sep_13_1205,N-Back (New Version 2021),2021.1.4,119.8081153
,,,,Conditions/Version_1/zeroback(4)_v1.xlsx,New rule: Press 'space' when you see the letter 'x' or 'X'.,o,None,,,,,,,,,0,13,13,13,0,0,0,0,,,,,,,,,,,,,,,,,,,,,,,,,,,,,,,,,,,,,,,,,,,,,,,,,,,,,,,,,,,864.3096334,None,867.3002894,None,space,0.2965689,867.3002894,None,864.3096334,None,1.6362,869.2559395,None,None,1,869.2559395,None,,P010,FENCOG,1,Post,2021_Sep_13_1205,N-Back (New Version 2021),2021.1.4,119.8081153
,,,,Conditions/Version_1/zeroback(4)_v1.xlsx,New rule: Press 'space' when you see the letter 'x' or 'X'.,X,space,,,,,,,,,0,13,13,13,0,1,1,1,,,,,,,,,,,,,,,,,,,,,,,,,,,,,,,,,,,,,,,,,,,,,,,,,,,,,,,,,,,,,,,,,,,,,1.0348,872.3040336,None,space,1,872.3040336,None,0.365007,P010,FENCOG,1,Post,2021_Sep_13_1205,N-Back (New Version 2021),2021.1.4,119.8081153
,,,,Conditions/Version_1/zeroback(4)_v1.xlsx,New rule: Press 'space' when you see the letter 'x' or 'X'.,p,None,,,,,,,,,0,13,13,13,0,2,2,2,,,,,,,,,,,,,,,,,,,,,,,,,,,,,,,,,,,,,,,,,,,,,,,,,,,,,,,,,,,,,,,,,,,,,1.1278,875.4375978,None,None,1,875.4375978,None,,P010,FENCOG,1,Post,2021_Sep_13_1205,N-Back (New Version 2021),2021.1.4,119.8081153
,,,,Conditions/Version_1/zeroback(4)_v1.xlsx,New rule: Press 'space' when you see the letter 'x' or 'X'.,m,None,,,,,,,,,0,13,13,13,0,3,3,3,,,,,,,,,,,,,,,,,,,,,,,,,,,,,,,,,,,,,,,,,,,,,,,,,,,,,,,,,,,,,,,,,,,,,1.7354,879.1879985,None,None,1,879.1879985,None,,P010,FENCOG,1,Post,2021_Sep_13_1205,N-Back (New Version 2021),2021.1.4,119.8081153
,,,,Conditions/Version_1/zeroback(4)_v1.xlsx,New rule: Press 'space' when you see the letter 'x' or 'X'.,n,None,,,,,,,,,0,13,13,13,0,4,4,4,,,,,,,,,,,,,,,,,,,,,,,,,,,,,,,,,,,,,,,,,,,,,,,,,,,,,,,,,,,,,,,,,,,,,1.0596,882.2511884,None,None,1,882.2511884,None,,P010,FENCOG,1,Post,2021_Sep_13_1205,N-Back (New Version 2021),2021.1.4,119.8081153
,,,,Conditions/Version_1/zeroback(4)_v1.xlsx,New rule: Press 'space' when you see the letter 'x' or 'X'.,m,None,,,,,,,,,0,13,13,13,0,5,5,5,,,,,,,,,,,,,,,,,,,,,,,,,,,,,,,,,,,,,,,,,,,,,,,,,,,,,,,,,,,,,,,,,,,,,1.847,886.1000628,None,None,1,886.1000628,None,,P010,FENCOG,1,Post,2021_Sep_13_1205,N-Back (New Version 2021),2021.1.4,119.8081153
,,,,Conditions/Version_1/zeroback(4)_v1.xlsx,New rule: Press 'space' when you see the letter 'x' or 'X'.,C,None,,,,,,,,,0,13,13,13,0,6,6,6,,,,,,,,,,,,,,,,,,,,,,,,,,,,,,,,,,,,,,,,,,,,,,,,,,,,,,,,,,,,,,,,,,,,,1.4812,889.590712,None,None,1,889.590712,None,,P010,FENCOG,1,Post,2021_Sep_13_1205,N-Back (New Version 2021),2021.1.4,119.8081153
,,,,Conditions/Version_1/zeroback(4)_v1.xlsx,New rule: Press 'space' when you see the letter 'x' or 'X'.,m,None,,,,,,,,,0,13,13,13,0,7,7,7,,,,,,,,,,,,,,,,,,,,,,,,,,,,,,,,,,,,,,,,,,,,,,,,,,,,,,,,,,,,,,,,,,,,,1.2828,892.8730577,None,None,1,892.8730577,None,,P010,FENCOG,1,Post,2021_Sep_13_1205,N-Back (New Version 2021),2021.1.4,119.8081153
,,,,Conditions/Version_1/zeroback(4)_v1.xlsx,New rule: Press 'space' when you see the letter 'x' or 'X'.,p,None,,,,,,,,,0,13,13,13,0,8,8,8,,,,,,,,,,,,,,,,,,,,,,,,,,,,,,,,,,,,,,,,,,,,,,,,,,,,,,,,,,,,,,,,,,,,,1.227,896.1054306,None,None,1,896.1054306,None,,P010,FENCOG,1,Post,2021_Sep_13_1205,N-Back (New Version 2021),2021.1.4,119.8081153
,,,,Conditions/Version_1/zeroback(4)_v1.xlsx,New rule: Press 'space' when you see the letter 'x' or 'X'.,X,space,,,,,,,,,0,13,13,13,0,9,9,9,,,,,,,,,,,,,,,,,,,,,,,,,,,,,,,,,,,,,,,,,,,,,,,,,,,,,,,,,,,,,,,,,,,,,1.351,899.4626707,None,space,1,899.4626707,None,0.4542738,P010,FENCOG,1,Post,2021_Sep_13_1205,N-Back (New Version 2021),2021.1.4,119.8081153
,,,,Conditions/Version_1/zeroback(4)_v1.xlsx,New rule: Press 'space' when you see the letter 'x' or 'X'.,,,,,,,,,,,0,13,13,13,,,,,,,,,,,,,,,,,,,,,,,,,,,,,,,,,,,,,,,,,,,,,,,,,,,,,,,,,,,,,,,,,,,,,,,,,,,,,,,,,P010,FENCOG,1,Post,2021_Sep_13_1205,N-Back (New Version 2021),2021.1.4,119.8081153
,,,,Conditions/Version_1/oneback(4)_v1.xlsx,New rule: Press 'space' when you see 1-back (i.e. the same letter as the one that appeared 1 letter ago.),w,None,,,,,,,,,0,14,14,14,0,0,0,0,,,,,,,,,,,,,,,,,,,,,,,,,,,,,,,,,,,,,,,,,,,,,,,,,,,,,,,,,,,901.4846833,None,904.4727458,None,space,3.5242844,904.4727458,None,901.4846833,None,1.3882,909.4120035,None,None,1,909.4120035,None,,P010,FENCOG,1,Post,2021_Sep_13_1205,N-Back (New Version 2021),2021.1.4,119.8081153
,,,,Conditions/Version_1/oneback(4)_v1.xlsx,New rule: Press 'space' when you see 1-back (i.e. the same letter as the one that appeared 1 letter ago.),q,None,,,,,,,,,0,14,14,14,0,1,1,1,,,,,,,,,,,,,,,,,,,,,,,,,,,,,,,,,,,,,,,,,,,,,,,,,,,,,,,,,,,,,,,,,,,,,1.4626,912.8863792,None,None,1,912.8863792,None,,P010,FENCOG,1,Post,2021_Sep_13_1205,N-Back (New Version 2021),2021.1.4,119.8081153
,,,,Conditions/Version_1/oneback(4)_v1.xlsx,New rule: Press 'space' when you see 1-back (i.e. the same letter as the one that appeared 1 letter ago.),i,None,,,,,,,,,0,14,14,14,0,2,2,2,,,,,,,,,,,,,,,,,,,,,,,,,,,,,,,,,,,,,,,,,,,,,,,,,,,,,,,,,,,,,,,,,,,,,1.01,915.9077136,None,None,1,915.9077136,None,,P010,FENCOG,1,Post,2021_Sep_13_1205,N-Back (New Version 2021),2021.1.4,119.8081153
,,,,Conditions/Version_1/oneback(4)_v1.xlsx,New rule: Press 'space' when you see 1-back (i.e. the same letter as the one that appeared 1 letter ago.),t,None,,,,,,,,,0,14,14,14,0,3,3,3,,,,,,,,,,,,,,,,,,,,,,,,,,,,,,,,,,,,,,,,,,,,,,,,,,,,,,,,,,,,,,,,,,,,,1.754,919.671645,None,None,1,919.671645,None,,P010,FENCOG,1,Post,2021_Sep_13_1205,N-Back (New Version 2021),2021.1.4,119.8081153
,,,,Conditions/Version_1/oneback(4)_v1.xlsx,New rule: Press 'space' when you see 1-back (i.e. the same letter as the one that appeared 1 letter ago.),v,None,,,,,,,,,0,14,14,14,0,4,4,4,,,,,,,,,,,,,,,,,,,,,,,,,,,,,,,,,,,,,,,,,,,,,,,,,,,,,,,,,,,,,,,,,,,,,1.8346,923.5144456,None,None,1,923.5144456,None,,P010,FENCOG,1,Post,2021_Sep_13_1205,N-Back (New Version 2021),2021.1.4,119.8081153
,,,,Conditions/Version_1/oneback(4)_v1.xlsx,New rule: Press 'space' when you see 1-back (i.e. the same letter as the one that appeared 1 letter ago.),V,space,,,,,,,,,0,14,14,14,0,5,5,5,,,,,,,,,,,,,,,,,,,,,,,,,,,,,,,,,,,,,,,,,,,,,,,,,,,,,,,,,,,,,,,,,,,,,1.2766,926.7995082,None,space,1,926.7995082,None,0.7496243,P010,FENCOG,1,Post,2021_Sep_13_1205,N-Back (New Version 2021),2021.1.4,119.8081153
,,,,Conditions/Version_1/oneback(4)_v1.xlsx,New rule: Press 'space' when you see 1-back (i.e. the same letter as the one that appeared 1 letter ago.),v,space,,,,,,,,,0,14,14,14,0,6,6,6,,,,,,,,,,,,,,,,,,,,,,,,,,,,,,,,,,,,,,,,,,,,,,,,,,,,,,,,,,,,,,,,,,,,,1.7788,930.588053,None,space,1,930.588053,None,0.5773062,P010,FENCOG,1,Post,2021_Sep_13_1205,N-Back (New Version 2021),2021.1.4,119.8081153
,,,,Conditions/Version_1/oneback(4)_v1.xlsx,New rule: Press 'space' when you see 1-back (i.e. the same letter as the one that appeared 1 letter ago.),p,None,,,,,,,,,0,14,14,14,0,7,7,7,,,,,,,,,,,,,,,,,,,,,,,,,,,,,,,,,,,,,,,,,,,,,,,,,,,,,,,,,,,,,,,,,,,,,1.7726,934.3617633,None,None,1,934.3617633,None,,P010,FENCOG,1,Post,2021_Sep_13_1205,N-Back (New Version 2021),2021.1.4,119.8081153
,,,,Conditions/Version_1/oneback(4)_v1.xlsx,New rule: Press 'space' when you see 1-back (i.e. the same letter as the one that appeared 1 letter ago.),w,None,,,,,,,,,0,14,14,14,0,8,8,8,,,,,,,,,,,,,,,,,,,,,,,,,,,,,,,,,,,,,,,,,,,,,,,,,,,,,,,,,,,,,,,,,,,,,1.2952,937.6683915,None,None,1,937.6683915,None,,P010,FENCOG,1,Post,2021_Sep_13_1205,N-Back (New Version 2021),2021.1.4,119.8081153
,,,,Conditions/Version_1/oneback(4)_v1.xlsx,New rule: Press 'space' when you see 1-back (i.e. the same letter as the one that appeared 1 letter ago.),W,space,,,,,,,,,0,14,14,14,0,9,9,9,,,,,,,,,,,,,,,,,,,,,,,,,,,,,,,,,,,,,,,,,,,,,,,,,,,,,,,,,,,,,,,,,,,,,1.6486,941.3170858,None,space,1,941.3170858,None,0.4956297,P010,FENCOG,1,Post,2021_Sep_13_1205,N-Back (New Version 2021),2021.1.4,119.8081153
,,,,Conditions/Version_1/oneback(4)_v1.xlsx,New rule: Press 'space' when you see 1-back (i.e. the same letter as the one that appeared 1 letter ago.),,,,,,,,,,,0,14,14,14,,,,,,,,,,,,,,,,,,,,,,,,,,,,,,,,,,,,,,,,,,,,,,,,,,,,,,,,,,,,,,,,,,,,,,,,,,,,,,,,,P010,FENCOG,1,Post,2021_Sep_13_1205,N-Back (New Version 2021),2021.1.4,119.8081153
,,,,Conditions/Version_1/threeback(4)_v1.xlsx,New rule: Press 'space' when you see 3-back (i.e. the same letter as the one that appeared 3 letters ago.),A,None,,,,,,,,,0,15,15,15,0,0,0,0,,,,,,,,,,,,,,,,,,,,,,,,,,,,,,,,,,,,,,,,,,,,,,,,,,,,,,,,,,,943.3523701,None,946.3346702,None,space,0.3501057,946.3346702,None,943.3523701,None,1.5184,948.225298,None,None,1,948.225298,None,,P010,FENCOG,1,Post,2021_Sep_13_1205,N-Back (New Version 2021),2021.1.4,119.8081153
,,,,Conditions/Version_1/threeback(4)_v1.xlsx,New rule: Press 'space' when you see 3-back (i.e. the same letter as the one that appeared 3 letters ago.),n,None,,,,,,,,,0,15,15,15,0,1,1,1,,,,,,,,,,,,,,,,,,,,,,,,,,,,,,,,,,,,,,,,,,,,,,,,,,,,,,,,,,,,,,,,,,,,,1.258,951.4890835,None,None,1,951.4890835,None,,P010,FENCOG,1,Post,2021_Sep_13_1205,N-Back (New Version 2021),2021.1.4,119.8081153
,,,,Conditions/Version_1/threeback(4)_v1.xlsx,New rule: Press 'space' when you see 3-back (i.e. the same letter as the one that appeared 3 letters ago.),g,None,,,,,,,,,0,15,15,15,0,2,2,2,,,,,,,,,,,,,,,,,,,,,,,,,,,,,,,,,,,,,,,,,,,,,,,,,,,,,,,,,,,,,,,,,,,,,1.5928,955.0946947,None,None,1,955.0946947,None,,P010,FENCOG,1,Post,2021_Sep_13_1205,N-Back (New Version 2021),2021.1.4,119.8081153
,,,,Conditions/Version_1/threeback(4)_v1.xlsx,New rule: Press 'space' when you see 3-back (i.e. the same letter as the one that appeared 3 letters ago.),A,space,,,,,,,,,0,15,15,15,0,3,3,3,,,,,,,,,,,,,,,,,,,,,,,,,,,,,,,,,,,,,,,,,,,,,,,,,,,,,,,,,,,,,,,,,,,,,1.8966,958.9961771,None,space,1,958.9961771,None,0.8160678,P010,FENCOG,1,Post,2021_Sep_13_1205,N-Back (New Version 2021),2021.1.4,119.8081153
,,,,Conditions/Version_1/threeback(4)_v1.xlsx,New rule: Press 'space' when you see 3-back (i.e. the same letter as the one that appeared 3 letters ago.),p,None,,,,,,,,,0,15,15,15,0,4,4,4,,,,,,,,,,,,,,,,,,,,,,,,,,,,,,,,,,,,,,,,,,,,,,,,,,,,,,,,,,,,,,,,,,,,,1.7044,962.7111173,None,None,1,962.7111173,None,,P010,FENCOG,1,Post,2021_Sep_13_1205,N-Back (New Version 2021),2021.1.4,119.8081153
,,,,Conditions/Version_1/threeback(4)_v1.xlsx,New rule: Press 'space' when you see 3-back (i.e. the same letter as the one that appeared 3 letters ago.),O,None,,,,,,,,,0,15,15,15,0,5,5,5,,,,,,,,,,,,,,,,,,,,,,,,,,,,,,,,,,,,,,,,,,,,,,,,,,,,,,,,,,,,,,,,,,,,,1.6424,966.360657,None,None,1,966.360657,None,,P010,FENCOG,1,Post,2021_Sep_13_1205,N-Back (New Version 2021),2021.1.4,119.8081153
,,,,Conditions/Version_1/threeback(4)_v1.xlsx,New rule: Press 'space' when you see 3-back (i.e. the same letter as the one that appeared 3 letters ago.),a,space,,,,,,,,,0,15,15,15,0,6,6,6,,,,,,,,,,,,,,,,,,,,,,,,,,,,,,,,,,,,,,,,,,,,,,,,,,,,,,,,,,,,,,,,,,,,,1.3572,969.7276508,None,space,1,969.7276508,None,0.8131504,P010,FENCOG,1,Post,2021_Sep_13_1205,N-Back (New Version 2021),2021.1.4,119.8081153
,,,,Conditions/Version_1/threeback(4)_v1.xlsx,New rule: Press 'space' when you see 3-back (i.e. the same letter as the one that appeared 3 letters ago.),p,space,,,,,,,,,0,15,15,15,0,7,7,7,,,,,,,,,,,,,,,,,,,,,,,,,,,,,,,,,,,,,,,,,,,,,,,,,,,,,,,,,,,,,,,,,,,,,1.1154,972.8513038,None,space,1,972.8513038,None,0.7539814,P010,FENCOG,1,Post,2021_Sep_13_1205,N-Back (New Version 2021),2021.1.4,119.8081153
,,,,Conditions/Version_1/threeback(4)_v1.xlsx,New rule: Press 'space' when you see 3-back (i.e. the same letter as the one that appeared 3 letters ago.),x,None,,,,,,,,,0,15,15,15,0,8,8,8,,,,,,,,,,,,,,,,,,,,,,,,,,,,,,,,,,,,,,,,,,,,,,,,,,,,,,,,,,,,,,,,,,,,,1.6548,976.5210873,None,None,1,976.5210873,None,,P010,FENCOG,1,Post,2021_Sep_13_1205,N-Back (New Version 2021),2021.1.4,119.8081153
,,,,Conditions/Version_1/threeback(4)_v1.xlsx,New rule: Press 'space' when you see 3-back (i.e. the same letter as the one that appeared 3 letters ago.),X,None,,,,,,,,,0,15,15,15,0,9,9,9,,,,,,,,,,,,,,,,,,,,,,,,,,,,,,,,,,,,,,,,,,,,,,,,,,,,,,,,,,,,,,,,,,,,,1.1216,979.6490651,None,None,1,979.6490651,None,,P010,FENCOG,1,Post,2021_Sep_13_1205,N-Back (New Version 2021),2021.1.4,119.8081153
,,,,Conditions/Version_1/threeback(4)_v1.xlsx,New rule: Press 'space' when you see 3-back (i.e. the same letter as the one that appeared 3 letters ago.),,,,,,,,,,,0,15,15,15,,,,,,,,,,,,,,,,,,,,,,,,,,,,,,,,,,,,,,,,,,,,,,,,,,,,,,,,,,,,,,,,,,,,,,,,,,,,,,,,,P010,FENCOG,1,Post,2021_Sep_13_1205,N-Back (New Version 2021),2021.1.4,119.8081153
