CondFileP,InstructionsP,LettersDisplayedP,CorrectnessP,CondFile,Instructions,LettersDisplayed,Correctness,practicetrials.thisRepN,practicetrials.thisTrialN,practicetrials.thisN,practicetrials.thisIndex,InnerLoopPractice.thisRepN,InnerLoopPractice.thisTrialN,InnerLoopPractice.thisN,InnerLoopPractice.thisIndex,trials.thisRepN,trials.thisTrialN,trials.thisN,trials.thisIndex,InnerLoop.thisRepN,InnerLoop.thisTrialN,InnerLoop.thisN,InnerLoop.thisIndex,TaskVersionText.started,TaskVersionText.stopped,InstrKey1.keys,InstrKey1.rt,InstrKey1.started,InstrKey1.stopped,text.started,text.stopped,key_resp_4.keys,key_resp_4.rt,key_resp_4.started,key_resp_4.stopped,text_2.started,text_2.stopped,key_resp_3.keys,key_resp_3.rt,key_resp_3.started,key_resp_3.stopped,text_3.started,text_3.stopped,key_resp_2.keys,key_resp_2.rt,key_resp_2.started,key_resp_2.stopped,PractIn1.started,PractIn1.stopped,PractIn2.started,PractIn2.stopped,PractInstructionPass.keys,PractInstructionPass.rt,PractInstructionPass.started,PractInstructionPass.stopped,PractBlock1.started,PractBlock1.stopped,ISIjitterPractice,ISI_Pract_Fixation.started,ISI_Pract_Fixation.stopped,N_backP.started,N_backP.stopped,KeyPractice.keys,KeyPractice.corr,KeyPractice.started,KeyPractice.stopped,text_4.started,text_4.stopped,KeyPractice.rt,TransitionText.started,TransitionText.stopped,key_resp_6.keys,key_resp_6.rt,key_resp_6.started,key_resp_6.stopped,text_5.started,text_5.stopped,key_resp_5.keys,key_resp_5.rt,key_resp_5.started,key_resp_5.stopped,MainInt1.started,MainInt1.stopped,MainInt2.started,MainInt2.stopped,InstructionPass.keys,InstructionPass.rt,InstructionPass.started,InstructionPass.stopped,Blocks1.started,Blocks1.stopped,ISIjitter,N_backD.started,N_backD.stopped,key_resp.keys,key_resp.corr,key_resp.started,key_resp.stopped,key_resp.rt,participant,Study Name,Task Version (required to run),PRE/POST,date,expName,psychopyVersion,frameRate,
,,,,,,,,,,,,,,,,,,,,,,,,68.07452190015465,None,space,2.5097105000168085,68.55943740019575,None,,,,,,,,,,,,,,,,,,,,,,,,,,,,,,,,,,,,,,,,,,,,,,,,,,,,,,,,,,,,,,,,,,,,,,,P010,fencog,2,Pre,2021_Sep_06_1130,N-Back (New Version 2021),2021.1.4,120.79176587732738,
,,,,,,,,,,,,,,,,,,,,,,,,,,,,,,71.12247000006028,None,space,533.475787299918,71.61747360019945,None,,,,,,,,,,,,,,,,,,,,,,,,,,,,,,,,,,,,,,,,,,,,,,,,,,,,,,,,,,,,,,,,,P010,fencog,2,Pre,2021_Sep_06_1130,N-Back (New Version 2021),2021.1.4,120.79176587732738,
,,,,,,,,,,,,,,,,,,,,,,,,,,,,,,,,,,,,605.1264899000525,None,space,13.562563100131229,605.618687500013,None,,,,,,,,,,,,,,,,,,,,,,,,,,,,,,,,,,,,,,,,,,,,,,,,,,,,,,,,,,,P010,fencog,2,Pre,2021_Sep_06_1130,N-Back (New Version 2021),2021.1.4,120.79176587732738,
,,,,,,,,,,,,,,,,,,,,,,,,,,,,,,,,,,,,,,,,,,619.2074495002162,None,space,7.371407800121233,619.6977712002117,None,,,,,,,,,,,,,,,,,,,,,,,,,,,,,,,,,,,,,,,,,,,,,,,,,,,,,P010,fencog,2,Pre,2021_Sep_06_1130,N-Back (New Version 2021),2021.1.4,120.79176587732738,
Conditions/Version_2Pr/zeroback(1)_v2.xlsx,Rule: Press 'space' when you see the letter 'x' or 'X'.,x,space,,,,,0,0,0,0,0,0,0,0,,,,,,,,,,,,,,,,,,,,,,,,,,,,,,,,,628.4381360001862,None,631.4198306000326,None,space,0.02578429994173348,631.4198306000326,None,628.4381360001862,None,1.565,631.4695692001842,None,633.0376078002155,None,None,0,633.0376078002155,None,635.0450730000157,None,,,,,,,,,,,,,,,,,,,,,,,,,,,,,,,,P010,fencog,2,Pre,2021_Sep_06_1130,N-Back (New Version 2021),2021.1.4,120.79176587732738,
Conditions/Version_2Pr/zeroback(1)_v2.xlsx,Rule: Press 'space' when you see the letter 'x' or 'X'.,R,None,,,,,0,0,0,0,0,1,1,1,,,,,,,,,,,,,,,,,,,,,,,,,,,,,,,,,,,,,,,,,,,1.79,636.5419355002232,None,638.3362212001812,None,None,1,638.3362212001812,None,640.341424100101,None,,,,,,,,,,,,,,,,,,,,,,,,,,,,,,,,P010,fencog,2,Pre,2021_Sep_06_1130,N-Back (New Version 2021),2021.1.4,120.79176587732738,
Conditions/Version_2Pr/zeroback(1)_v2.xlsx,Rule: Press 'space' when you see the letter 'x' or 'X'.,p,None,,,,,0,0,0,0,0,2,2,2,,,,,,,,,,,,,,,,,,,,,,,,,,,,,,,,,,,,,,,,,,,1.24,641.8404211001471,None,643.0860782000236,None,None,1,643.0860782000236,None,645.0895918000024,None,,,,,,,,,,,,,,,,,,,,,,,,,,,,,,,,P010,fencog,2,Pre,2021_Sep_06_1130,N-Back (New Version 2021),2021.1.4,120.79176587732738,
Conditions/Version_2Pr/zeroback(1)_v2.xlsx,Rule: Press 'space' when you see the letter 'x' or 'X'.,O,None,,,,,0,0,0,0,0,3,3,3,,,,,,,,,,,,,,,,,,,,,,,,,,,,,,,,,,,,,,,,,,,1.765,646.5889177001081,None,648.3589100001846,None,None,1,648.3589100001846,None,650.3629410001449,None,,,,,,,,,,,,,,,,,,,,,,,,,,,,,,,,P010,fencog,2,Pre,2021_Sep_06_1130,N-Back (New Version 2021),2021.1.4,120.79176587732738,
Conditions/Version_2Pr/zeroback(1)_v2.xlsx,Rule: Press 'space' when you see the letter 'x' or 'X'.,i,None,,,,,0,0,0,0,0,4,4,4,,,,,,,,,,,,,,,,,,,,,,,,,,,,,,,,,,,,,,,,,,,1.14,651.8623025000561,None,653.0048571000807,None,None,1,653.0048571000807,None,655.0119768001605,None,,,,,,,,,,,,,,,,,,,,,,,,,,,,,,,,P010,fencog,2,Pre,2021_Sep_06_1130,N-Back (New Version 2021),2021.1.4,120.79176587732738,
Conditions/Version_2Pr/zeroback(1)_v2.xlsx,Rule: Press 'space' when you see the letter 'x' or 'X'.,U,None,,,,,0,0,0,0,0,5,5,5,,,,,,,,,,,,,,,,,,,,,,,,,,,,,,,,,,,,,,,,,,,1.215,656.5109927000012,None,657.7348959001247,None,None,1,657.7348959001247,None,659.7350272000767,None,,,,,,,,,,,,,,,,,,,,,,,,,,,,,,,,P010,fencog,2,Pre,2021_Sep_06_1130,N-Back (New Version 2021),2021.1.4,120.79176587732738,
Conditions/Version_2Pr/zeroback(1)_v2.xlsx,Rule: Press 'space' when you see the letter 'x' or 'X'.,N,None,,,,,0,0,0,0,0,6,6,6,,,,,,,,,,,,,,,,,,,,,,,,,,,,,,,,,,,,,,,,,,,1.115,661.2356018000282,None,662.3535651999991,None,None,1,662.3535651999991,None,664.3622789999936,None,,,,,,,,,,,,,,,,,,,,,,,,,,,,,,,,P010,fencog,2,Pre,2021_Sep_06_1130,N-Back (New Version 2021),2021.1.4,120.79176587732738,
Conditions/Version_2Pr/zeroback(1)_v2.xlsx,Rule: Press 'space' when you see the letter 'x' or 'X'.,m,None,,,,,0,0,0,0,0,7,7,7,,,,,,,,,,,,,,,,,,,,,,,,,,,,,,,,,,,,,,,,,,,1.515,665.8583990000188,None,667.380891200155,None,None,1,667.380891200155,None,669.382295000134,None,,,,,,,,,,,,,,,,,,,,,,,,,,,,,,,,P010,fencog,2,Pre,2021_Sep_06_1130,N-Back (New Version 2021),2021.1.4,120.79176587732738,
Conditions/Version_2Pr/zeroback(1)_v2.xlsx,Rule: Press 'space' when you see the letter 'x' or 'X'.,x,space,,,,,0,0,0,0,0,8,8,8,,,,,,,,,,,,,,,,,,,,,,,,,,,,,,,,,,,,,,,,,,,2.015,670.8817994000856,None,672.8986769001931,None,space,1,672.8986769001931,None,673.3987133000046,None,0.4904730999842286,,,,,,,,,,,,,,,,,,,,,,,,,,,,,,,P010,fencog,2,Pre,2021_Sep_06_1130,N-Back (New Version 2021),2021.1.4,120.79176587732738,
Conditions/Version_2Pr/zeroback(1)_v2.xlsx,Rule: Press 'space' when you see the letter 'x' or 'X'.,X,space,,,,,0,0,0,0,0,9,9,9,,,,,,,,,,,,,,,,,,,,,,,,,,,,,,,,,,,,,,,,,,,1.44,674.9054033001885,None,676.3484368000645,None,space,1,676.3484368000645,None,676.8738111001439,None,0.5129406999330968,,,,,,,,,,,,,,,,,,,,,,,,,,,,,,,P010,fencog,2,Pre,2021_Sep_06_1130,N-Back (New Version 2021),2021.1.4,120.79176587732738,
Conditions/Version_2Pr/zeroback(1)_v2.xlsx,Rule: Press 'space' when you see the letter 'x' or 'X'.,,,,,,,0,0,0,0,,,,,,,,,,,,,,,,,,,,,,,,,,,,,,,,,,,,,,,,,,,,,,,,,,,,,,,,,,,,,,,,,,,,,,,,,,,,,,,,,,,,,,,,,P010,fencog,2,Pre,2021_Sep_06_1130,N-Back (New Version 2021),2021.1.4,120.79176587732738,
Conditions/Version_2Pr/oneback(1)_v2.xlsx,New rule: Press 'space' when you see 1-back (i.e. the same letter as the one that appeared 1 letter ago.),r,None,,,,,0,1,1,1,0,0,0,0,,,,,,,,,,,,,,,,,,,,,,,,,,,,,,,,,678.4070229001809,None,681.3885499001481,None,space,0.9123584001790732,681.3885499001481,None,678.4070229001809,None,1.84,682.3166852002032,None,684.162049600156,None,None,1,684.162049600156,None,686.1690213000402,None,,,,,,,,,,,,,,,,,,,,,,,,,,,,,,,,P010,fencog,2,Pre,2021_Sep_06_1130,N-Back (New Version 2021),2021.1.4,120.79176587732738,
Conditions/Version_2Pr/oneback(1)_v2.xlsx,New rule: Press 'space' when you see 1-back (i.e. the same letter as the one that appeared 1 letter ago.),t,None,,,,,0,1,1,1,0,1,1,1,,,,,,,,,,,,,,,,,,,,,,,,,,,,,,,,,,,,,,,,,,,1.44,687.6684624000918,None,689.1139879000839,None,None,1,689.1139879000839,None,691.1175495001953,None,,,,,,,,,,,,,,,,,,,,,,,,,,,,,,,,P010,fencog,2,Pre,2021_Sep_06_1130,N-Back (New Version 2021),2021.1.4,120.79176587732738,
Conditions/Version_2Pr/oneback(1)_v2.xlsx,New rule: Press 'space' when you see 1-back (i.e. the same letter as the one that appeared 1 letter ago.),Y,None,,,,,0,1,1,1,0,2,2,2,,,,,,,,,,,,,,,,,,,,,,,,,,,,,,,,,,,,,,,,,,,1.29,692.6170580000617,None,693.9127829000354,None,None,1,693.9127829000354,None,695.9161365001928,None,,,,,,,,,,,,,,,,,,,,,,,,,,,,,,,,P010,fencog,2,Pre,2021_Sep_06_1130,N-Back (New Version 2021),2021.1.4,120.79176587732738,
Conditions/Version_2Pr/oneback(1)_v2.xlsx,New rule: Press 'space' when you see 1-back (i.e. the same letter as the one that appeared 1 letter ago.),y,space,,,,,0,1,1,1,0,3,3,3,,,,,,,,,,,,,,,,,,,,,,,,,,,,,,,,,,,,,,,,,,,1.115,697.4155818000436,None,698.5328777001705,None,space,1,698.5328777001705,None,699.0109767001122,None,0.4642167000565678,,,,,,,,,,,,,,,,,,,,,,,,,,,,,,,P010,fencog,2,Pre,2021_Sep_06_1130,N-Back (New Version 2021),2021.1.4,120.79176587732738,
Conditions/Version_2Pr/oneback(1)_v2.xlsx,New rule: Press 'space' when you see 1-back (i.e. the same letter as the one that appeared 1 letter ago.),p,None,,,,,0,1,1,1,0,4,4,4,,,,,,,,,,,,,,,,,,,,,,,,,,,,,,,,,,,,,,,,,,,1.415,700.516346400138,None,701.9307752000168,None,None,1,701.9307752000168,None,703.9304395001382,None,,,,,,,,,,,,,,,,,,,,,,,,,,,,,,,,P010,fencog,2,Pre,2021_Sep_06_1130,N-Back (New Version 2021),2021.1.4,120.79176587732738,
Conditions/Version_2Pr/oneback(1)_v2.xlsx,New rule: Press 'space' when you see 1-back (i.e. the same letter as the one that appeared 1 letter ago.),P,space,,,,,0,1,1,1,0,5,5,5,,,,,,,,,,,,,,,,,,,,,,,,,,,,,,,,,,,,,,,,,,,1.665,705.429704700131,None,707.097938200226,None,space,1,707.097938200226,None,707.4219550001435,None,0.3152342999819666,,,,,,,,,,,,,,,,,,,,,,,,,,,,,,,P010,fencog,2,Pre,2021_Sep_06_1130,N-Back (New Version 2021),2021.1.4,120.79176587732738,
Conditions/Version_2Pr/oneback(1)_v2.xlsx,New rule: Press 'space' when you see 1-back (i.e. the same letter as the one that appeared 1 letter ago.),e,None,,,,,0,1,1,1,0,6,6,6,,,,,,,,,,,,,,,,,,,,,,,,,,,,,,,,,,,,,,,,,,,1.865,708.9287549001165,None,710.7966536001768,None,None,1,710.7966536001768,None,712.8025521000382,None,,,,,,,,,,,,,,,,,,,,,,,,,,,,,,,,P010,fencog,2,Pre,2021_Sep_06_1130,N-Back (New Version 2021),2021.1.4,120.79176587732738,
Conditions/Version_2Pr/oneback(1)_v2.xlsx,New rule: Press 'space' when you see 1-back (i.e. the same letter as the one that appeared 1 letter ago.),r,None,,,,,0,1,1,1,0,7,7,7,,,,,,,,,,,,,,,,,,,,,,,,,,,,,,,,,,,,,,,,,,,1.765,714.3022443000227,None,716.0718076000921,None,None,1,716.0718076000921,None,718.0761908001732,None,,,,,,,,,,,,,,,,,,,,,,,,,,,,,,,,P010,fencog,2,Pre,2021_Sep_06_1130,N-Back (New Version 2021),2021.1.4,120.79176587732738,
Conditions/Version_2Pr/oneback(1)_v2.xlsx,New rule: Press 'space' when you see 1-back (i.e. the same letter as the one that appeared 1 letter ago.),R,space,,,,,0,1,1,1,0,8,8,8,,,,,,,,,,,,,,,,,,,,,,,,,,,,,,,,,,,,,,,,,,,1.54,719.5757825002074,None,721.1181021002121,None,space,1,721.1181021002121,None,721.5181959001347,None,0.3912143998313695,,,,,,,,,,,,,,,,,,,,,,,,,,,,,,,P010,fencog,2,Pre,2021_Sep_06_1130,N-Back (New Version 2021),2021.1.4,120.79176587732738,
Conditions/Version_2Pr/oneback(1)_v2.xlsx,New rule: Press 'space' when you see 1-back (i.e. the same letter as the one that appeared 1 letter ago.),p,None,,,,,0,1,1,1,0,9,9,9,,,,,,,,,,,,,,,,,,,,,,,,,,,,,,,,,,,,,,,,,,,1.59,723.0247746000532,None,724.6177821001038,None,None,1,724.6177821001038,None,726.6198991001584,None,,,,,,,,,,,,,,,,,,,,,,,,,,,,,,,,P010,fencog,2,Pre,2021_Sep_06_1130,N-Back (New Version 2021),2021.1.4,120.79176587732738,
Conditions/Version_2Pr/oneback(1)_v2.xlsx,New rule: Press 'space' when you see 1-back (i.e. the same letter as the one that appeared 1 letter ago.),,,,,,,0,1,1,1,,,,,,,,,,,,,,,,,,,,,,,,,,,,,,,,,,,,,,,,,,,,,,,,,,,,,,,,,,,,,,,,,,,,,,,,,,,,,,,,,,,,,,,,,P010,fencog,2,Pre,2021_Sep_06_1130,N-Back (New Version 2021),2021.1.4,120.79176587732738,
Conditions/Version_2Pr/twoback(1)_v2.xlsx,New rule: Press 'space' when you see 2-back (i.e. the same letter as the one that appeared 2 letters ago.),r,None,,,,,0,2,2,2,0,0,0,0,,,,,,,,,,,,,,,,,,,,,,,,,,,,,,,,,728.1483456001151,None,731.133028900018,None,space,0.9840822999831289,731.133028900018,None,728.1483456001151,None,1.615,732.1399806002155,None,733.7557774002198,None,None,1,733.7557774002198,None,735.7627362001222,None,,,,,,,,,,,,,,,,,,,,,,,,,,,,,,,,P010,fencog,2,Pre,2021_Sep_06_1130,N-Back (New Version 2021),2021.1.4,120.79176587732738,
Conditions/Version_2Pr/twoback(1)_v2.xlsx,New rule: Press 'space' when you see 2-back (i.e. the same letter as the one that appeared 2 letters ago.),P,None,,,,,0,2,2,2,0,1,1,1,,,,,,,,,,,,,,,,,,,,,,,,,,,,,,,,,,,,,,,,,,,1.065,737.2640585000627,None,738.3304052001331,None,None,1,738.3304052001331,None,740.3363221001346,None,,,,,,,,,,,,,,,,,,,,,,,,,,,,,,,,P010,fencog,2,Pre,2021_Sep_06_1130,N-Back (New Version 2021),2021.1.4,120.79176587732738,
Conditions/Version_2Pr/twoback(1)_v2.xlsx,New rule: Press 'space' when you see 2-back (i.e. the same letter as the one that appeared 2 letters ago.),o,None,,,,,0,2,2,2,0,2,2,2,,,,,,,,,,,,,,,,,,,,,,,,,,,,,,,,,,,,,,,,,,,1.84,741.835794800194,None,743.6803399000783,None,None,1,743.6803399000783,None,745.6847401000559,None,,,,,,,,,,,,,,,,,,,,,,,,,,,,,,,,P010,fencog,2,Pre,2021_Sep_06_1130,N-Back (New Version 2021),2021.1.4,120.79176587732738,
Conditions/Version_2Pr/twoback(1)_v2.xlsx,New rule: Press 'space' when you see 2-back (i.e. the same letter as the one that appeared 2 letters ago.),p,space,,,,,0,2,2,2,0,3,3,3,,,,,,,,,,,,,,,,,,,,,,,,,,,,,,,,,,,,,,,,,,,1.44,747.1857448001392,None,748.6264671001118,None,space,1,748.6264671001118,None,748.9513367000036,None,0.3146365999709815,,,,,,,,,,,,,,,,,,,,,,,,,,,,,,,P010,fencog,2,Pre,2021_Sep_06_1130,N-Back (New Version 2021),2021.1.4,120.79176587732738,
Conditions/Version_2Pr/twoback(1)_v2.xlsx,New rule: Press 'space' when you see 2-back (i.e. the same letter as the one that appeared 2 letters ago.),Y,None,,,,,0,2,2,2,0,4,4,4,,,,,,,,,,,,,,,,,,,,,,,,,,,,,,,,,,,,,,,,,,,1.315,750.4581045000814,None,751.7765514000785,None,None,1,751.7765514000785,None,753.782387000043,None,,,,,,,,,,,,,,,,,,,,,,,,,,,,,,,,P010,fencog,2,Pre,2021_Sep_06_1130,N-Back (New Version 2021),2021.1.4,120.79176587732738,
Conditions/Version_2Pr/twoback(1)_v2.xlsx,New rule: Press 'space' when you see 2-back (i.e. the same letter as the one that appeared 2 letters ago.),q,None,,,,,0,2,2,2,0,5,5,5,,,,,,,,,,,,,,,,,,,,,,,,,,,,,,,,,,,,,,,,,,,1.865,755.281923700124,None,757.1523586001713,None,None,1,757.1523586001713,None,759.1558221001178,None,,,,,,,,,,,,,,,,,,,,,,,,,,,,,,,,P010,fencog,2,Pre,2021_Sep_06_1130,N-Back (New Version 2021),2021.1.4,120.79176587732738,
Conditions/Version_2Pr/twoback(1)_v2.xlsx,New rule: Press 'space' when you see 2-back (i.e. the same letter as the one that appeared 2 letters ago.),m,None,,,,,0,2,2,2,0,6,6,6,,,,,,,,,,,,,,,,,,,,,,,,,,,,,,,,,,,,,,,,,,,1.215,760.6552676002029,None,761.8752337000333,None,None,1,761.8752337000333,None,763.8743289001286,None,,,,,,,,,,,,,,,,,,,,,,,,,,,,,,,,P010,fencog,2,Pre,2021_Sep_06_1130,N-Back (New Version 2021),2021.1.4,120.79176587732738,
Conditions/Version_2Pr/twoback(1)_v2.xlsx,New rule: Press 'space' when you see 2-back (i.e. the same letter as the one that appeared 2 letters ago.),Q,space,,,,,0,2,2,2,0,7,7,7,,,,,,,,,,,,,,,,,,,,,,,,,,,,,,,,,,,,,,,,,,,1.59,765.3789218000602,None,766.9809738001786,None,space,1,766.9809738001786,None,767.6458253001329,None,0.6562065000180155,,,,,,,,,,,,,,,,,,,,,,,,,,,,,,,P010,fencog,2,Pre,2021_Sep_06_1130,N-Back (New Version 2021),2021.1.4,120.79176587732738,
Conditions/Version_2Pr/twoback(1)_v2.xlsx,New rule: Press 'space' when you see 2-back (i.e. the same letter as the one that appeared 2 letters ago.),L,None,,,,,0,2,2,2,0,8,8,8,,,,,,,,,,,,,,,,,,,,,,,,,,,,,,,,,,,,,,,,,,,1.89,769.1528683002107,None,771.0505276001059,None,None,1,771.0505276001059,None,773.0517736000475,None,,,,,,,,,,,,,,,,,,,,,,,,,,,,,,,,P010,fencog,2,Pre,2021_Sep_06_1130,N-Back (New Version 2021),2021.1.4,120.79176587732738,
Conditions/Version_2Pr/twoback(1)_v2.xlsx,New rule: Press 'space' when you see 2-back (i.e. the same letter as the one that appeared 2 letters ago.),q,space,,,,,0,2,2,2,0,9,9,9,,,,,,,,,,,,,,,,,,,,,,,,,,,,,,,,,,,,,,,,,,,1.365,774.5511609001551,None,775.9172890000045,None,None,0,775.9172890000045,None,777.9211834000889,None,,,,,,,,,,,,,,,,,,,,,,,,,,,,,,,,P010,fencog,2,Pre,2021_Sep_06_1130,N-Back (New Version 2021),2021.1.4,120.79176587732738,
Conditions/Version_2Pr/twoback(1)_v2.xlsx,New rule: Press 'space' when you see 2-back (i.e. the same letter as the one that appeared 2 letters ago.),,,,,,,0,2,2,2,,,,,,,,,,,,,,,,,,,,,,,,,,,,,,,,,,,,,,,,,,,,,,,,,,,,,,,,,,,,,,,,,,,,,,,,,,,,,,,,,,,,,,,,,P010,fencog,2,Pre,2021_Sep_06_1130,N-Back (New Version 2021),2021.1.4,120.79176587732738,
Conditions/Version_2Pr/threeback(1)_v2.xlsx,New rule: Press 'space' when you see 3-back (i.e. the same letter as the one that appeared 3 letters ago.),u,None,,,,,0,3,3,3,0,0,0,0,,,,,,,,,,,,,,,,,,,,,,,,,,,,,,,,,779.4591446002014,None,782.43453710014,None,space,5.706721300026402,782.43453710014,None,779.4591446002014,None,1.315,788.1592723000795,None,789.4826802001335,None,None,1,789.4826802001335,None,791.4899360002019,None,,,,,,,,,,,,,,,,,,,,,,,,,,,,,,,,P010,fencog,2,Pre,2021_Sep_06_1130,N-Back (New Version 2021),2021.1.4,120.79176587732738,
Conditions/Version_2Pr/threeback(1)_v2.xlsx,New rule: Press 'space' when you see 3-back (i.e. the same letter as the one that appeared 3 letters ago.),U,None,,,,,0,3,3,3,0,1,1,1,,,,,,,,,,,,,,,,,,,,,,,,,,,,,,,,,,,,,,,,,,,1.34,792.9870274001732,None,794.3306052000262,None,None,1,794.3306052000262,None,796.336558900075,None,,,,,,,,,,,,,,,,,,,,,,,,,,,,,,,,P010,fencog,2,Pre,2021_Sep_06_1130,N-Back (New Version 2021),2021.1.4,120.79176587732738,
Conditions/Version_2Pr/threeback(1)_v2.xlsx,New rule: Press 'space' when you see 3-back (i.e. the same letter as the one that appeared 3 letters ago.),p,None,,,,,0,3,3,3,0,2,2,2,,,,,,,,,,,,,,,,,,,,,,,,,,,,,,,,,,,,,,,,,,,1.84,797.8359039002098,None,799.6770163001493,None,None,1,799.6770163001493,None,801.6807776000351,None,,,,,,,,,,,,,,,,,,,,,,,,,,,,,,,,P010,fencog,2,Pre,2021_Sep_06_1130,N-Back (New Version 2021),2021.1.4,120.79176587732738,
Conditions/Version_2Pr/threeback(1)_v2.xlsx,New rule: Press 'space' when you see 3-back (i.e. the same letter as the one that appeared 3 letters ago.),U,space,,,,,0,3,3,3,0,3,3,3,,,,,,,,,,,,,,,,,,,,,,,,,,,,,,,,,,,,,,,,,,,1.415,803.1843144001905,None,804.6014409000054,None,space,1,804.6014409000054,None,804.9840840999968,None,0.3717918999027461,,,,,,,,,,,,,,,,,,,,,,,,,,,,,,,P010,fencog,2,Pre,2021_Sep_06_1130,N-Back (New Version 2021),2021.1.4,120.79176587732738,
Conditions/Version_2Pr/threeback(1)_v2.xlsx,New rule: Press 'space' when you see 3-back (i.e. the same letter as the one that appeared 3 letters ago.),e,None,,,,,0,3,3,3,0,4,4,4,,,,,,,,,,,,,,,,,,,,,,,,,,,,,,,,,,,,,,,,,,,1.64,806.4832872000989,None,808.1269254002254,None,None,1,808.1269254002254,None,810.1324471000116,None,,,,,,,,,,,,,,,,,,,,,,,,,,,,,,,,P010,fencog,2,Pre,2021_Sep_06_1130,N-Back (New Version 2021),2021.1.4,120.79176587732738,
Conditions/Version_2Pr/threeback(1)_v2.xlsx,New rule: Press 'space' when you see 3-back (i.e. the same letter as the one that appeared 3 letters ago.),R,None,,,,,0,3,3,3,0,5,5,5,,,,,,,,,,,,,,,,,,,,,,,,,,,,,,,,,,,,,,,,,,,1.215,811.6319453001488,None,812.8480712000746,None,None,1,812.8480712000746,None,814.8474896000698,None,,,,,,,,,,,,,,,,,,,,,,,,,,,,,,,,P010,fencog,2,Pre,2021_Sep_06_1130,N-Back (New Version 2021),2021.1.4,120.79176587732738,
Conditions/Version_2Pr/threeback(1)_v2.xlsx,New rule: Press 'space' when you see 3-back (i.e. the same letter as the one that appeared 3 letters ago.),p,None,,,,,0,3,3,3,0,6,6,6,,,,,,,,,,,,,,,,,,,,,,,,,,,,,,,,,,,,,,,,,,,1.765,816.347270200029,None,818.1153645000886,None,space,0,818.1153645000886,None,819.3262523000594,None,1.1937120000366122,,,,,,,,,,,,,,,,,,,,,,,,,,,,,,,P010,fencog,2,Pre,2021_Sep_06_1130,N-Back (New Version 2021),2021.1.4,120.79176587732738,
Conditions/Version_2Pr/threeback(1)_v2.xlsx,New rule: Press 'space' when you see 3-back (i.e. the same letter as the one that appeared 3 letters ago.),E,space,,,,,0,3,3,3,0,7,7,7,,,,,,,,,,,,,,,,,,,,,,,,,,,,,,,,,,,,,,,,,,,1.115,820.8291920002084,None,821.9473618001211,None,space,1,821.9473618001211,None,822.973923600046,None,1.00996039994061,,,,,,,,,,,,,,,,,,,,,,,,,,,,,,,P010,fencog,2,Pre,2021_Sep_06_1130,N-Back (New Version 2021),2021.1.4,120.79176587732738,
Conditions/Version_2Pr/threeback(1)_v2.xlsx,New rule: Press 'space' when you see 3-back (i.e. the same letter as the one that appeared 3 letters ago.),k,None,,,,,0,3,3,3,0,8,8,8,,,,,,,,,,,,,,,,,,,,,,,,,,,,,,,,,,,,,,,,,,,1.04,824.478272800101,None,825.5303893000819,None,None,1,825.5303893000819,None,827.5277320002206,None,,,,,,,,,,,,,,,,,,,,,,,,,,,,,,,,P010,fencog,2,Pre,2021_Sep_06_1130,N-Back (New Version 2021),2021.1.4,120.79176587732738,
Conditions/Version_2Pr/threeback(1)_v2.xlsx,New rule: Press 'space' when you see 3-back (i.e. the same letter as the one that appeared 3 letters ago.),m,None,,,,,0,3,3,3,0,9,9,9,,,,,,,,,,,,,,,,,,,,,,,,,,,,,,,,,,,,,,,,,,,1.74,829.0267866000067,None,830.7697293001693,None,None,1,830.7697293001693,None,832.7757669000421,None,,,,,,,,,,,,,,,,,,,,,,,,,,,,,,,,P010,fencog,2,Pre,2021_Sep_06_1130,N-Back (New Version 2021),2021.1.4,120.79176587732738,
Conditions/Version_2Pr/threeback(1)_v2.xlsx,New rule: Press 'space' when you see 3-back (i.e. the same letter as the one that appeared 3 letters ago.),,,,,,,0,3,3,3,,,,,,,,,,,,,,,,,,,,,,,,,,,,,,,,,,,,,,,,,,,,,,,,,,,,,,,,,,,,,,,,,,,,,,,,,,,,,,,,,,,,,,,,,P010,fencog,2,Pre,2021_Sep_06_1130,N-Back (New Version 2021),2021.1.4,120.79176587732738,
,,,,,,,,,,,,,,,,,,,,,,,,,,,,,,,,,,,,,,,,,,,,,,,,,,,,,,,,,,,,,,,,,,,,,,834.281469900161,None,space,1.1426461001392454,834.7670172001235,None,,,,,,,,,,,,,,,,,,,,,,,,,P010,fencog,2,Pre,2021_Sep_06_1130,N-Back (New Version 2021),2021.1.4,120.79176587732738,
,,,,,,,,,,,,,,,,,,,,,,,,,,,,,,,,,,,,,,,,,,,,,,,,,,,,,,,,,,,,,,,,,,,,,,,,,,,,835.9348041000776,None,space,2.3315683000255376,836.4333968001883,None,,,,,,,,,,,,,,,,,,,P010,fencog,2,Pre,2021_Sep_06_1130,N-Back (New Version 2021),2021.1.4,120.79176587732738,
,,,,Conditions/Version_1/zeroback(1)_v1.xlsx,Rule: Press 'space' when you see the letter 'x' or 'X'.,b,None,,,,,,,,,0,0,0,0,0,0,0,0,,,,,,,,,,,,,,,,,,,,,,,,,,,,,,,,,,,,,,,,,,,,,,,,,,,,,,,,,,,838.865103200078,None,841.8498315000907,None,space,0.8110843999311328,841.8498315000907,None,838.865103200078,None,1.382,844.0742432000116,None,None,1,844.0742432000116,None,,P010,fencog,2,Pre,2021_Sep_06_1130,N-Back (New Version 2021),2021.1.4,120.79176587732738,
,,,,Conditions/Version_1/zeroback(1)_v1.xlsx,Rule: Press 'space' when you see the letter 'x' or 'X'.,T,None,,,,,,,,,0,0,0,0,0,1,1,1,,,,,,,,,,,,,,,,,,,,,,,,,,,,,,,,,,,,,,,,,,,,,,,,,,,,,,,,,,,,,,,,,,,,,1.6238,847.7132214000449,None,None,1,847.7132214000449,None,,P010,fencog,2,Pre,2021_Sep_06_1130,N-Back (New Version 2021),2021.1.4,120.79176587732738,
,,,,Conditions/Version_1/zeroback(1)_v1.xlsx,Rule: Press 'space' when you see the letter 'x' or 'X'.,L,None,,,,,,,,,0,0,0,0,0,2,2,2,,,,,,,,,,,,,,,,,,,,,,,,,,,,,,,,,,,,,,,,,,,,,,,,,,,,,,,,,,,,,,,,,,,,,1.258,850.9702036001254,None,None,1,850.9702036001254,None,,P010,fencog,2,Pre,2021_Sep_06_1130,N-Back (New Version 2021),2021.1.4,120.79176587732738,
,,,,Conditions/Version_1/zeroback(1)_v1.xlsx,Rule: Press 'space' when you see the letter 'x' or 'X'.,x,space,,,,,,,,,0,0,0,0,0,3,3,3,,,,,,,,,,,,,,,,,,,,,,,,,,,,,,,,,,,,,,,,,,,,,,,,,,,,,,,,,,,,,,,,,,,,,1.4068,854.3894430000801,None,space,1,854.3894430000801,None,1.0561526999808848,P010,fencog,2,Pre,2021_Sep_06_1130,N-Back (New Version 2021),2021.1.4,120.79176587732738,
,,,,Conditions/Version_1/zeroback(1)_v1.xlsx,Rule: Press 'space' when you see the letter 'x' or 'X'.,o,None,,,,,,,,,0,0,0,0,0,4,4,4,,,,,,,,,,,,,,,,,,,,,,,,,,,,,,,,,,,,,,,,,,,,,,,,,,,,,,,,,,,,,,,,,,,,,1.6424,858.0456774001941,None,None,1,858.0456774001941,None,,P010,fencog,2,Pre,2021_Sep_06_1130,N-Back (New Version 2021),2021.1.4,120.79176587732738,
,,,,Conditions/Version_1/zeroback(1)_v1.xlsx,Rule: Press 'space' when you see the letter 'x' or 'X'.,P,None,,,,,,,,,0,0,0,0,0,5,5,5,,,,,,,,,,,,,,,,,,,,,,,,,,,,,,,,,,,,,,,,,,,,,,,,,,,,,,,,,,,,,,,,,,,,,1.4688,861.527976800222,None,None,1,861.527976800222,None,,P010,fencog,2,Pre,2021_Sep_06_1130,N-Back (New Version 2021),2021.1.4,120.79176587732738,
,,,,Conditions/Version_1/zeroback(1)_v1.xlsx,Rule: Press 'space' when you see the letter 'x' or 'X'.,X,space,,,,,,,,,0,0,0,0,0,6,6,6,,,,,,,,,,,,,,,,,,,,,,,,,,,,,,,,,,,,,,,,,,,,,,,,,,,,,,,,,,,,,,,,,,,,,1.7106,865.2420363000128,None,space,1,865.2420363000128,None,0.43522880016826093,P010,fencog,2,Pre,2021_Sep_06_1130,N-Back (New Version 2021),2021.1.4,120.79176587732738,
,,,,Conditions/Version_1/zeroback(1)_v1.xlsx,Rule: Press 'space' when you see the letter 'x' or 'X'.,n,None,,,,,,,,,0,0,0,0,0,7,7,7,,,,,,,,,,,,,,,,,,,,,,,,,,,,,,,,,,,,,,,,,,,,,,,,,,,,,,,,,,,,,,,,,,,,,1.8408,869.0936726999935,None,None,1,869.0936726999935,None,,P010,fencog,2,Pre,2021_Sep_06_1130,N-Back (New Version 2021),2021.1.4,120.79176587732738,
,,,,Conditions/Version_1/zeroback(1)_v1.xlsx,Rule: Press 'space' when you see the letter 'x' or 'X'.,M,None,,,,,,,,,0,0,0,0,0,8,8,8,,,,,,,,,,,,,,,,,,,,,,,,,,,,,,,,,,,,,,,,,,,,,,,,,,,,,,,,,,,,,,,,,,,,,1.661,872.769544800045,None,None,1,872.769544800045,None,,P010,fencog,2,Pre,2021_Sep_06_1130,N-Back (New Version 2021),2021.1.4,120.79176587732738,
,,,,Conditions/Version_1/zeroback(1)_v1.xlsx,Rule: Press 'space' when you see the letter 'x' or 'X'.,a,None,,,,,,,,,0,0,0,0,0,9,9,9,,,,,,,,,,,,,,,,,,,,,,,,,,,,,,,,,,,,,,,,,,,,,,,,,,,,,,,,,,,,,,,,,,,,,1.0348,875.8154043001123,None,None,1,875.8154043001123,None,,P010,fencog,2,Pre,2021_Sep_06_1130,N-Back (New Version 2021),2021.1.4,120.79176587732738,
,,,,Conditions/Version_1/zeroback(1)_v1.xlsx,Rule: Press 'space' when you see the letter 'x' or 'X'.,,,,,,,,,,,0,0,0,0,,,,,,,,,,,,,,,,,,,,,,,,,,,,,,,,,,,,,,,,,,,,,,,,,,,,,,,,,,,,,,,,,,,,,,,,,,,,,,,,,P010,fencog,2,Pre,2021_Sep_06_1130,N-Back (New Version 2021),2021.1.4,120.79176587732738,
,,,,Conditions/Version_1/oneback(1)_v1.xlsx,New rule: Press 'space' when you see 1-back (i.e. the same letter as the one that appeared 1 letter ago.),b,None,,,,,,,,,0,1,1,1,0,0,0,0,,,,,,,,,,,,,,,,,,,,,,,,,,,,,,,,,,,,,,,,,,,,,,,,,,,,,,,,,,,877.8357717001345,None,880.8221575000789,None,space,0.36675099981948733,880.8221575000789,None,877.8357717001345,None,1.072,882.2943962002173,None,None,1,882.2943962002173,None,,P010,fencog,2,Pre,2021_Sep_06_1130,N-Back (New Version 2021),2021.1.4,120.79176587732738,
,,,,Conditions/Version_1/oneback(1)_v1.xlsx,New rule: Press 'space' when you see 1-back (i.e. the same letter as the one that appeared 1 letter ago.),p,None,,,,,,,,,0,1,1,1,0,1,1,1,,,,,,,,,,,,,,,,,,,,,,,,,,,,,,,,,,,,,,,,,,,,,,,,,,,,,,,,,,,,,,,,,,,,,1.8346,886.134956400143,None,None,1,886.134956400143,None,,P010,fencog,2,Pre,2021_Sep_06_1130,N-Back (New Version 2021),2021.1.4,120.79176587732738,
,,,,Conditions/Version_1/oneback(1)_v1.xlsx,New rule: Press 'space' when you see 1-back (i.e. the same letter as the one that appeared 1 letter ago.),M,None,,,,,,,,,0,1,1,1,0,2,2,2,,,,,,,,,,,,,,,,,,,,,,,,,,,,,,,,,,,,,,,,,,,,,,,,,,,,,,,,,,,,,,,,,,,,,1.7974,889.9357232002076,None,None,1,889.9357232002076,None,,P010,fencog,2,Pre,2021_Sep_06_1130,N-Back (New Version 2021),2021.1.4,120.79176587732738,
,,,,Conditions/Version_1/oneback(1)_v1.xlsx,New rule: Press 'space' when you see 1-back (i.e. the same letter as the one that appeared 1 letter ago.),M,space,,,,,,,,,0,1,1,1,0,3,3,3,,,,,,,,,,,,,,,,,,,,,,,,,,,,,,,,,,,,,,,,,,,,,,,,,,,,,,,,,,,,,,,,,,,,,1.785,893.7244342002086,None,space,1,893.7244342002086,None,0.4005871000699699,P010,fencog,2,Pre,2021_Sep_06_1130,N-Back (New Version 2021),2021.1.4,120.79176587732738,
,,,,Conditions/Version_1/oneback(1)_v1.xlsx,New rule: Press 'space' when you see 1-back (i.e. the same letter as the one that appeared 1 letter ago.),n,None,,,,,,,,,0,1,1,1,0,4,4,4,,,,,,,,,,,,,,,,,,,,,,,,,,,,,,,,,,,,,,,,,,,,,,,,,,,,,,,,,,,,,,,,,,,,,1.3448,897.0735438000411,None,None,1,897.0735438000411,None,,P010,fencog,2,Pre,2021_Sep_06_1130,N-Back (New Version 2021),2021.1.4,120.79176587732738,
,,,,Conditions/Version_1/oneback(1)_v1.xlsx,New rule: Press 'space' when you see 1-back (i.e. the same letter as the one that appeared 1 letter ago.),g,None,,,,,,,,,0,1,1,1,0,5,5,5,,,,,,,,,,,,,,,,,,,,,,,,,,,,,,,,,,,,,,,,,,,,,,,,,,,,,,,,,,,,,,,,,,,,,1.4192,900.49907790008,None,None,1,900.49907790008,None,,P010,fencog,2,Pre,2021_Sep_06_1130,N-Back (New Version 2021),2021.1.4,120.79176587732738,
,,,,Conditions/Version_1/oneback(1)_v1.xlsx,New rule: Press 'space' when you see 1-back (i.e. the same letter as the one that appeared 1 letter ago.),P,None,,,,,,,,,0,1,1,1,0,6,6,6,,,,,,,,,,,,,,,,,,,,,,,,,,,,,,,,,,,,,,,,,,,,,,,,,,,,,,,,,,,,,,,,,,,,,1.4812,903.9823305001482,None,None,1,903.9823305001482,None,,P010,fencog,2,Pre,2021_Sep_06_1130,N-Back (New Version 2021),2021.1.4,120.79176587732738,
,,,,Conditions/Version_1/oneback(1)_v1.xlsx,New rule: Press 'space' when you see 1-back (i.e. the same letter as the one that appeared 1 letter ago.),o,None,,,,,,,,,0,1,1,1,0,7,7,7,,,,,,,,,,,,,,,,,,,,,,,,,,,,,,,,,,,,,,,,,,,,,,,,,,,,,,,,,,,,,,,,,,,,,1.692,907.6821654001251,None,None,1,907.6821654001251,None,,P010,fencog,2,Pre,2021_Sep_06_1130,N-Back (New Version 2021),2021.1.4,120.79176587732738,
,,,,Conditions/Version_1/oneback(1)_v1.xlsx,New rule: Press 'space' when you see 1-back (i.e. the same letter as the one that appeared 1 letter ago.),f,None,,,,,,,,,0,1,1,1,0,8,8,8,,,,,,,,,,,,,,,,,,,,,,,,,,,,,,,,,,,,,,,,,,,,,,,,,,,,,,,,,,,,,,,,,,,,,1.5308,911.2206967000384,None,None,1,911.2206967000384,None,,P010,fencog,2,Pre,2021_Sep_06_1130,N-Back (New Version 2021),2021.1.4,120.79176587732738,
,,,,Conditions/Version_1/oneback(1)_v1.xlsx,New rule: Press 'space' when you see 1-back (i.e. the same letter as the one that appeared 1 letter ago.),F,space,,,,,,,,,0,1,1,1,0,9,9,9,,,,,,,,,,,,,,,,,,,,,,,,,,,,,,,,,,,,,,,,,,,,,,,,,,,,,,,,,,,,,,,,,,,,,1.1836,914.40324470005,None,space,1,914.40324470005,None,0.337800299981609,P010,fencog,2,Pre,2021_Sep_06_1130,N-Back (New Version 2021),2021.1.4,120.79176587732738,
,,,,Conditions/Version_1/oneback(1)_v1.xlsx,New rule: Press 'space' when you see 1-back (i.e. the same letter as the one that appeared 1 letter ago.),,,,,,,,,,,0,1,1,1,,,,,,,,,,,,,,,,,,,,,,,,,,,,,,,,,,,,,,,,,,,,,,,,,,,,,,,,,,,,,,,,,,,,,,,,,,,,,,,,,P010,fencog,2,Pre,2021_Sep_06_1130,N-Back (New Version 2021),2021.1.4,120.79176587732738,
,,,,Conditions/Version_1/twoback(1)_v1.xlsx,New rule: Press 'space' when you see 2-back (i.e. the same letter as the one that appeared 2 letters ago.),b,None,,,,,,,,,0,2,2,2,0,0,0,0,,,,,,,,,,,,,,,,,,,,,,,,,,,,,,,,,,,,,,,,,,,,,,,,,,,,,,,,,,,916.432390200207,None,919.4193143001758,None,space,0.4017556000035256,919.4193143001758,None,916.432390200207,None,1.1092,920.9600050000008,None,None,1,920.9600050000008,None,,P010,fencog,2,Pre,2021_Sep_06_1130,N-Back (New Version 2021),2021.1.4,120.79176587732738,
,,,,Conditions/Version_1/twoback(1)_v1.xlsx,New rule: Press 'space' when you see 2-back (i.e. the same letter as the one that appeared 2 letters ago.),h,None,,,,,,,,,0,2,2,2,0,1,1,1,,,,,,,,,,,,,,,,,,,,,,,,,,,,,,,,,,,,,,,,,,,,,,,,,,,,,,,,,,,,,,,,,,,,,1.0968,924.075614000205,None,None,1,924.075614000205,None,,P010,fencog,2,Pre,2021_Sep_06_1130,N-Back (New Version 2021),2021.1.4,120.79176587732738,
,,,,Conditions/Version_1/twoback(1)_v1.xlsx,New rule: Press 'space' when you see 2-back (i.e. the same letter as the one that appeared 2 letters ago.),j,None,,,,,,,,,0,2,2,2,0,2,2,2,,,,,,,,,,,,,,,,,,,,,,,,,,,,,,,,,,,,,,,,,,,,,,,,,,,,,,,,,,,,,,,,,,,,,1.3572,927.4370215001982,None,None,1,927.4370215001982,None,,P010,fencog,2,Pre,2021_Sep_06_1130,N-Back (New Version 2021),2021.1.4,120.79176587732738,
,,,,Conditions/Version_1/twoback(1)_v1.xlsx,New rule: Press 'space' when you see 2-back (i.e. the same letter as the one that appeared 2 letters ago.),H,space,,,,,,,,,0,2,2,2,0,3,3,3,,,,,,,,,,,,,,,,,,,,,,,,,,,,,,,,,,,,,,,,,,,,,,,,,,,,,,,,,,,,,,,,,,,,,1.8966,931.3437077000272,None,space,1,931.3437077000272,None,1.893362500006333,P010,fencog,2,Pre,2021_Sep_06_1130,N-Back (New Version 2021),2021.1.4,120.79176587732738,
,,,,Conditions/Version_1/twoback(1)_v1.xlsx,New rule: Press 'space' when you see 2-back (i.e. the same letter as the one that appeared 2 letters ago.),p,None,,,,,,,,,0,2,2,2,0,4,4,4,,,,,,,,,,,,,,,,,,,,,,,,,,,,,,,,,,,,,,,,,,,,,,,,,,,,,,,,,,,,,,,,,,,,,1.4998,934.8466675002128,None,None,1,934.8466675002128,None,,P010,fencog,2,Pre,2021_Sep_06_1130,N-Back (New Version 2021),2021.1.4,120.79176587732738,
,,,,Conditions/Version_1/twoback(1)_v1.xlsx,New rule: Press 'space' when you see 2-back (i.e. the same letter as the one that appeared 2 letters ago.),p,None,,,,,,,,,0,2,2,2,0,5,5,5,,,,,,,,,,,,,,,,,,,,,,,,,,,,,,,,,,,,,,,,,,,,,,,,,,,,,,,,,,,,,,,,,,,,,1.0348,937.8951290000696,None,None,1,937.8951290000696,None,,P010,fencog,2,Pre,2021_Sep_06_1130,N-Back (New Version 2021),2021.1.4,120.79176587732738,
,,,,Conditions/Version_1/twoback(1)_v1.xlsx,New rule: Press 'space' when you see 2-back (i.e. the same letter as the one that appeared 2 letters ago.),w,None,,,,,,,,,0,2,2,2,0,6,6,6,,,,,,,,,,,,,,,,,,,,,,,,,,,,,,,,,,,,,,,,,,,,,,,,,,,,,,,,,,,,,,,,,,,,,1.8594,941.7619802001864,None,None,1,941.7619802001864,None,,P010,fencog,2,Pre,2021_Sep_06_1130,N-Back (New Version 2021),2021.1.4,120.79176587732738,
,,,,Conditions/Version_1/twoback(1)_v1.xlsx,New rule: Press 'space' when you see 2-back (i.e. the same letter as the one that appeared 2 letters ago.),R,None,,,,,,,,,0,2,2,2,0,7,7,7,,,,,,,,,,,,,,,,,,,,,,,,,,,,,,,,,,,,,,,,,,,,,,,,,,,,,,,,,,,,,,,,,,,,,1.9834,945.7560039001983,None,None,1,945.7560039001983,None,,P010,fencog,2,Pre,2021_Sep_06_1130,N-Back (New Version 2021),2021.1.4,120.79176587732738,
,,,,Conditions/Version_1/twoback(1)_v1.xlsx,New rule: Press 'space' when you see 2-back (i.e. the same letter as the one that appeared 2 letters ago.),a,None,,,,,,,,,0,2,2,2,0,8,8,8,,,,,,,,,,,,,,,,,,,,,,,,,,,,,,,,,,,,,,,,,,,,,,,,,,,,,,,,,,,,,,,,,,,,,1.7664,949.5252431000117,None,None,1,949.5252431000117,None,,P010,fencog,2,Pre,2021_Sep_06_1130,N-Back (New Version 2021),2021.1.4,120.79176587732738,
,,,,Conditions/Version_1/twoback(1)_v1.xlsx,New rule: Press 'space' when you see 2-back (i.e. the same letter as the one that appeared 2 letters ago.),r,space,,,,,,,,,0,2,2,2,0,9,9,9,,,,,,,,,,,,,,,,,,,,,,,,,,,,,,,,,,,,,,,,,,,,,,,,,,,,,,,,,,,,,,,,,,,,,1.041,952.5735485001933,None,space,1,952.5735485001933,None,0.6239673998206854,P010,fencog,2,Pre,2021_Sep_06_1130,N-Back (New Version 2021),2021.1.4,120.79176587732738,
,,,,Conditions/Version_1/twoback(1)_v1.xlsx,New rule: Press 'space' when you see 2-back (i.e. the same letter as the one that appeared 2 letters ago.),,,,,,,,,,,0,2,2,2,,,,,,,,,,,,,,,,,,,,,,,,,,,,,,,,,,,,,,,,,,,,,,,,,,,,,,,,,,,,,,,,,,,,,,,,,,,,,,,,,P010,fencog,2,Pre,2021_Sep_06_1130,N-Back (New Version 2021),2021.1.4,120.79176587732738,
,,,,Conditions/Version_1/threeback(1)_v1.xlsx,New rule: Press 'space' when you see 3-back (i.e. the same letter as the one that appeared 3 letters ago.),r,None,,,,,,,,,0,3,3,3,0,0,0,0,,,,,,,,,,,,,,,,,,,,,,,,,,,,,,,,,,,,,,,,,,,,,,,,,,,,,,,,,,,954.5970677000005,None,957.5827041000593,None,space,0.5183461999986321,957.5827041000593,None,954.5970677000005,None,1.8284,959.9548100000247,None,None,1,959.9548100000247,None,,P010,fencog,2,Pre,2021_Sep_06_1130,N-Back (New Version 2021),2021.1.4,120.79176587732738,
,,,,Conditions/Version_1/threeback(1)_v1.xlsx,New rule: Press 'space' when you see 3-back (i.e. the same letter as the one that appeared 3 letters ago.),o,None,,,,,,,,,0,3,3,3,0,1,1,1,,,,,,,,,,,,,,,,,,,,,,,,,,,,,,,,,,,,,,,,,,,,,,,,,,,,,,,,,,,,,,,,,,,,,1.0286,962.9895025000442,None,None,1,962.9895025000442,None,,P010,fencog,2,Pre,2021_Sep_06_1130,N-Back (New Version 2021),2021.1.4,120.79176587732738,
,,,,Conditions/Version_1/threeback(1)_v1.xlsx,New rule: Press 'space' when you see 3-back (i.e. the same letter as the one that appeared 3 letters ago.),P,None,,,,,,,,,0,3,3,3,0,2,2,2,,,,,,,,,,,,,,,,,,,,,,,,,,,,,,,,,,,,,,,,,,,,,,,,,,,,,,,,,,,,,,,,,,,,,1.909,966.9048971000593,None,None,1,966.9048971000593,None,,P010,fencog,2,Pre,2021_Sep_06_1130,N-Back (New Version 2021),2021.1.4,120.79176587732738,
,,,,Conditions/Version_1/threeback(1)_v1.xlsx,New rule: Press 'space' when you see 3-back (i.e. the same letter as the one that appeared 3 letters ago.),R,space,,,,,,,,,0,3,3,3,0,3,3,3,,,,,,,,,,,,,,,,,,,,,,,,,,,,,,,,,,,,,,,,,,,,,,,,,,,,,,,,,,,,,,,,,,,,,1.2952,970.2166265000124,None,space,1,970.2166265000124,None,0.6122627998702228,P010,fencog,2,Pre,2021_Sep_06_1130,N-Back (New Version 2021),2021.1.4,120.79176587732738,
,,,,Conditions/Version_1/threeback(1)_v1.xlsx,New rule: Press 'space' when you see 3-back (i.e. the same letter as the one that appeared 3 letters ago.),p,None,,,,,,,,,0,3,3,3,0,4,4,4,,,,,,,,,,,,,,,,,,,,,,,,,,,,,,,,,,,,,,,,,,,,,,,,,,,,,,,,,,,,,,,,,,,,,1.9524,974.1780747000594,None,None,1,974.1780747000594,None,,P010,fencog,2,Pre,2021_Sep_06_1130,N-Back (New Version 2021),2021.1.4,120.79176587732738,
,,,,Conditions/Version_1/threeback(1)_v1.xlsx,New rule: Press 'space' when you see 3-back (i.e. the same letter as the one that appeared 3 letters ago.),E,None,,,,,,,,,0,3,3,3,0,5,5,5,,,,,,,,,,,,,,,,,,,,,,,,,,,,,,,,,,,,,,,,,,,,,,,,,,,,,,,,,,,,,,,,,,,,,1.4502,977.6364862001501,None,None,1,977.6364862001501,None,,P010,fencog,2,Pre,2021_Sep_06_1130,N-Back (New Version 2021),2021.1.4,120.79176587732738,
,,,,Conditions/Version_1/threeback(1)_v1.xlsx,New rule: Press 'space' when you see 3-back (i.e. the same letter as the one that appeared 3 letters ago.),e,None,,,,,,,,,0,3,3,3,0,6,6,6,,,,,,,,,,,,,,,,,,,,,,,,,,,,,,,,,,,,,,,,,,,,,,,,,,,,,,,,,,,,,,,,,,,,,1.3076,980.950442600064,None,None,1,980.950442600064,None,,P010,fencog,2,Pre,2021_Sep_06_1130,N-Back (New Version 2021),2021.1.4,120.79176587732738,
,,,,Conditions/Version_1/threeback(1)_v1.xlsx,New rule: Press 'space' when you see 3-back (i.e. the same letter as the one that appeared 3 letters ago.),m,None,,,,,,,,,0,3,3,3,0,7,7,7,,,,,,,,,,,,,,,,,,,,,,,,,,,,,,,,,,,,,,,,,,,,,,,,,,,,,,,,,,,,,,,,,,,,,1.4874,984.4475199000444,None,None,1,984.4475199000444,None,,P010,fencog,2,Pre,2021_Sep_06_1130,N-Back (New Version 2021),2021.1.4,120.79176587732738,
,,,,Conditions/Version_1/threeback(1)_v1.xlsx,New rule: Press 'space' when you see 3-back (i.e. the same letter as the one that appeared 3 letters ago.),n,None,,,,,,,,,0,3,3,3,0,8,8,8,,,,,,,,,,,,,,,,,,,,,,,,,,,,,,,,,,,,,,,,,,,,,,,,,,,,,,,,,,,,,,,,,,,,,1.3696,987.8247864001896,None,None,1,987.8247864001896,None,,P010,fencog,2,Pre,2021_Sep_06_1130,N-Back (New Version 2021),2021.1.4,120.79176587732738,
,,,,Conditions/Version_1/threeback(1)_v1.xlsx,New rule: Press 'space' when you see 3-back (i.e. the same letter as the one that appeared 3 letters ago.),e,space,,,,,,,,,0,3,3,3,0,9,9,9,,,,,,,,,,,,,,,,,,,,,,,,,,,,,,,,,,,,,,,,,,,,,,,,,,,,,,,,,,,,,,,,,,,,,1.5618,991.396884100046,None,space,1,991.396884100046,None,0.9441049001179636,P010,fencog,2,Pre,2021_Sep_06_1130,N-Back (New Version 2021),2021.1.4,120.79176587732738,
,,,,Conditions/Version_1/threeback(1)_v1.xlsx,New rule: Press 'space' when you see 3-back (i.e. the same letter as the one that appeared 3 letters ago.),,,,,,,,,,,0,3,3,3,,,,,,,,,,,,,,,,,,,,,,,,,,,,,,,,,,,,,,,,,,,,,,,,,,,,,,,,,,,,,,,,,,,,,,,,,,,,,,,,,P010,fencog,2,Pre,2021_Sep_06_1130,N-Back (New Version 2021),2021.1.4,120.79176587732738,
,,,,Conditions/Version_1/oneback(2)_v1.xlsx,New rule: Press 'space' when you see 1-back (i.e. the same letter as the one that appeared 1 letter ago.),q,None,,,,,,,,,0,4,4,4,0,0,0,0,,,,,,,,,,,,,,,,,,,,,,,,,,,,,,,,,,,,,,,,,,,,,,,,,,,,,,,,,,,993.4265237001237,None,996.4133131001145,None,space,0.975853799842298,996.4133131001145,None,993.4265237001237,None,1.7168,999.1354776001535,None,None,1,999.1354776001535,None,,P010,fencog,2,Pre,2021_Sep_06_1130,N-Back (New Version 2021),2021.1.4,120.79176587732738,
,,,,Conditions/Version_1/oneback(2)_v1.xlsx,New rule: Press 'space' when you see 1-back (i.e. the same letter as the one that appeared 1 letter ago.),Q,space,,,,,,,,,0,4,4,4,0,1,1,1,,,,,,,,,,,,,,,,,,,,,,,,,,,,,,,,,,,,,,,,,,,,,,,,,,,,,,,,,,,,,,,,,,,,,1.6858,1002.8336421002168,None,space,1,1002.8336421002168,None,0.4118039000313729,P010,fencog,2,Pre,2021_Sep_06_1130,N-Back (New Version 2021),2021.1.4,120.79176587732738,
,,,,Conditions/Version_1/oneback(2)_v1.xlsx,New rule: Press 'space' when you see 1-back (i.e. the same letter as the one that appeared 1 letter ago.),P,None,,,,,,,,,0,4,4,4,0,2,2,2,,,,,,,,,,,,,,,,,,,,,,,,,,,,,,,,,,,,,,,,,,,,,,,,,,,,,,,,,,,,,,,,,,,,,1.8346,1006.6767039000988,None,None,1,1006.6767039000988,None,,P010,fencog,2,Pre,2021_Sep_06_1130,N-Back (New Version 2021),2021.1.4,120.79176587732738,
,,,,Conditions/Version_1/oneback(2)_v1.xlsx,New rule: Press 'space' when you see 1-back (i.e. the same letter as the one that appeared 1 letter ago.),o,None,,,,,,,,,0,4,4,4,0,3,3,3,,,,,,,,,,,,,,,,,,,,,,,,,,,,,,,,,,,,,,,,,,,,,,,,,,,,,,,,,,,,,,,,,,,,,1.4254,1010.1071614001412,None,None,1,1010.1071614001412,None,,P010,fencog,2,Pre,2021_Sep_06_1130,N-Back (New Version 2021),2021.1.4,120.79176587732738,
,,,,Conditions/Version_1/oneback(2)_v1.xlsx,New rule: Press 'space' when you see 1-back (i.e. the same letter as the one that appeared 1 letter ago.),m,None,,,,,,,,,0,4,4,4,0,4,4,4,,,,,,,,,,,,,,,,,,,,,,,,,,,,,,,,,,,,,,,,,,,,,,,,,,,,,,,,,,,,,,,,,,,,,1.599,1013.7175811000634,None,None,1,1013.7175811000634,None,,P010,fencog,2,Pre,2021_Sep_06_1130,N-Back (New Version 2021),2021.1.4,120.79176587732738,
,,,,Conditions/Version_1/oneback(2)_v1.xlsx,New rule: Press 'space' when you see 1-back (i.e. the same letter as the one that appeared 1 letter ago.),Z,None,,,,,,,,,0,4,4,4,0,5,5,5,,,,,,,,,,,,,,,,,,,,,,,,,,,,,,,,,,,,,,,,,,,,,,,,,,,,,,,,,,,,,,,,,,,,,1.8656,1017.5911727000494,None,None,1,1017.5911727000494,None,,P010,fencog,2,Pre,2021_Sep_06_1130,N-Back (New Version 2021),2021.1.4,120.79176587732738,
,,,,Conditions/Version_1/oneback(2)_v1.xlsx,New rule: Press 'space' when you see 1-back (i.e. the same letter as the one that appeared 1 letter ago.),c,None,,,,,,,,,0,4,4,4,0,6,6,6,,,,,,,,,,,,,,,,,,,,,,,,,,,,,,,,,,,,,,,,,,,,,,,,,,,,,,,,,,,,,,,,,,,,,1.258,1020.8636745000258,None,None,1,1020.8636745000258,None,,P010,fencog,2,Pre,2021_Sep_06_1130,N-Back (New Version 2021),2021.1.4,120.79176587732738,
,,,,Conditions/Version_1/oneback(2)_v1.xlsx,New rule: Press 'space' when you see 1-back (i.e. the same letter as the one that appeared 1 letter ago.),c,space,,,,,,,,,0,4,4,4,0,7,7,7,,,,,,,,,,,,,,,,,,,,,,,,,,,,,,,,,,,,,,,,,,,,,,,,,,,,,,,,,,,,,,,,,,,,,1.0286,1023.9027161002159,None,space,1,1023.9027161002159,None,0.45429800008423626,P010,fencog,2,Pre,2021_Sep_06_1130,N-Back (New Version 2021),2021.1.4,120.79176587732738,
,,,,Conditions/Version_1/oneback(2)_v1.xlsx,New rule: Press 'space' when you see 1-back (i.e. the same letter as the one that appeared 1 letter ago.),P,None,,,,,,,,,0,4,4,4,0,8,8,8,,,,,,,,,,,,,,,,,,,,,,,,,,,,,,,,,,,,,,,,,,,,,,,,,,,,,,,,,,,,,,,,,,,,,1.8222,1027.7262853002176,None,None,1,1027.7262853002176,None,,P010,fencog,2,Pre,2021_Sep_06_1130,N-Back (New Version 2021),2021.1.4,120.79176587732738,
,,,,Conditions/Version_1/oneback(2)_v1.xlsx,New rule: Press 'space' when you see 1-back (i.e. the same letter as the one that appeared 1 letter ago.),p,space,,,,,,,,,0,4,4,4,0,9,9,9,,,,,,,,,,,,,,,,,,,,,,,,,,,,,,,,,,,,,,,,,,,,,,,,,,,,,,,,,,,,,,,,,,,,,1.9586,1031.6837635000702,None,space,1,1031.6837635000702,None,0.3530417999718338,P010,fencog,2,Pre,2021_Sep_06_1130,N-Back (New Version 2021),2021.1.4,120.79176587732738,
,,,,Conditions/Version_1/oneback(2)_v1.xlsx,New rule: Press 'space' when you see 1-back (i.e. the same letter as the one that appeared 1 letter ago.),,,,,,,,,,,0,4,4,4,,,,,,,,,,,,,,,,,,,,,,,,,,,,,,,,,,,,,,,,,,,,,,,,,,,,,,,,,,,,,,,,,,,,,,,,,,,,,,,,,P010,fencog,2,Pre,2021_Sep_06_1130,N-Back (New Version 2021),2021.1.4,120.79176587732738,
,,,,Conditions/Version_1/zeroback(2)_v1.xlsx,New rule: Press 'space' when you see the letter 'x' or 'X'.,p,None,,,,,,,,,0,5,5,5,0,0,0,0,,,,,,,,,,,,,,,,,,,,,,,,,,,,,,,,,,,,,,,,,,,,,,,,,,,,,,,,,,,1033.7153197000735,None,1036.7017814000137,None,space,0.3840491999872029,1036.7017814000137,None,1033.7153197000735,None,1.2084,1038.3316060001962,None,None,1,1038.3316060001962,None,,P010,fencog,2,Pre,2021_Sep_06_1130,N-Back (New Version 2021),2021.1.4,120.79176587732738,
,,,,Conditions/Version_1/zeroback(2)_v1.xlsx,New rule: Press 'space' when you see the letter 'x' or 'X'.,L,None,,,,,,,,,0,5,5,5,0,1,1,1,,,,,,,,,,,,,,,,,,,,,,,,,,,,,,,,,,,,,,,,,,,,,,,,,,,,,,,,,,,,,,,,,,,,,1.4316,1041.7638671000022,None,None,1,1041.7638671000022,None,,P010,fencog,2,Pre,2021_Sep_06_1130,N-Back (New Version 2021),2021.1.4,120.79176587732738,
,,,,Conditions/Version_1/zeroback(2)_v1.xlsx,New rule: Press 'space' when you see the letter 'x' or 'X'.,G,None,,,,,,,,,0,5,5,5,0,2,2,2,,,,,,,,,,,,,,,,,,,,,,,,,,,,,,,,,,,,,,,,,,,,,,,,,,,,,,,,,,,,,,,,,,,,,1.754,1045.5222272002138,None,None,1,1045.5222272002138,None,,P010,fencog,2,Pre,2021_Sep_06_1130,N-Back (New Version 2021),2021.1.4,120.79176587732738,
,,,,Conditions/Version_1/zeroback(2)_v1.xlsx,New rule: Press 'space' when you see the letter 'x' or 'X'.,y,None,,,,,,,,,0,5,5,5,0,3,3,3,,,,,,,,,,,,,,,,,,,,,,,,,,,,,,,,,,,,,,,,,,,,,,,,,,,,,,,,,,,,,,,,,,,,,1.6114,1049.1454225000925,None,None,1,1049.1454225000925,None,,P010,fencog,2,Pre,2021_Sep_06_1130,N-Back (New Version 2021),2021.1.4,120.79176587732738,
,,,,Conditions/Version_1/zeroback(2)_v1.xlsx,New rule: Press 'space' when you see the letter 'x' or 'X'.,Y,None,,,,,,,,,0,5,5,5,0,4,4,4,,,,,,,,,,,,,,,,,,,,,,,,,,,,,,,,,,,,,,,,,,,,,,,,,,,,,,,,,,,,,,,,,,,,,1.3262,1052.4788116000127,None,None,1,1052.4788116000127,None,,P010,fencog,2,Pre,2021_Sep_06_1130,N-Back (New Version 2021),2021.1.4,120.79176587732738,
,,,,Conditions/Version_1/zeroback(2)_v1.xlsx,New rule: Press 'space' when you see the letter 'x' or 'X'.,W,None,,,,,,,,,0,5,5,5,0,5,5,5,,,,,,,,,,,,,,,,,,,,,,,,,,,,,,,,,,,,,,,,,,,,,,,,,,,,,,,,,,,,,,,,,,,,,1.7106,1056.1945709001739,None,None,1,1056.1945709001739,None,,P010,fencog,2,Pre,2021_Sep_06_1130,N-Back (New Version 2021),2021.1.4,120.79176587732738,
,,,,Conditions/Version_1/zeroback(2)_v1.xlsx,New rule: Press 'space' when you see the letter 'x' or 'X'.,x,space,,,,,,,,,0,5,5,5,0,6,6,6,,,,,,,,,,,,,,,,,,,,,,,,,,,,,,,,,,,,,,,,,,,,,,,,,,,,,,,,,,,,,,,,,,,,,1.01,1059.221517099999,None,space,1,1059.221517099999,None,0.5437726001255214,P010,fencog,2,Pre,2021_Sep_06_1130,N-Back (New Version 2021),2021.1.4,120.79176587732738,
,,,,Conditions/Version_1/zeroback(2)_v1.xlsx,New rule: Press 'space' when you see the letter 'x' or 'X'.,X,space,,,,,,,,,0,5,5,5,0,7,7,7,,,,,,,,,,,,,,,,,,,,,,,,,,,,,,,,,,,,,,,,,,,,,,,,,,,,,,,,,,,,,,,,,,,,,1.7912,1063.017846800154,None,space,1,1063.017846800154,None,0.6832177999895066,P010,fencog,2,Pre,2021_Sep_06_1130,N-Back (New Version 2021),2021.1.4,120.79176587732738,
,,,,Conditions/Version_1/zeroback(2)_v1.xlsx,New rule: Press 'space' when you see the letter 'x' or 'X'.,p,None,,,,,,,,,0,5,5,5,0,8,8,8,,,,,,,,,,,,,,,,,,,,,,,,,,,,,,,,,,,,,,,,,,,,,,,,,,,,,,,,,,,,,,,,,,,,,1.878,1066.9118421000894,None,None,1,1066.9118421000894,None,,P010,fencog,2,Pre,2021_Sep_06_1130,N-Back (New Version 2021),2021.1.4,120.79176587732738,
,,,,Conditions/Version_1/zeroback(2)_v1.xlsx,New rule: Press 'space' when you see the letter 'x' or 'X'.,h,None,,,,,,,,,0,5,5,5,0,9,9,9,,,,,,,,,,,,,,,,,,,,,,,,,,,,,,,,,,,,,,,,,,,,,,,,,,,,,,,,,,,,,,,,,,,,,1.3448,1070.2639040001668,None,None,1,1070.2639040001668,None,,P010,fencog,2,Pre,2021_Sep_06_1130,N-Back (New Version 2021),2021.1.4,120.79176587732738,
,,,,Conditions/Version_1/zeroback(2)_v1.xlsx,New rule: Press 'space' when you see the letter 'x' or 'X'.,,,,,,,,,,,0,5,5,5,,,,,,,,,,,,,,,,,,,,,,,,,,,,,,,,,,,,,,,,,,,,,,,,,,,,,,,,,,,,,,,,,,,,,,,,,,,,,,,,,P010,fencog,2,Pre,2021_Sep_06_1130,N-Back (New Version 2021),2021.1.4,120.79176587732738,
,,,,Conditions/Version_1/threeback(2)_v1.xlsx,New rule: Press 'space' when you see 3-back (i.e. the same letter as the one that appeared 3 letters ago.),q,None,,,,,,,,,0,6,6,6,0,0,0,0,,,,,,,,,,,,,,,,,,,,,,,,,,,,,,,,,,,,,,,,,,,,,,,,,,,,,,,,,,,1072.3014520001598,None,1075.289998000022,None,space,4.4831880000419915,1075.289998000022,None,1072.3014520001598,None,1.3944,1081.188828700222,None,None,1,1081.188828700222,None,,P010,fencog,2,Pre,2021_Sep_06_1130,N-Back (New Version 2021),2021.1.4,120.79176587732738,
,,,,Conditions/Version_1/threeback(2)_v1.xlsx,New rule: Press 'space' when you see 3-back (i.e. the same letter as the one that appeared 3 letters ago.),Y,None,,,,,,,,,0,6,6,6,0,1,1,1,,,,,,,,,,,,,,,,,,,,,,,,,,,,,,,,,,,,,,,,,,,,,,,,,,,,,,,,,,,,,,,,,,,,,1.3758,1084.5775092002004,None,None,1,1084.5775092002004,None,,P010,fencog,2,Pre,2021_Sep_06_1130,N-Back (New Version 2021),2021.1.4,120.79176587732738,
,,,,Conditions/Version_1/threeback(2)_v1.xlsx,New rule: Press 'space' when you see 3-back (i.e. the same letter as the one that appeared 3 letters ago.),p,None,,,,,,,,,0,6,6,6,0,2,2,2,,,,,,,,,,,,,,,,,,,,,,,,,,,,,,,,,,,,,,,,,,,,,,,,,,,,,,,,,,,,,,,,,,,,,1.6362,1088.22706750012,None,None,1,1088.22706750012,None,,P010,fencog,2,Pre,2021_Sep_06_1130,N-Back (New Version 2021),2021.1.4,120.79176587732738,
,,,,Conditions/Version_1/threeback(2)_v1.xlsx,New rule: Press 'space' when you see 3-back (i.e. the same letter as the one that appeared 3 letters ago.),p,None,,,,,,,,,0,6,6,6,0,3,3,3,,,,,,,,,,,,,,,,,,,,,,,,,,,,,,,,,,,,,,,,,,,,,,,,,,,,,,,,,,,,,,,,,,,,,1.196,1091.4325719000772,None,None,1,1091.4325719000772,None,,P010,fencog,2,Pre,2021_Sep_06_1130,N-Back (New Version 2021),2021.1.4,120.79176587732738,
,,,,Conditions/Version_1/threeback(2)_v1.xlsx,New rule: Press 'space' when you see 3-back (i.e. the same letter as the one that appeared 3 letters ago.),y,space,,,,,,,,,0,6,6,6,0,4,4,4,,,,,,,,,,,,,,,,,,,,,,,,,,,,,,,,,,,,,,,,,,,,,,,,,,,,,,,,,,,,,,,,,,,,,1.3324,1094.766085300129,None,space,1,1094.766085300129,None,0.7187641998752952,P010,fencog,2,Pre,2021_Sep_06_1130,N-Back (New Version 2021),2021.1.4,120.79176587732738,
,,,,Conditions/Version_1/threeback(2)_v1.xlsx,New rule: Press 'space' when you see 3-back (i.e. the same letter as the one that appeared 3 letters ago.),u,None,,,,,,,,,0,6,6,6,0,5,5,5,,,,,,,,,,,,,,,,,,,,,,,,,,,,,,,,,,,,,,,,,,,,,,,,,,,,,,,,,,,,,,,,,,,,,1.9152,1098.6889354002196,None,None,1,1098.6889354002196,None,,P010,fencog,2,Pre,2021_Sep_06_1130,N-Back (New Version 2021),2021.1.4,120.79176587732738,
,,,,Conditions/Version_1/threeback(2)_v1.xlsx,New rule: Press 'space' when you see 3-back (i.e. the same letter as the one that appeared 3 letters ago.),P,space,,,,,,,,,0,6,6,6,0,6,6,6,,,,,,,,,,,,,,,,,,,,,,,,,,,,,,,,,,,,,,,,,,,,,,,,,,,,,,,,,,,,,,,,,,,,,1.072,1101.7650390001945,None,space,1,1101.7650390001945,None,1.9849923998117447,P010,fencog,2,Pre,2021_Sep_06_1130,N-Back (New Version 2021),2021.1.4,120.79176587732738,
,,,,Conditions/Version_1/threeback(2)_v1.xlsx,New rule: Press 'space' when you see 3-back (i.e. the same letter as the one that appeared 3 letters ago.),a,None,,,,,,,,,0,6,6,6,0,7,7,7,,,,,,,,,,,,,,,,,,,,,,,,,,,,,,,,,,,,,,,,,,,,,,,,,,,,,,,,,,,,,,,,,,,,,1.351,1105.1290026002098,None,None,1,1105.1290026002098,None,,P010,fencog,2,Pre,2021_Sep_06_1130,N-Back (New Version 2021),2021.1.4,120.79176587732738,
,,,,Conditions/Version_1/threeback(2)_v1.xlsx,New rule: Press 'space' when you see 3-back (i.e. the same letter as the one that appeared 3 letters ago.),U,space,,,,,,,,,0,6,6,6,0,8,8,8,,,,,,,,,,,,,,,,,,,,,,,,,,,,,,,,,,,,,,,,,,,,,,,,,,,,,,,,,,,,,,,,,,,,,1.785,1108.9201455002185,None,space,1,1108.9201455002185,None,0.6528543001040816,P010,fencog,2,Pre,2021_Sep_06_1130,N-Back (New Version 2021),2021.1.4,120.79176587732738,
,,,,Conditions/Version_1/threeback(2)_v1.xlsx,New rule: Press 'space' when you see 3-back (i.e. the same letter as the one that appeared 3 letters ago.),q,None,,,,,,,,,0,6,6,6,0,9,9,9,,,,,,,,,,,,,,,,,,,,,,,,,,,,,,,,,,,,,,,,,,,,,,,,,,,,,,,,,,,,,,,,,,,,,1.7044,1112.6392937002238,None,None,1,1112.6392937002238,None,,P010,fencog,2,Pre,2021_Sep_06_1130,N-Back (New Version 2021),2021.1.4,120.79176587732738,
,,,,Conditions/Version_1/threeback(2)_v1.xlsx,New rule: Press 'space' when you see 3-back (i.e. the same letter as the one that appeared 3 letters ago.),,,,,,,,,,,0,6,6,6,,,,,,,,,,,,,,,,,,,,,,,,,,,,,,,,,,,,,,,,,,,,,,,,,,,,,,,,,,,,,,,,,,,,,,,,,,,,,,,,,P010,fencog,2,Pre,2021_Sep_06_1130,N-Back (New Version 2021),2021.1.4,120.79176587732738,
,,,,Conditions/Version_1/twoback(2)_v1.xlsx,New rule: Press 'space' when you see 2-back (i.e. the same letter as the one that appeared 2 letters ago.),q,None,,,,,,,,,0,7,7,7,0,0,0,0,,,,,,,,,,,,,,,,,,,,,,,,,,,,,,,,,,,,,,,,,,,,,,,,,,,,,,,,,,,1114.6606384001207,None,1117.652320699999,None,space,0.5927991999778897,1117.652320699999,None,1114.6606384001207,None,1.8036,1120.0744066000916,None,None,1,1120.0744066000916,None,,P010,fencog,2,Pre,2021_Sep_06_1130,N-Back (New Version 2021),2021.1.4,120.79176587732738,
,,,,Conditions/Version_1/twoback(2)_v1.xlsx,New rule: Press 'space' when you see 2-back (i.e. the same letter as the one that appeared 2 letters ago.),r,None,,,,,,,,,0,7,7,7,0,1,1,1,,,,,,,,,,,,,,,,,,,,,,,,,,,,,,,,,,,,,,,,,,,,,,,,,,,,,,,,,,,,,,,,,,,,,1.2642,1123.3472956002224,None,None,1,1123.3472956002224,None,,P010,fencog,2,Pre,2021_Sep_06_1130,N-Back (New Version 2021),2021.1.4,120.79176587732738,
,,,,Conditions/Version_1/twoback(2)_v1.xlsx,New rule: Press 'space' when you see 2-back (i.e. the same letter as the one that appeared 2 letters ago.),q,space,,,,,,,,,0,7,7,7,0,2,2,2,,,,,,,,,,,,,,,,,,,,,,,,,,,,,,,,,,,,,,,,,,,,,,,,,,,,,,,,,,,,,,,,,,,,,1.3696,1126.7249711002223,None,space,1,1126.7249711002223,None,0.4241435998119414,P010,fencog,2,Pre,2021_Sep_06_1130,N-Back (New Version 2021),2021.1.4,120.79176587732738,
,,,,Conditions/Version_1/twoback(2)_v1.xlsx,New rule: Press 'space' when you see 2-back (i.e. the same letter as the one that appeared 2 letters ago.),P,None,,,,,,,,,0,7,7,7,0,3,3,3,,,,,,,,,,,,,,,,,,,,,,,,,,,,,,,,,,,,,,,,,,,,,,,,,,,,,,,,,,,,,,,,,,,,,1.4874,1130.2289874001872,None,None,1,1130.2289874001872,None,,P010,fencog,2,Pre,2021_Sep_06_1130,N-Back (New Version 2021),2021.1.4,120.79176587732738,
,,,,Conditions/Version_1/twoback(2)_v1.xlsx,New rule: Press 'space' when you see 2-back (i.e. the same letter as the one that appeared 2 letters ago.),p,None,,,,,,,,,0,7,7,7,0,4,4,4,,,,,,,,,,,,,,,,,,,,,,,,,,,,,,,,,,,,,,,,,,,,,,,,,,,,,,,,,,,,,,,,,,,,,1.9028,1134.1366464002058,None,None,1,1134.1366464002058,None,,P010,fencog,2,Pre,2021_Sep_06_1130,N-Back (New Version 2021),2021.1.4,120.79176587732738,
,,,,Conditions/Version_1/twoback(2)_v1.xlsx,New rule: Press 'space' when you see 2-back (i.e. the same letter as the one that appeared 2 letters ago.),H,None,,,,,,,,,0,7,7,7,0,5,5,5,,,,,,,,,,,,,,,,,,,,,,,,,,,,,,,,,,,,,,,,,,,,,,,,,,,,,,,,,,,,,,,,,,,,,1.5122,1137.6524409002159,None,None,1,1137.6524409002159,None,,P010,fencog,2,Pre,2021_Sep_06_1130,N-Back (New Version 2021),2021.1.4,120.79176587732738,
,,,,Conditions/Version_1/twoback(2)_v1.xlsx,New rule: Press 'space' when you see 2-back (i.e. the same letter as the one that appeared 2 letters ago.),g,None,,,,,,,,,0,7,7,7,0,6,6,6,,,,,,,,,,,,,,,,,,,,,,,,,,,,,,,,,,,,,,,,,,,,,,,,,,,,,,,,,,,,,,,,,,,,,1.4564,1141.1096308000851,None,None,1,1141.1096308000851,None,,P010,fencog,2,Pre,2021_Sep_06_1130,N-Back (New Version 2021),2021.1.4,120.79176587732738,
,,,,Conditions/Version_1/twoback(2)_v1.xlsx,New rule: Press 'space' when you see 2-back (i.e. the same letter as the one that appeared 2 letters ago.),j,None,,,,,,,,,0,7,7,7,0,7,7,7,,,,,,,,,,,,,,,,,,,,,,,,,,,,,,,,,,,,,,,,,,,,,,,,,,,,,,,,,,,,,,,,,,,,,1.7044,1144.816898100078,None,None,1,1144.816898100078,None,,P010,fencog,2,Pre,2021_Sep_06_1130,N-Back (New Version 2021),2021.1.4,120.79176587732738,
,,,,Conditions/Version_1/twoback(2)_v1.xlsx,New rule: Press 'space' when you see 2-back (i.e. the same letter as the one that appeared 2 letters ago.),g,space,,,,,,,,,0,7,7,7,0,8,8,8,,,,,,,,,,,,,,,,,,,,,,,,,,,,,,,,,,,,,,,,,,,,,,,,,,,,,,,,,,,,,,,,,,,,,1.9524,1148.7752873001155,None,space,1,1148.7752873001155,None,0.4697763998992741,P010,fencog,2,Pre,2021_Sep_06_1130,N-Back (New Version 2021),2021.1.4,120.79176587732738,
,,,,Conditions/Version_1/twoback(2)_v1.xlsx,New rule: Press 'space' when you see 2-back (i.e. the same letter as the one that appeared 2 letters ago.),G,None,,,,,,,,,0,7,7,7,0,9,9,9,,,,,,,,,,,,,,,,,,,,,,,,,,,,,,,,,,,,,,,,,,,,,,,,,,,,,,,,,,,,,,,,,,,,,1.5804,1152.3648210000247,None,space,0,1152.3648210000247,None,0.8401811001822352,P010,fencog,2,Pre,2021_Sep_06_1130,N-Back (New Version 2021),2021.1.4,120.79176587732738,
,,,,Conditions/Version_1/twoback(2)_v1.xlsx,New rule: Press 'space' when you see 2-back (i.e. the same letter as the one that appeared 2 letters ago.),,,,,,,,,,,0,7,7,7,,,,,,,,,,,,,,,,,,,,,,,,,,,,,,,,,,,,,,,,,,,,,,,,,,,,,,,,,,,,,,,,,,,,,,,,,,,,,,,,,P010,fencog,2,Pre,2021_Sep_06_1130,N-Back (New Version 2021),2021.1.4,120.79176587732738,
,,,,Conditions/Version_1/threeback(3)_v1.xlsx,New rule: Press 'space' when you see 3-back (i.e. the same letter as the one that appeared 3 letters ago.),w,None,,,,,,,,,0,8,8,8,0,0,0,0,,,,,,,,,,,,,,,,,,,,,,,,,,,,,,,,,,,,,,,,,,,,,,,,,,,,,,,,,,,1154.387098700041,None,1157.373885200126,None,space,69.17499330011196,1157.373885200126,None,1154.387098700041,None,1.5618,1228.1512380000204,None,None,1,1228.1512380000204,None,,P010,fencog,2,Pre,2021_Sep_06_1130,N-Back (New Version 2021),2021.1.4,120.79176587732738,
,,,,Conditions/Version_1/threeback(3)_v1.xlsx,New rule: Press 'space' when you see 3-back (i.e. the same letter as the one that appeared 3 letters ago.),p,None,,,,,,,,,0,8,8,8,0,1,1,1,,,,,,,,,,,,,,,,,,,,,,,,,,,,,,,,,,,,,,,,,,,,,,,,,,,,,,,,,,,,,,,,,,,,,1.103,1231.2580691000912,None,None,1,1231.2580691000912,None,,P010,fencog,2,Pre,2021_Sep_06_1130,N-Back (New Version 2021),2021.1.4,120.79176587732738,
,,,,Conditions/Version_1/threeback(3)_v1.xlsx,New rule: Press 'space' when you see 3-back (i.e. the same letter as the one that appeared 3 letters ago.),P,None,,,,,,,,,0,8,8,8,0,2,2,2,,,,,,,,,,,,,,,,,,,,,,,,,,,,,,,,,,,,,,,,,,,,,,,,,,,,,,,,,,,,,,,,,,,,,1.9524,1235.2152118000668,None,None,1,1235.2152118000668,None,,P010,fencog,2,Pre,2021_Sep_06_1130,N-Back (New Version 2021),2021.1.4,120.79176587732738,
,,,,Conditions/Version_1/threeback(3)_v1.xlsx,New rule: Press 'space' when you see 3-back (i.e. the same letter as the one that appeared 3 letters ago.),i,None,,,,,,,,,0,8,8,8,0,3,3,3,,,,,,,,,,,,,,,,,,,,,,,,,,,,,,,,,,,,,,,,,,,,,,,,,,,,,,,,,,,,,,,,,,,,,1.1588,1238.372743200045,None,None,1,1238.372743200045,None,,P010,fencog,2,Pre,2021_Sep_06_1130,N-Back (New Version 2021),2021.1.4,120.79176587732738,
,,,,Conditions/Version_1/threeback(3)_v1.xlsx,New rule: Press 'space' when you see 3-back (i.e. the same letter as the one that appeared 3 letters ago.),f,None,,,,,,,,,0,8,8,8,0,4,4,4,,,,,,,,,,,,,,,,,,,,,,,,,,,,,,,,,,,,,,,,,,,,,,,,,,,,,,,,,,,,,,,,,,,,,1.413,1241.7882490002085,None,None,1,1241.7882490002085,None,,P010,fencog,2,Pre,2021_Sep_06_1130,N-Back (New Version 2021),2021.1.4,120.79176587732738,
,,,,Conditions/Version_1/threeback(3)_v1.xlsx,New rule: Press 'space' when you see 3-back (i.e. the same letter as the one that appeared 3 letters ago.),o,None,,,,,,,,,0,8,8,8,0,5,5,5,,,,,,,,,,,,,,,,,,,,,,,,,,,,,,,,,,,,,,,,,,,,,,,,,,,,,,,,,,,,,,,,,,,,,1.3696,1245.1651074001566,None,None,1,1245.1651074001566,None,,P010,fencog,2,Pre,2021_Sep_06_1130,N-Back (New Version 2021),2021.1.4,120.79176587732738,
,,,,Conditions/Version_1/threeback(3)_v1.xlsx,New rule: Press 'space' when you see 3-back (i.e. the same letter as the one that appeared 3 letters ago.),w,None,,,,,,,,,0,8,8,8,0,6,6,6,,,,,,,,,,,,,,,,,,,,,,,,,,,,,,,,,,,,,,,,,,,,,,,,,,,,,,,,,,,,,,,,,,,,,1.0534,1248.2320180002134,None,None,1,1248.2320180002134,None,,P010,fencog,2,Pre,2021_Sep_06_1130,N-Back (New Version 2021),2021.1.4,120.79176587732738,
,,,,Conditions/Version_1/threeback(3)_v1.xlsx,New rule: Press 'space' when you see 3-back (i.e. the same letter as the one that appeared 3 letters ago.),F,space,,,,,,,,,0,8,8,8,0,7,7,7,,,,,,,,,,,,,,,,,,,,,,,,,,,,,,,,,,,,,,,,,,,,,,,,,,,,,,,,,,,,,,,,,,,,,1.5928,1251.8354354000185,None,space,1,1251.8354354000185,None,0.6098337001167238,P010,fencog,2,Pre,2021_Sep_06_1130,N-Back (New Version 2021),2021.1.4,120.79176587732738,
,,,,Conditions/Version_1/threeback(3)_v1.xlsx,New rule: Press 'space' when you see 3-back (i.e. the same letter as the one that appeared 3 letters ago.),p,None,,,,,,,,,0,8,8,8,0,8,8,8,,,,,,,,,,,,,,,,,,,,,,,,,,,,,,,,,,,,,,,,,,,,,,,,,,,,,,,,,,,,,,,,,,,,,1.5556,1255.3980615001637,None,None,1,1255.3980615001637,None,,P010,fencog,2,Pre,2021_Sep_06_1130,N-Back (New Version 2021),2021.1.4,120.79176587732738,
,,,,Conditions/Version_1/threeback(3)_v1.xlsx,New rule: Press 'space' when you see 3-back (i.e. the same letter as the one that appeared 3 letters ago.),W,space,,,,,,,,,0,8,8,8,0,9,9,9,,,,,,,,,,,,,,,,,,,,,,,,,,,,,,,,,,,,,,,,,,,,,,,,,,,,,,,,,,,,,,,,,,,,,1.8842,1259.2986640001182,None,space,1,1259.2986640001182,None,0.6582571000326425,P010,fencog,2,Pre,2021_Sep_06_1130,N-Back (New Version 2021),2021.1.4,120.79176587732738,
,,,,Conditions/Version_1/threeback(3)_v1.xlsx,New rule: Press 'space' when you see 3-back (i.e. the same letter as the one that appeared 3 letters ago.),,,,,,,,,,,0,8,8,8,,,,,,,,,,,,,,,,,,,,,,,,,,,,,,,,,,,,,,,,,,,,,,,,,,,,,,,,,,,,,,,,,,,,,,,,,,,,,,,,,P010,fencog,2,Pre,2021_Sep_06_1130,N-Back (New Version 2021),2021.1.4,120.79176587732738,
,,,,Conditions/Version_1/zeroback(3)_v1.xlsx,New rule: Press 'space' when you see the letter 'x' or 'X'.,X,space,,,,,,,,,0,9,9,9,0,0,0,0,,,,,,,,,,,,,,,,,,,,,,,,,,,,,,,,,,,,,,,,,,,,,,,,,,,,,,,,,,,1261.319540000055,None,1264.3106004002038,None,space,0.5423590999562293,1264.3106004002038,None,1261.319540000055,None,1.9462,1266.8331646001898,None,space,1,1266.8331646001898,None,0.6438101998064667,P010,fencog,2,Pre,2021_Sep_06_1130,N-Back (New Version 2021),2021.1.4,120.79176587732738,
,,,,Conditions/Version_1/zeroback(3)_v1.xlsx,New rule: Press 'space' when you see the letter 'x' or 'X'.,B,None,,,,,,,,,0,9,9,9,0,1,1,1,,,,,,,,,,,,,,,,,,,,,,,,,,,,,,,,,,,,,,,,,,,,,,,,,,,,,,,,,,,,,,,,,,,,,1.0906,1269.9320434001274,None,None,1,1269.9320434001274,None,,P010,fencog,2,Pre,2021_Sep_06_1130,N-Back (New Version 2021),2021.1.4,120.79176587732738,
,,,,Conditions/Version_1/zeroback(3)_v1.xlsx,New rule: Press 'space' when you see the letter 'x' or 'X'.,m,None,,,,,,,,,0,9,9,9,0,2,2,2,,,,,,,,,,,,,,,,,,,,,,,,,,,,,,,,,,,,,,,,,,,,,,,,,,,,,,,,,,,,,,,,,,,,,1.1092,1273.0552647002041,None,None,1,1273.0552647002041,None,,P010,fencog,2,Pre,2021_Sep_06_1130,N-Back (New Version 2021),2021.1.4,120.79176587732738,
,,,,Conditions/Version_1/zeroback(3)_v1.xlsx,New rule: Press 'space' when you see the letter 'x' or 'X'.,m,None,,,,,,,,,0,9,9,9,0,3,3,3,,,,,,,,,,,,,,,,,,,,,,,,,,,,,,,,,,,,,,,,,,,,,,,,,,,,,,,,,,,,,,,,,,,,,1.8718,1276.9281962001696,None,None,1,1276.9281962001696,None,,P010,fencog,2,Pre,2021_Sep_06_1130,N-Back (New Version 2021),2021.1.4,120.79176587732738,
,,,,Conditions/Version_1/zeroback(3)_v1.xlsx,New rule: Press 'space' when you see the letter 'x' or 'X'.,o,None,,,,,,,,,0,9,9,9,0,4,4,4,,,,,,,,,,,,,,,,,,,,,,,,,,,,,,,,,,,,,,,,,,,,,,,,,,,,,,,,,,,,,,,,,,,,,1.4254,1280.3604421000928,None,None,1,1280.3604421000928,None,,P010,fencog,2,Pre,2021_Sep_06_1130,N-Back (New Version 2021),2021.1.4,120.79176587732738,
,,,,Conditions/Version_1/zeroback(3)_v1.xlsx,New rule: Press 'space' when you see the letter 'x' or 'X'.,p,None,,,,,,,,,0,9,9,9,0,5,5,5,,,,,,,,,,,,,,,,,,,,,,,,,,,,,,,,,,,,,,,,,,,,,,,,,,,,,,,,,,,,,,,,,,,,,1.6238,1283.988970000064,None,None,1,1283.988970000064,None,,P010,fencog,2,Pre,2021_Sep_06_1130,N-Back (New Version 2021),2021.1.4,120.79176587732738,
,,,,Conditions/Version_1/zeroback(3)_v1.xlsx,New rule: Press 'space' when you see the letter 'x' or 'X'.,G,None,,,,,,,,,0,9,9,9,0,6,6,6,,,,,,,,,,,,,,,,,,,,,,,,,,,,,,,,,,,,,,,,,,,,,,,,,,,,,,,,,,,,,,,,,,,,,1.6362,1287.6331803000066,None,None,1,1287.6331803000066,None,,P010,fencog,2,Pre,2021_Sep_06_1130,N-Back (New Version 2021),2021.1.4,120.79176587732738,
,,,,Conditions/Version_1/zeroback(3)_v1.xlsx,New rule: Press 'space' when you see the letter 'x' or 'X'.,X,space,,,,,,,,,0,9,9,9,0,7,7,7,,,,,,,,,,,,,,,,,,,,,,,,,,,,,,,,,,,,,,,,,,,,,,,,,,,,,,,,,,,,,,,,,,,,,1.3572,1290.99283140013,None,space,1,1290.99283140013,None,0.46824709977954626,P010,fencog,2,Pre,2021_Sep_06_1130,N-Back (New Version 2021),2021.1.4,120.79176587732738,
,,,,Conditions/Version_1/zeroback(3)_v1.xlsx,New rule: Press 'space' when you see the letter 'x' or 'X'.,p,None,,,,,,,,,0,9,9,9,0,8,8,8,,,,,,,,,,,,,,,,,,,,,,,,,,,,,,,,,,,,,,,,,,,,,,,,,,,,,,,,,,,,,,,,,,,,,1.5618,1294.5673279000912,None,None,1,1294.5673279000912,None,,P010,fencog,2,Pre,2021_Sep_06_1130,N-Back (New Version 2021),2021.1.4,120.79176587732738,
,,,,Conditions/Version_1/zeroback(3)_v1.xlsx,New rule: Press 'space' when you see the letter 'x' or 'X'.,x,space,,,,,,,,,0,9,9,9,0,9,9,9,,,,,,,,,,,,,,,,,,,,,,,,,,,,,,,,,,,,,,,,,,,,,,,,,,,,,,,,,,,,,,,,,,,,,1.6672,1298.2421264001168,None,space,1,1298.2421264001168,None,0.5071050999686122,P010,fencog,2,Pre,2021_Sep_06_1130,N-Back (New Version 2021),2021.1.4,120.79176587732738,
,,,,Conditions/Version_1/zeroback(3)_v1.xlsx,New rule: Press 'space' when you see the letter 'x' or 'X'.,,,,,,,,,,,0,9,9,9,,,,,,,,,,,,,,,,,,,,,,,,,,,,,,,,,,,,,,,,,,,,,,,,,,,,,,,,,,,,,,,,,,,,,,,,,,,,,,,,,P010,fencog,2,Pre,2021_Sep_06_1130,N-Back (New Version 2021),2021.1.4,120.79176587732738,
,,,,Conditions/Version_1/twoback(3)_v1.xlsx,New rule: Press 'space' when you see 2-back (i.e. the same letter as the one that appeared 2 letters ago.),e,None,,,,,,,,,0,10,10,10,0,0,0,0,,,,,,,,,,,,,,,,,,,,,,,,,,,,,,,,,,,,,,,,,,,,,,,,,,,,,,,,,,,1300.2682775000576,None,1303.2552879001014,None,space,59.5578182998579,1303.2552879001014,None,1300.2682775000576,None,1.5122,1364.345758400159,None,None,1,1364.345758400159,None,,P010,fencog,2,Pre,2021_Sep_06_1130,N-Back (New Version 2021),2021.1.4,120.79176587732738,
,,,,Conditions/Version_1/twoback(3)_v1.xlsx,New rule: Press 'space' when you see 2-back (i.e. the same letter as the one that appeared 2 letters ago.),o,None,,,,,,,,,0,10,10,10,0,1,1,1,,,,,,,,,,,,,,,,,,,,,,,,,,,,,,,,,,,,,,,,,,,,,,,,,,,,,,,,,,,,,,,,,,,,,1.0596,1367.4179833000526,None,None,1,1367.4179833000526,None,,P010,fencog,2,Pre,2021_Sep_06_1130,N-Back (New Version 2021),2021.1.4,120.79176587732738,
,,,,Conditions/Version_1/twoback(3)_v1.xlsx,New rule: Press 'space' when you see 2-back (i.e. the same letter as the one that appeared 2 letters ago.),P,None,,,,,,,,,0,10,10,10,0,2,2,2,,,,,,,,,,,,,,,,,,,,,,,,,,,,,,,,,,,,,,,,,,,,,,,,,,,,,,,,,,,,,,,,,,,,,1.3944,1370.817879000213,None,None,1,1370.817879000213,None,,P010,fencog,2,Pre,2021_Sep_06_1130,N-Back (New Version 2021),2021.1.4,120.79176587732738,
,,,,Conditions/Version_1/twoback(3)_v1.xlsx,New rule: Press 'space' when you see 2-back (i.e. the same letter as the one that appeared 2 letters ago.),z,None,,,,,,,,,0,10,10,10,0,3,3,3,,,,,,,,,,,,,,,,,,,,,,,,,,,,,,,,,,,,,,,,,,,,,,,,,,,,,,,,,,,,,,,,,,,,,1.8346,1374.6681416002102,None,None,1,1374.6681416002102,None,,P010,fencog,2,Pre,2021_Sep_06_1130,N-Back (New Version 2021),2021.1.4,120.79176587732738,
,,,,Conditions/Version_1/twoback(3)_v1.xlsx,New rule: Press 'space' when you see 2-back (i.e. the same letter as the one that appeared 2 letters ago.),X,None,,,,,,,,,0,10,10,10,0,4,4,4,,,,,,,,,,,,,,,,,,,,,,,,,,,,,,,,,,,,,,,,,,,,,,,,,,,,,,,,,,,,,,,,,,,,,1.2704,1377.9495214000344,None,None,1,1377.9495214000344,None,,P010,fencog,2,Pre,2021_Sep_06_1130,N-Back (New Version 2021),2021.1.4,120.79176587732738,
,,,,Conditions/Version_1/twoback(3)_v1.xlsx,New rule: Press 'space' when you see 2-back (i.e. the same letter as the one that appeared 2 letters ago.),z,space,,,,,,,,,0,10,10,10,0,5,5,5,,,,,,,,,,,,,,,,,,,,,,,,,,,,,,,,,,,,,,,,,,,,,,,,,,,,,,,,,,,,,,,,,,,,,1.5618,1381.5220961000305,None,space,1,1381.5220961000305,None,0.8669715998694301,P010,fencog,2,Pre,2021_Sep_06_1130,N-Back (New Version 2021),2021.1.4,120.79176587732738,
,,,,Conditions/Version_1/twoback(3)_v1.xlsx,New rule: Press 'space' when you see 2-back (i.e. the same letter as the one that appeared 2 letters ago.),x,space,,,,,,,,,0,10,10,10,0,6,6,6,,,,,,,,,,,,,,,,,,,,,,,,,,,,,,,,,,,,,,,,,,,,,,,,,,,,,,,,,,,,,,,,,,,,,1.7106,1385.237657400081,None,space,1,1385.237657400081,None,0.783383599948138,P010,fencog,2,Pre,2021_Sep_06_1130,N-Back (New Version 2021),2021.1.4,120.79176587732738,
,,,,Conditions/Version_1/twoback(3)_v1.xlsx,New rule: Press 'space' when you see 2-back (i.e. the same letter as the one that appeared 2 letters ago.),c,None,,,,,,,,,0,10,10,10,0,7,7,7,,,,,,,,,,,,,,,,,,,,,,,,,,,,,,,,,,,,,,,,,,,,,,,,,,,,,,,,,,,,,,,,,,,,,1.3386,1388.5809272001497,None,None,1,1388.5809272001497,None,,P010,fencog,2,Pre,2021_Sep_06_1130,N-Back (New Version 2021),2021.1.4,120.79176587732738,
,,,,Conditions/Version_1/twoback(3)_v1.xlsx,New rule: Press 'space' when you see 2-back (i.e. the same letter as the one that appeared 2 letters ago.),i,None,,,,,,,,,0,10,10,10,0,8,8,8,,,,,,,,,,,,,,,,,,,,,,,,,,,,,,,,,,,,,,,,,,,,,,,,,,,,,,,,,,,,,,,,,,,,,1.6114,1392.2023095001932,None,None,1,1392.2023095001932,None,,P010,fencog,2,Pre,2021_Sep_06_1130,N-Back (New Version 2021),2021.1.4,120.79176587732738,
,,,,Conditions/Version_1/twoback(3)_v1.xlsx,New rule: Press 'space' when you see 2-back (i.e. the same letter as the one that appeared 2 letters ago.),C,space,,,,,,,,,0,10,10,10,0,9,9,9,,,,,,,,,,,,,,,,,,,,,,,,,,,,,,,,,,,,,,,,,,,,,,,,,,,,,,,,,,,,,,,,,,,,,1.9462,1396.1552614001557,None,space,1,1396.1552614001557,None,0.4499390001874417,P010,fencog,2,Pre,2021_Sep_06_1130,N-Back (New Version 2021),2021.1.4,120.79176587732738,
,,,,Conditions/Version_1/twoback(3)_v1.xlsx,New rule: Press 'space' when you see 2-back (i.e. the same letter as the one that appeared 2 letters ago.),,,,,,,,,,,0,10,10,10,,,,,,,,,,,,,,,,,,,,,,,,,,,,,,,,,,,,,,,,,,,,,,,,,,,,,,,,,,,,,,,,,,,,,,,,,,,,,,,,,P010,fencog,2,Pre,2021_Sep_06_1130,N-Back (New Version 2021),2021.1.4,120.79176587732738,
,,,,Conditions/Version_1/oneback(3)_v1.xlsx,New rule: Press 'space' when you see 1-back (i.e. the same letter as the one that appeared 1 letter ago.),o,None,,,,,,,,,0,11,11,11,0,0,0,0,,,,,,,,,,,,,,,,,,,,,,,,,,,,,,,,,,,,,,,,,,,,,,,,,,,,,,,,,,,1398.1828477000818,None,1401.1681393000763,None,space,0.3247879999689758,1401.1681393000763,None,1398.1828477000818,None,1.5928,1403.1086072002072,None,None,1,1403.1086072002072,None,,P010,fencog,2,Pre,2021_Sep_06_1130,N-Back (New Version 2021),2021.1.4,120.79176587732738,
,,,,Conditions/Version_1/oneback(3)_v1.xlsx,New rule: Press 'space' when you see 1-back (i.e. the same letter as the one that appeared 1 letter ago.),O,space,,,,,,,,,0,11,11,11,0,1,1,1,,,,,,,,,,,,,,,,,,,,,,,,,,,,,,,,,,,,,,,,,,,,,,,,,,,,,,,,,,,,,,,,,,,,,1.6858,1406.8103384000715,None,None,0,1406.8103384000715,None,,P010,fencog,2,Pre,2021_Sep_06_1130,N-Back (New Version 2021),2021.1.4,120.79176587732738,
,,,,Conditions/Version_1/oneback(3)_v1.xlsx,New rule: Press 'space' when you see 1-back (i.e. the same letter as the one that appeared 1 letter ago.),h,None,,,,,,,,,0,11,11,11,0,2,2,2,,,,,,,,,,,,,,,,,,,,,,,,,,,,,,,,,,,,,,,,,,,,,,,,,,,,,,,,,,,,,,,,,,,,,1.7292,1410.5478385000024,None,None,1,1410.5478385000024,None,,P010,fencog,2,Pre,2021_Sep_06_1130,N-Back (New Version 2021),2021.1.4,120.79176587732738,
,,,,Conditions/Version_1/oneback(3)_v1.xlsx,New rule: Press 'space' when you see 1-back (i.e. the same letter as the one that appeared 1 letter ago.),g,None,,,,,,,,,0,11,11,11,0,3,3,3,,,,,,,,,,,,,,,,,,,,,,,,,,,,,,,,,,,,,,,,,,,,,,,,,,,,,,,,,,,,,,,,,,,,,1.6672,1414.229131200118,None,None,1,1414.229131200118,None,,P010,fencog,2,Pre,2021_Sep_06_1130,N-Back (New Version 2021),2021.1.4,120.79176587732738,
,,,,Conditions/Version_1/oneback(3)_v1.xlsx,New rule: Press 'space' when you see 1-back (i.e. the same letter as the one that appeared 1 letter ago.),n,None,,,,,,,,,0,11,11,11,0,4,4,4,,,,,,,,,,,,,,,,,,,,,,,,,,,,,,,,,,,,,,,,,,,,,,,,,,,,,,,,,,,,,,,,,,,,,1.599,1417.8326684001368,None,None,1,1417.8326684001368,None,,P010,fencog,2,Pre,2021_Sep_06_1130,N-Back (New Version 2021),2021.1.4,120.79176587732738,
,,,,Conditions/Version_1/oneback(3)_v1.xlsx,New rule: Press 'space' when you see 1-back (i.e. the same letter as the one that appeared 1 letter ago.),z,None,,,,,,,,,0,11,11,11,0,5,5,5,,,,,,,,,,,,,,,,,,,,,,,,,,,,,,,,,,,,,,,,,,,,,,,,,,,,,,,,,,,,,,,,,,,,,1.7478,1421.5880643001292,None,None,1,1421.5880643001292,None,,P010,fencog,2,Pre,2021_Sep_06_1130,N-Back (New Version 2021),2021.1.4,120.79176587732738,
,,,,Conditions/Version_1/oneback(3)_v1.xlsx,New rule: Press 'space' when you see 1-back (i.e. the same letter as the one that appeared 1 letter ago.),X,None,,,,,,,,,0,11,11,11,0,6,6,6,,,,,,,,,,,,,,,,,,,,,,,,,,,,,,,,,,,,,,,,,,,,,,,,,,,,,,,,,,,,,,,,,,,,,1.8718,1425.4674213000108,None,None,1,1425.4674213000108,None,,P010,fencog,2,Pre,2021_Sep_06_1130,N-Back (New Version 2021),2021.1.4,120.79176587732738,
,,,,Conditions/Version_1/oneback(3)_v1.xlsx,New rule: Press 'space' when you see 1-back (i.e. the same letter as the one that appeared 1 letter ago.),r,None,,,,,,,,,0,11,11,11,0,7,7,7,,,,,,,,,,,,,,,,,,,,,,,,,,,,,,,,,,,,,,,,,,,,,,,,,,,,,,,,,,,,,,,,,,,,,1.7168,1429.1830415001605,None,None,1,1429.1830415001605,None,,P010,fencog,2,Pre,2021_Sep_06_1130,N-Back (New Version 2021),2021.1.4,120.79176587732738,
,,,,Conditions/Version_1/oneback(3)_v1.xlsx,New rule: Press 'space' when you see 1-back (i.e. the same letter as the one that appeared 1 letter ago.),r,space,,,,,,,,,0,11,11,11,0,8,8,8,,,,,,,,,,,,,,,,,,,,,,,,,,,,,,,,,,,,,,,,,,,,,,,,,,,,,,,,,,,,,,,,,,,,,1.9276,1433.1153603000566,None,space,1,1433.1153603000566,None,0.6013130999635905,P010,fencog,2,Pre,2021_Sep_06_1130,N-Back (New Version 2021),2021.1.4,120.79176587732738,
,,,,Conditions/Version_1/oneback(3)_v1.xlsx,New rule: Press 'space' when you see 1-back (i.e. the same letter as the one that appeared 1 letter ago.),P,None,,,,,,,,,0,11,11,11,0,9,9,9,,,,,,,,,,,,,,,,,,,,,,,,,,,,,,,,,,,,,,,,,,,,,,,,,,,,,,,,,,,,,,,,,,,,,1.3386,1436.4605773000512,None,None,1,1436.4605773000512,None,,P010,fencog,2,Pre,2021_Sep_06_1130,N-Back (New Version 2021),2021.1.4,120.79176587732738,
,,,,Conditions/Version_1/oneback(3)_v1.xlsx,New rule: Press 'space' when you see 1-back (i.e. the same letter as the one that appeared 1 letter ago.),,,,,,,,,,,0,11,11,11,,,,,,,,,,,,,,,,,,,,,,,,,,,,,,,,,,,,,,,,,,,,,,,,,,,,,,,,,,,,,,,,,,,,,,,,,,,,,,,,,P010,fencog,2,Pre,2021_Sep_06_1130,N-Back (New Version 2021),2021.1.4,120.79176587732738,
,,,,Conditions/Version_1/twoback(4)_v1.xlsx,New rule: Press 'space' when you see 2-back (i.e. the same letter as the one that appeared 2 letters ago.),r,None,,,,,,,,,0,12,12,12,0,0,0,0,,,,,,,,,,,,,,,,,,,,,,,,,,,,,,,,,,,,,,,,,,,,,,,,,,,,,,,,,,,1438.487591000041,None,1441.4736361000687,None,space,11.859330900013447,1441.4736361000687,None,1438.487591000041,None,1.1402,1454.5353460002225,None,None,1,1454.5353460002225,None,,P010,fencog,2,Pre,2021_Sep_06_1130,N-Back (New Version 2021),2021.1.4,120.79176587732738,
,,,,Conditions/Version_1/twoback(4)_v1.xlsx,New rule: Press 'space' when you see 2-back (i.e. the same letter as the one that appeared 2 letters ago.),T,None,,,,,,,,,0,12,12,12,0,1,1,1,,,,,,,,,,,,,,,,,,,,,,,,,,,,,,,,,,,,,,,,,,,,,,,,,,,,,,,,,,,,,,,,,,,,,1.568,1458.1162157000508,None,None,1,1458.1162157000508,None,,P010,fencog,2,Pre,2021_Sep_06_1130,N-Back (New Version 2021),2021.1.4,120.79176587732738,
,,,,Conditions/Version_1/twoback(4)_v1.xlsx,New rule: Press 'space' when you see 2-back (i.e. the same letter as the one that appeared 2 letters ago.),o,None,,,,,,,,,0,12,12,12,0,2,2,2,,,,,,,,,,,,,,,,,,,,,,,,,,,,,,,,,,,,,,,,,,,,,,,,,,,,,,,,,,,,,,,,,,,,,1.537,1461.665187700186,None,None,1,1461.665187700186,None,,P010,fencog,2,Pre,2021_Sep_06_1130,N-Back (New Version 2021),2021.1.4,120.79176587732738,
,,,,Conditions/Version_1/twoback(4)_v1.xlsx,New rule: Press 'space' when you see 2-back (i.e. the same letter as the one that appeared 2 letters ago.),p,None,,,,,,,,,0,12,12,12,0,3,3,3,,,,,,,,,,,,,,,,,,,,,,,,,,,,,,,,,,,,,,,,,,,,,,,,,,,,,,,,,,,,,,,,,,,,,1.6734,1465.3473155000247,None,None,1,1465.3473155000247,None,,P010,fencog,2,Pre,2021_Sep_06_1130,N-Back (New Version 2021),2021.1.4,120.79176587732738,
,,,,Conditions/Version_1/twoback(4)_v1.xlsx,New rule: Press 'space' when you see 2-back (i.e. the same letter as the one that appeared 2 letters ago.),p,None,,,,,,,,,0,12,12,12,0,4,4,4,,,,,,,,,,,,,,,,,,,,,,,,,,,,,,,,,,,,,,,,,,,,,,,,,,,,,,,,,,,,,,,,,,,,,1.692,1469.047043700004,None,None,1,1469.047043700004,None,,P010,fencog,2,Pre,2021_Sep_06_1130,N-Back (New Version 2021),2021.1.4,120.79176587732738,
,,,,Conditions/Version_1/twoback(4)_v1.xlsx,New rule: Press 'space' when you see 2-back (i.e. the same letter as the one that appeared 2 letters ago.),y,None,,,,,,,,,0,12,12,12,0,5,5,5,,,,,,,,,,,,,,,,,,,,,,,,,,,,,,,,,,,,,,,,,,,,,,,,,,,,,,,,,,,,,,,,,,,,,1.8532,1472.9117508002091,None,None,1,1472.9117508002091,None,,P010,fencog,2,Pre,2021_Sep_06_1130,N-Back (New Version 2021),2021.1.4,120.79176587732738,
,,,,Conditions/Version_1/twoback(4)_v1.xlsx,New rule: Press 'space' when you see 2-back (i.e. the same letter as the one that appeared 2 letters ago.),P,space,,,,,,,,,0,12,12,12,0,6,6,6,,,,,,,,,,,,,,,,,,,,,,,,,,,,,,,,,,,,,,,,,,,,,,,,,,,,,,,,,,,,,,,,,,,,,1.8346,1476.754063000204,None,space,1,1476.754063000204,None,1.11441979999654,P010,fencog,2,Pre,2021_Sep_06_1130,N-Back (New Version 2021),2021.1.4,120.79176587732738,
,,,,Conditions/Version_1/twoback(4)_v1.xlsx,New rule: Press 'space' when you see 2-back (i.e. the same letter as the one that appeared 2 letters ago.),y,None,,,,,,,,,0,12,12,12,0,7,7,7,,,,,,,,,,,,,,,,,,,,,,,,,,,,,,,,,,,,,,,,,,,,,,,,,,,,,,,,,,,,,,,,,,,,,1.072,1479.834990600124,None,space,0,1479.834990600124,None,1.4582981998100877,P010,fencog,2,Pre,2021_Sep_06_1130,N-Back (New Version 2021),2021.1.4,120.79176587732738,
,,,,Conditions/Version_1/twoback(4)_v1.xlsx,New rule: Press 'space' when you see 2-back (i.e. the same letter as the one that appeared 2 letters ago.),y,space,,,,,,,,,0,12,12,12,0,8,8,8,,,,,,,,,,,,,,,,,,,,,,,,,,,,,,,,,,,,,,,,,,,,,,,,,,,,,,,,,,,,,,,,,,,,,1.1154,1482.9505089002196,None,space,1,1482.9505089002196,None,0.7664628000929952,P010,fencog,2,Pre,2021_Sep_06_1130,N-Back (New Version 2021),2021.1.4,120.79176587732738,
,,,,Conditions/Version_1/twoback(4)_v1.xlsx,New rule: Press 'space' when you see 2-back (i.e. the same letter as the one that appeared 2 letters ago.),,,,,,,,,,,0,12,12,12,,,,,,,,,,,,,,,,,,,,,,,,,,,,,,,,,,,,,,,,,,,,,,,,,,,,,,,,,,,,,,,,,,,,,,,,,,,,,,,,,P010,fencog,2,Pre,2021_Sep_06_1130,N-Back (New Version 2021),2021.1.4,120.79176587732738,
,,,,Conditions/Version_1/zeroback(4)_v1.xlsx,New rule: Press 'space' when you see the letter 'x' or 'X'.,o,None,,,,,,,,,0,13,13,13,0,0,0,0,,,,,,,,,,,,,,,,,,,,,,,,,,,,,,,,,,,,,,,,,,,,,,,,,,,,,,,,,,,1484.9701941001695,None,1487.95931390021,None,space,0.35755289997905493,1487.95931390021,None,1484.9701941001695,None,1.8284,1490.1657903001178,None,None,1,1490.1657903001178,None,,P010,fencog,2,Pre,2021_Sep_06_1130,N-Back (New Version 2021),2021.1.4,120.79176587732738,
,,,,Conditions/Version_1/zeroback(4)_v1.xlsx,New rule: Press 'space' when you see the letter 'x' or 'X'.,X,space,,,,,,,,,0,13,13,13,0,1,1,1,,,,,,,,,,,,,,,,,,,,,,,,,,,,,,,,,,,,,,,,,,,,,,,,,,,,,,,,,,,,,,,,,,,,,1.2828,1493.4577617000323,None,space,1,1493.4577617000323,None,0.4433218000922352,P010,fencog,2,Pre,2021_Sep_06_1130,N-Back (New Version 2021),2021.1.4,120.79176587732738,
,,,,Conditions/Version_1/zeroback(4)_v1.xlsx,New rule: Press 'space' when you see the letter 'x' or 'X'.,p,None,,,,,,,,,0,13,13,13,0,2,2,2,,,,,,,,,,,,,,,,,,,,,,,,,,,,,,,,,,,,,,,,,,,,,,,,,,,,,,,,,,,,,,,,,,,,,1.5308,1496.9991387000773,None,None,1,1496.9991387000773,None,,P010,fencog,2,Pre,2021_Sep_06_1130,N-Back (New Version 2021),2021.1.4,120.79176587732738,
,,,,Conditions/Version_1/zeroback(4)_v1.xlsx,New rule: Press 'space' when you see the letter 'x' or 'X'.,m,None,,,,,,,,,0,13,13,13,0,3,3,3,,,,,,,,,,,,,,,,,,,,,,,,,,,,,,,,,,,,,,,,,,,,,,,,,,,,,,,,,,,,,,,,,,,,,1.4564,1500.4619554001838,None,None,1,1500.4619554001838,None,,P010,fencog,2,Pre,2021_Sep_06_1130,N-Back (New Version 2021),2021.1.4,120.79176587732738,
,,,,Conditions/Version_1/zeroback(4)_v1.xlsx,New rule: Press 'space' when you see the letter 'x' or 'X'.,n,None,,,,,,,,,0,13,13,13,0,4,4,4,,,,,,,,,,,,,,,,,,,,,,,,,,,,,,,,,,,,,,,,,,,,,,,,,,,,,,,,,,,,,,,,,,,,,1.134,1503.604874000186,None,None,1,1503.604874000186,None,,P010,fencog,2,Pre,2021_Sep_06_1130,N-Back (New Version 2021),2021.1.4,120.79176587732738,
,,,,Conditions/Version_1/zeroback(4)_v1.xlsx,New rule: Press 'space' when you see the letter 'x' or 'X'.,m,None,,,,,,,,,0,13,13,13,0,5,5,5,,,,,,,,,,,,,,,,,,,,,,,,,,,,,,,,,,,,,,,,,,,,,,,,,,,,,,,,,,,,,,,,,,,,,1.8842,1507.4969030001666,None,None,1,1507.4969030001666,None,,P010,fencog,2,Pre,2021_Sep_06_1130,N-Back (New Version 2021),2021.1.4,120.79176587732738,
,,,,Conditions/Version_1/zeroback(4)_v1.xlsx,New rule: Press 'space' when you see the letter 'x' or 'X'.,C,None,,,,,,,,,0,13,13,13,0,6,6,6,,,,,,,,,,,,,,,,,,,,,,,,,,,,,,,,,,,,,,,,,,,,,,,,,,,,,,,,,,,,,,,,,,,,,1.8718,1511.3760766000487,None,None,1,1511.3760766000487,None,,P010,fencog,2,Pre,2021_Sep_06_1130,N-Back (New Version 2021),2021.1.4,120.79176587732738,
,,,,Conditions/Version_1/zeroback(4)_v1.xlsx,New rule: Press 'space' when you see the letter 'x' or 'X'.,m,None,,,,,,,,,0,13,13,13,0,7,7,7,,,,,,,,,,,,,,,,,,,,,,,,,,,,,,,,,,,,,,,,,,,,,,,,,,,,,,,,,,,,,,,,,,,,,1.196,1514.5768782000523,None,None,1,1514.5768782000523,None,,P010,fencog,2,Pre,2021_Sep_06_1130,N-Back (New Version 2021),2021.1.4,120.79176587732738,
,,,,Conditions/Version_1/zeroback(4)_v1.xlsx,New rule: Press 'space' when you see the letter 'x' or 'X'.,p,None,,,,,,,,,0,13,13,13,0,8,8,8,,,,,,,,,,,,,,,,,,,,,,,,,,,,,,,,,,,,,,,,,,,,,,,,,,,,,,,,,,,,,,,,,,,,,1.4316,1518.017417800147,None,None,1,1518.017417800147,None,,P010,fencog,2,Pre,2021_Sep_06_1130,N-Back (New Version 2021),2021.1.4,120.79176587732738,
,,,,Conditions/Version_1/zeroback(4)_v1.xlsx,New rule: Press 'space' when you see the letter 'x' or 'X'.,X,space,,,,,,,,,0,13,13,13,0,9,9,9,,,,,,,,,,,,,,,,,,,,,,,,,,,,,,,,,,,,,,,,,,,,,,,,,,,,,,,,,,,,,,,,,,,,,1.7044,1521.7323072000872,None,space,1,1521.7323072000872,None,0.46579240006394684,P010,fencog,2,Pre,2021_Sep_06_1130,N-Back (New Version 2021),2021.1.4,120.79176587732738,
,,,,Conditions/Version_1/zeroback(4)_v1.xlsx,New rule: Press 'space' when you see the letter 'x' or 'X'.,,,,,,,,,,,0,13,13,13,,,,,,,,,,,,,,,,,,,,,,,,,,,,,,,,,,,,,,,,,,,,,,,,,,,,,,,,,,,,,,,,,,,,,,,,,,,,,,,,,P010,fencog,2,Pre,2021_Sep_06_1130,N-Back (New Version 2021),2021.1.4,120.79176587732738,
,,,,Conditions/Version_1/oneback(4)_v1.xlsx,New rule: Press 'space' when you see 1-back (i.e. the same letter as the one that appeared 1 letter ago.),w,None,,,,,,,,,0,14,14,14,0,0,0,0,,,,,,,,,,,,,,,,,,,,,,,,,,,,,,,,,,,,,,,,,,,,,,,,,,,,,,,,,,,1523.7541003001388,None,1526.7400764001068,None,space,0.35267590009607375,1526.7400764001068,None,1523.7541003001388,None,1.8718,1528.9952960000373,None,None,1,1528.9952960000373,None,,P010,fencog,2,Pre,2021_Sep_06_1130,N-Back (New Version 2021),2021.1.4,120.79176587732738,
,,,,Conditions/Version_1/oneback(4)_v1.xlsx,New rule: Press 'space' when you see 1-back (i.e. the same letter as the one that appeared 1 letter ago.),q,None,,,,,,,,,0,14,14,14,0,1,1,1,,,,,,,,,,,,,,,,,,,,,,,,,,,,,,,,,,,,,,,,,,,,,,,,,,,,,,,,,,,,,,,,,,,,,1.7602,1532.7608387002256,None,None,1,1532.7608387002256,None,,P010,fencog,2,Pre,2021_Sep_06_1130,N-Back (New Version 2021),2021.1.4,120.79176587732738,
,,,,Conditions/Version_1/oneback(4)_v1.xlsx,New rule: Press 'space' when you see 1-back (i.e. the same letter as the one that appeared 1 letter ago.),i,None,,,,,,,,,0,14,14,14,0,2,2,2,,,,,,,,,,,,,,,,,,,,,,,,,,,,,,,,,,,,,,,,,,,,,,,,,,,,,,,,,,,,,,,,,,,,,1.103,1535.870894000167,None,None,1,1535.870894000167,None,,P010,fencog,2,Pre,2021_Sep_06_1130,N-Back (New Version 2021),2021.1.4,120.79176587732738,
,,,,Conditions/Version_1/oneback(4)_v1.xlsx,New rule: Press 'space' when you see 1-back (i.e. the same letter as the one that appeared 1 letter ago.),t,None,,,,,,,,,0,14,14,14,0,3,3,3,,,,,,,,,,,,,,,,,,,,,,,,,,,,,,,,,,,,,,,,,,,,,,,,,,,,,,,,,,,,,,,,,,,,,1.32,1539.2006531001534,None,None,1,1539.2006531001534,None,,P010,fencog,2,Pre,2021_Sep_06_1130,N-Back (New Version 2021),2021.1.4,120.79176587732738,
,,,,Conditions/Version_1/oneback(4)_v1.xlsx,New rule: Press 'space' when you see 1-back (i.e. the same letter as the one that appeared 1 letter ago.),v,None,,,,,,,,,0,14,14,14,0,4,4,4,,,,,,,,,,,,,,,,,,,,,,,,,,,,,,,,,,,,,,,,,,,,,,,,,,,,,,,,,,,,,,,,,,,,,1.1278,1542.333139800001,None,None,1,1542.333139800001,None,,P010,fencog,2,Pre,2021_Sep_06_1130,N-Back (New Version 2021),2021.1.4,120.79176587732738,
,,,,Conditions/Version_1/oneback(4)_v1.xlsx,New rule: Press 'space' when you see 1-back (i.e. the same letter as the one that appeared 1 letter ago.),V,space,,,,,,,,,0,14,14,14,0,5,5,5,,,,,,,,,,,,,,,,,,,,,,,,,,,,,,,,,,,,,,,,,,,,,,,,,,,,,,,,,,,,,,,,,,,,,1.2146,1545.555269600125,None,space,1,1545.555269600125,None,0.3458153000101447,P010,fencog,2,Pre,2021_Sep_06_1130,N-Back (New Version 2021),2021.1.4,120.79176587732738,
,,,,Conditions/Version_1/oneback(4)_v1.xlsx,New rule: Press 'space' when you see 1-back (i.e. the same letter as the one that appeared 1 letter ago.),v,space,,,,,,,,,0,14,14,14,0,6,6,6,,,,,,,,,,,,,,,,,,,,,,,,,,,,,,,,,,,,,,,,,,,,,,,,,,,,,,,,,,,,,,,,,,,,,1.6982,1549.2560964000877,None,space,1,1549.2560964000877,None,1.1565054000820965,P010,fencog,2,Pre,2021_Sep_06_1130,N-Back (New Version 2021),2021.1.4,120.79176587732738,
,,,,Conditions/Version_1/oneback(4)_v1.xlsx,New rule: Press 'space' when you see 1-back (i.e. the same letter as the one that appeared 1 letter ago.),p,None,,,,,,,,,0,14,14,14,0,7,7,7,,,,,,,,,,,,,,,,,,,,,,,,,,,,,,,,,,,,,,,,,,,,,,,,,,,,,,,,,,,,,,,,,,,,,1.568,1552.8309356002137,None,None,1,1552.8309356002137,None,,P010,fencog,2,Pre,2021_Sep_06_1130,N-Back (New Version 2021),2021.1.4,120.79176587732738,
,,,,Conditions/Version_1/oneback(4)_v1.xlsx,New rule: Press 'space' when you see 1-back (i.e. the same letter as the one that appeared 1 letter ago.),w,None,,,,,,,,,0,14,14,14,0,8,8,8,,,,,,,,,,,,,,,,,,,,,,,,,,,,,,,,,,,,,,,,,,,,,,,,,,,,,,,,,,,,,,,,,,,,,1.413,1556.2564747000579,None,None,1,1556.2564747000579,None,,P010,fencog,2,Pre,2021_Sep_06_1130,N-Back (New Version 2021),2021.1.4,120.79176587732738,
,,,,Conditions/Version_1/oneback(4)_v1.xlsx,New rule: Press 'space' when you see 1-back (i.e. the same letter as the one that appeared 1 letter ago.),W,space,,,,,,,,,0,14,14,14,0,9,9,9,,,,,,,,,,,,,,,,,,,,,,,,,,,,,,,,,,,,,,,,,,,,,,,,,,,,,,,,,,,,,,,,,,,,,1.6052,1559.8705589000601,None,space,1,1559.8705589000601,None,0.662318899994716,P010,fencog,2,Pre,2021_Sep_06_1130,N-Back (New Version 2021),2021.1.4,120.79176587732738,
,,,,Conditions/Version_1/oneback(4)_v1.xlsx,New rule: Press 'space' when you see 1-back (i.e. the same letter as the one that appeared 1 letter ago.),,,,,,,,,,,0,14,14,14,,,,,,,,,,,,,,,,,,,,,,,,,,,,,,,,,,,,,,,,,,,,,,,,,,,,,,,,,,,,,,,,,,,,,,,,,,,,,,,,,P010,fencog,2,Pre,2021_Sep_06_1130,N-Back (New Version 2021),2021.1.4,120.79176587732738,
,,,,Conditions/Version_1/threeback(4)_v1.xlsx,New rule: Press 'space' when you see 3-back (i.e. the same letter as the one that appeared 3 letters ago.),A,None,,,,,,,,,0,15,15,15,0,0,0,0,,,,,,,,,,,,,,,,,,,,,,,,,,,,,,,,,,,,,,,,,,,,,,,,,,,,,,,,,,,1561.9003469001036,None,1564.886707100086,None,space,2.1502495999448,1564.886707100086,None,1561.9003469001036,None,1.599,1568.6628009001724,None,None,1,1568.6628009001724,None,,P010,fencog,2,Pre,2021_Sep_06_1130,N-Back (New Version 2021),2021.1.4,120.79176587732738,
,,,,Conditions/Version_1/threeback(4)_v1.xlsx,New rule: Press 'space' when you see 3-back (i.e. the same letter as the one that appeared 3 letters ago.),n,None,,,,,,,,,0,15,15,15,0,1,1,1,,,,,,,,,,,,,,,,,,,,,,,,,,,,,,,,,,,,,,,,,,,,,,,,,,,,,,,,,,,,,,,,,,,,,1.1216,1571.7940517000388,None,None,1,1571.7940517000388,None,,P010,fencog,2,Pre,2021_Sep_06_1130,N-Back (New Version 2021),2021.1.4,120.79176587732738,
,,,,Conditions/Version_1/threeback(4)_v1.xlsx,New rule: Press 'space' when you see 3-back (i.e. the same letter as the one that appeared 3 letters ago.),g,None,,,,,,,,,0,15,15,15,0,2,2,2,,,,,,,,,,,,,,,,,,,,,,,,,,,,,,,,,,,,,,,,,,,,,,,,,,,,,,,,,,,,,,,,,,,,,1.692,1575.4991707000881,None,None,1,1575.4991707000881,None,,P010,fencog,2,Pre,2021_Sep_06_1130,N-Back (New Version 2021),2021.1.4,120.79176587732738,
,,,,Conditions/Version_1/threeback(4)_v1.xlsx,New rule: Press 'space' when you see 3-back (i.e. the same letter as the one that appeared 3 letters ago.),A,space,,,,,,,,,0,15,15,15,0,3,3,3,,,,,,,,,,,,,,,,,,,,,,,,,,,,,,,,,,,,,,,,,,,,,,,,,,,,,,,,,,,,,,,,,,,,,1.072,1578.5806013999972,None,space,1,1578.5806013999972,None,0.6961599001660943,P010,fencog,2,Pre,2021_Sep_06_1130,N-Back (New Version 2021),2021.1.4,120.79176587732738,
,,,,Conditions/Version_1/threeback(4)_v1.xlsx,New rule: Press 'space' when you see 3-back (i.e. the same letter as the one that appeared 3 letters ago.),p,None,,,,,,,,,0,15,15,15,0,4,4,4,,,,,,,,,,,,,,,,,,,,,,,,,,,,,,,,,,,,,,,,,,,,,,,,,,,,,,,,,,,,,,,,,,,,,1.2704,1581.85469190008,None,None,1,1581.85469190008,None,,P010,fencog,2,Pre,2021_Sep_06_1130,N-Back (New Version 2021),2021.1.4,120.79176587732738,
,,,,Conditions/Version_1/threeback(4)_v1.xlsx,New rule: Press 'space' when you see 3-back (i.e. the same letter as the one that appeared 3 letters ago.),O,None,,,,,,,,,0,15,15,15,0,5,5,5,,,,,,,,,,,,,,,,,,,,,,,,,,,,,,,,,,,,,,,,,,,,,,,,,,,,,,,,,,,,,,,,,,,,,1.1774,1585.03723620018,None,None,1,1585.03723620018,None,,P010,fencog,2,Pre,2021_Sep_06_1130,N-Back (New Version 2021),2021.1.4,120.79176587732738,
,,,,Conditions/Version_1/threeback(4)_v1.xlsx,New rule: Press 'space' when you see 3-back (i.e. the same letter as the one that appeared 3 letters ago.),a,space,,,,,,,,,0,15,15,15,0,6,6,6,,,,,,,,,,,,,,,,,,,,,,,,,,,,,,,,,,,,,,,,,,,,,,,,,,,,,,,,,,,,,,,,,,,,,1.3696,1588.414979299996,None,space,1,1588.414979299996,None,1.2697954999748617,P010,fencog,2,Pre,2021_Sep_06_1130,N-Back (New Version 2021),2021.1.4,120.79176587732738,
,,,,Conditions/Version_1/threeback(4)_v1.xlsx,New rule: Press 'space' when you see 3-back (i.e. the same letter as the one that appeared 3 letters ago.),p,space,,,,,,,,,0,15,15,15,0,7,7,7,,,,,,,,,,,,,,,,,,,,,,,,,,,,,,,,,,,,,,,,,,,,,,,,,,,,,,,,,,,,,,,,,,,,,1.537,1591.9613221001346,None,None,0,1591.9613221001346,None,,P010,fencog,2,Pre,2021_Sep_06_1130,N-Back (New Version 2021),2021.1.4,120.79176587732738,
,,,,Conditions/Version_1/threeback(4)_v1.xlsx,New rule: Press 'space' when you see 3-back (i.e. the same letter as the one that appeared 3 letters ago.),x,None,,,,,,,,,0,15,15,15,0,8,8,8,,,,,,,,,,,,,,,,,,,,,,,,,,,,,,,,,,,,,,,,,,,,,,,,,,,,,,,,,,,,,,,,,,,,,1.444,1595.418280100217,None,None,1,1595.418280100217,None,,P010,fencog,2,Pre,2021_Sep_06_1130,N-Back (New Version 2021),2021.1.4,120.79176587732738,
,,,,Conditions/Version_1/threeback(4)_v1.xlsx,New rule: Press 'space' when you see 3-back (i.e. the same letter as the one that appeared 3 letters ago.),X,None,,,,,,,,,0,15,15,15,0,9,9,9,,,,,,,,,,,,,,,,,,,,,,,,,,,,,,,,,,,,,,,,,,,,,,,,,,,,,,,,,,,,,,,,,,,,,1.2766,1598.7084820000455,None,space,0,1598.7084820000455,None,0.6484308999497443,P010,fencog,2,Pre,2021_Sep_06_1130,N-Back (New Version 2021),2021.1.4,120.79176587732738,
,,,,Conditions/Version_1/threeback(4)_v1.xlsx,New rule: Press 'space' when you see 3-back (i.e. the same letter as the one that appeared 3 letters ago.),,,,,,,,,,,0,15,15,15,,,,,,,,,,,,,,,,,,,,,,,,,,,,,,,,,,,,,,,,,,,,,,,,,,,,,,,,,,,,,,,,,,,,,,,,,,,,,,,,,P010,fencog,2,Pre,2021_Sep_06_1130,N-Back (New Version 2021),2021.1.4,120.79176587732738,
