CondFileP,InstructionsP,LettersDisplayedP,CorrectnessP,CondFile,Instructions,LettersDisplayed,Correctness,practicetrials.thisRepN,practicetrials.thisTrialN,practicetrials.thisN,practicetrials.thisIndex,InnerLoopPractice.thisRepN,InnerLoopPractice.thisTrialN,InnerLoopPractice.thisN,InnerLoopPractice.thisIndex,trials.thisRepN,trials.thisTrialN,trials.thisN,trials.thisIndex,InnerLoop.thisRepN,InnerLoop.thisTrialN,InnerLoop.thisN,InnerLoop.thisIndex,TaskVersionText.started,TaskVersionText.stopped,InstrKey1.keys,InstrKey1.rt,InstrKey1.started,InstrKey1.stopped,text.started,text.stopped,key_resp_4.keys,key_resp_4.rt,key_resp_4.started,key_resp_4.stopped,text_2.started,text_2.stopped,key_resp_3.keys,key_resp_3.rt,key_resp_3.started,key_resp_3.stopped,text_3.started,text_3.stopped,key_resp_2.keys,key_resp_2.rt,key_resp_2.started,key_resp_2.stopped,PractIn1.started,PractIn1.stopped,PractIn2.started,PractIn2.stopped,PractInstructionPass.keys,PractInstructionPass.rt,PractInstructionPass.started,PractInstructionPass.stopped,PractBlock1.started,PractBlock1.stopped,ISIjitterPractice,ISI_Pract_Fixation.started,ISI_Pract_Fixation.stopped,N_backP.started,N_backP.stopped,KeyPractice.keys,KeyPractice.corr,KeyPractice.started,KeyPractice.stopped,text_4.started,text_4.stopped,KeyPractice.rt,TransitionText.started,TransitionText.stopped,key_resp_6.keys,key_resp_6.rt,key_resp_6.started,key_resp_6.stopped,text_5.started,text_5.stopped,key_resp_5.keys,key_resp_5.rt,key_resp_5.started,key_resp_5.stopped,MainInt1.started,MainInt1.stopped,MainInt2.started,MainInt2.stopped,InstructionPass.keys,InstructionPass.rt,InstructionPass.started,InstructionPass.stopped,Blocks1.started,Blocks1.stopped,ISIjitter,N_backD.started,N_backD.stopped,key_resp.keys,key_resp.corr,key_resp.started,key_resp.stopped,key_resp.rt,participant,Study Name,Task Version (required to run),PRE/POST,date,expName,psychopyVersion,frameRate
,,,,,,,,,,,,,,,,,,,,,,,,39.2294971,None,space,20.2638385,39.7194024,None,,,,,,,,,,,,,,,,,,,,,,,,,,,,,,,,,,,,,,,,,,,,,,,,,,,,,,,,,,,,,,,,,,,,,,,P011,fencog,1,Post,2021_Sep_15_1045,N-Back (New Version 2021),2021.1.4,120.0366352
,,,,,,,,,,,,,,,,,,,,,,,,,,,,,,60.0182513,None,space,305.1417487,60.5136916,None,,,,,,,,,,,,,,,,,,,,,,,,,,,,,,,,,,,,,,,,,,,,,,,,,,,,,,,,,,,,,,,,,P011,fencog,1,Post,2021_Sep_15_1045,N-Back (New Version 2021),2021.1.4,120.0366352
,,,,,,,,,,,,,,,,,,,,,,,,,,,,,,,,,,,,365.6923003,None,space,0.7929577,366.1742675,None,,,,,,,,,,,,,,,,,,,,,,,,,,,,,,,,,,,,,,,,,,,,,,,,,,,,,,,,,,,P011,fencog,1,Post,2021_Sep_15_1045,N-Back (New Version 2021),2021.1.4,120.0366352
,,,,,,,,,,,,,,,,,,,,,,,,,,,,,,,,,,,,,,,,,,366.9994083,None,space,1.0050178,367.4903623,None,,,,,,,,,,,,,,,,,,,,,,,,,,,,,,,,,,,,,,,,,,,,,,,,,,,,,P011,fencog,1,Post,2021_Sep_15_1045,N-Back (New Version 2021),2021.1.4,120.0366352
Conditions/Version_1Pr/zeroback(1)_v1.xlsx,Rule: Press 'space' when you see the letter 'x' or 'X'.,Z,None,,,,,0,0,0,0,0,0,0,0,,,,,,,,,,,,,,,,,,,,,,,,,,,,,,,,,369.8541502,None,372.8397319,None,space,1.6957116,372.8397319,None,369.8541502,None,1.265,374.5593118,None,375.8328513,None,None,1,375.8328513,None,377.8344334,None,,,,,,,,,,,,,,,,,,,,,,,,,,,,,,,,P011,fencog,1,Post,2021_Sep_15_1045,N-Back (New Version 2021),2021.1.4,120.0366352
Conditions/Version_1Pr/zeroback(1)_v1.xlsx,Rule: Press 'space' when you see the letter 'x' or 'X'.,r,None,,,,,0,0,0,0,0,1,1,1,,,,,,,,,,,,,,,,,,,,,,,,,,,,,,,,,,,,,,,,,,,1.64,379.3376,None,380.9800129,None,None,1,380.9800129,None,382.9848387,None,,,,,,,,,,,,,,,,,,,,,,,,,,,,,,,,P011,fencog,1,Post,2021_Sep_15_1045,N-Back (New Version 2021),2021.1.4,120.0366352
Conditions/Version_1Pr/zeroback(1)_v1.xlsx,Rule: Press 'space' when you see the letter 'x' or 'X'.,X,space,,,,,0,0,0,0,0,2,2,2,,,,,,,,,,,,,,,,,,,,,,,,,,,,,,,,,,,,,,,,,,,1.49,384.4843734,None,385.9783621,None,space,1,385.9783621,None,386.400727,None,0.4129772,,,,,,,,,,,,,,,,,,,,,,,,,,,,,,,P011,fencog,1,Post,2021_Sep_15_1045,N-Back (New Version 2021),2021.1.4,120.0366352
Conditions/Version_1Pr/zeroback(1)_v1.xlsx,Rule: Press 'space' when you see the letter 'x' or 'X'.,p,None,,,,,0,0,0,0,0,3,3,3,,,,,,,,,,,,,,,,,,,,,,,,,,,,,,,,,,,,,,,,,,,1.04,387.8999331,None,388.9415991,None,None,1,388.9415991,None,390.9502113,None,,,,,,,,,,,,,,,,,,,,,,,,,,,,,,,,P011,fencog,1,Post,2021_Sep_15_1045,N-Back (New Version 2021),2021.1.4,120.0366352
Conditions/Version_1Pr/zeroback(1)_v1.xlsx,Rule: Press 'space' when you see the letter 'x' or 'X'.,w,None,,,,,0,0,0,0,0,4,4,4,,,,,,,,,,,,,,,,,,,,,,,,,,,,,,,,,,,,,,,,,,,1.765,392.448884,None,394.2193659,None,None,1,394.2193659,None,396.222772,None,,,,,,,,,,,,,,,,,,,,,,,,,,,,,,,,P011,fencog,1,Post,2021_Sep_15_1045,N-Back (New Version 2021),2021.1.4,120.0366352
Conditions/Version_1Pr/zeroback(1)_v1.xlsx,Rule: Press 'space' when you see the letter 'x' or 'X'.,e,None,,,,,0,0,0,0,0,5,5,5,,,,,,,,,,,,,,,,,,,,,,,,,,,,,,,,,,,,,,,,,,,1.59,397.7220892,None,399.3236986,None,None,1,399.3236986,None,401.3212794,None,,,,,,,,,,,,,,,,,,,,,,,,,,,,,,,,P011,fencog,1,Post,2021_Sep_15_1045,N-Back (New Version 2021),2021.1.4,120.0366352
Conditions/Version_1Pr/zeroback(1)_v1.xlsx,Rule: Press 'space' when you see the letter 'x' or 'X'.,X,space,,,,,0,0,0,0,0,6,6,6,,,,,,,,,,,,,,,,,,,,,,,,,,,,,,,,,,,,,,,,,,,1.79,402.820674,None,404.6171852,None,space,1,404.6171852,None,405.6289875,None,0.9982472,,,,,,,,,,,,,,,,,,,,,,,,,,,,,,,P011,fencog,1,Post,2021_Sep_15_1045,N-Back (New Version 2021),2021.1.4,120.0366352
Conditions/Version_1Pr/zeroback(1)_v1.xlsx,Rule: Press 'space' when you see the letter 'x' or 'X'.,x,space,,,,,0,0,0,0,0,7,7,7,,,,,,,,,,,,,,,,,,,,,,,,,,,,,,,,,,,,,,,,,,,1.99,407.1361643,None,409.1319014,None,space,1,409.1319014,None,409.7367264,None,0.5955927,,,,,,,,,,,,,,,,,,,,,,,,,,,,,,,P011,fencog,1,Post,2021_Sep_15_1045,N-Back (New Version 2021),2021.1.4,120.0366352
Conditions/Version_1Pr/zeroback(1)_v1.xlsx,Rule: Press 'space' when you see the letter 'x' or 'X'.,p,None,,,,,0,0,0,0,0,8,8,8,,,,,,,,,,,,,,,,,,,,,,,,,,,,,,,,,,,,,,,,,,,1.215,411.2430988,None,412.4609293,None,None,1,412.4609293,None,414.4671539,None,,,,,,,,,,,,,,,,,,,,,,,,,,,,,,,,P011,fencog,1,Post,2021_Sep_15_1045,N-Back (New Version 2021),2021.1.4,120.0366352
Conditions/Version_1Pr/zeroback(1)_v1.xlsx,Rule: Press 'space' when you see the letter 'x' or 'X'.,r,None,,,,,0,0,0,0,0,9,9,9,,,,,,,,,,,,,,,,,,,,,,,,,,,,,,,,,,,,,,,,,,,1.115,415.9682928,None,417.0853087,None,None,1,417.0853087,None,419.0909599,None,,,,,,,,,,,,,,,,,,,,,,,,,,,,,,,,P011,fencog,1,Post,2021_Sep_15_1045,N-Back (New Version 2021),2021.1.4,120.0366352
Conditions/Version_1Pr/zeroback(1)_v1.xlsx,Rule: Press 'space' when you see the letter 'x' or 'X'.,,,,,,,0,0,0,0,,,,,,,,,,,,,,,,,,,,,,,,,,,,,,,,,,,,,,,,,,,,,,,,,,,,,,,,,,,,,,,,,,,,,,,,,,,,,,,,,,,,,,,,,P011,fencog,1,Post,2021_Sep_15_1045,N-Back (New Version 2021),2021.1.4,120.0366352
Conditions/Version_1Pr/oneback(1)_v1.xlsx,New rule: Press 'space' when you see 1-back (i.e. the same letter as the one that appeared 1 letter ago.),a,None,,,,,0,1,1,1,0,0,0,0,,,,,,,,,,,,,,,,,,,,,,,,,,,,,,,,,420.6271726,None,423.6171861,None,space,0.4461149,423.6171861,None,420.6271726,None,1.99,424.0996416,None,426.0917685,None,None,1,426.0917685,None,428.091755,None,,,,,,,,,,,,,,,,,,,,,,,,,,,,,,,,P011,fencog,1,Post,2021_Sep_15_1045,N-Back (New Version 2021),2021.1.4,120.0366352
Conditions/Version_1Pr/oneback(1)_v1.xlsx,New rule: Press 'space' when you see 1-back (i.e. the same letter as the one that appeared 1 letter ago.),x,None,,,,,0,1,1,1,0,1,1,1,,,,,,,,,,,,,,,,,,,,,,,,,,,,,,,,,,,,,,,,,,,1.29,429.5962738,None,430.8884184,None,None,1,430.8884184,None,432.8953485,None,,,,,,,,,,,,,,,,,,,,,,,,,,,,,,,,P011,fencog,1,Post,2021_Sep_15_1045,N-Back (New Version 2021),2021.1.4,120.0366352
Conditions/Version_1Pr/oneback(1)_v1.xlsx,New rule: Press 'space' when you see 1-back (i.e. the same letter as the one that appeared 1 letter ago.),g,None,,,,,0,1,1,1,0,2,2,2,,,,,,,,,,,,,,,,,,,,,,,,,,,,,,,,,,,,,,,,,,,1.315,434.3948721,None,435.7144135,None,None,1,435.7144135,None,437.718942,None,,,,,,,,,,,,,,,,,,,,,,,,,,,,,,,,P011,fencog,1,Post,2021_Sep_15_1045,N-Back (New Version 2021),2021.1.4,120.0366352
Conditions/Version_1Pr/oneback(1)_v1.xlsx,New rule: Press 'space' when you see 1-back (i.e. the same letter as the one that appeared 1 letter ago.),G,space,,,,,0,1,1,1,0,3,3,3,,,,,,,,,,,,,,,,,,,,,,,,,,,,,,,,,,,,,,,,,,,1.44,439.2183728,None,440.6603145,None,space,1,440.6603145,None,441.0433801,None,0.3710759,,,,,,,,,,,,,,,,,,,,,,,,,,,,,,,P011,fencog,1,Post,2021_Sep_15_1045,N-Back (New Version 2021),2021.1.4,120.0366352
Conditions/Version_1Pr/oneback(1)_v1.xlsx,New rule: Press 'space' when you see 1-back (i.e. the same letter as the one that appeared 1 letter ago.),u,None,,,,,0,1,1,1,0,4,4,4,,,,,,,,,,,,,,,,,,,,,,,,,,,,,,,,,,,,,,,,,,,1.715,442.5423628,None,444.2616909,None,None,1,444.2616909,None,446.2626748,None,,,,,,,,,,,,,,,,,,,,,,,,,,,,,,,,P011,fencog,1,Post,2021_Sep_15_1045,N-Back (New Version 2021),2021.1.4,120.0366352
Conditions/Version_1Pr/oneback(1)_v1.xlsx,New rule: Press 'space' when you see 1-back (i.e. the same letter as the one that appeared 1 letter ago.),y,None,,,,,0,1,1,1,0,5,5,5,,,,,,,,,,,,,,,,,,,,,,,,,,,,,,,,,,,,,,,,,,,1.115,447.7657678,None,448.8837069,None,None,1,448.8837069,None,450.8900102,None,,,,,,,,,,,,,,,,,,,,,,,,,,,,,,,,P011,fencog,1,Post,2021_Sep_15_1045,N-Back (New Version 2021),2021.1.4,120.0366352
Conditions/Version_1Pr/oneback(1)_v1.xlsx,New rule: Press 'space' when you see 1-back (i.e. the same letter as the one that appeared 1 letter ago.),y,space,,,,,0,1,1,1,0,6,6,6,,,,,,,,,,,,,,,,,,,,,,,,,,,,,,,,,,,,,,,,,,,2.015,452.3896077,None,454.4083166,None,space,1,454.4083166,None,454.786513,None,0.3587411,,,,,,,,,,,,,,,,,,,,,,,,,,,,,,,P011,fencog,1,Post,2021_Sep_15_1045,N-Back (New Version 2021),2021.1.4,120.0366352
Conditions/Version_1Pr/oneback(1)_v1.xlsx,New rule: Press 'space' when you see 1-back (i.e. the same letter as the one that appeared 1 letter ago.),k,None,,,,,0,1,1,1,0,7,7,7,,,,,,,,,,,,,,,,,,,,,,,,,,,,,,,,,,,,,,,,,,,1.04,456.2896279,None,457.332823,None,None,1,457.332823,None,459.337554,None,,,,,,,,,,,,,,,,,,,,,,,,,,,,,,,,P011,fencog,1,Post,2021_Sep_15_1045,N-Back (New Version 2021),2021.1.4,120.0366352
Conditions/Version_1Pr/oneback(1)_v1.xlsx,New rule: Press 'space' when you see 1-back (i.e. the same letter as the one that appeared 1 letter ago.),c,None,,,,,0,1,1,1,0,8,8,8,,,,,,,,,,,,,,,,,,,,,,,,,,,,,,,,,,,,,,,,,,,1.69,460.836932,None,462.5309799,None,None,1,462.5309799,None,464.5359887,None,,,,,,,,,,,,,,,,,,,,,,,,,,,,,,,,P011,fencog,1,Post,2021_Sep_15_1045,N-Back (New Version 2021),2021.1.4,120.0366352
Conditions/Version_1Pr/oneback(1)_v1.xlsx,New rule: Press 'space' when you see 1-back (i.e. the same letter as the one that appeared 1 letter ago.),r,None,,,,,0,1,1,1,0,9,9,9,,,,,,,,,,,,,,,,,,,,,,,,,,,,,,,,,,,,,,,,,,,1.815,466.0355131,None,467.8524783,None,None,1,467.8524783,None,469.8594659,None,,,,,,,,,,,,,,,,,,,,,,,,,,,,,,,,P011,fencog,1,Post,2021_Sep_15_1045,N-Back (New Version 2021),2021.1.4,120.0366352
Conditions/Version_1Pr/oneback(1)_v1.xlsx,New rule: Press 'space' when you see 1-back (i.e. the same letter as the one that appeared 1 letter ago.),,,,,,,0,1,1,1,,,,,,,,,,,,,,,,,,,,,,,,,,,,,,,,,,,,,,,,,,,,,,,,,,,,,,,,,,,,,,,,,,,,,,,,,,,,,,,,,,,,,,,,,P011,fencog,1,Post,2021_Sep_15_1045,N-Back (New Version 2021),2021.1.4,120.0366352
Conditions/Version_1Pr/twoback(1)_v1.xlsx,New rule: Press 'space' when you see 2-back (i.e. the same letter as the one that appeared 2 letters ago.),E,None,,,,,0,2,2,2,0,0,0,0,,,,,,,,,,,,,,,,,,,,,,,,,,,,,,,,,471.3857825,None,474.3684196,None,space,0.686926,474.3684196,None,471.3857825,None,1.74,475.0884525,None,476.8355733,None,None,1,476.8355733,None,478.8400659,None,,,,,,,,,,,,,,,,,,,,,,,,,,,,,,,,P011,fencog,1,Post,2021_Sep_15_1045,N-Back (New Version 2021),2021.1.4,120.0366352
Conditions/Version_1Pr/twoback(1)_v1.xlsx,New rule: Press 'space' when you see 2-back (i.e. the same letter as the one that appeared 2 letters ago.),p,None,,,,,0,2,2,2,0,1,1,1,,,,,,,,,,,,,,,,,,,,,,,,,,,,,,,,,,,,,,,,,,,1.54,480.3396716,None,481.8824266,None,None,1,481.8824266,None,483.884825,None,,,,,,,,,,,,,,,,,,,,,,,,,,,,,,,,P011,fencog,1,Post,2021_Sep_15_1045,N-Back (New Version 2021),2021.1.4,120.0366352
Conditions/Version_1Pr/twoback(1)_v1.xlsx,New rule: Press 'space' when you see 2-back (i.e. the same letter as the one that appeared 2 letters ago.),e,space,,,,,0,2,2,2,0,2,2,2,,,,,,,,,,,,,,,,,,,,,,,,,,,,,,,,,,,,,,,,,,,1.615,485.3880595,None,487.0050157,None,space,1,487.0050157,None,487.4995579,None,0.4823984,,,,,,,,,,,,,,,,,,,,,,,,,,,,,,,P011,fencog,1,Post,2021_Sep_15_1045,N-Back (New Version 2021),2021.1.4,120.0366352
Conditions/Version_1Pr/twoback(1)_v1.xlsx,New rule: Press 'space' when you see 2-back (i.e. the same letter as the one that appeared 2 letters ago.),s,None,,,,,0,2,2,2,0,3,3,3,,,,,,,,,,,,,,,,,,,,,,,,,,,,,,,,,,,,,,,,,,,1.415,489.0042945,None,490.4266882,None,None,1,490.4266882,None,492.4278497,None,,,,,,,,,,,,,,,,,,,,,,,,,,,,,,,,P011,fencog,1,Post,2021_Sep_15_1045,N-Back (New Version 2021),2021.1.4,120.0366352
Conditions/Version_1Pr/twoback(1)_v1.xlsx,New rule: Press 'space' when you see 2-back (i.e. the same letter as the one that appeared 2 letters ago.),S,None,,,,,0,2,2,2,0,4,4,4,,,,,,,,,,,,,,,,,,,,,,,,,,,,,,,,,,,,,,,,,,,1.315,493.9273146,None,495.2462391,None,None,1,495.2462391,None,497.2512129,None,,,,,,,,,,,,,,,,,,,,,,,,,,,,,,,,P011,fencog,1,Post,2021_Sep_15_1045,N-Back (New Version 2021),2021.1.4,120.0366352
Conditions/Version_1Pr/twoback(1)_v1.xlsx,New rule: Press 'space' when you see 2-back (i.e. the same letter as the one that appeared 2 letters ago.),s,space,,,,,0,2,2,2,0,5,5,5,,,,,,,,,,,,,,,,,,,,,,,,,,,,,,,,,,,,,,,,,,,1.765,498.7509414,None,500.5190125,None,space,1,500.5190125,None,500.948738,None,0.4168246,,,,,,,,,,,,,,,,,,,,,,,,,,,,,,,P011,fencog,1,Post,2021_Sep_15_1045,N-Back (New Version 2021),2021.1.4,120.0366352
Conditions/Version_1Pr/twoback(1)_v1.xlsx,New rule: Press 'space' when you see 2-back (i.e. the same letter as the one that appeared 2 letters ago.),P,None,,,,,0,2,2,2,0,6,6,6,,,,,,,,,,,,,,,,,,,,,,,,,,,,,,,,,,,,,,,,,,,1.99,502.4496021,None,504.4438862,None,None,1,504.4438862,None,506.4486133,None,,,,,,,,,,,,,,,,,,,,,,,,,,,,,,,,P011,fencog,1,Post,2021_Sep_15_1045,N-Back (New Version 2021),2021.1.4,120.0366352
Conditions/Version_1Pr/twoback(1)_v1.xlsx,New rule: Press 'space' when you see 2-back (i.e. the same letter as the one that appeared 2 letters ago.),C,None,,,,,0,2,2,2,0,7,7,7,,,,,,,,,,,,,,,,,,,,,,,,,,,,,,,,,,,,,,,,,,,1.115,507.9477944,None,509.068435,None,None,1,509.068435,None,511.0723458,None,,,,,,,,,,,,,,,,,,,,,,,,,,,,,,,,P011,fencog,1,Post,2021_Sep_15_1045,N-Back (New Version 2021),2021.1.4,120.0366352
Conditions/Version_1Pr/twoback(1)_v1.xlsx,New rule: Press 'space' when you see 2-back (i.e. the same letter as the one that appeared 2 letters ago.),x,None,,,,,0,2,2,2,0,8,8,8,,,,,,,,,,,,,,,,,,,,,,,,,,,,,,,,,,,,,,,,,,,1.69,512.5719249,None,514.2643968,None,None,1,514.2643968,None,516.270805,None,,,,,,,,,,,,,,,,,,,,,,,,,,,,,,,,P011,fencog,1,Post,2021_Sep_15_1045,N-Back (New Version 2021),2021.1.4,120.0366352
Conditions/Version_1Pr/twoback(1)_v1.xlsx,New rule: Press 'space' when you see 2-back (i.e. the same letter as the one that appeared 2 letters ago.),Z,None,,,,,0,2,2,2,0,9,9,9,,,,,,,,,,,,,,,,,,,,,,,,,,,,,,,,,,,,,,,,,,,1.24,517.7703881,None,519.0159005,None,None,1,519.0159005,None,521.0192691,None,,,,,,,,,,,,,,,,,,,,,,,,,,,,,,,,P011,fencog,1,Post,2021_Sep_15_1045,N-Back (New Version 2021),2021.1.4,120.0366352
Conditions/Version_1Pr/twoback(1)_v1.xlsx,New rule: Press 'space' when you see 2-back (i.e. the same letter as the one that appeared 2 letters ago.),,,,,,,0,2,2,2,,,,,,,,,,,,,,,,,,,,,,,,,,,,,,,,,,,,,,,,,,,,,,,,,,,,,,,,,,,,,,,,,,,,,,,,,,,,,,,,,,,,,,,,,P011,fencog,1,Post,2021_Sep_15_1045,N-Back (New Version 2021),2021.1.4,120.0366352
Conditions/Version_1Pr/threeback(1)_v1.xlsx,New rule: Press 'space' when you see 3-back (i.e. the same letter as the one that appeared 3 letters ago.),r,None,,,,,0,3,3,3,0,0,0,0,,,,,,,,,,,,,,,,,,,,,,,,,,,,,,,,,522.5403895,None,525.5293531,None,space,1.0537186,525.5293531,None,522.5403895,None,1.89,526.6075068,None,528.5022095,None,None,1,528.5022095,None,530.508256,None,,,,,,,,,,,,,,,,,,,,,,,,,,,,,,,,P011,fencog,1,Post,2021_Sep_15_1045,N-Back (New Version 2021),2021.1.4,120.0366352
Conditions/Version_1Pr/threeback(1)_v1.xlsx,New rule: Press 'space' when you see 3-back (i.e. the same letter as the one that appeared 3 letters ago.),a,None,,,,,0,3,3,3,0,1,1,1,,,,,,,,,,,,,,,,,,,,,,,,,,,,,,,,,,,,,,,,,,,1.69,532.0077214,None,533.7005753,None,None,1,533.7005753,None,535.703695,None,,,,,,,,,,,,,,,,,,,,,,,,,,,,,,,,P011,fencog,1,Post,2021_Sep_15_1045,N-Back (New Version 2021),2021.1.4,120.0366352
Conditions/Version_1Pr/threeback(1)_v1.xlsx,New rule: Press 'space' when you see 3-back (i.e. the same letter as the one that appeared 3 letters ago.),t,None,,,,,0,3,3,3,0,2,2,2,,,,,,,,,,,,,,,,,,,,,,,,,,,,,,,,,,,,,,,,,,,1.84,537.2063035,None,539.0561437,None,None,1,539.0561437,None,541.0551931,None,,,,,,,,,,,,,,,,,,,,,,,,,,,,,,,,P011,fencog,1,Post,2021_Sep_15_1045,N-Back (New Version 2021),2021.1.4,120.0366352
Conditions/Version_1Pr/threeback(1)_v1.xlsx,New rule: Press 'space' when you see 3-back (i.e. the same letter as the one that appeared 3 letters ago.),r,space,,,,,0,3,3,3,0,3,3,3,,,,,,,,,,,,,,,,,,,,,,,,,,,,,,,,,,,,,,,,,,,1.915,542.5546654,None,544.4715302,None,None,0,544.4715302,None,546.480968,None,,,,,,,,,,,,,,,,,,,,,,,,,,,,,,,,P011,fencog,1,Post,2021_Sep_15_1045,N-Back (New Version 2021),2021.1.4,120.0366352
Conditions/Version_1Pr/threeback(1)_v1.xlsx,New rule: Press 'space' when you see 3-back (i.e. the same letter as the one that appeared 3 letters ago.),a,None,,,,,0,3,3,3,0,4,4,4,,,,,,,,,,,,,,,,,,,,,,,,,,,,,,,,,,,,,,,,,,,1.315,547.978239,None,549.2981984,None,space,0,549.2981984,None,550.340403,None,1.0292622,,,,,,,,,,,,,,,,,,,,,,,,,,,,,,,P011,fencog,1,Post,2021_Sep_15_1045,N-Back (New Version 2021),2021.1.4,120.0366352
Conditions/Version_1Pr/threeback(1)_v1.xlsx,New rule: Press 'space' when you see 3-back (i.e. the same letter as the one that appeared 3 letters ago.),Y,None,,,,,0,3,3,3,0,5,5,5,,,,,,,,,,,,,,,,,,,,,,,,,,,,,,,,,,,,,,,,,,,1.29,551.8434402,None,553.1378747,None,None,1,553.1378747,None,555.1436842,None,,,,,,,,,,,,,,,,,,,,,,,,,,,,,,,,P011,fencog,1,Post,2021_Sep_15_1045,N-Back (New Version 2021),2021.1.4,120.0366352
Conditions/Version_1Pr/threeback(1)_v1.xlsx,New rule: Press 'space' when you see 3-back (i.e. the same letter as the one that appeared 3 letters ago.),q,None,,,,,0,3,3,3,0,6,6,6,,,,,,,,,,,,,,,,,,,,,,,,,,,,,,,,,,,,,,,,,,,1.14,556.642382,None,557.788918,None,None,1,557.788918,None,559.7913277,None,,,,,,,,,,,,,,,,,,,,,,,,,,,,,,,,P011,fencog,1,Post,2021_Sep_15_1045,N-Back (New Version 2021),2021.1.4,120.0366352
Conditions/Version_1Pr/threeback(1)_v1.xlsx,New rule: Press 'space' when you see 3-back (i.e. the same letter as the one that appeared 3 letters ago.),A,space,,,,,0,3,3,3,0,7,7,7,,,,,,,,,,,,,,,,,,,,,,,,,,,,,,,,,,,,,,,,,,,1.24,561.291568,None,562.5433861,None,space,1,562.5433861,None,562.9077399,None,0.3519583,,,,,,,,,,,,,,,,,,,,,,,,,,,,,,,P011,fencog,1,Post,2021_Sep_15_1045,N-Back (New Version 2021),2021.1.4,120.0366352
Conditions/Version_1Pr/threeback(1)_v1.xlsx,New rule: Press 'space' when you see 3-back (i.e. the same letter as the one that appeared 3 letters ago.),y,None,,,,,0,3,3,3,0,8,8,8,,,,,,,,,,,,,,,,,,,,,,,,,,,,,,,,,,,,,,,,,,,1.865,564.4149466,None,566.2829845,None,None,1,566.2829845,None,568.2889364,None,,,,,,,,,,,,,,,,,,,,,,,,,,,,,,,,P011,fencog,1,Post,2021_Sep_15_1045,N-Back (New Version 2021),2021.1.4,120.0366352
Conditions/Version_1Pr/threeback(1)_v1.xlsx,New rule: Press 'space' when you see 3-back (i.e. the same letter as the one that appeared 3 letters ago.),r,None,,,,,0,3,3,3,0,9,9,9,,,,,,,,,,,,,,,,,,,,,,,,,,,,,,,,,,,,,,,,,,,1.165,569.7883482,None,570.9565947,None,None,1,570.9565947,None,572.9624792,None,,,,,,,,,,,,,,,,,,,,,,,,,,,,,,,,P011,fencog,1,Post,2021_Sep_15_1045,N-Back (New Version 2021),2021.1.4,120.0366352
Conditions/Version_1Pr/threeback(1)_v1.xlsx,New rule: Press 'space' when you see 3-back (i.e. the same letter as the one that appeared 3 letters ago.),,,,,,,0,3,3,3,,,,,,,,,,,,,,,,,,,,,,,,,,,,,,,,,,,,,,,,,,,,,,,,,,,,,,,,,,,,,,,,,,,,,,,,,,,,,,,,,,,,,,,,,P011,fencog,1,Post,2021_Sep_15_1045,N-Back (New Version 2021),2021.1.4,120.0366352
,,,,,,,,,,,,,,,,,,,,,,,,,,,,,,,,,,,,,,,,,,,,,,,,,,,,,,,,,,,,,,,,,,,,,,574.4683209,None,space,9.7175635,574.9538744,None,,,,,,,,,,,,,,,,,,,,,,,,,P011,fencog,1,Post,2021_Sep_15_1045,N-Back (New Version 2021),2021.1.4,120.0366352
,,,,,,,,,,,,,,,,,,,,,,,,,,,,,,,,,,,,,,,,,,,,,,,,,,,,,,,,,,,,,,,,,,,,,,,,,,,,584.6980838,None,space,3.1674419,585.1926571,None,,,,,,,,,,,,,,,,,,,P011,fencog,1,Post,2021_Sep_15_1045,N-Back (New Version 2021),2021.1.4,120.0366352
,,,,Conditions/Version_1/zeroback(1)_v1.xlsx,Rule: Press 'space' when you see the letter 'x' or 'X'.,b,None,,,,,,,,,0,0,0,0,0,0,0,0,,,,,,,,,,,,,,,,,,,,,,,,,,,,,,,,,,,,,,,,,,,,,,,,,,,,,,,,,,,588.4672023,None,591.4509044,None,space,0.5008296,591.4509044,None,588.4672023,None,1.909,593.9025423,None,None,1,593.9025423,None,,P011,fencog,1,Post,2021_Sep_15_1045,N-Back (New Version 2021),2021.1.4,120.0366352
,,,,Conditions/Version_1/zeroback(1)_v1.xlsx,Rule: Press 'space' when you see the letter 'x' or 'X'.,T,None,,,,,,,,,0,0,0,0,0,1,1,1,,,,,,,,,,,,,,,,,,,,,,,,,,,,,,,,,,,,,,,,,,,,,,,,,,,,,,,,,,,,,,,,,,,,,1.568,597.4818715,None,None,1,597.4818715,None,,P011,fencog,1,Post,2021_Sep_15_1045,N-Back (New Version 2021),2021.1.4,120.0366352
,,,,Conditions/Version_1/zeroback(1)_v1.xlsx,Rule: Press 'space' when you see the letter 'x' or 'X'.,L,None,,,,,,,,,0,0,0,0,0,2,2,2,,,,,,,,,,,,,,,,,,,,,,,,,,,,,,,,,,,,,,,,,,,,,,,,,,,,,,,,,,,,,,,,,,,,,1.7602,601.2578272,None,None,1,601.2578272,None,,P011,fencog,1,Post,2021_Sep_15_1045,N-Back (New Version 2021),2021.1.4,120.0366352
,,,,Conditions/Version_1/zeroback(1)_v1.xlsx,Rule: Press 'space' when you see the letter 'x' or 'X'.,x,space,,,,,,,,,0,0,0,0,0,3,3,3,,,,,,,,,,,,,,,,,,,,,,,,,,,,,,,,,,,,,,,,,,,,,,,,,,,,,,,,,,,,,,,,,,,,,1.7106,604.9788526,None,space,1,604.9788526,None,0.9654008,P011,fencog,1,Post,2021_Sep_15_1045,N-Back (New Version 2021),2021.1.4,120.0366352
,,,,Conditions/Version_1/zeroback(1)_v1.xlsx,Rule: Press 'space' when you see the letter 'x' or 'X'.,o,None,,,,,,,,,0,0,0,0,0,4,4,4,,,,,,,,,,,,,,,,,,,,,,,,,,,,,,,,,,,,,,,,,,,,,,,,,,,,,,,,,,,,,,,,,,,,,1.4688,608.4617399,None,None,1,608.4617399,None,,P011,fencog,1,Post,2021_Sep_15_1045,N-Back (New Version 2021),2021.1.4,120.0366352
,,,,Conditions/Version_1/zeroback(1)_v1.xlsx,Rule: Press 'space' when you see the letter 'x' or 'X'.,P,None,,,,,,,,,0,0,0,0,0,5,5,5,,,,,,,,,,,,,,,,,,,,,,,,,,,,,,,,,,,,,,,,,,,,,,,,,,,,,,,,,,,,,,,,,,,,,1.9338,612.4048656,None,None,1,612.4048656,None,,P011,fencog,1,Post,2021_Sep_15_1045,N-Back (New Version 2021),2021.1.4,120.0366352
,,,,Conditions/Version_1/zeroback(1)_v1.xlsx,Rule: Press 'space' when you see the letter 'x' or 'X'.,X,space,,,,,,,,,0,0,0,0,0,6,6,6,,,,,,,,,,,,,,,,,,,,,,,,,,,,,,,,,,,,,,,,,,,,,,,,,,,,,,,,,,,,,,,,,,,,,1.5184,615.9398538,None,space,1,615.9398538,None,0.5236144,P011,fencog,1,Post,2021_Sep_15_1045,N-Back (New Version 2021),2021.1.4,120.0366352
,,,,Conditions/Version_1/zeroback(1)_v1.xlsx,Rule: Press 'space' when you see the letter 'x' or 'X'.,n,None,,,,,,,,,0,0,0,0,0,7,7,7,,,,,,,,,,,,,,,,,,,,,,,,,,,,,,,,,,,,,,,,,,,,,,,,,,,,,,,,,,,,,,,,,,,,,1.1154,619.0601939,None,None,1,619.0601939,None,,P011,fencog,1,Post,2021_Sep_15_1045,N-Back (New Version 2021),2021.1.4,120.0366352
,,,,Conditions/Version_1/zeroback(1)_v1.xlsx,Rule: Press 'space' when you see the letter 'x' or 'X'.,M,None,,,,,,,,,0,0,0,0,0,8,8,8,,,,,,,,,,,,,,,,,,,,,,,,,,,,,,,,,,,,,,,,,,,,,,,,,,,,,,,,,,,,,,,,,,,,,1.6548,622.7235871,None,None,1,622.7235871,None,,P011,fencog,1,Post,2021_Sep_15_1045,N-Back (New Version 2021),2021.1.4,120.0366352
,,,,Conditions/Version_1/zeroback(1)_v1.xlsx,Rule: Press 'space' when you see the letter 'x' or 'X'.,a,None,,,,,,,,,0,0,0,0,0,9,9,9,,,,,,,,,,,,,,,,,,,,,,,,,,,,,,,,,,,,,,,,,,,,,,,,,,,,,,,,,,,,,,,,,,,,,1.8098,626.5466324,None,None,1,626.5466324,None,,P011,fencog,1,Post,2021_Sep_15_1045,N-Back (New Version 2021),2021.1.4,120.0366352
,,,,Conditions/Version_1/zeroback(1)_v1.xlsx,Rule: Press 'space' when you see the letter 'x' or 'X'.,,,,,,,,,,,0,0,0,0,,,,,,,,,,,,,,,,,,,,,,,,,,,,,,,,,,,,,,,,,,,,,,,,,,,,,,,,,,,,,,,,,,,,,,,,,,,,,,,,,P011,fencog,1,Post,2021_Sep_15_1045,N-Back (New Version 2021),2021.1.4,120.0366352
,,,,Conditions/Version_1/oneback(1)_v1.xlsx,New rule: Press 'space' when you see 1-back (i.e. the same letter as the one that appeared 1 letter ago.),b,None,,,,,,,,,0,1,1,1,0,0,0,0,,,,,,,,,,,,,,,,,,,,,,,,,,,,,,,,,,,,,,,,,,,,,,,,,,,,,,,,,,,628.5636755,None,631.5475712,None,space,0.7316974,631.5475712,None,628.5636755,None,1.4502,633.7592173,None,None,1,633.7592173,None,,P011,fencog,1,Post,2021_Sep_15_1045,N-Back (New Version 2021),2021.1.4,120.0366352
,,,,Conditions/Version_1/oneback(1)_v1.xlsx,New rule: Press 'space' when you see 1-back (i.e. the same letter as the one that appeared 1 letter ago.),p,None,,,,,,,,,0,1,1,1,0,1,1,1,,,,,,,,,,,,,,,,,,,,,,,,,,,,,,,,,,,,,,,,,,,,,,,,,,,,,,,,,,,,,,,,,,,,,1.568,637.3350296,None,None,1,637.3350296,None,,P011,fencog,1,Post,2021_Sep_15_1045,N-Back (New Version 2021),2021.1.4,120.0366352
,,,,Conditions/Version_1/oneback(1)_v1.xlsx,New rule: Press 'space' when you see 1-back (i.e. the same letter as the one that appeared 1 letter ago.),M,None,,,,,,,,,0,1,1,1,0,2,2,2,,,,,,,,,,,,,,,,,,,,,,,,,,,,,,,,,,,,,,,,,,,,,,,,,,,,,,,,,,,,,,,,,,,,,1.258,640.6007119,None,None,1,640.6007119,None,,P011,fencog,1,Post,2021_Sep_15_1045,N-Back (New Version 2021),2021.1.4,120.0366352
,,,,Conditions/Version_1/oneback(1)_v1.xlsx,New rule: Press 'space' when you see 1-back (i.e. the same letter as the one that appeared 1 letter ago.),M,space,,,,,,,,,0,1,1,1,0,3,3,3,,,,,,,,,,,,,,,,,,,,,,,,,,,,,,,,,,,,,,,,,,,,,,,,,,,,,,,,,,,,,,,,,,,,,1.7726,644.3747957,None,space,1,644.3747957,None,0.4498985,P011,fencog,1,Post,2021_Sep_15_1045,N-Back (New Version 2021),2021.1.4,120.0366352
,,,,Conditions/Version_1/oneback(1)_v1.xlsx,New rule: Press 'space' when you see 1-back (i.e. the same letter as the one that appeared 1 letter ago.),n,None,,,,,,,,,0,1,1,1,0,4,4,4,,,,,,,,,,,,,,,,,,,,,,,,,,,,,,,,,,,,,,,,,,,,,,,,,,,,,,,,,,,,,,,,,,,,,1.1836,647.5720944,None,None,1,647.5720944,None,,P011,fencog,1,Post,2021_Sep_15_1045,N-Back (New Version 2021),2021.1.4,120.0366352
,,,,Conditions/Version_1/oneback(1)_v1.xlsx,New rule: Press 'space' when you see 1-back (i.e. the same letter as the one that appeared 1 letter ago.),g,None,,,,,,,,,0,1,1,1,0,5,5,5,,,,,,,,,,,,,,,,,,,,,,,,,,,,,,,,,,,,,,,,,,,,,,,,,,,,,,,,,,,,,,,,,,,,,1.4254,651.0015182,None,None,1,651.0015182,None,,P011,fencog,1,Post,2021_Sep_15_1045,N-Back (New Version 2021),2021.1.4,120.0366352
,,,,Conditions/Version_1/oneback(1)_v1.xlsx,New rule: Press 'space' when you see 1-back (i.e. the same letter as the one that appeared 1 letter ago.),P,None,,,,,,,,,0,1,1,1,0,6,6,6,,,,,,,,,,,,,,,,,,,,,,,,,,,,,,,,,,,,,,,,,,,,,,,,,,,,,,,,,,,,,,,,,,,,,1.1154,654.1301269,None,None,1,654.1301269,None,,P011,fencog,1,Post,2021_Sep_15_1045,N-Back (New Version 2021),2021.1.4,120.0366352
,,,,Conditions/Version_1/oneback(1)_v1.xlsx,New rule: Press 'space' when you see 1-back (i.e. the same letter as the one that appeared 1 letter ago.),o,None,,,,,,,,,0,1,1,1,0,7,7,7,,,,,,,,,,,,,,,,,,,,,,,,,,,,,,,,,,,,,,,,,,,,,,,,,,,,,,,,,,,,,,,,,,,,,1.5246,657.6663503,None,None,1,657.6663503,None,,P011,fencog,1,Post,2021_Sep_15_1045,N-Back (New Version 2021),2021.1.4,120.0366352
,,,,Conditions/Version_1/oneback(1)_v1.xlsx,New rule: Press 'space' when you see 1-back (i.e. the same letter as the one that appeared 1 letter ago.),f,None,,,,,,,,,0,1,1,1,0,8,8,8,,,,,,,,,,,,,,,,,,,,,,,,,,,,,,,,,,,,,,,,,,,,,,,,,,,,,,,,,,,,,,,,,,,,,1.7168,661.3960369,None,None,1,661.3960369,None,,P011,fencog,1,Post,2021_Sep_15_1045,N-Back (New Version 2021),2021.1.4,120.0366352
,,,,Conditions/Version_1/oneback(1)_v1.xlsx,New rule: Press 'space' when you see 1-back (i.e. the same letter as the one that appeared 1 letter ago.),F,space,,,,,,,,,0,1,1,1,0,9,9,9,,,,,,,,,,,,,,,,,,,,,,,,,,,,,,,,,,,,,,,,,,,,,,,,,,,,,,,,,,,,,,,,,,,,,1.8532,665.2539077,None,space,1,665.2539077,None,0.3776099,P011,fencog,1,Post,2021_Sep_15_1045,N-Back (New Version 2021),2021.1.4,120.0366352
,,,,Conditions/Version_1/oneback(1)_v1.xlsx,New rule: Press 'space' when you see 1-back (i.e. the same letter as the one that appeared 1 letter ago.),,,,,,,,,,,0,1,1,1,,,,,,,,,,,,,,,,,,,,,,,,,,,,,,,,,,,,,,,,,,,,,,,,,,,,,,,,,,,,,,,,,,,,,,,,,,,,,,,,,P011,fencog,1,Post,2021_Sep_15_1045,N-Back (New Version 2021),2021.1.4,120.0366352
,,,,Conditions/Version_1/twoback(1)_v1.xlsx,New rule: Press 'space' when you see 2-back (i.e. the same letter as the one that appeared 2 letters ago.),b,None,,,,,,,,,0,2,2,2,0,0,0,0,,,,,,,,,,,,,,,,,,,,,,,,,,,,,,,,,,,,,,,,,,,,,,,,,,,,,,,,,,,667.2814564,None,670.2688845,None,space,0.9860612,670.2688845,None,667.2814564,None,1.1216,672.4011285,None,None,1,672.4011285,None,,P011,fencog,1,Post,2021_Sep_15_1045,N-Back (New Version 2021),2021.1.4,120.0366352
,,,,Conditions/Version_1/twoback(1)_v1.xlsx,New rule: Press 'space' when you see 2-back (i.e. the same letter as the one that appeared 2 letters ago.),h,None,,,,,,,,,0,2,2,2,0,1,1,1,,,,,,,,,,,,,,,,,,,,,,,,,,,,,,,,,,,,,,,,,,,,,,,,,,,,,,,,,,,,,,,,,,,,,1.9214,676.3342963,None,None,1,676.3342963,None,,P011,fencog,1,Post,2021_Sep_15_1045,N-Back (New Version 2021),2021.1.4,120.0366352
,,,,Conditions/Version_1/twoback(1)_v1.xlsx,New rule: Press 'space' when you see 2-back (i.e. the same letter as the one that appeared 2 letters ago.),j,None,,,,,,,,,0,2,2,2,0,2,2,2,,,,,,,,,,,,,,,,,,,,,,,,,,,,,,,,,,,,,,,,,,,,,,,,,,,,,,,,,,,,,,,,,,,,,1.63,679.9841695,None,None,1,679.9841695,None,,P011,fencog,1,Post,2021_Sep_15_1045,N-Back (New Version 2021),2021.1.4,120.0366352
,,,,Conditions/Version_1/twoback(1)_v1.xlsx,New rule: Press 'space' when you see 2-back (i.e. the same letter as the one that appeared 2 letters ago.),H,space,,,,,,,,,0,2,2,2,0,3,3,3,,,,,,,,,,,,,,,,,,,,,,,,,,,,,,,,,,,,,,,,,,,,,,,,,,,,,,,,,,,,,,,,,,,,,1.7292,683.7139307,None,space,1,683.7139307,None,0.3979587,P011,fencog,1,Post,2021_Sep_15_1045,N-Back (New Version 2021),2021.1.4,120.0366352
,,,,Conditions/Version_1/twoback(1)_v1.xlsx,New rule: Press 'space' when you see 2-back (i.e. the same letter as the one that appeared 2 letters ago.),p,None,,,,,,,,,0,2,2,2,0,4,4,4,,,,,,,,,,,,,,,,,,,,,,,,,,,,,,,,,,,,,,,,,,,,,,,,,,,,,,,,,,,,,,,,,,,,,1.3696,687.0962251,None,None,1,687.0962251,None,,P011,fencog,1,Post,2021_Sep_15_1045,N-Back (New Version 2021),2021.1.4,120.0366352
,,,,Conditions/Version_1/twoback(1)_v1.xlsx,New rule: Press 'space' when you see 2-back (i.e. the same letter as the one that appeared 2 letters ago.),p,None,,,,,,,,,0,2,2,2,0,5,5,5,,,,,,,,,,,,,,,,,,,,,,,,,,,,,,,,,,,,,,,,,,,,,,,,,,,,,,,,,,,,,,,,,,,,,1.7478,690.8526402,None,None,1,690.8526402,None,,P011,fencog,1,Post,2021_Sep_15_1045,N-Back (New Version 2021),2021.1.4,120.0366352
,,,,Conditions/Version_1/twoback(1)_v1.xlsx,New rule: Press 'space' when you see 2-back (i.e. the same letter as the one that appeared 2 letters ago.),w,None,,,,,,,,,0,2,2,2,0,6,6,6,,,,,,,,,,,,,,,,,,,,,,,,,,,,,,,,,,,,,,,,,,,,,,,,,,,,,,,,,,,,,,,,,,,,,1.0162,693.8708301,None,None,1,693.8708301,None,,P011,fencog,1,Post,2021_Sep_15_1045,N-Back (New Version 2021),2021.1.4,120.0366352
,,,,Conditions/Version_1/twoback(1)_v1.xlsx,New rule: Press 'space' when you see 2-back (i.e. the same letter as the one that appeared 2 letters ago.),R,None,,,,,,,,,0,2,2,2,0,7,7,7,,,,,,,,,,,,,,,,,,,,,,,,,,,,,,,,,,,,,,,,,,,,,,,,,,,,,,,,,,,,,,,,,,,,,1.9338,697.8187444,None,None,1,697.8187444,None,,P011,fencog,1,Post,2021_Sep_15_1045,N-Back (New Version 2021),2021.1.4,120.0366352
,,,,Conditions/Version_1/twoback(1)_v1.xlsx,New rule: Press 'space' when you see 2-back (i.e. the same letter as the one that appeared 2 letters ago.),a,None,,,,,,,,,0,2,2,2,0,8,8,8,,,,,,,,,,,,,,,,,,,,,,,,,,,,,,,,,,,,,,,,,,,,,,,,,,,,,,,,,,,,,,,,,,,,,1.599,701.4162806,None,None,1,701.4162806,None,,P011,fencog,1,Post,2021_Sep_15_1045,N-Back (New Version 2021),2021.1.4,120.0366352
,,,,Conditions/Version_1/twoback(1)_v1.xlsx,New rule: Press 'space' when you see 2-back (i.e. the same letter as the one that appeared 2 letters ago.),r,space,,,,,,,,,0,2,2,2,0,9,9,9,,,,,,,,,,,,,,,,,,,,,,,,,,,,,,,,,,,,,,,,,,,,,,,,,,,,,,,,,,,,,,,,,,,,,1.4254,704.8413911,None,space,1,704.8413911,None,0.4060409,P011,fencog,1,Post,2021_Sep_15_1045,N-Back (New Version 2021),2021.1.4,120.0366352
,,,,Conditions/Version_1/twoback(1)_v1.xlsx,New rule: Press 'space' when you see 2-back (i.e. the same letter as the one that appeared 2 letters ago.),,,,,,,,,,,0,2,2,2,,,,,,,,,,,,,,,,,,,,,,,,,,,,,,,,,,,,,,,,,,,,,,,,,,,,,,,,,,,,,,,,,,,,,,,,,,,,,,,,,P011,fencog,1,Post,2021_Sep_15_1045,N-Back (New Version 2021),2021.1.4,120.0366352
,,,,Conditions/Version_1/threeback(1)_v1.xlsx,New rule: Press 'space' when you see 3-back (i.e. the same letter as the one that appeared 3 letters ago.),r,None,,,,,,,,,0,3,3,3,0,0,0,0,,,,,,,,,,,,,,,,,,,,,,,,,,,,,,,,,,,,,,,,,,,,,,,,,,,,,,,,,,,706.868567,None,709.8585028,None,space,2.1570663,709.8585028,None,706.868567,None,1.5246,713.5710776,None,None,1,713.5710776,None,,P011,fencog,1,Post,2021_Sep_15_1045,N-Back (New Version 2021),2021.1.4,120.0366352
,,,,Conditions/Version_1/threeback(1)_v1.xlsx,New rule: Press 'space' when you see 3-back (i.e. the same letter as the one that appeared 3 letters ago.),o,None,,,,,,,,,0,3,3,3,0,1,1,1,,,,,,,,,,,,,,,,,,,,,,,,,,,,,,,,,,,,,,,,,,,,,,,,,,,,,,,,,,,,,,,,,,,,,1.971,717.5513265,None,None,1,717.5513265,None,,P011,fencog,1,Post,2021_Sep_15_1045,N-Back (New Version 2021),2021.1.4,120.0366352
,,,,Conditions/Version_1/threeback(1)_v1.xlsx,New rule: Press 'space' when you see 3-back (i.e. the same letter as the one that appeared 3 letters ago.),P,None,,,,,,,,,0,3,3,3,0,2,2,2,,,,,,,,,,,,,,,,,,,,,,,,,,,,,,,,,,,,,,,,,,,,,,,,,,,,,,,,,,,,,,,,,,,,,1.1154,720.6733462,None,None,1,720.6733462,None,,P011,fencog,1,Post,2021_Sep_15_1045,N-Back (New Version 2021),2021.1.4,120.0366352
,,,,Conditions/Version_1/threeback(1)_v1.xlsx,New rule: Press 'space' when you see 3-back (i.e. the same letter as the one that appeared 3 letters ago.),R,space,,,,,,,,,0,3,3,3,0,3,3,3,,,,,,,,,,,,,,,,,,,,,,,,,,,,,,,,,,,,,,,,,,,,,,,,,,,,,,,,,,,,,,,,,,,,,1.9152,724.5927618,None,space,1,724.5927618,None,0.4948931,P011,fencog,1,Post,2021_Sep_15_1045,N-Back (New Version 2021),2021.1.4,120.0366352
,,,,Conditions/Version_1/threeback(1)_v1.xlsx,New rule: Press 'space' when you see 3-back (i.e. the same letter as the one that appeared 3 letters ago.),p,None,,,,,,,,,0,3,3,3,0,4,4,4,,,,,,,,,,,,,,,,,,,,,,,,,,,,,,,,,,,,,,,,,,,,,,,,,,,,,,,,,,,,,,,,,,,,,1.8656,728.4580839,None,space,0,728.4580839,None,0.7893701,P011,fencog,1,Post,2021_Sep_15_1045,N-Back (New Version 2021),2021.1.4,120.0366352
,,,,Conditions/Version_1/threeback(1)_v1.xlsx,New rule: Press 'space' when you see 3-back (i.e. the same letter as the one that appeared 3 letters ago.),E,None,,,,,,,,,0,3,3,3,0,5,5,5,,,,,,,,,,,,,,,,,,,,,,,,,,,,,,,,,,,,,,,,,,,,,,,,,,,,,,,,,,,,,,,,,,,,,1.7726,732.2320913,None,None,1,732.2320913,None,,P011,fencog,1,Post,2021_Sep_15_1045,N-Back (New Version 2021),2021.1.4,120.0366352
,,,,Conditions/Version_1/threeback(1)_v1.xlsx,New rule: Press 'space' when you see 3-back (i.e. the same letter as the one that appeared 3 letters ago.),e,None,,,,,,,,,0,3,3,3,0,6,6,6,,,,,,,,,,,,,,,,,,,,,,,,,,,,,,,,,,,,,,,,,,,,,,,,,,,,,,,,,,,,,,,,,,,,,1.5432,735.7873212,None,None,1,735.7873212,None,,P011,fencog,1,Post,2021_Sep_15_1045,N-Back (New Version 2021),2021.1.4,120.0366352
,,,,Conditions/Version_1/threeback(1)_v1.xlsx,New rule: Press 'space' when you see 3-back (i.e. the same letter as the one that appeared 3 letters ago.),m,None,,,,,,,,,0,3,3,3,0,7,7,7,,,,,,,,,,,,,,,,,,,,,,,,,,,,,,,,,,,,,,,,,,,,,,,,,,,,,,,,,,,,,,,,,,,,,1.2456,739.0419123,None,None,1,739.0419123,None,,P011,fencog,1,Post,2021_Sep_15_1045,N-Back (New Version 2021),2021.1.4,120.0366352
,,,,Conditions/Version_1/threeback(1)_v1.xlsx,New rule: Press 'space' when you see 3-back (i.e. the same letter as the one that appeared 3 letters ago.),n,None,,,,,,,,,0,3,3,3,0,8,8,8,,,,,,,,,,,,,,,,,,,,,,,,,,,,,,,,,,,,,,,,,,,,,,,,,,,,,,,,,,,,,,,,,,,,,1.5184,742.570906,None,None,1,742.570906,None,,P011,fencog,1,Post,2021_Sep_15_1045,N-Back (New Version 2021),2021.1.4,120.0366352
,,,,Conditions/Version_1/threeback(1)_v1.xlsx,New rule: Press 'space' when you see 3-back (i.e. the same letter as the one that appeared 3 letters ago.),e,space,,,,,,,,,0,3,3,3,0,9,9,9,,,,,,,,,,,,,,,,,,,,,,,,,,,,,,,,,,,,,,,,,,,,,,,,,,,,,,,,,,,,,,,,,,,,,1.6982,746.2713449,None,space,1,746.2713449,None,0.9042717,P011,fencog,1,Post,2021_Sep_15_1045,N-Back (New Version 2021),2021.1.4,120.0366352
,,,,Conditions/Version_1/threeback(1)_v1.xlsx,New rule: Press 'space' when you see 3-back (i.e. the same letter as the one that appeared 3 letters ago.),,,,,,,,,,,0,3,3,3,,,,,,,,,,,,,,,,,,,,,,,,,,,,,,,,,,,,,,,,,,,,,,,,,,,,,,,,,,,,,,,,,,,,,,,,,,,,,,,,,P011,fencog,1,Post,2021_Sep_15_1045,N-Back (New Version 2021),2021.1.4,120.0366352
,,,,Conditions/Version_1/oneback(2)_v1.xlsx,New rule: Press 'space' when you see 1-back (i.e. the same letter as the one that appeared 1 letter ago.),q,None,,,,,,,,,0,4,4,4,0,0,0,0,,,,,,,,,,,,,,,,,,,,,,,,,,,,,,,,,,,,,,,,,,,,,,,,,,,,,,,,,,,748.3013132,None,751.2866644,None,space,4.0247247,751.2866644,None,748.3013132,None,1.0658,756.4043663,None,None,1,756.4043663,None,,P011,fencog,1,Post,2021_Sep_15_1045,N-Back (New Version 2021),2021.1.4,120.0366352
,,,,Conditions/Version_1/oneback(2)_v1.xlsx,New rule: Press 'space' when you see 1-back (i.e. the same letter as the one that appeared 1 letter ago.),Q,space,,,,,,,,,0,4,4,4,0,1,1,1,,,,,,,,,,,,,,,,,,,,,,,,,,,,,,,,,,,,,,,,,,,,,,,,,,,,,,,,,,,,,,,,,,,,,1.382,759.7946553,None,None,0,759.7946553,None,,P011,fencog,1,Post,2021_Sep_15_1045,N-Back (New Version 2021),2021.1.4,120.0366352
,,,,Conditions/Version_1/oneback(2)_v1.xlsx,New rule: Press 'space' when you see 1-back (i.e. the same letter as the one that appeared 1 letter ago.),P,None,,,,,,,,,0,4,4,4,0,2,2,2,,,,,,,,,,,,,,,,,,,,,,,,,,,,,,,,,,,,,,,,,,,,,,,,,,,,,,,,,,,,,,,,,,,,,1.568,763.3658908,None,space,0,763.3658908,None,0.5376661,P011,fencog,1,Post,2021_Sep_15_1045,N-Back (New Version 2021),2021.1.4,120.0366352
,,,,Conditions/Version_1/oneback(2)_v1.xlsx,New rule: Press 'space' when you see 1-back (i.e. the same letter as the one that appeared 1 letter ago.),o,None,,,,,,,,,0,4,4,4,0,3,3,3,,,,,,,,,,,,,,,,,,,,,,,,,,,,,,,,,,,,,,,,,,,,,,,,,,,,,,,,,,,,,,,,,,,,,1.4192,766.7969913,None,None,1,766.7969913,None,,P011,fencog,1,Post,2021_Sep_15_1045,N-Back (New Version 2021),2021.1.4,120.0366352
,,,,Conditions/Version_1/oneback(2)_v1.xlsx,New rule: Press 'space' when you see 1-back (i.e. the same letter as the one that appeared 1 letter ago.),m,None,,,,,,,,,0,4,4,4,0,4,4,4,,,,,,,,,,,,,,,,,,,,,,,,,,,,,,,,,,,,,,,,,,,,,,,,,,,,,,,,,,,,,,,,,,,,,1.196,770.000331,None,None,1,770.000331,None,,P011,fencog,1,Post,2021_Sep_15_1045,N-Back (New Version 2021),2021.1.4,120.0366352
,,,,Conditions/Version_1/oneback(2)_v1.xlsx,New rule: Press 'space' when you see 1-back (i.e. the same letter as the one that appeared 1 letter ago.),Z,None,,,,,,,,,0,4,4,4,0,5,5,5,,,,,,,,,,,,,,,,,,,,,,,,,,,,,,,,,,,,,,,,,,,,,,,,,,,,,,,,,,,,,,,,,,,,,1.4626,773.4713518,None,None,1,773.4713518,None,,P011,fencog,1,Post,2021_Sep_15_1045,N-Back (New Version 2021),2021.1.4,120.0366352
,,,,Conditions/Version_1/oneback(2)_v1.xlsx,New rule: Press 'space' when you see 1-back (i.e. the same letter as the one that appeared 1 letter ago.),c,None,,,,,,,,,0,4,4,4,0,6,6,6,,,,,,,,,,,,,,,,,,,,,,,,,,,,,,,,,,,,,,,,,,,,,,,,,,,,,,,,,,,,,,,,,,,,,1.7106,777.1977509,None,None,1,777.1977509,None,,P011,fencog,1,Post,2021_Sep_15_1045,N-Back (New Version 2021),2021.1.4,120.0366352
,,,,Conditions/Version_1/oneback(2)_v1.xlsx,New rule: Press 'space' when you see 1-back (i.e. the same letter as the one that appeared 1 letter ago.),c,space,,,,,,,,,0,4,4,4,0,7,7,7,,,,,,,,,,,,,,,,,,,,,,,,,,,,,,,,,,,,,,,,,,,,,,,,,,,,,,,,,,,,,,,,,,,,,1.9276,781.1362655,None,space,1,781.1362655,None,1.3352467,P011,fencog,1,Post,2021_Sep_15_1045,N-Back (New Version 2021),2021.1.4,120.0366352
,,,,Conditions/Version_1/oneback(2)_v1.xlsx,New rule: Press 'space' when you see 1-back (i.e. the same letter as the one that appeared 1 letter ago.),P,None,,,,,,,,,0,4,4,4,0,8,8,8,,,,,,,,,,,,,,,,,,,,,,,,,,,,,,,,,,,,,,,,,,,,,,,,,,,,,,,,,,,,,,,,,,,,,1.909,785.062838,None,None,1,785.062838,None,,P011,fencog,1,Post,2021_Sep_15_1045,N-Back (New Version 2021),2021.1.4,120.0366352
,,,,Conditions/Version_1/oneback(2)_v1.xlsx,New rule: Press 'space' when you see 1-back (i.e. the same letter as the one that appeared 1 letter ago.),p,space,,,,,,,,,0,4,4,4,0,9,9,9,,,,,,,,,,,,,,,,,,,,,,,,,,,,,,,,,,,,,,,,,,,,,,,,,,,,,,,,,,,,,,,,,,,,,1.2146,788.2824205,None,None,0,788.2824205,None,,P011,fencog,1,Post,2021_Sep_15_1045,N-Back (New Version 2021),2021.1.4,120.0366352
,,,,Conditions/Version_1/oneback(2)_v1.xlsx,New rule: Press 'space' when you see 1-back (i.e. the same letter as the one that appeared 1 letter ago.),,,,,,,,,,,0,4,4,4,,,,,,,,,,,,,,,,,,,,,,,,,,,,,,,,,,,,,,,,,,,,,,,,,,,,,,,,,,,,,,,,,,,,,,,,,,,,,,,,,P011,fencog,1,Post,2021_Sep_15_1045,N-Back (New Version 2021),2021.1.4,120.0366352
,,,,Conditions/Version_1/zeroback(2)_v1.xlsx,New rule: Press 'space' when you see the letter 'x' or 'X'.,p,None,,,,,,,,,0,5,5,5,0,0,0,0,,,,,,,,,,,,,,,,,,,,,,,,,,,,,,,,,,,,,,,,,,,,,,,,,,,,,,,,,,,790.3012464,None,793.2907726,None,space,0.5327064,793.2907726,None,790.3012464,None,1.0596,794.9055027,None,None,1,794.9055027,None,,P011,fencog,1,Post,2021_Sep_15_1045,N-Back (New Version 2021),2021.1.4,120.0366352
,,,,Conditions/Version_1/zeroback(2)_v1.xlsx,New rule: Press 'space' when you see the letter 'x' or 'X'.,L,None,,,,,,,,,0,5,5,5,0,1,1,1,,,,,,,,,,,,,,,,,,,,,,,,,,,,,,,,,,,,,,,,,,,,,,,,,,,,,,,,,,,,,,,,,,,,,1.3076,798.2137531,None,None,1,798.2137531,None,,P011,fencog,1,Post,2021_Sep_15_1045,N-Back (New Version 2021),2021.1.4,120.0366352
,,,,Conditions/Version_1/zeroback(2)_v1.xlsx,New rule: Press 'space' when you see the letter 'x' or 'X'.,G,None,,,,,,,,,0,5,5,5,0,2,2,2,,,,,,,,,,,,,,,,,,,,,,,,,,,,,,,,,,,,,,,,,,,,,,,,,,,,,,,,,,,,,,,,,,,,,1.0472,801.274732,None,None,1,801.274732,None,,P011,fencog,1,Post,2021_Sep_15_1045,N-Back (New Version 2021),2021.1.4,120.0366352
,,,,Conditions/Version_1/zeroback(2)_v1.xlsx,New rule: Press 'space' when you see the letter 'x' or 'X'.,y,None,,,,,,,,,0,5,5,5,0,3,3,3,,,,,,,,,,,,,,,,,,,,,,,,,,,,,,,,,,,,,,,,,,,,,,,,,,,,,,,,,,,,,,,,,,,,,1.1464,804.4275875,None,None,1,804.4275875,None,,P011,fencog,1,Post,2021_Sep_15_1045,N-Back (New Version 2021),2021.1.4,120.0366352
,,,,Conditions/Version_1/zeroback(2)_v1.xlsx,New rule: Press 'space' when you see the letter 'x' or 'X'.,Y,None,,,,,,,,,0,5,5,5,0,4,4,4,,,,,,,,,,,,,,,,,,,,,,,,,,,,,,,,,,,,,,,,,,,,,,,,,,,,,,,,,,,,,,,,,,,,,1.258,807.6871045,None,None,1,807.6871045,None,,P011,fencog,1,Post,2021_Sep_15_1045,N-Back (New Version 2021),2021.1.4,120.0366352
,,,,Conditions/Version_1/zeroback(2)_v1.xlsx,New rule: Press 'space' when you see the letter 'x' or 'X'.,W,None,,,,,,,,,0,5,5,5,0,5,5,5,,,,,,,,,,,,,,,,,,,,,,,,,,,,,,,,,,,,,,,,,,,,,,,,,,,,,,,,,,,,,,,,,,,,,1.754,811.4537132,None,None,1,811.4537132,None,,P011,fencog,1,Post,2021_Sep_15_1045,N-Back (New Version 2021),2021.1.4,120.0366352
,,,,Conditions/Version_1/zeroback(2)_v1.xlsx,New rule: Press 'space' when you see the letter 'x' or 'X'.,x,space,,,,,,,,,0,5,5,5,0,6,6,6,,,,,,,,,,,,,,,,,,,,,,,,,,,,,,,,,,,,,,,,,,,,,,,,,,,,,,,,,,,,,,,,,,,,,1.8966,815.3587608,None,space,1,815.3587608,None,0.4647916,P011,fencog,1,Post,2021_Sep_15_1045,N-Back (New Version 2021),2021.1.4,120.0366352
,,,,Conditions/Version_1/zeroback(2)_v1.xlsx,New rule: Press 'space' when you see the letter 'x' or 'X'.,X,space,,,,,,,,,0,5,5,5,0,7,7,7,,,,,,,,,,,,,,,,,,,,,,,,,,,,,,,,,,,,,,,,,,,,,,,,,,,,,,,,,,,,,,,,,,,,,1.1836,818.5503098,None,space,1,818.5503098,None,0.497351,P011,fencog,1,Post,2021_Sep_15_1045,N-Back (New Version 2021),2021.1.4,120.0366352
,,,,Conditions/Version_1/zeroback(2)_v1.xlsx,New rule: Press 'space' when you see the letter 'x' or 'X'.,p,None,,,,,,,,,0,5,5,5,0,8,8,8,,,,,,,,,,,,,,,,,,,,,,,,,,,,,,,,,,,,,,,,,,,,,,,,,,,,,,,,,,,,,,,,,,,,,1.0782,821.6393819,None,None,1,821.6393819,None,,P011,fencog,1,Post,2021_Sep_15_1045,N-Back (New Version 2021),2021.1.4,120.0366352
,,,,Conditions/Version_1/zeroback(2)_v1.xlsx,New rule: Press 'space' when you see the letter 'x' or 'X'.,h,None,,,,,,,,,0,5,5,5,0,9,9,9,,,,,,,,,,,,,,,,,,,,,,,,,,,,,,,,,,,,,,,,,,,,,,,,,,,,,,,,,,,,,,,,,,,,,1.537,825.1811077,None,None,1,825.1811077,None,,P011,fencog,1,Post,2021_Sep_15_1045,N-Back (New Version 2021),2021.1.4,120.0366352
,,,,Conditions/Version_1/zeroback(2)_v1.xlsx,New rule: Press 'space' when you see the letter 'x' or 'X'.,,,,,,,,,,,0,5,5,5,,,,,,,,,,,,,,,,,,,,,,,,,,,,,,,,,,,,,,,,,,,,,,,,,,,,,,,,,,,,,,,,,,,,,,,,,,,,,,,,,P011,fencog,1,Post,2021_Sep_15_1045,N-Back (New Version 2021),2021.1.4,120.0366352
,,,,Conditions/Version_1/threeback(2)_v1.xlsx,New rule: Press 'space' when you see 3-back (i.e. the same letter as the one that appeared 3 letters ago.),q,None,,,,,,,,,0,6,6,6,0,0,0,0,,,,,,,,,,,,,,,,,,,,,,,,,,,,,,,,,,,,,,,,,,,,,,,,,,,,,,,,,,,827.2094996,None,830.1984798,None,space,0.5210011,830.1984798,None,827.2094996,None,1.0782,831.8302357,None,None,1,831.8302357,None,,P011,fencog,1,Post,2021_Sep_15_1045,N-Back (New Version 2021),2021.1.4,120.0366352
,,,,Conditions/Version_1/threeback(2)_v1.xlsx,New rule: Press 'space' when you see 3-back (i.e. the same letter as the one that appeared 3 letters ago.),Y,None,,,,,,,,,0,6,6,6,0,1,1,1,,,,,,,,,,,,,,,,,,,,,,,,,,,,,,,,,,,,,,,,,,,,,,,,,,,,,,,,,,,,,,,,,,,,,1.1092,834.9530934,None,None,1,834.9530934,None,,P011,fencog,1,Post,2021_Sep_15_1045,N-Back (New Version 2021),2021.1.4,120.0366352
,,,,Conditions/Version_1/threeback(2)_v1.xlsx,New rule: Press 'space' when you see 3-back (i.e. the same letter as the one that appeared 3 letters ago.),p,None,,,,,,,,,0,6,6,6,0,2,2,2,,,,,,,,,,,,,,,,,,,,,,,,,,,,,,,,,,,,,,,,,,,,,,,,,,,,,,,,,,,,,,,,,,,,,1.351,838.3105336,None,None,1,838.3105336,None,,P011,fencog,1,Post,2021_Sep_15_1045,N-Back (New Version 2021),2021.1.4,120.0366352
,,,,Conditions/Version_1/threeback(2)_v1.xlsx,New rule: Press 'space' when you see 3-back (i.e. the same letter as the one that appeared 3 letters ago.),p,None,,,,,,,,,0,6,6,6,0,3,3,3,,,,,,,,,,,,,,,,,,,,,,,,,,,,,,,,,,,,,,,,,,,,,,,,,,,,,,,,,,,,,,,,,,,,,1.4254,841.7430316,None,None,1,841.7430316,None,,P011,fencog,1,Post,2021_Sep_15_1045,N-Back (New Version 2021),2021.1.4,120.0366352
,,,,Conditions/Version_1/threeback(2)_v1.xlsx,New rule: Press 'space' when you see 3-back (i.e. the same letter as the one that appeared 3 letters ago.),y,space,,,,,,,,,0,6,6,6,0,4,4,4,,,,,,,,,,,,,,,,,,,,,,,,,,,,,,,,,,,,,,,,,,,,,,,,,,,,,,,,,,,,,,,,,,,,,1.382,845.1342456,None,space,1,845.1342456,None,0.5452924,P011,fencog,1,Post,2021_Sep_15_1045,N-Back (New Version 2021),2021.1.4,120.0366352
,,,,Conditions/Version_1/threeback(2)_v1.xlsx,New rule: Press 'space' when you see 3-back (i.e. the same letter as the one that appeared 3 letters ago.),u,None,,,,,,,,,0,6,6,6,0,5,5,5,,,,,,,,,,,,,,,,,,,,,,,,,,,,,,,,,,,,,,,,,,,,,,,,,,,,,,,,,,,,,,,,,,,,,1.9958,849.1408385,None,None,1,849.1408385,None,,P011,fencog,1,Post,2021_Sep_15_1045,N-Back (New Version 2021),2021.1.4,120.0366352
,,,,Conditions/Version_1/threeback(2)_v1.xlsx,New rule: Press 'space' when you see 3-back (i.e. the same letter as the one that appeared 3 letters ago.),P,space,,,,,,,,,0,6,6,6,0,6,6,6,,,,,,,,,,,,,,,,,,,,,,,,,,,,,,,,,,,,,,,,,,,,,,,,,,,,,,,,,,,,,,,,,,,,,1.8532,853.0071199,None,space,1,853.0071199,None,0.4726114,P011,fencog,1,Post,2021_Sep_15_1045,N-Back (New Version 2021),2021.1.4,120.0366352
,,,,Conditions/Version_1/threeback(2)_v1.xlsx,New rule: Press 'space' when you see 3-back (i.e. the same letter as the one that appeared 3 letters ago.),a,None,,,,,,,,,0,6,6,6,0,7,7,7,,,,,,,,,,,,,,,,,,,,,,,,,,,,,,,,,,,,,,,,,,,,,,,,,,,,,,,,,,,,,,,,,,,,,1.9152,856.9305545,None,None,1,856.9305545,None,,P011,fencog,1,Post,2021_Sep_15_1045,N-Back (New Version 2021),2021.1.4,120.0366352
,,,,Conditions/Version_1/threeback(2)_v1.xlsx,New rule: Press 'space' when you see 3-back (i.e. the same letter as the one that appeared 3 letters ago.),U,space,,,,,,,,,0,6,6,6,0,8,8,8,,,,,,,,,,,,,,,,,,,,,,,,,,,,,,,,,,,,,,,,,,,,,,,,,,,,,,,,,,,,,,,,,,,,,1.8284,860.7636468,None,space,1,860.7636468,None,0.6436507,P011,fencog,1,Post,2021_Sep_15_1045,N-Back (New Version 2021),2021.1.4,120.0366352
,,,,Conditions/Version_1/threeback(2)_v1.xlsx,New rule: Press 'space' when you see 3-back (i.e. the same letter as the one that appeared 3 letters ago.),q,None,,,,,,,,,0,6,6,6,0,9,9,9,,,,,,,,,,,,,,,,,,,,,,,,,,,,,,,,,,,,,,,,,,,,,,,,,,,,,,,,,,,,,,,,,,,,,1.041,863.8159948,None,None,1,863.8159948,None,,P011,fencog,1,Post,2021_Sep_15_1045,N-Back (New Version 2021),2021.1.4,120.0366352
,,,,Conditions/Version_1/threeback(2)_v1.xlsx,New rule: Press 'space' when you see 3-back (i.e. the same letter as the one that appeared 3 letters ago.),,,,,,,,,,,0,6,6,6,,,,,,,,,,,,,,,,,,,,,,,,,,,,,,,,,,,,,,,,,,,,,,,,,,,,,,,,,,,,,,,,,,,,,,,,,,,,,,,,,P011,fencog,1,Post,2021_Sep_15_1045,N-Back (New Version 2021),2021.1.4,120.0366352
,,,,Conditions/Version_1/twoback(2)_v1.xlsx,New rule: Press 'space' when you see 2-back (i.e. the same letter as the one that appeared 2 letters ago.),q,None,,,,,,,,,0,7,7,7,0,0,0,0,,,,,,,,,,,,,,,,,,,,,,,,,,,,,,,,,,,,,,,,,,,,,,,,,,,,,,,,,,,865.8394871,None,868.8288846,None,space,0.6989562,868.8288846,None,865.8394871,None,1.6052,871.1579409,None,None,1,871.1579409,None,,P011,fencog,1,Post,2021_Sep_15_1045,N-Back (New Version 2021),2021.1.4,120.0366352
,,,,Conditions/Version_1/twoback(2)_v1.xlsx,New rule: Press 'space' when you see 2-back (i.e. the same letter as the one that appeared 2 letters ago.),r,None,,,,,,,,,0,7,7,7,0,1,1,1,,,,,,,,,,,,,,,,,,,,,,,,,,,,,,,,,,,,,,,,,,,,,,,,,,,,,,,,,,,,,,,,,,,,,1.599,874.7628084,None,None,1,874.7628084,None,,P011,fencog,1,Post,2021_Sep_15_1045,N-Back (New Version 2021),2021.1.4,120.0366352
,,,,Conditions/Version_1/twoback(2)_v1.xlsx,New rule: Press 'space' when you see 2-back (i.e. the same letter as the one that appeared 2 letters ago.),q,space,,,,,,,,,0,7,7,7,0,2,2,2,,,,,,,,,,,,,,,,,,,,,,,,,,,,,,,,,,,,,,,,,,,,,,,,,,,,,,,,,,,,,,,,,,,,,1.4006,878.1653369,None,space,1,878.1653369,None,0.6503737,P011,fencog,1,Post,2021_Sep_15_1045,N-Back (New Version 2021),2021.1.4,120.0366352
,,,,Conditions/Version_1/twoback(2)_v1.xlsx,New rule: Press 'space' when you see 2-back (i.e. the same letter as the one that appeared 2 letters ago.),P,None,,,,,,,,,0,7,7,7,0,3,3,3,,,,,,,,,,,,,,,,,,,,,,,,,,,,,,,,,,,,,,,,,,,,,,,,,,,,,,,,,,,,,,,,,,,,,1.1836,881.3595076,None,None,1,881.3595076,None,,P011,fencog,1,Post,2021_Sep_15_1045,N-Back (New Version 2021),2021.1.4,120.0366352
,,,,Conditions/Version_1/twoback(2)_v1.xlsx,New rule: Press 'space' when you see 2-back (i.e. the same letter as the one that appeared 2 letters ago.),p,None,,,,,,,,,0,7,7,7,0,4,4,4,,,,,,,,,,,,,,,,,,,,,,,,,,,,,,,,,,,,,,,,,,,,,,,,,,,,,,,,,,,,,,,,,,,,,1.5556,884.9216065,None,None,1,884.9216065,None,,P011,fencog,1,Post,2021_Sep_15_1045,N-Back (New Version 2021),2021.1.4,120.0366352
,,,,Conditions/Version_1/twoback(2)_v1.xlsx,New rule: Press 'space' when you see 2-back (i.e. the same letter as the one that appeared 2 letters ago.),H,None,,,,,,,,,0,7,7,7,0,5,5,5,,,,,,,,,,,,,,,,,,,,,,,,,,,,,,,,,,,,,,,,,,,,,,,,,,,,,,,,,,,,,,,,,,,,,1.6858,888.6242331,None,None,1,888.6242331,None,,P011,fencog,1,Post,2021_Sep_15_1045,N-Back (New Version 2021),2021.1.4,120.0366352
,,,,Conditions/Version_1/twoback(2)_v1.xlsx,New rule: Press 'space' when you see 2-back (i.e. the same letter as the one that appeared 2 letters ago.),g,None,,,,,,,,,0,7,7,7,0,6,6,6,,,,,,,,,,,,,,,,,,,,,,,,,,,,,,,,,,,,,,,,,,,,,,,,,,,,,,,,,,,,,,,,,,,,,1.5246,892.1529995,None,None,1,892.1529995,None,,P011,fencog,1,Post,2021_Sep_15_1045,N-Back (New Version 2021),2021.1.4,120.0366352
,,,,Conditions/Version_1/twoback(2)_v1.xlsx,New rule: Press 'space' when you see 2-back (i.e. the same letter as the one that appeared 2 letters ago.),j,None,,,,,,,,,0,7,7,7,0,7,7,7,,,,,,,,,,,,,,,,,,,,,,,,,,,,,,,,,,,,,,,,,,,,,,,,,,,,,,,,,,,,,,,,,,,,,1.1402,895.30296,None,None,1,895.30296,None,,P011,fencog,1,Post,2021_Sep_15_1045,N-Back (New Version 2021),2021.1.4,120.0366352
,,,,Conditions/Version_1/twoback(2)_v1.xlsx,New rule: Press 'space' when you see 2-back (i.e. the same letter as the one that appeared 2 letters ago.),g,space,,,,,,,,,0,7,7,7,0,8,8,8,,,,,,,,,,,,,,,,,,,,,,,,,,,,,,,,,,,,,,,,,,,,,,,,,,,,,,,,,,,,,,,,,,,,,1.3696,898.6879853,None,None,0,898.6879853,None,,P011,fencog,1,Post,2021_Sep_15_1045,N-Back (New Version 2021),2021.1.4,120.0366352
,,,,Conditions/Version_1/twoback(2)_v1.xlsx,New rule: Press 'space' when you see 2-back (i.e. the same letter as the one that appeared 2 letters ago.),G,None,,,,,,,,,0,7,7,7,0,9,9,9,,,,,,,,,,,,,,,,,,,,,,,,,,,,,,,,,,,,,,,,,,,,,,,,,,,,,,,,,,,,,,,,,,,,,1.3448,902.0447438,None,None,1,902.0447438,None,,P011,fencog,1,Post,2021_Sep_15_1045,N-Back (New Version 2021),2021.1.4,120.0366352
,,,,Conditions/Version_1/twoback(2)_v1.xlsx,New rule: Press 'space' when you see 2-back (i.e. the same letter as the one that appeared 2 letters ago.),,,,,,,,,,,0,7,7,7,,,,,,,,,,,,,,,,,,,,,,,,,,,,,,,,,,,,,,,,,,,,,,,,,,,,,,,,,,,,,,,,,,,,,,,,,,,,,,,,,P011,fencog,1,Post,2021_Sep_15_1045,N-Back (New Version 2021),2021.1.4,120.0366352
,,,,Conditions/Version_1/threeback(3)_v1.xlsx,New rule: Press 'space' when you see 3-back (i.e. the same letter as the one that appeared 3 letters ago.),w,None,,,,,,,,,0,8,8,8,0,0,0,0,,,,,,,,,,,,,,,,,,,,,,,,,,,,,,,,,,,,,,,,,,,,,,,,,,,,,,,,,,,904.0712321,None,907.057884,None,space,15.9897661,907.057884,None,904.0712321,None,1.785,924.8598888,None,None,1,924.8598888,None,,P011,fencog,1,Post,2021_Sep_15_1045,N-Back (New Version 2021),2021.1.4,120.0366352
,,,,Conditions/Version_1/threeback(3)_v1.xlsx,New rule: Press 'space' when you see 3-back (i.e. the same letter as the one that appeared 3 letters ago.),p,None,,,,,,,,,0,8,8,8,0,1,1,1,,,,,,,,,,,,,,,,,,,,,,,,,,,,,,,,,,,,,,,,,,,,,,,,,,,,,,,,,,,,,,,,,,,,,1.6424,928.5181294,None,None,1,928.5181294,None,,P011,fencog,1,Post,2021_Sep_15_1045,N-Back (New Version 2021),2021.1.4,120.0366352
,,,,Conditions/Version_1/threeback(3)_v1.xlsx,New rule: Press 'space' when you see 3-back (i.e. the same letter as the one that appeared 3 letters ago.),P,None,,,,,,,,,0,8,8,8,0,2,2,2,,,,,,,,,,,,,,,,,,,,,,,,,,,,,,,,,,,,,,,,,,,,,,,,,,,,,,,,,,,,,,,,,,,,,1.5494,932.0744126,None,None,1,932.0744126,None,,P011,fencog,1,Post,2021_Sep_15_1045,N-Back (New Version 2021),2021.1.4,120.0366352
,,,,Conditions/Version_1/threeback(3)_v1.xlsx,New rule: Press 'space' when you see 3-back (i.e. the same letter as the one that appeared 3 letters ago.),i,None,,,,,,,,,0,8,8,8,0,3,3,3,,,,,,,,,,,,,,,,,,,,,,,,,,,,,,,,,,,,,,,,,,,,,,,,,,,,,,,,,,,,,,,,,,,,,1.2022,935.2925757,None,None,1,935.2925757,None,,P011,fencog,1,Post,2021_Sep_15_1045,N-Back (New Version 2021),2021.1.4,120.0366352
,,,,Conditions/Version_1/threeback(3)_v1.xlsx,New rule: Press 'space' when you see 3-back (i.e. the same letter as the one that appeared 3 letters ago.),f,None,,,,,,,,,0,8,8,8,0,4,4,4,,,,,,,,,,,,,,,,,,,,,,,,,,,,,,,,,,,,,,,,,,,,,,,,,,,,,,,,,,,,,,,,,,,,,1.909,939.2150397,None,None,1,939.2150397,None,,P011,fencog,1,Post,2021_Sep_15_1045,N-Back (New Version 2021),2021.1.4,120.0366352
,,,,Conditions/Version_1/threeback(3)_v1.xlsx,New rule: Press 'space' when you see 3-back (i.e. the same letter as the one that appeared 3 letters ago.),o,None,,,,,,,,,0,8,8,8,0,5,5,5,,,,,,,,,,,,,,,,,,,,,,,,,,,,,,,,,,,,,,,,,,,,,,,,,,,,,,,,,,,,,,,,,,,,,1.3758,942.5953483,None,None,1,942.5953483,None,,P011,fencog,1,Post,2021_Sep_15_1045,N-Back (New Version 2021),2021.1.4,120.0366352
,,,,Conditions/Version_1/threeback(3)_v1.xlsx,New rule: Press 'space' when you see 3-back (i.e. the same letter as the one that appeared 3 letters ago.),w,None,,,,,,,,,0,8,8,8,0,6,6,6,,,,,,,,,,,,,,,,,,,,,,,,,,,,,,,,,,,,,,,,,,,,,,,,,,,,,,,,,,,,,,,,,,,,,1.847,946.4461085,None,None,1,946.4461085,None,,P011,fencog,1,Post,2021_Sep_15_1045,N-Back (New Version 2021),2021.1.4,120.0366352
,,,,Conditions/Version_1/threeback(3)_v1.xlsx,New rule: Press 'space' when you see 3-back (i.e. the same letter as the one that appeared 3 letters ago.),F,space,,,,,,,,,0,8,8,8,0,7,7,7,,,,,,,,,,,,,,,,,,,,,,,,,,,,,,,,,,,,,,,,,,,,,,,,,,,,,,,,,,,,,,,,,,,,,1.1712,949.6368245,None,space,1,949.6368245,None,1.2029682,P011,fencog,1,Post,2021_Sep_15_1045,N-Back (New Version 2021),2021.1.4,120.0366352
,,,,Conditions/Version_1/threeback(3)_v1.xlsx,New rule: Press 'space' when you see 3-back (i.e. the same letter as the one that appeared 3 letters ago.),p,None,,,,,,,,,0,8,8,8,0,8,8,8,,,,,,,,,,,,,,,,,,,,,,,,,,,,,,,,,,,,,,,,,,,,,,,,,,,,,,,,,,,,,,,,,,,,,1.1526,952.801577,None,None,1,952.801577,None,,P011,fencog,1,Post,2021_Sep_15_1045,N-Back (New Version 2021),2021.1.4,120.0366352
,,,,Conditions/Version_1/threeback(3)_v1.xlsx,New rule: Press 'space' when you see 3-back (i.e. the same letter as the one that appeared 3 letters ago.),W,space,,,,,,,,,0,8,8,8,0,9,9,9,,,,,,,,,,,,,,,,,,,,,,,,,,,,,,,,,,,,,,,,,,,,,,,,,,,,,,,,,,,,,,,,,,,,,1.4068,956.2163062,None,None,0,956.2163062,None,,P011,fencog,1,Post,2021_Sep_15_1045,N-Back (New Version 2021),2021.1.4,120.0366352
,,,,Conditions/Version_1/threeback(3)_v1.xlsx,New rule: Press 'space' when you see 3-back (i.e. the same letter as the one that appeared 3 letters ago.),,,,,,,,,,,0,8,8,8,,,,,,,,,,,,,,,,,,,,,,,,,,,,,,,,,,,,,,,,,,,,,,,,,,,,,,,,,,,,,,,,,,,,,,,,,,,,,,,,,P011,fencog,1,Post,2021_Sep_15_1045,N-Back (New Version 2021),2021.1.4,120.0366352
,,,,Conditions/Version_1/zeroback(3)_v1.xlsx,New rule: Press 'space' when you see the letter 'x' or 'X'.,X,space,,,,,,,,,0,9,9,9,0,0,0,0,,,,,,,,,,,,,,,,,,,,,,,,,,,,,,,,,,,,,,,,,,,,,,,,,,,,,,,,,,,958.235113,None,961.2259842,None,space,0.581724,961.2259842,None,958.235113,None,1.6486,963.480945,None,space,1,963.480945,None,1.2312714,P011,fencog,1,Post,2021_Sep_15_1045,N-Back (New Version 2021),2021.1.4,120.0366352
,,,,Conditions/Version_1/zeroback(3)_v1.xlsx,New rule: Press 'space' when you see the letter 'x' or 'X'.,B,None,,,,,,,,,0,9,9,9,0,1,1,1,,,,,,,,,,,,,,,,,,,,,,,,,,,,,,,,,,,,,,,,,,,,,,,,,,,,,,,,,,,,,,,,,,,,,1.5928,967.0835815,None,None,1,967.0835815,None,,P011,fencog,1,Post,2021_Sep_15_1045,N-Back (New Version 2021),2021.1.4,120.0366352
,,,,Conditions/Version_1/zeroback(3)_v1.xlsx,New rule: Press 'space' when you see the letter 'x' or 'X'.,m,None,,,,,,,,,0,9,9,9,0,2,2,2,,,,,,,,,,,,,,,,,,,,,,,,,,,,,,,,,,,,,,,,,,,,,,,,,,,,,,,,,,,,,,,,,,,,,1.6982,970.7883887,None,None,1,970.7883887,None,,P011,fencog,1,Post,2021_Sep_15_1045,N-Back (New Version 2021),2021.1.4,120.0366352
,,,,Conditions/Version_1/zeroback(3)_v1.xlsx,New rule: Press 'space' when you see the letter 'x' or 'X'.,m,None,,,,,,,,,0,9,9,9,0,3,3,3,,,,,,,,,,,,,,,,,,,,,,,,,,,,,,,,,,,,,,,,,,,,,,,,,,,,,,,,,,,,,,,,,,,,,1.9214,974.7194093,None,None,1,974.7194093,None,,P011,fencog,1,Post,2021_Sep_15_1045,N-Back (New Version 2021),2021.1.4,120.0366352
,,,,Conditions/Version_1/zeroback(3)_v1.xlsx,New rule: Press 'space' when you see the letter 'x' or 'X'.,o,None,,,,,,,,,0,9,9,9,0,4,4,4,,,,,,,,,,,,,,,,,,,,,,,,,,,,,,,,,,,,,,,,,,,,,,,,,,,,,,,,,,,,,,,,,,,,,1.3758,978.1058628,None,None,1,978.1058628,None,,P011,fencog,1,Post,2021_Sep_15_1045,N-Back (New Version 2021),2021.1.4,120.0366352
,,,,Conditions/Version_1/zeroback(3)_v1.xlsx,New rule: Press 'space' when you see the letter 'x' or 'X'.,p,None,,,,,,,,,0,9,9,9,0,5,5,5,,,,,,,,,,,,,,,,,,,,,,,,,,,,,,,,,,,,,,,,,,,,,,,,,,,,,,,,,,,,,,,,,,,,,1.4812,981.5961009,None,None,1,981.5961009,None,,P011,fencog,1,Post,2021_Sep_15_1045,N-Back (New Version 2021),2021.1.4,120.0366352
,,,,Conditions/Version_1/zeroback(3)_v1.xlsx,New rule: Press 'space' when you see the letter 'x' or 'X'.,G,None,,,,,,,,,0,9,9,9,0,6,6,6,,,,,,,,,,,,,,,,,,,,,,,,,,,,,,,,,,,,,,,,,,,,,,,,,,,,,,,,,,,,,,,,,,,,,1.8284,985.4329867,None,None,1,985.4329867,None,,P011,fencog,1,Post,2021_Sep_15_1045,N-Back (New Version 2021),2021.1.4,120.0366352
,,,,Conditions/Version_1/zeroback(3)_v1.xlsx,New rule: Press 'space' when you see the letter 'x' or 'X'.,X,space,,,,,,,,,0,9,9,9,0,7,7,7,,,,,,,,,,,,,,,,,,,,,,,,,,,,,,,,,,,,,,,,,,,,,,,,,,,,,,,,,,,,,,,,,,,,,1.9896,989.4256564,None,space,1,989.4256564,None,0.3743406,P011,fencog,1,Post,2021_Sep_15_1045,N-Back (New Version 2021),2021.1.4,120.0366352
,,,,Conditions/Version_1/zeroback(3)_v1.xlsx,New rule: Press 'space' when you see the letter 'x' or 'X'.,p,None,,,,,,,,,0,9,9,9,0,8,8,8,,,,,,,,,,,,,,,,,,,,,,,,,,,,,,,,,,,,,,,,,,,,,,,,,,,,,,,,,,,,,,,,,,,,,1.1588,992.5913189,None,None,1,992.5913189,None,,P011,fencog,1,Post,2021_Sep_15_1045,N-Back (New Version 2021),2021.1.4,120.0366352
,,,,Conditions/Version_1/zeroback(3)_v1.xlsx,New rule: Press 'space' when you see the letter 'x' or 'X'.,x,space,,,,,,,,,0,9,9,9,0,9,9,9,,,,,,,,,,,,,,,,,,,,,,,,,,,,,,,,,,,,,,,,,,,,,,,,,,,,,,,,,,,,,,,,,,,,,1.7168,996.3139218,None,space,1,996.3139218,None,0.5258514,P011,fencog,1,Post,2021_Sep_15_1045,N-Back (New Version 2021),2021.1.4,120.0366352
,,,,Conditions/Version_1/zeroback(3)_v1.xlsx,New rule: Press 'space' when you see the letter 'x' or 'X'.,,,,,,,,,,,0,9,9,9,,,,,,,,,,,,,,,,,,,,,,,,,,,,,,,,,,,,,,,,,,,,,,,,,,,,,,,,,,,,,,,,,,,,,,,,,,,,,,,,,P011,fencog,1,Post,2021_Sep_15_1045,N-Back (New Version 2021),2021.1.4,120.0366352
,,,,Conditions/Version_1/twoback(3)_v1.xlsx,New rule: Press 'space' when you see 2-back (i.e. the same letter as the one that appeared 2 letters ago.),e,None,,,,,,,,,0,10,10,10,0,0,0,0,,,,,,,,,,,,,,,,,,,,,,,,,,,,,,,,,,,,,,,,,,,,,,,,,,,,,,,,,,,998.3411717,None,1001.330381,None,space,1.0374432,1001.330381,None,998.3411717,None,1.5184,1003.915316,None,None,1,1003.915316,None,,P011,fencog,1,Post,2021_Sep_15_1045,N-Back (New Version 2021),2021.1.4,120.0366352
,,,,Conditions/Version_1/twoback(3)_v1.xlsx,New rule: Press 'space' when you see 2-back (i.e. the same letter as the one that appeared 2 letters ago.),o,None,,,,,,,,,0,10,10,10,0,1,1,1,,,,,,,,,,,,,,,,,,,,,,,,,,,,,,,,,,,,,,,,,,,,,,,,,,,,,,,,,,,,,,,,,,,,,1.5618,1007.485341,None,None,1,1007.485341,None,,P011,fencog,1,Post,2021_Sep_15_1045,N-Back (New Version 2021),2021.1.4,120.0366352
,,,,Conditions/Version_1/twoback(3)_v1.xlsx,New rule: Press 'space' when you see 2-back (i.e. the same letter as the one that appeared 2 letters ago.),P,None,,,,,,,,,0,10,10,10,0,2,2,2,,,,,,,,,,,,,,,,,,,,,,,,,,,,,,,,,,,,,,,,,,,,,,,,,,,,,,,,,,,,,,,,,,,,,1.723,1011.208606,None,None,1,1011.208606,None,,P011,fencog,1,Post,2021_Sep_15_1045,N-Back (New Version 2021),2021.1.4,120.0366352
,,,,Conditions/Version_1/twoback(3)_v1.xlsx,New rule: Press 'space' when you see 2-back (i.e. the same letter as the one that appeared 2 letters ago.),z,None,,,,,,,,,0,10,10,10,0,3,3,3,,,,,,,,,,,,,,,,,,,,,,,,,,,,,,,,,,,,,,,,,,,,,,,,,,,,,,,,,,,,,,,,,,,,,1.289,1014.501861,None,None,1,1014.501861,None,,P011,fencog,1,Post,2021_Sep_15_1045,N-Back (New Version 2021),2021.1.4,120.0366352
,,,,Conditions/Version_1/twoback(3)_v1.xlsx,New rule: Press 'space' when you see 2-back (i.e. the same letter as the one that appeared 2 letters ago.),X,None,,,,,,,,,0,10,10,10,0,4,4,4,,,,,,,,,,,,,,,,,,,,,,,,,,,,,,,,,,,,,,,,,,,,,,,,,,,,,,,,,,,,,,,,,,,,,1.4254,1017.940983,None,None,1,1017.940983,None,,P011,fencog,1,Post,2021_Sep_15_1045,N-Back (New Version 2021),2021.1.4,120.0366352
,,,,Conditions/Version_1/twoback(3)_v1.xlsx,New rule: Press 'space' when you see 2-back (i.e. the same letter as the one that appeared 2 letters ago.),z,space,,,,,,,,,0,10,10,10,0,5,5,5,,,,,,,,,,,,,,,,,,,,,,,,,,,,,,,,,,,,,,,,,,,,,,,,,,,,,,,,,,,,,,,,,,,,,1.0472,1020.997259,None,space,1,1020.997259,None,0.466747,P011,fencog,1,Post,2021_Sep_15_1045,N-Back (New Version 2021),2021.1.4,120.0366352
,,,,Conditions/Version_1/twoback(3)_v1.xlsx,New rule: Press 'space' when you see 2-back (i.e. the same letter as the one that appeared 2 letters ago.),x,space,,,,,,,,,0,10,10,10,0,6,6,6,,,,,,,,,,,,,,,,,,,,,,,,,,,,,,,,,,,,,,,,,,,,,,,,,,,,,,,,,,,,,,,,,,,,,1.8222,1024.82307,None,space,1,1024.82307,None,0.5366741,P011,fencog,1,Post,2021_Sep_15_1045,N-Back (New Version 2021),2021.1.4,120.0366352
,,,,Conditions/Version_1/twoback(3)_v1.xlsx,New rule: Press 'space' when you see 2-back (i.e. the same letter as the one that appeared 2 letters ago.),c,None,,,,,,,,,0,10,10,10,0,7,7,7,,,,,,,,,,,,,,,,,,,,,,,,,,,,,,,,,,,,,,,,,,,,,,,,,,,,,,,,,,,,,,,,,,,,,1.6734,1028.503385,None,None,1,1028.503385,None,,P011,fencog,1,Post,2021_Sep_15_1045,N-Back (New Version 2021),2021.1.4,120.0366352
,,,,Conditions/Version_1/twoback(3)_v1.xlsx,New rule: Press 'space' when you see 2-back (i.e. the same letter as the one that appeared 2 letters ago.),i,None,,,,,,,,,0,10,10,10,0,8,8,8,,,,,,,,,,,,,,,,,,,,,,,,,,,,,,,,,,,,,,,,,,,,,,,,,,,,,,,,,,,,,,,,,,,,,1.909,1032.423124,None,None,1,1032.423124,None,,P011,fencog,1,Post,2021_Sep_15_1045,N-Back (New Version 2021),2021.1.4,120.0366352
,,,,Conditions/Version_1/twoback(3)_v1.xlsx,New rule: Press 'space' when you see 2-back (i.e. the same letter as the one that appeared 2 letters ago.),C,space,,,,,,,,,0,10,10,10,0,9,9,9,,,,,,,,,,,,,,,,,,,,,,,,,,,,,,,,,,,,,,,,,,,,,,,,,,,,,,,,,,,,,,,,,,,,,1.6052,1036.035986,None,space,1,1036.035986,None,1.0276214,P011,fencog,1,Post,2021_Sep_15_1045,N-Back (New Version 2021),2021.1.4,120.0366352
,,,,Conditions/Version_1/twoback(3)_v1.xlsx,New rule: Press 'space' when you see 2-back (i.e. the same letter as the one that appeared 2 letters ago.),,,,,,,,,,,0,10,10,10,,,,,,,,,,,,,,,,,,,,,,,,,,,,,,,,,,,,,,,,,,,,,,,,,,,,,,,,,,,,,,,,,,,,,,,,,,,,,,,,,P011,fencog,1,Post,2021_Sep_15_1045,N-Back (New Version 2021),2021.1.4,120.0366352
,,,,Conditions/Version_1/oneback(3)_v1.xlsx,New rule: Press 'space' when you see 1-back (i.e. the same letter as the one that appeared 1 letter ago.),o,None,,,,,,,,,0,11,11,11,0,0,0,0,,,,,,,,,,,,,,,,,,,,,,,,,,,,,,,,,,,,,,,,,,,,,,,,,,,,,,,,,,,1038.06364,None,1041.052262,None,space,2.531079,1041.052262,None,1038.06364,None,1.6672,1045.275517,None,None,1,1045.275517,None,,P011,fencog,1,Post,2021_Sep_15_1045,N-Back (New Version 2021),2021.1.4,120.0366352
,,,,Conditions/Version_1/oneback(3)_v1.xlsx,New rule: Press 'space' when you see 1-back (i.e. the same letter as the one that appeared 1 letter ago.),O,space,,,,,,,,,0,11,11,11,0,1,1,1,,,,,,,,,,,,,,,,,,,,,,,,,,,,,,,,,,,,,,,,,,,,,,,,,,,,,,,,,,,,,,,,,,,,,1.9214,1049.209093,None,space,1,1049.209093,None,0.4868385,P011,fencog,1,Post,2021_Sep_15_1045,N-Back (New Version 2021),2021.1.4,120.0366352
,,,,Conditions/Version_1/oneback(3)_v1.xlsx,New rule: Press 'space' when you see 1-back (i.e. the same letter as the one that appeared 1 letter ago.),h,None,,,,,,,,,0,11,11,11,0,2,2,2,,,,,,,,,,,,,,,,,,,,,,,,,,,,,,,,,,,,,,,,,,,,,,,,,,,,,,,,,,,,,,,,,,,,,1.041,1052.254818,None,None,1,1052.254818,None,,P011,fencog,1,Post,2021_Sep_15_1045,N-Back (New Version 2021),2021.1.4,120.0366352
,,,,Conditions/Version_1/oneback(3)_v1.xlsx,New rule: Press 'space' when you see 1-back (i.e. the same letter as the one that appeared 1 letter ago.),g,None,,,,,,,,,0,11,11,11,0,3,3,3,,,,,,,,,,,,,,,,,,,,,,,,,,,,,,,,,,,,,,,,,,,,,,,,,,,,,,,,,,,,,,,,,,,,,1.0906,1055.346978,None,None,1,1055.346978,None,,P011,fencog,1,Post,2021_Sep_15_1045,N-Back (New Version 2021),2021.1.4,120.0366352
,,,,Conditions/Version_1/oneback(3)_v1.xlsx,New rule: Press 'space' when you see 1-back (i.e. the same letter as the one that appeared 1 letter ago.),n,None,,,,,,,,,0,11,11,11,0,4,4,4,,,,,,,,,,,,,,,,,,,,,,,,,,,,,,,,,,,,,,,,,,,,,,,,,,,,,,,,,,,,,,,,,,,,,1.9772,1059.341492,None,None,1,1059.341492,None,,P011,fencog,1,Post,2021_Sep_15_1045,N-Back (New Version 2021),2021.1.4,120.0366352
,,,,Conditions/Version_1/oneback(3)_v1.xlsx,New rule: Press 'space' when you see 1-back (i.e. the same letter as the one that appeared 1 letter ago.),z,None,,,,,,,,,0,11,11,11,0,5,5,5,,,,,,,,,,,,,,,,,,,,,,,,,,,,,,,,,,,,,,,,,,,,,,,,,,,,,,,,,,,,,,,,,,,,,1.9338,1063.284831,None,None,1,1063.284831,None,,P011,fencog,1,Post,2021_Sep_15_1045,N-Back (New Version 2021),2021.1.4,120.0366352
,,,,Conditions/Version_1/oneback(3)_v1.xlsx,New rule: Press 'space' when you see 1-back (i.e. the same letter as the one that appeared 1 letter ago.),X,None,,,,,,,,,0,11,11,11,0,6,6,6,,,,,,,,,,,,,,,,,,,,,,,,,,,,,,,,,,,,,,,,,,,,,,,,,,,,,,,,,,,,,,,,,,,,,1.5928,1066.884548,None,None,1,1066.884548,None,,P011,fencog,1,Post,2021_Sep_15_1045,N-Back (New Version 2021),2021.1.4,120.0366352
,,,,Conditions/Version_1/oneback(3)_v1.xlsx,New rule: Press 'space' when you see 1-back (i.e. the same letter as the one that appeared 1 letter ago.),r,None,,,,,,,,,0,11,11,11,0,7,7,7,,,,,,,,,,,,,,,,,,,,,,,,,,,,,,,,,,,,,,,,,,,,,,,,,,,,,,,,,,,,,,,,,,,,,1.4874,1070.385319,None,None,1,1070.385319,None,,P011,fencog,1,Post,2021_Sep_15_1045,N-Back (New Version 2021),2021.1.4,120.0366352
,,,,Conditions/Version_1/oneback(3)_v1.xlsx,New rule: Press 'space' when you see 1-back (i.e. the same letter as the one that appeared 1 letter ago.),r,space,,,,,,,,,0,11,11,11,0,8,8,8,,,,,,,,,,,,,,,,,,,,,,,,,,,,,,,,,,,,,,,,,,,,,,,,,,,,,,,,,,,,,,,,,,,,,1.0596,1073.458606,None,space,1,1073.458606,None,0.5581104,P011,fencog,1,Post,2021_Sep_15_1045,N-Back (New Version 2021),2021.1.4,120.0366352
,,,,Conditions/Version_1/oneback(3)_v1.xlsx,New rule: Press 'space' when you see 1-back (i.e. the same letter as the one that appeared 1 letter ago.),P,None,,,,,,,,,0,11,11,11,0,9,9,9,,,,,,,,,,,,,,,,,,,,,,,,,,,,,,,,,,,,,,,,,,,,,,,,,,,,,,,,,,,,,,,,,,,,,1.1588,1076.622524,None,None,1,1076.622524,None,,P011,fencog,1,Post,2021_Sep_15_1045,N-Back (New Version 2021),2021.1.4,120.0366352
,,,,Conditions/Version_1/oneback(3)_v1.xlsx,New rule: Press 'space' when you see 1-back (i.e. the same letter as the one that appeared 1 letter ago.),,,,,,,,,,,0,11,11,11,,,,,,,,,,,,,,,,,,,,,,,,,,,,,,,,,,,,,,,,,,,,,,,,,,,,,,,,,,,,,,,,,,,,,,,,,,,,,,,,,P011,fencog,1,Post,2021_Sep_15_1045,N-Back (New Version 2021),2021.1.4,120.0366352
,,,,Conditions/Version_1/twoback(4)_v1.xlsx,New rule: Press 'space' when you see 2-back (i.e. the same letter as the one that appeared 2 letters ago.),r,None,,,,,,,,,0,12,12,12,0,0,0,0,,,,,,,,,,,,,,,,,,,,,,,,,,,,,,,,,,,,,,,,,,,,,,,,,,,,,,,,,,,1078.643482,None,1081.632334,None,space,1.1684587,1081.632334,None,1078.643482,None,1.8408,1084.709667,None,None,1,1084.709667,None,,P011,fencog,1,Post,2021_Sep_15_1045,N-Back (New Version 2021),2021.1.4,120.0366352
,,,,Conditions/Version_1/twoback(4)_v1.xlsx,New rule: Press 'space' when you see 2-back (i.e. the same letter as the one that appeared 2 letters ago.),T,None,,,,,,,,,0,12,12,12,0,1,1,1,,,,,,,,,,,,,,,,,,,,,,,,,,,,,,,,,,,,,,,,,,,,,,,,,,,,,,,,,,,,,,,,,,,,,1.2332,1087.945336,None,None,1,1087.945336,None,,P011,fencog,1,Post,2021_Sep_15_1045,N-Back (New Version 2021),2021.1.4,120.0366352
,,,,Conditions/Version_1/twoback(4)_v1.xlsx,New rule: Press 'space' when you see 2-back (i.e. the same letter as the one that appeared 2 letters ago.),o,None,,,,,,,,,0,12,12,12,0,2,2,2,,,,,,,,,,,,,,,,,,,,,,,,,,,,,,,,,,,,,,,,,,,,,,,,,,,,,,,,,,,,,,,,,,,,,1.3014,1091.260494,None,None,1,1091.260494,None,,P011,fencog,1,Post,2021_Sep_15_1045,N-Back (New Version 2021),2021.1.4,120.0366352
,,,,Conditions/Version_1/twoback(4)_v1.xlsx,New rule: Press 'space' when you see 2-back (i.e. the same letter as the one that appeared 2 letters ago.),p,None,,,,,,,,,0,12,12,12,0,3,3,3,,,,,,,,,,,,,,,,,,,,,,,,,,,,,,,,,,,,,,,,,,,,,,,,,,,,,,,,,,,,,,,,,,,,,1.1712,1094.439278,None,None,1,1094.439278,None,,P011,fencog,1,Post,2021_Sep_15_1045,N-Back (New Version 2021),2021.1.4,120.0366352
,,,,Conditions/Version_1/twoback(4)_v1.xlsx,New rule: Press 'space' when you see 2-back (i.e. the same letter as the one that appeared 2 letters ago.),p,None,,,,,,,,,0,12,12,12,0,4,4,4,,,,,,,,,,,,,,,,,,,,,,,,,,,,,,,,,,,,,,,,,,,,,,,,,,,,,,,,,,,,,,,,,,,,,1.1836,1097.625031,None,space,0,1097.625031,None,0.5505523,P011,fencog,1,Post,2021_Sep_15_1045,N-Back (New Version 2021),2021.1.4,120.0366352
,,,,Conditions/Version_1/twoback(4)_v1.xlsx,New rule: Press 'space' when you see 2-back (i.e. the same letter as the one that appeared 2 letters ago.),y,None,,,,,,,,,0,12,12,12,0,5,5,5,,,,,,,,,,,,,,,,,,,,,,,,,,,,,,,,,,,,,,,,,,,,,,,,,,,,,,,,,,,,,,,,,,,,,1.3634,1100.991885,None,None,1,1100.991885,None,,P011,fencog,1,Post,2021_Sep_15_1045,N-Back (New Version 2021),2021.1.4,120.0366352
,,,,Conditions/Version_1/twoback(4)_v1.xlsx,New rule: Press 'space' when you see 2-back (i.e. the same letter as the one that appeared 2 letters ago.),P,space,,,,,,,,,0,12,12,12,0,6,6,6,,,,,,,,,,,,,,,,,,,,,,,,,,,,,,,,,,,,,,,,,,,,,,,,,,,,,,,,,,,,,,,,,,,,,1.0162,1104.014526,None,space,1,1104.014526,None,1.1942217,P011,fencog,1,Post,2021_Sep_15_1045,N-Back (New Version 2021),2021.1.4,120.0366352
,,,,Conditions/Version_1/twoback(4)_v1.xlsx,New rule: Press 'space' when you see 2-back (i.e. the same letter as the one that appeared 2 letters ago.),y,None,,,,,,,,,0,12,12,12,0,7,7,7,,,,,,,,,,,,,,,,,,,,,,,,,,,,,,,,,,,,,,,,,,,,,,,,,,,,,,,,,,,,,,,,,,,,,1.7974,1107.813408,None,space,0,1107.813408,None,1.0424571,P011,fencog,1,Post,2021_Sep_15_1045,N-Back (New Version 2021),2021.1.4,120.0366352
,,,,Conditions/Version_1/twoback(4)_v1.xlsx,New rule: Press 'space' when you see 2-back (i.e. the same letter as the one that appeared 2 letters ago.),y,space,,,,,,,,,0,12,12,12,0,8,8,8,,,,,,,,,,,,,,,,,,,,,,,,,,,,,,,,,,,,,,,,,,,,,,,,,,,,,,,,,,,,,,,,,,,,,1.6858,1111.512335,None,None,0,1111.512335,None,,P011,fencog,1,Post,2021_Sep_15_1045,N-Back (New Version 2021),2021.1.4,120.0366352
,,,,Conditions/Version_1/twoback(4)_v1.xlsx,New rule: Press 'space' when you see 2-back (i.e. the same letter as the one that appeared 2 letters ago.),,,,,,,,,,,0,12,12,12,,,,,,,,,,,,,,,,,,,,,,,,,,,,,,,,,,,,,,,,,,,,,,,,,,,,,,,,,,,,,,,,,,,,,,,,,,,,,,,,,P011,fencog,1,Post,2021_Sep_15_1045,N-Back (New Version 2021),2021.1.4,120.0366352
,,,,Conditions/Version_1/zeroback(4)_v1.xlsx,New rule: Press 'space' when you see the letter 'x' or 'X'.,o,None,,,,,,,,,0,13,13,13,0,0,0,0,,,,,,,,,,,,,,,,,,,,,,,,,,,,,,,,,,,,,,,,,,,,,,,,,,,,,,,,,,,1113.52963,None,1116.513407,None,space,0.8386141,1116.513407,None,1113.52963,None,1.2084,1118.577852,None,None,1,1118.577852,None,,P011,fencog,1,Post,2021_Sep_15_1045,N-Back (New Version 2021),2021.1.4,120.0366352
,,,,Conditions/Version_1/zeroback(4)_v1.xlsx,New rule: Press 'space' when you see the letter 'x' or 'X'.,X,space,,,,,,,,,0,13,13,13,0,1,1,1,,,,,,,,,,,,,,,,,,,,,,,,,,,,,,,,,,,,,,,,,,,,,,,,,,,,,,,,,,,,,,,,,,,,,1.3572,1121.945324,None,space,1,1121.945324,None,0.4065065,P011,fencog,1,Post,2021_Sep_15_1045,N-Back (New Version 2021),2021.1.4,120.0366352
,,,,Conditions/Version_1/zeroback(4)_v1.xlsx,New rule: Press 'space' when you see the letter 'x' or 'X'.,p,None,,,,,,,,,0,13,13,13,0,2,2,2,,,,,,,,,,,,,,,,,,,,,,,,,,,,,,,,,,,,,,,,,,,,,,,,,,,,,,,,,,,,,,,,,,,,,1.5494,1125.506821,None,None,1,1125.506821,None,,P011,fencog,1,Post,2021_Sep_15_1045,N-Back (New Version 2021),2021.1.4,120.0366352
,,,,Conditions/Version_1/zeroback(4)_v1.xlsx,New rule: Press 'space' when you see the letter 'x' or 'X'.,m,None,,,,,,,,,0,13,13,13,0,3,3,3,,,,,,,,,,,,,,,,,,,,,,,,,,,,,,,,,,,,,,,,,,,,,,,,,,,,,,,,,,,,,,,,,,,,,1.475,1128.982794,None,None,1,1128.982794,None,,P011,fencog,1,Post,2021_Sep_15_1045,N-Back (New Version 2021),2021.1.4,120.0366352
,,,,Conditions/Version_1/zeroback(4)_v1.xlsx,New rule: Press 'space' when you see the letter 'x' or 'X'.,n,None,,,,,,,,,0,13,13,13,0,4,4,4,,,,,,,,,,,,,,,,,,,,,,,,,,,,,,,,,,,,,,,,,,,,,,,,,,,,,,,,,,,,,,,,,,,,,1.2208,1132.214817,None,None,1,1132.214817,None,,P011,fencog,1,Post,2021_Sep_15_1045,N-Back (New Version 2021),2021.1.4,120.0366352
,,,,Conditions/Version_1/zeroback(4)_v1.xlsx,New rule: Press 'space' when you see the letter 'x' or 'X'.,m,None,,,,,,,,,0,13,13,13,0,5,5,5,,,,,,,,,,,,,,,,,,,,,,,,,,,,,,,,,,,,,,,,,,,,,,,,,,,,,,,,,,,,,,,,,,,,,1.0472,1135.273282,None,None,1,1135.273282,None,,P011,fencog,1,Post,2021_Sep_15_1045,N-Back (New Version 2021),2021.1.4,120.0366352
,,,,Conditions/Version_1/zeroback(4)_v1.xlsx,New rule: Press 'space' when you see the letter 'x' or 'X'.,C,None,,,,,,,,,0,13,13,13,0,6,6,6,,,,,,,,,,,,,,,,,,,,,,,,,,,,,,,,,,,,,,,,,,,,,,,,,,,,,,,,,,,,,,,,,,,,,1.2394,1138.521038,None,None,1,1138.521038,None,,P011,fencog,1,Post,2021_Sep_15_1045,N-Back (New Version 2021),2021.1.4,120.0366352
,,,,Conditions/Version_1/zeroback(4)_v1.xlsx,New rule: Press 'space' when you see the letter 'x' or 'X'.,m,None,,,,,,,,,0,13,13,13,0,7,7,7,,,,,,,,,,,,,,,,,,,,,,,,,,,,,,,,,,,,,,,,,,,,,,,,,,,,,,,,,,,,,,,,,,,,,1.3138,1141.837955,None,None,1,1141.837955,None,,P011,fencog,1,Post,2021_Sep_15_1045,N-Back (New Version 2021),2021.1.4,120.0366352
,,,,Conditions/Version_1/zeroback(4)_v1.xlsx,New rule: Press 'space' when you see the letter 'x' or 'X'.,p,None,,,,,,,,,0,13,13,13,0,8,8,8,,,,,,,,,,,,,,,,,,,,,,,,,,,,,,,,,,,,,,,,,,,,,,,,,,,,,,,,,,,,,,,,,,,,,1.785,1145.637146,None,None,1,1145.637146,None,,P011,fencog,1,Post,2021_Sep_15_1045,N-Back (New Version 2021),2021.1.4,120.0366352
,,,,Conditions/Version_1/zeroback(4)_v1.xlsx,New rule: Press 'space' when you see the letter 'x' or 'X'.,X,space,,,,,,,,,0,13,13,13,0,9,9,9,,,,,,,,,,,,,,,,,,,,,,,,,,,,,,,,,,,,,,,,,,,,,,,,,,,,,,,,,,,,,,,,,,,,,1.0162,1148.664911,None,space,1,1148.664911,None,0.8070696,P011,fencog,1,Post,2021_Sep_15_1045,N-Back (New Version 2021),2021.1.4,120.0366352
,,,,Conditions/Version_1/zeroback(4)_v1.xlsx,New rule: Press 'space' when you see the letter 'x' or 'X'.,,,,,,,,,,,0,13,13,13,,,,,,,,,,,,,,,,,,,,,,,,,,,,,,,,,,,,,,,,,,,,,,,,,,,,,,,,,,,,,,,,,,,,,,,,,,,,,,,,,P011,fencog,1,Post,2021_Sep_15_1045,N-Back (New Version 2021),2021.1.4,120.0366352
,,,,Conditions/Version_1/oneback(4)_v1.xlsx,New rule: Press 'space' when you see 1-back (i.e. the same letter as the one that appeared 1 letter ago.),w,None,,,,,,,,,0,14,14,14,0,0,0,0,,,,,,,,,,,,,,,,,,,,,,,,,,,,,,,,,,,,,,,,,,,,,,,,,,,,,,,,,,,1150.688739,None,1153.669239,None,space,3.8587102,1153.669239,None,1150.688739,None,1.3448,1158.902239,None,None,1,1158.902239,None,,P011,fencog,1,Post,2021_Sep_15_1045,N-Back (New Version 2021),2021.1.4,120.0366352
,,,,Conditions/Version_1/oneback(4)_v1.xlsx,New rule: Press 'space' when you see 1-back (i.e. the same letter as the one that appeared 1 letter ago.),q,None,,,,,,,,,0,14,14,14,0,1,1,1,,,,,,,,,,,,,,,,,,,,,,,,,,,,,,,,,,,,,,,,,,,,,,,,,,,,,,,,,,,,,,,,,,,,,1.444,1162.361299,None,None,1,1162.361299,None,,P011,fencog,1,Post,2021_Sep_15_1045,N-Back (New Version 2021),2021.1.4,120.0366352
,,,,Conditions/Version_1/oneback(4)_v1.xlsx,New rule: Press 'space' when you see 1-back (i.e. the same letter as the one that appeared 1 letter ago.),i,None,,,,,,,,,0,14,14,14,0,2,2,2,,,,,,,,,,,,,,,,,,,,,,,,,,,,,,,,,,,,,,,,,,,,,,,,,,,,,,,,,,,,,,,,,,,,,1.3696,1165.738088,None,None,1,1165.738088,None,,P011,fencog,1,Post,2021_Sep_15_1045,N-Back (New Version 2021),2021.1.4,120.0366352
,,,,Conditions/Version_1/oneback(4)_v1.xlsx,New rule: Press 'space' when you see 1-back (i.e. the same letter as the one that appeared 1 letter ago.),t,None,,,,,,,,,0,14,14,14,0,3,3,3,,,,,,,,,,,,,,,,,,,,,,,,,,,,,,,,,,,,,,,,,,,,,,,,,,,,,,,,,,,,,,,,,,,,,1.6982,1169.439024,None,None,1,1169.439024,None,,P011,fencog,1,Post,2021_Sep_15_1045,N-Back (New Version 2021),2021.1.4,120.0366352
,,,,Conditions/Version_1/oneback(4)_v1.xlsx,New rule: Press 'space' when you see 1-back (i.e. the same letter as the one that appeared 1 letter ago.),v,None,,,,,,,,,0,14,14,14,0,4,4,4,,,,,,,,,,,,,,,,,,,,,,,,,,,,,,,,,,,,,,,,,,,,,,,,,,,,,,,,,,,,,,,,,,,,,1.2828,1172.731222,None,None,1,1172.731222,None,,P011,fencog,1,Post,2021_Sep_15_1045,N-Back (New Version 2021),2021.1.4,120.0366352
,,,,Conditions/Version_1/oneback(4)_v1.xlsx,New rule: Press 'space' when you see 1-back (i.e. the same letter as the one that appeared 1 letter ago.),V,space,,,,,,,,,0,14,14,14,0,5,5,5,,,,,,,,,,,,,,,,,,,,,,,,,,,,,,,,,,,,,,,,,,,,,,,,,,,,,,,,,,,,,,,,,,,,,1.0162,1175.753787,None,space,1,1175.753787,None,0.5981875,P011,fencog,1,Post,2021_Sep_15_1045,N-Back (New Version 2021),2021.1.4,120.0366352
,,,,Conditions/Version_1/oneback(4)_v1.xlsx,New rule: Press 'space' when you see 1-back (i.e. the same letter as the one that appeared 1 letter ago.),v,space,,,,,,,,,0,14,14,14,0,6,6,6,,,,,,,,,,,,,,,,,,,,,,,,,,,,,,,,,,,,,,,,,,,,,,,,,,,,,,,,,,,,,,,,,,,,,1.475,1179.234651,None,space,1,1179.234651,None,0.7813431,P011,fencog,1,Post,2021_Sep_15_1045,N-Back (New Version 2021),2021.1.4,120.0366352
,,,,Conditions/Version_1/oneback(4)_v1.xlsx,New rule: Press 'space' when you see 1-back (i.e. the same letter as the one that appeared 1 letter ago.),p,None,,,,,,,,,0,14,14,14,0,7,7,7,,,,,,,,,,,,,,,,,,,,,,,,,,,,,,,,,,,,,,,,,,,,,,,,,,,,,,,,,,,,,,,,,,,,,1.2332,1182.467558,None,None,1,1182.467558,None,,P011,fencog,1,Post,2021_Sep_15_1045,N-Back (New Version 2021),2021.1.4,120.0366352
,,,,Conditions/Version_1/oneback(4)_v1.xlsx,New rule: Press 'space' when you see 1-back (i.e. the same letter as the one that appeared 1 letter ago.),w,None,,,,,,,,,0,14,14,14,0,8,8,8,,,,,,,,,,,,,,,,,,,,,,,,,,,,,,,,,,,,,,,,,,,,,,,,,,,,,,,,,,,,,,,,,,,,,1.1774,1185.66164,None,None,1,1185.66164,None,,P011,fencog,1,Post,2021_Sep_15_1045,N-Back (New Version 2021),2021.1.4,120.0366352
,,,,Conditions/Version_1/oneback(4)_v1.xlsx,New rule: Press 'space' when you see 1-back (i.e. the same letter as the one that appeared 1 letter ago.),W,space,,,,,,,,,0,14,14,14,0,9,9,9,,,,,,,,,,,,,,,,,,,,,,,,,,,,,,,,,,,,,,,,,,,,,,,,,,,,,,,,,,,,,,,,,,,,,1.1712,1188.839685,None,space,1,1188.839685,None,0.496189,P011,fencog,1,Post,2021_Sep_15_1045,N-Back (New Version 2021),2021.1.4,120.0366352
,,,,Conditions/Version_1/oneback(4)_v1.xlsx,New rule: Press 'space' when you see 1-back (i.e. the same letter as the one that appeared 1 letter ago.),,,,,,,,,,,0,14,14,14,,,,,,,,,,,,,,,,,,,,,,,,,,,,,,,,,,,,,,,,,,,,,,,,,,,,,,,,,,,,,,,,,,,,,,,,,,,,,,,,,P011,fencog,1,Post,2021_Sep_15_1045,N-Back (New Version 2021),2021.1.4,120.0366352
,,,,Conditions/Version_1/threeback(4)_v1.xlsx,New rule: Press 'space' when you see 3-back (i.e. the same letter as the one that appeared 3 letters ago.),A,None,,,,,,,,,0,15,15,15,0,0,0,0,,,,,,,,,,,,,,,,,,,,,,,,,,,,,,,,,,,,,,,,,,,,,,,,,,,,,,,,,,,1190.861673,None,1193.849311,None,space,0.8702975,1193.849311,None,1190.861673,None,1.2332,1195.972769,None,None,1,1195.972769,None,,P011,fencog,1,Post,2021_Sep_15_1045,N-Back (New Version 2021),2021.1.4,120.0366352
,,,,Conditions/Version_1/threeback(4)_v1.xlsx,New rule: Press 'space' when you see 3-back (i.e. the same letter as the one that appeared 3 letters ago.),n,None,,,,,,,,,0,15,15,15,0,1,1,1,,,,,,,,,,,,,,,,,,,,,,,,,,,,,,,,,,,,,,,,,,,,,,,,,,,,,,,,,,,,,,,,,,,,,1.0906,1199.071253,None,None,1,1199.071253,None,,P011,fencog,1,Post,2021_Sep_15_1045,N-Back (New Version 2021),2021.1.4,120.0366352
,,,,Conditions/Version_1/threeback(4)_v1.xlsx,New rule: Press 'space' when you see 3-back (i.e. the same letter as the one that appeared 3 letters ago.),g,None,,,,,,,,,0,15,15,15,0,2,2,2,,,,,,,,,,,,,,,,,,,,,,,,,,,,,,,,,,,,,,,,,,,,,,,,,,,,,,,,,,,,,,,,,,,,,1.7478,1202.829705,None,None,1,1202.829705,None,,P011,fencog,1,Post,2021_Sep_15_1045,N-Back (New Version 2021),2021.1.4,120.0366352
,,,,Conditions/Version_1/threeback(4)_v1.xlsx,New rule: Press 'space' when you see 3-back (i.e. the same letter as the one that appeared 3 letters ago.),A,space,,,,,,,,,0,15,15,15,0,3,3,3,,,,,,,,,,,,,,,,,,,,,,,,,,,,,,,,,,,,,,,,,,,,,,,,,,,,,,,,,,,,,,,,,,,,,1.4626,1206.301273,None,space,1,1206.301273,None,0.4666482,P011,fencog,1,Post,2021_Sep_15_1045,N-Back (New Version 2021),2021.1.4,120.0366352
,,,,Conditions/Version_1/threeback(4)_v1.xlsx,New rule: Press 'space' when you see 3-back (i.e. the same letter as the one that appeared 3 letters ago.),p,None,,,,,,,,,0,15,15,15,0,4,4,4,,,,,,,,,,,,,,,,,,,,,,,,,,,,,,,,,,,,,,,,,,,,,,,,,,,,,,,,,,,,,,,,,,,,,1.475,1209.785525,None,None,1,1209.785525,None,,P011,fencog,1,Post,2021_Sep_15_1045,N-Back (New Version 2021),2021.1.4,120.0366352
,,,,Conditions/Version_1/threeback(4)_v1.xlsx,New rule: Press 'space' when you see 3-back (i.e. the same letter as the one that appeared 3 letters ago.),O,None,,,,,,,,,0,15,15,15,0,5,5,5,,,,,,,,,,,,,,,,,,,,,,,,,,,,,,,,,,,,,,,,,,,,,,,,,,,,,,,,,,,,,,,,,,,,,1.4068,1213.201865,None,None,1,1213.201865,None,,P011,fencog,1,Post,2021_Sep_15_1045,N-Back (New Version 2021),2021.1.4,120.0366352
,,,,Conditions/Version_1/threeback(4)_v1.xlsx,New rule: Press 'space' when you see 3-back (i.e. the same letter as the one that appeared 3 letters ago.),a,space,,,,,,,,,0,15,15,15,0,6,6,6,,,,,,,,,,,,,,,,,,,,,,,,,,,,,,,,,,,,,,,,,,,,,,,,,,,,,,,,,,,,,,,,,,,,,1.444,1216.659073,None,space,1,1216.659073,None,1.660611,P011,fencog,1,Post,2021_Sep_15_1045,N-Back (New Version 2021),2021.1.4,120.0366352
,,,,Conditions/Version_1/threeback(4)_v1.xlsx,New rule: Press 'space' when you see 3-back (i.e. the same letter as the one that appeared 3 letters ago.),p,space,,,,,,,,,0,15,15,15,0,7,7,7,,,,,,,,,,,,,,,,,,,,,,,,,,,,,,,,,,,,,,,,,,,,,,,,,,,,,,,,,,,,,,,,,,,,,1.3882,1220.055869,None,None,0,1220.055869,None,,P011,fencog,1,Post,2021_Sep_15_1045,N-Back (New Version 2021),2021.1.4,120.0366352
,,,,Conditions/Version_1/threeback(4)_v1.xlsx,New rule: Press 'space' when you see 3-back (i.e. the same letter as the one that appeared 3 letters ago.),x,None,,,,,,,,,0,15,15,15,0,8,8,8,,,,,,,,,,,,,,,,,,,,,,,,,,,,,,,,,,,,,,,,,,,,,,,,,,,,,,,,,,,,,,,,,,,,,1.9152,1223.971944,None,None,1,1223.971944,None,,P011,fencog,1,Post,2021_Sep_15_1045,N-Back (New Version 2021),2021.1.4,120.0366352
,,,,Conditions/Version_1/threeback(4)_v1.xlsx,New rule: Press 'space' when you see 3-back (i.e. the same letter as the one that appeared 3 letters ago.),X,None,,,,,,,,,0,15,15,15,0,9,9,9,,,,,,,,,,,,,,,,,,,,,,,,,,,,,,,,,,,,,,,,,,,,,,,,,,,,,,,,,,,,,,,,,,,,,1.1712,1227.155394,None,None,1,1227.155394,None,,P011,fencog,1,Post,2021_Sep_15_1045,N-Back (New Version 2021),2021.1.4,120.0366352
,,,,Conditions/Version_1/threeback(4)_v1.xlsx,New rule: Press 'space' when you see 3-back (i.e. the same letter as the one that appeared 3 letters ago.),,,,,,,,,,,0,15,15,15,,,,,,,,,,,,,,,,,,,,,,,,,,,,,,,,,,,,,,,,,,,,,,,,,,,,,,,,,,,,,,,,,,,,,,,,,,,,,,,,,P011,fencog,1,Post,2021_Sep_15_1045,N-Back (New Version 2021),2021.1.4,120.0366352
