CondFileP,InstructionsP,LettersDisplayedP,CorrectnessP,CondFile,Instructions,LettersDisplayed,Correctness,practicetrials.thisRepN,practicetrials.thisTrialN,practicetrials.thisN,practicetrials.thisIndex,InnerLoopPractice.thisRepN,InnerLoopPractice.thisTrialN,InnerLoopPractice.thisN,InnerLoopPractice.thisIndex,trials.thisRepN,trials.thisTrialN,trials.thisN,trials.thisIndex,InnerLoop.thisRepN,InnerLoop.thisTrialN,InnerLoop.thisN,InnerLoop.thisIndex,TaskVersionText.started,TaskVersionText.stopped,InstrKey1.keys,InstrKey1.rt,InstrKey1.started,InstrKey1.stopped,text.started,text.stopped,key_resp_4.keys,key_resp_4.rt,key_resp_4.started,key_resp_4.stopped,text_2.started,text_2.stopped,key_resp_3.keys,key_resp_3.rt,key_resp_3.started,key_resp_3.stopped,text_3.started,text_3.stopped,key_resp_2.keys,key_resp_2.rt,key_resp_2.started,key_resp_2.stopped,PractIn1.started,PractIn1.stopped,PractIn2.started,PractIn2.stopped,PractInstructionPass.keys,PractInstructionPass.rt,PractInstructionPass.started,PractInstructionPass.stopped,PractBlock1.started,PractBlock1.stopped,ISIjitterPractice,ISI_Pract_Fixation.started,ISI_Pract_Fixation.stopped,N_backP.started,N_backP.stopped,KeyPractice.keys,KeyPractice.corr,KeyPractice.started,KeyPractice.stopped,text_4.started,text_4.stopped,KeyPractice.rt,TransitionText.started,TransitionText.stopped,key_resp_6.keys,key_resp_6.rt,key_resp_6.started,key_resp_6.stopped,text_5.started,text_5.stopped,key_resp_5.keys,key_resp_5.rt,key_resp_5.started,key_resp_5.stopped,MainInt1.started,MainInt1.stopped,MainInt2.started,MainInt2.stopped,InstructionPass.keys,InstructionPass.rt,InstructionPass.started,InstructionPass.stopped,Blocks1.started,Blocks1.stopped,ISIjitter,N_backD.started,N_backD.stopped,key_resp.keys,key_resp.corr,key_resp.started,key_resp.stopped,key_resp.rt,participant,Study Name,Task Version (required to run),PRE/POST,date,expName,psychopyVersion,frameRate
,,,,,,,,,,,,,,,,,,,,,,,,26.8965327,None,space,24.9805443,27.3884702,None,,,,,,,,,,,,,,,,,,,,,,,,,,,,,,,,,,,,,,,,,,,,,,,,,,,,,,,,,,,,,,,,,,,,,,,P011,fencog,2,Pre,2021_Sep_07_1141,N-Back (New Version 2021),2021.1.4,119.952115
,,,,,,,,,,,,,,,,,,,,,,,,,,,,,,52.4035194,None,space,19.0948497,52.8901656,None,,,,,,,,,,,,,,,,,,,,,,,,,,,,,,,,,,,,,,,,,,,,,,,,,,,,,,,,,,,,,,,,,P011,fencog,2,Pre,2021_Sep_07_1141,N-Back (New Version 2021),2021.1.4,119.952115
,,,,,,,,,,,,,,,,,,,,,,,,,,,,,,,,,,,,72.0152547,None,space,33.563223,72.5095199,None,,,,,,,,,,,,,,,,,,,,,,,,,,,,,,,,,,,,,,,,,,,,,,,,,,,,,,,,,,,P011,fencog,2,Pre,2021_Sep_07_1141,N-Back (New Version 2021),2021.1.4,119.952115
,,,,,,,,,,,,,,,,,,,,,,,,,,,,,,,,,,,,,,,,,,106.1011817,None,space,34.1296029,106.5910372,None,,,,,,,,,,,,,,,,,,,,,,,,,,,,,,,,,,,,,,,,,,,,,,,,,,,,,P011,fencog,2,Pre,2021_Sep_07_1141,N-Back (New Version 2021),2021.1.4,119.952115
Conditions/Version_2Pr/zeroback(1)_v2.xlsx,Rule: Press 'space' when you see the letter 'x' or 'X'.,x,space,,,,,0,0,0,0,0,0,0,0,,,,,,,,,,,,,,,,,,,,,,,,,,,,,,,,,142.0795874,None,145.0642928,None,space,36.800415,145.0642928,None,142.0795874,None,1.665,181.8842169,None,183.5570242,None,None,0,183.5570242,None,185.562932,None,,,,,,,,,,,,,,,,,,,,,,,,,,,,,,,,P011,fencog,2,Pre,2021_Sep_07_1141,N-Back (New Version 2021),2021.1.4,119.952115
Conditions/Version_2Pr/zeroback(1)_v2.xlsx,Rule: Press 'space' when you see the letter 'x' or 'X'.,R,None,,,,,0,0,0,0,0,1,1,1,,,,,,,,,,,,,,,,,,,,,,,,,,,,,,,,,,,,,,,,,,,1.29,187.0580044,None,188.3550147,None,None,1,188.3550147,None,190.3625075,None,,,,,,,,,,,,,,,,,,,,,,,,,,,,,,,,P011,fencog,2,Pre,2021_Sep_07_1141,N-Back (New Version 2021),2021.1.4,119.952115
Conditions/Version_2Pr/zeroback(1)_v2.xlsx,Rule: Press 'space' when you see the letter 'x' or 'X'.,p,None,,,,,0,0,0,0,0,2,2,2,,,,,,,,,,,,,,,,,,,,,,,,,,,,,,,,,,,,,,,,,,,1.14,191.8567818,None,192.9996003,None,None,1,192.9996003,None,195.002531,None,,,,,,,,,,,,,,,,,,,,,,,,,,,,,,,,P011,fencog,2,Pre,2021_Sep_07_1141,N-Back (New Version 2021),2021.1.4,119.952115
Conditions/Version_2Pr/zeroback(1)_v2.xlsx,Rule: Press 'space' when you see the letter 'x' or 'X'.,O,None,,,,,0,0,0,0,0,3,3,3,,,,,,,,,,,,,,,,,,,,,,,,,,,,,,,,,,,,,,,,,,,1.765,196.5053728,None,198.2726138,None,None,1,198.2726138,None,200.279306,None,,,,,,,,,,,,,,,,,,,,,,,,,,,,,,,,P011,fencog,2,Pre,2021_Sep_07_1141,N-Back (New Version 2021),2021.1.4,119.952115
Conditions/Version_2Pr/zeroback(1)_v2.xlsx,Rule: Press 'space' when you see the letter 'x' or 'X'.,i,None,,,,,0,0,0,0,0,4,4,4,,,,,,,,,,,,,,,,,,,,,,,,,,,,,,,,,,,,,,,,,,,1.315,201.7788363,None,203.0965517,None,None,1,203.0965517,None,205.1028685,None,,,,,,,,,,,,,,,,,,,,,,,,,,,,,,,,P011,fencog,2,Pre,2021_Sep_07_1141,N-Back (New Version 2021),2021.1.4,119.952115
Conditions/Version_2Pr/zeroback(1)_v2.xlsx,Rule: Press 'space' when you see the letter 'x' or 'X'.,U,None,,,,,0,0,0,0,0,5,5,5,,,,,,,,,,,,,,,,,,,,,,,,,,,,,,,,,,,,,,,,,,,1.44,206.6023792,None,208.0455891,None,None,1,208.0455891,None,210.0513896,None,,,,,,,,,,,,,,,,,,,,,,,,,,,,,,,,P011,fencog,2,Pre,2021_Sep_07_1141,N-Back (New Version 2021),2021.1.4,119.952115
Conditions/Version_2Pr/zeroback(1)_v2.xlsx,Rule: Press 'space' when you see the letter 'x' or 'X'.,N,None,,,,,0,0,0,0,0,6,6,6,,,,,,,,,,,,,,,,,,,,,,,,,,,,,,,,,,,,,,,,,,,2.015,211.550998,None,213.5705118,None,None,1,213.5705118,None,215.5748233,None,,,,,,,,,,,,,,,,,,,,,,,,,,,,,,,,P011,fencog,2,Pre,2021_Sep_07_1141,N-Back (New Version 2021),2021.1.4,119.952115
Conditions/Version_2Pr/zeroback(1)_v2.xlsx,Rule: Press 'space' when you see the letter 'x' or 'X'.,m,None,,,,,0,0,0,0,0,7,7,7,,,,,,,,,,,,,,,,,,,,,,,,,,,,,,,,,,,,,,,,,,,1.265,217.0741909,None,218.3470913,None,None,1,218.3470913,None,220.3484514,None,,,,,,,,,,,,,,,,,,,,,,,,,,,,,,,,P011,fencog,2,Pre,2021_Sep_07_1141,N-Back (New Version 2021),2021.1.4,119.952115
Conditions/Version_2Pr/zeroback(1)_v2.xlsx,Rule: Press 'space' when you see the letter 'x' or 'X'.,x,space,,,,,0,0,0,0,0,8,8,8,,,,,,,,,,,,,,,,,,,,,,,,,,,,,,,,,,,,,,,,,,,1.065,221.8479066,None,222.9159633,None,space,1,222.9159633,None,223.3163253,None,0.3881046,,,,,,,,,,,,,,,,,,,,,,,,,,,,,,,P011,fencog,2,Pre,2021_Sep_07_1141,N-Back (New Version 2021),2021.1.4,119.952115
Conditions/Version_2Pr/zeroback(1)_v2.xlsx,Rule: Press 'space' when you see the letter 'x' or 'X'.,X,space,,,,,0,0,0,0,0,9,9,9,,,,,,,,,,,,,,,,,,,,,,,,,,,,,,,,,,,,,,,,,,,1.34,224.8218474,None,226.1650228,None,space,1,226.1650228,None,226.6808087,None,0.5075979,,,,,,,,,,,,,,,,,,,,,,,,,,,,,,,P011,fencog,2,Pre,2021_Sep_07_1141,N-Back (New Version 2021),2021.1.4,119.952115
Conditions/Version_2Pr/zeroback(1)_v2.xlsx,Rule: Press 'space' when you see the letter 'x' or 'X'.,,,,,,,0,0,0,0,,,,,,,,,,,,,,,,,,,,,,,,,,,,,,,,,,,,,,,,,,,,,,,,,,,,,,,,,,,,,,,,,,,,,,,,,,,,,,,,,,,,,,,,,P011,fencog,2,Pre,2021_Sep_07_1141,N-Back (New Version 2021),2021.1.4,119.952115
Conditions/Version_2Pr/oneback(1)_v2.xlsx,New rule: Press 'space' when you see 1-back (i.e. the same letter as the one that appeared 1 letter ago.),r,None,,,,,0,1,1,1,0,0,0,0,,,,,,,,,,,,,,,,,,,,,,,,,,,,,,,,,228.2222702,None,231.2059948,None,space,20.2668187,231.2059948,None,228.2222702,None,1.065,251.4941067,None,252.5665257,None,None,1,252.5665257,None,254.5745725,None,,,,,,,,,,,,,,,,,,,,,,,,,,,,,,,,P011,fencog,2,Pre,2021_Sep_07_1141,N-Back (New Version 2021),2021.1.4,119.952115
Conditions/Version_2Pr/oneback(1)_v2.xlsx,New rule: Press 'space' when you see 1-back (i.e. the same letter as the one that appeared 1 letter ago.),t,None,,,,,0,1,1,1,0,1,1,1,,,,,,,,,,,,,,,,,,,,,,,,,,,,,,,,,,,,,,,,,,,1.49,256.0713024,None,257.5671232,None,None,1,257.5671232,None,259.5700552,None,,,,,,,,,,,,,,,,,,,,,,,,,,,,,,,,P011,fencog,2,Pre,2021_Sep_07_1141,N-Back (New Version 2021),2021.1.4,119.952115
Conditions/Version_2Pr/oneback(1)_v2.xlsx,New rule: Press 'space' when you see 1-back (i.e. the same letter as the one that appeared 1 letter ago.),Y,None,,,,,0,1,1,1,0,2,2,2,,,,,,,,,,,,,,,,,,,,,,,,,,,,,,,,,,,,,,,,,,,2.015,261.0696113,None,263.0884464,None,None,1,263.0884464,None,265.0933921,None,,,,,,,,,,,,,,,,,,,,,,,,,,,,,,,,P011,fencog,2,Pre,2021_Sep_07_1141,N-Back (New Version 2021),2021.1.4,119.952115
Conditions/Version_2Pr/oneback(1)_v2.xlsx,New rule: Press 'space' when you see 1-back (i.e. the same letter as the one that appeared 1 letter ago.),y,space,,,,,0,1,1,1,0,3,3,3,,,,,,,,,,,,,,,,,,,,,,,,,,,,,,,,,,,,,,,,,,,1.465,266.5930968,None,268.0623328,None,space,1,268.0623328,None,268.4855878,None,0.410342,,,,,,,,,,,,,,,,,,,,,,,,,,,,,,,P011,fencog,2,Pre,2021_Sep_07_1141,N-Back (New Version 2021),2021.1.4,119.952115
Conditions/Version_2Pr/oneback(1)_v2.xlsx,New rule: Press 'space' when you see 1-back (i.e. the same letter as the one that appeared 1 letter ago.),p,None,,,,,0,1,1,1,0,4,4,4,,,,,,,,,,,,,,,,,,,,,,,,,,,,,,,,,,,,,,,,,,,1.565,269.9917759,None,271.5585271,None,None,1,271.5585271,None,273.5574427,None,,,,,,,,,,,,,,,,,,,,,,,,,,,,,,,,P011,fencog,2,Pre,2021_Sep_07_1141,N-Back (New Version 2021),2021.1.4,119.952115
Conditions/Version_2Pr/oneback(1)_v2.xlsx,New rule: Press 'space' when you see 1-back (i.e. the same letter as the one that appeared 1 letter ago.),P,space,,,,,0,1,1,1,0,5,5,5,,,,,,,,,,,,,,,,,,,,,,,,,,,,,,,,,,,,,,,,,,,1.165,275.0592611,None,276.2265532,None,space,1,276.2265532,None,276.6182381,None,0.3746223,,,,,,,,,,,,,,,,,,,,,,,,,,,,,,,P011,fencog,2,Pre,2021_Sep_07_1141,N-Back (New Version 2021),2021.1.4,119.952115
Conditions/Version_2Pr/oneback(1)_v2.xlsx,New rule: Press 'space' when you see 1-back (i.e. the same letter as the one that appeared 1 letter ago.),e,None,,,,,0,1,1,1,0,6,6,6,,,,,,,,,,,,,,,,,,,,,,,,,,,,,,,,,,,,,,,,,,,1.74,278.1227375,None,279.8646935,None,None,1,279.8646935,None,281.8659865,None,,,,,,,,,,,,,,,,,,,,,,,,,,,,,,,,P011,fencog,2,Pre,2021_Sep_07_1141,N-Back (New Version 2021),2021.1.4,119.952115
Conditions/Version_2Pr/oneback(1)_v2.xlsx,New rule: Press 'space' when you see 1-back (i.e. the same letter as the one that appeared 1 letter ago.),r,None,,,,,0,1,1,1,0,7,7,7,,,,,,,,,,,,,,,,,,,,,,,,,,,,,,,,,,,,,,,,,,,1.79,283.3713318,None,285.1657854,None,None,1,285.1657854,None,287.1702678,None,,,,,,,,,,,,,,,,,,,,,,,,,,,,,,,,P011,fencog,2,Pre,2021_Sep_07_1141,N-Back (New Version 2021),2021.1.4,119.952115
Conditions/Version_2Pr/oneback(1)_v2.xlsx,New rule: Press 'space' when you see 1-back (i.e. the same letter as the one that appeared 1 letter ago.),R,space,,,,,0,1,1,1,0,8,8,8,,,,,,,,,,,,,,,,,,,,,,,,,,,,,,,,,,,,,,,,,,,1.715,288.6698336,None,290.3866543,None,space,1,290.3866543,None,290.7864353,None,0.39003,,,,,,,,,,,,,,,,,,,,,,,,,,,,,,,P011,fencog,2,Pre,2021_Sep_07_1141,N-Back (New Version 2021),2021.1.4,119.952115
Conditions/Version_2Pr/oneback(1)_v2.xlsx,New rule: Press 'space' when you see 1-back (i.e. the same letter as the one that appeared 1 letter ago.),p,None,,,,,0,1,1,1,0,9,9,9,,,,,,,,,,,,,,,,,,,,,,,,,,,,,,,,,,,,,,,,,,,1.365,292.2936938,None,293.6620539,None,None,1,293.6620539,None,295.6677431,None,,,,,,,,,,,,,,,,,,,,,,,,,,,,,,,,P011,fencog,2,Pre,2021_Sep_07_1141,N-Back (New Version 2021),2021.1.4,119.952115
Conditions/Version_2Pr/oneback(1)_v2.xlsx,New rule: Press 'space' when you see 1-back (i.e. the same letter as the one that appeared 1 letter ago.),,,,,,,0,1,1,1,,,,,,,,,,,,,,,,,,,,,,,,,,,,,,,,,,,,,,,,,,,,,,,,,,,,,,,,,,,,,,,,,,,,,,,,,,,,,,,,,,,,,,,,,P011,fencog,2,Pre,2021_Sep_07_1141,N-Back (New Version 2021),2021.1.4,119.952115
Conditions/Version_2Pr/twoback(1)_v2.xlsx,New rule: Press 'space' when you see 2-back (i.e. the same letter as the one that appeared 2 letters ago.),r,None,,,,,0,2,2,2,0,0,0,0,,,,,,,,,,,,,,,,,,,,,,,,,,,,,,,,,297.196615,None,300.1856365,None,space,1.2310877,300.1856365,None,297.196615,None,1.29,301.4393974,None,302.7399266,None,None,1,302.7399266,None,304.7417338,None,,,,,,,,,,,,,,,,,,,,,,,,,,,,,,,,P011,fencog,2,Pre,2021_Sep_07_1141,N-Back (New Version 2021),2021.1.4,119.952115
Conditions/Version_2Pr/twoback(1)_v2.xlsx,New rule: Press 'space' when you see 2-back (i.e. the same letter as the one that appeared 2 letters ago.),P,None,,,,,0,2,2,2,0,1,1,1,,,,,,,,,,,,,,,,,,,,,,,,,,,,,,,,,,,,,,,,,,,2.015,306.2396891,None,308.2596399,None,None,1,308.2596399,None,310.2577333,None,,,,,,,,,,,,,,,,,,,,,,,,,,,,,,,,P011,fencog,2,Pre,2021_Sep_07_1141,N-Back (New Version 2021),2021.1.4,119.952115
Conditions/Version_2Pr/twoback(1)_v2.xlsx,New rule: Press 'space' when you see 2-back (i.e. the same letter as the one that appeared 2 letters ago.),o,None,,,,,0,2,2,2,0,2,2,2,,,,,,,,,,,,,,,,,,,,,,,,,,,,,,,,,,,,,,,,,,,1.34,311.7631368,None,313.105549,None,None,1,313.105549,None,315.1121707,None,,,,,,,,,,,,,,,,,,,,,,,,,,,,,,,,P011,fencog,2,Pre,2021_Sep_07_1141,N-Back (New Version 2021),2021.1.4,119.952115
Conditions/Version_2Pr/twoback(1)_v2.xlsx,New rule: Press 'space' when you see 2-back (i.e. the same letter as the one that appeared 2 letters ago.),p,space,,,,,0,2,2,2,0,3,3,3,,,,,,,,,,,,,,,,,,,,,,,,,,,,,,,,,,,,,,,,,,,1.89,316.6116183,None,318.5026899,None,space,1,318.5026899,None,319.013289,None,0.4982984,,,,,,,,,,,,,,,,,,,,,,,,,,,,,,,P011,fencog,2,Pre,2021_Sep_07_1141,N-Back (New Version 2021),2021.1.4,119.952115
Conditions/Version_2Pr/twoback(1)_v2.xlsx,New rule: Press 'space' when you see 2-back (i.e. the same letter as the one that appeared 2 letters ago.),Y,None,,,,,0,2,2,2,0,4,4,4,,,,,,,,,,,,,,,,,,,,,,,,,,,,,,,,,,,,,,,,,,,1.44,320.5187841,None,321.9617691,None,None,1,321.9617691,None,323.9677043,None,,,,,,,,,,,,,,,,,,,,,,,,,,,,,,,,P011,fencog,2,Pre,2021_Sep_07_1141,N-Back (New Version 2021),2021.1.4,119.952115
Conditions/Version_2Pr/twoback(1)_v2.xlsx,New rule: Press 'space' when you see 2-back (i.e. the same letter as the one that appeared 2 letters ago.),q,None,,,,,0,2,2,2,0,5,5,5,,,,,,,,,,,,,,,,,,,,,,,,,,,,,,,,,,,,,,,,,,,1.815,325.4683862,None,327.286104,None,None,1,327.286104,None,329.2911354,None,,,,,,,,,,,,,,,,,,,,,,,,,,,,,,,,P011,fencog,2,Pre,2021_Sep_07_1141,N-Back (New Version 2021),2021.1.4,119.952115
Conditions/Version_2Pr/twoback(1)_v2.xlsx,New rule: Press 'space' when you see 2-back (i.e. the same letter as the one that appeared 2 letters ago.),m,None,,,,,0,2,2,2,0,6,6,6,,,,,,,,,,,,,,,,,,,,,,,,,,,,,,,,,,,,,,,,,,,1.74,330.7907967,None,332.5391996,None,None,1,332.5391996,None,334.5397344,None,,,,,,,,,,,,,,,,,,,,,,,,,,,,,,,,P011,fencog,2,Pre,2021_Sep_07_1141,N-Back (New Version 2021),2021.1.4,119.952115
Conditions/Version_2Pr/twoback(1)_v2.xlsx,New rule: Press 'space' when you see 2-back (i.e. the same letter as the one that appeared 2 letters ago.),Q,space,,,,,0,2,2,2,0,7,7,7,,,,,,,,,,,,,,,,,,,,,,,,,,,,,,,,,,,,,,,,,,,1.415,336.0391667,None,337.462665,None,space,1,337.462665,None,337.8286649,None,0.3464043,,,,,,,,,,,,,,,,,,,,,,,,,,,,,,,P011,fencog,2,Pre,2021_Sep_07_1141,N-Back (New Version 2021),2021.1.4,119.952115
Conditions/Version_2Pr/twoback(1)_v2.xlsx,New rule: Press 'space' when you see 2-back (i.e. the same letter as the one that appeared 2 letters ago.),L,None,,,,,0,2,2,2,0,8,8,8,,,,,,,,,,,,,,,,,,,,,,,,,,,,,,,,,,,,,,,,,,,1.64,339.3297904,None,340.9746442,None,None,1,340.9746442,None,342.9737136,None,,,,,,,,,,,,,,,,,,,,,,,,,,,,,,,,P011,fencog,2,Pre,2021_Sep_07_1141,N-Back (New Version 2021),2021.1.4,119.952115
Conditions/Version_2Pr/twoback(1)_v2.xlsx,New rule: Press 'space' when you see 2-back (i.e. the same letter as the one that appeared 2 letters ago.),q,space,,,,,0,2,2,2,0,9,9,9,,,,,,,,,,,,,,,,,,,,,,,,,,,,,,,,,,,,,,,,,,,1.09,344.47799,None,345.5706644,None,space,1,345.5706644,None,346.0264764,None,0.4464431,,,,,,,,,,,,,,,,,,,,,,,,,,,,,,,P011,fencog,2,Pre,2021_Sep_07_1141,N-Back (New Version 2021),2021.1.4,119.952115
Conditions/Version_2Pr/twoback(1)_v2.xlsx,New rule: Press 'space' when you see 2-back (i.e. the same letter as the one that appeared 2 letters ago.),,,,,,,0,2,2,2,,,,,,,,,,,,,,,,,,,,,,,,,,,,,,,,,,,,,,,,,,,,,,,,,,,,,,,,,,,,,,,,,,,,,,,,,,,,,,,,,,,,,,,,,P011,fencog,2,Pre,2021_Sep_07_1141,N-Back (New Version 2021),2021.1.4,119.952115
Conditions/Version_2Pr/threeback(1)_v2.xlsx,New rule: Press 'space' when you see 3-back (i.e. the same letter as the one that appeared 3 letters ago.),u,None,,,,,0,3,3,3,0,0,0,0,,,,,,,,,,,,,,,,,,,,,,,,,,,,,,,,,347.5522954,None,350.5350392,None,space,0.281715,350.5350392,None,347.5522954,None,2.015,350.8350295,None,352.8542405,None,None,1,352.8542405,None,354.8640303,None,,,,,,,,,,,,,,,,,,,,,,,,,,,,,,,,P011,fencog,2,Pre,2021_Sep_07_1141,N-Back (New Version 2021),2021.1.4,119.952115
Conditions/Version_2Pr/threeback(1)_v2.xlsx,New rule: Press 'space' when you see 3-back (i.e. the same letter as the one that appeared 3 letters ago.),U,None,,,,,0,3,3,3,0,1,1,1,,,,,,,,,,,,,,,,,,,,,,,,,,,,,,,,,,,,,,,,,,,1.615,356.3582641,None,357.9748282,None,space,0,357.9748282,None,358.7855634,None,0.7940702,,,,,,,,,,,,,,,,,,,,,,,,,,,,,,,P011,fencog,2,Pre,2021_Sep_07_1141,N-Back (New Version 2021),2021.1.4,119.952115
Conditions/Version_2Pr/threeback(1)_v2.xlsx,New rule: Press 'space' when you see 3-back (i.e. the same letter as the one that appeared 3 letters ago.),p,None,,,,,0,3,3,3,0,2,2,2,,,,,,,,,,,,,,,,,,,,,,,,,,,,,,,,,,,,,,,,,,,1.74,360.2904399,None,362.0326794,None,None,1,362.0326794,None,364.0358859,None,,,,,,,,,,,,,,,,,,,,,,,,,,,,,,,,P011,fencog,2,Pre,2021_Sep_07_1141,N-Back (New Version 2021),2021.1.4,119.952115
Conditions/Version_2Pr/threeback(1)_v2.xlsx,New rule: Press 'space' when you see 3-back (i.e. the same letter as the one that appeared 3 letters ago.),U,space,,,,,0,3,3,3,0,3,3,3,,,,,,,,,,,,,,,,,,,,,,,,,,,,,,,,,,,,,,,,,,,1.365,365.5388301,None,366.9052679,None,space,1,366.9052679,None,368.8549379,None,1.9353301,,,,,,,,,,,,,,,,,,,,,,,,,,,,,,,P011,fencog,2,Pre,2021_Sep_07_1141,N-Back (New Version 2021),2021.1.4,119.952115
Conditions/Version_2Pr/threeback(1)_v2.xlsx,New rule: Press 'space' when you see 3-back (i.e. the same letter as the one that appeared 3 letters ago.),e,None,,,,,0,3,3,3,0,4,4,4,,,,,,,,,,,,,,,,,,,,,,,,,,,,,,,,,,,,,,,,,,,1.19,370.3540141,None,371.5473503,None,None,1,371.5473503,None,373.5532031,None,,,,,,,,,,,,,,,,,,,,,,,,,,,,,,,,P011,fencog,2,Pre,2021_Sep_07_1141,N-Back (New Version 2021),2021.1.4,119.952115
Conditions/Version_2Pr/threeback(1)_v2.xlsx,New rule: Press 'space' when you see 3-back (i.e. the same letter as the one that appeared 3 letters ago.),R,None,,,,,0,3,3,3,0,5,5,5,,,,,,,,,,,,,,,,,,,,,,,,,,,,,,,,,,,,,,,,,,,1.49,375.054028,None,376.5448252,None,None,1,376.5448252,None,378.55175,None,,,,,,,,,,,,,,,,,,,,,,,,,,,,,,,,P011,fencog,2,Pre,2021_Sep_07_1141,N-Back (New Version 2021),2021.1.4,119.952115
Conditions/Version_2Pr/threeback(1)_v2.xlsx,New rule: Press 'space' when you see 3-back (i.e. the same letter as the one that appeared 3 letters ago.),p,None,,,,,0,3,3,3,0,6,6,6,,,,,,,,,,,,,,,,,,,,,,,,,,,,,,,,,,,,,,,,,,,1.165,380.0518289,None,381.2185437,None,None,1,381.2185437,None,383.2253725,None,,,,,,,,,,,,,,,,,,,,,,,,,,,,,,,,P011,fencog,2,Pre,2021_Sep_07_1141,N-Back (New Version 2021),2021.1.4,119.952115
Conditions/Version_2Pr/threeback(1)_v2.xlsx,New rule: Press 'space' when you see 3-back (i.e. the same letter as the one that appeared 3 letters ago.),E,space,,,,,0,3,3,3,0,7,7,7,,,,,,,,,,,,,,,,,,,,,,,,,,,,,,,,,,,,,,,,,,,1.09,384.7249753,None,385.8203111,None,space,1,385.8203111,None,386.7338547,None,0.9005738,,,,,,,,,,,,,,,,,,,,,,,,,,,,,,,P011,fencog,2,Pre,2021_Sep_07_1141,N-Back (New Version 2021),2021.1.4,119.952115
Conditions/Version_2Pr/threeback(1)_v2.xlsx,New rule: Press 'space' when you see 3-back (i.e. the same letter as the one that appeared 3 letters ago.),k,None,,,,,0,3,3,3,0,8,8,8,,,,,,,,,,,,,,,,,,,,,,,,,,,,,,,,,,,,,,,,,,,1.29,388.2403123,None,389.5360658,None,None,1,389.5360658,None,391.5394606,None,,,,,,,,,,,,,,,,,,,,,,,,,,,,,,,,P011,fencog,2,Pre,2021_Sep_07_1141,N-Back (New Version 2021),2021.1.4,119.952115
Conditions/Version_2Pr/threeback(1)_v2.xlsx,New rule: Press 'space' when you see 3-back (i.e. the same letter as the one that appeared 3 letters ago.),m,None,,,,,0,3,3,3,0,9,9,9,,,,,,,,,,,,,,,,,,,,,,,,,,,,,,,,,,,,,,,,,,,1.84,393.0391065,None,394.8822614,None,None,1,394.8822614,None,396.8880344,None,,,,,,,,,,,,,,,,,,,,,,,,,,,,,,,,P011,fencog,2,Pre,2021_Sep_07_1141,N-Back (New Version 2021),2021.1.4,119.952115
Conditions/Version_2Pr/threeback(1)_v2.xlsx,New rule: Press 'space' when you see 3-back (i.e. the same letter as the one that appeared 3 letters ago.),,,,,,,0,3,3,3,,,,,,,,,,,,,,,,,,,,,,,,,,,,,,,,,,,,,,,,,,,,,,,,,,,,,,,,,,,,,,,,,,,,,,,,,,,,,,,,,,,,,,,,,P011,fencog,2,Pre,2021_Sep_07_1141,N-Back (New Version 2021),2021.1.4,119.952115
,,,,,,,,,,,,,,,,,,,,,,,,,,,,,,,,,,,,,,,,,,,,,,,,,,,,,,,,,,,,,,,,,,,,,,398.3941076,None,space,1.0893158,398.887713,None,,,,,,,,,,,,,,,,,,,,,,,,,P011,fencog,2,Pre,2021_Sep_07_1141,N-Back (New Version 2021),2021.1.4,119.952115
,,,,,,,,,,,,,,,,,,,,,,,,,,,,,,,,,,,,,,,,,,,,,,,,,,,,,,,,,,,,,,,,,,,,,,,,,,,,399.9991966,None,space,2.7216442,400.4957734,None,,,,,,,,,,,,,,,,,,,P011,fencog,2,Pre,2021_Sep_07_1141,N-Back (New Version 2021),2021.1.4,119.952115
,,,,Conditions/Version_1/zeroback(1)_v1.xlsx,Rule: Press 'space' when you see the letter 'x' or 'X'.,b,None,,,,,,,,,0,0,0,0,0,0,0,0,,,,,,,,,,,,,,,,,,,,,,,,,,,,,,,,,,,,,,,,,,,,,,,,,,,,,,,,,,,403.3310085,None,406.3201251,None,space,0.1367719,406.3201251,None,403.3310085,None,1.6548,408.1398155,None,None,1,408.1398155,None,,P011,fencog,2,Pre,2021_Sep_07_1141,N-Back (New Version 2021),2021.1.4,119.952115
,,,,Conditions/Version_1/zeroback(1)_v1.xlsx,Rule: Press 'space' when you see the letter 'x' or 'X'.,T,None,,,,,,,,,0,0,0,0,0,1,1,1,,,,,,,,,,,,,,,,,,,,,,,,,,,,,,,,,,,,,,,,,,,,,,,,,,,,,,,,,,,,,,,,,,,,,1.5494,411.6920705,None,None,1,411.6920705,None,,P011,fencog,2,Pre,2021_Sep_07_1141,N-Back (New Version 2021),2021.1.4,119.952115
,,,,Conditions/Version_1/zeroback(1)_v1.xlsx,Rule: Press 'space' when you see the letter 'x' or 'X'.,L,None,,,,,,,,,0,0,0,0,0,2,2,2,,,,,,,,,,,,,,,,,,,,,,,,,,,,,,,,,,,,,,,,,,,,,,,,,,,,,,,,,,,,,,,,,,,,,1.568,415.2671275,None,None,1,415.2671275,None,,P011,fencog,2,Pre,2021_Sep_07_1141,N-Back (New Version 2021),2021.1.4,119.952115
,,,,Conditions/Version_1/zeroback(1)_v1.xlsx,Rule: Press 'space' when you see the letter 'x' or 'X'.,x,space,,,,,,,,,0,0,0,0,0,3,3,3,,,,,,,,,,,,,,,,,,,,,,,,,,,,,,,,,,,,,,,,,,,,,,,,,,,,,,,,,,,,,,,,,,,,,1.3882,418.6573272,None,space,1,418.6573272,None,1.6555927,P011,fencog,2,Pre,2021_Sep_07_1141,N-Back (New Version 2021),2021.1.4,119.952115
,,,,Conditions/Version_1/zeroback(1)_v1.xlsx,Rule: Press 'space' when you see the letter 'x' or 'X'.,o,None,,,,,,,,,0,0,0,0,0,4,4,4,,,,,,,,,,,,,,,,,,,,,,,,,,,,,,,,,,,,,,,,,,,,,,,,,,,,,,,,,,,,,,,,,,,,,1.4192,422.0889028,None,None,1,422.0889028,None,,P011,fencog,2,Pre,2021_Sep_07_1141,N-Back (New Version 2021),2021.1.4,119.952115
,,,,Conditions/Version_1/zeroback(1)_v1.xlsx,Rule: Press 'space' when you see the letter 'x' or 'X'.,P,None,,,,,,,,,0,0,0,0,0,5,5,5,,,,,,,,,,,,,,,,,,,,,,,,,,,,,,,,,,,,,,,,,,,,,,,,,,,,,,,,,,,,,,,,,,,,,1.7354,425.8305253,None,None,1,425.8305253,None,,P011,fencog,2,Pre,2021_Sep_07_1141,N-Back (New Version 2021),2021.1.4,119.952115
,,,,Conditions/Version_1/zeroback(1)_v1.xlsx,Rule: Press 'space' when you see the letter 'x' or 'X'.,X,space,,,,,,,,,0,0,0,0,0,6,6,6,,,,,,,,,,,,,,,,,,,,,,,,,,,,,,,,,,,,,,,,,,,,,,,,,,,,,,,,,,,,,,,,,,,,,1.1836,429.0209539,None,space,1,429.0209539,None,0.4597588,P011,fencog,2,Pre,2021_Sep_07_1141,N-Back (New Version 2021),2021.1.4,119.952115
,,,,Conditions/Version_1/zeroback(1)_v1.xlsx,Rule: Press 'space' when you see the letter 'x' or 'X'.,n,None,,,,,,,,,0,0,0,0,0,7,7,7,,,,,,,,,,,,,,,,,,,,,,,,,,,,,,,,,,,,,,,,,,,,,,,,,,,,,,,,,,,,,,,,,,,,,1.4502,432.4803457,None,None,1,432.4803457,None,,P011,fencog,2,Pre,2021_Sep_07_1141,N-Back (New Version 2021),2021.1.4,119.952115
,,,,Conditions/Version_1/zeroback(1)_v1.xlsx,Rule: Press 'space' when you see the letter 'x' or 'X'.,M,None,,,,,,,,,0,0,0,0,0,8,8,8,,,,,,,,,,,,,,,,,,,,,,,,,,,,,,,,,,,,,,,,,,,,,,,,,,,,,,,,,,,,,,,,,,,,,1.4998,435.9991567,None,None,1,435.9991567,None,,P011,fencog,2,Pre,2021_Sep_07_1141,N-Back (New Version 2021),2021.1.4,119.952115
,,,,Conditions/Version_1/zeroback(1)_v1.xlsx,Rule: Press 'space' when you see the letter 'x' or 'X'.,a,None,,,,,,,,,0,0,0,0,0,9,9,9,,,,,,,,,,,,,,,,,,,,,,,,,,,,,,,,,,,,,,,,,,,,,,,,,,,,,,,,,,,,,,,,,,,,,1.4688,439.4781321,None,None,1,439.4781321,None,,P011,fencog,2,Pre,2021_Sep_07_1141,N-Back (New Version 2021),2021.1.4,119.952115
,,,,Conditions/Version_1/zeroback(1)_v1.xlsx,Rule: Press 'space' when you see the letter 'x' or 'X'.,,,,,,,,,,,0,0,0,0,,,,,,,,,,,,,,,,,,,,,,,,,,,,,,,,,,,,,,,,,,,,,,,,,,,,,,,,,,,,,,,,,,,,,,,,,,,,,,,,,P011,fencog,2,Pre,2021_Sep_07_1141,N-Back (New Version 2021),2021.1.4,119.952115
,,,,Conditions/Version_1/oneback(1)_v1.xlsx,New rule: Press 'space' when you see 1-back (i.e. the same letter as the one that appeared 1 letter ago.),b,None,,,,,,,,,0,1,1,1,0,0,0,0,,,,,,,,,,,,,,,,,,,,,,,,,,,,,,,,,,,,,,,,,,,,,,,,,,,,,,,,,,,441.5055619,None,444.4923204,None,space,4.9886231,444.4923204,None,441.5055619,None,1.3076,450.8227845,None,None,1,450.8227845,None,,P011,fencog,2,Pre,2021_Sep_07_1141,N-Back (New Version 2021),2021.1.4,119.952115
,,,,Conditions/Version_1/oneback(1)_v1.xlsx,New rule: Press 'space' when you see 1-back (i.e. the same letter as the one that appeared 1 letter ago.),p,None,,,,,,,,,0,1,1,1,0,1,1,1,,,,,,,,,,,,,,,,,,,,,,,,,,,,,,,,,,,,,,,,,,,,,,,,,,,,,,,,,,,,,,,,,,,,,1.5928,454.4309979,None,None,1,454.4309979,None,,P011,fencog,2,Pre,2021_Sep_07_1141,N-Back (New Version 2021),2021.1.4,119.952115
,,,,Conditions/Version_1/oneback(1)_v1.xlsx,New rule: Press 'space' when you see 1-back (i.e. the same letter as the one that appeared 1 letter ago.),M,None,,,,,,,,,0,1,1,1,0,2,2,2,,,,,,,,,,,,,,,,,,,,,,,,,,,,,,,,,,,,,,,,,,,,,,,,,,,,,,,,,,,,,,,,,,,,,1.9958,458.4373548,None,None,1,458.4373548,None,,P011,fencog,2,Pre,2021_Sep_07_1141,N-Back (New Version 2021),2021.1.4,119.952115
,,,,Conditions/Version_1/oneback(1)_v1.xlsx,New rule: Press 'space' when you see 1-back (i.e. the same letter as the one that appeared 1 letter ago.),M,space,,,,,,,,,0,1,1,1,0,3,3,3,,,,,,,,,,,,,,,,,,,,,,,,,,,,,,,,,,,,,,,,,,,,,,,,,,,,,,,,,,,,,,,,,,,,,1.413,461.8623499,None,space,1,461.8623499,None,0.5144497,P011,fencog,2,Pre,2021_Sep_07_1141,N-Back (New Version 2021),2021.1.4,119.952115
,,,,Conditions/Version_1/oneback(1)_v1.xlsx,New rule: Press 'space' when you see 1-back (i.e. the same letter as the one that appeared 1 letter ago.),n,None,,,,,,,,,0,1,1,1,0,4,4,4,,,,,,,,,,,,,,,,,,,,,,,,,,,,,,,,,,,,,,,,,,,,,,,,,,,,,,,,,,,,,,,,,,,,,1.3758,465.2439266,None,None,1,465.2439266,None,,P011,fencog,2,Pre,2021_Sep_07_1141,N-Back (New Version 2021),2021.1.4,119.952115
,,,,Conditions/Version_1/oneback(1)_v1.xlsx,New rule: Press 'space' when you see 1-back (i.e. the same letter as the one that appeared 1 letter ago.),g,None,,,,,,,,,0,1,1,1,0,5,5,5,,,,,,,,,,,,,,,,,,,,,,,,,,,,,,,,,,,,,,,,,,,,,,,,,,,,,,,,,,,,,,,,,,,,,1.1526,468.4114513,None,None,1,468.4114513,None,,P011,fencog,2,Pre,2021_Sep_07_1141,N-Back (New Version 2021),2021.1.4,119.952115
,,,,Conditions/Version_1/oneback(1)_v1.xlsx,New rule: Press 'space' when you see 1-back (i.e. the same letter as the one that appeared 1 letter ago.),P,None,,,,,,,,,0,1,1,1,0,6,6,6,,,,,,,,,,,,,,,,,,,,,,,,,,,,,,,,,,,,,,,,,,,,,,,,,,,,,,,,,,,,,,,,,,,,,1.6052,472.0261124,None,None,1,472.0261124,None,,P011,fencog,2,Pre,2021_Sep_07_1141,N-Back (New Version 2021),2021.1.4,119.952115
,,,,Conditions/Version_1/oneback(1)_v1.xlsx,New rule: Press 'space' when you see 1-back (i.e. the same letter as the one that appeared 1 letter ago.),o,None,,,,,,,,,0,1,1,1,0,7,7,7,,,,,,,,,,,,,,,,,,,,,,,,,,,,,,,,,,,,,,,,,,,,,,,,,,,,,,,,,,,,,,,,,,,,,1.4254,475.4645858,None,None,1,475.4645858,None,,P011,fencog,2,Pre,2021_Sep_07_1141,N-Back (New Version 2021),2021.1.4,119.952115
,,,,Conditions/Version_1/oneback(1)_v1.xlsx,New rule: Press 'space' when you see 1-back (i.e. the same letter as the one that appeared 1 letter ago.),f,None,,,,,,,,,0,1,1,1,0,8,8,8,,,,,,,,,,,,,,,,,,,,,,,,,,,,,,,,,,,,,,,,,,,,,,,,,,,,,,,,,,,,,,,,,,,,,1.5246,478.9918235,None,None,1,478.9918235,None,,P011,fencog,2,Pre,2021_Sep_07_1141,N-Back (New Version 2021),2021.1.4,119.952115
,,,,Conditions/Version_1/oneback(1)_v1.xlsx,New rule: Press 'space' when you see 1-back (i.e. the same letter as the one that appeared 1 letter ago.),F,space,,,,,,,,,0,1,1,1,0,9,9,9,,,,,,,,,,,,,,,,,,,,,,,,,,,,,,,,,,,,,,,,,,,,,,,,,,,,,,,,,,,,,,,,,,,,,1.506,482.5046441,None,space,1,482.5046441,None,0.3520282,P011,fencog,2,Pre,2021_Sep_07_1141,N-Back (New Version 2021),2021.1.4,119.952115
,,,,Conditions/Version_1/oneback(1)_v1.xlsx,New rule: Press 'space' when you see 1-back (i.e. the same letter as the one that appeared 1 letter ago.),,,,,,,,,,,0,1,1,1,,,,,,,,,,,,,,,,,,,,,,,,,,,,,,,,,,,,,,,,,,,,,,,,,,,,,,,,,,,,,,,,,,,,,,,,,,,,,,,,,P011,fencog,2,Pre,2021_Sep_07_1141,N-Back (New Version 2021),2021.1.4,119.952115
,,,,Conditions/Version_1/twoback(1)_v1.xlsx,New rule: Press 'space' when you see 2-back (i.e. the same letter as the one that appeared 2 letters ago.),b,None,,,,,,,,,0,2,2,2,0,0,0,0,,,,,,,,,,,,,,,,,,,,,,,,,,,,,,,,,,,,,,,,,,,,,,,,,,,,,,,,,,,484.526148,None,487.513657,None,space,0.9670313,487.513657,None,484.526148,None,1.3944,489.8937615,None,None,1,489.8937615,None,,P011,fencog,2,Pre,2021_Sep_07_1141,N-Back (New Version 2021),2021.1.4,119.952115
,,,,Conditions/Version_1/twoback(1)_v1.xlsx,New rule: Press 'space' when you see 2-back (i.e. the same letter as the one that appeared 2 letters ago.),h,None,,,,,,,,,0,2,2,2,0,1,1,1,,,,,,,,,,,,,,,,,,,,,,,,,,,,,,,,,,,,,,,,,,,,,,,,,,,,,,,,,,,,,,,,,,,,,1.9958,493.8986283,None,None,1,493.8986283,None,,P011,fencog,2,Pre,2021_Sep_07_1141,N-Back (New Version 2021),2021.1.4,119.952115
,,,,Conditions/Version_1/twoback(1)_v1.xlsx,New rule: Press 'space' when you see 2-back (i.e. the same letter as the one that appeared 2 letters ago.),j,None,,,,,,,,,0,2,2,2,0,2,2,2,,,,,,,,,,,,,,,,,,,,,,,,,,,,,,,,,,,,,,,,,,,,,,,,,,,,,,,,,,,,,,,,,,,,,1.0348,496.9468697,None,None,1,496.9468697,None,,P011,fencog,2,Pre,2021_Sep_07_1141,N-Back (New Version 2021),2021.1.4,119.952115
,,,,Conditions/Version_1/twoback(1)_v1.xlsx,New rule: Press 'space' when you see 2-back (i.e. the same letter as the one that appeared 2 letters ago.),H,space,,,,,,,,,0,2,2,2,0,3,3,3,,,,,,,,,,,,,,,,,,,,,,,,,,,,,,,,,,,,,,,,,,,,,,,,,,,,,,,,,,,,,,,,,,,,,1.5494,500.5006285,None,space,1,500.5006285,None,0.6121237,P011,fencog,2,Pre,2021_Sep_07_1141,N-Back (New Version 2021),2021.1.4,119.952115
,,,,Conditions/Version_1/twoback(1)_v1.xlsx,New rule: Press 'space' when you see 2-back (i.e. the same letter as the one that appeared 2 letters ago.),p,None,,,,,,,,,0,2,2,2,0,4,4,4,,,,,,,,,,,,,,,,,,,,,,,,,,,,,,,,,,,,,,,,,,,,,,,,,,,,,,,,,,,,,,,,,,,,,1.2332,503.7395737,None,None,1,503.7395737,None,,P011,fencog,2,Pre,2021_Sep_07_1141,N-Back (New Version 2021),2021.1.4,119.952115
,,,,Conditions/Version_1/twoback(1)_v1.xlsx,New rule: Press 'space' when you see 2-back (i.e. the same letter as the one that appeared 2 letters ago.),p,None,,,,,,,,,0,2,2,2,0,5,5,5,,,,,,,,,,,,,,,,,,,,,,,,,,,,,,,,,,,,,,,,,,,,,,,,,,,,,,,,,,,,,,,,,,,,,1.7416,507.4801915,None,None,1,507.4801915,None,,P011,fencog,2,Pre,2021_Sep_07_1141,N-Back (New Version 2021),2021.1.4,119.952115
,,,,Conditions/Version_1/twoback(1)_v1.xlsx,New rule: Press 'space' when you see 2-back (i.e. the same letter as the one that appeared 2 letters ago.),w,None,,,,,,,,,0,2,2,2,0,6,6,6,,,,,,,,,,,,,,,,,,,,,,,,,,,,,,,,,,,,,,,,,,,,,,,,,,,,,,,,,,,,,,,,,,,,,1.5742,511.0556813,None,None,1,511.0556813,None,,P011,fencog,2,Pre,2021_Sep_07_1141,N-Back (New Version 2021),2021.1.4,119.952115
,,,,Conditions/Version_1/twoback(1)_v1.xlsx,New rule: Press 'space' when you see 2-back (i.e. the same letter as the one that appeared 2 letters ago.),R,None,,,,,,,,,0,2,2,2,0,7,7,7,,,,,,,,,,,,,,,,,,,,,,,,,,,,,,,,,,,,,,,,,,,,,,,,,,,,,,,,,,,,,,,,,,,,,1.2456,514.3124833,None,None,1,514.3124833,None,,P011,fencog,2,Pre,2021_Sep_07_1141,N-Back (New Version 2021),2021.1.4,119.952115
,,,,Conditions/Version_1/twoback(1)_v1.xlsx,New rule: Press 'space' when you see 2-back (i.e. the same letter as the one that appeared 2 letters ago.),a,None,,,,,,,,,0,2,2,2,0,8,8,8,,,,,,,,,,,,,,,,,,,,,,,,,,,,,,,,,,,,,,,,,,,,,,,,,,,,,,,,,,,,,,,,,,,,,1.6982,518.0199835,None,None,1,518.0199835,None,,P011,fencog,2,Pre,2021_Sep_07_1141,N-Back (New Version 2021),2021.1.4,119.952115
,,,,Conditions/Version_1/twoback(1)_v1.xlsx,New rule: Press 'space' when you see 2-back (i.e. the same letter as the one that appeared 2 letters ago.),r,space,,,,,,,,,0,2,2,2,0,9,9,9,,,,,,,,,,,,,,,,,,,,,,,,,,,,,,,,,,,,,,,,,,,,,,,,,,,,,,,,,,,,,,,,,,,,,1.3262,521.3604915,None,space,1,521.3604915,None,0.4242714,P011,fencog,2,Pre,2021_Sep_07_1141,N-Back (New Version 2021),2021.1.4,119.952115
,,,,Conditions/Version_1/twoback(1)_v1.xlsx,New rule: Press 'space' when you see 2-back (i.e. the same letter as the one that appeared 2 letters ago.),,,,,,,,,,,0,2,2,2,,,,,,,,,,,,,,,,,,,,,,,,,,,,,,,,,,,,,,,,,,,,,,,,,,,,,,,,,,,,,,,,,,,,,,,,,,,,,,,,,P011,fencog,2,Pre,2021_Sep_07_1141,N-Back (New Version 2021),2021.1.4,119.952115
,,,,Conditions/Version_1/threeback(1)_v1.xlsx,New rule: Press 'space' when you see 3-back (i.e. the same letter as the one that appeared 3 letters ago.),r,None,,,,,,,,,0,3,3,3,0,0,0,0,,,,,,,,,,,,,,,,,,,,,,,,,,,,,,,,,,,,,,,,,,,,,,,,,,,,,,,,,,,523.3883931,None,526.3691854,None,space,7.143604,526.3691854,None,523.3883931,None,1.0224,534.5556505,None,None,1,534.5556505,None,,P011,fencog,2,Pre,2021_Sep_07_1141,N-Back (New Version 2021),2021.1.4,119.952115
,,,,Conditions/Version_1/threeback(1)_v1.xlsx,New rule: Press 'space' when you see 3-back (i.e. the same letter as the one that appeared 3 letters ago.),o,None,,,,,,,,,0,3,3,3,0,1,1,1,,,,,,,,,,,,,,,,,,,,,,,,,,,,,,,,,,,,,,,,,,,,,,,,,,,,,,,,,,,,,,,,,,,,,1.1092,537.6749759,None,None,1,537.6749759,None,,P011,fencog,2,Pre,2021_Sep_07_1141,N-Back (New Version 2021),2021.1.4,119.952115
,,,,Conditions/Version_1/threeback(1)_v1.xlsx,New rule: Press 'space' when you see 3-back (i.e. the same letter as the one that appeared 3 letters ago.),P,None,,,,,,,,,0,3,3,3,0,2,2,2,,,,,,,,,,,,,,,,,,,,,,,,,,,,,,,,,,,,,,,,,,,,,,,,,,,,,,,,,,,,,,,,,,,,,1.3324,541.0119976,None,None,1,541.0119976,None,,P011,fencog,2,Pre,2021_Sep_07_1141,N-Back (New Version 2021),2021.1.4,119.952115
,,,,Conditions/Version_1/threeback(1)_v1.xlsx,New rule: Press 'space' when you see 3-back (i.e. the same letter as the one that appeared 3 letters ago.),R,space,,,,,,,,,0,3,3,3,0,3,3,3,,,,,,,,,,,,,,,,,,,,,,,,,,,,,,,,,,,,,,,,,,,,,,,,,,,,,,,,,,,,,,,,,,,,,1.3138,544.3315205,None,space,1,544.3315205,None,0.6453449,P011,fencog,2,Pre,2021_Sep_07_1141,N-Back (New Version 2021),2021.1.4,119.952115
,,,,Conditions/Version_1/threeback(1)_v1.xlsx,New rule: Press 'space' when you see 3-back (i.e. the same letter as the one that appeared 3 letters ago.),p,None,,,,,,,,,0,3,3,3,0,4,4,4,,,,,,,,,,,,,,,,,,,,,,,,,,,,,,,,,,,,,,,,,,,,,,,,,,,,,,,,,,,,,,,,,,,,,1.8222,548.1624198,None,None,1,548.1624198,None,,P011,fencog,2,Pre,2021_Sep_07_1141,N-Back (New Version 2021),2021.1.4,119.952115
,,,,Conditions/Version_1/threeback(1)_v1.xlsx,New rule: Press 'space' when you see 3-back (i.e. the same letter as the one that appeared 3 letters ago.),E,None,,,,,,,,,0,3,3,3,0,5,5,5,,,,,,,,,,,,,,,,,,,,,,,,,,,,,,,,,,,,,,,,,,,,,,,,,,,,,,,,,,,,,,,,,,,,,1.1154,551.2860018,None,None,1,551.2860018,None,,P011,fencog,2,Pre,2021_Sep_07_1141,N-Back (New Version 2021),2021.1.4,119.952115
,,,,Conditions/Version_1/threeback(1)_v1.xlsx,New rule: Press 'space' when you see 3-back (i.e. the same letter as the one that appeared 3 letters ago.),e,None,,,,,,,,,0,3,3,3,0,6,6,6,,,,,,,,,,,,,,,,,,,,,,,,,,,,,,,,,,,,,,,,,,,,,,,,,,,,,,,,,,,,,,,,,,,,,1.3944,554.6854144,None,None,1,554.6854144,None,,P011,fencog,2,Pre,2021_Sep_07_1141,N-Back (New Version 2021),2021.1.4,119.952115
,,,,Conditions/Version_1/threeback(1)_v1.xlsx,New rule: Press 'space' when you see 3-back (i.e. the same letter as the one that appeared 3 letters ago.),m,None,,,,,,,,,0,3,3,3,0,7,7,7,,,,,,,,,,,,,,,,,,,,,,,,,,,,,,,,,,,,,,,,,,,,,,,,,,,,,,,,,,,,,,,,,,,,,1.785,558.4842759,None,None,1,558.4842759,None,,P011,fencog,2,Pre,2021_Sep_07_1141,N-Back (New Version 2021),2021.1.4,119.952115
,,,,Conditions/Version_1/threeback(1)_v1.xlsx,New rule: Press 'space' when you see 3-back (i.e. the same letter as the one that appeared 3 letters ago.),n,None,,,,,,,,,0,3,3,3,0,8,8,8,,,,,,,,,,,,,,,,,,,,,,,,,,,,,,,,,,,,,,,,,,,,,,,,,,,,,,,,,,,,,,,,,,,,,1.475,561.9652969,None,None,1,561.9652969,None,,P011,fencog,2,Pre,2021_Sep_07_1141,N-Back (New Version 2021),2021.1.4,119.952115
,,,,Conditions/Version_1/threeback(1)_v1.xlsx,New rule: Press 'space' when you see 3-back (i.e. the same letter as the one that appeared 3 letters ago.),e,space,,,,,,,,,0,3,3,3,0,9,9,9,,,,,,,,,,,,,,,,,,,,,,,,,,,,,,,,,,,,,,,,,,,,,,,,,,,,,,,,,,,,,,,,,,,,,1.8904,565.8629724,None,space,1,565.8629724,None,0.8656795,P011,fencog,2,Pre,2021_Sep_07_1141,N-Back (New Version 2021),2021.1.4,119.952115
,,,,Conditions/Version_1/threeback(1)_v1.xlsx,New rule: Press 'space' when you see 3-back (i.e. the same letter as the one that appeared 3 letters ago.),,,,,,,,,,,0,3,3,3,,,,,,,,,,,,,,,,,,,,,,,,,,,,,,,,,,,,,,,,,,,,,,,,,,,,,,,,,,,,,,,,,,,,,,,,,,,,,,,,,P011,fencog,2,Pre,2021_Sep_07_1141,N-Back (New Version 2021),2021.1.4,119.952115
,,,,Conditions/Version_1/oneback(2)_v1.xlsx,New rule: Press 'space' when you see 1-back (i.e. the same letter as the one that appeared 1 letter ago.),q,None,,,,,,,,,0,4,4,4,0,0,0,0,,,,,,,,,,,,,,,,,,,,,,,,,,,,,,,,,,,,,,,,,,,,,,,,,,,,,,,,,,,567.88483,None,570.873131,None,space,0.5677662,570.873131,None,567.88483,None,1.227,572.6943626,None,None,1,572.6943626,None,,P011,fencog,2,Pre,2021_Sep_07_1141,N-Back (New Version 2021),2021.1.4,119.952115
,,,,Conditions/Version_1/oneback(2)_v1.xlsx,New rule: Press 'space' when you see 1-back (i.e. the same letter as the one that appeared 1 letter ago.),Q,space,,,,,,,,,0,4,4,4,0,1,1,1,,,,,,,,,,,,,,,,,,,,,,,,,,,,,,,,,,,,,,,,,,,,,,,,,,,,,,,,,,,,,,,,,,,,,1.94,576.636975,None,space,1,576.636975,None,1.0757801,P011,fencog,2,Pre,2021_Sep_07_1141,N-Back (New Version 2021),2021.1.4,119.952115
,,,,Conditions/Version_1/oneback(2)_v1.xlsx,New rule: Press 'space' when you see 1-back (i.e. the same letter as the one that appeared 1 letter ago.),P,None,,,,,,,,,0,4,4,4,0,2,2,2,,,,,,,,,,,,,,,,,,,,,,,,,,,,,,,,,,,,,,,,,,,,,,,,,,,,,,,,,,,,,,,,,,,,,1.4936,580.1477202,None,None,1,580.1477202,None,,P011,fencog,2,Pre,2021_Sep_07_1141,N-Back (New Version 2021),2021.1.4,119.952115
,,,,Conditions/Version_1/oneback(2)_v1.xlsx,New rule: Press 'space' when you see 1-back (i.e. the same letter as the one that appeared 1 letter ago.),o,None,,,,,,,,,0,4,4,4,0,3,3,3,,,,,,,,,,,,,,,,,,,,,,,,,,,,,,,,,,,,,,,,,,,,,,,,,,,,,,,,,,,,,,,,,,,,,1.0472,583.1994679,None,None,1,583.1994679,None,,P011,fencog,2,Pre,2021_Sep_07_1141,N-Back (New Version 2021),2021.1.4,119.952115
,,,,Conditions/Version_1/oneback(2)_v1.xlsx,New rule: Press 'space' when you see 1-back (i.e. the same letter as the one that appeared 1 letter ago.),m,None,,,,,,,,,0,4,4,4,0,4,4,4,,,,,,,,,,,,,,,,,,,,,,,,,,,,,,,,,,,,,,,,,,,,,,,,,,,,,,,,,,,,,,,,,,,,,1.4564,586.6568842,None,None,1,586.6568842,None,,P011,fencog,2,Pre,2021_Sep_07_1141,N-Back (New Version 2021),2021.1.4,119.952115
,,,,Conditions/Version_1/oneback(2)_v1.xlsx,New rule: Press 'space' when you see 1-back (i.e. the same letter as the one that appeared 1 letter ago.),Z,None,,,,,,,,,0,4,4,4,0,5,5,5,,,,,,,,,,,,,,,,,,,,,,,,,,,,,,,,,,,,,,,,,,,,,,,,,,,,,,,,,,,,,,,,,,,,,1.1154,589.7756061,None,None,1,589.7756061,None,,P011,fencog,2,Pre,2021_Sep_07_1141,N-Back (New Version 2021),2021.1.4,119.952115
,,,,Conditions/Version_1/oneback(2)_v1.xlsx,New rule: Press 'space' when you see 1-back (i.e. the same letter as the one that appeared 1 letter ago.),c,None,,,,,,,,,0,4,4,4,0,6,6,6,,,,,,,,,,,,,,,,,,,,,,,,,,,,,,,,,,,,,,,,,,,,,,,,,,,,,,,,,,,,,,,,,,,,,1.5308,593.3162769,None,None,1,593.3162769,None,,P011,fencog,2,Pre,2021_Sep_07_1141,N-Back (New Version 2021),2021.1.4,119.952115
,,,,Conditions/Version_1/oneback(2)_v1.xlsx,New rule: Press 'space' when you see 1-back (i.e. the same letter as the one that appeared 1 letter ago.),c,space,,,,,,,,,0,4,4,4,0,7,7,7,,,,,,,,,,,,,,,,,,,,,,,,,,,,,,,,,,,,,,,,,,,,,,,,,,,,,,,,,,,,,,,,,,,,,1.7664,597.0872904,None,space,1,597.0872904,None,0.4425377,P011,fencog,2,Pre,2021_Sep_07_1141,N-Back (New Version 2021),2021.1.4,119.952115
,,,,Conditions/Version_1/oneback(2)_v1.xlsx,New rule: Press 'space' when you see 1-back (i.e. the same letter as the one that appeared 1 letter ago.),P,None,,,,,,,,,0,4,4,4,0,8,8,8,,,,,,,,,,,,,,,,,,,,,,,,,,,,,,,,,,,,,,,,,,,,,,,,,,,,,,,,,,,,,,,,,,,,,1.506,600.5967511,None,None,1,600.5967511,None,,P011,fencog,2,Pre,2021_Sep_07_1141,N-Back (New Version 2021),2021.1.4,119.952115
,,,,Conditions/Version_1/oneback(2)_v1.xlsx,New rule: Press 'space' when you see 1-back (i.e. the same letter as the one that appeared 1 letter ago.),p,space,,,,,,,,,0,4,4,4,0,9,9,9,,,,,,,,,,,,,,,,,,,,,,,,,,,,,,,,,,,,,,,,,,,,,,,,,,,,,,,,,,,,,,,,,,,,,1.444,604.0537724,None,space,1,604.0537724,None,0.4031142,P011,fencog,2,Pre,2021_Sep_07_1141,N-Back (New Version 2021),2021.1.4,119.952115
,,,,Conditions/Version_1/oneback(2)_v1.xlsx,New rule: Press 'space' when you see 1-back (i.e. the same letter as the one that appeared 1 letter ago.),,,,,,,,,,,0,4,4,4,,,,,,,,,,,,,,,,,,,,,,,,,,,,,,,,,,,,,,,,,,,,,,,,,,,,,,,,,,,,,,,,,,,,,,,,,,,,,,,,,P011,fencog,2,Pre,2021_Sep_07_1141,N-Back (New Version 2021),2021.1.4,119.952115
,,,,Conditions/Version_1/zeroback(2)_v1.xlsx,New rule: Press 'space' when you see the letter 'x' or 'X'.,p,None,,,,,,,,,0,5,5,5,0,0,0,0,,,,,,,,,,,,,,,,,,,,,,,,,,,,,,,,,,,,,,,,,,,,,,,,,,,,,,,,,,,606.0778773,None,609.069391,None,space,1.1390286,609.069391,None,606.0778773,None,1.134,611.3661976,None,None,1,611.3661976,None,,P011,fencog,2,Pre,2021_Sep_07_1141,N-Back (New Version 2021),2021.1.4,119.952115
,,,,Conditions/Version_1/zeroback(2)_v1.xlsx,New rule: Press 'space' when you see the letter 'x' or 'X'.,L,None,,,,,,,,,0,5,5,5,0,1,1,1,,,,,,,,,,,,,,,,,,,,,,,,,,,,,,,,,,,,,,,,,,,,,,,,,,,,,,,,,,,,,,,,,,,,,1.8594,615.2316035,None,None,1,615.2316035,None,,P011,fencog,2,Pre,2021_Sep_07_1141,N-Back (New Version 2021),2021.1.4,119.952115
,,,,Conditions/Version_1/zeroback(2)_v1.xlsx,New rule: Press 'space' when you see the letter 'x' or 'X'.,G,None,,,,,,,,,0,5,5,5,0,2,2,2,,,,,,,,,,,,,,,,,,,,,,,,,,,,,,,,,,,,,,,,,,,,,,,,,,,,,,,,,,,,,,,,,,,,,1.7726,619.0091844,None,None,1,619.0091844,None,,P011,fencog,2,Pre,2021_Sep_07_1141,N-Back (New Version 2021),2021.1.4,119.952115
,,,,Conditions/Version_1/zeroback(2)_v1.xlsx,New rule: Press 'space' when you see the letter 'x' or 'X'.,y,None,,,,,,,,,0,5,5,5,0,3,3,3,,,,,,,,,,,,,,,,,,,,,,,,,,,,,,,,,,,,,,,,,,,,,,,,,,,,,,,,,,,,,,,,,,,,,1.7974,622.8140855,None,None,1,622.8140855,None,,P011,fencog,2,Pre,2021_Sep_07_1141,N-Back (New Version 2021),2021.1.4,119.952115
,,,,Conditions/Version_1/zeroback(2)_v1.xlsx,New rule: Press 'space' when you see the letter 'x' or 'X'.,Y,None,,,,,,,,,0,5,5,5,0,4,4,4,,,,,,,,,,,,,,,,,,,,,,,,,,,,,,,,,,,,,,,,,,,,,,,,,,,,,,,,,,,,,,,,,,,,,1.5928,626.4210252,None,None,1,626.4210252,None,,P011,fencog,2,Pre,2021_Sep_07_1141,N-Back (New Version 2021),2021.1.4,119.952115
,,,,Conditions/Version_1/zeroback(2)_v1.xlsx,New rule: Press 'space' when you see the letter 'x' or 'X'.,W,None,,,,,,,,,0,5,5,5,0,5,5,5,,,,,,,,,,,,,,,,,,,,,,,,,,,,,,,,,,,,,,,,,,,,,,,,,,,,,,,,,,,,,,,,,,,,,1.7602,630.1970713,None,None,1,630.1970713,None,,P011,fencog,2,Pre,2021_Sep_07_1141,N-Back (New Version 2021),2021.1.4,119.952115
,,,,Conditions/Version_1/zeroback(2)_v1.xlsx,New rule: Press 'space' when you see the letter 'x' or 'X'.,x,space,,,,,,,,,0,5,5,5,0,6,6,6,,,,,,,,,,,,,,,,,,,,,,,,,,,,,,,,,,,,,,,,,,,,,,,,,,,,,,,,,,,,,,,,,,,,,1.6982,633.9031308,None,space,1,633.9031308,None,0.5457283,P011,fencog,2,Pre,2021_Sep_07_1141,N-Back (New Version 2021),2021.1.4,119.952115
,,,,Conditions/Version_1/zeroback(2)_v1.xlsx,New rule: Press 'space' when you see the letter 'x' or 'X'.,X,space,,,,,,,,,0,5,5,5,0,7,7,7,,,,,,,,,,,,,,,,,,,,,,,,,,,,,,,,,,,,,,,,,,,,,,,,,,,,,,,,,,,,,,,,,,,,,1.9896,637.9003395,None,space,1,637.9003395,None,0.452677,P011,fencog,2,Pre,2021_Sep_07_1141,N-Back (New Version 2021),2021.1.4,119.952115
,,,,Conditions/Version_1/zeroback(2)_v1.xlsx,New rule: Press 'space' when you see the letter 'x' or 'X'.,p,None,,,,,,,,,0,5,5,5,0,8,8,8,,,,,,,,,,,,,,,,,,,,,,,,,,,,,,,,,,,,,,,,,,,,,,,,,,,,,,,,,,,,,,,,,,,,,1.2084,641.1168825,None,None,1,641.1168825,None,,P011,fencog,2,Pre,2021_Sep_07_1141,N-Back (New Version 2021),2021.1.4,119.952115
,,,,Conditions/Version_1/zeroback(2)_v1.xlsx,New rule: Press 'space' when you see the letter 'x' or 'X'.,h,None,,,,,,,,,0,5,5,5,0,9,9,9,,,,,,,,,,,,,,,,,,,,,,,,,,,,,,,,,,,,,,,,,,,,,,,,,,,,,,,,,,,,,,,,,,,,,1.4068,644.5320419,None,None,1,644.5320419,None,,P011,fencog,2,Pre,2021_Sep_07_1141,N-Back (New Version 2021),2021.1.4,119.952115
,,,,Conditions/Version_1/zeroback(2)_v1.xlsx,New rule: Press 'space' when you see the letter 'x' or 'X'.,,,,,,,,,,,0,5,5,5,,,,,,,,,,,,,,,,,,,,,,,,,,,,,,,,,,,,,,,,,,,,,,,,,,,,,,,,,,,,,,,,,,,,,,,,,,,,,,,,,P011,fencog,2,Pre,2021_Sep_07_1141,N-Back (New Version 2021),2021.1.4,119.952115
,,,,Conditions/Version_1/threeback(2)_v1.xlsx,New rule: Press 'space' when you see 3-back (i.e. the same letter as the one that appeared 3 letters ago.),q,None,,,,,,,,,0,6,6,6,0,0,0,0,,,,,,,,,,,,,,,,,,,,,,,,,,,,,,,,,,,,,,,,,,,,,,,,,,,,,,,,,,,646.5632022,None,649.5493904,None,space,7.7552927,649.5493904,None,646.5632022,None,1.754,659.0788051,None,None,1,659.0788051,None,,P011,fencog,2,Pre,2021_Sep_07_1141,N-Back (New Version 2021),2021.1.4,119.952115
,,,,Conditions/Version_1/threeback(2)_v1.xlsx,New rule: Press 'space' when you see 3-back (i.e. the same letter as the one that appeared 3 letters ago.),Y,None,,,,,,,,,0,6,6,6,0,1,1,1,,,,,,,,,,,,,,,,,,,,,,,,,,,,,,,,,,,,,,,,,,,,,,,,,,,,,,,,,,,,,,,,,,,,,1.8656,662.9593642,None,None,1,662.9593642,None,,P011,fencog,2,Pre,2021_Sep_07_1141,N-Back (New Version 2021),2021.1.4,119.952115
,,,,Conditions/Version_1/threeback(2)_v1.xlsx,New rule: Press 'space' when you see 3-back (i.e. the same letter as the one that appeared 3 letters ago.),p,None,,,,,,,,,0,6,6,6,0,2,2,2,,,,,,,,,,,,,,,,,,,,,,,,,,,,,,,,,,,,,,,,,,,,,,,,,,,,,,,,,,,,,,,,,,,,,1.2146,666.1772248,None,None,1,666.1772248,None,,P011,fencog,2,Pre,2021_Sep_07_1141,N-Back (New Version 2021),2021.1.4,119.952115
,,,,Conditions/Version_1/threeback(2)_v1.xlsx,New rule: Press 'space' when you see 3-back (i.e. the same letter as the one that appeared 3 letters ago.),p,None,,,,,,,,,0,6,6,6,0,3,3,3,,,,,,,,,,,,,,,,,,,,,,,,,,,,,,,,,,,,,,,,,,,,,,,,,,,,,,,,,,,,,,,,,,,,,1.1836,669.3658131,None,None,1,669.3658131,None,,P011,fencog,2,Pre,2021_Sep_07_1141,N-Back (New Version 2021),2021.1.4,119.952115
,,,,Conditions/Version_1/threeback(2)_v1.xlsx,New rule: Press 'space' when you see 3-back (i.e. the same letter as the one that appeared 3 letters ago.),y,space,,,,,,,,,0,6,6,6,0,4,4,4,,,,,,,,,,,,,,,,,,,,,,,,,,,,,,,,,,,,,,,,,,,,,,,,,,,,,,,,,,,,,,,,,,,,,1.971,673.3405403,None,space,1,673.3405403,None,1.05223,P011,fencog,2,Pre,2021_Sep_07_1141,N-Back (New Version 2021),2021.1.4,119.952115
,,,,Conditions/Version_1/threeback(2)_v1.xlsx,New rule: Press 'space' when you see 3-back (i.e. the same letter as the one that appeared 3 letters ago.),u,None,,,,,,,,,0,6,6,6,0,5,5,5,,,,,,,,,,,,,,,,,,,,,,,,,,,,,,,,,,,,,,,,,,,,,,,,,,,,,,,,,,,,,,,,,,,,,1.4068,676.7563627,None,None,1,676.7563627,None,,P011,fencog,2,Pre,2021_Sep_07_1141,N-Back (New Version 2021),2021.1.4,119.952115
,,,,Conditions/Version_1/threeback(2)_v1.xlsx,New rule: Press 'space' when you see 3-back (i.e. the same letter as the one that appeared 3 letters ago.),P,space,,,,,,,,,0,6,6,6,0,6,6,6,,,,,,,,,,,,,,,,,,,,,,,,,,,,,,,,,,,,,,,,,,,,,,,,,,,,,,,,,,,,,,,,,,,,,1.8532,680.621056,None,space,1,680.621056,None,0.8198039,P011,fencog,2,Pre,2021_Sep_07_1141,N-Back (New Version 2021),2021.1.4,119.952115
,,,,Conditions/Version_1/threeback(2)_v1.xlsx,New rule: Press 'space' when you see 3-back (i.e. the same letter as the one that appeared 3 letters ago.),a,None,,,,,,,,,0,6,6,6,0,7,7,7,,,,,,,,,,,,,,,,,,,,,,,,,,,,,,,,,,,,,,,,,,,,,,,,,,,,,,,,,,,,,,,,,,,,,1.8904,684.5137313,None,None,1,684.5137313,None,,P011,fencog,2,Pre,2021_Sep_07_1141,N-Back (New Version 2021),2021.1.4,119.952115
,,,,Conditions/Version_1/threeback(2)_v1.xlsx,New rule: Press 'space' when you see 3-back (i.e. the same letter as the one that appeared 3 letters ago.),U,space,,,,,,,,,0,6,6,6,0,8,8,8,,,,,,,,,,,,,,,,,,,,,,,,,,,,,,,,,,,,,,,,,,,,,,,,,,,,,,,,,,,,,,,,,,,,,1.9772,688.5066745,None,space,1,688.5066745,None,1.014137,P011,fencog,2,Pre,2021_Sep_07_1141,N-Back (New Version 2021),2021.1.4,119.952115
,,,,Conditions/Version_1/threeback(2)_v1.xlsx,New rule: Press 'space' when you see 3-back (i.e. the same letter as the one that appeared 3 letters ago.),q,None,,,,,,,,,0,6,6,6,0,9,9,9,,,,,,,,,,,,,,,,,,,,,,,,,,,,,,,,,,,,,,,,,,,,,,,,,,,,,,,,,,,,,,,,,,,,,1.94,692.4519044,None,None,1,692.4519044,None,,P011,fencog,2,Pre,2021_Sep_07_1141,N-Back (New Version 2021),2021.1.4,119.952115
,,,,Conditions/Version_1/threeback(2)_v1.xlsx,New rule: Press 'space' when you see 3-back (i.e. the same letter as the one that appeared 3 letters ago.),,,,,,,,,,,0,6,6,6,,,,,,,,,,,,,,,,,,,,,,,,,,,,,,,,,,,,,,,,,,,,,,,,,,,,,,,,,,,,,,,,,,,,,,,,,,,,,,,,,P011,fencog,2,Pre,2021_Sep_07_1141,N-Back (New Version 2021),2021.1.4,119.952115
,,,,Conditions/Version_1/twoback(2)_v1.xlsx,New rule: Press 'space' when you see 2-back (i.e. the same letter as the one that appeared 2 letters ago.),q,None,,,,,,,,,0,7,7,7,0,0,0,0,,,,,,,,,,,,,,,,,,,,,,,,,,,,,,,,,,,,,,,,,,,,,,,,,,,,,,,,,,,694.4798861,None,697.4811341,None,space,0.8396478,697.4811341,None,694.4798861,None,1.2828,699.6419803,None,None,1,699.6419803,None,,P011,fencog,2,Pre,2021_Sep_07_1141,N-Back (New Version 2021),2021.1.4,119.952115
,,,,Conditions/Version_1/twoback(2)_v1.xlsx,New rule: Press 'space' when you see 2-back (i.e. the same letter as the one that appeared 2 letters ago.),r,None,,,,,,,,,0,7,7,7,0,1,1,1,,,,,,,,,,,,,,,,,,,,,,,,,,,,,,,,,,,,,,,,,,,,,,,,,,,,,,,,,,,,,,,,,,,,,1.8718,703.5249724,None,None,1,703.5249724,None,,P011,fencog,2,Pre,2021_Sep_07_1141,N-Back (New Version 2021),2021.1.4,119.952115
,,,,Conditions/Version_1/twoback(2)_v1.xlsx,New rule: Press 'space' when you see 2-back (i.e. the same letter as the one that appeared 2 letters ago.),q,space,,,,,,,,,0,7,7,7,0,2,2,2,,,,,,,,,,,,,,,,,,,,,,,,,,,,,,,,,,,,,,,,,,,,,,,,,,,,,,,,,,,,,,,,,,,,,1.9586,707.4879052,None,space,1,707.4879052,None,0.6574883,P011,fencog,2,Pre,2021_Sep_07_1141,N-Back (New Version 2021),2021.1.4,119.952115
,,,,Conditions/Version_1/twoback(2)_v1.xlsx,New rule: Press 'space' when you see 2-back (i.e. the same letter as the one that appeared 2 letters ago.),P,None,,,,,,,,,0,7,7,7,0,3,3,3,,,,,,,,,,,,,,,,,,,,,,,,,,,,,,,,,,,,,,,,,,,,,,,,,,,,,,,,,,,,,,,,,,,,,1.2642,710.7562524,None,None,1,710.7562524,None,,P011,fencog,2,Pre,2021_Sep_07_1141,N-Back (New Version 2021),2021.1.4,119.952115
,,,,Conditions/Version_1/twoback(2)_v1.xlsx,New rule: Press 'space' when you see 2-back (i.e. the same letter as the one that appeared 2 letters ago.),p,None,,,,,,,,,0,7,7,7,0,4,4,4,,,,,,,,,,,,,,,,,,,,,,,,,,,,,,,,,,,,,,,,,,,,,,,,,,,,,,,,,,,,,,,,,,,,,1.2332,713.9943638,None,None,1,713.9943638,None,,P011,fencog,2,Pre,2021_Sep_07_1141,N-Back (New Version 2021),2021.1.4,119.952115
,,,,Conditions/Version_1/twoback(2)_v1.xlsx,New rule: Press 'space' when you see 2-back (i.e. the same letter as the one that appeared 2 letters ago.),H,None,,,,,,,,,0,7,7,7,0,5,5,5,,,,,,,,,,,,,,,,,,,,,,,,,,,,,,,,,,,,,,,,,,,,,,,,,,,,,,,,,,,,,,,,,,,,,1.5742,717.5693427,None,None,1,717.5693427,None,,P011,fencog,2,Pre,2021_Sep_07_1141,N-Back (New Version 2021),2021.1.4,119.952115
,,,,Conditions/Version_1/twoback(2)_v1.xlsx,New rule: Press 'space' when you see 2-back (i.e. the same letter as the one that appeared 2 letters ago.),g,None,,,,,,,,,0,7,7,7,0,6,6,6,,,,,,,,,,,,,,,,,,,,,,,,,,,,,,,,,,,,,,,,,,,,,,,,,,,,,,,,,,,,,,,,,,,,,1.1712,720.7526444,None,None,1,720.7526444,None,,P011,fencog,2,Pre,2021_Sep_07_1141,N-Back (New Version 2021),2021.1.4,119.952115
,,,,Conditions/Version_1/twoback(2)_v1.xlsx,New rule: Press 'space' when you see 2-back (i.e. the same letter as the one that appeared 2 letters ago.),j,None,,,,,,,,,0,7,7,7,0,7,7,7,,,,,,,,,,,,,,,,,,,,,,,,,,,,,,,,,,,,,,,,,,,,,,,,,,,,,,,,,,,,,,,,,,,,,1.9896,724.7494661,None,None,1,724.7494661,None,,P011,fencog,2,Pre,2021_Sep_07_1141,N-Back (New Version 2021),2021.1.4,119.952115
,,,,Conditions/Version_1/twoback(2)_v1.xlsx,New rule: Press 'space' when you see 2-back (i.e. the same letter as the one that appeared 2 letters ago.),g,space,,,,,,,,,0,7,7,7,0,8,8,8,,,,,,,,,,,,,,,,,,,,,,,,,,,,,,,,,,,,,,,,,,,,,,,,,,,,,,,,,,,,,,,,,,,,,1.8904,728.6422219,None,space,1,728.6422219,None,0.6383478,P011,fencog,2,Pre,2021_Sep_07_1141,N-Back (New Version 2021),2021.1.4,119.952115
,,,,Conditions/Version_1/twoback(2)_v1.xlsx,New rule: Press 'space' when you see 2-back (i.e. the same letter as the one that appeared 2 letters ago.),G,None,,,,,,,,,0,7,7,7,0,9,9,9,,,,,,,,,,,,,,,,,,,,,,,,,,,,,,,,,,,,,,,,,,,,,,,,,,,,,,,,,,,,,,,,,,,,,1.568,732.2243217,None,None,1,732.2243217,None,,P011,fencog,2,Pre,2021_Sep_07_1141,N-Back (New Version 2021),2021.1.4,119.952115
,,,,Conditions/Version_1/twoback(2)_v1.xlsx,New rule: Press 'space' when you see 2-back (i.e. the same letter as the one that appeared 2 letters ago.),,,,,,,,,,,0,7,7,7,,,,,,,,,,,,,,,,,,,,,,,,,,,,,,,,,,,,,,,,,,,,,,,,,,,,,,,,,,,,,,,,,,,,,,,,,,,,,,,,,P011,fencog,2,Pre,2021_Sep_07_1141,N-Back (New Version 2021),2021.1.4,119.952115
,,,,Conditions/Version_1/threeback(3)_v1.xlsx,New rule: Press 'space' when you see 3-back (i.e. the same letter as the one that appeared 3 letters ago.),w,None,,,,,,,,,0,8,8,8,0,0,0,0,,,,,,,,,,,,,,,,,,,,,,,,,,,,,,,,,,,,,,,,,,,,,,,,,,,,,,,,,,,734.2534816,None,737.2395395,None,space,3.737293,737.2395395,None,734.2534816,None,1.4688,742.4779592,None,None,1,742.4779592,None,,P011,fencog,2,Pre,2021_Sep_07_1141,N-Back (New Version 2021),2021.1.4,119.952115
,,,,Conditions/Version_1/threeback(3)_v1.xlsx,New rule: Press 'space' when you see 3-back (i.e. the same letter as the one that appeared 3 letters ago.),p,None,,,,,,,,,0,8,8,8,0,1,1,1,,,,,,,,,,,,,,,,,,,,,,,,,,,,,,,,,,,,,,,,,,,,,,,,,,,,,,,,,,,,,,,,,,,,,1.6858,746.1681143,None,None,1,746.1681143,None,,P011,fencog,2,Pre,2021_Sep_07_1141,N-Back (New Version 2021),2021.1.4,119.952115
,,,,Conditions/Version_1/threeback(3)_v1.xlsx,New rule: Press 'space' when you see 3-back (i.e. the same letter as the one that appeared 3 letters ago.),P,None,,,,,,,,,0,8,8,8,0,2,2,2,,,,,,,,,,,,,,,,,,,,,,,,,,,,,,,,,,,,,,,,,,,,,,,,,,,,,,,,,,,,,,,,,,,,,1.3076,749.476101,None,None,1,749.476101,None,,P011,fencog,2,Pre,2021_Sep_07_1141,N-Back (New Version 2021),2021.1.4,119.952115
,,,,Conditions/Version_1/threeback(3)_v1.xlsx,New rule: Press 'space' when you see 3-back (i.e. the same letter as the one that appeared 3 letters ago.),i,None,,,,,,,,,0,8,8,8,0,3,3,3,,,,,,,,,,,,,,,,,,,,,,,,,,,,,,,,,,,,,,,,,,,,,,,,,,,,,,,,,,,,,,,,,,,,,1.3882,752.8745547,None,None,1,752.8745547,None,,P011,fencog,2,Pre,2021_Sep_07_1141,N-Back (New Version 2021),2021.1.4,119.952115
,,,,Conditions/Version_1/threeback(3)_v1.xlsx,New rule: Press 'space' when you see 3-back (i.e. the same letter as the one that appeared 3 letters ago.),f,None,,,,,,,,,0,8,8,8,0,4,4,4,,,,,,,,,,,,,,,,,,,,,,,,,,,,,,,,,,,,,,,,,,,,,,,,,,,,,,,,,,,,,,,,,,,,,1.6796,756.5567042,None,None,1,756.5567042,None,,P011,fencog,2,Pre,2021_Sep_07_1141,N-Back (New Version 2021),2021.1.4,119.952115
,,,,Conditions/Version_1/threeback(3)_v1.xlsx,New rule: Press 'space' when you see 3-back (i.e. the same letter as the one that appeared 3 letters ago.),o,None,,,,,,,,,0,8,8,8,0,5,5,5,,,,,,,,,,,,,,,,,,,,,,,,,,,,,,,,,,,,,,,,,,,,,,,,,,,,,,,,,,,,,,,,,,,,,1.661,760.222176,None,None,1,760.222176,None,,P011,fencog,2,Pre,2021_Sep_07_1141,N-Back (New Version 2021),2021.1.4,119.952115
,,,,Conditions/Version_1/threeback(3)_v1.xlsx,New rule: Press 'space' when you see 3-back (i.e. the same letter as the one that appeared 3 letters ago.),w,None,,,,,,,,,0,8,8,8,0,6,6,6,,,,,,,,,,,,,,,,,,,,,,,,,,,,,,,,,,,,,,,,,,,,,,,,,,,,,,,,,,,,,,,,,,,,,1.072,763.2986909,None,None,1,763.2986909,None,,P011,fencog,2,Pre,2021_Sep_07_1141,N-Back (New Version 2021),2021.1.4,119.952115
,,,,Conditions/Version_1/threeback(3)_v1.xlsx,New rule: Press 'space' when you see 3-back (i.e. the same letter as the one that appeared 3 letters ago.),F,space,,,,,,,,,0,8,8,8,0,7,7,7,,,,,,,,,,,,,,,,,,,,,,,,,,,,,,,,,,,,,,,,,,,,,,,,,,,,,,,,,,,,,,,,,,,,,1.4006,766.7062178,None,space,1,766.7062178,None,1.1913426,P011,fencog,2,Pre,2021_Sep_07_1141,N-Back (New Version 2021),2021.1.4,119.952115
,,,,Conditions/Version_1/threeback(3)_v1.xlsx,New rule: Press 'space' when you see 3-back (i.e. the same letter as the one that appeared 3 letters ago.),p,None,,,,,,,,,0,8,8,8,0,8,8,8,,,,,,,,,,,,,,,,,,,,,,,,,,,,,,,,,,,,,,,,,,,,,,,,,,,,,,,,,,,,,,,,,,,,,1.2766,769.9971709,None,None,1,769.9971709,None,,P011,fencog,2,Pre,2021_Sep_07_1141,N-Back (New Version 2021),2021.1.4,119.952115
,,,,Conditions/Version_1/threeback(3)_v1.xlsx,New rule: Press 'space' when you see 3-back (i.e. the same letter as the one that appeared 3 letters ago.),W,space,,,,,,,,,0,8,8,8,0,9,9,9,,,,,,,,,,,,,,,,,,,,,,,,,,,,,,,,,,,,,,,,,,,,,,,,,,,,,,,,,,,,,,,,,,,,,1.0844,773.0942987,None,None,0,773.0942987,None,,P011,fencog,2,Pre,2021_Sep_07_1141,N-Back (New Version 2021),2021.1.4,119.952115
,,,,Conditions/Version_1/threeback(3)_v1.xlsx,New rule: Press 'space' when you see 3-back (i.e. the same letter as the one that appeared 3 letters ago.),,,,,,,,,,,0,8,8,8,,,,,,,,,,,,,,,,,,,,,,,,,,,,,,,,,,,,,,,,,,,,,,,,,,,,,,,,,,,,,,,,,,,,,,,,,,,,,,,,,P011,fencog,2,Pre,2021_Sep_07_1141,N-Back (New Version 2021),2021.1.4,119.952115
,,,,Conditions/Version_1/zeroback(3)_v1.xlsx,New rule: Press 'space' when you see the letter 'x' or 'X'.,X,space,,,,,,,,,0,9,9,9,0,0,0,0,,,,,,,,,,,,,,,,,,,,,,,,,,,,,,,,,,,,,,,,,,,,,,,,,,,,,,,,,,,775.1216778,None,778.1107388,None,space,0.9617772,778.1107388,None,775.1216778,None,1.8656,780.9788979,None,space,1,780.9788979,None,1.1338406,P011,fencog,2,Pre,2021_Sep_07_1141,N-Back (New Version 2021),2021.1.4,119.952115
,,,,Conditions/Version_1/zeroback(3)_v1.xlsx,New rule: Press 'space' when you see the letter 'x' or 'X'.,B,None,,,,,,,,,0,9,9,9,0,1,1,1,,,,,,,,,,,,,,,,,,,,,,,,,,,,,,,,,,,,,,,,,,,,,,,,,,,,,,,,,,,,,,,,,,,,,1.7602,784.7427052,None,None,1,784.7427052,None,,P011,fencog,2,Pre,2021_Sep_07_1141,N-Back (New Version 2021),2021.1.4,119.952115
,,,,Conditions/Version_1/zeroback(3)_v1.xlsx,New rule: Press 'space' when you see the letter 'x' or 'X'.,m,None,,,,,,,,,0,9,9,9,0,2,2,2,,,,,,,,,,,,,,,,,,,,,,,,,,,,,,,,,,,,,,,,,,,,,,,,,,,,,,,,,,,,,,,,,,,,,1.4502,788.1973456,None,None,1,788.1973456,None,,P011,fencog,2,Pre,2021_Sep_07_1141,N-Back (New Version 2021),2021.1.4,119.952115
,,,,Conditions/Version_1/zeroback(3)_v1.xlsx,New rule: Press 'space' when you see the letter 'x' or 'X'.,m,None,,,,,,,,,0,9,9,9,0,3,3,3,,,,,,,,,,,,,,,,,,,,,,,,,,,,,,,,,,,,,,,,,,,,,,,,,,,,,,,,,,,,,,,,,,,,,1.9462,792.146283,None,None,1,792.146283,None,,P011,fencog,2,Pre,2021_Sep_07_1141,N-Back (New Version 2021),2021.1.4,119.952115
,,,,Conditions/Version_1/zeroback(3)_v1.xlsx,New rule: Press 'space' when you see the letter 'x' or 'X'.,o,None,,,,,,,,,0,9,9,9,0,4,4,4,,,,,,,,,,,,,,,,,,,,,,,,,,,,,,,,,,,,,,,,,,,,,,,,,,,,,,,,,,,,,,,,,,,,,1.1402,795.2870334,None,None,1,795.2870334,None,,P011,fencog,2,Pre,2021_Sep_07_1141,N-Back (New Version 2021),2021.1.4,119.952115
,,,,Conditions/Version_1/zeroback(3)_v1.xlsx,New rule: Press 'space' when you see the letter 'x' or 'X'.,p,None,,,,,,,,,0,9,9,9,0,5,5,5,,,,,,,,,,,,,,,,,,,,,,,,,,,,,,,,,,,,,,,,,,,,,,,,,,,,,,,,,,,,,,,,,,,,,1.4254,798.7118023,None,None,1,798.7118023,None,,P011,fencog,2,Pre,2021_Sep_07_1141,N-Back (New Version 2021),2021.1.4,119.952115
,,,,Conditions/Version_1/zeroback(3)_v1.xlsx,New rule: Press 'space' when you see the letter 'x' or 'X'.,G,None,,,,,,,,,0,9,9,9,0,6,6,6,,,,,,,,,,,,,,,,,,,,,,,,,,,,,,,,,,,,,,,,,,,,,,,,,,,,,,,,,,,,,,,,,,,,,1.9214,802.6433885,None,space,0,802.6433885,None,0.4694254,P011,fencog,2,Pre,2021_Sep_07_1141,N-Back (New Version 2021),2021.1.4,119.952115
,,,,Conditions/Version_1/zeroback(3)_v1.xlsx,New rule: Press 'space' when you see the letter 'x' or 'X'.,X,space,,,,,,,,,0,9,9,9,0,7,7,7,,,,,,,,,,,,,,,,,,,,,,,,,,,,,,,,,,,,,,,,,,,,,,,,,,,,,,,,,,,,,,,,,,,,,1.6672,806.3170848,None,space,1,806.3170848,None,0.4277331,P011,fencog,2,Pre,2021_Sep_07_1141,N-Back (New Version 2021),2021.1.4,119.952115
,,,,Conditions/Version_1/zeroback(3)_v1.xlsx,New rule: Press 'space' when you see the letter 'x' or 'X'.,p,None,,,,,,,,,0,9,9,9,0,8,8,8,,,,,,,,,,,,,,,,,,,,,,,,,,,,,,,,,,,,,,,,,,,,,,,,,,,,,,,,,,,,,,,,,,,,,1.9958,810.3228755,None,None,1,810.3228755,None,,P011,fencog,2,Pre,2021_Sep_07_1141,N-Back (New Version 2021),2021.1.4,119.952115
,,,,Conditions/Version_1/zeroback(3)_v1.xlsx,New rule: Press 'space' when you see the letter 'x' or 'X'.,x,space,,,,,,,,,0,9,9,9,0,9,9,9,,,,,,,,,,,,,,,,,,,,,,,,,,,,,,,,,,,,,,,,,,,,,,,,,,,,,,,,,,,,,,,,,,,,,1.01,813.3404494,None,space,1,813.3404494,None,0.5322786,P011,fencog,2,Pre,2021_Sep_07_1141,N-Back (New Version 2021),2021.1.4,119.952115
,,,,Conditions/Version_1/zeroback(3)_v1.xlsx,New rule: Press 'space' when you see the letter 'x' or 'X'.,,,,,,,,,,,0,9,9,9,,,,,,,,,,,,,,,,,,,,,,,,,,,,,,,,,,,,,,,,,,,,,,,,,,,,,,,,,,,,,,,,,,,,,,,,,,,,,,,,,P011,fencog,2,Pre,2021_Sep_07_1141,N-Back (New Version 2021),2021.1.4,119.952115
,,,,Conditions/Version_1/twoback(3)_v1.xlsx,New rule: Press 'space' when you see 2-back (i.e. the same letter as the one that appeared 2 letters ago.),e,None,,,,,,,,,0,10,10,10,0,0,0,0,,,,,,,,,,,,,,,,,,,,,,,,,,,,,,,,,,,,,,,,,,,,,,,,,,,,,,,,,,,815.3633077,None,818.3486997,None,space,1.0597327,818.3486997,None,815.3633077,None,1.785,821.2127392,None,None,1,821.2127392,None,,P011,fencog,2,Pre,2021_Sep_07_1141,N-Back (New Version 2021),2021.1.4,119.952115
,,,,Conditions/Version_1/twoback(3)_v1.xlsx,New rule: Press 'space' when you see 2-back (i.e. the same letter as the one that appeared 2 letters ago.),o,None,,,,,,,,,0,10,10,10,0,1,1,1,,,,,,,,,,,,,,,,,,,,,,,,,,,,,,,,,,,,,,,,,,,,,,,,,,,,,,,,,,,,,,,,,,,,,1.4626,824.6884016,None,None,1,824.6884016,None,,P011,fencog,2,Pre,2021_Sep_07_1141,N-Back (New Version 2021),2021.1.4,119.952115
,,,,Conditions/Version_1/twoback(3)_v1.xlsx,New rule: Press 'space' when you see 2-back (i.e. the same letter as the one that appeared 2 letters ago.),P,None,,,,,,,,,0,10,10,10,0,2,2,2,,,,,,,,,,,,,,,,,,,,,,,,,,,,,,,,,,,,,,,,,,,,,,,,,,,,,,,,,,,,,,,,,,,,,1.1526,827.8439331,None,None,1,827.8439331,None,,P011,fencog,2,Pre,2021_Sep_07_1141,N-Back (New Version 2021),2021.1.4,119.952115
,,,,Conditions/Version_1/twoback(3)_v1.xlsx,New rule: Press 'space' when you see 2-back (i.e. the same letter as the one that appeared 2 letters ago.),z,None,,,,,,,,,0,10,10,10,0,3,3,3,,,,,,,,,,,,,,,,,,,,,,,,,,,,,,,,,,,,,,,,,,,,,,,,,,,,,,,,,,,,,,,,,,,,,1.6734,831.5230542,None,None,1,831.5230542,None,,P011,fencog,2,Pre,2021_Sep_07_1141,N-Back (New Version 2021),2021.1.4,119.952115
,,,,Conditions/Version_1/twoback(3)_v1.xlsx,New rule: Press 'space' when you see 2-back (i.e. the same letter as the one that appeared 2 letters ago.),X,None,,,,,,,,,0,10,10,10,0,4,4,4,,,,,,,,,,,,,,,,,,,,,,,,,,,,,,,,,,,,,,,,,,,,,,,,,,,,,,,,,,,,,,,,,,,,,1.1712,834.7017679,None,None,1,834.7017679,None,,P011,fencog,2,Pre,2021_Sep_07_1141,N-Back (New Version 2021),2021.1.4,119.952115
,,,,Conditions/Version_1/twoback(3)_v1.xlsx,New rule: Press 'space' when you see 2-back (i.e. the same letter as the one that appeared 2 letters ago.),z,space,,,,,,,,,0,10,10,10,0,5,5,5,,,,,,,,,,,,,,,,,,,,,,,,,,,,,,,,,,,,,,,,,,,,,,,,,,,,,,,,,,,,,,,,,,,,,1.9834,838.6909592,None,space,1,838.6909592,None,0.4777889,P011,fencog,2,Pre,2021_Sep_07_1141,N-Back (New Version 2021),2021.1.4,119.952115
,,,,Conditions/Version_1/twoback(3)_v1.xlsx,New rule: Press 'space' when you see 2-back (i.e. the same letter as the one that appeared 2 letters ago.),x,space,,,,,,,,,0,10,10,10,0,6,6,6,,,,,,,,,,,,,,,,,,,,,,,,,,,,,,,,,,,,,,,,,,,,,,,,,,,,,,,,,,,,,,,,,,,,,1.971,842.6646947,None,space,1,842.6646947,None,0.8402294,P011,fencog,2,Pre,2021_Sep_07_1141,N-Back (New Version 2021),2021.1.4,119.952115
,,,,Conditions/Version_1/twoback(3)_v1.xlsx,New rule: Press 'space' when you see 2-back (i.e. the same letter as the one that appeared 2 letters ago.),c,None,,,,,,,,,0,10,10,10,0,7,7,7,,,,,,,,,,,,,,,,,,,,,,,,,,,,,,,,,,,,,,,,,,,,,,,,,,,,,,,,,,,,,,,,,,,,,1.072,845.7415086,None,None,1,845.7415086,None,,P011,fencog,2,Pre,2021_Sep_07_1141,N-Back (New Version 2021),2021.1.4,119.952115
,,,,Conditions/Version_1/twoback(3)_v1.xlsx,New rule: Press 'space' when you see 2-back (i.e. the same letter as the one that appeared 2 letters ago.),i,None,,,,,,,,,0,10,10,10,0,8,8,8,,,,,,,,,,,,,,,,,,,,,,,,,,,,,,,,,,,,,,,,,,,,,,,,,,,,,,,,,,,,,,,,,,,,,1.7106,849.4637649,None,None,1,849.4637649,None,,P011,fencog,2,Pre,2021_Sep_07_1141,N-Back (New Version 2021),2021.1.4,119.952115
,,,,Conditions/Version_1/twoback(3)_v1.xlsx,New rule: Press 'space' when you see 2-back (i.e. the same letter as the one that appeared 2 letters ago.),C,space,,,,,,,,,0,10,10,10,0,9,9,9,,,,,,,,,,,,,,,,,,,,,,,,,,,,,,,,,,,,,,,,,,,,,,,,,,,,,,,,,,,,,,,,,,,,,1.3448,852.8235737,None,space,1,852.8235737,None,1.3293355,P011,fencog,2,Pre,2021_Sep_07_1141,N-Back (New Version 2021),2021.1.4,119.952115
,,,,Conditions/Version_1/twoback(3)_v1.xlsx,New rule: Press 'space' when you see 2-back (i.e. the same letter as the one that appeared 2 letters ago.),,,,,,,,,,,0,10,10,10,,,,,,,,,,,,,,,,,,,,,,,,,,,,,,,,,,,,,,,,,,,,,,,,,,,,,,,,,,,,,,,,,,,,,,,,,,,,,,,,,P011,fencog,2,Pre,2021_Sep_07_1141,N-Back (New Version 2021),2021.1.4,119.952115
,,,,Conditions/Version_1/oneback(3)_v1.xlsx,New rule: Press 'space' when you see 1-back (i.e. the same letter as the one that appeared 1 letter ago.),o,None,,,,,,,,,0,11,11,11,0,0,0,0,,,,,,,,,,,,,,,,,,,,,,,,,,,,,,,,,,,,,,,,,,,,,,,,,,,,,,,,,,,854.8531637,None,857.8370297,None,space,0.819709,857.8370297,None,854.8531637,None,1.5618,860.2346549,None,None,1,860.2346549,None,,P011,fencog,2,Pre,2021_Sep_07_1141,N-Back (New Version 2021),2021.1.4,119.952115
,,,,Conditions/Version_1/oneback(3)_v1.xlsx,New rule: Press 'space' when you see 1-back (i.e. the same letter as the one that appeared 1 letter ago.),O,space,,,,,,,,,0,11,11,11,0,1,1,1,,,,,,,,,,,,,,,,,,,,,,,,,,,,,,,,,,,,,,,,,,,,,,,,,,,,,,,,,,,,,,,,,,,,,1.599,863.8343382,None,space,1,863.8343382,None,0.6222536,P011,fencog,2,Pre,2021_Sep_07_1141,N-Back (New Version 2021),2021.1.4,119.952115
,,,,Conditions/Version_1/oneback(3)_v1.xlsx,New rule: Press 'space' when you see 1-back (i.e. the same letter as the one that appeared 1 letter ago.),h,None,,,,,,,,,0,11,11,11,0,2,2,2,,,,,,,,,,,,,,,,,,,,,,,,,,,,,,,,,,,,,,,,,,,,,,,,,,,,,,,,,,,,,,,,,,,,,1.2022,867.0495592,None,None,1,867.0495592,None,,P011,fencog,2,Pre,2021_Sep_07_1141,N-Back (New Version 2021),2021.1.4,119.952115
,,,,Conditions/Version_1/oneback(3)_v1.xlsx,New rule: Press 'space' when you see 1-back (i.e. the same letter as the one that appeared 1 letter ago.),g,None,,,,,,,,,0,11,11,11,0,3,3,3,,,,,,,,,,,,,,,,,,,,,,,,,,,,,,,,,,,,,,,,,,,,,,,,,,,,,,,,,,,,,,,,,,,,,1.723,870.7768534,None,None,1,870.7768534,None,,P011,fencog,2,Pre,2021_Sep_07_1141,N-Back (New Version 2021),2021.1.4,119.952115
,,,,Conditions/Version_1/oneback(3)_v1.xlsx,New rule: Press 'space' when you see 1-back (i.e. the same letter as the one that appeared 1 letter ago.),n,None,,,,,,,,,0,11,11,11,0,4,4,4,,,,,,,,,,,,,,,,,,,,,,,,,,,,,,,,,,,,,,,,,,,,,,,,,,,,,,,,,,,,,,,,,,,,,1.4192,874.2065177,None,None,1,874.2065177,None,,P011,fencog,2,Pre,2021_Sep_07_1141,N-Back (New Version 2021),2021.1.4,119.952115
,,,,Conditions/Version_1/oneback(3)_v1.xlsx,New rule: Press 'space' when you see 1-back (i.e. the same letter as the one that appeared 1 letter ago.),z,None,,,,,,,,,0,11,11,11,0,5,5,5,,,,,,,,,,,,,,,,,,,,,,,,,,,,,,,,,,,,,,,,,,,,,,,,,,,,,,,,,,,,,,,,,,,,,1.8656,878.0820248,None,None,1,878.0820248,None,,P011,fencog,2,Pre,2021_Sep_07_1141,N-Back (New Version 2021),2021.1.4,119.952115
,,,,Conditions/Version_1/oneback(3)_v1.xlsx,New rule: Press 'space' when you see 1-back (i.e. the same letter as the one that appeared 1 letter ago.),X,None,,,,,,,,,0,11,11,11,0,6,6,6,,,,,,,,,,,,,,,,,,,,,,,,,,,,,,,,,,,,,,,,,,,,,,,,,,,,,,,,,,,,,,,,,,,,,1.754,881.8475754,None,None,1,881.8475754,None,,P011,fencog,2,Pre,2021_Sep_07_1141,N-Back (New Version 2021),2021.1.4,119.952115
,,,,Conditions/Version_1/oneback(3)_v1.xlsx,New rule: Press 'space' when you see 1-back (i.e. the same letter as the one that appeared 1 letter ago.),r,None,,,,,,,,,0,11,11,11,0,7,7,7,,,,,,,,,,,,,,,,,,,,,,,,,,,,,,,,,,,,,,,,,,,,,,,,,,,,,,,,,,,,,,,,,,,,,1.134,884.9880995,None,None,1,884.9880995,None,,P011,fencog,2,Pre,2021_Sep_07_1141,N-Back (New Version 2021),2021.1.4,119.952115
,,,,Conditions/Version_1/oneback(3)_v1.xlsx,New rule: Press 'space' when you see 1-back (i.e. the same letter as the one that appeared 1 letter ago.),r,space,,,,,,,,,0,11,11,11,0,8,8,8,,,,,,,,,,,,,,,,,,,,,,,,,,,,,,,,,,,,,,,,,,,,,,,,,,,,,,,,,,,,,,,,,,,,,1.1154,888.1098061,None,space,1,888.1098061,None,0.6188529,P011,fencog,2,Pre,2021_Sep_07_1141,N-Back (New Version 2021),2021.1.4,119.952115
,,,,Conditions/Version_1/oneback(3)_v1.xlsx,New rule: Press 'space' when you see 1-back (i.e. the same letter as the one that appeared 1 letter ago.),P,None,,,,,,,,,0,11,11,11,0,9,9,9,,,,,,,,,,,,,,,,,,,,,,,,,,,,,,,,,,,,,,,,,,,,,,,,,,,,,,,,,,,,,,,,,,,,,1.7354,891.8513718,None,None,1,891.8513718,None,,P011,fencog,2,Pre,2021_Sep_07_1141,N-Back (New Version 2021),2021.1.4,119.952115
,,,,Conditions/Version_1/oneback(3)_v1.xlsx,New rule: Press 'space' when you see 1-back (i.e. the same letter as the one that appeared 1 letter ago.),,,,,,,,,,,0,11,11,11,,,,,,,,,,,,,,,,,,,,,,,,,,,,,,,,,,,,,,,,,,,,,,,,,,,,,,,,,,,,,,,,,,,,,,,,,,,,,,,,,P011,fencog,2,Pre,2021_Sep_07_1141,N-Back (New Version 2021),2021.1.4,119.952115
,,,,Conditions/Version_1/twoback(4)_v1.xlsx,New rule: Press 'space' when you see 2-back (i.e. the same letter as the one that appeared 2 letters ago.),r,None,,,,,,,,,0,12,12,12,0,0,0,0,,,,,,,,,,,,,,,,,,,,,,,,,,,,,,,,,,,,,,,,,,,,,,,,,,,,,,,,,,,893.8795491,None,896.8670499,None,space,1.261835,896.8670499,None,893.8795491,None,1.4068,899.6145121,None,None,1,899.6145121,None,,P011,fencog,2,Pre,2021_Sep_07_1141,N-Back (New Version 2021),2021.1.4,119.952115
,,,,Conditions/Version_1/twoback(4)_v1.xlsx,New rule: Press 'space' when you see 2-back (i.e. the same letter as the one that appeared 2 letters ago.),T,None,,,,,,,,,0,12,12,12,0,1,1,1,,,,,,,,,,,,,,,,,,,,,,,,,,,,,,,,,,,,,,,,,,,,,,,,,,,,,,,,,,,,,,,,,,,,,1.0658,902.6908491,None,None,1,902.6908491,None,,P011,fencog,2,Pre,2021_Sep_07_1141,N-Back (New Version 2021),2021.1.4,119.952115
,,,,Conditions/Version_1/twoback(4)_v1.xlsx,New rule: Press 'space' when you see 2-back (i.e. the same letter as the one that appeared 2 letters ago.),o,None,,,,,,,,,0,12,12,12,0,2,2,2,,,,,,,,,,,,,,,,,,,,,,,,,,,,,,,,,,,,,,,,,,,,,,,,,,,,,,,,,,,,,,,,,,,,,1.7416,906.4376575,None,None,1,906.4376575,None,,P011,fencog,2,Pre,2021_Sep_07_1141,N-Back (New Version 2021),2021.1.4,119.952115
,,,,Conditions/Version_1/twoback(4)_v1.xlsx,New rule: Press 'space' when you see 2-back (i.e. the same letter as the one that appeared 2 letters ago.),p,None,,,,,,,,,0,12,12,12,0,3,3,3,,,,,,,,,,,,,,,,,,,,,,,,,,,,,,,,,,,,,,,,,,,,,,,,,,,,,,,,,,,,,,,,,,,,,1.289,909.728273,None,None,1,909.728273,None,,P011,fencog,2,Pre,2021_Sep_07_1141,N-Back (New Version 2021),2021.1.4,119.952115
,,,,Conditions/Version_1/twoback(4)_v1.xlsx,New rule: Press 'space' when you see 2-back (i.e. the same letter as the one that appeared 2 letters ago.),p,None,,,,,,,,,0,12,12,12,0,4,4,4,,,,,,,,,,,,,,,,,,,,,,,,,,,,,,,,,,,,,,,,,,,,,,,,,,,,,,,,,,,,,,,,,,,,,1.4254,913.1538433,None,space,0,913.1538433,None,0.8709471,P011,fencog,2,Pre,2021_Sep_07_1141,N-Back (New Version 2021),2021.1.4,119.952115
,,,,Conditions/Version_1/twoback(4)_v1.xlsx,New rule: Press 'space' when you see 2-back (i.e. the same letter as the one that appeared 2 letters ago.),y,None,,,,,,,,,0,12,12,12,0,5,5,5,,,,,,,,,,,,,,,,,,,,,,,,,,,,,,,,,,,,,,,,,,,,,,,,,,,,,,,,,,,,,,,,,,,,,1.3076,916.4698135,None,None,1,916.4698135,None,,P011,fencog,2,Pre,2021_Sep_07_1141,N-Back (New Version 2021),2021.1.4,119.952115
,,,,Conditions/Version_1/twoback(4)_v1.xlsx,New rule: Press 'space' when you see 2-back (i.e. the same letter as the one that appeared 2 letters ago.),P,space,,,,,,,,,0,12,12,12,0,6,6,6,,,,,,,,,,,,,,,,,,,,,,,,,,,,,,,,,,,,,,,,,,,,,,,,,,,,,,,,,,,,,,,,,,,,,1.723,920.200195,None,space,1,920.200195,None,0.5043437,P011,fencog,2,Pre,2021_Sep_07_1141,N-Back (New Version 2021),2021.1.4,119.952115
,,,,Conditions/Version_1/twoback(4)_v1.xlsx,New rule: Press 'space' when you see 2-back (i.e. the same letter as the one that appeared 2 letters ago.),y,None,,,,,,,,,0,12,12,12,0,7,7,7,,,,,,,,,,,,,,,,,,,,,,,,,,,,,,,,,,,,,,,,,,,,,,,,,,,,,,,,,,,,,,,,,,,,,1.9586,924.1595646,None,space,0,924.1595646,None,1.193103,P011,fencog,2,Pre,2021_Sep_07_1141,N-Back (New Version 2021),2021.1.4,119.952115
,,,,Conditions/Version_1/twoback(4)_v1.xlsx,New rule: Press 'space' when you see 2-back (i.e. the same letter as the one that appeared 2 letters ago.),y,space,,,,,,,,,0,12,12,12,0,8,8,8,,,,,,,,,,,,,,,,,,,,,,,,,,,,,,,,,,,,,,,,,,,,,,,,,,,,,,,,,,,,,,,,,,,,,1.599,927.7647909,None,None,0,927.7647909,None,,P011,fencog,2,Pre,2021_Sep_07_1141,N-Back (New Version 2021),2021.1.4,119.952115
,,,,Conditions/Version_1/twoback(4)_v1.xlsx,New rule: Press 'space' when you see 2-back (i.e. the same letter as the one that appeared 2 letters ago.),,,,,,,,,,,0,12,12,12,,,,,,,,,,,,,,,,,,,,,,,,,,,,,,,,,,,,,,,,,,,,,,,,,,,,,,,,,,,,,,,,,,,,,,,,,,,,,,,,,P011,fencog,2,Pre,2021_Sep_07_1141,N-Back (New Version 2021),2021.1.4,119.952115
,,,,Conditions/Version_1/zeroback(4)_v1.xlsx,New rule: Press 'space' when you see the letter 'x' or 'X'.,o,None,,,,,,,,,0,13,13,13,0,0,0,0,,,,,,,,,,,,,,,,,,,,,,,,,,,,,,,,,,,,,,,,,,,,,,,,,,,,,,,,,,,929.7841889,None,932.7728234,None,space,0.3716682,932.7728234,None,929.7841889,None,1.227,934.3990733,None,None,1,934.3990733,None,,P011,fencog,2,Pre,2021_Sep_07_1141,N-Back (New Version 2021),2021.1.4,119.952115
,,,,Conditions/Version_1/zeroback(4)_v1.xlsx,New rule: Press 'space' when you see the letter 'x' or 'X'.,X,space,,,,,,,,,0,13,13,13,0,1,1,1,,,,,,,,,,,,,,,,,,,,,,,,,,,,,,,,,,,,,,,,,,,,,,,,,,,,,,,,,,,,,,,,,,,,,1.6238,938.0293321,None,space,1,938.0293321,None,0.4034016,P011,fencog,2,Pre,2021_Sep_07_1141,N-Back (New Version 2021),2021.1.4,119.952115
,,,,Conditions/Version_1/zeroback(4)_v1.xlsx,New rule: Press 'space' when you see the letter 'x' or 'X'.,p,None,,,,,,,,,0,13,13,13,0,2,2,2,,,,,,,,,,,,,,,,,,,,,,,,,,,,,,,,,,,,,,,,,,,,,,,,,,,,,,,,,,,,,,,,,,,,,1.3572,941.3949661,None,None,1,941.3949661,None,,P011,fencog,2,Pre,2021_Sep_07_1141,N-Back (New Version 2021),2021.1.4,119.952115
,,,,Conditions/Version_1/zeroback(4)_v1.xlsx,New rule: Press 'space' when you see the letter 'x' or 'X'.,m,None,,,,,,,,,0,13,13,13,0,3,3,3,,,,,,,,,,,,,,,,,,,,,,,,,,,,,,,,,,,,,,,,,,,,,,,,,,,,,,,,,,,,,,,,,,,,,1.4936,944.903788,None,None,1,944.903788,None,,P011,fencog,2,Pre,2021_Sep_07_1141,N-Back (New Version 2021),2021.1.4,119.952115
,,,,Conditions/Version_1/zeroback(4)_v1.xlsx,New rule: Press 'space' when you see the letter 'x' or 'X'.,n,None,,,,,,,,,0,13,13,13,0,4,4,4,,,,,,,,,,,,,,,,,,,,,,,,,,,,,,,,,,,,,,,,,,,,,,,,,,,,,,,,,,,,,,,,,,,,,1.7726,948.6847699,None,None,1,948.6847699,None,,P011,fencog,2,Pre,2021_Sep_07_1141,N-Back (New Version 2021),2021.1.4,119.952115
,,,,Conditions/Version_1/zeroback(4)_v1.xlsx,New rule: Press 'space' when you see the letter 'x' or 'X'.,m,None,,,,,,,,,0,13,13,13,0,5,5,5,,,,,,,,,,,,,,,,,,,,,,,,,,,,,,,,,,,,,,,,,,,,,,,,,,,,,,,,,,,,,,,,,,,,,1.1712,951.8657913,None,None,1,951.8657913,None,,P011,fencog,2,Pre,2021_Sep_07_1141,N-Back (New Version 2021),2021.1.4,119.952115
,,,,Conditions/Version_1/zeroback(4)_v1.xlsx,New rule: Press 'space' when you see the letter 'x' or 'X'.,C,None,,,,,,,,,0,13,13,13,0,6,6,6,,,,,,,,,,,,,,,,,,,,,,,,,,,,,,,,,,,,,,,,,,,,,,,,,,,,,,,,,,,,,,,,,,,,,1.4006,955.2731728,None,None,1,955.2731728,None,,P011,fencog,2,Pre,2021_Sep_07_1141,N-Back (New Version 2021),2021.1.4,119.952115
,,,,Conditions/Version_1/zeroback(4)_v1.xlsx,New rule: Press 'space' when you see the letter 'x' or 'X'.,m,None,,,,,,,,,0,13,13,13,0,7,7,7,,,,,,,,,,,,,,,,,,,,,,,,,,,,,,,,,,,,,,,,,,,,,,,,,,,,,,,,,,,,,,,,,,,,,1.7788,959.0558161,None,None,1,959.0558161,None,,P011,fencog,2,Pre,2021_Sep_07_1141,N-Back (New Version 2021),2021.1.4,119.952115
,,,,Conditions/Version_1/zeroback(4)_v1.xlsx,New rule: Press 'space' when you see the letter 'x' or 'X'.,p,None,,,,,,,,,0,13,13,13,0,8,8,8,,,,,,,,,,,,,,,,,,,,,,,,,,,,,,,,,,,,,,,,,,,,,,,,,,,,,,,,,,,,,,,,,,,,,1.754,962.8123838,None,None,1,962.8123838,None,,P011,fencog,2,Pre,2021_Sep_07_1141,N-Back (New Version 2021),2021.1.4,119.952115
,,,,Conditions/Version_1/zeroback(4)_v1.xlsx,New rule: Press 'space' when you see the letter 'x' or 'X'.,X,space,,,,,,,,,0,13,13,13,0,9,9,9,,,,,,,,,,,,,,,,,,,,,,,,,,,,,,,,,,,,,,,,,,,,,,,,,,,,,,,,,,,,,,,,,,,,,1.6548,966.4726367,None,space,1,966.4726367,None,0.4561589,P011,fencog,2,Pre,2021_Sep_07_1141,N-Back (New Version 2021),2021.1.4,119.952115
,,,,Conditions/Version_1/zeroback(4)_v1.xlsx,New rule: Press 'space' when you see the letter 'x' or 'X'.,,,,,,,,,,,0,13,13,13,,,,,,,,,,,,,,,,,,,,,,,,,,,,,,,,,,,,,,,,,,,,,,,,,,,,,,,,,,,,,,,,,,,,,,,,,,,,,,,,,P011,fencog,2,Pre,2021_Sep_07_1141,N-Back (New Version 2021),2021.1.4,119.952115
,,,,Conditions/Version_1/oneback(4)_v1.xlsx,New rule: Press 'space' when you see 1-back (i.e. the same letter as the one that appeared 1 letter ago.),w,None,,,,,,,,,0,14,14,14,0,0,0,0,,,,,,,,,,,,,,,,,,,,,,,,,,,,,,,,,,,,,,,,,,,,,,,,,,,,,,,,,,,968.5017111,None,971.4874066,None,space,0.0813573,971.4874066,None,968.5017111,None,1.8594,973.4526442,None,None,1,973.4526442,None,,P011,fencog,2,Pre,2021_Sep_07_1141,N-Back (New Version 2021),2021.1.4,119.952115
,,,,Conditions/Version_1/oneback(4)_v1.xlsx,New rule: Press 'space' when you see 1-back (i.e. the same letter as the one that appeared 1 letter ago.),q,None,,,,,,,,,0,14,14,14,0,1,1,1,,,,,,,,,,,,,,,,,,,,,,,,,,,,,,,,,,,,,,,,,,,,,,,,,,,,,,,,,,,,,,,,,,,,,1.6734,977.135521,None,None,1,977.135521,None,,P011,fencog,2,Pre,2021_Sep_07_1141,N-Back (New Version 2021),2021.1.4,119.952115
,,,,Conditions/Version_1/oneback(4)_v1.xlsx,New rule: Press 'space' when you see 1-back (i.e. the same letter as the one that appeared 1 letter ago.),i,None,,,,,,,,,0,14,14,14,0,2,2,2,,,,,,,,,,,,,,,,,,,,,,,,,,,,,,,,,,,,,,,,,,,,,,,,,,,,,,,,,,,,,,,,,,,,,1.072,980.2167015,None,None,1,980.2167015,None,,P011,fencog,2,Pre,2021_Sep_07_1141,N-Back (New Version 2021),2021.1.4,119.952115
,,,,Conditions/Version_1/oneback(4)_v1.xlsx,New rule: Press 'space' when you see 1-back (i.e. the same letter as the one that appeared 1 letter ago.),t,None,,,,,,,,,0,14,14,14,0,3,3,3,,,,,,,,,,,,,,,,,,,,,,,,,,,,,,,,,,,,,,,,,,,,,,,,,,,,,,,,,,,,,,,,,,,,,1.8408,984.0646475,None,None,1,984.0646475,None,,P011,fencog,2,Pre,2021_Sep_07_1141,N-Back (New Version 2021),2021.1.4,119.952115
,,,,Conditions/Version_1/oneback(4)_v1.xlsx,New rule: Press 'space' when you see 1-back (i.e. the same letter as the one that appeared 1 letter ago.),v,None,,,,,,,,,0,14,14,14,0,4,4,4,,,,,,,,,,,,,,,,,,,,,,,,,,,,,,,,,,,,,,,,,,,,,,,,,,,,,,,,,,,,,,,,,,,,,1.6796,987.7486625,None,None,1,987.7486625,None,,P011,fencog,2,Pre,2021_Sep_07_1141,N-Back (New Version 2021),2021.1.4,119.952115
,,,,Conditions/Version_1/oneback(4)_v1.xlsx,New rule: Press 'space' when you see 1-back (i.e. the same letter as the one that appeared 1 letter ago.),V,space,,,,,,,,,0,14,14,14,0,5,5,5,,,,,,,,,,,,,,,,,,,,,,,,,,,,,,,,,,,,,,,,,,,,,,,,,,,,,,,,,,,,,,,,,,,,,1.9524,991.7154927,None,space,1,991.7154927,None,0.5652996,P011,fencog,2,Pre,2021_Sep_07_1141,N-Back (New Version 2021),2021.1.4,119.952115
,,,,Conditions/Version_1/oneback(4)_v1.xlsx,New rule: Press 'space' when you see 1-back (i.e. the same letter as the one that appeared 1 letter ago.),v,space,,,,,,,,,0,14,14,14,0,6,6,6,,,,,,,,,,,,,,,,,,,,,,,,,,,,,,,,,,,,,,,,,,,,,,,,,,,,,,,,,,,,,,,,,,,,,1.2828,995.0048888,None,space,1,995.0048888,None,0.7636616,P011,fencog,2,Pre,2021_Sep_07_1141,N-Back (New Version 2021),2021.1.4,119.952115
,,,,Conditions/Version_1/oneback(4)_v1.xlsx,New rule: Press 'space' when you see 1-back (i.e. the same letter as the one that appeared 1 letter ago.),p,None,,,,,,,,,0,14,14,14,0,7,7,7,,,,,,,,,,,,,,,,,,,,,,,,,,,,,,,,,,,,,,,,,,,,,,,,,,,,,,,,,,,,,,,,,,,,,1.5618,998.5792256,None,None,1,998.5792256,None,,P011,fencog,2,Pre,2021_Sep_07_1141,N-Back (New Version 2021),2021.1.4,119.952115
,,,,Conditions/Version_1/oneback(4)_v1.xlsx,New rule: Press 'space' when you see 1-back (i.e. the same letter as the one that appeared 1 letter ago.),w,None,,,,,,,,,0,14,14,14,0,8,8,8,,,,,,,,,,,,,,,,,,,,,,,,,,,,,,,,,,,,,,,,,,,,,,,,,,,,,,,,,,,,,,,,,,,,,1.0906,1001.676173,None,None,1,1001.676173,None,,P011,fencog,2,Pre,2021_Sep_07_1141,N-Back (New Version 2021),2021.1.4,119.952115
,,,,Conditions/Version_1/oneback(4)_v1.xlsx,New rule: Press 'space' when you see 1-back (i.e. the same letter as the one that appeared 1 letter ago.),W,space,,,,,,,,,0,14,14,14,0,9,9,9,,,,,,,,,,,,,,,,,,,,,,,,,,,,,,,,,,,,,,,,,,,,,,,,,,,,,,,,,,,,,,,,,,,,,1.692,1005.375046,None,space,1,1005.375046,None,0.6173887,P011,fencog,2,Pre,2021_Sep_07_1141,N-Back (New Version 2021),2021.1.4,119.952115
,,,,Conditions/Version_1/oneback(4)_v1.xlsx,New rule: Press 'space' when you see 1-back (i.e. the same letter as the one that appeared 1 letter ago.),,,,,,,,,,,0,14,14,14,,,,,,,,,,,,,,,,,,,,,,,,,,,,,,,,,,,,,,,,,,,,,,,,,,,,,,,,,,,,,,,,,,,,,,,,,,,,,,,,,P011,fencog,2,Pre,2021_Sep_07_1141,N-Back (New Version 2021),2021.1.4,119.952115
,,,,Conditions/Version_1/threeback(4)_v1.xlsx,New rule: Press 'space' when you see 3-back (i.e. the same letter as the one that appeared 3 letters ago.),A,None,,,,,,,,,0,15,15,15,0,0,0,0,,,,,,,,,,,,,,,,,,,,,,,,,,,,,,,,,,,,,,,,,,,,,,,,,,,,,,,,,,,1007.397982,None,1010.386483,None,space,0.3023408,1010.386483,None,1007.397982,None,1.8842,1012.600287,None,None,1,1012.600287,None,,P011,fencog,2,Pre,2021_Sep_07_1141,N-Back (New Version 2021),2021.1.4,119.952115
,,,,Conditions/Version_1/threeback(4)_v1.xlsx,New rule: Press 'space' when you see 3-back (i.e. the same letter as the one that appeared 3 letters ago.),n,None,,,,,,,,,0,15,15,15,0,1,1,1,,,,,,,,,,,,,,,,,,,,,,,,,,,,,,,,,,,,,,,,,,,,,,,,,,,,,,,,,,,,,,,,,,,,,1.3696,1015.983572,None,None,1,1015.983572,None,,P011,fencog,2,Pre,2021_Sep_07_1141,N-Back (New Version 2021),2021.1.4,119.952115
,,,,Conditions/Version_1/threeback(4)_v1.xlsx,New rule: Press 'space' when you see 3-back (i.e. the same letter as the one that appeared 3 letters ago.),g,None,,,,,,,,,0,15,15,15,0,2,2,2,,,,,,,,,,,,,,,,,,,,,,,,,,,,,,,,,,,,,,,,,,,,,,,,,,,,,,,,,,,,,,,,,,,,,1.0906,1019.080323,None,None,1,1019.080323,None,,P011,fencog,2,Pre,2021_Sep_07_1141,N-Back (New Version 2021),2021.1.4,119.952115
,,,,Conditions/Version_1/threeback(4)_v1.xlsx,New rule: Press 'space' when you see 3-back (i.e. the same letter as the one that appeared 3 letters ago.),A,space,,,,,,,,,0,15,15,15,0,3,3,3,,,,,,,,,,,,,,,,,,,,,,,,,,,,,,,,,,,,,,,,,,,,,,,,,,,,,,,,,,,,,,,,,,,,,1.01,1022.103521,None,None,0,1022.103521,None,,P011,fencog,2,Pre,2021_Sep_07_1141,N-Back (New Version 2021),2021.1.4,119.952115
,,,,Conditions/Version_1/threeback(4)_v1.xlsx,New rule: Press 'space' when you see 3-back (i.e. the same letter as the one that appeared 3 letters ago.),p,None,,,,,,,,,0,15,15,15,0,4,4,4,,,,,,,,,,,,,,,,,,,,,,,,,,,,,,,,,,,,,,,,,,,,,,,,,,,,,,,,,,,,,,,,,,,,,1.3882,1025.494763,None,None,1,1025.494763,None,,P011,fencog,2,Pre,2021_Sep_07_1141,N-Back (New Version 2021),2021.1.4,119.952115
,,,,Conditions/Version_1/threeback(4)_v1.xlsx,New rule: Press 'space' when you see 3-back (i.e. the same letter as the one that appeared 3 letters ago.),O,None,,,,,,,,,0,15,15,15,0,5,5,5,,,,,,,,,,,,,,,,,,,,,,,,,,,,,,,,,,,,,,,,,,,,,,,,,,,,,,,,,,,,,,,,,,,,,1.5308,1029.034751,None,None,1,1029.034751,None,,P011,fencog,2,Pre,2021_Sep_07_1141,N-Back (New Version 2021),2021.1.4,119.952115
,,,,Conditions/Version_1/threeback(4)_v1.xlsx,New rule: Press 'space' when you see 3-back (i.e. the same letter as the one that appeared 3 letters ago.),a,space,,,,,,,,,0,15,15,15,0,6,6,6,,,,,,,,,,,,,,,,,,,,,,,,,,,,,,,,,,,,,,,,,,,,,,,,,,,,,,,,,,,,,,,,,,,,,1.7788,1032.819614,None,None,0,1032.819614,None,,P011,fencog,2,Pre,2021_Sep_07_1141,N-Back (New Version 2021),2021.1.4,119.952115
,,,,Conditions/Version_1/threeback(4)_v1.xlsx,New rule: Press 'space' when you see 3-back (i.e. the same letter as the one that appeared 3 letters ago.),p,space,,,,,,,,,0,15,15,15,0,7,7,7,,,,,,,,,,,,,,,,,,,,,,,,,,,,,,,,,,,,,,,,,,,,,,,,,,,,,,,,,,,,,,,,,,,,,1.5556,1036.382612,None,space,1,1036.382612,None,1.546279,P011,fencog,2,Pre,2021_Sep_07_1141,N-Back (New Version 2021),2021.1.4,119.952115
,,,,Conditions/Version_1/threeback(4)_v1.xlsx,New rule: Press 'space' when you see 3-back (i.e. the same letter as the one that appeared 3 letters ago.),x,None,,,,,,,,,0,15,15,15,0,8,8,8,,,,,,,,,,,,,,,,,,,,,,,,,,,,,,,,,,,,,,,,,,,,,,,,,,,,,,,,,,,,,,,,,,,,,1.785,1040.173101,None,None,1,1040.173101,None,,P011,fencog,2,Pre,2021_Sep_07_1141,N-Back (New Version 2021),2021.1.4,119.952115
,,,,Conditions/Version_1/threeback(4)_v1.xlsx,New rule: Press 'space' when you see 3-back (i.e. the same letter as the one that appeared 3 letters ago.),X,None,,,,,,,,,0,15,15,15,0,9,9,9,,,,,,,,,,,,,,,,,,,,,,,,,,,,,,,,,,,,,,,,,,,,,,,,,,,,,,,,,,,,,,,,,,,,,1.2394,1043.41382,None,None,1,1043.41382,None,,P011,fencog,2,Pre,2021_Sep_07_1141,N-Back (New Version 2021),2021.1.4,119.952115
,,,,Conditions/Version_1/threeback(4)_v1.xlsx,New rule: Press 'space' when you see 3-back (i.e. the same letter as the one that appeared 3 letters ago.),,,,,,,,,,,0,15,15,15,,,,,,,,,,,,,,,,,,,,,,,,,,,,,,,,,,,,,,,,,,,,,,,,,,,,,,,,,,,,,,,,,,,,,,,,,,,,,,,,,P011,fencog,2,Pre,2021_Sep_07_1141,N-Back (New Version 2021),2021.1.4,119.952115
