CondFileP,InstructionsP,LettersDisplayedP,CorrectnessP,CondFile,Instructions,LettersDisplayed,Correctness,practicetrials.thisRepN,practicetrials.thisTrialN,practicetrials.thisN,practicetrials.thisIndex,InnerLoopPractice.thisRepN,InnerLoopPractice.thisTrialN,InnerLoopPractice.thisN,InnerLoopPractice.thisIndex,trials.thisRepN,trials.thisTrialN,trials.thisN,trials.thisIndex,InnerLoop.thisRepN,InnerLoop.thisTrialN,InnerLoop.thisN,InnerLoop.thisIndex,TaskVersionText.started,TaskVersionText.stopped,InstrKey1.keys,InstrKey1.rt,InstrKey1.started,InstrKey1.stopped,text.started,text.stopped,key_resp_4.keys,key_resp_4.rt,key_resp_4.started,key_resp_4.stopped,text_2.started,text_2.stopped,key_resp_3.keys,key_resp_3.rt,key_resp_3.started,key_resp_3.stopped,text_3.started,text_3.stopped,key_resp_2.keys,key_resp_2.rt,key_resp_2.started,key_resp_2.stopped,PractIn1.started,PractIn1.stopped,PractIn2.started,PractIn2.stopped,PractInstructionPass.keys,PractInstructionPass.rt,PractInstructionPass.started,PractInstructionPass.stopped,PractBlock1.started,PractBlock1.stopped,ISIjitterPractice,ISI_Pract_Fixation.started,ISI_Pract_Fixation.stopped,N_backP.started,N_backP.stopped,KeyPractice.keys,KeyPractice.corr,KeyPractice.started,KeyPractice.stopped,text_4.started,text_4.stopped,KeyPractice.rt,TransitionText.started,TransitionText.stopped,key_resp_6.keys,key_resp_6.rt,key_resp_6.started,key_resp_6.stopped,text_5.started,text_5.stopped,key_resp_5.keys,key_resp_5.rt,key_resp_5.started,key_resp_5.stopped,MainInt1.started,MainInt1.stopped,MainInt2.started,MainInt2.stopped,InstructionPass.keys,InstructionPass.rt,InstructionPass.started,InstructionPass.stopped,Blocks1.started,Blocks1.stopped,ISIjitter,N_backD.started,N_backD.stopped,key_resp.keys,key_resp.corr,key_resp.started,key_resp.stopped,key_resp.rt,participant,Study Name,Task Version (required to run),PRE/POST,date,expName,psychopyVersion,frameRate
,,,,,,,,,,,,,,,,,,,,,,,,25.2131227,None,space,24.6662067,25.7026197,None,,,,,,,,,,,,,,,,,,,,,,,,,,,,,,,,,,,,,,,,,,,,,,,,,,,,,,,,,,,,,,,,,,,,,,,P013,fencog,1,Post,2021_Oct_21_1233,N-Back (New Version 2021),2021.1.4,120.1344068
,,,,,,,,,,,,,,,,,,,,,,,,,,,,,,50.3997927,None,space,3.577384,50.8956285,None,,,,,,,,,,,,,,,,,,,,,,,,,,,,,,,,,,,,,,,,,,,,,,,,,,,,,,,,,,,,,,,,,P013,fencog,1,Post,2021_Oct_21_1233,N-Back (New Version 2021),2021.1.4,120.1344068
,,,,,,,,,,,,,,,,,,,,,,,,,,,,,,,,,,,,54.5114792,None,space,0.24608,55.0030216,None,,,,,,,,,,,,,,,,,,,,,,,,,,,,,,,,,,,,,,,,,,,,,,,,,,,,,,,,,,,P013,fencog,1,Post,2021_Oct_21_1233,N-Back (New Version 2021),2021.1.4,120.1344068
,,,,,,,,,,,,,,,,,,,,,,,,,,,,,,,,,,,,,,,,,,55.2784809,None,space,0.8395094,55.7693191,None,,,,,,,,,,,,,,,,,,,,,,,,,,,,,,,,,,,,,,,,,,,,,,,,,,,,,P013,fencog,1,Post,2021_Oct_21_1233,N-Back (New Version 2021),2021.1.4,120.1344068
Conditions/Version_1Pr/zeroback(1)_v1.xlsx,Rule: Press 'space' when you see the letter 'x' or 'X'.,Z,None,,,,,0,0,0,0,0,0,0,0,,,,,,,,,,,,,,,,,,,,,,,,,,,,,,,,,57.9543938,None,60.935295,None,space,0.8258457,60.935295,None,57.9543938,None,1.415,61.7811403,None,63.2075624,None,None,1,63.2075624,None,65.2097759,None,,,,,,,,,,,,,,,,,,,,,,,,,,,,,,,,P013,fencog,1,Post,2021_Oct_21_1233,N-Back (New Version 2021),2021.1.4,120.1344068
Conditions/Version_1Pr/zeroback(1)_v1.xlsx,Rule: Press 'space' when you see the letter 'x' or 'X'.,r,None,,,,,0,0,0,0,0,1,1,1,,,,,,,,,,,,,,,,,,,,,,,,,,,,,,,,,,,,,,,,,,,1.19,66.7069617,None,67.8991501,None,None,1,67.8991501,None,69.906058,None,,,,,,,,,,,,,,,,,,,,,,,,,,,,,,,,P013,fencog,1,Post,2021_Oct_21_1233,N-Back (New Version 2021),2021.1.4,120.1344068
Conditions/Version_1Pr/zeroback(1)_v1.xlsx,Rule: Press 'space' when you see the letter 'x' or 'X'.,X,space,,,,,0,0,0,0,0,2,2,2,,,,,,,,,,,,,,,,,,,,,,,,,,,,,,,,,,,,,,,,,,,1.865,71.4056684,None,73.2734929,None,space,1,73.2734929,None,73.6553601,None,0.367355,,,,,,,,,,,,,,,,,,,,,,,,,,,,,,,P013,fencog,1,Post,2021_Oct_21_1233,N-Back (New Version 2021),2021.1.4,120.1344068
Conditions/Version_1Pr/zeroback(1)_v1.xlsx,Rule: Press 'space' when you see the letter 'x' or 'X'.,p,None,,,,,0,0,0,0,0,3,3,3,,,,,,,,,,,,,,,,,,,,,,,,,,,,,,,,,,,,,,,,,,,1.54,75.154329,None,76.6986849,None,None,1,76.6986849,None,78.7034609,None,,,,,,,,,,,,,,,,,,,,,,,,,,,,,,,,P013,fencog,1,Post,2021_Oct_21_1233,N-Back (New Version 2021),2021.1.4,120.1344068
Conditions/Version_1Pr/zeroback(1)_v1.xlsx,Rule: Press 'space' when you see the letter 'x' or 'X'.,w,None,,,,,0,0,0,0,0,4,4,4,,,,,,,,,,,,,,,,,,,,,,,,,,,,,,,,,,,,,,,,,,,1.99,80.2029888,None,82.1971007,None,None,1,82.1971007,None,84.2019096,None,,,,,,,,,,,,,,,,,,,,,,,,,,,,,,,,P013,fencog,1,Post,2021_Oct_21_1233,N-Back (New Version 2021),2021.1.4,120.1344068
Conditions/Version_1Pr/zeroback(1)_v1.xlsx,Rule: Press 'space' when you see the letter 'x' or 'X'.,e,None,,,,,0,0,0,0,0,5,5,5,,,,,,,,,,,,,,,,,,,,,,,,,,,,,,,,,,,,,,,,,,,1.59,85.7015198,None,87.2961089,None,None,1,87.2961089,None,89.3004564,None,,,,,,,,,,,,,,,,,,,,,,,,,,,,,,,,P013,fencog,1,Post,2021_Oct_21_1233,N-Back (New Version 2021),2021.1.4,120.1344068
Conditions/Version_1Pr/zeroback(1)_v1.xlsx,Rule: Press 'space' when you see the letter 'x' or 'X'.,X,space,,,,,0,0,0,0,0,6,6,6,,,,,,,,,,,,,,,,,,,,,,,,,,,,,,,,,,,,,,,,,,,1.64,90.7999177,None,92.4447396,None,space,1,92.4447396,None,92.8923034,None,0.4362034,,,,,,,,,,,,,,,,,,,,,,,,,,,,,,,P013,fencog,1,Post,2021_Oct_21_1233,N-Back (New Version 2021),2021.1.4,120.1344068
Conditions/Version_1Pr/zeroback(1)_v1.xlsx,Rule: Press 'space' when you see the letter 'x' or 'X'.,x,space,,,,,0,0,0,0,0,7,7,7,,,,,,,,,,,,,,,,,,,,,,,,,,,,,,,,,,,,,,,,,,,1.115,94.3986645,None,95.5178966,None,space,1,95.5178966,None,96.3466643,None,0.8109595,,,,,,,,,,,,,,,,,,,,,,,,,,,,,,,P013,fencog,1,Post,2021_Oct_21_1233,N-Back (New Version 2021),2021.1.4,120.1344068
Conditions/Version_1Pr/zeroback(1)_v1.xlsx,Rule: Press 'space' when you see the letter 'x' or 'X'.,p,None,,,,,0,0,0,0,0,8,8,8,,,,,,,,,,,,,,,,,,,,,,,,,,,,,,,,,,,,,,,,,,,1.69,97.847645,None,99.5410388,None,None,1,99.5410388,None,101.5467809,None,,,,,,,,,,,,,,,,,,,,,,,,,,,,,,,,P013,fencog,1,Post,2021_Oct_21_1233,N-Back (New Version 2021),2021.1.4,120.1344068
Conditions/Version_1Pr/zeroback(1)_v1.xlsx,Rule: Press 'space' when you see the letter 'x' or 'X'.,r,None,,,,,0,0,0,0,0,9,9,9,,,,,,,,,,,,,,,,,,,,,,,,,,,,,,,,,,,,,,,,,,,1.365,103.0463314,None,104.4127848,None,None,1,104.4127848,None,106.4125558,None,,,,,,,,,,,,,,,,,,,,,,,,,,,,,,,,P013,fencog,1,Post,2021_Oct_21_1233,N-Back (New Version 2021),2021.1.4,120.1344068
Conditions/Version_1Pr/zeroback(1)_v1.xlsx,Rule: Press 'space' when you see the letter 'x' or 'X'.,,,,,,,0,0,0,0,,,,,,,,,,,,,,,,,,,,,,,,,,,,,,,,,,,,,,,,,,,,,,,,,,,,,,,,,,,,,,,,,,,,,,,,,,,,,,,,,,,,,,,,,P013,fencog,1,Post,2021_Oct_21_1233,N-Back (New Version 2021),2021.1.4,120.1344068
Conditions/Version_1Pr/oneback(1)_v1.xlsx,New rule: Press 'space' when you see 1-back (i.e. the same letter as the one that appeared 1 letter ago.),a,None,,,,,0,1,1,1,0,0,0,0,,,,,,,,,,,,,,,,,,,,,,,,,,,,,,,,,107.9364624,None,110.9204916,None,space,0.5762895,110.9204916,None,107.9364624,None,1.29,111.5141172,None,112.814773,None,None,1,112.814773,None,114.8179595,None,,,,,,,,,,,,,,,,,,,,,,,,,,,,,,,,P013,fencog,1,Post,2021_Oct_21_1233,N-Back (New Version 2021),2021.1.4,120.1344068
Conditions/Version_1Pr/oneback(1)_v1.xlsx,New rule: Press 'space' when you see 1-back (i.e. the same letter as the one that appeared 1 letter ago.),x,None,,,,,0,1,1,1,0,1,1,1,,,,,,,,,,,,,,,,,,,,,,,,,,,,,,,,,,,,,,,,,,,1.565,116.3174367,None,117.8859285,None,None,1,117.8859285,None,119.8913444,None,,,,,,,,,,,,,,,,,,,,,,,,,,,,,,,,P013,fencog,1,Post,2021_Oct_21_1233,N-Back (New Version 2021),2021.1.4,120.1344068
Conditions/Version_1Pr/oneback(1)_v1.xlsx,New rule: Press 'space' when you see 1-back (i.e. the same letter as the one that appeared 1 letter ago.),g,None,,,,,0,1,1,1,0,2,2,2,,,,,,,,,,,,,,,,,,,,,,,,,,,,,,,,,,,,,,,,,,,1.465,121.3909959,None,122.8603052,None,None,1,122.8603052,None,124.864989,None,,,,,,,,,,,,,,,,,,,,,,,,,,,,,,,,P013,fencog,1,Post,2021_Oct_21_1233,N-Back (New Version 2021),2021.1.4,120.1344068
Conditions/Version_1Pr/oneback(1)_v1.xlsx,New rule: Press 'space' when you see 1-back (i.e. the same letter as the one that appeared 1 letter ago.),G,space,,,,,0,1,1,1,0,3,3,3,,,,,,,,,,,,,,,,,,,,,,,,,,,,,,,,,,,,,,,,,,,1.165,126.3644588,None,127.533152,None,space,1,127.533152,None,127.854576,None,0.308511,,,,,,,,,,,,,,,,,,,,,,,,,,,,,,,P013,fencog,1,Post,2021_Oct_21_1233,N-Back (New Version 2021),2021.1.4,120.1344068
Conditions/Version_1Pr/oneback(1)_v1.xlsx,New rule: Press 'space' when you see 1-back (i.e. the same letter as the one that appeared 1 letter ago.),u,None,,,,,0,1,1,1,0,4,4,4,,,,,,,,,,,,,,,,,,,,,,,,,,,,,,,,,,,,,,,,,,,1.915,129.3565189,None,131.2750998,None,None,1,131.2750998,None,133.2786646,None,,,,,,,,,,,,,,,,,,,,,,,,,,,,,,,,P013,fencog,1,Post,2021_Oct_21_1233,N-Back (New Version 2021),2021.1.4,120.1344068
Conditions/Version_1Pr/oneback(1)_v1.xlsx,New rule: Press 'space' when you see 1-back (i.e. the same letter as the one that appeared 1 letter ago.),y,None,,,,,0,1,1,1,0,5,5,5,,,,,,,,,,,,,,,,,,,,,,,,,,,,,,,,,,,,,,,,,,,1.865,134.7786158,None,136.6477304,None,None,1,136.6477304,None,138.6521863,None,,,,,,,,,,,,,,,,,,,,,,,,,,,,,,,,P013,fencog,1,Post,2021_Oct_21_1233,N-Back (New Version 2021),2021.1.4,120.1344068
Conditions/Version_1Pr/oneback(1)_v1.xlsx,New rule: Press 'space' when you see 1-back (i.e. the same letter as the one that appeared 1 letter ago.),y,space,,,,,0,1,1,1,0,6,6,6,,,,,,,,,,,,,,,,,,,,,,,,,,,,,,,,,,,,,,,,,,,1.44,140.1520692,None,141.5931558,None,space,1,141.5931558,None,141.9607659,None,0.3445728,,,,,,,,,,,,,,,,,,,,,,,,,,,,,,,P013,fencog,1,Post,2021_Oct_21_1233,N-Back (New Version 2021),2021.1.4,120.1344068
Conditions/Version_1Pr/oneback(1)_v1.xlsx,New rule: Press 'space' when you see 1-back (i.e. the same letter as the one that appeared 1 letter ago.),k,None,,,,,0,1,1,1,0,7,7,7,,,,,,,,,,,,,,,,,,,,,,,,,,,,,,,,,,,,,,,,,,,1.815,143.4682106,None,145.2871759,None,None,1,145.2871759,None,147.2916563,None,,,,,,,,,,,,,,,,,,,,,,,,,,,,,,,,P013,fencog,1,Post,2021_Oct_21_1233,N-Back (New Version 2021),2021.1.4,120.1344068
Conditions/Version_1Pr/oneback(1)_v1.xlsx,New rule: Press 'space' when you see 1-back (i.e. the same letter as the one that appeared 1 letter ago.),c,None,,,,,0,1,1,1,0,8,8,8,,,,,,,,,,,,,,,,,,,,,,,,,,,,,,,,,,,,,,,,,,,1.74,148.7912676,None,150.5342507,None,None,1,150.5342507,None,152.5401713,None,,,,,,,,,,,,,,,,,,,,,,,,,,,,,,,,P013,fencog,1,Post,2021_Oct_21_1233,N-Back (New Version 2021),2021.1.4,120.1344068
Conditions/Version_1Pr/oneback(1)_v1.xlsx,New rule: Press 'space' when you see 1-back (i.e. the same letter as the one that appeared 1 letter ago.),r,None,,,,,0,1,1,1,0,9,9,9,,,,,,,,,,,,,,,,,,,,,,,,,,,,,,,,,,,,,,,,,,,1.365,154.0396066,None,155.4083735,None,None,1,155.4083735,None,157.4138047,None,,,,,,,,,,,,,,,,,,,,,,,,,,,,,,,,P013,fencog,1,Post,2021_Oct_21_1233,N-Back (New Version 2021),2021.1.4,120.1344068
Conditions/Version_1Pr/oneback(1)_v1.xlsx,New rule: Press 'space' when you see 1-back (i.e. the same letter as the one that appeared 1 letter ago.),,,,,,,0,1,1,1,,,,,,,,,,,,,,,,,,,,,,,,,,,,,,,,,,,,,,,,,,,,,,,,,,,,,,,,,,,,,,,,,,,,,,,,,,,,,,,,,,,,,,,,,P013,fencog,1,Post,2021_Oct_21_1233,N-Back (New Version 2021),2021.1.4,120.1344068
Conditions/Version_1Pr/twoback(1)_v1.xlsx,New rule: Press 'space' when you see 2-back (i.e. the same letter as the one that appeared 2 letters ago.),E,None,,,,,0,2,2,2,0,0,0,0,,,,,,,,,,,,,,,,,,,,,,,,,,,,,,,,,158.9434218,None,161.9318261,None,space,0.4851629,161.9318261,None,158.9434218,None,1.065,162.4387185,None,163.5073671,None,None,1,163.5073671,None,165.5112413,None,,,,,,,,,,,,,,,,,,,,,,,,,,,,,,,,P013,fencog,1,Post,2021_Oct_21_1233,N-Back (New Version 2021),2021.1.4,120.1344068
Conditions/Version_1Pr/twoback(1)_v1.xlsx,New rule: Press 'space' when you see 2-back (i.e. the same letter as the one that appeared 2 letters ago.),p,None,,,,,0,2,2,2,0,1,1,1,,,,,,,,,,,,,,,,,,,,,,,,,,,,,,,,,,,,,,,,,,,1.79,167.0108377,None,168.8043743,None,None,1,168.8043743,None,170.8097835,None,,,,,,,,,,,,,,,,,,,,,,,,,,,,,,,,P013,fencog,1,Post,2021_Oct_21_1233,N-Back (New Version 2021),2021.1.4,120.1344068
Conditions/Version_1Pr/twoback(1)_v1.xlsx,New rule: Press 'space' when you see 2-back (i.e. the same letter as the one that appeared 2 letters ago.),e,space,,,,,0,2,2,2,0,2,2,2,,,,,,,,,,,,,,,,,,,,,,,,,,,,,,,,,,,,,,,,,,,1.915,172.3092964,None,174.2275906,None,space,1,174.2275906,None,174.6245437,None,0.3814444,,,,,,,,,,,,,,,,,,,,,,,,,,,,,,,P013,fencog,1,Post,2021_Oct_21_1233,N-Back (New Version 2021),2021.1.4,120.1344068
Conditions/Version_1Pr/twoback(1)_v1.xlsx,New rule: Press 'space' when you see 2-back (i.e. the same letter as the one that appeared 2 letters ago.),s,None,,,,,0,2,2,2,0,3,3,3,,,,,,,,,,,,,,,,,,,,,,,,,,,,,,,,,,,,,,,,,,,1.39,176.1247304,None,177.5190389,None,None,1,177.5190389,None,179.5238809,None,,,,,,,,,,,,,,,,,,,,,,,,,,,,,,,,P013,fencog,1,Post,2021_Oct_21_1233,N-Back (New Version 2021),2021.1.4,120.1344068
Conditions/Version_1Pr/twoback(1)_v1.xlsx,New rule: Press 'space' when you see 2-back (i.e. the same letter as the one that appeared 2 letters ago.),S,None,,,,,0,2,2,2,0,4,4,4,,,,,,,,,,,,,,,,,,,,,,,,,,,,,,,,,,,,,,,,,,,1.84,181.0232569,None,182.8693103,None,None,1,182.8693103,None,184.8722933,None,,,,,,,,,,,,,,,,,,,,,,,,,,,,,,,,P013,fencog,1,Post,2021_Oct_21_1233,N-Back (New Version 2021),2021.1.4,120.1344068
Conditions/Version_1Pr/twoback(1)_v1.xlsx,New rule: Press 'space' when you see 2-back (i.e. the same letter as the one that appeared 2 letters ago.),s,space,,,,,0,2,2,2,0,5,5,5,,,,,,,,,,,,,,,,,,,,,,,,,,,,,,,,,,,,,,,,,,,1.69,186.3718852,None,188.0647949,None,space,1,188.0647949,None,188.4351482,None,0.3523072,,,,,,,,,,,,,,,,,,,,,,,,,,,,,,,P013,fencog,1,Post,2021_Oct_21_1233,N-Back (New Version 2021),2021.1.4,120.1344068
Conditions/Version_1Pr/twoback(1)_v1.xlsx,New rule: Press 'space' when you see 2-back (i.e. the same letter as the one that appeared 2 letters ago.),P,None,,,,,0,2,2,2,0,6,6,6,,,,,,,,,,,,,,,,,,,,,,,,,,,,,,,,,,,,,,,,,,,1.24,189.9375405,None,191.1815942,None,None,1,191.1815942,None,193.1864444,None,,,,,,,,,,,,,,,,,,,,,,,,,,,,,,,,P013,fencog,1,Post,2021_Oct_21_1233,N-Back (New Version 2021),2021.1.4,120.1344068
Conditions/Version_1Pr/twoback(1)_v1.xlsx,New rule: Press 'space' when you see 2-back (i.e. the same letter as the one that appeared 2 letters ago.),C,None,,,,,0,2,2,2,0,7,7,7,,,,,,,,,,,,,,,,,,,,,,,,,,,,,,,,,,,,,,,,,,,1.59,194.6861567,None,196.2774204,None,None,1,196.2774204,None,198.2764658,None,,,,,,,,,,,,,,,,,,,,,,,,,,,,,,,,P013,fencog,1,Post,2021_Oct_21_1233,N-Back (New Version 2021),2021.1.4,120.1344068
Conditions/Version_1Pr/twoback(1)_v1.xlsx,New rule: Press 'space' when you see 2-back (i.e. the same letter as the one that appeared 2 letters ago.),x,None,,,,,0,2,2,2,0,8,8,8,,,,,,,,,,,,,,,,,,,,,,,,,,,,,,,,,,,,,,,,,,,1.865,199.7761713,None,201.6438913,None,None,1,201.6438913,None,203.6501474,None,,,,,,,,,,,,,,,,,,,,,,,,,,,,,,,,P013,fencog,1,Post,2021_Oct_21_1233,N-Back (New Version 2021),2021.1.4,120.1344068
Conditions/Version_1Pr/twoback(1)_v1.xlsx,New rule: Press 'space' when you see 2-back (i.e. the same letter as the one that appeared 2 letters ago.),Z,None,,,,,0,2,2,2,0,9,9,9,,,,,,,,,,,,,,,,,,,,,,,,,,,,,,,,,,,,,,,,,,,1.49,205.1496769,None,206.6430716,None,None,1,206.6430716,None,208.6486051,None,,,,,,,,,,,,,,,,,,,,,,,,,,,,,,,,P013,fencog,1,Post,2021_Oct_21_1233,N-Back (New Version 2021),2021.1.4,120.1344068
Conditions/Version_1Pr/twoback(1)_v1.xlsx,New rule: Press 'space' when you see 2-back (i.e. the same letter as the one that appeared 2 letters ago.),,,,,,,0,2,2,2,,,,,,,,,,,,,,,,,,,,,,,,,,,,,,,,,,,,,,,,,,,,,,,,,,,,,,,,,,,,,,,,,,,,,,,,,,,,,,,,,,,,,,,,,P013,fencog,1,Post,2021_Oct_21_1233,N-Back (New Version 2021),2021.1.4,120.1344068
Conditions/Version_1Pr/threeback(1)_v1.xlsx,New rule: Press 'space' when you see 3-back (i.e. the same letter as the one that appeared 3 letters ago.),r,None,,,,,0,3,3,3,0,0,0,0,,,,,,,,,,,,,,,,,,,,,,,,,,,,,,,,,210.1734216,None,213.1581886,None,space,1.1946123,213.1581886,None,210.1734216,None,1.465,214.3720051,None,215.8401437,None,None,1,215.8401437,None,217.8459731,None,,,,,,,,,,,,,,,,,,,,,,,,,,,,,,,,P013,fencog,1,Post,2021_Oct_21_1233,N-Back (New Version 2021),2021.1.4,120.1344068
Conditions/Version_1Pr/threeback(1)_v1.xlsx,New rule: Press 'space' when you see 3-back (i.e. the same letter as the one that appeared 3 letters ago.),a,None,,,,,0,3,3,3,0,1,1,1,,,,,,,,,,,,,,,,,,,,,,,,,,,,,,,,,,,,,,,,,,,1.565,219.3456034,None,220.9126573,None,None,1,220.9126573,None,222.9195286,None,,,,,,,,,,,,,,,,,,,,,,,,,,,,,,,,P013,fencog,1,Post,2021_Oct_21_1233,N-Back (New Version 2021),2021.1.4,120.1344068
Conditions/Version_1Pr/threeback(1)_v1.xlsx,New rule: Press 'space' when you see 3-back (i.e. the same letter as the one that appeared 3 letters ago.),t,None,,,,,0,3,3,3,0,2,2,2,,,,,,,,,,,,,,,,,,,,,,,,,,,,,,,,,,,,,,,,,,,1.365,224.4189998,None,225.7877775,None,None,1,225.7877775,None,227.7930895,None,,,,,,,,,,,,,,,,,,,,,,,,,,,,,,,,P013,fencog,1,Post,2021_Oct_21_1233,N-Back (New Version 2021),2021.1.4,120.1344068
Conditions/Version_1Pr/threeback(1)_v1.xlsx,New rule: Press 'space' when you see 3-back (i.e. the same letter as the one that appeared 3 letters ago.),r,space,,,,,0,3,3,3,0,3,3,3,,,,,,,,,,,,,,,,,,,,,,,,,,,,,,,,,,,,,,,,,,,1.265,229.2926123,None,230.55876,None,space,1,230.55876,None,231.1029135,None,0.530414,,,,,,,,,,,,,,,,,,,,,,,,,,,,,,,P013,fencog,1,Post,2021_Oct_21_1233,N-Back (New Version 2021),2021.1.4,120.1344068
Conditions/Version_1Pr/threeback(1)_v1.xlsx,New rule: Press 'space' when you see 3-back (i.e. the same letter as the one that appeared 3 letters ago.),a,None,,,,,0,3,3,3,0,4,4,4,,,,,,,,,,,,,,,,,,,,,,,,,,,,,,,,,,,,,,,,,,,2.015,232.6082198,None,234.6265668,None,space,0,234.6265668,None,235.0874355,None,0.4464933,,,,,,,,,,,,,,,,,,,,,,,,,,,,,,,P013,fencog,1,Post,2021_Oct_21_1233,N-Back (New Version 2021),2021.1.4,120.1344068
Conditions/Version_1Pr/threeback(1)_v1.xlsx,New rule: Press 'space' when you see 3-back (i.e. the same letter as the one that appeared 3 letters ago.),Y,None,,,,,0,3,3,3,0,5,5,5,,,,,,,,,,,,,,,,,,,,,,,,,,,,,,,,,,,,,,,,,,,1.065,236.5901821,None,237.6597479,None,None,1,237.6597479,None,239.6657967,None,,,,,,,,,,,,,,,,,,,,,,,,,,,,,,,,P013,fencog,1,Post,2021_Oct_21_1233,N-Back (New Version 2021),2021.1.4,120.1344068
Conditions/Version_1Pr/threeback(1)_v1.xlsx,New rule: Press 'space' when you see 3-back (i.e. the same letter as the one that appeared 3 letters ago.),q,None,,,,,0,3,3,3,0,6,6,6,,,,,,,,,,,,,,,,,,,,,,,,,,,,,,,,,,,,,,,,,,,1.89,241.1641504,None,243.0577369,None,None,1,243.0577369,None,245.0630344,None,,,,,,,,,,,,,,,,,,,,,,,,,,,,,,,,P013,fencog,1,Post,2021_Oct_21_1233,N-Back (New Version 2021),2021.1.4,120.1344068
Conditions/Version_1Pr/threeback(1)_v1.xlsx,New rule: Press 'space' when you see 3-back (i.e. the same letter as the one that appeared 3 letters ago.),A,space,,,,,0,3,3,3,0,7,7,7,,,,,,,,,,,,,,,,,,,,,,,,,,,,,,,,,,,,,,,,,,,1.64,246.5624643,None,248.2077258,None,space,1,248.2077258,None,249.0796451,None,0.8574495,,,,,,,,,,,,,,,,,,,,,,,,,,,,,,,P013,fencog,1,Post,2021_Oct_21_1233,N-Back (New Version 2021),2021.1.4,120.1344068
Conditions/Version_1Pr/threeback(1)_v1.xlsx,New rule: Press 'space' when you see 3-back (i.e. the same letter as the one that appeared 3 letters ago.),y,None,,,,,0,3,3,3,0,8,8,8,,,,,,,,,,,,,,,,,,,,,,,,,,,,,,,,,,,,,,,,,,,1.765,250.5863492,None,252.3542749,None,space,0,252.3542749,None,253.2474747,None,0.8787681,,,,,,,,,,,,,,,,,,,,,,,,,,,,,,,P013,fencog,1,Post,2021_Oct_21_1233,N-Back (New Version 2021),2021.1.4,120.1344068
Conditions/Version_1Pr/threeback(1)_v1.xlsx,New rule: Press 'space' when you see 3-back (i.e. the same letter as the one that appeared 3 letters ago.),r,None,,,,,0,3,3,3,0,9,9,9,,,,,,,,,,,,,,,,,,,,,,,,,,,,,,,,,,,,,,,,,,,1.715,254.7514936,None,256.4690092,None,space,0,256.4690092,None,256.9295307,None,0.4442608,,,,,,,,,,,,,,,,,,,,,,,,,,,,,,,P013,fencog,1,Post,2021_Oct_21_1233,N-Back (New Version 2021),2021.1.4,120.1344068
Conditions/Version_1Pr/threeback(1)_v1.xlsx,New rule: Press 'space' when you see 3-back (i.e. the same letter as the one that appeared 3 letters ago.),,,,,,,0,3,3,3,,,,,,,,,,,,,,,,,,,,,,,,,,,,,,,,,,,,,,,,,,,,,,,,,,,,,,,,,,,,,,,,,,,,,,,,,,,,,,,,,,,,,,,,,P013,fencog,1,Post,2021_Oct_21_1233,N-Back (New Version 2021),2021.1.4,120.1344068
,,,,,,,,,,,,,,,,,,,,,,,,,,,,,,,,,,,,,,,,,,,,,,,,,,,,,,,,,,,,,,,,,,,,,,258.4422764,None,space,1.5395375,258.9338696,None,,,,,,,,,,,,,,,,,,,,,,,,,P013,fencog,1,Post,2021_Oct_21_1233,N-Back (New Version 2021),2021.1.4,120.1344068
,,,,,,,,,,,,,,,,,,,,,,,,,,,,,,,,,,,,,,,,,,,,,,,,,,,,,,,,,,,,,,,,,,,,,,,,,,,,260.5170749,None,space,0.5059307,261.0088108,None,,,,,,,,,,,,,,,,,,,P013,fencog,1,Post,2021_Oct_21_1233,N-Back (New Version 2021),2021.1.4,120.1344068
,,,,Conditions/Version_1/zeroback(1)_v1.xlsx,Rule: Press 'space' when you see the letter 'x' or 'X'.,b,None,,,,,,,,,0,0,0,0,0,0,0,0,,,,,,,,,,,,,,,,,,,,,,,,,,,,,,,,,,,,,,,,,,,,,,,,,,,,,,,,,,,261.6156572,None,264.6001316,None,space,0.4248285,264.6001316,None,261.6156572,None,1.6486,266.7011301,None,None,1,266.7011301,None,,P013,fencog,1,Post,2021_Oct_21_1233,N-Back (New Version 2021),2021.1.4,120.1344068
,,,,Conditions/Version_1/zeroback(1)_v1.xlsx,Rule: Press 'space' when you see the letter 'x' or 'X'.,T,None,,,,,,,,,0,0,0,0,0,1,1,1,,,,,,,,,,,,,,,,,,,,,,,,,,,,,,,,,,,,,,,,,,,,,,,,,,,,,,,,,,,,,,,,,,,,,1.4936,270.2050506,None,None,1,270.2050506,None,,P013,fencog,1,Post,2021_Oct_21_1233,N-Back (New Version 2021),2021.1.4,120.1344068
,,,,Conditions/Version_1/zeroback(1)_v1.xlsx,Rule: Press 'space' when you see the letter 'x' or 'X'.,L,None,,,,,,,,,0,0,0,0,0,2,2,2,,,,,,,,,,,,,,,,,,,,,,,,,,,,,,,,,,,,,,,,,,,,,,,,,,,,,,,,,,,,,,,,,,,,,1.7354,273.9498082,None,None,1,273.9498082,None,,P013,fencog,1,Post,2021_Oct_21_1233,N-Back (New Version 2021),2021.1.4,120.1344068
,,,,Conditions/Version_1/zeroback(1)_v1.xlsx,Rule: Press 'space' when you see the letter 'x' or 'X'.,x,space,,,,,,,,,0,0,0,0,0,3,3,3,,,,,,,,,,,,,,,,,,,,,,,,,,,,,,,,,,,,,,,,,,,,,,,,,,,,,,,,,,,,,,,,,,,,,1.6672,277.6213807,None,space,1,277.6213807,None,0.4197823,P013,fencog,1,Post,2021_Oct_21_1233,N-Back (New Version 2021),2021.1.4,120.1344068
,,,,Conditions/Version_1/zeroback(1)_v1.xlsx,Rule: Press 'space' when you see the letter 'x' or 'X'.,o,None,,,,,,,,,0,0,0,0,0,4,4,4,,,,,,,,,,,,,,,,,,,,,,,,,,,,,,,,,,,,,,,,,,,,,,,,,,,,,,,,,,,,,,,,,,,,,1.072,280.7056874,None,None,1,280.7056874,None,,P013,fencog,1,Post,2021_Oct_21_1233,N-Back (New Version 2021),2021.1.4,120.1344068
,,,,Conditions/Version_1/zeroback(1)_v1.xlsx,Rule: Press 'space' when you see the letter 'x' or 'X'.,P,None,,,,,,,,,0,0,0,0,0,5,5,5,,,,,,,,,,,,,,,,,,,,,,,,,,,,,,,,,,,,,,,,,,,,,,,,,,,,,,,,,,,,,,,,,,,,,1.1774,283.8931828,None,None,1,283.8931828,None,,P013,fencog,1,Post,2021_Oct_21_1233,N-Back (New Version 2021),2021.1.4,120.1344068
,,,,Conditions/Version_1/zeroback(1)_v1.xlsx,Rule: Press 'space' when you see the letter 'x' or 'X'.,X,space,,,,,,,,,0,0,0,0,0,6,6,6,,,,,,,,,,,,,,,,,,,,,,,,,,,,,,,,,,,,,,,,,,,,,,,,,,,,,,,,,,,,,,,,,,,,,1.2642,287.1610851,None,space,1,287.1610851,None,0.3442776,P013,fencog,1,Post,2021_Oct_21_1233,N-Back (New Version 2021),2021.1.4,120.1344068
,,,,Conditions/Version_1/zeroback(1)_v1.xlsx,Rule: Press 'space' when you see the letter 'x' or 'X'.,n,None,,,,,,,,,0,0,0,0,0,7,7,7,,,,,,,,,,,,,,,,,,,,,,,,,,,,,,,,,,,,,,,,,,,,,,,,,,,,,,,,,,,,,,,,,,,,,1.134,290.3036235,None,None,1,290.3036235,None,,P013,fencog,1,Post,2021_Oct_21_1233,N-Back (New Version 2021),2021.1.4,120.1344068
,,,,Conditions/Version_1/zeroback(1)_v1.xlsx,Rule: Press 'space' when you see the letter 'x' or 'X'.,M,None,,,,,,,,,0,0,0,0,0,8,8,8,,,,,,,,,,,,,,,,,,,,,,,,,,,,,,,,,,,,,,,,,,,,,,,,,,,,,,,,,,,,,,,,,,,,,1.0782,293.3941102,None,None,1,293.3941102,None,,P013,fencog,1,Post,2021_Oct_21_1233,N-Back (New Version 2021),2021.1.4,120.1344068
,,,,Conditions/Version_1/zeroback(1)_v1.xlsx,Rule: Press 'space' when you see the letter 'x' or 'X'.,a,None,,,,,,,,,0,0,0,0,0,9,9,9,,,,,,,,,,,,,,,,,,,,,,,,,,,,,,,,,,,,,,,,,,,,,,,,,,,,,,,,,,,,,,,,,,,,,1.1092,296.5159518,None,None,1,296.5159518,None,,P013,fencog,1,Post,2021_Oct_21_1233,N-Back (New Version 2021),2021.1.4,120.1344068
,,,,Conditions/Version_1/zeroback(1)_v1.xlsx,Rule: Press 'space' when you see the letter 'x' or 'X'.,,,,,,,,,,,0,0,0,0,,,,,,,,,,,,,,,,,,,,,,,,,,,,,,,,,,,,,,,,,,,,,,,,,,,,,,,,,,,,,,,,,,,,,,,,,,,,,,,,,P013,fencog,1,Post,2021_Oct_21_1233,N-Back (New Version 2021),2021.1.4,120.1344068
,,,,Conditions/Version_1/oneback(1)_v1.xlsx,New rule: Press 'space' when you see 1-back (i.e. the same letter as the one that appeared 1 letter ago.),b,None,,,,,,,,,0,1,1,1,0,0,0,0,,,,,,,,,,,,,,,,,,,,,,,,,,,,,,,,,,,,,,,,,,,,,,,,,,,,,,,,,,,298.5442585,None,301.5458647,None,space,0.4390059,301.5458647,None,298.5442585,None,1.5618,303.5812016,None,None,1,303.5812016,None,,P013,fencog,1,Post,2021_Oct_21_1233,N-Back (New Version 2021),2021.1.4,120.1344068
,,,,Conditions/Version_1/oneback(1)_v1.xlsx,New rule: Press 'space' when you see 1-back (i.e. the same letter as the one that appeared 1 letter ago.),p,None,,,,,,,,,0,1,1,1,0,1,1,1,,,,,,,,,,,,,,,,,,,,,,,,,,,,,,,,,,,,,,,,,,,,,,,,,,,,,,,,,,,,,,,,,,,,,1.3634,306.9528676,None,None,1,306.9528676,None,,P013,fencog,1,Post,2021_Oct_21_1233,N-Back (New Version 2021),2021.1.4,120.1344068
,,,,Conditions/Version_1/oneback(1)_v1.xlsx,New rule: Press 'space' when you see 1-back (i.e. the same letter as the one that appeared 1 letter ago.),M,None,,,,,,,,,0,1,1,1,0,2,2,2,,,,,,,,,,,,,,,,,,,,,,,,,,,,,,,,,,,,,,,,,,,,,,,,,,,,,,,,,,,,,,,,,,,,,1.0658,310.0201563,None,None,1,310.0201563,None,,P013,fencog,1,Post,2021_Oct_21_1233,N-Back (New Version 2021),2021.1.4,120.1344068
,,,,Conditions/Version_1/oneback(1)_v1.xlsx,New rule: Press 'space' when you see 1-back (i.e. the same letter as the one that appeared 1 letter ago.),M,space,,,,,,,,,0,1,1,1,0,3,3,3,,,,,,,,,,,,,,,,,,,,,,,,,,,,,,,,,,,,,,,,,,,,,,,,,,,,,,,,,,,,,,,,,,,,,1.32,313.351206,None,space,1,313.351206,None,0.5219548,P013,fencog,1,Post,2021_Oct_21_1233,N-Back (New Version 2021),2021.1.4,120.1344068
,,,,Conditions/Version_1/oneback(1)_v1.xlsx,New rule: Press 'space' when you see 1-back (i.e. the same letter as the one that appeared 1 letter ago.),n,None,,,,,,,,,0,1,1,1,0,4,4,4,,,,,,,,,,,,,,,,,,,,,,,,,,,,,,,,,,,,,,,,,,,,,,,,,,,,,,,,,,,,,,,,,,,,,1.3386,316.6928108,None,None,1,316.6928108,None,,P013,fencog,1,Post,2021_Oct_21_1233,N-Back (New Version 2021),2021.1.4,120.1344068
,,,,Conditions/Version_1/oneback(1)_v1.xlsx,New rule: Press 'space' when you see 1-back (i.e. the same letter as the one that appeared 1 letter ago.),g,None,,,,,,,,,0,1,1,1,0,5,5,5,,,,,,,,,,,,,,,,,,,,,,,,,,,,,,,,,,,,,,,,,,,,,,,,,,,,,,,,,,,,,,,,,,,,,1.01,319.7171959,None,None,1,319.7171959,None,,P013,fencog,1,Post,2021_Oct_21_1233,N-Back (New Version 2021),2021.1.4,120.1344068
,,,,Conditions/Version_1/oneback(1)_v1.xlsx,New rule: Press 'space' when you see 1-back (i.e. the same letter as the one that appeared 1 letter ago.),P,None,,,,,,,,,0,1,1,1,0,6,6,6,,,,,,,,,,,,,,,,,,,,,,,,,,,,,,,,,,,,,,,,,,,,,,,,,,,,,,,,,,,,,,,,,,,,,1.537,323.2647825,None,None,1,323.2647825,None,,P013,fencog,1,Post,2021_Oct_21_1233,N-Back (New Version 2021),2021.1.4,120.1344068
,,,,Conditions/Version_1/oneback(1)_v1.xlsx,New rule: Press 'space' when you see 1-back (i.e. the same letter as the one that appeared 1 letter ago.),o,None,,,,,,,,,0,1,1,1,0,7,7,7,,,,,,,,,,,,,,,,,,,,,,,,,,,,,,,,,,,,,,,,,,,,,,,,,,,,,,,,,,,,,,,,,,,,,1.2518,326.5244543,None,None,1,326.5244543,None,,P013,fencog,1,Post,2021_Oct_21_1233,N-Back (New Version 2021),2021.1.4,120.1344068
,,,,Conditions/Version_1/oneback(1)_v1.xlsx,New rule: Press 'space' when you see 1-back (i.e. the same letter as the one that appeared 1 letter ago.),f,None,,,,,,,,,0,1,1,1,0,8,8,8,,,,,,,,,,,,,,,,,,,,,,,,,,,,,,,,,,,,,,,,,,,,,,,,,,,,,,,,,,,,,,,,,,,,,1.2394,329.7740434,None,None,1,329.7740434,None,,P013,fencog,1,Post,2021_Oct_21_1233,N-Back (New Version 2021),2021.1.4,120.1344068
,,,,Conditions/Version_1/oneback(1)_v1.xlsx,New rule: Press 'space' when you see 1-back (i.e. the same letter as the one that appeared 1 letter ago.),F,space,,,,,,,,,0,1,1,1,0,9,9,9,,,,,,,,,,,,,,,,,,,,,,,,,,,,,,,,,,,,,,,,,,,,,,,,,,,,,,,,,,,,,,,,,,,,,1.2952,333.0832083,None,space,1,333.0832083,None,0.5178795,P013,fencog,1,Post,2021_Oct_21_1233,N-Back (New Version 2021),2021.1.4,120.1344068
,,,,Conditions/Version_1/oneback(1)_v1.xlsx,New rule: Press 'space' when you see 1-back (i.e. the same letter as the one that appeared 1 letter ago.),,,,,,,,,,,0,1,1,1,,,,,,,,,,,,,,,,,,,,,,,,,,,,,,,,,,,,,,,,,,,,,,,,,,,,,,,,,,,,,,,,,,,,,,,,,,,,,,,,,P013,fencog,1,Post,2021_Oct_21_1233,N-Back (New Version 2021),2021.1.4,120.1344068
,,,,Conditions/Version_1/twoback(1)_v1.xlsx,New rule: Press 'space' when you see 2-back (i.e. the same letter as the one that appeared 2 letters ago.),b,None,,,,,,,,,0,2,2,2,0,0,0,0,,,,,,,,,,,,,,,,,,,,,,,,,,,,,,,,,,,,,,,,,,,,,,,,,,,,,,,,,,,335.108158,None,338.0987915,None,space,0.3501252,338.0987915,None,335.108158,None,1.8594,340.3354887,None,None,1,340.3354887,None,,P013,fencog,1,Post,2021_Oct_21_1233,N-Back (New Version 2021),2021.1.4,120.1344068
,,,,Conditions/Version_1/twoback(1)_v1.xlsx,New rule: Press 'space' when you see 2-back (i.e. the same letter as the one that appeared 2 letters ago.),h,None,,,,,,,,,0,2,2,2,0,1,1,1,,,,,,,,,,,,,,,,,,,,,,,,,,,,,,,,,,,,,,,,,,,,,,,,,,,,,,,,,,,,,,,,,,,,,1.2208,343.5679436,None,None,1,343.5679436,None,,P013,fencog,1,Post,2021_Oct_21_1233,N-Back (New Version 2021),2021.1.4,120.1344068
,,,,Conditions/Version_1/twoback(1)_v1.xlsx,New rule: Press 'space' when you see 2-back (i.e. the same letter as the one that appeared 2 letters ago.),j,None,,,,,,,,,0,2,2,2,0,2,2,2,,,,,,,,,,,,,,,,,,,,,,,,,,,,,,,,,,,,,,,,,,,,,,,,,,,,,,,,,,,,,,,,,,,,,1.6052,347.188626,None,None,1,347.188626,None,,P013,fencog,1,Post,2021_Oct_21_1233,N-Back (New Version 2021),2021.1.4,120.1344068
,,,,Conditions/Version_1/twoback(1)_v1.xlsx,New rule: Press 'space' when you see 2-back (i.e. the same letter as the one that appeared 2 letters ago.),H,space,,,,,,,,,0,2,2,2,0,3,3,3,,,,,,,,,,,,,,,,,,,,,,,,,,,,,,,,,,,,,,,,,,,,,,,,,,,,,,,,,,,,,,,,,,,,,1.2766,350.4775701,None,space,1,350.4775701,None,0.3799156,P013,fencog,1,Post,2021_Oct_21_1233,N-Back (New Version 2021),2021.1.4,120.1344068
,,,,Conditions/Version_1/twoback(1)_v1.xlsx,New rule: Press 'space' when you see 2-back (i.e. the same letter as the one that appeared 2 letters ago.),p,None,,,,,,,,,0,2,2,2,0,4,4,4,,,,,,,,,,,,,,,,,,,,,,,,,,,,,,,,,,,,,,,,,,,,,,,,,,,,,,,,,,,,,,,,,,,,,1.692,354.174563,None,None,1,354.174563,None,,P013,fencog,1,Post,2021_Oct_21_1233,N-Back (New Version 2021),2021.1.4,120.1344068
,,,,Conditions/Version_1/twoback(1)_v1.xlsx,New rule: Press 'space' when you see 2-back (i.e. the same letter as the one that appeared 2 letters ago.),p,None,,,,,,,,,0,2,2,2,0,5,5,5,,,,,,,,,,,,,,,,,,,,,,,,,,,,,,,,,,,,,,,,,,,,,,,,,,,,,,,,,,,,,,,,,,,,,1.0906,357.2715108,None,None,1,357.2715108,None,,P013,fencog,1,Post,2021_Oct_21_1233,N-Back (New Version 2021),2021.1.4,120.1344068
,,,,Conditions/Version_1/twoback(1)_v1.xlsx,New rule: Press 'space' when you see 2-back (i.e. the same letter as the one that appeared 2 letters ago.),w,None,,,,,,,,,0,2,2,2,0,6,6,6,,,,,,,,,,,,,,,,,,,,,,,,,,,,,,,,,,,,,,,,,,,,,,,,,,,,,,,,,,,,,,,,,,,,,1.4378,360.7120131,None,None,1,360.7120131,None,,P013,fencog,1,Post,2021_Oct_21_1233,N-Back (New Version 2021),2021.1.4,120.1344068
,,,,Conditions/Version_1/twoback(1)_v1.xlsx,New rule: Press 'space' when you see 2-back (i.e. the same letter as the one that appeared 2 letters ago.),R,None,,,,,,,,,0,2,2,2,0,7,7,7,,,,,,,,,,,,,,,,,,,,,,,,,,,,,,,,,,,,,,,,,,,,,,,,,,,,,,,,,,,,,,,,,,,,,1.3758,364.0979953,None,None,1,364.0979953,None,,P013,fencog,1,Post,2021_Oct_21_1233,N-Back (New Version 2021),2021.1.4,120.1344068
,,,,Conditions/Version_1/twoback(1)_v1.xlsx,New rule: Press 'space' when you see 2-back (i.e. the same letter as the one that appeared 2 letters ago.),a,None,,,,,,,,,0,2,2,2,0,8,8,8,,,,,,,,,,,,,,,,,,,,,,,,,,,,,,,,,,,,,,,,,,,,,,,,,,,,,,,,,,,,,,,,,,,,,1.8284,367.9374199,None,None,1,367.9374199,None,,P013,fencog,1,Post,2021_Oct_21_1233,N-Back (New Version 2021),2021.1.4,120.1344068
,,,,Conditions/Version_1/twoback(1)_v1.xlsx,New rule: Press 'space' when you see 2-back (i.e. the same letter as the one that appeared 2 letters ago.),r,space,,,,,,,,,0,2,2,2,0,9,9,9,,,,,,,,,,,,,,,,,,,,,,,,,,,,,,,,,,,,,,,,,,,,,,,,,,,,,,,,,,,,,,,,,,,,,1.3138,371.2590721,None,space,1,371.2590721,None,0.5659464,P013,fencog,1,Post,2021_Oct_21_1233,N-Back (New Version 2021),2021.1.4,120.1344068
,,,,Conditions/Version_1/twoback(1)_v1.xlsx,New rule: Press 'space' when you see 2-back (i.e. the same letter as the one that appeared 2 letters ago.),,,,,,,,,,,0,2,2,2,,,,,,,,,,,,,,,,,,,,,,,,,,,,,,,,,,,,,,,,,,,,,,,,,,,,,,,,,,,,,,,,,,,,,,,,,,,,,,,,,P013,fencog,1,Post,2021_Oct_21_1233,N-Back (New Version 2021),2021.1.4,120.1344068
,,,,Conditions/Version_1/threeback(1)_v1.xlsx,New rule: Press 'space' when you see 3-back (i.e. the same letter as the one that appeared 3 letters ago.),r,None,,,,,,,,,0,3,3,3,0,0,0,0,,,,,,,,,,,,,,,,,,,,,,,,,,,,,,,,,,,,,,,,,,,,,,,,,,,,,,,,,,,373.2828841,None,376.2692057,None,space,1.1397008,376.2692057,None,373.2828841,None,1.878,379.3066841,None,None,1,379.3066841,None,,P013,fencog,1,Post,2021_Oct_21_1233,N-Back (New Version 2021),2021.1.4,120.1344068
,,,,Conditions/Version_1/threeback(1)_v1.xlsx,New rule: Press 'space' when you see 3-back (i.e. the same letter as the one that appeared 3 letters ago.),o,None,,,,,,,,,0,3,3,3,0,1,1,1,,,,,,,,,,,,,,,,,,,,,,,,,,,,,,,,,,,,,,,,,,,,,,,,,,,,,,,,,,,,,,,,,,,,,1.0472,382.3575936,None,None,1,382.3575936,None,,P013,fencog,1,Post,2021_Oct_21_1233,N-Back (New Version 2021),2021.1.4,120.1344068
,,,,Conditions/Version_1/threeback(1)_v1.xlsx,New rule: Press 'space' when you see 3-back (i.e. the same letter as the one that appeared 3 letters ago.),P,None,,,,,,,,,0,3,3,3,0,2,2,2,,,,,,,,,,,,,,,,,,,,,,,,,,,,,,,,,,,,,,,,,,,,,,,,,,,,,,,,,,,,,,,,,,,,,1.7478,386.1139038,None,None,1,386.1139038,None,,P013,fencog,1,Post,2021_Oct_21_1233,N-Back (New Version 2021),2021.1.4,120.1344068
,,,,Conditions/Version_1/threeback(1)_v1.xlsx,New rule: Press 'space' when you see 3-back (i.e. the same letter as the one that appeared 3 letters ago.),R,space,,,,,,,,,0,3,3,3,0,3,3,3,,,,,,,,,,,,,,,,,,,,,,,,,,,,,,,,,,,,,,,,,,,,,,,,,,,,,,,,,,,,,,,,,,,,,1.4068,389.5300368,None,space,1,389.5300368,None,0.4470561,P013,fencog,1,Post,2021_Oct_21_1233,N-Back (New Version 2021),2021.1.4,120.1344068
,,,,Conditions/Version_1/threeback(1)_v1.xlsx,New rule: Press 'space' when you see 3-back (i.e. the same letter as the one that appeared 3 letters ago.),p,None,,,,,,,,,0,3,3,3,0,4,4,4,,,,,,,,,,,,,,,,,,,,,,,,,,,,,,,,,,,,,,,,,,,,,,,,,,,,,,,,,,,,,,,,,,,,,1.2642,392.8040257,None,None,1,392.8040257,None,,P013,fencog,1,Post,2021_Oct_21_1233,N-Back (New Version 2021),2021.1.4,120.1344068
,,,,Conditions/Version_1/threeback(1)_v1.xlsx,New rule: Press 'space' when you see 3-back (i.e. the same letter as the one that appeared 3 letters ago.),E,None,,,,,,,,,0,3,3,3,0,5,5,5,,,,,,,,,,,,,,,,,,,,,,,,,,,,,,,,,,,,,,,,,,,,,,,,,,,,,,,,,,,,,,,,,,,,,1.134,395.9530374,None,None,1,395.9530374,None,,P013,fencog,1,Post,2021_Oct_21_1233,N-Back (New Version 2021),2021.1.4,120.1344068
,,,,Conditions/Version_1/threeback(1)_v1.xlsx,New rule: Press 'space' when you see 3-back (i.e. the same letter as the one that appeared 3 letters ago.),e,None,,,,,,,,,0,3,3,3,0,6,6,6,,,,,,,,,,,,,,,,,,,,,,,,,,,,,,,,,,,,,,,,,,,,,,,,,,,,,,,,,,,,,,,,,,,,,1.8408,399.8029895,None,None,1,399.8029895,None,,P013,fencog,1,Post,2021_Oct_21_1233,N-Back (New Version 2021),2021.1.4,120.1344068
,,,,Conditions/Version_1/threeback(1)_v1.xlsx,New rule: Press 'space' when you see 3-back (i.e. the same letter as the one that appeared 3 letters ago.),m,None,,,,,,,,,0,3,3,3,0,7,7,7,,,,,,,,,,,,,,,,,,,,,,,,,,,,,,,,,,,,,,,,,,,,,,,,,,,,,,,,,,,,,,,,,,,,,1.072,402.8860831,None,None,1,402.8860831,None,,P013,fencog,1,Post,2021_Oct_21_1233,N-Back (New Version 2021),2021.1.4,120.1344068
,,,,Conditions/Version_1/threeback(1)_v1.xlsx,New rule: Press 'space' when you see 3-back (i.e. the same letter as the one that appeared 3 letters ago.),n,None,,,,,,,,,0,3,3,3,0,8,8,8,,,,,,,,,,,,,,,,,,,,,,,,,,,,,,,,,,,,,,,,,,,,,,,,,,,,,,,,,,,,,,,,,,,,,1.0348,405.9343574,None,None,1,405.9343574,None,,P013,fencog,1,Post,2021_Oct_21_1233,N-Back (New Version 2021),2021.1.4,120.1344068
,,,,Conditions/Version_1/threeback(1)_v1.xlsx,New rule: Press 'space' when you see 3-back (i.e. the same letter as the one that appeared 3 letters ago.),e,space,,,,,,,,,0,3,3,3,0,9,9,9,,,,,,,,,,,,,,,,,,,,,,,,,,,,,,,,,,,,,,,,,,,,,,,,,,,,,,,,,,,,,,,,,,,,,1.9338,409.8737811,None,space,1,409.8737811,None,0.3592875,P013,fencog,1,Post,2021_Oct_21_1233,N-Back (New Version 2021),2021.1.4,120.1344068
,,,,Conditions/Version_1/threeback(1)_v1.xlsx,New rule: Press 'space' when you see 3-back (i.e. the same letter as the one that appeared 3 letters ago.),,,,,,,,,,,0,3,3,3,,,,,,,,,,,,,,,,,,,,,,,,,,,,,,,,,,,,,,,,,,,,,,,,,,,,,,,,,,,,,,,,,,,,,,,,,,,,,,,,,P013,fencog,1,Post,2021_Oct_21_1233,N-Back (New Version 2021),2021.1.4,120.1344068
,,,,Conditions/Version_1/oneback(2)_v1.xlsx,New rule: Press 'space' when you see 1-back (i.e. the same letter as the one that appeared 1 letter ago.),q,None,,,,,,,,,0,4,4,4,0,0,0,0,,,,,,,,,,,,,,,,,,,,,,,,,,,,,,,,,,,,,,,,,,,,,,,,,,,,,,,,,,,411.9148411,None,414.8982689,None,space,0.2068925,414.8982689,None,411.9148411,None,1.9834,417.1311128,None,None,1,417.1311128,None,,P013,fencog,1,Post,2021_Oct_21_1233,N-Back (New Version 2021),2021.1.4,120.1344068
,,,,Conditions/Version_1/oneback(2)_v1.xlsx,New rule: Press 'space' when you see 1-back (i.e. the same letter as the one that appeared 1 letter ago.),Q,space,,,,,,,,,0,4,4,4,0,1,1,1,,,,,,,,,,,,,,,,,,,,,,,,,,,,,,,,,,,,,,,,,,,,,,,,,,,,,,,,,,,,,,,,,,,,,1.2952,420.437901,None,space,1,420.437901,None,0.3635074,P013,fencog,1,Post,2021_Oct_21_1233,N-Back (New Version 2021),2021.1.4,120.1344068
,,,,Conditions/Version_1/oneback(2)_v1.xlsx,New rule: Press 'space' when you see 1-back (i.e. the same letter as the one that appeared 1 letter ago.),P,None,,,,,,,,,0,4,4,4,0,2,2,2,,,,,,,,,,,,,,,,,,,,,,,,,,,,,,,,,,,,,,,,,,,,,,,,,,,,,,,,,,,,,,,,,,,,,1.01,423.4612379,None,None,1,423.4612379,None,,P013,fencog,1,Post,2021_Oct_21_1233,N-Back (New Version 2021),2021.1.4,120.1344068
,,,,Conditions/Version_1/oneback(2)_v1.xlsx,New rule: Press 'space' when you see 1-back (i.e. the same letter as the one that appeared 1 letter ago.),o,None,,,,,,,,,0,4,4,4,0,3,3,3,,,,,,,,,,,,,,,,,,,,,,,,,,,,,,,,,,,,,,,,,,,,,,,,,,,,,,,,,,,,,,,,,,,,,1.258,426.7281509,None,None,1,426.7281509,None,,P013,fencog,1,Post,2021_Oct_21_1233,N-Back (New Version 2021),2021.1.4,120.1344068
,,,,Conditions/Version_1/oneback(2)_v1.xlsx,New rule: Press 'space' when you see 1-back (i.e. the same letter as the one that appeared 1 letter ago.),m,None,,,,,,,,,0,4,4,4,0,4,4,4,,,,,,,,,,,,,,,,,,,,,,,,,,,,,,,,,,,,,,,,,,,,,,,,,,,,,,,,,,,,,,,,,,,,,1.4254,430.1605323,None,None,1,430.1605323,None,,P013,fencog,1,Post,2021_Oct_21_1233,N-Back (New Version 2021),2021.1.4,120.1344068
,,,,Conditions/Version_1/oneback(2)_v1.xlsx,New rule: Press 'space' when you see 1-back (i.e. the same letter as the one that appeared 1 letter ago.),Z,None,,,,,,,,,0,4,4,4,0,5,5,5,,,,,,,,,,,,,,,,,,,,,,,,,,,,,,,,,,,,,,,,,,,,,,,,,,,,,,,,,,,,,,,,,,,,,1.3944,433.5662801,None,None,1,433.5662801,None,,P013,fencog,1,Post,2021_Oct_21_1233,N-Back (New Version 2021),2021.1.4,120.1344068
,,,,Conditions/Version_1/oneback(2)_v1.xlsx,New rule: Press 'space' when you see 1-back (i.e. the same letter as the one that appeared 1 letter ago.),c,None,,,,,,,,,0,4,4,4,0,6,6,6,,,,,,,,,,,,,,,,,,,,,,,,,,,,,,,,,,,,,,,,,,,,,,,,,,,,,,,,,,,,,,,,,,,,,1.7602,437.3413767,None,None,1,437.3413767,None,,P013,fencog,1,Post,2021_Oct_21_1233,N-Back (New Version 2021),2021.1.4,120.1344068
,,,,Conditions/Version_1/oneback(2)_v1.xlsx,New rule: Press 'space' when you see 1-back (i.e. the same letter as the one that appeared 1 letter ago.),c,space,,,,,,,,,0,4,4,4,0,7,7,7,,,,,,,,,,,,,,,,,,,,,,,,,,,,,,,,,,,,,,,,,,,,,,,,,,,,,,,,,,,,,,,,,,,,,1.196,440.546973,None,space,1,440.546973,None,0.4140219,P013,fencog,1,Post,2021_Oct_21_1233,N-Back (New Version 2021),2021.1.4,120.1344068
,,,,Conditions/Version_1/oneback(2)_v1.xlsx,New rule: Press 'space' when you see 1-back (i.e. the same letter as the one that appeared 1 letter ago.),P,None,,,,,,,,,0,4,4,4,0,8,8,8,,,,,,,,,,,,,,,,,,,,,,,,,,,,,,,,,,,,,,,,,,,,,,,,,,,,,,,,,,,,,,,,,,,,,1.5308,444.0819279,None,None,1,444.0819279,None,,P013,fencog,1,Post,2021_Oct_21_1233,N-Back (New Version 2021),2021.1.4,120.1344068
,,,,Conditions/Version_1/oneback(2)_v1.xlsx,New rule: Press 'space' when you see 1-back (i.e. the same letter as the one that appeared 1 letter ago.),p,space,,,,,,,,,0,4,4,4,0,9,9,9,,,,,,,,,,,,,,,,,,,,,,,,,,,,,,,,,,,,,,,,,,,,,,,,,,,,,,,,,,,,,,,,,,,,,1.785,447.8795432,None,space,1,447.8795432,None,0.3375631,P013,fencog,1,Post,2021_Oct_21_1233,N-Back (New Version 2021),2021.1.4,120.1344068
,,,,Conditions/Version_1/oneback(2)_v1.xlsx,New rule: Press 'space' when you see 1-back (i.e. the same letter as the one that appeared 1 letter ago.),,,,,,,,,,,0,4,4,4,,,,,,,,,,,,,,,,,,,,,,,,,,,,,,,,,,,,,,,,,,,,,,,,,,,,,,,,,,,,,,,,,,,,,,,,,,,,,,,,,P013,fencog,1,Post,2021_Oct_21_1233,N-Back (New Version 2021),2021.1.4,120.1344068
,,,,Conditions/Version_1/zeroback(2)_v1.xlsx,New rule: Press 'space' when you see the letter 'x' or 'X'.,p,None,,,,,,,,,0,5,5,5,0,0,0,0,,,,,,,,,,,,,,,,,,,,,,,,,,,,,,,,,,,,,,,,,,,,,,,,,,,,,,,,,,,449.9051714,None,452.8963999,None,space,1.544665,452.8963999,None,449.9051714,None,1.4192,455.8924474,None,None,1,455.8924474,None,,P013,fencog,1,Post,2021_Oct_21_1233,N-Back (New Version 2021),2021.1.4,120.1344068
,,,,Conditions/Version_1/zeroback(2)_v1.xlsx,New rule: Press 'space' when you see the letter 'x' or 'X'.,L,None,,,,,,,,,0,5,5,5,0,1,1,1,,,,,,,,,,,,,,,,,,,,,,,,,,,,,,,,,,,,,,,,,,,,,,,,,,,,,,,,,,,,,,,,,,,,,1.5122,459.4092671,None,None,1,459.4092671,None,,P013,fencog,1,Post,2021_Oct_21_1233,N-Back (New Version 2021),2021.1.4,120.1344068
,,,,Conditions/Version_1/zeroback(2)_v1.xlsx,New rule: Press 'space' when you see the letter 'x' or 'X'.,G,None,,,,,,,,,0,5,5,5,0,2,2,2,,,,,,,,,,,,,,,,,,,,,,,,,,,,,,,,,,,,,,,,,,,,,,,,,,,,,,,,,,,,,,,,,,,,,1.3634,462.7869917,None,None,1,462.7869917,None,,P013,fencog,1,Post,2021_Oct_21_1233,N-Back (New Version 2021),2021.1.4,120.1344068
,,,,Conditions/Version_1/zeroback(2)_v1.xlsx,New rule: Press 'space' when you see the letter 'x' or 'X'.,y,None,,,,,,,,,0,5,5,5,0,3,3,3,,,,,,,,,,,,,,,,,,,,,,,,,,,,,,,,,,,,,,,,,,,,,,,,,,,,,,,,,,,,,,,,,,,,,1.9834,466.7761993,None,None,1,466.7761993,None,,P013,fencog,1,Post,2021_Oct_21_1233,N-Back (New Version 2021),2021.1.4,120.1344068
,,,,Conditions/Version_1/zeroback(2)_v1.xlsx,New rule: Press 'space' when you see the letter 'x' or 'X'.,Y,None,,,,,,,,,0,5,5,5,0,4,4,4,,,,,,,,,,,,,,,,,,,,,,,,,,,,,,,,,,,,,,,,,,,,,,,,,,,,,,,,,,,,,,,,,,,,,1.8098,470.5983351,None,None,1,470.5983351,None,,P013,fencog,1,Post,2021_Oct_21_1233,N-Back (New Version 2021),2021.1.4,120.1344068
,,,,Conditions/Version_1/zeroback(2)_v1.xlsx,New rule: Press 'space' when you see the letter 'x' or 'X'.,W,None,,,,,,,,,0,5,5,5,0,5,5,5,,,,,,,,,,,,,,,,,,,,,,,,,,,,,,,,,,,,,,,,,,,,,,,,,,,,,,,,,,,,,,,,,,,,,1.0906,473.6971082,None,None,1,473.6971082,None,,P013,fencog,1,Post,2021_Oct_21_1233,N-Back (New Version 2021),2021.1.4,120.1344068
,,,,Conditions/Version_1/zeroback(2)_v1.xlsx,New rule: Press 'space' when you see the letter 'x' or 'X'.,x,space,,,,,,,,,0,5,5,5,0,6,6,6,,,,,,,,,,,,,,,,,,,,,,,,,,,,,,,,,,,,,,,,,,,,,,,,,,,,,,,,,,,,,,,,,,,,,1.9214,477.6286938,None,space,1,477.6286938,None,0.3808823,P013,fencog,1,Post,2021_Oct_21_1233,N-Back (New Version 2021),2021.1.4,120.1344068
,,,,Conditions/Version_1/zeroback(2)_v1.xlsx,New rule: Press 'space' when you see the letter 'x' or 'X'.,X,space,,,,,,,,,0,5,5,5,0,7,7,7,,,,,,,,,,,,,,,,,,,,,,,,,,,,,,,,,,,,,,,,,,,,,,,,,,,,,,,,,,,,,,,,,,,,,1.4626,481.1057454,None,space,1,481.1057454,None,0.5434792,P013,fencog,1,Post,2021_Oct_21_1233,N-Back (New Version 2021),2021.1.4,120.1344068
,,,,Conditions/Version_1/zeroback(2)_v1.xlsx,New rule: Press 'space' when you see the letter 'x' or 'X'.,p,None,,,,,,,,,0,5,5,5,0,8,8,8,,,,,,,,,,,,,,,,,,,,,,,,,,,,,,,,,,,,,,,,,,,,,,,,,,,,,,,,,,,,,,,,,,,,,1.9896,485.1022134,None,None,1,485.1022134,None,,P013,fencog,1,Post,2021_Oct_21_1233,N-Back (New Version 2021),2021.1.4,120.1344068
,,,,Conditions/Version_1/zeroback(2)_v1.xlsx,New rule: Press 'space' when you see the letter 'x' or 'X'.,h,None,,,,,,,,,0,5,5,5,0,9,9,9,,,,,,,,,,,,,,,,,,,,,,,,,,,,,,,,,,,,,,,,,,,,,,,,,,,,,,,,,,,,,,,,,,,,,1.1402,488.2515795,None,None,1,488.2515795,None,,P013,fencog,1,Post,2021_Oct_21_1233,N-Back (New Version 2021),2021.1.4,120.1344068
,,,,Conditions/Version_1/zeroback(2)_v1.xlsx,New rule: Press 'space' when you see the letter 'x' or 'X'.,,,,,,,,,,,0,5,5,5,,,,,,,,,,,,,,,,,,,,,,,,,,,,,,,,,,,,,,,,,,,,,,,,,,,,,,,,,,,,,,,,,,,,,,,,,,,,,,,,,P013,fencog,1,Post,2021_Oct_21_1233,N-Back (New Version 2021),2021.1.4,120.1344068
,,,,Conditions/Version_1/threeback(2)_v1.xlsx,New rule: Press 'space' when you see 3-back (i.e. the same letter as the one that appeared 3 letters ago.),q,None,,,,,,,,,0,6,6,6,0,0,0,0,,,,,,,,,,,,,,,,,,,,,,,,,,,,,,,,,,,,,,,,,,,,,,,,,,,,,,,,,,,490.2760999,None,493.2675373,None,space,0.1102247,493.2675373,None,490.2760999,None,1.041,494.4575443,None,None,1,494.4575443,None,,P013,fencog,1,Post,2021_Oct_21_1233,N-Back (New Version 2021),2021.1.4,120.1344068
,,,,Conditions/Version_1/threeback(2)_v1.xlsx,New rule: Press 'space' when you see 3-back (i.e. the same letter as the one that appeared 3 letters ago.),Y,None,,,,,,,,,0,6,6,6,0,1,1,1,,,,,,,,,,,,,,,,,,,,,,,,,,,,,,,,,,,,,,,,,,,,,,,,,,,,,,,,,,,,,,,,,,,,,1.165,497.6324596,None,None,1,497.6324596,None,,P013,fencog,1,Post,2021_Oct_21_1233,N-Back (New Version 2021),2021.1.4,120.1344068
,,,,Conditions/Version_1/threeback(2)_v1.xlsx,New rule: Press 'space' when you see 3-back (i.e. the same letter as the one that appeared 3 letters ago.),p,None,,,,,,,,,0,6,6,6,0,2,2,2,,,,,,,,,,,,,,,,,,,,,,,,,,,,,,,,,,,,,,,,,,,,,,,,,,,,,,,,,,,,,,,,,,,,,1.7726,501.4125383,None,None,1,501.4125383,None,,P013,fencog,1,Post,2021_Oct_21_1233,N-Back (New Version 2021),2021.1.4,120.1344068
,,,,Conditions/Version_1/threeback(2)_v1.xlsx,New rule: Press 'space' when you see 3-back (i.e. the same letter as the one that appeared 3 letters ago.),p,None,,,,,,,,,0,6,6,6,0,3,3,3,,,,,,,,,,,,,,,,,,,,,,,,,,,,,,,,,,,,,,,,,,,,,,,,,,,,,,,,,,,,,,,,,,,,,1.7416,505.1531499,None,None,1,505.1531499,None,,P013,fencog,1,Post,2021_Oct_21_1233,N-Back (New Version 2021),2021.1.4,120.1344068
,,,,Conditions/Version_1/threeback(2)_v1.xlsx,New rule: Press 'space' when you see 3-back (i.e. the same letter as the one that appeared 3 letters ago.),y,space,,,,,,,,,0,6,6,6,0,4,4,4,,,,,,,,,,,,,,,,,,,,,,,,,,,,,,,,,,,,,,,,,,,,,,,,,,,,,,,,,,,,,,,,,,,,,1.5866,508.7454665,None,space,1,508.7454665,None,0.7281726,P013,fencog,1,Post,2021_Oct_21_1233,N-Back (New Version 2021),2021.1.4,120.1344068
,,,,Conditions/Version_1/threeback(2)_v1.xlsx,New rule: Press 'space' when you see 3-back (i.e. the same letter as the one that appeared 3 letters ago.),u,None,,,,,,,,,0,6,6,6,0,5,5,5,,,,,,,,,,,,,,,,,,,,,,,,,,,,,,,,,,,,,,,,,,,,,,,,,,,,,,,,,,,,,,,,,,,,,1.2394,511.9939367,None,None,1,511.9939367,None,,P013,fencog,1,Post,2021_Oct_21_1233,N-Back (New Version 2021),2021.1.4,120.1344068
,,,,Conditions/Version_1/threeback(2)_v1.xlsx,New rule: Press 'space' when you see 3-back (i.e. the same letter as the one that appeared 3 letters ago.),P,space,,,,,,,,,0,6,6,6,0,6,6,6,,,,,,,,,,,,,,,,,,,,,,,,,,,,,,,,,,,,,,,,,,,,,,,,,,,,,,,,,,,,,,,,,,,,,1.3448,515.3521212,None,space,1,515.3521212,None,0.6333448,P013,fencog,1,Post,2021_Oct_21_1233,N-Back (New Version 2021),2021.1.4,120.1344068
,,,,Conditions/Version_1/threeback(2)_v1.xlsx,New rule: Press 'space' when you see 3-back (i.e. the same letter as the one that appeared 3 letters ago.),a,None,,,,,,,,,0,6,6,6,0,7,7,7,,,,,,,,,,,,,,,,,,,,,,,,,,,,,,,,,,,,,,,,,,,,,,,,,,,,,,,,,,,,,,,,,,,,,1.0782,518.4457163,None,None,1,518.4457163,None,,P013,fencog,1,Post,2021_Oct_21_1233,N-Back (New Version 2021),2021.1.4,120.1344068
,,,,Conditions/Version_1/threeback(2)_v1.xlsx,New rule: Press 'space' when you see 3-back (i.e. the same letter as the one that appeared 3 letters ago.),U,space,,,,,,,,,0,6,6,6,0,8,8,8,,,,,,,,,,,,,,,,,,,,,,,,,,,,,,,,,,,,,,,,,,,,,,,,,,,,,,,,,,,,,,,,,,,,,1.5308,521.9841788,None,space,1,521.9841788,None,0.497085,P013,fencog,1,Post,2021_Oct_21_1233,N-Back (New Version 2021),2021.1.4,120.1344068
,,,,Conditions/Version_1/threeback(2)_v1.xlsx,New rule: Press 'space' when you see 3-back (i.e. the same letter as the one that appeared 3 letters ago.),q,None,,,,,,,,,0,6,6,6,0,9,9,9,,,,,,,,,,,,,,,,,,,,,,,,,,,,,,,,,,,,,,,,,,,,,,,,,,,,,,,,,,,,,,,,,,,,,1.289,525.2803503,None,None,1,525.2803503,None,,P013,fencog,1,Post,2021_Oct_21_1233,N-Back (New Version 2021),2021.1.4,120.1344068
,,,,Conditions/Version_1/threeback(2)_v1.xlsx,New rule: Press 'space' when you see 3-back (i.e. the same letter as the one that appeared 3 letters ago.),,,,,,,,,,,0,6,6,6,,,,,,,,,,,,,,,,,,,,,,,,,,,,,,,,,,,,,,,,,,,,,,,,,,,,,,,,,,,,,,,,,,,,,,,,,,,,,,,,,P013,fencog,1,Post,2021_Oct_21_1233,N-Back (New Version 2021),2021.1.4,120.1344068
,,,,Conditions/Version_1/twoback(2)_v1.xlsx,New rule: Press 'space' when you see 2-back (i.e. the same letter as the one that appeared 2 letters ago.),q,None,,,,,,,,,0,7,7,7,0,0,0,0,,,,,,,,,,,,,,,,,,,,,,,,,,,,,,,,,,,,,,,,,,,,,,,,,,,,,,,,,,,527.3051135,None,530.2813127,None,space,0.2560352,530.2813127,None,527.3051135,None,1.3634,531.9200819,None,None,1,531.9200819,None,,P013,fencog,1,Post,2021_Oct_21_1233,N-Back (New Version 2021),2021.1.4,120.1344068
,,,,Conditions/Version_1/twoback(2)_v1.xlsx,New rule: Press 'space' when you see 2-back (i.e. the same letter as the one that appeared 2 letters ago.),r,None,,,,,,,,,0,7,7,7,0,1,1,1,,,,,,,,,,,,,,,,,,,,,,,,,,,,,,,,,,,,,,,,,,,,,,,,,,,,,,,,,,,,,,,,,,,,,1.4874,535.4130444,None,None,1,535.4130444,None,,P013,fencog,1,Post,2021_Oct_21_1233,N-Back (New Version 2021),2021.1.4,120.1344068
,,,,Conditions/Version_1/twoback(2)_v1.xlsx,New rule: Press 'space' when you see 2-back (i.e. the same letter as the one that appeared 2 letters ago.),q,space,,,,,,,,,0,7,7,7,0,2,2,2,,,,,,,,,,,,,,,,,,,,,,,,,,,,,,,,,,,,,,,,,,,,,,,,,,,,,,,,,,,,,,,,,,,,,1.568,538.9939,None,space,1,538.9939,None,0.6794423,P013,fencog,1,Post,2021_Oct_21_1233,N-Back (New Version 2021),2021.1.4,120.1344068
,,,,Conditions/Version_1/twoback(2)_v1.xlsx,New rule: Press 'space' when you see 2-back (i.e. the same letter as the one that appeared 2 letters ago.),P,None,,,,,,,,,0,7,7,7,0,3,3,3,,,,,,,,,,,,,,,,,,,,,,,,,,,,,,,,,,,,,,,,,,,,,,,,,,,,,,,,,,,,,,,,,,,,,1.7664,542.7674597,None,None,1,542.7674597,None,,P013,fencog,1,Post,2021_Oct_21_1233,N-Back (New Version 2021),2021.1.4,120.1344068
,,,,Conditions/Version_1/twoback(2)_v1.xlsx,New rule: Press 'space' when you see 2-back (i.e. the same letter as the one that appeared 2 letters ago.),p,None,,,,,,,,,0,7,7,7,0,4,4,4,,,,,,,,,,,,,,,,,,,,,,,,,,,,,,,,,,,,,,,,,,,,,,,,,,,,,,,,,,,,,,,,,,,,,1.9772,546.7586744,None,None,1,546.7586744,None,,P013,fencog,1,Post,2021_Oct_21_1233,N-Back (New Version 2021),2021.1.4,120.1344068
,,,,Conditions/Version_1/twoback(2)_v1.xlsx,New rule: Press 'space' when you see 2-back (i.e. the same letter as the one that appeared 2 letters ago.),H,None,,,,,,,,,0,7,7,7,0,5,5,5,,,,,,,,,,,,,,,,,,,,,,,,,,,,,,,,,,,,,,,,,,,,,,,,,,,,,,,,,,,,,,,,,,,,,1.6424,550.417122,None,None,1,550.417122,None,,P013,fencog,1,Post,2021_Oct_21_1233,N-Back (New Version 2021),2021.1.4,120.1344068
,,,,Conditions/Version_1/twoback(2)_v1.xlsx,New rule: Press 'space' when you see 2-back (i.e. the same letter as the one that appeared 2 letters ago.),g,None,,,,,,,,,0,7,7,7,0,6,6,6,,,,,,,,,,,,,,,,,,,,,,,,,,,,,,,,,,,,,,,,,,,,,,,,,,,,,,,,,,,,,,,,,,,,,1.785,554.2149263,None,None,1,554.2149263,None,,P013,fencog,1,Post,2021_Oct_21_1233,N-Back (New Version 2021),2021.1.4,120.1344068
,,,,Conditions/Version_1/twoback(2)_v1.xlsx,New rule: Press 'space' when you see 2-back (i.e. the same letter as the one that appeared 2 letters ago.),j,None,,,,,,,,,0,7,7,7,0,7,7,7,,,,,,,,,,,,,,,,,,,,,,,,,,,,,,,,,,,,,,,,,,,,,,,,,,,,,,,,,,,,,,,,,,,,,1.9896,558.2138507,None,None,1,558.2138507,None,,P013,fencog,1,Post,2021_Oct_21_1233,N-Back (New Version 2021),2021.1.4,120.1344068
,,,,Conditions/Version_1/twoback(2)_v1.xlsx,New rule: Press 'space' when you see 2-back (i.e. the same letter as the one that appeared 2 letters ago.),g,space,,,,,,,,,0,7,7,7,0,8,8,8,,,,,,,,,,,,,,,,,,,,,,,,,,,,,,,,,,,,,,,,,,,,,,,,,,,,,,,,,,,,,,,,,,,,,1.0534,561.2820896,None,None,0,561.2820896,None,,P013,fencog,1,Post,2021_Oct_21_1233,N-Back (New Version 2021),2021.1.4,120.1344068
,,,,Conditions/Version_1/twoback(2)_v1.xlsx,New rule: Press 'space' when you see 2-back (i.e. the same letter as the one that appeared 2 letters ago.),G,None,,,,,,,,,0,7,7,7,0,9,9,9,,,,,,,,,,,,,,,,,,,,,,,,,,,,,,,,,,,,,,,,,,,,,,,,,,,,,,,,,,,,,,,,,,,,,1.9586,565.2457986,None,None,1,565.2457986,None,,P013,fencog,1,Post,2021_Oct_21_1233,N-Back (New Version 2021),2021.1.4,120.1344068
,,,,Conditions/Version_1/twoback(2)_v1.xlsx,New rule: Press 'space' when you see 2-back (i.e. the same letter as the one that appeared 2 letters ago.),,,,,,,,,,,0,7,7,7,,,,,,,,,,,,,,,,,,,,,,,,,,,,,,,,,,,,,,,,,,,,,,,,,,,,,,,,,,,,,,,,,,,,,,,,,,,,,,,,,P013,fencog,1,Post,2021_Oct_21_1233,N-Back (New Version 2021),2021.1.4,120.1344068
,,,,Conditions/Version_1/threeback(3)_v1.xlsx,New rule: Press 'space' when you see 3-back (i.e. the same letter as the one that appeared 3 letters ago.),w,None,,,,,,,,,0,8,8,8,0,0,0,0,,,,,,,,,,,,,,,,,,,,,,,,,,,,,,,,,,,,,,,,,,,,,,,,,,,,,,,,,,,567.2690358,None,570.2522618,None,space,0.5569284,570.2522618,None,567.2690358,None,1.1402,571.9925733,None,None,1,571.9925733,None,,P013,fencog,1,Post,2021_Oct_21_1233,N-Back (New Version 2021),2021.1.4,120.1344068
,,,,Conditions/Version_1/threeback(3)_v1.xlsx,New rule: Press 'space' when you see 3-back (i.e. the same letter as the one that appeared 3 letters ago.),p,None,,,,,,,,,0,8,8,8,0,1,1,1,,,,,,,,,,,,,,,,,,,,,,,,,,,,,,,,,,,,,,,,,,,,,,,,,,,,,,,,,,,,,,,,,,,,,1.4998,575.5011065,None,None,1,575.5011065,None,,P013,fencog,1,Post,2021_Oct_21_1233,N-Back (New Version 2021),2021.1.4,120.1344068
,,,,Conditions/Version_1/threeback(3)_v1.xlsx,New rule: Press 'space' when you see 3-back (i.e. the same letter as the one that appeared 3 letters ago.),P,None,,,,,,,,,0,8,8,8,0,2,2,2,,,,,,,,,,,,,,,,,,,,,,,,,,,,,,,,,,,,,,,,,,,,,,,,,,,,,,,,,,,,,,,,,,,,,1.3634,578.8750627,None,None,1,578.8750627,None,,P013,fencog,1,Post,2021_Oct_21_1233,N-Back (New Version 2021),2021.1.4,120.1344068
,,,,Conditions/Version_1/threeback(3)_v1.xlsx,New rule: Press 'space' when you see 3-back (i.e. the same letter as the one that appeared 3 letters ago.),i,None,,,,,,,,,0,8,8,8,0,3,3,3,,,,,,,,,,,,,,,,,,,,,,,,,,,,,,,,,,,,,,,,,,,,,,,,,,,,,,,,,,,,,,,,,,,,,1.3572,582.2425091,None,None,1,582.2425091,None,,P013,fencog,1,Post,2021_Oct_21_1233,N-Back (New Version 2021),2021.1.4,120.1344068
,,,,Conditions/Version_1/threeback(3)_v1.xlsx,New rule: Press 'space' when you see 3-back (i.e. the same letter as the one that appeared 3 letters ago.),f,None,,,,,,,,,0,8,8,8,0,4,4,4,,,,,,,,,,,,,,,,,,,,,,,,,,,,,,,,,,,,,,,,,,,,,,,,,,,,,,,,,,,,,,,,,,,,,1.0596,585.3148404,None,None,1,585.3148404,None,,P013,fencog,1,Post,2021_Oct_21_1233,N-Back (New Version 2021),2021.1.4,120.1344068
,,,,Conditions/Version_1/threeback(3)_v1.xlsx,New rule: Press 'space' when you see 3-back (i.e. the same letter as the one that appeared 3 letters ago.),o,None,,,,,,,,,0,8,8,8,0,5,5,5,,,,,,,,,,,,,,,,,,,,,,,,,,,,,,,,,,,,,,,,,,,,,,,,,,,,,,,,,,,,,,,,,,,,,1.6982,589.0197778,None,None,1,589.0197778,None,,P013,fencog,1,Post,2021_Oct_21_1233,N-Back (New Version 2021),2021.1.4,120.1344068
,,,,Conditions/Version_1/threeback(3)_v1.xlsx,New rule: Press 'space' when you see 3-back (i.e. the same letter as the one that appeared 3 letters ago.),w,None,,,,,,,,,0,8,8,8,0,6,6,6,,,,,,,,,,,,,,,,,,,,,,,,,,,,,,,,,,,,,,,,,,,,,,,,,,,,,,,,,,,,,,,,,,,,,1.878,592.9041282,None,None,1,592.9041282,None,,P013,fencog,1,Post,2021_Oct_21_1233,N-Back (New Version 2021),2021.1.4,120.1344068
,,,,Conditions/Version_1/threeback(3)_v1.xlsx,New rule: Press 'space' when you see 3-back (i.e. the same letter as the one that appeared 3 letters ago.),F,space,,,,,,,,,0,8,8,8,0,7,7,7,,,,,,,,,,,,,,,,,,,,,,,,,,,,,,,,,,,,,,,,,,,,,,,,,,,,,,,,,,,,,,,,,,,,,1.134,596.0430039,None,None,0,596.0430039,None,,P013,fencog,1,Post,2021_Oct_21_1233,N-Back (New Version 2021),2021.1.4,120.1344068
,,,,Conditions/Version_1/threeback(3)_v1.xlsx,New rule: Press 'space' when you see 3-back (i.e. the same letter as the one that appeared 3 letters ago.),p,None,,,,,,,,,0,8,8,8,0,8,8,8,,,,,,,,,,,,,,,,,,,,,,,,,,,,,,,,,,,,,,,,,,,,,,,,,,,,,,,,,,,,,,,,,,,,,1.4006,599.4505074,None,None,1,599.4505074,None,,P013,fencog,1,Post,2021_Oct_21_1233,N-Back (New Version 2021),2021.1.4,120.1344068
,,,,Conditions/Version_1/threeback(3)_v1.xlsx,New rule: Press 'space' when you see 3-back (i.e. the same letter as the one that appeared 3 letters ago.),W,space,,,,,,,,,0,8,8,8,0,9,9,9,,,,,,,,,,,,,,,,,,,,,,,,,,,,,,,,,,,,,,,,,,,,,,,,,,,,,,,,,,,,,,,,,,,,,1.5742,603.0243802,None,space,1,603.0243802,None,0.6171272,P013,fencog,1,Post,2021_Oct_21_1233,N-Back (New Version 2021),2021.1.4,120.1344068
,,,,Conditions/Version_1/threeback(3)_v1.xlsx,New rule: Press 'space' when you see 3-back (i.e. the same letter as the one that appeared 3 letters ago.),,,,,,,,,,,0,8,8,8,,,,,,,,,,,,,,,,,,,,,,,,,,,,,,,,,,,,,,,,,,,,,,,,,,,,,,,,,,,,,,,,,,,,,,,,,,,,,,,,,P013,fencog,1,Post,2021_Oct_21_1233,N-Back (New Version 2021),2021.1.4,120.1344068
,,,,Conditions/Version_1/zeroback(3)_v1.xlsx,New rule: Press 'space' when you see the letter 'x' or 'X'.,X,space,,,,,,,,,0,9,9,9,0,0,0,0,,,,,,,,,,,,,,,,,,,,,,,,,,,,,,,,,,,,,,,,,,,,,,,,,,,,,,,,,,,605.0449213,None,608.0333717,None,space,0.2638862,608.0333717,None,605.0449213,None,1.9214,610.2410985,None,space,1,610.2410985,None,1.7759486,P013,fencog,1,Post,2021_Oct_21_1233,N-Back (New Version 2021),2021.1.4,120.1344068
,,,,Conditions/Version_1/zeroback(3)_v1.xlsx,New rule: Press 'space' when you see the letter 'x' or 'X'.,B,None,,,,,,,,,0,9,9,9,0,1,1,1,,,,,,,,,,,,,,,,,,,,,,,,,,,,,,,,,,,,,,,,,,,,,,,,,,,,,,,,,,,,,,,,,,,,,1.2518,613.5067184,None,None,1,613.5067184,None,,P013,fencog,1,Post,2021_Oct_21_1233,N-Back (New Version 2021),2021.1.4,120.1344068
,,,,Conditions/Version_1/zeroback(3)_v1.xlsx,New rule: Press 'space' when you see the letter 'x' or 'X'.,m,None,,,,,,,,,0,9,9,9,0,2,2,2,,,,,,,,,,,,,,,,,,,,,,,,,,,,,,,,,,,,,,,,,,,,,,,,,,,,,,,,,,,,,,,,,,,,,1.8656,617.3795994,None,None,1,617.3795994,None,,P013,fencog,1,Post,2021_Oct_21_1233,N-Back (New Version 2021),2021.1.4,120.1344068
,,,,Conditions/Version_1/zeroback(3)_v1.xlsx,New rule: Press 'space' when you see the letter 'x' or 'X'.,m,None,,,,,,,,,0,9,9,9,0,3,3,3,,,,,,,,,,,,,,,,,,,,,,,,,,,,,,,,,,,,,,,,,,,,,,,,,,,,,,,,,,,,,,,,,,,,,1.692,621.0772523,None,None,1,621.0772523,None,,P013,fencog,1,Post,2021_Oct_21_1233,N-Back (New Version 2021),2021.1.4,120.1344068
,,,,Conditions/Version_1/zeroback(3)_v1.xlsx,New rule: Press 'space' when you see the letter 'x' or 'X'.,o,None,,,,,,,,,0,9,9,9,0,4,4,4,,,,,,,,,,,,,,,,,,,,,,,,,,,,,,,,,,,,,,,,,,,,,,,,,,,,,,,,,,,,,,,,,,,,,1.2456,624.3287309,None,None,1,624.3287309,None,,P013,fencog,1,Post,2021_Oct_21_1233,N-Back (New Version 2021),2021.1.4,120.1344068
,,,,Conditions/Version_1/zeroback(3)_v1.xlsx,New rule: Press 'space' when you see the letter 'x' or 'X'.,p,None,,,,,,,,,0,9,9,9,0,5,5,5,,,,,,,,,,,,,,,,,,,,,,,,,,,,,,,,,,,,,,,,,,,,,,,,,,,,,,,,,,,,,,,,,,,,,1.568,627.9109707,None,None,1,627.9109707,None,,P013,fencog,1,Post,2021_Oct_21_1233,N-Back (New Version 2021),2021.1.4,120.1344068
,,,,Conditions/Version_1/zeroback(3)_v1.xlsx,New rule: Press 'space' when you see the letter 'x' or 'X'.,G,None,,,,,,,,,0,9,9,9,0,6,6,6,,,,,,,,,,,,,,,,,,,,,,,,,,,,,,,,,,,,,,,,,,,,,,,,,,,,,,,,,,,,,,,,,,,,,1.3758,631.2999053,None,None,1,631.2999053,None,,P013,fencog,1,Post,2021_Oct_21_1233,N-Back (New Version 2021),2021.1.4,120.1344068
,,,,Conditions/Version_1/zeroback(3)_v1.xlsx,New rule: Press 'space' when you see the letter 'x' or 'X'.,X,space,,,,,,,,,0,9,9,9,0,7,7,7,,,,,,,,,,,,,,,,,,,,,,,,,,,,,,,,,,,,,,,,,,,,,,,,,,,,,,,,,,,,,,,,,,,,,1.0472,634.3584299,None,space,1,634.3584299,None,0.4510669,P013,fencog,1,Post,2021_Oct_21_1233,N-Back (New Version 2021),2021.1.4,120.1344068
,,,,Conditions/Version_1/zeroback(3)_v1.xlsx,New rule: Press 'space' when you see the letter 'x' or 'X'.,p,None,,,,,,,,,0,9,9,9,0,8,8,8,,,,,,,,,,,,,,,,,,,,,,,,,,,,,,,,,,,,,,,,,,,,,,,,,,,,,,,,,,,,,,,,,,,,,1.1836,637.5474013,None,None,1,637.5474013,None,,P013,fencog,1,Post,2021_Oct_21_1233,N-Back (New Version 2021),2021.1.4,120.1344068
,,,,Conditions/Version_1/zeroback(3)_v1.xlsx,New rule: Press 'space' when you see the letter 'x' or 'X'.,x,space,,,,,,,,,0,9,9,9,0,9,9,9,,,,,,,,,,,,,,,,,,,,,,,,,,,,,,,,,,,,,,,,,,,,,,,,,,,,,,,,,,,,,,,,,,,,,1.4626,641.0130253,None,None,0,641.0130253,None,,P013,fencog,1,Post,2021_Oct_21_1233,N-Back (New Version 2021),2021.1.4,120.1344068
,,,,Conditions/Version_1/zeroback(3)_v1.xlsx,New rule: Press 'space' when you see the letter 'x' or 'X'.,,,,,,,,,,,0,9,9,9,,,,,,,,,,,,,,,,,,,,,,,,,,,,,,,,,,,,,,,,,,,,,,,,,,,,,,,,,,,,,,,,,,,,,,,,,,,,,,,,,P013,fencog,1,Post,2021_Oct_21_1233,N-Back (New Version 2021),2021.1.4,120.1344068
,,,,Conditions/Version_1/twoback(3)_v1.xlsx,New rule: Press 'space' when you see 2-back (i.e. the same letter as the one that appeared 2 letters ago.),e,None,,,,,,,,,0,10,10,10,0,0,0,0,,,,,,,,,,,,,,,,,,,,,,,,,,,,,,,,,,,,,,,,,,,,,,,,,,,,,,,,,,,643.0365731,None,646.0241401,None,space,0.2095662,646.0241401,None,643.0365731,None,1.103,647.3634936,None,None,1,647.3634936,None,,P013,fencog,1,Post,2021_Oct_21_1233,N-Back (New Version 2021),2021.1.4,120.1344068
,,,,Conditions/Version_1/twoback(3)_v1.xlsx,New rule: Press 'space' when you see 2-back (i.e. the same letter as the one that appeared 2 letters ago.),o,None,,,,,,,,,0,10,10,10,0,1,1,1,,,,,,,,,,,,,,,,,,,,,,,,,,,,,,,,,,,,,,,,,,,,,,,,,,,,,,,,,,,,,,,,,,,,,1.2704,650.6452719,None,None,1,650.6452719,None,,P013,fencog,1,Post,2021_Oct_21_1233,N-Back (New Version 2021),2021.1.4,120.1344068
,,,,Conditions/Version_1/twoback(3)_v1.xlsx,New rule: Press 'space' when you see 2-back (i.e. the same letter as the one that appeared 2 letters ago.),P,None,,,,,,,,,0,10,10,10,0,2,2,2,,,,,,,,,,,,,,,,,,,,,,,,,,,,,,,,,,,,,,,,,,,,,,,,,,,,,,,,,,,,,,,,,,,,,1.196,653.8518839,None,None,1,653.8518839,None,,P013,fencog,1,Post,2021_Oct_21_1233,N-Back (New Version 2021),2021.1.4,120.1344068
,,,,Conditions/Version_1/twoback(3)_v1.xlsx,New rule: Press 'space' when you see 2-back (i.e. the same letter as the one that appeared 2 letters ago.),z,None,,,,,,,,,0,10,10,10,0,3,3,3,,,,,,,,,,,,,,,,,,,,,,,,,,,,,,,,,,,,,,,,,,,,,,,,,,,,,,,,,,,,,,,,,,,,,1.6486,657.5115153,None,None,1,657.5115153,None,,P013,fencog,1,Post,2021_Oct_21_1233,N-Back (New Version 2021),2021.1.4,120.1344068
,,,,Conditions/Version_1/twoback(3)_v1.xlsx,New rule: Press 'space' when you see 2-back (i.e. the same letter as the one that appeared 2 letters ago.),X,None,,,,,,,,,0,10,10,10,0,4,4,4,,,,,,,,,,,,,,,,,,,,,,,,,,,,,,,,,,,,,,,,,,,,,,,,,,,,,,,,,,,,,,,,,,,,,1.475,660.9927806,None,None,1,660.9927806,None,,P013,fencog,1,Post,2021_Oct_21_1233,N-Back (New Version 2021),2021.1.4,120.1344068
,,,,Conditions/Version_1/twoback(3)_v1.xlsx,New rule: Press 'space' when you see 2-back (i.e. the same letter as the one that appeared 2 letters ago.),z,space,,,,,,,,,0,10,10,10,0,5,5,5,,,,,,,,,,,,,,,,,,,,,,,,,,,,,,,,,,,,,,,,,,,,,,,,,,,,,,,,,,,,,,,,,,,,,1.2952,664.3000276,None,space,1,664.3000276,None,0.4053007,P013,fencog,1,Post,2021_Oct_21_1233,N-Back (New Version 2021),2021.1.4,120.1344068
,,,,Conditions/Version_1/twoback(3)_v1.xlsx,New rule: Press 'space' when you see 2-back (i.e. the same letter as the one that appeared 2 letters ago.),x,space,,,,,,,,,0,10,10,10,0,6,6,6,,,,,,,,,,,,,,,,,,,,,,,,,,,,,,,,,,,,,,,,,,,,,,,,,,,,,,,,,,,,,,,,,,,,,1.7478,668.0551552,None,space,1,668.0551552,None,0.4581972,P013,fencog,1,Post,2021_Oct_21_1233,N-Back (New Version 2021),2021.1.4,120.1344068
,,,,Conditions/Version_1/twoback(3)_v1.xlsx,New rule: Press 'space' when you see 2-back (i.e. the same letter as the one that appeared 2 letters ago.),c,None,,,,,,,,,0,10,10,10,0,7,7,7,,,,,,,,,,,,,,,,,,,,,,,,,,,,,,,,,,,,,,,,,,,,,,,,,,,,,,,,,,,,,,,,,,,,,1.6176,671.6815593,None,None,1,671.6815593,None,,P013,fencog,1,Post,2021_Oct_21_1233,N-Back (New Version 2021),2021.1.4,120.1344068
,,,,Conditions/Version_1/twoback(3)_v1.xlsx,New rule: Press 'space' when you see 2-back (i.e. the same letter as the one that appeared 2 letters ago.),i,None,,,,,,,,,0,10,10,10,0,8,8,8,,,,,,,,,,,,,,,,,,,,,,,,,,,,,,,,,,,,,,,,,,,,,,,,,,,,,,,,,,,,,,,,,,,,,1.9586,675.6485828,None,space,0,675.6485828,None,1.3609719,P013,fencog,1,Post,2021_Oct_21_1233,N-Back (New Version 2021),2021.1.4,120.1344068
,,,,Conditions/Version_1/twoback(3)_v1.xlsx,New rule: Press 'space' when you see 2-back (i.e. the same letter as the one that appeared 2 letters ago.),C,space,,,,,,,,,0,10,10,10,0,9,9,9,,,,,,,,,,,,,,,,,,,,,,,,,,,,,,,,,,,,,,,,,,,,,,,,,,,,,,,,,,,,,,,,,,,,,1.3758,679.0383801,None,space,1,679.0383801,None,0.3872868,P013,fencog,1,Post,2021_Oct_21_1233,N-Back (New Version 2021),2021.1.4,120.1344068
,,,,Conditions/Version_1/twoback(3)_v1.xlsx,New rule: Press 'space' when you see 2-back (i.e. the same letter as the one that appeared 2 letters ago.),,,,,,,,,,,0,10,10,10,,,,,,,,,,,,,,,,,,,,,,,,,,,,,,,,,,,,,,,,,,,,,,,,,,,,,,,,,,,,,,,,,,,,,,,,,,,,,,,,,P013,fencog,1,Post,2021_Oct_21_1233,N-Back (New Version 2021),2021.1.4,120.1344068
,,,,Conditions/Version_1/oneback(3)_v1.xlsx,New rule: Press 'space' when you see 1-back (i.e. the same letter as the one that appeared 1 letter ago.),o,None,,,,,,,,,0,11,11,11,0,0,0,0,,,,,,,,,,,,,,,,,,,,,,,,,,,,,,,,,,,,,,,,,,,,,,,,,,,,,,,,,,,681.065839,None,684.0530429,None,space,0.3003464,684.0530429,None,681.065839,None,1.7912,686.1677764,None,space,0,686.1677764,None,0.8414529,P013,fencog,1,Post,2021_Oct_21_1233,N-Back (New Version 2021),2021.1.4,120.1344068
,,,,Conditions/Version_1/oneback(3)_v1.xlsx,New rule: Press 'space' when you see 1-back (i.e. the same letter as the one that appeared 1 letter ago.),O,space,,,,,,,,,0,11,11,11,0,1,1,1,,,,,,,,,,,,,,,,,,,,,,,,,,,,,,,,,,,,,,,,,,,,,,,,,,,,,,,,,,,,,,,,,,,,,1.8594,690.0487682,None,space,1,690.0487682,None,0.3132862,P013,fencog,1,Post,2021_Oct_21_1233,N-Back (New Version 2021),2021.1.4,120.1344068
,,,,Conditions/Version_1/oneback(3)_v1.xlsx,New rule: Press 'space' when you see 1-back (i.e. the same letter as the one that appeared 1 letter ago.),h,None,,,,,,,,,0,11,11,11,0,2,2,2,,,,,,,,,,,,,,,,,,,,,,,,,,,,,,,,,,,,,,,,,,,,,,,,,,,,,,,,,,,,,,,,,,,,,1.5122,693.5661774,None,None,1,693.5661774,None,,P013,fencog,1,Post,2021_Oct_21_1233,N-Back (New Version 2021),2021.1.4,120.1344068
,,,,Conditions/Version_1/oneback(3)_v1.xlsx,New rule: Press 'space' when you see 1-back (i.e. the same letter as the one that appeared 1 letter ago.),g,None,,,,,,,,,0,11,11,11,0,3,3,3,,,,,,,,,,,,,,,,,,,,,,,,,,,,,,,,,,,,,,,,,,,,,,,,,,,,,,,,,,,,,,,,,,,,,1.0968,696.6718436,None,None,1,696.6718436,None,,P013,fencog,1,Post,2021_Oct_21_1233,N-Back (New Version 2021),2021.1.4,120.1344068
,,,,Conditions/Version_1/oneback(3)_v1.xlsx,New rule: Press 'space' when you see 1-back (i.e. the same letter as the one that appeared 1 letter ago.),n,None,,,,,,,,,0,11,11,11,0,4,4,4,,,,,,,,,,,,,,,,,,,,,,,,,,,,,,,,,,,,,,,,,,,,,,,,,,,,,,,,,,,,,,,,,,,,,1.2394,699.9123693,None,None,1,699.9123693,None,,P013,fencog,1,Post,2021_Oct_21_1233,N-Back (New Version 2021),2021.1.4,120.1344068
,,,,Conditions/Version_1/oneback(3)_v1.xlsx,New rule: Press 'space' when you see 1-back (i.e. the same letter as the one that appeared 1 letter ago.),z,None,,,,,,,,,0,11,11,11,0,5,5,5,,,,,,,,,,,,,,,,,,,,,,,,,,,,,,,,,,,,,,,,,,,,,,,,,,,,,,,,,,,,,,,,,,,,,1.1526,703.071911,None,None,1,703.071911,None,,P013,fencog,1,Post,2021_Oct_21_1233,N-Back (New Version 2021),2021.1.4,120.1344068
,,,,Conditions/Version_1/oneback(3)_v1.xlsx,New rule: Press 'space' when you see 1-back (i.e. the same letter as the one that appeared 1 letter ago.),X,None,,,,,,,,,0,11,11,11,0,6,6,6,,,,,,,,,,,,,,,,,,,,,,,,,,,,,,,,,,,,,,,,,,,,,,,,,,,,,,,,,,,,,,,,,,,,,1.785,706.8700187,None,None,1,706.8700187,None,,P013,fencog,1,Post,2021_Oct_21_1233,N-Back (New Version 2021),2021.1.4,120.1344068
,,,,Conditions/Version_1/oneback(3)_v1.xlsx,New rule: Press 'space' when you see 1-back (i.e. the same letter as the one that appeared 1 letter ago.),r,None,,,,,,,,,0,11,11,11,0,7,7,7,,,,,,,,,,,,,,,,,,,,,,,,,,,,,,,,,,,,,,,,,,,,,,,,,,,,,,,,,,,,,,,,,,,,,1.878,710.761597,None,None,1,710.761597,None,,P013,fencog,1,Post,2021_Oct_21_1233,N-Back (New Version 2021),2021.1.4,120.1344068
,,,,Conditions/Version_1/oneback(3)_v1.xlsx,New rule: Press 'space' when you see 1-back (i.e. the same letter as the one that appeared 1 letter ago.),r,space,,,,,,,,,0,11,11,11,0,8,8,8,,,,,,,,,,,,,,,,,,,,,,,,,,,,,,,,,,,,,,,,,,,,,,,,,,,,,,,,,,,,,,,,,,,,,1.4502,714.216828,None,space,1,714.216828,None,0.4166206,P013,fencog,1,Post,2021_Oct_21_1233,N-Back (New Version 2021),2021.1.4,120.1344068
,,,,Conditions/Version_1/oneback(3)_v1.xlsx,New rule: Press 'space' when you see 1-back (i.e. the same letter as the one that appeared 1 letter ago.),P,None,,,,,,,,,0,11,11,11,0,9,9,9,,,,,,,,,,,,,,,,,,,,,,,,,,,,,,,,,,,,,,,,,,,,,,,,,,,,,,,,,,,,,,,,,,,,,1.5804,717.8009403,None,None,1,717.8009403,None,,P013,fencog,1,Post,2021_Oct_21_1233,N-Back (New Version 2021),2021.1.4,120.1344068
,,,,Conditions/Version_1/oneback(3)_v1.xlsx,New rule: Press 'space' when you see 1-back (i.e. the same letter as the one that appeared 1 letter ago.),,,,,,,,,,,0,11,11,11,,,,,,,,,,,,,,,,,,,,,,,,,,,,,,,,,,,,,,,,,,,,,,,,,,,,,,,,,,,,,,,,,,,,,,,,,,,,,,,,,P013,fencog,1,Post,2021_Oct_21_1233,N-Back (New Version 2021),2021.1.4,120.1344068
,,,,Conditions/Version_1/twoback(4)_v1.xlsx,New rule: Press 'space' when you see 2-back (i.e. the same letter as the one that appeared 2 letters ago.),r,None,,,,,,,,,0,12,12,12,0,0,0,0,,,,,,,,,,,,,,,,,,,,,,,,,,,,,,,,,,,,,,,,,,,,,,,,,,,,,,,,,,,719.8295995,None,722.8169529,None,space,0.3364529,722.8169529,None,719.8295995,None,1.3634,724.5401589,None,None,1,724.5401589,None,,P013,fencog,1,Post,2021_Oct_21_1233,N-Back (New Version 2021),2021.1.4,120.1344068
,,,,Conditions/Version_1/twoback(4)_v1.xlsx,New rule: Press 'space' when you see 2-back (i.e. the same letter as the one that appeared 2 letters ago.),T,None,,,,,,,,,0,12,12,12,0,1,1,1,,,,,,,,,,,,,,,,,,,,,,,,,,,,,,,,,,,,,,,,,,,,,,,,,,,,,,,,,,,,,,,,,,,,,1.2146,727.7645248,None,None,1,727.7645248,None,,P013,fencog,1,Post,2021_Oct_21_1233,N-Back (New Version 2021),2021.1.4,120.1344068
,,,,Conditions/Version_1/twoback(4)_v1.xlsx,New rule: Press 'space' when you see 2-back (i.e. the same letter as the one that appeared 2 letters ago.),o,None,,,,,,,,,0,12,12,12,0,2,2,2,,,,,,,,,,,,,,,,,,,,,,,,,,,,,,,,,,,,,,,,,,,,,,,,,,,,,,,,,,,,,,,,,,,,,1.1278,730.9052317,None,None,1,730.9052317,None,,P013,fencog,1,Post,2021_Oct_21_1233,N-Back (New Version 2021),2021.1.4,120.1344068
,,,,Conditions/Version_1/twoback(4)_v1.xlsx,New rule: Press 'space' when you see 2-back (i.e. the same letter as the one that appeared 2 letters ago.),p,None,,,,,,,,,0,12,12,12,0,3,3,3,,,,,,,,,,,,,,,,,,,,,,,,,,,,,,,,,,,,,,,,,,,,,,,,,,,,,,,,,,,,,,,,,,,,,1.01,733.9201543,None,None,1,733.9201543,None,,P013,fencog,1,Post,2021_Oct_21_1233,N-Back (New Version 2021),2021.1.4,120.1344068
,,,,Conditions/Version_1/twoback(4)_v1.xlsx,New rule: Press 'space' when you see 2-back (i.e. the same letter as the one that appeared 2 letters ago.),p,None,,,,,,,,,0,12,12,12,0,4,4,4,,,,,,,,,,,,,,,,,,,,,,,,,,,,,,,,,,,,,,,,,,,,,,,,,,,,,,,,,,,,,,,,,,,,,1.6734,737.6014714,None,None,1,737.6014714,None,,P013,fencog,1,Post,2021_Oct_21_1233,N-Back (New Version 2021),2021.1.4,120.1344068
,,,,Conditions/Version_1/twoback(4)_v1.xlsx,New rule: Press 'space' when you see 2-back (i.e. the same letter as the one that appeared 2 letters ago.),y,None,,,,,,,,,0,12,12,12,0,5,5,5,,,,,,,,,,,,,,,,,,,,,,,,,,,,,,,,,,,,,,,,,,,,,,,,,,,,,,,,,,,,,,,,,,,,,1.1402,740.7421197,None,None,1,740.7421197,None,,P013,fencog,1,Post,2021_Oct_21_1233,N-Back (New Version 2021),2021.1.4,120.1344068
,,,,Conditions/Version_1/twoback(4)_v1.xlsx,New rule: Press 'space' when you see 2-back (i.e. the same letter as the one that appeared 2 letters ago.),P,space,,,,,,,,,0,12,12,12,0,6,6,6,,,,,,,,,,,,,,,,,,,,,,,,,,,,,,,,,,,,,,,,,,,,,,,,,,,,,,,,,,,,,,,,,,,,,1.7292,744.4763224,None,space,1,744.4763224,None,0.3811146,P013,fencog,1,Post,2021_Oct_21_1233,N-Back (New Version 2021),2021.1.4,120.1344068
,,,,Conditions/Version_1/twoback(4)_v1.xlsx,New rule: Press 'space' when you see 2-back (i.e. the same letter as the one that appeared 2 letters ago.),y,None,,,,,,,,,0,12,12,12,0,7,7,7,,,,,,,,,,,,,,,,,,,,,,,,,,,,,,,,,,,,,,,,,,,,,,,,,,,,,,,,,,,,,,,,,,,,,1.6796,748.1655578,None,space,0,748.1655578,None,0.3240537,P013,fencog,1,Post,2021_Oct_21_1233,N-Back (New Version 2021),2021.1.4,120.1344068
,,,,Conditions/Version_1/twoback(4)_v1.xlsx,New rule: Press 'space' when you see 2-back (i.e. the same letter as the one that appeared 2 letters ago.),y,space,,,,,,,,,0,12,12,12,0,8,8,8,,,,,,,,,,,,,,,,,,,,,,,,,,,,,,,,,,,,,,,,,,,,,,,,,,,,,,,,,,,,,,,,,,,,,1.8718,752.0471106,None,None,0,752.0471106,None,,P013,fencog,1,Post,2021_Oct_21_1233,N-Back (New Version 2021),2021.1.4,120.1344068
,,,,Conditions/Version_1/twoback(4)_v1.xlsx,New rule: Press 'space' when you see 2-back (i.e. the same letter as the one that appeared 2 letters ago.),,,,,,,,,,,0,12,12,12,,,,,,,,,,,,,,,,,,,,,,,,,,,,,,,,,,,,,,,,,,,,,,,,,,,,,,,,,,,,,,,,,,,,,,,,,,,,,,,,,P013,fencog,1,Post,2021_Oct_21_1233,N-Back (New Version 2021),2021.1.4,120.1344068
,,,,Conditions/Version_1/zeroback(4)_v1.xlsx,New rule: Press 'space' when you see the letter 'x' or 'X'.,o,None,,,,,,,,,0,13,13,13,0,0,0,0,,,,,,,,,,,,,,,,,,,,,,,,,,,,,,,,,,,,,,,,,,,,,,,,,,,,,,,,,,,754.1075564,None,757.0982176,None,space,0.255276,757.0982176,None,754.1075564,None,1.8532,759.2378761,None,None,1,759.2378761,None,,P013,fencog,1,Post,2021_Oct_21_1233,N-Back (New Version 2021),2021.1.4,120.1344068
,,,,Conditions/Version_1/zeroback(4)_v1.xlsx,New rule: Press 'space' when you see the letter 'x' or 'X'.,X,space,,,,,,,,,0,13,13,13,0,1,1,1,,,,,,,,,,,,,,,,,,,,,,,,,,,,,,,,,,,,,,,,,,,,,,,,,,,,,,,,,,,,,,,,,,,,,1.103,762.352569,None,space,1,762.352569,None,0.4650952,P013,fencog,1,Post,2021_Oct_21_1233,N-Back (New Version 2021),2021.1.4,120.1344068
,,,,Conditions/Version_1/zeroback(4)_v1.xlsx,New rule: Press 'space' when you see the letter 'x' or 'X'.,p,None,,,,,,,,,0,13,13,13,0,2,2,2,,,,,,,,,,,,,,,,,,,,,,,,,,,,,,,,,,,,,,,,,,,,,,,,,,,,,,,,,,,,,,,,,,,,,1.6982,766.0607753,None,None,1,766.0607753,None,,P013,fencog,1,Post,2021_Oct_21_1233,N-Back (New Version 2021),2021.1.4,120.1344068
,,,,Conditions/Version_1/zeroback(4)_v1.xlsx,New rule: Press 'space' when you see the letter 'x' or 'X'.,m,None,,,,,,,,,0,13,13,13,0,3,3,3,,,,,,,,,,,,,,,,,,,,,,,,,,,,,,,,,,,,,,,,,,,,,,,,,,,,,,,,,,,,,,,,,,,,,1.3138,769.3836965,None,None,1,769.3836965,None,,P013,fencog,1,Post,2021_Oct_21_1233,N-Back (New Version 2021),2021.1.4,120.1344068
,,,,Conditions/Version_1/zeroback(4)_v1.xlsx,New rule: Press 'space' when you see the letter 'x' or 'X'.,n,None,,,,,,,,,0,13,13,13,0,4,4,4,,,,,,,,,,,,,,,,,,,,,,,,,,,,,,,,,,,,,,,,,,,,,,,,,,,,,,,,,,,,,,,,,,,,,1.5122,772.9018624,None,None,1,772.9018624,None,,P013,fencog,1,Post,2021_Oct_21_1233,N-Back (New Version 2021),2021.1.4,120.1344068
,,,,Conditions/Version_1/zeroback(4)_v1.xlsx,New rule: Press 'space' when you see the letter 'x' or 'X'.,m,None,,,,,,,,,0,13,13,13,0,5,5,5,,,,,,,,,,,,,,,,,,,,,,,,,,,,,,,,,,,,,,,,,,,,,,,,,,,,,,,,,,,,,,,,,,,,,1.0782,775.9909429,None,None,1,775.9909429,None,,P013,fencog,1,Post,2021_Oct_21_1233,N-Back (New Version 2021),2021.1.4,120.1344068
,,,,Conditions/Version_1/zeroback(4)_v1.xlsx,New rule: Press 'space' when you see the letter 'x' or 'X'.,C,None,,,,,,,,,0,13,13,13,0,6,6,6,,,,,,,,,,,,,,,,,,,,,,,,,,,,,,,,,,,,,,,,,,,,,,,,,,,,,,,,,,,,,,,,,,,,,1.413,779.4161986,None,None,1,779.4161986,None,,P013,fencog,1,Post,2021_Oct_21_1233,N-Back (New Version 2021),2021.1.4,120.1344068
,,,,Conditions/Version_1/zeroback(4)_v1.xlsx,New rule: Press 'space' when you see the letter 'x' or 'X'.,m,None,,,,,,,,,0,13,13,13,0,7,7,7,,,,,,,,,,,,,,,,,,,,,,,,,,,,,,,,,,,,,,,,,,,,,,,,,,,,,,,,,,,,,,,,,,,,,1.5804,783.0057293,None,None,1,783.0057293,None,,P013,fencog,1,Post,2021_Oct_21_1233,N-Back (New Version 2021),2021.1.4,120.1344068
,,,,Conditions/Version_1/zeroback(4)_v1.xlsx,New rule: Press 'space' when you see the letter 'x' or 'X'.,p,None,,,,,,,,,0,13,13,13,0,8,8,8,,,,,,,,,,,,,,,,,,,,,,,,,,,,,,,,,,,,,,,,,,,,,,,,,,,,,,,,,,,,,,,,,,,,,1.5432,786.5631158,None,None,1,786.5631158,None,,P013,fencog,1,Post,2021_Oct_21_1233,N-Back (New Version 2021),2021.1.4,120.1344068
,,,,Conditions/Version_1/zeroback(4)_v1.xlsx,New rule: Press 'space' when you see the letter 'x' or 'X'.,X,space,,,,,,,,,0,13,13,13,0,9,9,9,,,,,,,,,,,,,,,,,,,,,,,,,,,,,,,,,,,,,,,,,,,,,,,,,,,,,,,,,,,,,,,,,,,,,1.444,790.0206887,None,space,1,790.0206887,None,0.412779,P013,fencog,1,Post,2021_Oct_21_1233,N-Back (New Version 2021),2021.1.4,120.1344068
,,,,Conditions/Version_1/zeroback(4)_v1.xlsx,New rule: Press 'space' when you see the letter 'x' or 'X'.,,,,,,,,,,,0,13,13,13,,,,,,,,,,,,,,,,,,,,,,,,,,,,,,,,,,,,,,,,,,,,,,,,,,,,,,,,,,,,,,,,,,,,,,,,,,,,,,,,,P013,fencog,1,Post,2021_Oct_21_1233,N-Back (New Version 2021),2021.1.4,120.1344068
,,,,Conditions/Version_1/oneback(4)_v1.xlsx,New rule: Press 'space' when you see 1-back (i.e. the same letter as the one that appeared 1 letter ago.),w,None,,,,,,,,,0,14,14,14,0,0,0,0,,,,,,,,,,,,,,,,,,,,,,,,,,,,,,,,,,,,,,,,,,,,,,,,,,,,,,,,,,,792.0469217,None,795.0291117,None,space,2.5163119,795.0291117,None,792.0469217,None,1.8718,799.4351085,None,None,1,799.4351085,None,,P013,fencog,1,Post,2021_Oct_21_1233,N-Back (New Version 2021),2021.1.4,120.1344068
,,,,Conditions/Version_1/oneback(4)_v1.xlsx,New rule: Press 'space' when you see 1-back (i.e. the same letter as the one that appeared 1 letter ago.),q,None,,,,,,,,,0,14,14,14,0,1,1,1,,,,,,,,,,,,,,,,,,,,,,,,,,,,,,,,,,,,,,,,,,,,,,,,,,,,,,,,,,,,,,,,,,,,,1.8222,803.2665632,None,None,1,803.2665632,None,,P013,fencog,1,Post,2021_Oct_21_1233,N-Back (New Version 2021),2021.1.4,120.1344068
,,,,Conditions/Version_1/oneback(4)_v1.xlsx,New rule: Press 'space' when you see 1-back (i.e. the same letter as the one that appeared 1 letter ago.),i,None,,,,,,,,,0,14,14,14,0,2,2,2,,,,,,,,,,,,,,,,,,,,,,,,,,,,,,,,,,,,,,,,,,,,,,,,,,,,,,,,,,,,,,,,,,,,,1.6796,806.9577054,None,None,1,806.9577054,None,,P013,fencog,1,Post,2021_Oct_21_1233,N-Back (New Version 2021),2021.1.4,120.1344068
,,,,Conditions/Version_1/oneback(4)_v1.xlsx,New rule: Press 'space' when you see 1-back (i.e. the same letter as the one that appeared 1 letter ago.),t,None,,,,,,,,,0,14,14,14,0,3,3,3,,,,,,,,,,,,,,,,,,,,,,,,,,,,,,,,,,,,,,,,,,,,,,,,,,,,,,,,,,,,,,,,,,,,,1.8036,810.7650458,None,None,1,810.7650458,None,,P013,fencog,1,Post,2021_Oct_21_1233,N-Back (New Version 2021),2021.1.4,120.1344068
,,,,Conditions/Version_1/oneback(4)_v1.xlsx,New rule: Press 'space' when you see 1-back (i.e. the same letter as the one that appeared 1 letter ago.),v,None,,,,,,,,,0,14,14,14,0,4,4,4,,,,,,,,,,,,,,,,,,,,,,,,,,,,,,,,,,,,,,,,,,,,,,,,,,,,,,,,,,,,,,,,,,,,,1.2022,813.9819968,None,None,1,813.9819968,None,,P013,fencog,1,Post,2021_Oct_21_1233,N-Back (New Version 2021),2021.1.4,120.1344068
,,,,Conditions/Version_1/oneback(4)_v1.xlsx,New rule: Press 'space' when you see 1-back (i.e. the same letter as the one that appeared 1 letter ago.),V,space,,,,,,,,,0,14,14,14,0,5,5,5,,,,,,,,,,,,,,,,,,,,,,,,,,,,,,,,,,,,,,,,,,,,,,,,,,,,,,,,,,,,,,,,,,,,,1.6858,817.6808225,None,space,1,817.6808225,None,0.4328344,P013,fencog,1,Post,2021_Oct_21_1233,N-Back (New Version 2021),2021.1.4,120.1344068
,,,,Conditions/Version_1/oneback(4)_v1.xlsx,New rule: Press 'space' when you see 1-back (i.e. the same letter as the one that appeared 1 letter ago.),v,space,,,,,,,,,0,14,14,14,0,6,6,6,,,,,,,,,,,,,,,,,,,,,,,,,,,,,,,,,,,,,,,,,,,,,,,,,,,,,,,,,,,,,,,,,,,,,1.6548,821.3447182,None,space,1,821.3447182,None,0.5527369,P013,fencog,1,Post,2021_Oct_21_1233,N-Back (New Version 2021),2021.1.4,120.1344068
,,,,Conditions/Version_1/oneback(4)_v1.xlsx,New rule: Press 'space' when you see 1-back (i.e. the same letter as the one that appeared 1 letter ago.),p,None,,,,,,,,,0,14,14,14,0,7,7,7,,,,,,,,,,,,,,,,,,,,,,,,,,,,,,,,,,,,,,,,,,,,,,,,,,,,,,,,,,,,,,,,,,,,,1.8904,825.252879,None,space,0,825.252879,None,1.5963906,P013,fencog,1,Post,2021_Oct_21_1233,N-Back (New Version 2021),2021.1.4,120.1344068
,,,,Conditions/Version_1/oneback(4)_v1.xlsx,New rule: Press 'space' when you see 1-back (i.e. the same letter as the one that appeared 1 letter ago.),w,None,,,,,,,,,0,14,14,14,0,8,8,8,,,,,,,,,,,,,,,,,,,,,,,,,,,,,,,,,,,,,,,,,,,,,,,,,,,,,,,,,,,,,,,,,,,,,1.32,828.5850391,None,None,1,828.5850391,None,,P013,fencog,1,Post,2021_Oct_21_1233,N-Back (New Version 2021),2021.1.4,120.1344068
,,,,Conditions/Version_1/oneback(4)_v1.xlsx,New rule: Press 'space' when you see 1-back (i.e. the same letter as the one that appeared 1 letter ago.),W,space,,,,,,,,,0,14,14,14,0,9,9,9,,,,,,,,,,,,,,,,,,,,,,,,,,,,,,,,,,,,,,,,,,,,,,,,,,,,,,,,,,,,,,,,,,,,,1.196,831.79739,None,space,1,831.79739,None,0.5162697,P013,fencog,1,Post,2021_Oct_21_1233,N-Back (New Version 2021),2021.1.4,120.1344068
,,,,Conditions/Version_1/oneback(4)_v1.xlsx,New rule: Press 'space' when you see 1-back (i.e. the same letter as the one that appeared 1 letter ago.),,,,,,,,,,,0,14,14,14,,,,,,,,,,,,,,,,,,,,,,,,,,,,,,,,,,,,,,,,,,,,,,,,,,,,,,,,,,,,,,,,,,,,,,,,,,,,,,,,,P013,fencog,1,Post,2021_Oct_21_1233,N-Back (New Version 2021),2021.1.4,120.1344068
,,,,Conditions/Version_1/threeback(4)_v1.xlsx,New rule: Press 'space' when you see 3-back (i.e. the same letter as the one that appeared 3 letters ago.),A,None,,,,,,,,,0,15,15,15,0,0,0,0,,,,,,,,,,,,,,,,,,,,,,,,,,,,,,,,,,,,,,,,,,,,,,,,,,,,,,,,,,,833.8203411,None,836.808901,None,space,0.728542,836.808901,None,833.8203411,None,1.351,838.9159893,None,None,1,838.9159893,None,,P013,fencog,1,Post,2021_Oct_21_1233,N-Back (New Version 2021),2021.1.4,120.1344068
,,,,Conditions/Version_1/threeback(4)_v1.xlsx,New rule: Press 'space' when you see 3-back (i.e. the same letter as the one that appeared 3 letters ago.),n,None,,,,,,,,,0,15,15,15,0,1,1,1,,,,,,,,,,,,,,,,,,,,,,,,,,,,,,,,,,,,,,,,,,,,,,,,,,,,,,,,,,,,,,,,,,,,,1.8966,842.8223045,None,None,1,842.8223045,None,,P013,fencog,1,Post,2021_Oct_21_1233,N-Back (New Version 2021),2021.1.4,120.1344068
,,,,Conditions/Version_1/threeback(4)_v1.xlsx,New rule: Press 'space' when you see 3-back (i.e. the same letter as the one that appeared 3 letters ago.),g,None,,,,,,,,,0,15,15,15,0,2,2,2,,,,,,,,,,,,,,,,,,,,,,,,,,,,,,,,,,,,,,,,,,,,,,,,,,,,,,,,,,,,,,,,,,,,,1.5246,846.3536827,None,None,1,846.3536827,None,,P013,fencog,1,Post,2021_Oct_21_1233,N-Back (New Version 2021),2021.1.4,120.1344068
,,,,Conditions/Version_1/threeback(4)_v1.xlsx,New rule: Press 'space' when you see 3-back (i.e. the same letter as the one that appeared 3 letters ago.),A,space,,,,,,,,,0,15,15,15,0,3,3,3,,,,,,,,,,,,,,,,,,,,,,,,,,,,,,,,,,,,,,,,,,,,,,,,,,,,,,,,,,,,,,,,,,,,,1.785,850.1515384,None,space,1,850.1515384,None,0.5862719,P013,fencog,1,Post,2021_Oct_21_1233,N-Back (New Version 2021),2021.1.4,120.1344068
,,,,Conditions/Version_1/threeback(4)_v1.xlsx,New rule: Press 'space' when you see 3-back (i.e. the same letter as the one that appeared 3 letters ago.),p,None,,,,,,,,,0,15,15,15,0,4,4,4,,,,,,,,,,,,,,,,,,,,,,,,,,,,,,,,,,,,,,,,,,,,,,,,,,,,,,,,,,,,,,,,,,,,,1.196,853.351934,None,None,1,853.351934,None,,P013,fencog,1,Post,2021_Oct_21_1233,N-Back (New Version 2021),2021.1.4,120.1344068
,,,,Conditions/Version_1/threeback(4)_v1.xlsx,New rule: Press 'space' when you see 3-back (i.e. the same letter as the one that appeared 3 letters ago.),O,None,,,,,,,,,0,15,15,15,0,5,5,5,,,,,,,,,,,,,,,,,,,,,,,,,,,,,,,,,,,,,,,,,,,,,,,,,,,,,,,,,,,,,,,,,,,,,1.5742,856.9356627,None,None,1,856.9356627,None,,P013,fencog,1,Post,2021_Oct_21_1233,N-Back (New Version 2021),2021.1.4,120.1344068
,,,,Conditions/Version_1/threeback(4)_v1.xlsx,New rule: Press 'space' when you see 3-back (i.e. the same letter as the one that appeared 3 letters ago.),a,space,,,,,,,,,0,15,15,15,0,6,6,6,,,,,,,,,,,,,,,,,,,,,,,,,,,,,,,,,,,,,,,,,,,,,,,,,,,,,,,,,,,,,,,,,,,,,1.3572,860.2985334,None,space,1,860.2985334,None,0.4630319,P013,fencog,1,Post,2021_Oct_21_1233,N-Back (New Version 2021),2021.1.4,120.1344068
,,,,Conditions/Version_1/threeback(4)_v1.xlsx,New rule: Press 'space' when you see 3-back (i.e. the same letter as the one that appeared 3 letters ago.),p,space,,,,,,,,,0,15,15,15,0,7,7,7,,,,,,,,,,,,,,,,,,,,,,,,,,,,,,,,,,,,,,,,,,,,,,,,,,,,,,,,,,,,,,,,,,,,,1.9896,864.2911152,None,space,1,864.2911152,None,0.3426079,P013,fencog,1,Post,2021_Oct_21_1233,N-Back (New Version 2021),2021.1.4,120.1344068
,,,,Conditions/Version_1/threeback(4)_v1.xlsx,New rule: Press 'space' when you see 3-back (i.e. the same letter as the one that appeared 3 letters ago.),x,None,,,,,,,,,0,15,15,15,0,8,8,8,,,,,,,,,,,,,,,,,,,,,,,,,,,,,,,,,,,,,,,,,,,,,,,,,,,,,,,,,,,,,,,,,,,,,1.5184,867.8234926,None,None,1,867.8234926,None,,P013,fencog,1,Post,2021_Oct_21_1233,N-Back (New Version 2021),2021.1.4,120.1344068
,,,,Conditions/Version_1/threeback(4)_v1.xlsx,New rule: Press 'space' when you see 3-back (i.e. the same letter as the one that appeared 3 letters ago.),X,None,,,,,,,,,0,15,15,15,0,9,9,9,,,,,,,,,,,,,,,,,,,,,,,,,,,,,,,,,,,,,,,,,,,,,,,,,,,,,,,,,,,,,,,,,,,,,1.599,871.4307435,None,None,1,871.4307435,None,,P013,fencog,1,Post,2021_Oct_21_1233,N-Back (New Version 2021),2021.1.4,120.1344068
,,,,Conditions/Version_1/threeback(4)_v1.xlsx,New rule: Press 'space' when you see 3-back (i.e. the same letter as the one that appeared 3 letters ago.),,,,,,,,,,,0,15,15,15,,,,,,,,,,,,,,,,,,,,,,,,,,,,,,,,,,,,,,,,,,,,,,,,,,,,,,,,,,,,,,,,,,,,,,,,,,,,,,,,,P013,fencog,1,Post,2021_Oct_21_1233,N-Back (New Version 2021),2021.1.4,120.1344068
