CondFileP,InstructionsP,LettersDisplayedP,CorrectnessP,CondFile,Instructions,LettersDisplayed,Correctness,practicetrials.thisRepN,practicetrials.thisTrialN,practicetrials.thisN,practicetrials.thisIndex,InnerLoopPractice.thisRepN,InnerLoopPractice.thisTrialN,InnerLoopPractice.thisN,InnerLoopPractice.thisIndex,trials.thisRepN,trials.thisTrialN,trials.thisN,trials.thisIndex,InnerLoop.thisRepN,InnerLoop.thisTrialN,InnerLoop.thisN,InnerLoop.thisIndex,TaskVersionText.started,TaskVersionText.stopped,InstrKey1.keys,InstrKey1.rt,InstrKey1.started,InstrKey1.stopped,text.started,text.stopped,key_resp_4.keys,key_resp_4.rt,key_resp_4.started,key_resp_4.stopped,text_2.started,text_2.stopped,key_resp_3.keys,key_resp_3.rt,key_resp_3.started,key_resp_3.stopped,text_3.started,text_3.stopped,key_resp_2.keys,key_resp_2.rt,key_resp_2.started,key_resp_2.stopped,PractIn1.started,PractIn1.stopped,PractIn2.started,PractIn2.stopped,PractInstructionPass.keys,PractInstructionPass.rt,PractInstructionPass.started,PractInstructionPass.stopped,PractBlock1.started,PractBlock1.stopped,ISIjitterPractice,ISI_Pract_Fixation.started,ISI_Pract_Fixation.stopped,N_backP.started,N_backP.stopped,KeyPractice.keys,KeyPractice.corr,KeyPractice.started,KeyPractice.stopped,text_4.started,text_4.stopped,KeyPractice.rt,TransitionText.started,TransitionText.stopped,key_resp_6.keys,key_resp_6.rt,key_resp_6.started,key_resp_6.stopped,text_5.started,text_5.stopped,key_resp_5.keys,key_resp_5.rt,key_resp_5.started,key_resp_5.stopped,MainInt1.started,MainInt1.stopped,MainInt2.started,MainInt2.stopped,InstructionPass.keys,InstructionPass.rt,InstructionPass.started,InstructionPass.stopped,Blocks1.started,Blocks1.stopped,ISIjitter,N_backD.started,N_backD.stopped,key_resp.keys,key_resp.corr,key_resp.started,key_resp.stopped,key_resp.rt,participant,Study Name,Task Version (required to run),PRE/POST,date,expName,psychopyVersion,frameRate,
,,,,,,,,,,,,,,,,,,,,,,,,25.43920350028202,None,space,7.300894800107926,25.9289422002621,None,,,,,,,,,,,,,,,,,,,,,,,,,,,,,,,,,,,,,,,,,,,,,,,,,,,,,,,,,,,,,,,,,,,,,,,P014,fencog,1,Pre,2021_Oct_19_1119,N-Back (New Version 2021),2021.1.4,119.67276652457903,
,,,,,,,,,,,,,,,,,,,,,,,,,,,,,,33.28827290004119,None,space,7.406419599894434,33.777144600171596,None,,,,,,,,,,,,,,,,,,,,,,,,,,,,,,,,,,,,,,,,,,,,,,,,,,,,,,,,,,,,,,,,,P014,fencog,1,Pre,2021_Oct_19_1119,N-Back (New Version 2021),2021.1.4,119.67276652457903,
,,,,,,,,,,,,,,,,,,,,,,,,,,,,,,,,,,,,41.24297810019925,None,space,10.617978400085121,41.73339710012078,None,,,,,,,,,,,,,,,,,,,,,,,,,,,,,,,,,,,,,,,,,,,,,,,,,,,,,,,,,,,P014,fencog,1,Pre,2021_Oct_19_1119,N-Back (New Version 2021),2021.1.4,119.67276652457903,
,,,,,,,,,,,,,,,,,,,,,,,,,,,,,,,,,,,,,,,,,,52.40283040003851,None,space,60.56103459978476,52.89662849996239,None,,,,,,,,,,,,,,,,,,,,,,,,,,,,,,,,,,,,,,,,,,,,,,,,,,,,,P014,fencog,1,Pre,2021_Oct_19_1119,N-Back (New Version 2021),2021.1.4,119.67276652457903,
Conditions/Version_1Pr/zeroback(1)_v1.xlsx,Rule: Press 'space' when you see the letter 'x' or 'X'.,Z,None,,,,,0,0,0,0,0,0,0,0,,,,,,,,,,,,,,,,,,,,,,,,,,,,,,,,,114.82655450003222,None,117.81233940040693,None,space,4.470617199782282,117.81233940040693,None,114.82655450003222,None,1.94,122.31005600001663,None,124.25256920000538,None,None,1,124.25256920000538,None,126.25800700020045,None,,,,,,,,,,,,,,,,,,,,,,,,,,,,,,,,P014,fencog,1,Pre,2021_Oct_19_1119,N-Back (New Version 2021),2021.1.4,119.67276652457903,
Conditions/Version_1Pr/zeroback(1)_v1.xlsx,Rule: Press 'space' when you see the letter 'x' or 'X'.,r,None,,,,,0,0,0,0,0,1,1,1,,,,,,,,,,,,,,,,,,,,,,,,,,,,,,,,,,,,,,,,,,,1.265,127.75712840026245,None,129.02498200023547,None,None,1,129.02498200023547,None,131.03140440024436,None,,,,,,,,,,,,,,,,,,,,,,,,,,,,,,,,P014,fencog,1,Pre,2021_Oct_19_1119,N-Back (New Version 2021),2021.1.4,119.67276652457903,
Conditions/Version_1Pr/zeroback(1)_v1.xlsx,Rule: Press 'space' when you see the letter 'x' or 'X'.,X,space,,,,,0,0,0,0,0,2,2,2,,,,,,,,,,,,,,,,,,,,,,,,,,,,,,,,,,,,,,,,,,,1.69,132.5305298003368,None,134.22747680032626,None,space,1,134.22747680032626,None,134.57246580021456,None,0.32953380001708865,,,,,,,,,,,,,,,,,,,,,,,,,,,,,,,P014,fencog,1,Pre,2021_Oct_19_1119,N-Back (New Version 2021),2021.1.4,119.67276652457903,
Conditions/Version_1Pr/zeroback(1)_v1.xlsx,Rule: Press 'space' when you see the letter 'x' or 'X'.,p,None,,,,,0,0,0,0,0,3,3,3,,,,,,,,,,,,,,,,,,,,,,,,,,,,,,,,,,,,,,,,,,,1.115,136.07976420037448,None,137.19894190039486,None,None,1,137.19894190039486,None,139.20388759998605,None,,,,,,,,,,,,,,,,,,,,,,,,,,,,,,,,P014,fencog,1,Pre,2021_Oct_19_1119,N-Back (New Version 2021),2021.1.4,119.67276652457903,
Conditions/Version_1Pr/zeroback(1)_v1.xlsx,Rule: Press 'space' when you see the letter 'x' or 'X'.,w,None,,,,,0,0,0,0,0,4,4,4,,,,,,,,,,,,,,,,,,,,,,,,,,,,,,,,,,,,,,,,,,,1.315,140.7036439999938,None,142.02505489997566,None,None,1,142.02505489997566,None,144.02747870003805,None,,,,,,,,,,,,,,,,,,,,,,,,,,,,,,,,P014,fencog,1,Pre,2021_Oct_19_1119,N-Back (New Version 2021),2021.1.4,119.67276652457903,
Conditions/Version_1Pr/zeroback(1)_v1.xlsx,Rule: Press 'space' when you see the letter 'x' or 'X'.,e,None,,,,,0,0,0,0,0,5,5,5,,,,,,,,,,,,,,,,,,,,,,,,,,,,,,,,,,,,,,,,,,,1.365,145.5269029000774,None,146.89462580019608,None,None,1,146.89462580019608,None,148.9009330002591,None,,,,,,,,,,,,,,,,,,,,,,,,,,,,,,,,P014,fencog,1,Pre,2021_Oct_19_1119,N-Back (New Version 2021),2021.1.4,119.67276652457903,
Conditions/Version_1Pr/zeroback(1)_v1.xlsx,Rule: Press 'space' when you see the letter 'x' or 'X'.,X,space,,,,,0,0,0,0,0,6,6,6,,,,,,,,,,,,,,,,,,,,,,,,,,,,,,,,,,,,,,,,,,,1.49,150.40053080022335,None,151.89147210028023,None,space,1,151.89147210028023,None,152.26394650014117,None,0.3525140001438558,,,,,,,,,,,,,,,,,,,,,,,,,,,,,,,P014,fencog,1,Pre,2021_Oct_19_1119,N-Back (New Version 2021),2021.1.4,119.67276652457903,
Conditions/Version_1Pr/zeroback(1)_v1.xlsx,Rule: Press 'space' when you see the letter 'x' or 'X'.,x,space,,,,,0,0,0,0,0,7,7,7,,,,,,,,,,,,,,,,,,,,,,,,,,,,,,,,,,,,,,,,,,,1.865,153.76621170016006,None,155.6353383003734,None,space,1,155.6353383003734,None,156.09983530035242,None,0.45386220002546906,,,,,,,,,,,,,,,,,,,,,,,,,,,,,,,P014,fencog,1,Pre,2021_Oct_19_1119,N-Back (New Version 2021),2021.1.4,119.67276652457903,
Conditions/Version_1Pr/zeroback(1)_v1.xlsx,Rule: Press 'space' when you see the letter 'x' or 'X'.,p,None,,,,,0,0,0,0,0,8,8,8,,,,,,,,,,,,,,,,,,,,,,,,,,,,,,,,,,,,,,,,,,,1.915,157.60656019998714,None,159.52319420035928,None,None,1,159.52319420035928,None,161.5221369001083,None,,,,,,,,,,,,,,,,,,,,,,,,,,,,,,,,P014,fencog,1,Pre,2021_Oct_19_1119,N-Back (New Version 2021),2021.1.4,119.67276652457903,
Conditions/Version_1Pr/zeroback(1)_v1.xlsx,Rule: Press 'space' when you see the letter 'x' or 'X'.,r,None,,,,,0,0,0,0,0,9,9,9,,,,,,,,,,,,,,,,,,,,,,,,,,,,,,,,,,,,,,,,,,,1.34,163.02438260009512,None,164.37280250014737,None,None,1,164.37280250014737,None,166.37927850009874,None,,,,,,,,,,,,,,,,,,,,,,,,,,,,,,,,P014,fencog,1,Pre,2021_Oct_19_1119,N-Back (New Version 2021),2021.1.4,119.67276652457903,
Conditions/Version_1Pr/zeroback(1)_v1.xlsx,Rule: Press 'space' when you see the letter 'x' or 'X'.,,,,,,,0,0,0,0,,,,,,,,,,,,,,,,,,,,,,,,,,,,,,,,,,,,,,,,,,,,,,,,,,,,,,,,,,,,,,,,,,,,,,,,,,,,,,,,,,,,,,,,,P014,fencog,1,Pre,2021_Oct_19_1119,N-Back (New Version 2021),2021.1.4,119.67276652457903,
Conditions/Version_1Pr/oneback(1)_v1.xlsx,New rule: Press 'space' when you see 1-back (i.e. the same letter as the one that appeared 1 letter ago.),a,None,,,,,0,1,1,1,0,0,0,0,,,,,,,,,,,,,,,,,,,,,,,,,,,,,,,,,167.9036972001195,None,170.88801999995485,None,space,7.51609760010615,170.88801999995485,None,167.9036972001195,None,1.965,178.42476470023394,None,180.3940020003356,None,None,1,180.3940020003356,None,182.39952900027856,None,,,,,,,,,,,,,,,,,,,,,,,,,,,,,,,,P014,fencog,1,Pre,2021_Oct_19_1119,N-Back (New Version 2021),2021.1.4,119.67276652457903,
Conditions/Version_1Pr/oneback(1)_v1.xlsx,New rule: Press 'space' when you see 1-back (i.e. the same letter as the one that appeared 1 letter ago.),x,None,,,,,0,1,1,1,0,1,1,1,,,,,,,,,,,,,,,,,,,,,,,,,,,,,,,,,,,,,,,,,,,1.315,183.89884120039642,None,185.2154691000469,None,None,1,185.2154691000469,None,187.2146751000546,None,,,,,,,,,,,,,,,,,,,,,,,,,,,,,,,,P014,fencog,1,Pre,2021_Oct_19_1119,N-Back (New Version 2021),2021.1.4,119.67276652457903,
Conditions/Version_1Pr/oneback(1)_v1.xlsx,New rule: Press 'space' when you see 1-back (i.e. the same letter as the one that appeared 1 letter ago.),g,None,,,,,0,1,1,1,0,2,2,2,,,,,,,,,,,,,,,,,,,,,,,,,,,,,,,,,,,,,,,,,,,1.265,188.71428020019084,None,189.98243140010163,None,None,1,189.98243140010163,None,191.98208110034466,None,,,,,,,,,,,,,,,,,,,,,,,,,,,,,,,,P014,fencog,1,Pre,2021_Oct_19_1119,N-Back (New Version 2021),2021.1.4,119.67276652457903,
Conditions/Version_1Pr/oneback(1)_v1.xlsx,New rule: Press 'space' when you see 1-back (i.e. the same letter as the one that appeared 1 letter ago.),G,space,,,,,0,1,1,1,0,3,3,3,,,,,,,,,,,,,,,,,,,,,,,,,,,,,,,,,,,,,,,,,,,1.89,193.4877574001439,None,195.381288100034,None,space,1,195.381288100034,None,196.1277024000883,None,0.7253145999275148,,,,,,,,,,,,,,,,,,,,,,,,,,,,,,,P014,fencog,1,Pre,2021_Oct_19_1119,N-Back (New Version 2021),2021.1.4,119.67276652457903,
Conditions/Version_1Pr/oneback(1)_v1.xlsx,New rule: Press 'space' when you see 1-back (i.e. the same letter as the one that appeared 1 letter ago.),u,None,,,,,0,1,1,1,0,4,4,4,,,,,,,,,,,,,,,,,,,,,,,,,,,,,,,,,,,,,,,,,,,1.165,197.62837650021538,None,198.7960802000016,None,None,1,198.7960802000016,None,200.80251890001819,None,,,,,,,,,,,,,,,,,,,,,,,,,,,,,,,,P014,fencog,1,Pre,2021_Oct_19_1119,N-Back (New Version 2021),2021.1.4,119.67276652457903,
Conditions/Version_1Pr/oneback(1)_v1.xlsx,New rule: Press 'space' when you see 1-back (i.e. the same letter as the one that appeared 1 letter ago.),y,None,,,,,0,1,1,1,0,5,5,5,,,,,,,,,,,,,,,,,,,,,,,,,,,,,,,,,,,,,,,,,,,1.515,202.3018449000083,None,203.81885780021548,None,None,1,203.81885780021548,None,205.82594440039247,None,,,,,,,,,,,,,,,,,,,,,,,,,,,,,,,,P014,fencog,1,Pre,2021_Oct_19_1119,N-Back (New Version 2021),2021.1.4,119.67276652457903,
Conditions/Version_1Pr/oneback(1)_v1.xlsx,New rule: Press 'space' when you see 1-back (i.e. the same letter as the one that appeared 1 letter ago.),y,space,,,,,0,1,1,1,0,6,6,6,,,,,,,,,,,,,,,,,,,,,,,,,,,,,,,,,,,,,,,,,,,1.565,207.32665520021692,None,208.89162170002237,None,space,1,208.89162170002237,None,209.43124770000577,None,0.5223722001537681,,,,,,,,,,,,,,,,,,,,,,,,,,,,,,,P014,fencog,1,Pre,2021_Oct_19_1119,N-Back (New Version 2021),2021.1.4,119.67276652457903,
Conditions/Version_1Pr/oneback(1)_v1.xlsx,New rule: Press 'space' when you see 1-back (i.e. the same letter as the one that appeared 1 letter ago.),k,None,,,,,0,1,1,1,0,7,7,7,,,,,,,,,,,,,,,,,,,,,,,,,,,,,,,,,,,,,,,,,,,1.215,210.9327946002595,None,212.15089499996975,None,None,1,212.15089499996975,None,214.15614540036768,None,,,,,,,,,,,,,,,,,,,,,,,,,,,,,,,,P014,fencog,1,Pre,2021_Oct_19_1119,N-Back (New Version 2021),2021.1.4,119.67276652457903,
Conditions/Version_1Pr/oneback(1)_v1.xlsx,New rule: Press 'space' when you see 1-back (i.e. the same letter as the one that appeared 1 letter ago.),c,None,,,,,0,1,1,1,0,8,8,8,,,,,,,,,,,,,,,,,,,,,,,,,,,,,,,,,,,,,,,,,,,1.64,215.6563538000919,None,217.29909590026364,None,None,1,217.29909590026364,None,219.30492220027372,None,,,,,,,,,,,,,,,,,,,,,,,,,,,,,,,,P014,fencog,1,Pre,2021_Oct_19_1119,N-Back (New Version 2021),2021.1.4,119.67276652457903,
Conditions/Version_1Pr/oneback(1)_v1.xlsx,New rule: Press 'space' when you see 1-back (i.e. the same letter as the one that appeared 1 letter ago.),r,None,,,,,0,1,1,1,0,9,9,9,,,,,,,,,,,,,,,,,,,,,,,,,,,,,,,,,,,,,,,,,,,1.115,220.80443669995293,None,221.92156230006367,None,None,1,221.92156230006367,None,223.92905370006338,None,,,,,,,,,,,,,,,,,,,,,,,,,,,,,,,,P014,fencog,1,Pre,2021_Oct_19_1119,N-Back (New Version 2021),2021.1.4,119.67276652457903,
Conditions/Version_1Pr/oneback(1)_v1.xlsx,New rule: Press 'space' when you see 1-back (i.e. the same letter as the one that appeared 1 letter ago.),,,,,,,0,1,1,1,,,,,,,,,,,,,,,,,,,,,,,,,,,,,,,,,,,,,,,,,,,,,,,,,,,,,,,,,,,,,,,,,,,,,,,,,,,,,,,,,,,,,,,,,P014,fencog,1,Pre,2021_Oct_19_1119,N-Back (New Version 2021),2021.1.4,119.67276652457903,
Conditions/Version_1Pr/twoback(1)_v1.xlsx,New rule: Press 'space' when you see 2-back (i.e. the same letter as the one that appeared 2 letters ago.),E,None,,,,,0,2,2,2,0,0,0,0,,,,,,,,,,,,,,,,,,,,,,,,,,,,,,,,,225.45193170011044,None,228.4382309000939,None,space,1.604653500020504,228.4382309000939,None,225.45193170011044,None,1.315,230.0588321001269,None,231.3796524000354,None,None,1,231.3796524000354,None,233.38451770041138,None,,,,,,,,,,,,,,,,,,,,,,,,,,,,,,,,P014,fencog,1,Pre,2021_Oct_19_1119,N-Back (New Version 2021),2021.1.4,119.67276652457903,
Conditions/Version_1Pr/twoback(1)_v1.xlsx,New rule: Press 'space' when you see 2-back (i.e. the same letter as the one that appeared 2 letters ago.),p,None,,,,,0,2,2,2,0,1,1,1,,,,,,,,,,,,,,,,,,,,,,,,,,,,,,,,,,,,,,,,,,,1.74,234.8856359999627,None,236.62575340038165,None,None,1,236.62575340038165,None,238.63554730033502,None,,,,,,,,,,,,,,,,,,,,,,,,,,,,,,,,P014,fencog,1,Pre,2021_Oct_19_1119,N-Back (New Version 2021),2021.1.4,119.67276652457903,
Conditions/Version_1Pr/twoback(1)_v1.xlsx,New rule: Press 'space' when you see 2-back (i.e. the same letter as the one that appeared 2 letters ago.),e,space,,,,,0,2,2,2,0,2,2,2,,,,,,,,,,,,,,,,,,,,,,,,,,,,,,,,,,,,,,,,,,,1.04,240.1325966999866,None,241.17368340026587,None,space,1,241.17368340026587,None,241.60507880011573,None,0.4144188999198377,,,,,,,,,,,,,,,,,,,,,,,,,,,,,,,P014,fencog,1,Pre,2021_Oct_19_1119,N-Back (New Version 2021),2021.1.4,119.67276652457903,
Conditions/Version_1Pr/twoback(1)_v1.xlsx,New rule: Press 'space' when you see 2-back (i.e. the same letter as the one that appeared 2 letters ago.),s,None,,,,,0,2,2,2,0,3,3,3,,,,,,,,,,,,,,,,,,,,,,,,,,,,,,,,,,,,,,,,,,,1.89,243.10663260007277,None,244.9993556002155,None,None,1,244.9993556002155,None,247.00553830014542,None,,,,,,,,,,,,,,,,,,,,,,,,,,,,,,,,P014,fencog,1,Pre,2021_Oct_19_1119,N-Back (New Version 2021),2021.1.4,119.67276652457903,
Conditions/Version_1Pr/twoback(1)_v1.xlsx,New rule: Press 'space' when you see 2-back (i.e. the same letter as the one that appeared 2 letters ago.),S,None,,,,,0,2,2,2,0,4,4,4,,,,,,,,,,,,,,,,,,,,,,,,,,,,,,,,,,,,,,,,,,,1.14,248.50497380038723,None,249.6498090000823,None,None,1,249.6498090000823,None,251.6542436000891,None,,,,,,,,,,,,,,,,,,,,,,,,,,,,,,,,P014,fencog,1,Pre,2021_Oct_19_1119,N-Back (New Version 2021),2021.1.4,119.67276652457903,
Conditions/Version_1Pr/twoback(1)_v1.xlsx,New rule: Press 'space' when you see 2-back (i.e. the same letter as the one that appeared 2 letters ago.),s,space,,,,,0,2,2,2,0,5,5,5,,,,,,,,,,,,,,,,,,,,,,,,,,,,,,,,,,,,,,,,,,,2.015,253.15363189997151,None,255.16979099996388,None,space,1,255.16979099996388,None,255.79307230003178,None,0.6101465001702309,,,,,,,,,,,,,,,,,,,,,,,,,,,,,,,P014,fencog,1,Pre,2021_Oct_19_1119,N-Back (New Version 2021),2021.1.4,119.67276652457903,
Conditions/Version_1Pr/twoback(1)_v1.xlsx,New rule: Press 'space' when you see 2-back (i.e. the same letter as the one that appeared 2 letters ago.),P,None,,,,,0,2,2,2,0,6,6,6,,,,,,,,,,,,,,,,,,,,,,,,,,,,,,,,,,,,,,,,,,,1.64,257.2940227002837,None,258.93829430034384,None,None,1,258.93829430034384,None,260.94309070007876,None,,,,,,,,,,,,,,,,,,,,,,,,,,,,,,,,P014,fencog,1,Pre,2021_Oct_19_1119,N-Back (New Version 2021),2021.1.4,119.67276652457903,
Conditions/Version_1Pr/twoback(1)_v1.xlsx,New rule: Press 'space' when you see 2-back (i.e. the same letter as the one that appeared 2 letters ago.),C,None,,,,,0,2,2,2,0,7,7,7,,,,,,,,,,,,,,,,,,,,,,,,,,,,,,,,,,,,,,,,,,,1.265,262.4425290999934,None,263.7191910003312,None,None,1,263.7191910003312,None,265.71480350010097,None,,,,,,,,,,,,,,,,,,,,,,,,,,,,,,,,P014,fencog,1,Pre,2021_Oct_19_1119,N-Back (New Version 2021),2021.1.4,119.67276652457903,
Conditions/Version_1Pr/twoback(1)_v1.xlsx,New rule: Press 'space' when you see 2-back (i.e. the same letter as the one that appeared 2 letters ago.),x,None,,,,,0,2,2,2,0,8,8,8,,,,,,,,,,,,,,,,,,,,,,,,,,,,,,,,,,,,,,,,,,,1.915,267.2161467000842,None,269.1328858002089,None,None,1,269.1328858002089,None,271.1380929001607,None,,,,,,,,,,,,,,,,,,,,,,,,,,,,,,,,P014,fencog,1,Pre,2021_Oct_19_1119,N-Back (New Version 2021),2021.1.4,119.67276652457903,
Conditions/Version_1Pr/twoback(1)_v1.xlsx,New rule: Press 'space' when you see 2-back (i.e. the same letter as the one that appeared 2 letters ago.),Z,None,,,,,0,2,2,2,0,9,9,9,,,,,,,,,,,,,,,,,,,,,,,,,,,,,,,,,,,,,,,,,,,1.715,272.63964379997924,None,274.357423200272,None,None,1,274.357423200272,None,276.3634720002301,None,,,,,,,,,,,,,,,,,,,,,,,,,,,,,,,,P014,fencog,1,Pre,2021_Oct_19_1119,N-Back (New Version 2021),2021.1.4,119.67276652457903,
Conditions/Version_1Pr/twoback(1)_v1.xlsx,New rule: Press 'space' when you see 2-back (i.e. the same letter as the one that appeared 2 letters ago.),,,,,,,0,2,2,2,,,,,,,,,,,,,,,,,,,,,,,,,,,,,,,,,,,,,,,,,,,,,,,,,,,,,,,,,,,,,,,,,,,,,,,,,,,,,,,,,,,,,,,,,P014,fencog,1,Pre,2021_Oct_19_1119,N-Back (New Version 2021),2021.1.4,119.67276652457903,
Conditions/Version_1Pr/threeback(1)_v1.xlsx,New rule: Press 'space' when you see 3-back (i.e. the same letter as the one that appeared 3 letters ago.),r,None,,,,,0,3,3,3,0,0,0,0,,,,,,,,,,,,,,,,,,,,,,,,,,,,,,,,,277.89063489995897,None,280.8726467001252,None,space,0.17137550003826618,280.8726467001252,None,277.89063489995897,None,1.365,281.06708680000156,None,282.43868870008737,None,None,1,282.43868870008737,None,284.44031930016354,None,,,,,,,,,,,,,,,,,,,,,,,,,,,,,,,,P014,fencog,1,Pre,2021_Oct_19_1119,N-Back (New Version 2021),2021.1.4,119.67276652457903,
Conditions/Version_1Pr/threeback(1)_v1.xlsx,New rule: Press 'space' when you see 3-back (i.e. the same letter as the one that appeared 3 letters ago.),a,None,,,,,0,3,3,3,0,1,1,1,,,,,,,,,,,,,,,,,,,,,,,,,,,,,,,,,,,,,,,,,,,1.765,285.9441112000495,None,287.7157857003622,None,None,1,287.7157857003622,None,289.7179690003395,None,,,,,,,,,,,,,,,,,,,,,,,,,,,,,,,,P014,fencog,1,Pre,2021_Oct_19_1119,N-Back (New Version 2021),2021.1.4,119.67276652457903,
Conditions/Version_1Pr/threeback(1)_v1.xlsx,New rule: Press 'space' when you see 3-back (i.e. the same letter as the one that appeared 3 letters ago.),t,None,,,,,0,3,3,3,0,2,2,2,,,,,,,,,,,,,,,,,,,,,,,,,,,,,,,,,,,,,,,,,,,1.89,291.2174857002683,None,293.1112946001813,None,None,1,293.1112946001813,None,295.11645390000194,None,,,,,,,,,,,,,,,,,,,,,,,,,,,,,,,,P014,fencog,1,Pre,2021_Oct_19_1119,N-Back (New Version 2021),2021.1.4,119.67276652457903,
Conditions/Version_1Pr/threeback(1)_v1.xlsx,New rule: Press 'space' when you see 3-back (i.e. the same letter as the one that appeared 3 letters ago.),r,space,,,,,0,3,3,3,0,3,3,3,,,,,,,,,,,,,,,,,,,,,,,,,,,,,,,,,,,,,,,,,,,1.49,296.61584420036525,None,298.1110267001204,None,space,1,298.1110267001204,None,298.91824080003425,None,0.7942866999655962,,,,,,,,,,,,,,,,,,,,,,,,,,,,,,,P014,fencog,1,Pre,2021_Oct_19_1119,N-Back (New Version 2021),2021.1.4,119.67276652457903,
Conditions/Version_1Pr/threeback(1)_v1.xlsx,New rule: Press 'space' when you see 3-back (i.e. the same letter as the one that appeared 3 letters ago.),a,None,,,,,0,3,3,3,0,4,4,4,,,,,,,,,,,,,,,,,,,,,,,,,,,,,,,,,,,,,,,,,,,1.515,300.42307330016047,None,301.94364880025387,None,space,0,301.94364880025387,None,302.9187517003156,None,0.9628137000836432,,,,,,,,,,,,,,,,,,,,,,,,,,,,,,,P014,fencog,1,Pre,2021_Oct_19_1119,N-Back (New Version 2021),2021.1.4,119.67276652457903,
Conditions/Version_1Pr/threeback(1)_v1.xlsx,New rule: Press 'space' when you see 3-back (i.e. the same letter as the one that appeared 3 letters ago.),Y,None,,,,,0,3,3,3,0,5,5,5,,,,,,,,,,,,,,,,,,,,,,,,,,,,,,,,,,,,,,,,,,,1.865,304.4216865003109,None,306.2910977001302,None,None,1,306.2910977001302,None,308.2955015003681,None,,,,,,,,,,,,,,,,,,,,,,,,,,,,,,,,P014,fencog,1,Pre,2021_Oct_19_1119,N-Back (New Version 2021),2021.1.4,119.67276652457903,
Conditions/Version_1Pr/threeback(1)_v1.xlsx,New rule: Press 'space' when you see 3-back (i.e. the same letter as the one that appeared 3 letters ago.),q,None,,,,,0,3,3,3,0,6,6,6,,,,,,,,,,,,,,,,,,,,,,,,,,,,,,,,,,,,,,,,,,,1.065,309.7953416001983,None,310.86195930000395,None,None,1,310.86195930000395,None,312.86111150030047,None,,,,,,,,,,,,,,,,,,,,,,,,,,,,,,,,P014,fencog,1,Pre,2021_Oct_19_1119,N-Back (New Version 2021),2021.1.4,119.67276652457903,
Conditions/Version_1Pr/threeback(1)_v1.xlsx,New rule: Press 'space' when you see 3-back (i.e. the same letter as the one that appeared 3 letters ago.),A,space,,,,,0,3,3,3,0,7,7,7,,,,,,,,,,,,,,,,,,,,,,,,,,,,,,,,,,,,,,,,,,,1.34,314.36066010035574,None,315.70281760022044,None,space,1,315.70281760022044,None,316.0780746000819,None,0.3663389002904296,,,,,,,,,,,,,,,,,,,,,,,,,,,,,,,P014,fencog,1,Pre,2021_Oct_19_1119,N-Back (New Version 2021),2021.1.4,119.67276652457903,
Conditions/Version_1Pr/threeback(1)_v1.xlsx,New rule: Press 'space' when you see 3-back (i.e. the same letter as the one that appeared 3 letters ago.),y,None,,,,,0,3,3,3,0,8,8,8,,,,,,,,,,,,,,,,,,,,,,,,,,,,,,,,,,,,,,,,,,,1.115,317.58455480029806,None,318.70868080016226,None,space,0,318.70868080016226,None,319.0541195999831,None,0.33089559990912676,,,,,,,,,,,,,,,,,,,,,,,,,,,,,,,P014,fencog,1,Pre,2021_Oct_19_1119,N-Back (New Version 2021),2021.1.4,119.67276652457903,
Conditions/Version_1Pr/threeback(1)_v1.xlsx,New rule: Press 'space' when you see 3-back (i.e. the same letter as the one that appeared 3 letters ago.),r,None,,,,,0,3,3,3,0,9,9,9,,,,,,,,,,,,,,,,,,,,,,,,,,,,,,,,,,,,,,,,,,,1.64,320.55885370029137,None,322.2075511002913,None,None,1,322.2075511002913,None,324.20775690022856,None,,,,,,,,,,,,,,,,,,,,,,,,,,,,,,,,P014,fencog,1,Pre,2021_Oct_19_1119,N-Back (New Version 2021),2021.1.4,119.67276652457903,
Conditions/Version_1Pr/threeback(1)_v1.xlsx,New rule: Press 'space' when you see 3-back (i.e. the same letter as the one that appeared 3 letters ago.),,,,,,,0,3,3,3,,,,,,,,,,,,,,,,,,,,,,,,,,,,,,,,,,,,,,,,,,,,,,,,,,,,,,,,,,,,,,,,,,,,,,,,,,,,,,,,,,,,,,,,,P014,fencog,1,Pre,2021_Oct_19_1119,N-Back (New Version 2021),2021.1.4,119.67276652457903,
,,,,,,,,,,,,,,,,,,,,,,,,,,,,,,,,,,,,,,,,,,,,,,,,,,,,,,,,,,,,,,,,,,,,,,325.72339239995927,None,space,3.6505791996605694,326.21589670004323,None,,,,,,,,,,,,,,,,,,,,,,,,,P014,fencog,1,Pre,2021_Oct_19_1119,N-Back (New Version 2021),2021.1.4,119.67276652457903,
,,,,,,,,,,,,,,,,,,,,,,,,,,,,,,,,,,,,,,,,,,,,,,,,,,,,,,,,,,,,,,,,,,,,,,,,,,,,329.8980272002518,None,space,6.628502499777824,330.38973860023543,None,,,,,,,,,,,,,,,,,,,P014,fencog,1,Pre,2021_Oct_19_1119,N-Back (New Version 2021),2021.1.4,119.67276652457903,
,,,,Conditions/Version_1/zeroback(1)_v1.xlsx,Rule: Press 'space' when you see the letter 'x' or 'X'.,b,None,,,,,,,,,0,0,0,0,0,0,0,0,,,,,,,,,,,,,,,,,,,,,,,,,,,,,,,,,,,,,,,,,,,,,,,,,,,,,,,,,,,337.1330254999921,None,340.11272069998085,None,space,0.10617590043693781,340.11272069998085,None,337.1330254999921,None,1.4006,341.6683121002279,None,None,1,341.6683121002279,None,,P014,fencog,1,Pre,2021_Oct_19_1119,N-Back (New Version 2021),2021.1.4,119.67276652457903,
,,,,Conditions/Version_1/zeroback(1)_v1.xlsx,Rule: Press 'space' when you see the letter 'x' or 'X'.,T,None,,,,,,,,,0,0,0,0,0,1,1,1,,,,,,,,,,,,,,,,,,,,,,,,,,,,,,,,,,,,,,,,,,,,,,,,,,,,,,,,,,,,,,,,,,,,,1.444,345.1207679002546,None,None,1,345.1207679002546,None,,P014,fencog,1,Pre,2021_Oct_19_1119,N-Back (New Version 2021),2021.1.4,119.67276652457903,
,,,,Conditions/Version_1/zeroback(1)_v1.xlsx,Rule: Press 'space' when you see the letter 'x' or 'X'.,L,None,,,,,,,,,0,0,0,0,0,2,2,2,,,,,,,,,,,,,,,,,,,,,,,,,,,,,,,,,,,,,,,,,,,,,,,,,,,,,,,,,,,,,,,,,,,,,1.6486,348.77798140002415,None,None,1,348.77798140002415,None,,P014,fencog,1,Pre,2021_Oct_19_1119,N-Back (New Version 2021),2021.1.4,119.67276652457903,
,,,,Conditions/Version_1/zeroback(1)_v1.xlsx,Rule: Press 'space' when you see the letter 'x' or 'X'.,x,space,,,,,,,,,0,0,0,0,0,3,3,3,,,,,,,,,,,,,,,,,,,,,,,,,,,,,,,,,,,,,,,,,,,,,,,,,,,,,,,,,,,,,,,,,,,,,1.351,352.14185240026563,None,space,1,352.14185240026563,None,0.3589737000875175,P014,fencog,1,Pre,2021_Oct_19_1119,N-Back (New Version 2021),2021.1.4,119.67276652457903,
,,,,Conditions/Version_1/zeroback(1)_v1.xlsx,Rule: Press 'space' when you see the letter 'x' or 'X'.,o,None,,,,,,,,,0,0,0,0,0,4,4,4,,,,,,,,,,,,,,,,,,,,,,,,,,,,,,,,,,,,,,,,,,,,,,,,,,,,,,,,,,,,,,,,,,,,,1.6672,355.815537000075,None,None,1,355.815537000075,None,,P014,fencog,1,Pre,2021_Oct_19_1119,N-Back (New Version 2021),2021.1.4,119.67276652457903,
,,,,Conditions/Version_1/zeroback(1)_v1.xlsx,Rule: Press 'space' when you see the letter 'x' or 'X'.,P,None,,,,,,,,,0,0,0,0,0,5,5,5,,,,,,,,,,,,,,,,,,,,,,,,,,,,,,,,,,,,,,,,,,,,,,,,,,,,,,,,,,,,,,,,,,,,,1.3324,359.14980580005795,None,None,1,359.14980580005795,None,,P014,fencog,1,Pre,2021_Oct_19_1119,N-Back (New Version 2021),2021.1.4,119.67276652457903,
,,,,Conditions/Version_1/zeroback(1)_v1.xlsx,Rule: Press 'space' when you see the letter 'x' or 'X'.,X,space,,,,,,,,,0,0,0,0,0,6,6,6,,,,,,,,,,,,,,,,,,,,,,,,,,,,,,,,,,,,,,,,,,,,,,,,,,,,,,,,,,,,,,,,,,,,,1.2022,362.365581900347,None,space,1,362.365581900347,None,0.3474232000298798,P014,fencog,1,Pre,2021_Oct_19_1119,N-Back (New Version 2021),2021.1.4,119.67276652457903,
,,,,Conditions/Version_1/zeroback(1)_v1.xlsx,Rule: Press 'space' when you see the letter 'x' or 'X'.,n,None,,,,,,,,,0,0,0,0,0,7,7,7,,,,,,,,,,,,,,,,,,,,,,,,,,,,,,,,,,,,,,,,,,,,,,,,,,,,,,,,,,,,,,,,,,,,,1.2394,365.61494560027495,None,None,1,365.61494560027495,None,,P014,fencog,1,Pre,2021_Oct_19_1119,N-Back (New Version 2021),2021.1.4,119.67276652457903,
,,,,Conditions/Version_1/zeroback(1)_v1.xlsx,Rule: Press 'space' when you see the letter 'x' or 'X'.,M,None,,,,,,,,,0,0,0,0,0,8,8,8,,,,,,,,,,,,,,,,,,,,,,,,,,,,,,,,,,,,,,,,,,,,,,,,,,,,,,,,,,,,,,,,,,,,,1.6858,369.31524370005354,None,None,1,369.31524370005354,None,,P014,fencog,1,Pre,2021_Oct_19_1119,N-Back (New Version 2021),2021.1.4,119.67276652457903,
,,,,Conditions/Version_1/zeroback(1)_v1.xlsx,Rule: Press 'space' when you see the letter 'x' or 'X'.,a,None,,,,,,,,,0,0,0,0,0,9,9,9,,,,,,,,,,,,,,,,,,,,,,,,,,,,,,,,,,,,,,,,,,,,,,,,,,,,,,,,,,,,,,,,,,,,,1.0348,372.36112749995664,None,None,1,372.36112749995664,None,,P014,fencog,1,Pre,2021_Oct_19_1119,N-Back (New Version 2021),2021.1.4,119.67276652457903,
,,,,Conditions/Version_1/zeroback(1)_v1.xlsx,Rule: Press 'space' when you see the letter 'x' or 'X'.,,,,,,,,,,,0,0,0,0,,,,,,,,,,,,,,,,,,,,,,,,,,,,,,,,,,,,,,,,,,,,,,,,,,,,,,,,,,,,,,,,,,,,,,,,,,,,,,,,,P014,fencog,1,Pre,2021_Oct_19_1119,N-Back (New Version 2021),2021.1.4,119.67276652457903,
,,,,Conditions/Version_1/oneback(1)_v1.xlsx,New rule: Press 'space' when you see 1-back (i.e. the same letter as the one that appeared 1 letter ago.),b,None,,,,,,,,,0,1,1,1,0,0,0,0,,,,,,,,,,,,,,,,,,,,,,,,,,,,,,,,,,,,,,,,,,,,,,,,,,,,,,,,,,,374.38752020010725,None,377.36961300019175,None,space,2.524814900010824,377.36961300019175,None,374.38752020010725,None,1.9958,381.91771219996735,None,None,1,381.91771219996735,None,,P014,fencog,1,Pre,2021_Oct_19_1119,N-Back (New Version 2021),2021.1.4,119.67276652457903,
,,,,Conditions/Version_1/oneback(1)_v1.xlsx,New rule: Press 'space' when you see 1-back (i.e. the same letter as the one that appeared 1 letter ago.),p,None,,,,,,,,,0,1,1,1,0,1,1,1,,,,,,,,,,,,,,,,,,,,,,,,,,,,,,,,,,,,,,,,,,,,,,,,,,,,,,,,,,,,,,,,,,,,,1.2952,385.2233065003529,None,None,1,385.2233065003529,None,,P014,fencog,1,Pre,2021_Oct_19_1119,N-Back (New Version 2021),2021.1.4,119.67276652457903,
,,,,Conditions/Version_1/oneback(1)_v1.xlsx,New rule: Press 'space' when you see 1-back (i.e. the same letter as the one that appeared 1 letter ago.),M,None,,,,,,,,,0,1,1,1,0,2,2,2,,,,,,,,,,,,,,,,,,,,,,,,,,,,,,,,,,,,,,,,,,,,,,,,,,,,,,,,,,,,,,,,,,,,,1.444,388.6719275000505,None,None,1,388.6719275000505,None,,P014,fencog,1,Pre,2021_Oct_19_1119,N-Back (New Version 2021),2021.1.4,119.67276652457903,
,,,,Conditions/Version_1/oneback(1)_v1.xlsx,New rule: Press 'space' when you see 1-back (i.e. the same letter as the one that appeared 1 letter ago.),M,space,,,,,,,,,0,1,1,1,0,3,3,3,,,,,,,,,,,,,,,,,,,,,,,,,,,,,,,,,,,,,,,,,,,,,,,,,,,,,,,,,,,,,,,,,,,,,1.0596,391.7386640002951,None,space,1,391.7386640002951,None,0.32479700027033687,P014,fencog,1,Pre,2021_Oct_19_1119,N-Back (New Version 2021),2021.1.4,119.67276652457903,
,,,,Conditions/Version_1/oneback(1)_v1.xlsx,New rule: Press 'space' when you see 1-back (i.e. the same letter as the one that appeared 1 letter ago.),n,None,,,,,,,,,0,1,1,1,0,4,4,4,,,,,,,,,,,,,,,,,,,,,,,,,,,,,,,,,,,,,,,,,,,,,,,,,,,,,,,,,,,,,,,,,,,,,1.7974,395.54490450024605,None,None,1,395.54490450024605,None,,P014,fencog,1,Pre,2021_Oct_19_1119,N-Back (New Version 2021),2021.1.4,119.67276652457903,
,,,,Conditions/Version_1/oneback(1)_v1.xlsx,New rule: Press 'space' when you see 1-back (i.e. the same letter as the one that appeared 1 letter ago.),g,None,,,,,,,,,0,1,1,1,0,5,5,5,,,,,,,,,,,,,,,,,,,,,,,,,,,,,,,,,,,,,,,,,,,,,,,,,,,,,,,,,,,,,,,,,,,,,1.7726,399.318660300225,None,None,1,399.318660300225,None,,P014,fencog,1,Pre,2021_Oct_19_1119,N-Back (New Version 2021),2021.1.4,119.67276652457903,
,,,,Conditions/Version_1/oneback(1)_v1.xlsx,New rule: Press 'space' when you see 1-back (i.e. the same letter as the one that appeared 1 letter ago.),P,None,,,,,,,,,0,1,1,1,0,6,6,6,,,,,,,,,,,,,,,,,,,,,,,,,,,,,,,,,,,,,,,,,,,,,,,,,,,,,,,,,,,,,,,,,,,,,1.4006,402.71763530001044,None,None,1,402.71763530001044,None,,P014,fencog,1,Pre,2021_Oct_19_1119,N-Back (New Version 2021),2021.1.4,119.67276652457903,
,,,,Conditions/Version_1/oneback(1)_v1.xlsx,New rule: Press 'space' when you see 1-back (i.e. the same letter as the one that appeared 1 letter ago.),o,None,,,,,,,,,0,1,1,1,0,7,7,7,,,,,,,,,,,,,,,,,,,,,,,,,,,,,,,,,,,,,,,,,,,,,,,,,,,,,,,,,,,,,,,,,,,,,1.289,406.00833980040625,None,None,1,406.00833980040625,None,,P014,fencog,1,Pre,2021_Oct_19_1119,N-Back (New Version 2021),2021.1.4,119.67276652457903,
,,,,Conditions/Version_1/oneback(1)_v1.xlsx,New rule: Press 'space' when you see 1-back (i.e. the same letter as the one that appeared 1 letter ago.),f,None,,,,,,,,,0,1,1,1,0,8,8,8,,,,,,,,,,,,,,,,,,,,,,,,,,,,,,,,,,,,,,,,,,,,,,,,,,,,,,,,,,,,,,,,,,,,,1.351,409.3677324000746,None,None,1,409.3677324000746,None,,P014,fencog,1,Pre,2021_Oct_19_1119,N-Back (New Version 2021),2021.1.4,119.67276652457903,
,,,,Conditions/Version_1/oneback(1)_v1.xlsx,New rule: Press 'space' when you see 1-back (i.e. the same letter as the one that appeared 1 letter ago.),F,space,,,,,,,,,0,1,1,1,0,9,9,9,,,,,,,,,,,,,,,,,,,,,,,,,,,,,,,,,,,,,,,,,,,,,,,,,,,,,,,,,,,,,,,,,,,,,1.103,412.4816398001276,None,space,1,412.4816398001276,None,0.3590555996634066,P014,fencog,1,Pre,2021_Oct_19_1119,N-Back (New Version 2021),2021.1.4,119.67276652457903,
,,,,Conditions/Version_1/oneback(1)_v1.xlsx,New rule: Press 'space' when you see 1-back (i.e. the same letter as the one that appeared 1 letter ago.),,,,,,,,,,,0,1,1,1,,,,,,,,,,,,,,,,,,,,,,,,,,,,,,,,,,,,,,,,,,,,,,,,,,,,,,,,,,,,,,,,,,,,,,,,,,,,,,,,,P014,fencog,1,Pre,2021_Oct_19_1119,N-Back (New Version 2021),2021.1.4,119.67276652457903,
,,,,Conditions/Version_1/twoback(1)_v1.xlsx,New rule: Press 'space' when you see 2-back (i.e. the same letter as the one that appeared 2 letters ago.),b,None,,,,,,,,,0,2,2,2,0,0,0,0,,,,,,,,,,,,,,,,,,,,,,,,,,,,,,,,,,,,,,,,,,,,,,,,,,,,,,,,,,,414.50021460000426,None,417.4906497001648,None,space,2.419986900407821,417.4906497001648,None,414.50021460000426,None,1.9772,421.912013000343,None,None,1,421.912013000343,None,,P014,fencog,1,Pre,2021_Oct_19_1119,N-Back (New Version 2021),2021.1.4,119.67276652457903,
,,,,Conditions/Version_1/twoback(1)_v1.xlsx,New rule: Press 'space' when you see 2-back (i.e. the same letter as the one that appeared 2 letters ago.),h,None,,,,,,,,,0,2,2,2,0,1,1,1,,,,,,,,,,,,,,,,,,,,,,,,,,,,,,,,,,,,,,,,,,,,,,,,,,,,,,,,,,,,,,,,,,,,,1.7044,425.6199875003658,None,None,1,425.6199875003658,None,,P014,fencog,1,Pre,2021_Oct_19_1119,N-Back (New Version 2021),2021.1.4,119.67276652457903,
,,,,Conditions/Version_1/twoback(1)_v1.xlsx,New rule: Press 'space' when you see 2-back (i.e. the same letter as the one that appeared 2 letters ago.),j,None,,,,,,,,,0,2,2,2,0,2,2,2,,,,,,,,,,,,,,,,,,,,,,,,,,,,,,,,,,,,,,,,,,,,,,,,,,,,,,,,,,,,,,,,,,,,,1.4564,429.096777100116,None,None,1,429.096777100116,None,,P014,fencog,1,Pre,2021_Oct_19_1119,N-Back (New Version 2021),2021.1.4,119.67276652457903,
,,,,Conditions/Version_1/twoback(1)_v1.xlsx,New rule: Press 'space' when you see 2-back (i.e. the same letter as the one that appeared 2 letters ago.),H,space,,,,,,,,,0,2,2,2,0,3,3,3,,,,,,,,,,,,,,,,,,,,,,,,,,,,,,,,,,,,,,,,,,,,,,,,,,,,,,,,,,,,,,,,,,,,,1.0844,432.19000479998067,None,space,1,432.19000479998067,None,0.5027160001918674,P014,fencog,1,Pre,2021_Oct_19_1119,N-Back (New Version 2021),2021.1.4,119.67276652457903,
,,,,Conditions/Version_1/twoback(1)_v1.xlsx,New rule: Press 'space' when you see 2-back (i.e. the same letter as the one that appeared 2 letters ago.),p,None,,,,,,,,,0,2,2,2,0,4,4,4,,,,,,,,,,,,,,,,,,,,,,,,,,,,,,,,,,,,,,,,,,,,,,,,,,,,,,,,,,,,,,,,,,,,,1.1836,435.37488629994914,None,None,1,435.37488629994914,None,,P014,fencog,1,Pre,2021_Oct_19_1119,N-Back (New Version 2021),2021.1.4,119.67276652457903,
,,,,Conditions/Version_1/twoback(1)_v1.xlsx,New rule: Press 'space' when you see 2-back (i.e. the same letter as the one that appeared 2 letters ago.),p,None,,,,,,,,,0,2,2,2,0,5,5,5,,,,,,,,,,,,,,,,,,,,,,,,,,,,,,,,,,,,,,,,,,,,,,,,,,,,,,,,,,,,,,,,,,,,,1.9648,439.350265300367,None,None,1,439.350265300367,None,,P014,fencog,1,Pre,2021_Oct_19_1119,N-Back (New Version 2021),2021.1.4,119.67276652457903,
,,,,Conditions/Version_1/twoback(1)_v1.xlsx,New rule: Press 'space' when you see 2-back (i.e. the same letter as the one that appeared 2 letters ago.),w,None,,,,,,,,,0,2,2,2,0,6,6,6,,,,,,,,,,,,,,,,,,,,,,,,,,,,,,,,,,,,,,,,,,,,,,,,,,,,,,,,,,,,,,,,,,,,,1.63,442.9895123001188,None,None,1,442.9895123001188,None,,P014,fencog,1,Pre,2021_Oct_19_1119,N-Back (New Version 2021),2021.1.4,119.67276652457903,
,,,,Conditions/Version_1/twoback(1)_v1.xlsx,New rule: Press 'space' when you see 2-back (i.e. the same letter as the one that appeared 2 letters ago.),R,None,,,,,,,,,0,2,2,2,0,7,7,7,,,,,,,,,,,,,,,,,,,,,,,,,,,,,,,,,,,,,,,,,,,,,,,,,,,,,,,,,,,,,,,,,,,,,1.8594,446.85627520037815,None,None,1,446.85627520037815,None,,P014,fencog,1,Pre,2021_Oct_19_1119,N-Back (New Version 2021),2021.1.4,119.67276652457903,
,,,,Conditions/Version_1/twoback(1)_v1.xlsx,New rule: Press 'space' when you see 2-back (i.e. the same letter as the one that appeared 2 letters ago.),a,None,,,,,,,,,0,2,2,2,0,8,8,8,,,,,,,,,,,,,,,,,,,,,,,,,,,,,,,,,,,,,,,,,,,,,,,,,,,,,,,,,,,,,,,,,,,,,1.5246,450.38899630028754,None,None,1,450.38899630028754,None,,P014,fencog,1,Pre,2021_Oct_19_1119,N-Back (New Version 2021),2021.1.4,119.67276652457903,
,,,,Conditions/Version_1/twoback(1)_v1.xlsx,New rule: Press 'space' when you see 2-back (i.e. the same letter as the one that appeared 2 letters ago.),r,space,,,,,,,,,0,2,2,2,0,9,9,9,,,,,,,,,,,,,,,,,,,,,,,,,,,,,,,,,,,,,,,,,,,,,,,,,,,,,,,,,,,,,,,,,,,,,1.2084,453.602804500144,None,space,1,453.602804500144,None,0.42480319971218705,P014,fencog,1,Pre,2021_Oct_19_1119,N-Back (New Version 2021),2021.1.4,119.67276652457903,
,,,,Conditions/Version_1/twoback(1)_v1.xlsx,New rule: Press 'space' when you see 2-back (i.e. the same letter as the one that appeared 2 letters ago.),,,,,,,,,,,0,2,2,2,,,,,,,,,,,,,,,,,,,,,,,,,,,,,,,,,,,,,,,,,,,,,,,,,,,,,,,,,,,,,,,,,,,,,,,,,,,,,,,,,P014,fencog,1,Pre,2021_Oct_19_1119,N-Back (New Version 2021),2021.1.4,119.67276652457903,
,,,,Conditions/Version_1/threeback(1)_v1.xlsx,New rule: Press 'space' when you see 3-back (i.e. the same letter as the one that appeared 3 letters ago.),r,None,,,,,,,,,0,3,3,3,0,0,0,0,,,,,,,,,,,,,,,,,,,,,,,,,,,,,,,,,,,,,,,,,,,,,,,,,,,,,,,,,,,455.6446630000137,None,458.61984940012917,None,space,1.4100486999377608,458.61984940012917,None,455.6446630000137,None,1.6052,461.6754642003216,None,None,1,461.6754642003216,None,,P014,fencog,1,Pre,2021_Oct_19_1119,N-Back (New Version 2021),2021.1.4,119.67276652457903,
,,,,Conditions/Version_1/threeback(1)_v1.xlsx,New rule: Press 'space' when you see 3-back (i.e. the same letter as the one that appeared 3 letters ago.),o,None,,,,,,,,,0,3,3,3,0,1,1,1,,,,,,,,,,,,,,,,,,,,,,,,,,,,,,,,,,,,,,,,,,,,,,,,,,,,,,,,,,,,,,,,,,,,,1.754,465.4338525002822,None,None,1,465.4338525002822,None,,P014,fencog,1,Pre,2021_Oct_19_1119,N-Back (New Version 2021),2021.1.4,119.67276652457903,
,,,,Conditions/Version_1/threeback(1)_v1.xlsx,New rule: Press 'space' when you see 3-back (i.e. the same letter as the one that appeared 3 letters ago.),P,None,,,,,,,,,0,3,3,3,0,2,2,2,,,,,,,,,,,,,,,,,,,,,,,,,,,,,,,,,,,,,,,,,,,,,,,,,,,,,,,,,,,,,,,,,,,,,1.7168,469.16068240022287,None,None,1,469.16068240022287,None,,P014,fencog,1,Pre,2021_Oct_19_1119,N-Back (New Version 2021),2021.1.4,119.67276652457903,
,,,,Conditions/Version_1/threeback(1)_v1.xlsx,New rule: Press 'space' when you see 3-back (i.e. the same letter as the one that appeared 3 letters ago.),R,space,,,,,,,,,0,3,3,3,0,3,3,3,,,,,,,,,,,,,,,,,,,,,,,,,,,,,,,,,,,,,,,,,,,,,,,,,,,,,,,,,,,,,,,,,,,,,1.2456,472.4138732003048,None,space,1,472.4138732003048,None,0.4436809001490474,P014,fencog,1,Pre,2021_Oct_19_1119,N-Back (New Version 2021),2021.1.4,119.67276652457903,
,,,,Conditions/Version_1/threeback(1)_v1.xlsx,New rule: Press 'space' when you see 3-back (i.e. the same letter as the one that appeared 3 letters ago.),p,None,,,,,,,,,0,3,3,3,0,4,4,4,,,,,,,,,,,,,,,,,,,,,,,,,,,,,,,,,,,,,,,,,,,,,,,,,,,,,,,,,,,,,,,,,,,,,1.0844,475.5048720999621,None,None,1,475.5048720999621,None,,P014,fencog,1,Pre,2021_Oct_19_1119,N-Back (New Version 2021),2021.1.4,119.67276652457903,
,,,,Conditions/Version_1/threeback(1)_v1.xlsx,New rule: Press 'space' when you see 3-back (i.e. the same letter as the one that appeared 3 letters ago.),E,None,,,,,,,,,0,3,3,3,0,5,5,5,,,,,,,,,,,,,,,,,,,,,,,,,,,,,,,,,,,,,,,,,,,,,,,,,,,,,,,,,,,,,,,,,,,,,1.444,478.9537721001543,None,None,1,478.9537721001543,None,,P014,fencog,1,Pre,2021_Oct_19_1119,N-Back (New Version 2021),2021.1.4,119.67276652457903,
,,,,Conditions/Version_1/threeback(1)_v1.xlsx,New rule: Press 'space' when you see 3-back (i.e. the same letter as the one that appeared 3 letters ago.),e,None,,,,,,,,,0,3,3,3,0,6,6,6,,,,,,,,,,,,,,,,,,,,,,,,,,,,,,,,,,,,,,,,,,,,,,,,,,,,,,,,,,,,,,,,,,,,,1.103,482.06391949998215,None,None,1,482.06391949998215,None,,P014,fencog,1,Pre,2021_Oct_19_1119,N-Back (New Version 2021),2021.1.4,119.67276652457903,
,,,,Conditions/Version_1/threeback(1)_v1.xlsx,New rule: Press 'space' when you see 3-back (i.e. the same letter as the one that appeared 3 letters ago.),m,None,,,,,,,,,0,3,3,3,0,7,7,7,,,,,,,,,,,,,,,,,,,,,,,,,,,,,,,,,,,,,,,,,,,,,,,,,,,,,,,,,,,,,,,,,,,,,1.1278,485.20393209997565,None,None,1,485.20393209997565,None,,P014,fencog,1,Pre,2021_Oct_19_1119,N-Back (New Version 2021),2021.1.4,119.67276652457903,
,,,,Conditions/Version_1/threeback(1)_v1.xlsx,New rule: Press 'space' when you see 3-back (i.e. the same letter as the one that appeared 3 letters ago.),n,None,,,,,,,,,0,3,3,3,0,8,8,8,,,,,,,,,,,,,,,,,,,,,,,,,,,,,,,,,,,,,,,,,,,,,,,,,,,,,,,,,,,,,,,,,,,,,1.6858,488.89233150007203,None,None,1,488.89233150007203,None,,P014,fencog,1,Pre,2021_Oct_19_1119,N-Back (New Version 2021),2021.1.4,119.67276652457903,
,,,,Conditions/Version_1/threeback(1)_v1.xlsx,New rule: Press 'space' when you see 3-back (i.e. the same letter as the one that appeared 3 letters ago.),e,space,,,,,,,,,0,3,3,3,0,9,9,9,,,,,,,,,,,,,,,,,,,,,,,,,,,,,,,,,,,,,,,,,,,,,,,,,,,,,,,,,,,,,,,,,,,,,1.3696,492.27607230003923,None,space,1,492.27607230003923,None,0.3982012001797557,P014,fencog,1,Pre,2021_Oct_19_1119,N-Back (New Version 2021),2021.1.4,119.67276652457903,
,,,,Conditions/Version_1/threeback(1)_v1.xlsx,New rule: Press 'space' when you see 3-back (i.e. the same letter as the one that appeared 3 letters ago.),,,,,,,,,,,0,3,3,3,,,,,,,,,,,,,,,,,,,,,,,,,,,,,,,,,,,,,,,,,,,,,,,,,,,,,,,,,,,,,,,,,,,,,,,,,,,,,,,,,P014,fencog,1,Pre,2021_Oct_19_1119,N-Back (New Version 2021),2021.1.4,119.67276652457903,
,,,,Conditions/Version_1/oneback(2)_v1.xlsx,New rule: Press 'space' when you see 1-back (i.e. the same letter as the one that appeared 1 letter ago.),q,None,,,,,,,,,0,4,4,4,0,0,0,0,,,,,,,,,,,,,,,,,,,,,,,,,,,,,,,,,,,,,,,,,,,,,,,,,,,,,,,,,,,494.30077530024573,None,497.28306130040437,None,space,1.0119918999262154,497.28306130040437,None,494.30077530024573,None,1.5866,499.9083282002248,None,None,1,499.9083282002248,None,,P014,fencog,1,Pre,2021_Oct_19_1119,N-Back (New Version 2021),2021.1.4,119.67276652457903,
,,,,Conditions/Version_1/oneback(2)_v1.xlsx,New rule: Press 'space' when you see 1-back (i.e. the same letter as the one that appeared 1 letter ago.),Q,space,,,,,,,,,0,4,4,4,0,1,1,1,,,,,,,,,,,,,,,,,,,,,,,,,,,,,,,,,,,,,,,,,,,,,,,,,,,,,,,,,,,,,,,,,,,,,1.8966,503.8114880002104,None,space,1,503.8114880002104,None,0.4094926998950541,P014,fencog,1,Pre,2021_Oct_19_1119,N-Back (New Version 2021),2021.1.4,119.67276652457903,
,,,,Conditions/Version_1/oneback(2)_v1.xlsx,New rule: Press 'space' when you see 1-back (i.e. the same letter as the one that appeared 1 letter ago.),P,None,,,,,,,,,0,4,4,4,0,2,2,2,,,,,,,,,,,,,,,,,,,,,,,,,,,,,,,,,,,,,,,,,,,,,,,,,,,,,,,,,,,,,,,,,,,,,1.8098,507.62871480034664,None,None,1,507.62871480034664,None,,P014,fencog,1,Pre,2021_Oct_19_1119,N-Back (New Version 2021),2021.1.4,119.67276652457903,
,,,,Conditions/Version_1/oneback(2)_v1.xlsx,New rule: Press 'space' when you see 1-back (i.e. the same letter as the one that appeared 1 letter ago.),o,None,,,,,,,,,0,4,4,4,0,3,3,3,,,,,,,,,,,,,,,,,,,,,,,,,,,,,,,,,,,,,,,,,,,,,,,,,,,,,,,,,,,,,,,,,,,,,1.7168,511.3463242002763,None,None,1,511.3463242002763,None,,P014,fencog,1,Pre,2021_Oct_19_1119,N-Back (New Version 2021),2021.1.4,119.67276652457903,
,,,,Conditions/Version_1/oneback(2)_v1.xlsx,New rule: Press 'space' when you see 1-back (i.e. the same letter as the one that appeared 1 letter ago.),m,None,,,,,,,,,0,4,4,4,0,4,4,4,,,,,,,,,,,,,,,,,,,,,,,,,,,,,,,,,,,,,,,,,,,,,,,,,,,,,,,,,,,,,,,,,,,,,1.32,514.6772210001945,None,None,1,514.6772210001945,None,,P014,fencog,1,Pre,2021_Oct_19_1119,N-Back (New Version 2021),2021.1.4,119.67276652457903,
,,,,Conditions/Version_1/oneback(2)_v1.xlsx,New rule: Press 'space' when you see 1-back (i.e. the same letter as the one that appeared 1 letter ago.),Z,None,,,,,,,,,0,4,4,4,0,5,5,5,,,,,,,,,,,,,,,,,,,,,,,,,,,,,,,,,,,,,,,,,,,,,,,,,,,,,,,,,,,,,,,,,,,,,1.94,518.6253450000659,None,None,1,518.6253450000659,None,,P014,fencog,1,Pre,2021_Oct_19_1119,N-Back (New Version 2021),2021.1.4,119.67276652457903,
,,,,Conditions/Version_1/oneback(2)_v1.xlsx,New rule: Press 'space' when you see 1-back (i.e. the same letter as the one that appeared 1 letter ago.),c,None,,,,,,,,,0,4,4,4,0,6,6,6,,,,,,,,,,,,,,,,,,,,,,,,,,,,,,,,,,,,,,,,,,,,,,,,,,,,,,,,,,,,,,,,,,,,,1.0782,521.7116629001684,None,None,1,521.7116629001684,None,,P014,fencog,1,Pre,2021_Oct_19_1119,N-Back (New Version 2021),2021.1.4,119.67276652457903,
,,,,Conditions/Version_1/oneback(2)_v1.xlsx,New rule: Press 'space' when you see 1-back (i.e. the same letter as the one that appeared 1 letter ago.),c,space,,,,,,,,,0,4,4,4,0,7,7,7,,,,,,,,,,,,,,,,,,,,,,,,,,,,,,,,,,,,,,,,,,,,,,,,,,,,,,,,,,,,,,,,,,,,,1.3572,525.073375500273,None,space,1,525.073375500273,None,0.40769509971141815,P014,fencog,1,Pre,2021_Oct_19_1119,N-Back (New Version 2021),2021.1.4,119.67276652457903,
,,,,Conditions/Version_1/oneback(2)_v1.xlsx,New rule: Press 'space' when you see 1-back (i.e. the same letter as the one that appeared 1 letter ago.),P,None,,,,,,,,,0,4,4,4,0,8,8,8,,,,,,,,,,,,,,,,,,,,,,,,,,,,,,,,,,,,,,,,,,,,,,,,,,,,,,,,,,,,,,,,,,,,,1.4688,528.5475159999914,None,None,1,528.5475159999914,None,,P014,fencog,1,Pre,2021_Oct_19_1119,N-Back (New Version 2021),2021.1.4,119.67276652457903,
,,,,Conditions/Version_1/oneback(2)_v1.xlsx,New rule: Press 'space' when you see 1-back (i.e. the same letter as the one that appeared 1 letter ago.),p,space,,,,,,,,,0,4,4,4,0,9,9,9,,,,,,,,,,,,,,,,,,,,,,,,,,,,,,,,,,,,,,,,,,,,,,,,,,,,,,,,,,,,,,,,,,,,,1.165,531.7134907003492,None,space,1,531.7134907003492,None,0.40279309963807464,P014,fencog,1,Pre,2021_Oct_19_1119,N-Back (New Version 2021),2021.1.4,119.67276652457903,
,,,,Conditions/Version_1/oneback(2)_v1.xlsx,New rule: Press 'space' when you see 1-back (i.e. the same letter as the one that appeared 1 letter ago.),,,,,,,,,,,0,4,4,4,,,,,,,,,,,,,,,,,,,,,,,,,,,,,,,,,,,,,,,,,,,,,,,,,,,,,,,,,,,,,,,,,,,,,,,,,,,,,,,,,P014,fencog,1,Pre,2021_Oct_19_1119,N-Back (New Version 2021),2021.1.4,119.67276652457903,
,,,,Conditions/Version_1/zeroback(2)_v1.xlsx,New rule: Press 'space' when you see the letter 'x' or 'X'.,p,None,,,,,,,,,0,5,5,5,0,0,0,0,,,,,,,,,,,,,,,,,,,,,,,,,,,,,,,,,,,,,,,,,,,,,,,,,,,,,,,,,,,533.7268902002834,None,536.7158437999897,None,space,1.015931099653244,536.7158437999897,None,533.7268902002834,None,1.103,538.8610911001451,None,None,1,538.8610911001451,None,,P014,fencog,1,Pre,2021_Oct_19_1119,N-Back (New Version 2021),2021.1.4,119.67276652457903,
,,,,Conditions/Version_1/zeroback(2)_v1.xlsx,New rule: Press 'space' when you see the letter 'x' or 'X'.,L,None,,,,,,,,,0,5,5,5,0,1,1,1,,,,,,,,,,,,,,,,,,,,,,,,,,,,,,,,,,,,,,,,,,,,,,,,,,,,,,,,,,,,,,,,,,,,,1.6548,542.5185850001872,None,None,1,542.5185850001872,None,,P014,fencog,1,Pre,2021_Oct_19_1119,N-Back (New Version 2021),2021.1.4,119.67276652457903,
,,,,Conditions/Version_1/zeroback(2)_v1.xlsx,New rule: Press 'space' when you see the letter 'x' or 'X'.,G,None,,,,,,,,,0,5,5,5,0,2,2,2,,,,,,,,,,,,,,,,,,,,,,,,,,,,,,,,,,,,,,,,,,,,,,,,,,,,,,,,,,,,,,,,,,,,,1.2208,545.7425088002346,None,None,1,545.7425088002346,None,,P014,fencog,1,Pre,2021_Oct_19_1119,N-Back (New Version 2021),2021.1.4,119.67276652457903,
,,,,Conditions/Version_1/zeroback(2)_v1.xlsx,New rule: Press 'space' when you see the letter 'x' or 'X'.,y,None,,,,,,,,,0,5,5,5,0,3,3,3,,,,,,,,,,,,,,,,,,,,,,,,,,,,,,,,,,,,,,,,,,,,,,,,,,,,,,,,,,,,,,,,,,,,,1.4254,549.1735611003824,None,None,1,549.1735611003824,None,,P014,fencog,1,Pre,2021_Oct_19_1119,N-Back (New Version 2021),2021.1.4,119.67276652457903,
,,,,Conditions/Version_1/zeroback(2)_v1.xlsx,New rule: Press 'space' when you see the letter 'x' or 'X'.,Y,None,,,,,,,,,0,5,5,5,0,4,4,4,,,,,,,,,,,,,,,,,,,,,,,,,,,,,,,,,,,,,,,,,,,,,,,,,,,,,,,,,,,,,,,,,,,,,1.5494,552.7235848000273,None,None,1,552.7235848000273,None,,P014,fencog,1,Pre,2021_Oct_19_1119,N-Back (New Version 2021),2021.1.4,119.67276652457903,
,,,,Conditions/Version_1/zeroback(2)_v1.xlsx,New rule: Press 'space' when you see the letter 'x' or 'X'.,W,None,,,,,,,,,0,5,5,5,0,5,5,5,,,,,,,,,,,,,,,,,,,,,,,,,,,,,,,,,,,,,,,,,,,,,,,,,,,,,,,,,,,,,,,,,,,,,1.9462,556.6766954003833,None,None,1,556.6766954003833,None,,P014,fencog,1,Pre,2021_Oct_19_1119,N-Back (New Version 2021),2021.1.4,119.67276652457903,
,,,,Conditions/Version_1/zeroback(2)_v1.xlsx,New rule: Press 'space' when you see the letter 'x' or 'X'.,x,space,,,,,,,,,0,5,5,5,0,6,6,6,,,,,,,,,,,,,,,,,,,,,,,,,,,,,,,,,,,,,,,,,,,,,,,,,,,,,,,,,,,,,,,,,,,,,1.816,560.4964225003496,None,space,1,560.4964225003496,None,0.37627080036327243,P014,fencog,1,Pre,2021_Oct_19_1119,N-Back (New Version 2021),2021.1.4,119.67276652457903,
,,,,Conditions/Version_1/zeroback(2)_v1.xlsx,New rule: Press 'space' when you see the letter 'x' or 'X'.,X,space,,,,,,,,,0,5,5,5,0,7,7,7,,,,,,,,,,,,,,,,,,,,,,,,,,,,,,,,,,,,,,,,,,,,,,,,,,,,,,,,,,,,,,,,,,,,,1.7726,564.2757294001058,None,space,1,564.2757294001058,None,0.36853200010955334,P014,fencog,1,Pre,2021_Oct_19_1119,N-Back (New Version 2021),2021.1.4,119.67276652457903,
,,,,Conditions/Version_1/zeroback(2)_v1.xlsx,New rule: Press 'space' when you see the letter 'x' or 'X'.,p,None,,,,,,,,,0,5,5,5,0,8,8,8,,,,,,,,,,,,,,,,,,,,,,,,,,,,,,,,,,,,,,,,,,,,,,,,,,,,,,,,,,,,,,,,,,,,,1.723,568.0035848002881,None,None,1,568.0035848002881,None,,P014,fencog,1,Pre,2021_Oct_19_1119,N-Back (New Version 2021),2021.1.4,119.67276652457903,
,,,,Conditions/Version_1/zeroback(2)_v1.xlsx,New rule: Press 'space' when you see the letter 'x' or 'X'.,h,None,,,,,,,,,0,5,5,5,0,9,9,9,,,,,,,,,,,,,,,,,,,,,,,,,,,,,,,,,,,,,,,,,,,,,,,,,,,,,,,,,,,,,,,,,,,,,1.8966,571.9099388001487,None,None,1,571.9099388001487,None,,P014,fencog,1,Pre,2021_Oct_19_1119,N-Back (New Version 2021),2021.1.4,119.67276652457903,
,,,,Conditions/Version_1/zeroback(2)_v1.xlsx,New rule: Press 'space' when you see the letter 'x' or 'X'.,,,,,,,,,,,0,5,5,5,,,,,,,,,,,,,,,,,,,,,,,,,,,,,,,,,,,,,,,,,,,,,,,,,,,,,,,,,,,,,,,,,,,,,,,,,,,,,,,,,P014,fencog,1,Pre,2021_Oct_19_1119,N-Back (New Version 2021),2021.1.4,119.67276652457903,
,,,,Conditions/Version_1/threeback(2)_v1.xlsx,New rule: Press 'space' when you see 3-back (i.e. the same letter as the one that appeared 3 letters ago.),q,None,,,,,,,,,0,6,6,6,0,0,0,0,,,,,,,,,,,,,,,,,,,,,,,,,,,,,,,,,,,,,,,,,,,,,,,,,,,,,,,,,,,573.9314496000297,None,576.9189828000963,None,space,1.9308547000400722,576.9189828000963,None,573.9314496000297,None,1.6982,580.5742818000726,None,None,1,580.5742818000726,None,,P014,fencog,1,Pre,2021_Oct_19_1119,N-Back (New Version 2021),2021.1.4,119.67276652457903,
,,,,Conditions/Version_1/threeback(2)_v1.xlsx,New rule: Press 'space' when you see 3-back (i.e. the same letter as the one that appeared 3 letters ago.),Y,None,,,,,,,,,0,6,6,6,0,1,1,1,,,,,,,,,,,,,,,,,,,,,,,,,,,,,,,,,,,,,,,,,,,,,,,,,,,,,,,,,,,,,,,,,,,,,1.8966,584.4725637002848,None,None,1,584.4725637002848,None,,P014,fencog,1,Pre,2021_Oct_19_1119,N-Back (New Version 2021),2021.1.4,119.67276652457903,
,,,,Conditions/Version_1/threeback(2)_v1.xlsx,New rule: Press 'space' when you see 3-back (i.e. the same letter as the one that appeared 3 letters ago.),p,None,,,,,,,,,0,6,6,6,0,2,2,2,,,,,,,,,,,,,,,,,,,,,,,,,,,,,,,,,,,,,,,,,,,,,,,,,,,,,,,,,,,,,,,,,,,,,1.4626,587.9401072002947,None,None,1,587.9401072002947,None,,P014,fencog,1,Pre,2021_Oct_19_1119,N-Back (New Version 2021),2021.1.4,119.67276652457903,
,,,,Conditions/Version_1/threeback(2)_v1.xlsx,New rule: Press 'space' when you see 3-back (i.e. the same letter as the one that appeared 3 letters ago.),p,None,,,,,,,,,0,6,6,6,0,3,3,3,,,,,,,,,,,,,,,,,,,,,,,,,,,,,,,,,,,,,,,,,,,,,,,,,,,,,,,,,,,,,,,,,,,,,1.7168,591.6625634003431,None,None,1,591.6625634003431,None,,P014,fencog,1,Pre,2021_Oct_19_1119,N-Back (New Version 2021),2021.1.4,119.67276652457903,
,,,,Conditions/Version_1/threeback(2)_v1.xlsx,New rule: Press 'space' when you see 3-back (i.e. the same letter as the one that appeared 3 letters ago.),y,space,,,,,,,,,0,6,6,6,0,4,4,4,,,,,,,,,,,,,,,,,,,,,,,,,,,,,,,,,,,,,,,,,,,,,,,,,,,,,,,,,,,,,,,,,,,,,1.94,595.6026906003244,None,space,1,595.6026906003244,None,0.5510796997696161,P014,fencog,1,Pre,2021_Oct_19_1119,N-Back (New Version 2021),2021.1.4,119.67276652457903,
,,,,Conditions/Version_1/threeback(2)_v1.xlsx,New rule: Press 'space' when you see 3-back (i.e. the same letter as the one that appeared 3 letters ago.),u,None,,,,,,,,,0,6,6,6,0,5,5,5,,,,,,,,,,,,,,,,,,,,,,,,,,,,,,,,,,,,,,,,,,,,,,,,,,,,,,,,,,,,,,,,,,,,,1.382,598.993726100307,None,None,1,598.993726100307,None,,P014,fencog,1,Pre,2021_Oct_19_1119,N-Back (New Version 2021),2021.1.4,119.67276652457903,
,,,,Conditions/Version_1/threeback(2)_v1.xlsx,New rule: Press 'space' when you see 3-back (i.e. the same letter as the one that appeared 3 letters ago.),P,space,,,,,,,,,0,6,6,6,0,6,6,6,,,,,,,,,,,,,,,,,,,,,,,,,,,,,,,,,,,,,,,,,,,,,,,,,,,,,,,,,,,,,,,,,,,,,1.9214,602.9173653000034,None,space,1,602.9173653000034,None,0.3972645001485944,P014,fencog,1,Pre,2021_Oct_19_1119,N-Back (New Version 2021),2021.1.4,119.67276652457903,
,,,,Conditions/Version_1/threeback(2)_v1.xlsx,New rule: Press 'space' when you see 3-back (i.e. the same letter as the one that appeared 3 letters ago.),a,None,,,,,,,,,0,6,6,6,0,7,7,7,,,,,,,,,,,,,,,,,,,,,,,,,,,,,,,,,,,,,,,,,,,,,,,,,,,,,,,,,,,,,,,,,,,,,1.3076,606.2249579001218,None,None,1,606.2249579001218,None,,P014,fencog,1,Pre,2021_Oct_19_1119,N-Back (New Version 2021),2021.1.4,119.67276652457903,
,,,,Conditions/Version_1/threeback(2)_v1.xlsx,New rule: Press 'space' when you see 3-back (i.e. the same letter as the one that appeared 3 letters ago.),U,space,,,,,,,,,0,6,6,6,0,8,8,8,,,,,,,,,,,,,,,,,,,,,,,,,,,,,,,,,,,,,,,,,,,,,,,,,,,,,,,,,,,,,,,,,,,,,1.6858,609.9151231003925,None,None,0,609.9151231003925,None,,P014,fencog,1,Pre,2021_Oct_19_1119,N-Back (New Version 2021),2021.1.4,119.67276652457903,
,,,,Conditions/Version_1/threeback(2)_v1.xlsx,New rule: Press 'space' when you see 3-back (i.e. the same letter as the one that appeared 3 letters ago.),q,None,,,,,,,,,0,6,6,6,0,9,9,9,,,,,,,,,,,,,,,,,,,,,,,,,,,,,,,,,,,,,,,,,,,,,,,,,,,,,,,,,,,,,,,,,,,,,1.723,613.6419580001384,None,None,1,613.6419580001384,None,,P014,fencog,1,Pre,2021_Oct_19_1119,N-Back (New Version 2021),2021.1.4,119.67276652457903,
,,,,Conditions/Version_1/threeback(2)_v1.xlsx,New rule: Press 'space' when you see 3-back (i.e. the same letter as the one that appeared 3 letters ago.),,,,,,,,,,,0,6,6,6,,,,,,,,,,,,,,,,,,,,,,,,,,,,,,,,,,,,,,,,,,,,,,,,,,,,,,,,,,,,,,,,,,,,,,,,,,,,,,,,,P014,fencog,1,Pre,2021_Oct_19_1119,N-Back (New Version 2021),2021.1.4,119.67276652457903,
,,,,Conditions/Version_1/twoback(2)_v1.xlsx,New rule: Press 'space' when you see 2-back (i.e. the same letter as the one that appeared 2 letters ago.),q,None,,,,,,,,,0,7,7,7,0,0,0,0,,,,,,,,,,,,,,,,,,,,,,,,,,,,,,,,,,,,,,,,,,,,,,,,,,,,,,,,,,,615.6690242001787,None,618.6568514001556,None,space,6.662473300006241,618.6568514001556,None,615.6690242001787,None,1.506,626.8520565000363,None,None,1,626.8520565000363,None,,P014,fencog,1,Pre,2021_Oct_19_1119,N-Back (New Version 2021),2021.1.4,119.67276652457903,
,,,,Conditions/Version_1/twoback(2)_v1.xlsx,New rule: Press 'space' when you see 2-back (i.e. the same letter as the one that appeared 2 letters ago.),r,None,,,,,,,,,0,7,7,7,0,1,1,1,,,,,,,,,,,,,,,,,,,,,,,,,,,,,,,,,,,,,,,,,,,,,,,,,,,,,,,,,,,,,,,,,,,,,1.8532,630.7091446002014,None,None,1,630.7091446002014,None,,P014,fencog,1,Pre,2021_Oct_19_1119,N-Back (New Version 2021),2021.1.4,119.67276652457903,
,,,,Conditions/Version_1/twoback(2)_v1.xlsx,New rule: Press 'space' when you see 2-back (i.e. the same letter as the one that appeared 2 letters ago.),q,space,,,,,,,,,0,7,7,7,0,2,2,2,,,,,,,,,,,,,,,,,,,,,,,,,,,,,,,,,,,,,,,,,,,,,,,,,,,,,,,,,,,,,,,,,,,,,1.7788,634.501307700295,None,None,0,634.501307700295,None,,P014,fencog,1,Pre,2021_Oct_19_1119,N-Back (New Version 2021),2021.1.4,119.67276652457903,
,,,,Conditions/Version_1/twoback(2)_v1.xlsx,New rule: Press 'space' when you see 2-back (i.e. the same letter as the one that appeared 2 letters ago.),P,None,,,,,,,,,0,7,7,7,0,3,3,3,,,,,,,,,,,,,,,,,,,,,,,,,,,,,,,,,,,,,,,,,,,,,,,,,,,,,,,,,,,,,,,,,,,,,1.4006,637.9070612001233,None,None,1,637.9070612001233,None,,P014,fencog,1,Pre,2021_Oct_19_1119,N-Back (New Version 2021),2021.1.4,119.67276652457903,
,,,,Conditions/Version_1/twoback(2)_v1.xlsx,New rule: Press 'space' when you see 2-back (i.e. the same letter as the one that appeared 2 letters ago.),p,None,,,,,,,,,0,7,7,7,0,4,4,4,,,,,,,,,,,,,,,,,,,,,,,,,,,,,,,,,,,,,,,,,,,,,,,,,,,,,,,,,,,,,,,,,,,,,1.0782,640.9894954999909,None,None,1,640.9894954999909,None,,P014,fencog,1,Pre,2021_Oct_19_1119,N-Back (New Version 2021),2021.1.4,119.67276652457903,
,,,,Conditions/Version_1/twoback(2)_v1.xlsx,New rule: Press 'space' when you see 2-back (i.e. the same letter as the one that appeared 2 letters ago.),H,None,,,,,,,,,0,7,7,7,0,5,5,5,,,,,,,,,,,,,,,,,,,,,,,,,,,,,,,,,,,,,,,,,,,,,,,,,,,,,,,,,,,,,,,,,,,,,1.9214,644.9135171002708,None,None,1,644.9135171002708,None,,P014,fencog,1,Pre,2021_Oct_19_1119,N-Back (New Version 2021),2021.1.4,119.67276652457903,
,,,,Conditions/Version_1/twoback(2)_v1.xlsx,New rule: Press 'space' when you see 2-back (i.e. the same letter as the one that appeared 2 letters ago.),g,None,,,,,,,,,0,7,7,7,0,6,6,6,,,,,,,,,,,,,,,,,,,,,,,,,,,,,,,,,,,,,,,,,,,,,,,,,,,,,,,,,,,,,,,,,,,,,1.6796,648.5986289000139,None,None,1,648.5986289000139,None,,P014,fencog,1,Pre,2021_Oct_19_1119,N-Back (New Version 2021),2021.1.4,119.67276652457903,
,,,,Conditions/Version_1/twoback(2)_v1.xlsx,New rule: Press 'space' when you see 2-back (i.e. the same letter as the one that appeared 2 letters ago.),j,None,,,,,,,,,0,7,7,7,0,7,7,7,,,,,,,,,,,,,,,,,,,,,,,,,,,,,,,,,,,,,,,,,,,,,,,,,,,,,,,,,,,,,,,,,,,,,1.692,652.2961714002304,None,None,1,652.2961714002304,None,,P014,fencog,1,Pre,2021_Oct_19_1119,N-Back (New Version 2021),2021.1.4,119.67276652457903,
,,,,Conditions/Version_1/twoback(2)_v1.xlsx,New rule: Press 'space' when you see 2-back (i.e. the same letter as the one that appeared 2 letters ago.),g,space,,,,,,,,,0,7,7,7,0,8,8,8,,,,,,,,,,,,,,,,,,,,,,,,,,,,,,,,,,,,,,,,,,,,,,,,,,,,,,,,,,,,,,,,,,,,,1.2208,655.5267806001939,None,space,1,655.5267806001939,None,0.42579140001907945,P014,fencog,1,Pre,2021_Oct_19_1119,N-Back (New Version 2021),2021.1.4,119.67276652457903,
,,,,Conditions/Version_1/twoback(2)_v1.xlsx,New rule: Press 'space' when you see 2-back (i.e. the same letter as the one that appeared 2 letters ago.),G,None,,,,,,,,,0,7,7,7,0,9,9,9,,,,,,,,,,,,,,,,,,,,,,,,,,,,,,,,,,,,,,,,,,,,,,,,,,,,,,,,,,,,,,,,,,,,,1.0534,658.5857542003505,None,None,1,658.5857542003505,None,,P014,fencog,1,Pre,2021_Oct_19_1119,N-Back (New Version 2021),2021.1.4,119.67276652457903,
,,,,Conditions/Version_1/twoback(2)_v1.xlsx,New rule: Press 'space' when you see 2-back (i.e. the same letter as the one that appeared 2 letters ago.),,,,,,,,,,,0,7,7,7,,,,,,,,,,,,,,,,,,,,,,,,,,,,,,,,,,,,,,,,,,,,,,,,,,,,,,,,,,,,,,,,,,,,,,,,,,,,,,,,,P014,fencog,1,Pre,2021_Oct_19_1119,N-Back (New Version 2021),2021.1.4,119.67276652457903,
,,,,Conditions/Version_1/threeback(3)_v1.xlsx,New rule: Press 'space' when you see 3-back (i.e. the same letter as the one that appeared 3 letters ago.),w,None,,,,,,,,,0,8,8,8,0,0,0,0,,,,,,,,,,,,,,,,,,,,,,,,,,,,,,,,,,,,,,,,,,,,,,,,,,,,,,,,,,,660.6110892002471,None,663.593584000133,None,space,0.857048099860549,663.593584000133,None,660.6110892002471,None,1.1712,665.6403878000565,None,None,1,665.6403878000565,None,,P014,fencog,1,Pre,2021_Oct_19_1119,N-Back (New Version 2021),2021.1.4,119.67276652457903,
,,,,Conditions/Version_1/threeback(3)_v1.xlsx,New rule: Press 'space' when you see 3-back (i.e. the same letter as the one that appeared 3 letters ago.),p,None,,,,,,,,,0,8,8,8,0,1,1,1,,,,,,,,,,,,,,,,,,,,,,,,,,,,,,,,,,,,,,,,,,,,,,,,,,,,,,,,,,,,,,,,,,,,,1.1898,668.831143300049,None,None,1,668.831143300049,None,,P014,fencog,1,Pre,2021_Oct_19_1119,N-Back (New Version 2021),2021.1.4,119.67276652457903,
,,,,Conditions/Version_1/threeback(3)_v1.xlsx,New rule: Press 'space' when you see 3-back (i.e. the same letter as the one that appeared 3 letters ago.),P,None,,,,,,,,,0,8,8,8,0,2,2,2,,,,,,,,,,,,,,,,,,,,,,,,,,,,,,,,,,,,,,,,,,,,,,,,,,,,,,,,,,,,,,,,,,,,,1.2766,672.1212255000137,None,None,1,672.1212255000137,None,,P014,fencog,1,Pre,2021_Oct_19_1119,N-Back (New Version 2021),2021.1.4,119.67276652457903,
,,,,Conditions/Version_1/threeback(3)_v1.xlsx,New rule: Press 'space' when you see 3-back (i.e. the same letter as the one that appeared 3 letters ago.),i,None,,,,,,,,,0,8,8,8,0,3,3,3,,,,,,,,,,,,,,,,,,,,,,,,,,,,,,,,,,,,,,,,,,,,,,,,,,,,,,,,,,,,,,,,,,,,,1.4998,675.627025200054,None,None,1,675.627025200054,None,,P014,fencog,1,Pre,2021_Oct_19_1119,N-Back (New Version 2021),2021.1.4,119.67276652457903,
,,,,Conditions/Version_1/threeback(3)_v1.xlsx,New rule: Press 'space' when you see 3-back (i.e. the same letter as the one that appeared 3 letters ago.),f,None,,,,,,,,,0,8,8,8,0,4,4,4,,,,,,,,,,,,,,,,,,,,,,,,,,,,,,,,,,,,,,,,,,,,,,,,,,,,,,,,,,,,,,,,,,,,,1.444,679.0699868001975,None,None,1,679.0699868001975,None,,P014,fencog,1,Pre,2021_Oct_19_1119,N-Back (New Version 2021),2021.1.4,119.67276652457903,
,,,,Conditions/Version_1/threeback(3)_v1.xlsx,New rule: Press 'space' when you see 3-back (i.e. the same letter as the one that appeared 3 letters ago.),o,None,,,,,,,,,0,8,8,8,0,5,5,5,,,,,,,,,,,,,,,,,,,,,,,,,,,,,,,,,,,,,,,,,,,,,,,,,,,,,,,,,,,,,,,,,,,,,1.661,682.741402100306,None,None,1,682.741402100306,None,,P014,fencog,1,Pre,2021_Oct_19_1119,N-Back (New Version 2021),2021.1.4,119.67276652457903,
,,,,Conditions/Version_1/threeback(3)_v1.xlsx,New rule: Press 'space' when you see 3-back (i.e. the same letter as the one that appeared 3 letters ago.),w,None,,,,,,,,,0,8,8,8,0,6,6,6,,,,,,,,,,,,,,,,,,,,,,,,,,,,,,,,,,,,,,,,,,,,,,,,,,,,,,,,,,,,,,,,,,,,,1.7292,686.4830444003455,None,None,1,686.4830444003455,None,,P014,fencog,1,Pre,2021_Oct_19_1119,N-Back (New Version 2021),2021.1.4,119.67276652457903,
,,,,Conditions/Version_1/threeback(3)_v1.xlsx,New rule: Press 'space' when you see 3-back (i.e. the same letter as the one that appeared 3 letters ago.),F,space,,,,,,,,,0,8,8,8,0,7,7,7,,,,,,,,,,,,,,,,,,,,,,,,,,,,,,,,,,,,,,,,,,,,,,,,,,,,,,,,,,,,,,,,,,,,,1.475,689.9678666000254,None,space,1,689.9678666000254,None,0.9497962999157608,P014,fencog,1,Pre,2021_Oct_19_1119,N-Back (New Version 2021),2021.1.4,119.67276652457903,
,,,,Conditions/Version_1/threeback(3)_v1.xlsx,New rule: Press 'space' when you see 3-back (i.e. the same letter as the one that appeared 3 letters ago.),p,None,,,,,,,,,0,8,8,8,0,8,8,8,,,,,,,,,,,,,,,,,,,,,,,,,,,,,,,,,,,,,,,,,,,,,,,,,,,,,,,,,,,,,,,,,,,,,1.4068,693.3822980001569,None,None,1,693.3822980001569,None,,P014,fencog,1,Pre,2021_Oct_19_1119,N-Back (New Version 2021),2021.1.4,119.67276652457903,
,,,,Conditions/Version_1/threeback(3)_v1.xlsx,New rule: Press 'space' when you see 3-back (i.e. the same letter as the one that appeared 3 letters ago.),W,space,,,,,,,,,0,8,8,8,0,9,9,9,,,,,,,,,,,,,,,,,,,,,,,,,,,,,,,,,,,,,,,,,,,,,,,,,,,,,,,,,,,,,,,,,,,,,1.7168,697.1060855002142,None,None,0,697.1060855002142,None,,P014,fencog,1,Pre,2021_Oct_19_1119,N-Back (New Version 2021),2021.1.4,119.67276652457903,
,,,,Conditions/Version_1/threeback(3)_v1.xlsx,New rule: Press 'space' when you see 3-back (i.e. the same letter as the one that appeared 3 letters ago.),,,,,,,,,,,0,8,8,8,,,,,,,,,,,,,,,,,,,,,,,,,,,,,,,,,,,,,,,,,,,,,,,,,,,,,,,,,,,,,,,,,,,,,,,,,,,,,,,,,P014,fencog,1,Pre,2021_Oct_19_1119,N-Back (New Version 2021),2021.1.4,119.67276652457903,
,,,,Conditions/Version_1/zeroback(3)_v1.xlsx,New rule: Press 'space' when you see the letter 'x' or 'X'.,X,space,,,,,,,,,0,9,9,9,0,0,0,0,,,,,,,,,,,,,,,,,,,,,,,,,,,,,,,,,,,,,,,,,,,,,,,,,,,,,,,,,,,699.1232858002186,None,702.1153079001233,None,space,0.6685460000298917,702.1153079001233,None,699.1232858002186,None,1.4378,704.2482533999719,None,space,1,704.2482533999719,None,0.8701518001034856,P014,fencog,1,Pre,2021_Oct_19_1119,N-Back (New Version 2021),2021.1.4,119.67276652457903,
,,,,Conditions/Version_1/zeroback(3)_v1.xlsx,New rule: Press 'space' when you see the letter 'x' or 'X'.,B,None,,,,,,,,,0,9,9,9,0,1,1,1,,,,,,,,,,,,,,,,,,,,,,,,,,,,,,,,,,,,,,,,,,,,,,,,,,,,,,,,,,,,,,,,,,,,,1.3262,707.5876864003949,None,None,1,707.5876864003949,None,,P014,fencog,1,Pre,2021_Oct_19_1119,N-Back (New Version 2021),2021.1.4,119.67276652457903,
,,,,Conditions/Version_1/zeroback(3)_v1.xlsx,New rule: Press 'space' when you see the letter 'x' or 'X'.,m,None,,,,,,,,,0,9,9,9,0,2,2,2,,,,,,,,,,,,,,,,,,,,,,,,,,,,,,,,,,,,,,,,,,,,,,,,,,,,,,,,,,,,,,,,,,,,,1.4688,711.0688092000782,None,None,1,711.0688092000782,None,,P014,fencog,1,Pre,2021_Oct_19_1119,N-Back (New Version 2021),2021.1.4,119.67276652457903,
,,,,Conditions/Version_1/zeroback(3)_v1.xlsx,New rule: Press 'space' when you see the letter 'x' or 'X'.,m,None,,,,,,,,,0,9,9,9,0,3,3,3,,,,,,,,,,,,,,,,,,,,,,,,,,,,,,,,,,,,,,,,,,,,,,,,,,,,,,,,,,,,,,,,,,,,,1.227,714.301145600155,None,None,1,714.301145600155,None,,P014,fencog,1,Pre,2021_Oct_19_1119,N-Back (New Version 2021),2021.1.4,119.67276652457903,
,,,,Conditions/Version_1/zeroback(3)_v1.xlsx,New rule: Press 'space' when you see the letter 'x' or 'X'.,o,None,,,,,,,,,0,9,9,9,0,4,4,4,,,,,,,,,,,,,,,,,,,,,,,,,,,,,,,,,,,,,,,,,,,,,,,,,,,,,,,,,,,,,,,,,,,,,1.5246,717.8314780001529,None,None,1,717.8314780001529,None,,P014,fencog,1,Pre,2021_Oct_19_1119,N-Back (New Version 2021),2021.1.4,119.67276652457903,
,,,,Conditions/Version_1/zeroback(3)_v1.xlsx,New rule: Press 'space' when you see the letter 'x' or 'X'.,p,None,,,,,,,,,0,9,9,9,0,5,5,5,,,,,,,,,,,,,,,,,,,,,,,,,,,,,,,,,,,,,,,,,,,,,,,,,,,,,,,,,,,,,,,,,,,,,1.2146,721.0491168000735,None,None,1,721.0491168000735,None,,P014,fencog,1,Pre,2021_Oct_19_1119,N-Back (New Version 2021),2021.1.4,119.67276652457903,
,,,,Conditions/Version_1/zeroback(3)_v1.xlsx,New rule: Press 'space' when you see the letter 'x' or 'X'.,G,None,,,,,,,,,0,9,9,9,0,6,6,6,,,,,,,,,,,,,,,,,,,,,,,,,,,,,,,,,,,,,,,,,,,,,,,,,,,,,,,,,,,,,,,,,,,,,1.8594,724.9155132002197,None,None,1,724.9155132002197,None,,P014,fencog,1,Pre,2021_Oct_19_1119,N-Back (New Version 2021),2021.1.4,119.67276652457903,
,,,,Conditions/Version_1/zeroback(3)_v1.xlsx,New rule: Press 'space' when you see the letter 'x' or 'X'.,X,space,,,,,,,,,0,9,9,9,0,7,7,7,,,,,,,,,,,,,,,,,,,,,,,,,,,,,,,,,,,,,,,,,,,,,,,,,,,,,,,,,,,,,,,,,,,,,1.692,728.6161474999972,None,space,1,728.6161474999972,None,0.3524441998451948,P014,fencog,1,Pre,2021_Oct_19_1119,N-Back (New Version 2021),2021.1.4,119.67276652457903,
,,,,Conditions/Version_1/zeroback(3)_v1.xlsx,New rule: Press 'space' when you see the letter 'x' or 'X'.,p,None,,,,,,,,,0,9,9,9,0,8,8,8,,,,,,,,,,,,,,,,,,,,,,,,,,,,,,,,,,,,,,,,,,,,,,,,,,,,,,,,,,,,,,,,,,,,,1.2394,731.8626743000932,None,None,1,731.8626743000932,None,,P014,fencog,1,Pre,2021_Oct_19_1119,N-Back (New Version 2021),2021.1.4,119.67276652457903,
,,,,Conditions/Version_1/zeroback(3)_v1.xlsx,New rule: Press 'space' when you see the letter 'x' or 'X'.,x,space,,,,,,,,,0,9,9,9,0,9,9,9,,,,,,,,,,,,,,,,,,,,,,,,,,,,,,,,,,,,,,,,,,,,,,,,,,,,,,,,,,,,,,,,,,,,,1.785,735.653168100398,None,None,0,735.653168100398,None,,P014,fencog,1,Pre,2021_Oct_19_1119,N-Back (New Version 2021),2021.1.4,119.67276652457903,
,,,,Conditions/Version_1/zeroback(3)_v1.xlsx,New rule: Press 'space' when you see the letter 'x' or 'X'.,,,,,,,,,,,0,9,9,9,,,,,,,,,,,,,,,,,,,,,,,,,,,,,,,,,,,,,,,,,,,,,,,,,,,,,,,,,,,,,,,,,,,,,,,,,,,,,,,,,P014,fencog,1,Pre,2021_Oct_19_1119,N-Back (New Version 2021),2021.1.4,119.67276652457903,
,,,,Conditions/Version_1/twoback(3)_v1.xlsx,New rule: Press 'space' when you see 2-back (i.e. the same letter as the one that appeared 2 letters ago.),e,None,,,,,,,,,0,10,10,10,0,0,0,0,,,,,,,,,,,,,,,,,,,,,,,,,,,,,,,,,,,,,,,,,,,,,,,,,,,,,,,,,,,737.6895986003801,None,740.6705905003473,None,space,1.8661241000518203,740.6705905003473,None,737.6895986003801,None,1.4812,744.0433096000925,None,None,1,744.0433096000925,None,,P014,fencog,1,Pre,2021_Oct_19_1119,N-Back (New Version 2021),2021.1.4,119.67276652457903,
,,,,Conditions/Version_1/twoback(3)_v1.xlsx,New rule: Press 'space' when you see 2-back (i.e. the same letter as the one that appeared 2 letters ago.),o,None,,,,,,,,,0,10,10,10,0,1,1,1,,,,,,,,,,,,,,,,,,,,,,,,,,,,,,,,,,,,,,,,,,,,,,,,,,,,,,,,,,,,,,,,,,,,,1.6672,747.7164499000646,None,None,1,747.7164499000646,None,,P014,fencog,1,Pre,2021_Oct_19_1119,N-Back (New Version 2021),2021.1.4,119.67276652457903,
,,,,Conditions/Version_1/twoback(3)_v1.xlsx,New rule: Press 'space' when you see 2-back (i.e. the same letter as the one that appeared 2 letters ago.),P,None,,,,,,,,,0,10,10,10,0,2,2,2,,,,,,,,,,,,,,,,,,,,,,,,,,,,,,,,,,,,,,,,,,,,,,,,,,,,,,,,,,,,,,,,,,,,,1.196,750.924735000357,None,None,1,750.924735000357,None,,P014,fencog,1,Pre,2021_Oct_19_1119,N-Back (New Version 2021),2021.1.4,119.67276652457903,
,,,,Conditions/Version_1/twoback(3)_v1.xlsx,New rule: Press 'space' when you see 2-back (i.e. the same letter as the one that appeared 2 letters ago.),z,None,,,,,,,,,0,10,10,10,0,3,3,3,,,,,,,,,,,,,,,,,,,,,,,,,,,,,,,,,,,,,,,,,,,,,,,,,,,,,,,,,,,,,,,,,,,,,1.6734,754.6070207003504,None,None,1,754.6070207003504,None,,P014,fencog,1,Pre,2021_Oct_19_1119,N-Back (New Version 2021),2021.1.4,119.67276652457903,
,,,,Conditions/Version_1/twoback(3)_v1.xlsx,New rule: Press 'space' when you see 2-back (i.e. the same letter as the one that appeared 2 letters ago.),X,None,,,,,,,,,0,10,10,10,0,4,4,4,,,,,,,,,,,,,,,,,,,,,,,,,,,,,,,,,,,,,,,,,,,,,,,,,,,,,,,,,,,,,,,,,,,,,1.2084,757.8216121001169,None,None,1,757.8216121001169,None,,P014,fencog,1,Pre,2021_Oct_19_1119,N-Back (New Version 2021),2021.1.4,119.67276652457903,
,,,,Conditions/Version_1/twoback(3)_v1.xlsx,New rule: Press 'space' when you see 2-back (i.e. the same letter as the one that appeared 2 letters ago.),z,space,,,,,,,,,0,10,10,10,0,5,5,5,,,,,,,,,,,,,,,,,,,,,,,,,,,,,,,,,,,,,,,,,,,,,,,,,,,,,,,,,,,,,,,,,,,,,1.0162,760.83747650031,None,space,1,760.83747650031,None,0.44553499994799495,P014,fencog,1,Pre,2021_Oct_19_1119,N-Back (New Version 2021),2021.1.4,119.67276652457903,
,,,,Conditions/Version_1/twoback(3)_v1.xlsx,New rule: Press 'space' when you see 2-back (i.e. the same letter as the one that appeared 2 letters ago.),x,space,,,,,,,,,0,10,10,10,0,6,6,6,,,,,,,,,,,,,,,,,,,,,,,,,,,,,,,,,,,,,,,,,,,,,,,,,,,,,,,,,,,,,,,,,,,,,1.2146,764.0542888003401,None,space,1,764.0542888003401,None,0.43264640029519796,P014,fencog,1,Pre,2021_Oct_19_1119,N-Back (New Version 2021),2021.1.4,119.67276652457903,
,,,,Conditions/Version_1/twoback(3)_v1.xlsx,New rule: Press 'space' when you see 2-back (i.e. the same letter as the one that appeared 2 letters ago.),c,None,,,,,,,,,0,10,10,10,0,7,7,7,,,,,,,,,,,,,,,,,,,,,,,,,,,,,,,,,,,,,,,,,,,,,,,,,,,,,,,,,,,,,,,,,,,,,1.1712,767.2359396000393,None,None,1,767.2359396000393,None,,P014,fencog,1,Pre,2021_Oct_19_1119,N-Back (New Version 2021),2021.1.4,119.67276652457903,
,,,,Conditions/Version_1/twoback(3)_v1.xlsx,New rule: Press 'space' when you see 2-back (i.e. the same letter as the one that appeared 2 letters ago.),i,None,,,,,,,,,0,10,10,10,0,8,8,8,,,,,,,,,,,,,,,,,,,,,,,,,,,,,,,,,,,,,,,,,,,,,,,,,,,,,,,,,,,,,,,,,,,,,1.1588,770.3942931001075,None,None,1,770.3942931001075,None,,P014,fencog,1,Pre,2021_Oct_19_1119,N-Back (New Version 2021),2021.1.4,119.67276652457903,
,,,,Conditions/Version_1/twoback(3)_v1.xlsx,New rule: Press 'space' when you see 2-back (i.e. the same letter as the one that appeared 2 letters ago.),C,space,,,,,,,,,0,10,10,10,0,9,9,9,,,,,,,,,,,,,,,,,,,,,,,,,,,,,,,,,,,,,,,,,,,,,,,,,,,,,,,,,,,,,,,,,,,,,1.3014,773.7113499999978,None,space,1,773.7113499999978,None,0.31266120029613376,P014,fencog,1,Pre,2021_Oct_19_1119,N-Back (New Version 2021),2021.1.4,119.67276652457903,
,,,,Conditions/Version_1/twoback(3)_v1.xlsx,New rule: Press 'space' when you see 2-back (i.e. the same letter as the one that appeared 2 letters ago.),,,,,,,,,,,0,10,10,10,,,,,,,,,,,,,,,,,,,,,,,,,,,,,,,,,,,,,,,,,,,,,,,,,,,,,,,,,,,,,,,,,,,,,,,,,,,,,,,,,P014,fencog,1,Pre,2021_Oct_19_1119,N-Back (New Version 2021),2021.1.4,119.67276652457903,
,,,,Conditions/Version_1/oneback(3)_v1.xlsx,New rule: Press 'space' when you see 1-back (i.e. the same letter as the one that appeared 1 letter ago.),o,None,,,,,,,,,0,11,11,11,0,0,0,0,,,,,,,,,,,,,,,,,,,,,,,,,,,,,,,,,,,,,,,,,,,,,,,,,,,,,,,,,,,775.7343796002679,None,778.717003100086,None,space,2.9804735998623073,778.717003100086,None,775.7343796002679,None,1.4254,783.1502406001091,None,None,1,783.1502406001091,None,,P014,fencog,1,Pre,2021_Oct_19_1119,N-Back (New Version 2021),2021.1.4,119.67276652457903,
,,,,Conditions/Version_1/oneback(3)_v1.xlsx,New rule: Press 'space' when you see 1-back (i.e. the same letter as the one that appeared 1 letter ago.),O,space,,,,,,,,,0,11,11,11,0,1,1,1,,,,,,,,,,,,,,,,,,,,,,,,,,,,,,,,,,,,,,,,,,,,,,,,,,,,,,,,,,,,,,,,,,,,,1.4192,786.5807733000256,None,space,1,786.5807733000256,None,0.3978377003222704,P014,fencog,1,Pre,2021_Oct_19_1119,N-Back (New Version 2021),2021.1.4,119.67276652457903,
,,,,Conditions/Version_1/oneback(3)_v1.xlsx,New rule: Press 'space' when you see 1-back (i.e. the same letter as the one that appeared 1 letter ago.),h,None,,,,,,,,,0,11,11,11,0,2,2,2,,,,,,,,,,,,,,,,,,,,,,,,,,,,,,,,,,,,,,,,,,,,,,,,,,,,,,,,,,,,,,,,,,,,,1.6362,790.223113800399,None,None,1,790.223113800399,None,,P014,fencog,1,Pre,2021_Oct_19_1119,N-Back (New Version 2021),2021.1.4,119.67276652457903,
,,,,Conditions/Version_1/oneback(3)_v1.xlsx,New rule: Press 'space' when you see 1-back (i.e. the same letter as the one that appeared 1 letter ago.),g,None,,,,,,,,,0,11,11,11,0,3,3,3,,,,,,,,,,,,,,,,,,,,,,,,,,,,,,,,,,,,,,,,,,,,,,,,,,,,,,,,,,,,,,,,,,,,,1.3014,793.5369137004018,None,None,1,793.5369137004018,None,,P014,fencog,1,Pre,2021_Oct_19_1119,N-Back (New Version 2021),2021.1.4,119.67276652457903,
,,,,Conditions/Version_1/oneback(3)_v1.xlsx,New rule: Press 'space' when you see 1-back (i.e. the same letter as the one that appeared 1 letter ago.),n,None,,,,,,,,,0,11,11,11,0,4,4,4,,,,,,,,,,,,,,,,,,,,,,,,,,,,,,,,,,,,,,,,,,,,,,,,,,,,,,,,,,,,,,,,,,,,,1.4688,797.0187016003765,None,None,1,797.0187016003765,None,,P014,fencog,1,Pre,2021_Oct_19_1119,N-Back (New Version 2021),2021.1.4,119.67276652457903,
,,,,Conditions/Version_1/oneback(3)_v1.xlsx,New rule: Press 'space' when you see 1-back (i.e. the same letter as the one that appeared 1 letter ago.),z,None,,,,,,,,,0,11,11,11,0,5,5,5,,,,,,,,,,,,,,,,,,,,,,,,,,,,,,,,,,,,,,,,,,,,,,,,,,,,,,,,,,,,,,,,,,,,,1.3572,800.3780841999687,None,None,1,800.3780841999687,None,,P014,fencog,1,Pre,2021_Oct_19_1119,N-Back (New Version 2021),2021.1.4,119.67276652457903,
,,,,Conditions/Version_1/oneback(3)_v1.xlsx,New rule: Press 'space' when you see 1-back (i.e. the same letter as the one that appeared 1 letter ago.),X,None,,,,,,,,,0,11,11,11,0,6,6,6,,,,,,,,,,,,,,,,,,,,,,,,,,,,,,,,,,,,,,,,,,,,,,,,,,,,,,,,,,,,,,,,,,,,,1.8222,804.2092836000957,None,None,1,804.2092836000957,None,,P014,fencog,1,Pre,2021_Oct_19_1119,N-Back (New Version 2021),2021.1.4,119.67276652457903,
,,,,Conditions/Version_1/oneback(3)_v1.xlsx,New rule: Press 'space' when you see 1-back (i.e. the same letter as the one that appeared 1 letter ago.),r,None,,,,,,,,,0,11,11,11,0,7,7,7,,,,,,,,,,,,,,,,,,,,,,,,,,,,,,,,,,,,,,,,,,,,,,,,,,,,,,,,,,,,,,,,,,,,,1.8036,808.0237044002861,None,None,1,808.0237044002861,None,,P014,fencog,1,Pre,2021_Oct_19_1119,N-Back (New Version 2021),2021.1.4,119.67276652457903,
,,,,Conditions/Version_1/oneback(3)_v1.xlsx,New rule: Press 'space' when you see 1-back (i.e. the same letter as the one that appeared 1 letter ago.),r,space,,,,,,,,,0,11,11,11,0,8,8,8,,,,,,,,,,,,,,,,,,,,,,,,,,,,,,,,,,,,,,,,,,,,,,,,,,,,,,,,,,,,,,,,,,,,,1.94,811.9723692000844,None,space,1,811.9723692000844,None,0.4510027999058366,P014,fencog,1,Pre,2021_Oct_19_1119,N-Back (New Version 2021),2021.1.4,119.67276652457903,
,,,,Conditions/Version_1/oneback(3)_v1.xlsx,New rule: Press 'space' when you see 1-back (i.e. the same letter as the one that appeared 1 letter ago.),P,None,,,,,,,,,0,11,11,11,0,9,9,9,,,,,,,,,,,,,,,,,,,,,,,,,,,,,,,,,,,,,,,,,,,,,,,,,,,,,,,,,,,,,,,,,,,,,1.7788,815.755546099972,None,None,1,815.755546099972,None,,P014,fencog,1,Pre,2021_Oct_19_1119,N-Back (New Version 2021),2021.1.4,119.67276652457903,
,,,,Conditions/Version_1/oneback(3)_v1.xlsx,New rule: Press 'space' when you see 1-back (i.e. the same letter as the one that appeared 1 letter ago.),,,,,,,,,,,0,11,11,11,,,,,,,,,,,,,,,,,,,,,,,,,,,,,,,,,,,,,,,,,,,,,,,,,,,,,,,,,,,,,,,,,,,,,,,,,,,,,,,,,P014,fencog,1,Pre,2021_Oct_19_1119,N-Back (New Version 2021),2021.1.4,119.67276652457903,
,,,,Conditions/Version_1/twoback(4)_v1.xlsx,New rule: Press 'space' when you see 2-back (i.e. the same letter as the one that appeared 2 letters ago.),r,None,,,,,,,,,0,12,12,12,0,0,0,0,,,,,,,,,,,,,,,,,,,,,,,,,,,,,,,,,,,,,,,,,,,,,,,,,,,,,,,,,,,817.7826169002801,None,820.7641347004101,None,space,18.593314200174063,820.7641347004101,None,817.7826169002801,None,1.4936,840.8815157003701,None,None,1,840.8815157003701,None,,P014,fencog,1,Pre,2021_Oct_19_1119,N-Back (New Version 2021),2021.1.4,119.67276652457903,
,,,,Conditions/Version_1/twoback(4)_v1.xlsx,New rule: Press 'space' when you see 2-back (i.e. the same letter as the one that appeared 2 letters ago.),T,None,,,,,,,,,0,12,12,12,0,1,1,1,,,,,,,,,,,,,,,,,,,,,,,,,,,,,,,,,,,,,,,,,,,,,,,,,,,,,,,,,,,,,,,,,,,,,1.1774,844.0732955001295,None,None,1,844.0732955001295,None,,P014,fencog,1,Pre,2021_Oct_19_1119,N-Back (New Version 2021),2021.1.4,119.67276652457903,
,,,,Conditions/Version_1/twoback(4)_v1.xlsx,New rule: Press 'space' when you see 2-back (i.e. the same letter as the one that appeared 2 letters ago.),o,None,,,,,,,,,0,12,12,12,0,2,2,2,,,,,,,,,,,,,,,,,,,,,,,,,,,,,,,,,,,,,,,,,,,,,,,,,,,,,,,,,,,,,,,,,,,,,1.1588,847.2375462003984,None,None,1,847.2375462003984,None,,P014,fencog,1,Pre,2021_Oct_19_1119,N-Back (New Version 2021),2021.1.4,119.67276652457903,
,,,,Conditions/Version_1/twoback(4)_v1.xlsx,New rule: Press 'space' when you see 2-back (i.e. the same letter as the one that appeared 2 letters ago.),p,None,,,,,,,,,0,12,12,12,0,3,3,3,,,,,,,,,,,,,,,,,,,,,,,,,,,,,,,,,,,,,,,,,,,,,,,,,,,,,,,,,,,,,,,,,,,,,1.754,851.0032486002892,None,None,1,851.0032486002892,None,,P014,fencog,1,Pre,2021_Oct_19_1119,N-Back (New Version 2021),2021.1.4,119.67276652457903,
,,,,Conditions/Version_1/twoback(4)_v1.xlsx,New rule: Press 'space' when you see 2-back (i.e. the same letter as the one that appeared 2 letters ago.),p,None,,,,,,,,,0,12,12,12,0,4,4,4,,,,,,,,,,,,,,,,,,,,,,,,,,,,,,,,,,,,,,,,,,,,,,,,,,,,,,,,,,,,,,,,,,,,,1.9152,854.9186067003757,None,None,1,854.9186067003757,None,,P014,fencog,1,Pre,2021_Oct_19_1119,N-Back (New Version 2021),2021.1.4,119.67276652457903,
,,,,Conditions/Version_1/twoback(4)_v1.xlsx,New rule: Press 'space' when you see 2-back (i.e. the same letter as the one that appeared 2 letters ago.),y,None,,,,,,,,,0,12,12,12,0,5,5,5,,,,,,,,,,,,,,,,,,,,,,,,,,,,,,,,,,,,,,,,,,,,,,,,,,,,,,,,,,,,,,,,,,,,,1.8098,858.7336103999987,None,None,1,858.7336103999987,None,,P014,fencog,1,Pre,2021_Oct_19_1119,N-Back (New Version 2021),2021.1.4,119.67276652457903,
,,,,Conditions/Version_1/twoback(4)_v1.xlsx,New rule: Press 'space' when you see 2-back (i.e. the same letter as the one that appeared 2 letters ago.),P,space,,,,,,,,,0,12,12,12,0,6,6,6,,,,,,,,,,,,,,,,,,,,,,,,,,,,,,,,,,,,,,,,,,,,,,,,,,,,,,,,,,,,,,,,,,,,,1.3324,862.0689701000229,None,space,1,862.0689701000229,None,0.46430790005251765,P014,fencog,1,Pre,2021_Oct_19_1119,N-Back (New Version 2021),2021.1.4,119.67276652457903,
,,,,Conditions/Version_1/twoback(4)_v1.xlsx,New rule: Press 'space' when you see 2-back (i.e. the same letter as the one that appeared 2 letters ago.),y,None,,,,,,,,,0,12,12,12,0,7,7,7,,,,,,,,,,,,,,,,,,,,,,,,,,,,,,,,,,,,,,,,,,,,,,,,,,,,,,,,,,,,,,,,,,,,,1.537,865.6529900003225,None,space,0,865.6529900003225,None,0.4157990999519825,P014,fencog,1,Pre,2021_Oct_19_1119,N-Back (New Version 2021),2021.1.4,119.67276652457903,
,,,,Conditions/Version_1/twoback(4)_v1.xlsx,New rule: Press 'space' when you see 2-back (i.e. the same letter as the one that appeared 2 letters ago.),y,space,,,,,,,,,0,12,12,12,0,8,8,8,,,,,,,,,,,,,,,,,,,,,,,,,,,,,,,,,,,,,,,,,,,,,,,,,,,,,,,,,,,,,,,,,,,,,1.5122,869.1393114002421,None,None,0,869.1393114002421,None,,P014,fencog,1,Pre,2021_Oct_19_1119,N-Back (New Version 2021),2021.1.4,119.67276652457903,
,,,,Conditions/Version_1/twoback(4)_v1.xlsx,New rule: Press 'space' when you see 2-back (i.e. the same letter as the one that appeared 2 letters ago.),,,,,,,,,,,0,12,12,12,,,,,,,,,,,,,,,,,,,,,,,,,,,,,,,,,,,,,,,,,,,,,,,,,,,,,,,,,,,,,,,,,,,,,,,,,,,,,,,,,P014,fencog,1,Pre,2021_Oct_19_1119,N-Back (New Version 2021),2021.1.4,119.67276652457903,
,,,,Conditions/Version_1/zeroback(4)_v1.xlsx,New rule: Press 'space' when you see the letter 'x' or 'X'.,o,None,,,,,,,,,0,13,13,13,0,0,0,0,,,,,,,,,,,,,,,,,,,,,,,,,,,,,,,,,,,,,,,,,,,,,,,,,,,,,,,,,,,871.156651200261,None,874.1379300002009,None,space,1.2123702997341752,874.1379300002009,None,871.156651200261,None,1.2394,876.6158075002022,None,None,1,876.6158075002022,None,,P014,fencog,1,Pre,2021_Oct_19_1119,N-Back (New Version 2021),2021.1.4,119.67276652457903,
,,,,Conditions/Version_1/zeroback(4)_v1.xlsx,New rule: Press 'space' when you see the letter 'x' or 'X'.,X,space,,,,,,,,,0,13,13,13,0,1,1,1,,,,,,,,,,,,,,,,,,,,,,,,,,,,,,,,,,,,,,,,,,,,,,,,,,,,,,,,,,,,,,,,,,,,,1.9524,880.5689173000865,None,space,1,880.5689173000865,None,0.4683050001040101,P014,fencog,1,Pre,2021_Oct_19_1119,N-Back (New Version 2021),2021.1.4,119.67276652457903,
,,,,Conditions/Version_1/zeroback(4)_v1.xlsx,New rule: Press 'space' when you see the letter 'x' or 'X'.,p,None,,,,,,,,,0,13,13,13,0,2,2,2,,,,,,,,,,,,,,,,,,,,,,,,,,,,,,,,,,,,,,,,,,,,,,,,,,,,,,,,,,,,,,,,,,,,,1.537,884.1129024000838,None,None,1,884.1129024000838,None,,P014,fencog,1,Pre,2021_Oct_19_1119,N-Back (New Version 2021),2021.1.4,119.67276652457903,
,,,,Conditions/Version_1/zeroback(4)_v1.xlsx,New rule: Press 'space' when you see the letter 'x' or 'X'.,m,None,,,,,,,,,0,13,13,13,0,3,3,3,,,,,,,,,,,,,,,,,,,,,,,,,,,,,,,,,,,,,,,,,,,,,,,,,,,,,,,,,,,,,,,,,,,,,1.1464,887.2683717999607,None,None,1,887.2683717999607,None,,P014,fencog,1,Pre,2021_Oct_19_1119,N-Back (New Version 2021),2021.1.4,119.67276652457903,
,,,,Conditions/Version_1/zeroback(4)_v1.xlsx,New rule: Press 'space' when you see the letter 'x' or 'X'.,n,None,,,,,,,,,0,13,13,13,0,4,4,4,,,,,,,,,,,,,,,,,,,,,,,,,,,,,,,,,,,,,,,,,,,,,,,,,,,,,,,,,,,,,,,,,,,,,1.0162,890.2917790003121,None,None,1,890.2917790003121,None,,P014,fencog,1,Pre,2021_Oct_19_1119,N-Back (New Version 2021),2021.1.4,119.67276652457903,
,,,,Conditions/Version_1/zeroback(4)_v1.xlsx,New rule: Press 'space' when you see the letter 'x' or 'X'.,m,None,,,,,,,,,0,13,13,13,0,5,5,5,,,,,,,,,,,,,,,,,,,,,,,,,,,,,,,,,,,,,,,,,,,,,,,,,,,,,,,,,,,,,,,,,,,,,1.6982,893.9984953999519,None,None,1,893.9984953999519,None,,P014,fencog,1,Pre,2021_Oct_19_1119,N-Back (New Version 2021),2021.1.4,119.67276652457903,
,,,,Conditions/Version_1/zeroback(4)_v1.xlsx,New rule: Press 'space' when you see the letter 'x' or 'X'.,C,None,,,,,,,,,0,13,13,13,0,6,6,6,,,,,,,,,,,,,,,,,,,,,,,,,,,,,,,,,,,,,,,,,,,,,,,,,,,,,,,,,,,,,,,,,,,,,1.5804,897.5807138001546,None,None,1,897.5807138001546,None,,P014,fencog,1,Pre,2021_Oct_19_1119,N-Back (New Version 2021),2021.1.4,119.67276652457903,
,,,,Conditions/Version_1/zeroback(4)_v1.xlsx,New rule: Press 'space' when you see the letter 'x' or 'X'.,m,None,,,,,,,,,0,13,13,13,0,7,7,7,,,,,,,,,,,,,,,,,,,,,,,,,,,,,,,,,,,,,,,,,,,,,,,,,,,,,,,,,,,,,,,,,,,,,1.6672,901.2548301001079,None,None,1,901.2548301001079,None,,P014,fencog,1,Pre,2021_Oct_19_1119,N-Back (New Version 2021),2021.1.4,119.67276652457903,
,,,,Conditions/Version_1/zeroback(4)_v1.xlsx,New rule: Press 'space' when you see the letter 'x' or 'X'.,p,None,,,,,,,,,0,13,13,13,0,8,8,8,,,,,,,,,,,,,,,,,,,,,,,,,,,,,,,,,,,,,,,,,,,,,,,,,,,,,,,,,,,,,,,,,,,,,1.32,904.5796950999647,None,None,1,904.5796950999647,None,,P014,fencog,1,Pre,2021_Oct_19_1119,N-Back (New Version 2021),2021.1.4,119.67276652457903,
,,,,Conditions/Version_1/zeroback(4)_v1.xlsx,New rule: Press 'space' when you see the letter 'x' or 'X'.,X,space,,,,,,,,,0,13,13,13,0,9,9,9,,,,,,,,,,,,,,,,,,,,,,,,,,,,,,,,,,,,,,,,,,,,,,,,,,,,,,,,,,,,,,,,,,,,,1.8966,908.4859073003754,None,space,1,908.4859073003754,None,0.39059789991006255,P014,fencog,1,Pre,2021_Oct_19_1119,N-Back (New Version 2021),2021.1.4,119.67276652457903,
,,,,Conditions/Version_1/zeroback(4)_v1.xlsx,New rule: Press 'space' when you see the letter 'x' or 'X'.,,,,,,,,,,,0,13,13,13,,,,,,,,,,,,,,,,,,,,,,,,,,,,,,,,,,,,,,,,,,,,,,,,,,,,,,,,,,,,,,,,,,,,,,,,,,,,,,,,,P014,fencog,1,Pre,2021_Oct_19_1119,N-Back (New Version 2021),2021.1.4,119.67276652457903,
,,,,Conditions/Version_1/oneback(4)_v1.xlsx,New rule: Press 'space' when you see 1-back (i.e. the same letter as the one that appeared 1 letter ago.),w,None,,,,,,,,,0,14,14,14,0,0,0,0,,,,,,,,,,,,,,,,,,,,,,,,,,,,,,,,,,,,,,,,,,,,,,,,,,,,,,,,,,,910.51677080011,None,913.5036387001164,None,space,5.805049800314009,913.5036387001164,None,910.51677080011,None,1.9462,921.2739886003546,None,None,1,921.2739886003546,None,,P014,fencog,1,Pre,2021_Oct_19_1119,N-Back (New Version 2021),2021.1.4,119.67276652457903,
,,,,Conditions/Version_1/oneback(4)_v1.xlsx,New rule: Press 'space' when you see 1-back (i.e. the same letter as the one that appeared 1 letter ago.),q,None,,,,,,,,,0,14,14,14,0,1,1,1,,,,,,,,,,,,,,,,,,,,,,,,,,,,,,,,,,,,,,,,,,,,,,,,,,,,,,,,,,,,,,,,,,,,,1.8594,925.1398919001222,None,None,1,925.1398919001222,None,,P014,fencog,1,Pre,2021_Oct_19_1119,N-Back (New Version 2021),2021.1.4,119.67276652457903,
,,,,Conditions/Version_1/oneback(4)_v1.xlsx,New rule: Press 'space' when you see 1-back (i.e. the same letter as the one that appeared 1 letter ago.),i,None,,,,,,,,,0,14,14,14,0,2,2,2,,,,,,,,,,,,,,,,,,,,,,,,,,,,,,,,,,,,,,,,,,,,,,,,,,,,,,,,,,,,,,,,,,,,,1.537,928.6798587003723,None,None,1,928.6798587003723,None,,P014,fencog,1,Pre,2021_Oct_19_1119,N-Back (New Version 2021),2021.1.4,119.67276652457903,
,,,,Conditions/Version_1/oneback(4)_v1.xlsx,New rule: Press 'space' when you see 1-back (i.e. the same letter as the one that appeared 1 letter ago.),t,None,,,,,,,,,0,14,14,14,0,3,3,3,,,,,,,,,,,,,,,,,,,,,,,,,,,,,,,,,,,,,,,,,,,,,,,,,,,,,,,,,,,,,,,,,,,,,1.0224,931.710838700179,None,None,1,931.710838700179,None,,P014,fencog,1,Pre,2021_Oct_19_1119,N-Back (New Version 2021),2021.1.4,119.67276652457903,
,,,,Conditions/Version_1/oneback(4)_v1.xlsx,New rule: Press 'space' when you see 1-back (i.e. the same letter as the one that appeared 1 letter ago.),v,None,,,,,,,,,0,14,14,14,0,4,4,4,,,,,,,,,,,,,,,,,,,,,,,,,,,,,,,,,,,,,,,,,,,,,,,,,,,,,,,,,,,,,,,,,,,,,1.4998,935.2124167000875,None,None,1,935.2124167000875,None,,P014,fencog,1,Pre,2021_Oct_19_1119,N-Back (New Version 2021),2021.1.4,119.67276652457903,
,,,,Conditions/Version_1/oneback(4)_v1.xlsx,New rule: Press 'space' when you see 1-back (i.e. the same letter as the one that appeared 1 letter ago.),V,space,,,,,,,,,0,14,14,14,0,5,5,5,,,,,,,,,,,,,,,,,,,,,,,,,,,,,,,,,,,,,,,,,,,,,,,,,,,,,,,,,,,,,,,,,,,,,1.8408,939.0612268000841,None,space,1,939.0612268000841,None,0.5498335002921522,P014,fencog,1,Pre,2021_Oct_19_1119,N-Back (New Version 2021),2021.1.4,119.67276652457903,
,,,,Conditions/Version_1/oneback(4)_v1.xlsx,New rule: Press 'space' when you see 1-back (i.e. the same letter as the one that appeared 1 letter ago.),v,space,,,,,,,,,0,14,14,14,0,6,6,6,,,,,,,,,,,,,,,,,,,,,,,,,,,,,,,,,,,,,,,,,,,,,,,,,,,,,,,,,,,,,,,,,,,,,1.351,942.4269492002204,None,space,1,942.4269492002204,None,0.4936402998864651,P014,fencog,1,Pre,2021_Oct_19_1119,N-Back (New Version 2021),2021.1.4,119.67276652457903,
,,,,Conditions/Version_1/oneback(4)_v1.xlsx,New rule: Press 'space' when you see 1-back (i.e. the same letter as the one that appeared 1 letter ago.),p,None,,,,,,,,,0,14,14,14,0,7,7,7,,,,,,,,,,,,,,,,,,,,,,,,,,,,,,,,,,,,,,,,,,,,,,,,,,,,,,,,,,,,,,,,,,,,,1.9524,946.3975504003465,None,None,1,946.3975504003465,None,,P014,fencog,1,Pre,2021_Oct_19_1119,N-Back (New Version 2021),2021.1.4,119.67276652457903,
,,,,Conditions/Version_1/oneback(4)_v1.xlsx,New rule: Press 'space' when you see 1-back (i.e. the same letter as the one that appeared 1 letter ago.),w,None,,,,,,,,,0,14,14,14,0,8,8,8,,,,,,,,,,,,,,,,,,,,,,,,,,,,,,,,,,,,,,,,,,,,,,,,,,,,,,,,,,,,,,,,,,,,,1.63,950.0343144000508,None,None,1,950.0343144000508,None,,P014,fencog,1,Pre,2021_Oct_19_1119,N-Back (New Version 2021),2021.1.4,119.67276652457903,
,,,,Conditions/Version_1/oneback(4)_v1.xlsx,New rule: Press 'space' when you see 1-back (i.e. the same letter as the one that appeared 1 letter ago.),W,space,,,,,,,,,0,14,14,14,0,9,9,9,,,,,,,,,,,,,,,,,,,,,,,,,,,,,,,,,,,,,,,,,,,,,,,,,,,,,,,,,,,,,,,,,,,,,1.7788,953.8232209002599,None,space,1,953.8232209002599,None,0.4641255000606179,P014,fencog,1,Pre,2021_Oct_19_1119,N-Back (New Version 2021),2021.1.4,119.67276652457903,
,,,,Conditions/Version_1/oneback(4)_v1.xlsx,New rule: Press 'space' when you see 1-back (i.e. the same letter as the one that appeared 1 letter ago.),,,,,,,,,,,0,14,14,14,,,,,,,,,,,,,,,,,,,,,,,,,,,,,,,,,,,,,,,,,,,,,,,,,,,,,,,,,,,,,,,,,,,,,,,,,,,,,,,,,P014,fencog,1,Pre,2021_Oct_19_1119,N-Back (New Version 2021),2021.1.4,119.67276652457903,
,,,,Conditions/Version_1/threeback(4)_v1.xlsx,New rule: Press 'space' when you see 3-back (i.e. the same letter as the one that appeared 3 letters ago.),A,None,,,,,,,,,0,15,15,15,0,0,0,0,,,,,,,,,,,,,,,,,,,,,,,,,,,,,,,,,,,,,,,,,,,,,,,,,,,,,,,,,,,955.8458235999569,None,958.8322173999622,None,space,1.6016402998939157,958.8322173999622,None,955.8458235999569,None,1.3882,961.8461346002296,None,None,1,961.8461346002296,None,,P014,fencog,1,Pre,2021_Oct_19_1119,N-Back (New Version 2021),2021.1.4,119.67276652457903,
,,,,Conditions/Version_1/threeback(4)_v1.xlsx,New rule: Press 'space' when you see 3-back (i.e. the same letter as the one that appeared 3 letters ago.),n,None,,,,,,,,,0,15,15,15,0,1,1,1,,,,,,,,,,,,,,,,,,,,,,,,,,,,,,,,,,,,,,,,,,,,,,,,,,,,,,,,,,,,,,,,,,,,,1.2952,965.153771799989,None,None,1,965.153771799989,None,,P014,fencog,1,Pre,2021_Oct_19_1119,N-Back (New Version 2021),2021.1.4,119.67276652457903,
,,,,Conditions/Version_1/threeback(4)_v1.xlsx,New rule: Press 'space' when you see 3-back (i.e. the same letter as the one that appeared 3 letters ago.),g,None,,,,,,,,,0,15,15,15,0,2,2,2,,,,,,,,,,,,,,,,,,,,,,,,,,,,,,,,,,,,,,,,,,,,,,,,,,,,,,,,,,,,,,,,,,,,,1.4006,968.5600747000426,None,None,1,968.5600747000426,None,,P014,fencog,1,Pre,2021_Oct_19_1119,N-Back (New Version 2021),2021.1.4,119.67276652457903,
,,,,Conditions/Version_1/threeback(4)_v1.xlsx,New rule: Press 'space' when you see 3-back (i.e. the same letter as the one that appeared 3 letters ago.),A,space,,,,,,,,,0,15,15,15,0,3,3,3,,,,,,,,,,,,,,,,,,,,,,,,,,,,,,,,,,,,,,,,,,,,,,,,,,,,,,,,,,,,,,,,,,,,,1.5742,972.1339092003182,None,space,1,972.1339092003182,None,0.8694979003630579,P014,fencog,1,Pre,2021_Oct_19_1119,N-Back (New Version 2021),2021.1.4,119.67276652457903,
,,,,Conditions/Version_1/threeback(4)_v1.xlsx,New rule: Press 'space' when you see 3-back (i.e. the same letter as the one that appeared 3 letters ago.),p,None,,,,,,,,,0,15,15,15,0,4,4,4,,,,,,,,,,,,,,,,,,,,,,,,,,,,,,,,,,,,,,,,,,,,,,,,,,,,,,,,,,,,,,,,,,,,,1.196,975.332973500248,None,None,1,975.332973500248,None,,P014,fencog,1,Pre,2021_Oct_19_1119,N-Back (New Version 2021),2021.1.4,119.67276652457903,
,,,,Conditions/Version_1/threeback(4)_v1.xlsx,New rule: Press 'space' when you see 3-back (i.e. the same letter as the one that appeared 3 letters ago.),O,None,,,,,,,,,0,15,15,15,0,5,5,5,,,,,,,,,,,,,,,,,,,,,,,,,,,,,,,,,,,,,,,,,,,,,,,,,,,,,,,,,,,,,,,,,,,,,1.4316,978.7654206003062,None,None,1,978.7654206003062,None,,P014,fencog,1,Pre,2021_Oct_19_1119,N-Back (New Version 2021),2021.1.4,119.67276652457903,
,,,,Conditions/Version_1/threeback(4)_v1.xlsx,New rule: Press 'space' when you see 3-back (i.e. the same letter as the one that appeared 3 letters ago.),a,space,,,,,,,,,0,15,15,15,0,6,6,6,,,,,,,,,,,,,,,,,,,,,,,,,,,,,,,,,,,,,,,,,,,,,,,,,,,,,,,,,,,,,,,,,,,,,1.816,982.6032895003445,None,space,1,982.6032895003445,None,0.5276271998882294,P014,fencog,1,Pre,2021_Oct_19_1119,N-Back (New Version 2021),2021.1.4,119.67276652457903,
,,,,Conditions/Version_1/threeback(4)_v1.xlsx,New rule: Press 'space' when you see 3-back (i.e. the same letter as the one that appeared 3 letters ago.),p,space,,,,,,,,,0,15,15,15,0,7,7,7,,,,,,,,,,,,,,,,,,,,,,,,,,,,,,,,,,,,,,,,,,,,,,,,,,,,,,,,,,,,,,,,,,,,,1.8718,986.4796097003855,None,space,1,986.4796097003855,None,1.3993334001861513,P014,fencog,1,Pre,2021_Oct_19_1119,N-Back (New Version 2021),2021.1.4,119.67276652457903,
,,,,Conditions/Version_1/threeback(4)_v1.xlsx,New rule: Press 'space' when you see 3-back (i.e. the same letter as the one that appeared 3 letters ago.),x,None,,,,,,,,,0,15,15,15,0,8,8,8,,,,,,,,,,,,,,,,,,,,,,,,,,,,,,,,,,,,,,,,,,,,,,,,,,,,,,,,,,,,,,,,,,,,,1.2456,989.7289547002874,None,None,1,989.7289547002874,None,,P014,fencog,1,Pre,2021_Oct_19_1119,N-Back (New Version 2021),2021.1.4,119.67276652457903,
,,,,Conditions/Version_1/threeback(4)_v1.xlsx,New rule: Press 'space' when you see 3-back (i.e. the same letter as the one that appeared 3 letters ago.),X,None,,,,,,,,,0,15,15,15,0,9,9,9,,,,,,,,,,,,,,,,,,,,,,,,,,,,,,,,,,,,,,,,,,,,,,,,,,,,,,,,,,,,,,,,,,,,,1.8222,993.55325740017,None,None,1,993.55325740017,None,,P014,fencog,1,Pre,2021_Oct_19_1119,N-Back (New Version 2021),2021.1.4,119.67276652457903,
,,,,Conditions/Version_1/threeback(4)_v1.xlsx,New rule: Press 'space' when you see 3-back (i.e. the same letter as the one that appeared 3 letters ago.),,,,,,,,,,,0,15,15,15,,,,,,,,,,,,,,,,,,,,,,,,,,,,,,,,,,,,,,,,,,,,,,,,,,,,,,,,,,,,,,,,,,,,,,,,,,,,,,,,,P014,fencog,1,Pre,2021_Oct_19_1119,N-Back (New Version 2021),2021.1.4,119.67276652457903,
