CondFileP,InstructionsP,LettersDisplayedP,CorrectnessP,CondFile,Instructions,LettersDisplayed,Correctness,practicetrials.thisRepN,practicetrials.thisTrialN,practicetrials.thisN,practicetrials.thisIndex,InnerLoopPractice.thisRepN,InnerLoopPractice.thisTrialN,InnerLoopPractice.thisN,InnerLoopPractice.thisIndex,trials.thisRepN,trials.thisTrialN,trials.thisN,trials.thisIndex,InnerLoop.thisRepN,InnerLoop.thisTrialN,InnerLoop.thisN,InnerLoop.thisIndex,TaskVersionText.started,TaskVersionText.stopped,InstrKey1.keys,InstrKey1.rt,InstrKey1.started,InstrKey1.stopped,text.started,text.stopped,key_resp_4.keys,key_resp_4.rt,key_resp_4.started,key_resp_4.stopped,text_2.started,text_2.stopped,key_resp_3.keys,key_resp_3.rt,key_resp_3.started,key_resp_3.stopped,text_3.started,text_3.stopped,key_resp_2.keys,key_resp_2.rt,key_resp_2.started,key_resp_2.stopped,PractIn1.started,PractIn1.stopped,PractIn2.started,PractIn2.stopped,PractInstructionPass.keys,PractInstructionPass.rt,PractInstructionPass.started,PractInstructionPass.stopped,PractBlock1.started,PractBlock1.stopped,ISIjitterPractice,ISI_Pract_Fixation.started,ISI_Pract_Fixation.stopped,N_backP.started,N_backP.stopped,KeyPractice.keys,KeyPractice.corr,KeyPractice.rt,KeyPractice.started,KeyPractice.stopped,text_4.started,text_4.stopped,TransitionText.started,TransitionText.stopped,key_resp_6.keys,key_resp_6.rt,key_resp_6.started,key_resp_6.stopped,text_5.started,text_5.stopped,key_resp_5.keys,key_resp_5.rt,key_resp_5.started,key_resp_5.stopped,MainInt1.started,MainInt1.stopped,MainInt2.started,MainInt2.stopped,InstructionPass.keys,InstructionPass.rt,InstructionPass.started,InstructionPass.stopped,Blocks1.started,Blocks1.stopped,ISIjitter,N_backD.started,N_backD.stopped,key_resp.keys,key_resp.corr,key_resp.started,key_resp.stopped,key_resp.rt,participant,Study Name,Task Version (required to run),PRE/POST,date,expName,psychopyVersion,frameRate
,,,,,,,,,,,,,,,,,,,,,,,,32.9196511,None,space,6.2608159,33.4041508,None,,,,,,,,,,,,,,,,,,,,,,,,,,,,,,,,,,,,,,,,,,,,,,,,,,,,,,,,,,,,,,,,,,,,,,,P014,fencog,2,Post,2021_Oct_26_1150,N-Back (New Version 2021),2021.1.4,119.8062493
,,,,,,,,,,,,,,,,,,,,,,,,,,,,,,39.6992699,None,space,32.6972478,40.1941196,None,,,,,,,,,,,,,,,,,,,,,,,,,,,,,,,,,,,,,,,,,,,,,,,,,,,,,,,,,,,,,,,,,P014,fencog,2,Post,2021_Oct_26_1150,N-Back (New Version 2021),2021.1.4,119.8062493
,,,,,,,,,,,,,,,,,,,,,,,,,,,,,,,,,,,,72.9224963,None,space,7.1740395,73.4190249,None,,,,,,,,,,,,,,,,,,,,,,,,,,,,,,,,,,,,,,,,,,,,,,,,,,,,,,,,,,,P014,fencog,2,Post,2021_Oct_26_1150,N-Back (New Version 2021),2021.1.4,119.8062493
,,,,,,,,,,,,,,,,,,,,,,,,,,,,,,,,,,,,,,,,,,80.6211043,None,space,8.7735916,81.1155057,None,,,,,,,,,,,,,,,,,,,,,,,,,,,,,,,,,,,,,,,,,,,,,,,,,,,,,P014,fencog,2,Post,2021_Oct_26_1150,N-Back (New Version 2021),2021.1.4,119.8062493
Conditions/Version_2Pr/zeroback(1)_v2.xlsx,Rule: Press 'space' when you see the letter 'x' or 'X'.,x,space,,,,,0,0,0,0,0,0,0,0,,,,,,,,,,,,,,,,,,,,,,,,,,,,,,,,,91.2977402,None,94.2791458,None,space,1.7396198,94.2791458,None,91.2977402,None,1.44,96.0450864,None,97.4876285,None,space,1,0.5453187,97.4876285,None,98.0475944,None,,,,,,,,,,,,,,,,,,,,,,,,,,,,,,,P014,fencog,2,Post,2021_Oct_26_1150,N-Back (New Version 2021),2021.1.4,119.8062493
Conditions/Version_2Pr/zeroback(1)_v2.xlsx,Rule: Press 'space' when you see the letter 'x' or 'X'.,R,None,,,,,0,0,0,0,0,1,1,1,,,,,,,,,,,,,,,,,,,,,,,,,,,,,,,,,,,,,,,,,,,1.215,99.5513177,None,100.7740608,None,None,1,,100.7740608,None,102.7749713,None,,,,,,,,,,,,,,,,,,,,,,,,,,,,,,,P014,fencog,2,Post,2021_Oct_26_1150,N-Back (New Version 2021),2021.1.4,119.8062493
Conditions/Version_2Pr/zeroback(1)_v2.xlsx,Rule: Press 'space' when you see the letter 'x' or 'X'.,p,None,,,,,0,0,0,0,0,2,2,2,,,,,,,,,,,,,,,,,,,,,,,,,,,,,,,,,,,,,,,,,,,1.14,104.2745125,None,105.4165172,None,None,1,,105.4165172,None,107.4236575,None,,,,,,,,,,,,,,,,,,,,,,,,,,,,,,,P014,fencog,2,Post,2021_Oct_26_1150,N-Back (New Version 2021),2021.1.4,119.8062493
Conditions/Version_2Pr/zeroback(1)_v2.xlsx,Rule: Press 'space' when you see the letter 'x' or 'X'.,O,None,,,,,0,0,0,0,0,3,3,3,,,,,,,,,,,,,,,,,,,,,,,,,,,,,,,,,,,,,,,,,,,1.99,108.9227182,None,110.9177494,None,None,1,,110.9177494,None,112.9269813,None,,,,,,,,,,,,,,,,,,,,,,,,,,,,,,,P014,fencog,2,Post,2021_Oct_26_1150,N-Back (New Version 2021),2021.1.4,119.8062493
Conditions/Version_2Pr/zeroback(1)_v2.xlsx,Rule: Press 'space' when you see the letter 'x' or 'X'.,i,None,,,,,0,0,0,0,0,4,4,4,,,,,,,,,,,,,,,,,,,,,,,,,,,,,,,,,,,,,,,,,,,1.59,114.4214542,None,116.0233584,None,None,1,,116.0233584,None,118.0183686,None,,,,,,,,,,,,,,,,,,,,,,,,,,,,,,,P014,fencog,2,Post,2021_Oct_26_1150,N-Back (New Version 2021),2021.1.4,119.8062493
Conditions/Version_2Pr/zeroback(1)_v2.xlsx,Rule: Press 'space' when you see the letter 'x' or 'X'.,U,None,,,,,0,0,0,0,0,5,5,5,,,,,,,,,,,,,,,,,,,,,,,,,,,,,,,,,,,,,,,,,,,1.04,119.519748,None,120.5630938,None,None,1,,120.5630938,None,122.5687324,None,,,,,,,,,,,,,,,,,,,,,,,,,,,,,,,P014,fencog,2,Post,2021_Oct_26_1150,N-Back (New Version 2021),2021.1.4,119.8062493
Conditions/Version_2Pr/zeroback(1)_v2.xlsx,Rule: Press 'space' when you see the letter 'x' or 'X'.,N,None,,,,,0,0,0,0,0,6,6,6,,,,,,,,,,,,,,,,,,,,,,,,,,,,,,,,,,,,,,,,,,,1.565,124.0685702,None,125.6384655,None,None,1,,125.6384655,None,127.6417817,None,,,,,,,,,,,,,,,,,,,,,,,,,,,,,,,P014,fencog,2,Post,2021_Oct_26_1150,N-Back (New Version 2021),2021.1.4,119.8062493
Conditions/Version_2Pr/zeroback(1)_v2.xlsx,Rule: Press 'space' when you see the letter 'x' or 'X'.,m,None,,,,,0,0,0,0,0,7,7,7,,,,,,,,,,,,,,,,,,,,,,,,,,,,,,,,,,,,,,,,,,,1.79,129.1419232,None,130.9335638,None,None,1,,130.9335638,None,132.9409709,None,,,,,,,,,,,,,,,,,,,,,,,,,,,,,,,P014,fencog,2,Post,2021_Oct_26_1150,N-Back (New Version 2021),2021.1.4,119.8062493
Conditions/Version_2Pr/zeroback(1)_v2.xlsx,Rule: Press 'space' when you see the letter 'x' or 'X'.,x,space,,,,,0,0,0,0,0,8,8,8,,,,,,,,,,,,,,,,,,,,,,,,,,,,,,,,,,,,,,,,,,,1.515,134.4404684,None,135.9606219,None,space,1,0.3928866,135.9606219,None,136.3665494,None,,,,,,,,,,,,,,,,,,,,,,,,,,,,,,,P014,fencog,2,Post,2021_Oct_26_1150,N-Back (New Version 2021),2021.1.4,119.8062493
Conditions/Version_2Pr/zeroback(1)_v2.xlsx,Rule: Press 'space' when you see the letter 'x' or 'X'.,X,space,,,,,0,0,0,0,0,9,9,9,,,,,,,,,,,,,,,,,,,,,,,,,,,,,,,,,,,,,,,,,,,1.915,137.8746931,None,139.7910917,None,space,1,0.5212932,139.7910917,None,140.3231494,None,,,,,,,,,,,,,,,,,,,,,,,,,,,,,,,P014,fencog,2,Post,2021_Oct_26_1150,N-Back (New Version 2021),2021.1.4,119.8062493
Conditions/Version_2Pr/zeroback(1)_v2.xlsx,Rule: Press 'space' when you see the letter 'x' or 'X'.,,,,,,,0,0,0,0,,,,,,,,,,,,,,,,,,,,,,,,,,,,,,,,,,,,,,,,,,,,,,,,,,,,,,,,,,,,,,,,,,,,,,,,,,,,,,,,,,,,,,,,,P014,fencog,2,Post,2021_Oct_26_1150,N-Back (New Version 2021),2021.1.4,119.8062493
Conditions/Version_2Pr/oneback(1)_v2.xlsx,New rule: Press 'space' when you see 1-back (i.e. the same letter as the one that appeared 1 letter ago.),r,None,,,,,0,1,1,1,0,0,0,0,,,,,,,,,,,,,,,,,,,,,,,,,,,,,,,,,141.8533975,None,144.839098,None,space,0.5214186,144.839098,None,141.8533975,None,1.24,145.3927417,None,146.6384734,None,None,1,,146.6384734,None,148.6446916,None,,,,,,,,,,,,,,,,,,,,,,,,,,,,,,,P014,fencog,2,Post,2021_Oct_26_1150,N-Back (New Version 2021),2021.1.4,119.8062493
Conditions/Version_2Pr/oneback(1)_v2.xlsx,New rule: Press 'space' when you see 1-back (i.e. the same letter as the one that appeared 1 letter ago.),t,None,,,,,0,1,1,1,0,1,1,1,,,,,,,,,,,,,,,,,,,,,,,,,,,,,,,,,,,,,,,,,,,1.465,150.1460756,None,151.611579,None,None,1,,151.611579,None,153.6181729,None,,,,,,,,,,,,,,,,,,,,,,,,,,,,,,,P014,fencog,2,Post,2021_Oct_26_1150,N-Back (New Version 2021),2021.1.4,119.8062493
Conditions/Version_2Pr/oneback(1)_v2.xlsx,New rule: Press 'space' when you see 1-back (i.e. the same letter as the one that appeared 1 letter ago.),Y,None,,,,,0,1,1,1,0,2,2,2,,,,,,,,,,,,,,,,,,,,,,,,,,,,,,,,,,,,,,,,,,,1.815,155.1177653,None,156.9375807,None,None,1,,156.9375807,None,158.940182,None,,,,,,,,,,,,,,,,,,,,,,,,,,,,,,,P014,fencog,2,Post,2021_Oct_26_1150,N-Back (New Version 2021),2021.1.4,119.8062493
Conditions/Version_2Pr/oneback(1)_v2.xlsx,New rule: Press 'space' when you see 1-back (i.e. the same letter as the one that appeared 1 letter ago.),y,space,,,,,0,1,1,1,0,3,3,3,,,,,,,,,,,,,,,,,,,,,,,,,,,,,,,,,,,,,,,,,,,1.515,160.4410983,None,161.9587517,None,space,1,0.4182607,161.9587517,None,162.388773,None,,,,,,,,,,,,,,,,,,,,,,,,,,,,,,,P014,fencog,2,Post,2021_Oct_26_1150,N-Back (New Version 2021),2021.1.4,119.8062493
Conditions/Version_2Pr/oneback(1)_v2.xlsx,New rule: Press 'space' when you see 1-back (i.e. the same letter as the one that appeared 1 letter ago.),p,None,,,,,0,1,1,1,0,4,4,4,,,,,,,,,,,,,,,,,,,,,,,,,,,,,,,,,,,,,,,,,,,1.765,163.8900017,None,165.6569587,None,None,1,,165.6569587,None,167.6640358,None,,,,,,,,,,,,,,,,,,,,,,,,,,,,,,,P014,fencog,2,Post,2021_Oct_26_1150,N-Back (New Version 2021),2021.1.4,119.8062493
Conditions/Version_2Pr/oneback(1)_v2.xlsx,New rule: Press 'space' when you see 1-back (i.e. the same letter as the one that appeared 1 letter ago.),P,space,,,,,0,1,1,1,0,5,5,5,,,,,,,,,,,,,,,,,,,,,,,,,,,,,,,,,,,,,,,,,,,1.49,169.1635279,None,170.6593138,None,space,1,0.333263,170.6593138,None,171.0108633,None,,,,,,,,,,,,,,,,,,,,,,,,,,,,,,,P014,fencog,2,Post,2021_Oct_26_1150,N-Back (New Version 2021),2021.1.4,119.8062493
Conditions/Version_2Pr/oneback(1)_v2.xlsx,New rule: Press 'space' when you see 1-back (i.e. the same letter as the one that appeared 1 letter ago.),e,None,,,,,0,1,1,1,0,6,6,6,,,,,,,,,,,,,,,,,,,,,,,,,,,,,,,,,,,,,,,,,,,1.965,172.5125164,None,174.481995,None,None,1,,174.481995,None,176.4864228,None,,,,,,,,,,,,,,,,,,,,,,,,,,,,,,,P014,fencog,2,Post,2021_Oct_26_1150,N-Back (New Version 2021),2021.1.4,119.8062493
Conditions/Version_2Pr/oneback(1)_v2.xlsx,New rule: Press 'space' when you see 1-back (i.e. the same letter as the one that appeared 1 letter ago.),r,None,,,,,0,1,1,1,0,7,7,7,,,,,,,,,,,,,,,,,,,,,,,,,,,,,,,,,,,,,,,,,,,1.865,177.9859503,None,179.85188,None,None,1,,179.85188,None,181.8554047,None,,,,,,,,,,,,,,,,,,,,,,,,,,,,,,,P014,fencog,2,Post,2021_Oct_26_1150,N-Back (New Version 2021),2021.1.4,119.8062493
Conditions/Version_2Pr/oneback(1)_v2.xlsx,New rule: Press 'space' when you see 1-back (i.e. the same letter as the one that appeared 1 letter ago.),R,space,,,,,0,1,1,1,0,8,8,8,,,,,,,,,,,,,,,,,,,,,,,,,,,,,,,,,,,,,,,,,,,1.89,183.3591889,None,185.2503829,None,space,1,0.6542131,185.2503829,None,185.9226153,None,,,,,,,,,,,,,,,,,,,,,,,,,,,,,,,P014,fencog,2,Post,2021_Oct_26_1150,N-Back (New Version 2021),2021.1.4,119.8062493
Conditions/Version_2Pr/oneback(1)_v2.xlsx,New rule: Press 'space' when you see 1-back (i.e. the same letter as the one that appeared 1 letter ago.),p,None,,,,,0,1,1,1,0,9,9,9,,,,,,,,,,,,,,,,,,,,,,,,,,,,,,,,,,,,,,,,,,,1.14,187.428247,None,188.5743181,None,None,1,,188.5743181,None,190.5736616,None,,,,,,,,,,,,,,,,,,,,,,,,,,,,,,,P014,fencog,2,Post,2021_Oct_26_1150,N-Back (New Version 2021),2021.1.4,119.8062493
Conditions/Version_2Pr/oneback(1)_v2.xlsx,New rule: Press 'space' when you see 1-back (i.e. the same letter as the one that appeared 1 letter ago.),,,,,,,0,1,1,1,,,,,,,,,,,,,,,,,,,,,,,,,,,,,,,,,,,,,,,,,,,,,,,,,,,,,,,,,,,,,,,,,,,,,,,,,,,,,,,,,,,,,,,,,P014,fencog,2,Post,2021_Oct_26_1150,N-Back (New Version 2021),2021.1.4,119.8062493
Conditions/Version_2Pr/twoback(1)_v2.xlsx,New rule: Press 'space' when you see 2-back (i.e. the same letter as the one that appeared 2 letters ago.),r,None,,,,,0,2,2,2,0,0,0,0,,,,,,,,,,,,,,,,,,,,,,,,,,,,,,,,,192.0984392,None,195.0856472,None,space,0.4587006,195.0856472,None,192.0984392,None,1.765,195.5694161,None,197.3384567,None,None,1,,197.3384567,None,199.3385405,None,,,,,,,,,,,,,,,,,,,,,,,,,,,,,,,P014,fencog,2,Post,2021_Oct_26_1150,N-Back (New Version 2021),2021.1.4,119.8062493
Conditions/Version_2Pr/twoback(1)_v2.xlsx,New rule: Press 'space' when you see 2-back (i.e. the same letter as the one that appeared 2 letters ago.),P,None,,,,,0,2,2,2,0,1,1,1,,,,,,,,,,,,,,,,,,,,,,,,,,,,,,,,,,,,,,,,,,,1.09,200.8457484,None,201.9379731,None,None,1,,201.9379731,None,203.9449714,None,,,,,,,,,,,,,,,,,,,,,,,,,,,,,,,P014,fencog,2,Post,2021_Oct_26_1150,N-Back (New Version 2021),2021.1.4,119.8062493
Conditions/Version_2Pr/twoback(1)_v2.xlsx,New rule: Press 'space' when you see 2-back (i.e. the same letter as the one that appeared 2 letters ago.),o,None,,,,,0,2,2,2,0,2,2,2,,,,,,,,,,,,,,,,,,,,,,,,,,,,,,,,,,,,,,,,,,,1.94,205.4444657,None,207.3863007,None,None,1,,207.3863007,None,209.3933014,None,,,,,,,,,,,,,,,,,,,,,,,,,,,,,,,P014,fencog,2,Post,2021_Oct_26_1150,N-Back (New Version 2021),2021.1.4,119.8062493
Conditions/Version_2Pr/twoback(1)_v2.xlsx,New rule: Press 'space' when you see 2-back (i.e. the same letter as the one that appeared 2 letters ago.),p,space,,,,,0,2,2,2,0,3,3,3,,,,,,,,,,,,,,,,,,,,,,,,,,,,,,,,,,,,,,,,,,,1.59,210.8928495,None,212.4838621,None,space,1,0.4282434,212.4838621,None,212.9262624,None,,,,,,,,,,,,,,,,,,,,,,,,,,,,,,,P014,fencog,2,Post,2021_Oct_26_1150,N-Back (New Version 2021),2021.1.4,119.8062493
Conditions/Version_2Pr/twoback(1)_v2.xlsx,New rule: Press 'space' when you see 2-back (i.e. the same letter as the one that appeared 2 letters ago.),Y,None,,,,,0,2,2,2,0,4,4,4,,,,,,,,,,,,,,,,,,,,,,,,,,,,,,,,,,,,,,,,,,,1.065,214.4349056,None,215.5032713,None,None,1,,215.5032713,None,217.5041689,None,,,,,,,,,,,,,,,,,,,,,,,,,,,,,,,P014,fencog,2,Post,2021_Oct_26_1150,N-Back (New Version 2021),2021.1.4,119.8062493
Conditions/Version_2Pr/twoback(1)_v2.xlsx,New rule: Press 'space' when you see 2-back (i.e. the same letter as the one that appeared 2 letters ago.),q,None,,,,,0,2,2,2,0,5,5,5,,,,,,,,,,,,,,,,,,,,,,,,,,,,,,,,,,,,,,,,,,,1.265,219.0070602,None,220.2838632,None,None,1,,220.2838632,None,222.281122,None,,,,,,,,,,,,,,,,,,,,,,,,,,,,,,,P014,fencog,2,Post,2021_Oct_26_1150,N-Back (New Version 2021),2021.1.4,119.8062493
Conditions/Version_2Pr/twoback(1)_v2.xlsx,New rule: Press 'space' when you see 2-back (i.e. the same letter as the one that appeared 2 letters ago.),m,None,,,,,0,2,2,2,0,6,6,6,,,,,,,,,,,,,,,,,,,,,,,,,,,,,,,,,,,,,,,,,,,1.89,223.7807091,None,225.6737055,None,None,1,,225.6737055,None,227.6752075,None,,,,,,,,,,,,,,,,,,,,,,,,,,,,,,,P014,fencog,2,Post,2021_Oct_26_1150,N-Back (New Version 2021),2021.1.4,119.8062493
Conditions/Version_2Pr/twoback(1)_v2.xlsx,New rule: Press 'space' when you see 2-back (i.e. the same letter as the one that appeared 2 letters ago.),Q,space,,,,,0,2,2,2,0,7,7,7,,,,,,,,,,,,,,,,,,,,,,,,,,,,,,,,,,,,,,,,,,,1.465,229.178703,None,230.6485225,None,space,1,0.5518406,230.6485225,None,231.2122075,None,,,,,,,,,,,,,,,,,,,,,,,,,,,,,,,P014,fencog,2,Post,2021_Oct_26_1150,N-Back (New Version 2021),2021.1.4,119.8062493
Conditions/Version_2Pr/twoback(1)_v2.xlsx,New rule: Press 'space' when you see 2-back (i.e. the same letter as the one that appeared 2 letters ago.),L,None,,,,,0,2,2,2,0,8,8,8,,,,,,,,,,,,,,,,,,,,,,,,,,,,,,,,,,,,,,,,,,,1.365,232.7112339,None,234.0806471,None,None,1,,234.0806471,None,236.0854342,None,,,,,,,,,,,,,,,,,,,,,,,,,,,,,,,P014,fencog,2,Post,2021_Oct_26_1150,N-Back (New Version 2021),2021.1.4,119.8062493
Conditions/Version_2Pr/twoback(1)_v2.xlsx,New rule: Press 'space' when you see 2-back (i.e. the same letter as the one that appeared 2 letters ago.),q,space,,,,,0,2,2,2,0,9,9,9,,,,,,,,,,,,,,,,,,,,,,,,,,,,,,,,,,,,,,,,,,,1.64,237.5850188,None,239.2312773,None,space,1,0.4493029,239.2312773,None,239.6932824,None,,,,,,,,,,,,,,,,,,,,,,,,,,,,,,,P014,fencog,2,Post,2021_Oct_26_1150,N-Back (New Version 2021),2021.1.4,119.8062493
Conditions/Version_2Pr/twoback(1)_v2.xlsx,New rule: Press 'space' when you see 2-back (i.e. the same letter as the one that appeared 2 letters ago.),,,,,,,0,2,2,2,,,,,,,,,,,,,,,,,,,,,,,,,,,,,,,,,,,,,,,,,,,,,,,,,,,,,,,,,,,,,,,,,,,,,,,,,,,,,,,,,,,,,,,,,P014,fencog,2,Post,2021_Oct_26_1150,N-Back (New Version 2021),2021.1.4,119.8062493
Conditions/Version_2Pr/threeback(1)_v2.xlsx,New rule: Press 'space' when you see 3-back (i.e. the same letter as the one that appeared 3 letters ago.),u,None,,,,,0,3,3,3,0,0,0,0,,,,,,,,,,,,,,,,,,,,,,,,,,,,,,,,,241.2342376,None,244.2180692,None,space,0.3659843,244.2180692,None,241.2342376,None,1.84,244.611832,None,246.4620213,None,None,1,,246.4620213,None,248.4721352,None,,,,,,,,,,,,,,,,,,,,,,,,,,,,,,,P014,fencog,2,Post,2021_Oct_26_1150,N-Back (New Version 2021),2021.1.4,119.8062493
Conditions/Version_2Pr/threeback(1)_v2.xlsx,New rule: Press 'space' when you see 3-back (i.e. the same letter as the one that appeared 3 letters ago.),U,None,,,,,0,3,3,3,0,1,1,1,,,,,,,,,,,,,,,,,,,,,,,,,,,,,,,,,,,,,,,,,,,1.815,249.9643334,None,251.7886357,None,None,1,,251.7886357,None,253.7885608,None,,,,,,,,,,,,,,,,,,,,,,,,,,,,,,,P014,fencog,2,Post,2021_Oct_26_1150,N-Back (New Version 2021),2021.1.4,119.8062493
Conditions/Version_2Pr/threeback(1)_v2.xlsx,New rule: Press 'space' when you see 3-back (i.e. the same letter as the one that appeared 3 letters ago.),p,None,,,,,0,3,3,3,0,2,2,2,,,,,,,,,,,,,,,,,,,,,,,,,,,,,,,,,,,,,,,,,,,1.865,255.287993,None,257.1598399,None,None,1,,257.1598399,None,259.1619718,None,,,,,,,,,,,,,,,,,,,,,,,,,,,,,,,P014,fencog,2,Post,2021_Oct_26_1150,N-Back (New Version 2021),2021.1.4,119.8062493
Conditions/Version_2Pr/threeback(1)_v2.xlsx,New rule: Press 'space' when you see 3-back (i.e. the same letter as the one that appeared 3 letters ago.),U,space,,,,,0,3,3,3,0,3,3,3,,,,,,,,,,,,,,,,,,,,,,,,,,,,,,,,,,,,,,,,,,,1.54,260.6614156,None,262.2030312,None,space,1,0.4054088,262.2030312,None,262.6194825,None,,,,,,,,,,,,,,,,,,,,,,,,,,,,,,,P014,fencog,2,Post,2021_Oct_26_1150,N-Back (New Version 2021),2021.1.4,119.8062493
Conditions/Version_2Pr/threeback(1)_v2.xlsx,New rule: Press 'space' when you see 3-back (i.e. the same letter as the one that appeared 3 letters ago.),e,None,,,,,0,3,3,3,0,4,4,4,,,,,,,,,,,,,,,,,,,,,,,,,,,,,,,,,,,,,,,,,,,1.99,264.1191127,None,266.1101487,None,None,1,,266.1101487,None,268.1122301,None,,,,,,,,,,,,,,,,,,,,,,,,,,,,,,,P014,fencog,2,Post,2021_Oct_26_1150,N-Back (New Version 2021),2021.1.4,119.8062493
Conditions/Version_2Pr/threeback(1)_v2.xlsx,New rule: Press 'space' when you see 3-back (i.e. the same letter as the one that appeared 3 letters ago.),R,None,,,,,0,3,3,3,0,5,5,5,,,,,,,,,,,,,,,,,,,,,,,,,,,,,,,,,,,,,,,,,,,1.065,269.6167155,None,270.6830117,None,None,1,,270.6830117,None,272.682392,None,,,,,,,,,,,,,,,,,,,,,,,,,,,,,,,P014,fencog,2,Post,2021_Oct_26_1150,N-Back (New Version 2021),2021.1.4,119.8062493
Conditions/Version_2Pr/threeback(1)_v2.xlsx,New rule: Press 'space' when you see 3-back (i.e. the same letter as the one that appeared 3 letters ago.),p,None,,,,,0,3,3,3,0,6,6,6,,,,,,,,,,,,,,,,,,,,,,,,,,,,,,,,,,,,,,,,,,,1.64,274.1823814,None,275.8233467,None,None,1,,275.8233467,None,277.8230353,None,,,,,,,,,,,,,,,,,,,,,,,,,,,,,,,P014,fencog,2,Post,2021_Oct_26_1150,N-Back (New Version 2021),2021.1.4,119.8062493
Conditions/Version_2Pr/threeback(1)_v2.xlsx,New rule: Press 'space' when you see 3-back (i.e. the same letter as the one that appeared 3 letters ago.),E,space,,,,,0,3,3,3,0,7,7,7,,,,,,,,,,,,,,,,,,,,,,,,,,,,,,,,,,,,,,,,,,,1.515,279.3242569,None,280.8388781,None,space,1,0.3935299,280.8388781,None,281.2470949,None,,,,,,,,,,,,,,,,,,,,,,,,,,,,,,,P014,fencog,2,Post,2021_Oct_26_1150,N-Back (New Version 2021),2021.1.4,119.8062493
Conditions/Version_2Pr/threeback(1)_v2.xlsx,New rule: Press 'space' when you see 3-back (i.e. the same letter as the one that appeared 3 letters ago.),k,None,,,,,0,3,3,3,0,8,8,8,,,,,,,,,,,,,,,,,,,,,,,,,,,,,,,,,,,,,,,,,,,1.215,282.7503474,None,283.972743,None,None,1,,283.972743,None,285.979027,None,,,,,,,,,,,,,,,,,,,,,,,,,,,,,,,P014,fencog,2,Post,2021_Oct_26_1150,N-Back (New Version 2021),2021.1.4,119.8062493
Conditions/Version_2Pr/threeback(1)_v2.xlsx,New rule: Press 'space' when you see 3-back (i.e. the same letter as the one that appeared 3 letters ago.),m,None,,,,,0,3,3,3,0,9,9,9,,,,,,,,,,,,,,,,,,,,,,,,,,,,,,,,,,,,,,,,,,,1.59,287.4784296,None,289.0692189,None,None,1,,289.0692189,None,291.077962,None,,,,,,,,,,,,,,,,,,,,,,,,,,,,,,,P014,fencog,2,Post,2021_Oct_26_1150,N-Back (New Version 2021),2021.1.4,119.8062493
Conditions/Version_2Pr/threeback(1)_v2.xlsx,New rule: Press 'space' when you see 3-back (i.e. the same letter as the one that appeared 3 letters ago.),,,,,,,0,3,3,3,,,,,,,,,,,,,,,,,,,,,,,,,,,,,,,,,,,,,,,,,,,,,,,,,,,,,,,,,,,,,,,,,,,,,,,,,,,,,,,,,,,,,,,,,P014,fencog,2,Post,2021_Oct_26_1150,N-Back (New Version 2021),2021.1.4,119.8062493
,,,,,,,,,,,,,,,,,,,,,,,,,,,,,,,,,,,,,,,,,,,,,,,,,,,,,,,,,,,,,,,,,,,,,,292.5941541,None,space,2.0348719,293.085329,None,,,,,,,,,,,,,,,,,,,,,,,,,P014,fencog,2,Post,2021_Oct_26_1150,N-Back (New Version 2021),2021.1.4,119.8062493
,,,,,,,,,,,,,,,,,,,,,,,,,,,,,,,,,,,,,,,,,,,,,,,,,,,,,,,,,,,,,,,,,,,,,,,,,,,,295.1656921,None,space,4.108649,295.651592,None,,,,,,,,,,,,,,,,,,,P014,fencog,2,Post,2021_Oct_26_1150,N-Back (New Version 2021),2021.1.4,119.8062493
,,,,Conditions/Version_1/zeroback(1)_v1.xlsx,Rule: Press 'space' when you see the letter 'x' or 'X'.,b,None,,,,,,,,,0,0,0,0,0,0,0,0,,,,,,,,,,,,,,,,,,,,,,,,,,,,,,,,,,,,,,,,,,,,,,,,,,,,,,,,,,,299.8705844,None,302.8602982,None,space,0.3558683,302.8602982,None,299.8705844,None,1.2456,304.4926164,None,None,1,304.4926164,None,,P014,fencog,2,Post,2021_Oct_26_1150,N-Back (New Version 2021),2021.1.4,119.8062493
,,,,Conditions/Version_1/zeroback(1)_v1.xlsx,Rule: Press 'space' when you see the letter 'x' or 'X'.,T,None,,,,,,,,,0,0,0,0,0,1,1,1,,,,,,,,,,,,,,,,,,,,,,,,,,,,,,,,,,,,,,,,,,,,,,,,,,,,,,,,,,,,,,,,,,,,,1.6734,308.1735623,None,None,1,308.1735623,None,,P014,fencog,2,Post,2021_Oct_26_1150,N-Back (New Version 2021),2021.1.4,119.8062493
,,,,Conditions/Version_1/zeroback(1)_v1.xlsx,Rule: Press 'space' when you see the letter 'x' or 'X'.,L,None,,,,,,,,,0,0,0,0,0,2,2,2,,,,,,,,,,,,,,,,,,,,,,,,,,,,,,,,,,,,,,,,,,,,,,,,,,,,,,,,,,,,,,,,,,,,,1.6548,311.837844,None,None,1,311.837844,None,,P014,fencog,2,Post,2021_Oct_26_1150,N-Back (New Version 2021),2021.1.4,119.8062493
,,,,Conditions/Version_1/zeroback(1)_v1.xlsx,Rule: Press 'space' when you see the letter 'x' or 'X'.,x,space,,,,,,,,,0,0,0,0,0,3,3,3,,,,,,,,,,,,,,,,,,,,,,,,,,,,,,,,,,,,,,,,,,,,,,,,,,,,,,,,,,,,,,,,,,,,,1.9958,315.8394282,None,space,1,315.8394282,None,0.4489876,P014,fencog,2,Post,2021_Oct_26_1150,N-Back (New Version 2021),2021.1.4,119.8062493
,,,,Conditions/Version_1/zeroback(1)_v1.xlsx,Rule: Press 'space' when you see the letter 'x' or 'X'.,o,None,,,,,,,,,0,0,0,0,0,4,4,4,,,,,,,,,,,,,,,,,,,,,,,,,,,,,,,,,,,,,,,,,,,,,,,,,,,,,,,,,,,,,,,,,,,,,1.0658,318.9105434,None,None,1,318.9105434,None,,P014,fencog,2,Post,2021_Oct_26_1150,N-Back (New Version 2021),2021.1.4,119.8062493
,,,,Conditions/Version_1/zeroback(1)_v1.xlsx,Rule: Press 'space' when you see the letter 'x' or 'X'.,P,None,,,,,,,,,0,0,0,0,0,5,5,5,,,,,,,,,,,,,,,,,,,,,,,,,,,,,,,,,,,,,,,,,,,,,,,,,,,,,,,,,,,,,,,,,,,,,1.1402,322.0633495,None,None,1,322.0633495,None,,P014,fencog,2,Post,2021_Oct_26_1150,N-Back (New Version 2021),2021.1.4,119.8062493
,,,,Conditions/Version_1/zeroback(1)_v1.xlsx,Rule: Press 'space' when you see the letter 'x' or 'X'.,X,space,,,,,,,,,0,0,0,0,0,6,6,6,,,,,,,,,,,,,,,,,,,,,,,,,,,,,,,,,,,,,,,,,,,,,,,,,,,,,,,,,,,,,,,,,,,,,1.2332,325.3003516,None,space,1,325.3003516,None,0.3320499,P014,fencog,2,Post,2021_Oct_26_1150,N-Back (New Version 2021),2021.1.4,119.8062493
,,,,Conditions/Version_1/zeroback(1)_v1.xlsx,Rule: Press 'space' when you see the letter 'x' or 'X'.,n,None,,,,,,,,,0,0,0,0,0,7,7,7,,,,,,,,,,,,,,,,,,,,,,,,,,,,,,,,,,,,,,,,,,,,,,,,,,,,,,,,,,,,,,,,,,,,,1.5494,328.8529066,None,None,1,328.8529066,None,,P014,fencog,2,Post,2021_Oct_26_1150,N-Back (New Version 2021),2021.1.4,119.8062493
,,,,Conditions/Version_1/zeroback(1)_v1.xlsx,Rule: Press 'space' when you see the letter 'x' or 'X'.,M,None,,,,,,,,,0,0,0,0,0,8,8,8,,,,,,,,,,,,,,,,,,,,,,,,,,,,,,,,,,,,,,,,,,,,,,,,,,,,,,,,,,,,,,,,,,,,,1.0596,331.9345652,None,None,1,331.9345652,None,,P014,fencog,2,Post,2021_Oct_26_1150,N-Back (New Version 2021),2021.1.4,119.8062493
,,,,Conditions/Version_1/zeroback(1)_v1.xlsx,Rule: Press 'space' when you see the letter 'x' or 'X'.,a,None,,,,,,,,,0,0,0,0,0,9,9,9,,,,,,,,,,,,,,,,,,,,,,,,,,,,,,,,,,,,,,,,,,,,,,,,,,,,,,,,,,,,,,,,,,,,,1.1154,335.0496158,None,None,1,335.0496158,None,,P014,fencog,2,Post,2021_Oct_26_1150,N-Back (New Version 2021),2021.1.4,119.8062493
,,,,Conditions/Version_1/zeroback(1)_v1.xlsx,Rule: Press 'space' when you see the letter 'x' or 'X'.,,,,,,,,,,,0,0,0,0,,,,,,,,,,,,,,,,,,,,,,,,,,,,,,,,,,,,,,,,,,,,,,,,,,,,,,,,,,,,,,,,,,,,,,,,,,,,,,,,,P014,fencog,2,Post,2021_Oct_26_1150,N-Back (New Version 2021),2021.1.4,119.8062493
,,,,Conditions/Version_1/oneback(1)_v1.xlsx,New rule: Press 'space' when you see 1-back (i.e. the same letter as the one that appeared 1 letter ago.),b,None,,,,,,,,,0,1,1,1,0,0,0,0,,,,,,,,,,,,,,,,,,,,,,,,,,,,,,,,,,,,,,,,,,,,,,,,,,,,,,,,,,,337.0844602,None,340.0654546,None,space,0.5905293,340.0654546,None,337.0844602,None,1.0906,341.7706092,None,None,1,341.7706092,None,,P014,fencog,2,Post,2021_Oct_26_1150,N-Back (New Version 2021),2021.1.4,119.8062493
,,,,Conditions/Version_1/oneback(1)_v1.xlsx,New rule: Press 'space' when you see 1-back (i.e. the same letter as the one that appeared 1 letter ago.),p,None,,,,,,,,,0,1,1,1,0,1,1,1,,,,,,,,,,,,,,,,,,,,,,,,,,,,,,,,,,,,,,,,,,,,,,,,,,,,,,,,,,,,,,,,,,,,,1.8842,345.6609853,None,None,1,345.6609853,None,,P014,fencog,2,Post,2021_Oct_26_1150,N-Back (New Version 2021),2021.1.4,119.8062493
,,,,Conditions/Version_1/oneback(1)_v1.xlsx,New rule: Press 'space' when you see 1-back (i.e. the same letter as the one that appeared 1 letter ago.),M,None,,,,,,,,,0,1,1,1,0,2,2,2,,,,,,,,,,,,,,,,,,,,,,,,,,,,,,,,,,,,,,,,,,,,,,,,,,,,,,,,,,,,,,,,,,,,,1.5618,349.2278226,None,None,1,349.2278226,None,,P014,fencog,2,Post,2021_Oct_26_1150,N-Back (New Version 2021),2021.1.4,119.8062493
,,,,Conditions/Version_1/oneback(1)_v1.xlsx,New rule: Press 'space' when you see 1-back (i.e. the same letter as the one that appeared 1 letter ago.),M,space,,,,,,,,,0,1,1,1,0,3,3,3,,,,,,,,,,,,,,,,,,,,,,,,,,,,,,,,,,,,,,,,,,,,,,,,,,,,,,,,,,,,,,,,,,,,,1.1464,352.3777908,None,space,1,352.3777908,None,0.4219312,P014,fencog,2,Post,2021_Oct_26_1150,N-Back (New Version 2021),2021.1.4,119.8062493
,,,,Conditions/Version_1/oneback(1)_v1.xlsx,New rule: Press 'space' when you see 1-back (i.e. the same letter as the one that appeared 1 letter ago.),n,None,,,,,,,,,0,1,1,1,0,4,4,4,,,,,,,,,,,,,,,,,,,,,,,,,,,,,,,,,,,,,,,,,,,,,,,,,,,,,,,,,,,,,,,,,,,,,1.7292,356.1206445,None,None,1,356.1206445,None,,P014,fencog,2,Post,2021_Oct_26_1150,N-Back (New Version 2021),2021.1.4,119.8062493
,,,,Conditions/Version_1/oneback(1)_v1.xlsx,New rule: Press 'space' when you see 1-back (i.e. the same letter as the one that appeared 1 letter ago.),g,None,,,,,,,,,0,1,1,1,0,5,5,5,,,,,,,,,,,,,,,,,,,,,,,,,,,,,,,,,,,,,,,,,,,,,,,,,,,,,,,,,,,,,,,,,,,,,1.4564,359.582297,None,None,1,359.582297,None,,P014,fencog,2,Post,2021_Oct_26_1150,N-Back (New Version 2021),2021.1.4,119.8062493
,,,,Conditions/Version_1/oneback(1)_v1.xlsx,New rule: Press 'space' when you see 1-back (i.e. the same letter as the one that appeared 1 letter ago.),P,None,,,,,,,,,0,1,1,1,0,6,6,6,,,,,,,,,,,,,,,,,,,,,,,,,,,,,,,,,,,,,,,,,,,,,,,,,,,,,,,,,,,,,,,,,,,,,1.072,362.6570668,None,None,1,362.6570668,None,,P014,fencog,2,Post,2021_Oct_26_1150,N-Back (New Version 2021),2021.1.4,119.8062493
,,,,Conditions/Version_1/oneback(1)_v1.xlsx,New rule: Press 'space' when you see 1-back (i.e. the same letter as the one that appeared 1 letter ago.),o,None,,,,,,,,,0,1,1,1,0,7,7,7,,,,,,,,,,,,,,,,,,,,,,,,,,,,,,,,,,,,,,,,,,,,,,,,,,,,,,,,,,,,,,,,,,,,,1.506,366.1718662,None,None,1,366.1718662,None,,P014,fencog,2,Post,2021_Oct_26_1150,N-Back (New Version 2021),2021.1.4,119.8062493
,,,,Conditions/Version_1/oneback(1)_v1.xlsx,New rule: Press 'space' when you see 1-back (i.e. the same letter as the one that appeared 1 letter ago.),f,None,,,,,,,,,0,1,1,1,0,8,8,8,,,,,,,,,,,,,,,,,,,,,,,,,,,,,,,,,,,,,,,,,,,,,,,,,,,,,,,,,,,,,,,,,,,,,1.444,369.6215868,None,None,1,369.6215868,None,,P014,fencog,2,Post,2021_Oct_26_1150,N-Back (New Version 2021),2021.1.4,119.8062493
,,,,Conditions/Version_1/oneback(1)_v1.xlsx,New rule: Press 'space' when you see 1-back (i.e. the same letter as the one that appeared 1 letter ago.),F,space,,,,,,,,,0,1,1,1,0,9,9,9,,,,,,,,,,,,,,,,,,,,,,,,,,,,,,,,,,,,,,,,,,,,,,,,,,,,,,,,,,,,,,,,,,,,,1.6052,373.2381919,None,space,1,373.2381919,None,0.3538832,P014,fencog,2,Post,2021_Oct_26_1150,N-Back (New Version 2021),2021.1.4,119.8062493
,,,,Conditions/Version_1/oneback(1)_v1.xlsx,New rule: Press 'space' when you see 1-back (i.e. the same letter as the one that appeared 1 letter ago.),,,,,,,,,,,0,1,1,1,,,,,,,,,,,,,,,,,,,,,,,,,,,,,,,,,,,,,,,,,,,,,,,,,,,,,,,,,,,,,,,,,,,,,,,,,,,,,,,,,P014,fencog,2,Post,2021_Oct_26_1150,N-Back (New Version 2021),2021.1.4,119.8062493
,,,,Conditions/Version_1/twoback(1)_v1.xlsx,New rule: Press 'space' when you see 2-back (i.e. the same letter as the one that appeared 2 letters ago.),b,None,,,,,,,,,0,2,2,2,0,0,0,0,,,,,,,,,,,,,,,,,,,,,,,,,,,,,,,,,,,,,,,,,,,,,,,,,,,,,,,,,,,375.2639437,None,378.2453967,None,space,0.0349456,378.2453967,None,375.2639437,None,1.5928,379.9034556,None,None,1,379.9034556,None,,P014,fencog,2,Post,2021_Oct_26_1150,N-Back (New Version 2021),2021.1.4,119.8062493
,,,,Conditions/Version_1/twoback(1)_v1.xlsx,New rule: Press 'space' when you see 2-back (i.e. the same letter as the one that appeared 2 letters ago.),h,None,,,,,,,,,0,2,2,2,0,1,1,1,,,,,,,,,,,,,,,,,,,,,,,,,,,,,,,,,,,,,,,,,,,,,,,,,,,,,,,,,,,,,,,,,,,,,1.444,383.3692575,None,None,1,383.3692575,None,,P014,fencog,2,Post,2021_Oct_26_1150,N-Back (New Version 2021),2021.1.4,119.8062493
,,,,Conditions/Version_1/twoback(1)_v1.xlsx,New rule: Press 'space' when you see 2-back (i.e. the same letter as the one that appeared 2 letters ago.),j,None,,,,,,,,,0,2,2,2,0,2,2,2,,,,,,,,,,,,,,,,,,,,,,,,,,,,,,,,,,,,,,,,,,,,,,,,,,,,,,,,,,,,,,,,,,,,,1.4006,386.7777606,None,None,1,386.7777606,None,,P014,fencog,2,Post,2021_Oct_26_1150,N-Back (New Version 2021),2021.1.4,119.8062493
,,,,Conditions/Version_1/twoback(1)_v1.xlsx,New rule: Press 'space' when you see 2-back (i.e. the same letter as the one that appeared 2 letters ago.),H,space,,,,,,,,,0,2,2,2,0,3,3,3,,,,,,,,,,,,,,,,,,,,,,,,,,,,,,,,,,,,,,,,,,,,,,,,,,,,,,,,,,,,,,,,,,,,,1.0782,389.871004,None,space,1,389.871004,None,0.6409005,P014,fencog,2,Post,2021_Oct_26_1150,N-Back (New Version 2021),2021.1.4,119.8062493
,,,,Conditions/Version_1/twoback(1)_v1.xlsx,New rule: Press 'space' when you see 2-back (i.e. the same letter as the one that appeared 2 letters ago.),p,None,,,,,,,,,0,2,2,2,0,4,4,4,,,,,,,,,,,,,,,,,,,,,,,,,,,,,,,,,,,,,,,,,,,,,,,,,,,,,,,,,,,,,,,,,,,,,1.4564,393.3310095,None,None,1,393.3310095,None,,P014,fencog,2,Post,2021_Oct_26_1150,N-Back (New Version 2021),2021.1.4,119.8062493
,,,,Conditions/Version_1/twoback(1)_v1.xlsx,New rule: Press 'space' when you see 2-back (i.e. the same letter as the one that appeared 2 letters ago.),p,None,,,,,,,,,0,2,2,2,0,5,5,5,,,,,,,,,,,,,,,,,,,,,,,,,,,,,,,,,,,,,,,,,,,,,,,,,,,,,,,,,,,,,,,,,,,,,1.754,397.0958916,None,None,1,397.0958916,None,,P014,fencog,2,Post,2021_Oct_26_1150,N-Back (New Version 2021),2021.1.4,119.8062493
,,,,Conditions/Version_1/twoback(1)_v1.xlsx,New rule: Press 'space' when you see 2-back (i.e. the same letter as the one that appeared 2 letters ago.),w,None,,,,,,,,,0,2,2,2,0,6,6,6,,,,,,,,,,,,,,,,,,,,,,,,,,,,,,,,,,,,,,,,,,,,,,,,,,,,,,,,,,,,,,,,,,,,,1.041,400.1375249,None,None,1,400.1375249,None,,P014,fencog,2,Post,2021_Oct_26_1150,N-Back (New Version 2021),2021.1.4,119.8062493
,,,,Conditions/Version_1/twoback(1)_v1.xlsx,New rule: Press 'space' when you see 2-back (i.e. the same letter as the one that appeared 2 letters ago.),R,None,,,,,,,,,0,2,2,2,0,7,7,7,,,,,,,,,,,,,,,,,,,,,,,,,,,,,,,,,,,,,,,,,,,,,,,,,,,,,,,,,,,,,,,,,,,,,1.5804,403.7292768,None,None,1,403.7292768,None,,P014,fencog,2,Post,2021_Oct_26_1150,N-Back (New Version 2021),2021.1.4,119.8062493
,,,,Conditions/Version_1/twoback(1)_v1.xlsx,New rule: Press 'space' when you see 2-back (i.e. the same letter as the one that appeared 2 letters ago.),a,None,,,,,,,,,0,2,2,2,0,8,8,8,,,,,,,,,,,,,,,,,,,,,,,,,,,,,,,,,,,,,,,,,,,,,,,,,,,,,,,,,,,,,,,,,,,,,1.4502,407.1844367,None,None,1,407.1844367,None,,P014,fencog,2,Post,2021_Oct_26_1150,N-Back (New Version 2021),2021.1.4,119.8062493
,,,,Conditions/Version_1/twoback(1)_v1.xlsx,New rule: Press 'space' when you see 2-back (i.e. the same letter as the one that appeared 2 letters ago.),r,space,,,,,,,,,0,2,2,2,0,9,9,9,,,,,,,,,,,,,,,,,,,,,,,,,,,,,,,,,,,,,,,,,,,,,,,,,,,,,,,,,,,,,,,,,,,,,1.6424,410.8342418,None,space,1,410.8342418,None,0.4458503,P014,fencog,2,Post,2021_Oct_26_1150,N-Back (New Version 2021),2021.1.4,119.8062493
,,,,Conditions/Version_1/twoback(1)_v1.xlsx,New rule: Press 'space' when you see 2-back (i.e. the same letter as the one that appeared 2 letters ago.),,,,,,,,,,,0,2,2,2,,,,,,,,,,,,,,,,,,,,,,,,,,,,,,,,,,,,,,,,,,,,,,,,,,,,,,,,,,,,,,,,,,,,,,,,,,,,,,,,,P014,fencog,2,Post,2021_Oct_26_1150,N-Back (New Version 2021),2021.1.4,119.8062493
,,,,Conditions/Version_1/threeback(1)_v1.xlsx,New rule: Press 'space' when you see 3-back (i.e. the same letter as the one that appeared 3 letters ago.),r,None,,,,,,,,,0,3,3,3,0,0,0,0,,,,,,,,,,,,,,,,,,,,,,,,,,,,,,,,,,,,,,,,,,,,,,,,,,,,,,,,,,,412.8618504,None,415.8515245,None,space,1.0284813,415.8515245,None,412.8618504,None,1.6176,418.5226757,None,None,1,418.5226757,None,,P014,fencog,2,Post,2021_Oct_26_1150,N-Back (New Version 2021),2021.1.4,119.8062493
,,,,Conditions/Version_1/threeback(1)_v1.xlsx,New rule: Press 'space' when you see 3-back (i.e. the same letter as the one that appeared 3 letters ago.),o,None,,,,,,,,,0,3,3,3,0,1,1,1,,,,,,,,,,,,,,,,,,,,,,,,,,,,,,,,,,,,,,,,,,,,,,,,,,,,,,,,,,,,,,,,,,,,,1.3448,421.8804353,None,None,1,421.8804353,None,,P014,fencog,2,Post,2021_Oct_26_1150,N-Back (New Version 2021),2021.1.4,119.8062493
,,,,Conditions/Version_1/threeback(1)_v1.xlsx,New rule: Press 'space' when you see 3-back (i.e. the same letter as the one that appeared 3 letters ago.),P,None,,,,,,,,,0,3,3,3,0,2,2,2,,,,,,,,,,,,,,,,,,,,,,,,,,,,,,,,,,,,,,,,,,,,,,,,,,,,,,,,,,,,,,,,,,,,,1.2332,425.1206656,None,None,1,425.1206656,None,,P014,fencog,2,Post,2021_Oct_26_1150,N-Back (New Version 2021),2021.1.4,119.8062493
,,,,Conditions/Version_1/threeback(1)_v1.xlsx,New rule: Press 'space' when you see 3-back (i.e. the same letter as the one that appeared 3 letters ago.),R,space,,,,,,,,,0,3,3,3,0,3,3,3,,,,,,,,,,,,,,,,,,,,,,,,,,,,,,,,,,,,,,,,,,,,,,,,,,,,,,,,,,,,,,,,,,,,,1.4874,428.6117438,None,space,1,428.6117438,None,0.6771393,P014,fencog,2,Post,2021_Oct_26_1150,N-Back (New Version 2021),2021.1.4,119.8062493
,,,,Conditions/Version_1/threeback(1)_v1.xlsx,New rule: Press 'space' when you see 3-back (i.e. the same letter as the one that appeared 3 letters ago.),p,None,,,,,,,,,0,3,3,3,0,4,4,4,,,,,,,,,,,,,,,,,,,,,,,,,,,,,,,,,,,,,,,,,,,,,,,,,,,,,,,,,,,,,,,,,,,,,1.8966,432.5108007,None,space,0,432.5108007,None,0.6579513,P014,fencog,2,Post,2021_Oct_26_1150,N-Back (New Version 2021),2021.1.4,119.8062493
,,,,Conditions/Version_1/threeback(1)_v1.xlsx,New rule: Press 'space' when you see 3-back (i.e. the same letter as the one that appeared 3 letters ago.),E,None,,,,,,,,,0,3,3,3,0,5,5,5,,,,,,,,,,,,,,,,,,,,,,,,,,,,,,,,,,,,,,,,,,,,,,,,,,,,,,,,,,,,,,,,,,,,,1.537,436.0660079,None,None,1,436.0660079,None,,P014,fencog,2,Post,2021_Oct_26_1150,N-Back (New Version 2021),2021.1.4,119.8062493
,,,,Conditions/Version_1/threeback(1)_v1.xlsx,New rule: Press 'space' when you see 3-back (i.e. the same letter as the one that appeared 3 letters ago.),e,None,,,,,,,,,0,3,3,3,0,6,6,6,,,,,,,,,,,,,,,,,,,,,,,,,,,,,,,,,,,,,,,,,,,,,,,,,,,,,,,,,,,,,,,,,,,,,1.2022,439.2668862,None,None,1,439.2668862,None,,P014,fencog,2,Post,2021_Oct_26_1150,N-Back (New Version 2021),2021.1.4,119.8062493
,,,,Conditions/Version_1/threeback(1)_v1.xlsx,New rule: Press 'space' when you see 3-back (i.e. the same letter as the one that appeared 3 letters ago.),m,None,,,,,,,,,0,3,3,3,0,7,7,7,,,,,,,,,,,,,,,,,,,,,,,,,,,,,,,,,,,,,,,,,,,,,,,,,,,,,,,,,,,,,,,,,,,,,1.0224,442.2914479,None,None,1,442.2914479,None,,P014,fencog,2,Post,2021_Oct_26_1150,N-Back (New Version 2021),2021.1.4,119.8062493
,,,,Conditions/Version_1/threeback(1)_v1.xlsx,New rule: Press 'space' when you see 3-back (i.e. the same letter as the one that appeared 3 letters ago.),n,None,,,,,,,,,0,3,3,3,0,8,8,8,,,,,,,,,,,,,,,,,,,,,,,,,,,,,,,,,,,,,,,,,,,,,,,,,,,,,,,,,,,,,,,,,,,,,1.7726,446.0728899,None,None,1,446.0728899,None,,P014,fencog,2,Post,2021_Oct_26_1150,N-Back (New Version 2021),2021.1.4,119.8062493
,,,,Conditions/Version_1/threeback(1)_v1.xlsx,New rule: Press 'space' when you see 3-back (i.e. the same letter as the one that appeared 3 letters ago.),e,space,,,,,,,,,0,3,3,3,0,9,9,9,,,,,,,,,,,,,,,,,,,,,,,,,,,,,,,,,,,,,,,,,,,,,,,,,,,,,,,,,,,,,,,,,,,,,1.63,449.7121758,None,space,1,449.7121758,None,0.7197503,P014,fencog,2,Post,2021_Oct_26_1150,N-Back (New Version 2021),2021.1.4,119.8062493
,,,,Conditions/Version_1/threeback(1)_v1.xlsx,New rule: Press 'space' when you see 3-back (i.e. the same letter as the one that appeared 3 letters ago.),,,,,,,,,,,0,3,3,3,,,,,,,,,,,,,,,,,,,,,,,,,,,,,,,,,,,,,,,,,,,,,,,,,,,,,,,,,,,,,,,,,,,,,,,,,,,,,,,,,P014,fencog,2,Post,2021_Oct_26_1150,N-Back (New Version 2021),2021.1.4,119.8062493
,,,,Conditions/Version_1/oneback(2)_v1.xlsx,New rule: Press 'space' when you see 1-back (i.e. the same letter as the one that appeared 1 letter ago.),q,None,,,,,,,,,0,4,4,4,0,0,0,0,,,,,,,,,,,,,,,,,,,,,,,,,,,,,,,,,,,,,,,,,,,,,,,,,,,,,,,,,,,451.7329283,None,454.7221155,None,space,0.3736378,454.7221155,None,451.7329283,None,1.9524,457.076684,None,None,1,457.076684,None,,P014,fencog,2,Post,2021_Oct_26_1150,N-Back (New Version 2021),2021.1.4,119.8062493
,,,,Conditions/Version_1/oneback(2)_v1.xlsx,New rule: Press 'space' when you see 1-back (i.e. the same letter as the one that appeared 1 letter ago.),Q,space,,,,,,,,,0,4,4,4,0,1,1,1,,,,,,,,,,,,,,,,,,,,,,,,,,,,,,,,,,,,,,,,,,,,,,,,,,,,,,,,,,,,,,,,,,,,,1.4254,460.5019427,None,space,1,460.5019427,None,0.5300751,P014,fencog,2,Post,2021_Oct_26_1150,N-Back (New Version 2021),2021.1.4,119.8062493
,,,,Conditions/Version_1/oneback(2)_v1.xlsx,New rule: Press 'space' when you see 1-back (i.e. the same letter as the one that appeared 1 letter ago.),P,None,,,,,,,,,0,4,4,4,0,2,2,2,,,,,,,,,,,,,,,,,,,,,,,,,,,,,,,,,,,,,,,,,,,,,,,,,,,,,,,,,,,,,,,,,,,,,1.1092,463.6129187,None,None,1,463.6129187,None,,P014,fencog,2,Post,2021_Oct_26_1150,N-Back (New Version 2021),2021.1.4,119.8062493
,,,,Conditions/Version_1/oneback(2)_v1.xlsx,New rule: Press 'space' when you see 1-back (i.e. the same letter as the one that appeared 1 letter ago.),o,None,,,,,,,,,0,4,4,4,0,3,3,3,,,,,,,,,,,,,,,,,,,,,,,,,,,,,,,,,,,,,,,,,,,,,,,,,,,,,,,,,,,,,,,,,,,,,1.2394,466.8581903,None,None,1,466.8581903,None,,P014,fencog,2,Post,2021_Oct_26_1150,N-Back (New Version 2021),2021.1.4,119.8062493
,,,,Conditions/Version_1/oneback(2)_v1.xlsx,New rule: Press 'space' when you see 1-back (i.e. the same letter as the one that appeared 1 letter ago.),m,None,,,,,,,,,0,4,4,4,0,4,4,4,,,,,,,,,,,,,,,,,,,,,,,,,,,,,,,,,,,,,,,,,,,,,,,,,,,,,,,,,,,,,,,,,,,,,1.4502,470.3209952,None,None,1,470.3209952,None,,P014,fencog,2,Post,2021_Oct_26_1150,N-Back (New Version 2021),2021.1.4,119.8062493
,,,,Conditions/Version_1/oneback(2)_v1.xlsx,New rule: Press 'space' when you see 1-back (i.e. the same letter as the one that appeared 1 letter ago.),Z,None,,,,,,,,,0,4,4,4,0,5,5,5,,,,,,,,,,,,,,,,,,,,,,,,,,,,,,,,,,,,,,,,,,,,,,,,,,,,,,,,,,,,,,,,,,,,,1.3076,473.6343979,None,None,1,473.6343979,None,,P014,fencog,2,Post,2021_Oct_26_1150,N-Back (New Version 2021),2021.1.4,119.8062493
,,,,Conditions/Version_1/oneback(2)_v1.xlsx,New rule: Press 'space' when you see 1-back (i.e. the same letter as the one that appeared 1 letter ago.),c,None,,,,,,,,,0,4,4,4,0,6,6,6,,,,,,,,,,,,,,,,,,,,,,,,,,,,,,,,,,,,,,,,,,,,,,,,,,,,,,,,,,,,,,,,,,,,,1.754,477.3986763,None,None,1,477.3986763,None,,P014,fencog,2,Post,2021_Oct_26_1150,N-Back (New Version 2021),2021.1.4,119.8062493
,,,,Conditions/Version_1/oneback(2)_v1.xlsx,New rule: Press 'space' when you see 1-back (i.e. the same letter as the one that appeared 1 letter ago.),c,space,,,,,,,,,0,4,4,4,0,7,7,7,,,,,,,,,,,,,,,,,,,,,,,,,,,,,,,,,,,,,,,,,,,,,,,,,,,,,,,,,,,,,,,,,,,,,1.909,481.3126082,None,space,1,481.3126082,None,0.3350822,P014,fencog,2,Post,2021_Oct_26_1150,N-Back (New Version 2021),2021.1.4,119.8062493
,,,,Conditions/Version_1/oneback(2)_v1.xlsx,New rule: Press 'space' when you see 1-back (i.e. the same letter as the one that appeared 1 letter ago.),P,None,,,,,,,,,0,4,4,4,0,8,8,8,,,,,,,,,,,,,,,,,,,,,,,,,,,,,,,,,,,,,,,,,,,,,,,,,,,,,,,,,,,,,,,,,,,,,1.6486,484.9613573,None,None,1,484.9613573,None,,P014,fencog,2,Post,2021_Oct_26_1150,N-Back (New Version 2021),2021.1.4,119.8062493
,,,,Conditions/Version_1/oneback(2)_v1.xlsx,New rule: Press 'space' when you see 1-back (i.e. the same letter as the one that appeared 1 letter ago.),p,space,,,,,,,,,0,4,4,4,0,9,9,9,,,,,,,,,,,,,,,,,,,,,,,,,,,,,,,,,,,,,,,,,,,,,,,,,,,,,,,,,,,,,,,,,,,,,1.1588,488.1199852,None,space,1,488.1199852,None,0.4877258,P014,fencog,2,Post,2021_Oct_26_1150,N-Back (New Version 2021),2021.1.4,119.8062493
,,,,Conditions/Version_1/oneback(2)_v1.xlsx,New rule: Press 'space' when you see 1-back (i.e. the same letter as the one that appeared 1 letter ago.),,,,,,,,,,,0,4,4,4,,,,,,,,,,,,,,,,,,,,,,,,,,,,,,,,,,,,,,,,,,,,,,,,,,,,,,,,,,,,,,,,,,,,,,,,,,,,,,,,,P014,fencog,2,Post,2021_Oct_26_1150,N-Back (New Version 2021),2021.1.4,119.8062493
,,,,Conditions/Version_1/zeroback(2)_v1.xlsx,New rule: Press 'space' when you see the letter 'x' or 'X'.,p,None,,,,,,,,,0,5,5,5,0,0,0,0,,,,,,,,,,,,,,,,,,,,,,,,,,,,,,,,,,,,,,,,,,,,,,,,,,,,,,,,,,,490.1471354,None,493.136387,None,space,2.3914317,493.136387,None,490.1471354,None,1.8532,497.4162545,None,None,1,497.4162545,None,,P014,fencog,2,Post,2021_Oct_26_1150,N-Back (New Version 2021),2021.1.4,119.8062493
,,,,Conditions/Version_1/zeroback(2)_v1.xlsx,New rule: Press 'space' when you see the letter 'x' or 'X'.,L,None,,,,,,,,,0,5,5,5,0,1,1,1,,,,,,,,,,,,,,,,,,,,,,,,,,,,,,,,,,,,,,,,,,,,,,,,,,,,,,,,,,,,,,,,,,,,,1.4688,500.8920611,None,None,1,500.8920611,None,,P014,fencog,2,Post,2021_Oct_26_1150,N-Back (New Version 2021),2021.1.4,119.8062493
,,,,Conditions/Version_1/zeroback(2)_v1.xlsx,New rule: Press 'space' when you see the letter 'x' or 'X'.,G,None,,,,,,,,,0,5,5,5,0,2,2,2,,,,,,,,,,,,,,,,,,,,,,,,,,,,,,,,,,,,,,,,,,,,,,,,,,,,,,,,,,,,,,,,,,,,,1.8098,504.7164713,None,None,1,504.7164713,None,,P014,fencog,2,Post,2021_Oct_26_1150,N-Back (New Version 2021),2021.1.4,119.8062493
,,,,Conditions/Version_1/zeroback(2)_v1.xlsx,New rule: Press 'space' when you see the letter 'x' or 'X'.,y,None,,,,,,,,,0,5,5,5,0,3,3,3,,,,,,,,,,,,,,,,,,,,,,,,,,,,,,,,,,,,,,,,,,,,,,,,,,,,,,,,,,,,,,,,,,,,,1.9152,508.6386819,None,None,1,508.6386819,None,,P014,fencog,2,Post,2021_Oct_26_1150,N-Back (New Version 2021),2021.1.4,119.8062493
,,,,Conditions/Version_1/zeroback(2)_v1.xlsx,New rule: Press 'space' when you see the letter 'x' or 'X'.,Y,None,,,,,,,,,0,5,5,5,0,4,4,4,,,,,,,,,,,,,,,,,,,,,,,,,,,,,,,,,,,,,,,,,,,,,,,,,,,,,,,,,,,,,,,,,,,,,1.6672,512.321008,None,None,1,512.321008,None,,P014,fencog,2,Post,2021_Oct_26_1150,N-Back (New Version 2021),2021.1.4,119.8062493
,,,,Conditions/Version_1/zeroback(2)_v1.xlsx,New rule: Press 'space' when you see the letter 'x' or 'X'.,W,None,,,,,,,,,0,5,5,5,0,5,5,5,,,,,,,,,,,,,,,,,,,,,,,,,,,,,,,,,,,,,,,,,,,,,,,,,,,,,,,,,,,,,,,,,,,,,1.9338,516.2709944,None,None,1,516.2709944,None,,P014,fencog,2,Post,2021_Oct_26_1150,N-Back (New Version 2021),2021.1.4,119.8062493
,,,,Conditions/Version_1/zeroback(2)_v1.xlsx,New rule: Press 'space' when you see the letter 'x' or 'X'.,x,space,,,,,,,,,0,5,5,5,0,6,6,6,,,,,,,,,,,,,,,,,,,,,,,,,,,,,,,,,,,,,,,,,,,,,,,,,,,,,,,,,,,,,,,,,,,,,1.444,519.7285331,None,space,1,519.7285331,None,0.9189244,P014,fencog,2,Post,2021_Oct_26_1150,N-Back (New Version 2021),2021.1.4,119.8062493
,,,,Conditions/Version_1/zeroback(2)_v1.xlsx,New rule: Press 'space' when you see the letter 'x' or 'X'.,X,space,,,,,,,,,0,5,5,5,0,7,7,7,,,,,,,,,,,,,,,,,,,,,,,,,,,,,,,,,,,,,,,,,,,,,,,,,,,,,,,,,,,,,,,,,,,,,1.1464,522.8752699,None,space,1,522.8752699,None,0.4762456,P014,fencog,2,Post,2021_Oct_26_1150,N-Back (New Version 2021),2021.1.4,119.8062493
,,,,Conditions/Version_1/zeroback(2)_v1.xlsx,New rule: Press 'space' when you see the letter 'x' or 'X'.,p,None,,,,,,,,,0,5,5,5,0,8,8,8,,,,,,,,,,,,,,,,,,,,,,,,,,,,,,,,,,,,,,,,,,,,,,,,,,,,,,,,,,,,,,,,,,,,,1.2394,526.115708,None,None,1,526.115708,None,,P014,fencog,2,Post,2021_Oct_26_1150,N-Back (New Version 2021),2021.1.4,119.8062493
,,,,Conditions/Version_1/zeroback(2)_v1.xlsx,New rule: Press 'space' when you see the letter 'x' or 'X'.,h,None,,,,,,,,,0,5,5,5,0,9,9,9,,,,,,,,,,,,,,,,,,,,,,,,,,,,,,,,,,,,,,,,,,,,,,,,,,,,,,,,,,,,,,,,,,,,,1.3448,529.4670491,None,None,1,529.4670491,None,,P014,fencog,2,Post,2021_Oct_26_1150,N-Back (New Version 2021),2021.1.4,119.8062493
,,,,Conditions/Version_1/zeroback(2)_v1.xlsx,New rule: Press 'space' when you see the letter 'x' or 'X'.,,,,,,,,,,,0,5,5,5,,,,,,,,,,,,,,,,,,,,,,,,,,,,,,,,,,,,,,,,,,,,,,,,,,,,,,,,,,,,,,,,,,,,,,,,,,,,,,,,,P014,fencog,2,Post,2021_Oct_26_1150,N-Back (New Version 2021),2021.1.4,119.8062493
,,,,Conditions/Version_1/threeback(2)_v1.xlsx,New rule: Press 'space' when you see 3-back (i.e. the same letter as the one that appeared 3 letters ago.),q,None,,,,,,,,,0,6,6,6,0,0,0,0,,,,,,,,,,,,,,,,,,,,,,,,,,,,,,,,,,,,,,,,,,,,,,,,,,,,,,,,,,,531.4954627,None,534.482591,None,space,0.4211073,534.482591,None,531.4954627,None,1.971,536.9127313,None,None,1,536.9127313,None,,P014,fencog,2,Post,2021_Oct_26_1150,N-Back (New Version 2021),2021.1.4,119.8062493
,,,,Conditions/Version_1/threeback(2)_v1.xlsx,New rule: Press 'space' when you see 3-back (i.e. the same letter as the one that appeared 3 letters ago.),Y,None,,,,,,,,,0,6,6,6,0,1,1,1,,,,,,,,,,,,,,,,,,,,,,,,,,,,,,,,,,,,,,,,,,,,,,,,,,,,,,,,,,,,,,,,,,,,,1.3386,540.2699579,None,None,1,540.2699579,None,,P014,fencog,2,Post,2021_Oct_26_1150,N-Back (New Version 2021),2021.1.4,119.8062493
,,,,Conditions/Version_1/threeback(2)_v1.xlsx,New rule: Press 'space' when you see 3-back (i.e. the same letter as the one that appeared 3 letters ago.),p,None,,,,,,,,,0,6,6,6,0,2,2,2,,,,,,,,,,,,,,,,,,,,,,,,,,,,,,,,,,,,,,,,,,,,,,,,,,,,,,,,,,,,,,,,,,,,,1.3138,543.586559,None,None,1,543.586559,None,,P014,fencog,2,Post,2021_Oct_26_1150,N-Back (New Version 2021),2021.1.4,119.8062493
,,,,Conditions/Version_1/threeback(2)_v1.xlsx,New rule: Press 'space' when you see 3-back (i.e. the same letter as the one that appeared 3 letters ago.),p,None,,,,,,,,,0,6,6,6,0,3,3,3,,,,,,,,,,,,,,,,,,,,,,,,,,,,,,,,,,,,,,,,,,,,,,,,,,,,,,,,,,,,,,,,,,,,,1.6362,547.2346416,None,None,1,547.2346416,None,,P014,fencog,2,Post,2021_Oct_26_1150,N-Back (New Version 2021),2021.1.4,119.8062493
,,,,Conditions/Version_1/threeback(2)_v1.xlsx,New rule: Press 'space' when you see 3-back (i.e. the same letter as the one that appeared 3 letters ago.),y,space,,,,,,,,,0,6,6,6,0,4,4,4,,,,,,,,,,,,,,,,,,,,,,,,,,,,,,,,,,,,,,,,,,,,,,,,,,,,,,,,,,,,,,,,,,,,,1.0162,550.2529275,None,space,1,550.2529275,None,1.3953451,P014,fencog,2,Post,2021_Oct_26_1150,N-Back (New Version 2021),2021.1.4,119.8062493
,,,,Conditions/Version_1/threeback(2)_v1.xlsx,New rule: Press 'space' when you see 3-back (i.e. the same letter as the one that appeared 3 letters ago.),u,None,,,,,,,,,0,6,6,6,0,5,5,5,,,,,,,,,,,,,,,,,,,,,,,,,,,,,,,,,,,,,,,,,,,,,,,,,,,,,,,,,,,,,,,,,,,,,1.661,553.9253943,None,None,1,553.9253943,None,,P014,fencog,2,Post,2021_Oct_26_1150,N-Back (New Version 2021),2021.1.4,119.8062493
,,,,Conditions/Version_1/threeback(2)_v1.xlsx,New rule: Press 'space' when you see 3-back (i.e. the same letter as the one that appeared 3 letters ago.),P,space,,,,,,,,,0,6,6,6,0,6,6,6,,,,,,,,,,,,,,,,,,,,,,,,,,,,,,,,,,,,,,,,,,,,,,,,,,,,,,,,,,,,,,,,,,,,,1.4316,557.3648134,None,space,1,557.3648134,None,0.6191364,P014,fencog,2,Post,2021_Oct_26_1150,N-Back (New Version 2021),2021.1.4,119.8062493
,,,,Conditions/Version_1/threeback(2)_v1.xlsx,New rule: Press 'space' when you see 3-back (i.e. the same letter as the one that appeared 3 letters ago.),a,None,,,,,,,,,0,6,6,6,0,7,7,7,,,,,,,,,,,,,,,,,,,,,,,,,,,,,,,,,,,,,,,,,,,,,,,,,,,,,,,,,,,,,,,,,,,,,1.6176,560.9895734,None,None,1,560.9895734,None,,P014,fencog,2,Post,2021_Oct_26_1150,N-Back (New Version 2021),2021.1.4,119.8062493
,,,,Conditions/Version_1/threeback(2)_v1.xlsx,New rule: Press 'space' when you see 3-back (i.e. the same letter as the one that appeared 3 letters ago.),U,space,,,,,,,,,0,6,6,6,0,8,8,8,,,,,,,,,,,,,,,,,,,,,,,,,,,,,,,,,,,,,,,,,,,,,,,,,,,,,,,,,,,,,,,,,,,,,1.0596,564.0547446,None,space,1,564.0547446,None,1.6250192,P014,fencog,2,Post,2021_Oct_26_1150,N-Back (New Version 2021),2021.1.4,119.8062493
,,,,Conditions/Version_1/threeback(2)_v1.xlsx,New rule: Press 'space' when you see 3-back (i.e. the same letter as the one that appeared 3 letters ago.),q,None,,,,,,,,,0,6,6,6,0,9,9,9,,,,,,,,,,,,,,,,,,,,,,,,,,,,,,,,,,,,,,,,,,,,,,,,,,,,,,,,,,,,,,,,,,,,,1.9586,568.0232873,None,None,1,568.0232873,None,,P014,fencog,2,Post,2021_Oct_26_1150,N-Back (New Version 2021),2021.1.4,119.8062493
,,,,Conditions/Version_1/threeback(2)_v1.xlsx,New rule: Press 'space' when you see 3-back (i.e. the same letter as the one that appeared 3 letters ago.),,,,,,,,,,,0,6,6,6,,,,,,,,,,,,,,,,,,,,,,,,,,,,,,,,,,,,,,,,,,,,,,,,,,,,,,,,,,,,,,,,,,,,,,,,,,,,,,,,,P014,fencog,2,Post,2021_Oct_26_1150,N-Back (New Version 2021),2021.1.4,119.8062493
,,,,Conditions/Version_1/twoback(2)_v1.xlsx,New rule: Press 'space' when you see 2-back (i.e. the same letter as the one that appeared 2 letters ago.),q,None,,,,,,,,,0,7,7,7,0,0,0,0,,,,,,,,,,,,,,,,,,,,,,,,,,,,,,,,,,,,,,,,,,,,,,,,,,,,,,,,,,,570.0456905,None,573.0293998,None,space,0.8978913,573.0293998,None,570.0456905,None,1.041,574.9928629,None,None,1,574.9928629,None,,P014,fencog,2,Post,2021_Oct_26_1150,N-Back (New Version 2021),2021.1.4,119.8062493
,,,,Conditions/Version_1/twoback(2)_v1.xlsx,New rule: Press 'space' when you see 2-back (i.e. the same letter as the one that appeared 2 letters ago.),r,None,,,,,,,,,0,7,7,7,0,1,1,1,,,,,,,,,,,,,,,,,,,,,,,,,,,,,,,,,,,,,,,,,,,,,,,,,,,,,,,,,,,,,,,,,,,,,1.2642,578.2589789,None,None,1,578.2589789,None,,P014,fencog,2,Post,2021_Oct_26_1150,N-Back (New Version 2021),2021.1.4,119.8062493
,,,,Conditions/Version_1/twoback(2)_v1.xlsx,New rule: Press 'space' when you see 2-back (i.e. the same letter as the one that appeared 2 letters ago.),q,space,,,,,,,,,0,7,7,7,0,2,2,2,,,,,,,,,,,,,,,,,,,,,,,,,,,,,,,,,,,,,,,,,,,,,,,,,,,,,,,,,,,,,,,,,,,,,1.1526,581.4310506,None,space,1,581.4310506,None,1.0568813,P014,fencog,2,Post,2021_Oct_26_1150,N-Back (New Version 2021),2021.1.4,119.8062493
,,,,Conditions/Version_1/twoback(2)_v1.xlsx,New rule: Press 'space' when you see 2-back (i.e. the same letter as the one that appeared 2 letters ago.),P,None,,,,,,,,,0,7,7,7,0,3,3,3,,,,,,,,,,,,,,,,,,,,,,,,,,,,,,,,,,,,,,,,,,,,,,,,,,,,,,,,,,,,,,,,,,,,,1.4502,584.8915531,None,None,1,584.8915531,None,,P014,fencog,2,Post,2021_Oct_26_1150,N-Back (New Version 2021),2021.1.4,119.8062493
,,,,Conditions/Version_1/twoback(2)_v1.xlsx,New rule: Press 'space' when you see 2-back (i.e. the same letter as the one that appeared 2 letters ago.),p,None,,,,,,,,,0,7,7,7,0,4,4,4,,,,,,,,,,,,,,,,,,,,,,,,,,,,,,,,,,,,,,,,,,,,,,,,,,,,,,,,,,,,,,,,,,,,,1.1092,588.0089811,None,None,1,588.0089811,None,,P014,fencog,2,Post,2021_Oct_26_1150,N-Back (New Version 2021),2021.1.4,119.8062493
,,,,Conditions/Version_1/twoback(2)_v1.xlsx,New rule: Press 'space' when you see 2-back (i.e. the same letter as the one that appeared 2 letters ago.),H,None,,,,,,,,,0,7,7,7,0,5,5,5,,,,,,,,,,,,,,,,,,,,,,,,,,,,,,,,,,,,,,,,,,,,,,,,,,,,,,,,,,,,,,,,,,,,,1.5742,591.5882291,None,None,1,591.5882291,None,,P014,fencog,2,Post,2021_Oct_26_1150,N-Back (New Version 2021),2021.1.4,119.8062493
,,,,Conditions/Version_1/twoback(2)_v1.xlsx,New rule: Press 'space' when you see 2-back (i.e. the same letter as the one that appeared 2 letters ago.),g,None,,,,,,,,,0,7,7,7,0,6,6,6,,,,,,,,,,,,,,,,,,,,,,,,,,,,,,,,,,,,,,,,,,,,,,,,,,,,,,,,,,,,,,,,,,,,,1.9834,595.5714904,None,None,1,595.5714904,None,,P014,fencog,2,Post,2021_Oct_26_1150,N-Back (New Version 2021),2021.1.4,119.8062493
,,,,Conditions/Version_1/twoback(2)_v1.xlsx,New rule: Press 'space' when you see 2-back (i.e. the same letter as the one that appeared 2 letters ago.),j,None,,,,,,,,,0,7,7,7,0,7,7,7,,,,,,,,,,,,,,,,,,,,,,,,,,,,,,,,,,,,,,,,,,,,,,,,,,,,,,,,,,,,,,,,,,,,,1.8532,599.4359133,None,None,1,599.4359133,None,,P014,fencog,2,Post,2021_Oct_26_1150,N-Back (New Version 2021),2021.1.4,119.8062493
,,,,Conditions/Version_1/twoback(2)_v1.xlsx,New rule: Press 'space' when you see 2-back (i.e. the same letter as the one that appeared 2 letters ago.),g,space,,,,,,,,,0,7,7,7,0,8,8,8,,,,,,,,,,,,,,,,,,,,,,,,,,,,,,,,,,,,,,,,,,,,,,,,,,,,,,,,,,,,,,,,,,,,,1.2766,602.7181877,None,space,1,602.7181877,None,0.47347,P014,fencog,2,Post,2021_Oct_26_1150,N-Back (New Version 2021),2021.1.4,119.8062493
,,,,Conditions/Version_1/twoback(2)_v1.xlsx,New rule: Press 'space' when you see 2-back (i.e. the same letter as the one that appeared 2 letters ago.),G,None,,,,,,,,,0,7,7,7,0,9,9,9,,,,,,,,,,,,,,,,,,,,,,,,,,,,,,,,,,,,,,,,,,,,,,,,,,,,,,,,,,,,,,,,,,,,,1.2828,606.0108066,None,None,1,606.0108066,None,,P014,fencog,2,Post,2021_Oct_26_1150,N-Back (New Version 2021),2021.1.4,119.8062493
,,,,Conditions/Version_1/twoback(2)_v1.xlsx,New rule: Press 'space' when you see 2-back (i.e. the same letter as the one that appeared 2 letters ago.),,,,,,,,,,,0,7,7,7,,,,,,,,,,,,,,,,,,,,,,,,,,,,,,,,,,,,,,,,,,,,,,,,,,,,,,,,,,,,,,,,,,,,,,,,,,,,,,,,,P014,fencog,2,Post,2021_Oct_26_1150,N-Back (New Version 2021),2021.1.4,119.8062493
,,,,Conditions/Version_1/threeback(3)_v1.xlsx,New rule: Press 'space' when you see 3-back (i.e. the same letter as the one that appeared 3 letters ago.),w,None,,,,,,,,,0,8,8,8,0,0,0,0,,,,,,,,,,,,,,,,,,,,,,,,,,,,,,,,,,,,,,,,,,,,,,,,,,,,,,,,,,,608.0373544,None,611.0261057,None,space,2.2292262,611.0261057,None,608.0373544,None,1.7354,615.0240269,None,None,1,615.0240269,None,,P014,fencog,2,Post,2021_Oct_26_1150,N-Back (New Version 2021),2021.1.4,119.8062493
,,,,Conditions/Version_1/threeback(3)_v1.xlsx,New rule: Press 'space' when you see 3-back (i.e. the same letter as the one that appeared 3 letters ago.),p,None,,,,,,,,,0,8,8,8,0,1,1,1,,,,,,,,,,,,,,,,,,,,,,,,,,,,,,,,,,,,,,,,,,,,,,,,,,,,,,,,,,,,,,,,,,,,,1.723,618.755181,None,None,1,618.755181,None,,P014,fencog,2,Post,2021_Oct_26_1150,N-Back (New Version 2021),2021.1.4,119.8062493
,,,,Conditions/Version_1/threeback(3)_v1.xlsx,New rule: Press 'space' when you see 3-back (i.e. the same letter as the one that appeared 3 letters ago.),P,None,,,,,,,,,0,8,8,8,0,2,2,2,,,,,,,,,,,,,,,,,,,,,,,,,,,,,,,,,,,,,,,,,,,,,,,,,,,,,,,,,,,,,,,,,,,,,1.413,622.1709421,None,None,1,622.1709421,None,,P014,fencog,2,Post,2021_Oct_26_1150,N-Back (New Version 2021),2021.1.4,119.8062493
,,,,Conditions/Version_1/threeback(3)_v1.xlsx,New rule: Press 'space' when you see 3-back (i.e. the same letter as the one that appeared 3 letters ago.),i,None,,,,,,,,,0,8,8,8,0,3,3,3,,,,,,,,,,,,,,,,,,,,,,,,,,,,,,,,,,,,,,,,,,,,,,,,,,,,,,,,,,,,,,,,,,,,,1.5742,625.7445316,None,None,1,625.7445316,None,,P014,fencog,2,Post,2021_Oct_26_1150,N-Back (New Version 2021),2021.1.4,119.8062493
,,,,Conditions/Version_1/threeback(3)_v1.xlsx,New rule: Press 'space' when you see 3-back (i.e. the same letter as the one that appeared 3 letters ago.),f,None,,,,,,,,,0,8,8,8,0,4,4,4,,,,,,,,,,,,,,,,,,,,,,,,,,,,,,,,,,,,,,,,,,,,,,,,,,,,,,,,,,,,,,,,,,,,,1.4316,629.1781241,None,None,1,629.1781241,None,,P014,fencog,2,Post,2021_Oct_26_1150,N-Back (New Version 2021),2021.1.4,119.8062493
,,,,Conditions/Version_1/threeback(3)_v1.xlsx,New rule: Press 'space' when you see 3-back (i.e. the same letter as the one that appeared 3 letters ago.),o,None,,,,,,,,,0,8,8,8,0,5,5,5,,,,,,,,,,,,,,,,,,,,,,,,,,,,,,,,,,,,,,,,,,,,,,,,,,,,,,,,,,,,,,,,,,,,,1.9214,633.1092625,None,None,1,633.1092625,None,,P014,fencog,2,Post,2021_Oct_26_1150,N-Back (New Version 2021),2021.1.4,119.8062493
,,,,Conditions/Version_1/threeback(3)_v1.xlsx,New rule: Press 'space' when you see 3-back (i.e. the same letter as the one that appeared 3 letters ago.),w,None,,,,,,,,,0,8,8,8,0,6,6,6,,,,,,,,,,,,,,,,,,,,,,,,,,,,,,,,,,,,,,,,,,,,,,,,,,,,,,,,,,,,,,,,,,,,,1.041,636.1497847,None,None,1,636.1497847,None,,P014,fencog,2,Post,2021_Oct_26_1150,N-Back (New Version 2021),2021.1.4,119.8062493
,,,,Conditions/Version_1/threeback(3)_v1.xlsx,New rule: Press 'space' when you see 3-back (i.e. the same letter as the one that appeared 3 letters ago.),F,space,,,,,,,,,0,8,8,8,0,7,7,7,,,,,,,,,,,,,,,,,,,,,,,,,,,,,,,,,,,,,,,,,,,,,,,,,,,,,,,,,,,,,,,,,,,,,1.2704,639.4258077,None,space,1,639.4258077,None,0.9415537,P014,fencog,2,Post,2021_Oct_26_1150,N-Back (New Version 2021),2021.1.4,119.8062493
,,,,Conditions/Version_1/threeback(3)_v1.xlsx,New rule: Press 'space' when you see 3-back (i.e. the same letter as the one that appeared 3 letters ago.),p,None,,,,,,,,,0,8,8,8,0,8,8,8,,,,,,,,,,,,,,,,,,,,,,,,,,,,,,,,,,,,,,,,,,,,,,,,,,,,,,,,,,,,,,,,,,,,,1.1154,642.547986,None,None,1,642.547986,None,,P014,fencog,2,Post,2021_Oct_26_1150,N-Back (New Version 2021),2021.1.4,119.8062493
,,,,Conditions/Version_1/threeback(3)_v1.xlsx,New rule: Press 'space' when you see 3-back (i.e. the same letter as the one that appeared 3 letters ago.),W,space,,,,,,,,,0,8,8,8,0,9,9,9,,,,,,,,,,,,,,,,,,,,,,,,,,,,,,,,,,,,,,,,,,,,,,,,,,,,,,,,,,,,,,,,,,,,,1.3262,645.880372,None,space,1,645.880372,None,0.5749407,P014,fencog,2,Post,2021_Oct_26_1150,N-Back (New Version 2021),2021.1.4,119.8062493
,,,,Conditions/Version_1/threeback(3)_v1.xlsx,New rule: Press 'space' when you see 3-back (i.e. the same letter as the one that appeared 3 letters ago.),,,,,,,,,,,0,8,8,8,,,,,,,,,,,,,,,,,,,,,,,,,,,,,,,,,,,,,,,,,,,,,,,,,,,,,,,,,,,,,,,,,,,,,,,,,,,,,,,,,P014,fencog,2,Post,2021_Oct_26_1150,N-Back (New Version 2021),2021.1.4,119.8062493
,,,,Conditions/Version_1/zeroback(3)_v1.xlsx,New rule: Press 'space' when you see the letter 'x' or 'X'.,X,space,,,,,,,,,0,9,9,9,0,0,0,0,,,,,,,,,,,,,,,,,,,,,,,,,,,,,,,,,,,,,,,,,,,,,,,,,,,,,,,,,,,647.900704,None,650.8898326,None,space,1.7815993,650.8898326,None,647.900704,None,1.1588,653.8619902,None,space,1,653.8619902,None,1.4412929,P014,fencog,2,Post,2021_Oct_26_1150,N-Back (New Version 2021),2021.1.4,119.8062493
,,,,Conditions/Version_1/zeroback(3)_v1.xlsx,New rule: Press 'space' when you see the letter 'x' or 'X'.,B,None,,,,,,,,,0,9,9,9,0,1,1,1,,,,,,,,,,,,,,,,,,,,,,,,,,,,,,,,,,,,,,,,,,,,,,,,,,,,,,,,,,,,,,,,,,,,,1.4378,657.3117149,None,None,1,657.3117149,None,,P014,fencog,2,Post,2021_Oct_26_1150,N-Back (New Version 2021),2021.1.4,119.8062493
,,,,Conditions/Version_1/zeroback(3)_v1.xlsx,New rule: Press 'space' when you see the letter 'x' or 'X'.,m,None,,,,,,,,,0,9,9,9,0,2,2,2,,,,,,,,,,,,,,,,,,,,,,,,,,,,,,,,,,,,,,,,,,,,,,,,,,,,,,,,,,,,,,,,,,,,,1.7602,661.0887529,None,None,1,661.0887529,None,,P014,fencog,2,Post,2021_Oct_26_1150,N-Back (New Version 2021),2021.1.4,119.8062493
,,,,Conditions/Version_1/zeroback(3)_v1.xlsx,New rule: Press 'space' when you see the letter 'x' or 'X'.,m,None,,,,,,,,,0,9,9,9,0,3,3,3,,,,,,,,,,,,,,,,,,,,,,,,,,,,,,,,,,,,,,,,,,,,,,,,,,,,,,,,,,,,,,,,,,,,,1.6548,664.7415528,None,None,1,664.7415528,None,,P014,fencog,2,Post,2021_Oct_26_1150,N-Back (New Version 2021),2021.1.4,119.8062493
,,,,Conditions/Version_1/zeroback(3)_v1.xlsx,New rule: Press 'space' when you see the letter 'x' or 'X'.,o,None,,,,,,,,,0,9,9,9,0,4,4,4,,,,,,,,,,,,,,,,,,,,,,,,,,,,,,,,,,,,,,,,,,,,,,,,,,,,,,,,,,,,,,,,,,,,,1.3882,668.131969,None,None,1,668.131969,None,,P014,fencog,2,Post,2021_Oct_26_1150,N-Back (New Version 2021),2021.1.4,119.8062493
,,,,Conditions/Version_1/zeroback(3)_v1.xlsx,New rule: Press 'space' when you see the letter 'x' or 'X'.,p,None,,,,,,,,,0,9,9,9,0,5,5,5,,,,,,,,,,,,,,,,,,,,,,,,,,,,,,,,,,,,,,,,,,,,,,,,,,,,,,,,,,,,,,,,,,,,,1.9772,672.1140279,None,None,1,672.1140279,None,,P014,fencog,2,Post,2021_Oct_26_1150,N-Back (New Version 2021),2021.1.4,119.8062493
,,,,Conditions/Version_1/zeroback(3)_v1.xlsx,New rule: Press 'space' when you see the letter 'x' or 'X'.,G,None,,,,,,,,,0,9,9,9,0,6,6,6,,,,,,,,,,,,,,,,,,,,,,,,,,,,,,,,,,,,,,,,,,,,,,,,,,,,,,,,,,,,,,,,,,,,,1.8904,676.004833,None,None,1,676.004833,None,,P014,fencog,2,Post,2021_Oct_26_1150,N-Back (New Version 2021),2021.1.4,119.8062493
,,,,Conditions/Version_1/zeroback(3)_v1.xlsx,New rule: Press 'space' when you see the letter 'x' or 'X'.,X,space,,,,,,,,,0,9,9,9,0,7,7,7,,,,,,,,,,,,,,,,,,,,,,,,,,,,,,,,,,,,,,,,,,,,,,,,,,,,,,,,,,,,,,,,,,,,,1.2766,679.2901644,None,space,1,679.2901644,None,0.4694092,P014,fencog,2,Post,2021_Oct_26_1150,N-Back (New Version 2021),2021.1.4,119.8062493
,,,,Conditions/Version_1/zeroback(3)_v1.xlsx,New rule: Press 'space' when you see the letter 'x' or 'X'.,p,None,,,,,,,,,0,9,9,9,0,8,8,8,,,,,,,,,,,,,,,,,,,,,,,,,,,,,,,,,,,,,,,,,,,,,,,,,,,,,,,,,,,,,,,,,,,,,1.5804,682.8804129,None,None,1,682.8804129,None,,P014,fencog,2,Post,2021_Oct_26_1150,N-Back (New Version 2021),2021.1.4,119.8062493
,,,,Conditions/Version_1/zeroback(3)_v1.xlsx,New rule: Press 'space' when you see the letter 'x' or 'X'.,x,space,,,,,,,,,0,9,9,9,0,9,9,9,,,,,,,,,,,,,,,,,,,,,,,,,,,,,,,,,,,,,,,,,,,,,,,,,,,,,,,,,,,,,,,,,,,,,1.5866,686.4767095,None,space,1,686.4767095,None,0.4425238,P014,fencog,2,Post,2021_Oct_26_1150,N-Back (New Version 2021),2021.1.4,119.8062493
,,,,Conditions/Version_1/zeroback(3)_v1.xlsx,New rule: Press 'space' when you see the letter 'x' or 'X'.,,,,,,,,,,,0,9,9,9,,,,,,,,,,,,,,,,,,,,,,,,,,,,,,,,,,,,,,,,,,,,,,,,,,,,,,,,,,,,,,,,,,,,,,,,,,,,,,,,,P014,fencog,2,Post,2021_Oct_26_1150,N-Back (New Version 2021),2021.1.4,119.8062493
,,,,Conditions/Version_1/twoback(3)_v1.xlsx,New rule: Press 'space' when you see 2-back (i.e. the same letter as the one that appeared 2 letters ago.),e,None,,,,,,,,,0,10,10,10,0,0,0,0,,,,,,,,,,,,,,,,,,,,,,,,,,,,,,,,,,,,,,,,,,,,,,,,,,,,,,,,,,,688.4976716,None,691.4860741,None,space,0.6410629,691.4860741,None,688.4976716,None,1.444,693.5998923,None,None,1,693.5998923,None,,P014,fencog,2,Post,2021_Oct_26_1150,N-Back (New Version 2021),2021.1.4,119.8062493
,,,,Conditions/Version_1/twoback(3)_v1.xlsx,New rule: Press 'space' when you see 2-back (i.e. the same letter as the one that appeared 2 letters ago.),o,None,,,,,,,,,0,10,10,10,0,1,1,1,,,,,,,,,,,,,,,,,,,,,,,,,,,,,,,,,,,,,,,,,,,,,,,,,,,,,,,,,,,,,,,,,,,,,1.1898,696.7985644,None,None,1,696.7985644,None,,P014,fencog,2,Post,2021_Oct_26_1150,N-Back (New Version 2021),2021.1.4,119.8062493
,,,,Conditions/Version_1/twoback(3)_v1.xlsx,New rule: Press 'space' when you see 2-back (i.e. the same letter as the one that appeared 2 letters ago.),P,None,,,,,,,,,0,10,10,10,0,2,2,2,,,,,,,,,,,,,,,,,,,,,,,,,,,,,,,,,,,,,,,,,,,,,,,,,,,,,,,,,,,,,,,,,,,,,1.3572,700.1581187,None,None,1,700.1581187,None,,P014,fencog,2,Post,2021_Oct_26_1150,N-Back (New Version 2021),2021.1.4,119.8062493
,,,,Conditions/Version_1/twoback(3)_v1.xlsx,New rule: Press 'space' when you see 2-back (i.e. the same letter as the one that appeared 2 letters ago.),z,None,,,,,,,,,0,10,10,10,0,3,3,3,,,,,,,,,,,,,,,,,,,,,,,,,,,,,,,,,,,,,,,,,,,,,,,,,,,,,,,,,,,,,,,,,,,,,1.072,703.2400609,None,None,1,703.2400609,None,,P014,fencog,2,Post,2021_Oct_26_1150,N-Back (New Version 2021),2021.1.4,119.8062493
,,,,Conditions/Version_1/twoback(3)_v1.xlsx,New rule: Press 'space' when you see 2-back (i.e. the same letter as the one that appeared 2 letters ago.),X,None,,,,,,,,,0,10,10,10,0,4,4,4,,,,,,,,,,,,,,,,,,,,,,,,,,,,,,,,,,,,,,,,,,,,,,,,,,,,,,,,,,,,,,,,,,,,,1.816,707.06496,None,None,1,707.06496,None,,P014,fencog,2,Post,2021_Oct_26_1150,N-Back (New Version 2021),2021.1.4,119.8062493
,,,,Conditions/Version_1/twoback(3)_v1.xlsx,New rule: Press 'space' when you see 2-back (i.e. the same letter as the one that appeared 2 letters ago.),z,space,,,,,,,,,0,10,10,10,0,5,5,5,,,,,,,,,,,,,,,,,,,,,,,,,,,,,,,,,,,,,,,,,,,,,,,,,,,,,,,,,,,,,,,,,,,,,1.7974,710.8693773,None,space,1,710.8693773,None,0.4254928,P014,fencog,2,Post,2021_Oct_26_1150,N-Back (New Version 2021),2021.1.4,119.8062493
,,,,Conditions/Version_1/twoback(3)_v1.xlsx,New rule: Press 'space' when you see 2-back (i.e. the same letter as the one that appeared 2 letters ago.),x,space,,,,,,,,,0,10,10,10,0,6,6,6,,,,,,,,,,,,,,,,,,,,,,,,,,,,,,,,,,,,,,,,,,,,,,,,,,,,,,,,,,,,,,,,,,,,,1.475,714.3439093,None,space,1,714.3439093,None,0.5034993,P014,fencog,2,Post,2021_Oct_26_1150,N-Back (New Version 2021),2021.1.4,119.8062493
,,,,Conditions/Version_1/twoback(3)_v1.xlsx,New rule: Press 'space' when you see 2-back (i.e. the same letter as the one that appeared 2 letters ago.),c,None,,,,,,,,,0,10,10,10,0,7,7,7,,,,,,,,,,,,,,,,,,,,,,,,,,,,,,,,,,,,,,,,,,,,,,,,,,,,,,,,,,,,,,,,,,,,,1.1092,717.4675205,None,None,1,717.4675205,None,,P014,fencog,2,Post,2021_Oct_26_1150,N-Back (New Version 2021),2021.1.4,119.8062493
,,,,Conditions/Version_1/twoback(3)_v1.xlsx,New rule: Press 'space' when you see 2-back (i.e. the same letter as the one that appeared 2 letters ago.),i,None,,,,,,,,,0,10,10,10,0,8,8,8,,,,,,,,,,,,,,,,,,,,,,,,,,,,,,,,,,,,,,,,,,,,,,,,,,,,,,,,,,,,,,,,,,,,,1.1712,720.641499,None,None,1,720.641499,None,,P014,fencog,2,Post,2021_Oct_26_1150,N-Back (New Version 2021),2021.1.4,119.8062493
,,,,Conditions/Version_1/twoback(3)_v1.xlsx,New rule: Press 'space' when you see 2-back (i.e. the same letter as the one that appeared 2 letters ago.),C,space,,,,,,,,,0,10,10,10,0,9,9,9,,,,,,,,,,,,,,,,,,,,,,,,,,,,,,,,,,,,,,,,,,,,,,,,,,,,,,,,,,,,,,,,,,,,,1.8098,724.4617833,None,space,1,724.4617833,None,0.5133464,P014,fencog,2,Post,2021_Oct_26_1150,N-Back (New Version 2021),2021.1.4,119.8062493
,,,,Conditions/Version_1/twoback(3)_v1.xlsx,New rule: Press 'space' when you see 2-back (i.e. the same letter as the one that appeared 2 letters ago.),,,,,,,,,,,0,10,10,10,,,,,,,,,,,,,,,,,,,,,,,,,,,,,,,,,,,,,,,,,,,,,,,,,,,,,,,,,,,,,,,,,,,,,,,,,,,,,,,,,P014,fencog,2,Post,2021_Oct_26_1150,N-Back (New Version 2021),2021.1.4,119.8062493
,,,,Conditions/Version_1/oneback(3)_v1.xlsx,New rule: Press 'space' when you see 1-back (i.e. the same letter as the one that appeared 1 letter ago.),o,None,,,,,,,,,0,11,11,11,0,0,0,0,,,,,,,,,,,,,,,,,,,,,,,,,,,,,,,,,,,,,,,,,,,,,,,,,,,,,,,,,,,726.4865462,None,729.4738931,None,space,1.333482,729.4738931,None,726.4865462,None,1.3634,732.2060158,None,None,1,732.2060158,None,,P014,fencog,2,Post,2021_Oct_26_1150,N-Back (New Version 2021),2021.1.4,119.8062493
,,,,Conditions/Version_1/oneback(3)_v1.xlsx,New rule: Press 'space' when you see 1-back (i.e. the same letter as the one that appeared 1 letter ago.),O,space,,,,,,,,,0,11,11,11,0,1,1,1,,,,,,,,,,,,,,,,,,,,,,,,,,,,,,,,,,,,,,,,,,,,,,,,,,,,,,,,,,,,,,,,,,,,,1.0348,735.2542227,None,space,1,735.2542227,None,0.5212912,P014,fencog,2,Post,2021_Oct_26_1150,N-Back (New Version 2021),2021.1.4,119.8062493
,,,,Conditions/Version_1/oneback(3)_v1.xlsx,New rule: Press 'space' when you see 1-back (i.e. the same letter as the one that appeared 1 letter ago.),h,None,,,,,,,,,0,11,11,11,0,2,2,2,,,,,,,,,,,,,,,,,,,,,,,,,,,,,,,,,,,,,,,,,,,,,,,,,,,,,,,,,,,,,,,,,,,,,1.134,738.4062873,None,None,1,738.4062873,None,,P014,fencog,2,Post,2021_Oct_26_1150,N-Back (New Version 2021),2021.1.4,119.8062493
,,,,Conditions/Version_1/oneback(3)_v1.xlsx,New rule: Press 'space' when you see 1-back (i.e. the same letter as the one that appeared 1 letter ago.),g,None,,,,,,,,,0,11,11,11,0,3,3,3,,,,,,,,,,,,,,,,,,,,,,,,,,,,,,,,,,,,,,,,,,,,,,,,,,,,,,,,,,,,,,,,,,,,,1.072,741.4883145,None,None,1,741.4883145,None,,P014,fencog,2,Post,2021_Oct_26_1150,N-Back (New Version 2021),2021.1.4,119.8062493
,,,,Conditions/Version_1/oneback(3)_v1.xlsx,New rule: Press 'space' when you see 1-back (i.e. the same letter as the one that appeared 1 letter ago.),n,None,,,,,,,,,0,11,11,11,0,4,4,4,,,,,,,,,,,,,,,,,,,,,,,,,,,,,,,,,,,,,,,,,,,,,,,,,,,,,,,,,,,,,,,,,,,,,1.4192,744.917664,None,None,1,744.917664,None,,P014,fencog,2,Post,2021_Oct_26_1150,N-Back (New Version 2021),2021.1.4,119.8062493
,,,,Conditions/Version_1/oneback(3)_v1.xlsx,New rule: Press 'space' when you see 1-back (i.e. the same letter as the one that appeared 1 letter ago.),z,None,,,,,,,,,0,11,11,11,0,5,5,5,,,,,,,,,,,,,,,,,,,,,,,,,,,,,,,,,,,,,,,,,,,,,,,,,,,,,,,,,,,,,,,,,,,,,1.9338,748.8604853,None,None,1,748.8604853,None,,P014,fencog,2,Post,2021_Oct_26_1150,N-Back (New Version 2021),2021.1.4,119.8062493
,,,,Conditions/Version_1/oneback(3)_v1.xlsx,New rule: Press 'space' when you see 1-back (i.e. the same letter as the one that appeared 1 letter ago.),X,None,,,,,,,,,0,11,11,11,0,6,6,6,,,,,,,,,,,,,,,,,,,,,,,,,,,,,,,,,,,,,,,,,,,,,,,,,,,,,,,,,,,,,,,,,,,,,1.2394,752.1073491,None,None,1,752.1073491,None,,P014,fencog,2,Post,2021_Oct_26_1150,N-Back (New Version 2021),2021.1.4,119.8062493
,,,,Conditions/Version_1/oneback(3)_v1.xlsx,New rule: Press 'space' when you see 1-back (i.e. the same letter as the one that appeared 1 letter ago.),r,None,,,,,,,,,0,11,11,11,0,7,7,7,,,,,,,,,,,,,,,,,,,,,,,,,,,,,,,,,,,,,,,,,,,,,,,,,,,,,,,,,,,,,,,,,,,,,1.4254,755.5313474,None,None,1,755.5313474,None,,P014,fencog,2,Post,2021_Oct_26_1150,N-Back (New Version 2021),2021.1.4,119.8062493
,,,,Conditions/Version_1/oneback(3)_v1.xlsx,New rule: Press 'space' when you see 1-back (i.e. the same letter as the one that appeared 1 letter ago.),r,space,,,,,,,,,0,11,11,11,0,8,8,8,,,,,,,,,,,,,,,,,,,,,,,,,,,,,,,,,,,,,,,,,,,,,,,,,,,,,,,,,,,,,,,,,,,,,1.2146,758.7470115,None,space,1,758.7470115,None,0.659971,P014,fencog,2,Post,2021_Oct_26_1150,N-Back (New Version 2021),2021.1.4,119.8062493
,,,,Conditions/Version_1/oneback(3)_v1.xlsx,New rule: Press 'space' when you see 1-back (i.e. the same letter as the one that appeared 1 letter ago.),P,None,,,,,,,,,0,11,11,11,0,9,9,9,,,,,,,,,,,,,,,,,,,,,,,,,,,,,,,,,,,,,,,,,,,,,,,,,,,,,,,,,,,,,,,,,,,,,1.5742,762.3289618,None,None,1,762.3289618,None,,P014,fencog,2,Post,2021_Oct_26_1150,N-Back (New Version 2021),2021.1.4,119.8062493
,,,,Conditions/Version_1/oneback(3)_v1.xlsx,New rule: Press 'space' when you see 1-back (i.e. the same letter as the one that appeared 1 letter ago.),,,,,,,,,,,0,11,11,11,,,,,,,,,,,,,,,,,,,,,,,,,,,,,,,,,,,,,,,,,,,,,,,,,,,,,,,,,,,,,,,,,,,,,,,,,,,,,,,,,P014,fencog,2,Post,2021_Oct_26_1150,N-Back (New Version 2021),2021.1.4,119.8062493
,,,,Conditions/Version_1/twoback(4)_v1.xlsx,New rule: Press 'space' when you see 2-back (i.e. the same letter as the one that appeared 2 letters ago.),r,None,,,,,,,,,0,12,12,12,0,0,0,0,,,,,,,,,,,,,,,,,,,,,,,,,,,,,,,,,,,,,,,,,,,,,,,,,,,,,,,,,,,764.3558767,None,767.3384615,None,space,1.8128877,767.3384615,None,764.3558767,None,1.754,770.9765103,None,None,1,770.9765103,None,,P014,fencog,2,Post,2021_Oct_26_1150,N-Back (New Version 2021),2021.1.4,119.8062493
,,,,Conditions/Version_1/twoback(4)_v1.xlsx,New rule: Press 'space' when you see 2-back (i.e. the same letter as the one that appeared 2 letters ago.),T,None,,,,,,,,,0,12,12,12,0,1,1,1,,,,,,,,,,,,,,,,,,,,,,,,,,,,,,,,,,,,,,,,,,,,,,,,,,,,,,,,,,,,,,,,,,,,,1.6672,774.6571261,None,None,1,774.6571261,None,,P014,fencog,2,Post,2021_Oct_26_1150,N-Back (New Version 2021),2021.1.4,119.8062493
,,,,Conditions/Version_1/twoback(4)_v1.xlsx,New rule: Press 'space' when you see 2-back (i.e. the same letter as the one that appeared 2 letters ago.),o,None,,,,,,,,,0,12,12,12,0,2,2,2,,,,,,,,,,,,,,,,,,,,,,,,,,,,,,,,,,,,,,,,,,,,,,,,,,,,,,,,,,,,,,,,,,,,,1.6362,778.3021156,None,None,1,778.3021156,None,,P014,fencog,2,Post,2021_Oct_26_1150,N-Back (New Version 2021),2021.1.4,119.8062493
,,,,Conditions/Version_1/twoback(4)_v1.xlsx,New rule: Press 'space' when you see 2-back (i.e. the same letter as the one that appeared 2 letters ago.),p,None,,,,,,,,,0,12,12,12,0,3,3,3,,,,,,,,,,,,,,,,,,,,,,,,,,,,,,,,,,,,,,,,,,,,,,,,,,,,,,,,,,,,,,,,,,,,,1.8346,782.1554653,None,None,1,782.1554653,None,,P014,fencog,2,Post,2021_Oct_26_1150,N-Back (New Version 2021),2021.1.4,119.8062493
,,,,Conditions/Version_1/twoback(4)_v1.xlsx,New rule: Press 'space' when you see 2-back (i.e. the same letter as the one that appeared 2 letters ago.),p,None,,,,,,,,,0,12,12,12,0,4,4,4,,,,,,,,,,,,,,,,,,,,,,,,,,,,,,,,,,,,,,,,,,,,,,,,,,,,,,,,,,,,,,,,,,,,,1.1712,785.3307945,None,None,1,785.3307945,None,,P014,fencog,2,Post,2021_Oct_26_1150,N-Back (New Version 2021),2021.1.4,119.8062493
,,,,Conditions/Version_1/twoback(4)_v1.xlsx,New rule: Press 'space' when you see 2-back (i.e. the same letter as the one that appeared 2 letters ago.),y,None,,,,,,,,,0,12,12,12,0,5,5,5,,,,,,,,,,,,,,,,,,,,,,,,,,,,,,,,,,,,,,,,,,,,,,,,,,,,,,,,,,,,,,,,,,,,,1.382,788.7154135,None,None,1,788.7154135,None,,P014,fencog,2,Post,2021_Oct_26_1150,N-Back (New Version 2021),2021.1.4,119.8062493
,,,,Conditions/Version_1/twoback(4)_v1.xlsx,New rule: Press 'space' when you see 2-back (i.e. the same letter as the one that appeared 2 letters ago.),P,space,,,,,,,,,0,12,12,12,0,6,6,6,,,,,,,,,,,,,,,,,,,,,,,,,,,,,,,,,,,,,,,,,,,,,,,,,,,,,,,,,,,,,,,,,,,,,1.5866,792.3142383,None,space,1,792.3142383,None,0.3978662,P014,fencog,2,Post,2021_Oct_26_1150,N-Back (New Version 2021),2021.1.4,119.8062493
,,,,Conditions/Version_1/twoback(4)_v1.xlsx,New rule: Press 'space' when you see 2-back (i.e. the same letter as the one that appeared 2 letters ago.),y,None,,,,,,,,,0,12,12,12,0,7,7,7,,,,,,,,,,,,,,,,,,,,,,,,,,,,,,,,,,,,,,,,,,,,,,,,,,,,,,,,,,,,,,,,,,,,,1.1526,795.4737632,None,space,0,795.4737632,None,0.9736527,P014,fencog,2,Post,2021_Oct_26_1150,N-Back (New Version 2021),2021.1.4,119.8062493
,,,,Conditions/Version_1/twoback(4)_v1.xlsx,New rule: Press 'space' when you see 2-back (i.e. the same letter as the one that appeared 2 letters ago.),y,space,,,,,,,,,0,12,12,12,0,8,8,8,,,,,,,,,,,,,,,,,,,,,,,,,,,,,,,,,,,,,,,,,,,,,,,,,,,,,,,,,,,,,,,,,,,,,1.8966,799.3763774,None,None,0,799.3763774,None,,P014,fencog,2,Post,2021_Oct_26_1150,N-Back (New Version 2021),2021.1.4,119.8062493
,,,,Conditions/Version_1/twoback(4)_v1.xlsx,New rule: Press 'space' when you see 2-back (i.e. the same letter as the one that appeared 2 letters ago.),,,,,,,,,,,0,12,12,12,,,,,,,,,,,,,,,,,,,,,,,,,,,,,,,,,,,,,,,,,,,,,,,,,,,,,,,,,,,,,,,,,,,,,,,,,,,,,,,,,P014,fencog,2,Post,2021_Oct_26_1150,N-Back (New Version 2021),2021.1.4,119.8062493
,,,,Conditions/Version_1/zeroback(4)_v1.xlsx,New rule: Press 'space' when you see the letter 'x' or 'X'.,o,None,,,,,,,,,0,13,13,13,0,0,0,0,,,,,,,,,,,,,,,,,,,,,,,,,,,,,,,,,,,,,,,,,,,,,,,,,,,,,,,,,,,801.3953305,None,804.3853488,None,space,1.0230186,804.3853488,None,801.3953305,None,1.6176,807.0583589,None,None,1,807.0583589,None,,P014,fencog,2,Post,2021_Oct_26_1150,N-Back (New Version 2021),2021.1.4,119.8062493
,,,,Conditions/Version_1/zeroback(4)_v1.xlsx,New rule: Press 'space' when you see the letter 'x' or 'X'.,X,space,,,,,,,,,0,13,13,13,0,1,1,1,,,,,,,,,,,,,,,,,,,,,,,,,,,,,,,,,,,,,,,,,,,,,,,,,,,,,,,,,,,,,,,,,,,,,1.3386,810.4064396,None,space,1,810.4064396,None,0.4021023,P014,fencog,2,Post,2021_Oct_26_1150,N-Back (New Version 2021),2021.1.4,119.8062493
,,,,Conditions/Version_1/zeroback(4)_v1.xlsx,New rule: Press 'space' when you see the letter 'x' or 'X'.,p,None,,,,,,,,,0,13,13,13,0,2,2,2,,,,,,,,,,,,,,,,,,,,,,,,,,,,,,,,,,,,,,,,,,,,,,,,,,,,,,,,,,,,,,,,,,,,,1.1154,813.5235354,None,None,1,813.5235354,None,,P014,fencog,2,Post,2021_Oct_26_1150,N-Back (New Version 2021),2021.1.4,119.8062493
,,,,Conditions/Version_1/zeroback(4)_v1.xlsx,New rule: Press 'space' when you see the letter 'x' or 'X'.,m,None,,,,,,,,,0,13,13,13,0,3,3,3,,,,,,,,,,,,,,,,,,,,,,,,,,,,,,,,,,,,,,,,,,,,,,,,,,,,,,,,,,,,,,,,,,,,,1.5494,817.0794822,None,None,1,817.0794822,None,,P014,fencog,2,Post,2021_Oct_26_1150,N-Back (New Version 2021),2021.1.4,119.8062493
,,,,Conditions/Version_1/zeroback(4)_v1.xlsx,New rule: Press 'space' when you see the letter 'x' or 'X'.,n,None,,,,,,,,,0,13,13,13,0,4,4,4,,,,,,,,,,,,,,,,,,,,,,,,,,,,,,,,,,,,,,,,,,,,,,,,,,,,,,,,,,,,,,,,,,,,,1.8532,820.9379355,None,None,1,820.9379355,None,,P014,fencog,2,Post,2021_Oct_26_1150,N-Back (New Version 2021),2021.1.4,119.8062493
,,,,Conditions/Version_1/zeroback(4)_v1.xlsx,New rule: Press 'space' when you see the letter 'x' or 'X'.,m,None,,,,,,,,,0,13,13,13,0,5,5,5,,,,,,,,,,,,,,,,,,,,,,,,,,,,,,,,,,,,,,,,,,,,,,,,,,,,,,,,,,,,,,,,,,,,,1.0534,824.0024807,None,None,1,824.0024807,None,,P014,fencog,2,Post,2021_Oct_26_1150,N-Back (New Version 2021),2021.1.4,119.8062493
,,,,Conditions/Version_1/zeroback(4)_v1.xlsx,New rule: Press 'space' when you see the letter 'x' or 'X'.,C,None,,,,,,,,,0,13,13,13,0,6,6,6,,,,,,,,,,,,,,,,,,,,,,,,,,,,,,,,,,,,,,,,,,,,,,,,,,,,,,,,,,,,,,,,,,,,,1.2084,827.2102498,None,None,1,827.2102498,None,,P014,fencog,2,Post,2021_Oct_26_1150,N-Back (New Version 2021),2021.1.4,119.8062493
,,,,Conditions/Version_1/zeroback(4)_v1.xlsx,New rule: Press 'space' when you see the letter 'x' or 'X'.,m,None,,,,,,,,,0,13,13,13,0,7,7,7,,,,,,,,,,,,,,,,,,,,,,,,,,,,,,,,,,,,,,,,,,,,,,,,,,,,,,,,,,,,,,,,,,,,,1.7168,830.9337164,None,None,1,830.9337164,None,,P014,fencog,2,Post,2021_Oct_26_1150,N-Back (New Version 2021),2021.1.4,119.8062493
,,,,Conditions/Version_1/zeroback(4)_v1.xlsx,New rule: Press 'space' when you see the letter 'x' or 'X'.,p,None,,,,,,,,,0,13,13,13,0,8,8,8,,,,,,,,,,,,,,,,,,,,,,,,,,,,,,,,,,,,,,,,,,,,,,,,,,,,,,,,,,,,,,,,,,,,,1.3758,834.3162955,None,None,1,834.3162955,None,,P014,fencog,2,Post,2021_Oct_26_1150,N-Back (New Version 2021),2021.1.4,119.8062493
,,,,Conditions/Version_1/zeroback(4)_v1.xlsx,New rule: Press 'space' when you see the letter 'x' or 'X'.,X,space,,,,,,,,,0,13,13,13,0,9,9,9,,,,,,,,,,,,,,,,,,,,,,,,,,,,,,,,,,,,,,,,,,,,,,,,,,,,,,,,,,,,,,,,,,,,,1.7478,838.0659838,None,space,1,838.0659838,None,0.3419219,P014,fencog,2,Post,2021_Oct_26_1150,N-Back (New Version 2021),2021.1.4,119.8062493
,,,,Conditions/Version_1/zeroback(4)_v1.xlsx,New rule: Press 'space' when you see the letter 'x' or 'X'.,,,,,,,,,,,0,13,13,13,,,,,,,,,,,,,,,,,,,,,,,,,,,,,,,,,,,,,,,,,,,,,,,,,,,,,,,,,,,,,,,,,,,,,,,,,,,,,,,,,P014,fencog,2,Post,2021_Oct_26_1150,N-Back (New Version 2021),2021.1.4,119.8062493
,,,,Conditions/Version_1/oneback(4)_v1.xlsx,New rule: Press 'space' when you see 1-back (i.e. the same letter as the one that appeared 1 letter ago.),w,None,,,,,,,,,0,14,14,14,0,0,0,0,,,,,,,,,,,,,,,,,,,,,,,,,,,,,,,,,,,,,,,,,,,,,,,,,,,,,,,,,,,840.1005582,None,843.0964577,None,space,1.0545893,843.0964577,None,840.1005582,None,1.8842,846.0684249,None,None,1,846.0684249,None,,P014,fencog,2,Post,2021_Oct_26_1150,N-Back (New Version 2021),2021.1.4,119.8062493
,,,,Conditions/Version_1/oneback(4)_v1.xlsx,New rule: Press 'space' when you see 1-back (i.e. the same letter as the one that appeared 1 letter ago.),q,None,,,,,,,,,0,14,14,14,0,1,1,1,,,,,,,,,,,,,,,,,,,,,,,,,,,,,,,,,,,,,,,,,,,,,,,,,,,,,,,,,,,,,,,,,,,,,1.6858,849.7623434,None,None,1,849.7623434,None,,P014,fencog,2,Post,2021_Oct_26_1150,N-Back (New Version 2021),2021.1.4,119.8062493
,,,,Conditions/Version_1/oneback(4)_v1.xlsx,New rule: Press 'space' when you see 1-back (i.e. the same letter as the one that appeared 1 letter ago.),i,None,,,,,,,,,0,14,14,14,0,2,2,2,,,,,,,,,,,,,,,,,,,,,,,,,,,,,,,,,,,,,,,,,,,,,,,,,,,,,,,,,,,,,,,,,,,,,1.0162,852.7853942,None,None,1,852.7853942,None,,P014,fencog,2,Post,2021_Oct_26_1150,N-Back (New Version 2021),2021.1.4,119.8062493
,,,,Conditions/Version_1/oneback(4)_v1.xlsx,New rule: Press 'space' when you see 1-back (i.e. the same letter as the one that appeared 1 letter ago.),t,None,,,,,,,,,0,14,14,14,0,3,3,3,,,,,,,,,,,,,,,,,,,,,,,,,,,,,,,,,,,,,,,,,,,,,,,,,,,,,,,,,,,,,,,,,,,,,1.9586,856.7508893,None,None,1,856.7508893,None,,P014,fencog,2,Post,2021_Oct_26_1150,N-Back (New Version 2021),2021.1.4,119.8062493
,,,,Conditions/Version_1/oneback(4)_v1.xlsx,New rule: Press 'space' when you see 1-back (i.e. the same letter as the one that appeared 1 letter ago.),v,None,,,,,,,,,0,14,14,14,0,4,4,4,,,,,,,,,,,,,,,,,,,,,,,,,,,,,,,,,,,,,,,,,,,,,,,,,,,,,,,,,,,,,,,,,,,,,1.8594,860.6198879,None,None,1,860.6198879,None,,P014,fencog,2,Post,2021_Oct_26_1150,N-Back (New Version 2021),2021.1.4,119.8062493
,,,,Conditions/Version_1/oneback(4)_v1.xlsx,New rule: Press 'space' when you see 1-back (i.e. the same letter as the one that appeared 1 letter ago.),V,space,,,,,,,,,0,14,14,14,0,5,5,5,,,,,,,,,,,,,,,,,,,,,,,,,,,,,,,,,,,,,,,,,,,,,,,,,,,,,,,,,,,,,,,,,,,,,1.3014,863.9408841,None,None,0,863.9408841,None,,P014,fencog,2,Post,2021_Oct_26_1150,N-Back (New Version 2021),2021.1.4,119.8062493
,,,,Conditions/Version_1/oneback(4)_v1.xlsx,New rule: Press 'space' when you see 1-back (i.e. the same letter as the one that appeared 1 letter ago.),v,space,,,,,,,,,0,14,14,14,0,6,6,6,,,,,,,,,,,,,,,,,,,,,,,,,,,,,,,,,,,,,,,,,,,,,,,,,,,,,,,,,,,,,,,,,,,,,1.0348,866.981449,None,space,1,866.981449,None,0.8341778,P014,fencog,2,Post,2021_Oct_26_1150,N-Back (New Version 2021),2021.1.4,119.8062493
,,,,Conditions/Version_1/oneback(4)_v1.xlsx,New rule: Press 'space' when you see 1-back (i.e. the same letter as the one that appeared 1 letter ago.),p,None,,,,,,,,,0,14,14,14,0,7,7,7,,,,,,,,,,,,,,,,,,,,,,,,,,,,,,,,,,,,,,,,,,,,,,,,,,,,,,,,,,,,,,,,,,,,,1.2704,870.2575554,None,None,1,870.2575554,None,,P014,fencog,2,Post,2021_Oct_26_1150,N-Back (New Version 2021),2021.1.4,119.8062493
,,,,Conditions/Version_1/oneback(4)_v1.xlsx,New rule: Press 'space' when you see 1-back (i.e. the same letter as the one that appeared 1 letter ago.),w,None,,,,,,,,,0,14,14,14,0,8,8,8,,,,,,,,,,,,,,,,,,,,,,,,,,,,,,,,,,,,,,,,,,,,,,,,,,,,,,,,,,,,,,,,,,,,,1.6982,873.9627663,None,None,1,873.9627663,None,,P014,fencog,2,Post,2021_Oct_26_1150,N-Back (New Version 2021),2021.1.4,119.8062493
,,,,Conditions/Version_1/oneback(4)_v1.xlsx,New rule: Press 'space' when you see 1-back (i.e. the same letter as the one that appeared 1 letter ago.),W,space,,,,,,,,,0,14,14,14,0,9,9,9,,,,,,,,,,,,,,,,,,,,,,,,,,,,,,,,,,,,,,,,,,,,,,,,,,,,,,,,,,,,,,,,,,,,,1.6734,877.6429183,None,None,0,877.6429183,None,,P014,fencog,2,Post,2021_Oct_26_1150,N-Back (New Version 2021),2021.1.4,119.8062493
,,,,Conditions/Version_1/oneback(4)_v1.xlsx,New rule: Press 'space' when you see 1-back (i.e. the same letter as the one that appeared 1 letter ago.),,,,,,,,,,,0,14,14,14,,,,,,,,,,,,,,,,,,,,,,,,,,,,,,,,,,,,,,,,,,,,,,,,,,,,,,,,,,,,,,,,,,,,,,,,,,,,,,,,,P014,fencog,2,Post,2021_Oct_26_1150,N-Back (New Version 2021),2021.1.4,119.8062493
,,,,Conditions/Version_1/threeback(4)_v1.xlsx,New rule: Press 'space' when you see 3-back (i.e. the same letter as the one that appeared 3 letters ago.),A,None,,,,,,,,,0,15,15,15,0,0,0,0,,,,,,,,,,,,,,,,,,,,,,,,,,,,,,,,,,,,,,,,,,,,,,,,,,,,,,,,,,,879.664735,None,882.6542472,None,space,1.0486938,882.6542472,None,879.664735,None,1.2828,885.0192552,None,None,1,885.0192552,None,,P014,fencog,2,Post,2021_Oct_26_1150,N-Back (New Version 2021),2021.1.4,119.8062493
,,,,Conditions/Version_1/threeback(4)_v1.xlsx,New rule: Press 'space' when you see 3-back (i.e. the same letter as the one that appeared 3 letters ago.),n,None,,,,,,,,,0,15,15,15,0,1,1,1,,,,,,,,,,,,,,,,,,,,,,,,,,,,,,,,,,,,,,,,,,,,,,,,,,,,,,,,,,,,,,,,,,,,,1.9152,888.9415426,None,None,1,888.9415426,None,,P014,fencog,2,Post,2021_Oct_26_1150,N-Back (New Version 2021),2021.1.4,119.8062493
,,,,Conditions/Version_1/threeback(4)_v1.xlsx,New rule: Press 'space' when you see 3-back (i.e. the same letter as the one that appeared 3 letters ago.),g,None,,,,,,,,,0,15,15,15,0,2,2,2,,,,,,,,,,,,,,,,,,,,,,,,,,,,,,,,,,,,,,,,,,,,,,,,,,,,,,,,,,,,,,,,,,,,,1.6548,892.5988447,None,None,1,892.5988447,None,,P014,fencog,2,Post,2021_Oct_26_1150,N-Back (New Version 2021),2021.1.4,119.8062493
,,,,Conditions/Version_1/threeback(4)_v1.xlsx,New rule: Press 'space' when you see 3-back (i.e. the same letter as the one that appeared 3 letters ago.),A,space,,,,,,,,,0,15,15,15,0,3,3,3,,,,,,,,,,,,,,,,,,,,,,,,,,,,,,,,,,,,,,,,,,,,,,,,,,,,,,,,,,,,,,,,,,,,,1.0658,895.6732297,None,space,1,895.6732297,None,1.19797,P014,fencog,2,Post,2021_Oct_26_1150,N-Back (New Version 2021),2021.1.4,119.8062493
,,,,Conditions/Version_1/threeback(4)_v1.xlsx,New rule: Press 'space' when you see 3-back (i.e. the same letter as the one that appeared 3 letters ago.),p,None,,,,,,,,,0,15,15,15,0,4,4,4,,,,,,,,,,,,,,,,,,,,,,,,,,,,,,,,,,,,,,,,,,,,,,,,,,,,,,,,,,,,,,,,,,,,,1.1278,898.8080231,None,None,1,898.8080231,None,,P014,fencog,2,Post,2021_Oct_26_1150,N-Back (New Version 2021),2021.1.4,119.8062493
,,,,Conditions/Version_1/threeback(4)_v1.xlsx,New rule: Press 'space' when you see 3-back (i.e. the same letter as the one that appeared 3 letters ago.),O,None,,,,,,,,,0,15,15,15,0,5,5,5,,,,,,,,,,,,,,,,,,,,,,,,,,,,,,,,,,,,,,,,,,,,,,,,,,,,,,,,,,,,,,,,,,,,,1.2394,902.0542694,None,None,1,902.0542694,None,,P014,fencog,2,Post,2021_Oct_26_1150,N-Back (New Version 2021),2021.1.4,119.8062493
,,,,Conditions/Version_1/threeback(4)_v1.xlsx,New rule: Press 'space' when you see 3-back (i.e. the same letter as the one that appeared 3 letters ago.),a,space,,,,,,,,,0,15,15,15,0,6,6,6,,,,,,,,,,,,,,,,,,,,,,,,,,,,,,,,,,,,,,,,,,,,,,,,,,,,,,,,,,,,,,,,,,,,,1.3758,905.4387504,None,space,1,905.4387504,None,0.7121728,P014,fencog,2,Post,2021_Oct_26_1150,N-Back (New Version 2021),2021.1.4,119.8062493
,,,,Conditions/Version_1/threeback(4)_v1.xlsx,New rule: Press 'space' when you see 3-back (i.e. the same letter as the one that appeared 3 letters ago.),p,space,,,,,,,,,0,15,15,15,0,7,7,7,,,,,,,,,,,,,,,,,,,,,,,,,,,,,,,,,,,,,,,,,,,,,,,,,,,,,,,,,,,,,,,,,,,,,1.9524,909.4020575,None,space,1,909.4020575,None,0.9651328,P014,fencog,2,Post,2021_Oct_26_1150,N-Back (New Version 2021),2021.1.4,119.8062493
,,,,Conditions/Version_1/threeback(4)_v1.xlsx,New rule: Press 'space' when you see 3-back (i.e. the same letter as the one that appeared 3 letters ago.),x,None,,,,,,,,,0,15,15,15,0,8,8,8,,,,,,,,,,,,,,,,,,,,,,,,,,,,,,,,,,,,,,,,,,,,,,,,,,,,,,,,,,,,,,,,,,,,,1.2766,912.6842827,None,None,1,912.6842827,None,,P014,fencog,2,Post,2021_Oct_26_1150,N-Back (New Version 2021),2021.1.4,119.8062493
,,,,Conditions/Version_1/threeback(4)_v1.xlsx,New rule: Press 'space' when you see 3-back (i.e. the same letter as the one that appeared 3 letters ago.),X,None,,,,,,,,,0,15,15,15,0,9,9,9,,,,,,,,,,,,,,,,,,,,,,,,,,,,,,,,,,,,,,,,,,,,,,,,,,,,,,,,,,,,,,,,,,,,,1.8966,916.5856541,None,space,0,916.5856541,None,0.4934639,P014,fencog,2,Post,2021_Oct_26_1150,N-Back (New Version 2021),2021.1.4,119.8062493
,,,,Conditions/Version_1/threeback(4)_v1.xlsx,New rule: Press 'space' when you see 3-back (i.e. the same letter as the one that appeared 3 letters ago.),,,,,,,,,,,0,15,15,15,,,,,,,,,,,,,,,,,,,,,,,,,,,,,,,,,,,,,,,,,,,,,,,,,,,,,,,,,,,,,,,,,,,,,,,,,,,,,,,,,P014,fencog,2,Post,2021_Oct_26_1150,N-Back (New Version 2021),2021.1.4,119.8062493
