CondFileP,InstructionsP,LettersDisplayedP,CorrectnessP,CondFile,Instructions,LettersDisplayed,Correctness,practicetrials.thisRepN,practicetrials.thisTrialN,practicetrials.thisN,practicetrials.thisIndex,InnerLoopPractice.thisRepN,InnerLoopPractice.thisTrialN,InnerLoopPractice.thisN,InnerLoopPractice.thisIndex,trials.thisRepN,trials.thisTrialN,trials.thisN,trials.thisIndex,InnerLoop.thisRepN,InnerLoop.thisTrialN,InnerLoop.thisN,InnerLoop.thisIndex,TaskVersionText.started,TaskVersionText.stopped,InstrKey1.keys,InstrKey1.rt,InstrKey1.started,InstrKey1.stopped,text.started,text.stopped,key_resp_4.keys,key_resp_4.rt,key_resp_4.started,key_resp_4.stopped,text_2.started,text_2.stopped,key_resp_3.keys,key_resp_3.rt,key_resp_3.started,key_resp_3.stopped,text_3.started,text_3.stopped,key_resp_2.keys,key_resp_2.rt,key_resp_2.started,key_resp_2.stopped,PractIn1.started,PractIn1.stopped,PractIn2.started,PractIn2.stopped,PractInstructionPass.keys,PractInstructionPass.rt,PractInstructionPass.started,PractInstructionPass.stopped,PractBlock1.started,PractBlock1.stopped,ISIjitterPractice,ISI_Pract_Fixation.started,ISI_Pract_Fixation.stopped,N_backP.started,N_backP.stopped,KeyPractice.keys,KeyPractice.corr,KeyPractice.started,KeyPractice.stopped,text_4.started,text_4.stopped,KeyPractice.rt,TransitionText.started,TransitionText.stopped,key_resp_6.keys,key_resp_6.rt,key_resp_6.started,key_resp_6.stopped,text_5.started,text_5.stopped,key_resp_5.keys,key_resp_5.rt,key_resp_5.started,key_resp_5.stopped,MainInt1.started,MainInt1.stopped,MainInt2.started,MainInt2.stopped,InstructionPass.keys,InstructionPass.rt,InstructionPass.started,InstructionPass.stopped,Blocks1.started,Blocks1.stopped,ISIjitter,N_backD.started,N_backD.stopped,key_resp.keys,key_resp.corr,key_resp.started,key_resp.stopped,key_resp.rt,participant,Study Name,Task Version (required to run),PRE/POST,date,expName,psychopyVersion,frameRate,
,,,,,,,,,,,,,,,,,,,,,,,,31.518056499771774,None,space,272.0181803996675,32.007110099773854,None,,,,,,,,,,,,,,,,,,,,,,,,,,,,,,,,,,,,,,,,,,,,,,,,,,,,,,,,,,,,,,,,,,,,,,,P015,fencog,1,Pre,2021_Oct_20_1114,N-Back (New Version 2021),2021.1.4,120.67850281068975,
,,,,,,,,,,,,,,,,,,,,,,,,,,,,,,304.05896169971675,None,space,8.31294779991731,304.54424030007794,None,,,,,,,,,,,,,,,,,,,,,,,,,,,,,,,,,,,,,,,,,,,,,,,,,,,,,,,,,,,,,,,,,P015,fencog,1,Pre,2021_Oct_20_1114,N-Back (New Version 2021),2021.1.4,120.67850281068975,
,,,,,,,,,,,,,,,,,,,,,,,,,,,,,,,,,,,,312.89354229997844,None,space,9.177397099789232,313.38354789977893,None,,,,,,,,,,,,,,,,,,,,,,,,,,,,,,,,,,,,,,,,,,,,,,,,,,,,,,,,,,,P015,fencog,1,Pre,2021_Oct_20_1114,N-Back (New Version 2021),2021.1.4,120.67850281068975,
,,,,,,,,,,,,,,,,,,,,,,,,,,,,,,,,,,,,,,,,,,322.60742559982464,None,space,8.76000940008089,323.09719499992207,None,,,,,,,,,,,,,,,,,,,,,,,,,,,,,,,,,,,,,,,,,,,,,,,,,,,,,P015,fencog,1,Pre,2021_Oct_20_1114,N-Back (New Version 2021),2021.1.4,120.67850281068975,
Conditions/Version_1Pr/zeroback(1)_v1.xlsx,Rule: Press 'space' when you see the letter 'x' or 'X'.,Z,None,,,,,0,0,0,0,0,0,0,0,,,,,,,,,,,,,,,,,,,,,,,,,,,,,,,,,333.20034560002387,None,336.1862174998969,None,space,1.6391119002364576,336.1862174998969,None,333.20034560002387,None,1.815,337.85643859999254,None,339.68160969996825,None,None,1,339.68160969996825,None,341.68667670013383,None,,,,,,,,,,,,,,,,,,,,,,,,,,,,,,,,P015,fencog,1,Pre,2021_Oct_20_1114,N-Back (New Version 2021),2021.1.4,120.67850281068975,
Conditions/Version_1Pr/zeroback(1)_v1.xlsx,Rule: Press 'space' when you see the letter 'x' or 'X'.,r,None,,,,,0,0,0,0,0,1,1,1,,,,,,,,,,,,,,,,,,,,,,,,,,,,,,,,,,,,,,,,,,,1.49,343.18225630000234,None,344.67599410004914,None,None,1,344.67599410004914,None,346.68111740006134,None,,,,,,,,,,,,,,,,,,,,,,,,,,,,,,,,P015,fencog,1,Pre,2021_Oct_20_1114,N-Back (New Version 2021),2021.1.4,120.67850281068975,
Conditions/Version_1Pr/zeroback(1)_v1.xlsx,Rule: Press 'space' when you see the letter 'x' or 'X'.,X,space,,,,,0,0,0,0,0,2,2,2,,,,,,,,,,,,,,,,,,,,,,,,,,,,,,,,,,,,,,,,,,,1.265,348.18080870015547,None,349.44863469991833,None,space,1,349.44863469991833,None,349.8481815997511,None,0.3844575001858175,,,,,,,,,,,,,,,,,,,,,,,,,,,,,,,P015,fencog,1,Pre,2021_Oct_20_1114,N-Back (New Version 2021),2021.1.4,120.67850281068975,
Conditions/Version_1Pr/zeroback(1)_v1.xlsx,Rule: Press 'space' when you see the letter 'x' or 'X'.,p,None,,,,,0,0,0,0,0,3,3,3,,,,,,,,,,,,,,,,,,,,,,,,,,,,,,,,,,,,,,,,,,,1.59,351.35450269980356,None,352.9477792000398,None,None,1,352.9477792000398,None,354.9538159999065,None,,,,,,,,,,,,,,,,,,,,,,,,,,,,,,,,P015,fencog,1,Pre,2021_Oct_20_1114,N-Back (New Version 2021),2021.1.4,120.67850281068975,
Conditions/Version_1Pr/zeroback(1)_v1.xlsx,Rule: Press 'space' when you see the letter 'x' or 'X'.,w,None,,,,,0,0,0,0,0,4,4,4,,,,,,,,,,,,,,,,,,,,,,,,,,,,,,,,,,,,,,,,,,,1.465,356.4532316001132,None,357.91970819979906,None,None,1,357.91970819979906,None,359.91887910012156,None,,,,,,,,,,,,,,,,,,,,,,,,,,,,,,,,P015,fencog,1,Pre,2021_Oct_20_1114,N-Back (New Version 2021),2021.1.4,120.67850281068975,
Conditions/Version_1Pr/zeroback(1)_v1.xlsx,Rule: Press 'space' when you see the letter 'x' or 'X'.,e,None,,,,,0,0,0,0,0,5,5,5,,,,,,,,,,,,,,,,,,,,,,,,,,,,,,,,,,,,,,,,,,,1.24,361.41862270003185,None,362.66236509988084,None,None,1,362.66236509988084,None,364.6676583997905,None,,,,,,,,,,,,,,,,,,,,,,,,,,,,,,,,P015,fencog,1,Pre,2021_Oct_20_1114,N-Back (New Version 2021),2021.1.4,120.67850281068975,
Conditions/Version_1Pr/zeroback(1)_v1.xlsx,Rule: Press 'space' when you see the letter 'x' or 'X'.,X,space,,,,,0,0,0,0,0,6,6,6,,,,,,,,,,,,,,,,,,,,,,,,,,,,,,,,,,,,,,,,,,,1.34,366.167084899731,None,367.5102916001342,None,space,1,367.5102916001342,None,367.98308239970356,None,0.4508525999262929,,,,,,,,,,,,,,,,,,,,,,,,,,,,,,,P015,fencog,1,Pre,2021_Oct_20_1114,N-Back (New Version 2021),2021.1.4,120.67850281068975,
Conditions/Version_1Pr/zeroback(1)_v1.xlsx,Rule: Press 'space' when you see the letter 'x' or 'X'.,x,space,,,,,0,0,0,0,0,7,7,7,,,,,,,,,,,,,,,,,,,,,,,,,,,,,,,,,,,,,,,,,,,1.19,369.4829738000408,None,370.67829110007733,None,space,1,370.67829110007733,None,371.16360400011763,None,0.46669100038707256,,,,,,,,,,,,,,,,,,,,,,,,,,,,,,,P015,fencog,1,Pre,2021_Oct_20_1114,N-Back (New Version 2021),2021.1.4,120.67850281068975,
Conditions/Version_1Pr/zeroback(1)_v1.xlsx,Rule: Press 'space' when you see the letter 'x' or 'X'.,p,None,,,,,0,0,0,0,0,8,8,8,,,,,,,,,,,,,,,,,,,,,,,,,,,,,,,,,,,,,,,,,,,1.365,372.6653057001531,None,374.03273919969797,None,None,1,374.03273919969797,None,376.0393733000383,None,,,,,,,,,,,,,,,,,,,,,,,,,,,,,,,,P015,fencog,1,Pre,2021_Oct_20_1114,N-Back (New Version 2021),2021.1.4,120.67850281068975,
Conditions/Version_1Pr/zeroback(1)_v1.xlsx,Rule: Press 'space' when you see the letter 'x' or 'X'.,r,None,,,,,0,0,0,0,0,9,9,9,,,,,,,,,,,,,,,,,,,,,,,,,,,,,,,,,,,,,,,,,,,1.29,377.53879040014,None,378.8312738998793,None,None,1,378.8312738998793,None,380.8315236000344,None,,,,,,,,,,,,,,,,,,,,,,,,,,,,,,,,P015,fencog,1,Pre,2021_Oct_20_1114,N-Back (New Version 2021),2021.1.4,120.67850281068975,
Conditions/Version_1Pr/zeroback(1)_v1.xlsx,Rule: Press 'space' when you see the letter 'x' or 'X'.,,,,,,,0,0,0,0,,,,,,,,,,,,,,,,,,,,,,,,,,,,,,,,,,,,,,,,,,,,,,,,,,,,,,,,,,,,,,,,,,,,,,,,,,,,,,,,,,,,,,,,,P015,fencog,1,Pre,2021_Oct_20_1114,N-Back (New Version 2021),2021.1.4,120.67850281068975,
Conditions/Version_1Pr/oneback(1)_v1.xlsx,New rule: Press 'space' when you see 1-back (i.e. the same letter as the one that appeared 1 letter ago.),a,None,,,,,0,1,1,1,0,0,0,0,,,,,,,,,,,,,,,,,,,,,,,,,,,,,,,,,382.362166099716,None,385.3478947998956,None,space,2.4531598002649844,385.3478947998956,None,382.362166099716,None,1.34,387.8196777999401,None,389.164663199801,None,None,1,389.164663199801,None,391.16417180001736,None,,,,,,,,,,,,,,,,,,,,,,,,,,,,,,,,P015,fencog,1,Pre,2021_Oct_20_1114,N-Back (New Version 2021),2021.1.4,120.67850281068975,
Conditions/Version_1Pr/oneback(1)_v1.xlsx,New rule: Press 'space' when you see 1-back (i.e. the same letter as the one that appeared 1 letter ago.),x,None,,,,,0,1,1,1,0,1,1,1,,,,,,,,,,,,,,,,,,,,,,,,,,,,,,,,,,,,,,,,,,,1.24,392.667847499717,None,393.91073230002075,None,space,0,393.91073230002075,None,394.3885395000689,None,0.46643600007519126,,,,,,,,,,,,,,,,,,,,,,,,,,,,,,,P015,fencog,1,Pre,2021_Oct_20_1114,N-Back (New Version 2021),2021.1.4,120.67850281068975,
Conditions/Version_1Pr/oneback(1)_v1.xlsx,New rule: Press 'space' when you see 1-back (i.e. the same letter as the one that appeared 1 letter ago.),g,None,,,,,0,1,1,1,0,2,2,2,,,,,,,,,,,,,,,,,,,,,,,,,,,,,,,,,,,,,,,,,,,1.315,395.8916087001562,None,397.20934409974143,None,None,1,397.20934409974143,None,399.21677679987624,None,,,,,,,,,,,,,,,,,,,,,,,,,,,,,,,,P015,fencog,1,Pre,2021_Oct_20_1114,N-Back (New Version 2021),2021.1.4,120.67850281068975,
Conditions/Version_1Pr/oneback(1)_v1.xlsx,New rule: Press 'space' when you see 1-back (i.e. the same letter as the one that appeared 1 letter ago.),G,space,,,,,0,1,1,1,0,3,3,3,,,,,,,,,,,,,,,,,,,,,,,,,,,,,,,,,,,,,,,,,,,1.765,400.7151918001473,None,402.48727959999815,None,space,1,402.48727959999815,None,402.98679840005934,None,0.48204350005835295,,,,,,,,,,,,,,,,,,,,,,,,,,,,,,,P015,fencog,1,Pre,2021_Oct_20_1114,N-Back (New Version 2021),2021.1.4,120.67850281068975,
Conditions/Version_1Pr/oneback(1)_v1.xlsx,New rule: Press 'space' when you see 1-back (i.e. the same letter as the one that appeared 1 letter ago.),u,None,,,,,0,1,1,1,0,4,4,4,,,,,,,,,,,,,,,,,,,,,,,,,,,,,,,,,,,,,,,,,,,1.19,404.48907830007374,None,405.683649700135,None,None,1,405.683649700135,None,407.6883394001052,None,,,,,,,,,,,,,,,,,,,,,,,,,,,,,,,,P015,fencog,1,Pre,2021_Oct_20_1114,N-Back (New Version 2021),2021.1.4,120.67850281068975,
Conditions/Version_1Pr/oneback(1)_v1.xlsx,New rule: Press 'space' when you see 1-back (i.e. the same letter as the one that appeared 1 letter ago.),y,None,,,,,0,1,1,1,0,5,5,5,,,,,,,,,,,,,,,,,,,,,,,,,,,,,,,,,,,,,,,,,,,1.115,409.1877935999073,None,410.3082532999106,None,None,1,410.3082532999106,None,412.311948500108,None,,,,,,,,,,,,,,,,,,,,,,,,,,,,,,,,P015,fencog,1,Pre,2021_Oct_20_1114,N-Back (New Version 2021),2021.1.4,120.67850281068975,
Conditions/Version_1Pr/oneback(1)_v1.xlsx,New rule: Press 'space' when you see 1-back (i.e. the same letter as the one that appeared 1 letter ago.),y,space,,,,,0,1,1,1,0,6,6,6,,,,,,,,,,,,,,,,,,,,,,,,,,,,,,,,,,,,,,,,,,,1.715,413.81156850000843,None,415.5275539997965,None,space,1,415.5275539997965,None,415.8629219997674,None,0.3216118002310395,,,,,,,,,,,,,,,,,,,,,,,,,,,,,,,P015,fencog,1,Pre,2021_Oct_20_1114,N-Back (New Version 2021),2021.1.4,120.67850281068975,
Conditions/Version_1Pr/oneback(1)_v1.xlsx,New rule: Press 'space' when you see 1-back (i.e. the same letter as the one that appeared 1 letter ago.),k,None,,,,,0,1,1,1,0,7,7,7,,,,,,,,,,,,,,,,,,,,,,,,,,,,,,,,,,,,,,,,,,,1.44,417.36867239978164,None,418.8131500999443,None,None,1,418.8131500999443,None,420.8173734997399,None,,,,,,,,,,,,,,,,,,,,,,,,,,,,,,,,P015,fencog,1,Pre,2021_Oct_20_1114,N-Back (New Version 2021),2021.1.4,120.67850281068975,
Conditions/Version_1Pr/oneback(1)_v1.xlsx,New rule: Press 'space' when you see 1-back (i.e. the same letter as the one that appeared 1 letter ago.),c,None,,,,,0,1,1,1,0,8,8,8,,,,,,,,,,,,,,,,,,,,,,,,,,,,,,,,,,,,,,,,,,,1.165,422.31731220008805,None,423.4867564998567,None,None,1,423.4867564998567,None,425.49148260010406,None,,,,,,,,,,,,,,,,,,,,,,,,,,,,,,,,P015,fencog,1,Pre,2021_Oct_20_1114,N-Back (New Version 2021),2021.1.4,120.67850281068975,
Conditions/Version_1Pr/oneback(1)_v1.xlsx,New rule: Press 'space' when you see 1-back (i.e. the same letter as the one that appeared 1 letter ago.),r,None,,,,,0,1,1,1,0,9,9,9,,,,,,,,,,,,,,,,,,,,,,,,,,,,,,,,,,,,,,,,,,,1.59,426.99075250001624,None,428.5826678001322,None,None,1,428.5826678001322,None,430.58998529985547,None,,,,,,,,,,,,,,,,,,,,,,,,,,,,,,,,P015,fencog,1,Pre,2021_Oct_20_1114,N-Back (New Version 2021),2021.1.4,120.67850281068975,
Conditions/Version_1Pr/oneback(1)_v1.xlsx,New rule: Press 'space' when you see 1-back (i.e. the same letter as the one that appeared 1 letter ago.),,,,,,,0,1,1,1,,,,,,,,,,,,,,,,,,,,,,,,,,,,,,,,,,,,,,,,,,,,,,,,,,,,,,,,,,,,,,,,,,,,,,,,,,,,,,,,,,,,,,,,,P015,fencog,1,Pre,2021_Oct_20_1114,N-Back (New Version 2021),2021.1.4,120.67850281068975,
Conditions/Version_1Pr/twoback(1)_v1.xlsx,New rule: Press 'space' when you see 2-back (i.e. the same letter as the one that appeared 2 letters ago.),E,None,,,,,0,2,2,2,0,0,0,0,,,,,,,,,,,,,,,,,,,,,,,,,,,,,,,,,432.1114205997437,None,435.0983825000003,None,space,0.9908244996331632,435.0983825000003,None,432.1114205997437,None,1.24,436.11020050011575,None,437.3585830000229,None,None,1,437.3585830000229,None,439.36228269990534,None,,,,,,,,,,,,,,,,,,,,,,,,,,,,,,,,P015,fencog,1,Pre,2021_Oct_20_1114,N-Back (New Version 2021),2021.1.4,120.67850281068975,
Conditions/Version_1Pr/twoback(1)_v1.xlsx,New rule: Press 'space' when you see 2-back (i.e. the same letter as the one that appeared 2 letters ago.),p,None,,,,,0,2,2,2,0,1,1,1,,,,,,,,,,,,,,,,,,,,,,,,,,,,,,,,,,,,,,,,,,,1.19,440.86183269973844,None,442.05380479991436,None,None,1,442.05380479991436,None,444.0609920998104,None,,,,,,,,,,,,,,,,,,,,,,,,,,,,,,,,P015,fencog,1,Pre,2021_Oct_20_1114,N-Back (New Version 2021),2021.1.4,120.67850281068975,
Conditions/Version_1Pr/twoback(1)_v1.xlsx,New rule: Press 'space' when you see 2-back (i.e. the same letter as the one that appeared 2 letters ago.),e,space,,,,,0,2,2,2,0,2,2,2,,,,,,,,,,,,,,,,,,,,,,,,,,,,,,,,,,,,,,,,,,,1.615,445.56057399977,None,447.1787236998789,None,space,1,447.1787236998789,None,447.5857544001192,None,0.39850710006430745,,,,,,,,,,,,,,,,,,,,,,,,,,,,,,,P015,fencog,1,Pre,2021_Oct_20_1114,N-Back (New Version 2021),2021.1.4,120.67850281068975,
Conditions/Version_1Pr/twoback(1)_v1.xlsx,New rule: Press 'space' when you see 2-back (i.e. the same letter as the one that appeared 2 letters ago.),s,None,,,,,0,2,2,2,0,3,3,3,,,,,,,,,,,,,,,,,,,,,,,,,,,,,,,,,,,,,,,,,,,1.14,449.0928150997497,None,450.23808649973944,None,None,1,450.23808649973944,None,452.2419094997458,None,,,,,,,,,,,,,,,,,,,,,,,,,,,,,,,,P015,fencog,1,Pre,2021_Oct_20_1114,N-Back (New Version 2021),2021.1.4,120.67850281068975,
Conditions/Version_1Pr/twoback(1)_v1.xlsx,New rule: Press 'space' when you see 2-back (i.e. the same letter as the one that appeared 2 letters ago.),S,None,,,,,0,2,2,2,0,4,4,4,,,,,,,,,,,,,,,,,,,,,,,,,,,,,,,,,,,,,,,,,,,2.015,453.74144219979644,None,455.76114339986816,None,None,1,455.76114339986816,None,457.76526049990207,None,,,,,,,,,,,,,,,,,,,,,,,,,,,,,,,,P015,fencog,1,Pre,2021_Oct_20_1114,N-Back (New Version 2021),2021.1.4,120.67850281068975,
Conditions/Version_1Pr/twoback(1)_v1.xlsx,New rule: Press 'space' when you see 2-back (i.e. the same letter as the one that appeared 2 letters ago.),s,space,,,,,0,2,2,2,0,5,5,5,,,,,,,,,,,,,,,,,,,,,,,,,,,,,,,,,,,,,,,,,,,1.69,459.2648213999346,None,460.95573619985953,None,space,1,460.95573619985953,None,461.4723364999518,None,0.5014649997465312,,,,,,,,,,,,,,,,,,,,,,,,,,,,,,,P015,fencog,1,Pre,2021_Oct_20_1114,N-Back (New Version 2021),2021.1.4,120.67850281068975,
Conditions/Version_1Pr/twoback(1)_v1.xlsx,New rule: Press 'space' when you see 2-back (i.e. the same letter as the one that appeared 2 letters ago.),P,None,,,,,0,2,2,2,0,6,6,6,,,,,,,,,,,,,,,,,,,,,,,,,,,,,,,,,,,,,,,,,,,1.99,462.9717001998797,None,464.96707260003313,None,None,1,464.96707260003313,None,466.9708095998503,None,,,,,,,,,,,,,,,,,,,,,,,,,,,,,,,,P015,fencog,1,Pre,2021_Oct_20_1114,N-Back (New Version 2021),2021.1.4,120.67850281068975,
Conditions/Version_1Pr/twoback(1)_v1.xlsx,New rule: Press 'space' when you see 2-back (i.e. the same letter as the one that appeared 2 letters ago.),C,None,,,,,0,2,2,2,0,7,7,7,,,,,,,,,,,,,,,,,,,,,,,,,,,,,,,,,,,,,,,,,,,1.065,468.47048310004175,None,469.53725739987567,None,None,1,469.53725739987567,None,471.5361915999092,None,,,,,,,,,,,,,,,,,,,,,,,,,,,,,,,,P015,fencog,1,Pre,2021_Oct_20_1114,N-Back (New Version 2021),2021.1.4,120.67850281068975,
Conditions/Version_1Pr/twoback(1)_v1.xlsx,New rule: Press 'space' when you see 2-back (i.e. the same letter as the one that appeared 2 letters ago.),x,None,,,,,0,2,2,2,0,8,8,8,,,,,,,,,,,,,,,,,,,,,,,,,,,,,,,,,,,,,,,,,,,1.415,473.03557439986616,None,474.4538324000314,None,None,1,474.4538324000314,None,476.4597164001316,None,,,,,,,,,,,,,,,,,,,,,,,,,,,,,,,,P015,fencog,1,Pre,2021_Oct_20_1114,N-Back (New Version 2021),2021.1.4,120.67850281068975,
Conditions/Version_1Pr/twoback(1)_v1.xlsx,New rule: Press 'space' when you see 2-back (i.e. the same letter as the one that appeared 2 letters ago.),Z,None,,,,,0,2,2,2,0,9,9,9,,,,,,,,,,,,,,,,,,,,,,,,,,,,,,,,,,,,,,,,,,,1.44,477.95939589990303,None,479.40252600004897,None,None,1,479.40252600004897,None,481.40476989978924,None,,,,,,,,,,,,,,,,,,,,,,,,,,,,,,,,P015,fencog,1,Pre,2021_Oct_20_1114,N-Back (New Version 2021),2021.1.4,120.67850281068975,
Conditions/Version_1Pr/twoback(1)_v1.xlsx,New rule: Press 'space' when you see 2-back (i.e. the same letter as the one that appeared 2 letters ago.),,,,,,,0,2,2,2,,,,,,,,,,,,,,,,,,,,,,,,,,,,,,,,,,,,,,,,,,,,,,,,,,,,,,,,,,,,,,,,,,,,,,,,,,,,,,,,,,,,,,,,,P015,fencog,1,Pre,2021_Oct_20_1114,N-Back (New Version 2021),2021.1.4,120.67850281068975,
Conditions/Version_1Pr/threeback(1)_v1.xlsx,New rule: Press 'space' when you see 3-back (i.e. the same letter as the one that appeared 3 letters ago.),r,None,,,,,0,3,3,3,0,0,0,0,,,,,,,,,,,,,,,,,,,,,,,,,,,,,,,,,482.93168159993365,None,485.9176805000752,None,space,7.155637700110674,485.9176805000752,None,482.93168159993365,None,1.09,493.094531300012,None,494.1911192997359,None,None,1,494.1911192997359,None,496.1956608998589,None,,,,,,,,,,,,,,,,,,,,,,,,,,,,,,,,P015,fencog,1,Pre,2021_Oct_20_1114,N-Back (New Version 2021),2021.1.4,120.67850281068975,
Conditions/Version_1Pr/threeback(1)_v1.xlsx,New rule: Press 'space' when you see 3-back (i.e. the same letter as the one that appeared 3 letters ago.),a,None,,,,,0,3,3,3,0,1,1,1,,,,,,,,,,,,,,,,,,,,,,,,,,,,,,,,,,,,,,,,,,,1.99,497.695168599952,None,499.68700370006263,None,None,1,499.68700370006263,None,501.68980489997193,None,,,,,,,,,,,,,,,,,,,,,,,,,,,,,,,,P015,fencog,1,Pre,2021_Oct_20_1114,N-Back (New Version 2021),2021.1.4,120.67850281068975,
Conditions/Version_1Pr/threeback(1)_v1.xlsx,New rule: Press 'space' when you see 3-back (i.e. the same letter as the one that appeared 3 letters ago.),t,None,,,,,0,3,3,3,0,2,2,2,,,,,,,,,,,,,,,,,,,,,,,,,,,,,,,,,,,,,,,,,,,1.19,503.19358670013025,None,504.3879374000244,None,None,1,504.3879374000244,None,506.39267400000244,None,,,,,,,,,,,,,,,,,,,,,,,,,,,,,,,,P015,fencog,1,Pre,2021_Oct_20_1114,N-Back (New Version 2021),2021.1.4,120.67850281068975,
Conditions/Version_1Pr/threeback(1)_v1.xlsx,New rule: Press 'space' when you see 3-back (i.e. the same letter as the one that appeared 3 letters ago.),r,space,,,,,0,3,3,3,0,3,3,3,,,,,,,,,,,,,,,,,,,,,,,,,,,,,,,,,,,,,,,,,,,1.64,507.8921650000848,None,509.5334188998677,None,space,1,509.5334188998677,None,510.47571970010176,None,0.9317950997501612,,,,,,,,,,,,,,,,,,,,,,,,,,,,,,,P015,fencog,1,Pre,2021_Oct_20_1114,N-Back (New Version 2021),2021.1.4,120.67850281068975,
Conditions/Version_1Pr/threeback(1)_v1.xlsx,New rule: Press 'space' when you see 3-back (i.e. the same letter as the one that appeared 3 letters ago.),a,None,,,,,0,3,3,3,0,4,4,4,,,,,,,,,,,,,,,,,,,,,,,,,,,,,,,,,,,,,,,,,,,1.69,511.9839344001375,None,513.6754201999865,None,space,0,513.6754201999865,None,515.212720700074,None,1.5099959000945091,,,,,,,,,,,,,,,,,,,,,,,,,,,,,,,P015,fencog,1,Pre,2021_Oct_20_1114,N-Back (New Version 2021),2021.1.4,120.67850281068975,
Conditions/Version_1Pr/threeback(1)_v1.xlsx,New rule: Press 'space' when you see 3-back (i.e. the same letter as the one that appeared 3 letters ago.),Y,None,,,,,0,3,3,3,0,5,5,5,,,,,,,,,,,,,,,,,,,,,,,,,,,,,,,,,,,,,,,,,,,1.94,516.7148866998032,None,518.6579454001039,None,space,0,518.6579454001039,None,520.5733002000488,None,1.9032777999527752,,,,,,,,,,,,,,,,,,,,,,,,,,,,,,,P015,fencog,1,Pre,2021_Oct_20_1114,N-Back (New Version 2021),2021.1.4,120.67850281068975,
Conditions/Version_1Pr/threeback(1)_v1.xlsx,New rule: Press 'space' when you see 3-back (i.e. the same letter as the one that appeared 3 letters ago.),q,None,,,,,0,3,3,3,0,6,6,6,,,,,,,,,,,,,,,,,,,,,,,,,,,,,,,,,,,,,,,,,,,1.615,522.0794768999331,None,523.6987022999674,None,None,1,523.6987022999674,None,525.7034880998544,None,,,,,,,,,,,,,,,,,,,,,,,,,,,,,,,,P015,fencog,1,Pre,2021_Oct_20_1114,N-Back (New Version 2021),2021.1.4,120.67850281068975,
Conditions/Version_1Pr/threeback(1)_v1.xlsx,New rule: Press 'space' when you see 3-back (i.e. the same letter as the one that appeared 3 letters ago.),A,space,,,,,0,3,3,3,0,7,7,7,,,,,,,,,,,,,,,,,,,,,,,,,,,,,,,,,,,,,,,,,,,1.165,527.2032586997375,None,528.3723662998527,None,space,1,528.3723662998527,None,529.0865791998804,None,0.7011661999858916,,,,,,,,,,,,,,,,,,,,,,,,,,,,,,,P015,fencog,1,Pre,2021_Oct_20_1114,N-Back (New Version 2021),2021.1.4,120.67850281068975,
Conditions/Version_1Pr/threeback(1)_v1.xlsx,New rule: Press 'space' when you see 3-back (i.e. the same letter as the one that appeared 3 letters ago.),y,None,,,,,0,3,3,3,0,8,8,8,,,,,,,,,,,,,,,,,,,,,,,,,,,,,,,,,,,,,,,,,,,1.665,530.5935323000886,None,532.2599967997521,None,space,0,532.2599967997521,None,533.0135157001205,None,0.7413731003180146,,,,,,,,,,,,,,,,,,,,,,,,,,,,,,,P015,fencog,1,Pre,2021_Oct_20_1114,N-Back (New Version 2021),2021.1.4,120.67850281068975,
Conditions/Version_1Pr/threeback(1)_v1.xlsx,New rule: Press 'space' when you see 3-back (i.e. the same letter as the one that appeared 3 letters ago.),r,None,,,,,0,3,3,3,0,9,9,9,,,,,,,,,,,,,,,,,,,,,,,,,,,,,,,,,,,,,,,,,,,1.29,534.51831879979,None,535.811065599788,None,None,1,535.811065599788,None,537.8183027999476,None,,,,,,,,,,,,,,,,,,,,,,,,,,,,,,,,P015,fencog,1,Pre,2021_Oct_20_1114,N-Back (New Version 2021),2021.1.4,120.67850281068975,
Conditions/Version_1Pr/threeback(1)_v1.xlsx,New rule: Press 'space' when you see 3-back (i.e. the same letter as the one that appeared 3 letters ago.),,,,,,,0,3,3,3,,,,,,,,,,,,,,,,,,,,,,,,,,,,,,,,,,,,,,,,,,,,,,,,,,,,,,,,,,,,,,,,,,,,,,,,,,,,,,,,,,,,,,,,,P015,fencog,1,Pre,2021_Oct_20_1114,N-Back (New Version 2021),2021.1.4,120.67850281068975,
,,,,,,,,,,,,,,,,,,,,,,,,,,,,,,,,,,,,,,,,,,,,,,,,,,,,,,,,,,,,,,,,,,,,,,539.3248390001245,None,space,1.7531810002401471,539.8162664999254,None,,,,,,,,,,,,,,,,,,,,,,,,,P015,fencog,1,Pre,2021_Oct_20_1114,N-Back (New Version 2021),2021.1.4,120.67850281068975,
,,,,,,,,,,,,,,,,,,,,,,,,,,,,,,,,,,,,,,,,,,,,,,,,,,,,,,,,,,,,,,,,,,,,,,,,,,,,541.5964083997533,None,space,36.69393520010635,542.0912333000451,None,,,,,,,,,,,,,,,,,,,P015,fencog,1,Pre,2021_Oct_20_1114,N-Back (New Version 2021),2021.1.4,120.67850281068975,
,,,,Conditions/Version_1/zeroback(1)_v1.xlsx,Rule: Press 'space' when you see the letter 'x' or 'X'.,b,None,,,,,,,,,0,0,0,0,0,0,0,0,,,,,,,,,,,,,,,,,,,,,,,,,,,,,,,,,,,,,,,,,,,,,,,,,,,,,,,,,,,578.8875245000236,None,581.8729230999015,None,space,0.8164424998685718,581.8729230999015,None,578.8875245000236,None,1.7416,584.4653980997391,None,None,1,584.4653980997391,None,,P015,fencog,1,Pre,2021_Oct_20_1114,N-Back (New Version 2021),2021.1.4,120.67850281068975,
,,,,Conditions/Version_1/zeroback(1)_v1.xlsx,Rule: Press 'space' when you see the letter 'x' or 'X'.,T,None,,,,,,,,,0,0,0,0,0,1,1,1,,,,,,,,,,,,,,,,,,,,,,,,,,,,,,,,,,,,,,,,,,,,,,,,,,,,,,,,,,,,,,,,,,,,,1.4068,587.87884879997,None,None,1,587.87884879997,None,,P015,fencog,1,Pre,2021_Oct_20_1114,N-Back (New Version 2021),2021.1.4,120.67850281068975,
,,,,Conditions/Version_1/zeroback(1)_v1.xlsx,Rule: Press 'space' when you see the letter 'x' or 'X'.,L,None,,,,,,,,,0,0,0,0,0,2,2,2,,,,,,,,,,,,,,,,,,,,,,,,,,,,,,,,,,,,,,,,,,,,,,,,,,,,,,,,,,,,,,,,,,,,,1.2952,591.1859740000218,None,None,1,591.1859740000218,None,,P015,fencog,1,Pre,2021_Oct_20_1114,N-Back (New Version 2021),2021.1.4,120.67850281068975,
,,,,Conditions/Version_1/zeroback(1)_v1.xlsx,Rule: Press 'space' when you see the letter 'x' or 'X'.,x,space,,,,,,,,,0,0,0,0,0,3,3,3,,,,,,,,,,,,,,,,,,,,,,,,,,,,,,,,,,,,,,,,,,,,,,,,,,,,,,,,,,,,,,,,,,,,,1.1092,594.3092364999466,None,space,1,594.3092364999466,None,1.6922435997985303,P015,fencog,1,Pre,2021_Oct_20_1114,N-Back (New Version 2021),2021.1.4,120.67850281068975,
,,,,Conditions/Version_1/zeroback(1)_v1.xlsx,Rule: Press 'space' when you see the letter 'x' or 'X'.,o,None,,,,,,,,,0,0,0,0,0,4,4,4,,,,,,,,,,,,,,,,,,,,,,,,,,,,,,,,,,,,,,,,,,,,,,,,,,,,,,,,,,,,,,,,,,,,,1.4192,597.7445923998021,None,None,1,597.7445923998021,None,,P015,fencog,1,Pre,2021_Oct_20_1114,N-Back (New Version 2021),2021.1.4,120.67850281068975,
,,,,Conditions/Version_1/zeroback(1)_v1.xlsx,Rule: Press 'space' when you see the letter 'x' or 'X'.,P,None,,,,,,,,,0,0,0,0,0,5,5,5,,,,,,,,,,,,,,,,,,,,,,,,,,,,,,,,,,,,,,,,,,,,,,,,,,,,,,,,,,,,,,,,,,,,,1.878,601.6325703999028,None,None,1,601.6325703999028,None,,P015,fencog,1,Pre,2021_Oct_20_1114,N-Back (New Version 2021),2021.1.4,120.67850281068975,
,,,,Conditions/Version_1/zeroback(1)_v1.xlsx,Rule: Press 'space' when you see the letter 'x' or 'X'.,X,space,,,,,,,,,0,0,0,0,0,6,6,6,,,,,,,,,,,,,,,,,,,,,,,,,,,,,,,,,,,,,,,,,,,,,,,,,,,,,,,,,,,,,,,,,,,,,1.0782,604.7229716000147,None,space,1,604.7229716000147,None,1.302289499901235,P015,fencog,1,Pre,2021_Oct_20_1114,N-Back (New Version 2021),2021.1.4,120.67850281068975,
,,,,Conditions/Version_1/zeroback(1)_v1.xlsx,Rule: Press 'space' when you see the letter 'x' or 'X'.,n,None,,,,,,,,,0,0,0,0,0,7,7,7,,,,,,,,,,,,,,,,,,,,,,,,,,,,,,,,,,,,,,,,,,,,,,,,,,,,,,,,,,,,,,,,,,,,,1.4626,608.1902731000446,None,None,1,608.1902731000446,None,,P015,fencog,1,Pre,2021_Oct_20_1114,N-Back (New Version 2021),2021.1.4,120.67850281068975,
,,,,Conditions/Version_1/zeroback(1)_v1.xlsx,Rule: Press 'space' when you see the letter 'x' or 'X'.,M,None,,,,,,,,,0,0,0,0,0,8,8,8,,,,,,,,,,,,,,,,,,,,,,,,,,,,,,,,,,,,,,,,,,,,,,,,,,,,,,,,,,,,,,,,,,,,,1.8656,612.0654179998673,None,None,1,612.0654179998673,None,,P015,fencog,1,Pre,2021_Oct_20_1114,N-Back (New Version 2021),2021.1.4,120.67850281068975,
,,,,Conditions/Version_1/zeroback(1)_v1.xlsx,Rule: Press 'space' when you see the letter 'x' or 'X'.,a,None,,,,,,,,,0,0,0,0,0,9,9,9,,,,,,,,,,,,,,,,,,,,,,,,,,,,,,,,,,,,,,,,,,,,,,,,,,,,,,,,,,,,,,,,,,,,,1.3138,615.3873101999052,None,None,1,615.3873101999052,None,,P015,fencog,1,Pre,2021_Oct_20_1114,N-Back (New Version 2021),2021.1.4,120.67850281068975,
,,,,Conditions/Version_1/zeroback(1)_v1.xlsx,Rule: Press 'space' when you see the letter 'x' or 'X'.,,,,,,,,,,,0,0,0,0,,,,,,,,,,,,,,,,,,,,,,,,,,,,,,,,,,,,,,,,,,,,,,,,,,,,,,,,,,,,,,,,,,,,,,,,,,,,,,,,,P015,fencog,1,Pre,2021_Oct_20_1114,N-Back (New Version 2021),2021.1.4,120.67850281068975,
,,,,Conditions/Version_1/oneback(1)_v1.xlsx,New rule: Press 'space' when you see 1-back (i.e. the same letter as the one that appeared 1 letter ago.),b,None,,,,,,,,,0,1,1,1,0,0,0,0,,,,,,,,,,,,,,,,,,,,,,,,,,,,,,,,,,,,,,,,,,,,,,,,,,,,,,,,,,,617.4168786997907,None,620.4052431997843,None,space,1.5324997999705374,620.4052431997843,None,617.4168786997907,None,1.9214,623.9092715997249,None,None,1,623.9092715997249,None,,P015,fencog,1,Pre,2021_Oct_20_1114,N-Back (New Version 2021),2021.1.4,120.67850281068975,
,,,,Conditions/Version_1/oneback(1)_v1.xlsx,New rule: Press 'space' when you see 1-back (i.e. the same letter as the one that appeared 1 letter ago.),p,None,,,,,,,,,0,1,1,1,0,1,1,1,,,,,,,,,,,,,,,,,,,,,,,,,,,,,,,,,,,,,,,,,,,,,,,,,,,,,,,,,,,,,,,,,,,,,1.5928,627.5169196999632,None,None,1,627.5169196999632,None,,P015,fencog,1,Pre,2021_Oct_20_1114,N-Back (New Version 2021),2021.1.4,120.67850281068975,
,,,,Conditions/Version_1/oneback(1)_v1.xlsx,New rule: Press 'space' when you see 1-back (i.e. the same letter as the one that appeared 1 letter ago.),M,None,,,,,,,,,0,1,1,1,0,2,2,2,,,,,,,,,,,,,,,,,,,,,,,,,,,,,,,,,,,,,,,,,,,,,,,,,,,,,,,,,,,,,,,,,,,,,1.103,630.6324519999325,None,None,1,630.6324519999325,None,,P015,fencog,1,Pre,2021_Oct_20_1114,N-Back (New Version 2021),2021.1.4,120.67850281068975,
,,,,Conditions/Version_1/oneback(1)_v1.xlsx,New rule: Press 'space' when you see 1-back (i.e. the same letter as the one that appeared 1 letter ago.),M,space,,,,,,,,,0,1,1,1,0,3,3,3,,,,,,,,,,,,,,,,,,,,,,,,,,,,,,,,,,,,,,,,,,,,,,,,,,,,,,,,,,,,,,,,,,,,,1.9028,634.546422699932,None,space,1,634.546422699932,None,1.4067799001932144,P015,fencog,1,Pre,2021_Oct_20_1114,N-Back (New Version 2021),2021.1.4,120.67850281068975,
,,,,Conditions/Version_1/oneback(1)_v1.xlsx,New rule: Press 'space' when you see 1-back (i.e. the same letter as the one that appeared 1 letter ago.),n,None,,,,,,,,,0,1,1,1,0,4,4,4,,,,,,,,,,,,,,,,,,,,,,,,,,,,,,,,,,,,,,,,,,,,,,,,,,,,,,,,,,,,,,,,,,,,,1.692,638.2477682000026,None,None,1,638.2477682000026,None,,P015,fencog,1,Pre,2021_Oct_20_1114,N-Back (New Version 2021),2021.1.4,120.67850281068975,
,,,,Conditions/Version_1/oneback(1)_v1.xlsx,New rule: Press 'space' when you see 1-back (i.e. the same letter as the one that appeared 1 letter ago.),g,None,,,,,,,,,0,1,1,1,0,5,5,5,,,,,,,,,,,,,,,,,,,,,,,,,,,,,,,,,,,,,,,,,,,,,,,,,,,,,,,,,,,,,,,,,,,,,1.5494,641.8044181996956,None,None,1,641.8044181996956,None,,P015,fencog,1,Pre,2021_Oct_20_1114,N-Back (New Version 2021),2021.1.4,120.67850281068975,
,,,,Conditions/Version_1/oneback(1)_v1.xlsx,New rule: Press 'space' when you see 1-back (i.e. the same letter as the one that appeared 1 letter ago.),P,None,,,,,,,,,0,1,1,1,0,6,6,6,,,,,,,,,,,,,,,,,,,,,,,,,,,,,,,,,,,,,,,,,,,,,,,,,,,,,,,,,,,,,,,,,,,,,1.506,645.3203058997169,None,None,1,645.3203058997169,None,,P015,fencog,1,Pre,2021_Oct_20_1114,N-Back (New Version 2021),2021.1.4,120.67850281068975,
,,,,Conditions/Version_1/oneback(1)_v1.xlsx,New rule: Press 'space' when you see 1-back (i.e. the same letter as the one that appeared 1 letter ago.),o,None,,,,,,,,,0,1,1,1,0,7,7,7,,,,,,,,,,,,,,,,,,,,,,,,,,,,,,,,,,,,,,,,,,,,,,,,,,,,,,,,,,,,,,,,,,,,,1.8222,649.1527267000638,None,None,1,649.1527267000638,None,,P015,fencog,1,Pre,2021_Oct_20_1114,N-Back (New Version 2021),2021.1.4,120.67850281068975,
,,,,Conditions/Version_1/oneback(1)_v1.xlsx,New rule: Press 'space' when you see 1-back (i.e. the same letter as the one that appeared 1 letter ago.),f,None,,,,,,,,,0,1,1,1,0,8,8,8,,,,,,,,,,,,,,,,,,,,,,,,,,,,,,,,,,,,,,,,,,,,,,,,,,,,,,,,,,,,,,,,,,,,,1.2022,652.3677191999741,None,None,1,652.3677191999741,None,,P015,fencog,1,Pre,2021_Oct_20_1114,N-Back (New Version 2021),2021.1.4,120.67850281068975,
,,,,Conditions/Version_1/oneback(1)_v1.xlsx,New rule: Press 'space' when you see 1-back (i.e. the same letter as the one that appeared 1 letter ago.),F,space,,,,,,,,,0,1,1,1,0,9,9,9,,,,,,,,,,,,,,,,,,,,,,,,,,,,,,,,,,,,,,,,,,,,,,,,,,,,,,,,,,,,,,,,,,,,,1.1526,655.5349640999921,None,space,1,655.5349640999921,None,0.33874049969017506,P015,fencog,1,Pre,2021_Oct_20_1114,N-Back (New Version 2021),2021.1.4,120.67850281068975,
,,,,Conditions/Version_1/oneback(1)_v1.xlsx,New rule: Press 'space' when you see 1-back (i.e. the same letter as the one that appeared 1 letter ago.),,,,,,,,,,,0,1,1,1,,,,,,,,,,,,,,,,,,,,,,,,,,,,,,,,,,,,,,,,,,,,,,,,,,,,,,,,,,,,,,,,,,,,,,,,,,,,,,,,,P015,fencog,1,Pre,2021_Oct_20_1114,N-Back (New Version 2021),2021.1.4,120.67850281068975,
,,,,Conditions/Version_1/twoback(1)_v1.xlsx,New rule: Press 'space' when you see 2-back (i.e. the same letter as the one that appeared 2 letters ago.),b,None,,,,,,,,,0,2,2,2,0,0,0,0,,,,,,,,,,,,,,,,,,,,,,,,,,,,,,,,,,,,,,,,,,,,,,,,,,,,,,,,,,,657.573128500022,None,660.5587766999379,None,space,3.0108285997994244,660.5587766999379,None,657.573128500022,None,1.103,664.7042060000822,None,None,1,664.7042060000822,None,,P015,fencog,1,Pre,2021_Oct_20_1114,N-Back (New Version 2021),2021.1.4,120.67850281068975,
,,,,Conditions/Version_1/twoback(1)_v1.xlsx,New rule: Press 'space' when you see 2-back (i.e. the same letter as the one that appeared 2 letters ago.),h,None,,,,,,,,,0,2,2,2,0,1,1,1,,,,,,,,,,,,,,,,,,,,,,,,,,,,,,,,,,,,,,,,,,,,,,,,,,,,,,,,,,,,,,,,,,,,,1.506,668.2212004000321,None,None,1,668.2212004000321,None,,P015,fencog,1,Pre,2021_Oct_20_1114,N-Back (New Version 2021),2021.1.4,120.67850281068975,
,,,,Conditions/Version_1/twoback(1)_v1.xlsx,New rule: Press 'space' when you see 2-back (i.e. the same letter as the one that appeared 2 letters ago.),j,None,,,,,,,,,0,2,2,2,0,2,2,2,,,,,,,,,,,,,,,,,,,,,,,,,,,,,,,,,,,,,,,,,,,,,,,,,,,,,,,,,,,,,,,,,,,,,1.2084,671.4403363000602,None,None,1,671.4403363000602,None,,P015,fencog,1,Pre,2021_Oct_20_1114,N-Back (New Version 2021),2021.1.4,120.67850281068975,
,,,,Conditions/Version_1/twoback(1)_v1.xlsx,New rule: Press 'space' when you see 2-back (i.e. the same letter as the one that appeared 2 letters ago.),H,space,,,,,,,,,0,2,2,2,0,3,3,3,,,,,,,,,,,,,,,,,,,,,,,,,,,,,,,,,,,,,,,,,,,,,,,,,,,,,,,,,,,,,,,,,,,,,1.1278,674.5794107001275,None,space,1,674.5794107001275,None,0.8543578996323049,P015,fencog,1,Pre,2021_Oct_20_1114,N-Back (New Version 2021),2021.1.4,120.67850281068975,
,,,,Conditions/Version_1/twoback(1)_v1.xlsx,New rule: Press 'space' when you see 2-back (i.e. the same letter as the one that appeared 2 letters ago.),p,None,,,,,,,,,0,2,2,2,0,4,4,4,,,,,,,,,,,,,,,,,,,,,,,,,,,,,,,,,,,,,,,,,,,,,,,,,,,,,,,,,,,,,,,,,,,,,1.4626,678.051518399734,None,None,1,678.051518399734,None,,P015,fencog,1,Pre,2021_Oct_20_1114,N-Back (New Version 2021),2021.1.4,120.67850281068975,
,,,,Conditions/Version_1/twoback(1)_v1.xlsx,New rule: Press 'space' when you see 2-back (i.e. the same letter as the one that appeared 2 letters ago.),p,None,,,,,,,,,0,2,2,2,0,5,5,5,,,,,,,,,,,,,,,,,,,,,,,,,,,,,,,,,,,,,,,,,,,,,,,,,,,,,,,,,,,,,,,,,,,,,1.0782,681.1411215998232,None,None,1,681.1411215998232,None,,P015,fencog,1,Pre,2021_Oct_20_1114,N-Back (New Version 2021),2021.1.4,120.67850281068975,
,,,,Conditions/Version_1/twoback(1)_v1.xlsx,New rule: Press 'space' when you see 2-back (i.e. the same letter as the one that appeared 2 letters ago.),w,None,,,,,,,,,0,2,2,2,0,6,6,6,,,,,,,,,,,,,,,,,,,,,,,,,,,,,,,,,,,,,,,,,,,,,,,,,,,,,,,,,,,,,,,,,,,,,1.1898,684.3328192001209,None,None,1,684.3328192001209,None,,P015,fencog,1,Pre,2021_Oct_20_1114,N-Back (New Version 2021),2021.1.4,120.67850281068975,
,,,,Conditions/Version_1/twoback(1)_v1.xlsx,New rule: Press 'space' when you see 2-back (i.e. the same letter as the one that appeared 2 letters ago.),R,None,,,,,,,,,0,2,2,2,0,7,7,7,,,,,,,,,,,,,,,,,,,,,,,,,,,,,,,,,,,,,,,,,,,,,,,,,,,,,,,,,,,,,,,,,,,,,1.9152,688.2588979997672,None,None,1,688.2588979997672,None,,P015,fencog,1,Pre,2021_Oct_20_1114,N-Back (New Version 2021),2021.1.4,120.67850281068975,
,,,,Conditions/Version_1/twoback(1)_v1.xlsx,New rule: Press 'space' when you see 2-back (i.e. the same letter as the one that appeared 2 letters ago.),a,None,,,,,,,,,0,2,2,2,0,8,8,8,,,,,,,,,,,,,,,,,,,,,,,,,,,,,,,,,,,,,,,,,,,,,,,,,,,,,,,,,,,,,,,,,,,,,1.382,691.6484273998067,None,None,1,691.6484273998067,None,,P015,fencog,1,Pre,2021_Oct_20_1114,N-Back (New Version 2021),2021.1.4,120.67850281068975,
,,,,Conditions/Version_1/twoback(1)_v1.xlsx,New rule: Press 'space' when you see 2-back (i.e. the same letter as the one that appeared 2 letters ago.),r,space,,,,,,,,,0,2,2,2,0,9,9,9,,,,,,,,,,,,,,,,,,,,,,,,,,,,,,,,,,,,,,,,,,,,,,,,,,,,,,,,,,,,,,,,,,,,,1.2022,694.862924200017,None,space,1,694.862924200017,None,0.498373799957335,P015,fencog,1,Pre,2021_Oct_20_1114,N-Back (New Version 2021),2021.1.4,120.67850281068975,
,,,,Conditions/Version_1/twoback(1)_v1.xlsx,New rule: Press 'space' when you see 2-back (i.e. the same letter as the one that appeared 2 letters ago.),,,,,,,,,,,0,2,2,2,,,,,,,,,,,,,,,,,,,,,,,,,,,,,,,,,,,,,,,,,,,,,,,,,,,,,,,,,,,,,,,,,,,,,,,,,,,,,,,,,P015,fencog,1,Pre,2021_Oct_20_1114,N-Back (New Version 2021),2021.1.4,120.67850281068975,
,,,,Conditions/Version_1/threeback(1)_v1.xlsx,New rule: Press 'space' when you see 3-back (i.e. the same letter as the one that appeared 3 letters ago.),r,None,,,,,,,,,0,3,3,3,0,0,0,0,,,,,,,,,,,,,,,,,,,,,,,,,,,,,,,,,,,,,,,,,,,,,,,,,,,,,,,,,,,696.8936244999059,None,699.8713651001453,None,space,8.386653299909085,699.8713651001453,None,696.8936244999059,None,1.8222,710.1159179001115,None,None,1,710.1159179001115,None,,P015,fencog,1,Pre,2021_Oct_20_1114,N-Back (New Version 2021),2021.1.4,120.67850281068975,
,,,,Conditions/Version_1/threeback(1)_v1.xlsx,New rule: Press 'space' when you see 3-back (i.e. the same letter as the one that appeared 3 letters ago.),o,None,,,,,,,,,0,3,3,3,0,1,1,1,,,,,,,,,,,,,,,,,,,,,,,,,,,,,,,,,,,,,,,,,,,,,,,,,,,,,,,,,,,,,,,,,,,,,1.2208,713.3399749998935,None,None,1,713.3399749998935,None,,P015,fencog,1,Pre,2021_Oct_20_1114,N-Back (New Version 2021),2021.1.4,120.67850281068975,
,,,,Conditions/Version_1/threeback(1)_v1.xlsx,New rule: Press 'space' when you see 3-back (i.e. the same letter as the one that appeared 3 letters ago.),P,None,,,,,,,,,0,3,3,3,0,2,2,2,,,,,,,,,,,,,,,,,,,,,,,,,,,,,,,,,,,,,,,,,,,,,,,,,,,,,,,,,,,,,,,,,,,,,1.3262,716.6750890999101,None,None,1,716.6750890999101,None,,P015,fencog,1,Pre,2021_Oct_20_1114,N-Back (New Version 2021),2021.1.4,120.67850281068975,
,,,,Conditions/Version_1/threeback(1)_v1.xlsx,New rule: Press 'space' when you see 3-back (i.e. the same letter as the one that appeared 3 letters ago.),R,space,,,,,,,,,0,3,3,3,0,3,3,3,,,,,,,,,,,,,,,,,,,,,,,,,,,,,,,,,,,,,,,,,,,,,,,,,,,,,,,,,,,,,,,,,,,,,1.6858,720.3723605000414,None,space,1,720.3723605000414,None,0.6691172001883388,P015,fencog,1,Pre,2021_Oct_20_1114,N-Back (New Version 2021),2021.1.4,120.67850281068975,
,,,,Conditions/Version_1/threeback(1)_v1.xlsx,New rule: Press 'space' when you see 3-back (i.e. the same letter as the one that appeared 3 letters ago.),p,None,,,,,,,,,0,3,3,3,0,4,4,4,,,,,,,,,,,,,,,,,,,,,,,,,,,,,,,,,,,,,,,,,,,,,,,,,,,,,,,,,,,,,,,,,,,,,1.8284,724.215614200104,None,None,1,724.215614200104,None,,P015,fencog,1,Pre,2021_Oct_20_1114,N-Back (New Version 2021),2021.1.4,120.67850281068975,
,,,,Conditions/Version_1/threeback(1)_v1.xlsx,New rule: Press 'space' when you see 3-back (i.e. the same letter as the one that appeared 3 letters ago.),E,None,,,,,,,,,0,3,3,3,0,5,5,5,,,,,,,,,,,,,,,,,,,,,,,,,,,,,,,,,,,,,,,,,,,,,,,,,,,,,,,,,,,,,,,,,,,,,1.8098,728.0376808000728,None,None,1,728.0376808000728,None,,P015,fencog,1,Pre,2021_Oct_20_1114,N-Back (New Version 2021),2021.1.4,120.67850281068975,
,,,,Conditions/Version_1/threeback(1)_v1.xlsx,New rule: Press 'space' when you see 3-back (i.e. the same letter as the one that appeared 3 letters ago.),e,None,,,,,,,,,0,3,3,3,0,6,6,6,,,,,,,,,,,,,,,,,,,,,,,,,,,,,,,,,,,,,,,,,,,,,,,,,,,,,,,,,,,,,,,,,,,,,1.4068,731.4534126999788,None,None,1,731.4534126999788,None,,P015,fencog,1,Pre,2021_Oct_20_1114,N-Back (New Version 2021),2021.1.4,120.67850281068975,
,,,,Conditions/Version_1/threeback(1)_v1.xlsx,New rule: Press 'space' when you see 3-back (i.e. the same letter as the one that appeared 3 letters ago.),m,None,,,,,,,,,0,3,3,3,0,7,7,7,,,,,,,,,,,,,,,,,,,,,,,,,,,,,,,,,,,,,,,,,,,,,,,,,,,,,,,,,,,,,,,,,,,,,1.63,735.0942851998843,None,None,1,735.0942851998843,None,,P015,fencog,1,Pre,2021_Oct_20_1114,N-Back (New Version 2021),2021.1.4,120.67850281068975,
,,,,Conditions/Version_1/threeback(1)_v1.xlsx,New rule: Press 'space' when you see 3-back (i.e. the same letter as the one that appeared 3 letters ago.),n,None,,,,,,,,,0,3,3,3,0,8,8,8,,,,,,,,,,,,,,,,,,,,,,,,,,,,,,,,,,,,,,,,,,,,,,,,,,,,,,,,,,,,,,,,,,,,,1.6052,738.7089295997284,None,None,1,738.7089295997284,None,,P015,fencog,1,Pre,2021_Oct_20_1114,N-Back (New Version 2021),2021.1.4,120.67850281068975,
,,,,Conditions/Version_1/threeback(1)_v1.xlsx,New rule: Press 'space' when you see 3-back (i.e. the same letter as the one that appeared 3 letters ago.),e,space,,,,,,,,,0,3,3,3,0,9,9,9,,,,,,,,,,,,,,,,,,,,,,,,,,,,,,,,,,,,,,,,,,,,,,,,,,,,,,,,,,,,,,,,,,,,,1.0534,741.775666099973,None,space,1,741.775666099973,None,0.4024926000274718,P015,fencog,1,Pre,2021_Oct_20_1114,N-Back (New Version 2021),2021.1.4,120.67850281068975,
,,,,Conditions/Version_1/threeback(1)_v1.xlsx,New rule: Press 'space' when you see 3-back (i.e. the same letter as the one that appeared 3 letters ago.),,,,,,,,,,,0,3,3,3,,,,,,,,,,,,,,,,,,,,,,,,,,,,,,,,,,,,,,,,,,,,,,,,,,,,,,,,,,,,,,,,,,,,,,,,,,,,,,,,,P015,fencog,1,Pre,2021_Oct_20_1114,N-Back (New Version 2021),2021.1.4,120.67850281068975,
,,,,Conditions/Version_1/oneback(2)_v1.xlsx,New rule: Press 'space' when you see 1-back (i.e. the same letter as the one that appeared 1 letter ago.),q,None,,,,,,,,,0,4,4,4,0,0,0,0,,,,,,,,,,,,,,,,,,,,,,,,,,,,,,,,,,,,,,,,,,,,,,,,,,,,,,,,,,,743.8051490997896,None,746.7914811000228,None,space,3.481907700188458,746.7914811000228,None,743.8051490997896,None,1.0348,751.3475961000659,None,None,1,751.3475961000659,None,,P015,fencog,1,Pre,2021_Oct_20_1114,N-Back (New Version 2021),2021.1.4,120.67850281068975,
,,,,Conditions/Version_1/oneback(2)_v1.xlsx,New rule: Press 'space' when you see 1-back (i.e. the same letter as the one that appeared 1 letter ago.),Q,space,,,,,,,,,0,4,4,4,0,1,1,1,,,,,,,,,,,,,,,,,,,,,,,,,,,,,,,,,,,,,,,,,,,,,,,,,,,,,,,,,,,,,,,,,,,,,1.4874,754.8480316000059,None,space,1,754.8480316000059,None,0.5294392998330295,P015,fencog,1,Pre,2021_Oct_20_1114,N-Back (New Version 2021),2021.1.4,120.67850281068975,
,,,,Conditions/Version_1/oneback(2)_v1.xlsx,New rule: Press 'space' when you see 1-back (i.e. the same letter as the one that appeared 1 letter ago.),P,None,,,,,,,,,0,4,4,4,0,2,2,2,,,,,,,,,,,,,,,,,,,,,,,,,,,,,,,,,,,,,,,,,,,,,,,,,,,,,,,,,,,,,,,,,,,,,1.971,758.8268027999438,None,None,1,758.8268027999438,None,,P015,fencog,1,Pre,2021_Oct_20_1114,N-Back (New Version 2021),2021.1.4,120.67850281068975,
,,,,Conditions/Version_1/oneback(2)_v1.xlsx,New rule: Press 'space' when you see 1-back (i.e. the same letter as the one that appeared 1 letter ago.),o,None,,,,,,,,,0,4,4,4,0,3,3,3,,,,,,,,,,,,,,,,,,,,,,,,,,,,,,,,,,,,,,,,,,,,,,,,,,,,,,,,,,,,,,,,,,,,,1.072,761.9030822999775,None,None,1,761.9030822999775,None,,P015,fencog,1,Pre,2021_Oct_20_1114,N-Back (New Version 2021),2021.1.4,120.67850281068975,
,,,,Conditions/Version_1/oneback(2)_v1.xlsx,New rule: Press 'space' when you see 1-back (i.e. the same letter as the one that appeared 1 letter ago.),m,None,,,,,,,,,0,4,4,4,0,4,4,4,,,,,,,,,,,,,,,,,,,,,,,,,,,,,,,,,,,,,,,,,,,,,,,,,,,,,,,,,,,,,,,,,,,,,1.909,765.8258541999385,None,None,1,765.8258541999385,None,,P015,fencog,1,Pre,2021_Oct_20_1114,N-Back (New Version 2021),2021.1.4,120.67850281068975,
,,,,Conditions/Version_1/oneback(2)_v1.xlsx,New rule: Press 'space' when you see 1-back (i.e. the same letter as the one that appeared 1 letter ago.),Z,None,,,,,,,,,0,4,4,4,0,5,5,5,,,,,,,,,,,,,,,,,,,,,,,,,,,,,,,,,,,,,,,,,,,,,,,,,,,,,,,,,,,,,,,,,,,,,1.1712,769.009089499712,None,None,1,769.009089499712,None,,P015,fencog,1,Pre,2021_Oct_20_1114,N-Back (New Version 2021),2021.1.4,120.67850281068975,
,,,,Conditions/Version_1/oneback(2)_v1.xlsx,New rule: Press 'space' when you see 1-back (i.e. the same letter as the one that appeared 1 letter ago.),c,None,,,,,,,,,0,4,4,4,0,6,6,6,,,,,,,,,,,,,,,,,,,,,,,,,,,,,,,,,,,,,,,,,,,,,,,,,,,,,,,,,,,,,,,,,,,,,1.5122,772.5327397999354,None,None,1,772.5327397999354,None,,P015,fencog,1,Pre,2021_Oct_20_1114,N-Back (New Version 2021),2021.1.4,120.67850281068975,
,,,,Conditions/Version_1/oneback(2)_v1.xlsx,New rule: Press 'space' when you see 1-back (i.e. the same letter as the one that appeared 1 letter ago.),c,space,,,,,,,,,0,4,4,4,0,7,7,7,,,,,,,,,,,,,,,,,,,,,,,,,,,,,,,,,,,,,,,,,,,,,,,,,,,,,,,,,,,,,,,,,,,,,1.1464,775.6884757000953,None,space,1,775.6884757000953,None,0.3769330997020006,P015,fencog,1,Pre,2021_Oct_20_1114,N-Back (New Version 2021),2021.1.4,120.67850281068975,
,,,,Conditions/Version_1/oneback(2)_v1.xlsx,New rule: Press 'space' when you see 1-back (i.e. the same letter as the one that appeared 1 letter ago.),P,None,,,,,,,,,0,4,4,4,0,8,8,8,,,,,,,,,,,,,,,,,,,,,,,,,,,,,,,,,,,,,,,,,,,,,,,,,,,,,,,,,,,,,,,,,,,,,1.3386,779.0314017999917,None,None,1,779.0314017999917,None,,P015,fencog,1,Pre,2021_Oct_20_1114,N-Back (New Version 2021),2021.1.4,120.67850281068975,
,,,,Conditions/Version_1/oneback(2)_v1.xlsx,New rule: Press 'space' when you see 1-back (i.e. the same letter as the one that appeared 1 letter ago.),p,space,,,,,,,,,0,4,4,4,0,9,9,9,,,,,,,,,,,,,,,,,,,,,,,,,,,,,,,,,,,,,,,,,,,,,,,,,,,,,,,,,,,,,,,,,,,,,1.7602,782.8038968998007,None,space,1,782.8038968998007,None,0.38969199964776635,P015,fencog,1,Pre,2021_Oct_20_1114,N-Back (New Version 2021),2021.1.4,120.67850281068975,
,,,,Conditions/Version_1/oneback(2)_v1.xlsx,New rule: Press 'space' when you see 1-back (i.e. the same letter as the one that appeared 1 letter ago.),,,,,,,,,,,0,4,4,4,,,,,,,,,,,,,,,,,,,,,,,,,,,,,,,,,,,,,,,,,,,,,,,,,,,,,,,,,,,,,,,,,,,,,,,,,,,,,,,,,P015,fencog,1,Pre,2021_Oct_20_1114,N-Back (New Version 2021),2021.1.4,120.67850281068975,
,,,,Conditions/Version_1/zeroback(2)_v1.xlsx,New rule: Press 'space' when you see the letter 'x' or 'X'.,p,None,,,,,,,,,0,5,5,5,0,0,0,0,,,,,,,,,,,,,,,,,,,,,,,,,,,,,,,,,,,,,,,,,,,,,,,,,,,,,,,,,,,784.8310138001107,None,787.8206472997554,None,space,4.940835600253195,787.8206472997554,None,784.8310138001107,None,1.0844,793.8831059001386,None,None,1,793.8831059001386,None,,P015,fencog,1,Pre,2021_Oct_20_1114,N-Back (New Version 2021),2021.1.4,120.67850281068975,
,,,,Conditions/Version_1/zeroback(2)_v1.xlsx,New rule: Press 'space' when you see the letter 'x' or 'X'.,L,None,,,,,,,,,0,5,5,5,0,1,1,1,,,,,,,,,,,,,,,,,,,,,,,,,,,,,,,,,,,,,,,,,,,,,,,,,,,,,,,,,,,,,,,,,,,,,1.7726,797.6588035998866,None,None,1,797.6588035998866,None,,P015,fencog,1,Pre,2021_Oct_20_1114,N-Back (New Version 2021),2021.1.4,120.67850281068975,
,,,,Conditions/Version_1/zeroback(2)_v1.xlsx,New rule: Press 'space' when you see the letter 'x' or 'X'.,G,None,,,,,,,,,0,5,5,5,0,2,2,2,,,,,,,,,,,,,,,,,,,,,,,,,,,,,,,,,,,,,,,,,,,,,,,,,,,,,,,,,,,,,,,,,,,,,1.5866,801.2579155997373,None,None,1,801.2579155997373,None,,P015,fencog,1,Pre,2021_Oct_20_1114,N-Back (New Version 2021),2021.1.4,120.67850281068975,
,,,,Conditions/Version_1/zeroback(2)_v1.xlsx,New rule: Press 'space' when you see the letter 'x' or 'X'.,y,None,,,,,,,,,0,5,5,5,0,3,3,3,,,,,,,,,,,,,,,,,,,,,,,,,,,,,,,,,,,,,,,,,,,,,,,,,,,,,,,,,,,,,,,,,,,,,1.4316,804.6982086999342,None,None,1,804.6982086999342,None,,P015,fencog,1,Pre,2021_Oct_20_1114,N-Back (New Version 2021),2021.1.4,120.67850281068975,
,,,,Conditions/Version_1/zeroback(2)_v1.xlsx,New rule: Press 'space' when you see the letter 'x' or 'X'.,Y,None,,,,,,,,,0,5,5,5,0,4,4,4,,,,,,,,,,,,,,,,,,,,,,,,,,,,,,,,,,,,,,,,,,,,,,,,,,,,,,,,,,,,,,,,,,,,,1.816,808.5242691999301,None,None,1,808.5242691999301,None,,P015,fencog,1,Pre,2021_Oct_20_1114,N-Back (New Version 2021),2021.1.4,120.67850281068975,
,,,,Conditions/Version_1/zeroback(2)_v1.xlsx,New rule: Press 'space' when you see the letter 'x' or 'X'.,W,None,,,,,,,,,0,5,5,5,0,5,5,5,,,,,,,,,,,,,,,,,,,,,,,,,,,,,,,,,,,,,,,,,,,,,,,,,,,,,,,,,,,,,,,,,,,,,1.289,811.8241830999032,None,None,1,811.8241830999032,None,,P015,fencog,1,Pre,2021_Oct_20_1114,N-Back (New Version 2021),2021.1.4,120.67850281068975,
,,,,Conditions/Version_1/zeroback(2)_v1.xlsx,New rule: Press 'space' when you see the letter 'x' or 'X'.,x,space,,,,,,,,,0,5,5,5,0,6,6,6,,,,,,,,,,,,,,,,,,,,,,,,,,,,,,,,,,,,,,,,,,,,,,,,,,,,,,,,,,,,,,,,,,,,,1.382,815.2106057000346,None,space,1,815.2106057000346,None,0.3350378000177443,P015,fencog,1,Pre,2021_Oct_20_1114,N-Back (New Version 2021),2021.1.4,120.67850281068975,
,,,,Conditions/Version_1/zeroback(2)_v1.xlsx,New rule: Press 'space' when you see the letter 'x' or 'X'.,X,space,,,,,,,,,0,5,5,5,0,7,7,7,,,,,,,,,,,,,,,,,,,,,,,,,,,,,,,,,,,,,,,,,,,,,,,,,,,,,,,,,,,,,,,,,,,,,1.1898,818.4026345000602,None,space,1,818.4026345000602,None,0.45520960027351975,P015,fencog,1,Pre,2021_Oct_20_1114,N-Back (New Version 2021),2021.1.4,120.67850281068975,
,,,,Conditions/Version_1/zeroback(2)_v1.xlsx,New rule: Press 'space' when you see the letter 'x' or 'X'.,p,None,,,,,,,,,0,5,5,5,0,8,8,8,,,,,,,,,,,,,,,,,,,,,,,,,,,,,,,,,,,,,,,,,,,,,,,,,,,,,,,,,,,,,,,,,,,,,1.5742,821.9840919999406,None,None,1,821.9840919999406,None,,P015,fencog,1,Pre,2021_Oct_20_1114,N-Back (New Version 2021),2021.1.4,120.67850281068975,
,,,,Conditions/Version_1/zeroback(2)_v1.xlsx,New rule: Press 'space' when you see the letter 'x' or 'X'.,h,None,,,,,,,,,0,5,5,5,0,9,9,9,,,,,,,,,,,,,,,,,,,,,,,,,,,,,,,,,,,,,,,,,,,,,,,,,,,,,,,,,,,,,,,,,,,,,1.568,825.5674499999732,None,None,1,825.5674499999732,None,,P015,fencog,1,Pre,2021_Oct_20_1114,N-Back (New Version 2021),2021.1.4,120.67850281068975,
,,,,Conditions/Version_1/zeroback(2)_v1.xlsx,New rule: Press 'space' when you see the letter 'x' or 'X'.,,,,,,,,,,,0,5,5,5,,,,,,,,,,,,,,,,,,,,,,,,,,,,,,,,,,,,,,,,,,,,,,,,,,,,,,,,,,,,,,,,,,,,,,,,,,,,,,,,,P015,fencog,1,Pre,2021_Oct_20_1114,N-Back (New Version 2021),2021.1.4,120.67850281068975,
,,,,Conditions/Version_1/threeback(2)_v1.xlsx,New rule: Press 'space' when you see 3-back (i.e. the same letter as the one that appeared 3 letters ago.),q,None,,,,,,,,,0,6,6,6,0,0,0,0,,,,,,,,,,,,,,,,,,,,,,,,,,,,,,,,,,,,,,,,,,,,,,,,,,,,,,,,,,,827.6062893001363,None,830.5831125997938,None,space,2.762391499709338,830.5831125997938,None,827.6062893001363,None,1.01,834.3792504998855,None,None,1,834.3792504998855,None,,P015,fencog,1,Pre,2021_Oct_20_1114,N-Back (New Version 2021),2021.1.4,120.67850281068975,
,,,,Conditions/Version_1/threeback(2)_v1.xlsx,New rule: Press 'space' when you see 3-back (i.e. the same letter as the one that appeared 3 letters ago.),Y,None,,,,,,,,,0,6,6,6,0,1,1,1,,,,,,,,,,,,,,,,,,,,,,,,,,,,,,,,,,,,,,,,,,,,,,,,,,,,,,,,,,,,,,,,,,,,,1.8284,838.2141744997352,None,None,1,838.2141744997352,None,,P015,fencog,1,Pre,2021_Oct_20_1114,N-Back (New Version 2021),2021.1.4,120.67850281068975,
,,,,Conditions/Version_1/threeback(2)_v1.xlsx,New rule: Press 'space' when you see 3-back (i.e. the same letter as the one that appeared 3 letters ago.),p,None,,,,,,,,,0,6,6,6,0,2,2,2,,,,,,,,,,,,,,,,,,,,,,,,,,,,,,,,,,,,,,,,,,,,,,,,,,,,,,,,,,,,,,,,,,,,,1.8656,842.0873941001482,None,None,1,842.0873941001482,None,,P015,fencog,1,Pre,2021_Oct_20_1114,N-Back (New Version 2021),2021.1.4,120.67850281068975,
,,,,Conditions/Version_1/threeback(2)_v1.xlsx,New rule: Press 'space' when you see 3-back (i.e. the same letter as the one that appeared 3 letters ago.),p,None,,,,,,,,,0,6,6,6,0,3,3,3,,,,,,,,,,,,,,,,,,,,,,,,,,,,,,,,,,,,,,,,,,,,,,,,,,,,,,,,,,,,,,,,,,,,,1.9648,846.0595084000379,None,None,1,846.0595084000379,None,,P015,fencog,1,Pre,2021_Oct_20_1114,N-Back (New Version 2021),2021.1.4,120.67850281068975,
,,,,Conditions/Version_1/threeback(2)_v1.xlsx,New rule: Press 'space' when you see 3-back (i.e. the same letter as the one that appeared 3 letters ago.),y,space,,,,,,,,,0,6,6,6,0,4,4,4,,,,,,,,,,,,,,,,,,,,,,,,,,,,,,,,,,,,,,,,,,,,,,,,,,,,,,,,,,,,,,,,,,,,,1.94,850.0096804997884,None,space,1,850.0096804997884,None,0.8636390999890864,P015,fencog,1,Pre,2021_Oct_20_1114,N-Back (New Version 2021),2021.1.4,120.67850281068975,
,,,,Conditions/Version_1/threeback(2)_v1.xlsx,New rule: Press 'space' when you see 3-back (i.e. the same letter as the one that appeared 3 letters ago.),u,None,,,,,,,,,0,6,6,6,0,5,5,5,,,,,,,,,,,,,,,,,,,,,,,,,,,,,,,,,,,,,,,,,,,,,,,,,,,,,,,,,,,,,,,,,,,,,1.1526,853.175047900062,None,None,1,853.175047900062,None,,P015,fencog,1,Pre,2021_Oct_20_1114,N-Back (New Version 2021),2021.1.4,120.67850281068975,
,,,,Conditions/Version_1/threeback(2)_v1.xlsx,New rule: Press 'space' when you see 3-back (i.e. the same letter as the one that appeared 3 letters ago.),P,space,,,,,,,,,0,6,6,6,0,6,6,6,,,,,,,,,,,,,,,,,,,,,,,,,,,,,,,,,,,,,,,,,,,,,,,,,,,,,,,,,,,,,,,,,,,,,1.2394,856.4242604998872,None,space,1,856.4242604998872,None,0.7856105002574623,P015,fencog,1,Pre,2021_Oct_20_1114,N-Back (New Version 2021),2021.1.4,120.67850281068975,
,,,,Conditions/Version_1/threeback(2)_v1.xlsx,New rule: Press 'space' when you see 3-back (i.e. the same letter as the one that appeared 3 letters ago.),a,None,,,,,,,,,0,6,6,6,0,7,7,7,,,,,,,,,,,,,,,,,,,,,,,,,,,,,,,,,,,,,,,,,,,,,,,,,,,,,,,,,,,,,,,,,,,,,1.3386,859.7738123997115,None,None,1,859.7738123997115,None,,P015,fencog,1,Pre,2021_Oct_20_1114,N-Back (New Version 2021),2021.1.4,120.67850281068975,
,,,,Conditions/Version_1/threeback(2)_v1.xlsx,New rule: Press 'space' when you see 3-back (i.e. the same letter as the one that appeared 3 letters ago.),U,space,,,,,,,,,0,6,6,6,0,8,8,8,,,,,,,,,,,,,,,,,,,,,,,,,,,,,,,,,,,,,,,,,,,,,,,,,,,,,,,,,,,,,,,,,,,,,1.1836,862.9665823001415,None,space,1,862.9665823001415,None,0.7630209000781178,P015,fencog,1,Pre,2021_Oct_20_1114,N-Back (New Version 2021),2021.1.4,120.67850281068975,
,,,,Conditions/Version_1/threeback(2)_v1.xlsx,New rule: Press 'space' when you see 3-back (i.e. the same letter as the one that appeared 3 letters ago.),q,None,,,,,,,,,0,6,6,6,0,9,9,9,,,,,,,,,,,,,,,,,,,,,,,,,,,,,,,,,,,,,,,,,,,,,,,,,,,,,,,,,,,,,,,,,,,,,1.32,866.2957731001079,None,None,1,866.2957731001079,None,,P015,fencog,1,Pre,2021_Oct_20_1114,N-Back (New Version 2021),2021.1.4,120.67850281068975,
,,,,Conditions/Version_1/threeback(2)_v1.xlsx,New rule: Press 'space' when you see 3-back (i.e. the same letter as the one that appeared 3 letters ago.),,,,,,,,,,,0,6,6,6,,,,,,,,,,,,,,,,,,,,,,,,,,,,,,,,,,,,,,,,,,,,,,,,,,,,,,,,,,,,,,,,,,,,,,,,,,,,,,,,,P015,fencog,1,Pre,2021_Oct_20_1114,N-Back (New Version 2021),2021.1.4,120.67850281068975,
,,,,Conditions/Version_1/twoback(2)_v1.xlsx,New rule: Press 'space' when you see 2-back (i.e. the same letter as the one that appeared 2 letters ago.),q,None,,,,,,,,,0,7,7,7,0,0,0,0,,,,,,,,,,,,,,,,,,,,,,,,,,,,,,,,,,,,,,,,,,,,,,,,,,,,,,,,,,,868.3291354998946,None,871.3129046997055,None,space,6.928511200007051,871.3129046997055,None,868.3291354998946,None,1.2828,879.5496787996963,None,None,1,879.5496787996963,None,,P015,fencog,1,Pre,2021_Oct_20_1114,N-Back (New Version 2021),2021.1.4,120.67850281068975,
,,,,Conditions/Version_1/twoback(2)_v1.xlsx,New rule: Press 'space' when you see 2-back (i.e. the same letter as the one that appeared 2 letters ago.),r,None,,,,,,,,,0,7,7,7,0,1,1,1,,,,,,,,,,,,,,,,,,,,,,,,,,,,,,,,,,,,,,,,,,,,,,,,,,,,,,,,,,,,,,,,,,,,,1.1402,882.6921644001268,None,None,1,882.6921644001268,None,,P015,fencog,1,Pre,2021_Oct_20_1114,N-Back (New Version 2021),2021.1.4,120.67850281068975,
,,,,Conditions/Version_1/twoback(2)_v1.xlsx,New rule: Press 'space' when you see 2-back (i.e. the same letter as the one that appeared 2 letters ago.),q,space,,,,,,,,,0,7,7,7,0,2,2,2,,,,,,,,,,,,,,,,,,,,,,,,,,,,,,,,,,,,,,,,,,,,,,,,,,,,,,,,,,,,,,,,,,,,,1.599,886.3000440998003,None,space,1,886.3000440998003,None,0.5733894999139011,P015,fencog,1,Pre,2021_Oct_20_1114,N-Back (New Version 2021),2021.1.4,120.67850281068975,
,,,,Conditions/Version_1/twoback(2)_v1.xlsx,New rule: Press 'space' when you see 2-back (i.e. the same letter as the one that appeared 2 letters ago.),P,None,,,,,,,,,0,7,7,7,0,3,3,3,,,,,,,,,,,,,,,,,,,,,,,,,,,,,,,,,,,,,,,,,,,,,,,,,,,,,,,,,,,,,,,,,,,,,1.7788,890.0909899999388,None,None,1,890.0909899999388,None,,P015,fencog,1,Pre,2021_Oct_20_1114,N-Back (New Version 2021),2021.1.4,120.67850281068975,
,,,,Conditions/Version_1/twoback(2)_v1.xlsx,New rule: Press 'space' when you see 2-back (i.e. the same letter as the one that appeared 2 letters ago.),p,None,,,,,,,,,0,7,7,7,0,4,4,4,,,,,,,,,,,,,,,,,,,,,,,,,,,,,,,,,,,,,,,,,,,,,,,,,,,,,,,,,,,,,,,,,,,,,1.041,893.139159000013,None,None,1,893.139159000013,None,,P015,fencog,1,Pre,2021_Oct_20_1114,N-Back (New Version 2021),2021.1.4,120.67850281068975,
,,,,Conditions/Version_1/twoback(2)_v1.xlsx,New rule: Press 'space' when you see 2-back (i.e. the same letter as the one that appeared 2 letters ago.),H,None,,,,,,,,,0,7,7,7,0,5,5,5,,,,,,,,,,,,,,,,,,,,,,,,,,,,,,,,,,,,,,,,,,,,,,,,,,,,,,,,,,,,,,,,,,,,,1.0348,896.1862101997249,None,None,1,896.1862101997249,None,,P015,fencog,1,Pre,2021_Oct_20_1114,N-Back (New Version 2021),2021.1.4,120.67850281068975,
,,,,Conditions/Version_1/twoback(2)_v1.xlsx,New rule: Press 'space' when you see 2-back (i.e. the same letter as the one that appeared 2 letters ago.),g,None,,,,,,,,,0,7,7,7,0,6,6,6,,,,,,,,,,,,,,,,,,,,,,,,,,,,,,,,,,,,,,,,,,,,,,,,,,,,,,,,,,,,,,,,,,,,,1.32,899.512047899887,None,None,1,899.512047899887,None,,P015,fencog,1,Pre,2021_Oct_20_1114,N-Back (New Version 2021),2021.1.4,120.67850281068975,
,,,,Conditions/Version_1/twoback(2)_v1.xlsx,New rule: Press 'space' when you see 2-back (i.e. the same letter as the one that appeared 2 letters ago.),j,None,,,,,,,,,0,7,7,7,0,7,7,7,,,,,,,,,,,,,,,,,,,,,,,,,,,,,,,,,,,,,,,,,,,,,,,,,,,,,,,,,,,,,,,,,,,,,1.7974,903.3193012997508,None,None,1,903.3193012997508,None,,P015,fencog,1,Pre,2021_Oct_20_1114,N-Back (New Version 2021),2021.1.4,120.67850281068975,
,,,,Conditions/Version_1/twoback(2)_v1.xlsx,New rule: Press 'space' when you see 2-back (i.e. the same letter as the one that appeared 2 letters ago.),g,space,,,,,,,,,0,7,7,7,0,8,8,8,,,,,,,,,,,,,,,,,,,,,,,,,,,,,,,,,,,,,,,,,,,,,,,,,,,,,,,,,,,,,,,,,,,,,1.6548,906.9857862000354,None,space,1,906.9857862000354,None,0.4398850002326071,P015,fencog,1,Pre,2021_Oct_20_1114,N-Back (New Version 2021),2021.1.4,120.67850281068975,
,,,,Conditions/Version_1/twoback(2)_v1.xlsx,New rule: Press 'space' when you see 2-back (i.e. the same letter as the one that appeared 2 letters ago.),G,None,,,,,,,,,0,7,7,7,0,9,9,9,,,,,,,,,,,,,,,,,,,,,,,,,,,,,,,,,,,,,,,,,,,,,,,,,,,,,,,,,,,,,,,,,,,,,1.6486,910.6442745998502,None,None,1,910.6442745998502,None,,P015,fencog,1,Pre,2021_Oct_20_1114,N-Back (New Version 2021),2021.1.4,120.67850281068975,
,,,,Conditions/Version_1/twoback(2)_v1.xlsx,New rule: Press 'space' when you see 2-back (i.e. the same letter as the one that appeared 2 letters ago.),,,,,,,,,,,0,7,7,7,,,,,,,,,,,,,,,,,,,,,,,,,,,,,,,,,,,,,,,,,,,,,,,,,,,,,,,,,,,,,,,,,,,,,,,,,,,,,,,,,P015,fencog,1,Pre,2021_Oct_20_1114,N-Back (New Version 2021),2021.1.4,120.67850281068975,
,,,,Conditions/Version_1/threeback(3)_v1.xlsx,New rule: Press 'space' when you see 3-back (i.e. the same letter as the one that appeared 3 letters ago.),w,None,,,,,,,,,0,8,8,8,0,0,0,0,,,,,,,,,,,,,,,,,,,,,,,,,,,,,,,,,,,,,,,,,,,,,,,,,,,,,,,,,,,912.6726993997581,None,915.6589705999941,None,space,1.334560299757868,915.6589705999941,None,912.6726993997581,None,1.8284,918.8483559000306,None,None,1,918.8483559000306,None,,P015,fencog,1,Pre,2021_Oct_20_1114,N-Back (New Version 2021),2021.1.4,120.67850281068975,
,,,,Conditions/Version_1/threeback(3)_v1.xlsx,New rule: Press 'space' when you see 3-back (i.e. the same letter as the one that appeared 3 letters ago.),p,None,,,,,,,,,0,8,8,8,0,1,1,1,,,,,,,,,,,,,,,,,,,,,,,,,,,,,,,,,,,,,,,,,,,,,,,,,,,,,,,,,,,,,,,,,,,,,1.382,922.2392083997838,None,None,1,922.2392083997838,None,,P015,fencog,1,Pre,2021_Oct_20_1114,N-Back (New Version 2021),2021.1.4,120.67850281068975,
,,,,Conditions/Version_1/threeback(3)_v1.xlsx,New rule: Press 'space' when you see 3-back (i.e. the same letter as the one that appeared 3 letters ago.),P,None,,,,,,,,,0,8,8,8,0,2,2,2,,,,,,,,,,,,,,,,,,,,,,,,,,,,,,,,,,,,,,,,,,,,,,,,,,,,,,,,,,,,,,,,,,,,,1.9772,926.2294254000299,None,None,1,926.2294254000299,None,,P015,fencog,1,Pre,2021_Oct_20_1114,N-Back (New Version 2021),2021.1.4,120.67850281068975,
,,,,Conditions/Version_1/threeback(3)_v1.xlsx,New rule: Press 'space' when you see 3-back (i.e. the same letter as the one that appeared 3 letters ago.),i,None,,,,,,,,,0,8,8,8,0,3,3,3,,,,,,,,,,,,,,,,,,,,,,,,,,,,,,,,,,,,,,,,,,,,,,,,,,,,,,,,,,,,,,,,,,,,,1.878,930.1188904000446,None,None,1,930.1188904000446,None,,P015,fencog,1,Pre,2021_Oct_20_1114,N-Back (New Version 2021),2021.1.4,120.67850281068975,
,,,,Conditions/Version_1/threeback(3)_v1.xlsx,New rule: Press 'space' when you see 3-back (i.e. the same letter as the one that appeared 3 letters ago.),f,None,,,,,,,,,0,8,8,8,0,4,4,4,,,,,,,,,,,,,,,,,,,,,,,,,,,,,,,,,,,,,,,,,,,,,,,,,,,,,,,,,,,,,,,,,,,,,1.6052,933.734546400141,None,None,1,933.734546400141,None,,P015,fencog,1,Pre,2021_Oct_20_1114,N-Back (New Version 2021),2021.1.4,120.67850281068975,
,,,,Conditions/Version_1/threeback(3)_v1.xlsx,New rule: Press 'space' when you see 3-back (i.e. the same letter as the one that appeared 3 letters ago.),o,None,,,,,,,,,0,8,8,8,0,5,5,5,,,,,,,,,,,,,,,,,,,,,,,,,,,,,,,,,,,,,,,,,,,,,,,,,,,,,,,,,,,,,,,,,,,,,1.289,937.0347989997827,None,None,1,937.0347989997827,None,,P015,fencog,1,Pre,2021_Oct_20_1114,N-Back (New Version 2021),2021.1.4,120.67850281068975,
,,,,Conditions/Version_1/threeback(3)_v1.xlsx,New rule: Press 'space' when you see 3-back (i.e. the same letter as the one that appeared 3 letters ago.),w,None,,,,,,,,,0,8,8,8,0,6,6,6,,,,,,,,,,,,,,,,,,,,,,,,,,,,,,,,,,,,,,,,,,,,,,,,,,,,,,,,,,,,,,,,,,,,,1.5556,940.6003100997768,None,None,1,940.6003100997768,None,,P015,fencog,1,Pre,2021_Oct_20_1114,N-Back (New Version 2021),2021.1.4,120.67850281068975,
,,,,Conditions/Version_1/threeback(3)_v1.xlsx,New rule: Press 'space' when you see 3-back (i.e. the same letter as the one that appeared 3 letters ago.),F,space,,,,,,,,,0,8,8,8,0,7,7,7,,,,,,,,,,,,,,,,,,,,,,,,,,,,,,,,,,,,,,,,,,,,,,,,,,,,,,,,,,,,,,,,,,,,,1.01,943.6267808000557,None,space,1,943.6267808000557,None,0.7346479999832809,P015,fencog,1,Pre,2021_Oct_20_1114,N-Back (New Version 2021),2021.1.4,120.67850281068975,
,,,,Conditions/Version_1/threeback(3)_v1.xlsx,New rule: Press 'space' when you see 3-back (i.e. the same letter as the one that appeared 3 letters ago.),p,None,,,,,,,,,0,8,8,8,0,8,8,8,,,,,,,,,,,,,,,,,,,,,,,,,,,,,,,,,,,,,,,,,,,,,,,,,,,,,,,,,,,,,,,,,,,,,1.32,946.9546453999355,None,None,1,946.9546453999355,None,,P015,fencog,1,Pre,2021_Oct_20_1114,N-Back (New Version 2021),2021.1.4,120.67850281068975,
,,,,Conditions/Version_1/threeback(3)_v1.xlsx,New rule: Press 'space' when you see 3-back (i.e. the same letter as the one that appeared 3 letters ago.),W,space,,,,,,,,,0,8,8,8,0,9,9,9,,,,,,,,,,,,,,,,,,,,,,,,,,,,,,,,,,,,,,,,,,,,,,,,,,,,,,,,,,,,,,,,,,,,,1.4192,950.3811844997108,None,space,1,950.3811844997108,None,0.7165983999148011,P015,fencog,1,Pre,2021_Oct_20_1114,N-Back (New Version 2021),2021.1.4,120.67850281068975,
,,,,Conditions/Version_1/threeback(3)_v1.xlsx,New rule: Press 'space' when you see 3-back (i.e. the same letter as the one that appeared 3 letters ago.),,,,,,,,,,,0,8,8,8,,,,,,,,,,,,,,,,,,,,,,,,,,,,,,,,,,,,,,,,,,,,,,,,,,,,,,,,,,,,,,,,,,,,,,,,,,,,,,,,,P015,fencog,1,Pre,2021_Oct_20_1114,N-Back (New Version 2021),2021.1.4,120.67850281068975,
,,,,Conditions/Version_1/zeroback(3)_v1.xlsx,New rule: Press 'space' when you see the letter 'x' or 'X'.,X,space,,,,,,,,,0,9,9,9,0,0,0,0,,,,,,,,,,,,,,,,,,,,,,,,,,,,,,,,,,,,,,,,,,,,,,,,,,,,,,,,,,,952.4079669001512,None,955.3960083001293,None,space,0.7732077999971807,955.3960083001293,None,952.4079669001512,None,1.9772,958.1782212001272,None,space,1,958.1782212001272,None,0.6633337000384927,P015,fencog,1,Pre,2021_Oct_20_1114,N-Back (New Version 2021),2021.1.4,120.67850281068975,
,,,,Conditions/Version_1/zeroback(3)_v1.xlsx,New rule: Press 'space' when you see the letter 'x' or 'X'.,B,None,,,,,,,,,0,9,9,9,0,1,1,1,,,,,,,,,,,,,,,,,,,,,,,,,,,,,,,,,,,,,,,,,,,,,,,,,,,,,,,,,,,,,,,,,,,,,1.692,961.8784288000315,None,space,0,961.8784288000315,None,0.363270899746567,P015,fencog,1,Pre,2021_Oct_20_1114,N-Back (New Version 2021),2021.1.4,120.67850281068975,
,,,,Conditions/Version_1/zeroback(3)_v1.xlsx,New rule: Press 'space' when you see the letter 'x' or 'X'.,m,None,,,,,,,,,0,9,9,9,0,2,2,2,,,,,,,,,,,,,,,,,,,,,,,,,,,,,,,,,,,,,,,,,,,,,,,,,,,,,,,,,,,,,,,,,,,,,1.258,965.1410484998487,None,None,1,965.1410484998487,None,,P015,fencog,1,Pre,2021_Oct_20_1114,N-Back (New Version 2021),2021.1.4,120.67850281068975,
,,,,Conditions/Version_1/zeroback(3)_v1.xlsx,New rule: Press 'space' when you see the letter 'x' or 'X'.,m,None,,,,,,,,,0,9,9,9,0,3,3,3,,,,,,,,,,,,,,,,,,,,,,,,,,,,,,,,,,,,,,,,,,,,,,,,,,,,,,,,,,,,,,,,,,,,,1.9338,969.0733094997704,None,None,1,969.0733094997704,None,,P015,fencog,1,Pre,2021_Oct_20_1114,N-Back (New Version 2021),2021.1.4,120.67850281068975,
,,,,Conditions/Version_1/zeroback(3)_v1.xlsx,New rule: Press 'space' when you see the letter 'x' or 'X'.,o,None,,,,,,,,,0,9,9,9,0,4,4,4,,,,,,,,,,,,,,,,,,,,,,,,,,,,,,,,,,,,,,,,,,,,,,,,,,,,,,,,,,,,,,,,,,,,,1.4998,972.5722920000553,None,None,1,972.5722920000553,None,,P015,fencog,1,Pre,2021_Oct_20_1114,N-Back (New Version 2021),2021.1.4,120.67850281068975,
,,,,Conditions/Version_1/zeroback(3)_v1.xlsx,New rule: Press 'space' when you see the letter 'x' or 'X'.,p,None,,,,,,,,,0,9,9,9,0,5,5,5,,,,,,,,,,,,,,,,,,,,,,,,,,,,,,,,,,,,,,,,,,,,,,,,,,,,,,,,,,,,,,,,,,,,,1.227,975.8058535000309,None,space,0,975.8058535000309,None,1.6597696002572775,P015,fencog,1,Pre,2021_Oct_20_1114,N-Back (New Version 2021),2021.1.4,120.67850281068975,
,,,,Conditions/Version_1/zeroback(3)_v1.xlsx,New rule: Press 'space' when you see the letter 'x' or 'X'.,G,None,,,,,,,,,0,9,9,9,0,6,6,6,,,,,,,,,,,,,,,,,,,,,,,,,,,,,,,,,,,,,,,,,,,,,,,,,,,,,,,,,,,,,,,,,,,,,1.9834,979.7950005996972,None,None,1,979.7950005996972,None,,P015,fencog,1,Pre,2021_Oct_20_1114,N-Back (New Version 2021),2021.1.4,120.67850281068975,
,,,,Conditions/Version_1/zeroback(3)_v1.xlsx,New rule: Press 'space' when you see the letter 'x' or 'X'.,X,space,,,,,,,,,0,9,9,9,0,7,7,7,,,,,,,,,,,,,,,,,,,,,,,,,,,,,,,,,,,,,,,,,,,,,,,,,,,,,,,,,,,,,,,,,,,,,1.3076,983.1035544001497,None,space,1,983.1035544001497,None,0.401868199929595,P015,fencog,1,Pre,2021_Oct_20_1114,N-Back (New Version 2021),2021.1.4,120.67850281068975,
,,,,Conditions/Version_1/zeroback(3)_v1.xlsx,New rule: Press 'space' when you see the letter 'x' or 'X'.,p,None,,,,,,,,,0,9,9,9,0,8,8,8,,,,,,,,,,,,,,,,,,,,,,,,,,,,,,,,,,,,,,,,,,,,,,,,,,,,,,,,,,,,,,,,,,,,,1.2828,986.3952347999439,None,None,1,986.3952347999439,None,,P015,fencog,1,Pre,2021_Oct_20_1114,N-Back (New Version 2021),2021.1.4,120.67850281068975,
,,,,Conditions/Version_1/zeroback(3)_v1.xlsx,New rule: Press 'space' when you see the letter 'x' or 'X'.,x,space,,,,,,,,,0,9,9,9,0,9,9,9,,,,,,,,,,,,,,,,,,,,,,,,,,,,,,,,,,,,,,,,,,,,,,,,,,,,,,,,,,,,,,,,,,,,,1.1898,989.5943176997826,None,space,1,989.5943176997826,None,0.4715296998620033,P015,fencog,1,Pre,2021_Oct_20_1114,N-Back (New Version 2021),2021.1.4,120.67850281068975,
,,,,Conditions/Version_1/zeroback(3)_v1.xlsx,New rule: Press 'space' when you see the letter 'x' or 'X'.,,,,,,,,,,,0,9,9,9,,,,,,,,,,,,,,,,,,,,,,,,,,,,,,,,,,,,,,,,,,,,,,,,,,,,,,,,,,,,,,,,,,,,,,,,,,,,,,,,,P015,fencog,1,Pre,2021_Oct_20_1114,N-Back (New Version 2021),2021.1.4,120.67850281068975,
,,,,Conditions/Version_1/twoback(3)_v1.xlsx,New rule: Press 'space' when you see 2-back (i.e. the same letter as the one that appeared 2 letters ago.),e,None,,,,,,,,,0,10,10,10,0,0,0,0,,,,,,,,,,,,,,,,,,,,,,,,,,,,,,,,,,,,,,,,,,,,,,,,,,,,,,,,,,,991.623439299874,None,994.6091828998178,None,space,0.8005698998458683,994.6091828998178,None,991.623439299874,None,1.878,997.3077761000022,None,None,1,997.3077761000022,None,,P015,fencog,1,Pre,2021_Oct_20_1114,N-Back (New Version 2021),2021.1.4,120.67850281068975,
,,,,Conditions/Version_1/twoback(3)_v1.xlsx,New rule: Press 'space' when you see 2-back (i.e. the same letter as the one that appeared 2 letters ago.),o,None,,,,,,,,,0,10,10,10,0,1,1,1,,,,,,,,,,,,,,,,,,,,,,,,,,,,,,,,,,,,,,,,,,,,,,,,,,,,,,,,,,,,,,,,,,,,,1.909,1001.2323130001314,None,None,1,1001.2323130001314,None,,P015,fencog,1,Pre,2021_Oct_20_1114,N-Back (New Version 2021),2021.1.4,120.67850281068975,
,,,,Conditions/Version_1/twoback(3)_v1.xlsx,New rule: Press 'space' when you see 2-back (i.e. the same letter as the one that appeared 2 letters ago.),P,None,,,,,,,,,0,10,10,10,0,2,2,2,,,,,,,,,,,,,,,,,,,,,,,,,,,,,,,,,,,,,,,,,,,,,,,,,,,,,,,,,,,,,,,,,,,,,1.4564,1004.6960603999905,None,None,1,1004.6960603999905,None,,P015,fencog,1,Pre,2021_Oct_20_1114,N-Back (New Version 2021),2021.1.4,120.67850281068975,
,,,,Conditions/Version_1/twoback(3)_v1.xlsx,New rule: Press 'space' when you see 2-back (i.e. the same letter as the one that appeared 2 letters ago.),z,None,,,,,,,,,0,10,10,10,0,3,3,3,,,,,,,,,,,,,,,,,,,,,,,,,,,,,,,,,,,,,,,,,,,,,,,,,,,,,,,,,,,,,,,,,,,,,1.6796,1008.3831678000279,None,None,1,1008.3831678000279,None,,P015,fencog,1,Pre,2021_Oct_20_1114,N-Back (New Version 2021),2021.1.4,120.67850281068975,
,,,,Conditions/Version_1/twoback(3)_v1.xlsx,New rule: Press 'space' when you see 2-back (i.e. the same letter as the one that appeared 2 letters ago.),X,None,,,,,,,,,0,10,10,10,0,4,4,4,,,,,,,,,,,,,,,,,,,,,,,,,,,,,,,,,,,,,,,,,,,,,,,,,,,,,,,,,,,,,,,,,,,,,1.6114,1012.0022967997938,None,None,1,1012.0022967997938,None,,P015,fencog,1,Pre,2021_Oct_20_1114,N-Back (New Version 2021),2021.1.4,120.67850281068975,
,,,,Conditions/Version_1/twoback(3)_v1.xlsx,New rule: Press 'space' when you see 2-back (i.e. the same letter as the one that appeared 2 letters ago.),z,space,,,,,,,,,0,10,10,10,0,5,5,5,,,,,,,,,,,,,,,,,,,,,,,,,,,,,,,,,,,,,,,,,,,,,,,,,,,,,,,,,,,,,,,,,,,,,1.6238,1015.6273149000481,None,space,1,1015.6273149000481,None,0.34247330017387867,P015,fencog,1,Pre,2021_Oct_20_1114,N-Back (New Version 2021),2021.1.4,120.67850281068975,
,,,,Conditions/Version_1/twoback(3)_v1.xlsx,New rule: Press 'space' when you see 2-back (i.e. the same letter as the one that appeared 2 letters ago.),x,space,,,,,,,,,0,10,10,10,0,6,6,6,,,,,,,,,,,,,,,,,,,,,,,,,,,,,,,,,,,,,,,,,,,,,,,,,,,,,,,,,,,,,,,,,,,,,1.0658,1018.7021236000583,None,space,1,1018.7021236000583,None,0.8114331997931004,P015,fencog,1,Pre,2021_Oct_20_1114,N-Back (New Version 2021),2021.1.4,120.67850281068975,
,,,,Conditions/Version_1/twoback(3)_v1.xlsx,New rule: Press 'space' when you see 2-back (i.e. the same letter as the one that appeared 2 letters ago.),c,None,,,,,,,,,0,10,10,10,0,7,7,7,,,,,,,,,,,,,,,,,,,,,,,,,,,,,,,,,,,,,,,,,,,,,,,,,,,,,,,,,,,,,,,,,,,,,1.0906,1021.8005344001576,None,None,1,1021.8005344001576,None,,P015,fencog,1,Pre,2021_Oct_20_1114,N-Back (New Version 2021),2021.1.4,120.67850281068975,
,,,,Conditions/Version_1/twoback(3)_v1.xlsx,New rule: Press 'space' when you see 2-back (i.e. the same letter as the one that appeared 2 letters ago.),i,None,,,,,,,,,0,10,10,10,0,8,8,8,,,,,,,,,,,,,,,,,,,,,,,,,,,,,,,,,,,,,,,,,,,,,,,,,,,,,,,,,,,,,,,,,,,,,1.5742,1025.3827510001138,None,None,1,1025.3827510001138,None,,P015,fencog,1,Pre,2021_Oct_20_1114,N-Back (New Version 2021),2021.1.4,120.67850281068975,
,,,,Conditions/Version_1/twoback(3)_v1.xlsx,New rule: Press 'space' when you see 2-back (i.e. the same letter as the one that appeared 2 letters ago.),C,space,,,,,,,,,0,10,10,10,0,9,9,9,,,,,,,,,,,,,,,,,,,,,,,,,,,,,,,,,,,,,,,,,,,,,,,,,,,,,,,,,,,,,,,,,,,,,1.2518,1028.64812909998,None,space,1,1028.64812909998,None,0.5135805001482368,P015,fencog,1,Pre,2021_Oct_20_1114,N-Back (New Version 2021),2021.1.4,120.67850281068975,
,,,,Conditions/Version_1/twoback(3)_v1.xlsx,New rule: Press 'space' when you see 2-back (i.e. the same letter as the one that appeared 2 letters ago.),,,,,,,,,,,0,10,10,10,,,,,,,,,,,,,,,,,,,,,,,,,,,,,,,,,,,,,,,,,,,,,,,,,,,,,,,,,,,,,,,,,,,,,,,,,,,,,,,,,P015,fencog,1,Pre,2021_Oct_20_1114,N-Back (New Version 2021),2021.1.4,120.67850281068975,
,,,,Conditions/Version_1/oneback(3)_v1.xlsx,New rule: Press 'space' when you see 1-back (i.e. the same letter as the one that appeared 1 letter ago.),o,None,,,,,,,,,0,11,11,11,0,0,0,0,,,,,,,,,,,,,,,,,,,,,,,,,,,,,,,,,,,,,,,,,,,,,,,,,,,,,,,,,,,1030.6808499000035,None,1033.6650235997513,None,space,0.5447428999468684,1033.6650235997513,None,1030.6808499000035,None,1.351,1035.5785969998688,None,None,1,1035.5785969998688,None,,P015,fencog,1,Pre,2021_Oct_20_1114,N-Back (New Version 2021),2021.1.4,120.67850281068975,
,,,,Conditions/Version_1/oneback(3)_v1.xlsx,New rule: Press 'space' when you see 1-back (i.e. the same letter as the one that appeared 1 letter ago.),O,space,,,,,,,,,0,11,11,11,0,1,1,1,,,,,,,,,,,,,,,,,,,,,,,,,,,,,,,,,,,,,,,,,,,,,,,,,,,,,,,,,,,,,,,,,,,,,1.8284,1039.4139702999964,None,space,1,1039.4139702999964,None,0.30734689999371767,P015,fencog,1,Pre,2021_Oct_20_1114,N-Back (New Version 2021),2021.1.4,120.67850281068975,
,,,,Conditions/Version_1/oneback(3)_v1.xlsx,New rule: Press 'space' when you see 1-back (i.e. the same letter as the one that appeared 1 letter ago.),h,None,,,,,,,,,0,11,11,11,0,2,2,2,,,,,,,,,,,,,,,,,,,,,,,,,,,,,,,,,,,,,,,,,,,,,,,,,,,,,,,,,,,,,,,,,,,,,1.4688,1042.8945502997376,None,None,1,1042.8945502997376,None,,P015,fencog,1,Pre,2021_Oct_20_1114,N-Back (New Version 2021),2021.1.4,120.67850281068975,
,,,,Conditions/Version_1/oneback(3)_v1.xlsx,New rule: Press 'space' when you see 1-back (i.e. the same letter as the one that appeared 1 letter ago.),g,None,,,,,,,,,0,11,11,11,0,3,3,3,,,,,,,,,,,,,,,,,,,,,,,,,,,,,,,,,,,,,,,,,,,,,,,,,,,,,,,,,,,,,,,,,,,,,1.5742,1046.475490000099,None,None,1,1046.475490000099,None,,P015,fencog,1,Pre,2021_Oct_20_1114,N-Back (New Version 2021),2021.1.4,120.67850281068975,
,,,,Conditions/Version_1/oneback(3)_v1.xlsx,New rule: Press 'space' when you see 1-back (i.e. the same letter as the one that appeared 1 letter ago.),n,None,,,,,,,,,0,11,11,11,0,4,4,4,,,,,,,,,,,,,,,,,,,,,,,,,,,,,,,,,,,,,,,,,,,,,,,,,,,,,,,,,,,,,,,,,,,,,1.165,1049.650576800108,None,None,1,1049.650576800108,None,,P015,fencog,1,Pre,2021_Oct_20_1114,N-Back (New Version 2021),2021.1.4,120.67850281068975,
,,,,Conditions/Version_1/oneback(3)_v1.xlsx,New rule: Press 'space' when you see 1-back (i.e. the same letter as the one that appeared 1 letter ago.),z,None,,,,,,,,,0,11,11,11,0,5,5,5,,,,,,,,,,,,,,,,,,,,,,,,,,,,,,,,,,,,,,,,,,,,,,,,,,,,,,,,,,,,,,,,,,,,,1.1588,1052.8152351998724,None,None,1,1052.8152351998724,None,,P015,fencog,1,Pre,2021_Oct_20_1114,N-Back (New Version 2021),2021.1.4,120.67850281068975,
,,,,Conditions/Version_1/oneback(3)_v1.xlsx,New rule: Press 'space' when you see 1-back (i.e. the same letter as the one that appeared 1 letter ago.),X,None,,,,,,,,,0,11,11,11,0,6,6,6,,,,,,,,,,,,,,,,,,,,,,,,,,,,,,,,,,,,,,,,,,,,,,,,,,,,,,,,,,,,,,,,,,,,,1.2456,1056.0661593000405,None,space,0,1056.0661593000405,None,0.6474176002666354,P015,fencog,1,Pre,2021_Oct_20_1114,N-Back (New Version 2021),2021.1.4,120.67850281068975,
,,,,Conditions/Version_1/oneback(3)_v1.xlsx,New rule: Press 'space' when you see 1-back (i.e. the same letter as the one that appeared 1 letter ago.),r,None,,,,,,,,,0,11,11,11,0,7,7,7,,,,,,,,,,,,,,,,,,,,,,,,,,,,,,,,,,,,,,,,,,,,,,,,,,,,,,,,,,,,,,,,,,,,,1.9462,1060.0219193999656,None,None,1,1060.0219193999656,None,,P015,fencog,1,Pre,2021_Oct_20_1114,N-Back (New Version 2021),2021.1.4,120.67850281068975,
,,,,Conditions/Version_1/oneback(3)_v1.xlsx,New rule: Press 'space' when you see 1-back (i.e. the same letter as the one that appeared 1 letter ago.),r,space,,,,,,,,,0,11,11,11,0,8,8,8,,,,,,,,,,,,,,,,,,,,,,,,,,,,,,,,,,,,,,,,,,,,,,,,,,,,,,,,,,,,,,,,,,,,,1.0286,1063.0540227000602,None,space,1,1063.0540227000602,None,0.9555878001265228,P015,fencog,1,Pre,2021_Oct_20_1114,N-Back (New Version 2021),2021.1.4,120.67850281068975,
,,,,Conditions/Version_1/oneback(3)_v1.xlsx,New rule: Press 'space' when you see 1-back (i.e. the same letter as the one that appeared 1 letter ago.),P,None,,,,,,,,,0,11,11,11,0,9,9,9,,,,,,,,,,,,,,,,,,,,,,,,,,,,,,,,,,,,,,,,,,,,,,,,,,,,,,,,,,,,,,,,,,,,,1.5866,1066.6444899998605,None,None,1,1066.6444899998605,None,,P015,fencog,1,Pre,2021_Oct_20_1114,N-Back (New Version 2021),2021.1.4,120.67850281068975,
,,,,Conditions/Version_1/oneback(3)_v1.xlsx,New rule: Press 'space' when you see 1-back (i.e. the same letter as the one that appeared 1 letter ago.),,,,,,,,,,,0,11,11,11,,,,,,,,,,,,,,,,,,,,,,,,,,,,,,,,,,,,,,,,,,,,,,,,,,,,,,,,,,,,,,,,,,,,,,,,,,,,,,,,,P015,fencog,1,Pre,2021_Oct_20_1114,N-Back (New Version 2021),2021.1.4,120.67850281068975,
,,,,Conditions/Version_1/twoback(4)_v1.xlsx,New rule: Press 'space' when you see 2-back (i.e. the same letter as the one that appeared 2 letters ago.),r,None,,,,,,,,,0,12,12,12,0,0,0,0,,,,,,,,,,,,,,,,,,,,,,,,,,,,,,,,,,,,,,,,,,,,,,,,,,,,,,,,,,,1068.6793149998412,None,1071.6621531997807,None,space,1.539664899930358,1071.6621531997807,None,1068.6793149998412,None,1.196,1074.4264798001386,None,None,1,1074.4264798001386,None,,P015,fencog,1,Pre,2021_Oct_20_1114,N-Back (New Version 2021),2021.1.4,120.67850281068975,
,,,,Conditions/Version_1/twoback(4)_v1.xlsx,New rule: Press 'space' when you see 2-back (i.e. the same letter as the one that appeared 2 letters ago.),T,None,,,,,,,,,0,12,12,12,0,1,1,1,,,,,,,,,,,,,,,,,,,,,,,,,,,,,,,,,,,,,,,,,,,,,,,,,,,,,,,,,,,,,,,,,,,,,1.5618,1078.000735399779,None,None,1,1078.000735399779,None,,P015,fencog,1,Pre,2021_Oct_20_1114,N-Back (New Version 2021),2021.1.4,120.67850281068975,
,,,,Conditions/Version_1/twoback(4)_v1.xlsx,New rule: Press 'space' when you see 2-back (i.e. the same letter as the one that appeared 2 letters ago.),o,None,,,,,,,,,0,12,12,12,0,2,2,2,,,,,,,,,,,,,,,,,,,,,,,,,,,,,,,,,,,,,,,,,,,,,,,,,,,,,,,,,,,,,,,,,,,,,1.8718,1081.8833411997184,None,None,1,1081.8833411997184,None,,P015,fencog,1,Pre,2021_Oct_20_1114,N-Back (New Version 2021),2021.1.4,120.67850281068975,
,,,,Conditions/Version_1/twoback(4)_v1.xlsx,New rule: Press 'space' when you see 2-back (i.e. the same letter as the one that appeared 2 letters ago.),p,None,,,,,,,,,0,12,12,12,0,3,3,3,,,,,,,,,,,,,,,,,,,,,,,,,,,,,,,,,,,,,,,,,,,,,,,,,,,,,,,,,,,,,,,,,,,,,1.506,1085.3984678997658,None,None,1,1085.3984678997658,None,,P015,fencog,1,Pre,2021_Oct_20_1114,N-Back (New Version 2021),2021.1.4,120.67850281068975,
,,,,Conditions/Version_1/twoback(4)_v1.xlsx,New rule: Press 'space' when you see 2-back (i.e. the same letter as the one that appeared 2 letters ago.),p,None,,,,,,,,,0,12,12,12,0,4,4,4,,,,,,,,,,,,,,,,,,,,,,,,,,,,,,,,,,,,,,,,,,,,,,,,,,,,,,,,,,,,,,,,,,,,,1.3696,1088.7796629997902,None,None,1,1088.7796629997902,None,,P015,fencog,1,Pre,2021_Oct_20_1114,N-Back (New Version 2021),2021.1.4,120.67850281068975,
,,,,Conditions/Version_1/twoback(4)_v1.xlsx,New rule: Press 'space' when you see 2-back (i.e. the same letter as the one that appeared 2 letters ago.),y,None,,,,,,,,,0,12,12,12,0,5,5,5,,,,,,,,,,,,,,,,,,,,,,,,,,,,,,,,,,,,,,,,,,,,,,,,,,,,,,,,,,,,,,,,,,,,,1.6486,1092.4285935000516,None,None,1,1092.4285935000516,None,,P015,fencog,1,Pre,2021_Oct_20_1114,N-Back (New Version 2021),2021.1.4,120.67850281068975,
,,,,Conditions/Version_1/twoback(4)_v1.xlsx,New rule: Press 'space' when you see 2-back (i.e. the same letter as the one that appeared 2 letters ago.),P,space,,,,,,,,,0,12,12,12,0,6,6,6,,,,,,,,,,,,,,,,,,,,,,,,,,,,,,,,,,,,,,,,,,,,,,,,,,,,,,,,,,,,,,,,,,,,,1.6238,1096.058325599879,None,space,1,1096.058325599879,None,0.3355388999916613,P015,fencog,1,Pre,2021_Oct_20_1114,N-Back (New Version 2021),2021.1.4,120.67850281068975,
,,,,Conditions/Version_1/twoback(4)_v1.xlsx,New rule: Press 'space' when you see 2-back (i.e. the same letter as the one that appeared 2 letters ago.),y,None,,,,,,,,,0,12,12,12,0,7,7,7,,,,,,,,,,,,,,,,,,,,,,,,,,,,,,,,,,,,,,,,,,,,,,,,,,,,,,,,,,,,,,,,,,,,,1.444,1099.5475228000432,None,space,0,1099.5475228000432,None,0.9259735997766256,P015,fencog,1,Pre,2021_Oct_20_1114,N-Back (New Version 2021),2021.1.4,120.67850281068975,
,,,,Conditions/Version_1/twoback(4)_v1.xlsx,New rule: Press 'space' when you see 2-back (i.e. the same letter as the one that appeared 2 letters ago.),y,space,,,,,,,,,0,12,12,12,0,8,8,8,,,,,,,,,,,,,,,,,,,,,,,,,,,,,,,,,,,,,,,,,,,,,,,,,,,,,,,,,,,,,,,,,,,,,1.3324,1102.850489600096,None,None,0,1102.850489600096,None,,P015,fencog,1,Pre,2021_Oct_20_1114,N-Back (New Version 2021),2021.1.4,120.67850281068975,
,,,,Conditions/Version_1/twoback(4)_v1.xlsx,New rule: Press 'space' when you see 2-back (i.e. the same letter as the one that appeared 2 letters ago.),,,,,,,,,,,0,12,12,12,,,,,,,,,,,,,,,,,,,,,,,,,,,,,,,,,,,,,,,,,,,,,,,,,,,,,,,,,,,,,,,,,,,,,,,,,,,,,,,,,P015,fencog,1,Pre,2021_Oct_20_1114,N-Back (New Version 2021),2021.1.4,120.67850281068975,
,,,,Conditions/Version_1/zeroback(4)_v1.xlsx,New rule: Press 'space' when you see the letter 'x' or 'X'.,o,None,,,,,,,,,0,13,13,13,0,0,0,0,,,,,,,,,,,,,,,,,,,,,,,,,,,,,,,,,,,,,,,,,,,,,,,,,,,,,,,,,,,1104.8709637997672,None,1107.85988610005,None,space,9.525855000130832,1107.85988610005,None,1104.8709637997672,None,1.1154,1118.5245811999775,None,None,1,1118.5245811999775,None,,P015,fencog,1,Pre,2021_Oct_20_1114,N-Back (New Version 2021),2021.1.4,120.67850281068975,
,,,,Conditions/Version_1/zeroback(4)_v1.xlsx,New rule: Press 'space' when you see the letter 'x' or 'X'.,X,space,,,,,,,,,0,13,13,13,0,1,1,1,,,,,,,,,,,,,,,,,,,,,,,,,,,,,,,,,,,,,,,,,,,,,,,,,,,,,,,,,,,,,,,,,,,,,1.971,1122.50302630011,None,space,1,1122.50302630011,None,0.38691690005362034,P015,fencog,1,Pre,2021_Oct_20_1114,N-Back (New Version 2021),2021.1.4,120.67850281068975,
,,,,Conditions/Version_1/zeroback(4)_v1.xlsx,New rule: Press 'space' when you see the letter 'x' or 'X'.,p,None,,,,,,,,,0,13,13,13,0,2,2,2,,,,,,,,,,,,,,,,,,,,,,,,,,,,,,,,,,,,,,,,,,,,,,,,,,,,,,,,,,,,,,,,,,,,,1.0472,1125.5529597997665,None,None,1,1125.5529597997665,None,,P015,fencog,1,Pre,2021_Oct_20_1114,N-Back (New Version 2021),2021.1.4,120.67850281068975,
,,,,Conditions/Version_1/zeroback(4)_v1.xlsx,New rule: Press 'space' when you see the letter 'x' or 'X'.,m,None,,,,,,,,,0,13,13,13,0,3,3,3,,,,,,,,,,,,,,,,,,,,,,,,,,,,,,,,,,,,,,,,,,,,,,,,,,,,,,,,,,,,,,,,,,,,,1.2828,1128.843653799966,None,None,1,1128.843653799966,None,,P015,fencog,1,Pre,2021_Oct_20_1114,N-Back (New Version 2021),2021.1.4,120.67850281068975,
,,,,Conditions/Version_1/zeroback(4)_v1.xlsx,New rule: Press 'space' when you see the letter 'x' or 'X'.,n,None,,,,,,,,,0,13,13,13,0,4,4,4,,,,,,,,,,,,,,,,,,,,,,,,,,,,,,,,,,,,,,,,,,,,,,,,,,,,,,,,,,,,,,,,,,,,,1.9524,1132.8083889000118,None,None,1,1132.8083889000118,None,,P015,fencog,1,Pre,2021_Oct_20_1114,N-Back (New Version 2021),2021.1.4,120.67850281068975,
,,,,Conditions/Version_1/zeroback(4)_v1.xlsx,New rule: Press 'space' when you see the letter 'x' or 'X'.,m,None,,,,,,,,,0,13,13,13,0,5,5,5,,,,,,,,,,,,,,,,,,,,,,,,,,,,,,,,,,,,,,,,,,,,,,,,,,,,,,,,,,,,,,,,,,,,,1.32,1136.1334379999898,None,None,1,1136.1334379999898,None,,P015,fencog,1,Pre,2021_Oct_20_1114,N-Back (New Version 2021),2021.1.4,120.67850281068975,
,,,,Conditions/Version_1/zeroback(4)_v1.xlsx,New rule: Press 'space' when you see the letter 'x' or 'X'.,C,None,,,,,,,,,0,13,13,13,0,6,6,6,,,,,,,,,,,,,,,,,,,,,,,,,,,,,,,,,,,,,,,,,,,,,,,,,,,,,,,,,,,,,,,,,,,,,1.5494,1139.6918818000704,None,None,1,1139.6918818000704,None,,P015,fencog,1,Pre,2021_Oct_20_1114,N-Back (New Version 2021),2021.1.4,120.67850281068975,
,,,,Conditions/Version_1/zeroback(4)_v1.xlsx,New rule: Press 'space' when you see the letter 'x' or 'X'.,m,None,,,,,,,,,0,13,13,13,0,7,7,7,,,,,,,,,,,,,,,,,,,,,,,,,,,,,,,,,,,,,,,,,,,,,,,,,,,,,,,,,,,,,,,,,,,,,1.63,1143.3309654998593,None,None,1,1143.3309654998593,None,,P015,fencog,1,Pre,2021_Oct_20_1114,N-Back (New Version 2021),2021.1.4,120.67850281068975,
,,,,Conditions/Version_1/zeroback(4)_v1.xlsx,New rule: Press 'space' when you see the letter 'x' or 'X'.,p,None,,,,,,,,,0,13,13,13,0,8,8,8,,,,,,,,,,,,,,,,,,,,,,,,,,,,,,,,,,,,,,,,,,,,,,,,,,,,,,,,,,,,,,,,,,,,,1.4192,1146.7637934000231,None,None,1,1146.7637934000231,None,,P015,fencog,1,Pre,2021_Oct_20_1114,N-Back (New Version 2021),2021.1.4,120.67850281068975,
,,,,Conditions/Version_1/zeroback(4)_v1.xlsx,New rule: Press 'space' when you see the letter 'x' or 'X'.,X,space,,,,,,,,,0,13,13,13,0,9,9,9,,,,,,,,,,,,,,,,,,,,,,,,,,,,,,,,,,,,,,,,,,,,,,,,,,,,,,,,,,,,,,,,,,,,,1.2952,1150.072408199776,None,space,1,1150.072408199776,None,0.46499860007315874,P015,fencog,1,Pre,2021_Oct_20_1114,N-Back (New Version 2021),2021.1.4,120.67850281068975,
,,,,Conditions/Version_1/zeroback(4)_v1.xlsx,New rule: Press 'space' when you see the letter 'x' or 'X'.,,,,,,,,,,,0,13,13,13,,,,,,,,,,,,,,,,,,,,,,,,,,,,,,,,,,,,,,,,,,,,,,,,,,,,,,,,,,,,,,,,,,,,,,,,,,,,,,,,,P015,fencog,1,Pre,2021_Oct_20_1114,N-Back (New Version 2021),2021.1.4,120.67850281068975,
,,,,Conditions/Version_1/oneback(4)_v1.xlsx,New rule: Press 'space' when you see 1-back (i.e. the same letter as the one that appeared 1 letter ago.),w,None,,,,,,,,,0,14,14,14,0,0,0,0,,,,,,,,,,,,,,,,,,,,,,,,,,,,,,,,,,,,,,,,,,,,,,,,,,,,,,,,,,,1152.1016047000885,None,1155.0870638000779,None,space,1.050451499875635,1155.0870638000779,None,1152.1016047000885,None,1.9834,1158.1517368000932,None,None,1,1158.1517368000932,None,,P015,fencog,1,Pre,2021_Oct_20_1114,N-Back (New Version 2021),2021.1.4,120.67850281068975,
,,,,Conditions/Version_1/oneback(4)_v1.xlsx,New rule: Press 'space' when you see 1-back (i.e. the same letter as the one that appeared 1 letter ago.),q,None,,,,,,,,,0,14,14,14,0,1,1,1,,,,,,,,,,,,,,,,,,,,,,,,,,,,,,,,,,,,,,,,,,,,,,,,,,,,,,,,,,,,,,,,,,,,,1.3634,1161.5273051001132,None,None,1,1161.5273051001132,None,,P015,fencog,1,Pre,2021_Oct_20_1114,N-Back (New Version 2021),2021.1.4,120.67850281068975,
,,,,Conditions/Version_1/oneback(4)_v1.xlsx,New rule: Press 'space' when you see 1-back (i.e. the same letter as the one that appeared 1 letter ago.),i,None,,,,,,,,,0,14,14,14,0,2,2,2,,,,,,,,,,,,,,,,,,,,,,,,,,,,,,,,,,,,,,,,,,,,,,,,,,,,,,,,,,,,,,,,,,,,,1.041,1164.5765017997473,None,None,1,1164.5765017997473,None,,P015,fencog,1,Pre,2021_Oct_20_1114,N-Back (New Version 2021),2021.1.4,120.67850281068975,
,,,,Conditions/Version_1/oneback(4)_v1.xlsx,New rule: Press 'space' when you see 1-back (i.e. the same letter as the one that appeared 1 letter ago.),t,None,,,,,,,,,0,14,14,14,0,3,3,3,,,,,,,,,,,,,,,,,,,,,,,,,,,,,,,,,,,,,,,,,,,,,,,,,,,,,,,,,,,,,,,,,,,,,1.3386,1167.9253043001518,None,None,1,1167.9253043001518,None,,P015,fencog,1,Pre,2021_Oct_20_1114,N-Back (New Version 2021),2021.1.4,120.67850281068975,
,,,,Conditions/Version_1/oneback(4)_v1.xlsx,New rule: Press 'space' when you see 1-back (i.e. the same letter as the one that appeared 1 letter ago.),v,None,,,,,,,,,0,14,14,14,0,4,4,4,,,,,,,,,,,,,,,,,,,,,,,,,,,,,,,,,,,,,,,,,,,,,,,,,,,,,,,,,,,,,,,,,,,,,1.4502,1171.3820313997567,None,None,1,1171.3820313997567,None,,P015,fencog,1,Pre,2021_Oct_20_1114,N-Back (New Version 2021),2021.1.4,120.67850281068975,
,,,,Conditions/Version_1/oneback(4)_v1.xlsx,New rule: Press 'space' when you see 1-back (i.e. the same letter as the one that appeared 1 letter ago.),V,space,,,,,,,,,0,14,14,14,0,5,5,5,,,,,,,,,,,,,,,,,,,,,,,,,,,,,,,,,,,,,,,,,,,,,,,,,,,,,,,,,,,,,,,,,,,,,1.165,1174.5581649998203,None,space,1,1174.5581649998203,None,0.37957660015672445,P015,fencog,1,Pre,2021_Oct_20_1114,N-Back (New Version 2021),2021.1.4,120.67850281068975,
,,,,Conditions/Version_1/oneback(4)_v1.xlsx,New rule: Press 'space' when you see 1-back (i.e. the same letter as the one that appeared 1 letter ago.),v,space,,,,,,,,,0,14,14,14,0,6,6,6,,,,,,,,,,,,,,,,,,,,,,,,,,,,,,,,,,,,,,,,,,,,,,,,,,,,,,,,,,,,,,,,,,,,,1.9896,1178.5553036998026,None,space,1,1178.5553036998026,None,0.6142905000597239,P015,fencog,1,Pre,2021_Oct_20_1114,N-Back (New Version 2021),2021.1.4,120.67850281068975,
,,,,Conditions/Version_1/oneback(4)_v1.xlsx,New rule: Press 'space' when you see 1-back (i.e. the same letter as the one that appeared 1 letter ago.),p,None,,,,,,,,,0,14,14,14,0,7,7,7,,,,,,,,,,,,,,,,,,,,,,,,,,,,,,,,,,,,,,,,,,,,,,,,,,,,,,,,,,,,,,,,,,,,,1.4626,1182.0282139000483,None,None,1,1182.0282139000483,None,,P015,fencog,1,Pre,2021_Oct_20_1114,N-Back (New Version 2021),2021.1.4,120.67850281068975,
,,,,Conditions/Version_1/oneback(4)_v1.xlsx,New rule: Press 'space' when you see 1-back (i.e. the same letter as the one that appeared 1 letter ago.),w,None,,,,,,,,,0,14,14,14,0,8,8,8,,,,,,,,,,,,,,,,,,,,,,,,,,,,,,,,,,,,,,,,,,,,,,,,,,,,,,,,,,,,,,,,,,,,,1.3014,1185.3447814998217,None,None,1,1185.3447814998217,None,,P015,fencog,1,Pre,2021_Oct_20_1114,N-Back (New Version 2021),2021.1.4,120.67850281068975,
,,,,Conditions/Version_1/oneback(4)_v1.xlsx,New rule: Press 'space' when you see 1-back (i.e. the same letter as the one that appeared 1 letter ago.),W,space,,,,,,,,,0,14,14,14,0,9,9,9,,,,,,,,,,,,,,,,,,,,,,,,,,,,,,,,,,,,,,,,,,,,,,,,,,,,,,,,,,,,,,,,,,,,,1.444,1188.8000396001153,None,space,1,1188.8000396001153,None,0.4423950999043882,P015,fencog,1,Pre,2021_Oct_20_1114,N-Back (New Version 2021),2021.1.4,120.67850281068975,
,,,,Conditions/Version_1/oneback(4)_v1.xlsx,New rule: Press 'space' when you see 1-back (i.e. the same letter as the one that appeared 1 letter ago.),,,,,,,,,,,0,14,14,14,,,,,,,,,,,,,,,,,,,,,,,,,,,,,,,,,,,,,,,,,,,,,,,,,,,,,,,,,,,,,,,,,,,,,,,,,,,,,,,,,P015,fencog,1,Pre,2021_Oct_20_1114,N-Back (New Version 2021),2021.1.4,120.67850281068975,
,,,,Conditions/Version_1/threeback(4)_v1.xlsx,New rule: Press 'space' when you see 3-back (i.e. the same letter as the one that appeared 3 letters ago.),A,None,,,,,,,,,0,15,15,15,0,0,0,0,,,,,,,,,,,,,,,,,,,,,,,,,,,,,,,,,,,,,,,,,,,,,,,,,,,,,,,,,,,1190.8250969997607,None,1193.8097962001339,None,space,1.5759847001172602,1193.8097962001339,None,1190.8250969997607,None,1.3386,1196.7586340997368,None,None,1,1196.7586340997368,None,,P015,fencog,1,Pre,2021_Oct_20_1114,N-Back (New Version 2021),2021.1.4,120.67850281068975,
,,,,Conditions/Version_1/threeback(4)_v1.xlsx,New rule: Press 'space' when you see 3-back (i.e. the same letter as the one that appeared 3 letters ago.),n,None,,,,,,,,,0,15,15,15,0,1,1,1,,,,,,,,,,,,,,,,,,,,,,,,,,,,,,,,,,,,,,,,,,,,,,,,,,,,,,,,,,,,,,,,,,,,,1.2332,1199.9994326997548,None,None,1,1199.9994326997548,None,,P015,fencog,1,Pre,2021_Oct_20_1114,N-Back (New Version 2021),2021.1.4,120.67850281068975,
,,,,Conditions/Version_1/threeback(4)_v1.xlsx,New rule: Press 'space' when you see 3-back (i.e. the same letter as the one that appeared 3 letters ago.),g,None,,,,,,,,,0,15,15,15,0,2,2,2,,,,,,,,,,,,,,,,,,,,,,,,,,,,,,,,,,,,,,,,,,,,,,,,,,,,,,,,,,,,,,,,,,,,,1.7974,1203.8041762998328,None,None,1,1203.8041762998328,None,,P015,fencog,1,Pre,2021_Oct_20_1114,N-Back (New Version 2021),2021.1.4,120.67850281068975,
,,,,Conditions/Version_1/threeback(4)_v1.xlsx,New rule: Press 'space' when you see 3-back (i.e. the same letter as the one that appeared 3 letters ago.),A,space,,,,,,,,,0,15,15,15,0,3,3,3,,,,,,,,,,,,,,,,,,,,,,,,,,,,,,,,,,,,,,,,,,,,,,,,,,,,,,,,,,,,,,,,,,,,,1.7478,1207.554527499713,None,space,1,1207.554527499713,None,0.6710521001368761,P015,fencog,1,Pre,2021_Oct_20_1114,N-Back (New Version 2021),2021.1.4,120.67850281068975,
,,,,Conditions/Version_1/threeback(4)_v1.xlsx,New rule: Press 'space' when you see 3-back (i.e. the same letter as the one that appeared 3 letters ago.),p,None,,,,,,,,,0,15,15,15,0,4,4,4,,,,,,,,,,,,,,,,,,,,,,,,,,,,,,,,,,,,,,,,,,,,,,,,,,,,,,,,,,,,,,,,,,,,,1.2704,1210.837523299735,None,None,1,1210.837523299735,None,,P015,fencog,1,Pre,2021_Oct_20_1114,N-Back (New Version 2021),2021.1.4,120.67850281068975,
,,,,Conditions/Version_1/threeback(4)_v1.xlsx,New rule: Press 'space' when you see 3-back (i.e. the same letter as the one that appeared 3 letters ago.),O,None,,,,,,,,,0,15,15,15,0,5,5,5,,,,,,,,,,,,,,,,,,,,,,,,,,,,,,,,,,,,,,,,,,,,,,,,,,,,,,,,,,,,,,,,,,,,,1.6486,1214.493856200017,None,None,1,1214.493856200017,None,,P015,fencog,1,Pre,2021_Oct_20_1114,N-Back (New Version 2021),2021.1.4,120.67850281068975,
,,,,Conditions/Version_1/threeback(4)_v1.xlsx,New rule: Press 'space' when you see 3-back (i.e. the same letter as the one that appeared 3 letters ago.),a,space,,,,,,,,,0,15,15,15,0,6,6,6,,,,,,,,,,,,,,,,,,,,,,,,,,,,,,,,,,,,,,,,,,,,,,,,,,,,,,,,,,,,,,,,,,,,,1.3262,1217.837531699799,None,space,1,1217.837531699799,None,0.3802780001424253,P015,fencog,1,Pre,2021_Oct_20_1114,N-Back (New Version 2021),2021.1.4,120.67850281068975,
,,,,Conditions/Version_1/threeback(4)_v1.xlsx,New rule: Press 'space' when you see 3-back (i.e. the same letter as the one that appeared 3 letters ago.),p,space,,,,,,,,,0,15,15,15,0,7,7,7,,,,,,,,,,,,,,,,,,,,,,,,,,,,,,,,,,,,,,,,,,,,,,,,,,,,,,,,,,,,,,,,,,,,,1.2828,1221.1242066998966,None,space,1,1221.1242066998966,None,0.7817241000011563,P015,fencog,1,Pre,2021_Oct_20_1114,N-Back (New Version 2021),2021.1.4,120.67850281068975,
,,,,Conditions/Version_1/threeback(4)_v1.xlsx,New rule: Press 'space' when you see 3-back (i.e. the same letter as the one that appeared 3 letters ago.),x,None,,,,,,,,,0,15,15,15,0,8,8,8,,,,,,,,,,,,,,,,,,,,,,,,,,,,,,,,,,,,,,,,,,,,,,,,,,,,,,,,,,,,,,,,,,,,,1.9462,1225.07763529988,None,None,1,1225.07763529988,None,,P015,fencog,1,Pre,2021_Oct_20_1114,N-Back (New Version 2021),2021.1.4,120.67850281068975,
,,,,Conditions/Version_1/threeback(4)_v1.xlsx,New rule: Press 'space' when you see 3-back (i.e. the same letter as the one that appeared 3 letters ago.),X,None,,,,,,,,,0,15,15,15,0,9,9,9,,,,,,,,,,,,,,,,,,,,,,,,,,,,,,,,,,,,,,,,,,,,,,,,,,,,,,,,,,,,,,,,,,,,,1.5618,1228.6488928999752,None,None,1,1228.6488928999752,None,,P015,fencog,1,Pre,2021_Oct_20_1114,N-Back (New Version 2021),2021.1.4,120.67850281068975,
,,,,Conditions/Version_1/threeback(4)_v1.xlsx,New rule: Press 'space' when you see 3-back (i.e. the same letter as the one that appeared 3 letters ago.),,,,,,,,,,,0,15,15,15,,,,,,,,,,,,,,,,,,,,,,,,,,,,,,,,,,,,,,,,,,,,,,,,,,,,,,,,,,,,,,,,,,,,,,,,,,,,,,,,,P015,fencog,1,Pre,2021_Oct_20_1114,N-Back (New Version 2021),2021.1.4,120.67850281068975,
