CondFileP,InstructionsP,LettersDisplayedP,CorrectnessP,CondFile,Instructions,LettersDisplayed,Correctness,practicetrials.thisRepN,practicetrials.thisTrialN,practicetrials.thisN,practicetrials.thisIndex,InnerLoopPractice.thisRepN,InnerLoopPractice.thisTrialN,InnerLoopPractice.thisN,InnerLoopPractice.thisIndex,trials.thisRepN,trials.thisTrialN,trials.thisN,trials.thisIndex,InnerLoop.thisRepN,InnerLoop.thisTrialN,InnerLoop.thisN,InnerLoop.thisIndex,TaskVersionText.started,TaskVersionText.stopped,InstrKey1.keys,InstrKey1.rt,InstrKey1.started,InstrKey1.stopped,text.started,text.stopped,key_resp_4.keys,key_resp_4.rt,key_resp_4.started,key_resp_4.stopped,text_2.started,text_2.stopped,key_resp_3.keys,key_resp_3.rt,key_resp_3.started,key_resp_3.stopped,text_3.started,text_3.stopped,key_resp_2.keys,key_resp_2.rt,key_resp_2.started,key_resp_2.stopped,PractIn1.started,PractIn1.stopped,PractIn2.started,PractIn2.stopped,PractInstructionPass.keys,PractInstructionPass.rt,PractInstructionPass.started,PractInstructionPass.stopped,PractBlock1.started,PractBlock1.stopped,ISIjitterPractice,ISI_Pract_Fixation.started,ISI_Pract_Fixation.stopped,N_backP.started,N_backP.stopped,KeyPractice.keys,KeyPractice.corr,KeyPractice.rt,KeyPractice.started,KeyPractice.stopped,text_4.started,text_4.stopped,TransitionText.started,TransitionText.stopped,key_resp_6.keys,key_resp_6.rt,key_resp_6.started,key_resp_6.stopped,text_5.started,text_5.stopped,key_resp_5.keys,key_resp_5.rt,key_resp_5.started,key_resp_5.stopped,MainInt1.started,MainInt1.stopped,MainInt2.started,MainInt2.stopped,InstructionPass.keys,InstructionPass.rt,InstructionPass.started,InstructionPass.stopped,Blocks1.started,Blocks1.stopped,ISIjitter,N_backD.started,N_backD.stopped,key_resp.keys,key_resp.corr,key_resp.started,key_resp.stopped,key_resp.rt,participant,Study Name,Task Version (required to run),PRE/POST,date,expName,psychopyVersion,frameRate,
,,,,,,,,,,,,,,,,,,,,,,,,22.460921500009135,None,space,1.1225355000060517,22.95630030000757,None,,,,,,,,,,,,,,,,,,,,,,,,,,,,,,,,,,,,,,,,,,,,,,,,,,,,,,,,,,,,,,,,,,,,,,,P015,fencog,2,Post,2021_Oct_29_0918,N-Back (New Version 2021),2021.1.4,120.63541082207723,
,,,,,,,,,,,,,,,,,,,,,,,,,,,,,,24.112520599999698,None,space,35.75302499999816,24.597785000005388,None,,,,,,,,,,,,,,,,,,,,,,,,,,,,,,,,,,,,,,,,,,,,,,,,,,,,,,,,,,,,,,,,,P015,fencog,2,Post,2021_Oct_29_0918,N-Back (New Version 2021),2021.1.4,120.63541082207723,
,,,,,,,,,,,,,,,,,,,,,,,,,,,,,,,,,,,,60.3874230000074,None,space,4.623839499996393,60.878860700002406,None,,,,,,,,,,,,,,,,,,,,,,,,,,,,,,,,,,,,,,,,,,,,,,,,,,,,,,,,,,,P015,fencog,2,Post,2021_Oct_29_0918,N-Back (New Version 2021),2021.1.4,120.63541082207723,
,,,,,,,,,,,,,,,,,,,,,,,,,,,,,,,,,,,,,,,,,,65.52653160000045,None,space,2.907649200002197,66.01917470000626,None,,,,,,,,,,,,,,,,,,,,,,,,,,,,,,,,,,,,,,,,,,,,,,,,,,,,,P015,fencog,2,Post,2021_Oct_29_0918,N-Back (New Version 2021),2021.1.4,120.63541082207723,
Conditions/Version_2Pr/zeroback(1)_v2.xlsx,Rule: Press 'space' when you see the letter 'x' or 'X'.,x,space,,,,,0,0,0,0,0,0,0,0,,,,,,,,,,,,,,,,,,,,,,,,,,,,,,,,,70.31598189999931,None,73.30173449999711,None,space,0.9448603999917395,73.30173449999711,None,70.31598189999931,None,1.715,74.27526450000005,None,75.99303360001068,None,space,1,0.36556939998990856,75.99303360001068,None,76.37795590001042,None,,,,,,,,,,,,,,,,,,,,,,,,,,,,,,,P015,fencog,2,Post,2021_Oct_29_0918,N-Back (New Version 2021),2021.1.4,120.63541082207723,
Conditions/Version_2Pr/zeroback(1)_v2.xlsx,Rule: Press 'space' when you see the letter 'x' or 'X'.,R,None,,,,,0,0,0,0,0,1,1,1,,,,,,,,,,,,,,,,,,,,,,,,,,,,,,,,,,,,,,,,,,,1.665,77.88139480000245,None,79.54888310001115,None,None,1,,79.54888310001115,None,81.55551510000078,None,,,,,,,,,,,,,,,,,,,,,,,,,,,,,,,P015,fencog,2,Post,2021_Oct_29_0918,N-Back (New Version 2021),2021.1.4,120.63541082207723,
Conditions/Version_2Pr/zeroback(1)_v2.xlsx,Rule: Press 'space' when you see the letter 'x' or 'X'.,p,None,,,,,0,0,0,0,0,2,2,2,,,,,,,,,,,,,,,,,,,,,,,,,,,,,,,,,,,,,,,,,,,1.89,83.0549430000101,None,84.9464289000025,None,None,1,,84.9464289000025,None,86.95384990000457,None,,,,,,,,,,,,,,,,,,,,,,,,,,,,,,,P015,fencog,2,Post,2021_Oct_29_0918,N-Back (New Version 2021),2021.1.4,120.63541082207723,
Conditions/Version_2Pr/zeroback(1)_v2.xlsx,Rule: Press 'space' when you see the letter 'x' or 'X'.,O,None,,,,,0,0,0,0,0,3,3,3,,,,,,,,,,,,,,,,,,,,,,,,,,,,,,,,,,,,,,,,,,,1.365,88.45342150000215,None,89.81987960000697,None,None,1,,89.81987960000697,None,91.81905840001127,None,,,,,,,,,,,,,,,,,,,,,,,,,,,,,,,P015,fencog,2,Post,2021_Oct_29_0918,N-Back (New Version 2021),2021.1.4,120.63541082207723,
Conditions/Version_2Pr/zeroback(1)_v2.xlsx,Rule: Press 'space' when you see the letter 'x' or 'X'.,i,None,,,,,0,0,0,0,0,4,4,4,,,,,,,,,,,,,,,,,,,,,,,,,,,,,,,,,,,,,,,,,,,1.44,93.318554700003,None,94.76045050000539,None,None,1,,94.76045050000539,None,96.76763899999787,None,,,,,,,,,,,,,,,,,,,,,,,,,,,,,,,P015,fencog,2,Post,2021_Oct_29_0918,N-Back (New Version 2021),2021.1.4,120.63541082207723,
Conditions/Version_2Pr/zeroback(1)_v2.xlsx,Rule: Press 'space' when you see the letter 'x' or 'X'.,U,None,,,,,0,0,0,0,0,5,5,5,,,,,,,,,,,,,,,,,,,,,,,,,,,,,,,,,,,,,,,,,,,1.04,98.26670120000199,None,99.31118920000154,None,None,1,,99.31118920000154,None,101.31626420000975,None,,,,,,,,,,,,,,,,,,,,,,,,,,,,,,,P015,fencog,2,Post,2021_Oct_29_0918,N-Back (New Version 2021),2021.1.4,120.63541082207723,
Conditions/Version_2Pr/zeroback(1)_v2.xlsx,Rule: Press 'space' when you see the letter 'x' or 'X'.,N,None,,,,,0,0,0,0,0,6,6,6,,,,,,,,,,,,,,,,,,,,,,,,,,,,,,,,,,,,,,,,,,,1.565,102.81570790000842,None,104.38443140000163,None,None,1,,104.38443140000163,None,106.38971129999845,None,,,,,,,,,,,,,,,,,,,,,,,,,,,,,,,P015,fencog,2,Post,2021_Oct_29_0918,N-Back (New Version 2021),2021.1.4,120.63541082207723,
Conditions/Version_2Pr/zeroback(1)_v2.xlsx,Rule: Press 'space' when you see the letter 'x' or 'X'.,m,None,,,,,0,0,0,0,0,7,7,7,,,,,,,,,,,,,,,,,,,,,,,,,,,,,,,,,,,,,,,,,,,1.515,107.88925920000474,None,109.40601130000141,None,None,1,,109.40601130000141,None,111.41326359999948,None,,,,,,,,,,,,,,,,,,,,,,,,,,,,,,,P015,fencog,2,Post,2021_Oct_29_0918,N-Back (New Version 2021),2021.1.4,120.63541082207723,
Conditions/Version_2Pr/zeroback(1)_v2.xlsx,Rule: Press 'space' when you see the letter 'x' or 'X'.,x,space,,,,,0,0,0,0,0,8,8,8,,,,,,,,,,,,,,,,,,,,,,,,,,,,,,,,,,,,,,,,,,,1.94,112.91281629999867,None,114.85476680001011,None,space,1,0.29598289998830296,114.85476680001011,None,115.16276560000551,None,,,,,,,,,,,,,,,,,,,,,,,,,,,,,,,P015,fencog,2,Post,2021_Oct_29_0918,N-Back (New Version 2021),2021.1.4,120.63541082207723,
Conditions/Version_2Pr/zeroback(1)_v2.xlsx,Rule: Press 'space' when you see the letter 'x' or 'X'.,X,space,,,,,0,0,0,0,0,9,9,9,,,,,,,,,,,,,,,,,,,,,,,,,,,,,,,,,,,,,,,,,,,1.99,116.67000100000587,None,118.66280990000814,None,space,1,0.3276588000007905,118.66280990000814,None,119.00531920000503,None,,,,,,,,,,,,,,,,,,,,,,,,,,,,,,,P015,fencog,2,Post,2021_Oct_29_0918,N-Back (New Version 2021),2021.1.4,120.63541082207723,
Conditions/Version_2Pr/zeroback(1)_v2.xlsx,Rule: Press 'space' when you see the letter 'x' or 'X'.,,,,,,,0,0,0,0,,,,,,,,,,,,,,,,,,,,,,,,,,,,,,,,,,,,,,,,,,,,,,,,,,,,,,,,,,,,,,,,,,,,,,,,,,,,,,,,,,,,,,,,,P015,fencog,2,Post,2021_Oct_29_0918,N-Back (New Version 2021),2021.1.4,120.63541082207723,
Conditions/Version_2Pr/oneback(1)_v2.xlsx,New rule: Press 'space' when you see 1-back (i.e. the same letter as the one that appeared 1 letter ago.),r,None,,,,,0,1,1,1,0,0,0,0,,,,,,,,,,,,,,,,,,,,,,,,,,,,,,,,,120.534399199998,None,123.51914509999915,None,space,0.639331400001538,123.51914509999915,None,120.534399199998,None,1.415,124.18348580000747,None,125.60133440000936,None,None,1,,125.60133440000936,None,127.60828010000114,None,,,,,,,,,,,,,,,,,,,,,,,,,,,,,,,P015,fencog,2,Post,2021_Oct_29_0918,N-Back (New Version 2021),2021.1.4,120.63541082207723,
Conditions/Version_2Pr/oneback(1)_v2.xlsx,New rule: Press 'space' when you see 1-back (i.e. the same letter as the one that appeared 1 letter ago.),t,None,,,,,0,1,1,1,0,1,1,1,,,,,,,,,,,,,,,,,,,,,,,,,,,,,,,,,,,,,,,,,,,1.69,129.10787649999838,None,130.79968490000465,None,None,1,,130.79968490000465,None,132.8069214999996,None,,,,,,,,,,,,,,,,,,,,,,,,,,,,,,,P015,fencog,2,Post,2021_Oct_29_0918,N-Back (New Version 2021),2021.1.4,120.63541082207723,
Conditions/Version_2Pr/oneback(1)_v2.xlsx,New rule: Press 'space' when you see 1-back (i.e. the same letter as the one that appeared 1 letter ago.),Y,None,,,,,0,1,1,1,0,2,2,2,,,,,,,,,,,,,,,,,,,,,,,,,,,,,,,,,,,,,,,,,,,1.465,134.30641070001002,None,135.7732176999998,None,None,1,,135.7732176999998,None,137.7802348999976,None,,,,,,,,,,,,,,,,,,,,,,,,,,,,,,,P015,fencog,2,Post,2021_Oct_29_0918,N-Back (New Version 2021),2021.1.4,120.63541082207723,
Conditions/Version_2Pr/oneback(1)_v2.xlsx,New rule: Press 'space' when you see 1-back (i.e. the same letter as the one that appeared 1 letter ago.),y,space,,,,,0,1,1,1,0,3,3,3,,,,,,,,,,,,,,,,,,,,,,,,,,,,,,,,,,,,,,,,,,,1.565,139.28001460000814,None,140.8472907000105,None,space,1,0.3914182000007713,140.8472907000105,None,141.24744510000164,None,,,,,,,,,,,,,,,,,,,,,,,,,,,,,,,P015,fencog,2,Post,2021_Oct_29_0918,N-Back (New Version 2021),2021.1.4,120.63541082207723,
Conditions/Version_2Pr/oneback(1)_v2.xlsx,New rule: Press 'space' when you see 1-back (i.e. the same letter as the one that appeared 1 letter ago.),p,None,,,,,0,1,1,1,0,4,4,4,,,,,,,,,,,,,,,,,,,,,,,,,,,,,,,,,,,,,,,,,,,1.115,142.75393079999776,None,143.87006870000914,None,None,1,,143.87006870000914,None,145.86974390000978,None,,,,,,,,,,,,,,,,,,,,,,,,,,,,,,,P015,fencog,2,Post,2021_Oct_29_0918,N-Back (New Version 2021),2021.1.4,120.63541082207723,
Conditions/Version_2Pr/oneback(1)_v2.xlsx,New rule: Press 'space' when you see 1-back (i.e. the same letter as the one that appeared 1 letter ago.),P,space,,,,,0,1,1,1,0,5,5,5,,,,,,,,,,,,,,,,,,,,,,,,,,,,,,,,,,,,,,,,,,,1.215,147.36885790000088,None,148.58712120000564,None,space,1,0.3314840999955777,148.58712120000564,None,148.92911370001093,None,,,,,,,,,,,,,,,,,,,,,,,,,,,,,,,P015,fencog,2,Post,2021_Oct_29_0918,N-Back (New Version 2021),2021.1.4,120.63541082207723,
Conditions/Version_2Pr/oneback(1)_v2.xlsx,New rule: Press 'space' when you see 1-back (i.e. the same letter as the one that appeared 1 letter ago.),e,None,,,,,0,1,1,1,0,6,6,6,,,,,,,,,,,,,,,,,,,,,,,,,,,,,,,,,,,,,,,,,,,1.515,150.4345866000076,None,151.95388310001,None,None,1,,151.95388310001,None,153.95894510000653,None,,,,,,,,,,,,,,,,,,,,,,,,,,,,,,,P015,fencog,2,Post,2021_Oct_29_0918,N-Back (New Version 2021),2021.1.4,120.63541082207723,
Conditions/Version_2Pr/oneback(1)_v2.xlsx,New rule: Press 'space' when you see 1-back (i.e. the same letter as the one that appeared 1 letter ago.),r,None,,,,,0,1,1,1,0,7,7,7,,,,,,,,,,,,,,,,,,,,,,,,,,,,,,,,,,,,,,,,,,,1.24,155.4584032999992,None,156.70059750000655,None,None,1,,156.70059750000655,None,158.70760080000036,None,,,,,,,,,,,,,,,,,,,,,,,,,,,,,,,P015,fencog,2,Post,2021_Oct_29_0918,N-Back (New Version 2021),2021.1.4,120.63541082207723,
Conditions/Version_2Pr/oneback(1)_v2.xlsx,New rule: Press 'space' when you see 1-back (i.e. the same letter as the one that appeared 1 letter ago.),R,space,,,,,0,1,1,1,0,8,8,8,,,,,,,,,,,,,,,,,,,,,,,,,,,,,,,,,,,,,,,,,,,1.14,160.20720170000277,None,161.34826359999715,None,space,1,0.5941963999939617,161.34826359999715,None,161.95787710000877,None,,,,,,,,,,,,,,,,,,,,,,,,,,,,,,,P015,fencog,2,Post,2021_Oct_29_0918,N-Back (New Version 2021),2021.1.4,120.63541082207723,
Conditions/Version_2Pr/oneback(1)_v2.xlsx,New rule: Press 'space' when you see 1-back (i.e. the same letter as the one that appeared 1 letter ago.),p,None,,,,,0,1,1,1,0,9,9,9,,,,,,,,,,,,,,,,,,,,,,,,,,,,,,,,,,,,,,,,,,,1.665,163.46442660001048,None,165.13045310000598,None,None,1,,165.13045310000598,None,167.13008470000932,None,,,,,,,,,,,,,,,,,,,,,,,,,,,,,,,P015,fencog,2,Post,2021_Oct_29_0918,N-Back (New Version 2021),2021.1.4,120.63541082207723,
Conditions/Version_2Pr/oneback(1)_v2.xlsx,New rule: Press 'space' when you see 1-back (i.e. the same letter as the one that appeared 1 letter ago.),,,,,,,0,1,1,1,,,,,,,,,,,,,,,,,,,,,,,,,,,,,,,,,,,,,,,,,,,,,,,,,,,,,,,,,,,,,,,,,,,,,,,,,,,,,,,,,,,,,,,,,P015,fencog,2,Post,2021_Oct_29_0918,N-Back (New Version 2021),2021.1.4,120.63541082207723,
Conditions/Version_2Pr/twoback(1)_v2.xlsx,New rule: Press 'space' when you see 2-back (i.e. the same letter as the one that appeared 2 letters ago.),r,None,,,,,0,2,2,2,0,0,0,0,,,,,,,,,,,,,,,,,,,,,,,,,,,,,,,,,168.65582379999978,None,171.63853930000914,None,space,1.7200200000079349,171.63853930000914,None,168.65582379999978,None,1.54,173.3792897000094,None,174.92032520000066,None,None,1,,174.92032520000066,None,176.92435000000114,None,,,,,,,,,,,,,,,,,,,,,,,,,,,,,,,P015,fencog,2,Post,2021_Oct_29_0918,N-Back (New Version 2021),2021.1.4,120.63541082207723,
Conditions/Version_2Pr/twoback(1)_v2.xlsx,New rule: Press 'space' when you see 2-back (i.e. the same letter as the one that appeared 2 letters ago.),P,None,,,,,0,2,2,2,0,1,1,1,,,,,,,,,,,,,,,,,,,,,,,,,,,,,,,,,,,,,,,,,,,1.19,178.42658179999853,None,179.61948880000273,None,None,1,,179.61948880000273,None,181.62562540000363,None,,,,,,,,,,,,,,,,,,,,,,,,,,,,,,,P015,fencog,2,Post,2021_Oct_29_0918,N-Back (New Version 2021),2021.1.4,120.63541082207723,
Conditions/Version_2Pr/twoback(1)_v2.xlsx,New rule: Press 'space' when you see 2-back (i.e. the same letter as the one that appeared 2 letters ago.),o,None,,,,,0,2,2,2,0,2,2,2,,,,,,,,,,,,,,,,,,,,,,,,,,,,,,,,,,,,,,,,,,,1.34,183.1251448999974,None,184.46736910000618,None,None,1,,184.46736910000618,None,186.47434660000727,None,,,,,,,,,,,,,,,,,,,,,,,,,,,,,,,P015,fencog,2,Post,2021_Oct_29_0918,N-Back (New Version 2021),2021.1.4,120.63541082207723,
Conditions/Version_2Pr/twoback(1)_v2.xlsx,New rule: Press 'space' when you see 2-back (i.e. the same letter as the one that appeared 2 letters ago.),p,space,,,,,0,2,2,2,0,3,3,3,,,,,,,,,,,,,,,,,,,,,,,,,,,,,,,,,,,,,,,,,,,1.815,187.97389320000366,None,189.79070420000062,None,None,0,,189.79070420000062,None,191.80169960000785,None,,,,,,,,,,,,,,,,,,,,,,,,,,,,,,,P015,fencog,2,Post,2021_Oct_29_0918,N-Back (New Version 2021),2021.1.4,120.63541082207723,
Conditions/Version_2Pr/twoback(1)_v2.xlsx,New rule: Press 'space' when you see 2-back (i.e. the same letter as the one that appeared 2 letters ago.),Y,None,,,,,0,2,2,2,0,4,4,4,,,,,,,,,,,,,,,,,,,,,,,,,,,,,,,,,,,,,,,,,,,1.115,193.2972596000036,None,194.4134214000078,None,None,1,,194.4134214000078,None,196.41450810000242,None,,,,,,,,,,,,,,,,,,,,,,,,,,,,,,,P015,fencog,2,Post,2021_Oct_29_0918,N-Back (New Version 2021),2021.1.4,120.63541082207723,
Conditions/Version_2Pr/twoback(1)_v2.xlsx,New rule: Press 'space' when you see 2-back (i.e. the same letter as the one that appeared 2 letters ago.),q,None,,,,,0,2,2,2,0,5,5,5,,,,,,,,,,,,,,,,,,,,,,,,,,,,,,,,,,,,,,,,,,,1.065,197.92092910000065,None,198.9887912999984,None,None,1,,198.9887912999984,None,200.99510870000813,None,,,,,,,,,,,,,,,,,,,,,,,,,,,,,,,P015,fencog,2,Post,2021_Oct_29_0918,N-Back (New Version 2021),2021.1.4,120.63541082207723,
Conditions/Version_2Pr/twoback(1)_v2.xlsx,New rule: Press 'space' when you see 2-back (i.e. the same letter as the one that appeared 2 letters ago.),m,None,,,,,0,2,2,2,0,6,6,6,,,,,,,,,,,,,,,,,,,,,,,,,,,,,,,,,,,,,,,,,,,1.165,202.49462640000274,None,203.66070059999765,None,None,1,,203.66070059999765,None,205.66020749999734,None,,,,,,,,,,,,,,,,,,,,,,,,,,,,,,,P015,fencog,2,Post,2021_Oct_29_0918,N-Back (New Version 2021),2021.1.4,120.63541082207723,
Conditions/Version_2Pr/twoback(1)_v2.xlsx,New rule: Press 'space' when you see 2-back (i.e. the same letter as the one that appeared 2 letters ago.),Q,space,,,,,0,2,2,2,0,7,7,7,,,,,,,,,,,,,,,,,,,,,,,,,,,,,,,,,,,,,,,,,,,1.915,207.15987110001151,None,209.07768640000722,None,space,1,0.2968185999925481,209.07768640000722,None,209.38471939999727,None,,,,,,,,,,,,,,,,,,,,,,,,,,,,,,,P015,fencog,2,Post,2021_Oct_29_0918,N-Back (New Version 2021),2021.1.4,120.63541082207723,
Conditions/Version_2Pr/twoback(1)_v2.xlsx,New rule: Press 'space' when you see 2-back (i.e. the same letter as the one that appeared 2 letters ago.),L,None,,,,,0,2,2,2,0,8,8,8,,,,,,,,,,,,,,,,,,,,,,,,,,,,,,,,,,,,,,,,,,,1.49,210.88363750001008,None,212.37706420000177,None,None,1,,212.37706420000177,None,214.38253560000157,None,,,,,,,,,,,,,,,,,,,,,,,,,,,,,,,P015,fencog,2,Post,2021_Oct_29_0918,N-Back (New Version 2021),2021.1.4,120.63541082207723,
Conditions/Version_2Pr/twoback(1)_v2.xlsx,New rule: Press 'space' when you see 2-back (i.e. the same letter as the one that appeared 2 letters ago.),q,space,,,,,0,2,2,2,0,9,9,9,,,,,,,,,,,,,,,,,,,,,,,,,,,,,,,,,,,,,,,,,,,1.265,215.8823185000074,None,217.14909150000312,None,space,1,0.9612729000073159,217.14909150000312,None,218.12380359999952,None,,,,,,,,,,,,,,,,,,,,,,,,,,,,,,,P015,fencog,2,Post,2021_Oct_29_0918,N-Back (New Version 2021),2021.1.4,120.63541082207723,
Conditions/Version_2Pr/twoback(1)_v2.xlsx,New rule: Press 'space' when you see 2-back (i.e. the same letter as the one that appeared 2 letters ago.),,,,,,,0,2,2,2,,,,,,,,,,,,,,,,,,,,,,,,,,,,,,,,,,,,,,,,,,,,,,,,,,,,,,,,,,,,,,,,,,,,,,,,,,,,,,,,,,,,,,,,,P015,fencog,2,Post,2021_Oct_29_0918,N-Back (New Version 2021),2021.1.4,120.63541082207723,
Conditions/Version_2Pr/threeback(1)_v2.xlsx,New rule: Press 'space' when you see 3-back (i.e. the same letter as the one that appeared 3 letters ago.),u,None,,,,,0,3,3,3,0,0,0,0,,,,,,,,,,,,,,,,,,,,,,,,,,,,,,,,,219.64498409999942,None,222.631512500011,None,space,0.5909825999988243,222.631512500011,None,219.64498409999942,None,1.815,223.24146160000237,None,225.06455780001124,None,None,1,,225.06455780001124,None,227.07065190000867,None,,,,,,,,,,,,,,,,,,,,,,,,,,,,,,,P015,fencog,2,Post,2021_Oct_29_0918,N-Back (New Version 2021),2021.1.4,120.63541082207723,
Conditions/Version_2Pr/threeback(1)_v2.xlsx,New rule: Press 'space' when you see 3-back (i.e. the same letter as the one that appeared 3 letters ago.),U,None,,,,,0,3,3,3,0,1,1,1,,,,,,,,,,,,,,,,,,,,,,,,,,,,,,,,,,,,,,,,,,,1.34,228.5702212000033,None,229.91142180000315,None,None,1,,229.91142180000315,None,231.9108067000052,None,,,,,,,,,,,,,,,,,,,,,,,,,,,,,,,P015,fencog,2,Post,2021_Oct_29_0918,N-Back (New Version 2021),2021.1.4,120.63541082207723,
Conditions/Version_2Pr/threeback(1)_v2.xlsx,New rule: Press 'space' when you see 3-back (i.e. the same letter as the one that appeared 3 letters ago.),p,None,,,,,0,3,3,3,0,2,2,2,,,,,,,,,,,,,,,,,,,,,,,,,,,,,,,,,,,,,,,,,,,1.59,233.4102552000113,None,235.00140350000584,None,None,1,,235.00140350000584,None,237.0009546000074,None,,,,,,,,,,,,,,,,,,,,,,,,,,,,,,,P015,fencog,2,Post,2021_Oct_29_0918,N-Back (New Version 2021),2021.1.4,120.63541082207723,
Conditions/Version_2Pr/threeback(1)_v2.xlsx,New rule: Press 'space' when you see 3-back (i.e. the same letter as the one that appeared 3 letters ago.),U,space,,,,,0,3,3,3,0,3,3,3,,,,,,,,,,,,,,,,,,,,,,,,,,,,,,,,,,,,,,,,,,,1.615,238.50058079999872,None,240.1165641999978,None,space,1,0.30594330000167247,240.1165641999978,None,240.43459250000888,None,,,,,,,,,,,,,,,,,,,,,,,,,,,,,,,P015,fencog,2,Post,2021_Oct_29_0918,N-Back (New Version 2021),2021.1.4,120.63541082207723,
Conditions/Version_2Pr/threeback(1)_v2.xlsx,New rule: Press 'space' when you see 3-back (i.e. the same letter as the one that appeared 3 letters ago.),e,None,,,,,0,3,3,3,0,4,4,4,,,,,,,,,,,,,,,,,,,,,,,,,,,,,,,,,,,,,,,,,,,1.765,241.94122430001153,None,243.7071394000086,None,None,1,,243.7071394000086,None,245.70668390000355,None,,,,,,,,,,,,,,,,,,,,,,,,,,,,,,,P015,fencog,2,Post,2021_Oct_29_0918,N-Back (New Version 2021),2021.1.4,120.63541082207723,
Conditions/Version_2Pr/threeback(1)_v2.xlsx,New rule: Press 'space' when you see 3-back (i.e. the same letter as the one that appeared 3 letters ago.),R,None,,,,,0,3,3,3,0,5,5,5,,,,,,,,,,,,,,,,,,,,,,,,,,,,,,,,,,,,,,,,,,,1.24,247.20609040001,None,248.45015450000938,None,None,1,,248.45015450000938,None,250.45547179999994,None,,,,,,,,,,,,,,,,,,,,,,,,,,,,,,,P015,fencog,2,Post,2021_Oct_29_0918,N-Back (New Version 2021),2021.1.4,120.63541082207723,
Conditions/Version_2Pr/threeback(1)_v2.xlsx,New rule: Press 'space' when you see 3-back (i.e. the same letter as the one that appeared 3 letters ago.),p,None,,,,,0,3,3,3,0,6,6,6,,,,,,,,,,,,,,,,,,,,,,,,,,,,,,,,,,,,,,,,,,,1.215,251.95496240000648,None,253.17180599999847,None,None,1,,253.17180599999847,None,255.17910649999976,None,,,,,,,,,,,,,,,,,,,,,,,,,,,,,,,P015,fencog,2,Post,2021_Oct_29_0918,N-Back (New Version 2021),2021.1.4,120.63541082207723,
Conditions/Version_2Pr/threeback(1)_v2.xlsx,New rule: Press 'space' when you see 3-back (i.e. the same letter as the one that appeared 3 letters ago.),E,space,,,,,0,3,3,3,0,7,7,7,,,,,,,,,,,,,,,,,,,,,,,,,,,,,,,,,,,,,,,,,,,1.865,256.6785480000108,None,258.5455909000011,None,space,1,0.4527251000108663,258.5455909000011,None,259.0122963000031,None,,,,,,,,,,,,,,,,,,,,,,,,,,,,,,,P015,fencog,2,Post,2021_Oct_29_0918,N-Back (New Version 2021),2021.1.4,120.63541082207723,
Conditions/Version_2Pr/threeback(1)_v2.xlsx,New rule: Press 'space' when you see 3-back (i.e. the same letter as the one that appeared 3 letters ago.),k,None,,,,,0,3,3,3,0,8,8,8,,,,,,,,,,,,,,,,,,,,,,,,,,,,,,,,,,,,,,,,,,,1.715,260.51913369999966,None,262.23569549999957,None,None,1,,262.23569549999957,None,264.2430958000041,None,,,,,,,,,,,,,,,,,,,,,,,,,,,,,,,P015,fencog,2,Post,2021_Oct_29_0918,N-Back (New Version 2021),2021.1.4,120.63541082207723,
Conditions/Version_2Pr/threeback(1)_v2.xlsx,New rule: Press 'space' when you see 3-back (i.e. the same letter as the one that appeared 3 letters ago.),m,None,,,,,0,3,3,3,0,9,9,9,,,,,,,,,,,,,,,,,,,,,,,,,,,,,,,,,,,,,,,,,,,1.64,265.7425874000037,None,267.38367650000146,None,None,1,,267.38367650000146,None,269.38346740001,None,,,,,,,,,,,,,,,,,,,,,,,,,,,,,,,P015,fencog,2,Post,2021_Oct_29_0918,N-Back (New Version 2021),2021.1.4,120.63541082207723,
Conditions/Version_2Pr/threeback(1)_v2.xlsx,New rule: Press 'space' when you see 3-back (i.e. the same letter as the one that appeared 3 letters ago.),,,,,,,0,3,3,3,,,,,,,,,,,,,,,,,,,,,,,,,,,,,,,,,,,,,,,,,,,,,,,,,,,,,,,,,,,,,,,,,,,,,,,,,,,,,,,,,,,,,,,,,P015,fencog,2,Post,2021_Oct_29_0918,N-Back (New Version 2021),2021.1.4,120.63541082207723,
,,,,,,,,,,,,,,,,,,,,,,,,,,,,,,,,,,,,,,,,,,,,,,,,,,,,,,,,,,,,,,,,,,,,,,270.89006830001017,None,space,0.7920203999965452,271.3826083000022,None,,,,,,,,,,,,,,,,,,,,,,,,,P015,fencog,2,Post,2021_Oct_29_0918,N-Back (New Version 2021),2021.1.4,120.63541082207723,
,,,,,,,,,,,,,,,,,,,,,,,,,,,,,,,,,,,,,,,,,,,,,,,,,,,,,,,,,,,,,,,,,,,,,,,,,,,,272.1977773000108,None,space,0.8112732000008691,272.6910343000054,None,,,,,,,,,,,,,,,,,,,P015,fencog,2,Post,2021_Oct_29_0918,N-Back (New Version 2021),2021.1.4,120.63541082207723,
,,,,Conditions/Version_1/zeroback(1)_v1.xlsx,Rule: Press 'space' when you see the letter 'x' or 'X'.,b,None,,,,,,,,,0,0,0,0,0,0,0,0,,,,,,,,,,,,,,,,,,,,,,,,,,,,,,,,,,,,,,,,,,,,,,,,,,,,,,,,,,,273.6105682000052,None,276.59987679999904,None,space,0.5023669000074733,276.59987679999904,None,273.6105682000052,None,1.2642,278.39839240000583,None,None,1,278.39839240000583,None,,P015,fencog,2,Post,2021_Oct_29_0918,N-Back (New Version 2021),2021.1.4,120.63541082207723,
,,,,Conditions/Version_1/zeroback(1)_v1.xlsx,Rule: Press 'space' when you see the letter 'x' or 'X'.,T,None,,,,,,,,,0,0,0,0,0,1,1,1,,,,,,,,,,,,,,,,,,,,,,,,,,,,,,,,,,,,,,,,,,,,,,,,,,,,,,,,,,,,,,,,,,,,,1.4502,281.85559790000843,None,None,1,281.85559790000843,None,,P015,fencog,2,Post,2021_Oct_29_0918,N-Back (New Version 2021),2021.1.4,120.63541082207723,
,,,,Conditions/Version_1/zeroback(1)_v1.xlsx,Rule: Press 'space' when you see the letter 'x' or 'X'.,L,None,,,,,,,,,0,0,0,0,0,2,2,2,,,,,,,,,,,,,,,,,,,,,,,,,,,,,,,,,,,,,,,,,,,,,,,,,,,,,,,,,,,,,,,,,,,,,1.7726,285.63643160001084,None,None,1,285.63643160001084,None,,P015,fencog,2,Post,2021_Oct_29_0918,N-Back (New Version 2021),2021.1.4,120.63541082207723,
,,,,Conditions/Version_1/zeroback(1)_v1.xlsx,Rule: Press 'space' when you see the letter 'x' or 'X'.,x,space,,,,,,,,,0,0,0,0,0,3,3,3,,,,,,,,,,,,,,,,,,,,,,,,,,,,,,,,,,,,,,,,,,,,,,,,,,,,,,,,,,,,,,,,,,,,,1.7106,289.35196590000123,None,space,1,289.35196590000123,None,0.8382689000136452,P015,fencog,2,Post,2021_Oct_29_0918,N-Back (New Version 2021),2021.1.4,120.63541082207723,
,,,,Conditions/Version_1/zeroback(1)_v1.xlsx,Rule: Press 'space' when you see the letter 'x' or 'X'.,o,None,,,,,,,,,0,0,0,0,0,4,4,4,,,,,,,,,,,,,,,,,,,,,,,,,,,,,,,,,,,,,,,,,,,,,,,,,,,,,,,,,,,,,,,,,,,,,1.1526,292.5095926000067,None,None,1,292.5095926000067,None,,P015,fencog,2,Post,2021_Oct_29_0918,N-Back (New Version 2021),2021.1.4,120.63541082207723,
,,,,Conditions/Version_1/zeroback(1)_v1.xlsx,Rule: Press 'space' when you see the letter 'x' or 'X'.,P,None,,,,,,,,,0,0,0,0,0,5,5,5,,,,,,,,,,,,,,,,,,,,,,,,,,,,,,,,,,,,,,,,,,,,,,,,,,,,,,,,,,,,,,,,,,,,,1.3262,295.8417354999983,None,None,1,295.8417354999983,None,,P015,fencog,2,Post,2021_Oct_29_0918,N-Back (New Version 2021),2021.1.4,120.63541082207723,
,,,,Conditions/Version_1/zeroback(1)_v1.xlsx,Rule: Press 'space' when you see the letter 'x' or 'X'.,X,space,,,,,,,,,0,0,0,0,0,6,6,6,,,,,,,,,,,,,,,,,,,,,,,,,,,,,,,,,,,,,,,,,,,,,,,,,,,,,,,,,,,,,,,,,,,,,1.568,299.41573180000705,None,None,0,299.41573180000705,None,,P015,fencog,2,Post,2021_Oct_29_0918,N-Back (New Version 2021),2021.1.4,120.63541082207723,
,,,,Conditions/Version_1/zeroback(1)_v1.xlsx,Rule: Press 'space' when you see the letter 'x' or 'X'.,n,None,,,,,,,,,0,0,0,0,0,7,7,7,,,,,,,,,,,,,,,,,,,,,,,,,,,,,,,,,,,,,,,,,,,,,,,,,,,,,,,,,,,,,,,,,,,,,1.6672,303.08295320000616,None,None,1,303.08295320000616,None,,P015,fencog,2,Post,2021_Oct_29_0918,N-Back (New Version 2021),2021.1.4,120.63541082207723,
,,,,Conditions/Version_1/zeroback(1)_v1.xlsx,Rule: Press 'space' when you see the letter 'x' or 'X'.,M,None,,,,,,,,,0,0,0,0,0,8,8,8,,,,,,,,,,,,,,,,,,,,,,,,,,,,,,,,,,,,,,,,,,,,,,,,,,,,,,,,,,,,,,,,,,,,,1.8098,306.90580910000426,None,None,1,306.90580910000426,None,,P015,fencog,2,Post,2021_Oct_29_0918,N-Back (New Version 2021),2021.1.4,120.63541082207723,
,,,,Conditions/Version_1/zeroback(1)_v1.xlsx,Rule: Press 'space' when you see the letter 'x' or 'X'.,a,None,,,,,,,,,0,0,0,0,0,9,9,9,,,,,,,,,,,,,,,,,,,,,,,,,,,,,,,,,,,,,,,,,,,,,,,,,,,,,,,,,,,,,,,,,,,,,1.9896,310.90701540000737,None,None,1,310.90701540000737,None,,P015,fencog,2,Post,2021_Oct_29_0918,N-Back (New Version 2021),2021.1.4,120.63541082207723,
,,,,Conditions/Version_1/zeroback(1)_v1.xlsx,Rule: Press 'space' when you see the letter 'x' or 'X'.,,,,,,,,,,,0,0,0,0,,,,,,,,,,,,,,,,,,,,,,,,,,,,,,,,,,,,,,,,,,,,,,,,,,,,,,,,,,,,,,,,,,,,,,,,,,,,,,,,,P015,fencog,2,Post,2021_Oct_29_0918,N-Back (New Version 2021),2021.1.4,120.63541082207723,
,,,,Conditions/Version_1/oneback(1)_v1.xlsx,New rule: Press 'space' when you see 1-back (i.e. the same letter as the one that appeared 1 letter ago.),b,None,,,,,,,,,0,1,1,1,0,0,0,0,,,,,,,,,,,,,,,,,,,,,,,,,,,,,,,,,,,,,,,,,,,,,,,,,,,,,,,,,,,312.93463950000296,None,315.92102390000946,None,space,0.30115280000609346,315.92102390000946,None,312.93463950000296,None,1.8656,318.1194822000107,None,None,1,318.1194822000107,None,,P015,fencog,2,Post,2021_Oct_29_0918,N-Back (New Version 2021),2021.1.4,120.63541082207723,
,,,,Conditions/Version_1/oneback(1)_v1.xlsx,New rule: Press 'space' when you see 1-back (i.e. the same letter as the one that appeared 1 letter ago.),p,None,,,,,,,,,0,1,1,1,0,1,1,1,,,,,,,,,,,,,,,,,,,,,,,,,,,,,,,,,,,,,,,,,,,,,,,,,,,,,,,,,,,,,,,,,,,,,1.32,321.4508874000021,None,None,1,321.4508874000021,None,,P015,fencog,2,Post,2021_Oct_29_0918,N-Back (New Version 2021),2021.1.4,120.63541082207723,
,,,,Conditions/Version_1/oneback(1)_v1.xlsx,New rule: Press 'space' when you see 1-back (i.e. the same letter as the one that appeared 1 letter ago.),M,None,,,,,,,,,0,1,1,1,0,2,2,2,,,,,,,,,,,,,,,,,,,,,,,,,,,,,,,,,,,,,,,,,,,,,,,,,,,,,,,,,,,,,,,,,,,,,1.1092,324.5583076000039,None,None,1,324.5583076000039,None,,P015,fencog,2,Post,2021_Oct_29_0918,N-Back (New Version 2021),2021.1.4,120.63541082207723,
,,,,Conditions/Version_1/oneback(1)_v1.xlsx,New rule: Press 'space' when you see 1-back (i.e. the same letter as the one that appeared 1 letter ago.),M,space,,,,,,,,,0,1,1,1,0,3,3,3,,,,,,,,,,,,,,,,,,,,,,,,,,,,,,,,,,,,,,,,,,,,,,,,,,,,,,,,,,,,,,,,,,,,,1.5494,328.1072181000054,None,space,1,328.1072181000054,None,0.30706049999571405,P015,fencog,2,Post,2021_Oct_29_0918,N-Back (New Version 2021),2021.1.4,120.63541082207723,
,,,,Conditions/Version_1/oneback(1)_v1.xlsx,New rule: Press 'space' when you see 1-back (i.e. the same letter as the one that appeared 1 letter ago.),n,None,,,,,,,,,0,1,1,1,0,4,4,4,,,,,,,,,,,,,,,,,,,,,,,,,,,,,,,,,,,,,,,,,,,,,,,,,,,,,,,,,,,,,,,,,,,,,1.2332,331.3395917000016,None,None,1,331.3395917000016,None,,P015,fencog,2,Post,2021_Oct_29_0918,N-Back (New Version 2021),2021.1.4,120.63541082207723,
,,,,Conditions/Version_1/oneback(1)_v1.xlsx,New rule: Press 'space' when you see 1-back (i.e. the same letter as the one that appeared 1 letter ago.),g,None,,,,,,,,,0,1,1,1,0,5,5,5,,,,,,,,,,,,,,,,,,,,,,,,,,,,,,,,,,,,,,,,,,,,,,,,,,,,,,,,,,,,,,,,,,,,,1.3324,334.6732248000044,None,None,1,334.6732248000044,None,,P015,fencog,2,Post,2021_Oct_29_0918,N-Back (New Version 2021),2021.1.4,120.63541082207723,
,,,,Conditions/Version_1/oneback(1)_v1.xlsx,New rule: Press 'space' when you see 1-back (i.e. the same letter as the one that appeared 1 letter ago.),P,None,,,,,,,,,0,1,1,1,0,6,6,6,,,,,,,,,,,,,,,,,,,,,,,,,,,,,,,,,,,,,,,,,,,,,,,,,,,,,,,,,,,,,,,,,,,,,1.9276,338.6123763000069,None,None,1,338.6123763000069,None,,P015,fencog,2,Post,2021_Oct_29_0918,N-Back (New Version 2021),2021.1.4,120.63541082207723,
,,,,Conditions/Version_1/oneback(1)_v1.xlsx,New rule: Press 'space' when you see 1-back (i.e. the same letter as the one that appeared 1 letter ago.),o,None,,,,,,,,,0,1,1,1,0,7,7,7,,,,,,,,,,,,,,,,,,,,,,,,,,,,,,,,,,,,,,,,,,,,,,,,,,,,,,,,,,,,,,,,,,,,,1.041,341.6539449999982,None,None,1,341.6539449999982,None,,P015,fencog,2,Post,2021_Oct_29_0918,N-Back (New Version 2021),2021.1.4,120.63541082207723,
,,,,Conditions/Version_1/oneback(1)_v1.xlsx,New rule: Press 'space' when you see 1-back (i.e. the same letter as the one that appeared 1 letter ago.),f,None,,,,,,,,,0,1,1,1,0,8,8,8,,,,,,,,,,,,,,,,,,,,,,,,,,,,,,,,,,,,,,,,,,,,,,,,,,,,,,,,,,,,,,,,,,,,,1.4688,345.13573120000365,None,None,1,345.13573120000365,None,,P015,fencog,2,Post,2021_Oct_29_0918,N-Back (New Version 2021),2021.1.4,120.63541082207723,
,,,,Conditions/Version_1/oneback(1)_v1.xlsx,New rule: Press 'space' when you see 1-back (i.e. the same letter as the one that appeared 1 letter ago.),F,space,,,,,,,,,0,1,1,1,0,9,9,9,,,,,,,,,,,,,,,,,,,,,,,,,,,,,,,,,,,,,,,,,,,,,,,,,,,,,,,,,,,,,,,,,,,,,1.9152,349.0607433000114,None,space,1,349.0607433000114,None,0.4174066999985371,P015,fencog,2,Post,2021_Oct_29_0918,N-Back (New Version 2021),2021.1.4,120.63541082207723,
,,,,Conditions/Version_1/oneback(1)_v1.xlsx,New rule: Press 'space' when you see 1-back (i.e. the same letter as the one that appeared 1 letter ago.),,,,,,,,,,,0,1,1,1,,,,,,,,,,,,,,,,,,,,,,,,,,,,,,,,,,,,,,,,,,,,,,,,,,,,,,,,,,,,,,,,,,,,,,,,,,,,,,,,,P015,fencog,2,Post,2021_Oct_29_0918,N-Back (New Version 2021),2021.1.4,120.63541082207723,
,,,,Conditions/Version_1/twoback(1)_v1.xlsx,New rule: Press 'space' when you see 2-back (i.e. the same letter as the one that appeared 2 letters ago.),b,None,,,,,,,,,0,2,2,2,0,0,0,0,,,,,,,,,,,,,,,,,,,,,,,,,,,,,,,,,,,,,,,,,,,,,,,,,,,,,,,,,,,351.0895256000076,None,354.0779668000032,None,space,1.2241389000118943,354.0779668000032,None,351.0895256000076,None,1.4812,356.80830840001,None,None,1,356.80830840001,None,,P015,fencog,2,Post,2021_Oct_29_0918,N-Back (New Version 2021),2021.1.4,120.63541082207723,
,,,,Conditions/Version_1/twoback(1)_v1.xlsx,New rule: Press 'space' when you see 2-back (i.e. the same letter as the one that appeared 2 letters ago.),h,None,,,,,,,,,0,2,2,2,0,1,1,1,,,,,,,,,,,,,,,,,,,,,,,,,,,,,,,,,,,,,,,,,,,,,,,,,,,,,,,,,,,,,,,,,,,,,1.0348,359.858017400009,None,space,0,359.858017400009,None,1.020317900009104,P015,fencog,2,Post,2021_Oct_29_0918,N-Back (New Version 2021),2021.1.4,120.63541082207723,
,,,,Conditions/Version_1/twoback(1)_v1.xlsx,New rule: Press 'space' when you see 2-back (i.e. the same letter as the one that appeared 2 letters ago.),j,None,,,,,,,,,0,2,2,2,0,2,2,2,,,,,,,,,,,,,,,,,,,,,,,,,,,,,,,,,,,,,,,,,,,,,,,,,,,,,,,,,,,,,,,,,,,,,1.8346,363.70827940000163,None,None,1,363.70827940000163,None,,P015,fencog,2,Post,2021_Oct_29_0918,N-Back (New Version 2021),2021.1.4,120.63541082207723,
,,,,Conditions/Version_1/twoback(1)_v1.xlsx,New rule: Press 'space' when you see 2-back (i.e. the same letter as the one that appeared 2 letters ago.),H,space,,,,,,,,,0,2,2,2,0,3,3,3,,,,,,,,,,,,,,,,,,,,,,,,,,,,,,,,,,,,,,,,,,,,,,,,,,,,,,,,,,,,,,,,,,,,,1.2518,366.9722809000086,None,space,1,366.9722809000086,None,0.5938624999980675,P015,fencog,2,Post,2021_Oct_29_0918,N-Back (New Version 2021),2021.1.4,120.63541082207723,
,,,,Conditions/Version_1/twoback(1)_v1.xlsx,New rule: Press 'space' when you see 2-back (i.e. the same letter as the one that appeared 2 letters ago.),p,None,,,,,,,,,0,2,2,2,0,4,4,4,,,,,,,,,,,,,,,,,,,,,,,,,,,,,,,,,,,,,,,,,,,,,,,,,,,,,,,,,,,,,,,,,,,,,1.6424,370.6281289000035,None,None,1,370.6281289000035,None,,P015,fencog,2,Post,2021_Oct_29_0918,N-Back (New Version 2021),2021.1.4,120.63541082207723,
,,,,Conditions/Version_1/twoback(1)_v1.xlsx,New rule: Press 'space' when you see 2-back (i.e. the same letter as the one that appeared 2 letters ago.),p,None,,,,,,,,,0,2,2,2,0,5,5,5,,,,,,,,,,,,,,,,,,,,,,,,,,,,,,,,,,,,,,,,,,,,,,,,,,,,,,,,,,,,,,,,,,,,,1.6052,374.235319600004,None,None,1,374.235319600004,None,,P015,fencog,2,Post,2021_Oct_29_0918,N-Back (New Version 2021),2021.1.4,120.63541082207723,
,,,,Conditions/Version_1/twoback(1)_v1.xlsx,New rule: Press 'space' when you see 2-back (i.e. the same letter as the one that appeared 2 letters ago.),w,None,,,,,,,,,0,2,2,2,0,6,6,6,,,,,,,,,,,,,,,,,,,,,,,,,,,,,,,,,,,,,,,,,,,,,,,,,,,,,,,,,,,,,,,,,,,,,1.878,378.1184609000047,None,None,1,378.1184609000047,None,,P015,fencog,2,Post,2021_Oct_29_0918,N-Back (New Version 2021),2021.1.4,120.63541082207723,
,,,,Conditions/Version_1/twoback(1)_v1.xlsx,New rule: Press 'space' when you see 2-back (i.e. the same letter as the one that appeared 2 letters ago.),R,None,,,,,,,,,0,2,2,2,0,7,7,7,,,,,,,,,,,,,,,,,,,,,,,,,,,,,,,,,,,,,,,,,,,,,,,,,,,,,,,,,,,,,,,,,,,,,1.661,381.79225070000393,None,None,1,381.79225070000393,None,,P015,fencog,2,Post,2021_Oct_29_0918,N-Back (New Version 2021),2021.1.4,120.63541082207723,
,,,,Conditions/Version_1/twoback(1)_v1.xlsx,New rule: Press 'space' when you see 2-back (i.e. the same letter as the one that appeared 2 letters ago.),a,None,,,,,,,,,0,2,2,2,0,8,8,8,,,,,,,,,,,,,,,,,,,,,,,,,,,,,,,,,,,,,,,,,,,,,,,,,,,,,,,,,,,,,,,,,,,,,1.4626,385.2652647000068,None,None,1,385.2652647000068,None,,P015,fencog,2,Post,2021_Oct_29_0918,N-Back (New Version 2021),2021.1.4,120.63541082207723,
,,,,Conditions/Version_1/twoback(1)_v1.xlsx,New rule: Press 'space' when you see 2-back (i.e. the same letter as the one that appeared 2 letters ago.),r,space,,,,,,,,,0,2,2,2,0,9,9,9,,,,,,,,,,,,,,,,,,,,,,,,,,,,,,,,,,,,,,,,,,,,,,,,,,,,,,,,,,,,,,,,,,,,,1.8594,389.13108289999946,None,space,1,389.13108289999946,None,0.41116049999254756,P015,fencog,2,Post,2021_Oct_29_0918,N-Back (New Version 2021),2021.1.4,120.63541082207723,
,,,,Conditions/Version_1/twoback(1)_v1.xlsx,New rule: Press 'space' when you see 2-back (i.e. the same letter as the one that appeared 2 letters ago.),,,,,,,,,,,0,2,2,2,,,,,,,,,,,,,,,,,,,,,,,,,,,,,,,,,,,,,,,,,,,,,,,,,,,,,,,,,,,,,,,,,,,,,,,,,,,,,,,,,P015,fencog,2,Post,2021_Oct_29_0918,N-Back (New Version 2021),2021.1.4,120.63541082207723,
,,,,Conditions/Version_1/threeback(1)_v1.xlsx,New rule: Press 'space' when you see 3-back (i.e. the same letter as the one that appeared 3 letters ago.),r,None,,,,,,,,,0,3,3,3,0,0,0,0,,,,,,,,,,,,,,,,,,,,,,,,,,,,,,,,,,,,,,,,,,,,,,,,,,,,,,,,,,,391.15291380000417,None,394.14031350000005,None,space,0.9458026000065729,394.14031350000005,None,391.15291380000417,None,1.4378,396.5537714000093,None,None,1,396.5537714000093,None,,P015,fencog,2,Post,2021_Oct_29_0918,N-Back (New Version 2021),2021.1.4,120.63541082207723,
,,,,Conditions/Version_1/threeback(1)_v1.xlsx,New rule: Press 'space' when you see 3-back (i.e. the same letter as the one that appeared 3 letters ago.),o,None,,,,,,,,,0,3,3,3,0,1,1,1,,,,,,,,,,,,,,,,,,,,,,,,,,,,,,,,,,,,,,,,,,,,,,,,,,,,,,,,,,,,,,,,,,,,,1.4254,399.97889379999833,None,None,1,399.97889379999833,None,,P015,fencog,2,Post,2021_Oct_29_0918,N-Back (New Version 2021),2021.1.4,120.63541082207723,
,,,,Conditions/Version_1/threeback(1)_v1.xlsx,New rule: Press 'space' when you see 3-back (i.e. the same letter as the one that appeared 3 letters ago.),P,None,,,,,,,,,0,3,3,3,0,2,2,2,,,,,,,,,,,,,,,,,,,,,,,,,,,,,,,,,,,,,,,,,,,,,,,,,,,,,,,,,,,,,,,,,,,,,1.5246,403.5105760000006,None,None,1,403.5105760000006,None,,P015,fencog,2,Post,2021_Oct_29_0918,N-Back (New Version 2021),2021.1.4,120.63541082207723,
,,,,Conditions/Version_1/threeback(1)_v1.xlsx,New rule: Press 'space' when you see 3-back (i.e. the same letter as the one that appeared 3 letters ago.),R,space,,,,,,,,,0,3,3,3,0,3,3,3,,,,,,,,,,,,,,,,,,,,,,,,,,,,,,,,,,,,,,,,,,,,,,,,,,,,,,,,,,,,,,,,,,,,,1.785,407.30959489999805,None,space,1,407.30959489999805,None,0.624417099999846,P015,fencog,2,Post,2021_Oct_29_0918,N-Back (New Version 2021),2021.1.4,120.63541082207723,
,,,,Conditions/Version_1/threeback(1)_v1.xlsx,New rule: Press 'space' when you see 3-back (i.e. the same letter as the one that appeared 3 letters ago.),p,None,,,,,,,,,0,3,3,3,0,4,4,4,,,,,,,,,,,,,,,,,,,,,,,,,,,,,,,,,,,,,,,,,,,,,,,,,,,,,,,,,,,,,,,,,,,,,1.1898,410.50922520000313,None,None,1,410.50922520000313,None,,P015,fencog,2,Post,2021_Oct_29_0918,N-Back (New Version 2021),2021.1.4,120.63541082207723,
,,,,Conditions/Version_1/threeback(1)_v1.xlsx,New rule: Press 'space' when you see 3-back (i.e. the same letter as the one that appeared 3 letters ago.),E,None,,,,,,,,,0,3,3,3,0,5,5,5,,,,,,,,,,,,,,,,,,,,,,,,,,,,,,,,,,,,,,,,,,,,,,,,,,,,,,,,,,,,,,,,,,,,,1.1774,413.69838529999834,None,None,1,413.69838529999834,None,,P015,fencog,2,Post,2021_Oct_29_0918,N-Back (New Version 2021),2021.1.4,120.63541082207723,
,,,,Conditions/Version_1/threeback(1)_v1.xlsx,New rule: Press 'space' when you see 3-back (i.e. the same letter as the one that appeared 3 letters ago.),e,None,,,,,,,,,0,3,3,3,0,6,6,6,,,,,,,,,,,,,,,,,,,,,,,,,,,,,,,,,,,,,,,,,,,,,,,,,,,,,,,,,,,,,,,,,,,,,1.9896,417.69004040000436,None,None,1,417.69004040000436,None,,P015,fencog,2,Post,2021_Oct_29_0918,N-Back (New Version 2021),2021.1.4,120.63541082207723,
,,,,Conditions/Version_1/threeback(1)_v1.xlsx,New rule: Press 'space' when you see 3-back (i.e. the same letter as the one that appeared 3 letters ago.),m,None,,,,,,,,,0,3,3,3,0,7,7,7,,,,,,,,,,,,,,,,,,,,,,,,,,,,,,,,,,,,,,,,,,,,,,,,,,,,,,,,,,,,,,,,,,,,,1.6982,421.3966883000103,None,None,1,421.3966883000103,None,,P015,fencog,2,Post,2021_Oct_29_0918,N-Back (New Version 2021),2021.1.4,120.63541082207723,
,,,,Conditions/Version_1/threeback(1)_v1.xlsx,New rule: Press 'space' when you see 3-back (i.e. the same letter as the one that appeared 3 letters ago.),n,None,,,,,,,,,0,3,3,3,0,8,8,8,,,,,,,,,,,,,,,,,,,,,,,,,,,,,,,,,,,,,,,,,,,,,,,,,,,,,,,,,,,,,,,,,,,,,1.5494,424.94513170000573,None,None,1,424.94513170000573,None,,P015,fencog,2,Post,2021_Oct_29_0918,N-Back (New Version 2021),2021.1.4,120.63541082207723,
,,,,Conditions/Version_1/threeback(1)_v1.xlsx,New rule: Press 'space' when you see 3-back (i.e. the same letter as the one that appeared 3 letters ago.),e,space,,,,,,,,,0,3,3,3,0,9,9,9,,,,,,,,,,,,,,,,,,,,,,,,,,,,,,,,,,,,,,,,,,,,,,,,,,,,,,,,,,,,,,,,,,,,,1.2332,428.1775331000099,None,space,1,428.1775331000099,None,0.8606604999949923,P015,fencog,2,Post,2021_Oct_29_0918,N-Back (New Version 2021),2021.1.4,120.63541082207723,
,,,,Conditions/Version_1/threeback(1)_v1.xlsx,New rule: Press 'space' when you see 3-back (i.e. the same letter as the one that appeared 3 letters ago.),,,,,,,,,,,0,3,3,3,,,,,,,,,,,,,,,,,,,,,,,,,,,,,,,,,,,,,,,,,,,,,,,,,,,,,,,,,,,,,,,,,,,,,,,,,,,,,,,,,P015,fencog,2,Post,2021_Oct_29_0918,N-Back (New Version 2021),2021.1.4,120.63541082207723,
,,,,Conditions/Version_1/oneback(2)_v1.xlsx,New rule: Press 'space' when you see 1-back (i.e. the same letter as the one that appeared 1 letter ago.),q,None,,,,,,,,,0,4,4,4,0,0,0,0,,,,,,,,,,,,,,,,,,,,,,,,,,,,,,,,,,,,,,,,,,,,,,,,,,,,,,,,,,,430.203353600009,None,433.1875905000052,None,space,0.5704028000036487,433.1875905000052,None,430.203353600009,None,1.5556,435.3442117000086,None,None,1,435.3442117000086,None,,P015,fencog,2,Post,2021_Oct_29_0918,N-Back (New Version 2021),2021.1.4,120.63541082207723,
,,,,Conditions/Version_1/oneback(2)_v1.xlsx,New rule: Press 'space' when you see 1-back (i.e. the same letter as the one that appeared 1 letter ago.),Q,space,,,,,,,,,0,4,4,4,0,1,1,1,,,,,,,,,,,,,,,,,,,,,,,,,,,,,,,,,,,,,,,,,,,,,,,,,,,,,,,,,,,,,,,,,,,,,1.5742,438.9243484000035,None,space,1,438.9243484000035,None,0.4016140000021551,P015,fencog,2,Post,2021_Oct_29_0918,N-Back (New Version 2021),2021.1.4,120.63541082207723,
,,,,Conditions/Version_1/oneback(2)_v1.xlsx,New rule: Press 'space' when you see 1-back (i.e. the same letter as the one that appeared 1 letter ago.),P,None,,,,,,,,,0,4,4,4,0,2,2,2,,,,,,,,,,,,,,,,,,,,,,,,,,,,,,,,,,,,,,,,,,,,,,,,,,,,,,,,,,,,,,,,,,,,,1.4626,442.39180560001114,None,None,1,442.39180560001114,None,,P015,fencog,2,Post,2021_Oct_29_0918,N-Back (New Version 2021),2021.1.4,120.63541082207723,
,,,,Conditions/Version_1/oneback(2)_v1.xlsx,New rule: Press 'space' when you see 1-back (i.e. the same letter as the one that appeared 1 letter ago.),o,None,,,,,,,,,0,4,4,4,0,3,3,3,,,,,,,,,,,,,,,,,,,,,,,,,,,,,,,,,,,,,,,,,,,,,,,,,,,,,,,,,,,,,,,,,,,,,1.9896,446.3910820000019,None,None,1,446.3910820000019,None,,P015,fencog,2,Post,2021_Oct_29_0918,N-Back (New Version 2021),2021.1.4,120.63541082207723,
,,,,Conditions/Version_1/oneback(2)_v1.xlsx,New rule: Press 'space' when you see 1-back (i.e. the same letter as the one that appeared 1 letter ago.),m,None,,,,,,,,,0,4,4,4,0,4,4,4,,,,,,,,,,,,,,,,,,,,,,,,,,,,,,,,,,,,,,,,,,,,,,,,,,,,,,,,,,,,,,,,,,,,,1.5308,449.930494500004,None,None,1,449.930494500004,None,,P015,fencog,2,Post,2021_Oct_29_0918,N-Back (New Version 2021),2021.1.4,120.63541082207723,
,,,,Conditions/Version_1/oneback(2)_v1.xlsx,New rule: Press 'space' when you see 1-back (i.e. the same letter as the one that appeared 1 letter ago.),Z,None,,,,,,,,,0,4,4,4,0,5,5,5,,,,,,,,,,,,,,,,,,,,,,,,,,,,,,,,,,,,,,,,,,,,,,,,,,,,,,,,,,,,,,,,,,,,,1.9958,453.93948210000235,None,None,1,453.93948210000235,None,,P015,fencog,2,Post,2021_Oct_29_0918,N-Back (New Version 2021),2021.1.4,120.63541082207723,
,,,,Conditions/Version_1/oneback(2)_v1.xlsx,New rule: Press 'space' when you see 1-back (i.e. the same letter as the one that appeared 1 letter ago.),c,None,,,,,,,,,0,4,4,4,0,6,6,6,,,,,,,,,,,,,,,,,,,,,,,,,,,,,,,,,,,,,,,,,,,,,,,,,,,,,,,,,,,,,,,,,,,,,1.5866,457.53994500001136,None,None,1,457.53994500001136,None,,P015,fencog,2,Post,2021_Oct_29_0918,N-Back (New Version 2021),2021.1.4,120.63541082207723,
,,,,Conditions/Version_1/oneback(2)_v1.xlsx,New rule: Press 'space' when you see 1-back (i.e. the same letter as the one that appeared 1 letter ago.),c,space,,,,,,,,,0,4,4,4,0,7,7,7,,,,,,,,,,,,,,,,,,,,,,,,,,,,,,,,,,,,,,,,,,,,,,,,,,,,,,,,,,,,,,,,,,,,,1.4998,461.0430076000048,None,space,1,461.0430076000048,None,0.3711955000035232,P015,fencog,2,Post,2021_Oct_29_0918,N-Back (New Version 2021),2021.1.4,120.63541082207723,
,,,,Conditions/Version_1/oneback(2)_v1.xlsx,New rule: Press 'space' when you see 1-back (i.e. the same letter as the one that appeared 1 letter ago.),P,None,,,,,,,,,0,4,4,4,0,8,8,8,,,,,,,,,,,,,,,,,,,,,,,,,,,,,,,,,,,,,,,,,,,,,,,,,,,,,,,,,,,,,,,,,,,,,1.1402,464.1835812000063,None,None,1,464.1835812000063,None,,P015,fencog,2,Post,2021_Oct_29_0918,N-Back (New Version 2021),2021.1.4,120.63541082207723,
,,,,Conditions/Version_1/oneback(2)_v1.xlsx,New rule: Press 'space' when you see 1-back (i.e. the same letter as the one that appeared 1 letter ago.),p,space,,,,,,,,,0,4,4,4,0,9,9,9,,,,,,,,,,,,,,,,,,,,,,,,,,,,,,,,,,,,,,,,,,,,,,,,,,,,,,,,,,,,,,,,,,,,,1.4812,467.66594190000615,None,space,1,467.66594190000615,None,0.412086599986651,P015,fencog,2,Post,2021_Oct_29_0918,N-Back (New Version 2021),2021.1.4,120.63541082207723,
,,,,Conditions/Version_1/oneback(2)_v1.xlsx,New rule: Press 'space' when you see 1-back (i.e. the same letter as the one that appeared 1 letter ago.),,,,,,,,,,,0,4,4,4,,,,,,,,,,,,,,,,,,,,,,,,,,,,,,,,,,,,,,,,,,,,,,,,,,,,,,,,,,,,,,,,,,,,,,,,,,,,,,,,,P015,fencog,2,Post,2021_Oct_29_0918,N-Back (New Version 2021),2021.1.4,120.63541082207723,
,,,,Conditions/Version_1/zeroback(2)_v1.xlsx,New rule: Press 'space' when you see the letter 'x' or 'X'.,p,None,,,,,,,,,0,5,5,5,0,0,0,0,,,,,,,,,,,,,,,,,,,,,,,,,,,,,,,,,,,,,,,,,,,,,,,,,,,,,,,,,,,469.68718810001155,None,472.67425650000223,None,space,0.4756474000023445,472.67425650000223,None,469.68718810001155,None,1.5308,474.7056767000031,None,None,1,474.7056767000031,None,,P015,fencog,2,Post,2021_Oct_29_0918,N-Back (New Version 2021),2021.1.4,120.63541082207723,
,,,,Conditions/Version_1/zeroback(2)_v1.xlsx,New rule: Press 'space' when you see the letter 'x' or 'X'.,L,None,,,,,,,,,0,5,5,5,0,1,1,1,,,,,,,,,,,,,,,,,,,,,,,,,,,,,,,,,,,,,,,,,,,,,,,,,,,,,,,,,,,,,,,,,,,,,1.7106,478.4209724000102,None,None,1,478.4209724000102,None,,P015,fencog,2,Post,2021_Oct_29_0918,N-Back (New Version 2021),2021.1.4,120.63541082207723,
,,,,Conditions/Version_1/zeroback(2)_v1.xlsx,New rule: Press 'space' when you see the letter 'x' or 'X'.,G,None,,,,,,,,,0,5,5,5,0,2,2,2,,,,,,,,,,,,,,,,,,,,,,,,,,,,,,,,,,,,,,,,,,,,,,,,,,,,,,,,,,,,,,,,,,,,,1.0968,481.5225003000087,None,None,1,481.5225003000087,None,,P015,fencog,2,Post,2021_Oct_29_0918,N-Back (New Version 2021),2021.1.4,120.63541082207723,
,,,,Conditions/Version_1/zeroback(2)_v1.xlsx,New rule: Press 'space' when you see the letter 'x' or 'X'.,y,None,,,,,,,,,0,5,5,5,0,3,3,3,,,,,,,,,,,,,,,,,,,,,,,,,,,,,,,,,,,,,,,,,,,,,,,,,,,,,,,,,,,,,,,,,,,,,1.971,485.5022624999983,None,None,1,485.5022624999983,None,,P015,fencog,2,Post,2021_Oct_29_0918,N-Back (New Version 2021),2021.1.4,120.63541082207723,
,,,,Conditions/Version_1/zeroback(2)_v1.xlsx,New rule: Press 'space' when you see the letter 'x' or 'X'.,Y,None,,,,,,,,,0,5,5,5,0,4,4,4,,,,,,,,,,,,,,,,,,,,,,,,,,,,,,,,,,,,,,,,,,,,,,,,,,,,,,,,,,,,,,,,,,,,,1.5494,489.0513387000101,None,None,1,489.0513387000101,None,,P015,fencog,2,Post,2021_Oct_29_0918,N-Back (New Version 2021),2021.1.4,120.63541082207723,
,,,,Conditions/Version_1/zeroback(2)_v1.xlsx,New rule: Press 'space' when you see the letter 'x' or 'X'.,W,None,,,,,,,,,0,5,5,5,0,5,5,5,,,,,,,,,,,,,,,,,,,,,,,,,,,,,,,,,,,,,,,,,,,,,,,,,,,,,,,,,,,,,,,,,,,,,1.8594,492.91844150000543,None,None,1,492.91844150000543,None,,P015,fencog,2,Post,2021_Oct_29_0918,N-Back (New Version 2021),2021.1.4,120.63541082207723,
,,,,Conditions/Version_1/zeroback(2)_v1.xlsx,New rule: Press 'space' when you see the letter 'x' or 'X'.,x,space,,,,,,,,,0,5,5,5,0,6,6,6,,,,,,,,,,,,,,,,,,,,,,,,,,,,,,,,,,,,,,,,,,,,,,,,,,,,,,,,,,,,,,,,,,,,,1.537,496.46565179999743,None,space,1,496.46565179999743,None,0.31634970000595786,P015,fencog,2,Post,2021_Oct_29_0918,N-Back (New Version 2021),2021.1.4,120.63541082207723,
,,,,Conditions/Version_1/zeroback(2)_v1.xlsx,New rule: Press 'space' when you see the letter 'x' or 'X'.,X,space,,,,,,,,,0,5,5,5,0,7,7,7,,,,,,,,,,,,,,,,,,,,,,,,,,,,,,,,,,,,,,,,,,,,,,,,,,,,,,,,,,,,,,,,,,,,,1.3944,499.864782500008,None,space,1,499.864782500008,None,0.5252586999995401,P015,fencog,2,Post,2021_Oct_29_0918,N-Back (New Version 2021),2021.1.4,120.63541082207723,
,,,,Conditions/Version_1/zeroback(2)_v1.xlsx,New rule: Press 'space' when you see the letter 'x' or 'X'.,p,None,,,,,,,,,0,5,5,5,0,8,8,8,,,,,,,,,,,,,,,,,,,,,,,,,,,,,,,,,,,,,,,,,,,,,,,,,,,,,,,,,,,,,,,,,,,,,1.7044,503.5718746000057,None,None,1,503.5718746000057,None,,P015,fencog,2,Post,2021_Oct_29_0918,N-Back (New Version 2021),2021.1.4,120.63541082207723,
,,,,Conditions/Version_1/zeroback(2)_v1.xlsx,New rule: Press 'space' when you see the letter 'x' or 'X'.,h,None,,,,,,,,,0,5,5,5,0,9,9,9,,,,,,,,,,,,,,,,,,,,,,,,,,,,,,,,,,,,,,,,,,,,,,,,,,,,,,,,,,,,,,,,,,,,,1.847,507.422679100011,None,None,1,507.422679100011,None,,P015,fencog,2,Post,2021_Oct_29_0918,N-Back (New Version 2021),2021.1.4,120.63541082207723,
,,,,Conditions/Version_1/zeroback(2)_v1.xlsx,New rule: Press 'space' when you see the letter 'x' or 'X'.,,,,,,,,,,,0,5,5,5,,,,,,,,,,,,,,,,,,,,,,,,,,,,,,,,,,,,,,,,,,,,,,,,,,,,,,,,,,,,,,,,,,,,,,,,,,,,,,,,,P015,fencog,2,Post,2021_Oct_29_0918,N-Back (New Version 2021),2021.1.4,120.63541082207723,
,,,,Conditions/Version_1/threeback(2)_v1.xlsx,New rule: Press 'space' when you see 3-back (i.e. the same letter as the one that appeared 3 letters ago.),q,None,,,,,,,,,0,6,6,6,0,0,0,0,,,,,,,,,,,,,,,,,,,,,,,,,,,,,,,,,,,,,,,,,,,,,,,,,,,,,,,,,,,509.45376000000397,None,512.4383598999993,None,space,13.783496100004413,512.4383598999993,None,509.45376000000397,None,1.2084,527.4583351000038,None,None,1,527.4583351000038,None,,P015,fencog,2,Post,2021_Oct_29_0918,N-Back (New Version 2021),2021.1.4,120.63541082207723,
,,,,Conditions/Version_1/threeback(2)_v1.xlsx,New rule: Press 'space' when you see 3-back (i.e. the same letter as the one that appeared 3 letters ago.),Y,None,,,,,,,,,0,6,6,6,0,1,1,1,,,,,,,,,,,,,,,,,,,,,,,,,,,,,,,,,,,,,,,,,,,,,,,,,,,,,,,,,,,,,,,,,,,,,1.5246,530.9887346000032,None,None,1,530.9887346000032,None,,P015,fencog,2,Post,2021_Oct_29_0918,N-Back (New Version 2021),2021.1.4,120.63541082207723,
,,,,Conditions/Version_1/threeback(2)_v1.xlsx,New rule: Press 'space' when you see 3-back (i.e. the same letter as the one that appeared 3 letters ago.),p,None,,,,,,,,,0,6,6,6,0,2,2,2,,,,,,,,,,,,,,,,,,,,,,,,,,,,,,,,,,,,,,,,,,,,,,,,,,,,,,,,,,,,,,,,,,,,,1.444,534.4388084000093,None,None,1,534.4388084000093,None,,P015,fencog,2,Post,2021_Oct_29_0918,N-Back (New Version 2021),2021.1.4,120.63541082207723,
,,,,Conditions/Version_1/threeback(2)_v1.xlsx,New rule: Press 'space' when you see 3-back (i.e. the same letter as the one that appeared 3 letters ago.),p,None,,,,,,,,,0,6,6,6,0,3,3,3,,,,,,,,,,,,,,,,,,,,,,,,,,,,,,,,,,,,,,,,,,,,,,,,,,,,,,,,,,,,,,,,,,,,,1.9462,538.395059500006,None,None,1,538.395059500006,None,,P015,fencog,2,Post,2021_Oct_29_0918,N-Back (New Version 2021),2021.1.4,120.63541082207723,
,,,,Conditions/Version_1/threeback(2)_v1.xlsx,New rule: Press 'space' when you see 3-back (i.e. the same letter as the one that appeared 3 letters ago.),y,space,,,,,,,,,0,6,6,6,0,4,4,4,,,,,,,,,,,,,,,,,,,,,,,,,,,,,,,,,,,,,,,,,,,,,,,,,,,,,,,,,,,,,,,,,,,,,1.1836,541.578325200011,None,space,1,541.578325200011,None,0.331672600004822,P015,fencog,2,Post,2021_Oct_29_0918,N-Back (New Version 2021),2021.1.4,120.63541082207723,
,,,,Conditions/Version_1/threeback(2)_v1.xlsx,New rule: Press 'space' when you see 3-back (i.e. the same letter as the one that appeared 3 letters ago.),u,None,,,,,,,,,0,6,6,6,0,5,5,5,,,,,,,,,,,,,,,,,,,,,,,,,,,,,,,,,,,,,,,,,,,,,,,,,,,,,,,,,,,,,,,,,,,,,1.1216,544.7123352000053,None,None,1,544.7123352000053,None,,P015,fencog,2,Post,2021_Oct_29_0918,N-Back (New Version 2021),2021.1.4,120.63541082207723,
,,,,Conditions/Version_1/threeback(2)_v1.xlsx,New rule: Press 'space' when you see 3-back (i.e. the same letter as the one that appeared 3 letters ago.),P,space,,,,,,,,,0,6,6,6,0,6,6,6,,,,,,,,,,,,,,,,,,,,,,,,,,,,,,,,,,,,,,,,,,,,,,,,,,,,,,,,,,,,,,,,,,,,,1.1898,547.9088513000024,None,space,1,547.9088513000024,None,0.8891594000015175,P015,fencog,2,Post,2021_Oct_29_0918,N-Back (New Version 2021),2021.1.4,120.63541082207723,
,,,,Conditions/Version_1/threeback(2)_v1.xlsx,New rule: Press 'space' when you see 3-back (i.e. the same letter as the one that appeared 3 letters ago.),a,None,,,,,,,,,0,6,6,6,0,7,7,7,,,,,,,,,,,,,,,,,,,,,,,,,,,,,,,,,,,,,,,,,,,,,,,,,,,,,,,,,,,,,,,,,,,,,1.4874,551.4003553000075,None,None,1,551.4003553000075,None,,P015,fencog,2,Post,2021_Oct_29_0918,N-Back (New Version 2021),2021.1.4,120.63541082207723,
,,,,Conditions/Version_1/threeback(2)_v1.xlsx,New rule: Press 'space' when you see 3-back (i.e. the same letter as the one that appeared 3 letters ago.),U,space,,,,,,,,,0,6,6,6,0,8,8,8,,,,,,,,,,,,,,,,,,,,,,,,,,,,,,,,,,,,,,,,,,,,,,,,,,,,,,,,,,,,,,,,,,,,,1.4626,554.8734508000052,None,space,1,554.8734508000052,None,0.4605417999991914,P015,fencog,2,Post,2021_Oct_29_0918,N-Back (New Version 2021),2021.1.4,120.63541082207723,
,,,,Conditions/Version_1/threeback(2)_v1.xlsx,New rule: Press 'space' when you see 3-back (i.e. the same letter as the one that appeared 3 letters ago.),q,None,,,,,,,,,0,6,6,6,0,9,9,9,,,,,,,,,,,,,,,,,,,,,,,,,,,,,,,,,,,,,,,,,,,,,,,,,,,,,,,,,,,,,,,,,,,,,1.568,558.4473096000002,None,None,1,558.4473096000002,None,,P015,fencog,2,Post,2021_Oct_29_0918,N-Back (New Version 2021),2021.1.4,120.63541082207723,
,,,,Conditions/Version_1/threeback(2)_v1.xlsx,New rule: Press 'space' when you see 3-back (i.e. the same letter as the one that appeared 3 letters ago.),,,,,,,,,,,0,6,6,6,,,,,,,,,,,,,,,,,,,,,,,,,,,,,,,,,,,,,,,,,,,,,,,,,,,,,,,,,,,,,,,,,,,,,,,,,,,,,,,,,P015,fencog,2,Post,2021_Oct_29_0918,N-Back (New Version 2021),2021.1.4,120.63541082207723,
,,,,Conditions/Version_1/twoback(2)_v1.xlsx,New rule: Press 'space' when you see 2-back (i.e. the same letter as the one that appeared 2 letters ago.),q,None,,,,,,,,,0,7,7,7,0,0,0,0,,,,,,,,,,,,,,,,,,,,,,,,,,,,,,,,,,,,,,,,,,,,,,,,,,,,,,,,,,,560.4715236000047,None,563.456809299998,None,space,0.1090468000038527,563.456809299998,None,560.4715236000047,None,1.134,564.7289884000056,None,None,1,564.7289884000056,None,,P015,fencog,2,Post,2021_Oct_29_0918,N-Back (New Version 2021),2021.1.4,120.63541082207723,
,,,,Conditions/Version_1/twoback(2)_v1.xlsx,New rule: Press 'space' when you see 2-back (i.e. the same letter as the one that appeared 2 letters ago.),r,None,,,,,,,,,0,7,7,7,0,1,1,1,,,,,,,,,,,,,,,,,,,,,,,,,,,,,,,,,,,,,,,,,,,,,,,,,,,,,,,,,,,,,,,,,,,,,1.2084,567.9371375000046,None,None,1,567.9371375000046,None,,P015,fencog,2,Post,2021_Oct_29_0918,N-Back (New Version 2021),2021.1.4,120.63541082207723,
,,,,Conditions/Version_1/twoback(2)_v1.xlsx,New rule: Press 'space' when you see 2-back (i.e. the same letter as the one that appeared 2 letters ago.),q,space,,,,,,,,,0,7,7,7,0,2,2,2,,,,,,,,,,,,,,,,,,,,,,,,,,,,,,,,,,,,,,,,,,,,,,,,,,,,,,,,,,,,,,,,,,,,,1.909,571.8530183999974,None,space,1,571.8530183999974,None,0.3847740000055637,P015,fencog,2,Post,2021_Oct_29_0918,N-Back (New Version 2021),2021.1.4,120.63541082207723,
,,,,Conditions/Version_1/twoback(2)_v1.xlsx,New rule: Press 'space' when you see 2-back (i.e. the same letter as the one that appeared 2 letters ago.),P,None,,,,,,,,,0,7,7,7,0,3,3,3,,,,,,,,,,,,,,,,,,,,,,,,,,,,,,,,,,,,,,,,,,,,,,,,,,,,,,,,,,,,,,,,,,,,,1.7664,575.6253271000023,None,None,1,575.6253271000023,None,,P015,fencog,2,Post,2021_Oct_29_0918,N-Back (New Version 2021),2021.1.4,120.63541082207723,
,,,,Conditions/Version_1/twoback(2)_v1.xlsx,New rule: Press 'space' when you see 2-back (i.e. the same letter as the one that appeared 2 letters ago.),p,None,,,,,,,,,0,7,7,7,0,4,4,4,,,,,,,,,,,,,,,,,,,,,,,,,,,,,,,,,,,,,,,,,,,,,,,,,,,,,,,,,,,,,,,,,,,,,1.9524,579.5825643999997,None,None,1,579.5825643999997,None,,P015,fencog,2,Post,2021_Oct_29_0918,N-Back (New Version 2021),2021.1.4,120.63541082207723,
,,,,Conditions/Version_1/twoback(2)_v1.xlsx,New rule: Press 'space' when you see 2-back (i.e. the same letter as the one that appeared 2 letters ago.),H,None,,,,,,,,,0,7,7,7,0,5,5,5,,,,,,,,,,,,,,,,,,,,,,,,,,,,,,,,,,,,,,,,,,,,,,,,,,,,,,,,,,,,,,,,,,,,,1.2208,582.8082160000049,None,None,1,582.8082160000049,None,,P015,fencog,2,Post,2021_Oct_29_0918,N-Back (New Version 2021),2021.1.4,120.63541082207723,
,,,,Conditions/Version_1/twoback(2)_v1.xlsx,New rule: Press 'space' when you see 2-back (i.e. the same letter as the one that appeared 2 letters ago.),g,None,,,,,,,,,0,7,7,7,0,6,6,6,,,,,,,,,,,,,,,,,,,,,,,,,,,,,,,,,,,,,,,,,,,,,,,,,,,,,,,,,,,,,,,,,,,,,1.0596,585.8812412999978,None,None,1,585.8812412999978,None,,P015,fencog,2,Post,2021_Oct_29_0918,N-Back (New Version 2021),2021.1.4,120.63541082207723,
,,,,Conditions/Version_1/twoback(2)_v1.xlsx,New rule: Press 'space' when you see 2-back (i.e. the same letter as the one that appeared 2 letters ago.),j,None,,,,,,,,,0,7,7,7,0,7,7,7,,,,,,,,,,,,,,,,,,,,,,,,,,,,,,,,,,,,,,,,,,,,,,,,,,,,,,,,,,,,,,,,,,,,,1.2146,589.0973560999992,None,None,1,589.0973560999992,None,,P015,fencog,2,Post,2021_Oct_29_0918,N-Back (New Version 2021),2021.1.4,120.63541082207723,
,,,,Conditions/Version_1/twoback(2)_v1.xlsx,New rule: Press 'space' when you see 2-back (i.e. the same letter as the one that appeared 2 letters ago.),g,space,,,,,,,,,0,7,7,7,0,8,8,8,,,,,,,,,,,,,,,,,,,,,,,,,,,,,,,,,,,,,,,,,,,,,,,,,,,,,,,,,,,,,,,,,,,,,1.4502,592.5537573000038,None,space,1,592.5537573000038,None,0.7080985000065994,P015,fencog,2,Post,2021_Oct_29_0918,N-Back (New Version 2021),2021.1.4,120.63541082207723,
,,,,Conditions/Version_1/twoback(2)_v1.xlsx,New rule: Press 'space' when you see 2-back (i.e. the same letter as the one that appeared 2 letters ago.),G,None,,,,,,,,,0,7,7,7,0,9,9,9,,,,,,,,,,,,,,,,,,,,,,,,,,,,,,,,,,,,,,,,,,,,,,,,,,,,,,,,,,,,,,,,,,,,,1.382,595.9372975000006,None,None,1,595.9372975000006,None,,P015,fencog,2,Post,2021_Oct_29_0918,N-Back (New Version 2021),2021.1.4,120.63541082207723,
,,,,Conditions/Version_1/twoback(2)_v1.xlsx,New rule: Press 'space' when you see 2-back (i.e. the same letter as the one that appeared 2 letters ago.),,,,,,,,,,,0,7,7,7,,,,,,,,,,,,,,,,,,,,,,,,,,,,,,,,,,,,,,,,,,,,,,,,,,,,,,,,,,,,,,,,,,,,,,,,,,,,,,,,,P015,fencog,2,Post,2021_Oct_29_0918,N-Back (New Version 2021),2021.1.4,120.63541082207723,
,,,,Conditions/Version_1/threeback(3)_v1.xlsx,New rule: Press 'space' when you see 3-back (i.e. the same letter as the one that appeared 3 letters ago.),w,None,,,,,,,,,0,8,8,8,0,0,0,0,,,,,,,,,,,,,,,,,,,,,,,,,,,,,,,,,,,,,,,,,,,,,,,,,,,,,,,,,,,597.9705547000049,None,600.953101200008,None,space,13.57289789999777,600.953101200008,None,597.9705547000049,None,1.6238,616.1803445000114,None,None,1,616.1803445000114,None,,P015,fencog,2,Post,2021_Oct_29_0918,N-Back (New Version 2021),2021.1.4,120.63541082207723,
,,,,Conditions/Version_1/threeback(3)_v1.xlsx,New rule: Press 'space' when you see 3-back (i.e. the same letter as the one that appeared 3 letters ago.),p,None,,,,,,,,,0,8,8,8,0,1,1,1,,,,,,,,,,,,,,,,,,,,,,,,,,,,,,,,,,,,,,,,,,,,,,,,,,,,,,,,,,,,,,,,,,,,,1.506,619.6873760000017,None,None,1,619.6873760000017,None,,P015,fencog,2,Post,2021_Oct_29_0918,N-Back (New Version 2021),2021.1.4,120.63541082207723,
,,,,Conditions/Version_1/threeback(3)_v1.xlsx,New rule: Press 'space' when you see 3-back (i.e. the same letter as the one that appeared 3 letters ago.),P,None,,,,,,,,,0,8,8,8,0,2,2,2,,,,,,,,,,,,,,,,,,,,,,,,,,,,,,,,,,,,,,,,,,,,,,,,,,,,,,,,,,,,,,,,,,,,,1.4936,623.1865042999998,None,None,1,623.1865042999998,None,,P015,fencog,2,Post,2021_Oct_29_0918,N-Back (New Version 2021),2021.1.4,120.63541082207723,
,,,,Conditions/Version_1/threeback(3)_v1.xlsx,New rule: Press 'space' when you see 3-back (i.e. the same letter as the one that appeared 3 letters ago.),i,None,,,,,,,,,0,8,8,8,0,3,3,3,,,,,,,,,,,,,,,,,,,,,,,,,,,,,,,,,,,,,,,,,,,,,,,,,,,,,,,,,,,,,,,,,,,,,1.7974,626.9853257000068,None,None,1,626.9853257000068,None,,P015,fencog,2,Post,2021_Oct_29_0918,N-Back (New Version 2021),2021.1.4,120.63541082207723,
,,,,Conditions/Version_1/threeback(3)_v1.xlsx,New rule: Press 'space' when you see 3-back (i.e. the same letter as the one that appeared 3 letters ago.),f,None,,,,,,,,,0,8,8,8,0,4,4,4,,,,,,,,,,,,,,,,,,,,,,,,,,,,,,,,,,,,,,,,,,,,,,,,,,,,,,,,,,,,,,,,,,,,,1.3262,630.3178378000011,None,None,1,630.3178378000011,None,,P015,fencog,2,Post,2021_Oct_29_0918,N-Back (New Version 2021),2021.1.4,120.63541082207723,
,,,,Conditions/Version_1/threeback(3)_v1.xlsx,New rule: Press 'space' when you see 3-back (i.e. the same letter as the one that appeared 3 letters ago.),o,None,,,,,,,,,0,8,8,8,0,5,5,5,,,,,,,,,,,,,,,,,,,,,,,,,,,,,,,,,,,,,,,,,,,,,,,,,,,,,,,,,,,,,,,,,,,,,1.3324,633.6500820000074,None,None,1,633.6500820000074,None,,P015,fencog,2,Post,2021_Oct_29_0918,N-Back (New Version 2021),2021.1.4,120.63541082207723,
,,,,Conditions/Version_1/threeback(3)_v1.xlsx,New rule: Press 'space' when you see 3-back (i.e. the same letter as the one that appeared 3 letters ago.),w,None,,,,,,,,,0,8,8,8,0,6,6,6,,,,,,,,,,,,,,,,,,,,,,,,,,,,,,,,,,,,,,,,,,,,,,,,,,,,,,,,,,,,,,,,,,,,,1.6052,637.2573734000034,None,None,1,637.2573734000034,None,,P015,fencog,2,Post,2021_Oct_29_0918,N-Back (New Version 2021),2021.1.4,120.63541082207723,
,,,,Conditions/Version_1/threeback(3)_v1.xlsx,New rule: Press 'space' when you see 3-back (i.e. the same letter as the one that appeared 3 letters ago.),F,space,,,,,,,,,0,8,8,8,0,7,7,7,,,,,,,,,,,,,,,,,,,,,,,,,,,,,,,,,,,,,,,,,,,,,,,,,,,,,,,,,,,,,,,,,,,,,1.227,640.4896545000083,None,space,1,640.4896545000083,None,0.5242113999993308,P015,fencog,2,Post,2021_Oct_29_0918,N-Back (New Version 2021),2021.1.4,120.63541082207723,
,,,,Conditions/Version_1/threeback(3)_v1.xlsx,New rule: Press 'space' when you see 3-back (i.e. the same letter as the one that appeared 3 letters ago.),p,None,,,,,,,,,0,8,8,8,0,8,8,8,,,,,,,,,,,,,,,,,,,,,,,,,,,,,,,,,,,,,,,,,,,,,,,,,,,,,,,,,,,,,,,,,,,,,1.5866,644.0804475000041,None,None,1,644.0804475000041,None,,P015,fencog,2,Post,2021_Oct_29_0918,N-Back (New Version 2021),2021.1.4,120.63541082207723,
,,,,Conditions/Version_1/threeback(3)_v1.xlsx,New rule: Press 'space' when you see 3-back (i.e. the same letter as the one that appeared 3 letters ago.),W,space,,,,,,,,,0,8,8,8,0,9,9,9,,,,,,,,,,,,,,,,,,,,,,,,,,,,,,,,,,,,,,,,,,,,,,,,,,,,,,,,,,,,,,,,,,,,,1.351,647.4377851000027,None,space,1,647.4377851000027,None,0.7039996999956202,P015,fencog,2,Post,2021_Oct_29_0918,N-Back (New Version 2021),2021.1.4,120.63541082207723,
,,,,Conditions/Version_1/threeback(3)_v1.xlsx,New rule: Press 'space' when you see 3-back (i.e. the same letter as the one that appeared 3 letters ago.),,,,,,,,,,,0,8,8,8,,,,,,,,,,,,,,,,,,,,,,,,,,,,,,,,,,,,,,,,,,,,,,,,,,,,,,,,,,,,,,,,,,,,,,,,,,,,,,,,,P015,fencog,2,Post,2021_Oct_29_0918,N-Back (New Version 2021),2021.1.4,120.63541082207723,
,,,,Conditions/Version_1/zeroback(3)_v1.xlsx,New rule: Press 'space' when you see the letter 'x' or 'X'.,X,space,,,,,,,,,0,9,9,9,0,0,0,0,,,,,,,,,,,,,,,,,,,,,,,,,,,,,,,,,,,,,,,,,,,,,,,,,,,,,,,,,,,649.4601473000075,None,652.4460528000054,None,space,0.7197876999998698,652.4460528000054,None,649.4601473000075,None,1.506,654.6940504000086,None,space,1,654.6940504000086,None,0.6718844000133686,P015,fencog,2,Post,2021_Oct_29_0918,N-Back (New Version 2021),2021.1.4,120.63541082207723,
,,,,Conditions/Version_1/zeroback(3)_v1.xlsx,New rule: Press 'space' when you see the letter 'x' or 'X'.,B,None,,,,,,,,,0,9,9,9,0,1,1,1,,,,,,,,,,,,,,,,,,,,,,,,,,,,,,,,,,,,,,,,,,,,,,,,,,,,,,,,,,,,,,,,,,,,,1.8656,658.5610348000046,None,None,1,658.5610348000046,None,,P015,fencog,2,Post,2021_Oct_29_0918,N-Back (New Version 2021),2021.1.4,120.63541082207723,
,,,,Conditions/Version_1/zeroback(3)_v1.xlsx,New rule: Press 'space' when you see the letter 'x' or 'X'.,m,None,,,,,,,,,0,9,9,9,0,2,2,2,,,,,,,,,,,,,,,,,,,,,,,,,,,,,,,,,,,,,,,,,,,,,,,,,,,,,,,,,,,,,,,,,,,,,1.2828,661.8510683000059,None,None,1,661.8510683000059,None,,P015,fencog,2,Post,2021_Oct_29_0918,N-Back (New Version 2021),2021.1.4,120.63541082207723,
,,,,Conditions/Version_1/zeroback(3)_v1.xlsx,New rule: Press 'space' when you see the letter 'x' or 'X'.,m,None,,,,,,,,,0,9,9,9,0,3,3,3,,,,,,,,,,,,,,,,,,,,,,,,,,,,,,,,,,,,,,,,,,,,,,,,,,,,,,,,,,,,,,,,,,,,,1.6486,665.5073976999993,None,None,1,665.5073976999993,None,,P015,fencog,2,Post,2021_Oct_29_0918,N-Back (New Version 2021),2021.1.4,120.63541082207723,
,,,,Conditions/Version_1/zeroback(3)_v1.xlsx,New rule: Press 'space' when you see the letter 'x' or 'X'.,o,None,,,,,,,,,0,9,9,9,0,4,4,4,,,,,,,,,,,,,,,,,,,,,,,,,,,,,,,,,,,,,,,,,,,,,,,,,,,,,,,,,,,,,,,,,,,,,1.7726,669.2839940999984,None,None,1,669.2839940999984,None,,P015,fencog,2,Post,2021_Oct_29_0918,N-Back (New Version 2021),2021.1.4,120.63541082207723,
,,,,Conditions/Version_1/zeroback(3)_v1.xlsx,New rule: Press 'space' when you see the letter 'x' or 'X'.,p,None,,,,,,,,,0,9,9,9,0,5,5,5,,,,,,,,,,,,,,,,,,,,,,,,,,,,,,,,,,,,,,,,,,,,,,,,,,,,,,,,,,,,,,,,,,,,,1.4936,672.7884214000078,None,None,1,672.7884214000078,None,,P015,fencog,2,Post,2021_Oct_29_0918,N-Back (New Version 2021),2021.1.4,120.63541082207723,
,,,,Conditions/Version_1/zeroback(3)_v1.xlsx,New rule: Press 'space' when you see the letter 'x' or 'X'.,G,None,,,,,,,,,0,9,9,9,0,6,6,6,,,,,,,,,,,,,,,,,,,,,,,,,,,,,,,,,,,,,,,,,,,,,,,,,,,,,,,,,,,,,,,,,,,,,1.9338,676.7216562000103,None,None,1,676.7216562000103,None,,P015,fencog,2,Post,2021_Oct_29_0918,N-Back (New Version 2021),2021.1.4,120.63541082207723,
,,,,Conditions/Version_1/zeroback(3)_v1.xlsx,New rule: Press 'space' when you see the letter 'x' or 'X'.,X,space,,,,,,,,,0,9,9,9,0,7,7,7,,,,,,,,,,,,,,,,,,,,,,,,,,,,,,,,,,,,,,,,,,,,,,,,,,,,,,,,,,,,,,,,,,,,,1.785,680.5195152000088,None,space,1,680.5195152000088,None,0.42236339999362826,P015,fencog,2,Post,2021_Oct_29_0918,N-Back (New Version 2021),2021.1.4,120.63541082207723,
,,,,Conditions/Version_1/zeroback(3)_v1.xlsx,New rule: Press 'space' when you see the letter 'x' or 'X'.,p,None,,,,,,,,,0,9,9,9,0,8,8,8,,,,,,,,,,,,,,,,,,,,,,,,,,,,,,,,,,,,,,,,,,,,,,,,,,,,,,,,,,,,,,,,,,,,,1.8346,684.3600133,None,None,1,684.3600133,None,,P015,fencog,2,Post,2021_Oct_29_0918,N-Back (New Version 2021),2021.1.4,120.63541082207723,
,,,,Conditions/Version_1/zeroback(3)_v1.xlsx,New rule: Press 'space' when you see the letter 'x' or 'X'.,x,space,,,,,,,,,0,9,9,9,0,9,9,9,,,,,,,,,,,,,,,,,,,,,,,,,,,,,,,,,,,,,,,,,,,,,,,,,,,,,,,,,,,,,,,,,,,,,1.599,687.9589485000033,None,space,1,687.9589485000033,None,0.4547197000065353,P015,fencog,2,Post,2021_Oct_29_0918,N-Back (New Version 2021),2021.1.4,120.63541082207723,
,,,,Conditions/Version_1/zeroback(3)_v1.xlsx,New rule: Press 'space' when you see the letter 'x' or 'X'.,,,,,,,,,,,0,9,9,9,,,,,,,,,,,,,,,,,,,,,,,,,,,,,,,,,,,,,,,,,,,,,,,,,,,,,,,,,,,,,,,,,,,,,,,,,,,,,,,,,P015,fencog,2,Post,2021_Oct_29_0918,N-Back (New Version 2021),2021.1.4,120.63541082207723,
,,,,Conditions/Version_1/twoback(3)_v1.xlsx,New rule: Press 'space' when you see 2-back (i.e. the same letter as the one that appeared 2 letters ago.),e,None,,,,,,,,,0,10,10,10,0,0,0,0,,,,,,,,,,,,,,,,,,,,,,,,,,,,,,,,,,,,,,,,,,,,,,,,,,,,,,,,,,,689.9820217000088,None,692.9674762000068,None,space,0.7422716000000946,692.9674762000068,None,689.9820217000088,None,1.1588,694.8993020000053,None,None,1,694.8993020000053,None,,P015,fencog,2,Post,2021_Oct_29_0918,N-Back (New Version 2021),2021.1.4,120.63541082207723,
,,,,Conditions/Version_1/twoback(3)_v1.xlsx,New rule: Press 'space' when you see 2-back (i.e. the same letter as the one that appeared 2 letters ago.),o,None,,,,,,,,,0,10,10,10,0,1,1,1,,,,,,,,,,,,,,,,,,,,,,,,,,,,,,,,,,,,,,,,,,,,,,,,,,,,,,,,,,,,,,,,,,,,,1.568,698.4806976999971,None,None,1,698.4806976999971,None,,P015,fencog,2,Post,2021_Oct_29_0918,N-Back (New Version 2021),2021.1.4,120.63541082207723,
,,,,Conditions/Version_1/twoback(3)_v1.xlsx,New rule: Press 'space' when you see 2-back (i.e. the same letter as the one that appeared 2 letters ago.),P,None,,,,,,,,,0,10,10,10,0,2,2,2,,,,,,,,,,,,,,,,,,,,,,,,,,,,,,,,,,,,,,,,,,,,,,,,,,,,,,,,,,,,,,,,,,,,,1.4626,701.9466157999996,None,None,1,701.9466157999996,None,,P015,fencog,2,Post,2021_Oct_29_0918,N-Back (New Version 2021),2021.1.4,120.63541082207723,
,,,,Conditions/Version_1/twoback(3)_v1.xlsx,New rule: Press 'space' when you see 2-back (i.e. the same letter as the one that appeared 2 letters ago.),z,None,,,,,,,,,0,10,10,10,0,3,3,3,,,,,,,,,,,,,,,,,,,,,,,,,,,,,,,,,,,,,,,,,,,,,,,,,,,,,,,,,,,,,,,,,,,,,1.971,705.9219672000036,None,None,1,705.9219672000036,None,,P015,fencog,2,Post,2021_Oct_29_0918,N-Back (New Version 2021),2021.1.4,120.63541082207723,
,,,,Conditions/Version_1/twoback(3)_v1.xlsx,New rule: Press 'space' when you see 2-back (i.e. the same letter as the one that appeared 2 letters ago.),X,None,,,,,,,,,0,10,10,10,0,4,4,4,,,,,,,,,,,,,,,,,,,,,,,,,,,,,,,,,,,,,,,,,,,,,,,,,,,,,,,,,,,,,,,,,,,,,1.134,709.0619757000095,None,None,1,709.0619757000095,None,,P015,fencog,2,Post,2021_Oct_29_0918,N-Back (New Version 2021),2021.1.4,120.63541082207723,
,,,,Conditions/Version_1/twoback(3)_v1.xlsx,New rule: Press 'space' when you see 2-back (i.e. the same letter as the one that appeared 2 letters ago.),z,space,,,,,,,,,0,10,10,10,0,5,5,5,,,,,,,,,,,,,,,,,,,,,,,,,,,,,,,,,,,,,,,,,,,,,,,,,,,,,,,,,,,,,,,,,,,,,1.9276,712.9936481000041,None,space,1,712.9936481000041,None,0.34003110000048764,P015,fencog,2,Post,2021_Oct_29_0918,N-Back (New Version 2021),2021.1.4,120.63541082207723,
,,,,Conditions/Version_1/twoback(3)_v1.xlsx,New rule: Press 'space' when you see 2-back (i.e. the same letter as the one that appeared 2 letters ago.),x,space,,,,,,,,,0,10,10,10,0,6,6,6,,,,,,,,,,,,,,,,,,,,,,,,,,,,,,,,,,,,,,,,,,,,,,,,,,,,,,,,,,,,,,,,,,,,,1.6238,716.6264695999998,None,space,1,716.6264695999998,None,0.6671007000113605,P015,fencog,2,Post,2021_Oct_29_0918,N-Back (New Version 2021),2021.1.4,120.63541082207723,
,,,,Conditions/Version_1/twoback(3)_v1.xlsx,New rule: Press 'space' when you see 2-back (i.e. the same letter as the one that appeared 2 letters ago.),c,None,,,,,,,,,0,10,10,10,0,7,7,7,,,,,,,,,,,,,,,,,,,,,,,,,,,,,,,,,,,,,,,,,,,,,,,,,,,,,,,,,,,,,,,,,,,,,1.847,720.4826218000089,None,None,1,720.4826218000089,None,,P015,fencog,2,Post,2021_Oct_29_0918,N-Back (New Version 2021),2021.1.4,120.63541082207723,
,,,,Conditions/Version_1/twoback(3)_v1.xlsx,New rule: Press 'space' when you see 2-back (i.e. the same letter as the one that appeared 2 letters ago.),i,None,,,,,,,,,0,10,10,10,0,8,8,8,,,,,,,,,,,,,,,,,,,,,,,,,,,,,,,,,,,,,,,,,,,,,,,,,,,,,,,,,,,,,,,,,,,,,1.2766,723.7655960999982,None,None,1,723.7655960999982,None,,P015,fencog,2,Post,2021_Oct_29_0918,N-Back (New Version 2021),2021.1.4,120.63541082207723,
,,,,Conditions/Version_1/twoback(3)_v1.xlsx,New rule: Press 'space' when you see 2-back (i.e. the same letter as the one that appeared 2 letters ago.),C,space,,,,,,,,,0,10,10,10,0,9,9,9,,,,,,,,,,,,,,,,,,,,,,,,,,,,,,,,,,,,,,,,,,,,,,,,,,,,,,,,,,,,,,,,,,,,,1.0782,726.8501955000102,None,space,1,726.8501955000102,None,1.4515991999942344,P015,fencog,2,Post,2021_Oct_29_0918,N-Back (New Version 2021),2021.1.4,120.63541082207723,
,,,,Conditions/Version_1/twoback(3)_v1.xlsx,New rule: Press 'space' when you see 2-back (i.e. the same letter as the one that appeared 2 letters ago.),,,,,,,,,,,0,10,10,10,,,,,,,,,,,,,,,,,,,,,,,,,,,,,,,,,,,,,,,,,,,,,,,,,,,,,,,,,,,,,,,,,,,,,,,,,,,,,,,,,P015,fencog,2,Post,2021_Oct_29_0918,N-Back (New Version 2021),2021.1.4,120.63541082207723,
,,,,Conditions/Version_1/oneback(3)_v1.xlsx,New rule: Press 'space' when you see 1-back (i.e. the same letter as the one that appeared 1 letter ago.),o,None,,,,,,,,,0,11,11,11,0,0,0,0,,,,,,,,,,,,,,,,,,,,,,,,,,,,,,,,,,,,,,,,,,,,,,,,,,,,,,,,,,,728.8775114000018,None,731.8645144000038,None,space,5.485312399992836,731.8645144000038,None,728.8775114000018,None,1.7354,739.1105872000044,None,None,1,739.1105872000044,None,,P015,fencog,2,Post,2021_Oct_29_0918,N-Back (New Version 2021),2021.1.4,120.63541082207723,
,,,,Conditions/Version_1/oneback(3)_v1.xlsx,New rule: Press 'space' when you see 1-back (i.e. the same letter as the one that appeared 1 letter ago.),O,space,,,,,,,,,0,11,11,11,0,1,1,1,,,,,,,,,,,,,,,,,,,,,,,,,,,,,,,,,,,,,,,,,,,,,,,,,,,,,,,,,,,,,,,,,,,,,1.0906,742.2011976000067,None,space,1,742.2011976000067,None,0.42832340000313707,P015,fencog,2,Post,2021_Oct_29_0918,N-Back (New Version 2021),2021.1.4,120.63541082207723,
,,,,Conditions/Version_1/oneback(3)_v1.xlsx,New rule: Press 'space' when you see 1-back (i.e. the same letter as the one that appeared 1 letter ago.),h,None,,,,,,,,,0,11,11,11,0,2,2,2,,,,,,,,,,,,,,,,,,,,,,,,,,,,,,,,,,,,,,,,,,,,,,,,,,,,,,,,,,,,,,,,,,,,,1.6796,745.8834524999984,None,None,1,745.8834524999984,None,,P015,fencog,2,Post,2021_Oct_29_0918,N-Back (New Version 2021),2021.1.4,120.63541082207723,
,,,,Conditions/Version_1/oneback(3)_v1.xlsx,New rule: Press 'space' when you see 1-back (i.e. the same letter as the one that appeared 1 letter ago.),g,None,,,,,,,,,0,11,11,11,0,3,3,3,,,,,,,,,,,,,,,,,,,,,,,,,,,,,,,,,,,,,,,,,,,,,,,,,,,,,,,,,,,,,,,,,,,,,1.7478,749.6334172000061,None,None,1,749.6334172000061,None,,P015,fencog,2,Post,2021_Oct_29_0918,N-Back (New Version 2021),2021.1.4,120.63541082207723,
,,,,Conditions/Version_1/oneback(3)_v1.xlsx,New rule: Press 'space' when you see 1-back (i.e. the same letter as the one that appeared 1 letter ago.),n,None,,,,,,,,,0,11,11,11,0,4,4,4,,,,,,,,,,,,,,,,,,,,,,,,,,,,,,,,,,,,,,,,,,,,,,,,,,,,,,,,,,,,,,,,,,,,,1.2084,752.8494799000036,None,None,1,752.8494799000036,None,,P015,fencog,2,Post,2021_Oct_29_0918,N-Back (New Version 2021),2021.1.4,120.63541082207723,
,,,,Conditions/Version_1/oneback(3)_v1.xlsx,New rule: Press 'space' when you see 1-back (i.e. the same letter as the one that appeared 1 letter ago.),z,None,,,,,,,,,0,11,11,11,0,5,5,5,,,,,,,,,,,,,,,,,,,,,,,,,,,,,,,,,,,,,,,,,,,,,,,,,,,,,,,,,,,,,,,,,,,,,1.0286,755.8897150999983,None,None,1,755.8897150999983,None,,P015,fencog,2,Post,2021_Oct_29_0918,N-Back (New Version 2021),2021.1.4,120.63541082207723,
,,,,Conditions/Version_1/oneback(3)_v1.xlsx,New rule: Press 'space' when you see 1-back (i.e. the same letter as the one that appeared 1 letter ago.),X,None,,,,,,,,,0,11,11,11,0,6,6,6,,,,,,,,,,,,,,,,,,,,,,,,,,,,,,,,,,,,,,,,,,,,,,,,,,,,,,,,,,,,,,,,,,,,,1.7168,759.6126993000071,None,None,1,759.6126993000071,None,,P015,fencog,2,Post,2021_Oct_29_0918,N-Back (New Version 2021),2021.1.4,120.63541082207723,
,,,,Conditions/Version_1/oneback(3)_v1.xlsx,New rule: Press 'space' when you see 1-back (i.e. the same letter as the one that appeared 1 letter ago.),r,None,,,,,,,,,0,11,11,11,0,7,7,7,,,,,,,,,,,,,,,,,,,,,,,,,,,,,,,,,,,,,,,,,,,,,,,,,,,,,,,,,,,,,,,,,,,,,1.3696,762.9879202000011,None,None,1,762.9879202000011,None,,P015,fencog,2,Post,2021_Oct_29_0918,N-Back (New Version 2021),2021.1.4,120.63541082207723,
,,,,Conditions/Version_1/oneback(3)_v1.xlsx,New rule: Press 'space' when you see 1-back (i.e. the same letter as the one that appeared 1 letter ago.),r,space,,,,,,,,,0,11,11,11,0,8,8,8,,,,,,,,,,,,,,,,,,,,,,,,,,,,,,,,,,,,,,,,,,,,,,,,,,,,,,,,,,,,,,,,,,,,,1.8222,766.8191913000046,None,space,1,766.8191913000046,None,0.45047699999122415,P015,fencog,2,Post,2021_Oct_29_0918,N-Back (New Version 2021),2021.1.4,120.63541082207723,
,,,,Conditions/Version_1/oneback(3)_v1.xlsx,New rule: Press 'space' when you see 1-back (i.e. the same letter as the one that appeared 1 letter ago.),P,None,,,,,,,,,0,11,11,11,0,9,9,9,,,,,,,,,,,,,,,,,,,,,,,,,,,,,,,,,,,,,,,,,,,,,,,,,,,,,,,,,,,,,,,,,,,,,1.1774,770.0021833000064,None,None,1,770.0021833000064,None,,P015,fencog,2,Post,2021_Oct_29_0918,N-Back (New Version 2021),2021.1.4,120.63541082207723,
,,,,Conditions/Version_1/oneback(3)_v1.xlsx,New rule: Press 'space' when you see 1-back (i.e. the same letter as the one that appeared 1 letter ago.),,,,,,,,,,,0,11,11,11,,,,,,,,,,,,,,,,,,,,,,,,,,,,,,,,,,,,,,,,,,,,,,,,,,,,,,,,,,,,,,,,,,,,,,,,,,,,,,,,,P015,fencog,2,Post,2021_Oct_29_0918,N-Back (New Version 2021),2021.1.4,120.63541082207723,
,,,,Conditions/Version_1/twoback(4)_v1.xlsx,New rule: Press 'space' when you see 2-back (i.e. the same letter as the one that appeared 2 letters ago.),r,None,,,,,,,,,0,12,12,12,0,0,0,0,,,,,,,,,,,,,,,,,,,,,,,,,,,,,,,,,,,,,,,,,,,,,,,,,,,,,,,,,,,772.0309322000103,None,775.0116271000006,None,space,23.69807499999297,775.0116271000006,None,772.0309322000103,None,1.6486,800.4268613000022,None,None,1,800.4268613000022,None,,P015,fencog,2,Post,2021_Oct_29_0918,N-Back (New Version 2021),2021.1.4,120.63541082207723,
,,,,Conditions/Version_1/twoback(4)_v1.xlsx,New rule: Press 'space' when you see 2-back (i.e. the same letter as the one that appeared 2 letters ago.),T,None,,,,,,,,,0,12,12,12,0,1,1,1,,,,,,,,,,,,,,,,,,,,,,,,,,,,,,,,,,,,,,,,,,,,,,,,,,,,,,,,,,,,,,,,,,,,,1.1712,803.6080682000029,None,None,1,803.6080682000029,None,,P015,fencog,2,Post,2021_Oct_29_0918,N-Back (New Version 2021),2021.1.4,120.63541082207723,
,,,,Conditions/Version_1/twoback(4)_v1.xlsx,New rule: Press 'space' when you see 2-back (i.e. the same letter as the one that appeared 2 letters ago.),o,None,,,,,,,,,0,12,12,12,0,2,2,2,,,,,,,,,,,,,,,,,,,,,,,,,,,,,,,,,,,,,,,,,,,,,,,,,,,,,,,,,,,,,,,,,,,,,1.4812,807.0901771000063,None,None,1,807.0901771000063,None,,P015,fencog,2,Post,2021_Oct_29_0918,N-Back (New Version 2021),2021.1.4,120.63541082207723,
,,,,Conditions/Version_1/twoback(4)_v1.xlsx,New rule: Press 'space' when you see 2-back (i.e. the same letter as the one that appeared 2 letters ago.),p,None,,,,,,,,,0,12,12,12,0,3,3,3,,,,,,,,,,,,,,,,,,,,,,,,,,,,,,,,,,,,,,,,,,,,,,,,,,,,,,,,,,,,,,,,,,,,,1.2394,810.3315932999976,None,None,1,810.3315932999976,None,,P015,fencog,2,Post,2021_Oct_29_0918,N-Back (New Version 2021),2021.1.4,120.63541082207723,
,,,,Conditions/Version_1/twoback(4)_v1.xlsx,New rule: Press 'space' when you see 2-back (i.e. the same letter as the one that appeared 2 letters ago.),p,None,,,,,,,,,0,12,12,12,0,4,4,4,,,,,,,,,,,,,,,,,,,,,,,,,,,,,,,,,,,,,,,,,,,,,,,,,,,,,,,,,,,,,,,,,,,,,1.2456,813.5802863999997,None,space,0,813.5802863999997,None,1.0011831000010716,P015,fencog,2,Post,2021_Oct_29_0918,N-Back (New Version 2021),2021.1.4,120.63541082207723,
,,,,Conditions/Version_1/twoback(4)_v1.xlsx,New rule: Press 'space' when you see 2-back (i.e. the same letter as the one that appeared 2 letters ago.),y,None,,,,,,,,,0,12,12,12,0,5,5,5,,,,,,,,,,,,,,,,,,,,,,,,,,,,,,,,,,,,,,,,,,,,,,,,,,,,,,,,,,,,,,,,,,,,,1.1774,816.7625871000055,None,None,1,816.7625871000055,None,,P015,fencog,2,Post,2021_Oct_29_0918,N-Back (New Version 2021),2021.1.4,120.63541082207723,
,,,,Conditions/Version_1/twoback(4)_v1.xlsx,New rule: Press 'space' when you see 2-back (i.e. the same letter as the one that appeared 2 letters ago.),P,space,,,,,,,,,0,12,12,12,0,6,6,6,,,,,,,,,,,,,,,,,,,,,,,,,,,,,,,,,,,,,,,,,,,,,,,,,,,,,,,,,,,,,,,,,,,,,1.2828,820.044811300002,None,space,1,820.044811300002,None,0.8486916999972891,P015,fencog,2,Post,2021_Oct_29_0918,N-Back (New Version 2021),2021.1.4,120.63541082207723,
,,,,Conditions/Version_1/twoback(4)_v1.xlsx,New rule: Press 'space' when you see 2-back (i.e. the same letter as the one that appeared 2 letters ago.),y,None,,,,,,,,,0,12,12,12,0,7,7,7,,,,,,,,,,,,,,,,,,,,,,,,,,,,,,,,,,,,,,,,,,,,,,,,,,,,,,,,,,,,,,,,,,,,,1.692,823.7439914999995,None,space,0,823.7439914999995,None,1.093605000001844,P015,fencog,2,Post,2021_Oct_29_0918,N-Back (New Version 2021),2021.1.4,120.63541082207723,
,,,,Conditions/Version_1/twoback(4)_v1.xlsx,New rule: Press 'space' when you see 2-back (i.e. the same letter as the one that appeared 2 letters ago.),y,space,,,,,,,,,0,12,12,12,0,8,8,8,,,,,,,,,,,,,,,,,,,,,,,,,,,,,,,,,,,,,,,,,,,,,,,,,,,,,,,,,,,,,,,,,,,,,1.9648,827.7092644000077,None,None,0,827.7092644000077,None,,P015,fencog,2,Post,2021_Oct_29_0918,N-Back (New Version 2021),2021.1.4,120.63541082207723,
,,,,Conditions/Version_1/twoback(4)_v1.xlsx,New rule: Press 'space' when you see 2-back (i.e. the same letter as the one that appeared 2 letters ago.),,,,,,,,,,,0,12,12,12,,,,,,,,,,,,,,,,,,,,,,,,,,,,,,,,,,,,,,,,,,,,,,,,,,,,,,,,,,,,,,,,,,,,,,,,,,,,,,,,,P015,fencog,2,Post,2021_Oct_29_0918,N-Back (New Version 2021),2021.1.4,120.63541082207723,
,,,,Conditions/Version_1/zeroback(4)_v1.xlsx,New rule: Press 'space' when you see the letter 'x' or 'X'.,o,None,,,,,,,,,0,13,13,13,0,0,0,0,,,,,,,,,,,,,,,,,,,,,,,,,,,,,,,,,,,,,,,,,,,,,,,,,,,,,,,,,,,829.73056370001,None,832.7189254999976,None,space,0.15064530000381637,832.7189254999976,None,829.73056370001,None,1.1216,834.0155785000097,None,None,1,834.0155785000097,None,,P015,fencog,2,Post,2021_Oct_29_0918,N-Back (New Version 2021),2021.1.4,120.63541082207723,
,,,,Conditions/Version_1/zeroback(4)_v1.xlsx,New rule: Press 'space' when you see the letter 'x' or 'X'.,X,space,,,,,,,,,0,13,13,13,0,1,1,1,,,,,,,,,,,,,,,,,,,,,,,,,,,,,,,,,,,,,,,,,,,,,,,,,,,,,,,,,,,,,,,,,,,,,1.1836,837.1993425999972,None,space,1,837.1993425999972,None,0.5179931000020588,P015,fencog,2,Post,2021_Oct_29_0918,N-Back (New Version 2021),2021.1.4,120.63541082207723,
,,,,Conditions/Version_1/zeroback(4)_v1.xlsx,New rule: Press 'space' when you see the letter 'x' or 'X'.,p,None,,,,,,,,,0,13,13,13,0,2,2,2,,,,,,,,,,,,,,,,,,,,,,,,,,,,,,,,,,,,,,,,,,,,,,,,,,,,,,,,,,,,,,,,,,,,,1.9772,841.1905505000032,None,None,1,841.1905505000032,None,,P015,fencog,2,Post,2021_Oct_29_0918,N-Back (New Version 2021),2021.1.4,120.63541082207723,
,,,,Conditions/Version_1/zeroback(4)_v1.xlsx,New rule: Press 'space' when you see the letter 'x' or 'X'.,m,None,,,,,,,,,0,13,13,13,0,3,3,3,,,,,,,,,,,,,,,,,,,,,,,,,,,,,,,,,,,,,,,,,,,,,,,,,,,,,,,,,,,,,,,,,,,,,1.94,845.1374571000051,None,None,1,845.1374571000051,None,,P015,fencog,2,Post,2021_Oct_29_0918,N-Back (New Version 2021),2021.1.4,120.63541082207723,
,,,,Conditions/Version_1/zeroback(4)_v1.xlsx,New rule: Press 'space' when you see the letter 'x' or 'X'.,n,None,,,,,,,,,0,13,13,13,0,4,4,4,,,,,,,,,,,,,,,,,,,,,,,,,,,,,,,,,,,,,,,,,,,,,,,,,,,,,,,,,,,,,,,,,,,,,1.134,848.2699831000064,None,None,1,848.2699831000064,None,,P015,fencog,2,Post,2021_Oct_29_0918,N-Back (New Version 2021),2021.1.4,120.63541082207723,
,,,,Conditions/Version_1/zeroback(4)_v1.xlsx,New rule: Press 'space' when you see the letter 'x' or 'X'.,m,None,,,,,,,,,0,13,13,13,0,5,5,5,,,,,,,,,,,,,,,,,,,,,,,,,,,,,,,,,,,,,,,,,,,,,,,,,,,,,,,,,,,,,,,,,,,,,1.6052,851.8782704000041,None,None,1,851.8782704000041,None,,P015,fencog,2,Post,2021_Oct_29_0918,N-Back (New Version 2021),2021.1.4,120.63541082207723,
,,,,Conditions/Version_1/zeroback(4)_v1.xlsx,New rule: Press 'space' when you see the letter 'x' or 'X'.,C,None,,,,,,,,,0,13,13,13,0,6,6,6,,,,,,,,,,,,,,,,,,,,,,,,,,,,,,,,,,,,,,,,,,,,,,,,,,,,,,,,,,,,,,,,,,,,,1.6858,855.5776983000105,None,None,1,855.5776983000105,None,,P015,fencog,2,Post,2021_Oct_29_0918,N-Back (New Version 2021),2021.1.4,120.63541082207723,
,,,,Conditions/Version_1/zeroback(4)_v1.xlsx,New rule: Press 'space' when you see the letter 'x' or 'X'.,m,None,,,,,,,,,0,13,13,13,0,7,7,7,,,,,,,,,,,,,,,,,,,,,,,,,,,,,,,,,,,,,,,,,,,,,,,,,,,,,,,,,,,,,,,,,,,,,1.878,859.4679577000061,None,None,1,859.4679577000061,None,,P015,fencog,2,Post,2021_Oct_29_0918,N-Back (New Version 2021),2021.1.4,120.63541082207723,
,,,,Conditions/Version_1/zeroback(4)_v1.xlsx,New rule: Press 'space' when you see the letter 'x' or 'X'.,p,None,,,,,,,,,0,13,13,13,0,8,8,8,,,,,,,,,,,,,,,,,,,,,,,,,,,,,,,,,,,,,,,,,,,,,,,,,,,,,,,,,,,,,,,,,,,,,1.7168,863.190365900009,None,None,1,863.190365900009,None,,P015,fencog,2,Post,2021_Oct_29_0918,N-Back (New Version 2021),2021.1.4,120.63541082207723,
,,,,Conditions/Version_1/zeroback(4)_v1.xlsx,New rule: Press 'space' when you see the letter 'x' or 'X'.,X,space,,,,,,,,,0,13,13,13,0,9,9,9,,,,,,,,,,,,,,,,,,,,,,,,,,,,,,,,,,,,,,,,,,,,,,,,,,,,,,,,,,,,,,,,,,,,,1.4626,866.6560080000054,None,space,1,866.6560080000054,None,1.5655236000020523,P015,fencog,2,Post,2021_Oct_29_0918,N-Back (New Version 2021),2021.1.4,120.63541082207723,
,,,,Conditions/Version_1/zeroback(4)_v1.xlsx,New rule: Press 'space' when you see the letter 'x' or 'X'.,,,,,,,,,,,0,13,13,13,,,,,,,,,,,,,,,,,,,,,,,,,,,,,,,,,,,,,,,,,,,,,,,,,,,,,,,,,,,,,,,,,,,,,,,,,,,,,,,,,P015,fencog,2,Post,2021_Oct_29_0918,N-Back (New Version 2021),2021.1.4,120.63541082207723,
,,,,Conditions/Version_1/oneback(4)_v1.xlsx,New rule: Press 'space' when you see 1-back (i.e. the same letter as the one that appeared 1 letter ago.),w,None,,,,,,,,,0,14,14,14,0,0,0,0,,,,,,,,,,,,,,,,,,,,,,,,,,,,,,,,,,,,,,,,,,,,,,,,,,,,,,,,,,,868.6836730000068,None,871.6646819000016,None,space,11.076662000006763,871.6646819000016,None,868.6836730000068,None,1.9276,884.6922283000022,None,None,1,884.6922283000022,None,,P015,fencog,2,Post,2021_Oct_29_0918,N-Back (New Version 2021),2021.1.4,120.63541082207723,
,,,,Conditions/Version_1/oneback(4)_v1.xlsx,New rule: Press 'space' when you see 1-back (i.e. the same letter as the one that appeared 1 letter ago.),q,None,,,,,,,,,0,14,14,14,0,1,1,1,,,,,,,,,,,,,,,,,,,,,,,,,,,,,,,,,,,,,,,,,,,,,,,,,,,,,,,,,,,,,,,,,,,,,1.1464,887.8412652999978,None,None,1,887.8412652999978,None,,P015,fencog,2,Post,2021_Oct_29_0918,N-Back (New Version 2021),2021.1.4,120.63541082207723,
,,,,Conditions/Version_1/oneback(4)_v1.xlsx,New rule: Press 'space' when you see 1-back (i.e. the same letter as the one that appeared 1 letter ago.),i,None,,,,,,,,,0,14,14,14,0,2,2,2,,,,,,,,,,,,,,,,,,,,,,,,,,,,,,,,,,,,,,,,,,,,,,,,,,,,,,,,,,,,,,,,,,,,,1.692,891.5412951000035,None,None,1,891.5412951000035,None,,P015,fencog,2,Post,2021_Oct_29_0918,N-Back (New Version 2021),2021.1.4,120.63541082207723,
,,,,Conditions/Version_1/oneback(4)_v1.xlsx,New rule: Press 'space' when you see 1-back (i.e. the same letter as the one that appeared 1 letter ago.),t,None,,,,,,,,,0,14,14,14,0,3,3,3,,,,,,,,,,,,,,,,,,,,,,,,,,,,,,,,,,,,,,,,,,,,,,,,,,,,,,,,,,,,,,,,,,,,,1.5432,895.0977170999977,None,None,1,895.0977170999977,None,,P015,fencog,2,Post,2021_Oct_29_0918,N-Back (New Version 2021),2021.1.4,120.63541082207723,
,,,,Conditions/Version_1/oneback(4)_v1.xlsx,New rule: Press 'space' when you see 1-back (i.e. the same letter as the one that appeared 1 letter ago.),v,None,,,,,,,,,0,14,14,14,0,4,4,4,,,,,,,,,,,,,,,,,,,,,,,,,,,,,,,,,,,,,,,,,,,,,,,,,,,,,,,,,,,,,,,,,,,,,1.8656,898.9673963000096,None,None,1,898.9673963000096,None,,P015,fencog,2,Post,2021_Oct_29_0918,N-Back (New Version 2021),2021.1.4,120.63541082207723,
,,,,Conditions/Version_1/oneback(4)_v1.xlsx,New rule: Press 'space' when you see 1-back (i.e. the same letter as the one that appeared 1 letter ago.),V,space,,,,,,,,,0,14,14,14,0,5,5,5,,,,,,,,,,,,,,,,,,,,,,,,,,,,,,,,,,,,,,,,,,,,,,,,,,,,,,,,,,,,,,,,,,,,,1.7044,902.6799896000011,None,None,0,902.6799896000011,None,,P015,fencog,2,Post,2021_Oct_29_0918,N-Back (New Version 2021),2021.1.4,120.63541082207723,
,,,,Conditions/Version_1/oneback(4)_v1.xlsx,New rule: Press 'space' when you see 1-back (i.e. the same letter as the one that appeared 1 letter ago.),v,space,,,,,,,,,0,14,14,14,0,6,6,6,,,,,,,,,,,,,,,,,,,,,,,,,,,,,,,,,,,,,,,,,,,,,,,,,,,,,,,,,,,,,,,,,,,,,1.4254,906.113331200002,None,space,1,906.113331200002,None,0.3241526000056183,P015,fencog,2,Post,2021_Oct_29_0918,N-Back (New Version 2021),2021.1.4,120.63541082207723,
,,,,Conditions/Version_1/oneback(4)_v1.xlsx,New rule: Press 'space' when you see 1-back (i.e. the same letter as the one that appeared 1 letter ago.),p,None,,,,,,,,,0,14,14,14,0,7,7,7,,,,,,,,,,,,,,,,,,,,,,,,,,,,,,,,,,,,,,,,,,,,,,,,,,,,,,,,,,,,,,,,,,,,,1.3572,909.4780528999981,None,None,1,909.4780528999981,None,,P015,fencog,2,Post,2021_Oct_29_0918,N-Back (New Version 2021),2021.1.4,120.63541082207723,
,,,,Conditions/Version_1/oneback(4)_v1.xlsx,New rule: Press 'space' when you see 1-back (i.e. the same letter as the one that appeared 1 letter ago.),w,None,,,,,,,,,0,14,14,14,0,8,8,8,,,,,,,,,,,,,,,,,,,,,,,,,,,,,,,,,,,,,,,,,,,,,,,,,,,,,,,,,,,,,,,,,,,,,1.9896,913.4766698000021,None,None,1,913.4766698000021,None,,P015,fencog,2,Post,2021_Oct_29_0918,N-Back (New Version 2021),2021.1.4,120.63541082207723,
,,,,Conditions/Version_1/oneback(4)_v1.xlsx,New rule: Press 'space' when you see 1-back (i.e. the same letter as the one that appeared 1 letter ago.),W,space,,,,,,,,,0,14,14,14,0,9,9,9,,,,,,,,,,,,,,,,,,,,,,,,,,,,,,,,,,,,,,,,,,,,,,,,,,,,,,,,,,,,,,,,,,,,,1.103,916.5920358000003,None,None,0,916.5920358000003,None,,P015,fencog,2,Post,2021_Oct_29_0918,N-Back (New Version 2021),2021.1.4,120.63541082207723,
,,,,Conditions/Version_1/oneback(4)_v1.xlsx,New rule: Press 'space' when you see 1-back (i.e. the same letter as the one that appeared 1 letter ago.),,,,,,,,,,,0,14,14,14,,,,,,,,,,,,,,,,,,,,,,,,,,,,,,,,,,,,,,,,,,,,,,,,,,,,,,,,,,,,,,,,,,,,,,,,,,,,,,,,,P015,fencog,2,Post,2021_Oct_29_0918,N-Back (New Version 2021),2021.1.4,120.63541082207723,
,,,,Conditions/Version_1/threeback(4)_v1.xlsx,New rule: Press 'space' when you see 3-back (i.e. the same letter as the one that appeared 3 letters ago.),A,None,,,,,,,,,0,15,15,15,0,0,0,0,,,,,,,,,,,,,,,,,,,,,,,,,,,,,,,,,,,,,,,,,,,,,,,,,,,,,,,,,,,918.6217111000005,None,921.6091926000081,None,space,33.836255000001984,921.6091926000081,None,918.6217111000005,None,1.3014,956.7738106000033,None,None,1,956.7738106000033,None,,P015,fencog,2,Post,2021_Oct_29_0918,N-Back (New Version 2021),2021.1.4,120.63541082207723,
,,,,Conditions/Version_1/threeback(4)_v1.xlsx,New rule: Press 'space' when you see 3-back (i.e. the same letter as the one that appeared 3 letters ago.),n,None,,,,,,,,,0,15,15,15,0,1,1,1,,,,,,,,,,,,,,,,,,,,,,,,,,,,,,,,,,,,,,,,,,,,,,,,,,,,,,,,,,,,,,,,,,,,,1.134,959.9119198999979,None,None,1,959.9119198999979,None,,P015,fencog,2,Post,2021_Oct_29_0918,N-Back (New Version 2021),2021.1.4,120.63541082207723,
,,,,Conditions/Version_1/threeback(4)_v1.xlsx,New rule: Press 'space' when you see 3-back (i.e. the same letter as the one that appeared 3 letters ago.),g,None,,,,,,,,,0,15,15,15,0,2,2,2,,,,,,,,,,,,,,,,,,,,,,,,,,,,,,,,,,,,,,,,,,,,,,,,,,,,,,,,,,,,,,,,,,,,,1.1526,963.0692314000044,None,None,1,963.0692314000044,None,,P015,fencog,2,Post,2021_Oct_29_0918,N-Back (New Version 2021),2021.1.4,120.63541082207723,
,,,,Conditions/Version_1/threeback(4)_v1.xlsx,New rule: Press 'space' when you see 3-back (i.e. the same letter as the one that appeared 3 letters ago.),A,space,,,,,,,,,0,15,15,15,0,3,3,3,,,,,,,,,,,,,,,,,,,,,,,,,,,,,,,,,,,,,,,,,,,,,,,,,,,,,,,,,,,,,,,,,,,,,1.8594,966.934871800011,None,space,1,966.934871800011,None,1.4225341999990633,P015,fencog,2,Post,2021_Oct_29_0918,N-Back (New Version 2021),2021.1.4,120.63541082207723,
,,,,Conditions/Version_1/threeback(4)_v1.xlsx,New rule: Press 'space' when you see 3-back (i.e. the same letter as the one that appeared 3 letters ago.),p,None,,,,,,,,,0,15,15,15,0,4,4,4,,,,,,,,,,,,,,,,,,,,,,,,,,,,,,,,,,,,,,,,,,,,,,,,,,,,,,,,,,,,,,,,,,,,,1.537,970.4764041000017,None,None,1,970.4764041000017,None,,P015,fencog,2,Post,2021_Oct_29_0918,N-Back (New Version 2021),2021.1.4,120.63541082207723,
,,,,Conditions/Version_1/threeback(4)_v1.xlsx,New rule: Press 'space' when you see 3-back (i.e. the same letter as the one that appeared 3 letters ago.),O,None,,,,,,,,,0,15,15,15,0,5,5,5,,,,,,,,,,,,,,,,,,,,,,,,,,,,,,,,,,,,,,,,,,,,,,,,,,,,,,,,,,,,,,,,,,,,,1.4254,973.9091668000037,None,None,1,973.9091668000037,None,,P015,fencog,2,Post,2021_Oct_29_0918,N-Back (New Version 2021),2021.1.4,120.63541082207723,
,,,,Conditions/Version_1/threeback(4)_v1.xlsx,New rule: Press 'space' when you see 3-back (i.e. the same letter as the one that appeared 3 letters ago.),a,space,,,,,,,,,0,15,15,15,0,6,6,6,,,,,,,,,,,,,,,,,,,,,,,,,,,,,,,,,,,,,,,,,,,,,,,,,,,,,,,,,,,,,,,,,,,,,1.909,977.8242553000018,None,space,1,977.8242553000018,None,0.34087849999195896,P015,fencog,2,Post,2021_Oct_29_0918,N-Back (New Version 2021),2021.1.4,120.63541082207723,
,,,,Conditions/Version_1/threeback(4)_v1.xlsx,New rule: Press 'space' when you see 3-back (i.e. the same letter as the one that appeared 3 letters ago.),p,space,,,,,,,,,0,15,15,15,0,7,7,7,,,,,,,,,,,,,,,,,,,,,,,,,,,,,,,,,,,,,,,,,,,,,,,,,,,,,,,,,,,,,,,,,,,,,1.8842,981.7241665000038,None,space,1,981.7241665000038,None,0.33703260000038426,P015,fencog,2,Post,2021_Oct_29_0918,N-Back (New Version 2021),2021.1.4,120.63541082207723,
,,,,Conditions/Version_1/threeback(4)_v1.xlsx,New rule: Press 'space' when you see 3-back (i.e. the same letter as the one that appeared 3 letters ago.),x,None,,,,,,,,,0,15,15,15,0,8,8,8,,,,,,,,,,,,,,,,,,,,,,,,,,,,,,,,,,,,,,,,,,,,,,,,,,,,,,,,,,,,,,,,,,,,,1.9648,985.6959287000063,None,None,1,985.6959287000063,None,,P015,fencog,2,Post,2021_Oct_29_0918,N-Back (New Version 2021),2021.1.4,120.63541082207723,
,,,,Conditions/Version_1/threeback(4)_v1.xlsx,New rule: Press 'space' when you see 3-back (i.e. the same letter as the one that appeared 3 letters ago.),X,None,,,,,,,,,0,15,15,15,0,9,9,9,,,,,,,,,,,,,,,,,,,,,,,,,,,,,,,,,,,,,,,,,,,,,,,,,,,,,,,,,,,,,,,,,,,,,1.9772,989.6783778000099,None,None,1,989.6783778000099,None,,P015,fencog,2,Post,2021_Oct_29_0918,N-Back (New Version 2021),2021.1.4,120.63541082207723,
,,,,Conditions/Version_1/threeback(4)_v1.xlsx,New rule: Press 'space' when you see 3-back (i.e. the same letter as the one that appeared 3 letters ago.),,,,,,,,,,,0,15,15,15,,,,,,,,,,,,,,,,,,,,,,,,,,,,,,,,,,,,,,,,,,,,,,,,,,,,,,,,,,,,,,,,,,,,,,,,,,,,,,,,,P015,fencog,2,Post,2021_Oct_29_0918,N-Back (New Version 2021),2021.1.4,120.63541082207723,
