CondFileP,InstructionsP,LettersDisplayedP,CorrectnessP,CondFile,Instructions,LettersDisplayed,Correctness,practicetrials.thisRepN,practicetrials.thisTrialN,practicetrials.thisN,practicetrials.thisIndex,InnerLoopPractice.thisRepN,InnerLoopPractice.thisTrialN,InnerLoopPractice.thisN,InnerLoopPractice.thisIndex,trials.thisRepN,trials.thisTrialN,trials.thisN,trials.thisIndex,InnerLoop.thisRepN,InnerLoop.thisTrialN,InnerLoop.thisN,InnerLoop.thisIndex,TaskVersionText.started,TaskVersionText.stopped,InstrKey1.keys,InstrKey1.rt,InstrKey1.started,InstrKey1.stopped,text.started,text.stopped,key_resp_4.keys,key_resp_4.rt,key_resp_4.started,key_resp_4.stopped,text_2.started,text_2.stopped,key_resp_3.keys,key_resp_3.rt,key_resp_3.started,key_resp_3.stopped,text_3.started,text_3.stopped,key_resp_2.keys,key_resp_2.rt,key_resp_2.started,key_resp_2.stopped,PractIn1.started,PractIn1.stopped,PractIn2.started,PractIn2.stopped,PractInstructionPass.keys,PractInstructionPass.rt,PractInstructionPass.started,PractInstructionPass.stopped,PractBlock1.started,PractBlock1.stopped,ISIjitterPractice,ISI_Pract_Fixation.started,ISI_Pract_Fixation.stopped,N_backP.started,N_backP.stopped,KeyPractice.keys,KeyPractice.corr,KeyPractice.rt,KeyPractice.started,KeyPractice.stopped,text_4.started,text_4.stopped,TransitionText.started,TransitionText.stopped,key_resp_6.keys,key_resp_6.rt,key_resp_6.started,key_resp_6.stopped,text_5.started,text_5.stopped,key_resp_5.keys,key_resp_5.rt,key_resp_5.started,key_resp_5.stopped,MainInt1.started,MainInt1.stopped,MainInt2.started,MainInt2.stopped,InstructionPass.keys,InstructionPass.rt,InstructionPass.started,InstructionPass.stopped,Blocks1.started,Blocks1.stopped,ISIjitter,N_backD.started,N_backD.stopped,key_resp.keys,key_resp.corr,key_resp.started,key_resp.stopped,key_resp.rt,participant,Study Name,Task Version (required to run),PRE/POST,date,expName,psychopyVersion,frameRate
,,,,,,,,,,,,,,,,,,,,,,,,29.6167257,None,space,80.8549,30.1116693,None,,,,,,,,,,,,,,,,,,,,,,,,,,,,,,,,,,,,,,,,,,,,,,,,,,,,,,,,,,,,,,,,,,,,,,,P016,fencog,2,Post,2021_Nov_01_1224,N-Back (New Version 2021),2021.1.4,121.4326133
,,,,,,,,,,,,,,,,,,,,,,,,,,,,,,111.0030746,None,space,7.054838,111.4964013,None,,,,,,,,,,,,,,,,,,,,,,,,,,,,,,,,,,,,,,,,,,,,,,,,,,,,,,,,,,,,,,,,,P016,fencog,2,Post,2021_Nov_01_1224,N-Back (New Version 2021),2021.1.4,121.4326133
,,,,,,,,,,,,,,,,,,,,,,,,,,,,,,,,,,,,118.6012611,None,space,12.8707895,119.0879236,None,,,,,,,,,,,,,,,,,,,,,,,,,,,,,,,,,,,,,,,,,,,,,,,,,,,,,,,,,,,P016,fencog,2,Post,2021_Nov_01_1224,N-Back (New Version 2021),2021.1.4,121.4326133
,,,,,,,,,,,,,,,,,,,,,,,,,,,,,,,,,,,,,,,,,,131.9835504,None,space,6.6134806,132.473165,None,,,,,,,,,,,,,,,,,,,,,,,,,,,,,,,,,,,,,,,,,,,,,,,,,,,,,P016,fencog,2,Post,2021_Nov_01_1224,N-Back (New Version 2021),2021.1.4,121.4326133
Conditions/Version_2Pr/zeroback(1)_v2.xlsx,Rule: Press 'space' when you see the letter 'x' or 'X'.,x,space,,,,,0,0,0,0,0,0,0,0,,,,,,,,,,,,,,,,,,,,,,,,,,,,,,,,,140.5013793,None,143.4887037,None,space,0.7979046,143.4887037,None,140.5013793,None,1.99,144.3186161,None,146.3175293,None,space,1,0.3453044,146.3175293,None,146.6899374,None,,,,,,,,,,,,,,,,,,,,,,,,,,,,,,,P016,fencog,2,Post,2021_Nov_01_1224,N-Back (New Version 2021),2021.1.4,121.4326133
Conditions/Version_2Pr/zeroback(1)_v2.xlsx,Rule: Press 'space' when you see the letter 'x' or 'X'.,R,None,,,,,0,0,0,0,0,1,1,1,,,,,,,,,,,,,,,,,,,,,,,,,,,,,,,,,,,,,,,,,,,1.565,148.1928778,None,149.7614898,None,space,0,0.3254837,149.7614898,None,150.1119084,None,,,,,,,,,,,,,,,,,,,,,,,,,,,,,,,P016,fencog,2,Post,2021_Nov_01_1224,N-Back (New Version 2021),2021.1.4,121.4326133
Conditions/Version_2Pr/zeroback(1)_v2.xlsx,Rule: Press 'space' when you see the letter 'x' or 'X'.,p,None,,,,,0,0,0,0,0,2,2,2,,,,,,,,,,,,,,,,,,,,,,,,,,,,,,,,,,,,,,,,,,,1.615,151.6178024,None,153.2336096,None,None,1,,153.2336096,None,155.2407712,None,,,,,,,,,,,,,,,,,,,,,,,,,,,,,,,P016,fencog,2,Post,2021_Nov_01_1224,N-Back (New Version 2021),2021.1.4,121.4326133
Conditions/Version_2Pr/zeroback(1)_v2.xlsx,Rule: Press 'space' when you see the letter 'x' or 'X'.,O,None,,,,,0,0,0,0,0,3,3,3,,,,,,,,,,,,,,,,,,,,,,,,,,,,,,,,,,,,,,,,,,,1.215,156.7405501,None,157.957615,None,None,1,,157.957615,None,159.9647242,None,,,,,,,,,,,,,,,,,,,,,,,,,,,,,,,P016,fencog,2,Post,2021_Nov_01_1224,N-Back (New Version 2021),2021.1.4,121.4326133
Conditions/Version_2Pr/zeroback(1)_v2.xlsx,Rule: Press 'space' when you see the letter 'x' or 'X'.,i,None,,,,,0,0,0,0,0,4,4,4,,,,,,,,,,,,,,,,,,,,,,,,,,,,,,,,,,,,,,,,,,,1.915,161.4642075,None,163.386149,None,None,1,,163.386149,None,165.3916957,None,,,,,,,,,,,,,,,,,,,,,,,,,,,,,,,P016,fencog,2,Post,2021_Nov_01_1224,N-Back (New Version 2021),2021.1.4,121.4326133
Conditions/Version_2Pr/zeroback(1)_v2.xlsx,Rule: Press 'space' when you see the letter 'x' or 'X'.,U,None,,,,,0,0,0,0,0,5,5,5,,,,,,,,,,,,,,,,,,,,,,,,,,,,,,,,,,,,,,,,,,,1.315,166.8875749,None,168.2054669,None,None,1,,168.2054669,None,170.2114577,None,,,,,,,,,,,,,,,,,,,,,,,,,,,,,,,P016,fencog,2,Post,2021_Nov_01_1224,N-Back (New Version 2021),2021.1.4,121.4326133
Conditions/Version_2Pr/zeroback(1)_v2.xlsx,Rule: Press 'space' when you see the letter 'x' or 'X'.,N,None,,,,,0,0,0,0,0,6,6,6,,,,,,,,,,,,,,,,,,,,,,,,,,,,,,,,,,,,,,,,,,,1.69,171.7112741,None,173.4045911,None,None,1,,173.4045911,None,175.4100858,None,,,,,,,,,,,,,,,,,,,,,,,,,,,,,,,P016,fencog,2,Post,2021_Nov_01_1224,N-Back (New Version 2021),2021.1.4,121.4326133
Conditions/Version_2Pr/zeroback(1)_v2.xlsx,Rule: Press 'space' when you see the letter 'x' or 'X'.,m,None,,,,,0,0,0,0,0,7,7,7,,,,,,,,,,,,,,,,,,,,,,,,,,,,,,,,,,,,,,,,,,,1.865,176.9094836,None,178.7767342,None,None,1,,178.7767342,None,180.7832827,None,,,,,,,,,,,,,,,,,,,,,,,,,,,,,,,P016,fencog,2,Post,2021_Nov_01_1224,N-Back (New Version 2021),2021.1.4,121.4326133
Conditions/Version_2Pr/zeroback(1)_v2.xlsx,Rule: Press 'space' when you see the letter 'x' or 'X'.,x,space,,,,,0,0,0,0,0,8,8,8,,,,,,,,,,,,,,,,,,,,,,,,,,,,,,,,,,,,,,,,,,,1.815,182.2830625,None,184.0990176,None,space,1,0.4035916,184.0990176,None,184.5170449,None,,,,,,,,,,,,,,,,,,,,,,,,,,,,,,,P016,fencog,2,Post,2021_Nov_01_1224,N-Back (New Version 2021),2021.1.4,121.4326133
Conditions/Version_2Pr/zeroback(1)_v2.xlsx,Rule: Press 'space' when you see the letter 'x' or 'X'.,X,space,,,,,0,0,0,0,0,9,9,9,,,,,,,,,,,,,,,,,,,,,,,,,,,,,,,,,,,,,,,,,,,1.765,186.0235803,None,187.7951544,None,space,1,0.5713946,187.7951544,None,188.3817903,None,,,,,,,,,,,,,,,,,,,,,,,,,,,,,,,P016,fencog,2,Post,2021_Nov_01_1224,N-Back (New Version 2021),2021.1.4,121.4326133
Conditions/Version_2Pr/zeroback(1)_v2.xlsx,Rule: Press 'space' when you see the letter 'x' or 'X'.,,,,,,,0,0,0,0,,,,,,,,,,,,,,,,,,,,,,,,,,,,,,,,,,,,,,,,,,,,,,,,,,,,,,,,,,,,,,,,,,,,,,,,,,,,,,,,,,,,,,,,,P016,fencog,2,Post,2021_Nov_01_1224,N-Back (New Version 2021),2021.1.4,121.4326133
Conditions/Version_2Pr/oneback(1)_v2.xlsx,New rule: Press 'space' when you see 1-back (i.e. the same letter as the one that appeared 1 letter ago.),r,None,,,,,0,1,1,1,0,0,0,0,,,,,,,,,,,,,,,,,,,,,,,,,,,,,,,,,189.9125737,None,192.8980946,None,space,0.3324929,192.8980946,None,189.9125737,None,1.515,193.2591996,None,194.7819233,None,None,1,,194.7819233,None,196.7898027,None,,,,,,,,,,,,,,,,,,,,,,,,,,,,,,,P016,fencog,2,Post,2021_Nov_01_1224,N-Back (New Version 2021),2021.1.4,121.4326133
Conditions/Version_2Pr/oneback(1)_v2.xlsx,New rule: Press 'space' when you see 1-back (i.e. the same letter as the one that appeared 1 letter ago.),t,None,,,,,0,1,1,1,0,1,1,1,,,,,,,,,,,,,,,,,,,,,,,,,,,,,,,,,,,,,,,,,,,1.665,198.2866045,None,199.9540745,None,None,1,,199.9540745,None,201.9605926,None,,,,,,,,,,,,,,,,,,,,,,,,,,,,,,,P016,fencog,2,Post,2021_Nov_01_1224,N-Back (New Version 2021),2021.1.4,121.4326133
Conditions/Version_2Pr/oneback(1)_v2.xlsx,New rule: Press 'space' when you see 1-back (i.e. the same letter as the one that appeared 1 letter ago.),Y,None,,,,,0,1,1,1,0,2,2,2,,,,,,,,,,,,,,,,,,,,,,,,,,,,,,,,,,,,,,,,,,,1.99,203.4601372,None,205.4518177,None,None,1,,205.4518177,None,207.4588376,None,,,,,,,,,,,,,,,,,,,,,,,,,,,,,,,P016,fencog,2,Post,2021_Nov_01_1224,N-Back (New Version 2021),2021.1.4,121.4326133
Conditions/Version_2Pr/oneback(1)_v2.xlsx,New rule: Press 'space' when you see 1-back (i.e. the same letter as the one that appeared 1 letter ago.),y,space,,,,,0,1,1,1,0,3,3,3,,,,,,,,,,,,,,,,,,,,,,,,,,,,,,,,,,,,,,,,,,,1.415,208.9583533,None,210.3754016,None,space,1,0.3991677,210.3754016,None,210.7851604,None,,,,,,,,,,,,,,,,,,,,,,,,,,,,,,,P016,fencog,2,Post,2021_Nov_01_1224,N-Back (New Version 2021),2021.1.4,121.4326133
Conditions/Version_2Pr/oneback(1)_v2.xlsx,New rule: Press 'space' when you see 1-back (i.e. the same letter as the one that appeared 1 letter ago.),p,None,,,,,0,1,1,1,0,4,4,4,,,,,,,,,,,,,,,,,,,,,,,,,,,,,,,,,,,,,,,,,,,1.865,212.2921891,None,214.1594946,None,None,1,,214.1594946,None,216.1644756,None,,,,,,,,,,,,,,,,,,,,,,,,,,,,,,,P016,fencog,2,Post,2021_Nov_01_1224,N-Back (New Version 2021),2021.1.4,121.4326133
Conditions/Version_2Pr/oneback(1)_v2.xlsx,New rule: Press 'space' when you see 1-back (i.e. the same letter as the one that appeared 1 letter ago.),P,space,,,,,0,1,1,1,0,5,5,5,,,,,,,,,,,,,,,,,,,,,,,,,,,,,,,,,,,,,,,,,,,1.59,217.6643296,None,219.2573485,None,space,1,0.325212,219.2573485,None,219.5975215,None,,,,,,,,,,,,,,,,,,,,,,,,,,,,,,,P016,fencog,2,Post,2021_Nov_01_1224,N-Back (New Version 2021),2021.1.4,121.4326133
Conditions/Version_2Pr/oneback(1)_v2.xlsx,New rule: Press 'space' when you see 1-back (i.e. the same letter as the one that appeared 1 letter ago.),e,None,,,,,0,1,1,1,0,6,6,6,,,,,,,,,,,,,,,,,,,,,,,,,,,,,,,,,,,,,,,,,,,1.29,221.0965433,None,222.3898127,None,None,1,,222.3898127,None,224.3923998,None,,,,,,,,,,,,,,,,,,,,,,,,,,,,,,,P016,fencog,2,Post,2021_Nov_01_1224,N-Back (New Version 2021),2021.1.4,121.4326133
Conditions/Version_2Pr/oneback(1)_v2.xlsx,New rule: Press 'space' when you see 1-back (i.e. the same letter as the one that appeared 1 letter ago.),r,None,,,,,0,1,1,1,0,7,7,7,,,,,,,,,,,,,,,,,,,,,,,,,,,,,,,,,,,,,,,,,,,1.215,225.8951356,None,227.1121643,None,None,1,,227.1121643,None,229.1161041,None,,,,,,,,,,,,,,,,,,,,,,,,,,,,,,,P016,fencog,2,Post,2021_Nov_01_1224,N-Back (New Version 2021),2021.1.4,121.4326133
Conditions/Version_2Pr/oneback(1)_v2.xlsx,New rule: Press 'space' when you see 1-back (i.e. the same letter as the one that appeared 1 letter ago.),R,space,,,,,0,1,1,1,0,8,8,8,,,,,,,,,,,,,,,,,,,,,,,,,,,,,,,,,,,,,,,,,,,1.44,230.6187694,None,232.0633177,None,space,1,0.2713634,232.0633177,None,232.3511451,None,,,,,,,,,,,,,,,,,,,,,,,,,,,,,,,P016,fencog,2,Post,2021_Nov_01_1224,N-Back (New Version 2021),2021.1.4,121.4326133
Conditions/Version_2Pr/oneback(1)_v2.xlsx,New rule: Press 'space' when you see 1-back (i.e. the same letter as the one that appeared 1 letter ago.),p,None,,,,,0,1,1,1,0,9,9,9,,,,,,,,,,,,,,,,,,,,,,,,,,,,,,,,,,,,,,,,,,,1.365,233.8522569,None,235.2181572,None,space,0,0.3488877,235.2181572,None,235.5827231,None,,,,,,,,,,,,,,,,,,,,,,,,,,,,,,,P016,fencog,2,Post,2021_Nov_01_1224,N-Back (New Version 2021),2021.1.4,121.4326133
Conditions/Version_2Pr/oneback(1)_v2.xlsx,New rule: Press 'space' when you see 1-back (i.e. the same letter as the one that appeared 1 letter ago.),,,,,,,0,1,1,1,,,,,,,,,,,,,,,,,,,,,,,,,,,,,,,,,,,,,,,,,,,,,,,,,,,,,,,,,,,,,,,,,,,,,,,,,,,,,,,,,,,,,,,,,P016,fencog,2,Post,2021_Nov_01_1224,N-Back (New Version 2021),2021.1.4,121.4326133
Conditions/Version_2Pr/twoback(1)_v2.xlsx,New rule: Press 'space' when you see 2-back (i.e. the same letter as the one that appeared 2 letters ago.),r,None,,,,,0,2,2,2,0,0,0,0,,,,,,,,,,,,,,,,,,,,,,,,,,,,,,,,,237.1174819,None,240.1149007,None,space,0.291562,240.1149007,None,237.1174819,None,1.69,240.4284448,None,242.1246421,None,None,1,,242.1246421,None,244.1315012,None,,,,,,,,,,,,,,,,,,,,,,,,,,,,,,,P016,fencog,2,Post,2021_Nov_01_1224,N-Back (New Version 2021),2021.1.4,121.4326133
Conditions/Version_2Pr/twoback(1)_v2.xlsx,New rule: Press 'space' when you see 2-back (i.e. the same letter as the one that appeared 2 letters ago.),P,None,,,,,0,2,2,2,0,1,1,1,,,,,,,,,,,,,,,,,,,,,,,,,,,,,,,,,,,,,,,,,,,1.94,245.6324957,None,247.5717839,None,None,1,,247.5717839,None,249.5738269,None,,,,,,,,,,,,,,,,,,,,,,,,,,,,,,,P016,fencog,2,Post,2021_Nov_01_1224,N-Back (New Version 2021),2021.1.4,121.4326133
Conditions/Version_2Pr/twoback(1)_v2.xlsx,New rule: Press 'space' when you see 2-back (i.e. the same letter as the one that appeared 2 letters ago.),o,None,,,,,0,2,2,2,0,2,2,2,,,,,,,,,,,,,,,,,,,,,,,,,,,,,,,,,,,,,,,,,,,1.54,251.0793603,None,252.6250966,None,None,1,,252.6250966,None,254.6279824,None,,,,,,,,,,,,,,,,,,,,,,,,,,,,,,,P016,fencog,2,Post,2021_Nov_01_1224,N-Back (New Version 2021),2021.1.4,121.4326133
Conditions/Version_2Pr/twoback(1)_v2.xlsx,New rule: Press 'space' when you see 2-back (i.e. the same letter as the one that appeared 2 letters ago.),p,space,,,,,0,2,2,2,0,3,3,3,,,,,,,,,,,,,,,,,,,,,,,,,,,,,,,,,,,,,,,,,,,1.44,256.127868,None,257.5688178,None,space,1,0.4294896,257.5688178,None,258.0137665,None,,,,,,,,,,,,,,,,,,,,,,,,,,,,,,,P016,fencog,2,Post,2021_Nov_01_1224,N-Back (New Version 2021),2021.1.4,121.4326133
Conditions/Version_2Pr/twoback(1)_v2.xlsx,New rule: Press 'space' when you see 2-back (i.e. the same letter as the one that appeared 2 letters ago.),Y,None,,,,,0,2,2,2,0,4,4,4,,,,,,,,,,,,,,,,,,,,,,,,,,,,,,,,,,,,,,,,,,,1.965,259.5184696,None,261.4843199,None,None,1,,261.4843199,None,263.4837927,None,,,,,,,,,,,,,,,,,,,,,,,,,,,,,,,P016,fencog,2,Post,2021_Nov_01_1224,N-Back (New Version 2021),2021.1.4,121.4326133
Conditions/Version_2Pr/twoback(1)_v2.xlsx,New rule: Press 'space' when you see 2-back (i.e. the same letter as the one that appeared 2 letters ago.),q,None,,,,,0,2,2,2,0,5,5,5,,,,,,,,,,,,,,,,,,,,,,,,,,,,,,,,,,,,,,,,,,,1.115,264.9835646,None,266.1000117,None,None,1,,266.1000117,None,268.0993319,None,,,,,,,,,,,,,,,,,,,,,,,,,,,,,,,P016,fencog,2,Post,2021_Nov_01_1224,N-Back (New Version 2021),2021.1.4,121.4326133
Conditions/Version_2Pr/twoback(1)_v2.xlsx,New rule: Press 'space' when you see 2-back (i.e. the same letter as the one that appeared 2 letters ago.),m,None,,,,,0,2,2,2,0,6,6,6,,,,,,,,,,,,,,,,,,,,,,,,,,,,,,,,,,,,,,,,,,,1.465,269.5986996,None,271.0654529,None,None,1,,271.0654529,None,273.0728249,None,,,,,,,,,,,,,,,,,,,,,,,,,,,,,,,P016,fencog,2,Post,2021_Nov_01_1224,N-Back (New Version 2021),2021.1.4,121.4326133
Conditions/Version_2Pr/twoback(1)_v2.xlsx,New rule: Press 'space' when you see 2-back (i.e. the same letter as the one that appeared 2 letters ago.),Q,space,,,,,0,2,2,2,0,7,7,7,,,,,,,,,,,,,,,,,,,,,,,,,,,,,,,,,,,,,,,,,,,1.89,274.5730154,None,276.4683679,None,space,1,0.3860309,276.4683679,None,276.8639008,None,,,,,,,,,,,,,,,,,,,,,,,,,,,,,,,P016,fencog,2,Post,2021_Nov_01_1224,N-Back (New Version 2021),2021.1.4,121.4326133
Conditions/Version_2Pr/twoback(1)_v2.xlsx,New rule: Press 'space' when you see 2-back (i.e. the same letter as the one that appeared 2 letters ago.),L,None,,,,,0,2,2,2,0,8,8,8,,,,,,,,,,,,,,,,,,,,,,,,,,,,,,,,,,,,,,,,,,,1.815,278.3711942,None,280.1890284,None,None,1,,280.1890284,None,282.1990221,None,,,,,,,,,,,,,,,,,,,,,,,,,,,,,,,P016,fencog,2,Post,2021_Nov_01_1224,N-Back (New Version 2021),2021.1.4,121.4326133
Conditions/Version_2Pr/twoback(1)_v2.xlsx,New rule: Press 'space' when you see 2-back (i.e. the same letter as the one that appeared 2 letters ago.),q,space,,,,,0,2,2,2,0,9,9,9,,,,,,,,,,,,,,,,,,,,,,,,,,,,,,,,,,,,,,,,,,,1.265,283.6946783,None,284.961885,None,space,1,0.556537,284.961885,None,285.5319961,None,,,,,,,,,,,,,,,,,,,,,,,,,,,,,,,P016,fencog,2,Post,2021_Nov_01_1224,N-Back (New Version 2021),2021.1.4,121.4326133
Conditions/Version_2Pr/twoback(1)_v2.xlsx,New rule: Press 'space' when you see 2-back (i.e. the same letter as the one that appeared 2 letters ago.),,,,,,,0,2,2,2,,,,,,,,,,,,,,,,,,,,,,,,,,,,,,,,,,,,,,,,,,,,,,,,,,,,,,,,,,,,,,,,,,,,,,,,,,,,,,,,,,,,,,,,,P016,fencog,2,Post,2021_Nov_01_1224,N-Back (New Version 2021),2021.1.4,121.4326133
Conditions/Version_2Pr/threeback(1)_v2.xlsx,New rule: Press 'space' when you see 3-back (i.e. the same letter as the one that appeared 3 letters ago.),u,None,,,,,0,3,3,3,0,0,0,0,,,,,,,,,,,,,,,,,,,,,,,,,,,,,,,,,287.0565132,None,290.0454716,None,space,0.6886079,290.0454716,None,287.0565132,None,1.24,290.7560619,None,292.0014804,None,None,1,,292.0014804,None,294.0109009,None,,,,,,,,,,,,,,,,,,,,,,,,,,,,,,,P016,fencog,2,Post,2021_Nov_01_1224,N-Back (New Version 2021),2021.1.4,121.4326133
Conditions/Version_2Pr/threeback(1)_v2.xlsx,New rule: Press 'space' when you see 3-back (i.e. the same letter as the one that appeared 3 letters ago.),U,None,,,,,0,3,3,3,0,1,1,1,,,,,,,,,,,,,,,,,,,,,,,,,,,,,,,,,,,,,,,,,,,1.065,295.5082817,None,296.5776297,None,None,1,,296.5776297,None,298.5793173,None,,,,,,,,,,,,,,,,,,,,,,,,,,,,,,,P016,fencog,2,Post,2021_Nov_01_1224,N-Back (New Version 2021),2021.1.4,121.4326133
Conditions/Version_2Pr/threeback(1)_v2.xlsx,New rule: Press 'space' when you see 3-back (i.e. the same letter as the one that appeared 3 letters ago.),p,None,,,,,0,3,3,3,0,2,2,2,,,,,,,,,,,,,,,,,,,,,,,,,,,,,,,,,,,,,,,,,,,1.465,300.0815017,None,301.5486356,None,None,1,,301.5486356,None,303.5555399,None,,,,,,,,,,,,,,,,,,,,,,,,,,,,,,,P016,fencog,2,Post,2021_Nov_01_1224,N-Back (New Version 2021),2021.1.4,121.4326133
Conditions/Version_2Pr/threeback(1)_v2.xlsx,New rule: Press 'space' when you see 3-back (i.e. the same letter as the one that appeared 3 letters ago.),U,space,,,,,0,3,3,3,0,3,3,3,,,,,,,,,,,,,,,,,,,,,,,,,,,,,,,,,,,,,,,,,,,1.565,305.0549269,None,306.6210394,None,space,1,0.3856363,306.6210394,None,307.0172732,None,,,,,,,,,,,,,,,,,,,,,,,,,,,,,,,P016,fencog,2,Post,2021_Nov_01_1224,N-Back (New Version 2021),2021.1.4,121.4326133
Conditions/Version_2Pr/threeback(1)_v2.xlsx,New rule: Press 'space' when you see 3-back (i.e. the same letter as the one that appeared 3 letters ago.),e,None,,,,,0,3,3,3,0,4,4,4,,,,,,,,,,,,,,,,,,,,,,,,,,,,,,,,,,,,,,,,,,,1.115,308.521614,None,309.6404057,None,None,1,,309.6404057,None,311.6485973,None,,,,,,,,,,,,,,,,,,,,,,,,,,,,,,,P016,fencog,2,Post,2021_Nov_01_1224,N-Back (New Version 2021),2021.1.4,121.4326133
Conditions/Version_2Pr/threeback(1)_v2.xlsx,New rule: Press 'space' when you see 3-back (i.e. the same letter as the one that appeared 3 letters ago.),R,None,,,,,0,3,3,3,0,5,5,5,,,,,,,,,,,,,,,,,,,,,,,,,,,,,,,,,,,,,,,,,,,1.49,313.1442366,None,314.6360953,None,None,1,,314.6360953,None,316.6379535,None,,,,,,,,,,,,,,,,,,,,,,,,,,,,,,,P016,fencog,2,Post,2021_Nov_01_1224,N-Back (New Version 2021),2021.1.4,121.4326133
Conditions/Version_2Pr/threeback(1)_v2.xlsx,New rule: Press 'space' when you see 3-back (i.e. the same letter as the one that appeared 3 letters ago.),p,None,,,,,0,3,3,3,0,6,6,6,,,,,,,,,,,,,,,,,,,,,,,,,,,,,,,,,,,,,,,,,,,1.665,318.1427979,None,319.8088204,None,None,1,,319.8088204,None,321.8168375,None,,,,,,,,,,,,,,,,,,,,,,,,,,,,,,,P016,fencog,2,Post,2021_Nov_01_1224,N-Back (New Version 2021),2021.1.4,121.4326133
Conditions/Version_2Pr/threeback(1)_v2.xlsx,New rule: Press 'space' when you see 3-back (i.e. the same letter as the one that appeared 3 letters ago.),E,space,,,,,0,3,3,3,0,7,7,7,,,,,,,,,,,,,,,,,,,,,,,,,,,,,,,,,,,,,,,,,,,1.94,323.3159844,None,325.2645649,None,space,1,0.39746,325.2645649,None,325.673825,None,,,,,,,,,,,,,,,,,,,,,,,,,,,,,,,P016,fencog,2,Post,2021_Nov_01_1224,N-Back (New Version 2021),2021.1.4,121.4326133
Conditions/Version_2Pr/threeback(1)_v2.xlsx,New rule: Press 'space' when you see 3-back (i.e. the same letter as the one that appeared 3 letters ago.),k,None,,,,,0,3,3,3,0,8,8,8,,,,,,,,,,,,,,,,,,,,,,,,,,,,,,,,,,,,,,,,,,,1.34,327.1731275,None,328.516305,None,None,1,,328.516305,None,330.5224758,None,,,,,,,,,,,,,,,,,,,,,,,,,,,,,,,P016,fencog,2,Post,2021_Nov_01_1224,N-Back (New Version 2021),2021.1.4,121.4326133
Conditions/Version_2Pr/threeback(1)_v2.xlsx,New rule: Press 'space' when you see 3-back (i.e. the same letter as the one that appeared 3 letters ago.),m,None,,,,,0,3,3,3,0,9,9,9,,,,,,,,,,,,,,,,,,,,,,,,,,,,,,,,,,,,,,,,,,,1.84,332.0221153,None,333.8630261,None,None,1,,333.8630261,None,335.8623812,None,,,,,,,,,,,,,,,,,,,,,,,,,,,,,,,P016,fencog,2,Post,2021_Nov_01_1224,N-Back (New Version 2021),2021.1.4,121.4326133
Conditions/Version_2Pr/threeback(1)_v2.xlsx,New rule: Press 'space' when you see 3-back (i.e. the same letter as the one that appeared 3 letters ago.),,,,,,,0,3,3,3,,,,,,,,,,,,,,,,,,,,,,,,,,,,,,,,,,,,,,,,,,,,,,,,,,,,,,,,,,,,,,,,,,,,,,,,,,,,,,,,,,,,,,,,,P016,fencog,2,Post,2021_Nov_01_1224,N-Back (New Version 2021),2021.1.4,121.4326133
,,,,,,,,,,,,,,,,,,,,,,,,,,,,,,,,,,,,,,,,,,,,,,,,,,,,,,,,,,,,,,,,,,,,,,337.3747631,None,space,15.8233186,337.8707989,None,,,,,,,,,,,,,,,,,,,,,,,,,P016,fencog,2,Post,2021_Nov_01_1224,N-Back (New Version 2021),2021.1.4,121.4326133
,,,,,,,,,,,,,,,,,,,,,,,,,,,,,,,,,,,,,,,,,,,,,,,,,,,,,,,,,,,,,,,,,,,,,,,,,,,,353.7207352,None,space,2.1745278,354.2160314,None,,,,,,,,,,,,,,,,,,,P016,fencog,2,Post,2021_Nov_01_1224,N-Back (New Version 2021),2021.1.4,121.4326133
,,,,Conditions/Version_1/zeroback(1)_v1.xlsx,Rule: Press 'space' when you see the letter 'x' or 'X'.,b,None,,,,,,,,,0,0,0,0,0,0,0,0,,,,,,,,,,,,,,,,,,,,,,,,,,,,,,,,,,,,,,,,,,,,,,,,,,,,,,,,,,,356.5097925,None,359.513439,None,space,0.3167383,359.513439,None,356.5097925,None,1.8594,361.7139362,None,None,1,361.7139362,None,,P016,fencog,2,Post,2021_Nov_01_1224,N-Back (New Version 2021),2021.1.4,121.4326133
,,,,Conditions/Version_1/zeroback(1)_v1.xlsx,Rule: Press 'space' when you see the letter 'x' or 'X'.,T,None,,,,,,,,,0,0,0,0,0,1,1,1,,,,,,,,,,,,,,,,,,,,,,,,,,,,,,,,,,,,,,,,,,,,,,,,,,,,,,,,,,,,,,,,,,,,,1.4564,365.1704228,None,None,1,365.1704228,None,,P016,fencog,2,Post,2021_Nov_01_1224,N-Back (New Version 2021),2021.1.4,121.4326133
,,,,Conditions/Version_1/zeroback(1)_v1.xlsx,Rule: Press 'space' when you see the letter 'x' or 'X'.,L,None,,,,,,,,,0,0,0,0,0,2,2,2,,,,,,,,,,,,,,,,,,,,,,,,,,,,,,,,,,,,,,,,,,,,,,,,,,,,,,,,,,,,,,,,,,,,,1.103,368.2803343,None,None,1,368.2803343,None,,P016,fencog,2,Post,2021_Nov_01_1224,N-Back (New Version 2021),2021.1.4,121.4326133
,,,,Conditions/Version_1/zeroback(1)_v1.xlsx,Rule: Press 'space' when you see the letter 'x' or 'X'.,x,space,,,,,,,,,0,0,0,0,0,3,3,3,,,,,,,,,,,,,,,,,,,,,,,,,,,,,,,,,,,,,,,,,,,,,,,,,,,,,,,,,,,,,,,,,,,,,1.3386,371.627674,None,space,1,371.627674,None,0.3624166,P016,fencog,2,Post,2021_Nov_01_1224,N-Back (New Version 2021),2021.1.4,121.4326133
,,,,Conditions/Version_1/zeroback(1)_v1.xlsx,Rule: Press 'space' when you see the letter 'x' or 'X'.,o,None,,,,,,,,,0,0,0,0,0,4,4,4,,,,,,,,,,,,,,,,,,,,,,,,,,,,,,,,,,,,,,,,,,,,,,,,,,,,,,,,,,,,,,,,,,,,,1.4502,375.0840688,None,None,1,375.0840688,None,,P016,fencog,2,Post,2021_Nov_01_1224,N-Back (New Version 2021),2021.1.4,121.4326133
,,,,Conditions/Version_1/zeroback(1)_v1.xlsx,Rule: Press 'space' when you see the letter 'x' or 'X'.,P,None,,,,,,,,,0,0,0,0,0,5,5,5,,,,,,,,,,,,,,,,,,,,,,,,,,,,,,,,,,,,,,,,,,,,,,,,,,,,,,,,,,,,,,,,,,,,,1.3696,378.4607078,None,None,1,378.4607078,None,,P016,fencog,2,Post,2021_Nov_01_1224,N-Back (New Version 2021),2021.1.4,121.4326133
,,,,Conditions/Version_1/zeroback(1)_v1.xlsx,Rule: Press 'space' when you see the letter 'x' or 'X'.,X,space,,,,,,,,,0,0,0,0,0,6,6,6,,,,,,,,,,,,,,,,,,,,,,,,,,,,,,,,,,,,,,,,,,,,,,,,,,,,,,,,,,,,,,,,,,,,,1.8656,382.3317475,None,space,1,382.3317475,None,0.3302505,P016,fencog,2,Post,2021_Nov_01_1224,N-Back (New Version 2021),2021.1.4,121.4326133
,,,,Conditions/Version_1/zeroback(1)_v1.xlsx,Rule: Press 'space' when you see the letter 'x' or 'X'.,n,None,,,,,,,,,0,0,0,0,0,7,7,7,,,,,,,,,,,,,,,,,,,,,,,,,,,,,,,,,,,,,,,,,,,,,,,,,,,,,,,,,,,,,,,,,,,,,1.7664,386.1066725,None,None,1,386.1066725,None,,P016,fencog,2,Post,2021_Nov_01_1224,N-Back (New Version 2021),2021.1.4,121.4326133
,,,,Conditions/Version_1/zeroback(1)_v1.xlsx,Rule: Press 'space' when you see the letter 'x' or 'X'.,M,None,,,,,,,,,0,0,0,0,0,8,8,8,,,,,,,,,,,,,,,,,,,,,,,,,,,,,,,,,,,,,,,,,,,,,,,,,,,,,,,,,,,,,,,,,,,,,1.6052,389.7230373,None,None,1,389.7230373,None,,P016,fencog,2,Post,2021_Nov_01_1224,N-Back (New Version 2021),2021.1.4,121.4326133
,,,,Conditions/Version_1/zeroback(1)_v1.xlsx,Rule: Press 'space' when you see the letter 'x' or 'X'.,a,None,,,,,,,,,0,0,0,0,0,9,9,9,,,,,,,,,,,,,,,,,,,,,,,,,,,,,,,,,,,,,,,,,,,,,,,,,,,,,,,,,,,,,,,,,,,,,1.6796,393.4172163,None,None,1,393.4172163,None,,P016,fencog,2,Post,2021_Nov_01_1224,N-Back (New Version 2021),2021.1.4,121.4326133
,,,,Conditions/Version_1/zeroback(1)_v1.xlsx,Rule: Press 'space' when you see the letter 'x' or 'X'.,,,,,,,,,,,0,0,0,0,,,,,,,,,,,,,,,,,,,,,,,,,,,,,,,,,,,,,,,,,,,,,,,,,,,,,,,,,,,,,,,,,,,,,,,,,,,,,,,,,P016,fencog,2,Post,2021_Nov_01_1224,N-Back (New Version 2021),2021.1.4,121.4326133
,,,,Conditions/Version_1/oneback(1)_v1.xlsx,New rule: Press 'space' when you see 1-back (i.e. the same letter as the one that appeared 1 letter ago.),b,None,,,,,,,,,0,1,1,1,0,0,0,0,,,,,,,,,,,,,,,,,,,,,,,,,,,,,,,,,,,,,,,,,,,,,,,,,,,,,,,,,,,395.4551418,None,398.4377649,None,space,0.5683303,398.4377649,None,395.4551418,None,1.2394,400.277793,None,None,1,400.277793,None,,P016,fencog,2,Post,2021_Nov_01_1224,N-Back (New Version 2021),2021.1.4,121.4326133
,,,,Conditions/Version_1/oneback(1)_v1.xlsx,New rule: Press 'space' when you see 1-back (i.e. the same letter as the one that appeared 1 letter ago.),p,None,,,,,,,,,0,1,1,1,0,1,1,1,,,,,,,,,,,,,,,,,,,,,,,,,,,,,,,,,,,,,,,,,,,,,,,,,,,,,,,,,,,,,,,,,,,,,1.0162,403.300496,None,None,1,403.300496,None,,P016,fencog,2,Post,2021_Nov_01_1224,N-Back (New Version 2021),2021.1.4,121.4326133
,,,,Conditions/Version_1/oneback(1)_v1.xlsx,New rule: Press 'space' when you see 1-back (i.e. the same letter as the one that appeared 1 letter ago.),M,None,,,,,,,,,0,1,1,1,0,2,2,2,,,,,,,,,,,,,,,,,,,,,,,,,,,,,,,,,,,,,,,,,,,,,,,,,,,,,,,,,,,,,,,,,,,,,1.6424,406.9494336,None,None,1,406.9494336,None,,P016,fencog,2,Post,2021_Nov_01_1224,N-Back (New Version 2021),2021.1.4,121.4326133
,,,,Conditions/Version_1/oneback(1)_v1.xlsx,New rule: Press 'space' when you see 1-back (i.e. the same letter as the one that appeared 1 letter ago.),M,space,,,,,,,,,0,1,1,1,0,3,3,3,,,,,,,,,,,,,,,,,,,,,,,,,,,,,,,,,,,,,,,,,,,,,,,,,,,,,,,,,,,,,,,,,,,,,1.7292,410.6816726,None,space,1,410.6816726,None,0.6521548,P016,fencog,2,Post,2021_Nov_01_1224,N-Back (New Version 2021),2021.1.4,121.4326133
,,,,Conditions/Version_1/oneback(1)_v1.xlsx,New rule: Press 'space' when you see 1-back (i.e. the same letter as the one that appeared 1 letter ago.),n,None,,,,,,,,,0,1,1,1,0,4,4,4,,,,,,,,,,,,,,,,,,,,,,,,,,,,,,,,,,,,,,,,,,,,,,,,,,,,,,,,,,,,,,,,,,,,,1.134,413.8248161,None,None,1,413.8248161,None,,P016,fencog,2,Post,2021_Nov_01_1224,N-Back (New Version 2021),2021.1.4,121.4326133
,,,,Conditions/Version_1/oneback(1)_v1.xlsx,New rule: Press 'space' when you see 1-back (i.e. the same letter as the one that appeared 1 letter ago.),g,None,,,,,,,,,0,1,1,1,0,5,5,5,,,,,,,,,,,,,,,,,,,,,,,,,,,,,,,,,,,,,,,,,,,,,,,,,,,,,,,,,,,,,,,,,,,,,1.1774,417.0150772,None,None,1,417.0150772,None,,P016,fencog,2,Post,2021_Nov_01_1224,N-Back (New Version 2021),2021.1.4,121.4326133
,,,,Conditions/Version_1/oneback(1)_v1.xlsx,New rule: Press 'space' when you see 1-back (i.e. the same letter as the one that appeared 1 letter ago.),P,None,,,,,,,,,0,1,1,1,0,6,6,6,,,,,,,,,,,,,,,,,,,,,,,,,,,,,,,,,,,,,,,,,,,,,,,,,,,,,,,,,,,,,,,,,,,,,1.2642,420.2874218,None,None,1,420.2874218,None,,P016,fencog,2,Post,2021_Nov_01_1224,N-Back (New Version 2021),2021.1.4,121.4326133
,,,,Conditions/Version_1/oneback(1)_v1.xlsx,New rule: Press 'space' when you see 1-back (i.e. the same letter as the one that appeared 1 letter ago.),o,None,,,,,,,,,0,1,1,1,0,7,7,7,,,,,,,,,,,,,,,,,,,,,,,,,,,,,,,,,,,,,,,,,,,,,,,,,,,,,,,,,,,,,,,,,,,,,1.6858,423.9780698,None,None,1,423.9780698,None,,P016,fencog,2,Post,2021_Nov_01_1224,N-Back (New Version 2021),2021.1.4,121.4326133
,,,,Conditions/Version_1/oneback(1)_v1.xlsx,New rule: Press 'space' when you see 1-back (i.e. the same letter as the one that appeared 1 letter ago.),f,None,,,,,,,,,0,1,1,1,0,8,8,8,,,,,,,,,,,,,,,,,,,,,,,,,,,,,,,,,,,,,,,,,,,,,,,,,,,,,,,,,,,,,,,,,,,,,1.2456,427.2355538,None,None,1,427.2355538,None,,P016,fencog,2,Post,2021_Nov_01_1224,N-Back (New Version 2021),2021.1.4,121.4326133
,,,,Conditions/Version_1/oneback(1)_v1.xlsx,New rule: Press 'space' when you see 1-back (i.e. the same letter as the one that appeared 1 letter ago.),F,space,,,,,,,,,0,1,1,1,0,9,9,9,,,,,,,,,,,,,,,,,,,,,,,,,,,,,,,,,,,,,,,,,,,,,,,,,,,,,,,,,,,,,,,,,,,,,1.3882,430.6328743,None,space,1,430.6328743,None,0.3495542,P016,fencog,2,Post,2021_Nov_01_1224,N-Back (New Version 2021),2021.1.4,121.4326133
,,,,Conditions/Version_1/oneback(1)_v1.xlsx,New rule: Press 'space' when you see 1-back (i.e. the same letter as the one that appeared 1 letter ago.),,,,,,,,,,,0,1,1,1,,,,,,,,,,,,,,,,,,,,,,,,,,,,,,,,,,,,,,,,,,,,,,,,,,,,,,,,,,,,,,,,,,,,,,,,,,,,,,,,,P016,fencog,2,Post,2021_Nov_01_1224,N-Back (New Version 2021),2021.1.4,121.4326133
,,,,Conditions/Version_1/twoback(1)_v1.xlsx,New rule: Press 'space' when you see 2-back (i.e. the same letter as the one that appeared 2 letters ago.),b,None,,,,,,,,,0,2,2,2,0,0,0,0,,,,,,,,,,,,,,,,,,,,,,,,,,,,,,,,,,,,,,,,,,,,,,,,,,,,,,,,,,,432.6649058,None,435.6430813,None,space,0.2588956,435.6430813,None,432.6649058,None,1.8408,437.77359,None,None,1,437.77359,None,,P016,fencog,2,Post,2021_Nov_01_1224,N-Back (New Version 2021),2021.1.4,121.4326133
,,,,Conditions/Version_1/twoback(1)_v1.xlsx,New rule: Press 'space' when you see 2-back (i.e. the same letter as the one that appeared 2 letters ago.),h,None,,,,,,,,,0,2,2,2,0,1,1,1,,,,,,,,,,,,,,,,,,,,,,,,,,,,,,,,,,,,,,,,,,,,,,,,,,,,,,,,,,,,,,,,,,,,,1.3262,441.1071994,None,None,1,441.1071994,None,,P016,fencog,2,Post,2021_Nov_01_1224,N-Back (New Version 2021),2021.1.4,121.4326133
,,,,Conditions/Version_1/twoback(1)_v1.xlsx,New rule: Press 'space' when you see 2-back (i.e. the same letter as the one that appeared 2 letters ago.),j,None,,,,,,,,,0,2,2,2,0,2,2,2,,,,,,,,,,,,,,,,,,,,,,,,,,,,,,,,,,,,,,,,,,,,,,,,,,,,,,,,,,,,,,,,,,,,,1.5928,444.7142291,None,None,1,444.7142291,None,,P016,fencog,2,Post,2021_Nov_01_1224,N-Back (New Version 2021),2021.1.4,121.4326133
,,,,Conditions/Version_1/twoback(1)_v1.xlsx,New rule: Press 'space' when you see 2-back (i.e. the same letter as the one that appeared 2 letters ago.),H,space,,,,,,,,,0,2,2,2,0,3,3,3,,,,,,,,,,,,,,,,,,,,,,,,,,,,,,,,,,,,,,,,,,,,,,,,,,,,,,,,,,,,,,,,,,,,,1.6672,448.3962775,None,space,1,448.3962775,None,0.4737087,P016,fencog,2,Post,2021_Nov_01_1224,N-Back (New Version 2021),2021.1.4,121.4326133
,,,,Conditions/Version_1/twoback(1)_v1.xlsx,New rule: Press 'space' when you see 2-back (i.e. the same letter as the one that appeared 2 letters ago.),p,None,,,,,,,,,0,2,2,2,0,4,4,4,,,,,,,,,,,,,,,,,,,,,,,,,,,,,,,,,,,,,,,,,,,,,,,,,,,,,,,,,,,,,,,,,,,,,1.5432,451.9565235,None,None,1,451.9565235,None,,P016,fencog,2,Post,2021_Nov_01_1224,N-Back (New Version 2021),2021.1.4,121.4326133
,,,,Conditions/Version_1/twoback(1)_v1.xlsx,New rule: Press 'space' when you see 2-back (i.e. the same letter as the one that appeared 2 letters ago.),p,None,,,,,,,,,0,2,2,2,0,5,5,5,,,,,,,,,,,,,,,,,,,,,,,,,,,,,,,,,,,,,,,,,,,,,,,,,,,,,,,,,,,,,,,,,,,,,1.3386,455.3039315,None,space,0,455.3039315,None,0.8141371,P016,fencog,2,Post,2021_Nov_01_1224,N-Back (New Version 2021),2021.1.4,121.4326133
,,,,Conditions/Version_1/twoback(1)_v1.xlsx,New rule: Press 'space' when you see 2-back (i.e. the same letter as the one that appeared 2 letters ago.),w,None,,,,,,,,,0,2,2,2,0,6,6,6,,,,,,,,,,,,,,,,,,,,,,,,,,,,,,,,,,,,,,,,,,,,,,,,,,,,,,,,,,,,,,,,,,,,,1.1526,458.4711489,None,None,1,458.4711489,None,,P016,fencog,2,Post,2021_Nov_01_1224,N-Back (New Version 2021),2021.1.4,121.4326133
,,,,Conditions/Version_1/twoback(1)_v1.xlsx,New rule: Press 'space' when you see 2-back (i.e. the same letter as the one that appeared 2 letters ago.),R,None,,,,,,,,,0,2,2,2,0,7,7,7,,,,,,,,,,,,,,,,,,,,,,,,,,,,,,,,,,,,,,,,,,,,,,,,,,,,,,,,,,,,,,,,,,,,,1.5122,461.9954436,None,None,1,461.9954436,None,,P016,fencog,2,Post,2021_Nov_01_1224,N-Back (New Version 2021),2021.1.4,121.4326133
,,,,Conditions/Version_1/twoback(1)_v1.xlsx,New rule: Press 'space' when you see 2-back (i.e. the same letter as the one that appeared 2 letters ago.),a,None,,,,,,,,,0,2,2,2,0,8,8,8,,,,,,,,,,,,,,,,,,,,,,,,,,,,,,,,,,,,,,,,,,,,,,,,,,,,,,,,,,,,,,,,,,,,,1.6114,465.6210821,None,None,1,465.6210821,None,,P016,fencog,2,Post,2021_Nov_01_1224,N-Back (New Version 2021),2021.1.4,121.4326133
,,,,Conditions/Version_1/twoback(1)_v1.xlsx,New rule: Press 'space' when you see 2-back (i.e. the same letter as the one that appeared 2 letters ago.),r,space,,,,,,,,,0,2,2,2,0,9,9,9,,,,,,,,,,,,,,,,,,,,,,,,,,,,,,,,,,,,,,,,,,,,,,,,,,,,,,,,,,,,,,,,,,,,,1.971,469.5978916,None,space,1,469.5978916,None,0.4247704,P016,fencog,2,Post,2021_Nov_01_1224,N-Back (New Version 2021),2021.1.4,121.4326133
,,,,Conditions/Version_1/twoback(1)_v1.xlsx,New rule: Press 'space' when you see 2-back (i.e. the same letter as the one that appeared 2 letters ago.),,,,,,,,,,,0,2,2,2,,,,,,,,,,,,,,,,,,,,,,,,,,,,,,,,,,,,,,,,,,,,,,,,,,,,,,,,,,,,,,,,,,,,,,,,,,,,,,,,,P016,fencog,2,Post,2021_Nov_01_1224,N-Back (New Version 2021),2021.1.4,121.4326133
,,,,Conditions/Version_1/threeback(1)_v1.xlsx,New rule: Press 'space' when you see 3-back (i.e. the same letter as the one that appeared 3 letters ago.),r,None,,,,,,,,,0,3,3,3,0,0,0,0,,,,,,,,,,,,,,,,,,,,,,,,,,,,,,,,,,,,,,,,,,,,,,,,,,,,,,,,,,,471.6238569,None,474.6067973,None,space,0.2712026,474.6067973,None,471.6238569,None,1.1526,476.0627652,None,None,1,476.0627652,None,,P016,fencog,2,Post,2021_Nov_01_1224,N-Back (New Version 2021),2021.1.4,121.4326133
,,,,Conditions/Version_1/threeback(1)_v1.xlsx,New rule: Press 'space' when you see 3-back (i.e. the same letter as the one that appeared 3 letters ago.),o,None,,,,,,,,,0,3,3,3,0,1,1,1,,,,,,,,,,,,,,,,,,,,,,,,,,,,,,,,,,,,,,,,,,,,,,,,,,,,,,,,,,,,,,,,,,,,,1.2146,479.28662,None,None,1,479.28662,None,,P016,fencog,2,Post,2021_Nov_01_1224,N-Back (New Version 2021),2021.1.4,121.4326133
,,,,Conditions/Version_1/threeback(1)_v1.xlsx,New rule: Press 'space' when you see 3-back (i.e. the same letter as the one that appeared 3 letters ago.),P,None,,,,,,,,,0,3,3,3,0,2,2,2,,,,,,,,,,,,,,,,,,,,,,,,,,,,,,,,,,,,,,,,,,,,,,,,,,,,,,,,,,,,,,,,,,,,,1.475,482.7646409,None,None,1,482.7646409,None,,P016,fencog,2,Post,2021_Nov_01_1224,N-Back (New Version 2021),2021.1.4,121.4326133
,,,,Conditions/Version_1/threeback(1)_v1.xlsx,New rule: Press 'space' when you see 3-back (i.e. the same letter as the one that appeared 3 letters ago.),R,space,,,,,,,,,0,3,3,3,0,3,3,3,,,,,,,,,,,,,,,,,,,,,,,,,,,,,,,,,,,,,,,,,,,,,,,,,,,,,,,,,,,,,,,,,,,,,1.94,486.7095435,None,space,1,486.7095435,None,0.6886509,P016,fencog,2,Post,2021_Nov_01_1224,N-Back (New Version 2021),2021.1.4,121.4326133
,,,,Conditions/Version_1/threeback(1)_v1.xlsx,New rule: Press 'space' when you see 3-back (i.e. the same letter as the one that appeared 3 letters ago.),p,None,,,,,,,,,0,3,3,3,0,4,4,4,,,,,,,,,,,,,,,,,,,,,,,,,,,,,,,,,,,,,,,,,,,,,,,,,,,,,,,,,,,,,,,,,,,,,1.351,490.0667335,None,None,1,490.0667335,None,,P016,fencog,2,Post,2021_Nov_01_1224,N-Back (New Version 2021),2021.1.4,121.4326133
,,,,Conditions/Version_1/threeback(1)_v1.xlsx,New rule: Press 'space' when you see 3-back (i.e. the same letter as the one that appeared 3 letters ago.),E,None,,,,,,,,,0,3,3,3,0,5,5,5,,,,,,,,,,,,,,,,,,,,,,,,,,,,,,,,,,,,,,,,,,,,,,,,,,,,,,,,,,,,,,,,,,,,,1.134,493.2078777,None,None,1,493.2078777,None,,P016,fencog,2,Post,2021_Nov_01_1224,N-Back (New Version 2021),2021.1.4,121.4326133
,,,,Conditions/Version_1/threeback(1)_v1.xlsx,New rule: Press 'space' when you see 3-back (i.e. the same letter as the one that appeared 3 letters ago.),e,None,,,,,,,,,0,3,3,3,0,6,6,6,,,,,,,,,,,,,,,,,,,,,,,,,,,,,,,,,,,,,,,,,,,,,,,,,,,,,,,,,,,,,,,,,,,,,1.8284,497.0491167,None,None,1,497.0491167,None,,P016,fencog,2,Post,2021_Nov_01_1224,N-Back (New Version 2021),2021.1.4,121.4326133
,,,,Conditions/Version_1/threeback(1)_v1.xlsx,New rule: Press 'space' when you see 3-back (i.e. the same letter as the one that appeared 3 letters ago.),m,None,,,,,,,,,0,3,3,3,0,7,7,7,,,,,,,,,,,,,,,,,,,,,,,,,,,,,,,,,,,,,,,,,,,,,,,,,,,,,,,,,,,,,,,,,,,,,1.072,500.1358768,None,None,1,500.1358768,None,,P016,fencog,2,Post,2021_Nov_01_1224,N-Back (New Version 2021),2021.1.4,121.4326133
,,,,Conditions/Version_1/threeback(1)_v1.xlsx,New rule: Press 'space' when you see 3-back (i.e. the same letter as the one that appeared 3 letters ago.),n,None,,,,,,,,,0,3,3,3,0,8,8,8,,,,,,,,,,,,,,,,,,,,,,,,,,,,,,,,,,,,,,,,,,,,,,,,,,,,,,,,,,,,,,,,,,,,,1.9152,504.0562637,None,None,1,504.0562637,None,,P016,fencog,2,Post,2021_Nov_01_1224,N-Back (New Version 2021),2021.1.4,121.4326133
,,,,Conditions/Version_1/threeback(1)_v1.xlsx,New rule: Press 'space' when you see 3-back (i.e. the same letter as the one that appeared 3 letters ago.),e,space,,,,,,,,,0,3,3,3,0,9,9,9,,,,,,,,,,,,,,,,,,,,,,,,,,,,,,,,,,,,,,,,,,,,,,,,,,,,,,,,,,,,,,,,,,,,,1.9338,507.9970075,None,space,1,507.9970075,None,1.1209008,P016,fencog,2,Post,2021_Nov_01_1224,N-Back (New Version 2021),2021.1.4,121.4326133
,,,,Conditions/Version_1/threeback(1)_v1.xlsx,New rule: Press 'space' when you see 3-back (i.e. the same letter as the one that appeared 3 letters ago.),,,,,,,,,,,0,3,3,3,,,,,,,,,,,,,,,,,,,,,,,,,,,,,,,,,,,,,,,,,,,,,,,,,,,,,,,,,,,,,,,,,,,,,,,,,,,,,,,,,P016,fencog,2,Post,2021_Nov_01_1224,N-Back (New Version 2021),2021.1.4,121.4326133
,,,,Conditions/Version_1/oneback(2)_v1.xlsx,New rule: Press 'space' when you see 1-back (i.e. the same letter as the one that appeared 1 letter ago.),q,None,,,,,,,,,0,4,4,4,0,0,0,0,,,,,,,,,,,,,,,,,,,,,,,,,,,,,,,,,,,,,,,,,,,,,,,,,,,,,,,,,,,510.0240668,None,513.0128688,None,space,0.6090297,513.0128688,None,510.0240668,None,1.9462,515.5967612,None,None,1,515.5967612,None,,P016,fencog,2,Post,2021_Nov_01_1224,N-Back (New Version 2021),2021.1.4,121.4326133
,,,,Conditions/Version_1/oneback(2)_v1.xlsx,New rule: Press 'space' when you see 1-back (i.e. the same letter as the one that appeared 1 letter ago.),Q,space,,,,,,,,,0,4,4,4,0,1,1,1,,,,,,,,,,,,,,,,,,,,,,,,,,,,,,,,,,,,,,,,,,,,,,,,,,,,,,,,,,,,,,,,,,,,,1.3696,518.97483,None,space,1,518.97483,None,0.3912555,P016,fencog,2,Post,2021_Nov_01_1224,N-Back (New Version 2021),2021.1.4,121.4326133
,,,,Conditions/Version_1/oneback(2)_v1.xlsx,New rule: Press 'space' when you see 1-back (i.e. the same letter as the one that appeared 1 letter ago.),P,None,,,,,,,,,0,4,4,4,0,2,2,2,,,,,,,,,,,,,,,,,,,,,,,,,,,,,,,,,,,,,,,,,,,,,,,,,,,,,,,,,,,,,,,,,,,,,1.599,522.5736922,None,None,1,522.5736922,None,,P016,fencog,2,Post,2021_Nov_01_1224,N-Back (New Version 2021),2021.1.4,121.4326133
,,,,Conditions/Version_1/oneback(2)_v1.xlsx,New rule: Press 'space' when you see 1-back (i.e. the same letter as the one that appeared 1 letter ago.),o,None,,,,,,,,,0,4,4,4,0,3,3,3,,,,,,,,,,,,,,,,,,,,,,,,,,,,,,,,,,,,,,,,,,,,,,,,,,,,,,,,,,,,,,,,,,,,,1.4936,526.0765162,None,None,1,526.0765162,None,,P016,fencog,2,Post,2021_Nov_01_1224,N-Back (New Version 2021),2021.1.4,121.4326133
,,,,Conditions/Version_1/oneback(2)_v1.xlsx,New rule: Press 'space' when you see 1-back (i.e. the same letter as the one that appeared 1 letter ago.),m,None,,,,,,,,,0,4,4,4,0,4,4,4,,,,,,,,,,,,,,,,,,,,,,,,,,,,,,,,,,,,,,,,,,,,,,,,,,,,,,,,,,,,,,,,,,,,,1.258,529.3384547,None,None,1,529.3384547,None,,P016,fencog,2,Post,2021_Nov_01_1224,N-Back (New Version 2021),2021.1.4,121.4326133
,,,,Conditions/Version_1/oneback(2)_v1.xlsx,New rule: Press 'space' when you see 1-back (i.e. the same letter as the one that appeared 1 letter ago.),Z,None,,,,,,,,,0,4,4,4,0,5,5,5,,,,,,,,,,,,,,,,,,,,,,,,,,,,,,,,,,,,,,,,,,,,,,,,,,,,,,,,,,,,,,,,,,,,,1.7168,533.0565203,None,None,1,533.0565203,None,,P016,fencog,2,Post,2021_Nov_01_1224,N-Back (New Version 2021),2021.1.4,121.4326133
,,,,Conditions/Version_1/oneback(2)_v1.xlsx,New rule: Press 'space' when you see 1-back (i.e. the same letter as the one that appeared 1 letter ago.),c,None,,,,,,,,,0,4,4,4,0,6,6,6,,,,,,,,,,,,,,,,,,,,,,,,,,,,,,,,,,,,,,,,,,,,,,,,,,,,,,,,,,,,,,,,,,,,,1.4812,536.5462919,None,None,1,536.5462919,None,,P016,fencog,2,Post,2021_Nov_01_1224,N-Back (New Version 2021),2021.1.4,121.4326133
,,,,Conditions/Version_1/oneback(2)_v1.xlsx,New rule: Press 'space' when you see 1-back (i.e. the same letter as the one that appeared 1 letter ago.),c,space,,,,,,,,,0,4,4,4,0,7,7,7,,,,,,,,,,,,,,,,,,,,,,,,,,,,,,,,,,,,,,,,,,,,,,,,,,,,,,,,,,,,,,,,,,,,,1.103,539.6605945,None,space,1,539.6605945,None,0.705144,P016,fencog,2,Post,2021_Nov_01_1224,N-Back (New Version 2021),2021.1.4,121.4326133
,,,,Conditions/Version_1/oneback(2)_v1.xlsx,New rule: Press 'space' when you see 1-back (i.e. the same letter as the one that appeared 1 letter ago.),P,None,,,,,,,,,0,4,4,4,0,8,8,8,,,,,,,,,,,,,,,,,,,,,,,,,,,,,,,,,,,,,,,,,,,,,,,,,,,,,,,,,,,,,,,,,,,,,1.1402,542.8095291,None,None,1,542.8095291,None,,P016,fencog,2,Post,2021_Nov_01_1224,N-Back (New Version 2021),2021.1.4,121.4326133
,,,,Conditions/Version_1/oneback(2)_v1.xlsx,New rule: Press 'space' when you see 1-back (i.e. the same letter as the one that appeared 1 letter ago.),p,space,,,,,,,,,0,4,4,4,0,9,9,9,,,,,,,,,,,,,,,,,,,,,,,,,,,,,,,,,,,,,,,,,,,,,,,,,,,,,,,,,,,,,,,,,,,,,1.9896,546.8034119,None,space,1,546.8034119,None,0.3303745,P016,fencog,2,Post,2021_Nov_01_1224,N-Back (New Version 2021),2021.1.4,121.4326133
,,,,Conditions/Version_1/oneback(2)_v1.xlsx,New rule: Press 'space' when you see 1-back (i.e. the same letter as the one that appeared 1 letter ago.),,,,,,,,,,,0,4,4,4,,,,,,,,,,,,,,,,,,,,,,,,,,,,,,,,,,,,,,,,,,,,,,,,,,,,,,,,,,,,,,,,,,,,,,,,,,,,,,,,,P016,fencog,2,Post,2021_Nov_01_1224,N-Back (New Version 2021),2021.1.4,121.4326133
,,,,Conditions/Version_1/zeroback(2)_v1.xlsx,New rule: Press 'space' when you see the letter 'x' or 'X'.,p,None,,,,,,,,,0,5,5,5,0,0,0,0,,,,,,,,,,,,,,,,,,,,,,,,,,,,,,,,,,,,,,,,,,,,,,,,,,,,,,,,,,,548.8255147,None,551.80885,None,space,3.0049994,551.80885,None,548.8255147,None,1.227,556.0723482,None,None,1,556.0723482,None,,P016,fencog,2,Post,2021_Nov_01_1224,N-Back (New Version 2021),2021.1.4,121.4326133
,,,,Conditions/Version_1/zeroback(2)_v1.xlsx,New rule: Press 'space' when you see the letter 'x' or 'X'.,L,None,,,,,,,,,0,5,5,5,0,1,1,1,,,,,,,,,,,,,,,,,,,,,,,,,,,,,,,,,,,,,,,,,,,,,,,,,,,,,,,,,,,,,,,,,,,,,1.9028,559.9821368,None,None,1,559.9821368,None,,P016,fencog,2,Post,2021_Nov_01_1224,N-Back (New Version 2021),2021.1.4,121.4326133
,,,,Conditions/Version_1/zeroback(2)_v1.xlsx,New rule: Press 'space' when you see the letter 'x' or 'X'.,G,None,,,,,,,,,0,5,5,5,0,2,2,2,,,,,,,,,,,,,,,,,,,,,,,,,,,,,,,,,,,,,,,,,,,,,,,,,,,,,,,,,,,,,,,,,,,,,1.94,563.9407742,None,None,1,563.9407742,None,,P016,fencog,2,Post,2021_Nov_01_1224,N-Back (New Version 2021),2021.1.4,121.4326133
,,,,Conditions/Version_1/zeroback(2)_v1.xlsx,New rule: Press 'space' when you see the letter 'x' or 'X'.,y,None,,,,,,,,,0,5,5,5,0,3,3,3,,,,,,,,,,,,,,,,,,,,,,,,,,,,,,,,,,,,,,,,,,,,,,,,,,,,,,,,,,,,,,,,,,,,,1.7354,567.6774008,None,None,1,567.6774008,None,,P016,fencog,2,Post,2021_Nov_01_1224,N-Back (New Version 2021),2021.1.4,121.4326133
,,,,Conditions/Version_1/zeroback(2)_v1.xlsx,New rule: Press 'space' when you see the letter 'x' or 'X'.,Y,None,,,,,,,,,0,5,5,5,0,4,4,4,,,,,,,,,,,,,,,,,,,,,,,,,,,,,,,,,,,,,,,,,,,,,,,,,,,,,,,,,,,,,,,,,,,,,1.9958,571.6771452,None,None,1,571.6771452,None,,P016,fencog,2,Post,2021_Nov_01_1224,N-Back (New Version 2021),2021.1.4,121.4326133
,,,,Conditions/Version_1/zeroback(2)_v1.xlsx,New rule: Press 'space' when you see the letter 'x' or 'X'.,W,None,,,,,,,,,0,5,5,5,0,5,5,5,,,,,,,,,,,,,,,,,,,,,,,,,,,,,,,,,,,,,,,,,,,,,,,,,,,,,,,,,,,,,,,,,,,,,1.3138,575.0042501,None,None,1,575.0042501,None,,P016,fencog,2,Post,2021_Nov_01_1224,N-Back (New Version 2021),2021.1.4,121.4326133
,,,,Conditions/Version_1/zeroback(2)_v1.xlsx,New rule: Press 'space' when you see the letter 'x' or 'X'.,x,space,,,,,,,,,0,5,5,5,0,6,6,6,,,,,,,,,,,,,,,,,,,,,,,,,,,,,,,,,,,,,,,,,,,,,,,,,,,,,,,,,,,,,,,,,,,,,1.3882,578.3992918,None,space,1,578.3992918,None,0.4311313,P016,fencog,2,Post,2021_Nov_01_1224,N-Back (New Version 2021),2021.1.4,121.4326133
,,,,Conditions/Version_1/zeroback(2)_v1.xlsx,New rule: Press 'space' when you see the letter 'x' or 'X'.,X,space,,,,,,,,,0,5,5,5,0,7,7,7,,,,,,,,,,,,,,,,,,,,,,,,,,,,,,,,,,,,,,,,,,,,,,,,,,,,,,,,,,,,,,,,,,,,,1.2208,581.6257837,None,space,1,581.6257837,None,0.4441707,P016,fencog,2,Post,2021_Nov_01_1224,N-Back (New Version 2021),2021.1.4,121.4326133
,,,,Conditions/Version_1/zeroback(2)_v1.xlsx,New rule: Press 'space' when you see the letter 'x' or 'X'.,p,None,,,,,,,,,0,5,5,5,0,8,8,8,,,,,,,,,,,,,,,,,,,,,,,,,,,,,,,,,,,,,,,,,,,,,,,,,,,,,,,,,,,,,,,,,,,,,1.4626,585.0970288,None,None,1,585.0970288,None,,P016,fencog,2,Post,2021_Nov_01_1224,N-Back (New Version 2021),2021.1.4,121.4326133
,,,,Conditions/Version_1/zeroback(2)_v1.xlsx,New rule: Press 'space' when you see the letter 'x' or 'X'.,h,None,,,,,,,,,0,5,5,5,0,9,9,9,,,,,,,,,,,,,,,,,,,,,,,,,,,,,,,,,,,,,,,,,,,,,,,,,,,,,,,,,,,,,,,,,,,,,1.7912,588.8876463,None,None,1,588.8876463,None,,P016,fencog,2,Post,2021_Nov_01_1224,N-Back (New Version 2021),2021.1.4,121.4326133
,,,,Conditions/Version_1/zeroback(2)_v1.xlsx,New rule: Press 'space' when you see the letter 'x' or 'X'.,,,,,,,,,,,0,5,5,5,,,,,,,,,,,,,,,,,,,,,,,,,,,,,,,,,,,,,,,,,,,,,,,,,,,,,,,,,,,,,,,,,,,,,,,,,,,,,,,,,P016,fencog,2,Post,2021_Nov_01_1224,N-Back (New Version 2021),2021.1.4,121.4326133
,,,,Conditions/Version_1/threeback(2)_v1.xlsx,New rule: Press 'space' when you see 3-back (i.e. the same letter as the one that appeared 3 letters ago.),q,None,,,,,,,,,0,6,6,6,0,0,0,0,,,,,,,,,,,,,,,,,,,,,,,,,,,,,,,,,,,,,,,,,,,,,,,,,,,,,,,,,,,590.9122554,None,593.8964177,None,space,12.7495057,593.8964177,None,590.9122554,None,1.4812,608.1568455,None,None,1,608.1568455,None,,P016,fencog,2,Post,2021_Nov_01_1224,N-Back (New Version 2021),2021.1.4,121.4326133
,,,,Conditions/Version_1/threeback(2)_v1.xlsx,New rule: Press 'space' when you see 3-back (i.e. the same letter as the one that appeared 3 letters ago.),Y,None,,,,,,,,,0,6,6,6,0,1,1,1,,,,,,,,,,,,,,,,,,,,,,,,,,,,,,,,,,,,,,,,,,,,,,,,,,,,,,,,,,,,,,,,,,,,,1.6796,611.8390705,None,None,1,611.8390705,None,,P016,fencog,2,Post,2021_Nov_01_1224,N-Back (New Version 2021),2021.1.4,121.4326133
,,,,Conditions/Version_1/threeback(2)_v1.xlsx,New rule: Press 'space' when you see 3-back (i.e. the same letter as the one that appeared 3 letters ago.),p,None,,,,,,,,,0,6,6,6,0,2,2,2,,,,,,,,,,,,,,,,,,,,,,,,,,,,,,,,,,,,,,,,,,,,,,,,,,,,,,,,,,,,,,,,,,,,,1.661,615.5045773,None,None,1,615.5045773,None,,P016,fencog,2,Post,2021_Nov_01_1224,N-Back (New Version 2021),2021.1.4,121.4326133
,,,,Conditions/Version_1/threeback(2)_v1.xlsx,New rule: Press 'space' when you see 3-back (i.e. the same letter as the one that appeared 3 letters ago.),p,None,,,,,,,,,0,6,6,6,0,3,3,3,,,,,,,,,,,,,,,,,,,,,,,,,,,,,,,,,,,,,,,,,,,,,,,,,,,,,,,,,,,,,,,,,,,,,1.1712,618.6786237,None,None,1,618.6786237,None,,P016,fencog,2,Post,2021_Nov_01_1224,N-Back (New Version 2021),2021.1.4,121.4326133
,,,,Conditions/Version_1/threeback(2)_v1.xlsx,New rule: Press 'space' when you see 3-back (i.e. the same letter as the one that appeared 3 letters ago.),y,space,,,,,,,,,0,6,6,6,0,4,4,4,,,,,,,,,,,,,,,,,,,,,,,,,,,,,,,,,,,,,,,,,,,,,,,,,,,,,,,,,,,,,,,,,,,,,1.5246,622.2036677,None,space,1,622.2036677,None,1.5543344,P016,fencog,2,Post,2021_Nov_01_1224,N-Back (New Version 2021),2021.1.4,121.4326133
,,,,Conditions/Version_1/threeback(2)_v1.xlsx,New rule: Press 'space' when you see 3-back (i.e. the same letter as the one that appeared 3 letters ago.),u,None,,,,,,,,,0,6,6,6,0,5,5,5,,,,,,,,,,,,,,,,,,,,,,,,,,,,,,,,,,,,,,,,,,,,,,,,,,,,,,,,,,,,,,,,,,,,,1.5308,625.7433003,None,None,1,625.7433003,None,,P016,fencog,2,Post,2021_Nov_01_1224,N-Back (New Version 2021),2021.1.4,121.4326133
,,,,Conditions/Version_1/threeback(2)_v1.xlsx,New rule: Press 'space' when you see 3-back (i.e. the same letter as the one that appeared 3 letters ago.),P,space,,,,,,,,,0,6,6,6,0,6,6,6,,,,,,,,,,,,,,,,,,,,,,,,,,,,,,,,,,,,,,,,,,,,,,,,,,,,,,,,,,,,,,,,,,,,,1.103,628.8511706,None,space,1,628.8511706,None,1.5705647,P016,fencog,2,Post,2021_Nov_01_1224,N-Back (New Version 2021),2021.1.4,121.4326133
,,,,Conditions/Version_1/threeback(2)_v1.xlsx,New rule: Press 'space' when you see 3-back (i.e. the same letter as the one that appeared 3 letters ago.),a,None,,,,,,,,,0,6,6,6,0,7,7,7,,,,,,,,,,,,,,,,,,,,,,,,,,,,,,,,,,,,,,,,,,,,,,,,,,,,,,,,,,,,,,,,,,,,,1.7788,632.6423362,None,None,1,632.6423362,None,,P016,fencog,2,Post,2021_Nov_01_1224,N-Back (New Version 2021),2021.1.4,121.4326133
,,,,Conditions/Version_1/threeback(2)_v1.xlsx,New rule: Press 'space' when you see 3-back (i.e. the same letter as the one that appeared 3 letters ago.),U,space,,,,,,,,,0,6,6,6,0,8,8,8,,,,,,,,,,,,,,,,,,,,,,,,,,,,,,,,,,,,,,,,,,,,,,,,,,,,,,,,,,,,,,,,,,,,,1.0782,635.7334588,None,None,0,635.7334588,None,,P016,fencog,2,Post,2021_Nov_01_1224,N-Back (New Version 2021),2021.1.4,121.4326133
,,,,Conditions/Version_1/threeback(2)_v1.xlsx,New rule: Press 'space' when you see 3-back (i.e. the same letter as the one that appeared 3 letters ago.),q,None,,,,,,,,,0,6,6,6,0,9,9,9,,,,,,,,,,,,,,,,,,,,,,,,,,,,,,,,,,,,,,,,,,,,,,,,,,,,,,,,,,,,,,,,,,,,,1.9524,639.6974126,None,None,1,639.6974126,None,,P016,fencog,2,Post,2021_Nov_01_1224,N-Back (New Version 2021),2021.1.4,121.4326133
,,,,Conditions/Version_1/threeback(2)_v1.xlsx,New rule: Press 'space' when you see 3-back (i.e. the same letter as the one that appeared 3 letters ago.),,,,,,,,,,,0,6,6,6,,,,,,,,,,,,,,,,,,,,,,,,,,,,,,,,,,,,,,,,,,,,,,,,,,,,,,,,,,,,,,,,,,,,,,,,,,,,,,,,,P016,fencog,2,Post,2021_Nov_01_1224,N-Back (New Version 2021),2021.1.4,121.4326133
,,,,Conditions/Version_1/twoback(2)_v1.xlsx,New rule: Press 'space' when you see 2-back (i.e. the same letter as the one that appeared 2 letters ago.),q,None,,,,,,,,,0,7,7,7,0,0,0,0,,,,,,,,,,,,,,,,,,,,,,,,,,,,,,,,,,,,,,,,,,,,,,,,,,,,,,,,,,,641.719403,None,644.7062075,None,space,2.6513988,644.7062075,None,641.719403,None,1.6734,649.0610565,None,None,1,649.0610565,None,,P016,fencog,2,Post,2021_Nov_01_1224,N-Back (New Version 2021),2021.1.4,121.4326133
,,,,Conditions/Version_1/twoback(2)_v1.xlsx,New rule: Press 'space' when you see 2-back (i.e. the same letter as the one that appeared 2 letters ago.),r,None,,,,,,,,,0,7,7,7,0,1,1,1,,,,,,,,,,,,,,,,,,,,,,,,,,,,,,,,,,,,,,,,,,,,,,,,,,,,,,,,,,,,,,,,,,,,,1.4192,652.4850576,None,None,1,652.4850576,None,,P016,fencog,2,Post,2021_Nov_01_1224,N-Back (New Version 2021),2021.1.4,121.4326133
,,,,Conditions/Version_1/twoback(2)_v1.xlsx,New rule: Press 'space' when you see 2-back (i.e. the same letter as the one that appeared 2 letters ago.),q,space,,,,,,,,,0,7,7,7,0,2,2,2,,,,,,,,,,,,,,,,,,,,,,,,,,,,,,,,,,,,,,,,,,,,,,,,,,,,,,,,,,,,,,,,,,,,,1.0534,655.5424869,None,space,1,655.5424869,None,0.4151459,P016,fencog,2,Post,2021_Nov_01_1224,N-Back (New Version 2021),2021.1.4,121.4326133
,,,,Conditions/Version_1/twoback(2)_v1.xlsx,New rule: Press 'space' when you see 2-back (i.e. the same letter as the one that appeared 2 letters ago.),P,None,,,,,,,,,0,7,7,7,0,3,3,3,,,,,,,,,,,,,,,,,,,,,,,,,,,,,,,,,,,,,,,,,,,,,,,,,,,,,,,,,,,,,,,,,,,,,1.3014,658.8498379,None,None,1,658.8498379,None,,P016,fencog,2,Post,2021_Nov_01_1224,N-Back (New Version 2021),2021.1.4,121.4326133
,,,,Conditions/Version_1/twoback(2)_v1.xlsx,New rule: Press 'space' when you see 2-back (i.e. the same letter as the one that appeared 2 letters ago.),p,None,,,,,,,,,0,7,7,7,0,4,4,4,,,,,,,,,,,,,,,,,,,,,,,,,,,,,,,,,,,,,,,,,,,,,,,,,,,,,,,,,,,,,,,,,,,,,1.3944,662.2488927,None,None,1,662.2488927,None,,P016,fencog,2,Post,2021_Nov_01_1224,N-Back (New Version 2021),2021.1.4,121.4326133
,,,,Conditions/Version_1/twoback(2)_v1.xlsx,New rule: Press 'space' when you see 2-back (i.e. the same letter as the one that appeared 2 letters ago.),H,None,,,,,,,,,0,7,7,7,0,5,5,5,,,,,,,,,,,,,,,,,,,,,,,,,,,,,,,,,,,,,,,,,,,,,,,,,,,,,,,,,,,,,,,,,,,,,1.0658,665.3145897,None,None,1,665.3145897,None,,P016,fencog,2,Post,2021_Nov_01_1224,N-Back (New Version 2021),2021.1.4,121.4326133
,,,,Conditions/Version_1/twoback(2)_v1.xlsx,New rule: Press 'space' when you see 2-back (i.e. the same letter as the one that appeared 2 letters ago.),g,None,,,,,,,,,0,7,7,7,0,6,6,6,,,,,,,,,,,,,,,,,,,,,,,,,,,,,,,,,,,,,,,,,,,,,,,,,,,,,,,,,,,,,,,,,,,,,1.94,669.2552252,None,None,1,669.2552252,None,,P016,fencog,2,Post,2021_Nov_01_1224,N-Back (New Version 2021),2021.1.4,121.4326133
,,,,Conditions/Version_1/twoback(2)_v1.xlsx,New rule: Press 'space' when you see 2-back (i.e. the same letter as the one that appeared 2 letters ago.),j,None,,,,,,,,,0,7,7,7,0,7,7,7,,,,,,,,,,,,,,,,,,,,,,,,,,,,,,,,,,,,,,,,,,,,,,,,,,,,,,,,,,,,,,,,,,,,,1.568,672.8290324,None,None,1,672.8290324,None,,P016,fencog,2,Post,2021_Nov_01_1224,N-Back (New Version 2021),2021.1.4,121.4326133
,,,,Conditions/Version_1/twoback(2)_v1.xlsx,New rule: Press 'space' when you see 2-back (i.e. the same letter as the one that appeared 2 letters ago.),g,space,,,,,,,,,0,7,7,7,0,8,8,8,,,,,,,,,,,,,,,,,,,,,,,,,,,,,,,,,,,,,,,,,,,,,,,,,,,,,,,,,,,,,,,,,,,,,1.6548,676.4995522,None,space,1,676.4995522,None,0.4822643,P016,fencog,2,Post,2021_Nov_01_1224,N-Back (New Version 2021),2021.1.4,121.4326133
,,,,Conditions/Version_1/twoback(2)_v1.xlsx,New rule: Press 'space' when you see 2-back (i.e. the same letter as the one that appeared 2 letters ago.),G,None,,,,,,,,,0,7,7,7,0,9,9,9,,,,,,,,,,,,,,,,,,,,,,,,,,,,,,,,,,,,,,,,,,,,,,,,,,,,,,,,,,,,,,,,,,,,,1.1464,679.6522296,None,None,1,679.6522296,None,,P016,fencog,2,Post,2021_Nov_01_1224,N-Back (New Version 2021),2021.1.4,121.4326133
,,,,Conditions/Version_1/twoback(2)_v1.xlsx,New rule: Press 'space' when you see 2-back (i.e. the same letter as the one that appeared 2 letters ago.),,,,,,,,,,,0,7,7,7,,,,,,,,,,,,,,,,,,,,,,,,,,,,,,,,,,,,,,,,,,,,,,,,,,,,,,,,,,,,,,,,,,,,,,,,,,,,,,,,,P016,fencog,2,Post,2021_Nov_01_1224,N-Back (New Version 2021),2021.1.4,121.4326133
,,,,Conditions/Version_1/threeback(3)_v1.xlsx,New rule: Press 'space' when you see 3-back (i.e. the same letter as the one that appeared 3 letters ago.),w,None,,,,,,,,,0,8,8,8,0,0,0,0,,,,,,,,,,,,,,,,,,,,,,,,,,,,,,,,,,,,,,,,,,,,,,,,,,,,,,,,,,,681.6772333,None,684.6603524,None,space,3.9932714,684.6603524,None,681.6772333,None,1.7912,690.4741934,None,None,1,690.4741934,None,,P016,fencog,2,Post,2021_Nov_01_1224,N-Back (New Version 2021),2021.1.4,121.4326133
,,,,Conditions/Version_1/threeback(3)_v1.xlsx,New rule: Press 'space' when you see 3-back (i.e. the same letter as the one that appeared 3 letters ago.),p,None,,,,,,,,,0,8,8,8,0,1,1,1,,,,,,,,,,,,,,,,,,,,,,,,,,,,,,,,,,,,,,,,,,,,,,,,,,,,,,,,,,,,,,,,,,,,,1.4316,693.9146693,None,None,1,693.9146693,None,,P016,fencog,2,Post,2021_Nov_01_1224,N-Back (New Version 2021),2021.1.4,121.4326133
,,,,Conditions/Version_1/threeback(3)_v1.xlsx,New rule: Press 'space' when you see 3-back (i.e. the same letter as the one that appeared 3 letters ago.),P,None,,,,,,,,,0,8,8,8,0,2,2,2,,,,,,,,,,,,,,,,,,,,,,,,,,,,,,,,,,,,,,,,,,,,,,,,,,,,,,,,,,,,,,,,,,,,,1.3882,697.3058096,None,None,1,697.3058096,None,,P016,fencog,2,Post,2021_Nov_01_1224,N-Back (New Version 2021),2021.1.4,121.4326133
,,,,Conditions/Version_1/threeback(3)_v1.xlsx,New rule: Press 'space' when you see 3-back (i.e. the same letter as the one that appeared 3 letters ago.),i,None,,,,,,,,,0,8,8,8,0,3,3,3,,,,,,,,,,,,,,,,,,,,,,,,,,,,,,,,,,,,,,,,,,,,,,,,,,,,,,,,,,,,,,,,,,,,,1.8408,701.1541807,None,None,1,701.1541807,None,,P016,fencog,2,Post,2021_Nov_01_1224,N-Back (New Version 2021),2021.1.4,121.4326133
,,,,Conditions/Version_1/threeback(3)_v1.xlsx,New rule: Press 'space' when you see 3-back (i.e. the same letter as the one that appeared 3 letters ago.),f,None,,,,,,,,,0,8,8,8,0,4,4,4,,,,,,,,,,,,,,,,,,,,,,,,,,,,,,,,,,,,,,,,,,,,,,,,,,,,,,,,,,,,,,,,,,,,,1.537,704.6980815,None,None,1,704.6980815,None,,P016,fencog,2,Post,2021_Nov_01_1224,N-Back (New Version 2021),2021.1.4,121.4326133
,,,,Conditions/Version_1/threeback(3)_v1.xlsx,New rule: Press 'space' when you see 3-back (i.e. the same letter as the one that appeared 3 letters ago.),o,None,,,,,,,,,0,8,8,8,0,5,5,5,,,,,,,,,,,,,,,,,,,,,,,,,,,,,,,,,,,,,,,,,,,,,,,,,,,,,,,,,,,,,,,,,,,,,1.9524,708.6604394,None,None,1,708.6604394,None,,P016,fencog,2,Post,2021_Nov_01_1224,N-Back (New Version 2021),2021.1.4,121.4326133
,,,,Conditions/Version_1/threeback(3)_v1.xlsx,New rule: Press 'space' when you see 3-back (i.e. the same letter as the one that appeared 3 letters ago.),w,None,,,,,,,,,0,8,8,8,0,6,6,6,,,,,,,,,,,,,,,,,,,,,,,,,,,,,,,,,,,,,,,,,,,,,,,,,,,,,,,,,,,,,,,,,,,,,1.63,712.2930757,None,None,1,712.2930757,None,,P016,fencog,2,Post,2021_Nov_01_1224,N-Back (New Version 2021),2021.1.4,121.4326133
,,,,Conditions/Version_1/threeback(3)_v1.xlsx,New rule: Press 'space' when you see 3-back (i.e. the same letter as the one that appeared 3 letters ago.),F,space,,,,,,,,,0,8,8,8,0,7,7,7,,,,,,,,,,,,,,,,,,,,,,,,,,,,,,,,,,,,,,,,,,,,,,,,,,,,,,,,,,,,,,,,,,,,,1.8284,716.1270811,None,space,1,716.1270811,None,0.3431019,P016,fencog,2,Post,2021_Nov_01_1224,N-Back (New Version 2021),2021.1.4,121.4326133
,,,,Conditions/Version_1/threeback(3)_v1.xlsx,New rule: Press 'space' when you see 3-back (i.e. the same letter as the one that appeared 3 letters ago.),p,None,,,,,,,,,0,8,8,8,0,8,8,8,,,,,,,,,,,,,,,,,,,,,,,,,,,,,,,,,,,,,,,,,,,,,,,,,,,,,,,,,,,,,,,,,,,,,1.0658,719.1989058,None,None,1,719.1989058,None,,P016,fencog,2,Post,2021_Nov_01_1224,N-Back (New Version 2021),2021.1.4,121.4326133
,,,,Conditions/Version_1/threeback(3)_v1.xlsx,New rule: Press 'space' when you see 3-back (i.e. the same letter as the one that appeared 3 letters ago.),W,space,,,,,,,,,0,8,8,8,0,9,9,9,,,,,,,,,,,,,,,,,,,,,,,,,,,,,,,,,,,,,,,,,,,,,,,,,,,,,,,,,,,,,,,,,,,,,1.5742,722.7805991,None,space,1,722.7805991,None,0.6817317,P016,fencog,2,Post,2021_Nov_01_1224,N-Back (New Version 2021),2021.1.4,121.4326133
,,,,Conditions/Version_1/threeback(3)_v1.xlsx,New rule: Press 'space' when you see 3-back (i.e. the same letter as the one that appeared 3 letters ago.),,,,,,,,,,,0,8,8,8,,,,,,,,,,,,,,,,,,,,,,,,,,,,,,,,,,,,,,,,,,,,,,,,,,,,,,,,,,,,,,,,,,,,,,,,,,,,,,,,,P016,fencog,2,Post,2021_Nov_01_1224,N-Back (New Version 2021),2021.1.4,121.4326133
,,,,Conditions/Version_1/zeroback(3)_v1.xlsx,New rule: Press 'space' when you see the letter 'x' or 'X'.,X,space,,,,,,,,,0,9,9,9,0,0,0,0,,,,,,,,,,,,,,,,,,,,,,,,,,,,,,,,,,,,,,,,,,,,,,,,,,,,,,,,,,,724.8004073,None,727.7817675,None,space,0.2877055,727.7817675,None,724.8004073,None,1.351,729.457667,None,space,1,729.457667,None,0.6521684,P016,fencog,2,Post,2021_Nov_01_1224,N-Back (New Version 2021),2021.1.4,121.4326133
,,,,Conditions/Version_1/zeroback(3)_v1.xlsx,New rule: Press 'space' when you see the letter 'x' or 'X'.,B,None,,,,,,,,,0,9,9,9,0,1,1,1,,,,,,,,,,,,,,,,,,,,,,,,,,,,,,,,,,,,,,,,,,,,,,,,,,,,,,,,,,,,,,,,,,,,,1.8346,733.3135568,None,None,1,733.3135568,None,,P016,fencog,2,Post,2021_Nov_01_1224,N-Back (New Version 2021),2021.1.4,121.4326133
,,,,Conditions/Version_1/zeroback(3)_v1.xlsx,New rule: Press 'space' when you see the letter 'x' or 'X'.,m,None,,,,,,,,,0,9,9,9,0,2,2,2,,,,,,,,,,,,,,,,,,,,,,,,,,,,,,,,,,,,,,,,,,,,,,,,,,,,,,,,,,,,,,,,,,,,,1.072,736.3854688,None,None,1,736.3854688,None,,P016,fencog,2,Post,2021_Nov_01_1224,N-Back (New Version 2021),2021.1.4,121.4326133
,,,,Conditions/Version_1/zeroback(3)_v1.xlsx,New rule: Press 'space' when you see the letter 'x' or 'X'.,m,None,,,,,,,,,0,9,9,9,0,3,3,3,,,,,,,,,,,,,,,,,,,,,,,,,,,,,,,,,,,,,,,,,,,,,,,,,,,,,,,,,,,,,,,,,,,,,1.9958,740.3844912,None,None,1,740.3844912,None,,P016,fencog,2,Post,2021_Nov_01_1224,N-Back (New Version 2021),2021.1.4,121.4326133
,,,,Conditions/Version_1/zeroback(3)_v1.xlsx,New rule: Press 'space' when you see the letter 'x' or 'X'.,o,None,,,,,,,,,0,9,9,9,0,4,4,4,,,,,,,,,,,,,,,,,,,,,,,,,,,,,,,,,,,,,,,,,,,,,,,,,,,,,,,,,,,,,,,,,,,,,1.7602,744.1497994,None,None,1,744.1497994,None,,P016,fencog,2,Post,2021_Nov_01_1224,N-Back (New Version 2021),2021.1.4,121.4326133
,,,,Conditions/Version_1/zeroback(3)_v1.xlsx,New rule: Press 'space' when you see the letter 'x' or 'X'.,p,None,,,,,,,,,0,9,9,9,0,5,5,5,,,,,,,,,,,,,,,,,,,,,,,,,,,,,,,,,,,,,,,,,,,,,,,,,,,,,,,,,,,,,,,,,,,,,1.3138,747.4682724,None,None,1,747.4682724,None,,P016,fencog,2,Post,2021_Nov_01_1224,N-Back (New Version 2021),2021.1.4,121.4326133
,,,,Conditions/Version_1/zeroback(3)_v1.xlsx,New rule: Press 'space' when you see the letter 'x' or 'X'.,G,None,,,,,,,,,0,9,9,9,0,6,6,6,,,,,,,,,,,,,,,,,,,,,,,,,,,,,,,,,,,,,,,,,,,,,,,,,,,,,,,,,,,,,,,,,,,,,1.289,750.7666096,None,None,1,750.7666096,None,,P016,fencog,2,Post,2021_Nov_01_1224,N-Back (New Version 2021),2021.1.4,121.4326133
,,,,Conditions/Version_1/zeroback(3)_v1.xlsx,New rule: Press 'space' when you see the letter 'x' or 'X'.,X,space,,,,,,,,,0,9,9,9,0,7,7,7,,,,,,,,,,,,,,,,,,,,,,,,,,,,,,,,,,,,,,,,,,,,,,,,,,,,,,,,,,,,,,,,,,,,,1.5494,754.3302805,None,space,1,754.3302805,None,0.4114229,P016,fencog,2,Post,2021_Nov_01_1224,N-Back (New Version 2021),2021.1.4,121.4326133
,,,,Conditions/Version_1/zeroback(3)_v1.xlsx,New rule: Press 'space' when you see the letter 'x' or 'X'.,p,None,,,,,,,,,0,9,9,9,0,8,8,8,,,,,,,,,,,,,,,,,,,,,,,,,,,,,,,,,,,,,,,,,,,,,,,,,,,,,,,,,,,,,,,,,,,,,1.8842,758.2205814,None,None,1,758.2205814,None,,P016,fencog,2,Post,2021_Nov_01_1224,N-Back (New Version 2021),2021.1.4,121.4326133
,,,,Conditions/Version_1/zeroback(3)_v1.xlsx,New rule: Press 'space' when you see the letter 'x' or 'X'.,x,space,,,,,,,,,0,9,9,9,0,9,9,9,,,,,,,,,,,,,,,,,,,,,,,,,,,,,,,,,,,,,,,,,,,,,,,,,,,,,,,,,,,,,,,,,,,,,1.7354,761.9649604,None,space,1,761.9649604,None,0.5049622,P016,fencog,2,Post,2021_Nov_01_1224,N-Back (New Version 2021),2021.1.4,121.4326133
,,,,Conditions/Version_1/zeroback(3)_v1.xlsx,New rule: Press 'space' when you see the letter 'x' or 'X'.,,,,,,,,,,,0,9,9,9,,,,,,,,,,,,,,,,,,,,,,,,,,,,,,,,,,,,,,,,,,,,,,,,,,,,,,,,,,,,,,,,,,,,,,,,,,,,,,,,,P016,fencog,2,Post,2021_Nov_01_1224,N-Back (New Version 2021),2021.1.4,121.4326133
,,,,Conditions/Version_1/twoback(3)_v1.xlsx,New rule: Press 'space' when you see 2-back (i.e. the same letter as the one that appeared 2 letters ago.),e,None,,,,,,,,,0,10,10,10,0,0,0,0,,,,,,,,,,,,,,,,,,,,,,,,,,,,,,,,,,,,,,,,,,,,,,,,,,,,,,,,,,,763.992951,None,766.9787946,None,space,1.4826893,766.9787946,None,763.992951,None,1.2642,769.7683661,None,None,1,769.7683661,None,,P016,fencog,2,Post,2021_Nov_01_1224,N-Back (New Version 2021),2021.1.4,121.4326133
,,,,Conditions/Version_1/twoback(3)_v1.xlsx,New rule: Press 'space' when you see 2-back (i.e. the same letter as the one that appeared 2 letters ago.),o,None,,,,,,,,,0,10,10,10,0,1,1,1,,,,,,,,,,,,,,,,,,,,,,,,,,,,,,,,,,,,,,,,,,,,,,,,,,,,,,,,,,,,,,,,,,,,,1.444,773.2170093,None,None,1,773.2170093,None,,P016,fencog,2,Post,2021_Nov_01_1224,N-Back (New Version 2021),2021.1.4,121.4326133
,,,,Conditions/Version_1/twoback(3)_v1.xlsx,New rule: Press 'space' when you see 2-back (i.e. the same letter as the one that appeared 2 letters ago.),P,None,,,,,,,,,0,10,10,10,0,2,2,2,,,,,,,,,,,,,,,,,,,,,,,,,,,,,,,,,,,,,,,,,,,,,,,,,,,,,,,,,,,,,,,,,,,,,1.2208,776.4497947,None,None,1,776.4497947,None,,P016,fencog,2,Post,2021_Nov_01_1224,N-Back (New Version 2021),2021.1.4,121.4326133
,,,,Conditions/Version_1/twoback(3)_v1.xlsx,New rule: Press 'space' when you see 2-back (i.e. the same letter as the one that appeared 2 letters ago.),z,None,,,,,,,,,0,10,10,10,0,3,3,3,,,,,,,,,,,,,,,,,,,,,,,,,,,,,,,,,,,,,,,,,,,,,,,,,,,,,,,,,,,,,,,,,,,,,1.3882,779.8517729,None,None,1,779.8517729,None,,P016,fencog,2,Post,2021_Nov_01_1224,N-Back (New Version 2021),2021.1.4,121.4326133
,,,,Conditions/Version_1/twoback(3)_v1.xlsx,New rule: Press 'space' when you see 2-back (i.e. the same letter as the one that appeared 2 letters ago.),X,None,,,,,,,,,0,10,10,10,0,4,4,4,,,,,,,,,,,,,,,,,,,,,,,,,,,,,,,,,,,,,,,,,,,,,,,,,,,,,,,,,,,,,,,,,,,,,1.4502,783.3131989,None,None,1,783.3131989,None,,P016,fencog,2,Post,2021_Nov_01_1224,N-Back (New Version 2021),2021.1.4,121.4326133
,,,,Conditions/Version_1/twoback(3)_v1.xlsx,New rule: Press 'space' when you see 2-back (i.e. the same letter as the one that appeared 2 letters ago.),z,space,,,,,,,,,0,10,10,10,0,5,5,5,,,,,,,,,,,,,,,,,,,,,,,,,,,,,,,,,,,,,,,,,,,,,,,,,,,,,,,,,,,,,,,,,,,,,1.6982,787.0138854,None,space,1,787.0138854,None,0.5038606,P016,fencog,2,Post,2021_Nov_01_1224,N-Back (New Version 2021),2021.1.4,121.4326133
,,,,Conditions/Version_1/twoback(3)_v1.xlsx,New rule: Press 'space' when you see 2-back (i.e. the same letter as the one that appeared 2 letters ago.),x,space,,,,,,,,,0,10,10,10,0,6,6,6,,,,,,,,,,,,,,,,,,,,,,,,,,,,,,,,,,,,,,,,,,,,,,,,,,,,,,,,,,,,,,,,,,,,,1.3262,790.3527855,None,space,1,790.3527855,None,1.4448838,P016,fencog,2,Post,2021_Nov_01_1224,N-Back (New Version 2021),2021.1.4,121.4326133
,,,,Conditions/Version_1/twoback(3)_v1.xlsx,New rule: Press 'space' when you see 2-back (i.e. the same letter as the one that appeared 2 letters ago.),c,None,,,,,,,,,0,10,10,10,0,7,7,7,,,,,,,,,,,,,,,,,,,,,,,,,,,,,,,,,,,,,,,,,,,,,,,,,,,,,,,,,,,,,,,,,,,,,1.1464,793.502971,None,None,1,793.502971,None,,P016,fencog,2,Post,2021_Nov_01_1224,N-Back (New Version 2021),2021.1.4,121.4326133
,,,,Conditions/Version_1/twoback(3)_v1.xlsx,New rule: Press 'space' when you see 2-back (i.e. the same letter as the one that appeared 2 letters ago.),i,None,,,,,,,,,0,10,10,10,0,8,8,8,,,,,,,,,,,,,,,,,,,,,,,,,,,,,,,,,,,,,,,,,,,,,,,,,,,,,,,,,,,,,,,,,,,,,1.9214,797.4340025,None,None,1,797.4340025,None,,P016,fencog,2,Post,2021_Nov_01_1224,N-Back (New Version 2021),2021.1.4,121.4326133
,,,,Conditions/Version_1/twoback(3)_v1.xlsx,New rule: Press 'space' when you see 2-back (i.e. the same letter as the one that appeared 2 letters ago.),C,space,,,,,,,,,0,10,10,10,0,9,9,9,,,,,,,,,,,,,,,,,,,,,,,,,,,,,,,,,,,,,,,,,,,,,,,,,,,,,,,,,,,,,,,,,,,,,1.5928,801.0383734,None,space,1,801.0383734,None,0.4635802,P016,fencog,2,Post,2021_Nov_01_1224,N-Back (New Version 2021),2021.1.4,121.4326133
,,,,Conditions/Version_1/twoback(3)_v1.xlsx,New rule: Press 'space' when you see 2-back (i.e. the same letter as the one that appeared 2 letters ago.),,,,,,,,,,,0,10,10,10,,,,,,,,,,,,,,,,,,,,,,,,,,,,,,,,,,,,,,,,,,,,,,,,,,,,,,,,,,,,,,,,,,,,,,,,,,,,,,,,,P016,fencog,2,Post,2021_Nov_01_1224,N-Back (New Version 2021),2021.1.4,121.4326133
,,,,Conditions/Version_1/oneback(3)_v1.xlsx,New rule: Press 'space' when you see 1-back (i.e. the same letter as the one that appeared 1 letter ago.),o,None,,,,,,,,,0,11,11,11,0,0,0,0,,,,,,,,,,,,,,,,,,,,,,,,,,,,,,,,,,,,,,,,,,,,,,,,,,,,,,,,,,,803.0625399,None,806.0423279,None,space,0.3153137,806.0423279,None,803.0625399,None,1.94,808.327033,None,None,1,808.327033,None,,P016,fencog,2,Post,2021_Nov_01_1224,N-Back (New Version 2021),2021.1.4,121.4326133
,,,,Conditions/Version_1/oneback(3)_v1.xlsx,New rule: Press 'space' when you see 1-back (i.e. the same letter as the one that appeared 1 letter ago.),O,space,,,,,,,,,0,11,11,11,0,1,1,1,,,,,,,,,,,,,,,,,,,,,,,,,,,,,,,,,,,,,,,,,,,,,,,,,,,,,,,,,,,,,,,,,,,,,1.9896,812.3281924,None,space,1,812.3281924,None,0.9020163,P016,fencog,2,Post,2021_Nov_01_1224,N-Back (New Version 2021),2021.1.4,121.4326133
,,,,Conditions/Version_1/oneback(3)_v1.xlsx,New rule: Press 'space' when you see 1-back (i.e. the same letter as the one that appeared 1 letter ago.),h,None,,,,,,,,,0,11,11,11,0,2,2,2,,,,,,,,,,,,,,,,,,,,,,,,,,,,,,,,,,,,,,,,,,,,,,,,,,,,,,,,,,,,,,,,,,,,,1.63,815.9643611,None,None,1,815.9643611,None,,P016,fencog,2,Post,2021_Nov_01_1224,N-Back (New Version 2021),2021.1.4,121.4326133
,,,,Conditions/Version_1/oneback(3)_v1.xlsx,New rule: Press 'space' when you see 1-back (i.e. the same letter as the one that appeared 1 letter ago.),g,None,,,,,,,,,0,11,11,11,0,3,3,3,,,,,,,,,,,,,,,,,,,,,,,,,,,,,,,,,,,,,,,,,,,,,,,,,,,,,,,,,,,,,,,,,,,,,1.5556,819.531471,None,None,1,819.531471,None,,P016,fencog,2,Post,2021_Nov_01_1224,N-Back (New Version 2021),2021.1.4,121.4326133
,,,,Conditions/Version_1/oneback(3)_v1.xlsx,New rule: Press 'space' when you see 1-back (i.e. the same letter as the one that appeared 1 letter ago.),n,None,,,,,,,,,0,11,11,11,0,4,4,4,,,,,,,,,,,,,,,,,,,,,,,,,,,,,,,,,,,,,,,,,,,,,,,,,,,,,,,,,,,,,,,,,,,,,1.4564,822.993732,None,None,1,822.993732,None,,P016,fencog,2,Post,2021_Nov_01_1224,N-Back (New Version 2021),2021.1.4,121.4326133
,,,,Conditions/Version_1/oneback(3)_v1.xlsx,New rule: Press 'space' when you see 1-back (i.e. the same letter as the one that appeared 1 letter ago.),z,None,,,,,,,,,0,11,11,11,0,5,5,5,,,,,,,,,,,,,,,,,,,,,,,,,,,,,,,,,,,,,,,,,,,,,,,,,,,,,,,,,,,,,,,,,,,,,1.9028,826.9163862,None,None,1,826.9163862,None,,P016,fencog,2,Post,2021_Nov_01_1224,N-Back (New Version 2021),2021.1.4,121.4326133
,,,,Conditions/Version_1/oneback(3)_v1.xlsx,New rule: Press 'space' when you see 1-back (i.e. the same letter as the one that appeared 1 letter ago.),X,None,,,,,,,,,0,11,11,11,0,6,6,6,,,,,,,,,,,,,,,,,,,,,,,,,,,,,,,,,,,,,,,,,,,,,,,,,,,,,,,,,,,,,,,,,,,,,1.2022,830.1160568,None,None,1,830.1160568,None,,P016,fencog,2,Post,2021_Nov_01_1224,N-Back (New Version 2021),2021.1.4,121.4326133
,,,,Conditions/Version_1/oneback(3)_v1.xlsx,New rule: Press 'space' when you see 1-back (i.e. the same letter as the one that appeared 1 letter ago.),r,None,,,,,,,,,0,11,11,11,0,7,7,7,,,,,,,,,,,,,,,,,,,,,,,,,,,,,,,,,,,,,,,,,,,,,,,,,,,,,,,,,,,,,,,,,,,,,1.413,833.5685362,None,None,1,833.5685362,None,,P016,fencog,2,Post,2021_Nov_01_1224,N-Back (New Version 2021),2021.1.4,121.4326133
,,,,Conditions/Version_1/oneback(3)_v1.xlsx,New rule: Press 'space' when you see 1-back (i.e. the same letter as the one that appeared 1 letter ago.),r,space,,,,,,,,,0,11,11,11,0,8,8,8,,,,,,,,,,,,,,,,,,,,,,,,,,,,,,,,,,,,,,,,,,,,,,,,,,,,,,,,,,,,,,,,,,,,,1.785,837.3323917,None,space,1,837.3323917,None,0.7292484,P016,fencog,2,Post,2021_Nov_01_1224,N-Back (New Version 2021),2021.1.4,121.4326133
,,,,Conditions/Version_1/oneback(3)_v1.xlsx,New rule: Press 'space' when you see 1-back (i.e. the same letter as the one that appeared 1 letter ago.),P,None,,,,,,,,,0,11,11,11,0,9,9,9,,,,,,,,,,,,,,,,,,,,,,,,,,,,,,,,,,,,,,,,,,,,,,,,,,,,,,,,,,,,,,,,,,,,,1.1216,840.4630264,None,None,1,840.4630264,None,,P016,fencog,2,Post,2021_Nov_01_1224,N-Back (New Version 2021),2021.1.4,121.4326133
,,,,Conditions/Version_1/oneback(3)_v1.xlsx,New rule: Press 'space' when you see 1-back (i.e. the same letter as the one that appeared 1 letter ago.),,,,,,,,,,,0,11,11,11,,,,,,,,,,,,,,,,,,,,,,,,,,,,,,,,,,,,,,,,,,,,,,,,,,,,,,,,,,,,,,,,,,,,,,,,,,,,,,,,,P016,fencog,2,Post,2021_Nov_01_1224,N-Back (New Version 2021),2021.1.4,121.4326133
,,,,Conditions/Version_1/twoback(4)_v1.xlsx,New rule: Press 'space' when you see 2-back (i.e. the same letter as the one that appeared 2 letters ago.),r,None,,,,,,,,,0,12,12,12,0,0,0,0,,,,,,,,,,,,,,,,,,,,,,,,,,,,,,,,,,,,,,,,,,,,,,,,,,,,,,,,,,,842.5035362,None,845.4888439,None,space,14.7485212,845.4888439,None,842.5035362,None,1.0472,861.3176471,None,None,1,861.3176471,None,,P016,fencog,2,Post,2021_Nov_01_1224,N-Back (New Version 2021),2021.1.4,121.4326133
,,,,Conditions/Version_1/twoback(4)_v1.xlsx,New rule: Press 'space' when you see 2-back (i.e. the same letter as the one that appeared 2 letters ago.),T,None,,,,,,,,,0,12,12,12,0,1,1,1,,,,,,,,,,,,,,,,,,,,,,,,,,,,,,,,,,,,,,,,,,,,,,,,,,,,,,,,,,,,,,,,,,,,,1.1092,864.4405957,None,None,1,864.4405957,None,,P016,fencog,2,Post,2021_Nov_01_1224,N-Back (New Version 2021),2021.1.4,121.4326133
,,,,Conditions/Version_1/twoback(4)_v1.xlsx,New rule: Press 'space' when you see 2-back (i.e. the same letter as the one that appeared 2 letters ago.),o,None,,,,,,,,,0,12,12,12,0,2,2,2,,,,,,,,,,,,,,,,,,,,,,,,,,,,,,,,,,,,,,,,,,,,,,,,,,,,,,,,,,,,,,,,,,,,,1.9586,868.4047261,None,None,1,868.4047261,None,,P016,fencog,2,Post,2021_Nov_01_1224,N-Back (New Version 2021),2021.1.4,121.4326133
,,,,Conditions/Version_1/twoback(4)_v1.xlsx,New rule: Press 'space' when you see 2-back (i.e. the same letter as the one that appeared 2 letters ago.),p,None,,,,,,,,,0,12,12,12,0,3,3,3,,,,,,,,,,,,,,,,,,,,,,,,,,,,,,,,,,,,,,,,,,,,,,,,,,,,,,,,,,,,,,,,,,,,,1.7478,872.1535082,None,None,1,872.1535082,None,,P016,fencog,2,Post,2021_Nov_01_1224,N-Back (New Version 2021),2021.1.4,121.4326133
,,,,Conditions/Version_1/twoback(4)_v1.xlsx,New rule: Press 'space' when you see 2-back (i.e. the same letter as the one that appeared 2 letters ago.),p,None,,,,,,,,,0,12,12,12,0,4,4,4,,,,,,,,,,,,,,,,,,,,,,,,,,,,,,,,,,,,,,,,,,,,,,,,,,,,,,,,,,,,,,,,,,,,,1.7106,875.8693532,None,None,1,875.8693532,None,,P016,fencog,2,Post,2021_Nov_01_1224,N-Back (New Version 2021),2021.1.4,121.4326133
,,,,Conditions/Version_1/twoback(4)_v1.xlsx,New rule: Press 'space' when you see 2-back (i.e. the same letter as the one that appeared 2 letters ago.),y,None,,,,,,,,,0,12,12,12,0,5,5,5,,,,,,,,,,,,,,,,,,,,,,,,,,,,,,,,,,,,,,,,,,,,,,,,,,,,,,,,,,,,,,,,,,,,,1.8532,879.7344838,None,None,1,879.7344838,None,,P016,fencog,2,Post,2021_Nov_01_1224,N-Back (New Version 2021),2021.1.4,121.4326133
,,,,Conditions/Version_1/twoback(4)_v1.xlsx,New rule: Press 'space' when you see 2-back (i.e. the same letter as the one that appeared 2 letters ago.),P,space,,,,,,,,,0,12,12,12,0,6,6,6,,,,,,,,,,,,,,,,,,,,,,,,,,,,,,,,,,,,,,,,,,,,,,,,,,,,,,,,,,,,,,,,,,,,,1.7912,883.5250703,None,space,1,883.5250703,None,1.0244439,P016,fencog,2,Post,2021_Nov_01_1224,N-Back (New Version 2021),2021.1.4,121.4326133
,,,,Conditions/Version_1/twoback(4)_v1.xlsx,New rule: Press 'space' when you see 2-back (i.e. the same letter as the one that appeared 2 letters ago.),y,None,,,,,,,,,0,12,12,12,0,7,7,7,,,,,,,,,,,,,,,,,,,,,,,,,,,,,,,,,,,,,,,,,,,,,,,,,,,,,,,,,,,,,,,,,,,,,1.072,886.6076836,None,space,0,886.6076836,None,1.2061534,P016,fencog,2,Post,2021_Nov_01_1224,N-Back (New Version 2021),2021.1.4,121.4326133
,,,,Conditions/Version_1/twoback(4)_v1.xlsx,New rule: Press 'space' when you see 2-back (i.e. the same letter as the one that appeared 2 letters ago.),y,space,,,,,,,,,0,12,12,12,0,8,8,8,,,,,,,,,,,,,,,,,,,,,,,,,,,,,,,,,,,,,,,,,,,,,,,,,,,,,,,,,,,,,,,,,,,,,1.4502,890.0649754,None,None,0,890.0649754,None,,P016,fencog,2,Post,2021_Nov_01_1224,N-Back (New Version 2021),2021.1.4,121.4326133
,,,,Conditions/Version_1/twoback(4)_v1.xlsx,New rule: Press 'space' when you see 2-back (i.e. the same letter as the one that appeared 2 letters ago.),,,,,,,,,,,0,12,12,12,,,,,,,,,,,,,,,,,,,,,,,,,,,,,,,,,,,,,,,,,,,,,,,,,,,,,,,,,,,,,,,,,,,,,,,,,,,,,,,,,P016,fencog,2,Post,2021_Nov_01_1224,N-Back (New Version 2021),2021.1.4,121.4326133
,,,,Conditions/Version_1/zeroback(4)_v1.xlsx,New rule: Press 'space' when you see the letter 'x' or 'X'.,o,None,,,,,,,,,0,13,13,13,0,0,0,0,,,,,,,,,,,,,,,,,,,,,,,,,,,,,,,,,,,,,,,,,,,,,,,,,,,,,,,,,,,892.0826751,None,895.0656791,None,space,0.3235596,895.0656791,None,892.0826751,None,1.2766,896.6963045,None,None,1,896.6963045,None,,P016,fencog,2,Post,2021_Nov_01_1224,N-Back (New Version 2021),2021.1.4,121.4326133
,,,,Conditions/Version_1/zeroback(4)_v1.xlsx,New rule: Press 'space' when you see the letter 'x' or 'X'.,X,space,,,,,,,,,0,13,13,13,0,1,1,1,,,,,,,,,,,,,,,,,,,,,,,,,,,,,,,,,,,,,,,,,,,,,,,,,,,,,,,,,,,,,,,,,,,,,1.6238,900.3213434,None,space,1,900.3213434,None,0.4359804,P016,fencog,2,Post,2021_Nov_01_1224,N-Back (New Version 2021),2021.1.4,121.4326133
,,,,Conditions/Version_1/zeroback(4)_v1.xlsx,New rule: Press 'space' when you see the letter 'x' or 'X'.,p,None,,,,,,,,,0,13,13,13,0,2,2,2,,,,,,,,,,,,,,,,,,,,,,,,,,,,,,,,,,,,,,,,,,,,,,,,,,,,,,,,,,,,,,,,,,,,,1.7416,904.071121,None,None,1,904.071121,None,,P016,fencog,2,Post,2021_Nov_01_1224,N-Back (New Version 2021),2021.1.4,121.4326133
,,,,Conditions/Version_1/zeroback(4)_v1.xlsx,New rule: Press 'space' when you see the letter 'x' or 'X'.,m,None,,,,,,,,,0,13,13,13,0,3,3,3,,,,,,,,,,,,,,,,,,,,,,,,,,,,,,,,,,,,,,,,,,,,,,,,,,,,,,,,,,,,,,,,,,,,,1.4564,907.5347892,None,None,1,907.5347892,None,,P016,fencog,2,Post,2021_Nov_01_1224,N-Back (New Version 2021),2021.1.4,121.4326133
,,,,Conditions/Version_1/zeroback(4)_v1.xlsx,New rule: Press 'space' when you see the letter 'x' or 'X'.,n,None,,,,,,,,,0,13,13,13,0,4,4,4,,,,,,,,,,,,,,,,,,,,,,,,,,,,,,,,,,,,,,,,,,,,,,,,,,,,,,,,,,,,,,,,,,,,,1.0596,910.6100858,None,None,1,910.6100858,None,,P016,fencog,2,Post,2021_Nov_01_1224,N-Back (New Version 2021),2021.1.4,121.4326133
,,,,Conditions/Version_1/zeroback(4)_v1.xlsx,New rule: Press 'space' when you see the letter 'x' or 'X'.,m,None,,,,,,,,,0,13,13,13,0,5,5,5,,,,,,,,,,,,,,,,,,,,,,,,,,,,,,,,,,,,,,,,,,,,,,,,,,,,,,,,,,,,,,,,,,,,,1.2394,913.8578907,None,None,1,913.8578907,None,,P016,fencog,2,Post,2021_Nov_01_1224,N-Back (New Version 2021),2021.1.4,121.4326133
,,,,Conditions/Version_1/zeroback(4)_v1.xlsx,New rule: Press 'space' when you see the letter 'x' or 'X'.,C,None,,,,,,,,,0,13,13,13,0,6,6,6,,,,,,,,,,,,,,,,,,,,,,,,,,,,,,,,,,,,,,,,,,,,,,,,,,,,,,,,,,,,,,,,,,,,,1.3572,917.21519,None,None,1,917.21519,None,,P016,fencog,2,Post,2021_Nov_01_1224,N-Back (New Version 2021),2021.1.4,121.4326133
,,,,Conditions/Version_1/zeroback(4)_v1.xlsx,New rule: Press 'space' when you see the letter 'x' or 'X'.,m,None,,,,,,,,,0,13,13,13,0,7,7,7,,,,,,,,,,,,,,,,,,,,,,,,,,,,,,,,,,,,,,,,,,,,,,,,,,,,,,,,,,,,,,,,,,,,,1.4502,920.672986,None,None,1,920.672986,None,,P016,fencog,2,Post,2021_Nov_01_1224,N-Back (New Version 2021),2021.1.4,121.4326133
,,,,Conditions/Version_1/zeroback(4)_v1.xlsx,New rule: Press 'space' when you see the letter 'x' or 'X'.,p,None,,,,,,,,,0,13,13,13,0,8,8,8,,,,,,,,,,,,,,,,,,,,,,,,,,,,,,,,,,,,,,,,,,,,,,,,,,,,,,,,,,,,,,,,,,,,,1.1898,923.8720703,None,None,1,923.8720703,None,,P016,fencog,2,Post,2021_Nov_01_1224,N-Back (New Version 2021),2021.1.4,121.4326133
,,,,Conditions/Version_1/zeroback(4)_v1.xlsx,New rule: Press 'space' when you see the letter 'x' or 'X'.,X,space,,,,,,,,,0,13,13,13,0,9,9,9,,,,,,,,,,,,,,,,,,,,,,,,,,,,,,,,,,,,,,,,,,,,,,,,,,,,,,,,,,,,,,,,,,,,,1.4192,927.3075992,None,space,1,927.3075992,None,0.5537714,P016,fencog,2,Post,2021_Nov_01_1224,N-Back (New Version 2021),2021.1.4,121.4326133
,,,,Conditions/Version_1/zeroback(4)_v1.xlsx,New rule: Press 'space' when you see the letter 'x' or 'X'.,,,,,,,,,,,0,13,13,13,,,,,,,,,,,,,,,,,,,,,,,,,,,,,,,,,,,,,,,,,,,,,,,,,,,,,,,,,,,,,,,,,,,,,,,,,,,,,,,,,P016,fencog,2,Post,2021_Nov_01_1224,N-Back (New Version 2021),2021.1.4,121.4326133
,,,,Conditions/Version_1/oneback(4)_v1.xlsx,New rule: Press 'space' when you see 1-back (i.e. the same letter as the one that appeared 1 letter ago.),w,None,,,,,,,,,0,14,14,14,0,0,0,0,,,,,,,,,,,,,,,,,,,,,,,,,,,,,,,,,,,,,,,,,,,,,,,,,,,,,,,,,,,929.348092,None,932.3293564,None,space,2.8041121,932.3293564,None,929.348092,None,1.2704,936.4346061,None,None,1,936.4346061,None,,P016,fencog,2,Post,2021_Nov_01_1224,N-Back (New Version 2021),2021.1.4,121.4326133
,,,,Conditions/Version_1/oneback(4)_v1.xlsx,New rule: Press 'space' when you see 1-back (i.e. the same letter as the one that appeared 1 letter ago.),q,None,,,,,,,,,0,14,14,14,0,1,1,1,,,,,,,,,,,,,,,,,,,,,,,,,,,,,,,,,,,,,,,,,,,,,,,,,,,,,,,,,,,,,,,,,,,,,1.5246,939.9592065,None,None,1,939.9592065,None,,P016,fencog,2,Post,2021_Nov_01_1224,N-Back (New Version 2021),2021.1.4,121.4326133
,,,,Conditions/Version_1/oneback(4)_v1.xlsx,New rule: Press 'space' when you see 1-back (i.e. the same letter as the one that appeared 1 letter ago.),i,None,,,,,,,,,0,14,14,14,0,2,2,2,,,,,,,,,,,,,,,,,,,,,,,,,,,,,,,,,,,,,,,,,,,,,,,,,,,,,,,,,,,,,,,,,,,,,1.1898,943.1672499,None,None,1,943.1672499,None,,P016,fencog,2,Post,2021_Nov_01_1224,N-Back (New Version 2021),2021.1.4,121.4326133
,,,,Conditions/Version_1/oneback(4)_v1.xlsx,New rule: Press 'space' when you see 1-back (i.e. the same letter as the one that appeared 1 letter ago.),t,None,,,,,,,,,0,14,14,14,0,3,3,3,,,,,,,,,,,,,,,,,,,,,,,,,,,,,,,,,,,,,,,,,,,,,,,,,,,,,,,,,,,,,,,,,,,,,1.63,946.7982647,None,None,1,946.7982647,None,,P016,fencog,2,Post,2021_Nov_01_1224,N-Back (New Version 2021),2021.1.4,121.4326133
,,,,Conditions/Version_1/oneback(4)_v1.xlsx,New rule: Press 'space' when you see 1-back (i.e. the same letter as the one that appeared 1 letter ago.),v,None,,,,,,,,,0,14,14,14,0,4,4,4,,,,,,,,,,,,,,,,,,,,,,,,,,,,,,,,,,,,,,,,,,,,,,,,,,,,,,,,,,,,,,,,,,,,,1.5432,950.3488377,None,None,1,950.3488377,None,,P016,fencog,2,Post,2021_Nov_01_1224,N-Back (New Version 2021),2021.1.4,121.4326133
,,,,Conditions/Version_1/oneback(4)_v1.xlsx,New rule: Press 'space' when you see 1-back (i.e. the same letter as the one that appeared 1 letter ago.),V,space,,,,,,,,,0,14,14,14,0,5,5,5,,,,,,,,,,,,,,,,,,,,,,,,,,,,,,,,,,,,,,,,,,,,,,,,,,,,,,,,,,,,,,,,,,,,,1.8222,954.1819104,None,space,1,954.1819104,None,0.3673435,P016,fencog,2,Post,2021_Nov_01_1224,N-Back (New Version 2021),2021.1.4,121.4326133
,,,,Conditions/Version_1/oneback(4)_v1.xlsx,New rule: Press 'space' when you see 1-back (i.e. the same letter as the one that appeared 1 letter ago.),v,space,,,,,,,,,0,14,14,14,0,6,6,6,,,,,,,,,,,,,,,,,,,,,,,,,,,,,,,,,,,,,,,,,,,,,,,,,,,,,,,,,,,,,,,,,,,,,1.103,957.2950312,None,space,1,957.2950312,None,0.8464278,P016,fencog,2,Post,2021_Nov_01_1224,N-Back (New Version 2021),2021.1.4,121.4326133
,,,,Conditions/Version_1/oneback(4)_v1.xlsx,New rule: Press 'space' when you see 1-back (i.e. the same letter as the one that appeared 1 letter ago.),p,None,,,,,,,,,0,14,14,14,0,7,7,7,,,,,,,,,,,,,,,,,,,,,,,,,,,,,,,,,,,,,,,,,,,,,,,,,,,,,,,,,,,,,,,,,,,,,1.7788,961.0801224,None,None,1,961.0801224,None,,P016,fencog,2,Post,2021_Nov_01_1224,N-Back (New Version 2021),2021.1.4,121.4326133
,,,,Conditions/Version_1/oneback(4)_v1.xlsx,New rule: Press 'space' when you see 1-back (i.e. the same letter as the one that appeared 1 letter ago.),w,None,,,,,,,,,0,14,14,14,0,8,8,8,,,,,,,,,,,,,,,,,,,,,,,,,,,,,,,,,,,,,,,,,,,,,,,,,,,,,,,,,,,,,,,,,,,,,1.1588,964.2440381,None,None,1,964.2440381,None,,P016,fencog,2,Post,2021_Nov_01_1224,N-Back (New Version 2021),2021.1.4,121.4326133
,,,,Conditions/Version_1/oneback(4)_v1.xlsx,New rule: Press 'space' when you see 1-back (i.e. the same letter as the one that appeared 1 letter ago.),W,space,,,,,,,,,0,14,14,14,0,9,9,9,,,,,,,,,,,,,,,,,,,,,,,,,,,,,,,,,,,,,,,,,,,,,,,,,,,,,,,,,,,,,,,,,,,,,1.8532,968.1003399,None,space,1,968.1003399,None,0.6734921,P016,fencog,2,Post,2021_Nov_01_1224,N-Back (New Version 2021),2021.1.4,121.4326133
,,,,Conditions/Version_1/oneback(4)_v1.xlsx,New rule: Press 'space' when you see 1-back (i.e. the same letter as the one that appeared 1 letter ago.),,,,,,,,,,,0,14,14,14,,,,,,,,,,,,,,,,,,,,,,,,,,,,,,,,,,,,,,,,,,,,,,,,,,,,,,,,,,,,,,,,,,,,,,,,,,,,,,,,,P016,fencog,2,Post,2021_Nov_01_1224,N-Back (New Version 2021),2021.1.4,121.4326133
,,,,Conditions/Version_1/threeback(4)_v1.xlsx,New rule: Press 'space' when you see 3-back (i.e. the same letter as the one that appeared 3 letters ago.),A,None,,,,,,,,,0,15,15,15,0,0,0,0,,,,,,,,,,,,,,,,,,,,,,,,,,,,,,,,,,,,,,,,,,,,,,,,,,,,,,,,,,,970.1261511,None,973.1123086,None,space,0.3569715,973.1123086,None,970.1261511,None,1.1898,974.692242,None,None,1,974.692242,None,,P016,fencog,2,Post,2021_Nov_01_1224,N-Back (New Version 2021),2021.1.4,121.4326133
,,,,Conditions/Version_1/threeback(4)_v1.xlsx,New rule: Press 'space' when you see 3-back (i.e. the same letter as the one that appeared 3 letters ago.),n,None,,,,,,,,,0,15,15,15,0,1,1,1,,,,,,,,,,,,,,,,,,,,,,,,,,,,,,,,,,,,,,,,,,,,,,,,,,,,,,,,,,,,,,,,,,,,,1.7354,978.4313702,None,None,1,978.4313702,None,,P016,fencog,2,Post,2021_Nov_01_1224,N-Back (New Version 2021),2021.1.4,121.4326133
,,,,Conditions/Version_1/threeback(4)_v1.xlsx,New rule: Press 'space' when you see 3-back (i.e. the same letter as the one that appeared 3 letters ago.),g,None,,,,,,,,,0,15,15,15,0,2,2,2,,,,,,,,,,,,,,,,,,,,,,,,,,,,,,,,,,,,,,,,,,,,,,,,,,,,,,,,,,,,,,,,,,,,,1.5122,981.9551278,None,None,1,981.9551278,None,,P016,fencog,2,Post,2021_Nov_01_1224,N-Back (New Version 2021),2021.1.4,121.4326133
,,,,Conditions/Version_1/threeback(4)_v1.xlsx,New rule: Press 'space' when you see 3-back (i.e. the same letter as the one that appeared 3 letters ago.),A,space,,,,,,,,,0,15,15,15,0,3,3,3,,,,,,,,,,,,,,,,,,,,,,,,,,,,,,,,,,,,,,,,,,,,,,,,,,,,,,,,,,,,,,,,,,,,,1.7788,985.7366119,None,space,1,985.7366119,None,0.7416718,P016,fencog,2,Post,2021_Nov_01_1224,N-Back (New Version 2021),2021.1.4,121.4326133
,,,,Conditions/Version_1/threeback(4)_v1.xlsx,New rule: Press 'space' when you see 3-back (i.e. the same letter as the one that appeared 3 letters ago.),p,None,,,,,,,,,0,15,15,15,0,4,4,4,,,,,,,,,,,,,,,,,,,,,,,,,,,,,,,,,,,,,,,,,,,,,,,,,,,,,,,,,,,,,,,,,,,,,1.041,988.778055,None,None,1,988.778055,None,,P016,fencog,2,Post,2021_Nov_01_1224,N-Back (New Version 2021),2021.1.4,121.4326133
,,,,Conditions/Version_1/threeback(4)_v1.xlsx,New rule: Press 'space' when you see 3-back (i.e. the same letter as the one that appeared 3 letters ago.),O,None,,,,,,,,,0,15,15,15,0,5,5,5,,,,,,,,,,,,,,,,,,,,,,,,,,,,,,,,,,,,,,,,,,,,,,,,,,,,,,,,,,,,,,,,,,,,,1.8966,992.6762132,None,None,1,992.6762132,None,,P016,fencog,2,Post,2021_Nov_01_1224,N-Back (New Version 2021),2021.1.4,121.4326133
,,,,Conditions/Version_1/threeback(4)_v1.xlsx,New rule: Press 'space' when you see 3-back (i.e. the same letter as the one that appeared 3 letters ago.),a,space,,,,,,,,,0,15,15,15,0,6,6,6,,,,,,,,,,,,,,,,,,,,,,,,,,,,,,,,,,,,,,,,,,,,,,,,,,,,,,,,,,,,,,,,,,,,,1.506,996.1876531,None,space,1,996.1876531,None,0.5057295,P016,fencog,2,Post,2021_Nov_01_1224,N-Back (New Version 2021),2021.1.4,121.4326133
,,,,Conditions/Version_1/threeback(4)_v1.xlsx,New rule: Press 'space' when you see 3-back (i.e. the same letter as the one that appeared 3 letters ago.),p,space,,,,,,,,,0,15,15,15,0,7,7,7,,,,,,,,,,,,,,,,,,,,,,,,,,,,,,,,,,,,,,,,,,,,,,,,,,,,,,,,,,,,,,,,,,,,,1.6114,999.8075007,None,space,1,999.8075007,None,0.7657861,P016,fencog,2,Post,2021_Nov_01_1224,N-Back (New Version 2021),2021.1.4,121.4326133
,,,,Conditions/Version_1/threeback(4)_v1.xlsx,New rule: Press 'space' when you see 3-back (i.e. the same letter as the one that appeared 3 letters ago.),x,None,,,,,,,,,0,15,15,15,0,8,8,8,,,,,,,,,,,,,,,,,,,,,,,,,,,,,,,,,,,,,,,,,,,,,,,,,,,,,,,,,,,,,,,,,,,,,1.1092,1002.923348,None,None,1,1002.923348,None,,P016,fencog,2,Post,2021_Nov_01_1224,N-Back (New Version 2021),2021.1.4,121.4326133
,,,,Conditions/Version_1/threeback(4)_v1.xlsx,New rule: Press 'space' when you see 3-back (i.e. the same letter as the one that appeared 3 letters ago.),X,None,,,,,,,,,0,15,15,15,0,9,9,9,,,,,,,,,,,,,,,,,,,,,,,,,,,,,,,,,,,,,,,,,,,,,,,,,,,,,,,,,,,,,,,,,,,,,1.4254,1006.358137,None,None,1,1006.358137,None,,P016,fencog,2,Post,2021_Nov_01_1224,N-Back (New Version 2021),2021.1.4,121.4326133
,,,,Conditions/Version_1/threeback(4)_v1.xlsx,New rule: Press 'space' when you see 3-back (i.e. the same letter as the one that appeared 3 letters ago.),,,,,,,,,,,0,15,15,15,,,,,,,,,,,,,,,,,,,,,,,,,,,,,,,,,,,,,,,,,,,,,,,,,,,,,,,,,,,,,,,,,,,,,,,,,,,,,,,,,P016,fencog,2,Post,2021_Nov_01_1224,N-Back (New Version 2021),2021.1.4,121.4326133
