CondFileP,InstructionsP,LettersDisplayedP,CorrectnessP,CondFile,Instructions,LettersDisplayed,Correctness,practicetrials.thisRepN,practicetrials.thisTrialN,practicetrials.thisN,practicetrials.thisIndex,InnerLoopPractice.thisRepN,InnerLoopPractice.thisTrialN,InnerLoopPractice.thisN,InnerLoopPractice.thisIndex,trials.thisRepN,trials.thisTrialN,trials.thisN,trials.thisIndex,InnerLoop.thisRepN,InnerLoop.thisTrialN,InnerLoop.thisN,InnerLoop.thisIndex,TaskVersionText.started,TaskVersionText.stopped,InstrKey1.keys,InstrKey1.rt,InstrKey1.started,InstrKey1.stopped,text.started,text.stopped,key_resp_4.keys,key_resp_4.rt,key_resp_4.started,key_resp_4.stopped,text_2.started,text_2.stopped,key_resp_3.keys,key_resp_3.rt,key_resp_3.started,key_resp_3.stopped,text_3.started,text_3.stopped,key_resp_2.keys,key_resp_2.rt,key_resp_2.started,key_resp_2.stopped,PractIn1.started,PractIn1.stopped,PractIn2.started,PractIn2.stopped,PractInstructionPass.keys,PractInstructionPass.rt,PractInstructionPass.started,PractInstructionPass.stopped,PractBlock1.started,PractBlock1.stopped,ISIjitterPractice,ISI_Pract_Fixation.started,ISI_Pract_Fixation.stopped,N_backP.started,N_backP.stopped,KeyPractice.keys,KeyPractice.corr,KeyPractice.rt,KeyPractice.started,KeyPractice.stopped,text_4.started,text_4.stopped,TransitionText.started,TransitionText.stopped,key_resp_6.keys,key_resp_6.rt,key_resp_6.started,key_resp_6.stopped,text_5.started,text_5.stopped,key_resp_5.keys,key_resp_5.rt,key_resp_5.started,key_resp_5.stopped,MainInt1.started,MainInt1.stopped,MainInt2.started,MainInt2.stopped,InstructionPass.keys,InstructionPass.rt,InstructionPass.started,InstructionPass.stopped,Blocks1.started,Blocks1.stopped,ISIjitter,N_backD.started,N_backD.stopped,key_resp.keys,key_resp.corr,key_resp.started,key_resp.stopped,key_resp.rt,participant,Study Name,Task Version (required to run),PRE/POST,date,expName,psychopyVersion,frameRate,
,,,,,,,,,,,,,,,,,,,,,,,,34.99013250001008,None,space,128.32745470001828,35.47915460000513,None,,,,,,,,,,,,,,,,,,,,,,,,,,,,,,,,,,,,,,,,,,,,,,,,,,,,,,,,,,,,,,,,,,,,,,,P016,fencog,1,Pre,2021_Oct_25_1225,N-Back (New Version 2021),2021.1.4,120.2022763916716,
,,,,,,,,,,,,,,,,,,,,,,,,,,,,,,163.85091809998266,None,space,6.927497299970128,164.3421274999855,None,,,,,,,,,,,,,,,,,,,,,,,,,,,,,,,,,,,,,,,,,,,,,,,,,,,,,,,,,,,,,,,,,P016,fencog,1,Pre,2021_Oct_25_1225,N-Back (New Version 2021),2021.1.4,120.2022763916716,
,,,,,,,,,,,,,,,,,,,,,,,,,,,,,,,,,,,,171.32600430003367,None,space,10.263243999972474,171.8143817000091,None,,,,,,,,,,,,,,,,,,,,,,,,,,,,,,,,,,,,,,,,,,,,,,,,,,,,,,,,,,,P016,fencog,1,Pre,2021_Oct_25_1225,N-Back (New Version 2021),2021.1.4,120.2022763916716,
,,,,,,,,,,,,,,,,,,,,,,,,,,,,,,,,,,,,,,,,,,182.10426029999508,None,space,7.067438099998981,182.59443300002022,None,,,,,,,,,,,,,,,,,,,,,,,,,,,,,,,,,,,,,,,,,,,,,,,,,,,,,P016,fencog,1,Pre,2021_Oct_25_1225,N-Back (New Version 2021),2021.1.4,120.2022763916716,
Conditions/Version_1Pr/zeroback(1)_v1.xlsx,Rule: Press 'space' when you see the letter 'x' or 'X'.,Z,None,,,,,0,0,0,0,0,0,0,0,,,,,,,,,,,,,,,,,,,,,,,,,,,,,,,,,191.04805699997814,None,194.0336788999848,None,space,1.2644866000046022,194.0336788999848,None,191.04805699997814,None,1.865,195.32396409998182,None,197.19184029998723,None,space,0,0.3893343000090681,197.19184029998723,None,197.5935204999987,None,,,,,,,,,,,,,,,,,,,,,,,,,,,,,,,P016,fencog,1,Pre,2021_Oct_25_1225,N-Back (New Version 2021),2021.1.4,120.2022763916716,
Conditions/Version_1Pr/zeroback(1)_v1.xlsx,Rule: Press 'space' when you see the letter 'x' or 'X'.,r,None,,,,,0,0,0,0,0,1,1,1,,,,,,,,,,,,,,,,,,,,,,,,,,,,,,,,,,,,,,,,,,,1.89,199.0970643000328,None,200.99279480002588,None,None,1,,200.99279480002588,None,202.99714039999526,None,,,,,,,,,,,,,,,,,,,,,,,,,,,,,,,P016,fencog,1,Pre,2021_Oct_25_1225,N-Back (New Version 2021),2021.1.4,120.2022763916716,
Conditions/Version_1Pr/zeroback(1)_v1.xlsx,Rule: Press 'space' when you see the letter 'x' or 'X'.,X,space,,,,,0,0,0,0,0,2,2,2,,,,,,,,,,,,,,,,,,,,,,,,,,,,,,,,,,,,,,,,,,,1.69,204.49553389998619,None,206.18730629998026,None,space,1,0.3862961000413634,206.18730629998026,None,206.5869296999881,None,,,,,,,,,,,,,,,,,,,,,,,,,,,,,,,P016,fencog,1,Pre,2021_Oct_25_1225,N-Back (New Version 2021),2021.1.4,120.2022763916716,
Conditions/Version_1Pr/zeroback(1)_v1.xlsx,Rule: Press 'space' when you see the letter 'x' or 'X'.,p,None,,,,,0,0,0,0,0,3,3,3,,,,,,,,,,,,,,,,,,,,,,,,,,,,,,,,,,,,,,,,,,,1.64,208.08729240001412,None,209.72778970003128,None,None,1,,209.72778970003128,None,211.73499460000312,None,,,,,,,,,,,,,,,,,,,,,,,,,,,,,,,P016,fencog,1,Pre,2021_Oct_25_1225,N-Back (New Version 2021),2021.1.4,120.2022763916716,
Conditions/Version_1Pr/zeroback(1)_v1.xlsx,Rule: Press 'space' when you see the letter 'x' or 'X'.,w,None,,,,,0,0,0,0,0,4,4,4,,,,,,,,,,,,,,,,,,,,,,,,,,,,,,,,,,,,,,,,,,,1.04,213.23511750000762,None,214.2784031999763,None,None,1,,214.2784031999763,None,216.28351779998047,None,,,,,,,,,,,,,,,,,,,,,,,,,,,,,,,P016,fencog,1,Pre,2021_Oct_25_1225,N-Back (New Version 2021),2021.1.4,120.2022763916716,
Conditions/Version_1Pr/zeroback(1)_v1.xlsx,Rule: Press 'space' when you see the letter 'x' or 'X'.,e,None,,,,,0,0,0,0,0,5,5,5,,,,,,,,,,,,,,,,,,,,,,,,,,,,,,,,,,,,,,,,,,,2.015,217.78321199998027,None,219.80153110000538,None,None,1,,219.80153110000538,None,221.80644570000004,None,,,,,,,,,,,,,,,,,,,,,,,,,,,,,,,P016,fencog,1,Pre,2021_Oct_25_1225,N-Back (New Version 2021),2021.1.4,120.2022763916716,
Conditions/Version_1Pr/zeroback(1)_v1.xlsx,Rule: Press 'space' when you see the letter 'x' or 'X'.,X,space,,,,,0,0,0,0,0,6,6,6,,,,,,,,,,,,,,,,,,,,,,,,,,,,,,,,,,,,,,,,,,,1.815,223.30650070001138,None,225.1242113999906,None,space,1,0.4333836000296287,225.1242113999906,None,225.57294769998407,None,,,,,,,,,,,,,,,,,,,,,,,,,,,,,,,P016,fencog,1,Pre,2021_Oct_25_1225,N-Back (New Version 2021),2021.1.4,120.2022763916716,
Conditions/Version_1Pr/zeroback(1)_v1.xlsx,Rule: Press 'space' when you see the letter 'x' or 'X'.,x,space,,,,,0,0,0,0,0,7,7,7,,,,,,,,,,,,,,,,,,,,,,,,,,,,,,,,,,,,,,,,,,,1.14,227.07431589998305,None,228.21516930003418,None,space,1,0.4621251999633387,228.21516930003418,None,228.6894381000311,None,,,,,,,,,,,,,,,,,,,,,,,,,,,,,,,P016,fencog,1,Pre,2021_Oct_25_1225,N-Back (New Version 2021),2021.1.4,120.2022763916716,
Conditions/Version_1Pr/zeroback(1)_v1.xlsx,Rule: Press 'space' when you see the letter 'x' or 'X'.,p,None,,,,,0,0,0,0,0,8,8,8,,,,,,,,,,,,,,,,,,,,,,,,,,,,,,,,,,,,,,,,,,,1.265,230.1959670999786,None,231.46611959999427,None,None,1,,231.46611959999427,None,233.47033999999985,None,,,,,,,,,,,,,,,,,,,,,,,,,,,,,,,P016,fencog,1,Pre,2021_Oct_25_1225,N-Back (New Version 2021),2021.1.4,120.2022763916716,
Conditions/Version_1Pr/zeroback(1)_v1.xlsx,Rule: Press 'space' when you see the letter 'x' or 'X'.,r,None,,,,,0,0,0,0,0,9,9,9,,,,,,,,,,,,,,,,,,,,,,,,,,,,,,,,,,,,,,,,,,,1.94,234.96976820001146,None,236.9142809000332,None,space,0,0.41941599996061996,236.9142809000332,None,237.34968290000688,None,,,,,,,,,,,,,,,,,,,,,,,,,,,,,,,P016,fencog,1,Pre,2021_Oct_25_1225,N-Back (New Version 2021),2021.1.4,120.2022763916716,
Conditions/Version_1Pr/zeroback(1)_v1.xlsx,Rule: Press 'space' when you see the letter 'x' or 'X'.,,,,,,,0,0,0,0,,,,,,,,,,,,,,,,,,,,,,,,,,,,,,,,,,,,,,,,,,,,,,,,,,,,,,,,,,,,,,,,,,,,,,,,,,,,,,,,,,,,,,,,,P016,fencog,1,Pre,2021_Oct_25_1225,N-Back (New Version 2021),2021.1.4,120.2022763916716,
Conditions/Version_1Pr/oneback(1)_v1.xlsx,New rule: Press 'space' when you see 1-back (i.e. the same letter as the one that appeared 1 letter ago.),a,None,,,,,0,1,1,1,0,0,0,0,,,,,,,,,,,,,,,,,,,,,,,,,,,,,,,,,238.8746845999849,None,241.8610566999996,None,space,9.416803400032222,241.8610566999996,None,238.8746845999849,None,1.69,251.31025300000329,None,253.01076340000145,None,None,1,,253.01076340000145,None,255.0147078000009,None,,,,,,,,,,,,,,,,,,,,,,,,,,,,,,,P016,fencog,1,Pre,2021_Oct_25_1225,N-Back (New Version 2021),2021.1.4,120.2022763916716,
Conditions/Version_1Pr/oneback(1)_v1.xlsx,New rule: Press 'space' when you see 1-back (i.e. the same letter as the one that appeared 1 letter ago.),x,None,,,,,0,1,1,1,0,1,1,1,,,,,,,,,,,,,,,,,,,,,,,,,,,,,,,,,,,,,,,,,,,1.865,256.5132975000306,None,258.38063750002766,None,None,1,,258.38063750002766,None,260.38720579998335,None,,,,,,,,,,,,,,,,,,,,,,,,,,,,,,,P016,fencog,1,Pre,2021_Oct_25_1225,N-Back (New Version 2021),2021.1.4,120.2022763916716,
Conditions/Version_1Pr/oneback(1)_v1.xlsx,New rule: Press 'space' when you see 1-back (i.e. the same letter as the one that appeared 1 letter ago.),g,None,,,,,0,1,1,1,0,2,2,2,,,,,,,,,,,,,,,,,,,,,,,,,,,,,,,,,,,,,,,,,,,1.59,261.8865802999935,None,263.4804025000194,None,None,1,,263.4804025000194,None,265.4839617999969,None,,,,,,,,,,,,,,,,,,,,,,,,,,,,,,,P016,fencog,1,Pre,2021_Oct_25_1225,N-Back (New Version 2021),2021.1.4,120.2022763916716,
Conditions/Version_1Pr/oneback(1)_v1.xlsx,New rule: Press 'space' when you see 1-back (i.e. the same letter as the one that appeared 1 letter ago.),G,space,,,,,0,1,1,1,0,3,3,3,,,,,,,,,,,,,,,,,,,,,,,,,,,,,,,,,,,,,,,,,,,1.065,266.98654660000466,None,268.05230919999303,None,space,1,1.1212662999751046,268.05230919999303,None,269.1862128999783,None,,,,,,,,,,,,,,,,,,,,,,,,,,,,,,,P016,fencog,1,Pre,2021_Oct_25_1225,N-Back (New Version 2021),2021.1.4,120.2022763916716,
Conditions/Version_1Pr/oneback(1)_v1.xlsx,New rule: Press 'space' when you see 1-back (i.e. the same letter as the one that appeared 1 letter ago.),u,None,,,,,0,1,1,1,0,4,4,4,,,,,,,,,,,,,,,,,,,,,,,,,,,,,,,,,,,,,,,,,,,1.665,270.6922790000099,None,272.3599900000263,None,None,1,,272.3599900000263,None,274.35940409998875,None,,,,,,,,,,,,,,,,,,,,,,,,,,,,,,,P016,fencog,1,Pre,2021_Oct_25_1225,N-Back (New Version 2021),2021.1.4,120.2022763916716,
Conditions/Version_1Pr/oneback(1)_v1.xlsx,New rule: Press 'space' when you see 1-back (i.e. the same letter as the one that appeared 1 letter ago.),y,None,,,,,0,1,1,1,0,5,5,5,,,,,,,,,,,,,,,,,,,,,,,,,,,,,,,,,,,,,,,,,,,1.815,275.865808499977,None,277.68257609999273,None,None,1,,277.68257609999273,None,279.6922902999795,None,,,,,,,,,,,,,,,,,,,,,,,,,,,,,,,P016,fencog,1,Pre,2021_Oct_25_1225,N-Back (New Version 2021),2021.1.4,120.2022763916716,
Conditions/Version_1Pr/oneback(1)_v1.xlsx,New rule: Press 'space' when you see 1-back (i.e. the same letter as the one that appeared 1 letter ago.),y,space,,,,,0,1,1,1,0,6,6,6,,,,,,,,,,,,,,,,,,,,,,,,,,,,,,,,,,,,,,,,,,,1.29,281.1894140000222,None,282.4803793000174,None,space,1,0.4771395999705419,282.4803793000174,None,282.9722832000116,None,,,,,,,,,,,,,,,,,,,,,,,,,,,,,,,P016,fencog,1,Pre,2021_Oct_25_1225,N-Back (New Version 2021),2021.1.4,120.2022763916716,
Conditions/Version_1Pr/oneback(1)_v1.xlsx,New rule: Press 'space' when you see 1-back (i.e. the same letter as the one that appeared 1 letter ago.),k,None,,,,,0,1,1,1,0,7,7,7,,,,,,,,,,,,,,,,,,,,,,,,,,,,,,,,,,,,,,,,,,,2.015,284.4717367999838,None,286.4880640999763,None,None,1,,286.4880640999763,None,288.4860994000337,None,,,,,,,,,,,,,,,,,,,,,,,,,,,,,,,P016,fencog,1,Pre,2021_Oct_25_1225,N-Back (New Version 2021),2021.1.4,120.2022763916716,
Conditions/Version_1Pr/oneback(1)_v1.xlsx,New rule: Press 'space' when you see 1-back (i.e. the same letter as the one that appeared 1 letter ago.),c,None,,,,,0,1,1,1,0,8,8,8,,,,,,,,,,,,,,,,,,,,,,,,,,,,,,,,,,,,,,,,,,,1.24,289.98675099998945,None,291.2299655000097,None,None,1,,291.2299655000097,None,293.23567830002867,None,,,,,,,,,,,,,,,,,,,,,,,,,,,,,,,P016,fencog,1,Pre,2021_Oct_25_1225,N-Back (New Version 2021),2021.1.4,120.2022763916716,
Conditions/Version_1Pr/oneback(1)_v1.xlsx,New rule: Press 'space' when you see 1-back (i.e. the same letter as the one that appeared 1 letter ago.),r,None,,,,,0,1,1,1,0,9,9,9,,,,,,,,,,,,,,,,,,,,,,,,,,,,,,,,,,,,,,,,,,,1.465,294.7352863000124,None,296.2032084999955,None,None,1,,296.2032084999955,None,298.20936590002384,None,,,,,,,,,,,,,,,,,,,,,,,,,,,,,,,P016,fencog,1,Pre,2021_Oct_25_1225,N-Back (New Version 2021),2021.1.4,120.2022763916716,
Conditions/Version_1Pr/oneback(1)_v1.xlsx,New rule: Press 'space' when you see 1-back (i.e. the same letter as the one that appeared 1 letter ago.),,,,,,,0,1,1,1,,,,,,,,,,,,,,,,,,,,,,,,,,,,,,,,,,,,,,,,,,,,,,,,,,,,,,,,,,,,,,,,,,,,,,,,,,,,,,,,,,,,,,,,,P016,fencog,1,Pre,2021_Oct_25_1225,N-Back (New Version 2021),2021.1.4,120.2022763916716,
Conditions/Version_1Pr/twoback(1)_v1.xlsx,New rule: Press 'space' when you see 2-back (i.e. the same letter as the one that appeared 2 letters ago.),E,None,,,,,0,2,2,2,0,0,0,0,,,,,,,,,,,,,,,,,,,,,,,,,,,,,,,,,299.7303495000233,None,302.71848490001867,None,space,0.7267094000126235,302.71848490001867,None,299.7303495000233,None,1.54,303.47404240001924,None,305.01766439998755,None,None,1,,305.01766439998755,None,307.0233643000247,None,,,,,,,,,,,,,,,,,,,,,,,,,,,,,,,P016,fencog,1,Pre,2021_Oct_25_1225,N-Back (New Version 2021),2021.1.4,120.2022763916716,
Conditions/Version_1Pr/twoback(1)_v1.xlsx,New rule: Press 'space' when you see 2-back (i.e. the same letter as the one that appeared 2 letters ago.),p,None,,,,,0,2,2,2,0,1,1,1,,,,,,,,,,,,,,,,,,,,,,,,,,,,,,,,,,,,,,,,,,,1.765,308.52275850001024,None,310.2908722999855,None,None,1,,310.2908722999855,None,312.29690980003215,None,,,,,,,,,,,,,,,,,,,,,,,,,,,,,,,P016,fencog,1,Pre,2021_Oct_25_1225,N-Back (New Version 2021),2021.1.4,120.2022763916716,
Conditions/Version_1Pr/twoback(1)_v1.xlsx,New rule: Press 'space' when you see 2-back (i.e. the same letter as the one that appeared 2 letters ago.),e,space,,,,,0,2,2,2,0,2,2,2,,,,,,,,,,,,,,,,,,,,,,,,,,,,,,,,,,,,,,,,,,,1.365,313.7961843999801,None,315.1633675000048,None,space,1,0.5304555000038818,315.1633675000048,None,315.70479649998015,None,,,,,,,,,,,,,,,,,,,,,,,,,,,,,,,P016,fencog,1,Pre,2021_Oct_25_1225,N-Back (New Version 2021),2021.1.4,120.2022763916716,
Conditions/Version_1Pr/twoback(1)_v1.xlsx,New rule: Press 'space' when you see 2-back (i.e. the same letter as the one that appeared 2 letters ago.),s,None,,,,,0,2,2,2,0,3,3,3,,,,,,,,,,,,,,,,,,,,,,,,,,,,,,,,,,,,,,,,,,,1.965,317.21194489998743,None,319.1784821000183,None,None,1,,319.1784821000183,None,321.1775293999817,None,,,,,,,,,,,,,,,,,,,,,,,,,,,,,,,P016,fencog,1,Pre,2021_Oct_25_1225,N-Back (New Version 2021),2021.1.4,120.2022763916716,
Conditions/Version_1Pr/twoback(1)_v1.xlsx,New rule: Press 'space' when you see 2-back (i.e. the same letter as the one that appeared 2 letters ago.),S,None,,,,,0,2,2,2,0,4,4,4,,,,,,,,,,,,,,,,,,,,,,,,,,,,,,,,,,,,,,,,,,,1.24,322.6770379000227,None,323.92003480001586,None,None,1,,323.92003480001586,None,325.9257083000266,None,,,,,,,,,,,,,,,,,,,,,,,,,,,,,,,P016,fencog,1,Pre,2021_Oct_25_1225,N-Back (New Version 2021),2021.1.4,120.2022763916716,
Conditions/Version_1Pr/twoback(1)_v1.xlsx,New rule: Press 'space' when you see 2-back (i.e. the same letter as the one that appeared 2 letters ago.),s,space,,,,,0,2,2,2,0,5,5,5,,,,,,,,,,,,,,,,,,,,,,,,,,,,,,,,,,,,,,,,,,,1.415,327.4254272999824,None,328.8417135999771,None,space,1,0.4835274000070058,328.8417135999771,None,329.33428000001004,None,,,,,,,,,,,,,,,,,,,,,,,,,,,,,,,P016,fencog,1,Pre,2021_Oct_25_1225,N-Back (New Version 2021),2021.1.4,120.2022763916716,
Conditions/Version_1Pr/twoback(1)_v1.xlsx,New rule: Press 'space' when you see 2-back (i.e. the same letter as the one that appeared 2 letters ago.),P,None,,,,,0,2,2,2,0,6,6,6,,,,,,,,,,,,,,,,,,,,,,,,,,,,,,,,,,,,,,,,,,,1.465,330.8433083000127,None,332.309313500009,None,None,1,,332.309313500009,None,334.3154210000066,None,,,,,,,,,,,,,,,,,,,,,,,,,,,,,,,P016,fencog,1,Pre,2021_Oct_25_1225,N-Back (New Version 2021),2021.1.4,120.2022763916716,
Conditions/Version_1Pr/twoback(1)_v1.xlsx,New rule: Press 'space' when you see 2-back (i.e. the same letter as the one that appeared 2 letters ago.),C,None,,,,,0,2,2,2,0,7,7,7,,,,,,,,,,,,,,,,,,,,,,,,,,,,,,,,,,,,,,,,,,,1.215,335.8148101000115,None,337.03419730003225,None,None,1,,337.03419730003225,None,339.0388241999899,None,,,,,,,,,,,,,,,,,,,,,,,,,,,,,,,P016,fencog,1,Pre,2021_Oct_25_1225,N-Back (New Version 2021),2021.1.4,120.2022763916716,
Conditions/Version_1Pr/twoback(1)_v1.xlsx,New rule: Press 'space' when you see 2-back (i.e. the same letter as the one that appeared 2 letters ago.),x,None,,,,,0,2,2,2,0,8,8,8,,,,,,,,,,,,,,,,,,,,,,,,,,,,,,,,,,,,,,,,,,,1.815,340.5383676000056,None,342.35510330001125,None,None,1,,342.35510330001125,None,344.3621209000121,None,,,,,,,,,,,,,,,,,,,,,,,,,,,,,,,P016,fencog,1,Pre,2021_Oct_25_1225,N-Back (New Version 2021),2021.1.4,120.2022763916716,
Conditions/Version_1Pr/twoback(1)_v1.xlsx,New rule: Press 'space' when you see 2-back (i.e. the same letter as the one that appeared 2 letters ago.),Z,None,,,,,0,2,2,2,0,9,9,9,,,,,,,,,,,,,,,,,,,,,,,,,,,,,,,,,,,,,,,,,,,1.04,345.86178590002237,None,346.90302490000613,None,None,1,,346.90302490000613,None,348.90244249999523,None,,,,,,,,,,,,,,,,,,,,,,,,,,,,,,,P016,fencog,1,Pre,2021_Oct_25_1225,N-Back (New Version 2021),2021.1.4,120.2022763916716,
Conditions/Version_1Pr/twoback(1)_v1.xlsx,New rule: Press 'space' when you see 2-back (i.e. the same letter as the one that appeared 2 letters ago.),,,,,,,0,2,2,2,,,,,,,,,,,,,,,,,,,,,,,,,,,,,,,,,,,,,,,,,,,,,,,,,,,,,,,,,,,,,,,,,,,,,,,,,,,,,,,,,,,,,,,,,P016,fencog,1,Pre,2021_Oct_25_1225,N-Back (New Version 2021),2021.1.4,120.2022763916716,
Conditions/Version_1Pr/threeback(1)_v1.xlsx,New rule: Press 'space' when you see 3-back (i.e. the same letter as the one that appeared 3 letters ago.),r,None,,,,,0,3,3,3,0,0,0,0,,,,,,,,,,,,,,,,,,,,,,,,,,,,,,,,,350.4301617000019,None,353.4117955000256,None,space,0.7214610999799334,353.4117955000256,None,350.4301617000019,None,1.84,354.15810080000665,None,356.0021836999804,None,None,1,,356.0021836999804,None,358.0083695999929,None,,,,,,,,,,,,,,,,,,,,,,,,,,,,,,,P016,fencog,1,Pre,2021_Oct_25_1225,N-Back (New Version 2021),2021.1.4,120.2022763916716,
Conditions/Version_1Pr/threeback(1)_v1.xlsx,New rule: Press 'space' when you see 3-back (i.e. the same letter as the one that appeared 3 letters ago.),a,None,,,,,0,3,3,3,0,1,1,1,,,,,,,,,,,,,,,,,,,,,,,,,,,,,,,,,,,,,,,,,,,1.44,359.5077973000007,None,360.9498285999871,None,None,1,,360.9498285999871,None,362.9567918999819,None,,,,,,,,,,,,,,,,,,,,,,,,,,,,,,,P016,fencog,1,Pre,2021_Oct_25_1225,N-Back (New Version 2021),2021.1.4,120.2022763916716,
Conditions/Version_1Pr/threeback(1)_v1.xlsx,New rule: Press 'space' when you see 3-back (i.e. the same letter as the one that appeared 3 letters ago.),t,None,,,,,0,3,3,3,0,2,2,2,,,,,,,,,,,,,,,,,,,,,,,,,,,,,,,,,,,,,,,,,,,1.99,364.4562651999877,None,366.4510589999845,None,None,1,,366.4510589999845,None,368.4551945999847,None,,,,,,,,,,,,,,,,,,,,,,,,,,,,,,,P016,fencog,1,Pre,2021_Oct_25_1225,N-Back (New Version 2021),2021.1.4,120.2022763916716,
Conditions/Version_1Pr/threeback(1)_v1.xlsx,New rule: Press 'space' when you see 3-back (i.e. the same letter as the one that appeared 3 letters ago.),r,space,,,,,0,3,3,3,0,3,3,3,,,,,,,,,,,,,,,,,,,,,,,,,,,,,,,,,,,,,,,,,,,1.915,369.95465520001017,None,371.87615070003085,None,space,1,0.4019521999871358,371.87615070003085,None,372.3008817000082,None,,,,,,,,,,,,,,,,,,,,,,,,,,,,,,,P016,fencog,1,Pre,2021_Oct_25_1225,N-Back (New Version 2021),2021.1.4,120.2022763916716,
Conditions/Version_1Pr/threeback(1)_v1.xlsx,New rule: Press 'space' when you see 3-back (i.e. the same letter as the one that appeared 3 letters ago.),a,None,,,,,0,3,3,3,0,4,4,4,,,,,,,,,,,,,,,,,,,,,,,,,,,,,,,,,,,,,,,,,,,1.09,373.803564700007,None,374.8947296999977,None,space,0,0.550507900014054,374.8947296999977,None,375.4576397999772,None,,,,,,,,,,,,,,,,,,,,,,,,,,,,,,,P016,fencog,1,Pre,2021_Oct_25_1225,N-Back (New Version 2021),2021.1.4,120.2022763916716,
Conditions/Version_1Pr/threeback(1)_v1.xlsx,New rule: Press 'space' when you see 3-back (i.e. the same letter as the one that appeared 3 letters ago.),Y,None,,,,,0,3,3,3,0,5,5,5,,,,,,,,,,,,,,,,,,,,,,,,,,,,,,,,,,,,,,,,,,,1.215,376.96091199998045,None,378.17934790003346,None,None,1,,378.17934790003346,None,380.1864280999871,None,,,,,,,,,,,,,,,,,,,,,,,,,,,,,,,P016,fencog,1,Pre,2021_Oct_25_1225,N-Back (New Version 2021),2021.1.4,120.2022763916716,
Conditions/Version_1Pr/threeback(1)_v1.xlsx,New rule: Press 'space' when you see 3-back (i.e. the same letter as the one that appeared 3 letters ago.),q,None,,,,,0,3,3,3,0,6,6,6,,,,,,,,,,,,,,,,,,,,,,,,,,,,,,,,,,,,,,,,,,,1.89,381.68467460002284,None,383.5780615999829,None,None,1,,383.5780615999829,None,385.58339430001797,None,,,,,,,,,,,,,,,,,,,,,,,,,,,,,,,P016,fencog,1,Pre,2021_Oct_25_1225,N-Back (New Version 2021),2021.1.4,120.2022763916716,
Conditions/Version_1Pr/threeback(1)_v1.xlsx,New rule: Press 'space' when you see 3-back (i.e. the same letter as the one that appeared 3 letters ago.),A,space,,,,,0,3,3,3,0,7,7,7,,,,,,,,,,,,,,,,,,,,,,,,,,,,,,,,,,,,,,,,,,,1.29,387.0826109999907,None,388.3751855000155,None,None,0,,388.3751855000155,None,390.38400800002273,None,,,,,,,,,,,,,,,,,,,,,,,,,,,,,,,P016,fencog,1,Pre,2021_Oct_25_1225,N-Back (New Version 2021),2021.1.4,120.2022763916716,
Conditions/Version_1Pr/threeback(1)_v1.xlsx,New rule: Press 'space' when you see 3-back (i.e. the same letter as the one that appeared 3 letters ago.),y,None,,,,,0,3,3,3,0,8,8,8,,,,,,,,,,,,,,,,,,,,,,,,,,,,,,,,,,,,,,,,,,,2.015,391.8814990000101,None,393.8983429999789,None,space,0,0.6989019999746233,393.8983429999789,None,394.6097402999876,None,,,,,,,,,,,,,,,,,,,,,,,,,,,,,,,P016,fencog,1,Pre,2021_Oct_25_1225,N-Back (New Version 2021),2021.1.4,120.2022763916716,
Conditions/Version_1Pr/threeback(1)_v1.xlsx,New rule: Press 'space' when you see 3-back (i.e. the same letter as the one that appeared 3 letters ago.),r,None,,,,,0,3,3,3,0,9,9,9,,,,,,,,,,,,,,,,,,,,,,,,,,,,,,,,,,,,,,,,,,,1.69,396.113611400011,None,397.80455390003044,None,space,0,0.6247663999674842,397.80455390003044,None,398.43814749998273,None,,,,,,,,,,,,,,,,,,,,,,,,,,,,,,,P016,fencog,1,Pre,2021_Oct_25_1225,N-Back (New Version 2021),2021.1.4,120.2022763916716,
Conditions/Version_1Pr/threeback(1)_v1.xlsx,New rule: Press 'space' when you see 3-back (i.e. the same letter as the one that appeared 3 letters ago.),,,,,,,0,3,3,3,,,,,,,,,,,,,,,,,,,,,,,,,,,,,,,,,,,,,,,,,,,,,,,,,,,,,,,,,,,,,,,,,,,,,,,,,,,,,,,,,,,,,,,,,P016,fencog,1,Pre,2021_Oct_25_1225,N-Back (New Version 2021),2021.1.4,120.2022763916716,
,,,,,,,,,,,,,,,,,,,,,,,,,,,,,,,,,,,,,,,,,,,,,,,,,,,,,,,,,,,,,,,,,,,,,,399.94674470002064,None,space,7.728062200010754,400.43721970001934,None,,,,,,,,,,,,,,,,,,,,,,,,,P016,fencog,1,Pre,2021_Oct_25_1225,N-Back (New Version 2021),2021.1.4,120.2022763916716,
,,,,,,,,,,,,,,,,,,,,,,,,,,,,,,,,,,,,,,,,,,,,,,,,,,,,,,,,,,,,,,,,,,,,,,,,,,,,408.21126469998853,None,space,2.414695900049992,408.7021057999809,None,,,,,,,,,,,,,,,,,,,P016,fencog,1,Pre,2021_Oct_25_1225,N-Back (New Version 2021),2021.1.4,120.2022763916716,
,,,,Conditions/Version_1/zeroback(1)_v1.xlsx,Rule: Press 'space' when you see the letter 'x' or 'X'.,b,None,,,,,,,,,0,0,0,0,0,0,0,0,,,,,,,,,,,,,,,,,,,,,,,,,,,,,,,,,,,,,,,,,,,,,,,,,,,,,,,,,,,411.2201437000185,None,414.21009190002223,None,space,1.6831212000106461,414.21009190002223,None,411.2201437000185,None,1.7664,417.6911295999889,None,None,1,417.6911295999889,None,,P016,fencog,1,Pre,2021_Oct_25_1225,N-Back (New Version 2021),2021.1.4,120.2022763916716,
,,,,Conditions/Version_1/zeroback(1)_v1.xlsx,Rule: Press 'space' when you see the letter 'x' or 'X'.,T,None,,,,,,,,,0,0,0,0,0,1,1,1,,,,,,,,,,,,,,,,,,,,,,,,,,,,,,,,,,,,,,,,,,,,,,,,,,,,,,,,,,,,,,,,,,,,,1.661,421.3651699000038,None,None,1,421.3651699000038,None,,P016,fencog,1,Pre,2021_Oct_25_1225,N-Back (New Version 2021),2021.1.4,120.2022763916716,
,,,,Conditions/Version_1/zeroback(1)_v1.xlsx,Rule: Press 'space' when you see the letter 'x' or 'X'.,L,None,,,,,,,,,0,0,0,0,0,2,2,2,,,,,,,,,,,,,,,,,,,,,,,,,,,,,,,,,,,,,,,,,,,,,,,,,,,,,,,,,,,,,,,,,,,,,1.5122,424.8933376999921,None,None,1,424.8933376999921,None,,P016,fencog,1,Pre,2021_Oct_25_1225,N-Back (New Version 2021),2021.1.4,120.2022763916716,
,,,,Conditions/Version_1/zeroback(1)_v1.xlsx,Rule: Press 'space' when you see the letter 'x' or 'X'.,x,space,,,,,,,,,0,0,0,0,0,3,3,3,,,,,,,,,,,,,,,,,,,,,,,,,,,,,,,,,,,,,,,,,,,,,,,,,,,,,,,,,,,,,,,,,,,,,1.0782,427.9864664999768,None,space,1,427.9864664999768,None,1.8025493999593891,P016,fencog,1,Pre,2021_Oct_25_1225,N-Back (New Version 2021),2021.1.4,120.2022763916716,
,,,,Conditions/Version_1/zeroback(1)_v1.xlsx,Rule: Press 'space' when you see the letter 'x' or 'X'.,o,None,,,,,,,,,0,0,0,0,0,4,4,4,,,,,,,,,,,,,,,,,,,,,,,,,,,,,,,,,,,,,,,,,,,,,,,,,,,,,,,,,,,,,,,,,,,,,1.9276,431.9225848999922,None,None,1,431.9225848999922,None,,P016,fencog,1,Pre,2021_Oct_25_1225,N-Back (New Version 2021),2021.1.4,120.2022763916716,
,,,,Conditions/Version_1/zeroback(1)_v1.xlsx,Rule: Press 'space' when you see the letter 'x' or 'X'.,P,None,,,,,,,,,0,0,0,0,0,5,5,5,,,,,,,,,,,,,,,,,,,,,,,,,,,,,,,,,,,,,,,,,,,,,,,,,,,,,,,,,,,,,,,,,,,,,1.537,435.4690929999924,None,None,1,435.4690929999924,None,,P016,fencog,1,Pre,2021_Oct_25_1225,N-Back (New Version 2021),2021.1.4,120.2022763916716,
,,,,Conditions/Version_1/zeroback(1)_v1.xlsx,Rule: Press 'space' when you see the letter 'x' or 'X'.,X,space,,,,,,,,,0,0,0,0,0,6,6,6,,,,,,,,,,,,,,,,,,,,,,,,,,,,,,,,,,,,,,,,,,,,,,,,,,,,,,,,,,,,,,,,,,,,,1.7416,439.21823890000815,None,space,1,439.21823890000815,None,0.3719689999707043,P016,fencog,1,Pre,2021_Oct_25_1225,N-Back (New Version 2021),2021.1.4,120.2022763916716,
,,,,Conditions/Version_1/zeroback(1)_v1.xlsx,Rule: Press 'space' when you see the letter 'x' or 'X'.,n,None,,,,,,,,,0,0,0,0,0,7,7,7,,,,,,,,,,,,,,,,,,,,,,,,,,,,,,,,,,,,,,,,,,,,,,,,,,,,,,,,,,,,,,,,,,,,,1.1898,442.4198042000062,None,None,1,442.4198042000062,None,,P016,fencog,1,Pre,2021_Oct_25_1225,N-Back (New Version 2021),2021.1.4,120.2022763916716,
,,,,Conditions/Version_1/zeroback(1)_v1.xlsx,Rule: Press 'space' when you see the letter 'x' or 'X'.,M,None,,,,,,,,,0,0,0,0,0,8,8,8,,,,,,,,,,,,,,,,,,,,,,,,,,,,,,,,,,,,,,,,,,,,,,,,,,,,,,,,,,,,,,,,,,,,,1.9524,446.3874450000003,None,None,1,446.3874450000003,None,,P016,fencog,1,Pre,2021_Oct_25_1225,N-Back (New Version 2021),2021.1.4,120.2022763916716,
,,,,Conditions/Version_1/zeroback(1)_v1.xlsx,Rule: Press 'space' when you see the letter 'x' or 'X'.,a,None,,,,,,,,,0,0,0,0,0,9,9,9,,,,,,,,,,,,,,,,,,,,,,,,,,,,,,,,,,,,,,,,,,,,,,,,,,,,,,,,,,,,,,,,,,,,,1.8656,450.24946999998065,None,None,1,450.24946999998065,None,,P016,fencog,1,Pre,2021_Oct_25_1225,N-Back (New Version 2021),2021.1.4,120.2022763916716,
,,,,Conditions/Version_1/zeroback(1)_v1.xlsx,Rule: Press 'space' when you see the letter 'x' or 'X'.,,,,,,,,,,,0,0,0,0,,,,,,,,,,,,,,,,,,,,,,,,,,,,,,,,,,,,,,,,,,,,,,,,,,,,,,,,,,,,,,,,,,,,,,,,,,,,,,,,,P016,fencog,1,Pre,2021_Oct_25_1225,N-Back (New Version 2021),2021.1.4,120.2022763916716,
,,,,Conditions/Version_1/oneback(1)_v1.xlsx,New rule: Press 'space' when you see 1-back (i.e. the same letter as the one that appeared 1 letter ago.),b,None,,,,,,,,,0,1,1,1,0,0,0,0,,,,,,,,,,,,,,,,,,,,,,,,,,,,,,,,,,,,,,,,,,,,,,,,,,,,,,,,,,,452.2908352999948,None,455.2649799999781,None,space,0.7479906000080518,455.2649799999781,None,452.2908352999948,None,1.6982,457.73727179999696,None,None,1,457.73727179999696,None,,P016,fencog,1,Pre,2021_Oct_25_1225,N-Back (New Version 2021),2021.1.4,120.2022763916716,
,,,,Conditions/Version_1/oneback(1)_v1.xlsx,New rule: Press 'space' when you see 1-back (i.e. the same letter as the one that appeared 1 letter ago.),p,None,,,,,,,,,0,1,1,1,0,1,1,1,,,,,,,,,,,,,,,,,,,,,,,,,,,,,,,,,,,,,,,,,,,,,,,,,,,,,,,,,,,,,,,,,,,,,1.754,461.49947470001644,None,None,1,461.49947470001644,None,,P016,fencog,1,Pre,2021_Oct_25_1225,N-Back (New Version 2021),2021.1.4,120.2022763916716,
,,,,Conditions/Version_1/oneback(1)_v1.xlsx,New rule: Press 'space' when you see 1-back (i.e. the same letter as the one that appeared 1 letter ago.),M,None,,,,,,,,,0,1,1,1,0,2,2,2,,,,,,,,,,,,,,,,,,,,,,,,,,,,,,,,,,,,,,,,,,,,,,,,,,,,,,,,,,,,,,,,,,,,,1.1588,464.6609539000201,None,None,1,464.6609539000201,None,,P016,fencog,1,Pre,2021_Oct_25_1225,N-Back (New Version 2021),2021.1.4,120.2022763916716,
,,,,Conditions/Version_1/oneback(1)_v1.xlsx,New rule: Press 'space' when you see 1-back (i.e. the same letter as the one that appeared 1 letter ago.),M,space,,,,,,,,,0,1,1,1,0,3,3,3,,,,,,,,,,,,,,,,,,,,,,,,,,,,,,,,,,,,,,,,,,,,,,,,,,,,,,,,,,,,,,,,,,,,,1.2952,467.96725340001285,None,space,1,467.96725340001285,None,0.5175572999869473,P016,fencog,1,Pre,2021_Oct_25_1225,N-Back (New Version 2021),2021.1.4,120.2022763916716,
,,,,Conditions/Version_1/oneback(1)_v1.xlsx,New rule: Press 'space' when you see 1-back (i.e. the same letter as the one that appeared 1 letter ago.),n,None,,,,,,,,,0,1,1,1,0,4,4,4,,,,,,,,,,,,,,,,,,,,,,,,,,,,,,,,,,,,,,,,,,,,,,,,,,,,,,,,,,,,,,,,,,,,,1.4316,471.3994638000149,None,None,1,471.3994638000149,None,,P016,fencog,1,Pre,2021_Oct_25_1225,N-Back (New Version 2021),2021.1.4,120.2022763916716,
,,,,Conditions/Version_1/oneback(1)_v1.xlsx,New rule: Press 'space' when you see 1-back (i.e. the same letter as the one that appeared 1 letter ago.),g,None,,,,,,,,,0,1,1,1,0,5,5,5,,,,,,,,,,,,,,,,,,,,,,,,,,,,,,,,,,,,,,,,,,,,,,,,,,,,,,,,,,,,,,,,,,,,,1.475,474.87335980002536,None,None,1,474.87335980002536,None,,P016,fencog,1,Pre,2021_Oct_25_1225,N-Back (New Version 2021),2021.1.4,120.2022763916716,
,,,,Conditions/Version_1/oneback(1)_v1.xlsx,New rule: Press 'space' when you see 1-back (i.e. the same letter as the one that appeared 1 letter ago.),P,None,,,,,,,,,0,1,1,1,0,6,6,6,,,,,,,,,,,,,,,,,,,,,,,,,,,,,,,,,,,,,,,,,,,,,,,,,,,,,,,,,,,,,,,,,,,,,1.9834,478.8642905000015,None,None,1,478.8642905000015,None,,P016,fencog,1,Pre,2021_Oct_25_1225,N-Back (New Version 2021),2021.1.4,120.2022763916716,
,,,,Conditions/Version_1/oneback(1)_v1.xlsx,New rule: Press 'space' when you see 1-back (i.e. the same letter as the one that appeared 1 letter ago.),o,None,,,,,,,,,0,1,1,1,0,7,7,7,,,,,,,,,,,,,,,,,,,,,,,,,,,,,,,,,,,,,,,,,,,,,,,,,,,,,,,,,,,,,,,,,,,,,1.661,482.5307443999918,None,None,1,482.5307443999918,None,,P016,fencog,1,Pre,2021_Oct_25_1225,N-Back (New Version 2021),2021.1.4,120.2022763916716,
,,,,Conditions/Version_1/oneback(1)_v1.xlsx,New rule: Press 'space' when you see 1-back (i.e. the same letter as the one that appeared 1 letter ago.),f,None,,,,,,,,,0,1,1,1,0,8,8,8,,,,,,,,,,,,,,,,,,,,,,,,,,,,,,,,,,,,,,,,,,,,,,,,,,,,,,,,,,,,,,,,,,,,,1.9772,486.52128739998443,None,None,1,486.52128739998443,None,,P016,fencog,1,Pre,2021_Oct_25_1225,N-Back (New Version 2021),2021.1.4,120.2022763916716,
,,,,Conditions/Version_1/oneback(1)_v1.xlsx,New rule: Press 'space' when you see 1-back (i.e. the same letter as the one that appeared 1 letter ago.),F,space,,,,,,,,,0,1,1,1,0,9,9,9,,,,,,,,,,,,,,,,,,,,,,,,,,,,,,,,,,,,,,,,,,,,,,,,,,,,,,,,,,,,,,,,,,,,,1.6238,490.15497590001905,None,space,1,490.15497590001905,None,0.34672889998182654,P016,fencog,1,Pre,2021_Oct_25_1225,N-Back (New Version 2021),2021.1.4,120.2022763916716,
,,,,Conditions/Version_1/oneback(1)_v1.xlsx,New rule: Press 'space' when you see 1-back (i.e. the same letter as the one that appeared 1 letter ago.),,,,,,,,,,,0,1,1,1,,,,,,,,,,,,,,,,,,,,,,,,,,,,,,,,,,,,,,,,,,,,,,,,,,,,,,,,,,,,,,,,,,,,,,,,,,,,,,,,,P016,fencog,1,Pre,2021_Oct_25_1225,N-Back (New Version 2021),2021.1.4,120.2022763916716,
,,,,Conditions/Version_1/twoback(1)_v1.xlsx,New rule: Press 'space' when you see 2-back (i.e. the same letter as the one that appeared 2 letters ago.),b,None,,,,,,,,,0,2,2,2,0,0,0,0,,,,,,,,,,,,,,,,,,,,,,,,,,,,,,,,,,,,,,,,,,,,,,,,,,,,,,,,,,,492.1796368000214,None,495.16965140000684,None,space,0.1474527000100352,495.16965140000684,None,492.1796368000214,None,1.9958,497.3418010000023,None,None,1,497.3418010000023,None,,P016,fencog,1,Pre,2021_Oct_25_1225,N-Back (New Version 2021),2021.1.4,120.2022763916716,
,,,,Conditions/Version_1/twoback(1)_v1.xlsx,New rule: Press 'space' when you see 2-back (i.e. the same letter as the one that appeared 2 letters ago.),h,None,,,,,,,,,0,2,2,2,0,1,1,1,,,,,,,,,,,,,,,,,,,,,,,,,,,,,,,,,,,,,,,,,,,,,,,,,,,,,,,,,,,,,,,,,,,,,1.2642,500.6083806999959,None,None,1,500.6083806999959,None,,P016,fencog,1,Pre,2021_Oct_25_1225,N-Back (New Version 2021),2021.1.4,120.2022763916716,
,,,,Conditions/Version_1/twoback(1)_v1.xlsx,New rule: Press 'space' when you see 2-back (i.e. the same letter as the one that appeared 2 letters ago.),j,None,,,,,,,,,0,2,2,2,0,2,2,2,,,,,,,,,,,,,,,,,,,,,,,,,,,,,,,,,,,,,,,,,,,,,,,,,,,,,,,,,,,,,,,,,,,,,1.289,503.9211786999949,None,None,1,503.9211786999949,None,,P016,fencog,1,Pre,2021_Oct_25_1225,N-Back (New Version 2021),2021.1.4,120.2022763916716,
,,,,Conditions/Version_1/twoback(1)_v1.xlsx,New rule: Press 'space' when you see 2-back (i.e. the same letter as the one that appeared 2 letters ago.),H,space,,,,,,,,,0,2,2,2,0,3,3,3,,,,,,,,,,,,,,,,,,,,,,,,,,,,,,,,,,,,,,,,,,,,,,,,,,,,,,,,,,,,,,,,,,,,,1.0844,507.00660389999393,None,space,1,507.00660389999393,None,0.5579172999714501,P016,fencog,1,Pre,2021_Oct_25_1225,N-Back (New Version 2021),2021.1.4,120.2022763916716,
,,,,Conditions/Version_1/twoback(1)_v1.xlsx,New rule: Press 'space' when you see 2-back (i.e. the same letter as the one that appeared 2 letters ago.),p,None,,,,,,,,,0,2,2,2,0,4,4,4,,,,,,,,,,,,,,,,,,,,,,,,,,,,,,,,,,,,,,,,,,,,,,,,,,,,,,,,,,,,,,,,,,,,,1.9772,510.99741910002194,None,None,1,510.99741910002194,None,,P016,fencog,1,Pre,2021_Oct_25_1225,N-Back (New Version 2021),2021.1.4,120.2022763916716,
,,,,Conditions/Version_1/twoback(1)_v1.xlsx,New rule: Press 'space' when you see 2-back (i.e. the same letter as the one that appeared 2 letters ago.),p,None,,,,,,,,,0,2,2,2,0,5,5,5,,,,,,,,,,,,,,,,,,,,,,,,,,,,,,,,,,,,,,,,,,,,,,,,,,,,,,,,,,,,,,,,,,,,,1.5246,514.5283854000154,None,None,1,514.5283854000154,None,,P016,fencog,1,Pre,2021_Oct_25_1225,N-Back (New Version 2021),2021.1.4,120.2022763916716,
,,,,Conditions/Version_1/twoback(1)_v1.xlsx,New rule: Press 'space' when you see 2-back (i.e. the same letter as the one that appeared 2 letters ago.),w,None,,,,,,,,,0,2,2,2,0,6,6,6,,,,,,,,,,,,,,,,,,,,,,,,,,,,,,,,,,,,,,,,,,,,,,,,,,,,,,,,,,,,,,,,,,,,,1.9028,518.4354511999991,None,None,1,518.4354511999991,None,,P016,fencog,1,Pre,2021_Oct_25_1225,N-Back (New Version 2021),2021.1.4,120.2022763916716,
,,,,Conditions/Version_1/twoback(1)_v1.xlsx,New rule: Press 'space' when you see 2-back (i.e. the same letter as the one that appeared 2 letters ago.),R,None,,,,,,,,,0,2,2,2,0,7,7,7,,,,,,,,,,,,,,,,,,,,,,,,,,,,,,,,,,,,,,,,,,,,,,,,,,,,,,,,,,,,,,,,,,,,,1.3324,521.7703944999957,None,None,1,521.7703944999957,None,,P016,fencog,1,Pre,2021_Oct_25_1225,N-Back (New Version 2021),2021.1.4,120.2022763916716,
,,,,Conditions/Version_1/twoback(1)_v1.xlsx,New rule: Press 'space' when you see 2-back (i.e. the same letter as the one that appeared 2 letters ago.),a,None,,,,,,,,,0,2,2,2,0,8,8,8,,,,,,,,,,,,,,,,,,,,,,,,,,,,,,,,,,,,,,,,,,,,,,,,,,,,,,,,,,,,,,,,,,,,,1.1154,524.8927576999995,None,None,1,524.8927576999995,None,,P016,fencog,1,Pre,2021_Oct_25_1225,N-Back (New Version 2021),2021.1.4,120.2022763916716,
,,,,Conditions/Version_1/twoback(1)_v1.xlsx,New rule: Press 'space' when you see 2-back (i.e. the same letter as the one that appeared 2 letters ago.),r,space,,,,,,,,,0,2,2,2,0,9,9,9,,,,,,,,,,,,,,,,,,,,,,,,,,,,,,,,,,,,,,,,,,,,,,,,,,,,,,,,,,,,,,,,,,,,,1.537,528.441598800011,None,space,1,528.441598800011,None,0.40368250000756234,P016,fencog,1,Pre,2021_Oct_25_1225,N-Back (New Version 2021),2021.1.4,120.2022763916716,
,,,,Conditions/Version_1/twoback(1)_v1.xlsx,New rule: Press 'space' when you see 2-back (i.e. the same letter as the one that appeared 2 letters ago.),,,,,,,,,,,0,2,2,2,,,,,,,,,,,,,,,,,,,,,,,,,,,,,,,,,,,,,,,,,,,,,,,,,,,,,,,,,,,,,,,,,,,,,,,,,,,,,,,,,P016,fencog,1,Pre,2021_Oct_25_1225,N-Back (New Version 2021),2021.1.4,120.2022763916716,
,,,,Conditions/Version_1/threeback(1)_v1.xlsx,New rule: Press 'space' when you see 3-back (i.e. the same letter as the one that appeared 3 letters ago.),r,None,,,,,,,,,0,3,3,3,0,0,0,0,,,,,,,,,,,,,,,,,,,,,,,,,,,,,,,,,,,,,,,,,,,,,,,,,,,,,,,,,,,530.4706222999957,None,533.4581483000075,None,space,2.315191200003028,533.4581483000075,None,530.4706222999957,None,1.3634,537.172764500021,None,None,1,537.172764500021,None,,P016,fencog,1,Pre,2021_Oct_25_1225,N-Back (New Version 2021),2021.1.4,120.2022763916716,
,,,,Conditions/Version_1/threeback(1)_v1.xlsx,New rule: Press 'space' when you see 3-back (i.e. the same letter as the one that appeared 3 letters ago.),o,None,,,,,,,,,0,3,3,3,0,1,1,1,,,,,,,,,,,,,,,,,,,,,,,,,,,,,,,,,,,,,,,,,,,,,,,,,,,,,,,,,,,,,,,,,,,,,1.5308,540.7125234000268,None,None,1,540.7125234000268,None,,P016,fencog,1,Pre,2021_Oct_25_1225,N-Back (New Version 2021),2021.1.4,120.2022763916716,
,,,,Conditions/Version_1/threeback(1)_v1.xlsx,New rule: Press 'space' when you see 3-back (i.e. the same letter as the one that appeared 3 letters ago.),P,None,,,,,,,,,0,3,3,3,0,2,2,2,,,,,,,,,,,,,,,,,,,,,,,,,,,,,,,,,,,,,,,,,,,,,,,,,,,,,,,,,,,,,,,,,,,,,1.8966,544.6115313000046,None,None,1,544.6115313000046,None,,P016,fencog,1,Pre,2021_Oct_25_1225,N-Back (New Version 2021),2021.1.4,120.2022763916716,
,,,,Conditions/Version_1/threeback(1)_v1.xlsx,New rule: Press 'space' when you see 3-back (i.e. the same letter as the one that appeared 3 letters ago.),R,space,,,,,,,,,0,3,3,3,0,3,3,3,,,,,,,,,,,,,,,,,,,,,,,,,,,,,,,,,,,,,,,,,,,,,,,,,,,,,,,,,,,,,,,,,,,,,1.7106,548.3300588999991,None,space,1,548.3300588999991,None,0.46690769999986514,P016,fencog,1,Pre,2021_Oct_25_1225,N-Back (New Version 2021),2021.1.4,120.2022763916716,
,,,,Conditions/Version_1/threeback(1)_v1.xlsx,New rule: Press 'space' when you see 3-back (i.e. the same letter as the one that appeared 3 letters ago.),p,None,,,,,,,,,0,3,3,3,0,4,4,4,,,,,,,,,,,,,,,,,,,,,,,,,,,,,,,,,,,,,,,,,,,,,,,,,,,,,,,,,,,,,,,,,,,,,1.2456,551.5845247000107,None,None,1,551.5845247000107,None,,P016,fencog,1,Pre,2021_Oct_25_1225,N-Back (New Version 2021),2021.1.4,120.2022763916716,
,,,,Conditions/Version_1/threeback(1)_v1.xlsx,New rule: Press 'space' when you see 3-back (i.e. the same letter as the one that appeared 3 letters ago.),E,None,,,,,,,,,0,3,3,3,0,5,5,5,,,,,,,,,,,,,,,,,,,,,,,,,,,,,,,,,,,,,,,,,,,,,,,,,,,,,,,,,,,,,,,,,,,,,1.6424,555.2437562000123,None,None,1,555.2437562000123,None,,P016,fencog,1,Pre,2021_Oct_25_1225,N-Back (New Version 2021),2021.1.4,120.2022763916716,
,,,,Conditions/Version_1/threeback(1)_v1.xlsx,New rule: Press 'space' when you see 3-back (i.e. the same letter as the one that appeared 3 letters ago.),e,None,,,,,,,,,0,3,3,3,0,6,6,6,,,,,,,,,,,,,,,,,,,,,,,,,,,,,,,,,,,,,,,,,,,,,,,,,,,,,,,,,,,,,,,,,,,,,1.7726,559.0234419999761,None,space,0,559.0234419999761,None,0.8454996999935247,P016,fencog,1,Pre,2021_Oct_25_1225,N-Back (New Version 2021),2021.1.4,120.2022763916716,
,,,,Conditions/Version_1/threeback(1)_v1.xlsx,New rule: Press 'space' when you see 3-back (i.e. the same letter as the one that appeared 3 letters ago.),m,None,,,,,,,,,0,3,3,3,0,7,7,7,,,,,,,,,,,,,,,,,,,,,,,,,,,,,,,,,,,,,,,,,,,,,,,,,,,,,,,,,,,,,,,,,,,,,1.5928,562.6236749999807,None,None,1,562.6236749999807,None,,P016,fencog,1,Pre,2021_Oct_25_1225,N-Back (New Version 2021),2021.1.4,120.2022763916716,
,,,,Conditions/Version_1/threeback(1)_v1.xlsx,New rule: Press 'space' when you see 3-back (i.e. the same letter as the one that appeared 3 letters ago.),n,None,,,,,,,,,0,3,3,3,0,8,8,8,,,,,,,,,,,,,,,,,,,,,,,,,,,,,,,,,,,,,,,,,,,,,,,,,,,,,,,,,,,,,,,,,,,,,1.5556,566.1809691999806,None,None,1,566.1809691999806,None,,P016,fencog,1,Pre,2021_Oct_25_1225,N-Back (New Version 2021),2021.1.4,120.2022763916716,
,,,,Conditions/Version_1/threeback(1)_v1.xlsx,New rule: Press 'space' when you see 3-back (i.e. the same letter as the one that appeared 3 letters ago.),e,space,,,,,,,,,0,3,3,3,0,9,9,9,,,,,,,,,,,,,,,,,,,,,,,,,,,,,,,,,,,,,,,,,,,,,,,,,,,,,,,,,,,,,,,,,,,,,1.5184,569.713857900002,None,space,1,569.713857900002,None,1.2747883999836631,P016,fencog,1,Pre,2021_Oct_25_1225,N-Back (New Version 2021),2021.1.4,120.2022763916716,
,,,,Conditions/Version_1/threeback(1)_v1.xlsx,New rule: Press 'space' when you see 3-back (i.e. the same letter as the one that appeared 3 letters ago.),,,,,,,,,,,0,3,3,3,,,,,,,,,,,,,,,,,,,,,,,,,,,,,,,,,,,,,,,,,,,,,,,,,,,,,,,,,,,,,,,,,,,,,,,,,,,,,,,,,P016,fencog,1,Pre,2021_Oct_25_1225,N-Back (New Version 2021),2021.1.4,120.2022763916716,
,,,,Conditions/Version_1/oneback(2)_v1.xlsx,New rule: Press 'space' when you see 1-back (i.e. the same letter as the one that appeared 1 letter ago.),q,None,,,,,,,,,0,4,4,4,0,0,0,0,,,,,,,,,,,,,,,,,,,,,,,,,,,,,,,,,,,,,,,,,,,,,,,,,,,,,,,,,,,571.7401306999964,None,574.730257200019,None,space,0.9950835999916308,574.730257200019,None,571.7401306999964,None,1.4874,577.234762499982,None,None,1,577.234762499982,None,,P016,fencog,1,Pre,2021_Oct_25_1225,N-Back (New Version 2021),2021.1.4,120.2022763916716,
,,,,Conditions/Version_1/oneback(2)_v1.xlsx,New rule: Press 'space' when you see 1-back (i.e. the same letter as the one that appeared 1 letter ago.),Q,space,,,,,,,,,0,4,4,4,0,1,1,1,,,,,,,,,,,,,,,,,,,,,,,,,,,,,,,,,,,,,,,,,,,,,,,,,,,,,,,,,,,,,,,,,,,,,1.4502,580.6868117999984,None,space,1,580.6868117999984,None,0.5419378000078723,P016,fencog,1,Pre,2021_Oct_25_1225,N-Back (New Version 2021),2021.1.4,120.2022763916716,
,,,,Conditions/Version_1/oneback(2)_v1.xlsx,New rule: Press 'space' when you see 1-back (i.e. the same letter as the one that appeared 1 letter ago.),P,None,,,,,,,,,0,4,4,4,0,2,2,2,,,,,,,,,,,,,,,,,,,,,,,,,,,,,,,,,,,,,,,,,,,,,,,,,,,,,,,,,,,,,,,,,,,,,1.103,583.7995972000062,None,None,1,583.7995972000062,None,,P016,fencog,1,Pre,2021_Oct_25_1225,N-Back (New Version 2021),2021.1.4,120.2022763916716,
,,,,Conditions/Version_1/oneback(2)_v1.xlsx,New rule: Press 'space' when you see 1-back (i.e. the same letter as the one that appeared 1 letter ago.),o,None,,,,,,,,,0,4,4,4,0,3,3,3,,,,,,,,,,,,,,,,,,,,,,,,,,,,,,,,,,,,,,,,,,,,,,,,,,,,,,,,,,,,,,,,,,,,,1.5928,587.4055283999769,None,None,1,587.4055283999769,None,,P016,fencog,1,Pre,2021_Oct_25_1225,N-Back (New Version 2021),2021.1.4,120.2022763916716,
,,,,Conditions/Version_1/oneback(2)_v1.xlsx,New rule: Press 'space' when you see 1-back (i.e. the same letter as the one that appeared 1 letter ago.),m,None,,,,,,,,,0,4,4,4,0,4,4,4,,,,,,,,,,,,,,,,,,,,,,,,,,,,,,,,,,,,,,,,,,,,,,,,,,,,,,,,,,,,,,,,,,,,,1.6114,591.0232001999975,None,None,1,591.0232001999975,None,,P016,fencog,1,Pre,2021_Oct_25_1225,N-Back (New Version 2021),2021.1.4,120.2022763916716,
,,,,Conditions/Version_1/oneback(2)_v1.xlsx,New rule: Press 'space' when you see 1-back (i.e. the same letter as the one that appeared 1 letter ago.),Z,None,,,,,,,,,0,4,4,4,0,5,5,5,,,,,,,,,,,,,,,,,,,,,,,,,,,,,,,,,,,,,,,,,,,,,,,,,,,,,,,,,,,,,,,,,,,,,1.8718,594.9050366000156,None,None,1,594.9050366000156,None,,P016,fencog,1,Pre,2021_Oct_25_1225,N-Back (New Version 2021),2021.1.4,120.2022763916716,
,,,,Conditions/Version_1/oneback(2)_v1.xlsx,New rule: Press 'space' when you see 1-back (i.e. the same letter as the one that appeared 1 letter ago.),c,None,,,,,,,,,0,4,4,4,0,6,6,6,,,,,,,,,,,,,,,,,,,,,,,,,,,,,,,,,,,,,,,,,,,,,,,,,,,,,,,,,,,,,,,,,,,,,1.63,598.5396204999997,None,None,1,598.5396204999997,None,,P016,fencog,1,Pre,2021_Oct_25_1225,N-Back (New Version 2021),2021.1.4,120.2022763916716,
,,,,Conditions/Version_1/oneback(2)_v1.xlsx,New rule: Press 'space' when you see 1-back (i.e. the same letter as the one that appeared 1 letter ago.),c,space,,,,,,,,,0,4,4,4,0,7,7,7,,,,,,,,,,,,,,,,,,,,,,,,,,,,,,,,,,,,,,,,,,,,,,,,,,,,,,,,,,,,,,,,,,,,,1.1526,601.7026368000079,None,space,1,601.7026368000079,None,0.6390549999778159,P016,fencog,1,Pre,2021_Oct_25_1225,N-Back (New Version 2021),2021.1.4,120.2022763916716,
,,,,Conditions/Version_1/oneback(2)_v1.xlsx,New rule: Press 'space' when you see 1-back (i.e. the same letter as the one that appeared 1 letter ago.),P,None,,,,,,,,,0,4,4,4,0,8,8,8,,,,,,,,,,,,,,,,,,,,,,,,,,,,,,,,,,,,,,,,,,,,,,,,,,,,,,,,,,,,,,,,,,,,,1.5866,605.2930176000227,None,None,1,605.2930176000227,None,,P016,fencog,1,Pre,2021_Oct_25_1225,N-Back (New Version 2021),2021.1.4,120.2022763916716,
,,,,Conditions/Version_1/oneback(2)_v1.xlsx,New rule: Press 'space' when you see 1-back (i.e. the same letter as the one that appeared 1 letter ago.),p,space,,,,,,,,,0,4,4,4,0,9,9,9,,,,,,,,,,,,,,,,,,,,,,,,,,,,,,,,,,,,,,,,,,,,,,,,,,,,,,,,,,,,,,,,,,,,,1.9524,609.2502423999831,None,space,1,609.2502423999831,None,0.6027634000056423,P016,fencog,1,Pre,2021_Oct_25_1225,N-Back (New Version 2021),2021.1.4,120.2022763916716,
,,,,Conditions/Version_1/oneback(2)_v1.xlsx,New rule: Press 'space' when you see 1-back (i.e. the same letter as the one that appeared 1 letter ago.),,,,,,,,,,,0,4,4,4,,,,,,,,,,,,,,,,,,,,,,,,,,,,,,,,,,,,,,,,,,,,,,,,,,,,,,,,,,,,,,,,,,,,,,,,,,,,,,,,,P016,fencog,1,Pre,2021_Oct_25_1225,N-Back (New Version 2021),2021.1.4,120.2022763916716,
,,,,Conditions/Version_1/zeroback(2)_v1.xlsx,New rule: Press 'space' when you see the letter 'x' or 'X'.,p,None,,,,,,,,,0,5,5,5,0,0,0,0,,,,,,,,,,,,,,,,,,,,,,,,,,,,,,,,,,,,,,,,,,,,,,,,,,,,,,,,,,,611.2908097000327,None,614.2764482999919,None,space,0.9919767999672331,614.2764482999919,None,611.2908097000327,None,1.971,617.2645752999815,None,None,1,617.2645752999815,None,,P016,fencog,1,Pre,2021_Oct_25_1225,N-Back (New Version 2021),2021.1.4,120.2022763916716,
,,,,Conditions/Version_1/zeroback(2)_v1.xlsx,New rule: Press 'space' when you see the letter 'x' or 'X'.,L,None,,,,,,,,,0,5,5,5,0,1,1,1,,,,,,,,,,,,,,,,,,,,,,,,,,,,,,,,,,,,,,,,,,,,,,,,,,,,,,,,,,,,,,,,,,,,,1.0658,620.3412204000051,None,None,1,620.3412204000051,None,,P016,fencog,1,Pre,2021_Oct_25_1225,N-Back (New Version 2021),2021.1.4,120.2022763916716,
,,,,Conditions/Version_1/zeroback(2)_v1.xlsx,New rule: Press 'space' when you see the letter 'x' or 'X'.,G,None,,,,,,,,,0,5,5,5,0,2,2,2,,,,,,,,,,,,,,,,,,,,,,,,,,,,,,,,,,,,,,,,,,,,,,,,,,,,,,,,,,,,,,,,,,,,,1.3758,623.7292754999944,None,None,1,623.7292754999944,None,,P016,fencog,1,Pre,2021_Oct_25_1225,N-Back (New Version 2021),2021.1.4,120.2022763916716,
,,,,Conditions/Version_1/zeroback(2)_v1.xlsx,New rule: Press 'space' when you see the letter 'x' or 'X'.,y,None,,,,,,,,,0,5,5,5,0,3,3,3,,,,,,,,,,,,,,,,,,,,,,,,,,,,,,,,,,,,,,,,,,,,,,,,,,,,,,,,,,,,,,,,,,,,,1.289,627.0287192999967,None,None,1,627.0287192999967,None,,P016,fencog,1,Pre,2021_Oct_25_1225,N-Back (New Version 2021),2021.1.4,120.2022763916716,
,,,,Conditions/Version_1/zeroback(2)_v1.xlsx,New rule: Press 'space' when you see the letter 'x' or 'X'.,Y,None,,,,,,,,,0,5,5,5,0,4,4,4,,,,,,,,,,,,,,,,,,,,,,,,,,,,,,,,,,,,,,,,,,,,,,,,,,,,,,,,,,,,,,,,,,,,,1.2022,630.2375106000109,None,None,1,630.2375106000109,None,,P016,fencog,1,Pre,2021_Oct_25_1225,N-Back (New Version 2021),2021.1.4,120.2022763916716,
,,,,Conditions/Version_1/zeroback(2)_v1.xlsx,New rule: Press 'space' when you see the letter 'x' or 'X'.,W,None,,,,,,,,,0,5,5,5,0,5,5,5,,,,,,,,,,,,,,,,,,,,,,,,,,,,,,,,,,,,,,,,,,,,,,,,,,,,,,,,,,,,,,,,,,,,,1.7726,634.0184164000093,None,None,1,634.0184164000093,None,,P016,fencog,1,Pre,2021_Oct_25_1225,N-Back (New Version 2021),2021.1.4,120.2022763916716,
,,,,Conditions/Version_1/zeroback(2)_v1.xlsx,New rule: Press 'space' when you see the letter 'x' or 'X'.,x,space,,,,,,,,,0,5,5,5,0,6,6,6,,,,,,,,,,,,,,,,,,,,,,,,,,,,,,,,,,,,,,,,,,,,,,,,,,,,,,,,,,,,,,,,,,,,,1.5928,637.6253213000018,None,space,1,637.6253213000018,None,0.44332540000323206,P016,fencog,1,Pre,2021_Oct_25_1225,N-Back (New Version 2021),2021.1.4,120.2022763916716,
,,,,Conditions/Version_1/zeroback(2)_v1.xlsx,New rule: Press 'space' when you see the letter 'x' or 'X'.,X,space,,,,,,,,,0,5,5,5,0,7,7,7,,,,,,,,,,,,,,,,,,,,,,,,,,,,,,,,,,,,,,,,,,,,,,,,,,,,,,,,,,,,,,,,,,,,,1.7974,641.4244939999771,None,space,1,641.4244939999771,None,0.4520745999761857,P016,fencog,1,Pre,2021_Oct_25_1225,N-Back (New Version 2021),2021.1.4,120.2022763916716,
,,,,Conditions/Version_1/zeroback(2)_v1.xlsx,New rule: Press 'space' when you see the letter 'x' or 'X'.,p,None,,,,,,,,,0,5,5,5,0,8,8,8,,,,,,,,,,,,,,,,,,,,,,,,,,,,,,,,,,,,,,,,,,,,,,,,,,,,,,,,,,,,,,,,,,,,,1.9834,645.408081200032,None,None,1,645.408081200032,None,,P016,fencog,1,Pre,2021_Oct_25_1225,N-Back (New Version 2021),2021.1.4,120.2022763916716,
,,,,Conditions/Version_1/zeroback(2)_v1.xlsx,New rule: Press 'space' when you see the letter 'x' or 'X'.,h,None,,,,,,,,,0,5,5,5,0,9,9,9,,,,,,,,,,,,,,,,,,,,,,,,,,,,,,,,,,,,,,,,,,,,,,,,,,,,,,,,,,,,,,,,,,,,,1.9958,649.4165999999968,None,None,1,649.4165999999968,None,,P016,fencog,1,Pre,2021_Oct_25_1225,N-Back (New Version 2021),2021.1.4,120.2022763916716,
,,,,Conditions/Version_1/zeroback(2)_v1.xlsx,New rule: Press 'space' when you see the letter 'x' or 'X'.,,,,,,,,,,,0,5,5,5,,,,,,,,,,,,,,,,,,,,,,,,,,,,,,,,,,,,,,,,,,,,,,,,,,,,,,,,,,,,,,,,,,,,,,,,,,,,,,,,,P016,fencog,1,Pre,2021_Oct_25_1225,N-Back (New Version 2021),2021.1.4,120.2022763916716,
,,,,Conditions/Version_1/threeback(2)_v1.xlsx,New rule: Press 'space' when you see 3-back (i.e. the same letter as the one that appeared 3 letters ago.),q,None,,,,,,,,,0,6,6,6,0,0,0,0,,,,,,,,,,,,,,,,,,,,,,,,,,,,,,,,,,,,,,,,,,,,,,,,,,,,,,,,,,,651.4433920999872,None,654.4304548000218,None,space,0.9498151000007056,654.4304548000218,None,651.4433920999872,None,1.4874,656.8952159000328,None,None,1,656.8952159000328,None,,P016,fencog,1,Pre,2021_Oct_25_1225,N-Back (New Version 2021),2021.1.4,120.2022763916716,
,,,,Conditions/Version_1/threeback(2)_v1.xlsx,New rule: Press 'space' when you see 3-back (i.e. the same letter as the one that appeared 3 letters ago.),Y,None,,,,,,,,,0,6,6,6,0,1,1,1,,,,,,,,,,,,,,,,,,,,,,,,,,,,,,,,,,,,,,,,,,,,,,,,,,,,,,,,,,,,,,,,,,,,,1.8656,660.7682704000035,None,None,1,660.7682704000035,None,,P016,fencog,1,Pre,2021_Oct_25_1225,N-Back (New Version 2021),2021.1.4,120.2022763916716,
,,,,Conditions/Version_1/threeback(2)_v1.xlsx,New rule: Press 'space' when you see 3-back (i.e. the same letter as the one that appeared 3 letters ago.),p,None,,,,,,,,,0,6,6,6,0,2,2,2,,,,,,,,,,,,,,,,,,,,,,,,,,,,,,,,,,,,,,,,,,,,,,,,,,,,,,,,,,,,,,,,,,,,,1.4812,664.2598320000106,None,None,1,664.2598320000106,None,,P016,fencog,1,Pre,2021_Oct_25_1225,N-Back (New Version 2021),2021.1.4,120.2022763916716,
,,,,Conditions/Version_1/threeback(2)_v1.xlsx,New rule: Press 'space' when you see 3-back (i.e. the same letter as the one that appeared 3 letters ago.),p,None,,,,,,,,,0,6,6,6,0,3,3,3,,,,,,,,,,,,,,,,,,,,,,,,,,,,,,,,,,,,,,,,,,,,,,,,,,,,,,,,,,,,,,,,,,,,,1.7292,667.9996531999786,None,None,1,667.9996531999786,None,,P016,fencog,1,Pre,2021_Oct_25_1225,N-Back (New Version 2021),2021.1.4,120.2022763916716,
,,,,Conditions/Version_1/threeback(2)_v1.xlsx,New rule: Press 'space' when you see 3-back (i.e. the same letter as the one that appeared 3 letters ago.),y,space,,,,,,,,,0,6,6,6,0,4,4,4,,,,,,,,,,,,,,,,,,,,,,,,,,,,,,,,,,,,,,,,,,,,,,,,,,,,,,,,,,,,,,,,,,,,,1.2704,671.2734135999926,None,space,1,671.2734135999926,None,1.1792251000297256,P016,fencog,1,Pre,2021_Oct_25_1225,N-Back (New Version 2021),2021.1.4,120.2022763916716,
,,,,Conditions/Version_1/threeback(2)_v1.xlsx,New rule: Press 'space' when you see 3-back (i.e. the same letter as the one that appeared 3 letters ago.),u,None,,,,,,,,,0,6,6,6,0,5,5,5,,,,,,,,,,,,,,,,,,,,,,,,,,,,,,,,,,,,,,,,,,,,,,,,,,,,,,,,,,,,,,,,,,,,,1.072,674.3475489999983,None,None,1,674.3475489999983,None,,P016,fencog,1,Pre,2021_Oct_25_1225,N-Back (New Version 2021),2021.1.4,120.2022763916716,
,,,,Conditions/Version_1/threeback(2)_v1.xlsx,New rule: Press 'space' when you see 3-back (i.e. the same letter as the one that appeared 3 letters ago.),P,space,,,,,,,,,0,6,6,6,0,6,6,6,,,,,,,,,,,,,,,,,,,,,,,,,,,,,,,,,,,,,,,,,,,,,,,,,,,,,,,,,,,,,,,,,,,,,1.413,677.7715817000135,None,space,1,677.7715817000135,None,1.2486607999890111,P016,fencog,1,Pre,2021_Oct_25_1225,N-Back (New Version 2021),2021.1.4,120.2022763916716,
,,,,Conditions/Version_1/threeback(2)_v1.xlsx,New rule: Press 'space' when you see 3-back (i.e. the same letter as the one that appeared 3 letters ago.),a,None,,,,,,,,,0,6,6,6,0,7,7,7,,,,,,,,,,,,,,,,,,,,,,,,,,,,,,,,,,,,,,,,,,,,,,,,,,,,,,,,,,,,,,,,,,,,,1.3014,681.0852957000025,None,None,1,681.0852957000025,None,,P016,fencog,1,Pre,2021_Oct_25_1225,N-Back (New Version 2021),2021.1.4,120.2022763916716,
,,,,Conditions/Version_1/threeback(2)_v1.xlsx,New rule: Press 'space' when you see 3-back (i.e. the same letter as the one that appeared 3 letters ago.),U,space,,,,,,,,,0,6,6,6,0,8,8,8,,,,,,,,,,,,,,,,,,,,,,,,,,,,,,,,,,,,,,,,,,,,,,,,,,,,,,,,,,,,,,,,,,,,,1.8346,684.9212495000102,None,None,0,684.9212495000102,None,,P016,fencog,1,Pre,2021_Oct_25_1225,N-Back (New Version 2021),2021.1.4,120.2022763916716,
,,,,Conditions/Version_1/threeback(2)_v1.xlsx,New rule: Press 'space' when you see 3-back (i.e. the same letter as the one that appeared 3 letters ago.),q,None,,,,,,,,,0,6,6,6,0,9,9,9,,,,,,,,,,,,,,,,,,,,,,,,,,,,,,,,,,,,,,,,,,,,,,,,,,,,,,,,,,,,,,,,,,,,,1.94,688.8682698999764,None,None,1,688.8682698999764,None,,P016,fencog,1,Pre,2021_Oct_25_1225,N-Back (New Version 2021),2021.1.4,120.2022763916716,
,,,,Conditions/Version_1/threeback(2)_v1.xlsx,New rule: Press 'space' when you see 3-back (i.e. the same letter as the one that appeared 3 letters ago.),,,,,,,,,,,0,6,6,6,,,,,,,,,,,,,,,,,,,,,,,,,,,,,,,,,,,,,,,,,,,,,,,,,,,,,,,,,,,,,,,,,,,,,,,,,,,,,,,,,P016,fencog,1,Pre,2021_Oct_25_1225,N-Back (New Version 2021),2021.1.4,120.2022763916716,
,,,,Conditions/Version_1/twoback(2)_v1.xlsx,New rule: Press 'space' when you see 2-back (i.e. the same letter as the one that appeared 2 letters ago.),q,None,,,,,,,,,0,7,7,7,0,0,0,0,,,,,,,,,,,,,,,,,,,,,,,,,,,,,,,,,,,,,,,,,,,,,,,,,,,,,,,,,,,690.8975656999974,None,693.8773737000301,None,space,0.5119490000070073,693.8773737000301,None,690.8975656999974,None,1.8098,696.2244131999905,None,None,1,696.2244131999905,None,,P016,fencog,1,Pre,2021_Oct_25_1225,N-Back (New Version 2021),2021.1.4,120.2022763916716,
,,,,Conditions/Version_1/twoback(2)_v1.xlsx,New rule: Press 'space' when you see 2-back (i.e. the same letter as the one that appeared 2 letters ago.),r,None,,,,,,,,,0,7,7,7,0,1,1,1,,,,,,,,,,,,,,,,,,,,,,,,,,,,,,,,,,,,,,,,,,,,,,,,,,,,,,,,,,,,,,,,,,,,,1.0286,699.262797000003,None,None,1,699.262797000003,None,,P016,fencog,1,Pre,2021_Oct_25_1225,N-Back (New Version 2021),2021.1.4,120.2022763916716,
,,,,Conditions/Version_1/twoback(2)_v1.xlsx,New rule: Press 'space' when you see 2-back (i.e. the same letter as the one that appeared 2 letters ago.),q,space,,,,,,,,,0,7,7,7,0,2,2,2,,,,,,,,,,,,,,,,,,,,,,,,,,,,,,,,,,,,,,,,,,,,,,,,,,,,,,,,,,,,,,,,,,,,,1.2952,702.5642444000114,None,space,1,702.5642444000114,None,0.36832090001553297,P016,fencog,1,Pre,2021_Oct_25_1225,N-Back (New Version 2021),2021.1.4,120.2022763916716,
,,,,Conditions/Version_1/twoback(2)_v1.xlsx,New rule: Press 'space' when you see 2-back (i.e. the same letter as the one that appeared 2 letters ago.),P,None,,,,,,,,,0,7,7,7,0,3,3,3,,,,,,,,,,,,,,,,,,,,,,,,,,,,,,,,,,,,,,,,,,,,,,,,,,,,,,,,,,,,,,,,,,,,,1.0596,705.6378151000245,None,None,1,705.6378151000245,None,,P016,fencog,1,Pre,2021_Oct_25_1225,N-Back (New Version 2021),2021.1.4,120.2022763916716,
,,,,Conditions/Version_1/twoback(2)_v1.xlsx,New rule: Press 'space' when you see 2-back (i.e. the same letter as the one that appeared 2 letters ago.),p,None,,,,,,,,,0,7,7,7,0,4,4,4,,,,,,,,,,,,,,,,,,,,,,,,,,,,,,,,,,,,,,,,,,,,,,,,,,,,,,,,,,,,,,,,,,,,,1.6176,709.2563843000098,None,None,1,709.2563843000098,None,,P016,fencog,1,Pre,2021_Oct_25_1225,N-Back (New Version 2021),2021.1.4,120.2022763916716,
,,,,Conditions/Version_1/twoback(2)_v1.xlsx,New rule: Press 'space' when you see 2-back (i.e. the same letter as the one that appeared 2 letters ago.),H,None,,,,,,,,,0,7,7,7,0,5,5,5,,,,,,,,,,,,,,,,,,,,,,,,,,,,,,,,,,,,,,,,,,,,,,,,,,,,,,,,,,,,,,,,,,,,,1.8966,713.1537978000124,None,None,1,713.1537978000124,None,,P016,fencog,1,Pre,2021_Oct_25_1225,N-Back (New Version 2021),2021.1.4,120.2022763916716,
,,,,Conditions/Version_1/twoback(2)_v1.xlsx,New rule: Press 'space' when you see 2-back (i.e. the same letter as the one that appeared 2 letters ago.),g,None,,,,,,,,,0,7,7,7,0,6,6,6,,,,,,,,,,,,,,,,,,,,,,,,,,,,,,,,,,,,,,,,,,,,,,,,,,,,,,,,,,,,,,,,,,,,,1.7912,716.9515528000193,None,None,1,716.9515528000193,None,,P016,fencog,1,Pre,2021_Oct_25_1225,N-Back (New Version 2021),2021.1.4,120.2022763916716,
,,,,Conditions/Version_1/twoback(2)_v1.xlsx,New rule: Press 'space' when you see 2-back (i.e. the same letter as the one that appeared 2 letters ago.),j,None,,,,,,,,,0,7,7,7,0,7,7,7,,,,,,,,,,,,,,,,,,,,,,,,,,,,,,,,,,,,,,,,,,,,,,,,,,,,,,,,,,,,,,,,,,,,,1.6424,720.6004792000167,None,None,1,720.6004792000167,None,,P016,fencog,1,Pre,2021_Oct_25_1225,N-Back (New Version 2021),2021.1.4,120.2022763916716,
,,,,Conditions/Version_1/twoback(2)_v1.xlsx,New rule: Press 'space' when you see 2-back (i.e. the same letter as the one that appeared 2 letters ago.),g,space,,,,,,,,,0,7,7,7,0,8,8,8,,,,,,,,,,,,,,,,,,,,,,,,,,,,,,,,,,,,,,,,,,,,,,,,,,,,,,,,,,,,,,,,,,,,,1.8036,724.4098041999969,None,space,1,724.4098041999969,None,0.5955918999970891,P016,fencog,1,Pre,2021_Oct_25_1225,N-Back (New Version 2021),2021.1.4,120.2022763916716,
,,,,Conditions/Version_1/twoback(2)_v1.xlsx,New rule: Press 'space' when you see 2-back (i.e. the same letter as the one that appeared 2 letters ago.),G,None,,,,,,,,,0,7,7,7,0,9,9,9,,,,,,,,,,,,,,,,,,,,,,,,,,,,,,,,,,,,,,,,,,,,,,,,,,,,,,,,,,,,,,,,,,,,,1.661,728.0823900999967,None,None,1,728.0823900999967,None,,P016,fencog,1,Pre,2021_Oct_25_1225,N-Back (New Version 2021),2021.1.4,120.2022763916716,
,,,,Conditions/Version_1/twoback(2)_v1.xlsx,New rule: Press 'space' when you see 2-back (i.e. the same letter as the one that appeared 2 letters ago.),,,,,,,,,,,0,7,7,7,,,,,,,,,,,,,,,,,,,,,,,,,,,,,,,,,,,,,,,,,,,,,,,,,,,,,,,,,,,,,,,,,,,,,,,,,,,,,,,,,P016,fencog,1,Pre,2021_Oct_25_1225,N-Back (New Version 2021),2021.1.4,120.2022763916716,
,,,,Conditions/Version_1/threeback(3)_v1.xlsx,New rule: Press 'space' when you see 3-back (i.e. the same letter as the one that appeared 3 letters ago.),w,None,,,,,,,,,0,8,8,8,0,0,0,0,,,,,,,,,,,,,,,,,,,,,,,,,,,,,,,,,,,,,,,,,,,,,,,,,,,,,,,,,,,730.1161013999954,None,733.0993447999936,None,space,2.3530537999467924,733.0993447999936,None,730.1161013999954,None,1.6114,737.0922536000144,None,None,1,737.0922536000144,None,,P016,fencog,1,Pre,2021_Oct_25_1225,N-Back (New Version 2021),2021.1.4,120.2022763916716,
,,,,Conditions/Version_1/threeback(3)_v1.xlsx,New rule: Press 'space' when you see 3-back (i.e. the same letter as the one that appeared 3 letters ago.),p,None,,,,,,,,,0,8,8,8,0,1,1,1,,,,,,,,,,,,,,,,,,,,,,,,,,,,,,,,,,,,,,,,,,,,,,,,,,,,,,,,,,,,,,,,,,,,,1.165,740.2647394000087,None,None,1,740.2647394000087,None,,P016,fencog,1,Pre,2021_Oct_25_1225,N-Back (New Version 2021),2021.1.4,120.2022763916716,
,,,,Conditions/Version_1/threeback(3)_v1.xlsx,New rule: Press 'space' when you see 3-back (i.e. the same letter as the one that appeared 3 letters ago.),P,None,,,,,,,,,0,8,8,8,0,2,2,2,,,,,,,,,,,,,,,,,,,,,,,,,,,,,,,,,,,,,,,,,,,,,,,,,,,,,,,,,,,,,,,,,,,,,1.5556,743.8277028999873,None,None,1,743.8277028999873,None,,P016,fencog,1,Pre,2021_Oct_25_1225,N-Back (New Version 2021),2021.1.4,120.2022763916716,
,,,,Conditions/Version_1/threeback(3)_v1.xlsx,New rule: Press 'space' when you see 3-back (i.e. the same letter as the one that appeared 3 letters ago.),i,None,,,,,,,,,0,8,8,8,0,3,3,3,,,,,,,,,,,,,,,,,,,,,,,,,,,,,,,,,,,,,,,,,,,,,,,,,,,,,,,,,,,,,,,,,,,,,1.258,747.0941708000028,None,None,1,747.0941708000028,None,,P016,fencog,1,Pre,2021_Oct_25_1225,N-Back (New Version 2021),2021.1.4,120.2022763916716,
,,,,Conditions/Version_1/threeback(3)_v1.xlsx,New rule: Press 'space' when you see 3-back (i.e. the same letter as the one that appeared 3 letters ago.),f,None,,,,,,,,,0,8,8,8,0,4,4,4,,,,,,,,,,,,,,,,,,,,,,,,,,,,,,,,,,,,,,,,,,,,,,,,,,,,,,,,,,,,,,,,,,,,,1.4378,750.5426904999767,None,None,1,750.5426904999767,None,,P016,fencog,1,Pre,2021_Oct_25_1225,N-Back (New Version 2021),2021.1.4,120.2022763916716,
,,,,Conditions/Version_1/threeback(3)_v1.xlsx,New rule: Press 'space' when you see 3-back (i.e. the same letter as the one that appeared 3 letters ago.),o,None,,,,,,,,,0,8,8,8,0,5,5,5,,,,,,,,,,,,,,,,,,,,,,,,,,,,,,,,,,,,,,,,,,,,,,,,,,,,,,,,,,,,,,,,,,,,,1.289,753.8404324000003,None,None,1,753.8404324000003,None,,P016,fencog,1,Pre,2021_Oct_25_1225,N-Back (New Version 2021),2021.1.4,120.2022763916716,
,,,,Conditions/Version_1/threeback(3)_v1.xlsx,New rule: Press 'space' when you see 3-back (i.e. the same letter as the one that appeared 3 letters ago.),w,None,,,,,,,,,0,8,8,8,0,6,6,6,,,,,,,,,,,,,,,,,,,,,,,,,,,,,,,,,,,,,,,,,,,,,,,,,,,,,,,,,,,,,,,,,,,,,1.4626,757.3063099000137,None,None,1,757.3063099000137,None,,P016,fencog,1,Pre,2021_Oct_25_1225,N-Back (New Version 2021),2021.1.4,120.2022763916716,
,,,,Conditions/Version_1/threeback(3)_v1.xlsx,New rule: Press 'space' when you see 3-back (i.e. the same letter as the one that appeared 3 letters ago.),F,space,,,,,,,,,0,8,8,8,0,7,7,7,,,,,,,,,,,,,,,,,,,,,,,,,,,,,,,,,,,,,,,,,,,,,,,,,,,,,,,,,,,,,,,,,,,,,1.7912,761.1052982999827,None,space,1,761.1052982999827,None,0.4672222000081092,P016,fencog,1,Pre,2021_Oct_25_1225,N-Back (New Version 2021),2021.1.4,120.2022763916716,
,,,,Conditions/Version_1/threeback(3)_v1.xlsx,New rule: Press 'space' when you see 3-back (i.e. the same letter as the one that appeared 3 letters ago.),p,None,,,,,,,,,0,8,8,8,0,8,8,8,,,,,,,,,,,,,,,,,,,,,,,,,,,,,,,,,,,,,,,,,,,,,,,,,,,,,,,,,,,,,,,,,,,,,1.0348,764.1459348999779,None,None,1,764.1459348999779,None,,P016,fencog,1,Pre,2021_Oct_25_1225,N-Back (New Version 2021),2021.1.4,120.2022763916716,
,,,,Conditions/Version_1/threeback(3)_v1.xlsx,New rule: Press 'space' when you see 3-back (i.e. the same letter as the one that appeared 3 letters ago.),W,space,,,,,,,,,0,8,8,8,0,9,9,9,,,,,,,,,,,,,,,,,,,,,,,,,,,,,,,,,,,,,,,,,,,,,,,,,,,,,,,,,,,,,,,,,,,,,1.4936,767.6449505999917,None,space,1,767.6449505999917,None,0.5525453999871388,P016,fencog,1,Pre,2021_Oct_25_1225,N-Back (New Version 2021),2021.1.4,120.2022763916716,
,,,,Conditions/Version_1/threeback(3)_v1.xlsx,New rule: Press 'space' when you see 3-back (i.e. the same letter as the one that appeared 3 letters ago.),,,,,,,,,,,0,8,8,8,,,,,,,,,,,,,,,,,,,,,,,,,,,,,,,,,,,,,,,,,,,,,,,,,,,,,,,,,,,,,,,,,,,,,,,,,,,,,,,,,P016,fencog,1,Pre,2021_Oct_25_1225,N-Back (New Version 2021),2021.1.4,120.2022763916716,
,,,,Conditions/Version_1/zeroback(3)_v1.xlsx,New rule: Press 'space' when you see the letter 'x' or 'X'.,X,space,,,,,,,,,0,9,9,9,0,0,0,0,,,,,,,,,,,,,,,,,,,,,,,,,,,,,,,,,,,,,,,,,,,,,,,,,,,,,,,,,,,769.6743423999869,None,772.6625380000332,None,space,0.9339087000116706,772.6625380000332,None,769.6743423999869,None,1.2828,774.9093950000242,None,space,1,774.9093950000242,None,0.7030588999623433,P016,fencog,1,Pre,2021_Oct_25_1225,N-Back (New Version 2021),2021.1.4,120.2022763916716,
,,,,Conditions/Version_1/zeroback(3)_v1.xlsx,New rule: Press 'space' when you see the letter 'x' or 'X'.,B,None,,,,,,,,,0,9,9,9,0,1,1,1,,,,,,,,,,,,,,,,,,,,,,,,,,,,,,,,,,,,,,,,,,,,,,,,,,,,,,,,,,,,,,,,,,,,,1.63,778.5434139000135,None,None,1,778.5434139000135,None,,P016,fencog,1,Pre,2021_Oct_25_1225,N-Back (New Version 2021),2021.1.4,120.2022763916716,
,,,,Conditions/Version_1/zeroback(3)_v1.xlsx,New rule: Press 'space' when you see the letter 'x' or 'X'.,m,None,,,,,,,,,0,9,9,9,0,2,2,2,,,,,,,,,,,,,,,,,,,,,,,,,,,,,,,,,,,,,,,,,,,,,,,,,,,,,,,,,,,,,,,,,,,,,1.196,781.7490827000001,None,None,1,781.7490827000001,None,,P016,fencog,1,Pre,2021_Oct_25_1225,N-Back (New Version 2021),2021.1.4,120.2022763916716,
,,,,Conditions/Version_1/zeroback(3)_v1.xlsx,New rule: Press 'space' when you see the letter 'x' or 'X'.,m,None,,,,,,,,,0,9,9,9,0,3,3,3,,,,,,,,,,,,,,,,,,,,,,,,,,,,,,,,,,,,,,,,,,,,,,,,,,,,,,,,,,,,,,,,,,,,,1.6238,785.3731907000183,None,None,1,785.3731907000183,None,,P016,fencog,1,Pre,2021_Oct_25_1225,N-Back (New Version 2021),2021.1.4,120.2022763916716,
,,,,Conditions/Version_1/zeroback(3)_v1.xlsx,New rule: Press 'space' when you see the letter 'x' or 'X'.,o,None,,,,,,,,,0,9,9,9,0,4,4,4,,,,,,,,,,,,,,,,,,,,,,,,,,,,,,,,,,,,,,,,,,,,,,,,,,,,,,,,,,,,,,,,,,,,,1.2704,788.6469555000076,None,None,1,788.6469555000076,None,,P016,fencog,1,Pre,2021_Oct_25_1225,N-Back (New Version 2021),2021.1.4,120.2022763916716,
,,,,Conditions/Version_1/zeroback(3)_v1.xlsx,New rule: Press 'space' when you see the letter 'x' or 'X'.,p,None,,,,,,,,,0,9,9,9,0,5,5,5,,,,,,,,,,,,,,,,,,,,,,,,,,,,,,,,,,,,,,,,,,,,,,,,,,,,,,,,,,,,,,,,,,,,,1.5308,792.1805427999934,None,None,1,792.1805427999934,None,,P016,fencog,1,Pre,2021_Oct_25_1225,N-Back (New Version 2021),2021.1.4,120.2022763916716,
,,,,Conditions/Version_1/zeroback(3)_v1.xlsx,New rule: Press 'space' when you see the letter 'x' or 'X'.,G,None,,,,,,,,,0,9,9,9,0,6,6,6,,,,,,,,,,,,,,,,,,,,,,,,,,,,,,,,,,,,,,,,,,,,,,,,,,,,,,,,,,,,,,,,,,,,,1.165,795.353488599998,None,None,1,795.353488599998,None,,P016,fencog,1,Pre,2021_Oct_25_1225,N-Back (New Version 2021),2021.1.4,120.2022763916716,
,,,,Conditions/Version_1/zeroback(3)_v1.xlsx,New rule: Press 'space' when you see the letter 'x' or 'X'.,X,space,,,,,,,,,0,9,9,9,0,7,7,7,,,,,,,,,,,,,,,,,,,,,,,,,,,,,,,,,,,,,,,,,,,,,,,,,,,,,,,,,,,,,,,,,,,,,1.4316,798.7890438000322,None,space,1,798.7890438000322,None,0.3911635000258684,P016,fencog,1,Pre,2021_Oct_25_1225,N-Back (New Version 2021),2021.1.4,120.2022763916716,
,,,,Conditions/Version_1/zeroback(3)_v1.xlsx,New rule: Press 'space' when you see the letter 'x' or 'X'.,p,None,,,,,,,,,0,9,9,9,0,8,8,8,,,,,,,,,,,,,,,,,,,,,,,,,,,,,,,,,,,,,,,,,,,,,,,,,,,,,,,,,,,,,,,,,,,,,1.878,802.677103199996,None,None,1,802.677103199996,None,,P016,fencog,1,Pre,2021_Oct_25_1225,N-Back (New Version 2021),2021.1.4,120.2022763916716,
,,,,Conditions/Version_1/zeroback(3)_v1.xlsx,New rule: Press 'space' when you see the letter 'x' or 'X'.,x,space,,,,,,,,,0,9,9,9,0,9,9,9,,,,,,,,,,,,,,,,,,,,,,,,,,,,,,,,,,,,,,,,,,,,,,,,,,,,,,,,,,,,,,,,,,,,,1.847,806.5251444000169,None,space,1,806.5251444000169,None,0.44748839997919276,P016,fencog,1,Pre,2021_Oct_25_1225,N-Back (New Version 2021),2021.1.4,120.2022763916716,
,,,,Conditions/Version_1/zeroback(3)_v1.xlsx,New rule: Press 'space' when you see the letter 'x' or 'X'.,,,,,,,,,,,0,9,9,9,,,,,,,,,,,,,,,,,,,,,,,,,,,,,,,,,,,,,,,,,,,,,,,,,,,,,,,,,,,,,,,,,,,,,,,,,,,,,,,,,P016,fencog,1,Pre,2021_Oct_25_1225,N-Back (New Version 2021),2021.1.4,120.2022763916716,
,,,,Conditions/Version_1/twoback(3)_v1.xlsx,New rule: Press 'space' when you see 2-back (i.e. the same letter as the one that appeared 2 letters ago.),e,None,,,,,,,,,0,10,10,10,0,0,0,0,,,,,,,,,,,,,,,,,,,,,,,,,,,,,,,,,,,,,,,,,,,,,,,,,,,,,,,,,,,808.5470515000052,None,811.5343420000281,None,space,5.534103700018022,811.5343420000281,None,808.5470515000052,None,1.0348,818.1326924000168,None,None,1,818.1326924000168,None,,P016,fencog,1,Pre,2021_Oct_25_1225,N-Back (New Version 2021),2021.1.4,120.2022763916716,
,,,,Conditions/Version_1/twoback(3)_v1.xlsx,New rule: Press 'space' when you see 2-back (i.e. the same letter as the one that appeared 2 letters ago.),o,None,,,,,,,,,0,10,10,10,0,1,1,1,,,,,,,,,,,,,,,,,,,,,,,,,,,,,,,,,,,,,,,,,,,,,,,,,,,,,,,,,,,,,,,,,,,,,1.1588,821.2967847000109,None,None,1,821.2967847000109,None,,P016,fencog,1,Pre,2021_Oct_25_1225,N-Back (New Version 2021),2021.1.4,120.2022763916716,
,,,,Conditions/Version_1/twoback(3)_v1.xlsx,New rule: Press 'space' when you see 2-back (i.e. the same letter as the one that appeared 2 letters ago.),P,None,,,,,,,,,0,10,10,10,0,2,2,2,,,,,,,,,,,,,,,,,,,,,,,,,,,,,,,,,,,,,,,,,,,,,,,,,,,,,,,,,,,,,,,,,,,,,1.0658,824.3704895999981,None,None,1,824.3704895999981,None,,P016,fencog,1,Pre,2021_Oct_25_1225,N-Back (New Version 2021),2021.1.4,120.2022763916716,
,,,,Conditions/Version_1/twoback(3)_v1.xlsx,New rule: Press 'space' when you see 2-back (i.e. the same letter as the one that appeared 2 letters ago.),z,None,,,,,,,,,0,10,10,10,0,3,3,3,,,,,,,,,,,,,,,,,,,,,,,,,,,,,,,,,,,,,,,,,,,,,,,,,,,,,,,,,,,,,,,,,,,,,1.2952,827.6881780999829,None,None,1,827.6881780999829,None,,P016,fencog,1,Pre,2021_Oct_25_1225,N-Back (New Version 2021),2021.1.4,120.2022763916716,
,,,,Conditions/Version_1/twoback(3)_v1.xlsx,New rule: Press 'space' when you see 2-back (i.e. the same letter as the one that appeared 2 letters ago.),X,None,,,,,,,,,0,10,10,10,0,4,4,4,,,,,,,,,,,,,,,,,,,,,,,,,,,,,,,,,,,,,,,,,,,,,,,,,,,,,,,,,,,,,,,,,,,,,1.351,831.04345930001,None,None,1,831.04345930001,None,,P016,fencog,1,Pre,2021_Oct_25_1225,N-Back (New Version 2021),2021.1.4,120.2022763916716,
,,,,Conditions/Version_1/twoback(3)_v1.xlsx,New rule: Press 'space' when you see 2-back (i.e. the same letter as the one that appeared 2 letters ago.),z,space,,,,,,,,,0,10,10,10,0,5,5,5,,,,,,,,,,,,,,,,,,,,,,,,,,,,,,,,,,,,,,,,,,,,,,,,,,,,,,,,,,,,,,,,,,,,,1.3696,834.432863700029,None,space,1,834.432863700029,None,0.3312407999765128,P016,fencog,1,Pre,2021_Oct_25_1225,N-Back (New Version 2021),2021.1.4,120.2022763916716,
,,,,Conditions/Version_1/twoback(3)_v1.xlsx,New rule: Press 'space' when you see 2-back (i.e. the same letter as the one that appeared 2 letters ago.),x,space,,,,,,,,,0,10,10,10,0,6,6,6,,,,,,,,,,,,,,,,,,,,,,,,,,,,,,,,,,,,,,,,,,,,,,,,,,,,,,,,,,,,,,,,,,,,,1.01,837.453103900014,None,space,1,837.453103900014,None,0.975341799960006,P016,fencog,1,Pre,2021_Oct_25_1225,N-Back (New Version 2021),2021.1.4,120.2022763916716,
,,,,Conditions/Version_1/twoback(3)_v1.xlsx,New rule: Press 'space' when you see 2-back (i.e. the same letter as the one that appeared 2 letters ago.),c,None,,,,,,,,,0,10,10,10,0,7,7,7,,,,,,,,,,,,,,,,,,,,,,,,,,,,,,,,,,,,,,,,,,,,,,,,,,,,,,,,,,,,,,,,,,,,,1.6548,841.1166752999998,None,None,1,841.1166752999998,None,,P016,fencog,1,Pre,2021_Oct_25_1225,N-Back (New Version 2021),2021.1.4,120.2022763916716,
,,,,Conditions/Version_1/twoback(3)_v1.xlsx,New rule: Press 'space' when you see 2-back (i.e. the same letter as the one that appeared 2 letters ago.),i,None,,,,,,,,,0,10,10,10,0,8,8,8,,,,,,,,,,,,,,,,,,,,,,,,,,,,,,,,,,,,,,,,,,,,,,,,,,,,,,,,,,,,,,,,,,,,,1.8842,845.0106239999877,None,None,1,845.0106239999877,None,,P016,fencog,1,Pre,2021_Oct_25_1225,N-Back (New Version 2021),2021.1.4,120.2022763916716,
,,,,Conditions/Version_1/twoback(3)_v1.xlsx,New rule: Press 'space' when you see 2-back (i.e. the same letter as the one that appeared 2 letters ago.),C,space,,,,,,,,,0,10,10,10,0,9,9,9,,,,,,,,,,,,,,,,,,,,,,,,,,,,,,,,,,,,,,,,,,,,,,,,,,,,,,,,,,,,,,,,,,,,,1.7664,848.7804781000013,None,space,1,848.7804781000013,None,0.6556882999720983,P016,fencog,1,Pre,2021_Oct_25_1225,N-Back (New Version 2021),2021.1.4,120.2022763916716,
,,,,Conditions/Version_1/twoback(3)_v1.xlsx,New rule: Press 'space' when you see 2-back (i.e. the same letter as the one that appeared 2 letters ago.),,,,,,,,,,,0,10,10,10,,,,,,,,,,,,,,,,,,,,,,,,,,,,,,,,,,,,,,,,,,,,,,,,,,,,,,,,,,,,,,,,,,,,,,,,,,,,,,,,,P016,fencog,1,Pre,2021_Oct_25_1225,N-Back (New Version 2021),2021.1.4,120.2022763916716,
,,,,Conditions/Version_1/oneback(3)_v1.xlsx,New rule: Press 'space' when you see 1-back (i.e. the same letter as the one that appeared 1 letter ago.),o,None,,,,,,,,,0,11,11,11,0,0,0,0,,,,,,,,,,,,,,,,,,,,,,,,,,,,,,,,,,,,,,,,,,,,,,,,,,,,,,,,,,,850.8065927000134,None,853.7962153999833,None,space,0.3647452999721281,853.7962153999833,None,850.8065927000134,None,1.0844,855.2855709000141,None,None,1,855.2855709000141,None,,P016,fencog,1,Pre,2021_Oct_25_1225,N-Back (New Version 2021),2021.1.4,120.2022763916716,
,,,,Conditions/Version_1/oneback(3)_v1.xlsx,New rule: Press 'space' when you see 1-back (i.e. the same letter as the one that appeared 1 letter ago.),O,space,,,,,,,,,0,11,11,11,0,1,1,1,,,,,,,,,,,,,,,,,,,,,,,,,,,,,,,,,,,,,,,,,,,,,,,,,,,,,,,,,,,,,,,,,,,,,1.63,858.9181678000023,None,space,1,858.9181678000023,None,0.6544678999925964,P016,fencog,1,Pre,2021_Oct_25_1225,N-Back (New Version 2021),2021.1.4,120.2022763916716,
,,,,Conditions/Version_1/oneback(3)_v1.xlsx,New rule: Press 'space' when you see 1-back (i.e. the same letter as the one that appeared 1 letter ago.),h,None,,,,,,,,,0,11,11,11,0,2,2,2,,,,,,,,,,,,,,,,,,,,,,,,,,,,,,,,,,,,,,,,,,,,,,,,,,,,,,,,,,,,,,,,,,,,,1.072,861.9918868999812,None,None,1,861.9918868999812,None,,P016,fencog,1,Pre,2021_Oct_25_1225,N-Back (New Version 2021),2021.1.4,120.2022763916716,
,,,,Conditions/Version_1/oneback(3)_v1.xlsx,New rule: Press 'space' when you see 1-back (i.e. the same letter as the one that appeared 1 letter ago.),g,None,,,,,,,,,0,11,11,11,0,3,3,3,,,,,,,,,,,,,,,,,,,,,,,,,,,,,,,,,,,,,,,,,,,,,,,,,,,,,,,,,,,,,,,,,,,,,1.1402,865.1400957999867,None,None,1,865.1400957999867,None,,P016,fencog,1,Pre,2021_Oct_25_1225,N-Back (New Version 2021),2021.1.4,120.2022763916716,
,,,,Conditions/Version_1/oneback(3)_v1.xlsx,New rule: Press 'space' when you see 1-back (i.e. the same letter as the one that appeared 1 letter ago.),n,None,,,,,,,,,0,11,11,11,0,4,4,4,,,,,,,,,,,,,,,,,,,,,,,,,,,,,,,,,,,,,,,,,,,,,,,,,,,,,,,,,,,,,,,,,,,,,1.1712,868.3194223000319,None,None,1,868.3194223000319,None,,P016,fencog,1,Pre,2021_Oct_25_1225,N-Back (New Version 2021),2021.1.4,120.2022763916716,
,,,,Conditions/Version_1/oneback(3)_v1.xlsx,New rule: Press 'space' when you see 1-back (i.e. the same letter as the one that appeared 1 letter ago.),z,None,,,,,,,,,0,11,11,11,0,5,5,5,,,,,,,,,,,,,,,,,,,,,,,,,,,,,,,,,,,,,,,,,,,,,,,,,,,,,,,,,,,,,,,,,,,,,1.9214,872.2473493000143,None,None,1,872.2473493000143,None,,P016,fencog,1,Pre,2021_Oct_25_1225,N-Back (New Version 2021),2021.1.4,120.2022763916716,
,,,,Conditions/Version_1/oneback(3)_v1.xlsx,New rule: Press 'space' when you see 1-back (i.e. the same letter as the one that appeared 1 letter ago.),X,None,,,,,,,,,0,11,11,11,0,6,6,6,,,,,,,,,,,,,,,,,,,,,,,,,,,,,,,,,,,,,,,,,,,,,,,,,,,,,,,,,,,,,,,,,,,,,1.9958,876.2563419999788,None,None,1,876.2563419999788,None,,P016,fencog,1,Pre,2021_Oct_25_1225,N-Back (New Version 2021),2021.1.4,120.2022763916716,
,,,,Conditions/Version_1/oneback(3)_v1.xlsx,New rule: Press 'space' when you see 1-back (i.e. the same letter as the one that appeared 1 letter ago.),r,None,,,,,,,,,0,11,11,11,0,7,7,7,,,,,,,,,,,,,,,,,,,,,,,,,,,,,,,,,,,,,,,,,,,,,,,,,,,,,,,,,,,,,,,,,,,,,1.3634,879.6295517000253,None,None,1,879.6295517000253,None,,P016,fencog,1,Pre,2021_Oct_25_1225,N-Back (New Version 2021),2021.1.4,120.2022763916716,
,,,,Conditions/Version_1/oneback(3)_v1.xlsx,New rule: Press 'space' when you see 1-back (i.e. the same letter as the one that appeared 1 letter ago.),r,space,,,,,,,,,0,11,11,11,0,8,8,8,,,,,,,,,,,,,,,,,,,,,,,,,,,,,,,,,,,,,,,,,,,,,,,,,,,,,,,,,,,,,,,,,,,,,1.3262,882.9607936000102,None,space,1,882.9607936000102,None,0.5471545999753289,P016,fencog,1,Pre,2021_Oct_25_1225,N-Back (New Version 2021),2021.1.4,120.2022763916716,
,,,,Conditions/Version_1/oneback(3)_v1.xlsx,New rule: Press 'space' when you see 1-back (i.e. the same letter as the one that appeared 1 letter ago.),P,None,,,,,,,,,0,11,11,11,0,9,9,9,,,,,,,,,,,,,,,,,,,,,,,,,,,,,,,,,,,,,,,,,,,,,,,,,,,,,,,,,,,,,,,,,,,,,1.2704,886.2374655000167,None,None,1,886.2374655000167,None,,P016,fencog,1,Pre,2021_Oct_25_1225,N-Back (New Version 2021),2021.1.4,120.2022763916716,
,,,,Conditions/Version_1/oneback(3)_v1.xlsx,New rule: Press 'space' when you see 1-back (i.e. the same letter as the one that appeared 1 letter ago.),,,,,,,,,,,0,11,11,11,,,,,,,,,,,,,,,,,,,,,,,,,,,,,,,,,,,,,,,,,,,,,,,,,,,,,,,,,,,,,,,,,,,,,,,,,,,,,,,,,P016,fencog,1,Pre,2021_Oct_25_1225,N-Back (New Version 2021),2021.1.4,120.2022763916716,
,,,,Conditions/Version_1/twoback(4)_v1.xlsx,New rule: Press 'space' when you see 2-back (i.e. the same letter as the one that appeared 2 letters ago.),r,None,,,,,,,,,0,12,12,12,0,0,0,0,,,,,,,,,,,,,,,,,,,,,,,,,,,,,,,,,,,,,,,,,,,,,,,,,,,,,,,,,,,888.2616414999939,None,891.2439831999945,None,space,0.808142299996689,891.2439831999945,None,888.2616414999939,None,1.01,893.0911752000102,None,None,1,893.0911752000102,None,,P016,fencog,1,Pre,2021_Oct_25_1225,N-Back (New Version 2021),2021.1.4,120.2022763916716,
,,,,Conditions/Version_1/twoback(4)_v1.xlsx,New rule: Press 'space' when you see 2-back (i.e. the same letter as the one that appeared 2 letters ago.),T,None,,,,,,,,,0,12,12,12,0,1,1,1,,,,,,,,,,,,,,,,,,,,,,,,,,,,,,,,,,,,,,,,,,,,,,,,,,,,,,,,,,,,,,,,,,,,,1.847,896.9402283999952,None,None,1,896.9402283999952,None,,P016,fencog,1,Pre,2021_Oct_25_1225,N-Back (New Version 2021),2021.1.4,120.2022763916716,
,,,,Conditions/Version_1/twoback(4)_v1.xlsx,New rule: Press 'space' when you see 2-back (i.e. the same letter as the one that appeared 2 letters ago.),o,None,,,,,,,,,0,12,12,12,0,2,2,2,,,,,,,,,,,,,,,,,,,,,,,,,,,,,,,,,,,,,,,,,,,,,,,,,,,,,,,,,,,,,,,,,,,,,1.4998,900.4435059999814,None,None,1,900.4435059999814,None,,P016,fencog,1,Pre,2021_Oct_25_1225,N-Back (New Version 2021),2021.1.4,120.2022763916716,
,,,,Conditions/Version_1/twoback(4)_v1.xlsx,New rule: Press 'space' when you see 2-back (i.e. the same letter as the one that appeared 2 letters ago.),p,None,,,,,,,,,0,12,12,12,0,3,3,3,,,,,,,,,,,,,,,,,,,,,,,,,,,,,,,,,,,,,,,,,,,,,,,,,,,,,,,,,,,,,,,,,,,,,1.9152,904.3629343999783,None,None,1,904.3629343999783,None,,P016,fencog,1,Pre,2021_Oct_25_1225,N-Back (New Version 2021),2021.1.4,120.2022763916716,
,,,,Conditions/Version_1/twoback(4)_v1.xlsx,New rule: Press 'space' when you see 2-back (i.e. the same letter as the one that appeared 2 letters ago.),p,None,,,,,,,,,0,12,12,12,0,4,4,4,,,,,,,,,,,,,,,,,,,,,,,,,,,,,,,,,,,,,,,,,,,,,,,,,,,,,,,,,,,,,,,,,,,,,1.2208,907.5886179999798,None,None,1,907.5886179999798,None,,P016,fencog,1,Pre,2021_Oct_25_1225,N-Back (New Version 2021),2021.1.4,120.2022763916716,
,,,,Conditions/Version_1/twoback(4)_v1.xlsx,New rule: Press 'space' when you see 2-back (i.e. the same letter as the one that appeared 2 letters ago.),y,None,,,,,,,,,0,12,12,12,0,5,5,5,,,,,,,,,,,,,,,,,,,,,,,,,,,,,,,,,,,,,,,,,,,,,,,,,,,,,,,,,,,,,,,,,,,,,1.0286,910.6274246000103,None,None,1,910.6274246000103,None,,P016,fencog,1,Pre,2021_Oct_25_1225,N-Back (New Version 2021),2021.1.4,120.2022763916716,
,,,,Conditions/Version_1/twoback(4)_v1.xlsx,New rule: Press 'space' when you see 2-back (i.e. the same letter as the one that appeared 2 letters ago.),P,space,,,,,,,,,0,12,12,12,0,6,6,6,,,,,,,,,,,,,,,,,,,,,,,,,,,,,,,,,,,,,,,,,,,,,,,,,,,,,,,,,,,,,,,,,,,,,1.041,913.6686165999854,None,space,1,913.6686165999854,None,1.0322147999540903,P016,fencog,1,Pre,2021_Oct_25_1225,N-Back (New Version 2021),2021.1.4,120.2022763916716,
,,,,Conditions/Version_1/twoback(4)_v1.xlsx,New rule: Press 'space' when you see 2-back (i.e. the same letter as the one that appeared 2 letters ago.),y,None,,,,,,,,,0,12,12,12,0,7,7,7,,,,,,,,,,,,,,,,,,,,,,,,,,,,,,,,,,,,,,,,,,,,,,,,,,,,,,,,,,,,,,,,,,,,,1.1774,916.8897913999972,None,space,0,916.8897913999972,None,0.609958800021559,P016,fencog,1,Pre,2021_Oct_25_1225,N-Back (New Version 2021),2021.1.4,120.2022763916716,
,,,,Conditions/Version_1/twoback(4)_v1.xlsx,New rule: Press 'space' when you see 2-back (i.e. the same letter as the one that appeared 2 letters ago.),y,space,,,,,,,,,0,12,12,12,0,8,8,8,,,,,,,,,,,,,,,,,,,,,,,,,,,,,,,,,,,,,,,,,,,,,,,,,,,,,,,,,,,,,,,,,,,,,1.2332,920.0932285999879,None,None,0,920.0932285999879,None,,P016,fencog,1,Pre,2021_Oct_25_1225,N-Back (New Version 2021),2021.1.4,120.2022763916716,
,,,,Conditions/Version_1/twoback(4)_v1.xlsx,New rule: Press 'space' when you see 2-back (i.e. the same letter as the one that appeared 2 letters ago.),,,,,,,,,,,0,12,12,12,,,,,,,,,,,,,,,,,,,,,,,,,,,,,,,,,,,,,,,,,,,,,,,,,,,,,,,,,,,,,,,,,,,,,,,,,,,,,,,,,P016,fencog,1,Pre,2021_Oct_25_1225,N-Back (New Version 2021),2021.1.4,120.2022763916716,
,,,,Conditions/Version_1/zeroback(4)_v1.xlsx,New rule: Press 'space' when you see the letter 'x' or 'X'.,o,None,,,,,,,,,0,13,13,13,0,0,0,0,,,,,,,,,,,,,,,,,,,,,,,,,,,,,,,,,,,,,,,,,,,,,,,,,,,,,,,,,,,922.1178111000336,None,925.1086141000269,None,space,1.1673785999882966,925.1086141000269,None,922.1178111000336,None,1.6424,927.9496079999954,None,None,1,927.9496079999954,None,,P016,fencog,1,Pre,2021_Oct_25_1225,N-Back (New Version 2021),2021.1.4,120.2022763916716,
,,,,Conditions/Version_1/zeroback(4)_v1.xlsx,New rule: Press 'space' when you see the letter 'x' or 'X'.,X,space,,,,,,,,,0,13,13,13,0,1,1,1,,,,,,,,,,,,,,,,,,,,,,,,,,,,,,,,,,,,,,,,,,,,,,,,,,,,,,,,,,,,,,,,,,,,,1.847,931.804718600004,None,space,1,931.804718600004,None,0.3669914999627508,P016,fencog,1,Pre,2021_Oct_25_1225,N-Back (New Version 2021),2021.1.4,120.2022763916716,
,,,,Conditions/Version_1/zeroback(4)_v1.xlsx,New rule: Press 'space' when you see the letter 'x' or 'X'.,p,None,,,,,,,,,0,13,13,13,0,2,2,2,,,,,,,,,,,,,,,,,,,,,,,,,,,,,,,,,,,,,,,,,,,,,,,,,,,,,,,,,,,,,,,,,,,,,1.8594,935.6737150999834,None,None,1,935.6737150999834,None,,P016,fencog,1,Pre,2021_Oct_25_1225,N-Back (New Version 2021),2021.1.4,120.2022763916716,
,,,,Conditions/Version_1/zeroback(4)_v1.xlsx,New rule: Press 'space' when you see the letter 'x' or 'X'.,m,None,,,,,,,,,0,13,13,13,0,3,3,3,,,,,,,,,,,,,,,,,,,,,,,,,,,,,,,,,,,,,,,,,,,,,,,,,,,,,,,,,,,,,,,,,,,,,1.289,938.9708769000135,None,None,1,938.9708769000135,None,,P016,fencog,1,Pre,2021_Oct_25_1225,N-Back (New Version 2021),2021.1.4,120.2022763916716,
,,,,Conditions/Version_1/zeroback(4)_v1.xlsx,New rule: Press 'space' when you see the letter 'x' or 'X'.,n,None,,,,,,,,,0,13,13,13,0,4,4,4,,,,,,,,,,,,,,,,,,,,,,,,,,,,,,,,,,,,,,,,,,,,,,,,,,,,,,,,,,,,,,,,,,,,,1.0224,942.0103464000276,None,None,1,942.0103464000276,None,,P016,fencog,1,Pre,2021_Oct_25_1225,N-Back (New Version 2021),2021.1.4,120.2022763916716,
,,,,Conditions/Version_1/zeroback(4)_v1.xlsx,New rule: Press 'space' when you see the letter 'x' or 'X'.,m,None,,,,,,,,,0,13,13,13,0,5,5,5,,,,,,,,,,,,,,,,,,,,,,,,,,,,,,,,,,,,,,,,,,,,,,,,,,,,,,,,,,,,,,,,,,,,,1.6796,945.7013810999924,None,None,1,945.7013810999924,None,,P016,fencog,1,Pre,2021_Oct_25_1225,N-Back (New Version 2021),2021.1.4,120.2022763916716,
,,,,Conditions/Version_1/zeroback(4)_v1.xlsx,New rule: Press 'space' when you see the letter 'x' or 'X'.,C,None,,,,,,,,,0,13,13,13,0,6,6,6,,,,,,,,,,,,,,,,,,,,,,,,,,,,,,,,,,,,,,,,,,,,,,,,,,,,,,,,,,,,,,,,,,,,,1.9648,949.6743558000308,None,None,1,949.6743558000308,None,,P016,fencog,1,Pre,2021_Oct_25_1225,N-Back (New Version 2021),2021.1.4,120.2022763916716,
,,,,Conditions/Version_1/zeroback(4)_v1.xlsx,New rule: Press 'space' when you see the letter 'x' or 'X'.,m,None,,,,,,,,,0,13,13,13,0,7,7,7,,,,,,,,,,,,,,,,,,,,,,,,,,,,,,,,,,,,,,,,,,,,,,,,,,,,,,,,,,,,,,,,,,,,,1.6362,953.3149498000275,None,None,1,953.3149498000275,None,,P016,fencog,1,Pre,2021_Oct_25_1225,N-Back (New Version 2021),2021.1.4,120.2022763916716,
,,,,Conditions/Version_1/zeroback(4)_v1.xlsx,New rule: Press 'space' when you see the letter 'x' or 'X'.,p,None,,,,,,,,,0,13,13,13,0,8,8,8,,,,,,,,,,,,,,,,,,,,,,,,,,,,,,,,,,,,,,,,,,,,,,,,,,,,,,,,,,,,,,,,,,,,,1.6238,956.9475628000218,None,None,1,956.9475628000218,None,,P016,fencog,1,Pre,2021_Oct_25_1225,N-Back (New Version 2021),2021.1.4,120.2022763916716,
,,,,Conditions/Version_1/zeroback(4)_v1.xlsx,New rule: Press 'space' when you see the letter 'x' or 'X'.,X,space,,,,,,,,,0,13,13,13,0,9,9,9,,,,,,,,,,,,,,,,,,,,,,,,,,,,,,,,,,,,,,,,,,,,,,,,,,,,,,,,,,,,,,,,,,,,,1.4998,960.4460584000335,None,space,1,960.4460584000335,None,0.4065538999857381,P016,fencog,1,Pre,2021_Oct_25_1225,N-Back (New Version 2021),2021.1.4,120.2022763916716,
,,,,Conditions/Version_1/zeroback(4)_v1.xlsx,New rule: Press 'space' when you see the letter 'x' or 'X'.,,,,,,,,,,,0,13,13,13,,,,,,,,,,,,,,,,,,,,,,,,,,,,,,,,,,,,,,,,,,,,,,,,,,,,,,,,,,,,,,,,,,,,,,,,,,,,,,,,,P016,fencog,1,Pre,2021_Oct_25_1225,N-Back (New Version 2021),2021.1.4,120.2022763916716,
,,,,Conditions/Version_1/oneback(4)_v1.xlsx,New rule: Press 'space' when you see 1-back (i.e. the same letter as the one that appeared 1 letter ago.),w,None,,,,,,,,,0,14,14,14,0,0,0,0,,,,,,,,,,,,,,,,,,,,,,,,,,,,,,,,,,,,,,,,,,,,,,,,,,,,,,,,,,,962.4668468000018,None,965.4559058999876,None,space,0.35577439999906346,965.4559058999876,None,962.4668468000018,None,1.6486,967.48559940001,None,None,1,967.48559940001,None,,P016,fencog,1,Pre,2021_Oct_25_1225,N-Back (New Version 2021),2021.1.4,120.2022763916716,
,,,,Conditions/Version_1/oneback(4)_v1.xlsx,New rule: Press 'space' when you see 1-back (i.e. the same letter as the one that appeared 1 letter ago.),q,None,,,,,,,,,0,14,14,14,0,1,1,1,,,,,,,,,,,,,,,,,,,,,,,,,,,,,,,,,,,,,,,,,,,,,,,,,,,,,,,,,,,,,,,,,,,,,1.3882,970.8763192000333,None,None,1,970.8763192000333,None,,P016,fencog,1,Pre,2021_Oct_25_1225,N-Back (New Version 2021),2021.1.4,120.2022763916716,
,,,,Conditions/Version_1/oneback(4)_v1.xlsx,New rule: Press 'space' when you see 1-back (i.e. the same letter as the one that appeared 1 letter ago.),i,None,,,,,,,,,0,14,14,14,0,2,2,2,,,,,,,,,,,,,,,,,,,,,,,,,,,,,,,,,,,,,,,,,,,,,,,,,,,,,,,,,,,,,,,,,,,,,1.2952,974.1762598999776,None,None,1,974.1762598999776,None,,P016,fencog,1,Pre,2021_Oct_25_1225,N-Back (New Version 2021),2021.1.4,120.2022763916716,
,,,,Conditions/Version_1/oneback(4)_v1.xlsx,New rule: Press 'space' when you see 1-back (i.e. the same letter as the one that appeared 1 letter ago.),t,None,,,,,,,,,0,14,14,14,0,3,3,3,,,,,,,,,,,,,,,,,,,,,,,,,,,,,,,,,,,,,,,,,,,,,,,,,,,,,,,,,,,,,,,,,,,,,1.0286,977.2190569000086,None,None,1,977.2190569000086,None,,P016,fencog,1,Pre,2021_Oct_25_1225,N-Back (New Version 2021),2021.1.4,120.2022763916716,
,,,,Conditions/Version_1/oneback(4)_v1.xlsx,New rule: Press 'space' when you see 1-back (i.e. the same letter as the one that appeared 1 letter ago.),v,None,,,,,,,,,0,14,14,14,0,4,4,4,,,,,,,,,,,,,,,,,,,,,,,,,,,,,,,,,,,,,,,,,,,,,,,,,,,,,,,,,,,,,,,,,,,,,1.0348,980.2576362999971,None,None,1,980.2576362999971,None,,P016,fencog,1,Pre,2021_Oct_25_1225,N-Back (New Version 2021),2021.1.4,120.2022763916716,
,,,,Conditions/Version_1/oneback(4)_v1.xlsx,New rule: Press 'space' when you see 1-back (i.e. the same letter as the one that appeared 1 letter ago.),V,space,,,,,,,,,0,14,14,14,0,5,5,5,,,,,,,,,,,,,,,,,,,,,,,,,,,,,,,,,,,,,,,,,,,,,,,,,,,,,,,,,,,,,,,,,,,,,1.3138,983.5827930999803,None,space,1,983.5827930999803,None,0.38957569998456165,P016,fencog,1,Pre,2021_Oct_25_1225,N-Back (New Version 2021),2021.1.4,120.2022763916716,
,,,,Conditions/Version_1/oneback(4)_v1.xlsx,New rule: Press 'space' when you see 1-back (i.e. the same letter as the one that appeared 1 letter ago.),v,space,,,,,,,,,0,14,14,14,0,6,6,6,,,,,,,,,,,,,,,,,,,,,,,,,,,,,,,,,,,,,,,,,,,,,,,,,,,,,,,,,,,,,,,,,,,,,1.7168,987.3060779999942,None,None,0,987.3060779999942,None,,P016,fencog,1,Pre,2021_Oct_25_1225,N-Back (New Version 2021),2021.1.4,120.2022763916716,
,,,,Conditions/Version_1/oneback(4)_v1.xlsx,New rule: Press 'space' when you see 1-back (i.e. the same letter as the one that appeared 1 letter ago.),p,None,,,,,,,,,0,14,14,14,0,7,7,7,,,,,,,,,,,,,,,,,,,,,,,,,,,,,,,,,,,,,,,,,,,,,,,,,,,,,,,,,,,,,,,,,,,,,1.0162,990.3339158000308,None,None,1,990.3339158000308,None,,P016,fencog,1,Pre,2021_Oct_25_1225,N-Back (New Version 2021),2021.1.4,120.2022763916716,
,,,,Conditions/Version_1/oneback(4)_v1.xlsx,New rule: Press 'space' when you see 1-back (i.e. the same letter as the one that appeared 1 letter ago.),w,None,,,,,,,,,0,14,14,14,0,8,8,8,,,,,,,,,,,,,,,,,,,,,,,,,,,,,,,,,,,,,,,,,,,,,,,,,,,,,,,,,,,,,,,,,,,,,1.5804,993.9229428999824,None,None,1,993.9229428999824,None,,P016,fencog,1,Pre,2021_Oct_25_1225,N-Back (New Version 2021),2021.1.4,120.2022763916716,
,,,,Conditions/Version_1/oneback(4)_v1.xlsx,New rule: Press 'space' when you see 1-back (i.e. the same letter as the one that appeared 1 letter ago.),W,space,,,,,,,,,0,14,14,14,0,9,9,9,,,,,,,,,,,,,,,,,,,,,,,,,,,,,,,,,,,,,,,,,,,,,,,,,,,,,,,,,,,,,,,,,,,,,1.227,997.1600978000206,None,space,1,997.1600978000206,None,0.4598865000298247,P016,fencog,1,Pre,2021_Oct_25_1225,N-Back (New Version 2021),2021.1.4,120.2022763916716,
,,,,Conditions/Version_1/oneback(4)_v1.xlsx,New rule: Press 'space' when you see 1-back (i.e. the same letter as the one that appeared 1 letter ago.),,,,,,,,,,,0,14,14,14,,,,,,,,,,,,,,,,,,,,,,,,,,,,,,,,,,,,,,,,,,,,,,,,,,,,,,,,,,,,,,,,,,,,,,,,,,,,,,,,,P016,fencog,1,Pre,2021_Oct_25_1225,N-Back (New Version 2021),2021.1.4,120.2022763916716,
,,,,Conditions/Version_1/threeback(4)_v1.xlsx,New rule: Press 'space' when you see 3-back (i.e. the same letter as the one that appeared 3 letters ago.),A,None,,,,,,,,,0,15,15,15,0,0,0,0,,,,,,,,,,,,,,,,,,,,,,,,,,,,,,,,,,,,,,,,,,,,,,,,,,,,,,,,,,,999.1818628000328,None,1002.1688492000103,None,space,2.131352500000503,1002.1688492000103,None,999.1818628000328,None,1.971,1006.299838499981,None,None,1,1006.299838499981,None,,P016,fencog,1,Pre,2021_Oct_25_1225,N-Back (New Version 2021),2021.1.4,120.2022763916716,
,,,,Conditions/Version_1/threeback(4)_v1.xlsx,New rule: Press 'space' when you see 3-back (i.e. the same letter as the one that appeared 3 letters ago.),n,None,,,,,,,,,0,15,15,15,0,1,1,1,,,,,,,,,,,,,,,,,,,,,,,,,,,,,,,,,,,,,,,,,,,,,,,,,,,,,,,,,,,,,,,,,,,,,1.723,1010.0324148000218,None,None,1,1010.0324148000218,None,,P016,fencog,1,Pre,2021_Oct_25_1225,N-Back (New Version 2021),2021.1.4,120.2022763916716,
,,,,Conditions/Version_1/threeback(4)_v1.xlsx,New rule: Press 'space' when you see 3-back (i.e. the same letter as the one that appeared 3 letters ago.),g,None,,,,,,,,,0,15,15,15,0,2,2,2,,,,,,,,,,,,,,,,,,,,,,,,,,,,,,,,,,,,,,,,,,,,,,,,,,,,,,,,,,,,,,,,,,,,,1.0224,1013.0638083000085,None,None,1,1013.0638083000085,None,,P016,fencog,1,Pre,2021_Oct_25_1225,N-Back (New Version 2021),2021.1.4,120.2022763916716,
,,,,Conditions/Version_1/threeback(4)_v1.xlsx,New rule: Press 'space' when you see 3-back (i.e. the same letter as the one that appeared 3 letters ago.),A,space,,,,,,,,,0,15,15,15,0,3,3,3,,,,,,,,,,,,,,,,,,,,,,,,,,,,,,,,,,,,,,,,,,,,,,,,,,,,,,,,,,,,,,,,,,,,,1.5122,1016.5793367000297,None,space,1,1016.5793367000297,None,0.7445823999587446,P016,fencog,1,Pre,2021_Oct_25_1225,N-Back (New Version 2021),2021.1.4,120.2022763916716,
,,,,Conditions/Version_1/threeback(4)_v1.xlsx,New rule: Press 'space' when you see 3-back (i.e. the same letter as the one that appeared 3 letters ago.),p,None,,,,,,,,,0,15,15,15,0,4,4,4,,,,,,,,,,,,,,,,,,,,,,,,,,,,,,,,,,,,,,,,,,,,,,,,,,,,,,,,,,,,,,,,,,,,,1.9276,1020.5114928000257,None,None,1,1020.5114928000257,None,,P016,fencog,1,Pre,2021_Oct_25_1225,N-Back (New Version 2021),2021.1.4,120.2022763916716,
,,,,Conditions/Version_1/threeback(4)_v1.xlsx,New rule: Press 'space' when you see 3-back (i.e. the same letter as the one that appeared 3 letters ago.),O,None,,,,,,,,,0,15,15,15,0,5,5,5,,,,,,,,,,,,,,,,,,,,,,,,,,,,,,,,,,,,,,,,,,,,,,,,,,,,,,,,,,,,,,,,,,,,,1.0782,1023.5992602999904,None,None,1,1023.5992602999904,None,,P016,fencog,1,Pre,2021_Oct_25_1225,N-Back (New Version 2021),2021.1.4,120.2022763916716,
,,,,Conditions/Version_1/threeback(4)_v1.xlsx,New rule: Press 'space' when you see 3-back (i.e. the same letter as the one that appeared 3 letters ago.),a,space,,,,,,,,,0,15,15,15,0,6,6,6,,,,,,,,,,,,,,,,,,,,,,,,,,,,,,,,,,,,,,,,,,,,,,,,,,,,,,,,,,,,,,,,,,,,,1.227,1026.8356736000278,None,None,0,1026.8356736000278,None,,P016,fencog,1,Pre,2021_Oct_25_1225,N-Back (New Version 2021),2021.1.4,120.2022763916716,
,,,,Conditions/Version_1/threeback(4)_v1.xlsx,New rule: Press 'space' when you see 3-back (i.e. the same letter as the one that appeared 3 letters ago.),p,space,,,,,,,,,0,15,15,15,0,7,7,7,,,,,,,,,,,,,,,,,,,,,,,,,,,,,,,,,,,,,,,,,,,,,,,,,,,,,,,,,,,,,,,,,,,,,1.7106,1030.552187399997,None,space,1,1030.552187399997,None,1.2915077999932691,P016,fencog,1,Pre,2021_Oct_25_1225,N-Back (New Version 2021),2021.1.4,120.2022763916716,
,,,,Conditions/Version_1/threeback(4)_v1.xlsx,New rule: Press 'space' when you see 3-back (i.e. the same letter as the one that appeared 3 letters ago.),x,None,,,,,,,,,0,15,15,15,0,8,8,8,,,,,,,,,,,,,,,,,,,,,,,,,,,,,,,,,,,,,,,,,,,,,,,,,,,,,,,,,,,,,,,,,,,,,1.1154,1033.6748731000116,None,None,1,1033.6748731000116,None,,P016,fencog,1,Pre,2021_Oct_25_1225,N-Back (New Version 2021),2021.1.4,120.2022763916716,
,,,,Conditions/Version_1/threeback(4)_v1.xlsx,New rule: Press 'space' when you see 3-back (i.e. the same letter as the one that appeared 3 letters ago.),X,None,,,,,,,,,0,15,15,15,0,9,9,9,,,,,,,,,,,,,,,,,,,,,,,,,,,,,,,,,,,,,,,,,,,,,,,,,,,,,,,,,,,,,,,,,,,,,1.2084,1036.893952000013,None,None,1,1036.893952000013,None,,P016,fencog,1,Pre,2021_Oct_25_1225,N-Back (New Version 2021),2021.1.4,120.2022763916716,
,,,,Conditions/Version_1/threeback(4)_v1.xlsx,New rule: Press 'space' when you see 3-back (i.e. the same letter as the one that appeared 3 letters ago.),,,,,,,,,,,0,15,15,15,,,,,,,,,,,,,,,,,,,,,,,,,,,,,,,,,,,,,,,,,,,,,,,,,,,,,,,,,,,,,,,,,,,,,,,,,,,,,,,,,P016,fencog,1,Pre,2021_Oct_25_1225,N-Back (New Version 2021),2021.1.4,120.2022763916716,
