CondFileP,InstructionsP,LettersDisplayedP,CorrectnessP,CondFile,Instructions,LettersDisplayed,Correctness,practicetrials.thisRepN,practicetrials.thisTrialN,practicetrials.thisN,practicetrials.thisIndex,InnerLoopPractice.thisRepN,InnerLoopPractice.thisTrialN,InnerLoopPractice.thisN,InnerLoopPractice.thisIndex,trials.thisRepN,trials.thisTrialN,trials.thisN,trials.thisIndex,InnerLoop.thisRepN,InnerLoop.thisTrialN,InnerLoop.thisN,InnerLoop.thisIndex,TaskVersionText.started,TaskVersionText.stopped,InstrKey1.keys,InstrKey1.rt,InstrKey1.started,InstrKey1.stopped,text.started,text.stopped,key_resp_4.keys,key_resp_4.rt,key_resp_4.started,key_resp_4.stopped,text_2.started,text_2.stopped,key_resp_3.keys,key_resp_3.rt,key_resp_3.started,key_resp_3.stopped,text_3.started,text_3.stopped,key_resp_2.keys,key_resp_2.rt,key_resp_2.started,key_resp_2.stopped,PractIn1.started,PractIn1.stopped,PractIn2.started,PractIn2.stopped,PractInstructionPass.keys,PractInstructionPass.rt,PractInstructionPass.started,PractInstructionPass.stopped,PractBlock1.started,PractBlock1.stopped,ISIjitterPractice,ISI_Pract_Fixation.started,ISI_Pract_Fixation.stopped,N_backP.started,N_backP.stopped,KeyPractice.keys,KeyPractice.corr,KeyPractice.rt,KeyPractice.started,KeyPractice.stopped,text_4.started,text_4.stopped,TransitionText.started,TransitionText.stopped,key_resp_6.keys,key_resp_6.rt,key_resp_6.started,key_resp_6.stopped,text_5.started,text_5.stopped,key_resp_5.keys,key_resp_5.rt,key_resp_5.started,key_resp_5.stopped,MainInt1.started,MainInt1.stopped,MainInt2.started,MainInt2.stopped,InstructionPass.keys,InstructionPass.rt,InstructionPass.started,InstructionPass.stopped,Blocks1.started,Blocks1.stopped,ISIjitter,N_backD.started,N_backD.stopped,key_resp.keys,key_resp.corr,key_resp.started,key_resp.stopped,key_resp.rt,participant,Study Name,Task Version (required to run),PRE/POST,date,expName,psychopyVersion,frameRate
,,,,,,,,,,,,,,,,,,,,,,,,25.6075558,None,space,197.2315645,26.0964801,None,,,,,,,,,,,,,,,,,,,,,,,,,,,,,,,,,,,,,,,,,,,,,,,,,,,,,,,,,,,,,,,,,,,,,,,P017,fencog,2,Post,2021_Nov_04_1158,N-Back (New Version 2021),2021.1.4,119.9259337
,,,,,,,,,,,,,,,,,,,,,,,,,,,,,,223.3622013,None,space,15.2970635,223.8550343,None,,,,,,,,,,,,,,,,,,,,,,,,,,,,,,,,,,,,,,,,,,,,,,,,,,,,,,,,,,,,,,,,,P017,fencog,2,Post,2021_Nov_04_1158,N-Back (New Version 2021),2021.1.4,119.9259337
,,,,,,,,,,,,,,,,,,,,,,,,,,,,,,,,,,,,239.194901,None,space,7.7879532,239.6840243,None,,,,,,,,,,,,,,,,,,,,,,,,,,,,,,,,,,,,,,,,,,,,,,,,,,,,,,,,,,,P017,fencog,2,Post,2021_Nov_04_1158,N-Back (New Version 2021),2021.1.4,119.9259337
,,,,,,,,,,,,,,,,,,,,,,,,,,,,,,,,,,,,,,,,,,247.5097516,None,space,7.5137404,248.0064289,None,,,,,,,,,,,,,,,,,,,,,,,,,,,,,,,,,,,,,,,,,,,,,,,,,,,,,P017,fencog,2,Post,2021_Nov_04_1158,N-Back (New Version 2021),2021.1.4,119.9259337
Conditions/Version_2Pr/zeroback(1)_v2.xlsx,Rule: Press 'space' when you see the letter 'x' or 'X'.,x,space,,,,,0,0,0,0,0,0,0,0,,,,,,,,,,,,,,,,,,,,,,,,,,,,,,,,,256.9206325,None,259.9039009,None,space,0.1681248,259.9039009,None,256.9206325,None,1.64,260.1188884,None,261.7628275,None,space,1,0.8451262,261.7628275,None,262.623331,None,,,,,,,,,,,,,,,,,,,,,,,,,,,,,,,P017,fencog,2,Post,2021_Nov_04_1158,N-Back (New Version 2021),2021.1.4,119.9259337
Conditions/Version_2Pr/zeroback(1)_v2.xlsx,Rule: Press 'space' when you see the letter 'x' or 'X'.,R,None,,,,,0,0,0,0,0,1,1,1,,,,,,,,,,,,,,,,,,,,,,,,,,,,,,,,,,,,,,,,,,,1.24,264.1254897,None,265.3690043,None,None,1,,265.3690043,None,267.3746856,None,,,,,,,,,,,,,,,,,,,,,,,,,,,,,,,P017,fencog,2,Post,2021_Nov_04_1158,N-Back (New Version 2021),2021.1.4,119.9259337
Conditions/Version_2Pr/zeroback(1)_v2.xlsx,Rule: Press 'space' when you see the letter 'x' or 'X'.,p,None,,,,,0,0,0,0,0,2,2,2,,,,,,,,,,,,,,,,,,,,,,,,,,,,,,,,,,,,,,,,,,,1.465,268.8744435,None,270.3414738,None,None,1,,270.3414738,None,272.3483561,None,,,,,,,,,,,,,,,,,,,,,,,,,,,,,,,P017,fencog,2,Post,2021_Nov_04_1158,N-Back (New Version 2021),2021.1.4,119.9259337
Conditions/Version_2Pr/zeroback(1)_v2.xlsx,Rule: Press 'space' when you see the letter 'x' or 'X'.,O,None,,,,,0,0,0,0,0,3,3,3,,,,,,,,,,,,,,,,,,,,,,,,,,,,,,,,,,,,,,,,,,,1.44,273.8478894,None,275.2908017,None,None,1,,275.2908017,None,277.2967252,None,,,,,,,,,,,,,,,,,,,,,,,,,,,,,,,P017,fencog,2,Post,2021_Nov_04_1158,N-Back (New Version 2021),2021.1.4,119.9259337
Conditions/Version_2Pr/zeroback(1)_v2.xlsx,Rule: Press 'space' when you see the letter 'x' or 'X'.,i,None,,,,,0,0,0,0,0,4,4,4,,,,,,,,,,,,,,,,,,,,,,,,,,,,,,,,,,,,,,,,,,,1.815,278.7963231,None,280.6139532,None,None,1,,280.6139532,None,282.6204385,None,,,,,,,,,,,,,,,,,,,,,,,,,,,,,,,P017,fencog,2,Post,2021_Nov_04_1158,N-Back (New Version 2021),2021.1.4,119.9259337
Conditions/Version_2Pr/zeroback(1)_v2.xlsx,Rule: Press 'space' when you see the letter 'x' or 'X'.,U,None,,,,,0,0,0,0,0,5,5,5,,,,,,,,,,,,,,,,,,,,,,,,,,,,,,,,,,,,,,,,,,,1.89,284.1199102,None,286.0123264,None,None,1,,286.0123264,None,288.0186223,None,,,,,,,,,,,,,,,,,,,,,,,,,,,,,,,P017,fencog,2,Post,2021_Nov_04_1158,N-Back (New Version 2021),2021.1.4,119.9259337
Conditions/Version_2Pr/zeroback(1)_v2.xlsx,Rule: Press 'space' when you see the letter 'x' or 'X'.,N,None,,,,,0,0,0,0,0,6,6,6,,,,,,,,,,,,,,,,,,,,,,,,,,,,,,,,,,,,,,,,,,,1.115,289.5183649,None,290.636991,None,None,1,,290.636991,None,292.6423988,None,,,,,,,,,,,,,,,,,,,,,,,,,,,,,,,P017,fencog,2,Post,2021_Nov_04_1158,N-Back (New Version 2021),2021.1.4,119.9259337
Conditions/Version_2Pr/zeroback(1)_v2.xlsx,Rule: Press 'space' when you see the letter 'x' or 'X'.,m,None,,,,,0,0,0,0,0,7,7,7,,,,,,,,,,,,,,,,,,,,,,,,,,,,,,,,,,,,,,,,,,,1.29,294.1427646,None,295.4359275,None,None,1,,295.4359275,None,297.4407832,None,,,,,,,,,,,,,,,,,,,,,,,,,,,,,,,P017,fencog,2,Post,2021_Nov_04_1158,N-Back (New Version 2021),2021.1.4,119.9259337
Conditions/Version_2Pr/zeroback(1)_v2.xlsx,Rule: Press 'space' when you see the letter 'x' or 'X'.,x,space,,,,,0,0,0,0,0,8,8,8,,,,,,,,,,,,,,,,,,,,,,,,,,,,,,,,,,,,,,,,,,,1.265,298.9404768,None,300.2100044,None,space,1,0.5098663,300.2100044,None,300.7325623,None,,,,,,,,,,,,,,,,,,,,,,,,,,,,,,,P017,fencog,2,Post,2021_Nov_04_1158,N-Back (New Version 2021),2021.1.4,119.9259337
Conditions/Version_2Pr/zeroback(1)_v2.xlsx,Rule: Press 'space' when you see the letter 'x' or 'X'.,X,space,,,,,0,0,0,0,0,9,9,9,,,,,,,,,,,,,,,,,,,,,,,,,,,,,,,,,,,,,,,,,,,1.74,302.2394942,None,303.9821222,None,space,1,0.4179925,303.9821222,None,304.4151413,None,,,,,,,,,,,,,,,,,,,,,,,,,,,,,,,P017,fencog,2,Post,2021_Nov_04_1158,N-Back (New Version 2021),2021.1.4,119.9259337
Conditions/Version_2Pr/zeroback(1)_v2.xlsx,Rule: Press 'space' when you see the letter 'x' or 'X'.,,,,,,,0,0,0,0,,,,,,,,,,,,,,,,,,,,,,,,,,,,,,,,,,,,,,,,,,,,,,,,,,,,,,,,,,,,,,,,,,,,,,,,,,,,,,,,,,,,,,,,,P017,fencog,2,Post,2021_Nov_04_1158,N-Back (New Version 2021),2021.1.4,119.9259337
Conditions/Version_2Pr/oneback(1)_v2.xlsx,New rule: Press 'space' when you see 1-back (i.e. the same letter as the one that appeared 1 letter ago.),r,None,,,,,0,1,1,1,0,0,0,0,,,,,,,,,,,,,,,,,,,,,,,,,,,,,,,,,305.9431391,None,308.931283,None,space,2.8043826,308.931283,None,305.9431391,None,1.04,311.7590992,None,312.8044367,None,None,1,,312.8044367,None,314.8108166,None,,,,,,,,,,,,,,,,,,,,,,,,,,,,,,,P017,fencog,2,Post,2021_Nov_04_1158,N-Back (New Version 2021),2021.1.4,119.9259337
Conditions/Version_2Pr/oneback(1)_v2.xlsx,New rule: Press 'space' when you see 1-back (i.e. the same letter as the one that appeared 1 letter ago.),t,None,,,,,0,1,1,1,0,1,1,1,,,,,,,,,,,,,,,,,,,,,,,,,,,,,,,,,,,,,,,,,,,1.79,316.3103005,None,318.101912,None,None,1,,318.101912,None,320.1092104,None,,,,,,,,,,,,,,,,,,,,,,,,,,,,,,,P017,fencog,2,Post,2021_Nov_04_1158,N-Back (New Version 2021),2021.1.4,119.9259337
Conditions/Version_2Pr/oneback(1)_v2.xlsx,New rule: Press 'space' when you see 1-back (i.e. the same letter as the one that appeared 1 letter ago.),Y,None,,,,,0,1,1,1,0,2,2,2,,,,,,,,,,,,,,,,,,,,,,,,,,,,,,,,,,,,,,,,,,,1.215,321.6087951,None,322.8264731,None,None,1,,322.8264731,None,324.8299637,None,,,,,,,,,,,,,,,,,,,,,,,,,,,,,,,P017,fencog,2,Post,2021_Nov_04_1158,N-Back (New Version 2021),2021.1.4,119.9259337
Conditions/Version_2Pr/oneback(1)_v2.xlsx,New rule: Press 'space' when you see 1-back (i.e. the same letter as the one that appeared 1 letter ago.),y,space,,,,,0,1,1,1,0,3,3,3,,,,,,,,,,,,,,,,,,,,,,,,,,,,,,,,,,,,,,,,,,,1.365,326.332343,None,327.6991347,None,None,0,,327.6991347,None,329.7080252,None,,,,,,,,,,,,,,,,,,,,,,,,,,,,,,,P017,fencog,2,Post,2021_Nov_04_1158,N-Back (New Version 2021),2021.1.4,119.9259337
Conditions/Version_2Pr/oneback(1)_v2.xlsx,New rule: Press 'space' when you see 1-back (i.e. the same letter as the one that appeared 1 letter ago.),p,None,,,,,0,1,1,1,0,4,4,4,,,,,,,,,,,,,,,,,,,,,,,,,,,,,,,,,,,,,,,,,,,1.19,331.2059195,None,332.3986514,None,None,1,,332.3986514,None,334.4055323,None,,,,,,,,,,,,,,,,,,,,,,,,,,,,,,,P017,fencog,2,Post,2021_Nov_04_1158,N-Back (New Version 2021),2021.1.4,119.9259337
Conditions/Version_2Pr/oneback(1)_v2.xlsx,New rule: Press 'space' when you see 1-back (i.e. the same letter as the one that appeared 1 letter ago.),P,space,,,,,0,1,1,1,0,5,5,5,,,,,,,,,,,,,,,,,,,,,,,,,,,,,,,,,,,,,,,,,,,1.465,335.9045497,None,337.3728224,None,space,1,0.4991578,337.3728224,None,337.8816979,None,,,,,,,,,,,,,,,,,,,,,,,,,,,,,,,P017,fencog,2,Post,2021_Nov_04_1158,N-Back (New Version 2021),2021.1.4,119.9259337
Conditions/Version_2Pr/oneback(1)_v2.xlsx,New rule: Press 'space' when you see 1-back (i.e. the same letter as the one that appeared 1 letter ago.),e,None,,,,,0,1,1,1,0,6,6,6,,,,,,,,,,,,,,,,,,,,,,,,,,,,,,,,,,,,,,,,,,,1.14,339.3867197,None,340.5308085,None,None,1,,340.5308085,None,342.5359863,None,,,,,,,,,,,,,,,,,,,,,,,,,,,,,,,P017,fencog,2,Post,2021_Nov_04_1158,N-Back (New Version 2021),2021.1.4,119.9259337
Conditions/Version_2Pr/oneback(1)_v2.xlsx,New rule: Press 'space' when you see 1-back (i.e. the same letter as the one that appeared 1 letter ago.),r,None,,,,,0,1,1,1,0,7,7,7,,,,,,,,,,,,,,,,,,,,,,,,,,,,,,,,,,,,,,,,,,,1.24,344.0355034,None,345.2798888,None,None,1,,345.2798888,None,347.2845519,None,,,,,,,,,,,,,,,,,,,,,,,,,,,,,,,P017,fencog,2,Post,2021_Nov_04_1158,N-Back (New Version 2021),2021.1.4,119.9259337
Conditions/Version_2Pr/oneback(1)_v2.xlsx,New rule: Press 'space' when you see 1-back (i.e. the same letter as the one that appeared 1 letter ago.),R,space,,,,,0,1,1,1,0,8,8,8,,,,,,,,,,,,,,,,,,,,,,,,,,,,,,,,,,,,,,,,,,,1.89,348.7841019,None,350.6751124,None,space,1,0.4286369,350.6751124,None,351.1170514,None,,,,,,,,,,,,,,,,,,,,,,,,,,,,,,,P017,fencog,2,Post,2021_Nov_04_1158,N-Back (New Version 2021),2021.1.4,119.9259337
Conditions/Version_2Pr/oneback(1)_v2.xlsx,New rule: Press 'space' when you see 1-back (i.e. the same letter as the one that appeared 1 letter ago.),p,None,,,,,0,1,1,1,0,9,9,9,,,,,,,,,,,,,,,,,,,,,,,,,,,,,,,,,,,,,,,,,,,1.59,352.6162603,None,354.2080924,None,None,1,,354.2080924,None,356.2152222,None,,,,,,,,,,,,,,,,,,,,,,,,,,,,,,,P017,fencog,2,Post,2021_Nov_04_1158,N-Back (New Version 2021),2021.1.4,119.9259337
Conditions/Version_2Pr/oneback(1)_v2.xlsx,New rule: Press 'space' when you see 1-back (i.e. the same letter as the one that appeared 1 letter ago.),,,,,,,0,1,1,1,,,,,,,,,,,,,,,,,,,,,,,,,,,,,,,,,,,,,,,,,,,,,,,,,,,,,,,,,,,,,,,,,,,,,,,,,,,,,,,,,,,,,,,,,P017,fencog,2,Post,2021_Nov_04_1158,N-Back (New Version 2021),2021.1.4,119.9259337
Conditions/Version_2Pr/twoback(1)_v2.xlsx,New rule: Press 'space' when you see 2-back (i.e. the same letter as the one that appeared 2 letters ago.),r,None,,,,,0,2,2,2,0,0,0,0,,,,,,,,,,,,,,,,,,,,,,,,,,,,,,,,,357.7477431,None,360.7330158,None,space,0.8669897,360.7330158,None,357.7477431,None,1.14,361.6187549,None,362.7687552,None,None,1,,362.7687552,None,364.7709005,None,,,,,,,,,,,,,,,,,,,,,,,,,,,,,,,P017,fencog,2,Post,2021_Nov_04_1158,N-Back (New Version 2021),2021.1.4,119.9259337
Conditions/Version_2Pr/twoback(1)_v2.xlsx,New rule: Press 'space' when you see 2-back (i.e. the same letter as the one that appeared 2 letters ago.),P,None,,,,,0,2,2,2,0,1,1,1,,,,,,,,,,,,,,,,,,,,,,,,,,,,,,,,,,,,,,,,,,,1.19,366.2705015,None,367.461639,None,None,1,,367.461639,None,369.46127,None,,,,,,,,,,,,,,,,,,,,,,,,,,,,,,,P017,fencog,2,Post,2021_Nov_04_1158,N-Back (New Version 2021),2021.1.4,119.9259337
Conditions/Version_2Pr/twoback(1)_v2.xlsx,New rule: Press 'space' when you see 2-back (i.e. the same letter as the one that appeared 2 letters ago.),o,None,,,,,0,2,2,2,0,2,2,2,,,,,,,,,,,,,,,,,,,,,,,,,,,,,,,,,,,,,,,,,,,1.24,370.9608745,None,372.2073292,None,None,1,,372.2073292,None,374.2096249,None,,,,,,,,,,,,,,,,,,,,,,,,,,,,,,,P017,fencog,2,Post,2021_Nov_04_1158,N-Back (New Version 2021),2021.1.4,119.9259337
Conditions/Version_2Pr/twoback(1)_v2.xlsx,New rule: Press 'space' when you see 2-back (i.e. the same letter as the one that appeared 2 letters ago.),p,space,,,,,0,2,2,2,0,3,3,3,,,,,,,,,,,,,,,,,,,,,,,,,,,,,,,,,,,,,,,,,,,1.64,375.7096566,None,377.3573925,None,space,1,0.4505013,377.3573925,None,377.8187411,None,,,,,,,,,,,,,,,,,,,,,,,,,,,,,,,P017,fencog,2,Post,2021_Nov_04_1158,N-Back (New Version 2021),2021.1.4,119.9259337
Conditions/Version_2Pr/twoback(1)_v2.xlsx,New rule: Press 'space' when you see 2-back (i.e. the same letter as the one that appeared 2 letters ago.),Y,None,,,,,0,2,2,2,0,4,4,4,,,,,,,,,,,,,,,,,,,,,,,,,,,,,,,,,,,,,,,,,,,1.315,379.3247136,None,380.6410639,None,None,1,,380.6410639,None,382.6406011,None,,,,,,,,,,,,,,,,,,,,,,,,,,,,,,,P017,fencog,2,Post,2021_Nov_04_1158,N-Back (New Version 2021),2021.1.4,119.9259337
Conditions/Version_2Pr/twoback(1)_v2.xlsx,New rule: Press 'space' when you see 2-back (i.e. the same letter as the one that appeared 2 letters ago.),q,None,,,,,0,2,2,2,0,5,5,5,,,,,,,,,,,,,,,,,,,,,,,,,,,,,,,,,,,,,,,,,,,1.665,384.1402029,None,385.8072913,None,None,1,,385.8072913,None,387.8138093,None,,,,,,,,,,,,,,,,,,,,,,,,,,,,,,,P017,fencog,2,Post,2021_Nov_04_1158,N-Back (New Version 2021),2021.1.4,119.9259337
Conditions/Version_2Pr/twoback(1)_v2.xlsx,New rule: Press 'space' when you see 2-back (i.e. the same letter as the one that appeared 2 letters ago.),m,None,,,,,0,2,2,2,0,6,6,6,,,,,,,,,,,,,,,,,,,,,,,,,,,,,,,,,,,,,,,,,,,1.565,389.3134086,None,390.8795966,None,None,1,,390.8795966,None,392.8789865,None,,,,,,,,,,,,,,,,,,,,,,,,,,,,,,,P017,fencog,2,Post,2021_Nov_04_1158,N-Back (New Version 2021),2021.1.4,119.9259337
Conditions/Version_2Pr/twoback(1)_v2.xlsx,New rule: Press 'space' when you see 2-back (i.e. the same letter as the one that appeared 2 letters ago.),Q,space,,,,,0,2,2,2,0,7,7,7,,,,,,,,,,,,,,,,,,,,,,,,,,,,,,,,,,,,,,,,,,,1.39,394.3785027,None,395.7814135,None,space,1,0.6744597,395.7814135,None,396.4704542,None,,,,,,,,,,,,,,,,,,,,,,,,,,,,,,,P017,fencog,2,Post,2021_Nov_04_1158,N-Back (New Version 2021),2021.1.4,119.9259337
Conditions/Version_2Pr/twoback(1)_v2.xlsx,New rule: Press 'space' when you see 2-back (i.e. the same letter as the one that appeared 2 letters ago.),L,None,,,,,0,2,2,2,0,8,8,8,,,,,,,,,,,,,,,,,,,,,,,,,,,,,,,,,,,,,,,,,,,1.69,397.9777423,None,399.6733934,None,None,1,,399.6733934,None,401.6709787,None,,,,,,,,,,,,,,,,,,,,,,,,,,,,,,,P017,fencog,2,Post,2021_Nov_04_1158,N-Back (New Version 2021),2021.1.4,119.9259337
Conditions/Version_2Pr/twoback(1)_v2.xlsx,New rule: Press 'space' when you see 2-back (i.e. the same letter as the one that appeared 2 letters ago.),q,space,,,,,0,2,2,2,0,9,9,9,,,,,,,,,,,,,,,,,,,,,,,,,,,,,,,,,,,,,,,,,,,1.415,403.176319,None,404.5923599,None,space,1,0.5994872,404.5923599,None,405.2014308,None,,,,,,,,,,,,,,,,,,,,,,,,,,,,,,,P017,fencog,2,Post,2021_Nov_04_1158,N-Back (New Version 2021),2021.1.4,119.9259337
Conditions/Version_2Pr/twoback(1)_v2.xlsx,New rule: Press 'space' when you see 2-back (i.e. the same letter as the one that appeared 2 letters ago.),,,,,,,0,2,2,2,,,,,,,,,,,,,,,,,,,,,,,,,,,,,,,,,,,,,,,,,,,,,,,,,,,,,,,,,,,,,,,,,,,,,,,,,,,,,,,,,,,,,,,,,P017,fencog,2,Post,2021_Nov_04_1158,N-Back (New Version 2021),2021.1.4,119.9259337
Conditions/Version_2Pr/threeback(1)_v2.xlsx,New rule: Press 'space' when you see 3-back (i.e. the same letter as the one that appeared 3 letters ago.),u,None,,,,,0,3,3,3,0,0,0,0,,,,,,,,,,,,,,,,,,,,,,,,,,,,,,,,,406.7300869,None,409.7184472,None,space,9.2813166,409.7184472,None,406.7300869,None,1.54,419.0233266,None,420.5649685,None,None,1,,420.5649685,None,422.5704087,None,,,,,,,,,,,,,,,,,,,,,,,,,,,,,,,P017,fencog,2,Post,2021_Nov_04_1158,N-Back (New Version 2021),2021.1.4,119.9259337
Conditions/Version_2Pr/threeback(1)_v2.xlsx,New rule: Press 'space' when you see 3-back (i.e. the same letter as the one that appeared 3 letters ago.),U,None,,,,,0,3,3,3,0,1,1,1,,,,,,,,,,,,,,,,,,,,,,,,,,,,,,,,,,,,,,,,,,,1.09,424.0700827,None,425.1622962,None,None,1,,425.1622962,None,427.1630808,None,,,,,,,,,,,,,,,,,,,,,,,,,,,,,,,P017,fencog,2,Post,2021_Nov_04_1158,N-Back (New Version 2021),2021.1.4,119.9259337
Conditions/Version_2Pr/threeback(1)_v2.xlsx,New rule: Press 'space' when you see 3-back (i.e. the same letter as the one that appeared 3 letters ago.),p,None,,,,,0,3,3,3,0,2,2,2,,,,,,,,,,,,,,,,,,,,,,,,,,,,,,,,,,,,,,,,,,,1.74,428.6686531,None,430.4104753,None,None,1,,430.4104753,None,432.4176421,None,,,,,,,,,,,,,,,,,,,,,,,,,,,,,,,P017,fencog,2,Post,2021_Nov_04_1158,N-Back (New Version 2021),2021.1.4,119.9259337
Conditions/Version_2Pr/threeback(1)_v2.xlsx,New rule: Press 'space' when you see 3-back (i.e. the same letter as the one that appeared 3 letters ago.),U,space,,,,,0,3,3,3,0,3,3,3,,,,,,,,,,,,,,,,,,,,,,,,,,,,,,,,,,,,,,,,,,,1.29,433.9171348,None,435.2105858,None,space,1,0.4610997,435.2105858,None,435.6845524,None,,,,,,,,,,,,,,,,,,,,,,,,,,,,,,,P017,fencog,2,Post,2021_Nov_04_1158,N-Back (New Version 2021),2021.1.4,119.9259337
Conditions/Version_2Pr/threeback(1)_v2.xlsx,New rule: Press 'space' when you see 3-back (i.e. the same letter as the one that appeared 3 letters ago.),e,None,,,,,0,3,3,3,0,4,4,4,,,,,,,,,,,,,,,,,,,,,,,,,,,,,,,,,,,,,,,,,,,1.715,437.1910363,None,438.9081038,None,None,1,,438.9081038,None,440.9149985,None,,,,,,,,,,,,,,,,,,,,,,,,,,,,,,,P017,fencog,2,Post,2021_Nov_04_1158,N-Back (New Version 2021),2021.1.4,119.9259337
Conditions/Version_2Pr/threeback(1)_v2.xlsx,New rule: Press 'space' when you see 3-back (i.e. the same letter as the one that appeared 3 letters ago.),R,None,,,,,0,3,3,3,0,5,5,5,,,,,,,,,,,,,,,,,,,,,,,,,,,,,,,,,,,,,,,,,,,1.465,442.41435,None,443.8818075,None,None,1,,443.8818075,None,445.8886145,None,,,,,,,,,,,,,,,,,,,,,,,,,,,,,,,P017,fencog,2,Post,2021_Nov_04_1158,N-Back (New Version 2021),2021.1.4,119.9259337
Conditions/Version_2Pr/threeback(1)_v2.xlsx,New rule: Press 'space' when you see 3-back (i.e. the same letter as the one that appeared 3 letters ago.),p,None,,,,,0,3,3,3,0,6,6,6,,,,,,,,,,,,,,,,,,,,,,,,,,,,,,,,,,,,,,,,,,,1.415,447.3879911,None,448.8057294,None,None,1,,448.8057294,None,450.8087181,None,,,,,,,,,,,,,,,,,,,,,,,,,,,,,,,P017,fencog,2,Post,2021_Nov_04_1158,N-Back (New Version 2021),2021.1.4,119.9259337
Conditions/Version_2Pr/threeback(1)_v2.xlsx,New rule: Press 'space' when you see 3-back (i.e. the same letter as the one that appeared 3 letters ago.),E,space,,,,,0,3,3,3,0,7,7,7,,,,,,,,,,,,,,,,,,,,,,,,,,,,,,,,,,,,,,,,,,,1.89,452.3117383,None,454.2047121,None,space,1,0.434929,454.2047121,None,454.6540171,None,,,,,,,,,,,,,,,,,,,,,,,,,,,,,,,P017,fencog,2,Post,2021_Nov_04_1158,N-Back (New Version 2021),2021.1.4,119.9259337
Conditions/Version_2Pr/threeback(1)_v2.xlsx,New rule: Press 'space' when you see 3-back (i.e. the same letter as the one that appeared 3 letters ago.),k,None,,,,,0,3,3,3,0,8,8,8,,,,,,,,,,,,,,,,,,,,,,,,,,,,,,,,,,,,,,,,,,,1.94,456.1606155,None,458.1024985,None,None,1,,458.1024985,None,460.1094245,None,,,,,,,,,,,,,,,,,,,,,,,,,,,,,,,P017,fencog,2,Post,2021_Nov_04_1158,N-Back (New Version 2021),2021.1.4,119.9259337
Conditions/Version_2Pr/threeback(1)_v2.xlsx,New rule: Press 'space' when you see 3-back (i.e. the same letter as the one that appeared 3 letters ago.),m,None,,,,,0,3,3,3,0,9,9,9,,,,,,,,,,,,,,,,,,,,,,,,,,,,,,,,,,,,,,,,,,,1.915,461.6089312,None,463.5255012,None,None,1,,463.5255012,None,465.5244824,None,,,,,,,,,,,,,,,,,,,,,,,,,,,,,,,P017,fencog,2,Post,2021_Nov_04_1158,N-Back (New Version 2021),2021.1.4,119.9259337
Conditions/Version_2Pr/threeback(1)_v2.xlsx,New rule: Press 'space' when you see 3-back (i.e. the same letter as the one that appeared 3 letters ago.),,,,,,,0,3,3,3,,,,,,,,,,,,,,,,,,,,,,,,,,,,,,,,,,,,,,,,,,,,,,,,,,,,,,,,,,,,,,,,,,,,,,,,,,,,,,,,,,,,,,,,,P017,fencog,2,Post,2021_Nov_04_1158,N-Back (New Version 2021),2021.1.4,119.9259337
,,,,,,,,,,,,,,,,,,,,,,,,,,,,,,,,,,,,,,,,,,,,,,,,,,,,,,,,,,,,,,,,,,,,,,467.034158,None,space,1.1876324,467.524253,None,,,,,,,,,,,,,,,,,,,,,,,,,P017,fencog,2,Post,2021_Nov_04_1158,N-Back (New Version 2021),2021.1.4,119.9259337
,,,,,,,,,,,,,,,,,,,,,,,,,,,,,,,,,,,,,,,,,,,,,,,,,,,,,,,,,,,,,,,,,,,,,,,,,,,,468.7369552,None,space,2.2954935,469.2322199,None,,,,,,,,,,,,,,,,,,,P017,fencog,2,Post,2021_Nov_04_1158,N-Back (New Version 2021),2021.1.4,119.9259337
,,,,Conditions/Version_1/zeroback(1)_v1.xlsx,Rule: Press 'space' when you see the letter 'x' or 'X'.,b,None,,,,,,,,,0,0,0,0,0,0,0,0,,,,,,,,,,,,,,,,,,,,,,,,,,,,,,,,,,,,,,,,,,,,,,,,,,,,,,,,,,,471.6387366,None,474.6234441,None,space,0.4723079,474.6234441,None,471.6387366,None,1.382,476.5091688,None,None,1,476.5091688,None,,P017,fencog,2,Post,2021_Nov_04_1158,N-Back (New Version 2021),2021.1.4,119.9259337
,,,,Conditions/Version_1/zeroback(1)_v1.xlsx,Rule: Press 'space' when you see the letter 'x' or 'X'.,T,None,,,,,,,,,0,0,0,0,0,1,1,1,,,,,,,,,,,,,,,,,,,,,,,,,,,,,,,,,,,,,,,,,,,,,,,,,,,,,,,,,,,,,,,,,,,,,1.258,479.7715769,None,None,1,479.7715769,None,,P017,fencog,2,Post,2021_Nov_04_1158,N-Back (New Version 2021),2021.1.4,119.9259337
,,,,Conditions/Version_1/zeroback(1)_v1.xlsx,Rule: Press 'space' when you see the letter 'x' or 'X'.,L,None,,,,,,,,,0,0,0,0,0,2,2,2,,,,,,,,,,,,,,,,,,,,,,,,,,,,,,,,,,,,,,,,,,,,,,,,,,,,,,,,,,,,,,,,,,,,,1.4192,483.2077362,None,None,1,483.2077362,None,,P017,fencog,2,Post,2021_Nov_04_1158,N-Back (New Version 2021),2021.1.4,119.9259337
,,,,Conditions/Version_1/zeroback(1)_v1.xlsx,Rule: Press 'space' when you see the letter 'x' or 'X'.,x,space,,,,,,,,,0,0,0,0,0,3,3,3,,,,,,,,,,,,,,,,,,,,,,,,,,,,,,,,,,,,,,,,,,,,,,,,,,,,,,,,,,,,,,,,,,,,,1.7726,486.9892965,None,space,1,486.9892965,None,0.4904345,P017,fencog,2,Post,2021_Nov_04_1158,N-Back (New Version 2021),2021.1.4,119.9259337
,,,,Conditions/Version_1/zeroback(1)_v1.xlsx,Rule: Press 'space' when you see the letter 'x' or 'X'.,o,None,,,,,,,,,0,0,0,0,0,4,4,4,,,,,,,,,,,,,,,,,,,,,,,,,,,,,,,,,,,,,,,,,,,,,,,,,,,,,,,,,,,,,,,,,,,,,1.289,490.2842321,None,None,1,490.2842321,None,,P017,fencog,2,Post,2021_Nov_04_1158,N-Back (New Version 2021),2021.1.4,119.9259337
,,,,Conditions/Version_1/zeroback(1)_v1.xlsx,Rule: Press 'space' when you see the letter 'x' or 'X'.,P,None,,,,,,,,,0,0,0,0,0,5,5,5,,,,,,,,,,,,,,,,,,,,,,,,,,,,,,,,,,,,,,,,,,,,,,,,,,,,,,,,,,,,,,,,,,,,,1.4502,493.745429,None,None,1,493.745429,None,,P017,fencog,2,Post,2021_Nov_04_1158,N-Back (New Version 2021),2021.1.4,119.9259337
,,,,Conditions/Version_1/zeroback(1)_v1.xlsx,Rule: Press 'space' when you see the letter 'x' or 'X'.,X,space,,,,,,,,,0,0,0,0,0,6,6,6,,,,,,,,,,,,,,,,,,,,,,,,,,,,,,,,,,,,,,,,,,,,,,,,,,,,,,,,,,,,,,,,,,,,,1.9648,497.7147519,None,space,1,497.7147519,None,0.4848795,P017,fencog,2,Post,2021_Nov_04_1158,N-Back (New Version 2021),2021.1.4,119.9259337
,,,,Conditions/Version_1/zeroback(1)_v1.xlsx,Rule: Press 'space' when you see the letter 'x' or 'X'.,n,None,,,,,,,,,0,0,0,0,0,7,7,7,,,,,,,,,,,,,,,,,,,,,,,,,,,,,,,,,,,,,,,,,,,,,,,,,,,,,,,,,,,,,,,,,,,,,1.2704,500.9884529,None,None,1,500.9884529,None,,P017,fencog,2,Post,2021_Nov_04_1158,N-Back (New Version 2021),2021.1.4,119.9259337
,,,,Conditions/Version_1/zeroback(1)_v1.xlsx,Rule: Press 'space' when you see the letter 'x' or 'X'.,M,None,,,,,,,,,0,0,0,0,0,8,8,8,,,,,,,,,,,,,,,,,,,,,,,,,,,,,,,,,,,,,,,,,,,,,,,,,,,,,,,,,,,,,,,,,,,,,1.7478,504.7381451,None,None,1,504.7381451,None,,P017,fencog,2,Post,2021_Nov_04_1158,N-Back (New Version 2021),2021.1.4,119.9259337
,,,,Conditions/Version_1/zeroback(1)_v1.xlsx,Rule: Press 'space' when you see the letter 'x' or 'X'.,a,None,,,,,,,,,0,0,0,0,0,9,9,9,,,,,,,,,,,,,,,,,,,,,,,,,,,,,,,,,,,,,,,,,,,,,,,,,,,,,,,,,,,,,,,,,,,,,1.3324,508.0795241,None,None,1,508.0795241,None,,P017,fencog,2,Post,2021_Nov_04_1158,N-Back (New Version 2021),2021.1.4,119.9259337
,,,,Conditions/Version_1/zeroback(1)_v1.xlsx,Rule: Press 'space' when you see the letter 'x' or 'X'.,,,,,,,,,,,0,0,0,0,,,,,,,,,,,,,,,,,,,,,,,,,,,,,,,,,,,,,,,,,,,,,,,,,,,,,,,,,,,,,,,,,,,,,,,,,,,,,,,,,P017,fencog,2,Post,2021_Nov_04_1158,N-Back (New Version 2021),2021.1.4,119.9259337
,,,,Conditions/Version_1/oneback(1)_v1.xlsx,New rule: Press 'space' when you see 1-back (i.e. the same letter as the one that appeared 1 letter ago.),b,None,,,,,,,,,0,1,1,1,0,0,0,0,,,,,,,,,,,,,,,,,,,,,,,,,,,,,,,,,,,,,,,,,,,,,,,,,,,,,,,,,,,510.1036775,None,513.0870165,None,space,0.8565477,513.0870165,None,510.1036775,None,1.2642,515.2344319,None,None,1,515.2344319,None,,P017,fencog,2,Post,2021_Nov_04_1158,N-Back (New Version 2021),2021.1.4,119.9259337
,,,,Conditions/Version_1/oneback(1)_v1.xlsx,New rule: Press 'space' when you see 1-back (i.e. the same letter as the one that appeared 1 letter ago.),p,None,,,,,,,,,0,1,1,1,0,1,1,1,,,,,,,,,,,,,,,,,,,,,,,,,,,,,,,,,,,,,,,,,,,,,,,,,,,,,,,,,,,,,,,,,,,,,1.5432,518.7833278,None,None,1,518.7833278,None,,P017,fencog,2,Post,2021_Nov_04_1158,N-Back (New Version 2021),2021.1.4,119.9259337
,,,,Conditions/Version_1/oneback(1)_v1.xlsx,New rule: Press 'space' when you see 1-back (i.e. the same letter as the one that appeared 1 letter ago.),M,None,,,,,,,,,0,1,1,1,0,2,2,2,,,,,,,,,,,,,,,,,,,,,,,,,,,,,,,,,,,,,,,,,,,,,,,,,,,,,,,,,,,,,,,,,,,,,1.1526,521.9408654,None,None,1,521.9408654,None,,P017,fencog,2,Post,2021_Nov_04_1158,N-Back (New Version 2021),2021.1.4,119.9259337
,,,,Conditions/Version_1/oneback(1)_v1.xlsx,New rule: Press 'space' when you see 1-back (i.e. the same letter as the one that appeared 1 letter ago.),M,space,,,,,,,,,0,1,1,1,0,3,3,3,,,,,,,,,,,,,,,,,,,,,,,,,,,,,,,,,,,,,,,,,,,,,,,,,,,,,,,,,,,,,,,,,,,,,1.6486,525.5979954,None,space,1,525.5979954,None,0.4654977,P017,fencog,2,Post,2021_Nov_04_1158,N-Back (New Version 2021),2021.1.4,119.9259337
,,,,Conditions/Version_1/oneback(1)_v1.xlsx,New rule: Press 'space' when you see 1-back (i.e. the same letter as the one that appeared 1 letter ago.),n,None,,,,,,,,,0,1,1,1,0,4,4,4,,,,,,,,,,,,,,,,,,,,,,,,,,,,,,,,,,,,,,,,,,,,,,,,,,,,,,,,,,,,,,,,,,,,,1.3324,528.9304875,None,None,1,528.9304875,None,,P017,fencog,2,Post,2021_Nov_04_1158,N-Back (New Version 2021),2021.1.4,119.9259337
,,,,Conditions/Version_1/oneback(1)_v1.xlsx,New rule: Press 'space' when you see 1-back (i.e. the same letter as the one that appeared 1 letter ago.),g,None,,,,,,,,,0,1,1,1,0,5,5,5,,,,,,,,,,,,,,,,,,,,,,,,,,,,,,,,,,,,,,,,,,,,,,,,,,,,,,,,,,,,,,,,,,,,,1.4192,532.3586688,None,None,1,532.3586688,None,,P017,fencog,2,Post,2021_Nov_04_1158,N-Back (New Version 2021),2021.1.4,119.9259337
,,,,Conditions/Version_1/oneback(1)_v1.xlsx,New rule: Press 'space' when you see 1-back (i.e. the same letter as the one that appeared 1 letter ago.),P,None,,,,,,,,,0,1,1,1,0,6,6,6,,,,,,,,,,,,,,,,,,,,,,,,,,,,,,,,,,,,,,,,,,,,,,,,,,,,,,,,,,,,,,,,,,,,,1.2084,535.5702211,None,None,1,535.5702211,None,,P017,fencog,2,Post,2021_Nov_04_1158,N-Back (New Version 2021),2021.1.4,119.9259337
,,,,Conditions/Version_1/oneback(1)_v1.xlsx,New rule: Press 'space' when you see 1-back (i.e. the same letter as the one that appeared 1 letter ago.),o,None,,,,,,,,,0,1,1,1,0,7,7,7,,,,,,,,,,,,,,,,,,,,,,,,,,,,,,,,,,,,,,,,,,,,,,,,,,,,,,,,,,,,,,,,,,,,,1.103,538.6782587,None,None,1,538.6782587,None,,P017,fencog,2,Post,2021_Nov_04_1158,N-Back (New Version 2021),2021.1.4,119.9259337
,,,,Conditions/Version_1/oneback(1)_v1.xlsx,New rule: Press 'space' when you see 1-back (i.e. the same letter as the one that appeared 1 letter ago.),f,None,,,,,,,,,0,1,1,1,0,8,8,8,,,,,,,,,,,,,,,,,,,,,,,,,,,,,,,,,,,,,,,,,,,,,,,,,,,,,,,,,,,,,,,,,,,,,1.4316,542.1224946,None,None,1,542.1224946,None,,P017,fencog,2,Post,2021_Nov_04_1158,N-Back (New Version 2021),2021.1.4,119.9259337
,,,,Conditions/Version_1/oneback(1)_v1.xlsx,New rule: Press 'space' when you see 1-back (i.e. the same letter as the one that appeared 1 letter ago.),F,space,,,,,,,,,0,1,1,1,0,9,9,9,,,,,,,,,,,,,,,,,,,,,,,,,,,,,,,,,,,,,,,,,,,,,,,,,,,,,,,,,,,,,,,,,,,,,1.9772,546.1095936,None,space,1,546.1095936,None,0.4259175,P017,fencog,2,Post,2021_Nov_04_1158,N-Back (New Version 2021),2021.1.4,119.9259337
,,,,Conditions/Version_1/oneback(1)_v1.xlsx,New rule: Press 'space' when you see 1-back (i.e. the same letter as the one that appeared 1 letter ago.),,,,,,,,,,,0,1,1,1,,,,,,,,,,,,,,,,,,,,,,,,,,,,,,,,,,,,,,,,,,,,,,,,,,,,,,,,,,,,,,,,,,,,,,,,,,,,,,,,,P017,fencog,2,Post,2021_Nov_04_1158,N-Back (New Version 2021),2021.1.4,119.9259337
,,,,Conditions/Version_1/twoback(1)_v1.xlsx,New rule: Press 'space' when you see 2-back (i.e. the same letter as the one that appeared 2 letters ago.),b,None,,,,,,,,,0,2,2,2,0,0,0,0,,,,,,,,,,,,,,,,,,,,,,,,,,,,,,,,,,,,,,,,,,,,,,,,,,,,,,,,,,,548.1382956,None,551.1258647,None,space,0.5694475,551.1258647,None,548.1382956,None,1.2952,553.0148597,None,None,1,553.0148597,None,,P017,fencog,2,Post,2021_Nov_04_1158,N-Back (New Version 2021),2021.1.4,119.9259337
,,,,Conditions/Version_1/twoback(1)_v1.xlsx,New rule: Press 'space' when you see 2-back (i.e. the same letter as the one that appeared 2 letters ago.),h,None,,,,,,,,,0,2,2,2,0,1,1,1,,,,,,,,,,,,,,,,,,,,,,,,,,,,,,,,,,,,,,,,,,,,,,,,,,,,,,,,,,,,,,,,,,,,,1.2208,556.2393049,None,None,1,556.2393049,None,,P017,fencog,2,Post,2021_Nov_04_1158,N-Back (New Version 2021),2021.1.4,119.9259337
,,,,Conditions/Version_1/twoback(1)_v1.xlsx,New rule: Press 'space' when you see 2-back (i.e. the same letter as the one that appeared 2 letters ago.),j,None,,,,,,,,,0,2,2,2,0,2,2,2,,,,,,,,,,,,,,,,,,,,,,,,,,,,,,,,,,,,,,,,,,,,,,,,,,,,,,,,,,,,,,,,,,,,,1.3138,559.555472,None,None,1,559.555472,None,,P017,fencog,2,Post,2021_Nov_04_1158,N-Back (New Version 2021),2021.1.4,119.9259337
,,,,Conditions/Version_1/twoback(1)_v1.xlsx,New rule: Press 'space' when you see 2-back (i.e. the same letter as the one that appeared 2 letters ago.),H,space,,,,,,,,,0,2,2,2,0,3,3,3,,,,,,,,,,,,,,,,,,,,,,,,,,,,,,,,,,,,,,,,,,,,,,,,,,,,,,,,,,,,,,,,,,,,,1.103,562.672079,None,space,1,562.672079,None,0.823762,P017,fencog,2,Post,2021_Nov_04_1158,N-Back (New Version 2021),2021.1.4,119.9259337
,,,,Conditions/Version_1/twoback(1)_v1.xlsx,New rule: Press 'space' when you see 2-back (i.e. the same letter as the one that appeared 2 letters ago.),p,None,,,,,,,,,0,2,2,2,0,4,4,4,,,,,,,,,,,,,,,,,,,,,,,,,,,,,,,,,,,,,,,,,,,,,,,,,,,,,,,,,,,,,,,,,,,,,1.9338,566.6134176,None,None,1,566.6134176,None,,P017,fencog,2,Post,2021_Nov_04_1158,N-Back (New Version 2021),2021.1.4,119.9259337
,,,,Conditions/Version_1/twoback(1)_v1.xlsx,New rule: Press 'space' when you see 2-back (i.e. the same letter as the one that appeared 2 letters ago.),p,None,,,,,,,,,0,2,2,2,0,5,5,5,,,,,,,,,,,,,,,,,,,,,,,,,,,,,,,,,,,,,,,,,,,,,,,,,,,,,,,,,,,,,,,,,,,,,1.3076,569.9269011,None,space,0,569.9269011,None,0.4565585,P017,fencog,2,Post,2021_Nov_04_1158,N-Back (New Version 2021),2021.1.4,119.9259337
,,,,Conditions/Version_1/twoback(1)_v1.xlsx,New rule: Press 'space' when you see 2-back (i.e. the same letter as the one that appeared 2 letters ago.),w,None,,,,,,,,,0,2,2,2,0,6,6,6,,,,,,,,,,,,,,,,,,,,,,,,,,,,,,,,,,,,,,,,,,,,,,,,,,,,,,,,,,,,,,,,,,,,,1.5928,573.5261185,None,None,1,573.5261185,None,,P017,fencog,2,Post,2021_Nov_04_1158,N-Back (New Version 2021),2021.1.4,119.9259337
,,,,Conditions/Version_1/twoback(1)_v1.xlsx,New rule: Press 'space' when you see 2-back (i.e. the same letter as the one that appeared 2 letters ago.),R,None,,,,,,,,,0,2,2,2,0,7,7,7,,,,,,,,,,,,,,,,,,,,,,,,,,,,,,,,,,,,,,,,,,,,,,,,,,,,,,,,,,,,,,,,,,,,,1.5618,577.0920383,None,None,1,577.0920383,None,,P017,fencog,2,Post,2021_Nov_04_1158,N-Back (New Version 2021),2021.1.4,119.9259337
,,,,Conditions/Version_1/twoback(1)_v1.xlsx,New rule: Press 'space' when you see 2-back (i.e. the same letter as the one that appeared 2 letters ago.),a,None,,,,,,,,,0,2,2,2,0,8,8,8,,,,,,,,,,,,,,,,,,,,,,,,,,,,,,,,,,,,,,,,,,,,,,,,,,,,,,,,,,,,,,,,,,,,,1.2022,580.3069571,None,None,1,580.3069571,None,,P017,fencog,2,Post,2021_Nov_04_1158,N-Back (New Version 2021),2021.1.4,119.9259337
,,,,Conditions/Version_1/twoback(1)_v1.xlsx,New rule: Press 'space' when you see 2-back (i.e. the same letter as the one that appeared 2 letters ago.),r,space,,,,,,,,,0,2,2,2,0,9,9,9,,,,,,,,,,,,,,,,,,,,,,,,,,,,,,,,,,,,,,,,,,,,,,,,,,,,,,,,,,,,,,,,,,,,,1.8036,584.1141942,None,space,1,584.1141942,None,0.5973951,P017,fencog,2,Post,2021_Nov_04_1158,N-Back (New Version 2021),2021.1.4,119.9259337
,,,,Conditions/Version_1/twoback(1)_v1.xlsx,New rule: Press 'space' when you see 2-back (i.e. the same letter as the one that appeared 2 letters ago.),,,,,,,,,,,0,2,2,2,,,,,,,,,,,,,,,,,,,,,,,,,,,,,,,,,,,,,,,,,,,,,,,,,,,,,,,,,,,,,,,,,,,,,,,,,,,,,,,,,P017,fencog,2,Post,2021_Nov_04_1158,N-Back (New Version 2021),2021.1.4,119.9259337
,,,,Conditions/Version_1/threeback(1)_v1.xlsx,New rule: Press 'space' when you see 3-back (i.e. the same letter as the one that appeared 3 letters ago.),r,None,,,,,,,,,0,3,3,3,0,0,0,0,,,,,,,,,,,,,,,,,,,,,,,,,,,,,,,,,,,,,,,,,,,,,,,,,,,,,,,,,,,586.1368713,None,589.1250243,None,space,2.4984059,589.1250243,None,586.1368713,None,1.3634,593.0117453,None,None,1,593.0117453,None,,P017,fencog,2,Post,2021_Nov_04_1158,N-Back (New Version 2021),2021.1.4,119.9259337
,,,,Conditions/Version_1/threeback(1)_v1.xlsx,New rule: Press 'space' when you see 3-back (i.e. the same letter as the one that appeared 3 letters ago.),o,None,,,,,,,,,0,3,3,3,0,1,1,1,,,,,,,,,,,,,,,,,,,,,,,,,,,,,,,,,,,,,,,,,,,,,,,,,,,,,,,,,,,,,,,,,,,,,1.6982,596.7127248,None,None,1,596.7127248,None,,P017,fencog,2,Post,2021_Nov_04_1158,N-Back (New Version 2021),2021.1.4,119.9259337
,,,,Conditions/Version_1/threeback(1)_v1.xlsx,New rule: Press 'space' when you see 3-back (i.e. the same letter as the one that appeared 3 letters ago.),P,None,,,,,,,,,0,3,3,3,0,2,2,2,,,,,,,,,,,,,,,,,,,,,,,,,,,,,,,,,,,,,,,,,,,,,,,,,,,,,,,,,,,,,,,,,,,,,1.5742,600.2956901,None,None,1,600.2956901,None,,P017,fencog,2,Post,2021_Nov_04_1158,N-Back (New Version 2021),2021.1.4,119.9259337
,,,,Conditions/Version_1/threeback(1)_v1.xlsx,New rule: Press 'space' when you see 3-back (i.e. the same letter as the one that appeared 3 letters ago.),R,space,,,,,,,,,0,3,3,3,0,3,3,3,,,,,,,,,,,,,,,,,,,,,,,,,,,,,,,,,,,,,,,,,,,,,,,,,,,,,,,,,,,,,,,,,,,,,1.9896,604.2935672,None,space,1,604.2935672,None,0.6822918,P017,fencog,2,Post,2021_Nov_04_1158,N-Back (New Version 2021),2021.1.4,119.9259337
,,,,Conditions/Version_1/threeback(1)_v1.xlsx,New rule: Press 'space' when you see 3-back (i.e. the same letter as the one that appeared 3 letters ago.),p,None,,,,,,,,,0,3,3,3,0,4,4,4,,,,,,,,,,,,,,,,,,,,,,,,,,,,,,,,,,,,,,,,,,,,,,,,,,,,,,,,,,,,,,,,,,,,,1.9524,608.2581843,None,None,1,608.2581843,None,,P017,fencog,2,Post,2021_Nov_04_1158,N-Back (New Version 2021),2021.1.4,119.9259337
,,,,Conditions/Version_1/threeback(1)_v1.xlsx,New rule: Press 'space' when you see 3-back (i.e. the same letter as the one that appeared 3 letters ago.),E,None,,,,,,,,,0,3,3,3,0,5,5,5,,,,,,,,,,,,,,,,,,,,,,,,,,,,,,,,,,,,,,,,,,,,,,,,,,,,,,,,,,,,,,,,,,,,,1.0658,611.3312418,None,None,1,611.3312418,None,,P017,fencog,2,Post,2021_Nov_04_1158,N-Back (New Version 2021),2021.1.4,119.9259337
,,,,Conditions/Version_1/threeback(1)_v1.xlsx,New rule: Press 'space' when you see 3-back (i.e. the same letter as the one that appeared 3 letters ago.),e,None,,,,,,,,,0,3,3,3,0,6,6,6,,,,,,,,,,,,,,,,,,,,,,,,,,,,,,,,,,,,,,,,,,,,,,,,,,,,,,,,,,,,,,,,,,,,,1.2828,614.6135039,None,None,1,614.6135039,None,,P017,fencog,2,Post,2021_Nov_04_1158,N-Back (New Version 2021),2021.1.4,119.9259337
,,,,Conditions/Version_1/threeback(1)_v1.xlsx,New rule: Press 'space' when you see 3-back (i.e. the same letter as the one that appeared 3 letters ago.),m,None,,,,,,,,,0,3,3,3,0,7,7,7,,,,,,,,,,,,,,,,,,,,,,,,,,,,,,,,,,,,,,,,,,,,,,,,,,,,,,,,,,,,,,,,,,,,,1.6548,618.2708565,None,None,1,618.2708565,None,,P017,fencog,2,Post,2021_Nov_04_1158,N-Back (New Version 2021),2021.1.4,119.9259337
,,,,Conditions/Version_1/threeback(1)_v1.xlsx,New rule: Press 'space' when you see 3-back (i.e. the same letter as the one that appeared 3 letters ago.),n,None,,,,,,,,,0,3,3,3,0,8,8,8,,,,,,,,,,,,,,,,,,,,,,,,,,,,,,,,,,,,,,,,,,,,,,,,,,,,,,,,,,,,,,,,,,,,,1.0534,621.328391,None,None,1,621.328391,None,,P017,fencog,2,Post,2021_Nov_04_1158,N-Back (New Version 2021),2021.1.4,119.9259337
,,,,Conditions/Version_1/threeback(1)_v1.xlsx,New rule: Press 'space' when you see 3-back (i.e. the same letter as the one that appeared 3 letters ago.),e,space,,,,,,,,,0,3,3,3,0,9,9,9,,,,,,,,,,,,,,,,,,,,,,,,,,,,,,,,,,,,,,,,,,,,,,,,,,,,,,,,,,,,,,,,,,,,,1.8718,625.2033626,None,space,1,625.2033626,None,0.6284952,P017,fencog,2,Post,2021_Nov_04_1158,N-Back (New Version 2021),2021.1.4,119.9259337
,,,,Conditions/Version_1/threeback(1)_v1.xlsx,New rule: Press 'space' when you see 3-back (i.e. the same letter as the one that appeared 3 letters ago.),,,,,,,,,,,0,3,3,3,,,,,,,,,,,,,,,,,,,,,,,,,,,,,,,,,,,,,,,,,,,,,,,,,,,,,,,,,,,,,,,,,,,,,,,,,,,,,,,,,P017,fencog,2,Post,2021_Nov_04_1158,N-Back (New Version 2021),2021.1.4,119.9259337
,,,,Conditions/Version_1/oneback(2)_v1.xlsx,New rule: Press 'space' when you see 1-back (i.e. the same letter as the one that appeared 1 letter ago.),q,None,,,,,,,,,0,4,4,4,0,0,0,0,,,,,,,,,,,,,,,,,,,,,,,,,,,,,,,,,,,,,,,,,,,,,,,,,,,,,,,,,,,627.2314732,None,630.2200236,None,space,0.579384,630.2200236,None,627.2314732,None,1.7602,632.5924623,None,None,1,632.5924623,None,,P017,fencog,2,Post,2021_Nov_04_1158,N-Back (New Version 2021),2021.1.4,119.9259337
,,,,Conditions/Version_1/oneback(2)_v1.xlsx,New rule: Press 'space' when you see 1-back (i.e. the same letter as the one that appeared 1 letter ago.),Q,space,,,,,,,,,0,4,4,4,0,1,1,1,,,,,,,,,,,,,,,,,,,,,,,,,,,,,,,,,,,,,,,,,,,,,,,,,,,,,,,,,,,,,,,,,,,,,1.3324,635.9321977,None,space,1,635.9321977,None,0.4112909,P017,fencog,2,Post,2021_Nov_04_1158,N-Back (New Version 2021),2021.1.4,119.9259337
,,,,Conditions/Version_1/oneback(2)_v1.xlsx,New rule: Press 'space' when you see 1-back (i.e. the same letter as the one that appeared 1 letter ago.),P,None,,,,,,,,,0,4,4,4,0,2,2,2,,,,,,,,,,,,,,,,,,,,,,,,,,,,,,,,,,,,,,,,,,,,,,,,,,,,,,,,,,,,,,,,,,,,,1.5184,639.4570926,None,None,1,639.4570926,None,,P017,fencog,2,Post,2021_Nov_04_1158,N-Back (New Version 2021),2021.1.4,119.9259337
,,,,Conditions/Version_1/oneback(2)_v1.xlsx,New rule: Press 'space' when you see 1-back (i.e. the same letter as the one that appeared 1 letter ago.),o,None,,,,,,,,,0,4,4,4,0,3,3,3,,,,,,,,,,,,,,,,,,,,,,,,,,,,,,,,,,,,,,,,,,,,,,,,,,,,,,,,,,,,,,,,,,,,,1.7416,643.2082327,None,None,1,643.2082327,None,,P017,fencog,2,Post,2021_Nov_04_1158,N-Back (New Version 2021),2021.1.4,119.9259337
,,,,Conditions/Version_1/oneback(2)_v1.xlsx,New rule: Press 'space' when you see 1-back (i.e. the same letter as the one that appeared 1 letter ago.),m,None,,,,,,,,,0,4,4,4,0,4,4,4,,,,,,,,,,,,,,,,,,,,,,,,,,,,,,,,,,,,,,,,,,,,,,,,,,,,,,,,,,,,,,,,,,,,,1.1464,646.3624335,None,None,1,646.3624335,None,,P017,fencog,2,Post,2021_Nov_04_1158,N-Back (New Version 2021),2021.1.4,119.9259337
,,,,Conditions/Version_1/oneback(2)_v1.xlsx,New rule: Press 'space' when you see 1-back (i.e. the same letter as the one that appeared 1 letter ago.),Z,None,,,,,,,,,0,4,4,4,0,5,5,5,,,,,,,,,,,,,,,,,,,,,,,,,,,,,,,,,,,,,,,,,,,,,,,,,,,,,,,,,,,,,,,,,,,,,1.6424,650.0180524,None,None,1,650.0180524,None,,P017,fencog,2,Post,2021_Nov_04_1158,N-Back (New Version 2021),2021.1.4,119.9259337
,,,,Conditions/Version_1/oneback(2)_v1.xlsx,New rule: Press 'space' when you see 1-back (i.e. the same letter as the one that appeared 1 letter ago.),c,None,,,,,,,,,0,4,4,4,0,6,6,6,,,,,,,,,,,,,,,,,,,,,,,,,,,,,,,,,,,,,,,,,,,,,,,,,,,,,,,,,,,,,,,,,,,,,1.8408,653.8657327,None,None,1,653.8657327,None,,P017,fencog,2,Post,2021_Nov_04_1158,N-Back (New Version 2021),2021.1.4,119.9259337
,,,,Conditions/Version_1/oneback(2)_v1.xlsx,New rule: Press 'space' when you see 1-back (i.e. the same letter as the one that appeared 1 letter ago.),c,space,,,,,,,,,0,4,4,4,0,7,7,7,,,,,,,,,,,,,,,,,,,,,,,,,,,,,,,,,,,,,,,,,,,,,,,,,,,,,,,,,,,,,,,,,,,,,1.8284,657.7008908,None,space,1,657.7008908,None,0.6350476,P017,fencog,2,Post,2021_Nov_04_1158,N-Back (New Version 2021),2021.1.4,119.9259337
,,,,Conditions/Version_1/oneback(2)_v1.xlsx,New rule: Press 'space' when you see 1-back (i.e. the same letter as the one that appeared 1 letter ago.),P,None,,,,,,,,,0,4,4,4,0,8,8,8,,,,,,,,,,,,,,,,,,,,,,,,,,,,,,,,,,,,,,,,,,,,,,,,,,,,,,,,,,,,,,,,,,,,,1.909,661.6177348,None,None,1,661.6177348,None,,P017,fencog,2,Post,2021_Nov_04_1158,N-Back (New Version 2021),2021.1.4,119.9259337
,,,,Conditions/Version_1/oneback(2)_v1.xlsx,New rule: Press 'space' when you see 1-back (i.e. the same letter as the one that appeared 1 letter ago.),p,space,,,,,,,,,0,4,4,4,0,9,9,9,,,,,,,,,,,,,,,,,,,,,,,,,,,,,,,,,,,,,,,,,,,,,,,,,,,,,,,,,,,,,,,,,,,,,1.9152,665.5376753,None,None,0,665.5376753,None,,P017,fencog,2,Post,2021_Nov_04_1158,N-Back (New Version 2021),2021.1.4,119.9259337
,,,,Conditions/Version_1/oneback(2)_v1.xlsx,New rule: Press 'space' when you see 1-back (i.e. the same letter as the one that appeared 1 letter ago.),,,,,,,,,,,0,4,4,4,,,,,,,,,,,,,,,,,,,,,,,,,,,,,,,,,,,,,,,,,,,,,,,,,,,,,,,,,,,,,,,,,,,,,,,,,,,,,,,,,P017,fencog,2,Post,2021_Nov_04_1158,N-Back (New Version 2021),2021.1.4,119.9259337
,,,,Conditions/Version_1/zeroback(2)_v1.xlsx,New rule: Press 'space' when you see the letter 'x' or 'X'.,p,None,,,,,,,,,0,5,5,5,0,0,0,0,,,,,,,,,,,,,,,,,,,,,,,,,,,,,,,,,,,,,,,,,,,,,,,,,,,,,,,,,,,667.5582391,None,670.5521128,None,space,0.7271078,670.5521128,None,667.5582391,None,1.7044,673.004706,None,None,1,673.004706,None,,P017,fencog,2,Post,2021_Nov_04_1158,N-Back (New Version 2021),2021.1.4,119.9259337
,,,,Conditions/Version_1/zeroback(2)_v1.xlsx,New rule: Press 'space' when you see the letter 'x' or 'X'.,L,None,,,,,,,,,0,5,5,5,0,1,1,1,,,,,,,,,,,,,,,,,,,,,,,,,,,,,,,,,,,,,,,,,,,,,,,,,,,,,,,,,,,,,,,,,,,,,1.6114,676.6202348,None,None,1,676.6202348,None,,P017,fencog,2,Post,2021_Nov_04_1158,N-Back (New Version 2021),2021.1.4,119.9259337
,,,,Conditions/Version_1/zeroback(2)_v1.xlsx,New rule: Press 'space' when you see the letter 'x' or 'X'.,G,None,,,,,,,,,0,5,5,5,0,2,2,2,,,,,,,,,,,,,,,,,,,,,,,,,,,,,,,,,,,,,,,,,,,,,,,,,,,,,,,,,,,,,,,,,,,,,1.568,680.2064542,None,None,1,680.2064542,None,,P017,fencog,2,Post,2021_Nov_04_1158,N-Back (New Version 2021),2021.1.4,119.9259337
,,,,Conditions/Version_1/zeroback(2)_v1.xlsx,New rule: Press 'space' when you see the letter 'x' or 'X'.,y,None,,,,,,,,,0,5,5,5,0,3,3,3,,,,,,,,,,,,,,,,,,,,,,,,,,,,,,,,,,,,,,,,,,,,,,,,,,,,,,,,,,,,,,,,,,,,,1.723,683.926779,None,None,1,683.926779,None,,P017,fencog,2,Post,2021_Nov_04_1158,N-Back (New Version 2021),2021.1.4,119.9259337
,,,,Conditions/Version_1/zeroback(2)_v1.xlsx,New rule: Press 'space' when you see the letter 'x' or 'X'.,Y,None,,,,,,,,,0,5,5,5,0,4,4,4,,,,,,,,,,,,,,,,,,,,,,,,,,,,,,,,,,,,,,,,,,,,,,,,,,,,,,,,,,,,,,,,,,,,,1.1464,687.0751644,None,None,1,687.0751644,None,,P017,fencog,2,Post,2021_Nov_04_1158,N-Back (New Version 2021),2021.1.4,119.9259337
,,,,Conditions/Version_1/zeroback(2)_v1.xlsx,New rule: Press 'space' when you see the letter 'x' or 'X'.,W,None,,,,,,,,,0,5,5,5,0,5,5,5,,,,,,,,,,,,,,,,,,,,,,,,,,,,,,,,,,,,,,,,,,,,,,,,,,,,,,,,,,,,,,,,,,,,,1.6238,690.6994276,None,None,1,690.6994276,None,,P017,fencog,2,Post,2021_Nov_04_1158,N-Back (New Version 2021),2021.1.4,119.9259337
,,,,Conditions/Version_1/zeroback(2)_v1.xlsx,New rule: Press 'space' when you see the letter 'x' or 'X'.,x,space,,,,,,,,,0,5,5,5,0,6,6,6,,,,,,,,,,,,,,,,,,,,,,,,,,,,,,,,,,,,,,,,,,,,,,,,,,,,,,,,,,,,,,,,,,,,,1.0658,693.7648867,None,space,1,693.7648867,None,0.498384,P017,fencog,2,Post,2021_Nov_04_1158,N-Back (New Version 2021),2021.1.4,119.9259337
,,,,Conditions/Version_1/zeroback(2)_v1.xlsx,New rule: Press 'space' when you see the letter 'x' or 'X'.,X,space,,,,,,,,,0,5,5,5,0,7,7,7,,,,,,,,,,,,,,,,,,,,,,,,,,,,,,,,,,,,,,,,,,,,,,,,,,,,,,,,,,,,,,,,,,,,,1.7912,697.5568143,None,space,1,697.5568143,None,0.7783172,P017,fencog,2,Post,2021_Nov_04_1158,N-Back (New Version 2021),2021.1.4,119.9259337
,,,,Conditions/Version_1/zeroback(2)_v1.xlsx,New rule: Press 'space' when you see the letter 'x' or 'X'.,p,None,,,,,,,,,0,5,5,5,0,8,8,8,,,,,,,,,,,,,,,,,,,,,,,,,,,,,,,,,,,,,,,,,,,,,,,,,,,,,,,,,,,,,,,,,,,,,1.8594,701.4295843,None,None,1,701.4295843,None,,P017,fencog,2,Post,2021_Nov_04_1158,N-Back (New Version 2021),2021.1.4,119.9259337
,,,,Conditions/Version_1/zeroback(2)_v1.xlsx,New rule: Press 'space' when you see the letter 'x' or 'X'.,h,None,,,,,,,,,0,5,5,5,0,9,9,9,,,,,,,,,,,,,,,,,,,,,,,,,,,,,,,,,,,,,,,,,,,,,,,,,,,,,,,,,,,,,,,,,,,,,1.6486,705.0783644,None,None,1,705.0783644,None,,P017,fencog,2,Post,2021_Nov_04_1158,N-Back (New Version 2021),2021.1.4,119.9259337
,,,,Conditions/Version_1/zeroback(2)_v1.xlsx,New rule: Press 'space' when you see the letter 'x' or 'X'.,,,,,,,,,,,0,5,5,5,,,,,,,,,,,,,,,,,,,,,,,,,,,,,,,,,,,,,,,,,,,,,,,,,,,,,,,,,,,,,,,,,,,,,,,,,,,,,,,,,P017,fencog,2,Post,2021_Nov_04_1158,N-Back (New Version 2021),2021.1.4,119.9259337
,,,,Conditions/Version_1/threeback(2)_v1.xlsx,New rule: Press 'space' when you see 3-back (i.e. the same letter as the one that appeared 3 letters ago.),q,None,,,,,,,,,0,6,6,6,0,0,0,0,,,,,,,,,,,,,,,,,,,,,,,,,,,,,,,,,,,,,,,,,,,,,,,,,,,,,,,,,,,707.1008457,None,710.0874058,None,space,26.2239673,710.0874058,None,707.1008457,None,1.4874,737.8280584,None,None,1,737.8280584,None,,P017,fencog,2,Post,2021_Nov_04_1158,N-Back (New Version 2021),2021.1.4,119.9259337
,,,,Conditions/Version_1/threeback(2)_v1.xlsx,New rule: Press 'space' when you see 3-back (i.e. the same letter as the one that appeared 3 letters ago.),Y,None,,,,,,,,,0,6,6,6,0,1,1,1,,,,,,,,,,,,,,,,,,,,,,,,,,,,,,,,,,,,,,,,,,,,,,,,,,,,,,,,,,,,,,,,,,,,,1.8408,741.6756591,None,None,1,741.6756591,None,,P017,fencog,2,Post,2021_Nov_04_1158,N-Back (New Version 2021),2021.1.4,119.9259337
,,,,Conditions/Version_1/threeback(2)_v1.xlsx,New rule: Press 'space' when you see 3-back (i.e. the same letter as the one that appeared 3 letters ago.),p,None,,,,,,,,,0,6,6,6,0,2,2,2,,,,,,,,,,,,,,,,,,,,,,,,,,,,,,,,,,,,,,,,,,,,,,,,,,,,,,,,,,,,,,,,,,,,,1.2952,744.9747396,None,None,1,744.9747396,None,,P017,fencog,2,Post,2021_Nov_04_1158,N-Back (New Version 2021),2021.1.4,119.9259337
,,,,Conditions/Version_1/threeback(2)_v1.xlsx,New rule: Press 'space' when you see 3-back (i.e. the same letter as the one that appeared 3 letters ago.),p,None,,,,,,,,,0,6,6,6,0,3,3,3,,,,,,,,,,,,,,,,,,,,,,,,,,,,,,,,,,,,,,,,,,,,,,,,,,,,,,,,,,,,,,,,,,,,,1.4006,748.373863,None,None,1,748.373863,None,,P017,fencog,2,Post,2021_Nov_04_1158,N-Back (New Version 2021),2021.1.4,119.9259337
,,,,Conditions/Version_1/threeback(2)_v1.xlsx,New rule: Press 'space' when you see 3-back (i.e. the same letter as the one that appeared 3 letters ago.),y,space,,,,,,,,,0,6,6,6,0,4,4,4,,,,,,,,,,,,,,,,,,,,,,,,,,,,,,,,,,,,,,,,,,,,,,,,,,,,,,,,,,,,,,,,,,,,,1.196,751.5727435,None,space,1,751.5727435,None,0.986474,P017,fencog,2,Post,2021_Nov_04_1158,N-Back (New Version 2021),2021.1.4,119.9259337
,,,,Conditions/Version_1/threeback(2)_v1.xlsx,New rule: Press 'space' when you see 3-back (i.e. the same letter as the one that appeared 3 letters ago.),u,None,,,,,,,,,0,6,6,6,0,5,5,5,,,,,,,,,,,,,,,,,,,,,,,,,,,,,,,,,,,,,,,,,,,,,,,,,,,,,,,,,,,,,,,,,,,,,1.6548,755.2301669,None,None,1,755.2301669,None,,P017,fencog,2,Post,2021_Nov_04_1158,N-Back (New Version 2021),2021.1.4,119.9259337
,,,,Conditions/Version_1/threeback(2)_v1.xlsx,New rule: Press 'space' when you see 3-back (i.e. the same letter as the one that appeared 3 letters ago.),P,space,,,,,,,,,0,6,6,6,0,6,6,6,,,,,,,,,,,,,,,,,,,,,,,,,,,,,,,,,,,,,,,,,,,,,,,,,,,,,,,,,,,,,,,,,,,,,1.1898,758.4208882,None,space,1,758.4208882,None,1.1307136,P017,fencog,2,Post,2021_Nov_04_1158,N-Back (New Version 2021),2021.1.4,119.9259337
,,,,Conditions/Version_1/threeback(2)_v1.xlsx,New rule: Press 'space' when you see 3-back (i.e. the same letter as the one that appeared 3 letters ago.),a,None,,,,,,,,,0,6,6,6,0,7,7,7,,,,,,,,,,,,,,,,,,,,,,,,,,,,,,,,,,,,,,,,,,,,,,,,,,,,,,,,,,,,,,,,,,,,,1.351,761.77929,None,None,1,761.77929,None,,P017,fencog,2,Post,2021_Nov_04_1158,N-Back (New Version 2021),2021.1.4,119.9259337
,,,,Conditions/Version_1/threeback(2)_v1.xlsx,New rule: Press 'space' when you see 3-back (i.e. the same letter as the one that appeared 3 letters ago.),U,space,,,,,,,,,0,6,6,6,0,8,8,8,,,,,,,,,,,,,,,,,,,,,,,,,,,,,,,,,,,,,,,,,,,,,,,,,,,,,,,,,,,,,,,,,,,,,1.32,765.1106444,None,space,1,765.1106444,None,0.7525797,P017,fencog,2,Post,2021_Nov_04_1158,N-Back (New Version 2021),2021.1.4,119.9259337
,,,,Conditions/Version_1/threeback(2)_v1.xlsx,New rule: Press 'space' when you see 3-back (i.e. the same letter as the one that appeared 3 letters ago.),q,None,,,,,,,,,0,6,6,6,0,9,9,9,,,,,,,,,,,,,,,,,,,,,,,,,,,,,,,,,,,,,,,,,,,,,,,,,,,,,,,,,,,,,,,,,,,,,1.8842,769.0013139,None,None,1,769.0013139,None,,P017,fencog,2,Post,2021_Nov_04_1158,N-Back (New Version 2021),2021.1.4,119.9259337
,,,,Conditions/Version_1/threeback(2)_v1.xlsx,New rule: Press 'space' when you see 3-back (i.e. the same letter as the one that appeared 3 letters ago.),,,,,,,,,,,0,6,6,6,,,,,,,,,,,,,,,,,,,,,,,,,,,,,,,,,,,,,,,,,,,,,,,,,,,,,,,,,,,,,,,,,,,,,,,,,,,,,,,,,P017,fencog,2,Post,2021_Nov_04_1158,N-Back (New Version 2021),2021.1.4,119.9259337
,,,,Conditions/Version_1/twoback(2)_v1.xlsx,New rule: Press 'space' when you see 2-back (i.e. the same letter as the one that appeared 2 letters ago.),q,None,,,,,,,,,0,7,7,7,0,0,0,0,,,,,,,,,,,,,,,,,,,,,,,,,,,,,,,,,,,,,,,,,,,,,,,,,,,,,,,,,,,771.0233851,None,774.0103968,None,space,0.2048097,774.0103968,None,771.0233851,None,1.2642,775.507666,None,None,1,775.507666,None,,P017,fencog,2,Post,2021_Nov_04_1158,N-Back (New Version 2021),2021.1.4,119.9259337
,,,,Conditions/Version_1/twoback(2)_v1.xlsx,New rule: Press 'space' when you see 2-back (i.e. the same letter as the one that appeared 2 letters ago.),r,None,,,,,,,,,0,7,7,7,0,1,1,1,,,,,,,,,,,,,,,,,,,,,,,,,,,,,,,,,,,,,,,,,,,,,,,,,,,,,,,,,,,,,,,,,,,,,1.816,779.3231636,None,None,1,779.3231636,None,,P017,fencog,2,Post,2021_Nov_04_1158,N-Back (New Version 2021),2021.1.4,119.9259337
,,,,Conditions/Version_1/twoback(2)_v1.xlsx,New rule: Press 'space' when you see 2-back (i.e. the same letter as the one that appeared 2 letters ago.),q,space,,,,,,,,,0,7,7,7,0,2,2,2,,,,,,,,,,,,,,,,,,,,,,,,,,,,,,,,,,,,,,,,,,,,,,,,,,,,,,,,,,,,,,,,,,,,,1.8408,783.1675248,None,space,1,783.1675248,None,0.6238855,P017,fencog,2,Post,2021_Nov_04_1158,N-Back (New Version 2021),2021.1.4,119.9259337
,,,,Conditions/Version_1/twoback(2)_v1.xlsx,New rule: Press 'space' when you see 2-back (i.e. the same letter as the one that appeared 2 letters ago.),P,None,,,,,,,,,0,7,7,7,0,3,3,3,,,,,,,,,,,,,,,,,,,,,,,,,,,,,,,,,,,,,,,,,,,,,,,,,,,,,,,,,,,,,,,,,,,,,1.1154,786.287652,None,None,1,786.287652,None,,P017,fencog,2,Post,2021_Nov_04_1158,N-Back (New Version 2021),2021.1.4,119.9259337
,,,,Conditions/Version_1/twoback(2)_v1.xlsx,New rule: Press 'space' when you see 2-back (i.e. the same letter as the one that appeared 2 letters ago.),p,None,,,,,,,,,0,7,7,7,0,4,4,4,,,,,,,,,,,,,,,,,,,,,,,,,,,,,,,,,,,,,,,,,,,,,,,,,,,,,,,,,,,,,,,,,,,,,1.7974,790.0865948,None,None,1,790.0865948,None,,P017,fencog,2,Post,2021_Nov_04_1158,N-Back (New Version 2021),2021.1.4,119.9259337
,,,,Conditions/Version_1/twoback(2)_v1.xlsx,New rule: Press 'space' when you see 2-back (i.e. the same letter as the one that appeared 2 letters ago.),H,None,,,,,,,,,0,7,7,7,0,5,5,5,,,,,,,,,,,,,,,,,,,,,,,,,,,,,,,,,,,,,,,,,,,,,,,,,,,,,,,,,,,,,,,,,,,,,1.32,793.4118714,None,None,1,793.4118714,None,,P017,fencog,2,Post,2021_Nov_04_1158,N-Back (New Version 2021),2021.1.4,119.9259337
,,,,Conditions/Version_1/twoback(2)_v1.xlsx,New rule: Press 'space' when you see 2-back (i.e. the same letter as the one that appeared 2 letters ago.),g,None,,,,,,,,,0,7,7,7,0,6,6,6,,,,,,,,,,,,,,,,,,,,,,,,,,,,,,,,,,,,,,,,,,,,,,,,,,,,,,,,,,,,,,,,,,,,,1.2828,796.701313,None,None,1,796.701313,None,,P017,fencog,2,Post,2021_Nov_04_1158,N-Back (New Version 2021),2021.1.4,119.9259337
,,,,Conditions/Version_1/twoback(2)_v1.xlsx,New rule: Press 'space' when you see 2-back (i.e. the same letter as the one that appeared 2 letters ago.),j,None,,,,,,,,,0,7,7,7,0,7,7,7,,,,,,,,,,,,,,,,,,,,,,,,,,,,,,,,,,,,,,,,,,,,,,,,,,,,,,,,,,,,,,,,,,,,,1.1588,799.866996,None,None,1,799.866996,None,,P017,fencog,2,Post,2021_Nov_04_1158,N-Back (New Version 2021),2021.1.4,119.9259337
,,,,Conditions/Version_1/twoback(2)_v1.xlsx,New rule: Press 'space' when you see 2-back (i.e. the same letter as the one that appeared 2 letters ago.),g,space,,,,,,,,,0,7,7,7,0,8,8,8,,,,,,,,,,,,,,,,,,,,,,,,,,,,,,,,,,,,,,,,,,,,,,,,,,,,,,,,,,,,,,,,,,,,,1.413,803.2836701,None,space,1,803.2836701,None,0.6676125,P017,fencog,2,Post,2021_Nov_04_1158,N-Back (New Version 2021),2021.1.4,119.9259337
,,,,Conditions/Version_1/twoback(2)_v1.xlsx,New rule: Press 'space' when you see 2-back (i.e. the same letter as the one that appeared 2 letters ago.),G,None,,,,,,,,,0,7,7,7,0,9,9,9,,,,,,,,,,,,,,,,,,,,,,,,,,,,,,,,,,,,,,,,,,,,,,,,,,,,,,,,,,,,,,,,,,,,,1.0286,806.3233774,None,None,1,806.3233774,None,,P017,fencog,2,Post,2021_Nov_04_1158,N-Back (New Version 2021),2021.1.4,119.9259337
,,,,Conditions/Version_1/twoback(2)_v1.xlsx,New rule: Press 'space' when you see 2-back (i.e. the same letter as the one that appeared 2 letters ago.),,,,,,,,,,,0,7,7,7,,,,,,,,,,,,,,,,,,,,,,,,,,,,,,,,,,,,,,,,,,,,,,,,,,,,,,,,,,,,,,,,,,,,,,,,,,,,,,,,,P017,fencog,2,Post,2021_Nov_04_1158,N-Back (New Version 2021),2021.1.4,119.9259337
,,,,Conditions/Version_1/threeback(3)_v1.xlsx,New rule: Press 'space' when you see 3-back (i.e. the same letter as the one that appeared 3 letters ago.),w,None,,,,,,,,,0,8,8,8,0,0,0,0,,,,,,,,,,,,,,,,,,,,,,,,,,,,,,,,,,,,,,,,,,,,,,,,,,,,,,,,,,,808.3605575,None,811.3411601,None,space,0.6983301,811.3411601,None,808.3605575,None,1.5494,813.6139723,None,None,1,813.6139723,None,,P017,fencog,2,Post,2021_Nov_04_1158,N-Back (New Version 2021),2021.1.4,119.9259337
,,,,Conditions/Version_1/threeback(3)_v1.xlsx,New rule: Press 'space' when you see 3-back (i.e. the same letter as the one that appeared 3 letters ago.),p,None,,,,,,,,,0,8,8,8,0,1,1,1,,,,,,,,,,,,,,,,,,,,,,,,,,,,,,,,,,,,,,,,,,,,,,,,,,,,,,,,,,,,,,,,,,,,,1.9214,817.5451458,None,None,1,817.5451458,None,,P017,fencog,2,Post,2021_Nov_04_1158,N-Back (New Version 2021),2021.1.4,119.9259337
,,,,Conditions/Version_1/threeback(3)_v1.xlsx,New rule: Press 'space' when you see 3-back (i.e. the same letter as the one that appeared 3 letters ago.),P,None,,,,,,,,,0,8,8,8,0,2,2,2,,,,,,,,,,,,,,,,,,,,,,,,,,,,,,,,,,,,,,,,,,,,,,,,,,,,,,,,,,,,,,,,,,,,,1.4874,821.0357257,None,None,1,821.0357257,None,,P017,fencog,2,Post,2021_Nov_04_1158,N-Back (New Version 2021),2021.1.4,119.9259337
,,,,Conditions/Version_1/threeback(3)_v1.xlsx,New rule: Press 'space' when you see 3-back (i.e. the same letter as the one that appeared 3 letters ago.),i,None,,,,,,,,,0,8,8,8,0,3,3,3,,,,,,,,,,,,,,,,,,,,,,,,,,,,,,,,,,,,,,,,,,,,,,,,,,,,,,,,,,,,,,,,,,,,,1.3696,824.4096989,None,None,1,824.4096989,None,,P017,fencog,2,Post,2021_Nov_04_1158,N-Back (New Version 2021),2021.1.4,119.9259337
,,,,Conditions/Version_1/threeback(3)_v1.xlsx,New rule: Press 'space' when you see 3-back (i.e. the same letter as the one that appeared 3 letters ago.),f,None,,,,,,,,,0,8,8,8,0,4,4,4,,,,,,,,,,,,,,,,,,,,,,,,,,,,,,,,,,,,,,,,,,,,,,,,,,,,,,,,,,,,,,,,,,,,,1.4068,827.8171532,None,None,1,827.8171532,None,,P017,fencog,2,Post,2021_Nov_04_1158,N-Back (New Version 2021),2021.1.4,119.9259337
,,,,Conditions/Version_1/threeback(3)_v1.xlsx,New rule: Press 'space' when you see 3-back (i.e. the same letter as the one that appeared 3 letters ago.),o,None,,,,,,,,,0,8,8,8,0,5,5,5,,,,,,,,,,,,,,,,,,,,,,,,,,,,,,,,,,,,,,,,,,,,,,,,,,,,,,,,,,,,,,,,,,,,,1.351,831.1749794,None,None,1,831.1749794,None,,P017,fencog,2,Post,2021_Nov_04_1158,N-Back (New Version 2021),2021.1.4,119.9259337
,,,,Conditions/Version_1/threeback(3)_v1.xlsx,New rule: Press 'space' when you see 3-back (i.e. the same letter as the one that appeared 3 letters ago.),w,None,,,,,,,,,0,8,8,8,0,6,6,6,,,,,,,,,,,,,,,,,,,,,,,,,,,,,,,,,,,,,,,,,,,,,,,,,,,,,,,,,,,,,,,,,,,,,1.8222,834.998011,None,None,1,834.998011,None,,P017,fencog,2,Post,2021_Nov_04_1158,N-Back (New Version 2021),2021.1.4,119.9259337
,,,,Conditions/Version_1/threeback(3)_v1.xlsx,New rule: Press 'space' when you see 3-back (i.e. the same letter as the one that appeared 3 letters ago.),F,space,,,,,,,,,0,8,8,8,0,7,7,7,,,,,,,,,,,,,,,,,,,,,,,,,,,,,,,,,,,,,,,,,,,,,,,,,,,,,,,,,,,,,,,,,,,,,1.041,838.0393363,None,space,1,838.0393363,None,0.7761929,P017,fencog,2,Post,2021_Nov_04_1158,N-Back (New Version 2021),2021.1.4,119.9259337
,,,,Conditions/Version_1/threeback(3)_v1.xlsx,New rule: Press 'space' when you see 3-back (i.e. the same letter as the one that appeared 3 letters ago.),p,None,,,,,,,,,0,8,8,8,0,8,8,8,,,,,,,,,,,,,,,,,,,,,,,,,,,,,,,,,,,,,,,,,,,,,,,,,,,,,,,,,,,,,,,,,,,,,1.3324,841.3795571,None,None,1,841.3795571,None,,P017,fencog,2,Post,2021_Nov_04_1158,N-Back (New Version 2021),2021.1.4,119.9259337
,,,,Conditions/Version_1/threeback(3)_v1.xlsx,New rule: Press 'space' when you see 3-back (i.e. the same letter as the one that appeared 3 letters ago.),W,space,,,,,,,,,0,8,8,8,0,9,9,9,,,,,,,,,,,,,,,,,,,,,,,,,,,,,,,,,,,,,,,,,,,,,,,,,,,,,,,,,,,,,,,,,,,,,1.9772,845.3619791,None,space,1,845.3619791,None,0.5331444,P017,fencog,2,Post,2021_Nov_04_1158,N-Back (New Version 2021),2021.1.4,119.9259337
,,,,Conditions/Version_1/threeback(3)_v1.xlsx,New rule: Press 'space' when you see 3-back (i.e. the same letter as the one that appeared 3 letters ago.),,,,,,,,,,,0,8,8,8,,,,,,,,,,,,,,,,,,,,,,,,,,,,,,,,,,,,,,,,,,,,,,,,,,,,,,,,,,,,,,,,,,,,,,,,,,,,,,,,,P017,fencog,2,Post,2021_Nov_04_1158,N-Back (New Version 2021),2021.1.4,119.9259337
,,,,Conditions/Version_1/zeroback(3)_v1.xlsx,New rule: Press 'space' when you see the letter 'x' or 'X'.,X,space,,,,,,,,,0,9,9,9,0,0,0,0,,,,,,,,,,,,,,,,,,,,,,,,,,,,,,,,,,,,,,,,,,,,,,,,,,,,,,,,,,,847.3804678,None,850.3717161,None,space,0.6915258,850.3717161,None,847.3804678,None,1.7726,852.8618129,None,space,1,852.8618129,None,0.4412138,P017,fencog,2,Post,2021_Nov_04_1158,N-Back (New Version 2021),2021.1.4,119.9259337
,,,,Conditions/Version_1/zeroback(3)_v1.xlsx,New rule: Press 'space' when you see the letter 'x' or 'X'.,B,None,,,,,,,,,0,9,9,9,0,1,1,1,,,,,,,,,,,,,,,,,,,,,,,,,,,,,,,,,,,,,,,,,,,,,,,,,,,,,,,,,,,,,,,,,,,,,1.4874,856.3589986,None,None,1,856.3589986,None,,P017,fencog,2,Post,2021_Nov_04_1158,N-Back (New Version 2021),2021.1.4,119.9259337
,,,,Conditions/Version_1/zeroback(3)_v1.xlsx,New rule: Press 'space' when you see the letter 'x' or 'X'.,m,None,,,,,,,,,0,9,9,9,0,2,2,2,,,,,,,,,,,,,,,,,,,,,,,,,,,,,,,,,,,,,,,,,,,,,,,,,,,,,,,,,,,,,,,,,,,,,1.568,859.937362,None,None,1,859.937362,None,,P017,fencog,2,Post,2021_Nov_04_1158,N-Back (New Version 2021),2021.1.4,119.9259337
,,,,Conditions/Version_1/zeroback(3)_v1.xlsx,New rule: Press 'space' when you see the letter 'x' or 'X'.,m,None,,,,,,,,,0,9,9,9,0,3,3,3,,,,,,,,,,,,,,,,,,,,,,,,,,,,,,,,,,,,,,,,,,,,,,,,,,,,,,,,,,,,,,,,,,,,,1.6238,863.5649499,None,None,1,863.5649499,None,,P017,fencog,2,Post,2021_Nov_04_1158,N-Back (New Version 2021),2021.1.4,119.9259337
,,,,Conditions/Version_1/zeroback(3)_v1.xlsx,New rule: Press 'space' when you see the letter 'x' or 'X'.,o,None,,,,,,,,,0,9,9,9,0,4,4,4,,,,,,,,,,,,,,,,,,,,,,,,,,,,,,,,,,,,,,,,,,,,,,,,,,,,,,,,,,,,,,,,,,,,,1.382,866.9470755,None,None,1,866.9470755,None,,P017,fencog,2,Post,2021_Nov_04_1158,N-Back (New Version 2021),2021.1.4,119.9259337
,,,,Conditions/Version_1/zeroback(3)_v1.xlsx,New rule: Press 'space' when you see the letter 'x' or 'X'.,p,None,,,,,,,,,0,9,9,9,0,5,5,5,,,,,,,,,,,,,,,,,,,,,,,,,,,,,,,,,,,,,,,,,,,,,,,,,,,,,,,,,,,,,,,,,,,,,1.785,870.7385716,None,None,1,870.7385716,None,,P017,fencog,2,Post,2021_Nov_04_1158,N-Back (New Version 2021),2021.1.4,119.9259337
,,,,Conditions/Version_1/zeroback(3)_v1.xlsx,New rule: Press 'space' when you see the letter 'x' or 'X'.,G,None,,,,,,,,,0,9,9,9,0,6,6,6,,,,,,,,,,,,,,,,,,,,,,,,,,,,,,,,,,,,,,,,,,,,,,,,,,,,,,,,,,,,,,,,,,,,,1.072,873.8200452,None,None,1,873.8200452,None,,P017,fencog,2,Post,2021_Nov_04_1158,N-Back (New Version 2021),2021.1.4,119.9259337
,,,,Conditions/Version_1/zeroback(3)_v1.xlsx,New rule: Press 'space' when you see the letter 'x' or 'X'.,X,space,,,,,,,,,0,9,9,9,0,7,7,7,,,,,,,,,,,,,,,,,,,,,,,,,,,,,,,,,,,,,,,,,,,,,,,,,,,,,,,,,,,,,,,,,,,,,1.9896,877.819126,None,space,1,877.819126,None,0.4280752,P017,fencog,2,Post,2021_Nov_04_1158,N-Back (New Version 2021),2021.1.4,119.9259337
,,,,Conditions/Version_1/zeroback(3)_v1.xlsx,New rule: Press 'space' when you see the letter 'x' or 'X'.,p,None,,,,,,,,,0,9,9,9,0,8,8,8,,,,,,,,,,,,,,,,,,,,,,,,,,,,,,,,,,,,,,,,,,,,,,,,,,,,,,,,,,,,,,,,,,,,,1.4812,881.3011507,None,None,1,881.3011507,None,,P017,fencog,2,Post,2021_Nov_04_1158,N-Back (New Version 2021),2021.1.4,119.9259337
,,,,Conditions/Version_1/zeroback(3)_v1.xlsx,New rule: Press 'space' when you see the letter 'x' or 'X'.,x,space,,,,,,,,,0,9,9,9,0,9,9,9,,,,,,,,,,,,,,,,,,,,,,,,,,,,,,,,,,,,,,,,,,,,,,,,,,,,,,,,,,,,,,,,,,,,,1.6424,884.9578566,None,space,1,884.9578566,None,0.6412321,P017,fencog,2,Post,2021_Nov_04_1158,N-Back (New Version 2021),2021.1.4,119.9259337
,,,,Conditions/Version_1/zeroback(3)_v1.xlsx,New rule: Press 'space' when you see the letter 'x' or 'X'.,,,,,,,,,,,0,9,9,9,,,,,,,,,,,,,,,,,,,,,,,,,,,,,,,,,,,,,,,,,,,,,,,,,,,,,,,,,,,,,,,,,,,,,,,,,,,,,,,,,P017,fencog,2,Post,2021_Nov_04_1158,N-Back (New Version 2021),2021.1.4,119.9259337
,,,,Conditions/Version_1/twoback(3)_v1.xlsx,New rule: Press 'space' when you see 2-back (i.e. the same letter as the one that appeared 2 letters ago.),e,None,,,,,,,,,0,10,10,10,0,0,0,0,,,,,,,,,,,,,,,,,,,,,,,,,,,,,,,,,,,,,,,,,,,,,,,,,,,,,,,,,,,886.9743644,None,889.958936,None,space,21.1359762,889.958936,None,886.9743644,None,1.0968,912.2168099,None,None,1,912.2168099,None,,P017,fencog,2,Post,2021_Nov_04_1158,N-Back (New Version 2021),2021.1.4,119.9259337
,,,,Conditions/Version_1/twoback(3)_v1.xlsx,New rule: Press 'space' when you see 2-back (i.e. the same letter as the one that appeared 2 letters ago.),o,None,,,,,,,,,0,10,10,10,0,1,1,1,,,,,,,,,,,,,,,,,,,,,,,,,,,,,,,,,,,,,,,,,,,,,,,,,,,,,,,,,,,,,,,,,,,,,1.3572,915.5741927,None,None,1,915.5741927,None,,P017,fencog,2,Post,2021_Nov_04_1158,N-Back (New Version 2021),2021.1.4,119.9259337
,,,,Conditions/Version_1/twoback(3)_v1.xlsx,New rule: Press 'space' when you see 2-back (i.e. the same letter as the one that appeared 2 letters ago.),P,None,,,,,,,,,0,10,10,10,0,2,2,2,,,,,,,,,,,,,,,,,,,,,,,,,,,,,,,,,,,,,,,,,,,,,,,,,,,,,,,,,,,,,,,,,,,,,1.5246,919.0981526,None,None,1,919.0981526,None,,P017,fencog,2,Post,2021_Nov_04_1158,N-Back (New Version 2021),2021.1.4,119.9259337
,,,,Conditions/Version_1/twoback(3)_v1.xlsx,New rule: Press 'space' when you see 2-back (i.e. the same letter as the one that appeared 2 letters ago.),z,None,,,,,,,,,0,10,10,10,0,3,3,3,,,,,,,,,,,,,,,,,,,,,,,,,,,,,,,,,,,,,,,,,,,,,,,,,,,,,,,,,,,,,,,,,,,,,1.6362,922.7405548,None,None,1,922.7405548,None,,P017,fencog,2,Post,2021_Nov_04_1158,N-Back (New Version 2021),2021.1.4,119.9259337
,,,,Conditions/Version_1/twoback(3)_v1.xlsx,New rule: Press 'space' when you see 2-back (i.e. the same letter as the one that appeared 2 letters ago.),X,None,,,,,,,,,0,10,10,10,0,4,4,4,,,,,,,,,,,,,,,,,,,,,,,,,,,,,,,,,,,,,,,,,,,,,,,,,,,,,,,,,,,,,,,,,,,,,1.599,926.3461294,None,None,1,926.3461294,None,,P017,fencog,2,Post,2021_Nov_04_1158,N-Back (New Version 2021),2021.1.4,119.9259337
,,,,Conditions/Version_1/twoback(3)_v1.xlsx,New rule: Press 'space' when you see 2-back (i.e. the same letter as the one that appeared 2 letters ago.),z,space,,,,,,,,,0,10,10,10,0,5,5,5,,,,,,,,,,,,,,,,,,,,,,,,,,,,,,,,,,,,,,,,,,,,,,,,,,,,,,,,,,,,,,,,,,,,,1.3386,929.6868245,None,space,1,929.6868245,None,0.4880872,P017,fencog,2,Post,2021_Nov_04_1158,N-Back (New Version 2021),2021.1.4,119.9259337
,,,,Conditions/Version_1/twoback(3)_v1.xlsx,New rule: Press 'space' when you see 2-back (i.e. the same letter as the one that appeared 2 letters ago.),x,space,,,,,,,,,0,10,10,10,0,6,6,6,,,,,,,,,,,,,,,,,,,,,,,,,,,,,,,,,,,,,,,,,,,,,,,,,,,,,,,,,,,,,,,,,,,,,1.8284,933.5224337,None,space,1,933.5224337,None,0.9487416,P017,fencog,2,Post,2021_Nov_04_1158,N-Back (New Version 2021),2021.1.4,119.9259337
,,,,Conditions/Version_1/twoback(3)_v1.xlsx,New rule: Press 'space' when you see 2-back (i.e. the same letter as the one that appeared 2 letters ago.),c,None,,,,,,,,,0,10,10,10,0,7,7,7,,,,,,,,,,,,,,,,,,,,,,,,,,,,,,,,,,,,,,,,,,,,,,,,,,,,,,,,,,,,,,,,,,,,,1.5432,937.0763805,None,None,1,937.0763805,None,,P017,fencog,2,Post,2021_Nov_04_1158,N-Back (New Version 2021),2021.1.4,119.9259337
,,,,Conditions/Version_1/twoback(3)_v1.xlsx,New rule: Press 'space' when you see 2-back (i.e. the same letter as the one that appeared 2 letters ago.),i,None,,,,,,,,,0,10,10,10,0,8,8,8,,,,,,,,,,,,,,,,,,,,,,,,,,,,,,,,,,,,,,,,,,,,,,,,,,,,,,,,,,,,,,,,,,,,,1.8966,940.9753475,None,None,1,940.9753475,None,,P017,fencog,2,Post,2021_Nov_04_1158,N-Back (New Version 2021),2021.1.4,119.9259337
,,,,Conditions/Version_1/twoback(3)_v1.xlsx,New rule: Press 'space' when you see 2-back (i.e. the same letter as the one that appeared 2 letters ago.),C,space,,,,,,,,,0,10,10,10,0,9,9,9,,,,,,,,,,,,,,,,,,,,,,,,,,,,,,,,,,,,,,,,,,,,,,,,,,,,,,,,,,,,,,,,,,,,,1.3634,944.3478113,None,space,1,944.3478113,None,0.3712271,P017,fencog,2,Post,2021_Nov_04_1158,N-Back (New Version 2021),2021.1.4,119.9259337
,,,,Conditions/Version_1/twoback(3)_v1.xlsx,New rule: Press 'space' when you see 2-back (i.e. the same letter as the one that appeared 2 letters ago.),,,,,,,,,,,0,10,10,10,,,,,,,,,,,,,,,,,,,,,,,,,,,,,,,,,,,,,,,,,,,,,,,,,,,,,,,,,,,,,,,,,,,,,,,,,,,,,,,,,P017,fencog,2,Post,2021_Nov_04_1158,N-Back (New Version 2021),2021.1.4,119.9259337
,,,,Conditions/Version_1/oneback(3)_v1.xlsx,New rule: Press 'space' when you see 1-back (i.e. the same letter as the one that appeared 1 letter ago.),o,None,,,,,,,,,0,11,11,11,0,0,0,0,,,,,,,,,,,,,,,,,,,,,,,,,,,,,,,,,,,,,,,,,,,,,,,,,,,,,,,,,,,946.3727756,None,949.357855,None,space,1.1691696,949.357855,None,946.3727756,None,1.754,952.3053602,None,None,1,952.3053602,None,,P017,fencog,2,Post,2021_Nov_04_1158,N-Back (New Version 2021),2021.1.4,119.9259337
,,,,Conditions/Version_1/oneback(3)_v1.xlsx,New rule: Press 'space' when you see 1-back (i.e. the same letter as the one that appeared 1 letter ago.),O,space,,,,,,,,,0,11,11,11,0,1,1,1,,,,,,,,,,,,,,,,,,,,,,,,,,,,,,,,,,,,,,,,,,,,,,,,,,,,,,,,,,,,,,,,,,,,,1.8904,956.1955131,None,space,1,956.1955131,None,0.6273096,P017,fencog,2,Post,2021_Nov_04_1158,N-Back (New Version 2021),2021.1.4,119.9259337
,,,,Conditions/Version_1/oneback(3)_v1.xlsx,New rule: Press 'space' when you see 1-back (i.e. the same letter as the one that appeared 1 letter ago.),h,None,,,,,,,,,0,11,11,11,0,2,2,2,,,,,,,,,,,,,,,,,,,,,,,,,,,,,,,,,,,,,,,,,,,,,,,,,,,,,,,,,,,,,,,,,,,,,1.5432,959.7445809,None,None,1,959.7445809,None,,P017,fencog,2,Post,2021_Nov_04_1158,N-Back (New Version 2021),2021.1.4,119.9259337
,,,,Conditions/Version_1/oneback(3)_v1.xlsx,New rule: Press 'space' when you see 1-back (i.e. the same letter as the one that appeared 1 letter ago.),g,None,,,,,,,,,0,11,11,11,0,3,3,3,,,,,,,,,,,,,,,,,,,,,,,,,,,,,,,,,,,,,,,,,,,,,,,,,,,,,,,,,,,,,,,,,,,,,1.8098,963.5615373,None,None,1,963.5615373,None,,P017,fencog,2,Post,2021_Nov_04_1158,N-Back (New Version 2021),2021.1.4,119.9259337
,,,,Conditions/Version_1/oneback(3)_v1.xlsx,New rule: Press 'space' when you see 1-back (i.e. the same letter as the one that appeared 1 letter ago.),n,None,,,,,,,,,0,11,11,11,0,4,4,4,,,,,,,,,,,,,,,,,,,,,,,,,,,,,,,,,,,,,,,,,,,,,,,,,,,,,,,,,,,,,,,,,,,,,1.692,967.2590383,None,None,1,967.2590383,None,,P017,fencog,2,Post,2021_Nov_04_1158,N-Back (New Version 2021),2021.1.4,119.9259337
,,,,Conditions/Version_1/oneback(3)_v1.xlsx,New rule: Press 'space' when you see 1-back (i.e. the same letter as the one that appeared 1 letter ago.),z,None,,,,,,,,,0,11,11,11,0,5,5,5,,,,,,,,,,,,,,,,,,,,,,,,,,,,,,,,,,,,,,,,,,,,,,,,,,,,,,,,,,,,,,,,,,,,,1.2704,970.5332331,None,None,1,970.5332331,None,,P017,fencog,2,Post,2021_Nov_04_1158,N-Back (New Version 2021),2021.1.4,119.9259337
,,,,Conditions/Version_1/oneback(3)_v1.xlsx,New rule: Press 'space' when you see 1-back (i.e. the same letter as the one that appeared 1 letter ago.),X,None,,,,,,,,,0,11,11,11,0,6,6,6,,,,,,,,,,,,,,,,,,,,,,,,,,,,,,,,,,,,,,,,,,,,,,,,,,,,,,,,,,,,,,,,,,,,,1.8594,974.3992344,None,None,1,974.3992344,None,,P017,fencog,2,Post,2021_Nov_04_1158,N-Back (New Version 2021),2021.1.4,119.9259337
,,,,Conditions/Version_1/oneback(3)_v1.xlsx,New rule: Press 'space' when you see 1-back (i.e. the same letter as the one that appeared 1 letter ago.),r,None,,,,,,,,,0,11,11,11,0,7,7,7,,,,,,,,,,,,,,,,,,,,,,,,,,,,,,,,,,,,,,,,,,,,,,,,,,,,,,,,,,,,,,,,,,,,,1.8036,978.2510137,None,None,1,978.2510137,None,,P017,fencog,2,Post,2021_Nov_04_1158,N-Back (New Version 2021),2021.1.4,119.9259337
,,,,Conditions/Version_1/oneback(3)_v1.xlsx,New rule: Press 'space' when you see 1-back (i.e. the same letter as the one that appeared 1 letter ago.),r,space,,,,,,,,,0,11,11,11,0,8,8,8,,,,,,,,,,,,,,,,,,,,,,,,,,,,,,,,,,,,,,,,,,,,,,,,,,,,,,,,,,,,,,,,,,,,,1.3386,981.5633459,None,space,1,981.5633459,None,0.6835103,P017,fencog,2,Post,2021_Nov_04_1158,N-Back (New Version 2021),2021.1.4,119.9259337
,,,,Conditions/Version_1/oneback(3)_v1.xlsx,New rule: Press 'space' when you see 1-back (i.e. the same letter as the one that appeared 1 letter ago.),P,None,,,,,,,,,0,11,11,11,0,9,9,9,,,,,,,,,,,,,,,,,,,,,,,,,,,,,,,,,,,,,,,,,,,,,,,,,,,,,,,,,,,,,,,,,,,,,1.4688,985.0371278,None,None,1,985.0371278,None,,P017,fencog,2,Post,2021_Nov_04_1158,N-Back (New Version 2021),2021.1.4,119.9259337
,,,,Conditions/Version_1/oneback(3)_v1.xlsx,New rule: Press 'space' when you see 1-back (i.e. the same letter as the one that appeared 1 letter ago.),,,,,,,,,,,0,11,11,11,,,,,,,,,,,,,,,,,,,,,,,,,,,,,,,,,,,,,,,,,,,,,,,,,,,,,,,,,,,,,,,,,,,,,,,,,,,,,,,,,P017,fencog,2,Post,2021_Nov_04_1158,N-Back (New Version 2021),2021.1.4,119.9259337
,,,,Conditions/Version_1/twoback(4)_v1.xlsx,New rule: Press 'space' when you see 2-back (i.e. the same letter as the one that appeared 2 letters ago.),r,None,,,,,,,,,0,12,12,12,0,0,0,0,,,,,,,,,,,,,,,,,,,,,,,,,,,,,,,,,,,,,,,,,,,,,,,,,,,,,,,,,,,987.0620219,None,990.0458861,None,space,1.1051861,990.0458861,None,987.0620219,None,1.6548,992.8348021,None,None,1,992.8348021,None,,P017,fencog,2,Post,2021_Nov_04_1158,N-Back (New Version 2021),2021.1.4,119.9259337
,,,,Conditions/Version_1/twoback(4)_v1.xlsx,New rule: Press 'space' when you see 2-back (i.e. the same letter as the one that appeared 2 letters ago.),T,None,,,,,,,,,0,12,12,12,0,1,1,1,,,,,,,,,,,,,,,,,,,,,,,,,,,,,,,,,,,,,,,,,,,,,,,,,,,,,,,,,,,,,,,,,,,,,1.0658,995.9014973,None,None,1,995.9014973,None,,P017,fencog,2,Post,2021_Nov_04_1158,N-Back (New Version 2021),2021.1.4,119.9259337
,,,,Conditions/Version_1/twoback(4)_v1.xlsx,New rule: Press 'space' when you see 2-back (i.e. the same letter as the one that appeared 2 letters ago.),o,None,,,,,,,,,0,12,12,12,0,2,2,2,,,,,,,,,,,,,,,,,,,,,,,,,,,,,,,,,,,,,,,,,,,,,,,,,,,,,,,,,,,,,,,,,,,,,1.7726,999.6838698,None,None,1,999.6838698,None,,P017,fencog,2,Post,2021_Nov_04_1158,N-Back (New Version 2021),2021.1.4,119.9259337
,,,,Conditions/Version_1/twoback(4)_v1.xlsx,New rule: Press 'space' when you see 2-back (i.e. the same letter as the one that appeared 2 letters ago.),p,None,,,,,,,,,0,12,12,12,0,3,3,3,,,,,,,,,,,,,,,,,,,,,,,,,,,,,,,,,,,,,,,,,,,,,,,,,,,,,,,,,,,,,,,,,,,,,1.4316,1003.123513,None,None,1,1003.123513,None,,P017,fencog,2,Post,2021_Nov_04_1158,N-Back (New Version 2021),2021.1.4,119.9259337
,,,,Conditions/Version_1/twoback(4)_v1.xlsx,New rule: Press 'space' when you see 2-back (i.e. the same letter as the one that appeared 2 letters ago.),p,None,,,,,,,,,0,12,12,12,0,4,4,4,,,,,,,,,,,,,,,,,,,,,,,,,,,,,,,,,,,,,,,,,,,,,,,,,,,,,,,,,,,,,,,,,,,,,1.692,1006.814251,None,None,1,1006.814251,None,,P017,fencog,2,Post,2021_Nov_04_1158,N-Back (New Version 2021),2021.1.4,119.9259337
,,,,Conditions/Version_1/twoback(4)_v1.xlsx,New rule: Press 'space' when you see 2-back (i.e. the same letter as the one that appeared 2 letters ago.),y,None,,,,,,,,,0,12,12,12,0,5,5,5,,,,,,,,,,,,,,,,,,,,,,,,,,,,,,,,,,,,,,,,,,,,,,,,,,,,,,,,,,,,,,,,,,,,,1.6114,1010.429779,None,None,1,1010.429779,None,,P017,fencog,2,Post,2021_Nov_04_1158,N-Back (New Version 2021),2021.1.4,119.9259337
,,,,Conditions/Version_1/twoback(4)_v1.xlsx,New rule: Press 'space' when you see 2-back (i.e. the same letter as the one that appeared 2 letters ago.),P,space,,,,,,,,,0,12,12,12,0,6,6,6,,,,,,,,,,,,,,,,,,,,,,,,,,,,,,,,,,,,,,,,,,,,,,,,,,,,,,,,,,,,,,,,,,,,,1.6238,1014.054331,None,space,1,1014.054331,None,0.3926344,P017,fencog,2,Post,2021_Nov_04_1158,N-Back (New Version 2021),2021.1.4,119.9259337
,,,,Conditions/Version_1/twoback(4)_v1.xlsx,New rule: Press 'space' when you see 2-back (i.e. the same letter as the one that appeared 2 letters ago.),y,None,,,,,,,,,0,12,12,12,0,7,7,7,,,,,,,,,,,,,,,,,,,,,,,,,,,,,,,,,,,,,,,,,,,,,,,,,,,,,,,,,,,,,,,,,,,,,1.9214,1017.985598,None,space,0,1017.985598,None,0.5731047,P017,fencog,2,Post,2021_Nov_04_1158,N-Back (New Version 2021),2021.1.4,119.9259337
,,,,Conditions/Version_1/twoback(4)_v1.xlsx,New rule: Press 'space' when you see 2-back (i.e. the same letter as the one that appeared 2 letters ago.),y,space,,,,,,,,,0,12,12,12,0,8,8,8,,,,,,,,,,,,,,,,,,,,,,,,,,,,,,,,,,,,,,,,,,,,,,,,,,,,,,,,,,,,,,,,,,,,,1.3572,1021.343161,None,None,0,1021.343161,None,,P017,fencog,2,Post,2021_Nov_04_1158,N-Back (New Version 2021),2021.1.4,119.9259337
,,,,Conditions/Version_1/twoback(4)_v1.xlsx,New rule: Press 'space' when you see 2-back (i.e. the same letter as the one that appeared 2 letters ago.),,,,,,,,,,,0,12,12,12,,,,,,,,,,,,,,,,,,,,,,,,,,,,,,,,,,,,,,,,,,,,,,,,,,,,,,,,,,,,,,,,,,,,,,,,,,,,,,,,,P017,fencog,2,Post,2021_Nov_04_1158,N-Back (New Version 2021),2021.1.4,119.9259337
,,,,Conditions/Version_1/zeroback(4)_v1.xlsx,New rule: Press 'space' when you see the letter 'x' or 'X'.,o,None,,,,,,,,,0,13,13,13,0,0,0,0,,,,,,,,,,,,,,,,,,,,,,,,,,,,,,,,,,,,,,,,,,,,,,,,,,,,,,,,,,,1023.364037,None,1026.343668,None,space,0.967045,1026.343668,None,1023.364037,None,1.8718,1029.207961,None,None,1,1029.207961,None,,P017,fencog,2,Post,2021_Nov_04_1158,N-Back (New Version 2021),2021.1.4,119.9259337
,,,,Conditions/Version_1/zeroback(4)_v1.xlsx,New rule: Press 'space' when you see the letter 'x' or 'X'.,X,space,,,,,,,,,0,13,13,13,0,1,1,1,,,,,,,,,,,,,,,,,,,,,,,,,,,,,,,,,,,,,,,,,,,,,,,,,,,,,,,,,,,,,,,,,,,,,1.0658,1032.276384,None,space,1,1032.276384,None,0.5544733,P017,fencog,2,Post,2021_Nov_04_1158,N-Back (New Version 2021),2021.1.4,119.9259337
,,,,Conditions/Version_1/zeroback(4)_v1.xlsx,New rule: Press 'space' when you see the letter 'x' or 'X'.,p,None,,,,,,,,,0,13,13,13,0,2,2,2,,,,,,,,,,,,,,,,,,,,,,,,,,,,,,,,,,,,,,,,,,,,,,,,,,,,,,,,,,,,,,,,,,,,,1.6486,1035.935577,None,None,1,1035.935577,None,,P017,fencog,2,Post,2021_Nov_04_1158,N-Back (New Version 2021),2021.1.4,119.9259337
,,,,Conditions/Version_1/zeroback(4)_v1.xlsx,New rule: Press 'space' when you see the letter 'x' or 'X'.,m,None,,,,,,,,,0,13,13,13,0,3,3,3,,,,,,,,,,,,,,,,,,,,,,,,,,,,,,,,,,,,,,,,,,,,,,,,,,,,,,,,,,,,,,,,,,,,,1.5494,1039.490516,None,None,1,1039.490516,None,,P017,fencog,2,Post,2021_Nov_04_1158,N-Back (New Version 2021),2021.1.4,119.9259337
,,,,Conditions/Version_1/zeroback(4)_v1.xlsx,New rule: Press 'space' when you see the letter 'x' or 'X'.,n,None,,,,,,,,,0,13,13,13,0,4,4,4,,,,,,,,,,,,,,,,,,,,,,,,,,,,,,,,,,,,,,,,,,,,,,,,,,,,,,,,,,,,,,,,,,,,,1.3386,1042.845549,None,None,1,1042.845549,None,,P017,fencog,2,Post,2021_Nov_04_1158,N-Back (New Version 2021),2021.1.4,119.9259337
,,,,Conditions/Version_1/zeroback(4)_v1.xlsx,New rule: Press 'space' when you see the letter 'x' or 'X'.,m,None,,,,,,,,,0,13,13,13,0,5,5,5,,,,,,,,,,,,,,,,,,,,,,,,,,,,,,,,,,,,,,,,,,,,,,,,,,,,,,,,,,,,,,,,,,,,,1.5742,1046.418956,None,None,1,1046.418956,None,,P017,fencog,2,Post,2021_Nov_04_1158,N-Back (New Version 2021),2021.1.4,119.9259337
,,,,Conditions/Version_1/zeroback(4)_v1.xlsx,New rule: Press 'space' when you see the letter 'x' or 'X'.,C,None,,,,,,,,,0,13,13,13,0,6,6,6,,,,,,,,,,,,,,,,,,,,,,,,,,,,,,,,,,,,,,,,,,,,,,,,,,,,,,,,,,,,,,,,,,,,,1.7044,1050.12618,None,None,1,1050.12618,None,,P017,fencog,2,Post,2021_Nov_04_1158,N-Back (New Version 2021),2021.1.4,119.9259337
,,,,Conditions/Version_1/zeroback(4)_v1.xlsx,New rule: Press 'space' when you see the letter 'x' or 'X'.,m,None,,,,,,,,,0,13,13,13,0,7,7,7,,,,,,,,,,,,,,,,,,,,,,,,,,,,,,,,,,,,,,,,,,,,,,,,,,,,,,,,,,,,,,,,,,,,,1.1154,1053.246741,None,None,1,1053.246741,None,,P017,fencog,2,Post,2021_Nov_04_1158,N-Back (New Version 2021),2021.1.4,119.9259337
,,,,Conditions/Version_1/zeroback(4)_v1.xlsx,New rule: Press 'space' when you see the letter 'x' or 'X'.,p,None,,,,,,,,,0,13,13,13,0,8,8,8,,,,,,,,,,,,,,,,,,,,,,,,,,,,,,,,,,,,,,,,,,,,,,,,,,,,,,,,,,,,,,,,,,,,,1.0224,1056.274559,None,None,1,1056.274559,None,,P017,fencog,2,Post,2021_Nov_04_1158,N-Back (New Version 2021),2021.1.4,119.9259337
,,,,Conditions/Version_1/zeroback(4)_v1.xlsx,New rule: Press 'space' when you see the letter 'x' or 'X'.,X,space,,,,,,,,,0,13,13,13,0,9,9,9,,,,,,,,,,,,,,,,,,,,,,,,,,,,,,,,,,,,,,,,,,,,,,,,,,,,,,,,,,,,,,,,,,,,,1.0472,1059.33175,None,space,1,1059.33175,None,0.6669435,P017,fencog,2,Post,2021_Nov_04_1158,N-Back (New Version 2021),2021.1.4,119.9259337
,,,,Conditions/Version_1/zeroback(4)_v1.xlsx,New rule: Press 'space' when you see the letter 'x' or 'X'.,,,,,,,,,,,0,13,13,13,,,,,,,,,,,,,,,,,,,,,,,,,,,,,,,,,,,,,,,,,,,,,,,,,,,,,,,,,,,,,,,,,,,,,,,,,,,,,,,,,P017,fencog,2,Post,2021_Nov_04_1158,N-Back (New Version 2021),2021.1.4,119.9259337
,,,,Conditions/Version_1/oneback(4)_v1.xlsx,New rule: Press 'space' when you see 1-back (i.e. the same letter as the one that appeared 1 letter ago.),w,None,,,,,,,,,0,14,14,14,0,0,0,0,,,,,,,,,,,,,,,,,,,,,,,,,,,,,,,,,,,,,,,,,,,,,,,,,,,,,,,,,,,1061.356108,None,1064.343309,None,space,20.2156922,1064.343309,None,1061.356108,None,1.7788,1086.366066,None,None,1,1086.366066,None,,P017,fencog,2,Post,2021_Nov_04_1158,N-Back (New Version 2021),2021.1.4,119.9259337
,,,,Conditions/Version_1/oneback(4)_v1.xlsx,New rule: Press 'space' when you see 1-back (i.e. the same letter as the one that appeared 1 letter ago.),q,None,,,,,,,,,0,14,14,14,0,1,1,1,,,,,,,,,,,,,,,,,,,,,,,,,,,,,,,,,,,,,,,,,,,,,,,,,,,,,,,,,,,,,,,,,,,,,1.0534,1089.422856,None,None,1,1089.422856,None,,P017,fencog,2,Post,2021_Nov_04_1158,N-Back (New Version 2021),2021.1.4,119.9259337
,,,,Conditions/Version_1/oneback(4)_v1.xlsx,New rule: Press 'space' when you see 1-back (i.e. the same letter as the one that appeared 1 letter ago.),i,None,,,,,,,,,0,14,14,14,0,2,2,2,,,,,,,,,,,,,,,,,,,,,,,,,,,,,,,,,,,,,,,,,,,,,,,,,,,,,,,,,,,,,,,,,,,,,1.9462,1093.375427,None,None,1,1093.375427,None,,P017,fencog,2,Post,2021_Nov_04_1158,N-Back (New Version 2021),2021.1.4,119.9259337
,,,,Conditions/Version_1/oneback(4)_v1.xlsx,New rule: Press 'space' when you see 1-back (i.e. the same letter as the one that appeared 1 letter ago.),t,None,,,,,,,,,0,14,14,14,0,3,3,3,,,,,,,,,,,,,,,,,,,,,,,,,,,,,,,,,,,,,,,,,,,,,,,,,,,,,,,,,,,,,,,,,,,,,1.2704,1096.654305,None,None,1,1096.654305,None,,P017,fencog,2,Post,2021_Nov_04_1158,N-Back (New Version 2021),2021.1.4,119.9259337
,,,,Conditions/Version_1/oneback(4)_v1.xlsx,New rule: Press 'space' when you see 1-back (i.e. the same letter as the one that appeared 1 letter ago.),v,None,,,,,,,,,0,14,14,14,0,4,4,4,,,,,,,,,,,,,,,,,,,,,,,,,,,,,,,,,,,,,,,,,,,,,,,,,,,,,,,,,,,,,,,,,,,,,1.1092,1099.771528,None,None,1,1099.771528,None,,P017,fencog,2,Post,2021_Nov_04_1158,N-Back (New Version 2021),2021.1.4,119.9259337
,,,,Conditions/Version_1/oneback(4)_v1.xlsx,New rule: Press 'space' when you see 1-back (i.e. the same letter as the one that appeared 1 letter ago.),V,space,,,,,,,,,0,14,14,14,0,5,5,5,,,,,,,,,,,,,,,,,,,,,,,,,,,,,,,,,,,,,,,,,,,,,,,,,,,,,,,,,,,,,,,,,,,,,1.4626,1103.245458,None,space,1,1103.245458,None,0.7216817,P017,fencog,2,Post,2021_Nov_04_1158,N-Back (New Version 2021),2021.1.4,119.9259337
,,,,Conditions/Version_1/oneback(4)_v1.xlsx,New rule: Press 'space' when you see 1-back (i.e. the same letter as the one that appeared 1 letter ago.),v,space,,,,,,,,,0,14,14,14,0,6,6,6,,,,,,,,,,,,,,,,,,,,,,,,,,,,,,,,,,,,,,,,,,,,,,,,,,,,,,,,,,,,,,,,,,,,,1.32,1106.576126,None,space,1,1106.576126,None,0.4867291,P017,fencog,2,Post,2021_Nov_04_1158,N-Back (New Version 2021),2021.1.4,119.9259337
,,,,Conditions/Version_1/oneback(4)_v1.xlsx,New rule: Press 'space' when you see 1-back (i.e. the same letter as the one that appeared 1 letter ago.),p,None,,,,,,,,,0,14,14,14,0,7,7,7,,,,,,,,,,,,,,,,,,,,,,,,,,,,,,,,,,,,,,,,,,,,,,,,,,,,,,,,,,,,,,,,,,,,,1.2394,1109.818959,None,None,1,1109.818959,None,,P017,fencog,2,Post,2021_Nov_04_1158,N-Back (New Version 2021),2021.1.4,119.9259337
,,,,Conditions/Version_1/oneback(4)_v1.xlsx,New rule: Press 'space' when you see 1-back (i.e. the same letter as the one that appeared 1 letter ago.),w,None,,,,,,,,,0,14,14,14,0,8,8,8,,,,,,,,,,,,,,,,,,,,,,,,,,,,,,,,,,,,,,,,,,,,,,,,,,,,,,,,,,,,,,,,,,,,,1.7974,1113.624134,None,None,1,1113.624134,None,,P017,fencog,2,Post,2021_Nov_04_1158,N-Back (New Version 2021),2021.1.4,119.9259337
,,,,Conditions/Version_1/oneback(4)_v1.xlsx,New rule: Press 'space' when you see 1-back (i.e. the same letter as the one that appeared 1 letter ago.),W,space,,,,,,,,,0,14,14,14,0,9,9,9,,,,,,,,,,,,,,,,,,,,,,,,,,,,,,,,,,,,,,,,,,,,,,,,,,,,,,,,,,,,,,,,,,,,,1.4006,1117.031549,None,space,1,1117.031549,None,0.5911692,P017,fencog,2,Post,2021_Nov_04_1158,N-Back (New Version 2021),2021.1.4,119.9259337
,,,,Conditions/Version_1/oneback(4)_v1.xlsx,New rule: Press 'space' when you see 1-back (i.e. the same letter as the one that appeared 1 letter ago.),,,,,,,,,,,0,14,14,14,,,,,,,,,,,,,,,,,,,,,,,,,,,,,,,,,,,,,,,,,,,,,,,,,,,,,,,,,,,,,,,,,,,,,,,,,,,,,,,,,P017,fencog,2,Post,2021_Nov_04_1158,N-Back (New Version 2021),2021.1.4,119.9259337
,,,,Conditions/Version_1/threeback(4)_v1.xlsx,New rule: Press 'space' when you see 3-back (i.e. the same letter as the one that appeared 3 letters ago.),A,None,,,,,,,,,0,15,15,15,0,0,0,0,,,,,,,,,,,,,,,,,,,,,,,,,,,,,,,,,,,,,,,,,,,,,,,,,,,,,,,,,,,1119.049983,None,1122.03545,None,space,2.2351807,1122.03545,None,1119.049983,None,1.6796,1125.97916,None,None,1,1125.97916,None,,P017,fencog,2,Post,2021_Nov_04_1158,N-Back (New Version 2021),2021.1.4,119.9259337
,,,,Conditions/Version_1/threeback(4)_v1.xlsx,New rule: Press 'space' when you see 3-back (i.e. the same letter as the one that appeared 3 letters ago.),n,None,,,,,,,,,0,15,15,15,0,1,1,1,,,,,,,,,,,,,,,,,,,,,,,,,,,,,,,,,,,,,,,,,,,,,,,,,,,,,,,,,,,,,,,,,,,,,1.909,1129.896036,None,None,1,1129.896036,None,,P017,fencog,2,Post,2021_Nov_04_1158,N-Back (New Version 2021),2021.1.4,119.9259337
,,,,Conditions/Version_1/threeback(4)_v1.xlsx,New rule: Press 'space' when you see 3-back (i.e. the same letter as the one that appeared 3 letters ago.),g,None,,,,,,,,,0,15,15,15,0,2,2,2,,,,,,,,,,,,,,,,,,,,,,,,,,,,,,,,,,,,,,,,,,,,,,,,,,,,,,,,,,,,,,,,,,,,,1.8284,1133.737062,None,None,1,1133.737062,None,,P017,fencog,2,Post,2021_Nov_04_1158,N-Back (New Version 2021),2021.1.4,119.9259337
,,,,Conditions/Version_1/threeback(4)_v1.xlsx,New rule: Press 'space' when you see 3-back (i.e. the same letter as the one that appeared 3 letters ago.),A,space,,,,,,,,,0,15,15,15,0,3,3,3,,,,,,,,,,,,,,,,,,,,,,,,,,,,,,,,,,,,,,,,,,,,,,,,,,,,,,,,,,,,,,,,,,,,,1.7292,1137.475585,None,space,1,1137.475585,None,0.6993505,P017,fencog,2,Post,2021_Nov_04_1158,N-Back (New Version 2021),2021.1.4,119.9259337
,,,,Conditions/Version_1/threeback(4)_v1.xlsx,New rule: Press 'space' when you see 3-back (i.e. the same letter as the one that appeared 3 letters ago.),p,None,,,,,,,,,0,15,15,15,0,4,4,4,,,,,,,,,,,,,,,,,,,,,,,,,,,,,,,,,,,,,,,,,,,,,,,,,,,,,,,,,,,,,,,,,,,,,1.475,1140.949422,None,None,1,1140.949422,None,,P017,fencog,2,Post,2021_Nov_04_1158,N-Back (New Version 2021),2021.1.4,119.9259337
,,,,Conditions/Version_1/threeback(4)_v1.xlsx,New rule: Press 'space' when you see 3-back (i.e. the same letter as the one that appeared 3 letters ago.),O,None,,,,,,,,,0,15,15,15,0,5,5,5,,,,,,,,,,,,,,,,,,,,,,,,,,,,,,,,,,,,,,,,,,,,,,,,,,,,,,,,,,,,,,,,,,,,,1.196,1144.151332,None,None,1,1144.151332,None,,P017,fencog,2,Post,2021_Nov_04_1158,N-Back (New Version 2021),2021.1.4,119.9259337
,,,,Conditions/Version_1/threeback(4)_v1.xlsx,New rule: Press 'space' when you see 3-back (i.e. the same letter as the one that appeared 3 letters ago.),a,space,,,,,,,,,0,15,15,15,0,6,6,6,,,,,,,,,,,,,,,,,,,,,,,,,,,,,,,,,,,,,,,,,,,,,,,,,,,,,,,,,,,,,,,,,,,,,1.8346,1147.997654,None,space,1,1147.997654,None,0.7531898,P017,fencog,2,Post,2021_Nov_04_1158,N-Back (New Version 2021),2021.1.4,119.9259337
,,,,Conditions/Version_1/threeback(4)_v1.xlsx,New rule: Press 'space' when you see 3-back (i.e. the same letter as the one that appeared 3 letters ago.),p,space,,,,,,,,,0,15,15,15,0,7,7,7,,,,,,,,,,,,,,,,,,,,,,,,,,,,,,,,,,,,,,,,,,,,,,,,,,,,,,,,,,,,,,,,,,,,,1.1526,1151.154598,None,space,1,1151.154598,None,0.6281255,P017,fencog,2,Post,2021_Nov_04_1158,N-Back (New Version 2021),2021.1.4,119.9259337
,,,,Conditions/Version_1/threeback(4)_v1.xlsx,New rule: Press 'space' when you see 3-back (i.e. the same letter as the one that appeared 3 letters ago.),x,None,,,,,,,,,0,15,15,15,0,8,8,8,,,,,,,,,,,,,,,,,,,,,,,,,,,,,,,,,,,,,,,,,,,,,,,,,,,,,,,,,,,,,,,,,,,,,1.2146,1154.370217,None,None,1,1154.370217,None,,P017,fencog,2,Post,2021_Nov_04_1158,N-Back (New Version 2021),2021.1.4,119.9259337
,,,,Conditions/Version_1/threeback(4)_v1.xlsx,New rule: Press 'space' when you see 3-back (i.e. the same letter as the one that appeared 3 letters ago.),X,None,,,,,,,,,0,15,15,15,0,9,9,9,,,,,,,,,,,,,,,,,,,,,,,,,,,,,,,,,,,,,,,,,,,,,,,,,,,,,,,,,,,,,,,,,,,,,1.413,1157.786032,None,None,1,1157.786032,None,,P017,fencog,2,Post,2021_Nov_04_1158,N-Back (New Version 2021),2021.1.4,119.9259337
,,,,Conditions/Version_1/threeback(4)_v1.xlsx,New rule: Press 'space' when you see 3-back (i.e. the same letter as the one that appeared 3 letters ago.),,,,,,,,,,,0,15,15,15,,,,,,,,,,,,,,,,,,,,,,,,,,,,,,,,,,,,,,,,,,,,,,,,,,,,,,,,,,,,,,,,,,,,,,,,,,,,,,,,,P017,fencog,2,Post,2021_Nov_04_1158,N-Back (New Version 2021),2021.1.4,119.9259337
