CondFileP,InstructionsP,LettersDisplayedP,CorrectnessP,CondFile,Instructions,LettersDisplayed,Correctness,practicetrials.thisRepN,practicetrials.thisTrialN,practicetrials.thisN,practicetrials.thisIndex,InnerLoopPractice.thisRepN,InnerLoopPractice.thisTrialN,InnerLoopPractice.thisN,InnerLoopPractice.thisIndex,trials.thisRepN,trials.thisTrialN,trials.thisN,trials.thisIndex,InnerLoop.thisRepN,InnerLoop.thisTrialN,InnerLoop.thisN,InnerLoop.thisIndex,TaskVersionText.started,TaskVersionText.stopped,InstrKey1.keys,InstrKey1.rt,InstrKey1.started,InstrKey1.stopped,text.started,text.stopped,key_resp_4.keys,key_resp_4.rt,key_resp_4.started,key_resp_4.stopped,text_2.started,text_2.stopped,key_resp_3.keys,key_resp_3.rt,key_resp_3.started,key_resp_3.stopped,text_3.started,text_3.stopped,key_resp_2.keys,key_resp_2.rt,key_resp_2.started,key_resp_2.stopped,PractIn1.started,PractIn1.stopped,PractIn2.started,PractIn2.stopped,PractInstructionPass.keys,PractInstructionPass.rt,PractInstructionPass.started,PractInstructionPass.stopped,PractBlock1.started,PractBlock1.stopped,ISIjitterPractice,ISI_Pract_Fixation.started,ISI_Pract_Fixation.stopped,N_backP.started,N_backP.stopped,KeyPractice.keys,KeyPractice.corr,KeyPractice.started,KeyPractice.stopped,text_4.started,text_4.stopped,KeyPractice.rt,TransitionText.started,TransitionText.stopped,key_resp_6.keys,key_resp_6.rt,key_resp_6.started,key_resp_6.stopped,text_5.started,text_5.stopped,key_resp_5.keys,key_resp_5.rt,key_resp_5.started,key_resp_5.stopped,MainInt1.started,MainInt1.stopped,MainInt2.started,MainInt2.stopped,InstructionPass.keys,InstructionPass.rt,InstructionPass.started,InstructionPass.stopped,Blocks1.started,Blocks1.stopped,ISIjitter,N_backD.started,N_backD.stopped,key_resp.keys,key_resp.corr,key_resp.started,key_resp.stopped,key_resp.rt,participant,Study Name,Task Version (required to run),PRE/POST,date,expName,psychopyVersion,frameRate,
,,,,,,,,,,,,,,,,,,,,,,,,37.7721470000688,None,space,89.52346689999104,38.26131460000761,None,,,,,,,,,,,,,,,,,,,,,,,,,,,,,,,,,,,,,,,,,,,,,,,,,,,,,,,,,,,,,,,,,,,,,,,P017,fencog,1,Pre,2021_Oct_28_1124,N-Back (New Version 2021),2021.1.4,120.01041703940268,
,,,,,,,,,,,,,,,,,,,,,,,,,,,,,,127.81520210008603,None,space,8.485904200002551,128.30971050006337,None,,,,,,,,,,,,,,,,,,,,,,,,,,,,,,,,,,,,,,,,,,,,,,,,,,,,,,,,,,,,,,,,,P017,fencog,1,Pre,2021_Oct_28_1124,N-Back (New Version 2021),2021.1.4,120.01041703940268,
,,,,,,,,,,,,,,,,,,,,,,,,,,,,,,,,,,,,136.83168040006422,None,space,23.10475109994877,137.32425170007627,None,,,,,,,,,,,,,,,,,,,,,,,,,,,,,,,,,,,,,,,,,,,,,,,,,,,,,,,,,,,P017,fencog,1,Pre,2021_Oct_28_1124,N-Back (New Version 2021),2021.1.4,120.01041703940268,
,,,,,,,,,,,,,,,,,,,,,,,,,,,,,,,,,,,,,,,,,,160.46006409998517,None,space,10.789412699989043,160.9502004000824,None,,,,,,,,,,,,,,,,,,,,,,,,,,,,,,,,,,,,,,,,,,,,,,,,,,,,,P017,fencog,1,Pre,2021_Oct_28_1124,N-Back (New Version 2021),2021.1.4,120.01041703940268,
Conditions/Version_1Pr/zeroback(1)_v1.xlsx,Rule: Press 'space' when you see the letter 'x' or 'X'.,Z,None,,,,,0,0,0,0,0,0,0,0,,,,,,,,,,,,,,,,,,,,,,,,,,,,,,,,,173.14325560000725,None,176.130499000079,None,space,0.5850879999343306,176.130499000079,None,173.14325560000725,None,1.99,176.76331210008357,None,178.75507640000433,None,None,1,178.75507640000433,None,180.76184430008288,None,,,,,,,,,,,,,,,,,,,,,,,,,,,,,,,,P017,fencog,1,Pre,2021_Oct_28_1124,N-Back (New Version 2021),2021.1.4,120.01041703940268,
Conditions/Version_1Pr/zeroback(1)_v1.xlsx,Rule: Press 'space' when you see the letter 'x' or 'X'.,r,None,,,,,0,0,0,0,0,1,1,1,,,,,,,,,,,,,,,,,,,,,,,,,,,,,,,,,,,,,,,,,,,1.04,182.25997750007082,None,183.30282760004047,None,None,1,183.30282760004047,None,185.30923210002948,None,,,,,,,,,,,,,,,,,,,,,,,,,,,,,,,,P017,fencog,1,Pre,2021_Oct_28_1124,N-Back (New Version 2021),2021.1.4,120.01041703940268,
Conditions/Version_1Pr/zeroback(1)_v1.xlsx,Rule: Press 'space' when you see the letter 'x' or 'X'.,X,space,,,,,0,0,0,0,0,2,2,2,,,,,,,,,,,,,,,,,,,,,,,,,,,,,,,,,,,,,,,,,,,1.815,186.80999990005512,None,188.62449890002608,None,space,1,188.62449890002608,None,189.00071470008697,None,0.3641552000772208,,,,,,,,,,,,,,,,,,,,,,,,,,,,,,,P017,fencog,1,Pre,2021_Oct_28_1124,N-Back (New Version 2021),2021.1.4,120.01041703940268,
Conditions/Version_1Pr/zeroback(1)_v1.xlsx,Rule: Press 'space' when you see the letter 'x' or 'X'.,p,None,,,,,0,0,0,0,0,3,3,3,,,,,,,,,,,,,,,,,,,,,,,,,,,,,,,,,,,,,,,,,,,1.465,190.50747630000114,None,191.97627860005014,None,None,1,191.97627860005014,None,193.97794070001692,None,,,,,,,,,,,,,,,,,,,,,,,,,,,,,,,,P017,fencog,1,Pre,2021_Oct_28_1124,N-Back (New Version 2021),2021.1.4,120.01041703940268,
Conditions/Version_1Pr/zeroback(1)_v1.xlsx,Rule: Press 'space' when you see the letter 'x' or 'X'.,w,None,,,,,0,0,0,0,0,4,4,4,,,,,,,,,,,,,,,,,,,,,,,,,,,,,,,,,,,,,,,,,,,1.915,195.4810385000892,None,197.4006452000467,None,None,1,197.4006452000467,None,199.40449240000453,None,,,,,,,,,,,,,,,,,,,,,,,,,,,,,,,,P017,fencog,1,Pre,2021_Oct_28_1124,N-Back (New Version 2021),2021.1.4,120.01041703940268,
Conditions/Version_1Pr/zeroback(1)_v1.xlsx,Rule: Press 'space' when you see the letter 'x' or 'X'.,e,None,,,,,0,0,0,0,0,5,5,5,,,,,,,,,,,,,,,,,,,,,,,,,,,,,,,,,,,,,,,,,,,1.665,200.90444439998828,None,202.58076680009253,None,None,1,202.58076680009253,None,204.57845740008634,None,,,,,,,,,,,,,,,,,,,,,,,,,,,,,,,,P017,fencog,1,Pre,2021_Oct_28_1124,N-Back (New Version 2021),2021.1.4,120.01041703940268,
Conditions/Version_1Pr/zeroback(1)_v1.xlsx,Rule: Press 'space' when you see the letter 'x' or 'X'.,X,space,,,,,0,0,0,0,0,6,6,6,,,,,,,,,,,,,,,,,,,,,,,,,,,,,,,,,,,,,,,,,,,1.065,206.07788920006715,None,207.14412539999466,None,space,1,207.14412539999466,None,207.5018768000882,None,0.3394526999909431,,,,,,,,,,,,,,,,,,,,,,,,,,,,,,,P017,fencog,1,Pre,2021_Oct_28_1124,N-Back (New Version 2021),2021.1.4,120.01041703940268,
Conditions/Version_1Pr/zeroback(1)_v1.xlsx,Rule: Press 'space' when you see the letter 'x' or 'X'.,x,space,,,,,0,0,0,0,0,7,7,7,,,,,,,,,,,,,,,,,,,,,,,,,,,,,,,,,,,,,,,,,,,1.415,209.0030315000331,None,210.4213827000931,None,space,1,210.4213827000931,None,210.84414890001062,None,0.4142001000000164,,,,,,,,,,,,,,,,,,,,,,,,,,,,,,,P017,fencog,1,Pre,2021_Oct_28_1124,N-Back (New Version 2021),2021.1.4,120.01041703940268,
Conditions/Version_1Pr/zeroback(1)_v1.xlsx,Rule: Press 'space' when you see the letter 'x' or 'X'.,p,None,,,,,0,0,0,0,0,8,8,8,,,,,,,,,,,,,,,,,,,,,,,,,,,,,,,,,,,,,,,,,,,1.365,212.35107940004673,None,213.7178649000125,None,None,1,213.7178649000125,None,215.7251742000226,None,,,,,,,,,,,,,,,,,,,,,,,,,,,,,,,,P017,fencog,1,Pre,2021_Oct_28_1124,N-Back (New Version 2021),2021.1.4,120.01041703940268,
Conditions/Version_1Pr/zeroback(1)_v1.xlsx,Rule: Press 'space' when you see the letter 'x' or 'X'.,r,None,,,,,0,0,0,0,0,9,9,9,,,,,,,,,,,,,,,,,,,,,,,,,,,,,,,,,,,,,,,,,,,1.865,217.22460130008403,None,219.0909118000418,None,None,1,219.0909118000418,None,221.0899109999882,None,,,,,,,,,,,,,,,,,,,,,,,,,,,,,,,,P017,fencog,1,Pre,2021_Oct_28_1124,N-Back (New Version 2021),2021.1.4,120.01041703940268,
Conditions/Version_1Pr/zeroback(1)_v1.xlsx,Rule: Press 'space' when you see the letter 'x' or 'X'.,,,,,,,0,0,0,0,,,,,,,,,,,,,,,,,,,,,,,,,,,,,,,,,,,,,,,,,,,,,,,,,,,,,,,,,,,,,,,,,,,,,,,,,,,,,,,,,,,,,,,,,P017,fencog,1,Pre,2021_Oct_28_1124,N-Back (New Version 2021),2021.1.4,120.01041703940268,
Conditions/Version_1Pr/oneback(1)_v1.xlsx,New rule: Press 'space' when you see 1-back (i.e. the same letter as the one that appeared 1 letter ago.),a,None,,,,,0,1,1,1,0,0,0,0,,,,,,,,,,,,,,,,,,,,,,,,,,,,,,,,,222.61441899999045,None,225.59941910009366,None,space,8.484416499966756,225.59941910009366,None,222.61441899999045,None,1.29,234.1108839000808,None,235.4045114000328,None,None,1,235.4045114000328,None,237.41061260004062,None,,,,,,,,,,,,,,,,,,,,,,,,,,,,,,,,P017,fencog,1,Pre,2021_Oct_28_1124,N-Back (New Version 2021),2021.1.4,120.01041703940268,
Conditions/Version_1Pr/oneback(1)_v1.xlsx,New rule: Press 'space' when you see 1-back (i.e. the same letter as the one that appeared 1 letter ago.),x,None,,,,,0,1,1,1,0,1,1,1,,,,,,,,,,,,,,,,,,,,,,,,,,,,,,,,,,,,,,,,,,,1.84,238.90984780003782,None,240.75174420000985,None,None,1,240.75174420000985,None,242.7585293999873,None,,,,,,,,,,,,,,,,,,,,,,,,,,,,,,,,P017,fencog,1,Pre,2021_Oct_28_1124,N-Back (New Version 2021),2021.1.4,120.01041703940268,
Conditions/Version_1Pr/oneback(1)_v1.xlsx,New rule: Press 'space' when you see 1-back (i.e. the same letter as the one that appeared 1 letter ago.),g,None,,,,,0,1,1,1,0,2,2,2,,,,,,,,,,,,,,,,,,,,,,,,,,,,,,,,,,,,,,,,,,,1.04,244.25825710000936,None,245.29981640004553,None,None,1,245.29981640004553,None,247.30700610007625,None,,,,,,,,,,,,,,,,,,,,,,,,,,,,,,,,P017,fencog,1,Pre,2021_Oct_28_1124,N-Back (New Version 2021),2021.1.4,120.01041703940268,
Conditions/Version_1Pr/oneback(1)_v1.xlsx,New rule: Press 'space' when you see 1-back (i.e. the same letter as the one that appeared 1 letter ago.),G,space,,,,,0,1,1,1,0,3,3,3,,,,,,,,,,,,,,,,,,,,,,,,,,,,,,,,,,,,,,,,,,,1.94,248.80684540001675,None,250.75844390003476,None,space,1,250.75844390003476,None,251.09016240003984,None,0.3169764999765903,,,,,,,,,,,,,,,,,,,,,,,,,,,,,,,P017,fencog,1,Pre,2021_Oct_28_1124,N-Back (New Version 2021),2021.1.4,120.01041703940268,
Conditions/Version_1Pr/oneback(1)_v1.xlsx,New rule: Press 'space' when you see 1-back (i.e. the same letter as the one that appeared 1 letter ago.),u,None,,,,,0,1,1,1,0,4,4,4,,,,,,,,,,,,,,,,,,,,,,,,,,,,,,,,,,,,,,,,,,,1.49,252.58910620003007,None,254.08861800003797,None,None,1,254.08861800003797,None,256.09026670001913,None,,,,,,,,,,,,,,,,,,,,,,,,,,,,,,,,P017,fencog,1,Pre,2021_Oct_28_1124,N-Back (New Version 2021),2021.1.4,120.01041703940268,
Conditions/Version_1Pr/oneback(1)_v1.xlsx,New rule: Press 'space' when you see 1-back (i.e. the same letter as the one that appeared 1 letter ago.),y,None,,,,,0,1,1,1,0,5,5,5,,,,,,,,,,,,,,,,,,,,,,,,,,,,,,,,,,,,,,,,,,,1.515,257.5874992000172,None,259.105352899991,None,None,1,259.105352899991,None,261.1116942000808,None,,,,,,,,,,,,,,,,,,,,,,,,,,,,,,,,P017,fencog,1,Pre,2021_Oct_28_1124,N-Back (New Version 2021),2021.1.4,120.01041703940268,
Conditions/Version_1Pr/oneback(1)_v1.xlsx,New rule: Press 'space' when you see 1-back (i.e. the same letter as the one that appeared 1 letter ago.),y,space,,,,,0,1,1,1,0,6,6,6,,,,,,,,,,,,,,,,,,,,,,,,,,,,,,,,,,,,,,,,,,,1.64,262.61092280002777,None,264.25307510001585,None,space,1,264.25307510001585,None,264.6610885000555,None,0.39042810001410544,,,,,,,,,,,,,,,,,,,,,,,,,,,,,,,P017,fencog,1,Pre,2021_Oct_28_1124,N-Back (New Version 2021),2021.1.4,120.01041703940268,
Conditions/Version_1Pr/oneback(1)_v1.xlsx,New rule: Press 'space' when you see 1-back (i.e. the same letter as the one that appeared 1 letter ago.),k,None,,,,,0,1,1,1,0,7,7,7,,,,,,,,,,,,,,,,,,,,,,,,,,,,,,,,,,,,,,,,,,,1.065,266.1599873000523,None,267.2358697000891,None,None,1,267.2358697000891,None,269.2342762000626,None,,,,,,,,,,,,,,,,,,,,,,,,,,,,,,,,P017,fencog,1,Pre,2021_Oct_28_1124,N-Back (New Version 2021),2021.1.4,120.01041703940268,
Conditions/Version_1Pr/oneback(1)_v1.xlsx,New rule: Press 'space' when you see 1-back (i.e. the same letter as the one that appeared 1 letter ago.),c,None,,,,,0,1,1,1,0,8,8,8,,,,,,,,,,,,,,,,,,,,,,,,,,,,,,,,,,,,,,,,,,,1.79,270.7337775999913,None,272.5254537999863,None,None,1,272.5254537999863,None,274.5335612000199,None,,,,,,,,,,,,,,,,,,,,,,,,,,,,,,,,P017,fencog,1,Pre,2021_Oct_28_1124,N-Back (New Version 2021),2021.1.4,120.01041703940268,
Conditions/Version_1Pr/oneback(1)_v1.xlsx,New rule: Press 'space' when you see 1-back (i.e. the same letter as the one that appeared 1 letter ago.),r,None,,,,,0,1,1,1,0,9,9,9,,,,,,,,,,,,,,,,,,,,,,,,,,,,,,,,,,,,,,,,,,,1.765,276.03218620002735,None,277.7981549000833,None,None,1,277.7981549000833,None,279.797344300081,None,,,,,,,,,,,,,,,,,,,,,,,,,,,,,,,,P017,fencog,1,Pre,2021_Oct_28_1124,N-Back (New Version 2021),2021.1.4,120.01041703940268,
Conditions/Version_1Pr/oneback(1)_v1.xlsx,New rule: Press 'space' when you see 1-back (i.e. the same letter as the one that appeared 1 letter ago.),,,,,,,0,1,1,1,,,,,,,,,,,,,,,,,,,,,,,,,,,,,,,,,,,,,,,,,,,,,,,,,,,,,,,,,,,,,,,,,,,,,,,,,,,,,,,,,,,,,,,,,P017,fencog,1,Pre,2021_Oct_28_1124,N-Back (New Version 2021),2021.1.4,120.01041703940268,
Conditions/Version_1Pr/twoback(1)_v1.xlsx,New rule: Press 'space' when you see 2-back (i.e. the same letter as the one that appeared 2 letters ago.),E,None,,,,,0,2,2,2,0,0,0,0,,,,,,,,,,,,,,,,,,,,,,,,,,,,,,,,,281.3189322000835,None,284.3068290000083,None,space,29.04870259994641,284.3068290000083,None,281.3189322000835,None,1.69,313.37745240004733,None,315.0755818000762,None,None,1,315.0755818000762,None,317.0779043000657,None,,,,,,,,,,,,,,,,,,,,,,,,,,,,,,,,P017,fencog,1,Pre,2021_Oct_28_1124,N-Back (New Version 2021),2021.1.4,120.01041703940268,
Conditions/Version_1Pr/twoback(1)_v1.xlsx,New rule: Press 'space' when you see 2-back (i.e. the same letter as the one that appeared 2 letters ago.),p,None,,,,,0,2,2,2,0,1,1,1,,,,,,,,,,,,,,,,,,,,,,,,,,,,,,,,,,,,,,,,,,,1.54,318.5774999000132,None,320.1188162000617,None,None,1,320.1188162000617,None,322.11811879999004,None,,,,,,,,,,,,,,,,,,,,,,,,,,,,,,,,P017,fencog,1,Pre,2021_Oct_28_1124,N-Back (New Version 2021),2021.1.4,120.01041703940268,
Conditions/Version_1Pr/twoback(1)_v1.xlsx,New rule: Press 'space' when you see 2-back (i.e. the same letter as the one that appeared 2 letters ago.),e,space,,,,,0,2,2,2,0,2,2,2,,,,,,,,,,,,,,,,,,,,,,,,,,,,,,,,,,,,,,,,,,,1.115,323.617908300017,None,324.73411980003584,None,space,1,324.73411980003584,None,325.05332860001363,None,0.3099343000212684,,,,,,,,,,,,,,,,,,,,,,,,,,,,,,,P017,fencog,1,Pre,2021_Oct_28_1124,N-Back (New Version 2021),2021.1.4,120.01041703940268,
Conditions/Version_1Pr/twoback(1)_v1.xlsx,New rule: Press 'space' when you see 2-back (i.e. the same letter as the one that appeared 2 letters ago.),s,None,,,,,0,2,2,2,0,3,3,3,,,,,,,,,,,,,,,,,,,,,,,,,,,,,,,,,,,,,,,,,,,1.665,326.5586193000199,None,328.22645780001767,None,None,1,328.22645780001767,None,330.2327687999932,None,,,,,,,,,,,,,,,,,,,,,,,,,,,,,,,,P017,fencog,1,Pre,2021_Oct_28_1124,N-Back (New Version 2021),2021.1.4,120.01041703940268,
Conditions/Version_1Pr/twoback(1)_v1.xlsx,New rule: Press 'space' when you see 2-back (i.e. the same letter as the one that appeared 2 letters ago.),S,None,,,,,0,2,2,2,0,4,4,4,,,,,,,,,,,,,,,,,,,,,,,,,,,,,,,,,,,,,,,,,,,1.19,331.7321083000861,None,332.9368559999857,None,None,1,332.9368559999857,None,334.92934020003304,None,,,,,,,,,,,,,,,,,,,,,,,,,,,,,,,,P017,fencog,1,Pre,2021_Oct_28_1124,N-Back (New Version 2021),2021.1.4,120.01041703940268,
Conditions/Version_1Pr/twoback(1)_v1.xlsx,New rule: Press 'space' when you see 2-back (i.e. the same letter as the one that appeared 2 letters ago.),s,space,,,,,0,2,2,2,0,5,5,5,,,,,,,,,,,,,,,,,,,,,,,,,,,,,,,,,,,,,,,,,,,1.815,336.430910199997,None,338.2467878999887,None,space,1,338.2467878999887,None,338.7734487000853,None,0.5165238999761641,,,,,,,,,,,,,,,,,,,,,,,,,,,,,,,P017,fencog,1,Pre,2021_Oct_28_1124,N-Back (New Version 2021),2021.1.4,120.01041703940268,
Conditions/Version_1Pr/twoback(1)_v1.xlsx,New rule: Press 'space' when you see 2-back (i.e. the same letter as the one that appeared 2 letters ago.),P,None,,,,,0,2,2,2,0,6,6,6,,,,,,,,,,,,,,,,,,,,,,,,,,,,,,,,,,,,,,,,,,,1.09,340.282618700061,None,341.38240460003726,None,None,1,341.38240460003726,None,343.3872746999841,None,,,,,,,,,,,,,,,,,,,,,,,,,,,,,,,,P017,fencog,1,Pre,2021_Oct_28_1124,N-Back (New Version 2021),2021.1.4,120.01041703940268,
Conditions/Version_1Pr/twoback(1)_v1.xlsx,New rule: Press 'space' when you see 2-back (i.e. the same letter as the one that appeared 2 letters ago.),C,None,,,,,0,2,2,2,0,7,7,7,,,,,,,,,,,,,,,,,,,,,,,,,,,,,,,,,,,,,,,,,,,1.965,344.8866292000748,None,346.8532497000415,None,None,1,346.8532497000415,None,348.86066980008036,None,,,,,,,,,,,,,,,,,,,,,,,,,,,,,,,,P017,fencog,1,Pre,2021_Oct_28_1124,N-Back (New Version 2021),2021.1.4,120.01041703940268,
Conditions/Version_1Pr/twoback(1)_v1.xlsx,New rule: Press 'space' when you see 2-back (i.e. the same letter as the one that appeared 2 letters ago.),x,None,,,,,0,2,2,2,0,8,8,8,,,,,,,,,,,,,,,,,,,,,,,,,,,,,,,,,,,,,,,,,,,1.99,350.36016530008055,None,352.35185139998794,None,None,1,352.35185139998794,None,354.35907740006223,None,,,,,,,,,,,,,,,,,,,,,,,,,,,,,,,,P017,fencog,1,Pre,2021_Oct_28_1124,N-Back (New Version 2021),2021.1.4,120.01041703940268,
Conditions/Version_1Pr/twoback(1)_v1.xlsx,New rule: Press 'space' when you see 2-back (i.e. the same letter as the one that appeared 2 letters ago.),Z,None,,,,,0,2,2,2,0,9,9,9,,,,,,,,,,,,,,,,,,,,,,,,,,,,,,,,,,,,,,,,,,,1.565,355.8584248000989,None,357.4279378000647,None,None,1,357.4279378000647,None,359.4322903000284,None,,,,,,,,,,,,,,,,,,,,,,,,,,,,,,,,P017,fencog,1,Pre,2021_Oct_28_1124,N-Back (New Version 2021),2021.1.4,120.01041703940268,
Conditions/Version_1Pr/twoback(1)_v1.xlsx,New rule: Press 'space' when you see 2-back (i.e. the same letter as the one that appeared 2 letters ago.),,,,,,,0,2,2,2,,,,,,,,,,,,,,,,,,,,,,,,,,,,,,,,,,,,,,,,,,,,,,,,,,,,,,,,,,,,,,,,,,,,,,,,,,,,,,,,,,,,,,,,,P017,fencog,1,Pre,2021_Oct_28_1124,N-Back (New Version 2021),2021.1.4,120.01041703940268,
Conditions/Version_1Pr/threeback(1)_v1.xlsx,New rule: Press 'space' when you see 3-back (i.e. the same letter as the one that appeared 3 letters ago.),r,None,,,,,0,3,3,3,0,0,0,0,,,,,,,,,,,,,,,,,,,,,,,,,,,,,,,,,360.9670352000976,None,363.95236790005583,None,space,1.2186468000290915,363.95236790005583,None,360.9670352000976,None,2.015,365.1942868999904,None,367.2133134000469,None,None,1,367.2133134000469,None,369.21288400003687,None,,,,,,,,,,,,,,,,,,,,,,,,,,,,,,,,P017,fencog,1,Pre,2021_Oct_28_1124,N-Back (New Version 2021),2021.1.4,120.01041703940268,
Conditions/Version_1Pr/threeback(1)_v1.xlsx,New rule: Press 'space' when you see 3-back (i.e. the same letter as the one that appeared 3 letters ago.),a,None,,,,,0,3,3,3,0,1,1,1,,,,,,,,,,,,,,,,,,,,,,,,,,,,,,,,,,,,,,,,,,,1.965,370.7123357000528,None,372.6787214000942,None,None,1,372.6787214000942,None,374.67776820005383,None,,,,,,,,,,,,,,,,,,,,,,,,,,,,,,,,P017,fencog,1,Pre,2021_Oct_28_1124,N-Back (New Version 2021),2021.1.4,120.01041703940268,
Conditions/Version_1Pr/threeback(1)_v1.xlsx,New rule: Press 'space' when you see 3-back (i.e. the same letter as the one that appeared 3 letters ago.),t,None,,,,,0,3,3,3,0,2,2,2,,,,,,,,,,,,,,,,,,,,,,,,,,,,,,,,,,,,,,,,,,,1.04,376.1783183000516,None,377.2191293000942,None,None,1,377.2191293000942,None,379.2253134000348,None,,,,,,,,,,,,,,,,,,,,,,,,,,,,,,,,P017,fencog,1,Pre,2021_Oct_28_1124,N-Back (New Version 2021),2021.1.4,120.01041703940268,
Conditions/Version_1Pr/threeback(1)_v1.xlsx,New rule: Press 'space' when you see 3-back (i.e. the same letter as the one that appeared 3 letters ago.),r,space,,,,,0,3,3,3,0,3,3,3,,,,,,,,,,,,,,,,,,,,,,,,,,,,,,,,,,,,,,,,,,,1.115,380.7260790000437,None,381.84205289999954,None,space,1,381.84205289999954,None,382.19288220000453,None,0.3372472000773996,,,,,,,,,,,,,,,,,,,,,,,,,,,,,,,P017,fencog,1,Pre,2021_Oct_28_1124,N-Back (New Version 2021),2021.1.4,120.01041703940268,
Conditions/Version_1Pr/threeback(1)_v1.xlsx,New rule: Press 'space' when you see 3-back (i.e. the same letter as the one that appeared 3 letters ago.),a,None,,,,,0,3,3,3,0,4,4,4,,,,,,,,,,,,,,,,,,,,,,,,,,,,,,,,,,,,,,,,,,,1.19,383.7026728000492,None,384.8997554000234,None,space,0,384.8997554000234,None,385.52554270008113,None,0.599496400100179,,,,,,,,,,,,,,,,,,,,,,,,,,,,,,,P017,fencog,1,Pre,2021_Oct_28_1124,N-Back (New Version 2021),2021.1.4,120.01041703940268,
Conditions/Version_1Pr/threeback(1)_v1.xlsx,New rule: Press 'space' when you see 3-back (i.e. the same letter as the one that appeared 3 letters ago.),Y,None,,,,,0,3,3,3,0,5,5,5,,,,,,,,,,,,,,,,,,,,,,,,,,,,,,,,,,,,,,,,,,,1.165,387.032466600067,None,388.2015734000597,None,None,1,388.2015734000597,None,390.2066181000555,None,,,,,,,,,,,,,,,,,,,,,,,,,,,,,,,,P017,fencog,1,Pre,2021_Oct_28_1124,N-Back (New Version 2021),2021.1.4,120.01041703940268,
Conditions/Version_1Pr/threeback(1)_v1.xlsx,New rule: Press 'space' when you see 3-back (i.e. the same letter as the one that appeared 3 letters ago.),q,None,,,,,0,3,3,3,0,6,6,6,,,,,,,,,,,,,,,,,,,,,,,,,,,,,,,,,,,,,,,,,,,1.815,391.7061302000657,None,393.52602340001613,None,None,1,393.52602340001613,None,395.53002970002126,None,,,,,,,,,,,,,,,,,,,,,,,,,,,,,,,,P017,fencog,1,Pre,2021_Oct_28_1124,N-Back (New Version 2021),2021.1.4,120.01041703940268,
Conditions/Version_1Pr/threeback(1)_v1.xlsx,New rule: Press 'space' when you see 3-back (i.e. the same letter as the one that appeared 3 letters ago.),A,space,,,,,0,3,3,3,0,7,7,7,,,,,,,,,,,,,,,,,,,,,,,,,,,,,,,,,,,,,,,,,,,1.49,397.0294721000828,None,398.52152539999224,None,space,1,398.52152539999224,None,399.0634399000555,None,0.5296253999695182,,,,,,,,,,,,,,,,,,,,,,,,,,,,,,,P017,fencog,1,Pre,2021_Oct_28_1124,N-Back (New Version 2021),2021.1.4,120.01041703940268,
Conditions/Version_1Pr/threeback(1)_v1.xlsx,New rule: Press 'space' when you see 3-back (i.e. the same letter as the one that appeared 3 letters ago.),y,None,,,,,0,3,3,3,0,8,8,8,,,,,,,,,,,,,,,,,,,,,,,,,,,,,,,,,,,,,,,,,,,1.14,400.57000469998457,None,401.7191115000751,None,None,1,401.7191115000751,None,403.71917010005563,None,,,,,,,,,,,,,,,,,,,,,,,,,,,,,,,,P017,fencog,1,Pre,2021_Oct_28_1124,N-Back (New Version 2021),2021.1.4,120.01041703940268,
Conditions/Version_1Pr/threeback(1)_v1.xlsx,New rule: Press 'space' when you see 3-back (i.e. the same letter as the one that appeared 3 letters ago.),r,None,,,,,0,3,3,3,0,9,9,9,,,,,,,,,,,,,,,,,,,,,,,,,,,,,,,,,,,,,,,,,,,1.665,405.21886030002497,None,406.885028299992,None,space,0,406.885028299992,None,407.27585780003574,None,0.36697169998660684,,,,,,,,,,,,,,,,,,,,,,,,,,,,,,,P017,fencog,1,Pre,2021_Oct_28_1124,N-Back (New Version 2021),2021.1.4,120.01041703940268,
Conditions/Version_1Pr/threeback(1)_v1.xlsx,New rule: Press 'space' when you see 3-back (i.e. the same letter as the one that appeared 3 letters ago.),,,,,,,0,3,3,3,,,,,,,,,,,,,,,,,,,,,,,,,,,,,,,,,,,,,,,,,,,,,,,,,,,,,,,,,,,,,,,,,,,,,,,,,,,,,,,,,,,,,,,,,P017,fencog,1,Pre,2021_Oct_28_1124,N-Back (New Version 2021),2021.1.4,120.01041703940268,
,,,,,,,,,,,,,,,,,,,,,,,,,,,,,,,,,,,,,,,,,,,,,,,,,,,,,,,,,,,,,,,,,,,,,,408.78392560000066,None,space,2.05476109997835,409.27623389998917,None,,,,,,,,,,,,,,,,,,,,,,,,,P017,fencog,1,Pre,2021_Oct_28_1124,N-Back (New Version 2021),2021.1.4,120.01041703940268,
,,,,,,,,,,,,,,,,,,,,,,,,,,,,,,,,,,,,,,,,,,,,,,,,,,,,,,,,,,,,,,,,,,,,,,,,,,,,411.35559590009507,None,space,30.71254780003801,411.8504815000342,None,,,,,,,,,,,,,,,,,,,P017,fencog,1,Pre,2021_Oct_28_1124,N-Back (New Version 2021),2021.1.4,120.01041703940268,
,,,,Conditions/Version_1/zeroback(1)_v1.xlsx,Rule: Press 'space' when you see the letter 'x' or 'X'.,b,None,,,,,,,,,0,0,0,0,0,0,0,0,,,,,,,,,,,,,,,,,,,,,,,,,,,,,,,,,,,,,,,,,,,,,,,,,,,,,,,,,,,442.6721687000245,None,445.6587604000233,None,space,1.1522868000902236,445.6587604000233,None,442.6721687000245,None,1.5866,448.4397721000714,None,None,1,448.4397721000714,None,,P017,fencog,1,Pre,2021_Oct_28_1124,N-Back (New Version 2021),2021.1.4,120.01041703940268,
,,,,Conditions/Version_1/zeroback(1)_v1.xlsx,Rule: Press 'space' when you see the letter 'x' or 'X'.,T,None,,,,,,,,,0,0,0,0,0,1,1,1,,,,,,,,,,,,,,,,,,,,,,,,,,,,,,,,,,,,,,,,,,,,,,,,,,,,,,,,,,,,,,,,,,,,,1.258,451.70813899999484,None,None,1,451.70813899999484,None,,P017,fencog,1,Pre,2021_Oct_28_1124,N-Back (New Version 2021),2021.1.4,120.01041703940268,
,,,,Conditions/Version_1/zeroback(1)_v1.xlsx,Rule: Press 'space' when you see the letter 'x' or 'X'.,L,None,,,,,,,,,0,0,0,0,0,2,2,2,,,,,,,,,,,,,,,,,,,,,,,,,,,,,,,,,,,,,,,,,,,,,,,,,,,,,,,,,,,,,,,,,,,,,1.2084,454.92659889999777,None,None,1,454.92659889999777,None,,P017,fencog,1,Pre,2021_Oct_28_1124,N-Back (New Version 2021),2021.1.4,120.01041703940268,
,,,,Conditions/Version_1/zeroback(1)_v1.xlsx,Rule: Press 'space' when you see the letter 'x' or 'X'.,x,space,,,,,,,,,0,0,0,0,0,3,3,3,,,,,,,,,,,,,,,,,,,,,,,,,,,,,,,,,,,,,,,,,,,,,,,,,,,,,,,,,,,,,,,,,,,,,1.0348,457.96967070002574,None,space,1,457.96967070002574,None,0.34550390008371323,P017,fencog,1,Pre,2021_Oct_28_1124,N-Back (New Version 2021),2021.1.4,120.01041703940268,
,,,,Conditions/Version_1/zeroback(1)_v1.xlsx,Rule: Press 'space' when you see the letter 'x' or 'X'.,o,None,,,,,,,,,0,0,0,0,0,4,4,4,,,,,,,,,,,,,,,,,,,,,,,,,,,,,,,,,,,,,,,,,,,,,,,,,,,,,,,,,,,,,,,,,,,,,1.3944,461.3715458000079,None,None,1,461.3715458000079,None,,P017,fencog,1,Pre,2021_Oct_28_1124,N-Back (New Version 2021),2021.1.4,120.01041703940268,
,,,,Conditions/Version_1/zeroback(1)_v1.xlsx,Rule: Press 'space' when you see the letter 'x' or 'X'.,P,None,,,,,,,,,0,0,0,0,0,5,5,5,,,,,,,,,,,,,,,,,,,,,,,,,,,,,,,,,,,,,,,,,,,,,,,,,,,,,,,,,,,,,,,,,,,,,1.6486,465.0294369000476,None,None,1,465.0294369000476,None,,P017,fencog,1,Pre,2021_Oct_28_1124,N-Back (New Version 2021),2021.1.4,120.01041703940268,
,,,,Conditions/Version_1/zeroback(1)_v1.xlsx,Rule: Press 'space' when you see the letter 'x' or 'X'.,X,space,,,,,,,,,0,0,0,0,0,6,6,6,,,,,,,,,,,,,,,,,,,,,,,,,,,,,,,,,,,,,,,,,,,,,,,,,,,,,,,,,,,,,,,,,,,,,1.8036,468.84279830008745,None,space,1,468.84279830008745,None,0.4079111999599263,P017,fencog,1,Pre,2021_Oct_28_1124,N-Back (New Version 2021),2021.1.4,120.01041703940268,
,,,,Conditions/Version_1/zeroback(1)_v1.xlsx,Rule: Press 'space' when you see the letter 'x' or 'X'.,n,None,,,,,,,,,0,0,0,0,0,7,7,7,,,,,,,,,,,,,,,,,,,,,,,,,,,,,,,,,,,,,,,,,,,,,,,,,,,,,,,,,,,,,,,,,,,,,1.506,472.36212230008096,None,None,1,472.36212230008096,None,,P017,fencog,1,Pre,2021_Oct_28_1124,N-Back (New Version 2021),2021.1.4,120.01041703940268,
,,,,Conditions/Version_1/zeroback(1)_v1.xlsx,Rule: Press 'space' when you see the letter 'x' or 'X'.,M,None,,,,,,,,,0,0,0,0,0,8,8,8,,,,,,,,,,,,,,,,,,,,,,,,,,,,,,,,,,,,,,,,,,,,,,,,,,,,,,,,,,,,,,,,,,,,,1.5246,475.89192190009635,None,None,1,475.89192190009635,None,,P017,fencog,1,Pre,2021_Oct_28_1124,N-Back (New Version 2021),2021.1.4,120.01041703940268,
,,,,Conditions/Version_1/zeroback(1)_v1.xlsx,Rule: Press 'space' when you see the letter 'x' or 'X'.,a,None,,,,,,,,,0,0,0,0,0,9,9,9,,,,,,,,,,,,,,,,,,,,,,,,,,,,,,,,,,,,,,,,,,,,,,,,,,,,,,,,,,,,,,,,,,,,,1.7974,479.7048295000568,None,None,1,479.7048295000568,None,,P017,fencog,1,Pre,2021_Oct_28_1124,N-Back (New Version 2021),2021.1.4,120.01041703940268,
,,,,Conditions/Version_1/zeroback(1)_v1.xlsx,Rule: Press 'space' when you see the letter 'x' or 'X'.,,,,,,,,,,,0,0,0,0,,,,,,,,,,,,,,,,,,,,,,,,,,,,,,,,,,,,,,,,,,,,,,,,,,,,,,,,,,,,,,,,,,,,,,,,,,,,,,,,,P017,fencog,1,Pre,2021_Oct_28_1124,N-Back (New Version 2021),2021.1.4,120.01041703940268,
,,,,Conditions/Version_1/oneback(1)_v1.xlsx,New rule: Press 'space' when you see 1-back (i.e. the same letter as the one that appeared 1 letter ago.),b,None,,,,,,,,,0,1,1,1,0,0,0,0,,,,,,,,,,,,,,,,,,,,,,,,,,,,,,,,,,,,,,,,,,,,,,,,,,,,,,,,,,,481.726656200015,None,484.71780610003043,None,space,25.668997499975376,484.71780610003043,None,481.726656200015,None,1.2456,511.66227980004624,None,None,1,511.66227980004624,None,,P017,fencog,1,Pre,2021_Oct_28_1124,N-Back (New Version 2021),2021.1.4,120.01041703940268,
,,,,Conditions/Version_1/oneback(1)_v1.xlsx,New rule: Press 'space' when you see 1-back (i.e. the same letter as the one that appeared 1 letter ago.),p,None,,,,,,,,,0,1,1,1,0,1,1,1,,,,,,,,,,,,,,,,,,,,,,,,,,,,,,,,,,,,,,,,,,,,,,,,,,,,,,,,,,,,,,,,,,,,,1.6114,515.2776974000735,None,None,1,515.2776974000735,None,,P017,fencog,1,Pre,2021_Oct_28_1124,N-Back (New Version 2021),2021.1.4,120.01041703940268,
,,,,Conditions/Version_1/oneback(1)_v1.xlsx,New rule: Press 'space' when you see 1-back (i.e. the same letter as the one that appeared 1 letter ago.),M,None,,,,,,,,,0,1,1,1,0,2,2,2,,,,,,,,,,,,,,,,,,,,,,,,,,,,,,,,,,,,,,,,,,,,,,,,,,,,,,,,,,,,,,,,,,,,,1.1774,518.4601824000711,None,None,1,518.4601824000711,None,,P017,fencog,1,Pre,2021_Oct_28_1124,N-Back (New Version 2021),2021.1.4,120.01041703940268,
,,,,Conditions/Version_1/oneback(1)_v1.xlsx,New rule: Press 'space' when you see 1-back (i.e. the same letter as the one that appeared 1 letter ago.),M,space,,,,,,,,,0,1,1,1,0,3,3,3,,,,,,,,,,,,,,,,,,,,,,,,,,,,,,,,,,,,,,,,,,,,,,,,,,,,,,,,,,,,,,,,,,,,,1.2518,521.7175604000222,None,space,1,521.7175604000222,None,0.42932600004132837,P017,fencog,1,Pre,2021_Oct_28_1124,N-Back (New Version 2021),2021.1.4,120.01041703940268,
,,,,Conditions/Version_1/oneback(1)_v1.xlsx,New rule: Press 'space' when you see 1-back (i.e. the same letter as the one that appeared 1 letter ago.),n,None,,,,,,,,,0,1,1,1,0,4,4,4,,,,,,,,,,,,,,,,,,,,,,,,,,,,,,,,,,,,,,,,,,,,,,,,,,,,,,,,,,,,,,,,,,,,,1.9958,525.7161204000004,None,None,1,525.7161204000004,None,,P017,fencog,1,Pre,2021_Oct_28_1124,N-Back (New Version 2021),2021.1.4,120.01041703940268,
,,,,Conditions/Version_1/oneback(1)_v1.xlsx,New rule: Press 'space' when you see 1-back (i.e. the same letter as the one that appeared 1 letter ago.),g,None,,,,,,,,,0,1,1,1,0,5,5,5,,,,,,,,,,,,,,,,,,,,,,,,,,,,,,,,,,,,,,,,,,,,,,,,,,,,,,,,,,,,,,,,,,,,,1.196,528.9155898999888,None,None,1,528.9155898999888,None,,P017,fencog,1,Pre,2021_Oct_28_1124,N-Back (New Version 2021),2021.1.4,120.01041703940268,
,,,,Conditions/Version_1/oneback(1)_v1.xlsx,New rule: Press 'space' when you see 1-back (i.e. the same letter as the one that appeared 1 letter ago.),P,None,,,,,,,,,0,1,1,1,0,6,6,6,,,,,,,,,,,,,,,,,,,,,,,,,,,,,,,,,,,,,,,,,,,,,,,,,,,,,,,,,,,,,,,,,,,,,1.3386,532.2641817000695,None,None,1,532.2641817000695,None,,P017,fencog,1,Pre,2021_Oct_28_1124,N-Back (New Version 2021),2021.1.4,120.01041703940268,
,,,,Conditions/Version_1/oneback(1)_v1.xlsx,New rule: Press 'space' when you see 1-back (i.e. the same letter as the one that appeared 1 letter ago.),o,None,,,,,,,,,0,1,1,1,0,7,7,7,,,,,,,,,,,,,,,,,,,,,,,,,,,,,,,,,,,,,,,,,,,,,,,,,,,,,,,,,,,,,,,,,,,,,1.351,535.6214517999906,None,None,1,535.6214517999906,None,,P017,fencog,1,Pre,2021_Oct_28_1124,N-Back (New Version 2021),2021.1.4,120.01041703940268,
,,,,Conditions/Version_1/oneback(1)_v1.xlsx,New rule: Press 'space' when you see 1-back (i.e. the same letter as the one that appeared 1 letter ago.),f,None,,,,,,,,,0,1,1,1,0,8,8,8,,,,,,,,,,,,,,,,,,,,,,,,,,,,,,,,,,,,,,,,,,,,,,,,,,,,,,,,,,,,,,,,,,,,,1.3882,539.0160580000374,None,None,1,539.0160580000374,None,,P017,fencog,1,Pre,2021_Oct_28_1124,N-Back (New Version 2021),2021.1.4,120.01041703940268,
,,,,Conditions/Version_1/oneback(1)_v1.xlsx,New rule: Press 'space' when you see 1-back (i.e. the same letter as the one that appeared 1 letter ago.),F,space,,,,,,,,,0,1,1,1,0,9,9,9,,,,,,,,,,,,,,,,,,,,,,,,,,,,,,,,,,,,,,,,,,,,,,,,,,,,,,,,,,,,,,,,,,,,,1.041,542.0622840999858,None,space,1,542.0622840999858,None,0.4205422999802977,P017,fencog,1,Pre,2021_Oct_28_1124,N-Back (New Version 2021),2021.1.4,120.01041703940268,
,,,,Conditions/Version_1/oneback(1)_v1.xlsx,New rule: Press 'space' when you see 1-back (i.e. the same letter as the one that appeared 1 letter ago.),,,,,,,,,,,0,1,1,1,,,,,,,,,,,,,,,,,,,,,,,,,,,,,,,,,,,,,,,,,,,,,,,,,,,,,,,,,,,,,,,,,,,,,,,,,,,,,,,,,P017,fencog,1,Pre,2021_Oct_28_1124,N-Back (New Version 2021),2021.1.4,120.01041703940268,
,,,,Conditions/Version_1/twoback(1)_v1.xlsx,New rule: Press 'space' when you see 2-back (i.e. the same letter as the one that appeared 2 letters ago.),b,None,,,,,,,,,0,2,2,2,0,0,0,0,,,,,,,,,,,,,,,,,,,,,,,,,,,,,,,,,,,,,,,,,,,,,,,,,,,,,,,,,,,544.088110200013,None,547.076484600082,None,space,0.958509000018239,547.076484600082,None,544.088110200013,None,1.9772,550.0342908999883,None,None,1,550.0342908999883,None,,P017,fencog,1,Pre,2021_Oct_28_1124,N-Back (New Version 2021),2021.1.4,120.01041703940268,
,,,,Conditions/Version_1/twoback(1)_v1.xlsx,New rule: Press 'space' when you see 2-back (i.e. the same letter as the one that appeared 2 letters ago.),h,None,,,,,,,,,0,2,2,2,0,1,1,1,,,,,,,,,,,,,,,,,,,,,,,,,,,,,,,,,,,,,,,,,,,,,,,,,,,,,,,,,,,,,,,,,,,,,1.413,553.4638786000432,None,None,1,553.4638786000432,None,,P017,fencog,1,Pre,2021_Oct_28_1124,N-Back (New Version 2021),2021.1.4,120.01041703940268,
,,,,Conditions/Version_1/twoback(1)_v1.xlsx,New rule: Press 'space' when you see 2-back (i.e. the same letter as the one that appeared 2 letters ago.),j,None,,,,,,,,,0,2,2,2,0,2,2,2,,,,,,,,,,,,,,,,,,,,,,,,,,,,,,,,,,,,,,,,,,,,,,,,,,,,,,,,,,,,,,,,,,,,,1.1216,556.5960848000832,None,None,1,556.5960848000832,None,,P017,fencog,1,Pre,2021_Oct_28_1124,N-Back (New Version 2021),2021.1.4,120.01041703940268,
,,,,Conditions/Version_1/twoback(1)_v1.xlsx,New rule: Press 'space' when you see 2-back (i.e. the same letter as the one that appeared 2 letters ago.),H,space,,,,,,,,,0,2,2,2,0,3,3,3,,,,,,,,,,,,,,,,,,,,,,,,,,,,,,,,,,,,,,,,,,,,,,,,,,,,,,,,,,,,,,,,,,,,,1.506,560.1062089999905,None,space,1,560.1062089999905,None,0.35246510000433773,P017,fencog,1,Pre,2021_Oct_28_1124,N-Back (New Version 2021),2021.1.4,120.01041703940268,
,,,,Conditions/Version_1/twoback(1)_v1.xlsx,New rule: Press 'space' when you see 2-back (i.e. the same letter as the one that appeared 2 letters ago.),p,None,,,,,,,,,0,2,2,2,0,4,4,4,,,,,,,,,,,,,,,,,,,,,,,,,,,,,,,,,,,,,,,,,,,,,,,,,,,,,,,,,,,,,,,,,,,,,1.8532,563.9632228000555,None,None,1,563.9632228000555,None,,P017,fencog,1,Pre,2021_Oct_28_1124,N-Back (New Version 2021),2021.1.4,120.01041703940268,
,,,,Conditions/Version_1/twoback(1)_v1.xlsx,New rule: Press 'space' when you see 2-back (i.e. the same letter as the one that appeared 2 letters ago.),p,None,,,,,,,,,0,2,2,2,0,5,5,5,,,,,,,,,,,,,,,,,,,,,,,,,,,,,,,,,,,,,,,,,,,,,,,,,,,,,,,,,,,,,,,,,,,,,1.1526,567.1206888000015,None,None,1,567.1206888000015,None,,P017,fencog,1,Pre,2021_Oct_28_1124,N-Back (New Version 2021),2021.1.4,120.01041703940268,
,,,,Conditions/Version_1/twoback(1)_v1.xlsx,New rule: Press 'space' when you see 2-back (i.e. the same letter as the one that appeared 2 letters ago.),w,None,,,,,,,,,0,2,2,2,0,6,6,6,,,,,,,,,,,,,,,,,,,,,,,,,,,,,,,,,,,,,,,,,,,,,,,,,,,,,,,,,,,,,,,,,,,,,1.9338,571.0611486000707,None,None,1,571.0611486000707,None,,P017,fencog,1,Pre,2021_Oct_28_1124,N-Back (New Version 2021),2021.1.4,120.01041703940268,
,,,,Conditions/Version_1/twoback(1)_v1.xlsx,New rule: Press 'space' when you see 2-back (i.e. the same letter as the one that appeared 2 letters ago.),R,None,,,,,,,,,0,2,2,2,0,7,7,7,,,,,,,,,,,,,,,,,,,,,,,,,,,,,,,,,,,,,,,,,,,,,,,,,,,,,,,,,,,,,,,,,,,,,1.6982,574.7699877000414,None,None,1,574.7699877000414,None,,P017,fencog,1,Pre,2021_Oct_28_1124,N-Back (New Version 2021),2021.1.4,120.01041703940268,
,,,,Conditions/Version_1/twoback(1)_v1.xlsx,New rule: Press 'space' when you see 2-back (i.e. the same letter as the one that appeared 2 letters ago.),a,None,,,,,,,,,0,2,2,2,0,8,8,8,,,,,,,,,,,,,,,,,,,,,,,,,,,,,,,,,,,,,,,,,,,,,,,,,,,,,,,,,,,,,,,,,,,,,1.5184,578.3080807999941,None,None,1,578.3080807999941,None,,P017,fencog,1,Pre,2021_Oct_28_1124,N-Back (New Version 2021),2021.1.4,120.01041703940268,
,,,,Conditions/Version_1/twoback(1)_v1.xlsx,New rule: Press 'space' when you see 2-back (i.e. the same letter as the one that appeared 2 letters ago.),r,space,,,,,,,,,0,2,2,2,0,9,9,9,,,,,,,,,,,,,,,,,,,,,,,,,,,,,,,,,,,,,,,,,,,,,,,,,,,,,,,,,,,,,,,,,,,,,1.4936,581.8082816000096,None,space,1,581.8082816000096,None,0.4101150999777019,P017,fencog,1,Pre,2021_Oct_28_1124,N-Back (New Version 2021),2021.1.4,120.01041703940268,
,,,,Conditions/Version_1/twoback(1)_v1.xlsx,New rule: Press 'space' when you see 2-back (i.e. the same letter as the one that appeared 2 letters ago.),,,,,,,,,,,0,2,2,2,,,,,,,,,,,,,,,,,,,,,,,,,,,,,,,,,,,,,,,,,,,,,,,,,,,,,,,,,,,,,,,,,,,,,,,,,,,,,,,,,P017,fencog,1,Pre,2021_Oct_28_1124,N-Back (New Version 2021),2021.1.4,120.01041703940268,
,,,,Conditions/Version_1/threeback(1)_v1.xlsx,New rule: Press 'space' when you see 3-back (i.e. the same letter as the one that appeared 3 letters ago.),r,None,,,,,,,,,0,3,3,3,0,0,0,0,,,,,,,,,,,,,,,,,,,,,,,,,,,,,,,,,,,,,,,,,,,,,,,,,,,,,,,,,,,583.8290077000856,None,586.8177655000472,None,space,22.936811699997634,586.8177655000472,None,583.8290077000856,None,1.01,610.791239400045,None,None,1,610.791239400045,None,,P017,fencog,1,Pre,2021_Oct_28_1124,N-Back (New Version 2021),2021.1.4,120.01041703940268,
,,,,Conditions/Version_1/threeback(1)_v1.xlsx,New rule: Press 'space' when you see 3-back (i.e. the same letter as the one that appeared 3 letters ago.),o,None,,,,,,,,,0,3,3,3,0,1,1,1,,,,,,,,,,,,,,,,,,,,,,,,,,,,,,,,,,,,,,,,,,,,,,,,,,,,,,,,,,,,,,,,,,,,,1.4688,614.2660536000039,None,None,1,614.2660536000039,None,,P017,fencog,1,Pre,2021_Oct_28_1124,N-Back (New Version 2021),2021.1.4,120.01041703940268,
,,,,Conditions/Version_1/threeback(1)_v1.xlsx,New rule: Press 'space' when you see 3-back (i.e. the same letter as the one that appeared 3 letters ago.),P,None,,,,,,,,,0,3,3,3,0,2,2,2,,,,,,,,,,,,,,,,,,,,,,,,,,,,,,,,,,,,,,,,,,,,,,,,,,,,,,,,,,,,,,,,,,,,,1.382,617.6616261000745,None,None,1,617.6616261000745,None,,P017,fencog,1,Pre,2021_Oct_28_1124,N-Back (New Version 2021),2021.1.4,120.01041703940268,
,,,,Conditions/Version_1/threeback(1)_v1.xlsx,New rule: Press 'space' when you see 3-back (i.e. the same letter as the one that appeared 3 letters ago.),R,space,,,,,,,,,0,3,3,3,0,3,3,3,,,,,,,,,,,,,,,,,,,,,,,,,,,,,,,,,,,,,,,,,,,,,,,,,,,,,,,,,,,,,,,,,,,,,1.9958,621.6637640000554,None,space,1,621.6637640000554,None,0.4190568000776693,P017,fencog,1,Pre,2021_Oct_28_1124,N-Back (New Version 2021),2021.1.4,120.01041703940268,
,,,,Conditions/Version_1/threeback(1)_v1.xlsx,New rule: Press 'space' when you see 3-back (i.e. the same letter as the one that appeared 3 letters ago.),p,None,,,,,,,,,0,3,3,3,0,4,4,4,,,,,,,,,,,,,,,,,,,,,,,,,,,,,,,,,,,,,,,,,,,,,,,,,,,,,,,,,,,,,,,,,,,,,1.2084,624.8785873000743,None,None,1,624.8785873000743,None,,P017,fencog,1,Pre,2021_Oct_28_1124,N-Back (New Version 2021),2021.1.4,120.01041703940268,
,,,,Conditions/Version_1/threeback(1)_v1.xlsx,New rule: Press 'space' when you see 3-back (i.e. the same letter as the one that appeared 3 letters ago.),E,None,,,,,,,,,0,3,3,3,0,5,5,5,,,,,,,,,,,,,,,,,,,,,,,,,,,,,,,,,,,,,,,,,,,,,,,,,,,,,,,,,,,,,,,,,,,,,1.3634,628.2527542000171,None,None,1,628.2527542000171,None,,P017,fencog,1,Pre,2021_Oct_28_1124,N-Back (New Version 2021),2021.1.4,120.01041703940268,
,,,,Conditions/Version_1/threeback(1)_v1.xlsx,New rule: Press 'space' when you see 3-back (i.e. the same letter as the one that appeared 3 letters ago.),e,None,,,,,,,,,0,3,3,3,0,6,6,6,,,,,,,,,,,,,,,,,,,,,,,,,,,,,,,,,,,,,,,,,,,,,,,,,,,,,,,,,,,,,,,,,,,,,1.7602,632.0211340000387,None,None,1,632.0211340000387,None,,P017,fencog,1,Pre,2021_Oct_28_1124,N-Back (New Version 2021),2021.1.4,120.01041703940268,
,,,,Conditions/Version_1/threeback(1)_v1.xlsx,New rule: Press 'space' when you see 3-back (i.e. the same letter as the one that appeared 3 letters ago.),m,None,,,,,,,,,0,3,3,3,0,7,7,7,,,,,,,,,,,,,,,,,,,,,,,,,,,,,,,,,,,,,,,,,,,,,,,,,,,,,,,,,,,,,,,,,,,,,1.63,635.6610329000978,None,None,1,635.6610329000978,None,,P017,fencog,1,Pre,2021_Oct_28_1124,N-Back (New Version 2021),2021.1.4,120.01041703940268,
,,,,Conditions/Version_1/threeback(1)_v1.xlsx,New rule: Press 'space' when you see 3-back (i.e. the same letter as the one that appeared 3 letters ago.),n,None,,,,,,,,,0,3,3,3,0,8,8,8,,,,,,,,,,,,,,,,,,,,,,,,,,,,,,,,,,,,,,,,,,,,,,,,,,,,,,,,,,,,,,,,,,,,,1.537,639.208197100088,None,None,1,639.208197100088,None,,P017,fencog,1,Pre,2021_Oct_28_1124,N-Back (New Version 2021),2021.1.4,120.01041703940268,
,,,,Conditions/Version_1/threeback(1)_v1.xlsx,New rule: Press 'space' when you see 3-back (i.e. the same letter as the one that appeared 3 letters ago.),e,space,,,,,,,,,0,3,3,3,0,9,9,9,,,,,,,,,,,,,,,,,,,,,,,,,,,,,,,,,,,,,,,,,,,,,,,,,,,,,,,,,,,,,,,,,,,,,1.3696,642.5817024999997,None,space,1,642.5817024999997,None,1.2931387000717223,P017,fencog,1,Pre,2021_Oct_28_1124,N-Back (New Version 2021),2021.1.4,120.01041703940268,
,,,,Conditions/Version_1/threeback(1)_v1.xlsx,New rule: Press 'space' when you see 3-back (i.e. the same letter as the one that appeared 3 letters ago.),,,,,,,,,,,0,3,3,3,,,,,,,,,,,,,,,,,,,,,,,,,,,,,,,,,,,,,,,,,,,,,,,,,,,,,,,,,,,,,,,,,,,,,,,,,,,,,,,,,P017,fencog,1,Pre,2021_Oct_28_1124,N-Back (New Version 2021),2021.1.4,120.01041703940268,
,,,,Conditions/Version_1/oneback(2)_v1.xlsx,New rule: Press 'space' when you see 1-back (i.e. the same letter as the one that appeared 1 letter ago.),q,None,,,,,,,,,0,4,4,4,0,0,0,0,,,,,,,,,,,,,,,,,,,,,,,,,,,,,,,,,,,,,,,,,,,,,,,,,,,,,,,,,,,644.613748600008,None,647.5981301000575,None,space,1.6605285999830812,647.5981301000575,None,644.613748600008,None,1.9586,651.2499144000467,None,None,1,651.2499144000467,None,,P017,fencog,1,Pre,2021_Oct_28_1124,N-Back (New Version 2021),2021.1.4,120.01041703940268,
,,,,Conditions/Version_1/oneback(2)_v1.xlsx,New rule: Press 'space' when you see 1-back (i.e. the same letter as the one that appeared 1 letter ago.),Q,space,,,,,,,,,0,4,4,4,0,1,1,1,,,,,,,,,,,,,,,,,,,,,,,,,,,,,,,,,,,,,,,,,,,,,,,,,,,,,,,,,,,,,,,,,,,,,1.4378,654.700228300062,None,space,1,654.700228300062,None,0.38278069999068975,P017,fencog,1,Pre,2021_Oct_28_1124,N-Back (New Version 2021),2021.1.4,120.01041703940268,
,,,,Conditions/Version_1/oneback(2)_v1.xlsx,New rule: Press 'space' when you see 1-back (i.e. the same letter as the one that appeared 1 letter ago.),P,None,,,,,,,,,0,4,4,4,0,2,2,2,,,,,,,,,,,,,,,,,,,,,,,,,,,,,,,,,,,,,,,,,,,,,,,,,,,,,,,,,,,,,,,,,,,,,1.568,658.268587400089,None,None,1,658.268587400089,None,,P017,fencog,1,Pre,2021_Oct_28_1124,N-Back (New Version 2021),2021.1.4,120.01041703940268,
,,,,Conditions/Version_1/oneback(2)_v1.xlsx,New rule: Press 'space' when you see 1-back (i.e. the same letter as the one that appeared 1 letter ago.),o,None,,,,,,,,,0,4,4,4,0,3,3,3,,,,,,,,,,,,,,,,,,,,,,,,,,,,,,,,,,,,,,,,,,,,,,,,,,,,,,,,,,,,,,,,,,,,,1.6238,661.9007981000468,None,None,1,661.9007981000468,None,,P017,fencog,1,Pre,2021_Oct_28_1124,N-Back (New Version 2021),2021.1.4,120.01041703940268,
,,,,Conditions/Version_1/oneback(2)_v1.xlsx,New rule: Press 'space' when you see 1-back (i.e. the same letter as the one that appeared 1 letter ago.),m,None,,,,,,,,,0,4,4,4,0,4,4,4,,,,,,,,,,,,,,,,,,,,,,,,,,,,,,,,,,,,,,,,,,,,,,,,,,,,,,,,,,,,,,,,,,,,,1.6548,665.5582669000141,None,None,1,665.5582669000141,None,,P017,fencog,1,Pre,2021_Oct_28_1124,N-Back (New Version 2021),2021.1.4,120.01041703940268,
,,,,Conditions/Version_1/oneback(2)_v1.xlsx,New rule: Press 'space' when you see 1-back (i.e. the same letter as the one that appeared 1 letter ago.),Z,None,,,,,,,,,0,4,4,4,0,5,5,5,,,,,,,,,,,,,,,,,,,,,,,,,,,,,,,,,,,,,,,,,,,,,,,,,,,,,,,,,,,,,,,,,,,,,1.3324,668.8986369000049,None,None,1,668.8986369000049,None,,P017,fencog,1,Pre,2021_Oct_28_1124,N-Back (New Version 2021),2021.1.4,120.01041703940268,
,,,,Conditions/Version_1/oneback(2)_v1.xlsx,New rule: Press 'space' when you see 1-back (i.e. the same letter as the one that appeared 1 letter ago.),c,None,,,,,,,,,0,4,4,4,0,6,6,6,,,,,,,,,,,,,,,,,,,,,,,,,,,,,,,,,,,,,,,,,,,,,,,,,,,,,,,,,,,,,,,,,,,,,1.8222,672.7239504000172,None,None,1,672.7239504000172,None,,P017,fencog,1,Pre,2021_Oct_28_1124,N-Back (New Version 2021),2021.1.4,120.01041703940268,
,,,,Conditions/Version_1/oneback(2)_v1.xlsx,New rule: Press 'space' when you see 1-back (i.e. the same letter as the one that appeared 1 letter ago.),c,space,,,,,,,,,0,4,4,4,0,7,7,7,,,,,,,,,,,,,,,,,,,,,,,,,,,,,,,,,,,,,,,,,,,,,,,,,,,,,,,,,,,,,,,,,,,,,1.0844,675.8219881000696,None,space,1,675.8219881000696,None,0.6202783999033272,P017,fencog,1,Pre,2021_Oct_28_1124,N-Back (New Version 2021),2021.1.4,120.01041703940268,
,,,,Conditions/Version_1/oneback(2)_v1.xlsx,New rule: Press 'space' when you see 1-back (i.e. the same letter as the one that appeared 1 letter ago.),P,None,,,,,,,,,0,4,4,4,0,8,8,8,,,,,,,,,,,,,,,,,,,,,,,,,,,,,,,,,,,,,,,,,,,,,,,,,,,,,,,,,,,,,,,,,,,,,1.289,679.1189075000584,None,None,1,679.1189075000584,None,,P017,fencog,1,Pre,2021_Oct_28_1124,N-Back (New Version 2021),2021.1.4,120.01041703940268,
,,,,Conditions/Version_1/oneback(2)_v1.xlsx,New rule: Press 'space' when you see 1-back (i.e. the same letter as the one that appeared 1 letter ago.),p,space,,,,,,,,,0,4,4,4,0,9,9,9,,,,,,,,,,,,,,,,,,,,,,,,,,,,,,,,,,,,,,,,,,,,,,,,,,,,,,,,,,,,,,,,,,,,,1.413,682.536357200006,None,space,1,682.536357200006,None,0.39519640000071377,P017,fencog,1,Pre,2021_Oct_28_1124,N-Back (New Version 2021),2021.1.4,120.01041703940268,
,,,,Conditions/Version_1/oneback(2)_v1.xlsx,New rule: Press 'space' when you see 1-back (i.e. the same letter as the one that appeared 1 letter ago.),,,,,,,,,,,0,4,4,4,,,,,,,,,,,,,,,,,,,,,,,,,,,,,,,,,,,,,,,,,,,,,,,,,,,,,,,,,,,,,,,,,,,,,,,,,,,,,,,,,P017,fencog,1,Pre,2021_Oct_28_1124,N-Back (New Version 2021),2021.1.4,120.01041703940268,
,,,,Conditions/Version_1/zeroback(2)_v1.xlsx,New rule: Press 'space' when you see the letter 'x' or 'X'.,p,None,,,,,,,,,0,5,5,5,0,0,0,0,,,,,,,,,,,,,,,,,,,,,,,,,,,,,,,,,,,,,,,,,,,,,,,,,,,,,,,,,,,684.5561596000334,None,687.5367504000897,None,space,5.4979445999488235,687.5367504000897,None,684.5561596000334,None,1.7478,694.80797850003,None,None,1,694.80797850003,None,,P017,fencog,1,Pre,2021_Oct_28_1124,N-Back (New Version 2021),2021.1.4,120.01041703940268,
,,,,Conditions/Version_1/zeroback(2)_v1.xlsx,New rule: Press 'space' when you see the letter 'x' or 'X'.,L,None,,,,,,,,,0,5,5,5,0,1,1,1,,,,,,,,,,,,,,,,,,,,,,,,,,,,,,,,,,,,,,,,,,,,,,,,,,,,,,,,,,,,,,,,,,,,,1.475,698.2830334000755,None,None,1,698.2830334000755,None,,P017,fencog,1,Pre,2021_Oct_28_1124,N-Back (New Version 2021),2021.1.4,120.01041703940268,
,,,,Conditions/Version_1/zeroback(2)_v1.xlsx,New rule: Press 'space' when you see the letter 'x' or 'X'.,G,None,,,,,,,,,0,5,5,5,0,2,2,2,,,,,,,,,,,,,,,,,,,,,,,,,,,,,,,,,,,,,,,,,,,,,,,,,,,,,,,,,,,,,,,,,,,,,1.5184,701.8139079000102,None,None,1,701.8139079000102,None,,P017,fencog,1,Pre,2021_Oct_28_1124,N-Back (New Version 2021),2021.1.4,120.01041703940268,
,,,,Conditions/Version_1/zeroback(2)_v1.xlsx,New rule: Press 'space' when you see the letter 'x' or 'X'.,y,None,,,,,,,,,0,5,5,5,0,3,3,3,,,,,,,,,,,,,,,,,,,,,,,,,,,,,,,,,,,,,,,,,,,,,,,,,,,,,,,,,,,,,,,,,,,,,1.6858,705.5046963000204,None,None,1,705.5046963000204,None,,P017,fencog,1,Pre,2021_Oct_28_1124,N-Back (New Version 2021),2021.1.4,120.01041703940268,
,,,,Conditions/Version_1/zeroback(2)_v1.xlsx,New rule: Press 'space' when you see the letter 'x' or 'X'.,Y,None,,,,,,,,,0,5,5,5,0,4,4,4,,,,,,,,,,,,,,,,,,,,,,,,,,,,,,,,,,,,,,,,,,,,,,,,,,,,,,,,,,,,,,,,,,,,,1.506,709.0118714000564,None,None,1,709.0118714000564,None,,P017,fencog,1,Pre,2021_Oct_28_1124,N-Back (New Version 2021),2021.1.4,120.01041703940268,
,,,,Conditions/Version_1/zeroback(2)_v1.xlsx,New rule: Press 'space' when you see the letter 'x' or 'X'.,W,None,,,,,,,,,0,5,5,5,0,5,5,5,,,,,,,,,,,,,,,,,,,,,,,,,,,,,,,,,,,,,,,,,,,,,,,,,,,,,,,,,,,,,,,,,,,,,1.692,712.7090150000295,None,None,1,712.7090150000295,None,,P017,fencog,1,Pre,2021_Oct_28_1124,N-Back (New Version 2021),2021.1.4,120.01041703940268,
,,,,Conditions/Version_1/zeroback(2)_v1.xlsx,New rule: Press 'space' when you see the letter 'x' or 'X'.,x,space,,,,,,,,,0,5,5,5,0,6,6,6,,,,,,,,,,,,,,,,,,,,,,,,,,,,,,,,,,,,,,,,,,,,,,,,,,,,,,,,,,,,,,,,,,,,,1.6424,716.3650290000951,None,space,1,716.3650290000951,None,0.40548700001090765,P017,fencog,1,Pre,2021_Oct_28_1124,N-Back (New Version 2021),2021.1.4,120.01041703940268,
,,,,Conditions/Version_1/zeroback(2)_v1.xlsx,New rule: Press 'space' when you see the letter 'x' or 'X'.,X,space,,,,,,,,,0,5,5,5,0,7,7,7,,,,,,,,,,,,,,,,,,,,,,,,,,,,,,,,,,,,,,,,,,,,,,,,,,,,,,,,,,,,,,,,,,,,,1.382,719.7511940000113,None,space,1,719.7511940000113,None,0.8352162000956014,P017,fencog,1,Pre,2021_Oct_28_1124,N-Back (New Version 2021),2021.1.4,120.01041703940268,
,,,,Conditions/Version_1/zeroback(2)_v1.xlsx,New rule: Press 'space' when you see the letter 'x' or 'X'.,p,None,,,,,,,,,0,5,5,5,0,8,8,8,,,,,,,,,,,,,,,,,,,,,,,,,,,,,,,,,,,,,,,,,,,,,,,,,,,,,,,,,,,,,,,,,,,,,1.0844,722.8517917999998,None,None,1,722.8517917999998,None,,P017,fencog,1,Pre,2021_Oct_28_1124,N-Back (New Version 2021),2021.1.4,120.01041703940268,
,,,,Conditions/Version_1/zeroback(2)_v1.xlsx,New rule: Press 'space' when you see the letter 'x' or 'X'.,h,None,,,,,,,,,0,5,5,5,0,9,9,9,,,,,,,,,,,,,,,,,,,,,,,,,,,,,,,,,,,,,,,,,,,,,,,,,,,,,,,,,,,,,,,,,,,,,1.2146,726.0803866999922,None,None,1,726.0803866999922,None,,P017,fencog,1,Pre,2021_Oct_28_1124,N-Back (New Version 2021),2021.1.4,120.01041703940268,
,,,,Conditions/Version_1/zeroback(2)_v1.xlsx,New rule: Press 'space' when you see the letter 'x' or 'X'.,,,,,,,,,,,0,5,5,5,,,,,,,,,,,,,,,,,,,,,,,,,,,,,,,,,,,,,,,,,,,,,,,,,,,,,,,,,,,,,,,,,,,,,,,,,,,,,,,,,P017,fencog,1,Pre,2021_Oct_28_1124,N-Back (New Version 2021),2021.1.4,120.01041703940268,
,,,,Conditions/Version_1/threeback(2)_v1.xlsx,New rule: Press 'space' when you see 3-back (i.e. the same letter as the one that appeared 3 letters ago.),q,None,,,,,,,,,0,6,6,6,0,0,0,0,,,,,,,,,,,,,,,,,,,,,,,,,,,,,,,,,,,,,,,,,,,,,,,,,,,,,,,,,,,728.1025353000732,None,731.0918306000531,None,space,17.685907699982636,731.0918306000531,None,728.1025353000732,None,1.2704,750.0744394999929,None,None,1,750.0744394999929,None,,P017,fencog,1,Pre,2021_Oct_28_1124,N-Back (New Version 2021),2021.1.4,120.01041703940268,
,,,,Conditions/Version_1/threeback(2)_v1.xlsx,New rule: Press 'space' when you see 3-back (i.e. the same letter as the one that appeared 3 letters ago.),Y,None,,,,,,,,,0,6,6,6,0,1,1,1,,,,,,,,,,,,,,,,,,,,,,,,,,,,,,,,,,,,,,,,,,,,,,,,,,,,,,,,,,,,,,,,,,,,,1.4192,753.498451200081,None,None,1,753.498451200081,None,,P017,fencog,1,Pre,2021_Oct_28_1124,N-Back (New Version 2021),2021.1.4,120.01041703940268,
,,,,Conditions/Version_1/threeback(2)_v1.xlsx,New rule: Press 'space' when you see 3-back (i.e. the same letter as the one that appeared 3 letters ago.),p,None,,,,,,,,,0,6,6,6,0,2,2,2,,,,,,,,,,,,,,,,,,,,,,,,,,,,,,,,,,,,,,,,,,,,,,,,,,,,,,,,,,,,,,,,,,,,,1.723,757.2223652000539,None,None,1,757.2223652000539,None,,P017,fencog,1,Pre,2021_Oct_28_1124,N-Back (New Version 2021),2021.1.4,120.01041703940268,
,,,,Conditions/Version_1/threeback(2)_v1.xlsx,New rule: Press 'space' when you see 3-back (i.e. the same letter as the one that appeared 3 letters ago.),p,None,,,,,,,,,0,6,6,6,0,3,3,3,,,,,,,,,,,,,,,,,,,,,,,,,,,,,,,,,,,,,,,,,,,,,,,,,,,,,,,,,,,,,,,,,,,,,1.196,760.4214564000722,None,None,1,760.4214564000722,None,,P017,fencog,1,Pre,2021_Oct_28_1124,N-Back (New Version 2021),2021.1.4,120.01041703940268,
,,,,Conditions/Version_1/threeback(2)_v1.xlsx,New rule: Press 'space' when you see 3-back (i.e. the same letter as the one that appeared 3 letters ago.),y,space,,,,,,,,,0,6,6,6,0,4,4,4,,,,,,,,,,,,,,,,,,,,,,,,,,,,,,,,,,,,,,,,,,,,,,,,,,,,,,,,,,,,,,,,,,,,,1.3262,763.7541957000503,None,space,1,763.7541957000503,None,1.3194357000757009,P017,fencog,1,Pre,2021_Oct_28_1124,N-Back (New Version 2021),2021.1.4,120.01041703940268,
,,,,Conditions/Version_1/threeback(2)_v1.xlsx,New rule: Press 'space' when you see 3-back (i.e. the same letter as the one that appeared 3 letters ago.),u,None,,,,,,,,,0,6,6,6,0,5,5,5,,,,,,,,,,,,,,,,,,,,,,,,,,,,,,,,,,,,,,,,,,,,,,,,,,,,,,,,,,,,,,,,,,,,,1.258,767.0197873000288,None,None,1,767.0197873000288,None,,P017,fencog,1,Pre,2021_Oct_28_1124,N-Back (New Version 2021),2021.1.4,120.01041703940268,
,,,,Conditions/Version_1/threeback(2)_v1.xlsx,New rule: Press 'space' when you see 3-back (i.e. the same letter as the one that appeared 3 letters ago.),P,space,,,,,,,,,0,6,6,6,0,6,6,6,,,,,,,,,,,,,,,,,,,,,,,,,,,,,,,,,,,,,,,,,,,,,,,,,,,,,,,,,,,,,,,,,,,,,1.785,770.8107677000808,None,space,1,770.8107677000808,None,0.4632733999751508,P017,fencog,1,Pre,2021_Oct_28_1124,N-Back (New Version 2021),2021.1.4,120.01041703940268,
,,,,Conditions/Version_1/threeback(2)_v1.xlsx,New rule: Press 'space' when you see 3-back (i.e. the same letter as the one that appeared 3 letters ago.),a,None,,,,,,,,,0,6,6,6,0,7,7,7,,,,,,,,,,,,,,,,,,,,,,,,,,,,,,,,,,,,,,,,,,,,,,,,,,,,,,,,,,,,,,,,,,,,,1.4812,774.2937459000386,None,None,1,774.2937459000386,None,,P017,fencog,1,Pre,2021_Oct_28_1124,N-Back (New Version 2021),2021.1.4,120.01041703940268,
,,,,Conditions/Version_1/threeback(2)_v1.xlsx,New rule: Press 'space' when you see 3-back (i.e. the same letter as the one that appeared 3 letters ago.),U,space,,,,,,,,,0,6,6,6,0,8,8,8,,,,,,,,,,,,,,,,,,,,,,,,,,,,,,,,,,,,,,,,,,,,,,,,,,,,,,,,,,,,,,,,,,,,,1.0658,777.370374900056,None,space,1,777.370374900056,None,0.4082313000690192,P017,fencog,1,Pre,2021_Oct_28_1124,N-Back (New Version 2021),2021.1.4,120.01041703940268,
,,,,Conditions/Version_1/threeback(2)_v1.xlsx,New rule: Press 'space' when you see 3-back (i.e. the same letter as the one that appeared 3 letters ago.),q,None,,,,,,,,,0,6,6,6,0,9,9,9,,,,,,,,,,,,,,,,,,,,,,,,,,,,,,,,,,,,,,,,,,,,,,,,,,,,,,,,,,,,,,,,,,,,,1.3448,780.7239598000888,None,None,1,780.7239598000888,None,,P017,fencog,1,Pre,2021_Oct_28_1124,N-Back (New Version 2021),2021.1.4,120.01041703940268,
,,,,Conditions/Version_1/threeback(2)_v1.xlsx,New rule: Press 'space' when you see 3-back (i.e. the same letter as the one that appeared 3 letters ago.),,,,,,,,,,,0,6,6,6,,,,,,,,,,,,,,,,,,,,,,,,,,,,,,,,,,,,,,,,,,,,,,,,,,,,,,,,,,,,,,,,,,,,,,,,,,,,,,,,,P017,fencog,1,Pre,2021_Oct_28_1124,N-Back (New Version 2021),2021.1.4,120.01041703940268,
,,,,Conditions/Version_1/twoback(2)_v1.xlsx,New rule: Press 'space' when you see 2-back (i.e. the same letter as the one that appeared 2 letters ago.),q,None,,,,,,,,,0,7,7,7,0,0,0,0,,,,,,,,,,,,,,,,,,,,,,,,,,,,,,,,,,,,,,,,,,,,,,,,,,,,,,,,,,,782.7458262,None,785.7388342000777,None,space,1.4795903000049293,785.7388342000777,None,782.7458262,None,1.1464,788.3885015000124,None,None,1,788.3885015000124,None,,P017,fencog,1,Pre,2021_Oct_28_1124,N-Back (New Version 2021),2021.1.4,120.01041703940268,
,,,,Conditions/Version_1/twoback(2)_v1.xlsx,New rule: Press 'space' when you see 2-back (i.e. the same letter as the one that appeared 2 letters ago.),r,None,,,,,,,,,0,7,7,7,0,1,1,1,,,,,,,,,,,,,,,,,,,,,,,,,,,,,,,,,,,,,,,,,,,,,,,,,,,,,,,,,,,,,,,,,,,,,1.3572,791.7457414000528,None,None,1,791.7457414000528,None,,P017,fencog,1,Pre,2021_Oct_28_1124,N-Back (New Version 2021),2021.1.4,120.01041703940268,
,,,,Conditions/Version_1/twoback(2)_v1.xlsx,New rule: Press 'space' when you see 2-back (i.e. the same letter as the one that appeared 2 letters ago.),q,space,,,,,,,,,0,7,7,7,0,2,2,2,,,,,,,,,,,,,,,,,,,,,,,,,,,,,,,,,,,,,,,,,,,,,,,,,,,,,,,,,,,,,,,,,,,,,1.3944,795.1555241000606,None,space,1,795.1555241000606,None,0.5347541000228375,P017,fencog,1,Pre,2021_Oct_28_1124,N-Back (New Version 2021),2021.1.4,120.01041703940268,
,,,,Conditions/Version_1/twoback(2)_v1.xlsx,New rule: Press 'space' when you see 2-back (i.e. the same letter as the one that appeared 2 letters ago.),P,None,,,,,,,,,0,7,7,7,0,3,3,3,,,,,,,,,,,,,,,,,,,,,,,,,,,,,,,,,,,,,,,,,,,,,,,,,,,,,,,,,,,,,,,,,,,,,1.2332,798.3937441000016,None,None,1,798.3937441000016,None,,P017,fencog,1,Pre,2021_Oct_28_1124,N-Back (New Version 2021),2021.1.4,120.01041703940268,
,,,,Conditions/Version_1/twoback(2)_v1.xlsx,New rule: Press 'space' when you see 2-back (i.e. the same letter as the one that appeared 2 letters ago.),p,None,,,,,,,,,0,7,7,7,0,4,4,4,,,,,,,,,,,,,,,,,,,,,,,,,,,,,,,,,,,,,,,,,,,,,,,,,,,,,,,,,,,,,,,,,,,,,1.3324,801.7259858000325,None,None,1,801.7259858000325,None,,P017,fencog,1,Pre,2021_Oct_28_1124,N-Back (New Version 2021),2021.1.4,120.01041703940268,
,,,,Conditions/Version_1/twoback(2)_v1.xlsx,New rule: Press 'space' when you see 2-back (i.e. the same letter as the one that appeared 2 letters ago.),H,None,,,,,,,,,0,7,7,7,0,5,5,5,,,,,,,,,,,,,,,,,,,,,,,,,,,,,,,,,,,,,,,,,,,,,,,,,,,,,,,,,,,,,,,,,,,,,1.7354,805.4702464999864,None,None,1,805.4702464999864,None,,P017,fencog,1,Pre,2021_Oct_28_1124,N-Back (New Version 2021),2021.1.4,120.01041703940268,
,,,,Conditions/Version_1/twoback(2)_v1.xlsx,New rule: Press 'space' when you see 2-back (i.e. the same letter as the one that appeared 2 letters ago.),g,None,,,,,,,,,0,7,7,7,0,6,6,6,,,,,,,,,,,,,,,,,,,,,,,,,,,,,,,,,,,,,,,,,,,,,,,,,,,,,,,,,,,,,,,,,,,,,1.382,808.8572367000161,None,None,1,808.8572367000161,None,,P017,fencog,1,Pre,2021_Oct_28_1124,N-Back (New Version 2021),2021.1.4,120.01041703940268,
,,,,Conditions/Version_1/twoback(2)_v1.xlsx,New rule: Press 'space' when you see 2-back (i.e. the same letter as the one that appeared 2 letters ago.),j,None,,,,,,,,,0,7,7,7,0,7,7,7,,,,,,,,,,,,,,,,,,,,,,,,,,,,,,,,,,,,,,,,,,,,,,,,,,,,,,,,,,,,,,,,,,,,,1.5742,812.4318663000595,None,None,1,812.4318663000595,None,,P017,fencog,1,Pre,2021_Oct_28_1124,N-Back (New Version 2021),2021.1.4,120.01041703940268,
,,,,Conditions/Version_1/twoback(2)_v1.xlsx,New rule: Press 'space' when you see 2-back (i.e. the same letter as the one that appeared 2 letters ago.),g,space,,,,,,,,,0,7,7,7,0,8,8,8,,,,,,,,,,,,,,,,,,,,,,,,,,,,,,,,,,,,,,,,,,,,,,,,,,,,,,,,,,,,,,,,,,,,,1.7664,816.20507060003,None,space,1,816.20507060003,None,0.3815839000744745,P017,fencog,1,Pre,2021_Oct_28_1124,N-Back (New Version 2021),2021.1.4,120.01041703940268,
,,,,Conditions/Version_1/twoback(2)_v1.xlsx,New rule: Press 'space' when you see 2-back (i.e. the same letter as the one that appeared 2 letters ago.),G,None,,,,,,,,,0,7,7,7,0,9,9,9,,,,,,,,,,,,,,,,,,,,,,,,,,,,,,,,,,,,,,,,,,,,,,,,,,,,,,,,,,,,,,,,,,,,,1.0286,819.2462351000868,None,None,1,819.2462351000868,None,,P017,fencog,1,Pre,2021_Oct_28_1124,N-Back (New Version 2021),2021.1.4,120.01041703940268,
,,,,Conditions/Version_1/twoback(2)_v1.xlsx,New rule: Press 'space' when you see 2-back (i.e. the same letter as the one that appeared 2 letters ago.),,,,,,,,,,,0,7,7,7,,,,,,,,,,,,,,,,,,,,,,,,,,,,,,,,,,,,,,,,,,,,,,,,,,,,,,,,,,,,,,,,,,,,,,,,,,,,,,,,,P017,fencog,1,Pre,2021_Oct_28_1124,N-Back (New Version 2021),2021.1.4,120.01041703940268,
,,,,Conditions/Version_1/threeback(3)_v1.xlsx,New rule: Press 'space' when you see 3-back (i.e. the same letter as the one that appeared 3 letters ago.),w,None,,,,,,,,,0,8,8,8,0,0,0,0,,,,,,,,,,,,,,,,,,,,,,,,,,,,,,,,,,,,,,,,,,,,,,,,,,,,,,,,,,,821.2918805000372,None,824.2718149999855,None,space,8.730548599967733,824.2718149999855,None,821.2918805000372,None,1.6176,834.6505115000764,None,None,1,834.6505115000764,None,,P017,fencog,1,Pre,2021_Oct_28_1124,N-Back (New Version 2021),2021.1.4,120.01041703940268,
,,,,Conditions/Version_1/threeback(3)_v1.xlsx,New rule: Press 'space' when you see 3-back (i.e. the same letter as the one that appeared 3 letters ago.),p,None,,,,,,,,,0,8,8,8,0,1,1,1,,,,,,,,,,,,,,,,,,,,,,,,,,,,,,,,,,,,,,,,,,,,,,,,,,,,,,,,,,,,,,,,,,,,,1.5184,838.1819480999839,None,None,1,838.1819480999839,None,,P017,fencog,1,Pre,2021_Oct_28_1124,N-Back (New Version 2021),2021.1.4,120.01041703940268,
,,,,Conditions/Version_1/threeback(3)_v1.xlsx,New rule: Press 'space' when you see 3-back (i.e. the same letter as the one that appeared 3 letters ago.),P,None,,,,,,,,,0,8,8,8,0,2,2,2,,,,,,,,,,,,,,,,,,,,,,,,,,,,,,,,,,,,,,,,,,,,,,,,,,,,,,,,,,,,,,,,,,,,,1.3572,841.5394401000813,None,None,1,841.5394401000813,None,,P017,fencog,1,Pre,2021_Oct_28_1124,N-Back (New Version 2021),2021.1.4,120.01041703940268,
,,,,Conditions/Version_1/threeback(3)_v1.xlsx,New rule: Press 'space' when you see 3-back (i.e. the same letter as the one that appeared 3 letters ago.),i,None,,,,,,,,,0,8,8,8,0,3,3,3,,,,,,,,,,,,,,,,,,,,,,,,,,,,,,,,,,,,,,,,,,,,,,,,,,,,,,,,,,,,,,,,,,,,,1.9462,845.4887491000118,None,None,1,845.4887491000118,None,,P017,fencog,1,Pre,2021_Oct_28_1124,N-Back (New Version 2021),2021.1.4,120.01041703940268,
,,,,Conditions/Version_1/threeback(3)_v1.xlsx,New rule: Press 'space' when you see 3-back (i.e. the same letter as the one that appeared 3 letters ago.),f,None,,,,,,,,,0,8,8,8,0,4,4,4,,,,,,,,,,,,,,,,,,,,,,,,,,,,,,,,,,,,,,,,,,,,,,,,,,,,,,,,,,,,,,,,,,,,,1.723,849.2210933000315,None,None,1,849.2210933000315,None,,P017,fencog,1,Pre,2021_Oct_28_1124,N-Back (New Version 2021),2021.1.4,120.01041703940268,
,,,,Conditions/Version_1/threeback(3)_v1.xlsx,New rule: Press 'space' when you see 3-back (i.e. the same letter as the one that appeared 3 letters ago.),o,None,,,,,,,,,0,8,8,8,0,5,5,5,,,,,,,,,,,,,,,,,,,,,,,,,,,,,,,,,,,,,,,,,,,,,,,,,,,,,,,,,,,,,,,,,,,,,1.4068,852.6396085000597,None,None,1,852.6396085000597,None,,P017,fencog,1,Pre,2021_Oct_28_1124,N-Back (New Version 2021),2021.1.4,120.01041703940268,
,,,,Conditions/Version_1/threeback(3)_v1.xlsx,New rule: Press 'space' when you see 3-back (i.e. the same letter as the one that appeared 3 letters ago.),w,None,,,,,,,,,0,8,8,8,0,6,6,6,,,,,,,,,,,,,,,,,,,,,,,,,,,,,,,,,,,,,,,,,,,,,,,,,,,,,,,,,,,,,,,,,,,,,1.692,856.335273600067,None,None,1,856.335273600067,None,,P017,fencog,1,Pre,2021_Oct_28_1124,N-Back (New Version 2021),2021.1.4,120.01041703940268,
,,,,Conditions/Version_1/threeback(3)_v1.xlsx,New rule: Press 'space' when you see 3-back (i.e. the same letter as the one that appeared 3 letters ago.),F,space,,,,,,,,,0,8,8,8,0,7,7,7,,,,,,,,,,,,,,,,,,,,,,,,,,,,,,,,,,,,,,,,,,,,,,,,,,,,,,,,,,,,,,,,,,,,,1.4812,859.8171502000187,None,space,1,859.8171502000187,None,0.48946189996786416,P017,fencog,1,Pre,2021_Oct_28_1124,N-Back (New Version 2021),2021.1.4,120.01041703940268,
,,,,Conditions/Version_1/threeback(3)_v1.xlsx,New rule: Press 'space' when you see 3-back (i.e. the same letter as the one that appeared 3 letters ago.),p,None,,,,,,,,,0,8,8,8,0,8,8,8,,,,,,,,,,,,,,,,,,,,,,,,,,,,,,,,,,,,,,,,,,,,,,,,,,,,,,,,,,,,,,,,,,,,,1.2456,863.0672636000672,None,None,1,863.0672636000672,None,,P017,fencog,1,Pre,2021_Oct_28_1124,N-Back (New Version 2021),2021.1.4,120.01041703940268,
,,,,Conditions/Version_1/threeback(3)_v1.xlsx,New rule: Press 'space' when you see 3-back (i.e. the same letter as the one that appeared 3 letters ago.),W,space,,,,,,,,,0,8,8,8,0,9,9,9,,,,,,,,,,,,,,,,,,,,,,,,,,,,,,,,,,,,,,,,,,,,,,,,,,,,,,,,,,,,,,,,,,,,,1.506,866.5746007000562,None,None,0,866.5746007000562,None,,P017,fencog,1,Pre,2021_Oct_28_1124,N-Back (New Version 2021),2021.1.4,120.01041703940268,
,,,,Conditions/Version_1/threeback(3)_v1.xlsx,New rule: Press 'space' when you see 3-back (i.e. the same letter as the one that appeared 3 letters ago.),,,,,,,,,,,0,8,8,8,,,,,,,,,,,,,,,,,,,,,,,,,,,,,,,,,,,,,,,,,,,,,,,,,,,,,,,,,,,,,,,,,,,,,,,,,,,,,,,,,P017,fencog,1,Pre,2021_Oct_28_1124,N-Back (New Version 2021),2021.1.4,120.01041703940268,
,,,,Conditions/Version_1/zeroback(3)_v1.xlsx,New rule: Press 'space' when you see the letter 'x' or 'X'.,X,space,,,,,,,,,0,9,9,9,0,0,0,0,,,,,,,,,,,,,,,,,,,,,,,,,,,,,,,,,,,,,,,,,,,,,,,,,,,,,,,,,,,868.6010070000775,None,871.5909398000222,None,space,2.2272644999902695,871.5909398000222,None,868.6010070000775,None,1.1278,874.9710629000328,None,space,1,874.9710629000328,None,1.5510031000012532,P017,fencog,1,Pre,2021_Oct_28_1124,N-Back (New Version 2021),2021.1.4,120.01041703940268,
,,,,Conditions/Version_1/zeroback(3)_v1.xlsx,New rule: Press 'space' when you see the letter 'x' or 'X'.,B,None,,,,,,,,,0,9,9,9,0,1,1,1,,,,,,,,,,,,,,,,,,,,,,,,,,,,,,,,,,,,,,,,,,,,,,,,,,,,,,,,,,,,,,,,,,,,,1.4254,878.39685930009,None,None,1,878.39685930009,None,,P017,fencog,1,Pre,2021_Oct_28_1124,N-Back (New Version 2021),2021.1.4,120.01041703940268,
,,,,Conditions/Version_1/zeroback(3)_v1.xlsx,New rule: Press 'space' when you see the letter 'x' or 'X'.,m,None,,,,,,,,,0,9,9,9,0,2,2,2,,,,,,,,,,,,,,,,,,,,,,,,,,,,,,,,,,,,,,,,,,,,,,,,,,,,,,,,,,,,,,,,,,,,,1.0782,881.49236750009,None,None,1,881.49236750009,None,,P017,fencog,1,Pre,2021_Oct_28_1124,N-Back (New Version 2021),2021.1.4,120.01041703940268,
,,,,Conditions/Version_1/zeroback(3)_v1.xlsx,New rule: Press 'space' when you see the letter 'x' or 'X'.,m,None,,,,,,,,,0,9,9,9,0,3,3,3,,,,,,,,,,,,,,,,,,,,,,,,,,,,,,,,,,,,,,,,,,,,,,,,,,,,,,,,,,,,,,,,,,,,,1.9896,885.4761897000717,None,None,1,885.4761897000717,None,,P017,fencog,1,Pre,2021_Oct_28_1124,N-Back (New Version 2021),2021.1.4,120.01041703940268,
,,,,Conditions/Version_1/zeroback(3)_v1.xlsx,New rule: Press 'space' when you see the letter 'x' or 'X'.,o,None,,,,,,,,,0,9,9,9,0,4,4,4,,,,,,,,,,,,,,,,,,,,,,,,,,,,,,,,,,,,,,,,,,,,,,,,,,,,,,,,,,,,,,,,,,,,,1.8532,889.3333445000462,None,None,1,889.3333445000462,None,,P017,fencog,1,Pre,2021_Oct_28_1124,N-Back (New Version 2021),2021.1.4,120.01041703940268,
,,,,Conditions/Version_1/zeroback(3)_v1.xlsx,New rule: Press 'space' when you see the letter 'x' or 'X'.,p,None,,,,,,,,,0,9,9,9,0,5,5,5,,,,,,,,,,,,,,,,,,,,,,,,,,,,,,,,,,,,,,,,,,,,,,,,,,,,,,,,,,,,,,,,,,,,,1.3572,892.6904713000404,None,None,1,892.6904713000404,None,,P017,fencog,1,Pre,2021_Oct_28_1124,N-Back (New Version 2021),2021.1.4,120.01041703940268,
,,,,Conditions/Version_1/zeroback(3)_v1.xlsx,New rule: Press 'space' when you see the letter 'x' or 'X'.,G,None,,,,,,,,,0,9,9,9,0,6,6,6,,,,,,,,,,,,,,,,,,,,,,,,,,,,,,,,,,,,,,,,,,,,,,,,,,,,,,,,,,,,,,,,,,,,,1.8222,896.5220630000113,None,None,1,896.5220630000113,None,,P017,fencog,1,Pre,2021_Oct_28_1124,N-Back (New Version 2021),2021.1.4,120.01041703940268,
,,,,Conditions/Version_1/zeroback(3)_v1.xlsx,New rule: Press 'space' when you see the letter 'x' or 'X'.,X,space,,,,,,,,,0,9,9,9,0,7,7,7,,,,,,,,,,,,,,,,,,,,,,,,,,,,,,,,,,,,,,,,,,,,,,,,,,,,,,,,,,,,,,,,,,,,,1.847,900.3726954000304,None,space,1,900.3726954000304,None,0.5572815000778064,P017,fencog,1,Pre,2021_Oct_28_1124,N-Back (New Version 2021),2021.1.4,120.01041703940268,
,,,,Conditions/Version_1/zeroback(3)_v1.xlsx,New rule: Press 'space' when you see the letter 'x' or 'X'.,p,None,,,,,,,,,0,9,9,9,0,8,8,8,,,,,,,,,,,,,,,,,,,,,,,,,,,,,,,,,,,,,,,,,,,,,,,,,,,,,,,,,,,,,,,,,,,,,1.1526,903.5374210000737,None,None,1,903.5374210000737,None,,P017,fencog,1,Pre,2021_Oct_28_1124,N-Back (New Version 2021),2021.1.4,120.01041703940268,
,,,,Conditions/Version_1/zeroback(3)_v1.xlsx,New rule: Press 'space' when you see the letter 'x' or 'X'.,x,space,,,,,,,,,0,9,9,9,0,9,9,9,,,,,,,,,,,,,,,,,,,,,,,,,,,,,,,,,,,,,,,,,,,,,,,,,,,,,,,,,,,,,,,,,,,,,1.8904,907.4278560000239,None,space,1,907.4278560000239,None,0.5256166999461129,P017,fencog,1,Pre,2021_Oct_28_1124,N-Back (New Version 2021),2021.1.4,120.01041703940268,
,,,,Conditions/Version_1/zeroback(3)_v1.xlsx,New rule: Press 'space' when you see the letter 'x' or 'X'.,,,,,,,,,,,0,9,9,9,,,,,,,,,,,,,,,,,,,,,,,,,,,,,,,,,,,,,,,,,,,,,,,,,,,,,,,,,,,,,,,,,,,,,,,,,,,,,,,,,P017,fencog,1,Pre,2021_Oct_28_1124,N-Back (New Version 2021),2021.1.4,120.01041703940268,
,,,,Conditions/Version_1/twoback(3)_v1.xlsx,New rule: Press 'space' when you see 2-back (i.e. the same letter as the one that appeared 2 letters ago.),e,None,,,,,,,,,0,10,10,10,0,0,0,0,,,,,,,,,,,,,,,,,,,,,,,,,,,,,,,,,,,,,,,,,,,,,,,,,,,,,,,,,,,909.4468463000376,None,912.4362352000317,None,space,5.061713899951428,912.4362352000317,None,909.4468463000376,None,1.1774,918.7022280000383,None,None,1,918.7022280000383,None,,P017,fencog,1,Pre,2021_Oct_28_1124,N-Back (New Version 2021),2021.1.4,120.01041703940268,
,,,,Conditions/Version_1/twoback(3)_v1.xlsx,New rule: Press 'space' when you see 2-back (i.e. the same letter as the one that appeared 2 letters ago.),o,None,,,,,,,,,0,10,10,10,0,1,1,1,,,,,,,,,,,,,,,,,,,,,,,,,,,,,,,,,,,,,,,,,,,,,,,,,,,,,,,,,,,,,,,,,,,,,1.2394,921.9579132000217,None,None,1,921.9579132000217,None,,P017,fencog,1,Pre,2021_Oct_28_1124,N-Back (New Version 2021),2021.1.4,120.01041703940268,
,,,,Conditions/Version_1/twoback(3)_v1.xlsx,New rule: Press 'space' when you see 2-back (i.e. the same letter as the one that appeared 2 letters ago.),P,None,,,,,,,,,0,10,10,10,0,2,2,2,,,,,,,,,,,,,,,,,,,,,,,,,,,,,,,,,,,,,,,,,,,,,,,,,,,,,,,,,,,,,,,,,,,,,1.5246,925.4901217999868,None,None,1,925.4901217999868,None,,P017,fencog,1,Pre,2021_Oct_28_1124,N-Back (New Version 2021),2021.1.4,120.01041703940268,
,,,,Conditions/Version_1/twoback(3)_v1.xlsx,New rule: Press 'space' when you see 2-back (i.e. the same letter as the one that appeared 2 letters ago.),z,None,,,,,,,,,0,10,10,10,0,3,3,3,,,,,,,,,,,,,,,,,,,,,,,,,,,,,,,,,,,,,,,,,,,,,,,,,,,,,,,,,,,,,,,,,,,,,1.6486,929.1514061000198,None,None,1,929.1514061000198,None,,P017,fencog,1,Pre,2021_Oct_28_1124,N-Back (New Version 2021),2021.1.4,120.01041703940268,
,,,,Conditions/Version_1/twoback(3)_v1.xlsx,New rule: Press 'space' when you see 2-back (i.e. the same letter as the one that appeared 2 letters ago.),X,None,,,,,,,,,0,10,10,10,0,4,4,4,,,,,,,,,,,,,,,,,,,,,,,,,,,,,,,,,,,,,,,,,,,,,,,,,,,,,,,,,,,,,,,,,,,,,1.1154,932.2706064000959,None,None,1,932.2706064000959,None,,P017,fencog,1,Pre,2021_Oct_28_1124,N-Back (New Version 2021),2021.1.4,120.01041703940268,
,,,,Conditions/Version_1/twoback(3)_v1.xlsx,New rule: Press 'space' when you see 2-back (i.e. the same letter as the one that appeared 2 letters ago.),z,space,,,,,,,,,0,10,10,10,0,5,5,5,,,,,,,,,,,,,,,,,,,,,,,,,,,,,,,,,,,,,,,,,,,,,,,,,,,,,,,,,,,,,,,,,,,,,1.3014,935.5784632000141,None,space,1,935.5784632000141,None,0.43984510004520416,P017,fencog,1,Pre,2021_Oct_28_1124,N-Back (New Version 2021),2021.1.4,120.01041703940268,
,,,,Conditions/Version_1/twoback(3)_v1.xlsx,New rule: Press 'space' when you see 2-back (i.e. the same letter as the one that appeared 2 letters ago.),x,space,,,,,,,,,0,10,10,10,0,6,6,6,,,,,,,,,,,,,,,,,,,,,,,,,,,,,,,,,,,,,,,,,,,,,,,,,,,,,,,,,,,,,,,,,,,,,1.2952,938.8771695999894,None,space,1,938.8771695999894,None,0.48493109992705286,P017,fencog,1,Pre,2021_Oct_28_1124,N-Back (New Version 2021),2021.1.4,120.01041703940268,
,,,,Conditions/Version_1/twoback(3)_v1.xlsx,New rule: Press 'space' when you see 2-back (i.e. the same letter as the one that appeared 2 letters ago.),c,None,,,,,,,,,0,10,10,10,0,7,7,7,,,,,,,,,,,,,,,,,,,,,,,,,,,,,,,,,,,,,,,,,,,,,,,,,,,,,,,,,,,,,,,,,,,,,1.2766,942.1595546000171,None,None,1,942.1595546000171,None,,P017,fencog,1,Pre,2021_Oct_28_1124,N-Back (New Version 2021),2021.1.4,120.01041703940268,
,,,,Conditions/Version_1/twoback(3)_v1.xlsx,New rule: Press 'space' when you see 2-back (i.e. the same letter as the one that appeared 2 letters ago.),i,None,,,,,,,,,0,10,10,10,0,8,8,8,,,,,,,,,,,,,,,,,,,,,,,,,,,,,,,,,,,,,,,,,,,,,,,,,,,,,,,,,,,,,,,,,,,,,1.041,945.2059156000614,None,None,1,945.2059156000614,None,,P017,fencog,1,Pre,2021_Oct_28_1124,N-Back (New Version 2021),2021.1.4,120.01041703940268,
,,,,Conditions/Version_1/twoback(3)_v1.xlsx,New rule: Press 'space' when you see 2-back (i.e. the same letter as the one that appeared 2 letters ago.),C,space,,,,,,,,,0,10,10,10,0,9,9,9,,,,,,,,,,,,,,,,,,,,,,,,,,,,,,,,,,,,,,,,,,,,,,,,,,,,,,,,,,,,,,,,,,,,,1.4316,948.6462199999951,None,space,1,948.6462199999951,None,0.31565939995925874,P017,fencog,1,Pre,2021_Oct_28_1124,N-Back (New Version 2021),2021.1.4,120.01041703940268,
,,,,Conditions/Version_1/twoback(3)_v1.xlsx,New rule: Press 'space' when you see 2-back (i.e. the same letter as the one that appeared 2 letters ago.),,,,,,,,,,,0,10,10,10,,,,,,,,,,,,,,,,,,,,,,,,,,,,,,,,,,,,,,,,,,,,,,,,,,,,,,,,,,,,,,,,,,,,,,,,,,,,,,,,,P017,fencog,1,Pre,2021_Oct_28_1124,N-Back (New Version 2021),2021.1.4,120.01041703940268,
,,,,Conditions/Version_1/oneback(3)_v1.xlsx,New rule: Press 'space' when you see 1-back (i.e. the same letter as the one that appeared 1 letter ago.),o,None,,,,,,,,,0,11,11,11,0,0,0,0,,,,,,,,,,,,,,,,,,,,,,,,,,,,,,,,,,,,,,,,,,,,,,,,,,,,,,,,,,,950.6639239999931,None,953.6454605000326,None,space,1.6366996000288054,953.6454605000326,None,950.6639239999931,None,1.7602,957.072574299993,None,None,1,957.072574299993,None,,P017,fencog,1,Pre,2021_Oct_28_1124,N-Back (New Version 2021),2021.1.4,120.01041703940268,
,,,,Conditions/Version_1/oneback(3)_v1.xlsx,New rule: Press 'space' when you see 1-back (i.e. the same letter as the one that appeared 1 letter ago.),O,space,,,,,,,,,0,11,11,11,0,1,1,1,,,,,,,,,,,,,,,,,,,,,,,,,,,,,,,,,,,,,,,,,,,,,,,,,,,,,,,,,,,,,,,,,,,,,1.5308,960.6151197000872,None,space,1,960.6151197000872,None,0.48260009998921305,P017,fencog,1,Pre,2021_Oct_28_1124,N-Back (New Version 2021),2021.1.4,120.01041703940268,
,,,,Conditions/Version_1/oneback(3)_v1.xlsx,New rule: Press 'space' when you see 1-back (i.e. the same letter as the one that appeared 1 letter ago.),h,None,,,,,,,,,0,11,11,11,0,2,2,2,,,,,,,,,,,,,,,,,,,,,,,,,,,,,,,,,,,,,,,,,,,,,,,,,,,,,,,,,,,,,,,,,,,,,1.7292,964.352777000051,None,None,1,964.352777000051,None,,P017,fencog,1,Pre,2021_Oct_28_1124,N-Back (New Version 2021),2021.1.4,120.01041703940268,
,,,,Conditions/Version_1/oneback(3)_v1.xlsx,New rule: Press 'space' when you see 1-back (i.e. the same letter as the one that appeared 1 letter ago.),g,None,,,,,,,,,0,11,11,11,0,3,3,3,,,,,,,,,,,,,,,,,,,,,,,,,,,,,,,,,,,,,,,,,,,,,,,,,,,,,,,,,,,,,,,,,,,,,1.7044,968.0613350000931,None,None,1,968.0613350000931,None,,P017,fencog,1,Pre,2021_Oct_28_1124,N-Back (New Version 2021),2021.1.4,120.01041703940268,
,,,,Conditions/Version_1/oneback(3)_v1.xlsx,New rule: Press 'space' when you see 1-back (i.e. the same letter as the one that appeared 1 letter ago.),n,None,,,,,,,,,0,11,11,11,0,4,4,4,,,,,,,,,,,,,,,,,,,,,,,,,,,,,,,,,,,,,,,,,,,,,,,,,,,,,,,,,,,,,,,,,,,,,1.7478,971.8175899999915,None,None,1,971.8175899999915,None,,P017,fencog,1,Pre,2021_Oct_28_1124,N-Back (New Version 2021),2021.1.4,120.01041703940268,
,,,,Conditions/Version_1/oneback(3)_v1.xlsx,New rule: Press 'space' when you see 1-back (i.e. the same letter as the one that appeared 1 letter ago.),z,None,,,,,,,,,0,11,11,11,0,5,5,5,,,,,,,,,,,,,,,,,,,,,,,,,,,,,,,,,,,,,,,,,,,,,,,,,,,,,,,,,,,,,,,,,,,,,1.661,975.4882630000357,None,None,1,975.4882630000357,None,,P017,fencog,1,Pre,2021_Oct_28_1124,N-Back (New Version 2021),2021.1.4,120.01041703940268,
,,,,Conditions/Version_1/oneback(3)_v1.xlsx,New rule: Press 'space' when you see 1-back (i.e. the same letter as the one that appeared 1 letter ago.),X,None,,,,,,,,,0,11,11,11,0,6,6,6,,,,,,,,,,,,,,,,,,,,,,,,,,,,,,,,,,,,,,,,,,,,,,,,,,,,,,,,,,,,,,,,,,,,,1.537,979.0322891999967,None,None,1,979.0322891999967,None,,P017,fencog,1,Pre,2021_Oct_28_1124,N-Back (New Version 2021),2021.1.4,120.01041703940268,
,,,,Conditions/Version_1/oneback(3)_v1.xlsx,New rule: Press 'space' when you see 1-back (i.e. the same letter as the one that appeared 1 letter ago.),r,None,,,,,,,,,0,11,11,11,0,7,7,7,,,,,,,,,,,,,,,,,,,,,,,,,,,,,,,,,,,,,,,,,,,,,,,,,,,,,,,,,,,,,,,,,,,,,1.2146,982.2501958000939,None,None,1,982.2501958000939,None,,P017,fencog,1,Pre,2021_Oct_28_1124,N-Back (New Version 2021),2021.1.4,120.01041703940268,
,,,,Conditions/Version_1/oneback(3)_v1.xlsx,New rule: Press 'space' when you see 1-back (i.e. the same letter as the one that appeared 1 letter ago.),r,space,,,,,,,,,0,11,11,11,0,8,8,8,,,,,,,,,,,,,,,,,,,,,,,,,,,,,,,,,,,,,,,,,,,,,,,,,,,,,,,,,,,,,,,,,,,,,1.7974,986.0546367000788,None,space,1,986.0546367000788,None,0.4833090000320226,P017,fencog,1,Pre,2021_Oct_28_1124,N-Back (New Version 2021),2021.1.4,120.01041703940268,
,,,,Conditions/Version_1/oneback(3)_v1.xlsx,New rule: Press 'space' when you see 1-back (i.e. the same letter as the one that appeared 1 letter ago.),P,None,,,,,,,,,0,11,11,11,0,9,9,9,,,,,,,,,,,,,,,,,,,,,,,,,,,,,,,,,,,,,,,,,,,,,,,,,,,,,,,,,,,,,,,,,,,,,1.1588,989.2222797999857,None,None,1,989.2222797999857,None,,P017,fencog,1,Pre,2021_Oct_28_1124,N-Back (New Version 2021),2021.1.4,120.01041703940268,
,,,,Conditions/Version_1/oneback(3)_v1.xlsx,New rule: Press 'space' when you see 1-back (i.e. the same letter as the one that appeared 1 letter ago.),,,,,,,,,,,0,11,11,11,,,,,,,,,,,,,,,,,,,,,,,,,,,,,,,,,,,,,,,,,,,,,,,,,,,,,,,,,,,,,,,,,,,,,,,,,,,,,,,,,P017,fencog,1,Pre,2021_Oct_28_1124,N-Back (New Version 2021),2021.1.4,120.01041703940268,
,,,,Conditions/Version_1/twoback(4)_v1.xlsx,New rule: Press 'space' when you see 2-back (i.e. the same letter as the one that appeared 2 letters ago.),r,None,,,,,,,,,0,12,12,12,0,0,0,0,,,,,,,,,,,,,,,,,,,,,,,,,,,,,,,,,,,,,,,,,,,,,,,,,,,,,,,,,,,991.2469688000856,None,994.2307913000695,None,space,1.7470326999900863,994.2307913000695,None,991.2469688000856,None,1.8532,997.8512873,None,None,1,997.8512873,None,,P017,fencog,1,Pre,2021_Oct_28_1124,N-Back (New Version 2021),2021.1.4,120.01041703940268,
,,,,Conditions/Version_1/twoback(4)_v1.xlsx,New rule: Press 'space' when you see 2-back (i.e. the same letter as the one that appeared 2 letters ago.),T,None,,,,,,,,,0,12,12,12,0,1,1,1,,,,,,,,,,,,,,,,,,,,,,,,,,,,,,,,,,,,,,,,,,,,,,,,,,,,,,,,,,,,,,,,,,,,,1.8098,1001.6752391000045,None,None,1,1001.6752391000045,None,,P017,fencog,1,Pre,2021_Oct_28_1124,N-Back (New Version 2021),2021.1.4,120.01041703940268,
,,,,Conditions/Version_1/twoback(4)_v1.xlsx,New rule: Press 'space' when you see 2-back (i.e. the same letter as the one that appeared 2 letters ago.),o,None,,,,,,,,,0,12,12,12,0,2,2,2,,,,,,,,,,,,,,,,,,,,,,,,,,,,,,,,,,,,,,,,,,,,,,,,,,,,,,,,,,,,,,,,,,,,,1.4688,1005.1490630999906,None,None,1,1005.1490630999906,None,,P017,fencog,1,Pre,2021_Oct_28_1124,N-Back (New Version 2021),2021.1.4,120.01041703940268,
,,,,Conditions/Version_1/twoback(4)_v1.xlsx,New rule: Press 'space' when you see 2-back (i.e. the same letter as the one that appeared 2 letters ago.),p,None,,,,,,,,,0,12,12,12,0,3,3,3,,,,,,,,,,,,,,,,,,,,,,,,,,,,,,,,,,,,,,,,,,,,,,,,,,,,,,,,,,,,,,,,,,,,,1.165,1008.3147062000353,None,None,1,1008.3147062000353,None,,P017,fencog,1,Pre,2021_Oct_28_1124,N-Back (New Version 2021),2021.1.4,120.01041703940268,
,,,,Conditions/Version_1/twoback(4)_v1.xlsx,New rule: Press 'space' when you see 2-back (i.e. the same letter as the one that appeared 2 letters ago.),p,None,,,,,,,,,0,12,12,12,0,4,4,4,,,,,,,,,,,,,,,,,,,,,,,,,,,,,,,,,,,,,,,,,,,,,,,,,,,,,,,,,,,,,,,,,,,,,1.134,1011.4556126000825,None,None,1,1011.4556126000825,None,,P017,fencog,1,Pre,2021_Oct_28_1124,N-Back (New Version 2021),2021.1.4,120.01041703940268,
,,,,Conditions/Version_1/twoback(4)_v1.xlsx,New rule: Press 'space' when you see 2-back (i.e. the same letter as the one that appeared 2 letters ago.),y,None,,,,,,,,,0,12,12,12,0,5,5,5,,,,,,,,,,,,,,,,,,,,,,,,,,,,,,,,,,,,,,,,,,,,,,,,,,,,,,,,,,,,,,,,,,,,,1.5494,1015.0129295000806,None,None,1,1015.0129295000806,None,,P017,fencog,1,Pre,2021_Oct_28_1124,N-Back (New Version 2021),2021.1.4,120.01041703940268,
,,,,Conditions/Version_1/twoback(4)_v1.xlsx,New rule: Press 'space' when you see 2-back (i.e. the same letter as the one that appeared 2 letters ago.),P,space,,,,,,,,,0,12,12,12,0,6,6,6,,,,,,,,,,,,,,,,,,,,,,,,,,,,,,,,,,,,,,,,,,,,,,,,,,,,,,,,,,,,,,,,,,,,,1.5928,1018.6128230000613,None,space,1,1018.6128230000613,None,0.9090870999498293,P017,fencog,1,Pre,2021_Oct_28_1124,N-Back (New Version 2021),2021.1.4,120.01041703940268,
,,,,Conditions/Version_1/twoback(4)_v1.xlsx,New rule: Press 'space' when you see 2-back (i.e. the same letter as the one that appeared 2 letters ago.),y,None,,,,,,,,,0,12,12,12,0,7,7,7,,,,,,,,,,,,,,,,,,,,,,,,,,,,,,,,,,,,,,,,,,,,,,,,,,,,,,,,,,,,,,,,,,,,,1.8284,1022.4533323000651,None,space,0,1022.4533323000651,None,0.7885819999501109,P017,fencog,1,Pre,2021_Oct_28_1124,N-Back (New Version 2021),2021.1.4,120.01041703940268,
,,,,Conditions/Version_1/twoback(4)_v1.xlsx,New rule: Press 'space' when you see 2-back (i.e. the same letter as the one that appeared 2 letters ago.),y,space,,,,,,,,,0,12,12,12,0,8,8,8,,,,,,,,,,,,,,,,,,,,,,,,,,,,,,,,,,,,,,,,,,,,,,,,,,,,,,,,,,,,,,,,,,,,,1.5246,1025.9846193999983,None,None,0,1025.9846193999983,None,,P017,fencog,1,Pre,2021_Oct_28_1124,N-Back (New Version 2021),2021.1.4,120.01041703940268,
,,,,Conditions/Version_1/twoback(4)_v1.xlsx,New rule: Press 'space' when you see 2-back (i.e. the same letter as the one that appeared 2 letters ago.),,,,,,,,,,,0,12,12,12,,,,,,,,,,,,,,,,,,,,,,,,,,,,,,,,,,,,,,,,,,,,,,,,,,,,,,,,,,,,,,,,,,,,,,,,,,,,,,,,,P017,fencog,1,Pre,2021_Oct_28_1124,N-Back (New Version 2021),2021.1.4,120.01041703940268,
,,,,Conditions/Version_1/zeroback(4)_v1.xlsx,New rule: Press 'space' when you see the letter 'x' or 'X'.,o,None,,,,,,,,,0,13,13,13,0,0,0,0,,,,,,,,,,,,,,,,,,,,,,,,,,,,,,,,,,,,,,,,,,,,,,,,,,,,,,,,,,,1028.0393451000564,None,1031.0323740000604,None,space,0.8411817000014707,1031.0323740000604,None,1028.0393451000564,None,1.1712,1033.0740749000106,None,None,1,1033.0740749000106,None,,P017,fencog,1,Pre,2021_Oct_28_1124,N-Back (New Version 2021),2021.1.4,120.01041703940268,
,,,,Conditions/Version_1/zeroback(4)_v1.xlsx,New rule: Press 'space' when you see the letter 'x' or 'X'.,X,space,,,,,,,,,0,13,13,13,0,1,1,1,,,,,,,,,,,,,,,,,,,,,,,,,,,,,,,,,,,,,,,,,,,,,,,,,,,,,,,,,,,,,,,,,,,,,1.8718,1036.956258399994,None,space,1,1036.956258399994,None,0.8056259999284521,P017,fencog,1,Pre,2021_Oct_28_1124,N-Back (New Version 2021),2021.1.4,120.01041703940268,
,,,,Conditions/Version_1/zeroback(4)_v1.xlsx,New rule: Press 'space' when you see the letter 'x' or 'X'.,p,None,,,,,,,,,0,13,13,13,0,2,2,2,,,,,,,,,,,,,,,,,,,,,,,,,,,,,,,,,,,,,,,,,,,,,,,,,,,,,,,,,,,,,,,,,,,,,1.5246,1040.4829662000993,None,None,1,1040.4829662000993,None,,P017,fencog,1,Pre,2021_Oct_28_1124,N-Back (New Version 2021),2021.1.4,120.01041703940268,
,,,,Conditions/Version_1/zeroback(4)_v1.xlsx,New rule: Press 'space' when you see the letter 'x' or 'X'.,m,None,,,,,,,,,0,13,13,13,0,3,3,3,,,,,,,,,,,,,,,,,,,,,,,,,,,,,,,,,,,,,,,,,,,,,,,,,,,,,,,,,,,,,,,,,,,,,1.4626,1043.9575528000714,None,None,1,1043.9575528000714,None,,P017,fencog,1,Pre,2021_Oct_28_1124,N-Back (New Version 2021),2021.1.4,120.01041703940268,
,,,,Conditions/Version_1/zeroback(4)_v1.xlsx,New rule: Press 'space' when you see the letter 'x' or 'X'.,n,None,,,,,,,,,0,13,13,13,0,4,4,4,,,,,,,,,,,,,,,,,,,,,,,,,,,,,,,,,,,,,,,,,,,,,,,,,,,,,,,,,,,,,,,,,,,,,1.4812,1047.4454003000865,None,None,1,1047.4454003000865,None,,P017,fencog,1,Pre,2021_Oct_28_1124,N-Back (New Version 2021),2021.1.4,120.01041703940268,
,,,,Conditions/Version_1/zeroback(4)_v1.xlsx,New rule: Press 'space' when you see the letter 'x' or 'X'.,m,None,,,,,,,,,0,13,13,13,0,5,5,5,,,,,,,,,,,,,,,,,,,,,,,,,,,,,,,,,,,,,,,,,,,,,,,,,,,,,,,,,,,,,,,,,,,,,1.0162,1050.460467900033,None,None,1,1050.460467900033,None,,P017,fencog,1,Pre,2021_Oct_28_1124,N-Back (New Version 2021),2021.1.4,120.01041703940268,
,,,,Conditions/Version_1/zeroback(4)_v1.xlsx,New rule: Press 'space' when you see the letter 'x' or 'X'.,C,None,,,,,,,,,0,13,13,13,0,6,6,6,,,,,,,,,,,,,,,,,,,,,,,,,,,,,,,,,,,,,,,,,,,,,,,,,,,,,,,,,,,,,,,,,,,,,1.4006,1053.859537600074,None,None,1,1053.859537600074,None,,P017,fencog,1,Pre,2021_Oct_28_1124,N-Back (New Version 2021),2021.1.4,120.01041703940268,
,,,,Conditions/Version_1/zeroback(4)_v1.xlsx,New rule: Press 'space' when you see the letter 'x' or 'X'.,m,None,,,,,,,,,0,13,13,13,0,7,7,7,,,,,,,,,,,,,,,,,,,,,,,,,,,,,,,,,,,,,,,,,,,,,,,,,,,,,,,,,,,,,,,,,,,,,1.2332,1057.1002838000422,None,None,1,1057.1002838000422,None,,P017,fencog,1,Pre,2021_Oct_28_1124,N-Back (New Version 2021),2021.1.4,120.01041703940268,
,,,,Conditions/Version_1/zeroback(4)_v1.xlsx,New rule: Press 'space' when you see the letter 'x' or 'X'.,p,None,,,,,,,,,0,13,13,13,0,8,8,8,,,,,,,,,,,,,,,,,,,,,,,,,,,,,,,,,,,,,,,,,,,,,,,,,,,,,,,,,,,,,,,,,,,,,1.6114,1060.7180627000052,None,None,1,1060.7180627000052,None,,P017,fencog,1,Pre,2021_Oct_28_1124,N-Back (New Version 2021),2021.1.4,120.01041703940268,
,,,,Conditions/Version_1/zeroback(4)_v1.xlsx,New rule: Press 'space' when you see the letter 'x' or 'X'.,X,space,,,,,,,,,0,13,13,13,0,9,9,9,,,,,,,,,,,,,,,,,,,,,,,,,,,,,,,,,,,,,,,,,,,,,,,,,,,,,,,,,,,,,,,,,,,,,1.9834,1064.7062785000307,None,space,1,1064.7062785000307,None,0.575693599996157,P017,fencog,1,Pre,2021_Oct_28_1124,N-Back (New Version 2021),2021.1.4,120.01041703940268,
,,,,Conditions/Version_1/zeroback(4)_v1.xlsx,New rule: Press 'space' when you see the letter 'x' or 'X'.,,,,,,,,,,,0,13,13,13,,,,,,,,,,,,,,,,,,,,,,,,,,,,,,,,,,,,,,,,,,,,,,,,,,,,,,,,,,,,,,,,,,,,,,,,,,,,,,,,,P017,fencog,1,Pre,2021_Oct_28_1124,N-Back (New Version 2021),2021.1.4,120.01041703940268,
,,,,Conditions/Version_1/oneback(4)_v1.xlsx,New rule: Press 'space' when you see 1-back (i.e. the same letter as the one that appeared 1 letter ago.),w,None,,,,,,,,,0,14,14,14,0,0,0,0,,,,,,,,,,,,,,,,,,,,,,,,,,,,,,,,,,,,,,,,,,,,,,,,,,,,,,,,,,,1066.7400752000976,None,1069.7242447000463,None,space,2.5575968000339344,1069.7242447000463,None,1066.7400752000976,None,1.7168,1074.0305043000262,None,None,1,1074.0305043000262,None,,P017,fencog,1,Pre,2021_Oct_28_1124,N-Back (New Version 2021),2021.1.4,120.01041703940268,
,,,,Conditions/Version_1/oneback(4)_v1.xlsx,New rule: Press 'space' when you see 1-back (i.e. the same letter as the one that appeared 1 letter ago.),q,None,,,,,,,,,0,14,14,14,0,1,1,1,,,,,,,,,,,,,,,,,,,,,,,,,,,,,,,,,,,,,,,,,,,,,,,,,,,,,,,,,,,,,,,,,,,,,1.909,1077.953254000051,None,None,1,1077.953254000051,None,,P017,fencog,1,Pre,2021_Oct_28_1124,N-Back (New Version 2021),2021.1.4,120.01041703940268,
,,,,Conditions/Version_1/oneback(4)_v1.xlsx,New rule: Press 'space' when you see 1-back (i.e. the same letter as the one that appeared 1 letter ago.),i,None,,,,,,,,,0,14,14,14,0,2,2,2,,,,,,,,,,,,,,,,,,,,,,,,,,,,,,,,,,,,,,,,,,,,,,,,,,,,,,,,,,,,,,,,,,,,,1.5804,1081.5349463000894,None,None,1,1081.5349463000894,None,,P017,fencog,1,Pre,2021_Oct_28_1124,N-Back (New Version 2021),2021.1.4,120.01041703940268,
,,,,Conditions/Version_1/oneback(4)_v1.xlsx,New rule: Press 'space' when you see 1-back (i.e. the same letter as the one that appeared 1 letter ago.),t,None,,,,,,,,,0,14,14,14,0,3,3,3,,,,,,,,,,,,,,,,,,,,,,,,,,,,,,,,,,,,,,,,,,,,,,,,,,,,,,,,,,,,,,,,,,,,,1.599,1085.1422609,None,None,1,1085.1422609,None,,P017,fencog,1,Pre,2021_Oct_28_1124,N-Back (New Version 2021),2021.1.4,120.01041703940268,
,,,,Conditions/Version_1/oneback(4)_v1.xlsx,New rule: Press 'space' when you see 1-back (i.e. the same letter as the one that appeared 1 letter ago.),v,None,,,,,,,,,0,14,14,14,0,4,4,4,,,,,,,,,,,,,,,,,,,,,,,,,,,,,,,,,,,,,,,,,,,,,,,,,,,,,,,,,,,,,,,,,,,,,1.3014,1088.450108100078,None,None,1,1088.450108100078,None,,P017,fencog,1,Pre,2021_Oct_28_1124,N-Back (New Version 2021),2021.1.4,120.01041703940268,
,,,,Conditions/Version_1/oneback(4)_v1.xlsx,New rule: Press 'space' when you see 1-back (i.e. the same letter as the one that appeared 1 letter ago.),V,space,,,,,,,,,0,14,14,14,0,5,5,5,,,,,,,,,,,,,,,,,,,,,,,,,,,,,,,,,,,,,,,,,,,,,,,,,,,,,,,,,,,,,,,,,,,,,1.8222,1092.2831439999864,None,space,1,1092.2831439999864,None,0.4224129000212997,P017,fencog,1,Pre,2021_Oct_28_1124,N-Back (New Version 2021),2021.1.4,120.01041703940268,
,,,,Conditions/Version_1/oneback(4)_v1.xlsx,New rule: Press 'space' when you see 1-back (i.e. the same letter as the one that appeared 1 letter ago.),v,space,,,,,,,,,0,14,14,14,0,6,6,6,,,,,,,,,,,,,,,,,,,,,,,,,,,,,,,,,,,,,,,,,,,,,,,,,,,,,,,,,,,,,,,,,,,,,1.9462,1096.2408613000298,None,space,1,1096.2408613000298,None,0.6892014000331983,P017,fencog,1,Pre,2021_Oct_28_1124,N-Back (New Version 2021),2021.1.4,120.01041703940268,
,,,,Conditions/Version_1/oneback(4)_v1.xlsx,New rule: Press 'space' when you see 1-back (i.e. the same letter as the one that appeared 1 letter ago.),p,None,,,,,,,,,0,14,14,14,0,7,7,7,,,,,,,,,,,,,,,,,,,,,,,,,,,,,,,,,,,,,,,,,,,,,,,,,,,,,,,,,,,,,,,,,,,,,1.9152,1100.1625277000712,None,None,1,1100.1625277000712,None,,P017,fencog,1,Pre,2021_Oct_28_1124,N-Back (New Version 2021),2021.1.4,120.01041703940268,
,,,,Conditions/Version_1/oneback(4)_v1.xlsx,New rule: Press 'space' when you see 1-back (i.e. the same letter as the one that appeared 1 letter ago.),w,None,,,,,,,,,0,14,14,14,0,8,8,8,,,,,,,,,,,,,,,,,,,,,,,,,,,,,,,,,,,,,,,,,,,,,,,,,,,,,,,,,,,,,,,,,,,,,1.4812,1103.6510112000396,None,None,1,1103.6510112000396,None,,P017,fencog,1,Pre,2021_Oct_28_1124,N-Back (New Version 2021),2021.1.4,120.01041703940268,
,,,,Conditions/Version_1/oneback(4)_v1.xlsx,New rule: Press 'space' when you see 1-back (i.e. the same letter as the one that appeared 1 letter ago.),W,space,,,,,,,,,0,14,14,14,0,9,9,9,,,,,,,,,,,,,,,,,,,,,,,,,,,,,,,,,,,,,,,,,,,,,,,,,,,,,,,,,,,,,,,,,,,,,1.4626,1107.1187749000965,None,space,1,1107.1187749000965,None,0.38613939995411783,P017,fencog,1,Pre,2021_Oct_28_1124,N-Back (New Version 2021),2021.1.4,120.01041703940268,
,,,,Conditions/Version_1/oneback(4)_v1.xlsx,New rule: Press 'space' when you see 1-back (i.e. the same letter as the one that appeared 1 letter ago.),,,,,,,,,,,0,14,14,14,,,,,,,,,,,,,,,,,,,,,,,,,,,,,,,,,,,,,,,,,,,,,,,,,,,,,,,,,,,,,,,,,,,,,,,,,,,,,,,,,P017,fencog,1,Pre,2021_Oct_28_1124,N-Back (New Version 2021),2021.1.4,120.01041703940268,
,,,,Conditions/Version_1/threeback(4)_v1.xlsx,New rule: Press 'space' when you see 3-back (i.e. the same letter as the one that appeared 3 letters ago.),A,None,,,,,,,,,0,15,15,15,0,0,0,0,,,,,,,,,,,,,,,,,,,,,,,,,,,,,,,,,,,,,,,,,,,,,,,,,,,,,,,,,,,1109.1571213999996,None,1112.1365771000274,None,space,28.37717039999552,1112.1365771000274,None,1109.1571213999996,None,1.7106,1142.2521847999888,None,None,1,1142.2521847999888,None,,P017,fencog,1,Pre,2021_Oct_28_1124,N-Back (New Version 2021),2021.1.4,120.01041703940268,
,,,,Conditions/Version_1/threeback(4)_v1.xlsx,New rule: Press 'space' when you see 3-back (i.e. the same letter as the one that appeared 3 letters ago.),n,None,,,,,,,,,0,15,15,15,0,1,1,1,,,,,,,,,,,,,,,,,,,,,,,,,,,,,,,,,,,,,,,,,,,,,,,,,,,,,,,,,,,,,,,,,,,,,1.5494,1145.8080379000166,None,None,1,1145.8080379000166,None,,P017,fencog,1,Pre,2021_Oct_28_1124,N-Back (New Version 2021),2021.1.4,120.01041703940268,
,,,,Conditions/Version_1/threeback(4)_v1.xlsx,New rule: Press 'space' when you see 3-back (i.e. the same letter as the one that appeared 3 letters ago.),g,None,,,,,,,,,0,15,15,15,0,2,2,2,,,,,,,,,,,,,,,,,,,,,,,,,,,,,,,,,,,,,,,,,,,,,,,,,,,,,,,,,,,,,,,,,,,,,1.1712,1148.9897058000788,None,None,1,1148.9897058000788,None,,P017,fencog,1,Pre,2021_Oct_28_1124,N-Back (New Version 2021),2021.1.4,120.01041703940268,
,,,,Conditions/Version_1/threeback(4)_v1.xlsx,New rule: Press 'space' when you see 3-back (i.e. the same letter as the one that appeared 3 letters ago.),A,space,,,,,,,,,0,15,15,15,0,3,3,3,,,,,,,,,,,,,,,,,,,,,,,,,,,,,,,,,,,,,,,,,,,,,,,,,,,,,,,,,,,,,,,,,,,,,1.3758,1152.3772892000852,None,space,1,1152.3772892000852,None,0.6735702999867499,P017,fencog,1,Pre,2021_Oct_28_1124,N-Back (New Version 2021),2021.1.4,120.01041703940268,
,,,,Conditions/Version_1/threeback(4)_v1.xlsx,New rule: Press 'space' when you see 3-back (i.e. the same letter as the one that appeared 3 letters ago.),p,None,,,,,,,,,0,15,15,15,0,4,4,4,,,,,,,,,,,,,,,,,,,,,,,,,,,,,,,,,,,,,,,,,,,,,,,,,,,,,,,,,,,,,,,,,,,,,1.568,1155.9550316000823,None,None,1,1155.9550316000823,None,,P017,fencog,1,Pre,2021_Oct_28_1124,N-Back (New Version 2021),2021.1.4,120.01041703940268,
,,,,Conditions/Version_1/threeback(4)_v1.xlsx,New rule: Press 'space' when you see 3-back (i.e. the same letter as the one that appeared 3 letters ago.),O,None,,,,,,,,,0,15,15,15,0,5,5,5,,,,,,,,,,,,,,,,,,,,,,,,,,,,,,,,,,,,,,,,,,,,,,,,,,,,,,,,,,,,,,,,,,,,,1.2766,1159.2516165000852,None,None,1,1159.2516165000852,None,,P017,fencog,1,Pre,2021_Oct_28_1124,N-Back (New Version 2021),2021.1.4,120.01041703940268,
,,,,Conditions/Version_1/threeback(4)_v1.xlsx,New rule: Press 'space' when you see 3-back (i.e. the same letter as the one that appeared 3 letters ago.),a,space,,,,,,,,,0,15,15,15,0,6,6,6,,,,,,,,,,,,,,,,,,,,,,,,,,,,,,,,,,,,,,,,,,,,,,,,,,,,,,,,,,,,,,,,,,,,,1.0534,1162.3112053000368,None,None,0,1162.3112053000368,None,,P017,fencog,1,Pre,2021_Oct_28_1124,N-Back (New Version 2021),2021.1.4,120.01041703940268,
,,,,Conditions/Version_1/threeback(4)_v1.xlsx,New rule: Press 'space' when you see 3-back (i.e. the same letter as the one that appeared 3 letters ago.),p,space,,,,,,,,,0,15,15,15,0,7,7,7,,,,,,,,,,,,,,,,,,,,,,,,,,,,,,,,,,,,,,,,,,,,,,,,,,,,,,,,,,,,,,,,,,,,,1.1464,1165.4597674000543,None,space,1,1165.4597674000543,None,0.8065357999876142,P017,fencog,1,Pre,2021_Oct_28_1124,N-Back (New Version 2021),2021.1.4,120.01041703940268,
,,,,Conditions/Version_1/threeback(4)_v1.xlsx,New rule: Press 'space' when you see 3-back (i.e. the same letter as the one that appeared 3 letters ago.),x,None,,,,,,,,,0,15,15,15,0,8,8,8,,,,,,,,,,,,,,,,,,,,,,,,,,,,,,,,,,,,,,,,,,,,,,,,,,,,,,,,,,,,,,,,,,,,,1.847,1169.3088487000205,None,None,1,1169.3088487000205,None,,P017,fencog,1,Pre,2021_Oct_28_1124,N-Back (New Version 2021),2021.1.4,120.01041703940268,
,,,,Conditions/Version_1/threeback(4)_v1.xlsx,New rule: Press 'space' when you see 3-back (i.e. the same letter as the one that appeared 3 letters ago.),X,None,,,,,,,,,0,15,15,15,0,9,9,9,,,,,,,,,,,,,,,,,,,,,,,,,,,,,,,,,,,,,,,,,,,,,,,,,,,,,,,,,,,,,,,,,,,,,1.4936,1172.8076798000839,None,None,1,1172.8076798000839,None,,P017,fencog,1,Pre,2021_Oct_28_1124,N-Back (New Version 2021),2021.1.4,120.01041703940268,
,,,,Conditions/Version_1/threeback(4)_v1.xlsx,New rule: Press 'space' when you see 3-back (i.e. the same letter as the one that appeared 3 letters ago.),,,,,,,,,,,0,15,15,15,,,,,,,,,,,,,,,,,,,,,,,,,,,,,,,,,,,,,,,,,,,,,,,,,,,,,,,,,,,,,,,,,,,,,,,,,,,,,,,,,P017,fencog,1,Pre,2021_Oct_28_1124,N-Back (New Version 2021),2021.1.4,120.01041703940268,
