CondFileP,InstructionsP,LettersDisplayedP,CorrectnessP,CondFile,Instructions,LettersDisplayed,Correctness,practicetrials.thisRepN,practicetrials.thisTrialN,practicetrials.thisN,practicetrials.thisIndex,InnerLoopPractice.thisRepN,InnerLoopPractice.thisTrialN,InnerLoopPractice.thisN,InnerLoopPractice.thisIndex,trials.thisRepN,trials.thisTrialN,trials.thisN,trials.thisIndex,InnerLoop.thisRepN,InnerLoop.thisTrialN,InnerLoop.thisN,InnerLoop.thisIndex,TaskVersionText.started,TaskVersionText.stopped,InstrKey1.keys,InstrKey1.rt,InstrKey1.started,InstrKey1.stopped,text.started,text.stopped,key_resp_4.keys,key_resp_4.rt,key_resp_4.started,key_resp_4.stopped,text_2.started,text_2.stopped,key_resp_3.keys,key_resp_3.rt,key_resp_3.started,key_resp_3.stopped,text_3.started,text_3.stopped,key_resp_2.keys,key_resp_2.rt,key_resp_2.started,key_resp_2.stopped,PractIn1.started,PractIn1.stopped,PractIn2.started,PractIn2.stopped,PractInstructionPass.keys,PractInstructionPass.rt,PractInstructionPass.started,PractInstructionPass.stopped,PractBlock1.started,PractBlock1.stopped,ISIjitterPractice,ISI_Pract_Fixation.started,ISI_Pract_Fixation.stopped,N_backP.started,N_backP.stopped,KeyPractice.keys,KeyPractice.corr,KeyPractice.started,KeyPractice.stopped,text_4.started,text_4.stopped,KeyPractice.rt,TransitionText.started,TransitionText.stopped,key_resp_6.keys,key_resp_6.rt,key_resp_6.started,key_resp_6.stopped,text_5.started,text_5.stopped,key_resp_5.keys,key_resp_5.rt,key_resp_5.started,key_resp_5.stopped,MainInt1.started,MainInt1.stopped,MainInt2.started,MainInt2.stopped,InstructionPass.keys,InstructionPass.rt,InstructionPass.started,InstructionPass.stopped,Blocks1.started,Blocks1.stopped,ISIjitter,N_backD.started,N_backD.stopped,key_resp.keys,key_resp.corr,key_resp.started,key_resp.stopped,key_resp.rt,participant,Study Name,Task Version (required to run),PRE/POST,date,expName,psychopyVersion,frameRate
,,,,,,,,,,,,,,,,,,,,,,,,57.7873146,None,space,0.3114814,58.2762749,None,,,,,,,,,,,,,,,,,,,,,,,,,,,,,,,,,,,,,,,,,,,,,,,,,,,,,,,,,,,,,,,,,,,,,,,P018,fencog,1,Post,2021_Nov_05_1155,N-Back (New Version 2021),2021.1.4,119.6961154
,,,,,,,,,,,,,,,,,,,,,,,,,,,,,,58.6237236,None,space,30.5014087,59.1182838,None,,,,,,,,,,,,,,,,,,,,,,,,,,,,,,,,,,,,,,,,,,,,,,,,,,,,,,,,,,,,,,,,,P018,fencog,1,Post,2021_Nov_05_1155,N-Back (New Version 2021),2021.1.4,119.6961154
,,,,,,,,,,,,,,,,,,,,,,,,,,,,,,,,,,,,89.660977,None,space,4.956617,90.1510201,None,,,,,,,,,,,,,,,,,,,,,,,,,,,,,,,,,,,,,,,,,,,,,,,,,,,,,,,,,,,P018,fencog,1,Post,2021_Nov_05_1155,N-Back (New Version 2021),2021.1.4,119.6961154
,,,,,,,,,,,,,,,,,,,,,,,,,,,,,,,,,,,,,,,,,,95.1323126,None,space,1.1951343,95.6243466,None,,,,,,,,,,,,,,,,,,,,,,,,,,,,,,,,,,,,,,,,,,,,,,,,,,,,,P018,fencog,1,Post,2021_Nov_05_1155,N-Back (New Version 2021),2021.1.4,119.6961154
Conditions/Version_1Pr/zeroback(1)_v1.xlsx,Rule: Press 'space' when you see the letter 'x' or 'X'.,Z,None,,,,,0,0,0,0,0,0,0,0,,,,,,,,,,,,,,,,,,,,,,,,,,,,,,,,,98.2222567,None,101.2071469,None,space,1.4283571,101.2071469,None,98.2222567,None,1.64,102.666043,None,104.3150207,None,None,1,104.3150207,None,106.3215427,None,,,,,,,,,,,,,,,,,,,,,,,,,,,,,,,,P018,fencog,1,Post,2021_Nov_05_1155,N-Back (New Version 2021),2021.1.4,119.6961154
Conditions/Version_1Pr/zeroback(1)_v1.xlsx,Rule: Press 'space' when you see the letter 'x' or 'X'.,r,None,,,,,0,0,0,0,0,1,1,1,,,,,,,,,,,,,,,,,,,,,,,,,,,,,,,,,,,,,,,,,,,1.04,107.8195698,None,108.8625568,None,None,1,108.8625568,None,110.8689381,None,,,,,,,,,,,,,,,,,,,,,,,,,,,,,,,,P018,fencog,1,Post,2021_Nov_05_1155,N-Back (New Version 2021),2021.1.4,119.6961154
Conditions/Version_1Pr/zeroback(1)_v1.xlsx,Rule: Press 'space' when you see the letter 'x' or 'X'.,X,space,,,,,0,0,0,0,0,2,2,2,,,,,,,,,,,,,,,,,,,,,,,,,,,,,,,,,,,,,,,,,,,1.915,112.3686317,None,114.2870038,None,space,1,114.2870038,None,114.5928931,None,0.2922668,,,,,,,,,,,,,,,,,,,,,,,,,,,,,,,P018,fencog,1,Post,2021_Nov_05_1155,N-Back (New Version 2021),2021.1.4,119.6961154
Conditions/Version_1Pr/zeroback(1)_v1.xlsx,Rule: Press 'space' when you see the letter 'x' or 'X'.,p,None,,,,,0,0,0,0,0,3,3,3,,,,,,,,,,,,,,,,,,,,,,,,,,,,,,,,,,,,,,,,,,,1.215,116.0921621,None,117.3102357,None,space,0,117.3102357,None,117.7902802,None,0.4612082,,,,,,,,,,,,,,,,,,,,,,,,,,,,,,,P018,fencog,1,Post,2021_Nov_05_1155,N-Back (New Version 2021),2021.1.4,119.6961154
Conditions/Version_1Pr/zeroback(1)_v1.xlsx,Rule: Press 'space' when you see the letter 'x' or 'X'.,w,None,,,,,0,0,0,0,0,4,4,4,,,,,,,,,,,,,,,,,,,,,,,,,,,,,,,,,,,,,,,,,,,1.89,119.2914846,None,121.1855566,None,None,1,121.1855566,None,123.1934352,None,,,,,,,,,,,,,,,,,,,,,,,,,,,,,,,,P018,fencog,1,Post,2021_Nov_05_1155,N-Back (New Version 2021),2021.1.4,119.6961154
Conditions/Version_1Pr/zeroback(1)_v1.xlsx,Rule: Press 'space' when you see the letter 'x' or 'X'.,e,None,,,,,0,0,0,0,0,5,5,5,,,,,,,,,,,,,,,,,,,,,,,,,,,,,,,,,,,,,,,,,,,1.09,124.6898748,None,125.7815282,None,space,0,125.7815282,None,126.1174583,None,0.3178498,,,,,,,,,,,,,,,,,,,,,,,,,,,,,,,P018,fencog,1,Post,2021_Nov_05_1155,N-Back (New Version 2021),2021.1.4,119.6961154
Conditions/Version_1Pr/zeroback(1)_v1.xlsx,Rule: Press 'space' when you see the letter 'x' or 'X'.,X,space,,,,,0,0,0,0,0,6,6,6,,,,,,,,,,,,,,,,,,,,,,,,,,,,,,,,,,,,,,,,,,,1.865,127.6258053,None,129.4965688,None,space,1,129.4965688,None,129.8343803,None,0.3229467,,,,,,,,,,,,,,,,,,,,,,,,,,,,,,,P018,fencog,1,Post,2021_Nov_05_1155,N-Back (New Version 2021),2021.1.4,119.6961154
Conditions/Version_1Pr/zeroback(1)_v1.xlsx,Rule: Press 'space' when you see the letter 'x' or 'X'.,x,space,,,,,0,0,0,0,0,7,7,7,,,,,,,,,,,,,,,,,,,,,,,,,,,,,,,,,,,,,,,,,,,1.49,131.33781,None,132.8296209,None,space,1,132.8296209,None,133.4967401,None,0.6538139,,,,,,,,,,,,,,,,,,,,,,,,,,,,,,,P018,fencog,1,Post,2021_Nov_05_1155,N-Back (New Version 2021),2021.1.4,119.6961154
Conditions/Version_1Pr/zeroback(1)_v1.xlsx,Rule: Press 'space' when you see the letter 'x' or 'X'.,p,None,,,,,0,0,0,0,0,8,8,8,,,,,,,,,,,,,,,,,,,,,,,,,,,,,,,,,,,,,,,,,,,1.165,135.0034701,None,136.1694147,None,space,0,136.1694147,None,136.5485109,None,0.3622364,,,,,,,,,,,,,,,,,,,,,,,,,,,,,,,P018,fencog,1,Post,2021_Nov_05_1155,N-Back (New Version 2021),2021.1.4,119.6961154
Conditions/Version_1Pr/zeroback(1)_v1.xlsx,Rule: Press 'space' when you see the letter 'x' or 'X'.,r,None,,,,,0,0,0,0,0,9,9,9,,,,,,,,,,,,,,,,,,,,,,,,,,,,,,,,,,,,,,,,,,,1.74,138.0525385,None,139.7950254,None,space,0,139.7950254,None,140.1688081,None,0.3605585,,,,,,,,,,,,,,,,,,,,,,,,,,,,,,,P018,fencog,1,Post,2021_Nov_05_1155,N-Back (New Version 2021),2021.1.4,119.6961154
Conditions/Version_1Pr/zeroback(1)_v1.xlsx,Rule: Press 'space' when you see the letter 'x' or 'X'.,,,,,,,0,0,0,0,,,,,,,,,,,,,,,,,,,,,,,,,,,,,,,,,,,,,,,,,,,,,,,,,,,,,,,,,,,,,,,,,,,,,,,,,,,,,,,,,,,,,,,,,P018,fencog,1,Post,2021_Nov_05_1155,N-Back (New Version 2021),2021.1.4,119.6961154
Conditions/Version_1Pr/oneback(1)_v1.xlsx,New rule: Press 'space' when you see 1-back (i.e. the same letter as the one that appeared 1 letter ago.),a,None,,,,,0,1,1,1,0,0,0,0,,,,,,,,,,,,,,,,,,,,,,,,,,,,,,,,,141.6914887,None,144.6778003,None,space,0.0937321,144.6778003,None,141.6914887,None,1.49,144.7937355,None,146.2921156,None,None,1,146.2921156,None,148.2919316,None,,,,,,,,,,,,,,,,,,,,,,,,,,,,,,,,P018,fencog,1,Post,2021_Nov_05_1155,N-Back (New Version 2021),2021.1.4,119.6961154
Conditions/Version_1Pr/oneback(1)_v1.xlsx,New rule: Press 'space' when you see 1-back (i.e. the same letter as the one that appeared 1 letter ago.),x,None,,,,,0,1,1,1,0,1,1,1,,,,,,,,,,,,,,,,,,,,,,,,,,,,,,,,,,,,,,,,,,,1.19,149.7927935,None,150.9835409,None,None,1,150.9835409,None,152.9929297,None,,,,,,,,,,,,,,,,,,,,,,,,,,,,,,,,P018,fencog,1,Post,2021_Nov_05_1155,N-Back (New Version 2021),2021.1.4,119.6961154
Conditions/Version_1Pr/oneback(1)_v1.xlsx,New rule: Press 'space' when you see 1-back (i.e. the same letter as the one that appeared 1 letter ago.),g,None,,,,,0,1,1,1,0,2,2,2,,,,,,,,,,,,,,,,,,,,,,,,,,,,,,,,,,,,,,,,,,,1.39,154.4893914,None,155.8821593,None,None,1,155.8821593,None,157.8883892,None,,,,,,,,,,,,,,,,,,,,,,,,,,,,,,,,P018,fencog,1,Post,2021_Nov_05_1155,N-Back (New Version 2021),2021.1.4,119.6961154
Conditions/Version_1Pr/oneback(1)_v1.xlsx,New rule: Press 'space' when you see 1-back (i.e. the same letter as the one that appeared 1 letter ago.),G,space,,,,,0,1,1,1,0,3,3,3,,,,,,,,,,,,,,,,,,,,,,,,,,,,,,,,,,,,,,,,,,,1.04,159.3876815,None,160.429859,None,space,1,160.429859,None,160.854874,None,0.4136295,,,,,,,,,,,,,,,,,,,,,,,,,,,,,,,P018,fencog,1,Post,2021_Nov_05_1155,N-Back (New Version 2021),2021.1.4,119.6961154
Conditions/Version_1Pr/oneback(1)_v1.xlsx,New rule: Press 'space' when you see 1-back (i.e. the same letter as the one that appeared 1 letter ago.),u,None,,,,,0,1,1,1,0,4,4,4,,,,,,,,,,,,,,,,,,,,,,,,,,,,,,,,,,,,,,,,,,,1.715,162.3618443,None,164.0847395,None,None,1,164.0847395,None,166.0860153,None,,,,,,,,,,,,,,,,,,,,,,,,,,,,,,,,P018,fencog,1,Post,2021_Nov_05_1155,N-Back (New Version 2021),2021.1.4,119.6961154
Conditions/Version_1Pr/oneback(1)_v1.xlsx,New rule: Press 'space' when you see 1-back (i.e. the same letter as the one that appeared 1 letter ago.),y,None,,,,,0,1,1,1,0,5,5,5,,,,,,,,,,,,,,,,,,,,,,,,,,,,,,,,,,,,,,,,,,,1.965,167.5855365,None,169.5520303,None,space,0,169.5520303,None,170.0124009,None,0.4433274,,,,,,,,,,,,,,,,,,,,,,,,,,,,,,,P018,fencog,1,Post,2021_Nov_05_1155,N-Back (New Version 2021),2021.1.4,119.6961154
Conditions/Version_1Pr/oneback(1)_v1.xlsx,New rule: Press 'space' when you see 1-back (i.e. the same letter as the one that appeared 1 letter ago.),y,space,,,,,0,1,1,1,0,6,6,6,,,,,,,,,,,,,,,,,,,,,,,,,,,,,,,,,,,,,,,,,,,1.315,171.5176148,None,172.8366737,None,space,1,172.8366737,None,173.2794243,None,0.4306299,,,,,,,,,,,,,,,,,,,,,,,,,,,,,,,P018,fencog,1,Post,2021_Nov_05_1155,N-Back (New Version 2021),2021.1.4,119.6961154
Conditions/Version_1Pr/oneback(1)_v1.xlsx,New rule: Press 'space' when you see 1-back (i.e. the same letter as the one that appeared 1 letter ago.),k,None,,,,,0,1,1,1,0,7,7,7,,,,,,,,,,,,,,,,,,,,,,,,,,,,,,,,,,,,,,,,,,,1.615,174.7833971,None,176.401047,None,None,1,176.401047,None,178.4072977,None,,,,,,,,,,,,,,,,,,,,,,,,,,,,,,,,P018,fencog,1,Post,2021_Nov_05_1155,N-Back (New Version 2021),2021.1.4,119.6961154
Conditions/Version_1Pr/oneback(1)_v1.xlsx,New rule: Press 'space' when you see 1-back (i.e. the same letter as the one that appeared 1 letter ago.),c,None,,,,,0,1,1,1,0,8,8,8,,,,,,,,,,,,,,,,,,,,,,,,,,,,,,,,,,,,,,,,,,,1.815,179.90679,None,181.7258678,None,None,1,181.7258678,None,183.7306807,None,,,,,,,,,,,,,,,,,,,,,,,,,,,,,,,,P018,fencog,1,Post,2021_Nov_05_1155,N-Back (New Version 2021),2021.1.4,119.6961154
Conditions/Version_1Pr/oneback(1)_v1.xlsx,New rule: Press 'space' when you see 1-back (i.e. the same letter as the one that appeared 1 letter ago.),r,None,,,,,0,1,1,1,0,9,9,9,,,,,,,,,,,,,,,,,,,,,,,,,,,,,,,,,,,,,,,,,,,1.065,185.230281,None,186.296396,None,None,1,186.296396,None,188.2961664,None,,,,,,,,,,,,,,,,,,,,,,,,,,,,,,,,P018,fencog,1,Post,2021_Nov_05_1155,N-Back (New Version 2021),2021.1.4,119.6961154
Conditions/Version_1Pr/oneback(1)_v1.xlsx,New rule: Press 'space' when you see 1-back (i.e. the same letter as the one that appeared 1 letter ago.),,,,,,,0,1,1,1,,,,,,,,,,,,,,,,,,,,,,,,,,,,,,,,,,,,,,,,,,,,,,,,,,,,,,,,,,,,,,,,,,,,,,,,,,,,,,,,,,,,,,,,,P018,fencog,1,Post,2021_Nov_05_1155,N-Back (New Version 2021),2021.1.4,119.6961154
Conditions/Version_1Pr/twoback(1)_v1.xlsx,New rule: Press 'space' when you see 2-back (i.e. the same letter as the one that appeared 2 letters ago.),E,None,,,,,0,2,2,2,0,0,0,0,,,,,,,,,,,,,,,,,,,,,,,,,,,,,,,,,189.8199257,None,192.8057621,None,space,0.6855459,192.8057621,None,189.8199257,None,1.14,193.51578,None,194.6622099,None,None,1,194.6622099,None,196.6684202,None,,,,,,,,,,,,,,,,,,,,,,,,,,,,,,,,P018,fencog,1,Post,2021_Nov_05_1155,N-Back (New Version 2021),2021.1.4,119.6961154
Conditions/Version_1Pr/twoback(1)_v1.xlsx,New rule: Press 'space' when you see 2-back (i.e. the same letter as the one that appeared 2 letters ago.),p,None,,,,,0,2,2,2,0,1,1,1,,,,,,,,,,,,,,,,,,,,,,,,,,,,,,,,,,,,,,,,,,,1.265,198.1680772,None,199.4343343,None,None,1,199.4343343,None,201.4337851,None,,,,,,,,,,,,,,,,,,,,,,,,,,,,,,,,P018,fencog,1,Post,2021_Nov_05_1155,N-Back (New Version 2021),2021.1.4,119.6961154
Conditions/Version_1Pr/twoback(1)_v1.xlsx,New rule: Press 'space' when you see 2-back (i.e. the same letter as the one that appeared 2 letters ago.),e,space,,,,,0,2,2,2,0,2,2,2,,,,,,,,,,,,,,,,,,,,,,,,,,,,,,,,,,,,,,,,,,,1.465,202.9333664,None,204.3994853,None,space,1,204.3994853,None,205.2261457,None,0.8124215,,,,,,,,,,,,,,,,,,,,,,,,,,,,,,,P018,fencog,1,Post,2021_Nov_05_1155,N-Back (New Version 2021),2021.1.4,119.6961154
Conditions/Version_1Pr/twoback(1)_v1.xlsx,New rule: Press 'space' when you see 2-back (i.e. the same letter as the one that appeared 2 letters ago.),s,None,,,,,0,2,2,2,0,3,3,3,,,,,,,,,,,,,,,,,,,,,,,,,,,,,,,,,,,,,,,,,,,1.59,206.7322533,None,208.3246283,None,None,1,208.3246283,None,210.3345683,None,,,,,,,,,,,,,,,,,,,,,,,,,,,,,,,,P018,fencog,1,Post,2021_Nov_05_1155,N-Back (New Version 2021),2021.1.4,119.6961154
Conditions/Version_1Pr/twoback(1)_v1.xlsx,New rule: Press 'space' when you see 2-back (i.e. the same letter as the one that appeared 2 letters ago.),S,None,,,,,0,2,2,2,0,4,4,4,,,,,,,,,,,,,,,,,,,,,,,,,,,,,,,,,,,,,,,,,,,1.84,211.8306926,None,213.6765092,None,None,1,213.6765092,None,215.6795409,None,,,,,,,,,,,,,,,,,,,,,,,,,,,,,,,,P018,fencog,1,Post,2021_Nov_05_1155,N-Back (New Version 2021),2021.1.4,119.6961154
Conditions/Version_1Pr/twoback(1)_v1.xlsx,New rule: Press 'space' when you see 2-back (i.e. the same letter as the one that appeared 2 letters ago.),s,space,,,,,0,2,2,2,0,5,5,5,,,,,,,,,,,,,,,,,,,,,,,,,,,,,,,,,,,,,,,,,,,1.74,217.1792168,None,218.9199899,None,space,1,218.9199899,None,219.3296793,None,0.395335,,,,,,,,,,,,,,,,,,,,,,,,,,,,,,,P018,fencog,1,Post,2021_Nov_05_1155,N-Back (New Version 2021),2021.1.4,119.6961154
Conditions/Version_1Pr/twoback(1)_v1.xlsx,New rule: Press 'space' when you see 2-back (i.e. the same letter as the one that appeared 2 letters ago.),P,None,,,,,0,2,2,2,0,6,6,6,,,,,,,,,,,,,,,,,,,,,,,,,,,,,,,,,,,,,,,,,,,1.115,220.8362274,None,221.9533442,None,None,1,221.9533442,None,223.9605013,None,,,,,,,,,,,,,,,,,,,,,,,,,,,,,,,,P018,fencog,1,Post,2021_Nov_05_1155,N-Back (New Version 2021),2021.1.4,119.6961154
Conditions/Version_1Pr/twoback(1)_v1.xlsx,New rule: Press 'space' when you see 2-back (i.e. the same letter as the one that appeared 2 letters ago.),C,None,,,,,0,2,2,2,0,7,7,7,,,,,,,,,,,,,,,,,,,,,,,,,,,,,,,,,,,,,,,,,,,1.865,225.4598935,None,227.3283164,None,None,1,227.3283164,None,229.3378359,None,,,,,,,,,,,,,,,,,,,,,,,,,,,,,,,,P018,fencog,1,Post,2021_Nov_05_1155,N-Back (New Version 2021),2021.1.4,119.6961154
Conditions/Version_1Pr/twoback(1)_v1.xlsx,New rule: Press 'space' when you see 2-back (i.e. the same letter as the one that appeared 2 letters ago.),x,None,,,,,0,2,2,2,0,8,8,8,,,,,,,,,,,,,,,,,,,,,,,,,,,,,,,,,,,,,,,,,,,1.89,230.8334376,None,232.7261523,None,None,1,232.7261523,None,234.7323682,None,,,,,,,,,,,,,,,,,,,,,,,,,,,,,,,,P018,fencog,1,Post,2021_Nov_05_1155,N-Back (New Version 2021),2021.1.4,119.6961154
Conditions/Version_1Pr/twoback(1)_v1.xlsx,New rule: Press 'space' when you see 2-back (i.e. the same letter as the one that appeared 2 letters ago.),Z,None,,,,,0,2,2,2,0,9,9,9,,,,,,,,,,,,,,,,,,,,,,,,,,,,,,,,,,,,,,,,,,,1.765,236.2318501,None,237.9985843,None,None,1,237.9985843,None,239.9985613,None,,,,,,,,,,,,,,,,,,,,,,,,,,,,,,,,P018,fencog,1,Post,2021_Nov_05_1155,N-Back (New Version 2021),2021.1.4,119.6961154
Conditions/Version_1Pr/twoback(1)_v1.xlsx,New rule: Press 'space' when you see 2-back (i.e. the same letter as the one that appeared 2 letters ago.),,,,,,,0,2,2,2,,,,,,,,,,,,,,,,,,,,,,,,,,,,,,,,,,,,,,,,,,,,,,,,,,,,,,,,,,,,,,,,,,,,,,,,,,,,,,,,,,,,,,,,,P018,fencog,1,Post,2021_Nov_05_1155,N-Back (New Version 2021),2021.1.4,119.6961154
Conditions/Version_1Pr/threeback(1)_v1.xlsx,New rule: Press 'space' when you see 3-back (i.e. the same letter as the one that appeared 3 letters ago.),r,None,,,,,0,3,3,3,0,0,0,0,,,,,,,,,,,,,,,,,,,,,,,,,,,,,,,,,241.5253956,None,244.5151742,None,space,0.6640895,244.5151742,None,241.5253956,None,1.665,245.2071852,None,246.8784857,None,None,1,246.8784857,None,248.8779955,None,,,,,,,,,,,,,,,,,,,,,,,,,,,,,,,,P018,fencog,1,Post,2021_Nov_05_1155,N-Back (New Version 2021),2021.1.4,119.6961154
Conditions/Version_1Pr/threeback(1)_v1.xlsx,New rule: Press 'space' when you see 3-back (i.e. the same letter as the one that appeared 3 letters ago.),a,None,,,,,0,3,3,3,0,1,1,1,,,,,,,,,,,,,,,,,,,,,,,,,,,,,,,,,,,,,,,,,,,1.165,250.3776253,None,251.5436033,None,None,1,251.5436033,None,253.5432786,None,,,,,,,,,,,,,,,,,,,,,,,,,,,,,,,,P018,fencog,1,Post,2021_Nov_05_1155,N-Back (New Version 2021),2021.1.4,119.6961154
Conditions/Version_1Pr/threeback(1)_v1.xlsx,New rule: Press 'space' when you see 3-back (i.e. the same letter as the one that appeared 3 letters ago.),t,None,,,,,0,3,3,3,0,2,2,2,,,,,,,,,,,,,,,,,,,,,,,,,,,,,,,,,,,,,,,,,,,1.49,255.0428925,None,256.5345992,None,None,1,256.5345992,None,258.5418306,None,,,,,,,,,,,,,,,,,,,,,,,,,,,,,,,,P018,fencog,1,Post,2021_Nov_05_1155,N-Back (New Version 2021),2021.1.4,119.6961154
Conditions/Version_1Pr/threeback(1)_v1.xlsx,New rule: Press 'space' when you see 3-back (i.e. the same letter as the one that appeared 3 letters ago.),r,space,,,,,0,3,3,3,0,3,3,3,,,,,,,,,,,,,,,,,,,,,,,,,,,,,,,,,,,,,,,,,,,1.415,260.0415138,None,261.4579214,None,None,0,261.4579214,None,263.4630763,None,,,,,,,,,,,,,,,,,,,,,,,,,,,,,,,,P018,fencog,1,Post,2021_Nov_05_1155,N-Back (New Version 2021),2021.1.4,119.6961154
Conditions/Version_1Pr/threeback(1)_v1.xlsx,New rule: Press 'space' when you see 3-back (i.e. the same letter as the one that appeared 3 letters ago.),a,None,,,,,0,3,3,3,0,4,4,4,,,,,,,,,,,,,,,,,,,,,,,,,,,,,,,,,,,,,,,,,,,1.54,264.9648915,None,266.5059266,None,space,0,266.5059266,None,267.6198584,None,1.0976399,,,,,,,,,,,,,,,,,,,,,,,,,,,,,,,P018,fencog,1,Post,2021_Nov_05_1155,N-Back (New Version 2021),2021.1.4,119.6961154
Conditions/Version_1Pr/threeback(1)_v1.xlsx,New rule: Press 'space' when you see 3-back (i.e. the same letter as the one that appeared 3 letters ago.),Y,None,,,,,0,3,3,3,0,5,5,5,,,,,,,,,,,,,,,,,,,,,,,,,,,,,,,,,,,,,,,,,,,1.615,269.122192,None,270.7404402,None,None,1,270.7404402,None,272.7460688,None,,,,,,,,,,,,,,,,,,,,,,,,,,,,,,,,P018,fencog,1,Post,2021_Nov_05_1155,N-Back (New Version 2021),2021.1.4,119.6961154
Conditions/Version_1Pr/threeback(1)_v1.xlsx,New rule: Press 'space' when you see 3-back (i.e. the same letter as the one that appeared 3 letters ago.),q,None,,,,,0,3,3,3,0,6,6,6,,,,,,,,,,,,,,,,,,,,,,,,,,,,,,,,,,,,,,,,,,,1.715,274.2456366,None,275.9623045,None,None,1,275.9623045,None,277.969505,None,,,,,,,,,,,,,,,,,,,,,,,,,,,,,,,,P018,fencog,1,Post,2021_Nov_05_1155,N-Back (New Version 2021),2021.1.4,119.6961154
Conditions/Version_1Pr/threeback(1)_v1.xlsx,New rule: Press 'space' when you see 3-back (i.e. the same letter as the one that appeared 3 letters ago.),A,space,,,,,0,3,3,3,0,7,7,7,,,,,,,,,,,,,,,,,,,,,,,,,,,,,,,,,,,,,,,,,,,1.69,279.4699974,None,281.1691031,None,None,0,281.1691031,None,283.1694498,None,,,,,,,,,,,,,,,,,,,,,,,,,,,,,,,,P018,fencog,1,Post,2021_Nov_05_1155,N-Back (New Version 2021),2021.1.4,119.6961154
Conditions/Version_1Pr/threeback(1)_v1.xlsx,New rule: Press 'space' when you see 3-back (i.e. the same letter as the one that appeared 3 letters ago.),y,None,,,,,0,3,3,3,0,8,8,8,,,,,,,,,,,,,,,,,,,,,,,,,,,,,,,,,,,,,,,,,,,1.065,284.6673089,None,285.7336821,None,space,0,285.7336821,None,287.2119595,None,1.4615226,,,,,,,,,,,,,,,,,,,,,,,,,,,,,,,P018,fencog,1,Post,2021_Nov_05_1155,N-Back (New Version 2021),2021.1.4,119.6961154
Conditions/Version_1Pr/threeback(1)_v1.xlsx,New rule: Press 'space' when you see 3-back (i.e. the same letter as the one that appeared 3 letters ago.),r,None,,,,,0,3,3,3,0,9,9,9,,,,,,,,,,,,,,,,,,,,,,,,,,,,,,,,,,,,,,,,,,,1.24,288.7162,None,289.9575726,None,space,0,289.9575726,None,291.0612531,None,1.093806,,,,,,,,,,,,,,,,,,,,,,,,,,,,,,,P018,fencog,1,Post,2021_Nov_05_1155,N-Back (New Version 2021),2021.1.4,119.6961154
Conditions/Version_1Pr/threeback(1)_v1.xlsx,New rule: Press 'space' when you see 3-back (i.e. the same letter as the one that appeared 3 letters ago.),,,,,,,0,3,3,3,,,,,,,,,,,,,,,,,,,,,,,,,,,,,,,,,,,,,,,,,,,,,,,,,,,,,,,,,,,,,,,,,,,,,,,,,,,,,,,,,,,,,,,,,P018,fencog,1,Post,2021_Nov_05_1155,N-Back (New Version 2021),2021.1.4,119.6961154
,,,,,,,,,,,,,,,,,,,,,,,,,,,,,,,,,,,,,,,,,,,,,,,,,,,,,,,,,,,,,,,,,,,,,,292.5716833,None,space,1.4982673,293.0650383,None,,,,,,,,,,,,,,,,,,,,,,,,,P018,fencog,1,Post,2021_Nov_05_1155,N-Back (New Version 2021),2021.1.4,119.6961154
,,,,,,,,,,,,,,,,,,,,,,,,,,,,,,,,,,,,,,,,,,,,,,,,,,,,,,,,,,,,,,,,,,,,,,,,,,,,294.5865788,None,space,1.3857363,295.0815406,None,,,,,,,,,,,,,,,,,,,P018,fencog,1,Post,2021_Nov_05_1155,N-Back (New Version 2021),2021.1.4,119.6961154
,,,,Conditions/Version_1/zeroback(1)_v1.xlsx,Rule: Press 'space' when you see the letter 'x' or 'X'.,b,None,,,,,,,,,0,0,0,0,0,0,0,0,,,,,,,,,,,,,,,,,,,,,,,,,,,,,,,,,,,,,,,,,,,,,,,,,,,,,,,,,,,296.5819917,None,299.5645161,None,space,0.2229488,299.5645161,None,296.5819917,None,1.6672,301.4879237,None,None,1,301.4879237,None,,P018,fencog,1,Post,2021_Nov_05_1155,N-Back (New Version 2021),2021.1.4,119.6961154
,,,,Conditions/Version_1/zeroback(1)_v1.xlsx,Rule: Press 'space' when you see the letter 'x' or 'X'.,T,None,,,,,,,,,0,0,0,0,0,1,1,1,,,,,,,,,,,,,,,,,,,,,,,,,,,,,,,,,,,,,,,,,,,,,,,,,,,,,,,,,,,,,,,,,,,,,1.4316,304.9308413,None,None,1,304.9308413,None,,P018,fencog,1,Post,2021_Nov_05_1155,N-Back (New Version 2021),2021.1.4,119.6961154
,,,,Conditions/Version_1/zeroback(1)_v1.xlsx,Rule: Press 'space' when you see the letter 'x' or 'X'.,L,None,,,,,,,,,0,0,0,0,0,2,2,2,,,,,,,,,,,,,,,,,,,,,,,,,,,,,,,,,,,,,,,,,,,,,,,,,,,,,,,,,,,,,,,,,,,,,1.3882,308.3272551,None,None,1,308.3272551,None,,P018,fencog,1,Post,2021_Nov_05_1155,N-Back (New Version 2021),2021.1.4,119.6961154
,,,,Conditions/Version_1/zeroback(1)_v1.xlsx,Rule: Press 'space' when you see the letter 'x' or 'X'.,x,space,,,,,,,,,0,0,0,0,0,3,3,3,,,,,,,,,,,,,,,,,,,,,,,,,,,,,,,,,,,,,,,,,,,,,,,,,,,,,,,,,,,,,,,,,,,,,1.2146,311.5509847,None,space,1,311.5509847,None,0.3881489,P018,fencog,1,Post,2021_Nov_05_1155,N-Back (New Version 2021),2021.1.4,119.6961154
,,,,Conditions/Version_1/zeroback(1)_v1.xlsx,Rule: Press 'space' when you see the letter 'x' or 'X'.,o,None,,,,,,,,,0,0,0,0,0,4,4,4,,,,,,,,,,,,,,,,,,,,,,,,,,,,,,,,,,,,,,,,,,,,,,,,,,,,,,,,,,,,,,,,,,,,,1.0782,314.6362696,None,space,0,314.6362696,None,0.495178,P018,fencog,1,Post,2021_Nov_05_1155,N-Back (New Version 2021),2021.1.4,119.6961154
,,,,Conditions/Version_1/zeroback(1)_v1.xlsx,Rule: Press 'space' when you see the letter 'x' or 'X'.,P,None,,,,,,,,,0,0,0,0,0,5,5,5,,,,,,,,,,,,,,,,,,,,,,,,,,,,,,,,,,,,,,,,,,,,,,,,,,,,,,,,,,,,,,,,,,,,,1.4192,318.0664538,None,space,0,318.0664538,None,0.4089473,P018,fencog,1,Post,2021_Nov_05_1155,N-Back (New Version 2021),2021.1.4,119.6961154
,,,,Conditions/Version_1/zeroback(1)_v1.xlsx,Rule: Press 'space' when you see the letter 'x' or 'X'.,X,space,,,,,,,,,0,0,0,0,0,6,6,6,,,,,,,,,,,,,,,,,,,,,,,,,,,,,,,,,,,,,,,,,,,,,,,,,,,,,,,,,,,,,,,,,,,,,1.7664,321.8314815,None,space,1,321.8314815,None,0.307767,P018,fencog,1,Post,2021_Nov_05_1155,N-Back (New Version 2021),2021.1.4,119.6961154
,,,,Conditions/Version_1/zeroback(1)_v1.xlsx,Rule: Press 'space' when you see the letter 'x' or 'X'.,n,None,,,,,,,,,0,0,0,0,0,7,7,7,,,,,,,,,,,,,,,,,,,,,,,,,,,,,,,,,,,,,,,,,,,,,,,,,,,,,,,,,,,,,,,,,,,,,1.754,325.5937609,None,None,1,325.5937609,None,,P018,fencog,1,Post,2021_Nov_05_1155,N-Back (New Version 2021),2021.1.4,119.6961154
,,,,Conditions/Version_1/zeroback(1)_v1.xlsx,Rule: Press 'space' when you see the letter 'x' or 'X'.,M,None,,,,,,,,,0,0,0,0,0,8,8,8,,,,,,,,,,,,,,,,,,,,,,,,,,,,,,,,,,,,,,,,,,,,,,,,,,,,,,,,,,,,,,,,,,,,,1.0162,328.6142856,None,None,1,328.6142856,None,,P018,fencog,1,Post,2021_Nov_05_1155,N-Back (New Version 2021),2021.1.4,119.6961154
,,,,Conditions/Version_1/zeroback(1)_v1.xlsx,Rule: Press 'space' when you see the letter 'x' or 'X'.,a,None,,,,,,,,,0,0,0,0,0,9,9,9,,,,,,,,,,,,,,,,,,,,,,,,,,,,,,,,,,,,,,,,,,,,,,,,,,,,,,,,,,,,,,,,,,,,,1.971,332.5951787,None,None,1,332.5951787,None,,P018,fencog,1,Post,2021_Nov_05_1155,N-Back (New Version 2021),2021.1.4,119.6961154
,,,,Conditions/Version_1/zeroback(1)_v1.xlsx,Rule: Press 'space' when you see the letter 'x' or 'X'.,,,,,,,,,,,0,0,0,0,,,,,,,,,,,,,,,,,,,,,,,,,,,,,,,,,,,,,,,,,,,,,,,,,,,,,,,,,,,,,,,,,,,,,,,,,,,,,,,,,P018,fencog,1,Post,2021_Nov_05_1155,N-Back (New Version 2021),2021.1.4,119.6961154
,,,,Conditions/Version_1/oneback(1)_v1.xlsx,New rule: Press 'space' when you see 1-back (i.e. the same letter as the one that appeared 1 letter ago.),b,None,,,,,,,,,0,1,1,1,0,0,0,0,,,,,,,,,,,,,,,,,,,,,,,,,,,,,,,,,,,,,,,,,,,,,,,,,,,,,,,,,,,334.6158563,None,337.6042041,None,space,1.3508988,337.6042041,None,334.6158563,None,1.4936,340.4758318,None,None,1,340.4758318,None,,P018,fencog,1,Post,2021_Nov_05_1155,N-Back (New Version 2021),2021.1.4,119.6961154
,,,,Conditions/Version_1/oneback(1)_v1.xlsx,New rule: Press 'space' when you see 1-back (i.e. the same letter as the one that appeared 1 letter ago.),p,None,,,,,,,,,0,1,1,1,0,1,1,1,,,,,,,,,,,,,,,,,,,,,,,,,,,,,,,,,,,,,,,,,,,,,,,,,,,,,,,,,,,,,,,,,,,,,1.0348,343.5172166,None,None,1,343.5172166,None,,P018,fencog,1,Post,2021_Nov_05_1155,N-Back (New Version 2021),2021.1.4,119.6961154
,,,,Conditions/Version_1/oneback(1)_v1.xlsx,New rule: Press 'space' when you see 1-back (i.e. the same letter as the one that appeared 1 letter ago.),M,None,,,,,,,,,0,1,1,1,0,2,2,2,,,,,,,,,,,,,,,,,,,,,,,,,,,,,,,,,,,,,,,,,,,,,,,,,,,,,,,,,,,,,,,,,,,,,1.0968,346.6155868,None,None,1,346.6155868,None,,P018,fencog,1,Post,2021_Nov_05_1155,N-Back (New Version 2021),2021.1.4,119.6961154
,,,,Conditions/Version_1/oneback(1)_v1.xlsx,New rule: Press 'space' when you see 1-back (i.e. the same letter as the one that appeared 1 letter ago.),M,space,,,,,,,,,0,1,1,1,0,3,3,3,,,,,,,,,,,,,,,,,,,,,,,,,,,,,,,,,,,,,,,,,,,,,,,,,,,,,,,,,,,,,,,,,,,,,1.1898,349.8148541,None,space,1,349.8148541,None,0.3963106,P018,fencog,1,Post,2021_Nov_05_1155,N-Back (New Version 2021),2021.1.4,119.6961154
,,,,Conditions/Version_1/oneback(1)_v1.xlsx,New rule: Press 'space' when you see 1-back (i.e. the same letter as the one that appeared 1 letter ago.),n,None,,,,,,,,,0,1,1,1,0,4,4,4,,,,,,,,,,,,,,,,,,,,,,,,,,,,,,,,,,,,,,,,,,,,,,,,,,,,,,,,,,,,,,,,,,,,,1.3138,353.1389532,None,None,1,353.1389532,None,,P018,fencog,1,Post,2021_Nov_05_1155,N-Back (New Version 2021),2021.1.4,119.6961154
,,,,Conditions/Version_1/oneback(1)_v1.xlsx,New rule: Press 'space' when you see 1-back (i.e. the same letter as the one that appeared 1 letter ago.),g,None,,,,,,,,,0,1,1,1,0,5,5,5,,,,,,,,,,,,,,,,,,,,,,,,,,,,,,,,,,,,,,,,,,,,,,,,,,,,,,,,,,,,,,,,,,,,,1.3882,356.5316401,None,None,1,356.5316401,None,,P018,fencog,1,Post,2021_Nov_05_1155,N-Back (New Version 2021),2021.1.4,119.6961154
,,,,Conditions/Version_1/oneback(1)_v1.xlsx,New rule: Press 'space' when you see 1-back (i.e. the same letter as the one that appeared 1 letter ago.),P,None,,,,,,,,,0,1,1,1,0,6,6,6,,,,,,,,,,,,,,,,,,,,,,,,,,,,,,,,,,,,,,,,,,,,,,,,,,,,,,,,,,,,,,,,,,,,,1.7602,360.3059773,None,None,1,360.3059773,None,,P018,fencog,1,Post,2021_Nov_05_1155,N-Back (New Version 2021),2021.1.4,119.6961154
,,,,Conditions/Version_1/oneback(1)_v1.xlsx,New rule: Press 'space' when you see 1-back (i.e. the same letter as the one that appeared 1 letter ago.),o,None,,,,,,,,,0,1,1,1,0,7,7,7,,,,,,,,,,,,,,,,,,,,,,,,,,,,,,,,,,,,,,,,,,,,,,,,,,,,,,,,,,,,,,,,,,,,,1.9648,364.2845444,None,None,1,364.2845444,None,,P018,fencog,1,Post,2021_Nov_05_1155,N-Back (New Version 2021),2021.1.4,119.6961154
,,,,Conditions/Version_1/oneback(1)_v1.xlsx,New rule: Press 'space' when you see 1-back (i.e. the same letter as the one that appeared 1 letter ago.),f,None,,,,,,,,,0,1,1,1,0,8,8,8,,,,,,,,,,,,,,,,,,,,,,,,,,,,,,,,,,,,,,,,,,,,,,,,,,,,,,,,,,,,,,,,,,,,,1.7912,368.0868426,None,None,1,368.0868426,None,,P018,fencog,1,Post,2021_Nov_05_1155,N-Back (New Version 2021),2021.1.4,119.6961154
,,,,Conditions/Version_1/oneback(1)_v1.xlsx,New rule: Press 'space' when you see 1-back (i.e. the same letter as the one that appeared 1 letter ago.),F,space,,,,,,,,,0,1,1,1,0,9,9,9,,,,,,,,,,,,,,,,,,,,,,,,,,,,,,,,,,,,,,,,,,,,,,,,,,,,,,,,,,,,,,,,,,,,,1.3696,371.4676897,None,space,1,371.4676897,None,0.6314459,P018,fencog,1,Post,2021_Nov_05_1155,N-Back (New Version 2021),2021.1.4,119.6961154
,,,,Conditions/Version_1/oneback(1)_v1.xlsx,New rule: Press 'space' when you see 1-back (i.e. the same letter as the one that appeared 1 letter ago.),,,,,,,,,,,0,1,1,1,,,,,,,,,,,,,,,,,,,,,,,,,,,,,,,,,,,,,,,,,,,,,,,,,,,,,,,,,,,,,,,,,,,,,,,,,,,,,,,,,P018,fencog,1,Post,2021_Nov_05_1155,N-Back (New Version 2021),2021.1.4,119.6961154
,,,,Conditions/Version_1/twoback(1)_v1.xlsx,New rule: Press 'space' when you see 2-back (i.e. the same letter as the one that appeared 2 letters ago.),b,None,,,,,,,,,0,2,2,2,0,0,0,0,,,,,,,,,,,,,,,,,,,,,,,,,,,,,,,,,,,,,,,,,,,,,,,,,,,,,,,,,,,373.4957178,None,376.4834256,None,space,37.0636384,376.4834256,None,373.4957178,None,1.7044,415.2704354,None,None,1,415.2704354,None,,P018,fencog,1,Post,2021_Nov_05_1155,N-Back (New Version 2021),2021.1.4,119.6961154
,,,,Conditions/Version_1/twoback(1)_v1.xlsx,New rule: Press 'space' when you see 2-back (i.e. the same letter as the one that appeared 2 letters ago.),h,None,,,,,,,,,0,2,2,2,0,1,1,1,,,,,,,,,,,,,,,,,,,,,,,,,,,,,,,,,,,,,,,,,,,,,,,,,,,,,,,,,,,,,,,,,,,,,1.506,418.7791451,None,None,1,418.7791451,None,,P018,fencog,1,Post,2021_Nov_05_1155,N-Back (New Version 2021),2021.1.4,119.6961154
,,,,Conditions/Version_1/twoback(1)_v1.xlsx,New rule: Press 'space' when you see 2-back (i.e. the same letter as the one that appeared 2 letters ago.),j,None,,,,,,,,,0,2,2,2,0,2,2,2,,,,,,,,,,,,,,,,,,,,,,,,,,,,,,,,,,,,,,,,,,,,,,,,,,,,,,,,,,,,,,,,,,,,,1.2766,422.060918,None,None,1,422.060918,None,,P018,fencog,1,Post,2021_Nov_05_1155,N-Back (New Version 2021),2021.1.4,119.6961154
,,,,Conditions/Version_1/twoback(1)_v1.xlsx,New rule: Press 'space' when you see 2-back (i.e. the same letter as the one that appeared 2 letters ago.),H,space,,,,,,,,,0,2,2,2,0,3,3,3,,,,,,,,,,,,,,,,,,,,,,,,,,,,,,,,,,,,,,,,,,,,,,,,,,,,,,,,,,,,,,,,,,,,,1.7602,425.8263366,None,space,1,425.8263366,None,0.5045086,P018,fencog,1,Post,2021_Nov_05_1155,N-Back (New Version 2021),2021.1.4,119.6961154
,,,,Conditions/Version_1/twoback(1)_v1.xlsx,New rule: Press 'space' when you see 2-back (i.e. the same letter as the one that appeared 2 letters ago.),p,None,,,,,,,,,0,2,2,2,0,4,4,4,,,,,,,,,,,,,,,,,,,,,,,,,,,,,,,,,,,,,,,,,,,,,,,,,,,,,,,,,,,,,,,,,,,,,1.0968,428.9334685,None,None,1,428.9334685,None,,P018,fencog,1,Post,2021_Nov_05_1155,N-Back (New Version 2021),2021.1.4,119.6961154
,,,,Conditions/Version_1/twoback(1)_v1.xlsx,New rule: Press 'space' when you see 2-back (i.e. the same letter as the one that appeared 2 letters ago.),p,None,,,,,,,,,0,2,2,2,0,5,5,5,,,,,,,,,,,,,,,,,,,,,,,,,,,,,,,,,,,,,,,,,,,,,,,,,,,,,,,,,,,,,,,,,,,,,1.4564,432.3902773,None,None,1,432.3902773,None,,P018,fencog,1,Post,2021_Nov_05_1155,N-Back (New Version 2021),2021.1.4,119.6961154
,,,,Conditions/Version_1/twoback(1)_v1.xlsx,New rule: Press 'space' when you see 2-back (i.e. the same letter as the one that appeared 2 letters ago.),w,None,,,,,,,,,0,2,2,2,0,6,6,6,,,,,,,,,,,,,,,,,,,,,,,,,,,,,,,,,,,,,,,,,,,,,,,,,,,,,,,,,,,,,,,,,,,,,1.7106,436.1114462,None,None,1,436.1114462,None,,P018,fencog,1,Post,2021_Nov_05_1155,N-Back (New Version 2021),2021.1.4,119.6961154
,,,,Conditions/Version_1/twoback(1)_v1.xlsx,New rule: Press 'space' when you see 2-back (i.e. the same letter as the one that appeared 2 letters ago.),R,None,,,,,,,,,0,2,2,2,0,7,7,7,,,,,,,,,,,,,,,,,,,,,,,,,,,,,,,,,,,,,,,,,,,,,,,,,,,,,,,,,,,,,,,,,,,,,1.3076,439.4226102,None,None,1,439.4226102,None,,P018,fencog,1,Post,2021_Nov_05_1155,N-Back (New Version 2021),2021.1.4,119.6961154
,,,,Conditions/Version_1/twoback(1)_v1.xlsx,New rule: Press 'space' when you see 2-back (i.e. the same letter as the one that appeared 2 letters ago.),a,None,,,,,,,,,0,2,2,2,0,8,8,8,,,,,,,,,,,,,,,,,,,,,,,,,,,,,,,,,,,,,,,,,,,,,,,,,,,,,,,,,,,,,,,,,,,,,1.2394,442.6725182,None,None,1,442.6725182,None,,P018,fencog,1,Post,2021_Nov_05_1155,N-Back (New Version 2021),2021.1.4,119.6961154
,,,,Conditions/Version_1/twoback(1)_v1.xlsx,New rule: Press 'space' when you see 2-back (i.e. the same letter as the one that appeared 2 letters ago.),r,space,,,,,,,,,0,2,2,2,0,9,9,9,,,,,,,,,,,,,,,,,,,,,,,,,,,,,,,,,,,,,,,,,,,,,,,,,,,,,,,,,,,,,,,,,,,,,1.909,446.6018103,None,space,1,446.6018103,None,0.3452906,P018,fencog,1,Post,2021_Nov_05_1155,N-Back (New Version 2021),2021.1.4,119.6961154
,,,,Conditions/Version_1/twoback(1)_v1.xlsx,New rule: Press 'space' when you see 2-back (i.e. the same letter as the one that appeared 2 letters ago.),,,,,,,,,,,0,2,2,2,,,,,,,,,,,,,,,,,,,,,,,,,,,,,,,,,,,,,,,,,,,,,,,,,,,,,,,,,,,,,,,,,,,,,,,,,,,,,,,,,P018,fencog,1,Post,2021_Nov_05_1155,N-Back (New Version 2021),2021.1.4,119.6961154
,,,,Conditions/Version_1/threeback(1)_v1.xlsx,New rule: Press 'space' when you see 3-back (i.e. the same letter as the one that appeared 3 letters ago.),r,None,,,,,,,,,0,3,3,3,0,0,0,0,,,,,,,,,,,,,,,,,,,,,,,,,,,,,,,,,,,,,,,,,,,,,,,,,,,,,,,,,,,448.6317015,None,451.6119269,None,space,2.095119,451.6119269,None,448.6317015,None,1.7354,455.4748624,None,None,1,455.4748624,None,,P018,fencog,1,Post,2021_Nov_05_1155,N-Back (New Version 2021),2021.1.4,119.6961154
,,,,Conditions/Version_1/threeback(1)_v1.xlsx,New rule: Press 'space' when you see 3-back (i.e. the same letter as the one that appeared 3 letters ago.),o,None,,,,,,,,,0,3,3,3,0,1,1,1,,,,,,,,,,,,,,,,,,,,,,,,,,,,,,,,,,,,,,,,,,,,,,,,,,,,,,,,,,,,,,,,,,,,,1.8718,459.3488953,None,None,1,459.3488953,None,,P018,fencog,1,Post,2021_Nov_05_1155,N-Back (New Version 2021),2021.1.4,119.6961154
,,,,Conditions/Version_1/threeback(1)_v1.xlsx,New rule: Press 'space' when you see 3-back (i.e. the same letter as the one that appeared 3 letters ago.),P,None,,,,,,,,,0,3,3,3,0,2,2,2,,,,,,,,,,,,,,,,,,,,,,,,,,,,,,,,,,,,,,,,,,,,,,,,,,,,,,,,,,,,,,,,,,,,,1.8904,463.2402136,None,None,1,463.2402136,None,,P018,fencog,1,Post,2021_Nov_05_1155,N-Back (New Version 2021),2021.1.4,119.6961154
,,,,Conditions/Version_1/threeback(1)_v1.xlsx,New rule: Press 'space' when you see 3-back (i.e. the same letter as the one that appeared 3 letters ago.),R,space,,,,,,,,,0,3,3,3,0,3,3,3,,,,,,,,,,,,,,,,,,,,,,,,,,,,,,,,,,,,,,,,,,,,,,,,,,,,,,,,,,,,,,,,,,,,,1.0906,466.3386235,None,space,1,466.3386235,None,0.8725036,P018,fencog,1,Post,2021_Nov_05_1155,N-Back (New Version 2021),2021.1.4,119.6961154
,,,,Conditions/Version_1/threeback(1)_v1.xlsx,New rule: Press 'space' when you see 3-back (i.e. the same letter as the one that appeared 3 letters ago.),p,None,,,,,,,,,0,3,3,3,0,4,4,4,,,,,,,,,,,,,,,,,,,,,,,,,,,,,,,,,,,,,,,,,,,,,,,,,,,,,,,,,,,,,,,,,,,,,1.1216,469.4654874,None,None,1,469.4654874,None,,P018,fencog,1,Post,2021_Nov_05_1155,N-Back (New Version 2021),2021.1.4,119.6961154
,,,,Conditions/Version_1/threeback(1)_v1.xlsx,New rule: Press 'space' when you see 3-back (i.e. the same letter as the one that appeared 3 letters ago.),E,None,,,,,,,,,0,3,3,3,0,5,5,5,,,,,,,,,,,,,,,,,,,,,,,,,,,,,,,,,,,,,,,,,,,,,,,,,,,,,,,,,,,,,,,,,,,,,1.0224,472.4950948,None,None,1,472.4950948,None,,P018,fencog,1,Post,2021_Nov_05_1155,N-Back (New Version 2021),2021.1.4,119.6961154
,,,,Conditions/Version_1/threeback(1)_v1.xlsx,New rule: Press 'space' when you see 3-back (i.e. the same letter as the one that appeared 3 letters ago.),e,None,,,,,,,,,0,3,3,3,0,6,6,6,,,,,,,,,,,,,,,,,,,,,,,,,,,,,,,,,,,,,,,,,,,,,,,,,,,,,,,,,,,,,,,,,,,,,1.6362,476.1356129,None,None,1,476.1356129,None,,P018,fencog,1,Post,2021_Nov_05_1155,N-Back (New Version 2021),2021.1.4,119.6961154
,,,,Conditions/Version_1/threeback(1)_v1.xlsx,New rule: Press 'space' when you see 3-back (i.e. the same letter as the one that appeared 3 letters ago.),m,None,,,,,,,,,0,3,3,3,0,7,7,7,,,,,,,,,,,,,,,,,,,,,,,,,,,,,,,,,,,,,,,,,,,,,,,,,,,,,,,,,,,,,,,,,,,,,1.4192,479.5615858,None,None,1,479.5615858,None,,P018,fencog,1,Post,2021_Nov_05_1155,N-Back (New Version 2021),2021.1.4,119.6961154
,,,,Conditions/Version_1/threeback(1)_v1.xlsx,New rule: Press 'space' when you see 3-back (i.e. the same letter as the one that appeared 3 letters ago.),n,None,,,,,,,,,0,3,3,3,0,8,8,8,,,,,,,,,,,,,,,,,,,,,,,,,,,,,,,,,,,,,,,,,,,,,,,,,,,,,,,,,,,,,,,,,,,,,1.1898,482.7586055,None,None,1,482.7586055,None,,P018,fencog,1,Post,2021_Nov_05_1155,N-Back (New Version 2021),2021.1.4,119.6961154
,,,,Conditions/Version_1/threeback(1)_v1.xlsx,New rule: Press 'space' when you see 3-back (i.e. the same letter as the one that appeared 3 letters ago.),e,space,,,,,,,,,0,3,3,3,0,9,9,9,,,,,,,,,,,,,,,,,,,,,,,,,,,,,,,,,,,,,,,,,,,,,,,,,,,,,,,,,,,,,,,,,,,,,1.165,485.924581,None,space,1,485.924581,None,1.6464627,P018,fencog,1,Post,2021_Nov_05_1155,N-Back (New Version 2021),2021.1.4,119.6961154
,,,,Conditions/Version_1/threeback(1)_v1.xlsx,New rule: Press 'space' when you see 3-back (i.e. the same letter as the one that appeared 3 letters ago.),,,,,,,,,,,0,3,3,3,,,,,,,,,,,,,,,,,,,,,,,,,,,,,,,,,,,,,,,,,,,,,,,,,,,,,,,,,,,,,,,,,,,,,,,,,,,,,,,,,P018,fencog,1,Post,2021_Nov_05_1155,N-Back (New Version 2021),2021.1.4,119.6961154
,,,,Conditions/Version_1/oneback(2)_v1.xlsx,New rule: Press 'space' when you see 1-back (i.e. the same letter as the one that appeared 1 letter ago.),q,None,,,,,,,,,0,4,4,4,0,0,0,0,,,,,,,,,,,,,,,,,,,,,,,,,,,,,,,,,,,,,,,,,,,,,,,,,,,,,,,,,,,487.9465105,None,490.9336218,None,space,0.4132568,490.9336218,None,487.9465105,None,1.3138,492.6899452,None,None,1,492.6899452,None,,P018,fencog,1,Post,2021_Nov_05_1155,N-Back (New Version 2021),2021.1.4,119.6961154
,,,,Conditions/Version_1/oneback(2)_v1.xlsx,New rule: Press 'space' when you see 1-back (i.e. the same letter as the one that appeared 1 letter ago.),Q,space,,,,,,,,,0,4,4,4,0,1,1,1,,,,,,,,,,,,,,,,,,,,,,,,,,,,,,,,,,,,,,,,,,,,,,,,,,,,,,,,,,,,,,,,,,,,,1.1278,495.829539,None,space,1,495.829539,None,0.501581,P018,fencog,1,Post,2021_Nov_05_1155,N-Back (New Version 2021),2021.1.4,119.6961154
,,,,Conditions/Version_1/oneback(2)_v1.xlsx,New rule: Press 'space' when you see 1-back (i.e. the same letter as the one that appeared 1 letter ago.),P,None,,,,,,,,,0,4,4,4,0,2,2,2,,,,,,,,,,,,,,,,,,,,,,,,,,,,,,,,,,,,,,,,,,,,,,,,,,,,,,,,,,,,,,,,,,,,,1.8284,499.6660034,None,None,1,499.6660034,None,,P018,fencog,1,Post,2021_Nov_05_1155,N-Back (New Version 2021),2021.1.4,119.6961154
,,,,Conditions/Version_1/oneback(2)_v1.xlsx,New rule: Press 'space' when you see 1-back (i.e. the same letter as the one that appeared 1 letter ago.),o,None,,,,,,,,,0,4,4,4,0,3,3,3,,,,,,,,,,,,,,,,,,,,,,,,,,,,,,,,,,,,,,,,,,,,,,,,,,,,,,,,,,,,,,,,,,,,,1.9586,503.6273982,None,None,1,503.6273982,None,,P018,fencog,1,Post,2021_Nov_05_1155,N-Back (New Version 2021),2021.1.4,119.6961154
,,,,Conditions/Version_1/oneback(2)_v1.xlsx,New rule: Press 'space' when you see 1-back (i.e. the same letter as the one that appeared 1 letter ago.),m,None,,,,,,,,,0,4,4,4,0,4,4,4,,,,,,,,,,,,,,,,,,,,,,,,,,,,,,,,,,,,,,,,,,,,,,,,,,,,,,,,,,,,,,,,,,,,,1.072,506.7041888,None,None,1,506.7041888,None,,P018,fencog,1,Post,2021_Nov_05_1155,N-Back (New Version 2021),2021.1.4,119.6961154
,,,,Conditions/Version_1/oneback(2)_v1.xlsx,New rule: Press 'space' when you see 1-back (i.e. the same letter as the one that appeared 1 letter ago.),Z,None,,,,,,,,,0,4,4,4,0,5,5,5,,,,,,,,,,,,,,,,,,,,,,,,,,,,,,,,,,,,,,,,,,,,,,,,,,,,,,,,,,,,,,,,,,,,,1.4874,510.202967,None,None,1,510.202967,None,,P018,fencog,1,Post,2021_Nov_05_1155,N-Back (New Version 2021),2021.1.4,119.6961154
,,,,Conditions/Version_1/oneback(2)_v1.xlsx,New rule: Press 'space' when you see 1-back (i.e. the same letter as the one that appeared 1 letter ago.),c,None,,,,,,,,,0,4,4,4,0,6,6,6,,,,,,,,,,,,,,,,,,,,,,,,,,,,,,,,,,,,,,,,,,,,,,,,,,,,,,,,,,,,,,,,,,,,,1.2704,513.4828527,None,None,1,513.4828527,None,,P018,fencog,1,Post,2021_Nov_05_1155,N-Back (New Version 2021),2021.1.4,119.6961154
,,,,Conditions/Version_1/oneback(2)_v1.xlsx,New rule: Press 'space' when you see 1-back (i.e. the same letter as the one that appeared 1 letter ago.),c,space,,,,,,,,,0,4,4,4,0,7,7,7,,,,,,,,,,,,,,,,,,,,,,,,,,,,,,,,,,,,,,,,,,,,,,,,,,,,,,,,,,,,,,,,,,,,,1.94,517.4234698,None,space,1,517.4234698,None,0.475446,P018,fencog,1,Post,2021_Nov_05_1155,N-Back (New Version 2021),2021.1.4,119.6961154
,,,,Conditions/Version_1/oneback(2)_v1.xlsx,New rule: Press 'space' when you see 1-back (i.e. the same letter as the one that appeared 1 letter ago.),P,None,,,,,,,,,0,4,4,4,0,8,8,8,,,,,,,,,,,,,,,,,,,,,,,,,,,,,,,,,,,,,,,,,,,,,,,,,,,,,,,,,,,,,,,,,,,,,1.7354,521.1645958,None,None,1,521.1645958,None,,P018,fencog,1,Post,2021_Nov_05_1155,N-Back (New Version 2021),2021.1.4,119.6961154
,,,,Conditions/Version_1/oneback(2)_v1.xlsx,New rule: Press 'space' when you see 1-back (i.e. the same letter as the one that appeared 1 letter ago.),p,space,,,,,,,,,0,4,4,4,0,9,9,9,,,,,,,,,,,,,,,,,,,,,,,,,,,,,,,,,,,,,,,,,,,,,,,,,,,,,,,,,,,,,,,,,,,,,1.2518,524.4214654,None,space,1,524.4214654,None,0.3896189,P018,fencog,1,Post,2021_Nov_05_1155,N-Back (New Version 2021),2021.1.4,119.6961154
,,,,Conditions/Version_1/oneback(2)_v1.xlsx,New rule: Press 'space' when you see 1-back (i.e. the same letter as the one that appeared 1 letter ago.),,,,,,,,,,,0,4,4,4,,,,,,,,,,,,,,,,,,,,,,,,,,,,,,,,,,,,,,,,,,,,,,,,,,,,,,,,,,,,,,,,,,,,,,,,,,,,,,,,,P018,fencog,1,Post,2021_Nov_05_1155,N-Back (New Version 2021),2021.1.4,119.6961154
,,,,Conditions/Version_1/zeroback(2)_v1.xlsx,New rule: Press 'space' when you see the letter 'x' or 'X'.,p,None,,,,,,,,,0,5,5,5,0,0,0,0,,,,,,,,,,,,,,,,,,,,,,,,,,,,,,,,,,,,,,,,,,,,,,,,,,,,,,,,,,,526.4452547,None,529.4382356,None,space,0.8045293,529.4382356,None,526.4452547,None,1.3262,531.5944263,None,None,1,531.5944263,None,,P018,fencog,1,Post,2021_Nov_05_1155,N-Back (New Version 2021),2021.1.4,119.6961154
,,,,Conditions/Version_1/zeroback(2)_v1.xlsx,New rule: Press 'space' when you see the letter 'x' or 'X'.,L,None,,,,,,,,,0,5,5,5,0,1,1,1,,,,,,,,,,,,,,,,,,,,,,,,,,,,,,,,,,,,,,,,,,,,,,,,,,,,,,,,,,,,,,,,,,,,,1.5494,535.1439723,None,None,1,535.1439723,None,,P018,fencog,1,Post,2021_Nov_05_1155,N-Back (New Version 2021),2021.1.4,119.6961154
,,,,Conditions/Version_1/zeroback(2)_v1.xlsx,New rule: Press 'space' when you see the letter 'x' or 'X'.,G,None,,,,,,,,,0,5,5,5,0,2,2,2,,,,,,,,,,,,,,,,,,,,,,,,,,,,,,,,,,,,,,,,,,,,,,,,,,,,,,,,,,,,,,,,,,,,,1.5432,538.7014336,None,None,1,538.7014336,None,,P018,fencog,1,Post,2021_Nov_05_1155,N-Back (New Version 2021),2021.1.4,119.6961154
,,,,Conditions/Version_1/zeroback(2)_v1.xlsx,New rule: Press 'space' when you see the letter 'x' or 'X'.,y,None,,,,,,,,,0,5,5,5,0,3,3,3,,,,,,,,,,,,,,,,,,,,,,,,,,,,,,,,,,,,,,,,,,,,,,,,,,,,,,,,,,,,,,,,,,,,,1.8594,542.5743263,None,None,1,542.5743263,None,,P018,fencog,1,Post,2021_Nov_05_1155,N-Back (New Version 2021),2021.1.4,119.6961154
,,,,Conditions/Version_1/zeroback(2)_v1.xlsx,New rule: Press 'space' when you see the letter 'x' or 'X'.,Y,None,,,,,,,,,0,5,5,5,0,4,4,4,,,,,,,,,,,,,,,,,,,,,,,,,,,,,,,,,,,,,,,,,,,,,,,,,,,,,,,,,,,,,,,,,,,,,1.5866,546.1754927,None,None,1,546.1754927,None,,P018,fencog,1,Post,2021_Nov_05_1155,N-Back (New Version 2021),2021.1.4,119.6961154
,,,,Conditions/Version_1/zeroback(2)_v1.xlsx,New rule: Press 'space' when you see the letter 'x' or 'X'.,W,None,,,,,,,,,0,5,5,5,0,5,5,5,,,,,,,,,,,,,,,,,,,,,,,,,,,,,,,,,,,,,,,,,,,,,,,,,,,,,,,,,,,,,,,,,,,,,1.754,549.9402902,None,None,1,549.9402902,None,,P018,fencog,1,Post,2021_Nov_05_1155,N-Back (New Version 2021),2021.1.4,119.6961154
,,,,Conditions/Version_1/zeroback(2)_v1.xlsx,New rule: Press 'space' when you see the letter 'x' or 'X'.,x,space,,,,,,,,,0,5,5,5,0,6,6,6,,,,,,,,,,,,,,,,,,,,,,,,,,,,,,,,,,,,,,,,,,,,,,,,,,,,,,,,,,,,,,,,,,,,,1.2456,553.1961554,None,space,1,553.1961554,None,0.4066402,P018,fencog,1,Post,2021_Nov_05_1155,N-Back (New Version 2021),2021.1.4,119.6961154
,,,,Conditions/Version_1/zeroback(2)_v1.xlsx,New rule: Press 'space' when you see the letter 'x' or 'X'.,X,space,,,,,,,,,0,5,5,5,0,7,7,7,,,,,,,,,,,,,,,,,,,,,,,,,,,,,,,,,,,,,,,,,,,,,,,,,,,,,,,,,,,,,,,,,,,,,1.9028,557.1107784,None,space,1,557.1107784,None,0.444051,P018,fencog,1,Post,2021_Nov_05_1155,N-Back (New Version 2021),2021.1.4,119.6961154
,,,,Conditions/Version_1/zeroback(2)_v1.xlsx,New rule: Press 'space' when you see the letter 'x' or 'X'.,p,None,,,,,,,,,0,5,5,5,0,8,8,8,,,,,,,,,,,,,,,,,,,,,,,,,,,,,,,,,,,,,,,,,,,,,,,,,,,,,,,,,,,,,,,,,,,,,1.3758,560.4939734,None,None,1,560.4939734,None,,P018,fencog,1,Post,2021_Nov_05_1155,N-Back (New Version 2021),2021.1.4,119.6961154
,,,,Conditions/Version_1/zeroback(2)_v1.xlsx,New rule: Press 'space' when you see the letter 'x' or 'X'.,h,None,,,,,,,,,0,5,5,5,0,9,9,9,,,,,,,,,,,,,,,,,,,,,,,,,,,,,,,,,,,,,,,,,,,,,,,,,,,,,,,,,,,,,,,,,,,,,1.847,564.343025,None,None,1,564.343025,None,,P018,fencog,1,Post,2021_Nov_05_1155,N-Back (New Version 2021),2021.1.4,119.6961154
,,,,Conditions/Version_1/zeroback(2)_v1.xlsx,New rule: Press 'space' when you see the letter 'x' or 'X'.,,,,,,,,,,,0,5,5,5,,,,,,,,,,,,,,,,,,,,,,,,,,,,,,,,,,,,,,,,,,,,,,,,,,,,,,,,,,,,,,,,,,,,,,,,,,,,,,,,,P018,fencog,1,Post,2021_Nov_05_1155,N-Back (New Version 2021),2021.1.4,119.6961154
,,,,Conditions/Version_1/threeback(2)_v1.xlsx,New rule: Press 'space' when you see 3-back (i.e. the same letter as the one that appeared 3 letters ago.),q,None,,,,,,,,,0,6,6,6,0,0,0,0,,,,,,,,,,,,,,,,,,,,,,,,,,,,,,,,,,,,,,,,,,,,,,,,,,,,,,,,,,,566.3641351,None,569.3529364,None,space,0.8580802,569.3529364,None,566.3641351,None,1.9524,572.1909467,None,None,1,572.1909467,None,,P018,fencog,1,Post,2021_Nov_05_1155,N-Back (New Version 2021),2021.1.4,119.6961154
,,,,Conditions/Version_1/threeback(2)_v1.xlsx,New rule: Press 'space' when you see 3-back (i.e. the same letter as the one that appeared 3 letters ago.),Y,None,,,,,,,,,0,6,6,6,0,1,1,1,,,,,,,,,,,,,,,,,,,,,,,,,,,,,,,,,,,,,,,,,,,,,,,,,,,,,,,,,,,,,,,,,,,,,1.1836,575.3740117,None,None,1,575.3740117,None,,P018,fencog,1,Post,2021_Nov_05_1155,N-Back (New Version 2021),2021.1.4,119.6961154
,,,,Conditions/Version_1/threeback(2)_v1.xlsx,New rule: Press 'space' when you see 3-back (i.e. the same letter as the one that appeared 3 letters ago.),p,None,,,,,,,,,0,6,6,6,0,2,2,2,,,,,,,,,,,,,,,,,,,,,,,,,,,,,,,,,,,,,,,,,,,,,,,,,,,,,,,,,,,,,,,,,,,,,1.1712,578.5575711,None,None,1,578.5575711,None,,P018,fencog,1,Post,2021_Nov_05_1155,N-Back (New Version 2021),2021.1.4,119.6961154
,,,,Conditions/Version_1/threeback(2)_v1.xlsx,New rule: Press 'space' when you see 3-back (i.e. the same letter as the one that appeared 3 letters ago.),p,None,,,,,,,,,0,6,6,6,0,3,3,3,,,,,,,,,,,,,,,,,,,,,,,,,,,,,,,,,,,,,,,,,,,,,,,,,,,,,,,,,,,,,,,,,,,,,1.9834,582.5459647,None,None,1,582.5459647,None,,P018,fencog,1,Post,2021_Nov_05_1155,N-Back (New Version 2021),2021.1.4,119.6961154
,,,,Conditions/Version_1/threeback(2)_v1.xlsx,New rule: Press 'space' when you see 3-back (i.e. the same letter as the one that appeared 3 letters ago.),y,space,,,,,,,,,0,6,6,6,0,4,4,4,,,,,,,,,,,,,,,,,,,,,,,,,,,,,,,,,,,,,,,,,,,,,,,,,,,,,,,,,,,,,,,,,,,,,1.4564,586.002934,None,space,1,586.002934,None,0.7038693,P018,fencog,1,Post,2021_Nov_05_1155,N-Back (New Version 2021),2021.1.4,119.6961154
,,,,Conditions/Version_1/threeback(2)_v1.xlsx,New rule: Press 'space' when you see 3-back (i.e. the same letter as the one that appeared 3 letters ago.),u,None,,,,,,,,,0,6,6,6,0,5,5,5,,,,,,,,,,,,,,,,,,,,,,,,,,,,,,,,,,,,,,,,,,,,,,,,,,,,,,,,,,,,,,,,,,,,,1.0286,589.0356441,None,None,1,589.0356441,None,,P018,fencog,1,Post,2021_Nov_05_1155,N-Back (New Version 2021),2021.1.4,119.6961154
,,,,Conditions/Version_1/threeback(2)_v1.xlsx,New rule: Press 'space' when you see 3-back (i.e. the same letter as the one that appeared 3 letters ago.),P,space,,,,,,,,,0,6,6,6,0,6,6,6,,,,,,,,,,,,,,,,,,,,,,,,,,,,,,,,,,,,,,,,,,,,,,,,,,,,,,,,,,,,,,,,,,,,,1.8594,592.9008667,None,space,1,592.9008667,None,0.4059976,P018,fencog,1,Post,2021_Nov_05_1155,N-Back (New Version 2021),2021.1.4,119.6961154
,,,,Conditions/Version_1/threeback(2)_v1.xlsx,New rule: Press 'space' when you see 3-back (i.e. the same letter as the one that appeared 3 letters ago.),a,None,,,,,,,,,0,6,6,6,0,7,7,7,,,,,,,,,,,,,,,,,,,,,,,,,,,,,,,,,,,,,,,,,,,,,,,,,,,,,,,,,,,,,,,,,,,,,1.4006,596.308237,None,None,1,596.308237,None,,P018,fencog,1,Post,2021_Nov_05_1155,N-Back (New Version 2021),2021.1.4,119.6961154
,,,,Conditions/Version_1/threeback(2)_v1.xlsx,New rule: Press 'space' when you see 3-back (i.e. the same letter as the one that appeared 3 letters ago.),U,space,,,,,,,,,0,6,6,6,0,8,8,8,,,,,,,,,,,,,,,,,,,,,,,,,,,,,,,,,,,,,,,,,,,,,,,,,,,,,,,,,,,,,,,,,,,,,1.8098,600.1242335,None,space,1,600.1242335,None,1.7024834,P018,fencog,1,Post,2021_Nov_05_1155,N-Back (New Version 2021),2021.1.4,119.6961154
,,,,Conditions/Version_1/threeback(2)_v1.xlsx,New rule: Press 'space' when you see 3-back (i.e. the same letter as the one that appeared 3 letters ago.),q,None,,,,,,,,,0,6,6,6,0,9,9,9,,,,,,,,,,,,,,,,,,,,,,,,,,,,,,,,,,,,,,,,,,,,,,,,,,,,,,,,,,,,,,,,,,,,,1.8656,603.9892865,None,None,1,603.9892865,None,,P018,fencog,1,Post,2021_Nov_05_1155,N-Back (New Version 2021),2021.1.4,119.6961154
,,,,Conditions/Version_1/threeback(2)_v1.xlsx,New rule: Press 'space' when you see 3-back (i.e. the same letter as the one that appeared 3 letters ago.),,,,,,,,,,,0,6,6,6,,,,,,,,,,,,,,,,,,,,,,,,,,,,,,,,,,,,,,,,,,,,,,,,,,,,,,,,,,,,,,,,,,,,,,,,,,,,,,,,,P018,fencog,1,Post,2021_Nov_05_1155,N-Back (New Version 2021),2021.1.4,119.6961154
,,,,Conditions/Version_1/twoback(2)_v1.xlsx,New rule: Press 'space' when you see 2-back (i.e. the same letter as the one that appeared 2 letters ago.),q,None,,,,,,,,,0,7,7,7,0,0,0,0,,,,,,,,,,,,,,,,,,,,,,,,,,,,,,,,,,,,,,,,,,,,,,,,,,,,,,,,,,,606.032114,None,609.0154211,None,space,0.5074892,609.0154211,None,606.032114,None,1.971,611.5373729,None,None,1,611.5373729,None,,P018,fencog,1,Post,2021_Nov_05_1155,N-Back (New Version 2021),2021.1.4,119.6961154
,,,,Conditions/Version_1/twoback(2)_v1.xlsx,New rule: Press 'space' when you see 2-back (i.e. the same letter as the one that appeared 2 letters ago.),r,None,,,,,,,,,0,7,7,7,0,1,1,1,,,,,,,,,,,,,,,,,,,,,,,,,,,,,,,,,,,,,,,,,,,,,,,,,,,,,,,,,,,,,,,,,,,,,1.103,614.6447158,None,None,1,614.6447158,None,,P018,fencog,1,Post,2021_Nov_05_1155,N-Back (New Version 2021),2021.1.4,119.6961154
,,,,Conditions/Version_1/twoback(2)_v1.xlsx,New rule: Press 'space' when you see 2-back (i.e. the same letter as the one that appeared 2 letters ago.),q,space,,,,,,,,,0,7,7,7,0,2,2,2,,,,,,,,,,,,,,,,,,,,,,,,,,,,,,,,,,,,,,,,,,,,,,,,,,,,,,,,,,,,,,,,,,,,,1.041,617.6853462,None,space,1,617.6853462,None,0.661551,P018,fencog,1,Post,2021_Nov_05_1155,N-Back (New Version 2021),2021.1.4,119.6961154
,,,,Conditions/Version_1/twoback(2)_v1.xlsx,New rule: Press 'space' when you see 2-back (i.e. the same letter as the one that appeared 2 letters ago.),P,None,,,,,,,,,0,7,7,7,0,3,3,3,,,,,,,,,,,,,,,,,,,,,,,,,,,,,,,,,,,,,,,,,,,,,,,,,,,,,,,,,,,,,,,,,,,,,1.2952,620.9844222,None,None,1,620.9844222,None,,P018,fencog,1,Post,2021_Nov_05_1155,N-Back (New Version 2021),2021.1.4,119.6961154
,,,,Conditions/Version_1/twoback(2)_v1.xlsx,New rule: Press 'space' when you see 2-back (i.e. the same letter as the one that appeared 2 letters ago.),p,None,,,,,,,,,0,7,7,7,0,4,4,4,,,,,,,,,,,,,,,,,,,,,,,,,,,,,,,,,,,,,,,,,,,,,,,,,,,,,,,,,,,,,,,,,,,,,1.6982,624.6837555,None,None,1,624.6837555,None,,P018,fencog,1,Post,2021_Nov_05_1155,N-Back (New Version 2021),2021.1.4,119.6961154
,,,,Conditions/Version_1/twoback(2)_v1.xlsx,New rule: Press 'space' when you see 2-back (i.e. the same letter as the one that appeared 2 letters ago.),H,None,,,,,,,,,0,7,7,7,0,5,5,5,,,,,,,,,,,,,,,,,,,,,,,,,,,,,,,,,,,,,,,,,,,,,,,,,,,,,,,,,,,,,,,,,,,,,1.1216,627.8073648,None,None,1,627.8073648,None,,P018,fencog,1,Post,2021_Nov_05_1155,N-Back (New Version 2021),2021.1.4,119.6961154
,,,,Conditions/Version_1/twoback(2)_v1.xlsx,New rule: Press 'space' when you see 2-back (i.e. the same letter as the one that appeared 2 letters ago.),g,None,,,,,,,,,0,7,7,7,0,6,6,6,,,,,,,,,,,,,,,,,,,,,,,,,,,,,,,,,,,,,,,,,,,,,,,,,,,,,,,,,,,,,,,,,,,,,1.4254,631.2327788,None,None,1,631.2327788,None,,P018,fencog,1,Post,2021_Nov_05_1155,N-Back (New Version 2021),2021.1.4,119.6961154
,,,,Conditions/Version_1/twoback(2)_v1.xlsx,New rule: Press 'space' when you see 2-back (i.e. the same letter as the one that appeared 2 letters ago.),j,None,,,,,,,,,0,7,7,7,0,7,7,7,,,,,,,,,,,,,,,,,,,,,,,,,,,,,,,,,,,,,,,,,,,,,,,,,,,,,,,,,,,,,,,,,,,,,1.165,634.4053713,None,None,1,634.4053713,None,,P018,fencog,1,Post,2021_Nov_05_1155,N-Back (New Version 2021),2021.1.4,119.6961154
,,,,Conditions/Version_1/twoback(2)_v1.xlsx,New rule: Press 'space' when you see 2-back (i.e. the same letter as the one that appeared 2 letters ago.),g,space,,,,,,,,,0,7,7,7,0,8,8,8,,,,,,,,,,,,,,,,,,,,,,,,,,,,,,,,,,,,,,,,,,,,,,,,,,,,,,,,,,,,,,,,,,,,,1.6052,638.0133819,None,space,1,638.0133819,None,0.3734362,P018,fencog,1,Post,2021_Nov_05_1155,N-Back (New Version 2021),2021.1.4,119.6961154
,,,,Conditions/Version_1/twoback(2)_v1.xlsx,New rule: Press 'space' when you see 2-back (i.e. the same letter as the one that appeared 2 letters ago.),G,None,,,,,,,,,0,7,7,7,0,9,9,9,,,,,,,,,,,,,,,,,,,,,,,,,,,,,,,,,,,,,,,,,,,,,,,,,,,,,,,,,,,,,,,,,,,,,1.1526,641.1702265,None,None,1,641.1702265,None,,P018,fencog,1,Post,2021_Nov_05_1155,N-Back (New Version 2021),2021.1.4,119.6961154
,,,,Conditions/Version_1/twoback(2)_v1.xlsx,New rule: Press 'space' when you see 2-back (i.e. the same letter as the one that appeared 2 letters ago.),,,,,,,,,,,0,7,7,7,,,,,,,,,,,,,,,,,,,,,,,,,,,,,,,,,,,,,,,,,,,,,,,,,,,,,,,,,,,,,,,,,,,,,,,,,,,,,,,,,P018,fencog,1,Post,2021_Nov_05_1155,N-Back (New Version 2021),2021.1.4,119.6961154
,,,,Conditions/Version_1/threeback(3)_v1.xlsx,New rule: Press 'space' when you see 3-back (i.e. the same letter as the one that appeared 3 letters ago.),w,None,,,,,,,,,0,8,8,8,0,0,0,0,,,,,,,,,,,,,,,,,,,,,,,,,,,,,,,,,,,,,,,,,,,,,,,,,,,,,,,,,,,643.1923332,None,646.1790582,None,space,0.1437306,646.1790582,None,643.1923332,None,1.8718,648.2262863,None,None,1,648.2262863,None,,P018,fencog,1,Post,2021_Nov_05_1155,N-Back (New Version 2021),2021.1.4,119.6961154
,,,,Conditions/Version_1/threeback(3)_v1.xlsx,New rule: Press 'space' when you see 3-back (i.e. the same letter as the one that appeared 3 letters ago.),p,None,,,,,,,,,0,8,8,8,0,1,1,1,,,,,,,,,,,,,,,,,,,,,,,,,,,,,,,,,,,,,,,,,,,,,,,,,,,,,,,,,,,,,,,,,,,,,1.3014,651.540427,None,None,1,651.540427,None,,P018,fencog,1,Post,2021_Nov_05_1155,N-Back (New Version 2021),2021.1.4,119.6961154
,,,,Conditions/Version_1/threeback(3)_v1.xlsx,New rule: Press 'space' when you see 3-back (i.e. the same letter as the one that appeared 3 letters ago.),P,None,,,,,,,,,0,8,8,8,0,2,2,2,,,,,,,,,,,,,,,,,,,,,,,,,,,,,,,,,,,,,,,,,,,,,,,,,,,,,,,,,,,,,,,,,,,,,1.8222,655.3574607,None,None,1,655.3574607,None,,P018,fencog,1,Post,2021_Nov_05_1155,N-Back (New Version 2021),2021.1.4,119.6961154
,,,,Conditions/Version_1/threeback(3)_v1.xlsx,New rule: Press 'space' when you see 3-back (i.e. the same letter as the one that appeared 3 letters ago.),i,None,,,,,,,,,0,8,8,8,0,3,3,3,,,,,,,,,,,,,,,,,,,,,,,,,,,,,,,,,,,,,,,,,,,,,,,,,,,,,,,,,,,,,,,,,,,,,1.9028,659.2662574,None,None,1,659.2662574,None,,P018,fencog,1,Post,2021_Nov_05_1155,N-Back (New Version 2021),2021.1.4,119.6961154
,,,,Conditions/Version_1/threeback(3)_v1.xlsx,New rule: Press 'space' when you see 3-back (i.e. the same letter as the one that appeared 3 letters ago.),f,None,,,,,,,,,0,8,8,8,0,4,4,4,,,,,,,,,,,,,,,,,,,,,,,,,,,,,,,,,,,,,,,,,,,,,,,,,,,,,,,,,,,,,,,,,,,,,1.2518,662.5344421,None,None,1,662.5344421,None,,P018,fencog,1,Post,2021_Nov_05_1155,N-Back (New Version 2021),2021.1.4,119.6961154
,,,,Conditions/Version_1/threeback(3)_v1.xlsx,New rule: Press 'space' when you see 3-back (i.e. the same letter as the one that appeared 3 letters ago.),o,None,,,,,,,,,0,8,8,8,0,5,5,5,,,,,,,,,,,,,,,,,,,,,,,,,,,,,,,,,,,,,,,,,,,,,,,,,,,,,,,,,,,,,,,,,,,,,1.8532,666.3958677,None,None,1,666.3958677,None,,P018,fencog,1,Post,2021_Nov_05_1155,N-Back (New Version 2021),2021.1.4,119.6961154
,,,,Conditions/Version_1/threeback(3)_v1.xlsx,New rule: Press 'space' when you see 3-back (i.e. the same letter as the one that appeared 3 letters ago.),w,None,,,,,,,,,0,8,8,8,0,6,6,6,,,,,,,,,,,,,,,,,,,,,,,,,,,,,,,,,,,,,,,,,,,,,,,,,,,,,,,,,,,,,,,,,,,,,1.6734,670.0698466,None,None,1,670.0698466,None,,P018,fencog,1,Post,2021_Nov_05_1155,N-Back (New Version 2021),2021.1.4,119.6961154
,,,,Conditions/Version_1/threeback(3)_v1.xlsx,New rule: Press 'space' when you see 3-back (i.e. the same letter as the one that appeared 3 letters ago.),F,space,,,,,,,,,0,8,8,8,0,7,7,7,,,,,,,,,,,,,,,,,,,,,,,,,,,,,,,,,,,,,,,,,,,,,,,,,,,,,,,,,,,,,,,,,,,,,1.5184,673.5938347,None,space,1,673.5938347,None,0.8086791,P018,fencog,1,Post,2021_Nov_05_1155,N-Back (New Version 2021),2021.1.4,119.6961154
,,,,Conditions/Version_1/threeback(3)_v1.xlsx,New rule: Press 'space' when you see 3-back (i.e. the same letter as the one that appeared 3 letters ago.),p,None,,,,,,,,,0,8,8,8,0,8,8,8,,,,,,,,,,,,,,,,,,,,,,,,,,,,,,,,,,,,,,,,,,,,,,,,,,,,,,,,,,,,,,,,,,,,,1.413,677.0096227,None,None,1,677.0096227,None,,P018,fencog,1,Post,2021_Nov_05_1155,N-Back (New Version 2021),2021.1.4,119.6961154
,,,,Conditions/Version_1/threeback(3)_v1.xlsx,New rule: Press 'space' when you see 3-back (i.e. the same letter as the one that appeared 3 letters ago.),W,space,,,,,,,,,0,8,8,8,0,9,9,9,,,,,,,,,,,,,,,,,,,,,,,,,,,,,,,,,,,,,,,,,,,,,,,,,,,,,,,,,,,,,,,,,,,,,1.6982,680.7177383,None,space,1,680.7177383,None,0.6131205,P018,fencog,1,Post,2021_Nov_05_1155,N-Back (New Version 2021),2021.1.4,119.6961154
,,,,Conditions/Version_1/threeback(3)_v1.xlsx,New rule: Press 'space' when you see 3-back (i.e. the same letter as the one that appeared 3 letters ago.),,,,,,,,,,,0,8,8,8,,,,,,,,,,,,,,,,,,,,,,,,,,,,,,,,,,,,,,,,,,,,,,,,,,,,,,,,,,,,,,,,,,,,,,,,,,,,,,,,,P018,fencog,1,Post,2021_Nov_05_1155,N-Back (New Version 2021),2021.1.4,119.6961154
,,,,Conditions/Version_1/zeroback(3)_v1.xlsx,New rule: Press 'space' when you see the letter 'x' or 'X'.,X,space,,,,,,,,,0,9,9,9,0,0,0,0,,,,,,,,,,,,,,,,,,,,,,,,,,,,,,,,,,,,,,,,,,,,,,,,,,,,,,,,,,,682.743568,None,685.7264226,None,space,0.2681609,685.7264226,None,682.743568,None,1.754,687.7734472,None,space,1,687.7734472,None,0.4851137,P018,fencog,1,Post,2021_Nov_05_1155,N-Back (New Version 2021),2021.1.4,119.6961154
,,,,Conditions/Version_1/zeroback(3)_v1.xlsx,New rule: Press 'space' when you see the letter 'x' or 'X'.,B,None,,,,,,,,,0,9,9,9,0,1,1,1,,,,,,,,,,,,,,,,,,,,,,,,,,,,,,,,,,,,,,,,,,,,,,,,,,,,,,,,,,,,,,,,,,,,,1.5432,691.3234366,None,None,1,691.3234366,None,,P018,fencog,1,Post,2021_Nov_05_1155,N-Back (New Version 2021),2021.1.4,119.6961154
,,,,Conditions/Version_1/zeroback(3)_v1.xlsx,New rule: Press 'space' when you see the letter 'x' or 'X'.,m,None,,,,,,,,,0,9,9,9,0,2,2,2,,,,,,,,,,,,,,,,,,,,,,,,,,,,,,,,,,,,,,,,,,,,,,,,,,,,,,,,,,,,,,,,,,,,,1.7726,695.1067304,None,None,1,695.1067304,None,,P018,fencog,1,Post,2021_Nov_05_1155,N-Back (New Version 2021),2021.1.4,119.6961154
,,,,Conditions/Version_1/zeroback(3)_v1.xlsx,New rule: Press 'space' when you see the letter 'x' or 'X'.,m,None,,,,,,,,,0,9,9,9,0,3,3,3,,,,,,,,,,,,,,,,,,,,,,,,,,,,,,,,,,,,,,,,,,,,,,,,,,,,,,,,,,,,,,,,,,,,,1.7478,698.8614089,None,None,1,698.8614089,None,,P018,fencog,1,Post,2021_Nov_05_1155,N-Back (New Version 2021),2021.1.4,119.6961154
,,,,Conditions/Version_1/zeroback(3)_v1.xlsx,New rule: Press 'space' when you see the letter 'x' or 'X'.,o,None,,,,,,,,,0,9,9,9,0,4,4,4,,,,,,,,,,,,,,,,,,,,,,,,,,,,,,,,,,,,,,,,,,,,,,,,,,,,,,,,,,,,,,,,,,,,,1.4564,702.3269618,None,None,1,702.3269618,None,,P018,fencog,1,Post,2021_Nov_05_1155,N-Back (New Version 2021),2021.1.4,119.6961154
,,,,Conditions/Version_1/zeroback(3)_v1.xlsx,New rule: Press 'space' when you see the letter 'x' or 'X'.,p,None,,,,,,,,,0,9,9,9,0,5,5,5,,,,,,,,,,,,,,,,,,,,,,,,,,,,,,,,,,,,,,,,,,,,,,,,,,,,,,,,,,,,,,,,,,,,,1.4316,705.759217,None,None,1,705.759217,None,,P018,fencog,1,Post,2021_Nov_05_1155,N-Back (New Version 2021),2021.1.4,119.6961154
,,,,Conditions/Version_1/zeroback(3)_v1.xlsx,New rule: Press 'space' when you see the letter 'x' or 'X'.,G,None,,,,,,,,,0,9,9,9,0,6,6,6,,,,,,,,,,,,,,,,,,,,,,,,,,,,,,,,,,,,,,,,,,,,,,,,,,,,,,,,,,,,,,,,,,,,,1.785,709.5499285,None,None,1,709.5499285,None,,P018,fencog,1,Post,2021_Nov_05_1155,N-Back (New Version 2021),2021.1.4,119.6961154
,,,,Conditions/Version_1/zeroback(3)_v1.xlsx,New rule: Press 'space' when you see the letter 'x' or 'X'.,X,space,,,,,,,,,0,9,9,9,0,7,7,7,,,,,,,,,,,,,,,,,,,,,,,,,,,,,,,,,,,,,,,,,,,,,,,,,,,,,,,,,,,,,,,,,,,,,1.6424,713.1991068,None,space,1,713.1991068,None,0.4276414,P018,fencog,1,Post,2021_Nov_05_1155,N-Back (New Version 2021),2021.1.4,119.6961154
,,,,Conditions/Version_1/zeroback(3)_v1.xlsx,New rule: Press 'space' when you see the letter 'x' or 'X'.,p,None,,,,,,,,,0,9,9,9,0,8,8,8,,,,,,,,,,,,,,,,,,,,,,,,,,,,,,,,,,,,,,,,,,,,,,,,,,,,,,,,,,,,,,,,,,,,,1.7602,716.9663552,None,space,0,716.9663552,None,0.3882643,P018,fencog,1,Post,2021_Nov_05_1155,N-Back (New Version 2021),2021.1.4,119.6961154
,,,,Conditions/Version_1/zeroback(3)_v1.xlsx,New rule: Press 'space' when you see the letter 'x' or 'X'.,x,space,,,,,,,,,0,9,9,9,0,9,9,9,,,,,,,,,,,,,,,,,,,,,,,,,,,,,,,,,,,,,,,,,,,,,,,,,,,,,,,,,,,,,,,,,,,,,1.4378,720.4132197,None,space,1,720.4132197,None,0.341574,P018,fencog,1,Post,2021_Nov_05_1155,N-Back (New Version 2021),2021.1.4,119.6961154
,,,,Conditions/Version_1/zeroback(3)_v1.xlsx,New rule: Press 'space' when you see the letter 'x' or 'X'.,,,,,,,,,,,0,9,9,9,,,,,,,,,,,,,,,,,,,,,,,,,,,,,,,,,,,,,,,,,,,,,,,,,,,,,,,,,,,,,,,,,,,,,,,,,,,,,,,,,P018,fencog,1,Post,2021_Nov_05_1155,N-Back (New Version 2021),2021.1.4,119.6961154
,,,,Conditions/Version_1/twoback(3)_v1.xlsx,New rule: Press 'space' when you see 2-back (i.e. the same letter as the one that appeared 2 letters ago.),e,None,,,,,,,,,0,10,10,10,0,0,0,0,,,,,,,,,,,,,,,,,,,,,,,,,,,,,,,,,,,,,,,,,,,,,,,,,,,,,,,,,,,722.434889,None,725.4223008,None,space,0.5402116,725.4223008,None,722.434889,None,1.0472,727.0444603,None,None,1,727.0444603,None,,P018,fencog,1,Post,2021_Nov_05_1155,N-Back (New Version 2021),2021.1.4,119.6961154
,,,,Conditions/Version_1/twoback(3)_v1.xlsx,New rule: Press 'space' when you see 2-back (i.e. the same letter as the one that appeared 2 letters ago.),o,None,,,,,,,,,0,10,10,10,0,1,1,1,,,,,,,,,,,,,,,,,,,,,,,,,,,,,,,,,,,,,,,,,,,,,,,,,,,,,,,,,,,,,,,,,,,,,1.0286,730.0772235,None,None,1,730.0772235,None,,P018,fencog,1,Post,2021_Nov_05_1155,N-Back (New Version 2021),2021.1.4,119.6961154
,,,,Conditions/Version_1/twoback(3)_v1.xlsx,New rule: Press 'space' when you see 2-back (i.e. the same letter as the one that appeared 2 letters ago.),P,None,,,,,,,,,0,10,10,10,0,2,2,2,,,,,,,,,,,,,,,,,,,,,,,,,,,,,,,,,,,,,,,,,,,,,,,,,,,,,,,,,,,,,,,,,,,,,1.5308,733.6168224,None,None,1,733.6168224,None,,P018,fencog,1,Post,2021_Nov_05_1155,N-Back (New Version 2021),2021.1.4,119.6961154
,,,,Conditions/Version_1/twoback(3)_v1.xlsx,New rule: Press 'space' when you see 2-back (i.e. the same letter as the one that appeared 2 letters ago.),z,None,,,,,,,,,0,10,10,10,0,3,3,3,,,,,,,,,,,,,,,,,,,,,,,,,,,,,,,,,,,,,,,,,,,,,,,,,,,,,,,,,,,,,,,,,,,,,1.537,737.1600488,None,None,1,737.1600488,None,,P018,fencog,1,Post,2021_Nov_05_1155,N-Back (New Version 2021),2021.1.4,119.6961154
,,,,Conditions/Version_1/twoback(3)_v1.xlsx,New rule: Press 'space' when you see 2-back (i.e. the same letter as the one that appeared 2 letters ago.),X,None,,,,,,,,,0,10,10,10,0,4,4,4,,,,,,,,,,,,,,,,,,,,,,,,,,,,,,,,,,,,,,,,,,,,,,,,,,,,,,,,,,,,,,,,,,,,,1.8532,741.0240743,None,None,1,741.0240743,None,,P018,fencog,1,Post,2021_Nov_05_1155,N-Back (New Version 2021),2021.1.4,119.6961154
,,,,Conditions/Version_1/twoback(3)_v1.xlsx,New rule: Press 'space' when you see 2-back (i.e. the same letter as the one that appeared 2 letters ago.),z,space,,,,,,,,,0,10,10,10,0,5,5,5,,,,,,,,,,,,,,,,,,,,,,,,,,,,,,,,,,,,,,,,,,,,,,,,,,,,,,,,,,,,,,,,,,,,,1.9958,745.022598,None,space,1,745.022598,None,0.8367099,P018,fencog,1,Post,2021_Nov_05_1155,N-Back (New Version 2021),2021.1.4,119.6961154
,,,,Conditions/Version_1/twoback(3)_v1.xlsx,New rule: Press 'space' when you see 2-back (i.e. the same letter as the one that appeared 2 letters ago.),x,space,,,,,,,,,0,10,10,10,0,6,6,6,,,,,,,,,,,,,,,,,,,,,,,,,,,,,,,,,,,,,,,,,,,,,,,,,,,,,,,,,,,,,,,,,,,,,1.4688,748.4965896,None,space,1,748.4965896,None,0.4740068,P018,fencog,1,Post,2021_Nov_05_1155,N-Back (New Version 2021),2021.1.4,119.6961154
,,,,Conditions/Version_1/twoback(3)_v1.xlsx,New rule: Press 'space' when you see 2-back (i.e. the same letter as the one that appeared 2 letters ago.),c,None,,,,,,,,,0,10,10,10,0,7,7,7,,,,,,,,,,,,,,,,,,,,,,,,,,,,,,,,,,,,,,,,,,,,,,,,,,,,,,,,,,,,,,,,,,,,,1.1898,751.688247,None,None,1,751.688247,None,,P018,fencog,1,Post,2021_Nov_05_1155,N-Back (New Version 2021),2021.1.4,119.6961154
,,,,Conditions/Version_1/twoback(3)_v1.xlsx,New rule: Press 'space' when you see 2-back (i.e. the same letter as the one that appeared 2 letters ago.),i,None,,,,,,,,,0,10,10,10,0,8,8,8,,,,,,,,,,,,,,,,,,,,,,,,,,,,,,,,,,,,,,,,,,,,,,,,,,,,,,,,,,,,,,,,,,,,,1.351,755.0551522,None,None,1,755.0551522,None,,P018,fencog,1,Post,2021_Nov_05_1155,N-Back (New Version 2021),2021.1.4,119.6961154
,,,,Conditions/Version_1/twoback(3)_v1.xlsx,New rule: Press 'space' when you see 2-back (i.e. the same letter as the one that appeared 2 letters ago.),C,space,,,,,,,,,0,10,10,10,0,9,9,9,,,,,,,,,,,,,,,,,,,,,,,,,,,,,,,,,,,,,,,,,,,,,,,,,,,,,,,,,,,,,,,,,,,,,1.5742,758.6363268,None,space,1,758.6363268,None,0.4703183,P018,fencog,1,Post,2021_Nov_05_1155,N-Back (New Version 2021),2021.1.4,119.6961154
,,,,Conditions/Version_1/twoback(3)_v1.xlsx,New rule: Press 'space' when you see 2-back (i.e. the same letter as the one that appeared 2 letters ago.),,,,,,,,,,,0,10,10,10,,,,,,,,,,,,,,,,,,,,,,,,,,,,,,,,,,,,,,,,,,,,,,,,,,,,,,,,,,,,,,,,,,,,,,,,,,,,,,,,,P018,fencog,1,Post,2021_Nov_05_1155,N-Back (New Version 2021),2021.1.4,119.6961154
,,,,Conditions/Version_1/oneback(3)_v1.xlsx,New rule: Press 'space' when you see 1-back (i.e. the same letter as the one that appeared 1 letter ago.),o,None,,,,,,,,,0,11,11,11,0,0,0,0,,,,,,,,,,,,,,,,,,,,,,,,,,,,,,,,,,,,,,,,,,,,,,,,,,,,,,,,,,,760.6661197,None,763.6529585,None,space,0.3095803,763.6529585,None,760.6661197,None,1.9772,765.9751837,None,None,1,765.9751837,None,,P018,fencog,1,Post,2021_Nov_05_1155,N-Back (New Version 2021),2021.1.4,119.6961154
,,,,Conditions/Version_1/oneback(3)_v1.xlsx,New rule: Press 'space' when you see 1-back (i.e. the same letter as the one that appeared 1 letter ago.),O,space,,,,,,,,,0,11,11,11,0,1,1,1,,,,,,,,,,,,,,,,,,,,,,,,,,,,,,,,,,,,,,,,,,,,,,,,,,,,,,,,,,,,,,,,,,,,,1.6796,769.6580077,None,space,1,769.6580077,None,0.433018,P018,fencog,1,Post,2021_Nov_05_1155,N-Back (New Version 2021),2021.1.4,119.6961154
,,,,Conditions/Version_1/oneback(3)_v1.xlsx,New rule: Press 'space' when you see 1-back (i.e. the same letter as the one that appeared 1 letter ago.),h,None,,,,,,,,,0,11,11,11,0,2,2,2,,,,,,,,,,,,,,,,,,,,,,,,,,,,,,,,,,,,,,,,,,,,,,,,,,,,,,,,,,,,,,,,,,,,,1.32,772.9891984,None,None,1,772.9891984,None,,P018,fencog,1,Post,2021_Nov_05_1155,N-Back (New Version 2021),2021.1.4,119.6961154
,,,,Conditions/Version_1/oneback(3)_v1.xlsx,New rule: Press 'space' when you see 1-back (i.e. the same letter as the one that appeared 1 letter ago.),g,None,,,,,,,,,0,11,11,11,0,3,3,3,,,,,,,,,,,,,,,,,,,,,,,,,,,,,,,,,,,,,,,,,,,,,,,,,,,,,,,,,,,,,,,,,,,,,1.1588,776.1561181,None,None,1,776.1561181,None,,P018,fencog,1,Post,2021_Nov_05_1155,N-Back (New Version 2021),2021.1.4,119.6961154
,,,,Conditions/Version_1/oneback(3)_v1.xlsx,New rule: Press 'space' when you see 1-back (i.e. the same letter as the one that appeared 1 letter ago.),n,None,,,,,,,,,0,11,11,11,0,4,4,4,,,,,,,,,,,,,,,,,,,,,,,,,,,,,,,,,,,,,,,,,,,,,,,,,,,,,,,,,,,,,,,,,,,,,1.2952,779.4540681,None,None,1,779.4540681,None,,P018,fencog,1,Post,2021_Nov_05_1155,N-Back (New Version 2021),2021.1.4,119.6961154
,,,,Conditions/Version_1/oneback(3)_v1.xlsx,New rule: Press 'space' when you see 1-back (i.e. the same letter as the one that appeared 1 letter ago.),z,None,,,,,,,,,0,11,11,11,0,5,5,5,,,,,,,,,,,,,,,,,,,,,,,,,,,,,,,,,,,,,,,,,,,,,,,,,,,,,,,,,,,,,,,,,,,,,1.6486,783.1031719,None,None,1,783.1031719,None,,P018,fencog,1,Post,2021_Nov_05_1155,N-Back (New Version 2021),2021.1.4,119.6961154
,,,,Conditions/Version_1/oneback(3)_v1.xlsx,New rule: Press 'space' when you see 1-back (i.e. the same letter as the one that appeared 1 letter ago.),X,None,,,,,,,,,0,11,11,11,0,6,6,6,,,,,,,,,,,,,,,,,,,,,,,,,,,,,,,,,,,,,,,,,,,,,,,,,,,,,,,,,,,,,,,,,,,,,1.258,786.4063086,None,None,1,786.4063086,None,,P018,fencog,1,Post,2021_Nov_05_1155,N-Back (New Version 2021),2021.1.4,119.6961154
,,,,Conditions/Version_1/oneback(3)_v1.xlsx,New rule: Press 'space' when you see 1-back (i.e. the same letter as the one that appeared 1 letter ago.),r,None,,,,,,,,,0,11,11,11,0,7,7,7,,,,,,,,,,,,,,,,,,,,,,,,,,,,,,,,,,,,,,,,,,,,,,,,,,,,,,,,,,,,,,,,,,,,,1.785,790.1676191,None,None,1,790.1676191,None,,P018,fencog,1,Post,2021_Nov_05_1155,N-Back (New Version 2021),2021.1.4,119.6961154
,,,,Conditions/Version_1/oneback(3)_v1.xlsx,New rule: Press 'space' when you see 1-back (i.e. the same letter as the one that appeared 1 letter ago.),r,space,,,,,,,,,0,11,11,11,0,8,8,8,,,,,,,,,,,,,,,,,,,,,,,,,,,,,,,,,,,,,,,,,,,,,,,,,,,,,,,,,,,,,,,,,,,,,1.7354,793.9081692,None,space,1,793.9081692,None,0.5903327,P018,fencog,1,Post,2021_Nov_05_1155,N-Back (New Version 2021),2021.1.4,119.6961154
,,,,Conditions/Version_1/oneback(3)_v1.xlsx,New rule: Press 'space' when you see 1-back (i.e. the same letter as the one that appeared 1 letter ago.),P,None,,,,,,,,,0,11,11,11,0,9,9,9,,,,,,,,,,,,,,,,,,,,,,,,,,,,,,,,,,,,,,,,,,,,,,,,,,,,,,,,,,,,,,,,,,,,,1.4378,797.3489052,None,None,1,797.3489052,None,,P018,fencog,1,Post,2021_Nov_05_1155,N-Back (New Version 2021),2021.1.4,119.6961154
,,,,Conditions/Version_1/oneback(3)_v1.xlsx,New rule: Press 'space' when you see 1-back (i.e. the same letter as the one that appeared 1 letter ago.),,,,,,,,,,,0,11,11,11,,,,,,,,,,,,,,,,,,,,,,,,,,,,,,,,,,,,,,,,,,,,,,,,,,,,,,,,,,,,,,,,,,,,,,,,,,,,,,,,,P018,fencog,1,Post,2021_Nov_05_1155,N-Back (New Version 2021),2021.1.4,119.6961154
,,,,Conditions/Version_1/twoback(4)_v1.xlsx,New rule: Press 'space' when you see 2-back (i.e. the same letter as the one that appeared 2 letters ago.),r,None,,,,,,,,,0,12,12,12,0,0,0,0,,,,,,,,,,,,,,,,,,,,,,,,,,,,,,,,,,,,,,,,,,,,,,,,,,,,,,,,,,,799.3704674,None,802.3581336,None,space,1.1565267,802.3581336,None,799.3704674,None,1.2766,804.8219309,None,None,1,804.8219309,None,,P018,fencog,1,Post,2021_Nov_05_1155,N-Back (New Version 2021),2021.1.4,119.6961154
,,,,Conditions/Version_1/twoback(4)_v1.xlsx,New rule: Press 'space' when you see 2-back (i.e. the same letter as the one that appeared 2 letters ago.),T,None,,,,,,,,,0,12,12,12,0,1,1,1,,,,,,,,,,,,,,,,,,,,,,,,,,,,,,,,,,,,,,,,,,,,,,,,,,,,,,,,,,,,,,,,,,,,,1.785,808.6123046,None,None,1,808.6123046,None,,P018,fencog,1,Post,2021_Nov_05_1155,N-Back (New Version 2021),2021.1.4,119.6961154
,,,,Conditions/Version_1/twoback(4)_v1.xlsx,New rule: Press 'space' when you see 2-back (i.e. the same letter as the one that appeared 2 letters ago.),o,None,,,,,,,,,0,12,12,12,0,2,2,2,,,,,,,,,,,,,,,,,,,,,,,,,,,,,,,,,,,,,,,,,,,,,,,,,,,,,,,,,,,,,,,,,,,,,1.5866,812.213535,None,None,1,812.213535,None,,P018,fencog,1,Post,2021_Nov_05_1155,N-Back (New Version 2021),2021.1.4,119.6961154
,,,,Conditions/Version_1/twoback(4)_v1.xlsx,New rule: Press 'space' when you see 2-back (i.e. the same letter as the one that appeared 2 letters ago.),p,None,,,,,,,,,0,12,12,12,0,3,3,3,,,,,,,,,,,,,,,,,,,,,,,,,,,,,,,,,,,,,,,,,,,,,,,,,,,,,,,,,,,,,,,,,,,,,1.7602,815.9851767,None,None,1,815.9851767,None,,P018,fencog,1,Post,2021_Nov_05_1155,N-Back (New Version 2021),2021.1.4,119.6961154
,,,,Conditions/Version_1/twoback(4)_v1.xlsx,New rule: Press 'space' when you see 2-back (i.e. the same letter as the one that appeared 2 letters ago.),p,None,,,,,,,,,0,12,12,12,0,4,4,4,,,,,,,,,,,,,,,,,,,,,,,,,,,,,,,,,,,,,,,,,,,,,,,,,,,,,,,,,,,,,,,,,,,,,1.3634,819.3508159,None,None,1,819.3508159,None,,P018,fencog,1,Post,2021_Nov_05_1155,N-Back (New Version 2021),2021.1.4,119.6961154
,,,,Conditions/Version_1/twoback(4)_v1.xlsx,New rule: Press 'space' when you see 2-back (i.e. the same letter as the one that appeared 2 letters ago.),y,None,,,,,,,,,0,12,12,12,0,5,5,5,,,,,,,,,,,,,,,,,,,,,,,,,,,,,,,,,,,,,,,,,,,,,,,,,,,,,,,,,,,,,,,,,,,,,1.4192,822.7834274,None,None,1,822.7834274,None,,P018,fencog,1,Post,2021_Nov_05_1155,N-Back (New Version 2021),2021.1.4,119.6961154
,,,,Conditions/Version_1/twoback(4)_v1.xlsx,New rule: Press 'space' when you see 2-back (i.e. the same letter as the one that appeared 2 letters ago.),P,space,,,,,,,,,0,12,12,12,0,6,6,6,,,,,,,,,,,,,,,,,,,,,,,,,,,,,,,,,,,,,,,,,,,,,,,,,,,,,,,,,,,,,,,,,,,,,1.3572,826.1403606,None,space,1,826.1403606,None,0.326245,P018,fencog,1,Post,2021_Nov_05_1155,N-Back (New Version 2021),2021.1.4,119.6961154
,,,,Conditions/Version_1/twoback(4)_v1.xlsx,New rule: Press 'space' when you see 2-back (i.e. the same letter as the one that appeared 2 letters ago.),y,None,,,,,,,,,0,12,12,12,0,7,7,7,,,,,,,,,,,,,,,,,,,,,,,,,,,,,,,,,,,,,,,,,,,,,,,,,,,,,,,,,,,,,,,,,,,,,1.4874,829.6310848,None,space,0,829.6310848,None,0.3153895,P018,fencog,1,Post,2021_Nov_05_1155,N-Back (New Version 2021),2021.1.4,119.6961154
,,,,Conditions/Version_1/twoback(4)_v1.xlsx,New rule: Press 'space' when you see 2-back (i.e. the same letter as the one that appeared 2 letters ago.),y,space,,,,,,,,,0,12,12,12,0,8,8,8,,,,,,,,,,,,,,,,,,,,,,,,,,,,,,,,,,,,,,,,,,,,,,,,,,,,,,,,,,,,,,,,,,,,,1.6114,833.2467379,None,None,0,833.2467379,None,,P018,fencog,1,Post,2021_Nov_05_1155,N-Back (New Version 2021),2021.1.4,119.6961154
,,,,Conditions/Version_1/twoback(4)_v1.xlsx,New rule: Press 'space' when you see 2-back (i.e. the same letter as the one that appeared 2 letters ago.),,,,,,,,,,,0,12,12,12,,,,,,,,,,,,,,,,,,,,,,,,,,,,,,,,,,,,,,,,,,,,,,,,,,,,,,,,,,,,,,,,,,,,,,,,,,,,,,,,,P018,fencog,1,Post,2021_Nov_05_1155,N-Back (New Version 2021),2021.1.4,119.6961154
,,,,Conditions/Version_1/zeroback(4)_v1.xlsx,New rule: Press 'space' when you see the letter 'x' or 'X'.,o,None,,,,,,,,,0,13,13,13,0,0,0,0,,,,,,,,,,,,,,,,,,,,,,,,,,,,,,,,,,,,,,,,,,,,,,,,,,,,,,,,,,,835.2662982,None,838.2555065,None,space,0.2430715,838.2555065,None,835.2662982,None,1.9586,840.4952787,None,None,1,840.4952787,None,,P018,fencog,1,Post,2021_Nov_05_1155,N-Back (New Version 2021),2021.1.4,119.6961154
,,,,Conditions/Version_1/zeroback(4)_v1.xlsx,New rule: Press 'space' when you see the letter 'x' or 'X'.,X,space,,,,,,,,,0,13,13,13,0,1,1,1,,,,,,,,,,,,,,,,,,,,,,,,,,,,,,,,,,,,,,,,,,,,,,,,,,,,,,,,,,,,,,,,,,,,,1.8036,844.3026719,None,space,1,844.3026719,None,0.3316676,P018,fencog,1,Post,2021_Nov_05_1155,N-Back (New Version 2021),2021.1.4,119.6961154
,,,,Conditions/Version_1/zeroback(4)_v1.xlsx,New rule: Press 'space' when you see the letter 'x' or 'X'.,p,None,,,,,,,,,0,13,13,13,0,2,2,2,,,,,,,,,,,,,,,,,,,,,,,,,,,,,,,,,,,,,,,,,,,,,,,,,,,,,,,,,,,,,,,,,,,,,1.2022,847.5174072,None,None,1,847.5174072,None,,P018,fencog,1,Post,2021_Nov_05_1155,N-Back (New Version 2021),2021.1.4,119.6961154
,,,,Conditions/Version_1/zeroback(4)_v1.xlsx,New rule: Press 'space' when you see the letter 'x' or 'X'.,m,None,,,,,,,,,0,13,13,13,0,3,3,3,,,,,,,,,,,,,,,,,,,,,,,,,,,,,,,,,,,,,,,,,,,,,,,,,,,,,,,,,,,,,,,,,,,,,1.6362,851.1578743,None,None,1,851.1578743,None,,P018,fencog,1,Post,2021_Nov_05_1155,N-Back (New Version 2021),2021.1.4,119.6961154
,,,,Conditions/Version_1/zeroback(4)_v1.xlsx,New rule: Press 'space' when you see the letter 'x' or 'X'.,n,None,,,,,,,,,0,13,13,13,0,4,4,4,,,,,,,,,,,,,,,,,,,,,,,,,,,,,,,,,,,,,,,,,,,,,,,,,,,,,,,,,,,,,,,,,,,,,1.2952,854.4567087,None,None,1,854.4567087,None,,P018,fencog,1,Post,2021_Nov_05_1155,N-Back (New Version 2021),2021.1.4,119.6961154
,,,,Conditions/Version_1/zeroback(4)_v1.xlsx,New rule: Press 'space' when you see the letter 'x' or 'X'.,m,None,,,,,,,,,0,13,13,13,0,5,5,5,,,,,,,,,,,,,,,,,,,,,,,,,,,,,,,,,,,,,,,,,,,,,,,,,,,,,,,,,,,,,,,,,,,,,1.0348,857.4982278,None,None,1,857.4982278,None,,P018,fencog,1,Post,2021_Nov_05_1155,N-Back (New Version 2021),2021.1.4,119.6961154
,,,,Conditions/Version_1/zeroback(4)_v1.xlsx,New rule: Press 'space' when you see the letter 'x' or 'X'.,C,None,,,,,,,,,0,13,13,13,0,6,6,6,,,,,,,,,,,,,,,,,,,,,,,,,,,,,,,,,,,,,,,,,,,,,,,,,,,,,,,,,,,,,,,,,,,,,1.754,861.263447,None,None,1,861.263447,None,,P018,fencog,1,Post,2021_Nov_05_1155,N-Back (New Version 2021),2021.1.4,119.6961154
,,,,Conditions/Version_1/zeroback(4)_v1.xlsx,New rule: Press 'space' when you see the letter 'x' or 'X'.,m,None,,,,,,,,,0,13,13,13,0,7,7,7,,,,,,,,,,,,,,,,,,,,,,,,,,,,,,,,,,,,,,,,,,,,,,,,,,,,,,,,,,,,,,,,,,,,,1.5618,864.8290294,None,None,1,864.8290294,None,,P018,fencog,1,Post,2021_Nov_05_1155,N-Back (New Version 2021),2021.1.4,119.6961154
,,,,Conditions/Version_1/zeroback(4)_v1.xlsx,New rule: Press 'space' when you see the letter 'x' or 'X'.,p,None,,,,,,,,,0,13,13,13,0,8,8,8,,,,,,,,,,,,,,,,,,,,,,,,,,,,,,,,,,,,,,,,,,,,,,,,,,,,,,,,,,,,,,,,,,,,,1.5184,868.3562515,None,None,1,868.3562515,None,,P018,fencog,1,Post,2021_Nov_05_1155,N-Back (New Version 2021),2021.1.4,119.6961154
,,,,Conditions/Version_1/zeroback(4)_v1.xlsx,New rule: Press 'space' when you see the letter 'x' or 'X'.,X,space,,,,,,,,,0,13,13,13,0,9,9,9,,,,,,,,,,,,,,,,,,,,,,,,,,,,,,,,,,,,,,,,,,,,,,,,,,,,,,,,,,,,,,,,,,,,,1.8346,872.2016317,None,space,1,872.2016317,None,0.3687705,P018,fencog,1,Post,2021_Nov_05_1155,N-Back (New Version 2021),2021.1.4,119.6961154
,,,,Conditions/Version_1/zeroback(4)_v1.xlsx,New rule: Press 'space' when you see the letter 'x' or 'X'.,,,,,,,,,,,0,13,13,13,,,,,,,,,,,,,,,,,,,,,,,,,,,,,,,,,,,,,,,,,,,,,,,,,,,,,,,,,,,,,,,,,,,,,,,,,,,,,,,,,P018,fencog,1,Post,2021_Nov_05_1155,N-Back (New Version 2021),2021.1.4,119.6961154
,,,,Conditions/Version_1/oneback(4)_v1.xlsx,New rule: Press 'space' when you see 1-back (i.e. the same letter as the one that appeared 1 letter ago.),w,None,,,,,,,,,0,14,14,14,0,0,0,0,,,,,,,,,,,,,,,,,,,,,,,,,,,,,,,,,,,,,,,,,,,,,,,,,,,,,,,,,,,874.2232687,None,877.210876,None,space,2.6874552,877.210876,None,874.2232687,None,1.2146,881.1429619,None,None,1,881.1429619,None,,P018,fencog,1,Post,2021_Nov_05_1155,N-Back (New Version 2021),2021.1.4,119.6961154
,,,,Conditions/Version_1/oneback(4)_v1.xlsx,New rule: Press 'space' when you see 1-back (i.e. the same letter as the one that appeared 1 letter ago.),q,None,,,,,,,,,0,14,14,14,0,1,1,1,,,,,,,,,,,,,,,,,,,,,,,,,,,,,,,,,,,,,,,,,,,,,,,,,,,,,,,,,,,,,,,,,,,,,1.6424,884.7981002,None,None,1,884.7981002,None,,P018,fencog,1,Post,2021_Nov_05_1155,N-Back (New Version 2021),2021.1.4,119.6961154
,,,,Conditions/Version_1/oneback(4)_v1.xlsx,New rule: Press 'space' when you see 1-back (i.e. the same letter as the one that appeared 1 letter ago.),i,None,,,,,,,,,0,14,14,14,0,2,2,2,,,,,,,,,,,,,,,,,,,,,,,,,,,,,,,,,,,,,,,,,,,,,,,,,,,,,,,,,,,,,,,,,,,,,1.103,887.9053288,None,None,1,887.9053288,None,,P018,fencog,1,Post,2021_Nov_05_1155,N-Back (New Version 2021),2021.1.4,119.6961154
,,,,Conditions/Version_1/oneback(4)_v1.xlsx,New rule: Press 'space' when you see 1-back (i.e. the same letter as the one that appeared 1 letter ago.),t,None,,,,,,,,,0,14,14,14,0,3,3,3,,,,,,,,,,,,,,,,,,,,,,,,,,,,,,,,,,,,,,,,,,,,,,,,,,,,,,,,,,,,,,,,,,,,,1.8098,891.72509,None,None,1,891.72509,None,,P018,fencog,1,Post,2021_Nov_05_1155,N-Back (New Version 2021),2021.1.4,119.6961154
,,,,Conditions/Version_1/oneback(4)_v1.xlsx,New rule: Press 'space' when you see 1-back (i.e. the same letter as the one that appeared 1 letter ago.),v,None,,,,,,,,,0,14,14,14,0,4,4,4,,,,,,,,,,,,,,,,,,,,,,,,,,,,,,,,,,,,,,,,,,,,,,,,,,,,,,,,,,,,,,,,,,,,,1.537,895.270267,None,None,1,895.270267,None,,P018,fencog,1,Post,2021_Nov_05_1155,N-Back (New Version 2021),2021.1.4,119.6961154
,,,,Conditions/Version_1/oneback(4)_v1.xlsx,New rule: Press 'space' when you see 1-back (i.e. the same letter as the one that appeared 1 letter ago.),V,space,,,,,,,,,0,14,14,14,0,5,5,5,,,,,,,,,,,,,,,,,,,,,,,,,,,,,,,,,,,,,,,,,,,,,,,,,,,,,,,,,,,,,,,,,,,,,1.971,899.2471101,None,space,1,899.2471101,None,0.3713038,P018,fencog,1,Post,2021_Nov_05_1155,N-Back (New Version 2021),2021.1.4,119.6961154
,,,,Conditions/Version_1/oneback(4)_v1.xlsx,New rule: Press 'space' when you see 1-back (i.e. the same letter as the one that appeared 1 letter ago.),v,space,,,,,,,,,0,14,14,14,0,6,6,6,,,,,,,,,,,,,,,,,,,,,,,,,,,,,,,,,,,,,,,,,,,,,,,,,,,,,,,,,,,,,,,,,,,,,1.0596,902.3210871,None,space,1,902.3210871,None,0.3931673,P018,fencog,1,Post,2021_Nov_05_1155,N-Back (New Version 2021),2021.1.4,119.6961154
,,,,Conditions/Version_1/oneback(4)_v1.xlsx,New rule: Press 'space' when you see 1-back (i.e. the same letter as the one that appeared 1 letter ago.),p,None,,,,,,,,,0,14,14,14,0,7,7,7,,,,,,,,,,,,,,,,,,,,,,,,,,,,,,,,,,,,,,,,,,,,,,,,,,,,,,,,,,,,,,,,,,,,,1.1278,905.461099,None,None,1,905.461099,None,,P018,fencog,1,Post,2021_Nov_05_1155,N-Back (New Version 2021),2021.1.4,119.6961154
,,,,Conditions/Version_1/oneback(4)_v1.xlsx,New rule: Press 'space' when you see 1-back (i.e. the same letter as the one that appeared 1 letter ago.),w,None,,,,,,,,,0,14,14,14,0,8,8,8,,,,,,,,,,,,,,,,,,,,,,,,,,,,,,,,,,,,,,,,,,,,,,,,,,,,,,,,,,,,,,,,,,,,,1.0286,908.5016125,None,None,1,908.5016125,None,,P018,fencog,1,Post,2021_Nov_05_1155,N-Back (New Version 2021),2021.1.4,119.6961154
,,,,Conditions/Version_1/oneback(4)_v1.xlsx,New rule: Press 'space' when you see 1-back (i.e. the same letter as the one that appeared 1 letter ago.),W,space,,,,,,,,,0,14,14,14,0,9,9,9,,,,,,,,,,,,,,,,,,,,,,,,,,,,,,,,,,,,,,,,,,,,,,,,,,,,,,,,,,,,,,,,,,,,,1.94,912.4481885,None,space,1,912.4481885,None,0.3460611,P018,fencog,1,Post,2021_Nov_05_1155,N-Back (New Version 2021),2021.1.4,119.6961154
,,,,Conditions/Version_1/oneback(4)_v1.xlsx,New rule: Press 'space' when you see 1-back (i.e. the same letter as the one that appeared 1 letter ago.),,,,,,,,,,,0,14,14,14,,,,,,,,,,,,,,,,,,,,,,,,,,,,,,,,,,,,,,,,,,,,,,,,,,,,,,,,,,,,,,,,,,,,,,,,,,,,,,,,,P018,fencog,1,Post,2021_Nov_05_1155,N-Back (New Version 2021),2021.1.4,119.6961154
,,,,Conditions/Version_1/threeback(4)_v1.xlsx,New rule: Press 'space' when you see 3-back (i.e. the same letter as the one that appeared 3 letters ago.),A,None,,,,,,,,,0,15,15,15,0,0,0,0,,,,,,,,,,,,,,,,,,,,,,,,,,,,,,,,,,,,,,,,,,,,,,,,,,,,,,,,,,,914.4721966,None,917.457383,None,space,0.2009612,917.457383,None,914.4721966,None,1.072,918.7572518,None,None,1,918.7572518,None,,P018,fencog,1,Post,2021_Nov_05_1155,N-Back (New Version 2021),2021.1.4,119.6961154
,,,,Conditions/Version_1/threeback(4)_v1.xlsx,New rule: Press 'space' when you see 3-back (i.e. the same letter as the one that appeared 3 letters ago.),n,None,,,,,,,,,0,15,15,15,0,1,1,1,,,,,,,,,,,,,,,,,,,,,,,,,,,,,,,,,,,,,,,,,,,,,,,,,,,,,,,,,,,,,,,,,,,,,1.6734,922.4367533,None,None,1,922.4367533,None,,P018,fencog,1,Post,2021_Nov_05_1155,N-Back (New Version 2021),2021.1.4,119.6961154
,,,,Conditions/Version_1/threeback(4)_v1.xlsx,New rule: Press 'space' when you see 3-back (i.e. the same letter as the one that appeared 3 letters ago.),g,None,,,,,,,,,0,15,15,15,0,2,2,2,,,,,,,,,,,,,,,,,,,,,,,,,,,,,,,,,,,,,,,,,,,,,,,,,,,,,,,,,,,,,,,,,,,,,1.165,925.6109143,None,None,1,925.6109143,None,,P018,fencog,1,Post,2021_Nov_05_1155,N-Back (New Version 2021),2021.1.4,119.6961154
,,,,Conditions/Version_1/threeback(4)_v1.xlsx,New rule: Press 'space' when you see 3-back (i.e. the same letter as the one that appeared 3 letters ago.),A,space,,,,,,,,,0,15,15,15,0,3,3,3,,,,,,,,,,,,,,,,,,,,,,,,,,,,,,,,,,,,,,,,,,,,,,,,,,,,,,,,,,,,,,,,,,,,,1.1712,928.7853469,None,space,1,928.7853469,None,1.1850196,P018,fencog,1,Post,2021_Nov_05_1155,N-Back (New Version 2021),2021.1.4,119.6961154
,,,,Conditions/Version_1/threeback(4)_v1.xlsx,New rule: Press 'space' when you see 3-back (i.e. the same letter as the one that appeared 3 letters ago.),p,None,,,,,,,,,0,15,15,15,0,4,4,4,,,,,,,,,,,,,,,,,,,,,,,,,,,,,,,,,,,,,,,,,,,,,,,,,,,,,,,,,,,,,,,,,,,,,1.1278,931.9172958,None,None,1,931.9172958,None,,P018,fencog,1,Post,2021_Nov_05_1155,N-Back (New Version 2021),2021.1.4,119.6961154
,,,,Conditions/Version_1/threeback(4)_v1.xlsx,New rule: Press 'space' when you see 3-back (i.e. the same letter as the one that appeared 3 letters ago.),O,None,,,,,,,,,0,15,15,15,0,5,5,5,,,,,,,,,,,,,,,,,,,,,,,,,,,,,,,,,,,,,,,,,,,,,,,,,,,,,,,,,,,,,,,,,,,,,1.5122,935.4333842,None,None,1,935.4333842,None,,P018,fencog,1,Post,2021_Nov_05_1155,N-Back (New Version 2021),2021.1.4,119.6961154
,,,,Conditions/Version_1/threeback(4)_v1.xlsx,New rule: Press 'space' when you see 3-back (i.e. the same letter as the one that appeared 3 letters ago.),a,space,,,,,,,,,0,15,15,15,0,6,6,6,,,,,,,,,,,,,,,,,,,,,,,,,,,,,,,,,,,,,,,,,,,,,,,,,,,,,,,,,,,,,,,,,,,,,1.8346,939.2734385,None,space,1,939.2734385,None,0.728873,P018,fencog,1,Post,2021_Nov_05_1155,N-Back (New Version 2021),2021.1.4,119.6961154
,,,,Conditions/Version_1/threeback(4)_v1.xlsx,New rule: Press 'space' when you see 3-back (i.e. the same letter as the one that appeared 3 letters ago.),p,space,,,,,,,,,0,15,15,15,0,7,7,7,,,,,,,,,,,,,,,,,,,,,,,,,,,,,,,,,,,,,,,,,,,,,,,,,,,,,,,,,,,,,,,,,,,,,1.2952,942.5725231,None,space,1,942.5725231,None,0.6777311,P018,fencog,1,Post,2021_Nov_05_1155,N-Back (New Version 2021),2021.1.4,119.6961154
,,,,Conditions/Version_1/threeback(4)_v1.xlsx,New rule: Press 'space' when you see 3-back (i.e. the same letter as the one that appeared 3 letters ago.),x,None,,,,,,,,,0,15,15,15,0,8,8,8,,,,,,,,,,,,,,,,,,,,,,,,,,,,,,,,,,,,,,,,,,,,,,,,,,,,,,,,,,,,,,,,,,,,,1.3882,945.9702054,None,None,1,945.9702054,None,,P018,fencog,1,Post,2021_Nov_05_1155,N-Back (New Version 2021),2021.1.4,119.6961154
,,,,Conditions/Version_1/threeback(4)_v1.xlsx,New rule: Press 'space' when you see 3-back (i.e. the same letter as the one that appeared 3 letters ago.),X,None,,,,,,,,,0,15,15,15,0,9,9,9,,,,,,,,,,,,,,,,,,,,,,,,,,,,,,,,,,,,,,,,,,,,,,,,,,,,,,,,,,,,,,,,,,,,,1.9896,949.9619843,None,None,1,949.9619843,None,,P018,fencog,1,Post,2021_Nov_05_1155,N-Back (New Version 2021),2021.1.4,119.6961154
,,,,Conditions/Version_1/threeback(4)_v1.xlsx,New rule: Press 'space' when you see 3-back (i.e. the same letter as the one that appeared 3 letters ago.),,,,,,,,,,,0,15,15,15,,,,,,,,,,,,,,,,,,,,,,,,,,,,,,,,,,,,,,,,,,,,,,,,,,,,,,,,,,,,,,,,,,,,,,,,,,,,,,,,,P018,fencog,1,Post,2021_Nov_05_1155,N-Back (New Version 2021),2021.1.4,119.6961154
