CondFileP,InstructionsP,LettersDisplayedP,CorrectnessP,CondFile,Instructions,LettersDisplayed,Correctness,practicetrials.thisRepN,practicetrials.thisTrialN,practicetrials.thisN,practicetrials.thisIndex,InnerLoopPractice.thisRepN,InnerLoopPractice.thisTrialN,InnerLoopPractice.thisN,InnerLoopPractice.thisIndex,trials.thisRepN,trials.thisTrialN,trials.thisN,trials.thisIndex,InnerLoop.thisRepN,InnerLoop.thisTrialN,InnerLoop.thisN,InnerLoop.thisIndex,TaskVersionText.started,TaskVersionText.stopped,InstrKey1.keys,InstrKey1.rt,InstrKey1.started,InstrKey1.stopped,text.started,text.stopped,key_resp_4.keys,key_resp_4.rt,key_resp_4.started,key_resp_4.stopped,text_2.started,text_2.stopped,key_resp_3.keys,key_resp_3.rt,key_resp_3.started,key_resp_3.stopped,text_3.started,text_3.stopped,key_resp_2.keys,key_resp_2.rt,key_resp_2.started,key_resp_2.stopped,PractIn1.started,PractIn1.stopped,PractIn2.started,PractIn2.stopped,PractInstructionPass.keys,PractInstructionPass.rt,PractInstructionPass.started,PractInstructionPass.stopped,PractBlock1.started,PractBlock1.stopped,ISIjitterPractice,ISI_Pract_Fixation.started,ISI_Pract_Fixation.stopped,N_backP.started,N_backP.stopped,KeyPractice.keys,KeyPractice.corr,KeyPractice.started,KeyPractice.stopped,text_4.started,text_4.stopped,KeyPractice.rt,TransitionText.started,TransitionText.stopped,key_resp_6.keys,key_resp_6.rt,key_resp_6.started,key_resp_6.stopped,text_5.started,text_5.stopped,key_resp_5.keys,key_resp_5.rt,key_resp_5.started,key_resp_5.stopped,MainInt1.started,MainInt1.stopped,MainInt2.started,MainInt2.stopped,InstructionPass.keys,InstructionPass.rt,InstructionPass.started,InstructionPass.stopped,Blocks1.started,Blocks1.stopped,ISIjitter,N_backD.started,N_backD.stopped,key_resp.keys,key_resp.corr,key_resp.started,key_resp.stopped,key_resp.rt,participant,Study Name,Task Version (required to run),PRE/POST,date,expName,psychopyVersion,frameRate
,,,,,,,,,,,,,,,,,,,,,,,,16.7232841,None,space,5.6116384,17.2124561,None,,,,,,,,,,,,,,,,,,,,,,,,,,,,,,,,,,,,,,,,,,,,,,,,,,,,,,,,,,,,,,,,,,,,,,,P018,fencog,2,Pre,2021_Oct_29_1208,N-Back (New Version 2021),2021.1.4,120.0772818
,,,,,,,,,,,,,,,,,,,,,,,,,,,,,,22.8726737,None,space,11.561886,23.3610172,None,,,,,,,,,,,,,,,,,,,,,,,,,,,,,,,,,,,,,,,,,,,,,,,,,,,,,,,,,,,,,,,,,P018,fencog,2,Pre,2021_Oct_29_1208,N-Back (New Version 2021),2021.1.4,120.0772818
,,,,,,,,,,,,,,,,,,,,,,,,,,,,,,,,,,,,34.965547,None,space,11.5958047,35.4504661,None,,,,,,,,,,,,,,,,,,,,,,,,,,,,,,,,,,,,,,,,,,,,,,,,,,,,,,,,,,,P018,fencog,2,Pre,2021_Oct_29_1208,N-Back (New Version 2021),2021.1.4,120.0772818
,,,,,,,,,,,,,,,,,,,,,,,,,,,,,,,,,,,,,,,,,,47.0957303,None,space,6.2913138,47.587291,None,,,,,,,,,,,,,,,,,,,,,,,,,,,,,,,,,,,,,,,,,,,,,,,,,,,,,P018,fencog,2,Pre,2021_Oct_29_1208,N-Back (New Version 2021),2021.1.4,120.0772818
Conditions/Version_2Pr/zeroback(1)_v2.xlsx,Rule: Press 'space' when you see the letter 'x' or 'X'.,x,space,,,,,0,0,0,0,0,0,0,0,,,,,,,,,,,,,,,,,,,,,,,,,,,,,,,,,55.456534,None,58.4599074,None,space,2.7143984,58.4599074,None,55.456534,None,1.165,61.1973507,None,62.3737888,None,None,0,62.3737888,None,64.3825343,None,,,,,,,,,,,,,,,,,,,,,,,,,,,,,,,,P018,fencog,2,Pre,2021_Oct_29_1208,N-Back (New Version 2021),2021.1.4,120.0772818
Conditions/Version_2Pr/zeroback(1)_v2.xlsx,Rule: Press 'space' when you see the letter 'x' or 'X'.,R,None,,,,,0,0,0,0,0,1,1,1,,,,,,,,,,,,,,,,,,,,,,,,,,,,,,,,,,,,,,,,,,,1.415,65.8725478,None,67.3021658,None,None,1,67.3021658,None,69.3092126,None,,,,,,,,,,,,,,,,,,,,,,,,,,,,,,,,P018,fencog,2,Pre,2021_Oct_29_1208,N-Back (New Version 2021),2021.1.4,120.0772818
Conditions/Version_2Pr/zeroback(1)_v2.xlsx,Rule: Press 'space' when you see the letter 'x' or 'X'.,p,None,,,,,0,0,0,0,0,2,2,2,,,,,,,,,,,,,,,,,,,,,,,,,,,,,,,,,,,,,,,,,,,1.39,70.7960507,None,72.1910541,None,None,1,72.1910541,None,74.1932999,None,,,,,,,,,,,,,,,,,,,,,,,,,,,,,,,,P018,fencog,2,Pre,2021_Oct_29_1208,N-Back (New Version 2021),2021.1.4,120.0772818
Conditions/Version_2Pr/zeroback(1)_v2.xlsx,Rule: Press 'space' when you see the letter 'x' or 'X'.,O,None,,,,,0,0,0,0,0,3,3,3,,,,,,,,,,,,,,,,,,,,,,,,,,,,,,,,,,,,,,,,,,,1.09,75.6950123,None,76.788149,None,None,1,76.788149,None,78.7961642,None,,,,,,,,,,,,,,,,,,,,,,,,,,,,,,,,P018,fencog,2,Pre,2021_Oct_29_1208,N-Back (New Version 2021),2021.1.4,120.0772818
Conditions/Version_2Pr/zeroback(1)_v2.xlsx,Rule: Press 'space' when you see the letter 'x' or 'X'.,i,None,,,,,0,0,0,0,0,4,4,4,,,,,,,,,,,,,,,,,,,,,,,,,,,,,,,,,,,,,,,,,,,1.665,80.2948617,None,81.9656415,None,None,1,81.9656415,None,83.9659481,None,,,,,,,,,,,,,,,,,,,,,,,,,,,,,,,,P018,fencog,2,Pre,2021_Oct_29_1208,N-Back (New Version 2021),2021.1.4,120.0772818
Conditions/Version_2Pr/zeroback(1)_v2.xlsx,Rule: Press 'space' when you see the letter 'x' or 'X'.,U,None,,,,,0,0,0,0,0,5,5,5,,,,,,,,,,,,,,,,,,,,,,,,,,,,,,,,,,,,,,,,,,,1.04,85.4669727,None,86.5151932,None,None,1,86.5151932,None,88.5130779,None,,,,,,,,,,,,,,,,,,,,,,,,,,,,,,,,P018,fencog,2,Pre,2021_Oct_29_1208,N-Back (New Version 2021),2021.1.4,120.0772818
Conditions/Version_2Pr/zeroback(1)_v2.xlsx,Rule: Press 'space' when you see the letter 'x' or 'X'.,N,None,,,,,0,0,0,0,0,6,6,6,,,,,,,,,,,,,,,,,,,,,,,,,,,,,,,,,,,,,,,,,,,1.265,90.0158235,None,91.2887521,None,None,1,91.2887521,None,93.290208,None,,,,,,,,,,,,,,,,,,,,,,,,,,,,,,,,P018,fencog,2,Pre,2021_Oct_29_1208,N-Back (New Version 2021),2021.1.4,120.0772818
Conditions/Version_2Pr/zeroback(1)_v2.xlsx,Rule: Press 'space' when you see the letter 'x' or 'X'.,m,None,,,,,0,0,0,0,0,7,7,7,,,,,,,,,,,,,,,,,,,,,,,,,,,,,,,,,,,,,,,,,,,1.14,94.7891212,None,95.937983,None,None,1,95.937983,None,97.9389997,None,,,,,,,,,,,,,,,,,,,,,,,,,,,,,,,,P018,fencog,2,Pre,2021_Oct_29_1208,N-Back (New Version 2021),2021.1.4,120.0772818
Conditions/Version_2Pr/zeroback(1)_v2.xlsx,Rule: Press 'space' when you see the letter 'x' or 'X'.,x,space,,,,,0,0,0,0,0,8,8,8,,,,,,,,,,,,,,,,,,,,,,,,,,,,,,,,,,,,,,,,,,,1.315,99.437796,None,100.7578183,None,space,1,100.7578183,None,101.098285,None,0.3277168,,,,,,,,,,,,,,,,,,,,,,,,,,,,,,,P018,fencog,2,Pre,2021_Oct_29_1208,N-Back (New Version 2021),2021.1.4,120.0772818
Conditions/Version_2Pr/zeroback(1)_v2.xlsx,Rule: Press 'space' when you see the letter 'x' or 'X'.,X,space,,,,,0,0,0,0,0,9,9,9,,,,,,,,,,,,,,,,,,,,,,,,,,,,,,,,,,,,,,,,,,,1.615,102.6056581,None,104.2291613,None,space,1,104.2291613,None,104.6596645,None,0.4099433,,,,,,,,,,,,,,,,,,,,,,,,,,,,,,,P018,fencog,2,Pre,2021_Oct_29_1208,N-Back (New Version 2021),2021.1.4,120.0772818
Conditions/Version_2Pr/zeroback(1)_v2.xlsx,Rule: Press 'space' when you see the letter 'x' or 'X'.,,,,,,,0,0,0,0,,,,,,,,,,,,,,,,,,,,,,,,,,,,,,,,,,,,,,,,,,,,,,,,,,,,,,,,,,,,,,,,,,,,,,,,,,,,,,,,,,,,,,,,,P018,fencog,2,Pre,2021_Oct_29_1208,N-Back (New Version 2021),2021.1.4,120.0772818
Conditions/Version_2Pr/oneback(1)_v2.xlsx,New rule: Press 'space' when you see 1-back (i.e. the same letter as the one that appeared 1 letter ago.),r,None,,,,,0,1,1,1,0,0,0,0,,,,,,,,,,,,,,,,,,,,,,,,,,,,,,,,,106.2011129,None,109.1912909,None,space,6.0736126,109.1912909,None,106.2011129,None,1.665,115.2870437,None,116.9688546,None,None,1,116.9688546,None,118.9652672,None,,,,,,,,,,,,,,,,,,,,,,,,,,,,,,,,P018,fencog,2,Pre,2021_Oct_29_1208,N-Back (New Version 2021),2021.1.4,120.0772818
Conditions/Version_2Pr/oneback(1)_v2.xlsx,New rule: Press 'space' when you see 1-back (i.e. the same letter as the one that appeared 1 letter ago.),t,None,,,,,0,1,1,1,0,1,1,1,,,,,,,,,,,,,,,,,,,,,,,,,,,,,,,,,,,,,,,,,,,1.09,120.4665579,None,121.5607589,None,None,1,121.5607589,None,123.5647975,None,,,,,,,,,,,,,,,,,,,,,,,,,,,,,,,,P018,fencog,2,Pre,2021_Oct_29_1208,N-Back (New Version 2021),2021.1.4,120.0772818
Conditions/Version_2Pr/oneback(1)_v2.xlsx,New rule: Press 'space' when you see 1-back (i.e. the same letter as the one that appeared 1 letter ago.),Y,None,,,,,0,1,1,1,0,2,2,2,,,,,,,,,,,,,,,,,,,,,,,,,,,,,,,,,,,,,,,,,,,1.515,125.0635951,None,126.5880571,None,None,1,126.5880571,None,128.5875318,None,,,,,,,,,,,,,,,,,,,,,,,,,,,,,,,,P018,fencog,2,Pre,2021_Oct_29_1208,N-Back (New Version 2021),2021.1.4,120.0772818
Conditions/Version_2Pr/oneback(1)_v2.xlsx,New rule: Press 'space' when you see 1-back (i.e. the same letter as the one that appeared 1 letter ago.),y,space,,,,,0,1,1,1,0,3,3,3,,,,,,,,,,,,,,,,,,,,,,,,,,,,,,,,,,,,,,,,,,,1.465,130.0869171,None,131.5602448,None,space,1,131.5602448,None,131.955715,None,0.3790828,,,,,,,,,,,,,,,,,,,,,,,,,,,,,,,P018,fencog,2,Pre,2021_Oct_29_1208,N-Back (New Version 2021),2021.1.4,120.0772818
Conditions/Version_2Pr/oneback(1)_v2.xlsx,New rule: Press 'space' when you see 1-back (i.e. the same letter as the one that appeared 1 letter ago.),p,None,,,,,0,1,1,1,0,4,4,4,,,,,,,,,,,,,,,,,,,,,,,,,,,,,,,,,,,,,,,,,,,1.54,133.4626532,None,135.0071372,None,None,1,135.0071372,None,137.0118416,None,,,,,,,,,,,,,,,,,,,,,,,,,,,,,,,,P018,fencog,2,Pre,2021_Oct_29_1208,N-Back (New Version 2021),2021.1.4,120.0772818
Conditions/Version_2Pr/oneback(1)_v2.xlsx,New rule: Press 'space' when you see 1-back (i.e. the same letter as the one that appeared 1 letter ago.),P,space,,,,,0,1,1,1,0,5,5,5,,,,,,,,,,,,,,,,,,,,,,,,,,,,,,,,,,,,,,,,,,,1.315,138.511001,None,139.833109,None,space,1,139.833109,None,140.2427915,None,0.3894364,,,,,,,,,,,,,,,,,,,,,,,,,,,,,,,P018,fencog,2,Pre,2021_Oct_29_1208,N-Back (New Version 2021),2021.1.4,120.0772818
Conditions/Version_2Pr/oneback(1)_v2.xlsx,New rule: Press 'space' when you see 1-back (i.e. the same letter as the one that appeared 1 letter ago.),e,None,,,,,0,1,1,1,0,6,6,6,,,,,,,,,,,,,,,,,,,,,,,,,,,,,,,,,,,,,,,,,,,1.715,141.7436745,None,143.4659725,None,None,1,143.4659725,None,145.4642228,None,,,,,,,,,,,,,,,,,,,,,,,,,,,,,,,,P018,fencog,2,Pre,2021_Oct_29_1208,N-Back (New Version 2021),2021.1.4,120.0772818
Conditions/Version_2Pr/oneback(1)_v2.xlsx,New rule: Press 'space' when you see 1-back (i.e. the same letter as the one that appeared 1 letter ago.),r,None,,,,,0,1,1,1,0,7,7,7,,,,,,,,,,,,,,,,,,,,,,,,,,,,,,,,,,,,,,,,,,,1.865,146.9653559,None,148.8373452,None,None,1,148.8373452,None,150.8380208,None,,,,,,,,,,,,,,,,,,,,,,,,,,,,,,,,P018,fencog,2,Pre,2021_Oct_29_1208,N-Back (New Version 2021),2021.1.4,120.0772818
Conditions/Version_2Pr/oneback(1)_v2.xlsx,New rule: Press 'space' when you see 1-back (i.e. the same letter as the one that appeared 1 letter ago.),R,space,,,,,0,1,1,1,0,8,8,8,,,,,,,,,,,,,,,,,,,,,,,,,,,,,,,,,,,,,,,,,,,1.415,152.3388598,None,153.7624519,None,space,1,153.7624519,None,154.0720932,None,0.2976857,,,,,,,,,,,,,,,,,,,,,,,,,,,,,,,P018,fencog,2,Pre,2021_Oct_29_1208,N-Back (New Version 2021),2021.1.4,120.0772818
Conditions/Version_2Pr/oneback(1)_v2.xlsx,New rule: Press 'space' when you see 1-back (i.e. the same letter as the one that appeared 1 letter ago.),p,None,,,,,0,1,1,1,0,9,9,9,,,,,,,,,,,,,,,,,,,,,,,,,,,,,,,,,,,,,,,,,,,1.49,155.5733459,None,157.0682152,None,None,1,157.0682152,None,159.0738121,None,,,,,,,,,,,,,,,,,,,,,,,,,,,,,,,,P018,fencog,2,Pre,2021_Oct_29_1208,N-Back (New Version 2021),2021.1.4,120.0772818
Conditions/Version_2Pr/oneback(1)_v2.xlsx,New rule: Press 'space' when you see 1-back (i.e. the same letter as the one that appeared 1 letter ago.),,,,,,,0,1,1,1,,,,,,,,,,,,,,,,,,,,,,,,,,,,,,,,,,,,,,,,,,,,,,,,,,,,,,,,,,,,,,,,,,,,,,,,,,,,,,,,,,,,,,,,,P018,fencog,2,Pre,2021_Oct_29_1208,N-Back (New Version 2021),2021.1.4,120.0772818
Conditions/Version_2Pr/twoback(1)_v2.xlsx,New rule: Press 'space' when you see 2-back (i.e. the same letter as the one that appeared 2 letters ago.),r,None,,,,,0,2,2,2,0,0,0,0,,,,,,,,,,,,,,,,,,,,,,,,,,,,,,,,,160.6039774,None,163.5914489,None,space,7.0520832,163.5914489,None,160.6039774,None,1.265,170.6656727,None,171.937827,None,None,1,171.937827,None,173.9445174,None,,,,,,,,,,,,,,,,,,,,,,,,,,,,,,,,P018,fencog,2,Pre,2021_Oct_29_1208,N-Back (New Version 2021),2021.1.4,120.0772818
Conditions/Version_2Pr/twoback(1)_v2.xlsx,New rule: Press 'space' when you see 2-back (i.e. the same letter as the one that appeared 2 letters ago.),P,None,,,,,0,2,2,2,0,1,1,1,,,,,,,,,,,,,,,,,,,,,,,,,,,,,,,,,,,,,,,,,,,1.69,175.4401816,None,177.131148,None,None,1,177.131148,None,179.1360226,None,,,,,,,,,,,,,,,,,,,,,,,,,,,,,,,,P018,fencog,2,Pre,2021_Oct_29_1208,N-Back (New Version 2021),2021.1.4,120.0772818
Conditions/Version_2Pr/twoback(1)_v2.xlsx,New rule: Press 'space' when you see 2-back (i.e. the same letter as the one that appeared 2 letters ago.),o,None,,,,,0,2,2,2,0,2,2,2,,,,,,,,,,,,,,,,,,,,,,,,,,,,,,,,,,,,,,,,,,,1.665,180.6388581,None,182.313895,None,None,1,182.313895,None,184.3127113,None,,,,,,,,,,,,,,,,,,,,,,,,,,,,,,,,P018,fencog,2,Pre,2021_Oct_29_1208,N-Back (New Version 2021),2021.1.4,120.0772818
Conditions/Version_2Pr/twoback(1)_v2.xlsx,New rule: Press 'space' when you see 2-back (i.e. the same letter as the one that appeared 2 letters ago.),p,space,,,,,0,2,2,2,0,3,3,3,,,,,,,,,,,,,,,,,,,,,,,,,,,,,,,,,,,,,,,,,,,1.065,185.8124655,None,186.878428,None,space,1,186.878428,None,187.5196929,None,0.6240769,,,,,,,,,,,,,,,,,,,,,,,,,,,,,,,P018,fencog,2,Pre,2021_Oct_29_1208,N-Back (New Version 2021),2021.1.4,120.0772818
Conditions/Version_2Pr/twoback(1)_v2.xlsx,New rule: Press 'space' when you see 2-back (i.e. the same letter as the one that appeared 2 letters ago.),Y,None,,,,,0,2,2,2,0,4,4,4,,,,,,,,,,,,,,,,,,,,,,,,,,,,,,,,,,,,,,,,,,,1.64,189.0209417,None,190.6686808,None,None,1,190.6686808,None,192.6647775,None,,,,,,,,,,,,,,,,,,,,,,,,,,,,,,,,P018,fencog,2,Pre,2021_Oct_29_1208,N-Back (New Version 2021),2021.1.4,120.0772818
Conditions/Version_2Pr/twoback(1)_v2.xlsx,New rule: Press 'space' when you see 2-back (i.e. the same letter as the one that appeared 2 letters ago.),q,None,,,,,0,2,2,2,0,5,5,5,,,,,,,,,,,,,,,,,,,,,,,,,,,,,,,,,,,,,,,,,,,1.24,194.1683914,None,195.4111093,None,None,1,195.4111093,None,197.409199,None,,,,,,,,,,,,,,,,,,,,,,,,,,,,,,,,P018,fencog,2,Pre,2021_Oct_29_1208,N-Back (New Version 2021),2021.1.4,120.0772818
Conditions/Version_2Pr/twoback(1)_v2.xlsx,New rule: Press 'space' when you see 2-back (i.e. the same letter as the one that appeared 2 letters ago.),m,None,,,,,0,2,2,2,0,6,6,6,,,,,,,,,,,,,,,,,,,,,,,,,,,,,,,,,,,,,,,,,,,1.94,198.9099158,None,200.8539933,None,None,1,200.8539933,None,202.8544502,None,,,,,,,,,,,,,,,,,,,,,,,,,,,,,,,,P018,fencog,2,Pre,2021_Oct_29_1208,N-Back (New Version 2021),2021.1.4,120.0772818
Conditions/Version_2Pr/twoback(1)_v2.xlsx,New rule: Press 'space' when you see 2-back (i.e. the same letter as the one that appeared 2 letters ago.),Q,space,,,,,0,2,2,2,0,7,7,7,,,,,,,,,,,,,,,,,,,,,,,,,,,,,,,,,,,,,,,,,,,1.79,204.3567984,None,206.1567641,None,space,1,206.1567641,None,206.5727683,None,0.4008026,,,,,,,,,,,,,,,,,,,,,,,,,,,,,,,P018,fencog,2,Pre,2021_Oct_29_1208,N-Back (New Version 2021),2021.1.4,120.0772818
Conditions/Version_2Pr/twoback(1)_v2.xlsx,New rule: Press 'space' when you see 2-back (i.e. the same letter as the one that appeared 2 letters ago.),L,None,,,,,0,2,2,2,0,8,8,8,,,,,,,,,,,,,,,,,,,,,,,,,,,,,,,,,,,,,,,,,,,1.59,208.0730816,None,209.6716612,None,None,1,209.6716612,None,211.6759189,None,,,,,,,,,,,,,,,,,,,,,,,,,,,,,,,,P018,fencog,2,Pre,2021_Oct_29_1208,N-Back (New Version 2021),2021.1.4,120.0772818
Conditions/Version_2Pr/twoback(1)_v2.xlsx,New rule: Press 'space' when you see 2-back (i.e. the same letter as the one that appeared 2 letters ago.),q,space,,,,,0,2,2,2,0,9,9,9,,,,,,,,,,,,,,,,,,,,,,,,,,,,,,,,,,,,,,,,,,,1.09,213.170756,None,214.2678979,None,None,0,214.2678979,None,216.2701807,None,,,,,,,,,,,,,,,,,,,,,,,,,,,,,,,,P018,fencog,2,Pre,2021_Oct_29_1208,N-Back (New Version 2021),2021.1.4,120.0772818
Conditions/Version_2Pr/twoback(1)_v2.xlsx,New rule: Press 'space' when you see 2-back (i.e. the same letter as the one that appeared 2 letters ago.),,,,,,,0,2,2,2,,,,,,,,,,,,,,,,,,,,,,,,,,,,,,,,,,,,,,,,,,,,,,,,,,,,,,,,,,,,,,,,,,,,,,,,,,,,,,,,,,,,,,,,,P018,fencog,2,Pre,2021_Oct_29_1208,N-Back (New Version 2021),2021.1.4,120.0772818
Conditions/Version_2Pr/threeback(1)_v2.xlsx,New rule: Press 'space' when you see 3-back (i.e. the same letter as the one that appeared 3 letters ago.),u,None,,,,,0,3,3,3,0,0,0,0,,,,,,,,,,,,,,,,,,,,,,,,,,,,,,,,,217.8074522,None,220.7890063,None,space,2.0326073,220.7890063,None,217.8074522,None,1.065,222.8473462,None,223.9260566,None,None,1,223.9260566,None,225.9305049,None,,,,,,,,,,,,,,,,,,,,,,,,,,,,,,,,P018,fencog,2,Pre,2021_Oct_29_1208,N-Back (New Version 2021),2021.1.4,120.0772818
Conditions/Version_2Pr/threeback(1)_v2.xlsx,New rule: Press 'space' when you see 3-back (i.e. the same letter as the one that appeared 3 letters ago.),U,None,,,,,0,3,3,3,0,1,1,1,,,,,,,,,,,,,,,,,,,,,,,,,,,,,,,,,,,,,,,,,,,1.715,227.4248672,None,229.1445721,None,None,1,229.1445721,None,231.1456095,None,,,,,,,,,,,,,,,,,,,,,,,,,,,,,,,,P018,fencog,2,Pre,2021_Oct_29_1208,N-Back (New Version 2021),2021.1.4,120.0772818
Conditions/Version_2Pr/threeback(1)_v2.xlsx,New rule: Press 'space' when you see 3-back (i.e. the same letter as the one that appeared 3 letters ago.),p,None,,,,,0,3,3,3,0,2,2,2,,,,,,,,,,,,,,,,,,,,,,,,,,,,,,,,,,,,,,,,,,,1.99,232.6484562,None,234.6435984,None,None,1,234.6435984,None,236.6442101,None,,,,,,,,,,,,,,,,,,,,,,,,,,,,,,,,P018,fencog,2,Pre,2021_Oct_29_1208,N-Back (New Version 2021),2021.1.4,120.0772818
Conditions/Version_2Pr/threeback(1)_v2.xlsx,New rule: Press 'space' when you see 3-back (i.e. the same letter as the one that appeared 3 letters ago.),U,space,,,,,0,3,3,3,0,3,3,3,,,,,,,,,,,,,,,,,,,,,,,,,,,,,,,,,,,,,,,,,,,1.39,238.1467841,None,239.5423193,None,space,1,239.5423193,None,239.8904709,None,0.3300424,,,,,,,,,,,,,,,,,,,,,,,,,,,,,,,P018,fencog,2,Pre,2021_Oct_29_1208,N-Back (New Version 2021),2021.1.4,120.0772818
Conditions/Version_2Pr/threeback(1)_v2.xlsx,New rule: Press 'space' when you see 3-back (i.e. the same letter as the one that appeared 3 letters ago.),e,None,,,,,0,3,3,3,0,4,4,4,,,,,,,,,,,,,,,,,,,,,,,,,,,,,,,,,,,,,,,,,,,1.465,241.3976791,None,242.8633237,None,None,1,242.8633237,None,244.8697563,None,,,,,,,,,,,,,,,,,,,,,,,,,,,,,,,,P018,fencog,2,Pre,2021_Oct_29_1208,N-Back (New Version 2021),2021.1.4,120.0772818
Conditions/Version_2Pr/threeback(1)_v2.xlsx,New rule: Press 'space' when you see 3-back (i.e. the same letter as the one that appeared 3 letters ago.),R,None,,,,,0,3,3,3,0,5,5,5,,,,,,,,,,,,,,,,,,,,,,,,,,,,,,,,,,,,,,,,,,,1.59,246.3693008,None,247.9668262,None,None,1,247.9668262,None,249.9682843,None,,,,,,,,,,,,,,,,,,,,,,,,,,,,,,,,P018,fencog,2,Pre,2021_Oct_29_1208,N-Back (New Version 2021),2021.1.4,120.0772818
Conditions/Version_2Pr/threeback(1)_v2.xlsx,New rule: Press 'space' when you see 3-back (i.e. the same letter as the one that appeared 3 letters ago.),p,None,,,,,0,3,3,3,0,6,6,6,,,,,,,,,,,,,,,,,,,,,,,,,,,,,,,,,,,,,,,,,,,1.565,251.4683716,None,253.0359938,None,space,0,253.0359938,None,253.6447524,None,0.5797553,,,,,,,,,,,,,,,,,,,,,,,,,,,,,,,P018,fencog,2,Pre,2021_Oct_29_1208,N-Back (New Version 2021),2021.1.4,120.0772818
Conditions/Version_2Pr/threeback(1)_v2.xlsx,New rule: Press 'space' when you see 3-back (i.e. the same letter as the one that appeared 3 letters ago.),E,space,,,,,0,3,3,3,0,7,7,7,,,,,,,,,,,,,,,,,,,,,,,,,,,,,,,,,,,,,,,,,,,1.815,255.1538822,None,256.9775381,None,space,1,256.9775381,None,257.8678542,None,0.8717716,,,,,,,,,,,,,,,,,,,,,,,,,,,,,,,P018,fencog,2,Pre,2021_Oct_29_1208,N-Back (New Version 2021),2021.1.4,120.0772818
Conditions/Version_2Pr/threeback(1)_v2.xlsx,New rule: Press 'space' when you see 3-back (i.e. the same letter as the one that appeared 3 letters ago.),k,None,,,,,0,3,3,3,0,8,8,8,,,,,,,,,,,,,,,,,,,,,,,,,,,,,,,,,,,,,,,,,,,1.04,259.3743821,None,260.4222507,None,None,1,260.4222507,None,262.4256202,None,,,,,,,,,,,,,,,,,,,,,,,,,,,,,,,,P018,fencog,2,Pre,2021_Oct_29_1208,N-Back (New Version 2021),2021.1.4,120.0772818
Conditions/Version_2Pr/threeback(1)_v2.xlsx,New rule: Press 'space' when you see 3-back (i.e. the same letter as the one that appeared 3 letters ago.),m,None,,,,,0,3,3,3,0,9,9,9,,,,,,,,,,,,,,,,,,,,,,,,,,,,,,,,,,,,,,,,,,,1.69,263.9223884,None,265.6188992,None,None,1,265.6188992,None,267.6207108,None,,,,,,,,,,,,,,,,,,,,,,,,,,,,,,,,P018,fencog,2,Pre,2021_Oct_29_1208,N-Back (New Version 2021),2021.1.4,120.0772818
Conditions/Version_2Pr/threeback(1)_v2.xlsx,New rule: Press 'space' when you see 3-back (i.e. the same letter as the one that appeared 3 letters ago.),,,,,,,0,3,3,3,,,,,,,,,,,,,,,,,,,,,,,,,,,,,,,,,,,,,,,,,,,,,,,,,,,,,,,,,,,,,,,,,,,,,,,,,,,,,,,,,,,,,,,,,P018,fencog,2,Pre,2021_Oct_29_1208,N-Back (New Version 2021),2021.1.4,120.0772818
,,,,,,,,,,,,,,,,,,,,,,,,,,,,,,,,,,,,,,,,,,,,,,,,,,,,,,,,,,,,,,,,,,,,,,269.1373466,None,space,3.3122116,269.6294252,None,,,,,,,,,,,,,,,,,,,,,,,,,P018,fencog,2,Pre,2021_Oct_29_1208,N-Back (New Version 2021),2021.1.4,120.0772818
,,,,,,,,,,,,,,,,,,,,,,,,,,,,,,,,,,,,,,,,,,,,,,,,,,,,,,,,,,,,,,,,,,,,,,,,,,,,272.9737613,None,space,4.0551446,273.4700757,None,,,,,,,,,,,,,,,,,,,P018,fencog,2,Pre,2021_Oct_29_1208,N-Back (New Version 2021),2021.1.4,120.0772818
,,,,Conditions/Version_1/zeroback(1)_v1.xlsx,Rule: Press 'space' when you see the letter 'x' or 'X'.,b,None,,,,,,,,,0,0,0,0,0,0,0,0,,,,,,,,,,,,,,,,,,,,,,,,,,,,,,,,,,,,,,,,,,,,,,,,,,,,,,,,,,,277.6532565,None,280.6472758,None,space,3.3666838,280.6472758,None,277.6532565,None,1.6734,285.7262708,None,None,1,285.7262708,None,,P018,fencog,2,Pre,2021_Oct_29_1208,N-Back (New Version 2021),2021.1.4,120.0772818
,,,,Conditions/Version_1/zeroback(1)_v1.xlsx,Rule: Press 'space' when you see the letter 'x' or 'X'.,T,None,,,,,,,,,0,0,0,0,0,1,1,1,,,,,,,,,,,,,,,,,,,,,,,,,,,,,,,,,,,,,,,,,,,,,,,,,,,,,,,,,,,,,,,,,,,,,1.6982,289.4291982,None,None,1,289.4291982,None,,P018,fencog,2,Pre,2021_Oct_29_1208,N-Back (New Version 2021),2021.1.4,120.0772818
,,,,Conditions/Version_1/zeroback(1)_v1.xlsx,Rule: Press 'space' when you see the letter 'x' or 'X'.,L,None,,,,,,,,,0,0,0,0,0,2,2,2,,,,,,,,,,,,,,,,,,,,,,,,,,,,,,,,,,,,,,,,,,,,,,,,,,,,,,,,,,,,,,,,,,,,,1.8098,293.2516813,None,None,1,293.2516813,None,,P018,fencog,2,Pre,2021_Oct_29_1208,N-Back (New Version 2021),2021.1.4,120.0772818
,,,,Conditions/Version_1/zeroback(1)_v1.xlsx,Rule: Press 'space' when you see the letter 'x' or 'X'.,x,space,,,,,,,,,0,0,0,0,0,3,3,3,,,,,,,,,,,,,,,,,,,,,,,,,,,,,,,,,,,,,,,,,,,,,,,,,,,,,,,,,,,,,,,,,,,,,1.816,297.0773499,None,space,1,297.0773499,None,1.7071982,P018,fencog,2,Pre,2021_Oct_29_1208,N-Back (New Version 2021),2021.1.4,120.0772818
,,,,Conditions/Version_1/zeroback(1)_v1.xlsx,Rule: Press 'space' when you see the letter 'x' or 'X'.,o,None,,,,,,,,,0,0,0,0,0,4,4,4,,,,,,,,,,,,,,,,,,,,,,,,,,,,,,,,,,,,,,,,,,,,,,,,,,,,,,,,,,,,,,,,,,,,,1.2208,300.3012617,None,None,1,300.3012617,None,,P018,fencog,2,Pre,2021_Oct_29_1208,N-Back (New Version 2021),2021.1.4,120.0772818
,,,,Conditions/Version_1/zeroback(1)_v1.xlsx,Rule: Press 'space' when you see the letter 'x' or 'X'.,P,None,,,,,,,,,0,0,0,0,0,5,5,5,,,,,,,,,,,,,,,,,,,,,,,,,,,,,,,,,,,,,,,,,,,,,,,,,,,,,,,,,,,,,,,,,,,,,1.4006,303.7081372,None,None,1,303.7081372,None,,P018,fencog,2,Pre,2021_Oct_29_1208,N-Back (New Version 2021),2021.1.4,120.0772818
,,,,Conditions/Version_1/zeroback(1)_v1.xlsx,Rule: Press 'space' when you see the letter 'x' or 'X'.,X,space,,,,,,,,,0,0,0,0,0,6,6,6,,,,,,,,,,,,,,,,,,,,,,,,,,,,,,,,,,,,,,,,,,,,,,,,,,,,,,,,,,,,,,,,,,,,,1.2952,307.0159005,None,space,1,307.0159005,None,0.3286039,P018,fencog,2,Pre,2021_Oct_29_1208,N-Back (New Version 2021),2021.1.4,120.0772818
,,,,Conditions/Version_1/zeroback(1)_v1.xlsx,Rule: Press 'space' when you see the letter 'x' or 'X'.,n,None,,,,,,,,,0,0,0,0,0,7,7,7,,,,,,,,,,,,,,,,,,,,,,,,,,,,,,,,,,,,,,,,,,,,,,,,,,,,,,,,,,,,,,,,,,,,,1.8036,310.8348515,None,None,1,310.8348515,None,,P018,fencog,2,Pre,2021_Oct_29_1208,N-Back (New Version 2021),2021.1.4,120.0772818
,,,,Conditions/Version_1/zeroback(1)_v1.xlsx,Rule: Press 'space' when you see the letter 'x' or 'X'.,M,None,,,,,,,,,0,0,0,0,0,8,8,8,,,,,,,,,,,,,,,,,,,,,,,,,,,,,,,,,,,,,,,,,,,,,,,,,,,,,,,,,,,,,,,,,,,,,1.7168,314.5641789,None,None,1,314.5641789,None,,P018,fencog,2,Pre,2021_Oct_29_1208,N-Back (New Version 2021),2021.1.4,120.0772818
,,,,Conditions/Version_1/zeroback(1)_v1.xlsx,Rule: Press 'space' when you see the letter 'x' or 'X'.,a,None,,,,,,,,,0,0,0,0,0,9,9,9,,,,,,,,,,,,,,,,,,,,,,,,,,,,,,,,,,,,,,,,,,,,,,,,,,,,,,,,,,,,,,,,,,,,,1.8346,318.4043963,None,None,1,318.4043963,None,,P018,fencog,2,Pre,2021_Oct_29_1208,N-Back (New Version 2021),2021.1.4,120.0772818
,,,,Conditions/Version_1/zeroback(1)_v1.xlsx,Rule: Press 'space' when you see the letter 'x' or 'X'.,,,,,,,,,,,0,0,0,0,,,,,,,,,,,,,,,,,,,,,,,,,,,,,,,,,,,,,,,,,,,,,,,,,,,,,,,,,,,,,,,,,,,,,,,,,,,,,,,,,P018,fencog,2,Pre,2021_Oct_29_1208,N-Back (New Version 2021),2021.1.4,120.0772818
,,,,Conditions/Version_1/oneback(1)_v1.xlsx,New rule: Press 'space' when you see 1-back (i.e. the same letter as the one that appeared 1 letter ago.),b,None,,,,,,,,,0,1,1,1,0,0,0,0,,,,,,,,,,,,,,,,,,,,,,,,,,,,,,,,,,,,,,,,,,,,,,,,,,,,,,,,,,,320.4650054,None,323.4354884,None,space,1.7621438,323.4354884,None,320.4650054,None,1.2704,326.5030115,None,None,1,326.5030115,None,,P018,fencog,2,Pre,2021_Oct_29_1208,N-Back (New Version 2021),2021.1.4,120.0772818
,,,,Conditions/Version_1/oneback(1)_v1.xlsx,New rule: Press 'space' when you see 1-back (i.e. the same letter as the one that appeared 1 letter ago.),p,None,,,,,,,,,0,1,1,1,0,1,1,1,,,,,,,,,,,,,,,,,,,,,,,,,,,,,,,,,,,,,,,,,,,,,,,,,,,,,,,,,,,,,,,,,,,,,1.6672,330.1817628,None,None,1,330.1817628,None,,P018,fencog,2,Pre,2021_Oct_29_1208,N-Back (New Version 2021),2021.1.4,120.0772818
,,,,Conditions/Version_1/oneback(1)_v1.xlsx,New rule: Press 'space' when you see 1-back (i.e. the same letter as the one that appeared 1 letter ago.),M,None,,,,,,,,,0,1,1,1,0,2,2,2,,,,,,,,,,,,,,,,,,,,,,,,,,,,,,,,,,,,,,,,,,,,,,,,,,,,,,,,,,,,,,,,,,,,,1.3138,333.5080221,None,None,1,333.5080221,None,,P018,fencog,2,Pre,2021_Oct_29_1208,N-Back (New Version 2021),2021.1.4,120.0772818
,,,,Conditions/Version_1/oneback(1)_v1.xlsx,New rule: Press 'space' when you see 1-back (i.e. the same letter as the one that appeared 1 letter ago.),M,space,,,,,,,,,0,1,1,1,0,3,3,3,,,,,,,,,,,,,,,,,,,,,,,,,,,,,,,,,,,,,,,,,,,,,,,,,,,,,,,,,,,,,,,,,,,,,1.2146,336.7355474,None,space,1,336.7355474,None,0.3733629,P018,fencog,2,Pre,2021_Oct_29_1208,N-Back (New Version 2021),2021.1.4,120.0772818
,,,,Conditions/Version_1/oneback(1)_v1.xlsx,New rule: Press 'space' when you see 1-back (i.e. the same letter as the one that appeared 1 letter ago.),n,None,,,,,,,,,0,1,1,1,0,4,4,4,,,,,,,,,,,,,,,,,,,,,,,,,,,,,,,,,,,,,,,,,,,,,,,,,,,,,,,,,,,,,,,,,,,,,1.0906,339.8350043,None,None,1,339.8350043,None,,P018,fencog,2,Pre,2021_Oct_29_1208,N-Back (New Version 2021),2021.1.4,120.0772818
,,,,Conditions/Version_1/oneback(1)_v1.xlsx,New rule: Press 'space' when you see 1-back (i.e. the same letter as the one that appeared 1 letter ago.),g,None,,,,,,,,,0,1,1,1,0,5,5,5,,,,,,,,,,,,,,,,,,,,,,,,,,,,,,,,,,,,,,,,,,,,,,,,,,,,,,,,,,,,,,,,,,,,,1.1774,343.0239744,None,None,1,343.0239744,None,,P018,fencog,2,Pre,2021_Oct_29_1208,N-Back (New Version 2021),2021.1.4,120.0772818
,,,,Conditions/Version_1/oneback(1)_v1.xlsx,New rule: Press 'space' when you see 1-back (i.e. the same letter as the one that appeared 1 letter ago.),P,None,,,,,,,,,0,1,1,1,0,6,6,6,,,,,,,,,,,,,,,,,,,,,,,,,,,,,,,,,,,,,,,,,,,,,,,,,,,,,,,,,,,,,,,,,,,,,1.3882,346.4143972,None,None,1,346.4143972,None,,P018,fencog,2,Pre,2021_Oct_29_1208,N-Back (New Version 2021),2021.1.4,120.0772818
,,,,Conditions/Version_1/oneback(1)_v1.xlsx,New rule: Press 'space' when you see 1-back (i.e. the same letter as the one that appeared 1 letter ago.),o,None,,,,,,,,,0,1,1,1,0,7,7,7,,,,,,,,,,,,,,,,,,,,,,,,,,,,,,,,,,,,,,,,,,,,,,,,,,,,,,,,,,,,,,,,,,,,,1.816,350.2298966,None,None,1,350.2298966,None,,P018,fencog,2,Pre,2021_Oct_29_1208,N-Back (New Version 2021),2021.1.4,120.0772818
,,,,Conditions/Version_1/oneback(1)_v1.xlsx,New rule: Press 'space' when you see 1-back (i.e. the same letter as the one that appeared 1 letter ago.),f,None,,,,,,,,,0,1,1,1,0,8,8,8,,,,,,,,,,,,,,,,,,,,,,,,,,,,,,,,,,,,,,,,,,,,,,,,,,,,,,,,,,,,,,,,,,,,,1.537,353.7715235,None,None,1,353.7715235,None,,P018,fencog,2,Pre,2021_Oct_29_1208,N-Back (New Version 2021),2021.1.4,120.0772818
,,,,Conditions/Version_1/oneback(1)_v1.xlsx,New rule: Press 'space' when you see 1-back (i.e. the same letter as the one that appeared 1 letter ago.),F,space,,,,,,,,,0,1,1,1,0,9,9,9,,,,,,,,,,,,,,,,,,,,,,,,,,,,,,,,,,,,,,,,,,,,,,,,,,,,,,,,,,,,,,,,,,,,,1.909,357.6946413,None,space,1,357.6946413,None,0.2779666,P018,fencog,2,Pre,2021_Oct_29_1208,N-Back (New Version 2021),2021.1.4,120.0772818
,,,,Conditions/Version_1/oneback(1)_v1.xlsx,New rule: Press 'space' when you see 1-back (i.e. the same letter as the one that appeared 1 letter ago.),,,,,,,,,,,0,1,1,1,,,,,,,,,,,,,,,,,,,,,,,,,,,,,,,,,,,,,,,,,,,,,,,,,,,,,,,,,,,,,,,,,,,,,,,,,,,,,,,,,P018,fencog,2,Pre,2021_Oct_29_1208,N-Back (New Version 2021),2021.1.4,120.0772818
,,,,Conditions/Version_1/twoback(1)_v1.xlsx,New rule: Press 'space' when you see 2-back (i.e. the same letter as the one that appeared 2 letters ago.),b,None,,,,,,,,,0,2,2,2,0,0,0,0,,,,,,,,,,,,,,,,,,,,,,,,,,,,,,,,,,,,,,,,,,,,,,,,,,,,,,,,,,,359.7331197,None,362.711538,None,space,1.7207941,362.711538,None,359.7331197,None,1.8904,366.3524658,None,None,1,366.3524658,None,,P018,fencog,2,Pre,2021_Oct_29_1208,N-Back (New Version 2021),2021.1.4,120.0772818
,,,,Conditions/Version_1/twoback(1)_v1.xlsx,New rule: Press 'space' when you see 2-back (i.e. the same letter as the one that appeared 2 letters ago.),h,None,,,,,,,,,0,2,2,2,0,1,1,1,,,,,,,,,,,,,,,,,,,,,,,,,,,,,,,,,,,,,,,,,,,,,,,,,,,,,,,,,,,,,,,,,,,,,1.413,369.7812594,None,None,1,369.7812594,None,,P018,fencog,2,Pre,2021_Oct_29_1208,N-Back (New Version 2021),2021.1.4,120.0772818
,,,,Conditions/Version_1/twoback(1)_v1.xlsx,New rule: Press 'space' when you see 2-back (i.e. the same letter as the one that appeared 2 letters ago.),j,None,,,,,,,,,0,2,2,2,0,2,2,2,,,,,,,,,,,,,,,,,,,,,,,,,,,,,,,,,,,,,,,,,,,,,,,,,,,,,,,,,,,,,,,,,,,,,1.7602,373.5525686,None,None,1,373.5525686,None,,P018,fencog,2,Pre,2021_Oct_29_1208,N-Back (New Version 2021),2021.1.4,120.0772818
,,,,Conditions/Version_1/twoback(1)_v1.xlsx,New rule: Press 'space' when you see 2-back (i.e. the same letter as the one that appeared 2 letters ago.),H,space,,,,,,,,,0,2,2,2,0,3,3,3,,,,,,,,,,,,,,,,,,,,,,,,,,,,,,,,,,,,,,,,,,,,,,,,,,,,,,,,,,,,,,,,,,,,,1.1588,376.7152235,None,space,1,376.7152235,None,0.5517747,P018,fencog,2,Pre,2021_Oct_29_1208,N-Back (New Version 2021),2021.1.4,120.0772818
,,,,Conditions/Version_1/twoback(1)_v1.xlsx,New rule: Press 'space' when you see 2-back (i.e. the same letter as the one that appeared 2 letters ago.),p,None,,,,,,,,,0,2,2,2,0,4,4,4,,,,,,,,,,,,,,,,,,,,,,,,,,,,,,,,,,,,,,,,,,,,,,,,,,,,,,,,,,,,,,,,,,,,,1.8532,380.5839394,None,None,1,380.5839394,None,,P018,fencog,2,Pre,2021_Oct_29_1208,N-Back (New Version 2021),2021.1.4,120.0772818
,,,,Conditions/Version_1/twoback(1)_v1.xlsx,New rule: Press 'space' when you see 2-back (i.e. the same letter as the one that appeared 2 letters ago.),p,None,,,,,,,,,0,2,2,2,0,5,5,5,,,,,,,,,,,,,,,,,,,,,,,,,,,,,,,,,,,,,,,,,,,,,,,,,,,,,,,,,,,,,,,,,,,,,1.01,383.6033477,None,space,0,383.6033477,None,0.7092274,P018,fencog,2,Pre,2021_Oct_29_1208,N-Back (New Version 2021),2021.1.4,120.0772818
,,,,Conditions/Version_1/twoback(1)_v1.xlsx,New rule: Press 'space' when you see 2-back (i.e. the same letter as the one that appeared 2 letters ago.),w,None,,,,,,,,,0,2,2,2,0,6,6,6,,,,,,,,,,,,,,,,,,,,,,,,,,,,,,,,,,,,,,,,,,,,,,,,,,,,,,,,,,,,,,,,,,,,,1.5742,387.179225,None,None,1,387.179225,None,,P018,fencog,2,Pre,2021_Oct_29_1208,N-Back (New Version 2021),2021.1.4,120.0772818
,,,,Conditions/Version_1/twoback(1)_v1.xlsx,New rule: Press 'space' when you see 2-back (i.e. the same letter as the one that appeared 2 letters ago.),R,None,,,,,,,,,0,2,2,2,0,7,7,7,,,,,,,,,,,,,,,,,,,,,,,,,,,,,,,,,,,,,,,,,,,,,,,,,,,,,,,,,,,,,,,,,,,,,1.134,390.3196706,None,None,1,390.3196706,None,,P018,fencog,2,Pre,2021_Oct_29_1208,N-Back (New Version 2021),2021.1.4,120.0772818
,,,,Conditions/Version_1/twoback(1)_v1.xlsx,New rule: Press 'space' when you see 2-back (i.e. the same letter as the one that appeared 2 letters ago.),a,None,,,,,,,,,0,2,2,2,0,8,8,8,,,,,,,,,,,,,,,,,,,,,,,,,,,,,,,,,,,,,,,,,,,,,,,,,,,,,,,,,,,,,,,,,,,,,1.103,393.4346671,None,None,1,393.4346671,None,,P018,fencog,2,Pre,2021_Oct_29_1208,N-Back (New Version 2021),2021.1.4,120.0772818
,,,,Conditions/Version_1/twoback(1)_v1.xlsx,New rule: Press 'space' when you see 2-back (i.e. the same letter as the one that appeared 2 letters ago.),r,space,,,,,,,,,0,2,2,2,0,9,9,9,,,,,,,,,,,,,,,,,,,,,,,,,,,,,,,,,,,,,,,,,,,,,,,,,,,,,,,,,,,,,,,,,,,,,1.9338,397.3742539,None,space,1,397.3742539,None,0.5037964,P018,fencog,2,Pre,2021_Oct_29_1208,N-Back (New Version 2021),2021.1.4,120.0772818
,,,,Conditions/Version_1/twoback(1)_v1.xlsx,New rule: Press 'space' when you see 2-back (i.e. the same letter as the one that appeared 2 letters ago.),,,,,,,,,,,0,2,2,2,,,,,,,,,,,,,,,,,,,,,,,,,,,,,,,,,,,,,,,,,,,,,,,,,,,,,,,,,,,,,,,,,,,,,,,,,,,,,,,,,P018,fencog,2,Pre,2021_Oct_29_1208,N-Back (New Version 2021),2021.1.4,120.0772818
,,,,Conditions/Version_1/threeback(1)_v1.xlsx,New rule: Press 'space' when you see 3-back (i.e. the same letter as the one that appeared 3 letters ago.),r,None,,,,,,,,,0,3,3,3,0,0,0,0,,,,,,,,,,,,,,,,,,,,,,,,,,,,,,,,,,,,,,,,,,,,,,,,,,,,,,,,,,,399.4186105,None,402.4042007,None,space,0.2451861,402.4042007,None,399.4186105,None,1.2208,403.9072368,None,None,1,403.9072368,None,,P018,fencog,2,Pre,2021_Oct_29_1208,N-Back (New Version 2021),2021.1.4,120.0772818
,,,,Conditions/Version_1/threeback(1)_v1.xlsx,New rule: Press 'space' when you see 3-back (i.e. the same letter as the one that appeared 3 letters ago.),o,None,,,,,,,,,0,3,3,3,0,1,1,1,,,,,,,,,,,,,,,,,,,,,,,,,,,,,,,,,,,,,,,,,,,,,,,,,,,,,,,,,,,,,,,,,,,,,1.4378,407.3509151,None,None,1,407.3509151,None,,P018,fencog,2,Pre,2021_Oct_29_1208,N-Back (New Version 2021),2021.1.4,120.0772818
,,,,Conditions/Version_1/threeback(1)_v1.xlsx,New rule: Press 'space' when you see 3-back (i.e. the same letter as the one that appeared 3 letters ago.),P,None,,,,,,,,,0,3,3,3,0,2,2,2,,,,,,,,,,,,,,,,,,,,,,,,,,,,,,,,,,,,,,,,,,,,,,,,,,,,,,,,,,,,,,,,,,,,,1.971,411.336393,None,None,1,411.336393,None,,P018,fencog,2,Pre,2021_Oct_29_1208,N-Back (New Version 2021),2021.1.4,120.0772818
,,,,Conditions/Version_1/threeback(1)_v1.xlsx,New rule: Press 'space' when you see 3-back (i.e. the same letter as the one that appeared 3 letters ago.),R,space,,,,,,,,,0,3,3,3,0,3,3,3,,,,,,,,,,,,,,,,,,,,,,,,,,,,,,,,,,,,,,,,,,,,,,,,,,,,,,,,,,,,,,,,,,,,,1.165,414.5174324,None,None,0,414.5174324,None,,P018,fencog,2,Pre,2021_Oct_29_1208,N-Back (New Version 2021),2021.1.4,120.0772818
,,,,Conditions/Version_1/threeback(1)_v1.xlsx,New rule: Press 'space' when you see 3-back (i.e. the same letter as the one that appeared 3 letters ago.),p,None,,,,,,,,,0,3,3,3,0,4,4,4,,,,,,,,,,,,,,,,,,,,,,,,,,,,,,,,,,,,,,,,,,,,,,,,,,,,,,,,,,,,,,,,,,,,,1.8904,418.4119459,None,None,1,418.4119459,None,,P018,fencog,2,Pre,2021_Oct_29_1208,N-Back (New Version 2021),2021.1.4,120.0772818
,,,,Conditions/Version_1/threeback(1)_v1.xlsx,New rule: Press 'space' when you see 3-back (i.e. the same letter as the one that appeared 3 letters ago.),E,None,,,,,,,,,0,3,3,3,0,5,5,5,,,,,,,,,,,,,,,,,,,,,,,,,,,,,,,,,,,,,,,,,,,,,,,,,,,,,,,,,,,,,,,,,,,,,1.6982,422.1215338,None,None,1,422.1215338,None,,P018,fencog,2,Pre,2021_Oct_29_1208,N-Back (New Version 2021),2021.1.4,120.0772818
,,,,Conditions/Version_1/threeback(1)_v1.xlsx,New rule: Press 'space' when you see 3-back (i.e. the same letter as the one that appeared 3 letters ago.),e,None,,,,,,,,,0,3,3,3,0,6,6,6,,,,,,,,,,,,,,,,,,,,,,,,,,,,,,,,,,,,,,,,,,,,,,,,,,,,,,,,,,,,,,,,,,,,,1.4502,425.5824274,None,None,1,425.5824274,None,,P018,fencog,2,Pre,2021_Oct_29_1208,N-Back (New Version 2021),2021.1.4,120.0772818
,,,,Conditions/Version_1/threeback(1)_v1.xlsx,New rule: Press 'space' when you see 3-back (i.e. the same letter as the one that appeared 3 letters ago.),m,None,,,,,,,,,0,3,3,3,0,7,7,7,,,,,,,,,,,,,,,,,,,,,,,,,,,,,,,,,,,,,,,,,,,,,,,,,,,,,,,,,,,,,,,,,,,,,1.7788,429.3724492,None,None,1,429.3724492,None,,P018,fencog,2,Pre,2021_Oct_29_1208,N-Back (New Version 2021),2021.1.4,120.0772818
,,,,Conditions/Version_1/threeback(1)_v1.xlsx,New rule: Press 'space' when you see 3-back (i.e. the same letter as the one that appeared 3 letters ago.),n,None,,,,,,,,,0,3,3,3,0,8,8,8,,,,,,,,,,,,,,,,,,,,,,,,,,,,,,,,,,,,,,,,,,,,,,,,,,,,,,,,,,,,,,,,,,,,,1.8222,433.21019,None,None,1,433.21019,None,,P018,fencog,2,Pre,2021_Oct_29_1208,N-Back (New Version 2021),2021.1.4,120.0772818
,,,,Conditions/Version_1/threeback(1)_v1.xlsx,New rule: Press 'space' when you see 3-back (i.e. the same letter as the one that appeared 3 letters ago.),e,space,,,,,,,,,0,3,3,3,0,9,9,9,,,,,,,,,,,,,,,,,,,,,,,,,,,,,,,,,,,,,,,,,,,,,,,,,,,,,,,,,,,,,,,,,,,,,1.8656,437.0917997,None,space,1,437.0917997,None,0.4338394,P018,fencog,2,Pre,2021_Oct_29_1208,N-Back (New Version 2021),2021.1.4,120.0772818
,,,,Conditions/Version_1/threeback(1)_v1.xlsx,New rule: Press 'space' when you see 3-back (i.e. the same letter as the one that appeared 3 letters ago.),,,,,,,,,,,0,3,3,3,,,,,,,,,,,,,,,,,,,,,,,,,,,,,,,,,,,,,,,,,,,,,,,,,,,,,,,,,,,,,,,,,,,,,,,,,,,,,,,,,P018,fencog,2,Pre,2021_Oct_29_1208,N-Back (New Version 2021),2021.1.4,120.0772818
,,,,Conditions/Version_1/oneback(2)_v1.xlsx,New rule: Press 'space' when you see 1-back (i.e. the same letter as the one that appeared 1 letter ago.),q,None,,,,,,,,,0,4,4,4,0,0,0,0,,,,,,,,,,,,,,,,,,,,,,,,,,,,,,,,,,,,,,,,,,,,,,,,,,,,,,,,,,,439.1311081,None,442.1174233,None,space,4.7250318,442.1174233,None,439.1311081,None,1.9276,448.8060345,None,None,1,448.8060345,None,,P018,fencog,2,Pre,2021_Oct_29_1208,N-Back (New Version 2021),2021.1.4,120.0772818
,,,,Conditions/Version_1/oneback(2)_v1.xlsx,New rule: Press 'space' when you see 1-back (i.e. the same letter as the one that appeared 1 letter ago.),Q,space,,,,,,,,,0,4,4,4,0,1,1,1,,,,,,,,,,,,,,,,,,,,,,,,,,,,,,,,,,,,,,,,,,,,,,,,,,,,,,,,,,,,,,,,,,,,,1.444,452.2640035,None,space,1,452.2640035,None,0.4355847,P018,fencog,2,Pre,2021_Oct_29_1208,N-Back (New Version 2021),2021.1.4,120.0772818
,,,,Conditions/Version_1/oneback(2)_v1.xlsx,New rule: Press 'space' when you see 1-back (i.e. the same letter as the one that appeared 1 letter ago.),P,None,,,,,,,,,0,4,4,4,0,2,2,2,,,,,,,,,,,,,,,,,,,,,,,,,,,,,,,,,,,,,,,,,,,,,,,,,,,,,,,,,,,,,,,,,,,,,1.6548,455.9280717,None,None,1,455.9280717,None,,P018,fencog,2,Pre,2021_Oct_29_1208,N-Back (New Version 2021),2021.1.4,120.0772818
,,,,Conditions/Version_1/oneback(2)_v1.xlsx,New rule: Press 'space' when you see 1-back (i.e. the same letter as the one that appeared 1 letter ago.),o,None,,,,,,,,,0,4,4,4,0,3,3,3,,,,,,,,,,,,,,,,,,,,,,,,,,,,,,,,,,,,,,,,,,,,,,,,,,,,,,,,,,,,,,,,,,,,,1.8346,459.7750117,None,None,1,459.7750117,None,,P018,fencog,2,Pre,2021_Oct_29_1208,N-Back (New Version 2021),2021.1.4,120.0772818
,,,,Conditions/Version_1/oneback(2)_v1.xlsx,New rule: Press 'space' when you see 1-back (i.e. the same letter as the one that appeared 1 letter ago.),m,None,,,,,,,,,0,4,4,4,0,4,4,4,,,,,,,,,,,,,,,,,,,,,,,,,,,,,,,,,,,,,,,,,,,,,,,,,,,,,,,,,,,,,,,,,,,,,1.971,463.758968,None,None,1,463.758968,None,,P018,fencog,2,Pre,2021_Oct_29_1208,N-Back (New Version 2021),2021.1.4,120.0772818
,,,,Conditions/Version_1/oneback(2)_v1.xlsx,New rule: Press 'space' when you see 1-back (i.e. the same letter as the one that appeared 1 letter ago.),Z,None,,,,,,,,,0,4,4,4,0,5,5,5,,,,,,,,,,,,,,,,,,,,,,,,,,,,,,,,,,,,,,,,,,,,,,,,,,,,,,,,,,,,,,,,,,,,,1.0906,466.8702097,None,None,1,466.8702097,None,,P018,fencog,2,Pre,2021_Oct_29_1208,N-Back (New Version 2021),2021.1.4,120.0772818
,,,,Conditions/Version_1/oneback(2)_v1.xlsx,New rule: Press 'space' when you see 1-back (i.e. the same letter as the one that appeared 1 letter ago.),c,None,,,,,,,,,0,4,4,4,0,6,6,6,,,,,,,,,,,,,,,,,,,,,,,,,,,,,,,,,,,,,,,,,,,,,,,,,,,,,,,,,,,,,,,,,,,,,1.4874,470.3671433,None,None,1,470.3671433,None,,P018,fencog,2,Pre,2021_Oct_29_1208,N-Back (New Version 2021),2021.1.4,120.0772818
,,,,Conditions/Version_1/oneback(2)_v1.xlsx,New rule: Press 'space' when you see 1-back (i.e. the same letter as the one that appeared 1 letter ago.),c,space,,,,,,,,,0,4,4,4,0,7,7,7,,,,,,,,,,,,,,,,,,,,,,,,,,,,,,,,,,,,,,,,,,,,,,,,,,,,,,,,,,,,,,,,,,,,,1.8966,474.2685539,None,space,1,474.2685539,None,0.3448772,P018,fencog,2,Pre,2021_Oct_29_1208,N-Back (New Version 2021),2021.1.4,120.0772818
,,,,Conditions/Version_1/oneback(2)_v1.xlsx,New rule: Press 'space' when you see 1-back (i.e. the same letter as the one that appeared 1 letter ago.),P,None,,,,,,,,,0,4,4,4,0,8,8,8,,,,,,,,,,,,,,,,,,,,,,,,,,,,,,,,,,,,,,,,,,,,,,,,,,,,,,,,,,,,,,,,,,,,,1.9152,478.2003304,None,None,1,478.2003304,None,,P018,fencog,2,Pre,2021_Oct_29_1208,N-Back (New Version 2021),2021.1.4,120.0772818
,,,,Conditions/Version_1/oneback(2)_v1.xlsx,New rule: Press 'space' when you see 1-back (i.e. the same letter as the one that appeared 1 letter ago.),p,space,,,,,,,,,0,4,4,4,0,9,9,9,,,,,,,,,,,,,,,,,,,,,,,,,,,,,,,,,,,,,,,,,,,,,,,,,,,,,,,,,,,,,,,,,,,,,1.7664,481.9725421,None,space,1,481.9725421,None,0.4421963,P018,fencog,2,Pre,2021_Oct_29_1208,N-Back (New Version 2021),2021.1.4,120.0772818
,,,,Conditions/Version_1/oneback(2)_v1.xlsx,New rule: Press 'space' when you see 1-back (i.e. the same letter as the one that appeared 1 letter ago.),,,,,,,,,,,0,4,4,4,,,,,,,,,,,,,,,,,,,,,,,,,,,,,,,,,,,,,,,,,,,,,,,,,,,,,,,,,,,,,,,,,,,,,,,,,,,,,,,,,P018,fencog,2,Pre,2021_Oct_29_1208,N-Back (New Version 2021),2021.1.4,120.0772818
,,,,Conditions/Version_1/zeroback(2)_v1.xlsx,New rule: Press 'space' when you see the letter 'x' or 'X'.,p,None,,,,,,,,,0,5,5,5,0,0,0,0,,,,,,,,,,,,,,,,,,,,,,,,,,,,,,,,,,,,,,,,,,,,,,,,,,,,,,,,,,,484.010376,None,486.9945863,None,space,1.9002763,486.9945863,None,484.010376,None,1.6858,490.6061412,None,None,1,490.6061412,None,,P018,fencog,2,Pre,2021_Oct_29_1208,N-Back (New Version 2021),2021.1.4,120.0772818
,,,,Conditions/Version_1/zeroback(2)_v1.xlsx,New rule: Press 'space' when you see the letter 'x' or 'X'.,L,None,,,,,,,,,0,5,5,5,0,1,1,1,,,,,,,,,,,,,,,,,,,,,,,,,,,,,,,,,,,,,,,,,,,,,,,,,,,,,,,,,,,,,,,,,,,,,1.32,493.9333193,None,None,1,493.9333193,None,,P018,fencog,2,Pre,2021_Oct_29_1208,N-Back (New Version 2021),2021.1.4,120.0772818
,,,,Conditions/Version_1/zeroback(2)_v1.xlsx,New rule: Press 'space' when you see the letter 'x' or 'X'.,G,None,,,,,,,,,0,5,5,5,0,2,2,2,,,,,,,,,,,,,,,,,,,,,,,,,,,,,,,,,,,,,,,,,,,,,,,,,,,,,,,,,,,,,,,,,,,,,1.7292,497.6794666,None,None,1,497.6794666,None,,P018,fencog,2,Pre,2021_Oct_29_1208,N-Back (New Version 2021),2021.1.4,120.0772818
,,,,Conditions/Version_1/zeroback(2)_v1.xlsx,New rule: Press 'space' when you see the letter 'x' or 'X'.,y,None,,,,,,,,,0,5,5,5,0,3,3,3,,,,,,,,,,,,,,,,,,,,,,,,,,,,,,,,,,,,,,,,,,,,,,,,,,,,,,,,,,,,,,,,,,,,,1.9462,501.6267496,None,None,1,501.6267496,None,,P018,fencog,2,Pre,2021_Oct_29_1208,N-Back (New Version 2021),2021.1.4,120.0772818
,,,,Conditions/Version_1/zeroback(2)_v1.xlsx,New rule: Press 'space' when you see the letter 'x' or 'X'.,Y,None,,,,,,,,,0,5,5,5,0,4,4,4,,,,,,,,,,,,,,,,,,,,,,,,,,,,,,,,,,,,,,,,,,,,,,,,,,,,,,,,,,,,,,,,,,,,,1.289,504.9174758,None,None,1,504.9174758,None,,P018,fencog,2,Pre,2021_Oct_29_1208,N-Back (New Version 2021),2021.1.4,120.0772818
,,,,Conditions/Version_1/zeroback(2)_v1.xlsx,New rule: Press 'space' when you see the letter 'x' or 'X'.,W,None,,,,,,,,,0,5,5,5,0,5,5,5,,,,,,,,,,,,,,,,,,,,,,,,,,,,,,,,,,,,,,,,,,,,,,,,,,,,,,,,,,,,,,,,,,,,,1.382,508.3007092,None,None,1,508.3007092,None,,P018,fencog,2,Pre,2021_Oct_29_1208,N-Back (New Version 2021),2021.1.4,120.0772818
,,,,Conditions/Version_1/zeroback(2)_v1.xlsx,New rule: Press 'space' when you see the letter 'x' or 'X'.,x,space,,,,,,,,,0,5,5,5,0,6,6,6,,,,,,,,,,,,,,,,,,,,,,,,,,,,,,,,,,,,,,,,,,,,,,,,,,,,,,,,,,,,,,,,,,,,,1.9586,512.2652659,None,space,1,512.2652659,None,0.3949798,P018,fencog,2,Pre,2021_Oct_29_1208,N-Back (New Version 2021),2021.1.4,120.0772818
,,,,Conditions/Version_1/zeroback(2)_v1.xlsx,New rule: Press 'space' when you see the letter 'x' or 'X'.,X,space,,,,,,,,,0,5,5,5,0,7,7,7,,,,,,,,,,,,,,,,,,,,,,,,,,,,,,,,,,,,,,,,,,,,,,,,,,,,,,,,,,,,,,,,,,,,,1.041,515.3069132,None,space,1,515.3069132,None,0.3756982,P018,fencog,2,Pre,2021_Oct_29_1208,N-Back (New Version 2021),2021.1.4,120.0772818
,,,,Conditions/Version_1/zeroback(2)_v1.xlsx,New rule: Press 'space' when you see the letter 'x' or 'X'.,p,None,,,,,,,,,0,5,5,5,0,8,8,8,,,,,,,,,,,,,,,,,,,,,,,,,,,,,,,,,,,,,,,,,,,,,,,,,,,,,,,,,,,,,,,,,,,,,1.4812,518.7966698,None,None,1,518.7966698,None,,P018,fencog,2,Pre,2021_Oct_29_1208,N-Back (New Version 2021),2021.1.4,120.0772818
,,,,Conditions/Version_1/zeroback(2)_v1.xlsx,New rule: Press 'space' when you see the letter 'x' or 'X'.,h,None,,,,,,,,,0,5,5,5,0,9,9,9,,,,,,,,,,,,,,,,,,,,,,,,,,,,,,,,,,,,,,,,,,,,,,,,,,,,,,,,,,,,,,,,,,,,,1.5742,522.3706401,None,None,1,522.3706401,None,,P018,fencog,2,Pre,2021_Oct_29_1208,N-Back (New Version 2021),2021.1.4,120.0772818
,,,,Conditions/Version_1/zeroback(2)_v1.xlsx,New rule: Press 'space' when you see the letter 'x' or 'X'.,,,,,,,,,,,0,5,5,5,,,,,,,,,,,,,,,,,,,,,,,,,,,,,,,,,,,,,,,,,,,,,,,,,,,,,,,,,,,,,,,,,,,,,,,,,,,,,,,,,P018,fencog,2,Pre,2021_Oct_29_1208,N-Back (New Version 2021),2021.1.4,120.0772818
,,,,Conditions/Version_1/threeback(2)_v1.xlsx,New rule: Press 'space' when you see 3-back (i.e. the same letter as the one that appeared 3 letters ago.),q,None,,,,,,,,,0,6,6,6,0,0,0,0,,,,,,,,,,,,,,,,,,,,,,,,,,,,,,,,,,,,,,,,,,,,,,,,,,,,,,,,,,,524.3952351,None,527.3804177,None,space,157.1620778,527.3804177,None,524.3952351,None,1.8718,686.4429913,None,None,1,686.4429913,None,,P018,fencog,2,Pre,2021_Oct_29_1208,N-Back (New Version 2021),2021.1.4,120.0772818
,,,,Conditions/Version_1/threeback(2)_v1.xlsx,New rule: Press 'space' when you see 3-back (i.e. the same letter as the one that appeared 3 letters ago.),Y,None,,,,,,,,,0,6,6,6,0,1,1,1,,,,,,,,,,,,,,,,,,,,,,,,,,,,,,,,,,,,,,,,,,,,,,,,,,,,,,,,,,,,,,,,,,,,,1.165,689.6248424,None,None,1,689.6248424,None,,P018,fencog,2,Pre,2021_Oct_29_1208,N-Back (New Version 2021),2021.1.4,120.0772818
,,,,Conditions/Version_1/threeback(2)_v1.xlsx,New rule: Press 'space' when you see 3-back (i.e. the same letter as the one that appeared 3 letters ago.),p,None,,,,,,,,,0,6,6,6,0,2,2,2,,,,,,,,,,,,,,,,,,,,,,,,,,,,,,,,,,,,,,,,,,,,,,,,,,,,,,,,,,,,,,,,,,,,,1.8222,693.4566119,None,None,1,693.4566119,None,,P018,fencog,2,Pre,2021_Oct_29_1208,N-Back (New Version 2021),2021.1.4,120.0772818
,,,,Conditions/Version_1/threeback(2)_v1.xlsx,New rule: Press 'space' when you see 3-back (i.e. the same letter as the one that appeared 3 letters ago.),p,None,,,,,,,,,0,6,6,6,0,3,3,3,,,,,,,,,,,,,,,,,,,,,,,,,,,,,,,,,,,,,,,,,,,,,,,,,,,,,,,,,,,,,,,,,,,,,1.4564,696.9200136,None,None,1,696.9200136,None,,P018,fencog,2,Pre,2021_Oct_29_1208,N-Back (New Version 2021),2021.1.4,120.0772818
,,,,Conditions/Version_1/threeback(2)_v1.xlsx,New rule: Press 'space' when you see 3-back (i.e. the same letter as the one that appeared 3 letters ago.),y,space,,,,,,,,,0,6,6,6,0,4,4,4,,,,,,,,,,,,,,,,,,,,,,,,,,,,,,,,,,,,,,,,,,,,,,,,,,,,,,,,,,,,,,,,,,,,,1.9152,700.8462466,None,space,1,700.8462466,None,0.617114,P018,fencog,2,Pre,2021_Oct_29_1208,N-Back (New Version 2021),2021.1.4,120.0772818
,,,,Conditions/Version_1/threeback(2)_v1.xlsx,New rule: Press 'space' when you see 3-back (i.e. the same letter as the one that appeared 3 letters ago.),u,None,,,,,,,,,0,6,6,6,0,5,5,5,,,,,,,,,,,,,,,,,,,,,,,,,,,,,,,,,,,,,,,,,,,,,,,,,,,,,,,,,,,,,,,,,,,,,1.816,704.6775119,None,None,1,704.6775119,None,,P018,fencog,2,Pre,2021_Oct_29_1208,N-Back (New Version 2021),2021.1.4,120.0772818
,,,,Conditions/Version_1/threeback(2)_v1.xlsx,New rule: Press 'space' when you see 3-back (i.e. the same letter as the one that appeared 3 letters ago.),P,space,,,,,,,,,0,6,6,6,0,6,6,6,,,,,,,,,,,,,,,,,,,,,,,,,,,,,,,,,,,,,,,,,,,,,,,,,,,,,,,,,,,,,,,,,,,,,1.5246,708.2130598,None,None,0,708.2130598,None,,P018,fencog,2,Pre,2021_Oct_29_1208,N-Back (New Version 2021),2021.1.4,120.0772818
,,,,Conditions/Version_1/threeback(2)_v1.xlsx,New rule: Press 'space' when you see 3-back (i.e. the same letter as the one that appeared 3 letters ago.),a,None,,,,,,,,,0,6,6,6,0,7,7,7,,,,,,,,,,,,,,,,,,,,,,,,,,,,,,,,,,,,,,,,,,,,,,,,,,,,,,,,,,,,,,,,,,,,,1.63,711.8518374,None,None,1,711.8518374,None,,P018,fencog,2,Pre,2021_Oct_29_1208,N-Back (New Version 2021),2021.1.4,120.0772818
,,,,Conditions/Version_1/threeback(2)_v1.xlsx,New rule: Press 'space' when you see 3-back (i.e. the same letter as the one that appeared 3 letters ago.),U,space,,,,,,,,,0,6,6,6,0,8,8,8,,,,,,,,,,,,,,,,,,,,,,,,,,,,,,,,,,,,,,,,,,,,,,,,,,,,,,,,,,,,,,,,,,,,,1.1402,715.0036345,None,None,0,715.0036345,None,,P018,fencog,2,Pre,2021_Oct_29_1208,N-Back (New Version 2021),2021.1.4,120.0772818
,,,,Conditions/Version_1/threeback(2)_v1.xlsx,New rule: Press 'space' when you see 3-back (i.e. the same letter as the one that appeared 3 letters ago.),q,None,,,,,,,,,0,6,6,6,0,9,9,9,,,,,,,,,,,,,,,,,,,,,,,,,,,,,,,,,,,,,,,,,,,,,,,,,,,,,,,,,,,,,,,,,,,,,1.3634,718.3709911,None,None,1,718.3709911,None,,P018,fencog,2,Pre,2021_Oct_29_1208,N-Back (New Version 2021),2021.1.4,120.0772818
,,,,Conditions/Version_1/threeback(2)_v1.xlsx,New rule: Press 'space' when you see 3-back (i.e. the same letter as the one that appeared 3 letters ago.),,,,,,,,,,,0,6,6,6,,,,,,,,,,,,,,,,,,,,,,,,,,,,,,,,,,,,,,,,,,,,,,,,,,,,,,,,,,,,,,,,,,,,,,,,,,,,,,,,,P018,fencog,2,Pre,2021_Oct_29_1208,N-Back (New Version 2021),2021.1.4,120.0772818
,,,,Conditions/Version_1/twoback(2)_v1.xlsx,New rule: Press 'space' when you see 2-back (i.e. the same letter as the one that appeared 2 letters ago.),q,None,,,,,,,,,0,7,7,7,0,0,0,0,,,,,,,,,,,,,,,,,,,,,,,,,,,,,,,,,,,,,,,,,,,,,,,,,,,,,,,,,,,720.4156787,None,723.4006361,None,space,0.9616101,723.4006361,None,720.4156787,None,1.4626,725.8616158,None,None,1,725.8616158,None,,P018,fencog,2,Pre,2021_Oct_29_1208,N-Back (New Version 2021),2021.1.4,120.0772818
,,,,Conditions/Version_1/twoback(2)_v1.xlsx,New rule: Press 'space' when you see 2-back (i.e. the same letter as the one that appeared 2 letters ago.),r,None,,,,,,,,,0,7,7,7,0,1,1,1,,,,,,,,,,,,,,,,,,,,,,,,,,,,,,,,,,,,,,,,,,,,,,,,,,,,,,,,,,,,,,,,,,,,,1.5494,729.4242767,None,None,1,729.4242767,None,,P018,fencog,2,Pre,2021_Oct_29_1208,N-Back (New Version 2021),2021.1.4,120.0772818
,,,,Conditions/Version_1/twoback(2)_v1.xlsx,New rule: Press 'space' when you see 2-back (i.e. the same letter as the one that appeared 2 letters ago.),q,space,,,,,,,,,0,7,7,7,0,2,2,2,,,,,,,,,,,,,,,,,,,,,,,,,,,,,,,,,,,,,,,,,,,,,,,,,,,,,,,,,,,,,,,,,,,,,1.1402,732.5795948,None,space,1,732.5795948,None,0.4503575,P018,fencog,2,Pre,2021_Oct_29_1208,N-Back (New Version 2021),2021.1.4,120.0772818
,,,,Conditions/Version_1/twoback(2)_v1.xlsx,New rule: Press 'space' when you see 2-back (i.e. the same letter as the one that appeared 2 letters ago.),P,None,,,,,,,,,0,7,7,7,0,3,3,3,,,,,,,,,,,,,,,,,,,,,,,,,,,,,,,,,,,,,,,,,,,,,,,,,,,,,,,,,,,,,,,,,,,,,1.9648,736.5549269,None,None,1,736.5549269,None,,P018,fencog,2,Pre,2021_Oct_29_1208,N-Back (New Version 2021),2021.1.4,120.0772818
,,,,Conditions/Version_1/twoback(2)_v1.xlsx,New rule: Press 'space' when you see 2-back (i.e. the same letter as the one that appeared 2 letters ago.),p,None,,,,,,,,,0,7,7,7,0,4,4,4,,,,,,,,,,,,,,,,,,,,,,,,,,,,,,,,,,,,,,,,,,,,,,,,,,,,,,,,,,,,,,,,,,,,,1.3634,739.9272948,None,None,1,739.9272948,None,,P018,fencog,2,Pre,2021_Oct_29_1208,N-Back (New Version 2021),2021.1.4,120.0772818
,,,,Conditions/Version_1/twoback(2)_v1.xlsx,New rule: Press 'space' when you see 2-back (i.e. the same letter as the one that appeared 2 letters ago.),H,None,,,,,,,,,0,7,7,7,0,5,5,5,,,,,,,,,,,,,,,,,,,,,,,,,,,,,,,,,,,,,,,,,,,,,,,,,,,,,,,,,,,,,,,,,,,,,1.847,743.7766619,None,None,1,743.7766619,None,,P018,fencog,2,Pre,2021_Oct_29_1208,N-Back (New Version 2021),2021.1.4,120.0772818
,,,,Conditions/Version_1/twoback(2)_v1.xlsx,New rule: Press 'space' when you see 2-back (i.e. the same letter as the one that appeared 2 letters ago.),g,None,,,,,,,,,0,7,7,7,0,6,6,6,,,,,,,,,,,,,,,,,,,,,,,,,,,,,,,,,,,,,,,,,,,,,,,,,,,,,,,,,,,,,,,,,,,,,1.4998,747.2944988,None,None,1,747.2944988,None,,P018,fencog,2,Pre,2021_Oct_29_1208,N-Back (New Version 2021),2021.1.4,120.0772818
,,,,Conditions/Version_1/twoback(2)_v1.xlsx,New rule: Press 'space' when you see 2-back (i.e. the same letter as the one that appeared 2 letters ago.),j,None,,,,,,,,,0,7,7,7,0,7,7,7,,,,,,,,,,,,,,,,,,,,,,,,,,,,,,,,,,,,,,,,,,,,,,,,,,,,,,,,,,,,,,,,,,,,,1.444,750.7517124,None,None,1,750.7517124,None,,P018,fencog,2,Pre,2021_Oct_29_1208,N-Back (New Version 2021),2021.1.4,120.0772818
,,,,Conditions/Version_1/twoback(2)_v1.xlsx,New rule: Press 'space' when you see 2-back (i.e. the same letter as the one that appeared 2 letters ago.),g,space,,,,,,,,,0,7,7,7,0,8,8,8,,,,,,,,,,,,,,,,,,,,,,,,,,,,,,,,,,,,,,,,,,,,,,,,,,,,,,,,,,,,,,,,,,,,,1.9896,754.7561462,None,space,1,754.7561462,None,0.3409782,P018,fencog,2,Pre,2021_Oct_29_1208,N-Back (New Version 2021),2021.1.4,120.0772818
,,,,Conditions/Version_1/twoback(2)_v1.xlsx,New rule: Press 'space' when you see 2-back (i.e. the same letter as the one that appeared 2 letters ago.),G,None,,,,,,,,,0,7,7,7,0,9,9,9,,,,,,,,,,,,,,,,,,,,,,,,,,,,,,,,,,,,,,,,,,,,,,,,,,,,,,,,,,,,,,,,,,,,,1.382,758.156858,None,space,0,758.156858,None,0.4706878,P018,fencog,2,Pre,2021_Oct_29_1208,N-Back (New Version 2021),2021.1.4,120.0772818
,,,,Conditions/Version_1/twoback(2)_v1.xlsx,New rule: Press 'space' when you see 2-back (i.e. the same letter as the one that appeared 2 letters ago.),,,,,,,,,,,0,7,7,7,,,,,,,,,,,,,,,,,,,,,,,,,,,,,,,,,,,,,,,,,,,,,,,,,,,,,,,,,,,,,,,,,,,,,,,,,,,,,,,,,P018,fencog,2,Pre,2021_Oct_29_1208,N-Back (New Version 2021),2021.1.4,120.0772818
,,,,Conditions/Version_1/threeback(3)_v1.xlsx,New rule: Press 'space' when you see 3-back (i.e. the same letter as the one that appeared 3 letters ago.),w,None,,,,,,,,,0,8,8,8,0,0,0,0,,,,,,,,,,,,,,,,,,,,,,,,,,,,,,,,,,,,,,,,,,,,,,,,,,,,,,,,,,,760.1831491,None,763.171676,None,space,2.0684176,763.171676,None,760.1831491,None,1.3014,766.5716182,None,None,1,766.5716182,None,,P018,fencog,2,Pre,2021_Oct_29_1208,N-Back (New Version 2021),2021.1.4,120.0772818
,,,,Conditions/Version_1/threeback(3)_v1.xlsx,New rule: Press 'space' when you see 3-back (i.e. the same letter as the one that appeared 3 letters ago.),p,None,,,,,,,,,0,8,8,8,0,1,1,1,,,,,,,,,,,,,,,,,,,,,,,,,,,,,,,,,,,,,,,,,,,,,,,,,,,,,,,,,,,,,,,,,,,,,1.5122,770.0844275,None,None,1,770.0844275,None,,P018,fencog,2,Pre,2021_Oct_29_1208,N-Back (New Version 2021),2021.1.4,120.0772818
,,,,Conditions/Version_1/threeback(3)_v1.xlsx,New rule: Press 'space' when you see 3-back (i.e. the same letter as the one that appeared 3 letters ago.),P,None,,,,,,,,,0,8,8,8,0,2,2,2,,,,,,,,,,,,,,,,,,,,,,,,,,,,,,,,,,,,,,,,,,,,,,,,,,,,,,,,,,,,,,,,,,,,,1.7354,773.8339385,None,None,1,773.8339385,None,,P018,fencog,2,Pre,2021_Oct_29_1208,N-Back (New Version 2021),2021.1.4,120.0772818
,,,,Conditions/Version_1/threeback(3)_v1.xlsx,New rule: Press 'space' when you see 3-back (i.e. the same letter as the one that appeared 3 letters ago.),i,None,,,,,,,,,0,8,8,8,0,3,3,3,,,,,,,,,,,,,,,,,,,,,,,,,,,,,,,,,,,,,,,,,,,,,,,,,,,,,,,,,,,,,,,,,,,,,1.8222,777.6685823,None,None,1,777.6685823,None,,P018,fencog,2,Pre,2021_Oct_29_1208,N-Back (New Version 2021),2021.1.4,120.0772818
,,,,Conditions/Version_1/threeback(3)_v1.xlsx,New rule: Press 'space' when you see 3-back (i.e. the same letter as the one that appeared 3 letters ago.),f,None,,,,,,,,,0,8,8,8,0,4,4,4,,,,,,,,,,,,,,,,,,,,,,,,,,,,,,,,,,,,,,,,,,,,,,,,,,,,,,,,,,,,,,,,,,,,,1.537,781.215501,None,None,1,781.215501,None,,P018,fencog,2,Pre,2021_Oct_29_1208,N-Back (New Version 2021),2021.1.4,120.0772818
,,,,Conditions/Version_1/threeback(3)_v1.xlsx,New rule: Press 'space' when you see 3-back (i.e. the same letter as the one that appeared 3 letters ago.),o,None,,,,,,,,,0,8,8,8,0,5,5,5,,,,,,,,,,,,,,,,,,,,,,,,,,,,,,,,,,,,,,,,,,,,,,,,,,,,,,,,,,,,,,,,,,,,,1.1712,784.3996435,None,None,1,784.3996435,None,,P018,fencog,2,Pre,2021_Oct_29_1208,N-Back (New Version 2021),2021.1.4,120.0772818
,,,,Conditions/Version_1/threeback(3)_v1.xlsx,New rule: Press 'space' when you see 3-back (i.e. the same letter as the one that appeared 3 letters ago.),w,None,,,,,,,,,0,8,8,8,0,6,6,6,,,,,,,,,,,,,,,,,,,,,,,,,,,,,,,,,,,,,,,,,,,,,,,,,,,,,,,,,,,,,,,,,,,,,1.7292,788.1417564,None,None,1,788.1417564,None,,P018,fencog,2,Pre,2021_Oct_29_1208,N-Back (New Version 2021),2021.1.4,120.0772818
,,,,Conditions/Version_1/threeback(3)_v1.xlsx,New rule: Press 'space' when you see 3-back (i.e. the same letter as the one that appeared 3 letters ago.),F,space,,,,,,,,,0,8,8,8,0,7,7,7,,,,,,,,,,,,,,,,,,,,,,,,,,,,,,,,,,,,,,,,,,,,,,,,,,,,,,,,,,,,,,,,,,,,,1.94,792.0863209,None,space,1,792.0863209,None,1.4167714,P018,fencog,2,Pre,2021_Oct_29_1208,N-Back (New Version 2021),2021.1.4,120.0772818
,,,,Conditions/Version_1/threeback(3)_v1.xlsx,New rule: Press 'space' when you see 3-back (i.e. the same letter as the one that appeared 3 letters ago.),p,None,,,,,,,,,0,8,8,8,0,8,8,8,,,,,,,,,,,,,,,,,,,,,,,,,,,,,,,,,,,,,,,,,,,,,,,,,,,,,,,,,,,,,,,,,,,,,1.7168,795.8104931,None,None,1,795.8104931,None,,P018,fencog,2,Pre,2021_Oct_29_1208,N-Back (New Version 2021),2021.1.4,120.0772818
,,,,Conditions/Version_1/threeback(3)_v1.xlsx,New rule: Press 'space' when you see 3-back (i.e. the same letter as the one that appeared 3 letters ago.),W,space,,,,,,,,,0,8,8,8,0,9,9,9,,,,,,,,,,,,,,,,,,,,,,,,,,,,,,,,,,,,,,,,,,,,,,,,,,,,,,,,,,,,,,,,,,,,,1.878,799.7018334,None,None,0,799.7018334,None,,P018,fencog,2,Pre,2021_Oct_29_1208,N-Back (New Version 2021),2021.1.4,120.0772818
,,,,Conditions/Version_1/threeback(3)_v1.xlsx,New rule: Press 'space' when you see 3-back (i.e. the same letter as the one that appeared 3 letters ago.),,,,,,,,,,,0,8,8,8,,,,,,,,,,,,,,,,,,,,,,,,,,,,,,,,,,,,,,,,,,,,,,,,,,,,,,,,,,,,,,,,,,,,,,,,,,,,,,,,,P018,fencog,2,Pre,2021_Oct_29_1208,N-Back (New Version 2021),2021.1.4,120.0772818
,,,,Conditions/Version_1/zeroback(3)_v1.xlsx,New rule: Press 'space' when you see the letter 'x' or 'X'.,X,space,,,,,,,,,0,9,9,9,0,0,0,0,,,,,,,,,,,,,,,,,,,,,,,,,,,,,,,,,,,,,,,,,,,,,,,,,,,,,,,,,,,801.7450585,None,804.7322073,None,space,0.5991737,804.7322073,None,801.7450585,None,1.0658,806.4362589,None,space,1,806.4362589,None,0.4668276,P018,fencog,2,Pre,2021_Oct_29_1208,N-Back (New Version 2021),2021.1.4,120.0772818
,,,,Conditions/Version_1/zeroback(3)_v1.xlsx,New rule: Press 'space' when you see the letter 'x' or 'X'.,B,None,,,,,,,,,0,9,9,9,0,1,1,1,,,,,,,,,,,,,,,,,,,,,,,,,,,,,,,,,,,,,,,,,,,,,,,,,,,,,,,,,,,,,,,,,,,,,1.4192,809.8711426,None,None,1,809.8711426,None,,P018,fencog,2,Pre,2021_Oct_29_1208,N-Back (New Version 2021),2021.1.4,120.0772818
,,,,Conditions/Version_1/zeroback(3)_v1.xlsx,New rule: Press 'space' when you see the letter 'x' or 'X'.,m,None,,,,,,,,,0,9,9,9,0,2,2,2,,,,,,,,,,,,,,,,,,,,,,,,,,,,,,,,,,,,,,,,,,,,,,,,,,,,,,,,,,,,,,,,,,,,,1.8036,813.6830896,None,None,1,813.6830896,None,,P018,fencog,2,Pre,2021_Oct_29_1208,N-Back (New Version 2021),2021.1.4,120.0772818
,,,,Conditions/Version_1/zeroback(3)_v1.xlsx,New rule: Press 'space' when you see the letter 'x' or 'X'.,m,None,,,,,,,,,0,9,9,9,0,3,3,3,,,,,,,,,,,,,,,,,,,,,,,,,,,,,,,,,,,,,,,,,,,,,,,,,,,,,,,,,,,,,,,,,,,,,1.1402,816.8258328,None,None,1,816.8258328,None,,P018,fencog,2,Pre,2021_Oct_29_1208,N-Back (New Version 2021),2021.1.4,120.0772818
,,,,Conditions/Version_1/zeroback(3)_v1.xlsx,New rule: Press 'space' when you see the letter 'x' or 'X'.,o,None,,,,,,,,,0,9,9,9,0,4,4,4,,,,,,,,,,,,,,,,,,,,,,,,,,,,,,,,,,,,,,,,,,,,,,,,,,,,,,,,,,,,,,,,,,,,,1.2146,820.0538773,None,None,1,820.0538773,None,,P018,fencog,2,Pre,2021_Oct_29_1208,N-Back (New Version 2021),2021.1.4,120.0772818
,,,,Conditions/Version_1/zeroback(3)_v1.xlsx,New rule: Press 'space' when you see the letter 'x' or 'X'.,p,None,,,,,,,,,0,9,9,9,0,5,5,5,,,,,,,,,,,,,,,,,,,,,,,,,,,,,,,,,,,,,,,,,,,,,,,,,,,,,,,,,,,,,,,,,,,,,1.909,823.978523,None,None,1,823.978523,None,,P018,fencog,2,Pre,2021_Oct_29_1208,N-Back (New Version 2021),2021.1.4,120.0772818
,,,,Conditions/Version_1/zeroback(3)_v1.xlsx,New rule: Press 'space' when you see the letter 'x' or 'X'.,G,None,,,,,,,,,0,9,9,9,0,6,6,6,,,,,,,,,,,,,,,,,,,,,,,,,,,,,,,,,,,,,,,,,,,,,,,,,,,,,,,,,,,,,,,,,,,,,1.0534,827.0470601,None,None,1,827.0470601,None,,P018,fencog,2,Pre,2021_Oct_29_1208,N-Back (New Version 2021),2021.1.4,120.0772818
,,,,Conditions/Version_1/zeroback(3)_v1.xlsx,New rule: Press 'space' when you see the letter 'x' or 'X'.,X,space,,,,,,,,,0,9,9,9,0,7,7,7,,,,,,,,,,,,,,,,,,,,,,,,,,,,,,,,,,,,,,,,,,,,,,,,,,,,,,,,,,,,,,,,,,,,,1.3634,830.4169367,None,space,1,830.4169367,None,0.4063509,P018,fencog,2,Pre,2021_Oct_29_1208,N-Back (New Version 2021),2021.1.4,120.0772818
,,,,Conditions/Version_1/zeroback(3)_v1.xlsx,New rule: Press 'space' when you see the letter 'x' or 'X'.,p,None,,,,,,,,,0,9,9,9,0,8,8,8,,,,,,,,,,,,,,,,,,,,,,,,,,,,,,,,,,,,,,,,,,,,,,,,,,,,,,,,,,,,,,,,,,,,,1.8594,834.291284,None,None,1,834.291284,None,,P018,fencog,2,Pre,2021_Oct_29_1208,N-Back (New Version 2021),2021.1.4,120.0772818
,,,,Conditions/Version_1/zeroback(3)_v1.xlsx,New rule: Press 'space' when you see the letter 'x' or 'X'.,x,space,,,,,,,,,0,9,9,9,0,9,9,9,,,,,,,,,,,,,,,,,,,,,,,,,,,,,,,,,,,,,,,,,,,,,,,,,,,,,,,,,,,,,,,,,,,,,1.6362,837.9415265,None,space,1,837.9415265,None,0.4501917,P018,fencog,2,Pre,2021_Oct_29_1208,N-Back (New Version 2021),2021.1.4,120.0772818
,,,,Conditions/Version_1/zeroback(3)_v1.xlsx,New rule: Press 'space' when you see the letter 'x' or 'X'.,,,,,,,,,,,0,9,9,9,,,,,,,,,,,,,,,,,,,,,,,,,,,,,,,,,,,,,,,,,,,,,,,,,,,,,,,,,,,,,,,,,,,,,,,,,,,,,,,,,P018,fencog,2,Pre,2021_Oct_29_1208,N-Back (New Version 2021),2021.1.4,120.0772818
,,,,Conditions/Version_1/twoback(3)_v1.xlsx,New rule: Press 'space' when you see 2-back (i.e. the same letter as the one that appeared 2 letters ago.),e,None,,,,,,,,,0,10,10,10,0,0,0,0,,,,,,,,,,,,,,,,,,,,,,,,,,,,,,,,,,,,,,,,,,,,,,,,,,,,,,,,,,,839.9740835,None,842.9664741,None,space,0.4975301,842.9664741,None,839.9740835,None,1.0348,844.529768,None,None,1,844.529768,None,,P018,fencog,2,Pre,2021_Oct_29_1208,N-Back (New Version 2021),2021.1.4,120.0772818
,,,,Conditions/Version_1/twoback(3)_v1.xlsx,New rule: Press 'space' when you see 2-back (i.e. the same letter as the one that appeared 2 letters ago.),o,None,,,,,,,,,0,10,10,10,0,1,1,1,,,,,,,,,,,,,,,,,,,,,,,,,,,,,,,,,,,,,,,,,,,,,,,,,,,,,,,,,,,,,,,,,,,,,1.4192,847.9640201,None,None,1,847.9640201,None,,P018,fencog,2,Pre,2021_Oct_29_1208,N-Back (New Version 2021),2021.1.4,120.0772818
,,,,Conditions/Version_1/twoback(3)_v1.xlsx,New rule: Press 'space' when you see 2-back (i.e. the same letter as the one that appeared 2 letters ago.),P,None,,,,,,,,,0,10,10,10,0,2,2,2,,,,,,,,,,,,,,,,,,,,,,,,,,,,,,,,,,,,,,,,,,,,,,,,,,,,,,,,,,,,,,,,,,,,,1.1402,851.1206246,None,None,1,851.1206246,None,,P018,fencog,2,Pre,2021_Oct_29_1208,N-Back (New Version 2021),2021.1.4,120.0772818
,,,,Conditions/Version_1/twoback(3)_v1.xlsx,New rule: Press 'space' when you see 2-back (i.e. the same letter as the one that appeared 2 letters ago.),z,None,,,,,,,,,0,10,10,10,0,3,3,3,,,,,,,,,,,,,,,,,,,,,,,,,,,,,,,,,,,,,,,,,,,,,,,,,,,,,,,,,,,,,,,,,,,,,1.1092,854.2473757,None,None,1,854.2473757,None,,P018,fencog,2,Pre,2021_Oct_29_1208,N-Back (New Version 2021),2021.1.4,120.0772818
,,,,Conditions/Version_1/twoback(3)_v1.xlsx,New rule: Press 'space' when you see 2-back (i.e. the same letter as the one that appeared 2 letters ago.),X,None,,,,,,,,,0,10,10,10,0,4,4,4,,,,,,,,,,,,,,,,,,,,,,,,,,,,,,,,,,,,,,,,,,,,,,,,,,,,,,,,,,,,,,,,,,,,,1.1712,857.4283676,None,None,1,857.4283676,None,,P018,fencog,2,Pre,2021_Oct_29_1208,N-Back (New Version 2021),2021.1.4,120.0772818
,,,,Conditions/Version_1/twoback(3)_v1.xlsx,New rule: Press 'space' when you see 2-back (i.e. the same letter as the one that appeared 2 letters ago.),z,space,,,,,,,,,0,10,10,10,0,5,5,5,,,,,,,,,,,,,,,,,,,,,,,,,,,,,,,,,,,,,,,,,,,,,,,,,,,,,,,,,,,,,,,,,,,,,1.7602,861.1888023,None,space,1,861.1888023,None,0.7229589,P018,fencog,2,Pre,2021_Oct_29_1208,N-Back (New Version 2021),2021.1.4,120.0772818
,,,,Conditions/Version_1/twoback(3)_v1.xlsx,New rule: Press 'space' when you see 2-back (i.e. the same letter as the one that appeared 2 letters ago.),x,space,,,,,,,,,0,10,10,10,0,6,6,6,,,,,,,,,,,,,,,,,,,,,,,,,,,,,,,,,,,,,,,,,,,,,,,,,,,,,,,,,,,,,,,,,,,,,1.4998,864.7061014,None,space,1,864.7061014,None,0.5112491,P018,fencog,2,Pre,2021_Oct_29_1208,N-Back (New Version 2021),2021.1.4,120.0772818
,,,,Conditions/Version_1/twoback(3)_v1.xlsx,New rule: Press 'space' when you see 2-back (i.e. the same letter as the one that appeared 2 letters ago.),c,None,,,,,,,,,0,10,10,10,0,7,7,7,,,,,,,,,,,,,,,,,,,,,,,,,,,,,,,,,,,,,,,,,,,,,,,,,,,,,,,,,,,,,,,,,,,,,1.6362,868.3558673,None,None,1,868.3558673,None,,P018,fencog,2,Pre,2021_Oct_29_1208,N-Back (New Version 2021),2021.1.4,120.0772818
,,,,Conditions/Version_1/twoback(3)_v1.xlsx,New rule: Press 'space' when you see 2-back (i.e. the same letter as the one that appeared 2 letters ago.),i,None,,,,,,,,,0,10,10,10,0,8,8,8,,,,,,,,,,,,,,,,,,,,,,,,,,,,,,,,,,,,,,,,,,,,,,,,,,,,,,,,,,,,,,,,,,,,,1.8904,872.2548836,None,None,1,872.2548836,None,,P018,fencog,2,Pre,2021_Oct_29_1208,N-Back (New Version 2021),2021.1.4,120.0772818
,,,,Conditions/Version_1/twoback(3)_v1.xlsx,New rule: Press 'space' when you see 2-back (i.e. the same letter as the one that appeared 2 letters ago.),C,space,,,,,,,,,0,10,10,10,0,9,9,9,,,,,,,,,,,,,,,,,,,,,,,,,,,,,,,,,,,,,,,,,,,,,,,,,,,,,,,,,,,,,,,,,,,,,1.4068,875.6711563,None,space,1,875.6711563,None,0.485107,P018,fencog,2,Pre,2021_Oct_29_1208,N-Back (New Version 2021),2021.1.4,120.0772818
,,,,Conditions/Version_1/twoback(3)_v1.xlsx,New rule: Press 'space' when you see 2-back (i.e. the same letter as the one that appeared 2 letters ago.),,,,,,,,,,,0,10,10,10,,,,,,,,,,,,,,,,,,,,,,,,,,,,,,,,,,,,,,,,,,,,,,,,,,,,,,,,,,,,,,,,,,,,,,,,,,,,,,,,,P018,fencog,2,Pre,2021_Oct_29_1208,N-Back (New Version 2021),2021.1.4,120.0772818
,,,,Conditions/Version_1/oneback(3)_v1.xlsx,New rule: Press 'space' when you see 1-back (i.e. the same letter as the one that appeared 1 letter ago.),o,None,,,,,,,,,0,11,11,11,0,0,0,0,,,,,,,,,,,,,,,,,,,,,,,,,,,,,,,,,,,,,,,,,,,,,,,,,,,,,,,,,,,877.7139987,None,880.6941664,None,space,0.4685368,880.6941664,None,877.7139987,None,1.7106,882.9024877,None,None,1,882.9024877,None,,P018,fencog,2,Pre,2021_Oct_29_1208,N-Back (New Version 2021),2021.1.4,120.0772818
,,,,Conditions/Version_1/oneback(3)_v1.xlsx,New rule: Press 'space' when you see 1-back (i.e. the same letter as the one that appeared 1 letter ago.),O,space,,,,,,,,,0,11,11,11,0,1,1,1,,,,,,,,,,,,,,,,,,,,,,,,,,,,,,,,,,,,,,,,,,,,,,,,,,,,,,,,,,,,,,,,,,,,,1.4688,886.3839599,None,space,1,886.3839599,None,0.3428591,P018,fencog,2,Pre,2021_Oct_29_1208,N-Back (New Version 2021),2021.1.4,120.0772818
,,,,Conditions/Version_1/oneback(3)_v1.xlsx,New rule: Press 'space' when you see 1-back (i.e. the same letter as the one that appeared 1 letter ago.),h,None,,,,,,,,,0,11,11,11,0,2,2,2,,,,,,,,,,,,,,,,,,,,,,,,,,,,,,,,,,,,,,,,,,,,,,,,,,,,,,,,,,,,,,,,,,,,,1.6052,890.0077883,None,None,1,890.0077883,None,,P018,fencog,2,Pre,2021_Oct_29_1208,N-Back (New Version 2021),2021.1.4,120.0772818
,,,,Conditions/Version_1/oneback(3)_v1.xlsx,New rule: Press 'space' when you see 1-back (i.e. the same letter as the one that appeared 1 letter ago.),g,None,,,,,,,,,0,11,11,11,0,3,3,3,,,,,,,,,,,,,,,,,,,,,,,,,,,,,,,,,,,,,,,,,,,,,,,,,,,,,,,,,,,,,,,,,,,,,1.1526,893.1739877,None,None,1,893.1739877,None,,P018,fencog,2,Pre,2021_Oct_29_1208,N-Back (New Version 2021),2021.1.4,120.0772818
,,,,Conditions/Version_1/oneback(3)_v1.xlsx,New rule: Press 'space' when you see 1-back (i.e. the same letter as the one that appeared 1 letter ago.),n,None,,,,,,,,,0,11,11,11,0,4,4,4,,,,,,,,,,,,,,,,,,,,,,,,,,,,,,,,,,,,,,,,,,,,,,,,,,,,,,,,,,,,,,,,,,,,,1.289,896.4725739,None,None,1,896.4725739,None,,P018,fencog,2,Pre,2021_Oct_29_1208,N-Back (New Version 2021),2021.1.4,120.0772818
,,,,Conditions/Version_1/oneback(3)_v1.xlsx,New rule: Press 'space' when you see 1-back (i.e. the same letter as the one that appeared 1 letter ago.),z,None,,,,,,,,,0,11,11,11,0,5,5,5,,,,,,,,,,,,,,,,,,,,,,,,,,,,,,,,,,,,,,,,,,,,,,,,,,,,,,,,,,,,,,,,,,,,,1.7602,900.2369184,None,None,1,900.2369184,None,,P018,fencog,2,Pre,2021_Oct_29_1208,N-Back (New Version 2021),2021.1.4,120.0772818
,,,,Conditions/Version_1/oneback(3)_v1.xlsx,New rule: Press 'space' when you see 1-back (i.e. the same letter as the one that appeared 1 letter ago.),X,None,,,,,,,,,0,11,11,11,0,6,6,6,,,,,,,,,,,,,,,,,,,,,,,,,,,,,,,,,,,,,,,,,,,,,,,,,,,,,,,,,,,,,,,,,,,,,1.8346,904.0863249,None,None,1,904.0863249,None,,P018,fencog,2,Pre,2021_Oct_29_1208,N-Back (New Version 2021),2021.1.4,120.0772818
,,,,Conditions/Version_1/oneback(3)_v1.xlsx,New rule: Press 'space' when you see 1-back (i.e. the same letter as the one that appeared 1 letter ago.),r,None,,,,,,,,,0,11,11,11,0,7,7,7,,,,,,,,,,,,,,,,,,,,,,,,,,,,,,,,,,,,,,,,,,,,,,,,,,,,,,,,,,,,,,,,,,,,,1.7664,907.8623,None,None,1,907.8623,None,,P018,fencog,2,Pre,2021_Oct_29_1208,N-Back (New Version 2021),2021.1.4,120.0772818
,,,,Conditions/Version_1/oneback(3)_v1.xlsx,New rule: Press 'space' when you see 1-back (i.e. the same letter as the one that appeared 1 letter ago.),r,space,,,,,,,,,0,11,11,11,0,8,8,8,,,,,,,,,,,,,,,,,,,,,,,,,,,,,,,,,,,,,,,,,,,,,,,,,,,,,,,,,,,,,,,,,,,,,1.9958,911.8655969,None,space,1,911.8655969,None,0.3805947,P018,fencog,2,Pre,2021_Oct_29_1208,N-Back (New Version 2021),2021.1.4,120.0772818
,,,,Conditions/Version_1/oneback(3)_v1.xlsx,New rule: Press 'space' when you see 1-back (i.e. the same letter as the one that appeared 1 letter ago.),P,None,,,,,,,,,0,11,11,11,0,9,9,9,,,,,,,,,,,,,,,,,,,,,,,,,,,,,,,,,,,,,,,,,,,,,,,,,,,,,,,,,,,,,,,,,,,,,1.1712,915.1015691,None,None,1,915.1015691,None,,P018,fencog,2,Pre,2021_Oct_29_1208,N-Back (New Version 2021),2021.1.4,120.0772818
,,,,Conditions/Version_1/oneback(3)_v1.xlsx,New rule: Press 'space' when you see 1-back (i.e. the same letter as the one that appeared 1 letter ago.),,,,,,,,,,,0,11,11,11,,,,,,,,,,,,,,,,,,,,,,,,,,,,,,,,,,,,,,,,,,,,,,,,,,,,,,,,,,,,,,,,,,,,,,,,,,,,,,,,,P018,fencog,2,Pre,2021_Oct_29_1208,N-Back (New Version 2021),2021.1.4,120.0772818
,,,,Conditions/Version_1/twoback(4)_v1.xlsx,New rule: Press 'space' when you see 2-back (i.e. the same letter as the one that appeared 2 letters ago.),r,None,,,,,,,,,0,12,12,12,0,0,0,0,,,,,,,,,,,,,,,,,,,,,,,,,,,,,,,,,,,,,,,,,,,,,,,,,,,,,,,,,,,917.0965115,None,920.0741784,None,space,2.34973,920.0741784,None,917.0965115,None,1.0782,923.5315532,None,None,1,923.5315532,None,,P018,fencog,2,Pre,2021_Oct_29_1208,N-Back (New Version 2021),2021.1.4,120.0772818
,,,,Conditions/Version_1/twoback(4)_v1.xlsx,New rule: Press 'space' when you see 2-back (i.e. the same letter as the one that appeared 2 letters ago.),T,None,,,,,,,,,0,12,12,12,0,1,1,1,,,,,,,,,,,,,,,,,,,,,,,,,,,,,,,,,,,,,,,,,,,,,,,,,,,,,,,,,,,,,,,,,,,,,1.8594,927.4047172,None,None,1,927.4047172,None,,P018,fencog,2,Pre,2021_Oct_29_1208,N-Back (New Version 2021),2021.1.4,120.0772818
,,,,Conditions/Version_1/twoback(4)_v1.xlsx,New rule: Press 'space' when you see 2-back (i.e. the same letter as the one that appeared 2 letters ago.),o,None,,,,,,,,,0,12,12,12,0,2,2,2,,,,,,,,,,,,,,,,,,,,,,,,,,,,,,,,,,,,,,,,,,,,,,,,,,,,,,,,,,,,,,,,,,,,,1.0224,930.4391031,None,None,1,930.4391031,None,,P018,fencog,2,Pre,2021_Oct_29_1208,N-Back (New Version 2021),2021.1.4,120.0772818
,,,,Conditions/Version_1/twoback(4)_v1.xlsx,New rule: Press 'space' when you see 2-back (i.e. the same letter as the one that appeared 2 letters ago.),p,None,,,,,,,,,0,12,12,12,0,3,3,3,,,,,,,,,,,,,,,,,,,,,,,,,,,,,,,,,,,,,,,,,,,,,,,,,,,,,,,,,,,,,,,,,,,,,1.3262,933.7775836,None,None,1,933.7775836,None,,P018,fencog,2,Pre,2021_Oct_29_1208,N-Back (New Version 2021),2021.1.4,120.0772818
,,,,Conditions/Version_1/twoback(4)_v1.xlsx,New rule: Press 'space' when you see 2-back (i.e. the same letter as the one that appeared 2 letters ago.),p,None,,,,,,,,,0,12,12,12,0,4,4,4,,,,,,,,,,,,,,,,,,,,,,,,,,,,,,,,,,,,,,,,,,,,,,,,,,,,,,,,,,,,,,,,,,,,,1.1402,936.9241084,None,None,1,936.9241084,None,,P018,fencog,2,Pre,2021_Oct_29_1208,N-Back (New Version 2021),2021.1.4,120.0772818
,,,,Conditions/Version_1/twoback(4)_v1.xlsx,New rule: Press 'space' when you see 2-back (i.e. the same letter as the one that appeared 2 letters ago.),y,None,,,,,,,,,0,12,12,12,0,5,5,5,,,,,,,,,,,,,,,,,,,,,,,,,,,,,,,,,,,,,,,,,,,,,,,,,,,,,,,,,,,,,,,,,,,,,1.5742,940.5110113,None,None,1,940.5110113,None,,P018,fencog,2,Pre,2021_Oct_29_1208,N-Back (New Version 2021),2021.1.4,120.0772818
,,,,Conditions/Version_1/twoback(4)_v1.xlsx,New rule: Press 'space' when you see 2-back (i.e. the same letter as the one that appeared 2 letters ago.),P,space,,,,,,,,,0,12,12,12,0,6,6,6,,,,,,,,,,,,,,,,,,,,,,,,,,,,,,,,,,,,,,,,,,,,,,,,,,,,,,,,,,,,,,,,,,,,,1.8718,944.3921714,None,space,1,944.3921714,None,0.5502653,P018,fencog,2,Pre,2021_Oct_29_1208,N-Back (New Version 2021),2021.1.4,120.0772818
,,,,Conditions/Version_1/twoback(4)_v1.xlsx,New rule: Press 'space' when you see 2-back (i.e. the same letter as the one that appeared 2 letters ago.),y,None,,,,,,,,,0,12,12,12,0,7,7,7,,,,,,,,,,,,,,,,,,,,,,,,,,,,,,,,,,,,,,,,,,,,,,,,,,,,,,,,,,,,,,,,,,,,,1.2208,947.6160005,None,space,0,947.6160005,None,0.4568297,P018,fencog,2,Pre,2021_Oct_29_1208,N-Back (New Version 2021),2021.1.4,120.0772818
,,,,Conditions/Version_1/twoback(4)_v1.xlsx,New rule: Press 'space' when you see 2-back (i.e. the same letter as the one that appeared 2 letters ago.),y,space,,,,,,,,,0,12,12,12,0,8,8,8,,,,,,,,,,,,,,,,,,,,,,,,,,,,,,,,,,,,,,,,,,,,,,,,,,,,,,,,,,,,,,,,,,,,,1.3076,950.9290162,None,None,0,950.9290162,None,,P018,fencog,2,Pre,2021_Oct_29_1208,N-Back (New Version 2021),2021.1.4,120.0772818
,,,,Conditions/Version_1/twoback(4)_v1.xlsx,New rule: Press 'space' when you see 2-back (i.e. the same letter as the one that appeared 2 letters ago.),,,,,,,,,,,0,12,12,12,,,,,,,,,,,,,,,,,,,,,,,,,,,,,,,,,,,,,,,,,,,,,,,,,,,,,,,,,,,,,,,,,,,,,,,,,,,,,,,,,P018,fencog,2,Pre,2021_Oct_29_1208,N-Back (New Version 2021),2021.1.4,120.0772818
,,,,Conditions/Version_1/zeroback(4)_v1.xlsx,New rule: Press 'space' when you see the letter 'x' or 'X'.,o,None,,,,,,,,,0,13,13,13,0,0,0,0,,,,,,,,,,,,,,,,,,,,,,,,,,,,,,,,,,,,,,,,,,,,,,,,,,,,,,,,,,,952.9580046,None,955.9475359,None,space,0.6258352,955.9475359,None,952.9580046,None,1.8036,958.4112018,None,None,1,958.4112018,None,,P018,fencog,2,Pre,2021_Oct_29_1208,N-Back (New Version 2021),2021.1.4,120.0772818
,,,,Conditions/Version_1/zeroback(4)_v1.xlsx,New rule: Press 'space' when you see the letter 'x' or 'X'.,X,space,,,,,,,,,0,13,13,13,0,1,1,1,,,,,,,,,,,,,,,,,,,,,,,,,,,,,,,,,,,,,,,,,,,,,,,,,,,,,,,,,,,,,,,,,,,,,1.134,961.553046,None,space,1,961.553046,None,0.3831304,P018,fencog,2,Pre,2021_Oct_29_1208,N-Back (New Version 2021),2021.1.4,120.0772818
,,,,Conditions/Version_1/zeroback(4)_v1.xlsx,New rule: Press 'space' when you see the letter 'x' or 'X'.,p,None,,,,,,,,,0,13,13,13,0,2,2,2,,,,,,,,,,,,,,,,,,,,,,,,,,,,,,,,,,,,,,,,,,,,,,,,,,,,,,,,,,,,,,,,,,,,,1.1092,964.6756434,None,None,1,964.6756434,None,,P018,fencog,2,Pre,2021_Oct_29_1208,N-Back (New Version 2021),2021.1.4,120.0772818
,,,,Conditions/Version_1/zeroback(4)_v1.xlsx,New rule: Press 'space' when you see the letter 'x' or 'X'.,m,None,,,,,,,,,0,13,13,13,0,3,3,3,,,,,,,,,,,,,,,,,,,,,,,,,,,,,,,,,,,,,,,,,,,,,,,,,,,,,,,,,,,,,,,,,,,,,1.2766,967.959524,None,None,1,967.959524,None,,P018,fencog,2,Pre,2021_Oct_29_1208,N-Back (New Version 2021),2021.1.4,120.0772818
,,,,Conditions/Version_1/zeroback(4)_v1.xlsx,New rule: Press 'space' when you see the letter 'x' or 'X'.,n,None,,,,,,,,,0,13,13,13,0,4,4,4,,,,,,,,,,,,,,,,,,,,,,,,,,,,,,,,,,,,,,,,,,,,,,,,,,,,,,,,,,,,,,,,,,,,,1.6114,971.5799832,None,None,1,971.5799832,None,,P018,fencog,2,Pre,2021_Oct_29_1208,N-Back (New Version 2021),2021.1.4,120.0772818
,,,,Conditions/Version_1/zeroback(4)_v1.xlsx,New rule: Press 'space' when you see the letter 'x' or 'X'.,m,None,,,,,,,,,0,13,13,13,0,5,5,5,,,,,,,,,,,,,,,,,,,,,,,,,,,,,,,,,,,,,,,,,,,,,,,,,,,,,,,,,,,,,,,,,,,,,1.2208,974.8055869,None,None,1,974.8055869,None,,P018,fencog,2,Pre,2021_Oct_29_1208,N-Back (New Version 2021),2021.1.4,120.0772818
,,,,Conditions/Version_1/zeroback(4)_v1.xlsx,New rule: Press 'space' when you see the letter 'x' or 'X'.,C,None,,,,,,,,,0,13,13,13,0,6,6,6,,,,,,,,,,,,,,,,,,,,,,,,,,,,,,,,,,,,,,,,,,,,,,,,,,,,,,,,,,,,,,,,,,,,,1.1774,977.9988628,None,None,1,977.9988628,None,,P018,fencog,2,Pre,2021_Oct_29_1208,N-Back (New Version 2021),2021.1.4,120.0772818
,,,,Conditions/Version_1/zeroback(4)_v1.xlsx,New rule: Press 'space' when you see the letter 'x' or 'X'.,m,None,,,,,,,,,0,13,13,13,0,7,7,7,,,,,,,,,,,,,,,,,,,,,,,,,,,,,,,,,,,,,,,,,,,,,,,,,,,,,,,,,,,,,,,,,,,,,1.6734,981.680659,None,None,1,981.680659,None,,P018,fencog,2,Pre,2021_Oct_29_1208,N-Back (New Version 2021),2021.1.4,120.0772818
,,,,Conditions/Version_1/zeroback(4)_v1.xlsx,New rule: Press 'space' when you see the letter 'x' or 'X'.,p,None,,,,,,,,,0,13,13,13,0,8,8,8,,,,,,,,,,,,,,,,,,,,,,,,,,,,,,,,,,,,,,,,,,,,,,,,,,,,,,,,,,,,,,,,,,,,,1.5432,985.2330083,None,None,1,985.2330083,None,,P018,fencog,2,Pre,2021_Oct_29_1208,N-Back (New Version 2021),2021.1.4,120.0772818
,,,,Conditions/Version_1/zeroback(4)_v1.xlsx,New rule: Press 'space' when you see the letter 'x' or 'X'.,X,space,,,,,,,,,0,13,13,13,0,9,9,9,,,,,,,,,,,,,,,,,,,,,,,,,,,,,,,,,,,,,,,,,,,,,,,,,,,,,,,,,,,,,,,,,,,,,1.289,988.5321409,None,space,1,988.5321409,None,0.4201245,P018,fencog,2,Pre,2021_Oct_29_1208,N-Back (New Version 2021),2021.1.4,120.0772818
,,,,Conditions/Version_1/zeroback(4)_v1.xlsx,New rule: Press 'space' when you see the letter 'x' or 'X'.,,,,,,,,,,,0,13,13,13,,,,,,,,,,,,,,,,,,,,,,,,,,,,,,,,,,,,,,,,,,,,,,,,,,,,,,,,,,,,,,,,,,,,,,,,,,,,,,,,,P018,fencog,2,Pre,2021_Oct_29_1208,N-Back (New Version 2021),2021.1.4,120.0772818
,,,,Conditions/Version_1/oneback(4)_v1.xlsx,New rule: Press 'space' when you see 1-back (i.e. the same letter as the one that appeared 1 letter ago.),w,None,,,,,,,,,0,14,14,14,0,0,0,0,,,,,,,,,,,,,,,,,,,,,,,,,,,,,,,,,,,,,,,,,,,,,,,,,,,,,,,,,,,990.5715504,None,993.5617897,None,space,0.0947217,993.5617897,None,990.5715504,None,1.0844,994.7790686,None,None,1,994.7790686,None,,P018,fencog,2,Pre,2021_Oct_29_1208,N-Back (New Version 2021),2021.1.4,120.0772818
,,,,Conditions/Version_1/oneback(4)_v1.xlsx,New rule: Press 'space' when you see 1-back (i.e. the same letter as the one that appeared 1 letter ago.),q,None,,,,,,,,,0,14,14,14,0,1,1,1,,,,,,,,,,,,,,,,,,,,,,,,,,,,,,,,,,,,,,,,,,,,,,,,,,,,,,,,,,,,,,,,,,,,,1.7044,998.4925023,None,None,1,998.4925023,None,,P018,fencog,2,Pre,2021_Oct_29_1208,N-Back (New Version 2021),2021.1.4,120.0772818
,,,,Conditions/Version_1/oneback(4)_v1.xlsx,New rule: Press 'space' when you see 1-back (i.e. the same letter as the one that appeared 1 letter ago.),i,None,,,,,,,,,0,14,14,14,0,2,2,2,,,,,,,,,,,,,,,,,,,,,,,,,,,,,,,,,,,,,,,,,,,,,,,,,,,,,,,,,,,,,,,,,,,,,1.2456,1001.749738,None,None,1,1001.749738,None,,P018,fencog,2,Pre,2021_Oct_29_1208,N-Back (New Version 2021),2021.1.4,120.0772818
,,,,Conditions/Version_1/oneback(4)_v1.xlsx,New rule: Press 'space' when you see 1-back (i.e. the same letter as the one that appeared 1 letter ago.),t,None,,,,,,,,,0,14,14,14,0,3,3,3,,,,,,,,,,,,,,,,,,,,,,,,,,,,,,,,,,,,,,,,,,,,,,,,,,,,,,,,,,,,,,,,,,,,,1.9834,1005.742341,None,None,1,1005.742341,None,,P018,fencog,2,Pre,2021_Oct_29_1208,N-Back (New Version 2021),2021.1.4,120.0772818
,,,,Conditions/Version_1/oneback(4)_v1.xlsx,New rule: Press 'space' when you see 1-back (i.e. the same letter as the one that appeared 1 letter ago.),v,None,,,,,,,,,0,14,14,14,0,4,4,4,,,,,,,,,,,,,,,,,,,,,,,,,,,,,,,,,,,,,,,,,,,,,,,,,,,,,,,,,,,,,,,,,,,,,1.1712,1008.938082,None,None,1,1008.938082,None,,P018,fencog,2,Pre,2021_Oct_29_1208,N-Back (New Version 2021),2021.1.4,120.0772818
,,,,Conditions/Version_1/oneback(4)_v1.xlsx,New rule: Press 'space' when you see 1-back (i.e. the same letter as the one that appeared 1 letter ago.),V,space,,,,,,,,,0,14,14,14,0,5,5,5,,,,,,,,,,,,,,,,,,,,,,,,,,,,,,,,,,,,,,,,,,,,,,,,,,,,,,,,,,,,,,,,,,,,,1.8284,1012.773186,None,space,1,1012.773186,None,0.3967422,P018,fencog,2,Pre,2021_Oct_29_1208,N-Back (New Version 2021),2021.1.4,120.0772818
,,,,Conditions/Version_1/oneback(4)_v1.xlsx,New rule: Press 'space' when you see 1-back (i.e. the same letter as the one that appeared 1 letter ago.),v,space,,,,,,,,,0,14,14,14,0,6,6,6,,,,,,,,,,,,,,,,,,,,,,,,,,,,,,,,,,,,,,,,,,,,,,,,,,,,,,,,,,,,,,,,,,,,,1.3758,1016.1644,None,space,1,1016.1644,None,0.5353803,P018,fencog,2,Pre,2021_Oct_29_1208,N-Back (New Version 2021),2021.1.4,120.0772818
,,,,Conditions/Version_1/oneback(4)_v1.xlsx,New rule: Press 'space' when you see 1-back (i.e. the same letter as the one that appeared 1 letter ago.),p,None,,,,,,,,,0,14,14,14,0,7,7,7,,,,,,,,,,,,,,,,,,,,,,,,,,,,,,,,,,,,,,,,,,,,,,,,,,,,,,,,,,,,,,,,,,,,,1.0658,1019.237266,None,None,1,1019.237266,None,,P018,fencog,2,Pre,2021_Oct_29_1208,N-Back (New Version 2021),2021.1.4,120.0772818
,,,,Conditions/Version_1/oneback(4)_v1.xlsx,New rule: Press 'space' when you see 1-back (i.e. the same letter as the one that appeared 1 letter ago.),w,None,,,,,,,,,0,14,14,14,0,8,8,8,,,,,,,,,,,,,,,,,,,,,,,,,,,,,,,,,,,,,,,,,,,,,,,,,,,,,,,,,,,,,,,,,,,,,1.1464,1022.395133,None,None,1,1022.395133,None,,P018,fencog,2,Pre,2021_Oct_29_1208,N-Back (New Version 2021),2021.1.4,120.0772818
,,,,Conditions/Version_1/oneback(4)_v1.xlsx,New rule: Press 'space' when you see 1-back (i.e. the same letter as the one that appeared 1 letter ago.),W,space,,,,,,,,,0,14,14,14,0,9,9,9,,,,,,,,,,,,,,,,,,,,,,,,,,,,,,,,,,,,,,,,,,,,,,,,,,,,,,,,,,,,,,,,,,,,,1.2518,1025.660721,None,space,1,1025.660721,None,0.4598518,P018,fencog,2,Pre,2021_Oct_29_1208,N-Back (New Version 2021),2021.1.4,120.0772818
,,,,Conditions/Version_1/oneback(4)_v1.xlsx,New rule: Press 'space' when you see 1-back (i.e. the same letter as the one that appeared 1 letter ago.),,,,,,,,,,,0,14,14,14,,,,,,,,,,,,,,,,,,,,,,,,,,,,,,,,,,,,,,,,,,,,,,,,,,,,,,,,,,,,,,,,,,,,,,,,,,,,,,,,,P018,fencog,2,Pre,2021_Oct_29_1208,N-Back (New Version 2021),2021.1.4,120.0772818
,,,,Conditions/Version_1/threeback(4)_v1.xlsx,New rule: Press 'space' when you see 3-back (i.e. the same letter as the one that appeared 3 letters ago.),A,None,,,,,,,,,0,15,15,15,0,0,0,0,,,,,,,,,,,,,,,,,,,,,,,,,,,,,,,,,,,,,,,,,,,,,,,,,,,,,,,,,,,1027.70041,None,1030.684253,None,space,0.7580711,1030.684253,None,1027.70041,None,1.1898,1032.677714,None,None,1,1032.677714,None,,P018,fencog,2,Pre,2021_Oct_29_1208,N-Back (New Version 2021),2021.1.4,120.0772818
,,,,Conditions/Version_1/threeback(4)_v1.xlsx,New rule: Press 'space' when you see 3-back (i.e. the same letter as the one that appeared 3 letters ago.),n,None,,,,,,,,,0,15,15,15,0,1,1,1,,,,,,,,,,,,,,,,,,,,,,,,,,,,,,,,,,,,,,,,,,,,,,,,,,,,,,,,,,,,,,,,,,,,,1.6362,1036.324465,None,None,1,1036.324465,None,,P018,fencog,2,Pre,2021_Oct_29_1208,N-Back (New Version 2021),2021.1.4,120.0772818
,,,,Conditions/Version_1/threeback(4)_v1.xlsx,New rule: Press 'space' when you see 3-back (i.e. the same letter as the one that appeared 3 letters ago.),g,None,,,,,,,,,0,15,15,15,0,2,2,2,,,,,,,,,,,,,,,,,,,,,,,,,,,,,,,,,,,,,,,,,,,,,,,,,,,,,,,,,,,,,,,,,,,,,1.7912,1040.123362,None,None,1,1040.123362,None,,P018,fencog,2,Pre,2021_Oct_29_1208,N-Back (New Version 2021),2021.1.4,120.0772818
,,,,Conditions/Version_1/threeback(4)_v1.xlsx,New rule: Press 'space' when you see 3-back (i.e. the same letter as the one that appeared 3 letters ago.),A,space,,,,,,,,,0,15,15,15,0,3,3,3,,,,,,,,,,,,,,,,,,,,,,,,,,,,,,,,,,,,,,,,,,,,,,,,,,,,,,,,,,,,,,,,,,,,,1.9462,1044.077025,None,None,0,1044.077025,None,,P018,fencog,2,Pre,2021_Oct_29_1208,N-Back (New Version 2021),2021.1.4,120.0772818
,,,,Conditions/Version_1/threeback(4)_v1.xlsx,New rule: Press 'space' when you see 3-back (i.e. the same letter as the one that appeared 3 letters ago.),p,None,,,,,,,,,0,15,15,15,0,4,4,4,,,,,,,,,,,,,,,,,,,,,,,,,,,,,,,,,,,,,,,,,,,,,,,,,,,,,,,,,,,,,,,,,,,,,1.3944,1047.477762,None,None,1,1047.477762,None,,P018,fencog,2,Pre,2021_Oct_29_1208,N-Back (New Version 2021),2021.1.4,120.0772818
,,,,Conditions/Version_1/threeback(4)_v1.xlsx,New rule: Press 'space' when you see 3-back (i.e. the same letter as the one that appeared 3 letters ago.),O,None,,,,,,,,,0,15,15,15,0,5,5,5,,,,,,,,,,,,,,,,,,,,,,,,,,,,,,,,,,,,,,,,,,,,,,,,,,,,,,,,,,,,,,,,,,,,,1.5246,1051.020131,None,None,1,1051.020131,None,,P018,fencog,2,Pre,2021_Oct_29_1208,N-Back (New Version 2021),2021.1.4,120.0772818
,,,,Conditions/Version_1/threeback(4)_v1.xlsx,New rule: Press 'space' when you see 3-back (i.e. the same letter as the one that appeared 3 letters ago.),a,space,,,,,,,,,0,15,15,15,0,6,6,6,,,,,,,,,,,,,,,,,,,,,,,,,,,,,,,,,,,,,,,,,,,,,,,,,,,,,,,,,,,,,,,,,,,,,1.754,1054.783907,None,space,1,1054.783907,None,0.4586991,P018,fencog,2,Pre,2021_Oct_29_1208,N-Back (New Version 2021),2021.1.4,120.0772818
,,,,Conditions/Version_1/threeback(4)_v1.xlsx,New rule: Press 'space' when you see 3-back (i.e. the same letter as the one that appeared 3 letters ago.),p,space,,,,,,,,,0,15,15,15,0,7,7,7,,,,,,,,,,,,,,,,,,,,,,,,,,,,,,,,,,,,,,,,,,,,,,,,,,,,,,,,,,,,,,,,,,,,,1.2518,1058.051438,None,space,1,1058.051438,None,0.3829732,P018,fencog,2,Pre,2021_Oct_29_1208,N-Back (New Version 2021),2021.1.4,120.0772818
,,,,Conditions/Version_1/threeback(4)_v1.xlsx,New rule: Press 'space' when you see 3-back (i.e. the same letter as the one that appeared 3 letters ago.),x,None,,,,,,,,,0,15,15,15,0,8,8,8,,,,,,,,,,,,,,,,,,,,,,,,,,,,,,,,,,,,,,,,,,,,,,,,,,,,,,,,,,,,,,,,,,,,,1.3758,1061.432152,None,None,1,1061.432152,None,,P018,fencog,2,Pre,2021_Oct_29_1208,N-Back (New Version 2021),2021.1.4,120.0772818
,,,,Conditions/Version_1/threeback(4)_v1.xlsx,New rule: Press 'space' when you see 3-back (i.e. the same letter as the one that appeared 3 letters ago.),X,None,,,,,,,,,0,15,15,15,0,9,9,9,,,,,,,,,,,,,,,,,,,,,,,,,,,,,,,,,,,,,,,,,,,,,,,,,,,,,,,,,,,,,,,,,,,,,1.878,1065.322136,None,None,1,1065.322136,None,,P018,fencog,2,Pre,2021_Oct_29_1208,N-Back (New Version 2021),2021.1.4,120.0772818
,,,,Conditions/Version_1/threeback(4)_v1.xlsx,New rule: Press 'space' when you see 3-back (i.e. the same letter as the one that appeared 3 letters ago.),,,,,,,,,,,0,15,15,15,,,,,,,,,,,,,,,,,,,,,,,,,,,,,,,,,,,,,,,,,,,,,,,,,,,,,,,,,,,,,,,,,,,,,,,,,,,,,,,,,P018,fencog,2,Pre,2021_Oct_29_1208,N-Back (New Version 2021),2021.1.4,120.0772818
