CondFileP,InstructionsP,LettersDisplayedP,CorrectnessP,CondFile,Instructions,LettersDisplayed,Correctness,practicetrials.thisRepN,practicetrials.thisTrialN,practicetrials.thisN,practicetrials.thisIndex,InnerLoopPractice.thisRepN,InnerLoopPractice.thisTrialN,InnerLoopPractice.thisN,InnerLoopPractice.thisIndex,trials.thisRepN,trials.thisTrialN,trials.thisN,trials.thisIndex,InnerLoop.thisRepN,InnerLoop.thisTrialN,InnerLoop.thisN,InnerLoop.thisIndex,TaskVersionText.started,TaskVersionText.stopped,InstrKey1.keys,InstrKey1.rt,InstrKey1.started,InstrKey1.stopped,text.started,text.stopped,key_resp_4.keys,key_resp_4.rt,key_resp_4.started,key_resp_4.stopped,text_2.started,text_2.stopped,key_resp_3.keys,key_resp_3.rt,key_resp_3.started,key_resp_3.stopped,text_3.started,text_3.stopped,key_resp_2.keys,key_resp_2.rt,key_resp_2.started,key_resp_2.stopped,PractIn1.started,PractIn1.stopped,PractIn2.started,PractIn2.stopped,PractInstructionPass.keys,PractInstructionPass.rt,PractInstructionPass.started,PractInstructionPass.stopped,PractBlock1.started,PractBlock1.stopped,ISIjitterPractice,ISI_Pract_Fixation.started,ISI_Pract_Fixation.stopped,N_backP.started,N_backP.stopped,KeyPractice.keys,KeyPractice.corr,KeyPractice.started,KeyPractice.stopped,text_4.started,text_4.stopped,KeyPractice.rt,TransitionText.started,TransitionText.stopped,key_resp_6.keys,key_resp_6.rt,key_resp_6.started,key_resp_6.stopped,text_5.started,text_5.stopped,key_resp_5.keys,key_resp_5.rt,key_resp_5.started,key_resp_5.stopped,MainInt1.started,MainInt1.stopped,MainInt2.started,MainInt2.stopped,InstructionPass.keys,InstructionPass.rt,InstructionPass.started,InstructionPass.stopped,Blocks1.started,Blocks1.stopped,ISIjitter,N_backD.started,N_backD.stopped,key_resp.keys,key_resp.corr,key_resp.started,key_resp.stopped,key_resp.rt,participant,Study Name,Task Version (required to run),PRE/POST,date,expName,psychopyVersion,frameRate,
,,,,,,,,,,,,,,,,,,,,,,,,18.03297489999386,None,space,469.0507420000067,18.52502519999689,None,,,,,,,,,,,,,,,,,,,,,,,,,,,,,,,,,,,,,,,,,,,,,,,,,,,,,,,,,,,,,,,,,,,,,,,P020,fencog,1,Pre,2021_Nov_09_1129,N-Back (New Version 2021),2021.1.4,120.03577067351709,
,,,,,,,,,,,,,,,,,,,,,,,,,,,,,,487.61003260000143,None,space,9.19250020000618,488.09506609999517,None,,,,,,,,,,,,,,,,,,,,,,,,,,,,,,,,,,,,,,,,,,,,,,,,,,,,,,,,,,,,,,,,,P020,fencog,1,Pre,2021_Nov_09_1129,N-Back (New Version 2021),2021.1.4,120.03577067351709,
,,,,,,,,,,,,,,,,,,,,,,,,,,,,,,,,,,,,497.32736280000245,None,space,13.957996300014202,497.8175084999966,None,,,,,,,,,,,,,,,,,,,,,,,,,,,,,,,,,,,,,,,,,,,,,,,,,,,,,,,,,,,P020,fencog,1,Pre,2021_Nov_09_1129,N-Back (New Version 2021),2021.1.4,120.03577067351709,
,,,,,,,,,,,,,,,,,,,,,,,,,,,,,,,,,,,,,,,,,,511.8069605000055,None,space,11.375171599996975,512.296399400002,None,,,,,,,,,,,,,,,,,,,,,,,,,,,,,,,,,,,,,,,,,,,,,,,,,,,,,P020,fencog,1,Pre,2021_Nov_09_1129,N-Back (New Version 2021),2021.1.4,120.03577067351709,
Conditions/Version_1Pr/zeroback(1)_v1.xlsx,Rule: Press 'space' when you see the letter 'x' or 'X'.,Z,None,,,,,0,0,0,0,0,0,0,0,,,,,,,,,,,,,,,,,,,,,,,,,,,,,,,,,525.0765607000067,None,528.0595818000002,None,space,8.612005199989653,528.0595818000002,None,525.0765607000067,None,1.29,536.6999798000033,None,537.9984583000041,None,None,1,537.9984583000041,None,540.0118504999991,None,,,,,,,,,,,,,,,,,,,,,,,,,,,,,,,,P020,fencog,1,Pre,2021_Nov_09_1129,N-Back (New Version 2021),2021.1.4,120.03577067351709,
Conditions/Version_1Pr/zeroback(1)_v1.xlsx,Rule: Press 'space' when you see the letter 'x' or 'X'.,r,None,,,,,0,0,0,0,0,1,1,1,,,,,,,,,,,,,,,,,,,,,,,,,,,,,,,,,,,,,,,,,,,1.815,541.5037021000026,None,543.3216971999937,None,None,1,543.3216971999937,None,545.3274845999986,None,,,,,,,,,,,,,,,,,,,,,,,,,,,,,,,,P020,fencog,1,Pre,2021_Nov_09_1129,N-Back (New Version 2021),2021.1.4,120.03577067351709,
Conditions/Version_1Pr/zeroback(1)_v1.xlsx,Rule: Press 'space' when you see the letter 'x' or 'X'.,X,space,,,,,0,0,0,0,0,2,2,2,,,,,,,,,,,,,,,,,,,,,,,,,,,,,,,,,,,,,,,,,,,1.59,546.827109100006,None,548.4212866000016,None,space,1,548.4212866000016,None,548.7354232999933,None,0.29847670000162907,,,,,,,,,,,,,,,,,,,,,,,,,,,,,,,P020,fencog,1,Pre,2021_Nov_09_1129,N-Back (New Version 2021),2021.1.4,120.03577067351709,
Conditions/Version_1Pr/zeroback(1)_v1.xlsx,Rule: Press 'space' when you see the letter 'x' or 'X'.,p,None,,,,,0,0,0,0,0,3,3,3,,,,,,,,,,,,,,,,,,,,,,,,,,,,,,,,,,,,,,,,,,,1.115,550.242554299999,None,551.359747399998,None,None,1,551.359747399998,None,553.3668636999937,None,,,,,,,,,,,,,,,,,,,,,,,,,,,,,,,,P020,fencog,1,Pre,2021_Nov_09_1129,N-Back (New Version 2021),2021.1.4,120.03577067351709,
Conditions/Version_1Pr/zeroback(1)_v1.xlsx,Rule: Press 'space' when you see the letter 'x' or 'X'.,w,None,,,,,0,0,0,0,0,4,4,4,,,,,,,,,,,,,,,,,,,,,,,,,,,,,,,,,,,,,,,,,,,1.09,554.8663722000056,None,555.9590503999934,None,None,1,555.9590503999934,None,557.9654239999945,None,,,,,,,,,,,,,,,,,,,,,,,,,,,,,,,,P020,fencog,1,Pre,2021_Nov_09_1129,N-Back (New Version 2021),2021.1.4,120.03577067351709,
Conditions/Version_1Pr/zeroback(1)_v1.xlsx,Rule: Press 'space' when you see the letter 'x' or 'X'.,e,None,,,,,0,0,0,0,0,5,5,5,,,,,,,,,,,,,,,,,,,,,,,,,,,,,,,,,,,,,,,,,,,1.79,559.4649654999957,None,561.2581584,None,None,1,561.2581584,None,563.2639414000005,None,,,,,,,,,,,,,,,,,,,,,,,,,,,,,,,,P020,fencog,1,Pre,2021_Nov_09_1129,N-Back (New Version 2021),2021.1.4,120.03577067351709,
Conditions/Version_1Pr/zeroback(1)_v1.xlsx,Rule: Press 'space' when you see the letter 'x' or 'X'.,X,space,,,,,0,0,0,0,0,6,6,6,,,,,,,,,,,,,,,,,,,,,,,,,,,,,,,,,,,,,,,,,,,1.215,564.7635447999928,None,565.9796239999996,None,space,1,565.9796239999996,None,566.2555349000031,None,0.2678655999916373,,,,,,,,,,,,,,,,,,,,,,,,,,,,,,,P020,fencog,1,Pre,2021_Nov_09_1129,N-Back (New Version 2021),2021.1.4,120.03577067351709,
Conditions/Version_1Pr/zeroback(1)_v1.xlsx,Rule: Press 'space' when you see the letter 'x' or 'X'.,x,space,,,,,0,0,0,0,0,7,7,7,,,,,,,,,,,,,,,,,,,,,,,,,,,,,,,,,,,,,,,,,,,1.965,567.7625797999935,None,569.7286984999955,None,space,1,569.7286984999955,None,570.1318386000057,None,0.39083540000137873,,,,,,,,,,,,,,,,,,,,,,,,,,,,,,,P020,fencog,1,Pre,2021_Nov_09_1129,N-Back (New Version 2021),2021.1.4,120.03577067351709,
Conditions/Version_1Pr/zeroback(1)_v1.xlsx,Rule: Press 'space' when you see the letter 'x' or 'X'.,p,None,,,,,0,0,0,0,0,8,8,8,,,,,,,,,,,,,,,,,,,,,,,,,,,,,,,,,,,,,,,,,,,1.415,571.6364413999981,None,573.0530635000032,None,None,1,573.0530635000032,None,575.0602369999979,None,,,,,,,,,,,,,,,,,,,,,,,,,,,,,,,,P020,fencog,1,Pre,2021_Nov_09_1129,N-Back (New Version 2021),2021.1.4,120.03577067351709,
Conditions/Version_1Pr/zeroback(1)_v1.xlsx,Rule: Press 'space' when you see the letter 'x' or 'X'.,r,None,,,,,0,0,0,0,0,9,9,9,,,,,,,,,,,,,,,,,,,,,,,,,,,,,,,,,,,,,,,,,,,1.94,576.5599840000068,None,578.5011175999971,None,None,1,578.5011175999971,None,580.5004717999982,None,,,,,,,,,,,,,,,,,,,,,,,,,,,,,,,,P020,fencog,1,Pre,2021_Nov_09_1129,N-Back (New Version 2021),2021.1.4,120.03577067351709,
Conditions/Version_1Pr/zeroback(1)_v1.xlsx,Rule: Press 'space' when you see the letter 'x' or 'X'.,,,,,,,0,0,0,0,,,,,,,,,,,,,,,,,,,,,,,,,,,,,,,,,,,,,,,,,,,,,,,,,,,,,,,,,,,,,,,,,,,,,,,,,,,,,,,,,,,,,,,,,P020,fencog,1,Pre,2021_Nov_09_1129,N-Back (New Version 2021),2021.1.4,120.03577067351709,
Conditions/Version_1Pr/oneback(1)_v1.xlsx,New rule: Press 'space' when you see 1-back (i.e. the same letter as the one that appeared 1 letter ago.),a,None,,,,,0,1,1,1,0,0,0,0,,,,,,,,,,,,,,,,,,,,,,,,,,,,,,,,,582.0242795999948,None,585.0104713000037,None,space,8.085152800005744,585.0104713000037,None,582.0242795999948,None,1.615,593.1187692999956,None,594.7406063999952,None,None,1,594.7406063999952,None,596.745490500005,None,,,,,,,,,,,,,,,,,,,,,,,,,,,,,,,,P020,fencog,1,Pre,2021_Nov_09_1129,N-Back (New Version 2021),2021.1.4,120.03577067351709,
Conditions/Version_1Pr/oneback(1)_v1.xlsx,New rule: Press 'space' when you see 1-back (i.e. the same letter as the one that appeared 1 letter ago.),x,None,,,,,0,1,1,1,0,1,1,1,,,,,,,,,,,,,,,,,,,,,,,,,,,,,,,,,,,,,,,,,,,1.89,598.2452419000037,None,600.1365061999968,None,None,1,600.1365061999968,None,602.1358076000033,None,,,,,,,,,,,,,,,,,,,,,,,,,,,,,,,,P020,fencog,1,Pre,2021_Nov_09_1129,N-Back (New Version 2021),2021.1.4,120.03577067351709,
Conditions/Version_1Pr/oneback(1)_v1.xlsx,New rule: Press 'space' when you see 1-back (i.e. the same letter as the one that appeared 1 letter ago.),g,None,,,,,0,1,1,1,0,2,2,2,,,,,,,,,,,,,,,,,,,,,,,,,,,,,,,,,,,,,,,,,,,1.365,603.6353556999966,None,605.0038707000058,None,None,1,605.0038707000058,None,607.0092996000021,None,,,,,,,,,,,,,,,,,,,,,,,,,,,,,,,,P020,fencog,1,Pre,2021_Nov_09_1129,N-Back (New Version 2021),2021.1.4,120.03577067351709,
Conditions/Version_1Pr/oneback(1)_v1.xlsx,New rule: Press 'space' when you see 1-back (i.e. the same letter as the one that appeared 1 letter ago.),G,space,,,,,0,1,1,1,0,3,3,3,,,,,,,,,,,,,,,,,,,,,,,,,,,,,,,,,,,,,,,,,,,1.49,608.5088830000022,None,610.0014101999986,None,space,1,610.0014101999986,None,610.3196037000016,None,0.30217130000528414,,,,,,,,,,,,,,,,,,,,,,,,,,,,,,,P020,fencog,1,Pre,2021_Nov_09_1129,N-Back (New Version 2021),2021.1.4,120.03577067351709,
Conditions/Version_1Pr/oneback(1)_v1.xlsx,New rule: Press 'space' when you see 1-back (i.e. the same letter as the one that appeared 1 letter ago.),u,None,,,,,0,1,1,1,0,4,4,4,,,,,,,,,,,,,,,,,,,,,,,,,,,,,,,,,,,,,,,,,,,1.665,611.8245403000037,None,613.4916689999955,None,None,1,613.4916689999955,None,615.4985199999937,None,,,,,,,,,,,,,,,,,,,,,,,,,,,,,,,,P020,fencog,1,Pre,2021_Nov_09_1129,N-Back (New Version 2021),2021.1.4,120.03577067351709,
Conditions/Version_1Pr/oneback(1)_v1.xlsx,New rule: Press 'space' when you see 1-back (i.e. the same letter as the one that appeared 1 letter ago.),y,None,,,,,0,1,1,1,0,5,5,5,,,,,,,,,,,,,,,,,,,,,,,,,,,,,,,,,,,,,,,,,,,1.94,616.9979006000067,None,618.9401104999997,None,None,1,618.9401104999997,None,620.9469643000048,None,,,,,,,,,,,,,,,,,,,,,,,,,,,,,,,,P020,fencog,1,Pre,2021_Nov_09_1129,N-Back (New Version 2021),2021.1.4,120.03577067351709,
Conditions/Version_1Pr/oneback(1)_v1.xlsx,New rule: Press 'space' when you see 1-back (i.e. the same letter as the one that appeared 1 letter ago.),y,space,,,,,0,1,1,1,0,6,6,6,,,,,,,,,,,,,,,,,,,,,,,,,,,,,,,,,,,,,,,,,,,1.215,622.4463609999948,None,623.6625766999932,None,space,1,623.6625766999932,None,624.2800380999979,None,0.609091400008765,,,,,,,,,,,,,,,,,,,,,,,,,,,,,,,P020,fencog,1,Pre,2021_Nov_09_1129,N-Back (New Version 2021),2021.1.4,120.03577067351709,
Conditions/Version_1Pr/oneback(1)_v1.xlsx,New rule: Press 'space' when you see 1-back (i.e. the same letter as the one that appeared 1 letter ago.),k,None,,,,,0,1,1,1,0,7,7,7,,,,,,,,,,,,,,,,,,,,,,,,,,,,,,,,,,,,,,,,,,,1.715,625.7895632,None,627.5130902999954,None,None,1,627.5130902999954,None,629.5194055000029,None,,,,,,,,,,,,,,,,,,,,,,,,,,,,,,,,P020,fencog,1,Pre,2021_Nov_09_1129,N-Back (New Version 2021),2021.1.4,120.03577067351709,
Conditions/Version_1Pr/oneback(1)_v1.xlsx,New rule: Press 'space' when you see 1-back (i.e. the same letter as the one that appeared 1 letter ago.),c,None,,,,,0,1,1,1,0,8,8,8,,,,,,,,,,,,,,,,,,,,,,,,,,,,,,,,,,,,,,,,,,,1.915,631.0188516000053,None,632.9354972000001,None,None,1,632.9354972000001,None,634.9427515999996,None,,,,,,,,,,,,,,,,,,,,,,,,,,,,,,,,P020,fencog,1,Pre,2021_Nov_09_1129,N-Back (New Version 2021),2021.1.4,120.03577067351709,
Conditions/Version_1Pr/oneback(1)_v1.xlsx,New rule: Press 'space' when you see 1-back (i.e. the same letter as the one that appeared 1 letter ago.),r,None,,,,,0,1,1,1,0,9,9,9,,,,,,,,,,,,,,,,,,,,,,,,,,,,,,,,,,,,,,,,,,,2.015,636.4422595000069,None,638.4581861000042,None,None,1,638.4581861000042,None,640.4577681999945,None,,,,,,,,,,,,,,,,,,,,,,,,,,,,,,,,P020,fencog,1,Pre,2021_Nov_09_1129,N-Back (New Version 2021),2021.1.4,120.03577067351709,
Conditions/Version_1Pr/oneback(1)_v1.xlsx,New rule: Press 'space' when you see 1-back (i.e. the same letter as the one that appeared 1 letter ago.),,,,,,,0,1,1,1,,,,,,,,,,,,,,,,,,,,,,,,,,,,,,,,,,,,,,,,,,,,,,,,,,,,,,,,,,,,,,,,,,,,,,,,,,,,,,,,,,,,,,,,,P020,fencog,1,Pre,2021_Nov_09_1129,N-Back (New Version 2021),2021.1.4,120.03577067351709,
Conditions/Version_1Pr/twoback(1)_v1.xlsx,New rule: Press 'space' when you see 2-back (i.e. the same letter as the one that appeared 2 letters ago.),E,None,,,,,0,2,2,2,0,0,0,0,,,,,,,,,,,,,,,,,,,,,,,,,,,,,,,,,641.9809419999947,None,644.9669021000009,None,space,0.4485813999926904,644.9669021000009,None,641.9809419999947,None,1.115,645.4382725000032,None,646.5636210999946,None,None,1,646.5636210999946,None,648.5633308999968,None,,,,,,,,,,,,,,,,,,,,,,,,,,,,,,,,P020,fencog,1,Pre,2021_Nov_09_1129,N-Back (New Version 2021),2021.1.4,120.03577067351709,
Conditions/Version_1Pr/twoback(1)_v1.xlsx,New rule: Press 'space' when you see 2-back (i.e. the same letter as the one that appeared 2 letters ago.),p,None,,,,,0,2,2,2,0,1,1,1,,,,,,,,,,,,,,,,,,,,,,,,,,,,,,,,,,,,,,,,,,,1.315,650.063389899995,None,651.3792876999942,None,None,1,651.3792876999942,None,653.3790658000071,None,,,,,,,,,,,,,,,,,,,,,,,,,,,,,,,,P020,fencog,1,Pre,2021_Nov_09_1129,N-Back (New Version 2021),2021.1.4,120.03577067351709,
Conditions/Version_1Pr/twoback(1)_v1.xlsx,New rule: Press 'space' when you see 2-back (i.e. the same letter as the one that appeared 2 letters ago.),e,space,,,,,0,2,2,2,0,2,2,2,,,,,,,,,,,,,,,,,,,,,,,,,,,,,,,,,,,,,,,,,,,1.615,654.8783478999976,None,656.4949897000042,None,space,1,656.4949897000042,None,656.853309099999,None,0.3444997000042349,,,,,,,,,,,,,,,,,,,,,,,,,,,,,,,P020,fencog,1,Pre,2021_Nov_09_1129,N-Back (New Version 2021),2021.1.4,120.03577067351709,
Conditions/Version_1Pr/twoback(1)_v1.xlsx,New rule: Press 'space' when you see 2-back (i.e. the same letter as the one that appeared 2 letters ago.),s,None,,,,,0,2,2,2,0,3,3,3,,,,,,,,,,,,,,,,,,,,,,,,,,,,,,,,,,,,,,,,,,,1.715,658.3524512000004,None,660.0714860000007,None,None,1,660.0714860000007,None,662.076389599999,None,,,,,,,,,,,,,,,,,,,,,,,,,,,,,,,,P020,fencog,1,Pre,2021_Nov_09_1129,N-Back (New Version 2021),2021.1.4,120.03577067351709,
Conditions/Version_1Pr/twoback(1)_v1.xlsx,New rule: Press 'space' when you see 2-back (i.e. the same letter as the one that appeared 2 letters ago.),S,None,,,,,0,2,2,2,0,4,4,4,,,,,,,,,,,,,,,,,,,,,,,,,,,,,,,,,,,,,,,,,,,1.69,663.5757831999945,None,665.271250699996,None,space,0,665.271250699996,None,666.1070485999953,None,0.8162962000060361,,,,,,,,,,,,,,,,,,,,,,,,,,,,,,,P020,fencog,1,Pre,2021_Nov_09_1129,N-Back (New Version 2021),2021.1.4,120.03577067351709,
Conditions/Version_1Pr/twoback(1)_v1.xlsx,New rule: Press 'space' when you see 2-back (i.e. the same letter as the one that appeared 2 letters ago.),s,space,,,,,0,2,2,2,0,5,5,5,,,,,,,,,,,,,,,,,,,,,,,,,,,,,,,,,,,,,,,,,,,1.165,667.6081497999985,None,668.7742897999997,None,None,0,668.7742897999997,None,670.7765361000056,None,,,,,,,,,,,,,,,,,,,,,,,,,,,,,,,,P020,fencog,1,Pre,2021_Nov_09_1129,N-Back (New Version 2021),2021.1.4,120.03577067351709,
Conditions/Version_1Pr/twoback(1)_v1.xlsx,New rule: Press 'space' when you see 2-back (i.e. the same letter as the one that appeared 2 letters ago.),P,None,,,,,0,2,2,2,0,6,6,6,,,,,,,,,,,,,,,,,,,,,,,,,,,,,,,,,,,,,,,,,,,1.665,672.2815355000057,None,673.9497124000045,None,space,0,673.9497124000045,None,674.5675594000058,None,0.6017489000078058,,,,,,,,,,,,,,,,,,,,,,,,,,,,,,,P020,fencog,1,Pre,2021_Nov_09_1129,N-Back (New Version 2021),2021.1.4,120.03577067351709,
Conditions/Version_1Pr/twoback(1)_v1.xlsx,New rule: Press 'space' when you see 2-back (i.e. the same letter as the one that appeared 2 letters ago.),C,None,,,,,0,2,2,2,0,7,7,7,,,,,,,,,,,,,,,,,,,,,,,,,,,,,,,,,,,,,,,,,,,1.865,676.0725863999978,None,677.9413747999934,None,None,1,677.9413747999934,None,679.9457251999993,None,,,,,,,,,,,,,,,,,,,,,,,,,,,,,,,,P020,fencog,1,Pre,2021_Nov_09_1129,N-Back (New Version 2021),2021.1.4,120.03577067351709,
Conditions/Version_1Pr/twoback(1)_v1.xlsx,New rule: Press 'space' when you see 2-back (i.e. the same letter as the one that appeared 2 letters ago.),x,None,,,,,0,2,2,2,0,8,8,8,,,,,,,,,,,,,,,,,,,,,,,,,,,,,,,,,,,,,,,,,,,1.365,681.4453031000012,None,682.8117067999992,None,None,1,682.8117067999992,None,684.8144138000062,None,,,,,,,,,,,,,,,,,,,,,,,,,,,,,,,,P020,fencog,1,Pre,2021_Nov_09_1129,N-Back (New Version 2021),2021.1.4,120.03577067351709,
Conditions/Version_1Pr/twoback(1)_v1.xlsx,New rule: Press 'space' when you see 2-back (i.e. the same letter as the one that appeared 2 letters ago.),Z,None,,,,,0,2,2,2,0,9,9,9,,,,,,,,,,,,,,,,,,,,,,,,,,,,,,,,,,,,,,,,,,,1.765,686.3191950000037,None,688.0851410000032,None,None,1,688.0851410000032,None,690.0847753999988,None,,,,,,,,,,,,,,,,,,,,,,,,,,,,,,,,P020,fencog,1,Pre,2021_Nov_09_1129,N-Back (New Version 2021),2021.1.4,120.03577067351709,
Conditions/Version_1Pr/twoback(1)_v1.xlsx,New rule: Press 'space' when you see 2-back (i.e. the same letter as the one that appeared 2 letters ago.),,,,,,,0,2,2,2,,,,,,,,,,,,,,,,,,,,,,,,,,,,,,,,,,,,,,,,,,,,,,,,,,,,,,,,,,,,,,,,,,,,,,,,,,,,,,,,,,,,,,,,,P020,fencog,1,Pre,2021_Nov_09_1129,N-Back (New Version 2021),2021.1.4,120.03577067351709,
Conditions/Version_1Pr/threeback(1)_v1.xlsx,New rule: Press 'space' when you see 3-back (i.e. the same letter as the one that appeared 3 letters ago.),r,None,,,,,0,3,3,3,0,0,0,0,,,,,,,,,,,,,,,,,,,,,,,,,,,,,,,,,691.6080554999935,None,694.5935441000038,None,space,4.373925799998688,694.5935441000038,None,691.6080554999935,None,1.515,698.9928998999967,None,700.5150757999945,None,None,1,700.5150757999945,None,702.5157919000048,None,,,,,,,,,,,,,,,,,,,,,,,,,,,,,,,,P020,fencog,1,Pre,2021_Nov_09_1129,N-Back (New Version 2021),2021.1.4,120.03577067351709,
Conditions/Version_1Pr/threeback(1)_v1.xlsx,New rule: Press 'space' when you see 3-back (i.e. the same letter as the one that appeared 3 letters ago.),a,None,,,,,0,3,3,3,0,1,1,1,,,,,,,,,,,,,,,,,,,,,,,,,,,,,,,,,,,,,,,,,,,1.565,704.0223331000016,None,705.5882992999977,None,None,1,705.5882992999977,None,707.587990400003,None,,,,,,,,,,,,,,,,,,,,,,,,,,,,,,,,P020,fencog,1,Pre,2021_Nov_09_1129,N-Back (New Version 2021),2021.1.4,120.03577067351709,
Conditions/Version_1Pr/threeback(1)_v1.xlsx,New rule: Press 'space' when you see 3-back (i.e. the same letter as the one that appeared 3 letters ago.),t,None,,,,,0,3,3,3,0,2,2,2,,,,,,,,,,,,,,,,,,,,,,,,,,,,,,,,,,,,,,,,,,,1.04,709.0873220000067,None,710.1311581000045,None,None,1,710.1311581000045,None,712.1366868000041,None,,,,,,,,,,,,,,,,,,,,,,,,,,,,,,,,P020,fencog,1,Pre,2021_Nov_09_1129,N-Back (New Version 2021),2021.1.4,120.03577067351709,
Conditions/Version_1Pr/threeback(1)_v1.xlsx,New rule: Press 'space' when you see 3-back (i.e. the same letter as the one that appeared 3 letters ago.),r,space,,,,,0,3,3,3,0,3,3,3,,,,,,,,,,,,,,,,,,,,,,,,,,,,,,,,,,,,,,,,,,,1.09,713.6361402000039,None,714.7294409000024,None,None,0,714.7294409000024,None,716.7364777000039,None,,,,,,,,,,,,,,,,,,,,,,,,,,,,,,,,P020,fencog,1,Pre,2021_Nov_09_1129,N-Back (New Version 2021),2021.1.4,120.03577067351709,
Conditions/Version_1Pr/threeback(1)_v1.xlsx,New rule: Press 'space' when you see 3-back (i.e. the same letter as the one that appeared 3 letters ago.),a,None,,,,,0,3,3,3,0,4,4,4,,,,,,,,,,,,,,,,,,,,,,,,,,,,,,,,,,,,,,,,,,,1.74,718.2348428999976,None,719.9757328999985,None,space,0,719.9757328999985,None,720.4793975999928,None,0.48774240000057034,,,,,,,,,,,,,,,,,,,,,,,,,,,,,,,P020,fencog,1,Pre,2021_Nov_09_1129,N-Back (New Version 2021),2021.1.4,120.03577067351709,
Conditions/Version_1Pr/threeback(1)_v1.xlsx,New rule: Press 'space' when you see 3-back (i.e. the same letter as the one that appeared 3 letters ago.),Y,None,,,,,0,3,3,3,0,5,5,5,,,,,,,,,,,,,,,,,,,,,,,,,,,,,,,,,,,,,,,,,,,1.065,721.9836500999954,None,723.0526014000061,None,None,1,723.0526014000061,None,725.0576843000017,None,,,,,,,,,,,,,,,,,,,,,,,,,,,,,,,,P020,fencog,1,Pre,2021_Nov_09_1129,N-Back (New Version 2021),2021.1.4,120.03577067351709,
Conditions/Version_1Pr/threeback(1)_v1.xlsx,New rule: Press 'space' when you see 3-back (i.e. the same letter as the one that appeared 3 letters ago.),q,None,,,,,0,3,3,3,0,6,6,6,,,,,,,,,,,,,,,,,,,,,,,,,,,,,,,,,,,,,,,,,,,1.965,726.5572117999982,None,728.524702499999,None,None,1,728.524702499999,None,730.5311777000024,None,,,,,,,,,,,,,,,,,,,,,,,,,,,,,,,,P020,fencog,1,Pre,2021_Nov_09_1129,N-Back (New Version 2021),2021.1.4,120.03577067351709,
Conditions/Version_1Pr/threeback(1)_v1.xlsx,New rule: Press 'space' when you see 3-back (i.e. the same letter as the one that appeared 3 letters ago.),A,space,,,,,0,3,3,3,0,7,7,7,,,,,,,,,,,,,,,,,,,,,,,,,,,,,,,,,,,,,,,,,,,1.94,732.0307559999928,None,733.974334700004,None,space,1,733.974334700004,None,734.4052896999929,None,0.4171383000066271,,,,,,,,,,,,,,,,,,,,,,,,,,,,,,,P020,fencog,1,Pre,2021_Nov_09_1129,N-Back (New Version 2021),2021.1.4,120.03577067351709,
Conditions/Version_1Pr/threeback(1)_v1.xlsx,New rule: Press 'space' when you see 3-back (i.e. the same letter as the one that appeared 3 letters ago.),y,None,,,,,0,3,3,3,0,8,8,8,,,,,,,,,,,,,,,,,,,,,,,,,,,,,,,,,,,,,,,,,,,1.315,735.904607599994,None,737.2214856999926,None,space,0,737.2214856999926,None,738.1906534000009,None,0.9541902000055416,,,,,,,,,,,,,,,,,,,,,,,,,,,,,,,P020,fencog,1,Pre,2021_Nov_09_1129,N-Back (New Version 2021),2021.1.4,120.03577067351709,
Conditions/Version_1Pr/threeback(1)_v1.xlsx,New rule: Press 'space' when you see 3-back (i.e. the same letter as the one that appeared 3 letters ago.),r,None,,,,,0,3,3,3,0,9,9,9,,,,,,,,,,,,,,,,,,,,,,,,,,,,,,,,,,,,,,,,,,,1.665,739.6951379999955,None,741.3613551000017,None,space,0,741.3613551000017,None,742.7386013999931,None,1.3661245999974199,,,,,,,,,,,,,,,,,,,,,,,,,,,,,,,P020,fencog,1,Pre,2021_Nov_09_1129,N-Back (New Version 2021),2021.1.4,120.03577067351709,
Conditions/Version_1Pr/threeback(1)_v1.xlsx,New rule: Press 'space' when you see 3-back (i.e. the same letter as the one that appeared 3 letters ago.),,,,,,,0,3,3,3,,,,,,,,,,,,,,,,,,,,,,,,,,,,,,,,,,,,,,,,,,,,,,,,,,,,,,,,,,,,,,,,,,,,,,,,,,,,,,,,,,,,,,,,,P020,fencog,1,Pre,2021_Nov_09_1129,N-Back (New Version 2021),2021.1.4,120.03577067351709,
,,,,,,,,,,,,,,,,,,,,,,,,,,,,,,,,,,,,,,,,,,,,,,,,,,,,,,,,,,,,,,,,,,,,,,744.2549149999977,None,space,0.7434857000043849,744.7439172000013,None,,,,,,,,,,,,,,,,,,,,,,,,,P020,fencog,1,Pre,2021_Nov_09_1129,N-Back (New Version 2021),2021.1.4,120.03577067351709,
,,,,,,,,,,,,,,,,,,,,,,,,,,,,,,,,,,,,,,,,,,,,,,,,,,,,,,,,,,,,,,,,,,,,,,,,,,,,745.5158176999976,None,space,2.9969724000111455,746.0105045999953,None,,,,,,,,,,,,,,,,,,,P020,fencog,1,Pre,2021_Nov_09_1129,N-Back (New Version 2021),2021.1.4,120.03577067351709,
,,,,Conditions/Version_1/zeroback(1)_v1.xlsx,Rule: Press 'space' when you see the letter 'x' or 'X'.,b,None,,,,,,,,,0,0,0,0,0,0,0,0,,,,,,,,,,,,,,,,,,,,,,,,,,,,,,,,,,,,,,,,,,,,,,,,,,,,,,,,,,,749.1120895000058,None,752.1015252999932,None,space,13.065897599997697,752.1015252999932,None,749.1120895000058,None,1.5494,766.7550920000067,None,None,1,766.7550920000067,None,,P020,fencog,1,Pre,2021_Nov_09_1129,N-Back (New Version 2021),2021.1.4,120.03577067351709,
,,,,Conditions/Version_1/zeroback(1)_v1.xlsx,Rule: Press 'space' when you see the letter 'x' or 'X'.,T,None,,,,,,,,,0,0,0,0,0,1,1,1,,,,,,,,,,,,,,,,,,,,,,,,,,,,,,,,,,,,,,,,,,,,,,,,,,,,,,,,,,,,,,,,,,,,,1.8842,770.6534668999957,None,None,1,770.6534668999957,None,,P020,fencog,1,Pre,2021_Nov_09_1129,N-Back (New Version 2021),2021.1.4,120.03577067351709,
,,,,Conditions/Version_1/zeroback(1)_v1.xlsx,Rule: Press 'space' when you see the letter 'x' or 'X'.,L,None,,,,,,,,,0,0,0,0,0,2,2,2,,,,,,,,,,,,,,,,,,,,,,,,,,,,,,,,,,,,,,,,,,,,,,,,,,,,,,,,,,,,,,,,,,,,,1.1526,773.8265653999988,None,None,1,773.8265653999988,None,,P020,fencog,1,Pre,2021_Nov_09_1129,N-Back (New Version 2021),2021.1.4,120.03577067351709,
,,,,Conditions/Version_1/zeroback(1)_v1.xlsx,Rule: Press 'space' when you see the letter 'x' or 'X'.,x,space,,,,,,,,,0,0,0,0,0,3,3,3,,,,,,,,,,,,,,,,,,,,,,,,,,,,,,,,,,,,,,,,,,,,,,,,,,,,,,,,,,,,,,,,,,,,,1.6052,777.4335794999934,None,space,1,777.4335794999934,None,1.1739962999999989,P020,fencog,1,Pre,2021_Nov_09_1129,N-Back (New Version 2021),2021.1.4,120.03577067351709,
,,,,Conditions/Version_1/zeroback(1)_v1.xlsx,Rule: Press 'space' when you see the letter 'x' or 'X'.,o,None,,,,,,,,,0,0,0,0,0,4,4,4,,,,,,,,,,,,,,,,,,,,,,,,,,,,,,,,,,,,,,,,,,,,,,,,,,,,,,,,,,,,,,,,,,,,,1.2952,780.7356884000037,None,None,1,780.7356884000037,None,,P020,fencog,1,Pre,2021_Nov_09_1129,N-Back (New Version 2021),2021.1.4,120.03577067351709,
,,,,Conditions/Version_1/zeroback(1)_v1.xlsx,Rule: Press 'space' when you see the letter 'x' or 'X'.,P,None,,,,,,,,,0,0,0,0,0,5,5,5,,,,,,,,,,,,,,,,,,,,,,,,,,,,,,,,,,,,,,,,,,,,,,,,,,,,,,,,,,,,,,,,,,,,,1.8656,784.6076681999984,None,None,1,784.6076681999984,None,,P020,fencog,1,Pre,2021_Nov_09_1129,N-Back (New Version 2021),2021.1.4,120.03577067351709,
,,,,Conditions/Version_1/zeroback(1)_v1.xlsx,Rule: Press 'space' when you see the letter 'x' or 'X'.,X,space,,,,,,,,,0,0,0,0,0,6,6,6,,,,,,,,,,,,,,,,,,,,,,,,,,,,,,,,,,,,,,,,,,,,,,,,,,,,,,,,,,,,,,,,,,,,,1.4502,788.0642150000058,None,space,1,788.0642150000058,None,0.35136709999642335,P020,fencog,1,Pre,2021_Nov_09_1129,N-Back (New Version 2021),2021.1.4,120.03577067351709,
,,,,Conditions/Version_1/zeroback(1)_v1.xlsx,Rule: Press 'space' when you see the letter 'x' or 'X'.,n,None,,,,,,,,,0,0,0,0,0,7,7,7,,,,,,,,,,,,,,,,,,,,,,,,,,,,,,,,,,,,,,,,,,,,,,,,,,,,,,,,,,,,,,,,,,,,,1.0162,791.0809416999982,None,None,1,791.0809416999982,None,,P020,fencog,1,Pre,2021_Nov_09_1129,N-Back (New Version 2021),2021.1.4,120.03577067351709,
,,,,Conditions/Version_1/zeroback(1)_v1.xlsx,Rule: Press 'space' when you see the letter 'x' or 'X'.,M,None,,,,,,,,,0,0,0,0,0,8,8,8,,,,,,,,,,,,,,,,,,,,,,,,,,,,,,,,,,,,,,,,,,,,,,,,,,,,,,,,,,,,,,,,,,,,,1.041,794.1302663999959,None,None,1,794.1302663999959,None,,P020,fencog,1,Pre,2021_Nov_09_1129,N-Back (New Version 2021),2021.1.4,120.03577067351709,
,,,,Conditions/Version_1/zeroback(1)_v1.xlsx,Rule: Press 'space' when you see the letter 'x' or 'X'.,a,None,,,,,,,,,0,0,0,0,0,9,9,9,,,,,,,,,,,,,,,,,,,,,,,,,,,,,,,,,,,,,,,,,,,,,,,,,,,,,,,,,,,,,,,,,,,,,1.0224,797.1622446999972,None,None,1,797.1622446999972,None,,P020,fencog,1,Pre,2021_Nov_09_1129,N-Back (New Version 2021),2021.1.4,120.03577067351709,
,,,,Conditions/Version_1/zeroback(1)_v1.xlsx,Rule: Press 'space' when you see the letter 'x' or 'X'.,,,,,,,,,,,0,0,0,0,,,,,,,,,,,,,,,,,,,,,,,,,,,,,,,,,,,,,,,,,,,,,,,,,,,,,,,,,,,,,,,,,,,,,,,,,,,,,,,,,P020,fencog,1,Pre,2021_Nov_09_1129,N-Back (New Version 2021),2021.1.4,120.03577067351709,
,,,,Conditions/Version_1/oneback(1)_v1.xlsx,New rule: Press 'space' when you see 1-back (i.e. the same letter as the one that appeared 1 letter ago.),b,None,,,,,,,,,0,1,1,1,0,0,0,0,,,,,,,,,,,,,,,,,,,,,,,,,,,,,,,,,,,,,,,,,,,,,,,,,,,,,,,,,,,799.2070535999956,None,802.1864378000028,None,space,0.8531299000023864,802.1864378000028,None,799.2070535999956,None,1.4192,804.4849303999945,None,None,1,804.4849303999945,None,,P020,fencog,1,Pre,2021_Nov_09_1129,N-Back (New Version 2021),2021.1.4,120.03577067351709,
,,,,Conditions/Version_1/oneback(1)_v1.xlsx,New rule: Press 'space' when you see 1-back (i.e. the same letter as the one that appeared 1 letter ago.),p,None,,,,,,,,,0,1,1,1,0,1,1,1,,,,,,,,,,,,,,,,,,,,,,,,,,,,,,,,,,,,,,,,,,,,,,,,,,,,,,,,,,,,,,,,,,,,,1.661,808.149935399997,None,None,1,808.149935399997,None,,P020,fencog,1,Pre,2021_Nov_09_1129,N-Back (New Version 2021),2021.1.4,120.03577067351709,
,,,,Conditions/Version_1/oneback(1)_v1.xlsx,New rule: Press 'space' when you see 1-back (i.e. the same letter as the one that appeared 1 letter ago.),M,None,,,,,,,,,0,1,1,1,0,2,2,2,,,,,,,,,,,,,,,,,,,,,,,,,,,,,,,,,,,,,,,,,,,,,,,,,,,,,,,,,,,,,,,,,,,,,1.4936,811.6507354000059,None,None,1,811.6507354000059,None,,P020,fencog,1,Pre,2021_Nov_09_1129,N-Back (New Version 2021),2021.1.4,120.03577067351709,
,,,,Conditions/Version_1/oneback(1)_v1.xlsx,New rule: Press 'space' when you see 1-back (i.e. the same letter as the one that appeared 1 letter ago.),M,space,,,,,,,,,0,1,1,1,0,3,3,3,,,,,,,,,,,,,,,,,,,,,,,,,,,,,,,,,,,,,,,,,,,,,,,,,,,,,,,,,,,,,,,,,,,,,1.041,814.6979722999968,None,space,1,814.6979722999968,None,0.3414638000103878,P020,fencog,1,Pre,2021_Nov_09_1129,N-Back (New Version 2021),2021.1.4,120.03577067351709,
,,,,Conditions/Version_1/oneback(1)_v1.xlsx,New rule: Press 'space' when you see 1-back (i.e. the same letter as the one that appeared 1 letter ago.),n,None,,,,,,,,,0,1,1,1,0,4,4,4,,,,,,,,,,,,,,,,,,,,,,,,,,,,,,,,,,,,,,,,,,,,,,,,,,,,,,,,,,,,,,,,,,,,,1.103,817.8052000000025,None,None,1,817.8052000000025,None,,P020,fencog,1,Pre,2021_Nov_09_1129,N-Back (New Version 2021),2021.1.4,120.03577067351709,
,,,,Conditions/Version_1/oneback(1)_v1.xlsx,New rule: Press 'space' when you see 1-back (i.e. the same letter as the one that appeared 1 letter ago.),g,None,,,,,,,,,0,1,1,1,0,5,5,5,,,,,,,,,,,,,,,,,,,,,,,,,,,,,,,,,,,,,,,,,,,,,,,,,,,,,,,,,,,,,,,,,,,,,1.0348,820.8460914000025,None,None,1,820.8460914000025,None,,P020,fencog,1,Pre,2021_Nov_09_1129,N-Back (New Version 2021),2021.1.4,120.03577067351709,
,,,,Conditions/Version_1/oneback(1)_v1.xlsx,New rule: Press 'space' when you see 1-back (i.e. the same letter as the one that appeared 1 letter ago.),P,None,,,,,,,,,0,1,1,1,0,6,6,6,,,,,,,,,,,,,,,,,,,,,,,,,,,,,,,,,,,,,,,,,,,,,,,,,,,,,,,,,,,,,,,,,,,,,1.63,824.479811600002,None,None,1,824.479811600002,None,,P020,fencog,1,Pre,2021_Nov_09_1129,N-Back (New Version 2021),2021.1.4,120.03577067351709,
,,,,Conditions/Version_1/oneback(1)_v1.xlsx,New rule: Press 'space' when you see 1-back (i.e. the same letter as the one that appeared 1 letter ago.),o,None,,,,,,,,,0,1,1,1,0,7,7,7,,,,,,,,,,,,,,,,,,,,,,,,,,,,,,,,,,,,,,,,,,,,,,,,,,,,,,,,,,,,,,,,,,,,,1.382,827.8688878999965,None,None,1,827.8688878999965,None,,P020,fencog,1,Pre,2021_Nov_09_1129,N-Back (New Version 2021),2021.1.4,120.03577067351709,
,,,,Conditions/Version_1/oneback(1)_v1.xlsx,New rule: Press 'space' when you see 1-back (i.e. the same letter as the one that appeared 1 letter ago.),f,None,,,,,,,,,0,1,1,1,0,8,8,8,,,,,,,,,,,,,,,,,,,,,,,,,,,,,,,,,,,,,,,,,,,,,,,,,,,,,,,,,,,,,,,,,,,,,1.9028,831.7777334999992,None,None,1,831.7777334999992,None,,P020,fencog,1,Pre,2021_Nov_09_1129,N-Back (New Version 2021),2021.1.4,120.03577067351709,
,,,,Conditions/Version_1/oneback(1)_v1.xlsx,New rule: Press 'space' when you see 1-back (i.e. the same letter as the one that appeared 1 letter ago.),F,space,,,,,,,,,0,1,1,1,0,9,9,9,,,,,,,,,,,,,,,,,,,,,,,,,,,,,,,,,,,,,,,,,,,,,,,,,,,,,,,,,,,,,,,,,,,,,1.8904,835.6763034000032,None,space,1,835.6763034000032,None,0.3469126999989385,P020,fencog,1,Pre,2021_Nov_09_1129,N-Back (New Version 2021),2021.1.4,120.03577067351709,
,,,,Conditions/Version_1/oneback(1)_v1.xlsx,New rule: Press 'space' when you see 1-back (i.e. the same letter as the one that appeared 1 letter ago.),,,,,,,,,,,0,1,1,1,,,,,,,,,,,,,,,,,,,,,,,,,,,,,,,,,,,,,,,,,,,,,,,,,,,,,,,,,,,,,,,,,,,,,,,,,,,,,,,,,P020,fencog,1,Pre,2021_Nov_09_1129,N-Back (New Version 2021),2021.1.4,120.03577067351709,
,,,,Conditions/Version_1/twoback(1)_v1.xlsx,New rule: Press 'space' when you see 2-back (i.e. the same letter as the one that appeared 2 letters ago.),b,None,,,,,,,,,0,2,2,2,0,0,0,0,,,,,,,,,,,,,,,,,,,,,,,,,,,,,,,,,,,,,,,,,,,,,,,,,,,,,,,,,,,837.703027800002,None,840.6925901000068,None,space,11.770808100001886,840.6925901000068,None,837.703027800002,None,1.1712,853.6615151000005,None,None,1,853.6615151000005,None,,P020,fencog,1,Pre,2021_Nov_09_1129,N-Back (New Version 2021),2021.1.4,120.03577067351709,
,,,,Conditions/Version_1/twoback(1)_v1.xlsx,New rule: Press 'space' when you see 2-back (i.e. the same letter as the one that appeared 2 letters ago.),h,None,,,,,,,,,0,2,2,2,0,1,1,1,,,,,,,,,,,,,,,,,,,,,,,,,,,,,,,,,,,,,,,,,,,,,,,,,,,,,,,,,,,,,,,,,,,,,1.0534,856.7202451000048,None,None,1,856.7202451000048,None,,P020,fencog,1,Pre,2021_Nov_09_1129,N-Back (New Version 2021),2021.1.4,120.03577067351709,
,,,,Conditions/Version_1/twoback(1)_v1.xlsx,New rule: Press 'space' when you see 2-back (i.e. the same letter as the one that appeared 2 letters ago.),j,None,,,,,,,,,0,2,2,2,0,2,2,2,,,,,,,,,,,,,,,,,,,,,,,,,,,,,,,,,,,,,,,,,,,,,,,,,,,,,,,,,,,,,,,,,,,,,1.94,860.668550500006,None,None,1,860.668550500006,None,,P020,fencog,1,Pre,2021_Nov_09_1129,N-Back (New Version 2021),2021.1.4,120.03577067351709,
,,,,Conditions/Version_1/twoback(1)_v1.xlsx,New rule: Press 'space' when you see 2-back (i.e. the same letter as the one that appeared 2 letters ago.),H,space,,,,,,,,,0,2,2,2,0,3,3,3,,,,,,,,,,,,,,,,,,,,,,,,,,,,,,,,,,,,,,,,,,,,,,,,,,,,,,,,,,,,,,,,,,,,,1.382,864.0595373999968,None,space,1,864.0595373999968,None,0.4439173999999184,P020,fencog,1,Pre,2021_Nov_09_1129,N-Back (New Version 2021),2021.1.4,120.03577067351709,
,,,,Conditions/Version_1/twoback(1)_v1.xlsx,New rule: Press 'space' when you see 2-back (i.e. the same letter as the one that appeared 2 letters ago.),p,None,,,,,,,,,0,2,2,2,0,4,4,4,,,,,,,,,,,,,,,,,,,,,,,,,,,,,,,,,,,,,,,,,,,,,,,,,,,,,,,,,,,,,,,,,,,,,1.444,867.5154839000024,None,None,1,867.5154839000024,None,,P020,fencog,1,Pre,2021_Nov_09_1129,N-Back (New Version 2021),2021.1.4,120.03577067351709,
,,,,Conditions/Version_1/twoback(1)_v1.xlsx,New rule: Press 'space' when you see 2-back (i.e. the same letter as the one that appeared 2 letters ago.),p,None,,,,,,,,,0,2,2,2,0,5,5,5,,,,,,,,,,,,,,,,,,,,,,,,,,,,,,,,,,,,,,,,,,,,,,,,,,,,,,,,,,,,,,,,,,,,,1.2952,870.815692300006,None,None,1,870.815692300006,None,,P020,fencog,1,Pre,2021_Nov_09_1129,N-Back (New Version 2021),2021.1.4,120.03577067351709,
,,,,Conditions/Version_1/twoback(1)_v1.xlsx,New rule: Press 'space' when you see 2-back (i.e. the same letter as the one that appeared 2 letters ago.),w,None,,,,,,,,,0,2,2,2,0,6,6,6,,,,,,,,,,,,,,,,,,,,,,,,,,,,,,,,,,,,,,,,,,,,,,,,,,,,,,,,,,,,,,,,,,,,,1.9524,874.7805789999984,None,None,1,874.7805789999984,None,,P020,fencog,1,Pre,2021_Nov_09_1129,N-Back (New Version 2021),2021.1.4,120.03577067351709,
,,,,Conditions/Version_1/twoback(1)_v1.xlsx,New rule: Press 'space' when you see 2-back (i.e. the same letter as the one that appeared 2 letters ago.),R,None,,,,,,,,,0,2,2,2,0,7,7,7,,,,,,,,,,,,,,,,,,,,,,,,,,,,,,,,,,,,,,,,,,,,,,,,,,,,,,,,,,,,,,,,,,,,,1.8408,878.6213875999965,None,None,1,878.6213875999965,None,,P020,fencog,1,Pre,2021_Nov_09_1129,N-Back (New Version 2021),2021.1.4,120.03577067351709,
,,,,Conditions/Version_1/twoback(1)_v1.xlsx,New rule: Press 'space' when you see 2-back (i.e. the same letter as the one that appeared 2 letters ago.),a,None,,,,,,,,,0,2,2,2,0,8,8,8,,,,,,,,,,,,,,,,,,,,,,,,,,,,,,,,,,,,,,,,,,,,,,,,,,,,,,,,,,,,,,,,,,,,,1.1092,881.7457296999928,None,None,1,881.7457296999928,None,,P020,fencog,1,Pre,2021_Nov_09_1129,N-Back (New Version 2021),2021.1.4,120.03577067351709,
,,,,Conditions/Version_1/twoback(1)_v1.xlsx,New rule: Press 'space' when you see 2-back (i.e. the same letter as the one that appeared 2 letters ago.),r,space,,,,,,,,,0,2,2,2,0,9,9,9,,,,,,,,,,,,,,,,,,,,,,,,,,,,,,,,,,,,,,,,,,,,,,,,,,,,,,,,,,,,,,,,,,,,,1.4626,885.2197000000015,None,space,1,885.2197000000015,None,0.4036251000070479,P020,fencog,1,Pre,2021_Nov_09_1129,N-Back (New Version 2021),2021.1.4,120.03577067351709,
,,,,Conditions/Version_1/twoback(1)_v1.xlsx,New rule: Press 'space' when you see 2-back (i.e. the same letter as the one that appeared 2 letters ago.),,,,,,,,,,,0,2,2,2,,,,,,,,,,,,,,,,,,,,,,,,,,,,,,,,,,,,,,,,,,,,,,,,,,,,,,,,,,,,,,,,,,,,,,,,,,,,,,,,,P020,fencog,1,Pre,2021_Nov_09_1129,N-Back (New Version 2021),2021.1.4,120.03577067351709,
,,,,Conditions/Version_1/threeback(1)_v1.xlsx,New rule: Press 'space' when you see 3-back (i.e. the same letter as the one that appeared 3 letters ago.),r,None,,,,,,,,,0,3,3,3,0,0,0,0,,,,,,,,,,,,,,,,,,,,,,,,,,,,,,,,,,,,,,,,,,,,,,,,,,,,,,,,,,,887.2460587999958,None,890.2284445999976,None,space,23.859075100001064,890.2284445999976,None,887.2460587999958,None,1.63,915.7427827999927,None,None,1,915.7427827999927,None,,P020,fencog,1,Pre,2021_Nov_09_1129,N-Back (New Version 2021),2021.1.4,120.03577067351709,
,,,,Conditions/Version_1/threeback(1)_v1.xlsx,New rule: Press 'space' when you see 3-back (i.e. the same letter as the one that appeared 3 letters ago.),o,None,,,,,,,,,0,3,3,3,0,1,1,1,,,,,,,,,,,,,,,,,,,,,,,,,,,,,,,,,,,,,,,,,,,,,,,,,,,,,,,,,,,,,,,,,,,,,1.3758,919.1272680999973,None,None,1,919.1272680999973,None,,P020,fencog,1,Pre,2021_Nov_09_1129,N-Back (New Version 2021),2021.1.4,120.03577067351709,
,,,,Conditions/Version_1/threeback(1)_v1.xlsx,New rule: Press 'space' when you see 3-back (i.e. the same letter as the one that appeared 3 letters ago.),P,None,,,,,,,,,0,3,3,3,0,2,2,2,,,,,,,,,,,,,,,,,,,,,,,,,,,,,,,,,,,,,,,,,,,,,,,,,,,,,,,,,,,,,,,,,,,,,1.8842,923.0242280999955,None,None,1,923.0242280999955,None,,P020,fencog,1,Pre,2021_Nov_09_1129,N-Back (New Version 2021),2021.1.4,120.03577067351709,
,,,,Conditions/Version_1/threeback(1)_v1.xlsx,New rule: Press 'space' when you see 3-back (i.e. the same letter as the one that appeared 3 letters ago.),R,space,,,,,,,,,0,3,3,3,0,3,3,3,,,,,,,,,,,,,,,,,,,,,,,,,,,,,,,,,,,,,,,,,,,,,,,,,,,,,,,,,,,,,,,,,,,,,1.5246,926.550679699998,None,None,0,926.550679699998,None,,P020,fencog,1,Pre,2021_Nov_09_1129,N-Back (New Version 2021),2021.1.4,120.03577067351709,
,,,,Conditions/Version_1/threeback(1)_v1.xlsx,New rule: Press 'space' when you see 3-back (i.e. the same letter as the one that appeared 3 letters ago.),p,None,,,,,,,,,0,3,3,3,0,4,4,4,,,,,,,,,,,,,,,,,,,,,,,,,,,,,,,,,,,,,,,,,,,,,,,,,,,,,,,,,,,,,,,,,,,,,1.7106,930.2723447000026,None,None,1,930.2723447000026,None,,P020,fencog,1,Pre,2021_Nov_09_1129,N-Back (New Version 2021),2021.1.4,120.03577067351709,
,,,,Conditions/Version_1/threeback(1)_v1.xlsx,New rule: Press 'space' when you see 3-back (i.e. the same letter as the one that appeared 3 letters ago.),E,None,,,,,,,,,0,3,3,3,0,5,5,5,,,,,,,,,,,,,,,,,,,,,,,,,,,,,,,,,,,,,,,,,,,,,,,,,,,,,,,,,,,,,,,,,,,,,1.444,933.7219327000057,None,None,1,933.7219327000057,None,,P020,fencog,1,Pre,2021_Nov_09_1129,N-Back (New Version 2021),2021.1.4,120.03577067351709,
,,,,Conditions/Version_1/threeback(1)_v1.xlsx,New rule: Press 'space' when you see 3-back (i.e. the same letter as the one that appeared 3 letters ago.),e,None,,,,,,,,,0,3,3,3,0,6,6,6,,,,,,,,,,,,,,,,,,,,,,,,,,,,,,,,,,,,,,,,,,,,,,,,,,,,,,,,,,,,,,,,,,,,,1.0162,936.7450920999981,None,None,1,936.7450920999981,None,,P020,fencog,1,Pre,2021_Nov_09_1129,N-Back (New Version 2021),2021.1.4,120.03577067351709,
,,,,Conditions/Version_1/threeback(1)_v1.xlsx,New rule: Press 'space' when you see 3-back (i.e. the same letter as the one that appeared 3 letters ago.),m,None,,,,,,,,,0,3,3,3,0,7,7,7,,,,,,,,,,,,,,,,,,,,,,,,,,,,,,,,,,,,,,,,,,,,,,,,,,,,,,,,,,,,,,,,,,,,,1.9524,940.7099442000035,None,None,1,940.7099442000035,None,,P020,fencog,1,Pre,2021_Nov_09_1129,N-Back (New Version 2021),2021.1.4,120.03577067351709,
,,,,Conditions/Version_1/threeback(1)_v1.xlsx,New rule: Press 'space' when you see 3-back (i.e. the same letter as the one that appeared 3 letters ago.),n,None,,,,,,,,,0,3,3,3,0,8,8,8,,,,,,,,,,,,,,,,,,,,,,,,,,,,,,,,,,,,,,,,,,,,,,,,,,,,,,,,,,,,,,,,,,,,,1.5556,944.2679053000029,None,None,1,944.2679053000029,None,,P020,fencog,1,Pre,2021_Nov_09_1129,N-Back (New Version 2021),2021.1.4,120.03577067351709,
,,,,Conditions/Version_1/threeback(1)_v1.xlsx,New rule: Press 'space' when you see 3-back (i.e. the same letter as the one that appeared 3 letters ago.),e,space,,,,,,,,,0,3,3,3,0,9,9,9,,,,,,,,,,,,,,,,,,,,,,,,,,,,,,,,,,,,,,,,,,,,,,,,,,,,,,,,,,,,,,,,,,,,,1.227,947.5002052000054,None,space,1,947.5002052000054,None,0.4512836999929277,P020,fencog,1,Pre,2021_Nov_09_1129,N-Back (New Version 2021),2021.1.4,120.03577067351709,
,,,,Conditions/Version_1/threeback(1)_v1.xlsx,New rule: Press 'space' when you see 3-back (i.e. the same letter as the one that appeared 3 letters ago.),,,,,,,,,,,0,3,3,3,,,,,,,,,,,,,,,,,,,,,,,,,,,,,,,,,,,,,,,,,,,,,,,,,,,,,,,,,,,,,,,,,,,,,,,,,,,,,,,,,P020,fencog,1,Pre,2021_Nov_09_1129,N-Back (New Version 2021),2021.1.4,120.03577067351709,
,,,,Conditions/Version_1/oneback(2)_v1.xlsx,New rule: Press 'space' when you see 1-back (i.e. the same letter as the one that appeared 1 letter ago.),q,None,,,,,,,,,0,4,4,4,0,0,0,0,,,,,,,,,,,,,,,,,,,,,,,,,,,,,,,,,,,,,,,,,,,,,,,,,,,,,,,,,,,949.5245952999976,None,952.5085492999933,None,space,0.7787140000000363,952.5085492999933,None,949.5245952999976,None,1.7788,955.0980433999939,None,None,1,955.0980433999939,None,,P020,fencog,1,Pre,2021_Nov_09_1129,N-Back (New Version 2021),2021.1.4,120.03577067351709,
,,,,Conditions/Version_1/oneback(2)_v1.xlsx,New rule: Press 'space' when you see 1-back (i.e. the same letter as the one that appeared 1 letter ago.),Q,space,,,,,,,,,0,4,4,4,0,1,1,1,,,,,,,,,,,,,,,,,,,,,,,,,,,,,,,,,,,,,,,,,,,,,,,,,,,,,,,,,,,,,,,,,,,,,1.6796,958.7901869000052,None,space,1,958.7901869000052,None,0.537186000001384,P020,fencog,1,Pre,2021_Nov_09_1129,N-Back (New Version 2021),2021.1.4,120.03577067351709,
,,,,Conditions/Version_1/oneback(2)_v1.xlsx,New rule: Press 'space' when you see 1-back (i.e. the same letter as the one that appeared 1 letter ago.),P,None,,,,,,,,,0,4,4,4,0,2,2,2,,,,,,,,,,,,,,,,,,,,,,,,,,,,,,,,,,,,,,,,,,,,,,,,,,,,,,,,,,,,,,,,,,,,,1.506,962.3046959000058,None,None,1,962.3046959000058,None,,P020,fencog,1,Pre,2021_Nov_09_1129,N-Back (New Version 2021),2021.1.4,120.03577067351709,
,,,,Conditions/Version_1/oneback(2)_v1.xlsx,New rule: Press 'space' when you see 1-back (i.e. the same letter as the one that appeared 1 letter ago.),o,None,,,,,,,,,0,4,4,4,0,3,3,3,,,,,,,,,,,,,,,,,,,,,,,,,,,,,,,,,,,,,,,,,,,,,,,,,,,,,,,,,,,,,,,,,,,,,1.2084,965.5224133000011,None,None,1,965.5224133000011,None,,P020,fencog,1,Pre,2021_Nov_09_1129,N-Back (New Version 2021),2021.1.4,120.03577067351709,
,,,,Conditions/Version_1/oneback(2)_v1.xlsx,New rule: Press 'space' when you see 1-back (i.e. the same letter as the one that appeared 1 letter ago.),m,None,,,,,,,,,0,4,4,4,0,4,4,4,,,,,,,,,,,,,,,,,,,,,,,,,,,,,,,,,,,,,,,,,,,,,,,,,,,,,,,,,,,,,,,,,,,,,1.0658,968.5941592000017,None,None,1,968.5941592000017,None,,P020,fencog,1,Pre,2021_Nov_09_1129,N-Back (New Version 2021),2021.1.4,120.03577067351709,
,,,,Conditions/Version_1/oneback(2)_v1.xlsx,New rule: Press 'space' when you see 1-back (i.e. the same letter as the one that appeared 1 letter ago.),Z,None,,,,,,,,,0,4,4,4,0,5,5,5,,,,,,,,,,,,,,,,,,,,,,,,,,,,,,,,,,,,,,,,,,,,,,,,,,,,,,,,,,,,,,,,,,,,,1.3758,971.9777356999984,None,None,1,971.9777356999984,None,,P020,fencog,1,Pre,2021_Nov_09_1129,N-Back (New Version 2021),2021.1.4,120.03577067351709,
,,,,Conditions/Version_1/oneback(2)_v1.xlsx,New rule: Press 'space' when you see 1-back (i.e. the same letter as the one that appeared 1 letter ago.),c,None,,,,,,,,,0,4,4,4,0,6,6,6,,,,,,,,,,,,,,,,,,,,,,,,,,,,,,,,,,,,,,,,,,,,,,,,,,,,,,,,,,,,,,,,,,,,,1.4378,975.4251978999964,None,None,1,975.4251978999964,None,,P020,fencog,1,Pre,2021_Nov_09_1129,N-Back (New Version 2021),2021.1.4,120.03577067351709,
,,,,Conditions/Version_1/oneback(2)_v1.xlsx,New rule: Press 'space' when you see 1-back (i.e. the same letter as the one that appeared 1 letter ago.),c,space,,,,,,,,,0,4,4,4,0,7,7,7,,,,,,,,,,,,,,,,,,,,,,,,,,,,,,,,,,,,,,,,,,,,,,,,,,,,,,,,,,,,,,,,,,,,,1.103,978.5325917000009,None,space,1,978.5325917000009,None,0.4349034000042593,P020,fencog,1,Pre,2021_Nov_09_1129,N-Back (New Version 2021),2021.1.4,120.03577067351709,
,,,,Conditions/Version_1/oneback(2)_v1.xlsx,New rule: Press 'space' when you see 1-back (i.e. the same letter as the one that appeared 1 letter ago.),P,None,,,,,,,,,0,4,4,4,0,8,8,8,,,,,,,,,,,,,,,,,,,,,,,,,,,,,,,,,,,,,,,,,,,,,,,,,,,,,,,,,,,,,,,,,,,,,1.8408,982.3742288000067,None,None,1,982.3742288000067,None,,P020,fencog,1,Pre,2021_Nov_09_1129,N-Back (New Version 2021),2021.1.4,120.03577067351709,
,,,,Conditions/Version_1/oneback(2)_v1.xlsx,New rule: Press 'space' when you see 1-back (i.e. the same letter as the one that appeared 1 letter ago.),p,space,,,,,,,,,0,4,4,4,0,9,9,9,,,,,,,,,,,,,,,,,,,,,,,,,,,,,,,,,,,,,,,,,,,,,,,,,,,,,,,,,,,,,,,,,,,,,1.6858,986.0722688999958,None,space,1,986.0722688999958,None,0.5191140999959316,P020,fencog,1,Pre,2021_Nov_09_1129,N-Back (New Version 2021),2021.1.4,120.03577067351709,
,,,,Conditions/Version_1/oneback(2)_v1.xlsx,New rule: Press 'space' when you see 1-back (i.e. the same letter as the one that appeared 1 letter ago.),,,,,,,,,,,0,4,4,4,,,,,,,,,,,,,,,,,,,,,,,,,,,,,,,,,,,,,,,,,,,,,,,,,,,,,,,,,,,,,,,,,,,,,,,,,,,,,,,,,P020,fencog,1,Pre,2021_Nov_09_1129,N-Back (New Version 2021),2021.1.4,120.03577067351709,
,,,,Conditions/Version_1/zeroback(2)_v1.xlsx,New rule: Press 'space' when you see the letter 'x' or 'X'.,p,None,,,,,,,,,0,5,5,5,0,0,0,0,,,,,,,,,,,,,,,,,,,,,,,,,,,,,,,,,,,,,,,,,,,,,,,,,,,,,,,,,,,988.1031329999969,None,991.0894256000029,None,space,1.0457048999960534,991.0894256000029,None,988.1031329999969,None,1.5308,993.6865683999931,None,None,1,993.6865683999931,None,,P020,fencog,1,Pre,2021_Nov_09_1129,N-Back (New Version 2021),2021.1.4,120.03577067351709,
,,,,Conditions/Version_1/zeroback(2)_v1.xlsx,New rule: Press 'space' when you see the letter 'x' or 'X'.,L,None,,,,,,,,,0,5,5,5,0,1,1,1,,,,,,,,,,,,,,,,,,,,,,,,,,,,,,,,,,,,,,,,,,,,,,,,,,,,,,,,,,,,,,,,,,,,,1.692,997.3771922000014,None,None,1,997.3771922000014,None,,P020,fencog,1,Pre,2021_Nov_09_1129,N-Back (New Version 2021),2021.1.4,120.03577067351709,
,,,,Conditions/Version_1/zeroback(2)_v1.xlsx,New rule: Press 'space' when you see the letter 'x' or 'X'.,G,None,,,,,,,,,0,5,5,5,0,2,2,2,,,,,,,,,,,,,,,,,,,,,,,,,,,,,,,,,,,,,,,,,,,,,,,,,,,,,,,,,,,,,,,,,,,,,1.8904,1001.2678356999968,None,None,1,1001.2678356999968,None,,P020,fencog,1,Pre,2021_Nov_09_1129,N-Back (New Version 2021),2021.1.4,120.03577067351709,
,,,,Conditions/Version_1/zeroback(2)_v1.xlsx,New rule: Press 'space' when you see the letter 'x' or 'X'.,y,None,,,,,,,,,0,5,5,5,0,3,3,3,,,,,,,,,,,,,,,,,,,,,,,,,,,,,,,,,,,,,,,,,,,,,,,,,,,,,,,,,,,,,,,,,,,,,1.537,1004.8091171999986,None,None,1,1004.8091171999986,None,,P020,fencog,1,Pre,2021_Nov_09_1129,N-Back (New Version 2021),2021.1.4,120.03577067351709,
,,,,Conditions/Version_1/zeroback(2)_v1.xlsx,New rule: Press 'space' when you see the letter 'x' or 'X'.,Y,None,,,,,,,,,0,5,5,5,0,4,4,4,,,,,,,,,,,,,,,,,,,,,,,,,,,,,,,,,,,,,,,,,,,,,,,,,,,,,,,,,,,,,,,,,,,,,1.1898,1008.0073363999982,None,None,1,1008.0073363999982,None,,P020,fencog,1,Pre,2021_Nov_09_1129,N-Back (New Version 2021),2021.1.4,120.03577067351709,
,,,,Conditions/Version_1/zeroback(2)_v1.xlsx,New rule: Press 'space' when you see the letter 'x' or 'X'.,W,None,,,,,,,,,0,5,5,5,0,5,5,5,,,,,,,,,,,,,,,,,,,,,,,,,,,,,,,,,,,,,,,,,,,,,,,,,,,,,,,,,,,,,,,,,,,,,1.227,1011.2411921000021,None,None,1,1011.2411921000021,None,,P020,fencog,1,Pre,2021_Nov_09_1129,N-Back (New Version 2021),2021.1.4,120.03577067351709,
,,,,Conditions/Version_1/zeroback(2)_v1.xlsx,New rule: Press 'space' when you see the letter 'x' or 'X'.,x,space,,,,,,,,,0,5,5,5,0,6,6,6,,,,,,,,,,,,,,,,,,,,,,,,,,,,,,,,,,,,,,,,,,,,,,,,,,,,,,,,,,,,,,,,,,,,,1.4874,1014.7386824999994,None,space,1,1014.7386824999994,None,0.39650210000399966,P020,fencog,1,Pre,2021_Nov_09_1129,N-Back (New Version 2021),2021.1.4,120.03577067351709,
,,,,Conditions/Version_1/zeroback(2)_v1.xlsx,New rule: Press 'space' when you see the letter 'x' or 'X'.,X,space,,,,,,,,,0,5,5,5,0,7,7,7,,,,,,,,,,,,,,,,,,,,,,,,,,,,,,,,,,,,,,,,,,,,,,,,,,,,,,,,,,,,,,,,,,,,,1.0906,1017.8400077999977,None,space,1,1017.8400077999977,None,0.5993587999982992,P020,fencog,1,Pre,2021_Nov_09_1129,N-Back (New Version 2021),2021.1.4,120.03577067351709,
,,,,Conditions/Version_1/zeroback(2)_v1.xlsx,New rule: Press 'space' when you see the letter 'x' or 'X'.,p,None,,,,,,,,,0,5,5,5,0,8,8,8,,,,,,,,,,,,,,,,,,,,,,,,,,,,,,,,,,,,,,,,,,,,,,,,,,,,,,,,,,,,,,,,,,,,,1.072,1020.9209560000018,None,None,1,1020.9209560000018,None,,P020,fencog,1,Pre,2021_Nov_09_1129,N-Back (New Version 2021),2021.1.4,120.03577067351709,
,,,,Conditions/Version_1/zeroback(2)_v1.xlsx,New rule: Press 'space' when you see the letter 'x' or 'X'.,h,None,,,,,,,,,0,5,5,5,0,9,9,9,,,,,,,,,,,,,,,,,,,,,,,,,,,,,,,,,,,,,,,,,,,,,,,,,,,,,,,,,,,,,,,,,,,,,1.0286,1023.9608300999971,None,None,1,1023.9608300999971,None,,P020,fencog,1,Pre,2021_Nov_09_1129,N-Back (New Version 2021),2021.1.4,120.03577067351709,
,,,,Conditions/Version_1/zeroback(2)_v1.xlsx,New rule: Press 'space' when you see the letter 'x' or 'X'.,,,,,,,,,,,0,5,5,5,,,,,,,,,,,,,,,,,,,,,,,,,,,,,,,,,,,,,,,,,,,,,,,,,,,,,,,,,,,,,,,,,,,,,,,,,,,,,,,,,P020,fencog,1,Pre,2021_Nov_09_1129,N-Back (New Version 2021),2021.1.4,120.03577067351709,
,,,,Conditions/Version_1/threeback(2)_v1.xlsx,New rule: Press 'space' when you see 3-back (i.e. the same letter as the one that appeared 3 letters ago.),q,None,,,,,,,,,0,6,6,6,0,0,0,0,,,,,,,,,,,,,,,,,,,,,,,,,,,,,,,,,,,,,,,,,,,,,,,,,,,,,,,,,,,1025.9815384999965,None,1028.9711678000021,None,space,12.580235400004312,1028.9711678000021,None,1025.9815384999965,None,1.3572,1042.9404869999998,None,None,1,1042.9404869999998,None,,P020,fencog,1,Pre,2021_Nov_09_1129,N-Back (New Version 2021),2021.1.4,120.03577067351709,
,,,,Conditions/Version_1/threeback(2)_v1.xlsx,New rule: Press 'space' when you see 3-back (i.e. the same letter as the one that appeared 3 letters ago.),Y,None,,,,,,,,,0,6,6,6,0,1,1,1,,,,,,,,,,,,,,,,,,,,,,,,,,,,,,,,,,,,,,,,,,,,,,,,,,,,,,,,,,,,,,,,,,,,,1.1588,1046.1055951000017,None,None,1,1046.1055951000017,None,,P020,fencog,1,Pre,2021_Nov_09_1129,N-Back (New Version 2021),2021.1.4,120.03577067351709,
,,,,Conditions/Version_1/threeback(2)_v1.xlsx,New rule: Press 'space' when you see 3-back (i.e. the same letter as the one that appeared 3 letters ago.),p,None,,,,,,,,,0,6,6,6,0,2,2,2,,,,,,,,,,,,,,,,,,,,,,,,,,,,,,,,,,,,,,,,,,,,,,,,,,,,,,,,,,,,,,,,,,,,,1.6982,1049.8116946999944,None,None,1,1049.8116946999944,None,,P020,fencog,1,Pre,2021_Nov_09_1129,N-Back (New Version 2021),2021.1.4,120.03577067351709,
,,,,Conditions/Version_1/threeback(2)_v1.xlsx,New rule: Press 'space' when you see 3-back (i.e. the same letter as the one that appeared 3 letters ago.),p,None,,,,,,,,,0,6,6,6,0,3,3,3,,,,,,,,,,,,,,,,,,,,,,,,,,,,,,,,,,,,,,,,,,,,,,,,,,,,,,,,,,,,,,,,,,,,,1.878,1053.6940639999957,None,None,1,1053.6940639999957,None,,P020,fencog,1,Pre,2021_Nov_09_1129,N-Back (New Version 2021),2021.1.4,120.03577067351709,
,,,,Conditions/Version_1/threeback(2)_v1.xlsx,New rule: Press 'space' when you see 3-back (i.e. the same letter as the one that appeared 3 letters ago.),y,space,,,,,,,,,0,6,6,6,0,4,4,4,,,,,,,,,,,,,,,,,,,,,,,,,,,,,,,,,,,,,,,,,,,,,,,,,,,,,,,,,,,,,,,,,,,,,1.7664,1057.4600897000055,None,space,1,1057.4600897000055,None,0.42729370000597555,P020,fencog,1,Pre,2021_Nov_09_1129,N-Back (New Version 2021),2021.1.4,120.03577067351709,
,,,,Conditions/Version_1/threeback(2)_v1.xlsx,New rule: Press 'space' when you see 3-back (i.e. the same letter as the one that appeared 3 letters ago.),u,None,,,,,,,,,0,6,6,6,0,5,5,5,,,,,,,,,,,,,,,,,,,,,,,,,,,,,,,,,,,,,,,,,,,,,,,,,,,,,,,,,,,,,,,,,,,,,1.351,1060.8256962000014,None,None,1,1060.8256962000014,None,,P020,fencog,1,Pre,2021_Nov_09_1129,N-Back (New Version 2021),2021.1.4,120.03577067351709,
,,,,Conditions/Version_1/threeback(2)_v1.xlsx,New rule: Press 'space' when you see 3-back (i.e. the same letter as the one that appeared 3 letters ago.),P,space,,,,,,,,,0,6,6,6,0,6,6,6,,,,,,,,,,,,,,,,,,,,,,,,,,,,,,,,,,,,,,,,,,,,,,,,,,,,,,,,,,,,,,,,,,,,,1.7354,1064.575523899999,None,space,1,1064.575523899999,None,0.47160070000973064,P020,fencog,1,Pre,2021_Nov_09_1129,N-Back (New Version 2021),2021.1.4,120.03577067351709,
,,,,Conditions/Version_1/threeback(2)_v1.xlsx,New rule: Press 'space' when you see 3-back (i.e. the same letter as the one that appeared 3 letters ago.),a,None,,,,,,,,,0,6,6,6,0,7,7,7,,,,,,,,,,,,,,,,,,,,,,,,,,,,,,,,,,,,,,,,,,,,,,,,,,,,,,,,,,,,,,,,,,,,,1.382,1067.9647423999995,None,None,1,1067.9647423999995,None,,P020,fencog,1,Pre,2021_Nov_09_1129,N-Back (New Version 2021),2021.1.4,120.03577067351709,
,,,,Conditions/Version_1/threeback(2)_v1.xlsx,New rule: Press 'space' when you see 3-back (i.e. the same letter as the one that appeared 3 letters ago.),U,space,,,,,,,,,0,6,6,6,0,8,8,8,,,,,,,,,,,,,,,,,,,,,,,,,,,,,,,,,,,,,,,,,,,,,,,,,,,,,,,,,,,,,,,,,,,,,1.2394,1071.2162781999941,None,None,0,1071.2162781999941,None,,P020,fencog,1,Pre,2021_Nov_09_1129,N-Back (New Version 2021),2021.1.4,120.03577067351709,
,,,,Conditions/Version_1/threeback(2)_v1.xlsx,New rule: Press 'space' when you see 3-back (i.e. the same letter as the one that appeared 3 letters ago.),q,None,,,,,,,,,0,6,6,6,0,9,9,9,,,,,,,,,,,,,,,,,,,,,,,,,,,,,,,,,,,,,,,,,,,,,,,,,,,,,,,,,,,,,,,,,,,,,1.196,1074.421224699996,None,space,0,1074.421224699996,None,0.7380236000026343,P020,fencog,1,Pre,2021_Nov_09_1129,N-Back (New Version 2021),2021.1.4,120.03577067351709,
,,,,Conditions/Version_1/threeback(2)_v1.xlsx,New rule: Press 'space' when you see 3-back (i.e. the same letter as the one that appeared 3 letters ago.),,,,,,,,,,,0,6,6,6,,,,,,,,,,,,,,,,,,,,,,,,,,,,,,,,,,,,,,,,,,,,,,,,,,,,,,,,,,,,,,,,,,,,,,,,,,,,,,,,,P020,fencog,1,Pre,2021_Nov_09_1129,N-Back (New Version 2021),2021.1.4,120.03577067351709,
,,,,Conditions/Version_1/twoback(2)_v1.xlsx,New rule: Press 'space' when you see 2-back (i.e. the same letter as the one that appeared 2 letters ago.),q,None,,,,,,,,,0,7,7,7,0,0,0,0,,,,,,,,,,,,,,,,,,,,,,,,,,,,,,,,,,,,,,,,,,,,,,,,,,,,,,,,,,,1076.447016399994,None,1079.4301246999967,None,space,4.465252800000599,1079.4301246999967,None,1076.447016399994,None,1.9772,1085.901021800004,None,None,1,1085.901021800004,None,,P020,fencog,1,Pre,2021_Nov_09_1129,N-Back (New Version 2021),2021.1.4,120.03577067351709,
,,,,Conditions/Version_1/twoback(2)_v1.xlsx,New rule: Press 'space' when you see 2-back (i.e. the same letter as the one that appeared 2 letters ago.),r,None,,,,,,,,,0,7,7,7,0,1,1,1,,,,,,,,,,,,,,,,,,,,,,,,,,,,,,,,,,,,,,,,,,,,,,,,,,,,,,,,,,,,,,,,,,,,,1.382,1089.2835429999977,None,None,1,1089.2835429999977,None,,P020,fencog,1,Pre,2021_Nov_09_1129,N-Back (New Version 2021),2021.1.4,120.03577067351709,
,,,,Conditions/Version_1/twoback(2)_v1.xlsx,New rule: Press 'space' when you see 2-back (i.e. the same letter as the one that appeared 2 letters ago.),q,space,,,,,,,,,0,7,7,7,0,2,2,2,,,,,,,,,,,,,,,,,,,,,,,,,,,,,,,,,,,,,,,,,,,,,,,,,,,,,,,,,,,,,,,,,,,,,1.8346,1093.1240588999935,None,space,1,1093.1240588999935,None,0.5150979999889387,P020,fencog,1,Pre,2021_Nov_09_1129,N-Back (New Version 2021),2021.1.4,120.03577067351709,
,,,,Conditions/Version_1/twoback(2)_v1.xlsx,New rule: Press 'space' when you see 2-back (i.e. the same letter as the one that appeared 2 letters ago.),P,None,,,,,,,,,0,7,7,7,0,3,3,3,,,,,,,,,,,,,,,,,,,,,,,,,,,,,,,,,,,,,,,,,,,,,,,,,,,,,,,,,,,,,,,,,,,,,1.5556,1096.6813359999942,None,None,1,1096.6813359999942,None,,P020,fencog,1,Pre,2021_Nov_09_1129,N-Back (New Version 2021),2021.1.4,120.03577067351709,
,,,,Conditions/Version_1/twoback(2)_v1.xlsx,New rule: Press 'space' when you see 2-back (i.e. the same letter as the one that appeared 2 letters ago.),p,None,,,,,,,,,0,7,7,7,0,4,4,4,,,,,,,,,,,,,,,,,,,,,,,,,,,,,,,,,,,,,,,,,,,,,,,,,,,,,,,,,,,,,,,,,,,,,1.9338,1100.6134401000018,None,None,1,1100.6134401000018,None,,P020,fencog,1,Pre,2021_Nov_09_1129,N-Back (New Version 2021),2021.1.4,120.03577067351709,
,,,,Conditions/Version_1/twoback(2)_v1.xlsx,New rule: Press 'space' when you see 2-back (i.e. the same letter as the one that appeared 2 letters ago.),H,None,,,,,,,,,0,7,7,7,0,5,5,5,,,,,,,,,,,,,,,,,,,,,,,,,,,,,,,,,,,,,,,,,,,,,,,,,,,,,,,,,,,,,,,,,,,,,1.2518,1103.8713958000008,None,None,1,1103.8713958000008,None,,P020,fencog,1,Pre,2021_Nov_09_1129,N-Back (New Version 2021),2021.1.4,120.03577067351709,
,,,,Conditions/Version_1/twoback(2)_v1.xlsx,New rule: Press 'space' when you see 2-back (i.e. the same letter as the one that appeared 2 letters ago.),g,None,,,,,,,,,0,7,7,7,0,6,6,6,,,,,,,,,,,,,,,,,,,,,,,,,,,,,,,,,,,,,,,,,,,,,,,,,,,,,,,,,,,,,,,,,,,,,1.072,1106.9545030000008,None,None,1,1106.9545030000008,None,,P020,fencog,1,Pre,2021_Nov_09_1129,N-Back (New Version 2021),2021.1.4,120.03577067351709,
,,,,Conditions/Version_1/twoback(2)_v1.xlsx,New rule: Press 'space' when you see 2-back (i.e. the same letter as the one that appeared 2 letters ago.),j,None,,,,,,,,,0,7,7,7,0,7,7,7,,,,,,,,,,,,,,,,,,,,,,,,,,,,,,,,,,,,,,,,,,,,,,,,,,,,,,,,,,,,,,,,,,,,,1.1526,1110.1197410000023,None,None,1,1110.1197410000023,None,,P020,fencog,1,Pre,2021_Nov_09_1129,N-Back (New Version 2021),2021.1.4,120.03577067351709,
,,,,Conditions/Version_1/twoback(2)_v1.xlsx,New rule: Press 'space' when you see 2-back (i.e. the same letter as the one that appeared 2 letters ago.),g,space,,,,,,,,,0,7,7,7,0,8,8,8,,,,,,,,,,,,,,,,,,,,,,,,,,,,,,,,,,,,,,,,,,,,,,,,,,,,,,,,,,,,,,,,,,,,,1.816,1113.9431452999997,None,space,1,1113.9431452999997,None,0.5362078000034671,P020,fencog,1,Pre,2021_Nov_09_1129,N-Back (New Version 2021),2021.1.4,120.03577067351709,
,,,,Conditions/Version_1/twoback(2)_v1.xlsx,New rule: Press 'space' when you see 2-back (i.e. the same letter as the one that appeared 2 letters ago.),G,None,,,,,,,,,0,7,7,7,0,9,9,9,,,,,,,,,,,,,,,,,,,,,,,,,,,,,,,,,,,,,,,,,,,,,,,,,,,,,,,,,,,,,,,,,,,,,1.5122,1117.458363400001,None,None,1,1117.458363400001,None,,P020,fencog,1,Pre,2021_Nov_09_1129,N-Back (New Version 2021),2021.1.4,120.03577067351709,
,,,,Conditions/Version_1/twoback(2)_v1.xlsx,New rule: Press 'space' when you see 2-back (i.e. the same letter as the one that appeared 2 letters ago.),,,,,,,,,,,0,7,7,7,,,,,,,,,,,,,,,,,,,,,,,,,,,,,,,,,,,,,,,,,,,,,,,,,,,,,,,,,,,,,,,,,,,,,,,,,,,,,,,,,P020,fencog,1,Pre,2021_Nov_09_1129,N-Back (New Version 2021),2021.1.4,120.03577067351709,
,,,,Conditions/Version_1/threeback(3)_v1.xlsx,New rule: Press 'space' when you see 3-back (i.e. the same letter as the one that appeared 3 letters ago.),w,None,,,,,,,,,0,8,8,8,0,0,0,0,,,,,,,,,,,,,,,,,,,,,,,,,,,,,,,,,,,,,,,,,,,,,,,,,,,,,,,,,,,1119.4823130000004,None,1122.4692457000056,None,space,7.905787800002145,1122.4692457000056,None,1119.4823130000004,None,1.5122,1131.913483700002,None,None,1,1131.913483700002,None,,P020,fencog,1,Pre,2021_Nov_09_1129,N-Back (New Version 2021),2021.1.4,120.03577067351709,
,,,,Conditions/Version_1/threeback(3)_v1.xlsx,New rule: Press 'space' when you see 3-back (i.e. the same letter as the one that appeared 3 letters ago.),p,None,,,,,,,,,0,8,8,8,0,1,1,1,,,,,,,,,,,,,,,,,,,,,,,,,,,,,,,,,,,,,,,,,,,,,,,,,,,,,,,,,,,,,,,,,,,,,1.8222,1135.7454704999982,None,None,1,1135.7454704999982,None,,P020,fencog,1,Pre,2021_Nov_09_1129,N-Back (New Version 2021),2021.1.4,120.03577067351709,
,,,,Conditions/Version_1/threeback(3)_v1.xlsx,New rule: Press 'space' when you see 3-back (i.e. the same letter as the one that appeared 3 letters ago.),P,None,,,,,,,,,0,8,8,8,0,2,2,2,,,,,,,,,,,,,,,,,,,,,,,,,,,,,,,,,,,,,,,,,,,,,,,,,,,,,,,,,,,,,,,,,,,,,1.3014,1139.0604055000003,None,None,1,1139.0604055000003,None,,P020,fencog,1,Pre,2021_Nov_09_1129,N-Back (New Version 2021),2021.1.4,120.03577067351709,
,,,,Conditions/Version_1/threeback(3)_v1.xlsx,New rule: Press 'space' when you see 3-back (i.e. the same letter as the one that appeared 3 letters ago.),i,None,,,,,,,,,0,8,8,8,0,3,3,3,,,,,,,,,,,,,,,,,,,,,,,,,,,,,,,,,,,,,,,,,,,,,,,,,,,,,,,,,,,,,,,,,,,,,1.5246,1142.586926200005,None,None,1,1142.586926200005,None,,P020,fencog,1,Pre,2021_Nov_09_1129,N-Back (New Version 2021),2021.1.4,120.03577067351709,
,,,,Conditions/Version_1/threeback(3)_v1.xlsx,New rule: Press 'space' when you see 3-back (i.e. the same letter as the one that appeared 3 letters ago.),f,None,,,,,,,,,0,8,8,8,0,4,4,4,,,,,,,,,,,,,,,,,,,,,,,,,,,,,,,,,,,,,,,,,,,,,,,,,,,,,,,,,,,,,,,,,,,,,1.0968,1145.6925726000045,None,None,1,1145.6925726000045,None,,P020,fencog,1,Pre,2021_Nov_09_1129,N-Back (New Version 2021),2021.1.4,120.03577067351709,
,,,,Conditions/Version_1/threeback(3)_v1.xlsx,New rule: Press 'space' when you see 3-back (i.e. the same letter as the one that appeared 3 letters ago.),o,None,,,,,,,,,0,8,8,8,0,5,5,5,,,,,,,,,,,,,,,,,,,,,,,,,,,,,,,,,,,,,,,,,,,,,,,,,,,,,,,,,,,,,,,,,,,,,1.7788,1149.4743457000004,None,None,1,1149.4743457000004,None,,P020,fencog,1,Pre,2021_Nov_09_1129,N-Back (New Version 2021),2021.1.4,120.03577067351709,
,,,,Conditions/Version_1/threeback(3)_v1.xlsx,New rule: Press 'space' when you see 3-back (i.e. the same letter as the one that appeared 3 letters ago.),w,None,,,,,,,,,0,8,8,8,0,6,6,6,,,,,,,,,,,,,,,,,,,,,,,,,,,,,,,,,,,,,,,,,,,,,,,,,,,,,,,,,,,,,,,,,,,,,1.3634,1152.8414467999974,None,space,0,1152.8414467999974,None,0.8857085000054212,P020,fencog,1,Pre,2021_Nov_09_1129,N-Back (New Version 2021),2021.1.4,120.03577067351709,
,,,,Conditions/Version_1/threeback(3)_v1.xlsx,New rule: Press 'space' when you see 3-back (i.e. the same letter as the one that appeared 3 letters ago.),F,space,,,,,,,,,0,8,8,8,0,7,7,7,,,,,,,,,,,,,,,,,,,,,,,,,,,,,,,,,,,,,,,,,,,,,,,,,,,,,,,,,,,,,,,,,,,,,1.8842,1156.7385830999992,None,None,0,1156.7385830999992,None,,P020,fencog,1,Pre,2021_Nov_09_1129,N-Back (New Version 2021),2021.1.4,120.03577067351709,
,,,,Conditions/Version_1/threeback(3)_v1.xlsx,New rule: Press 'space' when you see 3-back (i.e. the same letter as the one that appeared 3 letters ago.),p,None,,,,,,,,,0,8,8,8,0,8,8,8,,,,,,,,,,,,,,,,,,,,,,,,,,,,,,,,,,,,,,,,,,,,,,,,,,,,,,,,,,,,,,,,,,,,,1.0534,1159.7958046999993,None,None,1,1159.7958046999993,None,,P020,fencog,1,Pre,2021_Nov_09_1129,N-Back (New Version 2021),2021.1.4,120.03577067351709,
,,,,Conditions/Version_1/threeback(3)_v1.xlsx,New rule: Press 'space' when you see 3-back (i.e. the same letter as the one that appeared 3 letters ago.),W,space,,,,,,,,,0,8,8,8,0,9,9,9,,,,,,,,,,,,,,,,,,,,,,,,,,,,,,,,,,,,,,,,,,,,,,,,,,,,,,,,,,,,,,,,,,,,,1.723,1163.5208781999972,None,space,1,1163.5208781999972,None,0.8142979999975068,P020,fencog,1,Pre,2021_Nov_09_1129,N-Back (New Version 2021),2021.1.4,120.03577067351709,
,,,,Conditions/Version_1/threeback(3)_v1.xlsx,New rule: Press 'space' when you see 3-back (i.e. the same letter as the one that appeared 3 letters ago.),,,,,,,,,,,0,8,8,8,,,,,,,,,,,,,,,,,,,,,,,,,,,,,,,,,,,,,,,,,,,,,,,,,,,,,,,,,,,,,,,,,,,,,,,,,,,,,,,,,P020,fencog,1,Pre,2021_Nov_09_1129,N-Back (New Version 2021),2021.1.4,120.03577067351709,
,,,,Conditions/Version_1/zeroback(3)_v1.xlsx,New rule: Press 'space' when you see the letter 'x' or 'X'.,X,space,,,,,,,,,0,9,9,9,0,0,0,0,,,,,,,,,,,,,,,,,,,,,,,,,,,,,,,,,,,,,,,,,,,,,,,,,,,,,,,,,,,1165.5468084000022,None,1168.5298808999942,None,space,0.3972570000041742,1168.5298808999942,None,1165.5468084000022,None,1.8408,1170.7931371000013,None,space,1,1170.7931371000013,None,0.5020828999986406,P020,fencog,1,Pre,2021_Nov_09_1129,N-Back (New Version 2021),2021.1.4,120.03577067351709,
,,,,Conditions/Version_1/zeroback(3)_v1.xlsx,New rule: Press 'space' when you see the letter 'x' or 'X'.,B,None,,,,,,,,,0,9,9,9,0,1,1,1,,,,,,,,,,,,,,,,,,,,,,,,,,,,,,,,,,,,,,,,,,,,,,,,,,,,,,,,,,,,,,,,,,,,,1.7044,1174.5023715999996,None,None,1,1174.5023715999996,None,,P020,fencog,1,Pre,2021_Nov_09_1129,N-Back (New Version 2021),2021.1.4,120.03577067351709,
,,,,Conditions/Version_1/zeroback(3)_v1.xlsx,New rule: Press 'space' when you see the letter 'x' or 'X'.,m,None,,,,,,,,,0,9,9,9,0,2,2,2,,,,,,,,,,,,,,,,,,,,,,,,,,,,,,,,,,,,,,,,,,,,,,,,,,,,,,,,,,,,,,,,,,,,,1.2146,1177.7263205000054,None,None,1,1177.7263205000054,None,,P020,fencog,1,Pre,2021_Nov_09_1129,N-Back (New Version 2021),2021.1.4,120.03577067351709,
,,,,Conditions/Version_1/zeroback(3)_v1.xlsx,New rule: Press 'space' when you see the letter 'x' or 'X'.,m,None,,,,,,,,,0,9,9,9,0,3,3,3,,,,,,,,,,,,,,,,,,,,,,,,,,,,,,,,,,,,,,,,,,,,,,,,,,,,,,,,,,,,,,,,,,,,,1.6796,1181.4146442000056,None,None,1,1181.4146442000056,None,,P020,fencog,1,Pre,2021_Nov_09_1129,N-Back (New Version 2021),2021.1.4,120.03577067351709,
,,,,Conditions/Version_1/zeroback(3)_v1.xlsx,New rule: Press 'space' when you see the letter 'x' or 'X'.,o,None,,,,,,,,,0,9,9,9,0,4,4,4,,,,,,,,,,,,,,,,,,,,,,,,,,,,,,,,,,,,,,,,,,,,,,,,,,,,,,,,,,,,,,,,,,,,,1.785,1185.2055236000015,None,None,1,1185.2055236000015,None,,P020,fencog,1,Pre,2021_Nov_09_1129,N-Back (New Version 2021),2021.1.4,120.03577067351709,
,,,,Conditions/Version_1/zeroback(3)_v1.xlsx,New rule: Press 'space' when you see the letter 'x' or 'X'.,p,None,,,,,,,,,0,9,9,9,0,5,5,5,,,,,,,,,,,,,,,,,,,,,,,,,,,,,,,,,,,,,,,,,,,,,,,,,,,,,,,,,,,,,,,,,,,,,1.8532,1189.0622046000062,None,None,1,1189.0622046000062,None,,P020,fencog,1,Pre,2021_Nov_09_1129,N-Back (New Version 2021),2021.1.4,120.03577067351709,
,,,,Conditions/Version_1/zeroback(3)_v1.xlsx,New rule: Press 'space' when you see the letter 'x' or 'X'.,G,None,,,,,,,,,0,9,9,9,0,6,6,6,,,,,,,,,,,,,,,,,,,,,,,,,,,,,,,,,,,,,,,,,,,,,,,,,,,,,,,,,,,,,,,,,,,,,1.2642,1192.336495399999,None,None,1,1192.336495399999,None,,P020,fencog,1,Pre,2021_Nov_09_1129,N-Back (New Version 2021),2021.1.4,120.03577067351709,
,,,,Conditions/Version_1/zeroback(3)_v1.xlsx,New rule: Press 'space' when you see the letter 'x' or 'X'.,X,space,,,,,,,,,0,9,9,9,0,7,7,7,,,,,,,,,,,,,,,,,,,,,,,,,,,,,,,,,,,,,,,,,,,,,,,,,,,,,,,,,,,,,,,,,,,,,1.661,1196.0025311000063,None,space,1,1196.0025311000063,None,0.35665299999527633,P020,fencog,1,Pre,2021_Nov_09_1129,N-Back (New Version 2021),2021.1.4,120.03577067351709,
,,,,Conditions/Version_1/zeroback(3)_v1.xlsx,New rule: Press 'space' when you see the letter 'x' or 'X'.,p,None,,,,,,,,,0,9,9,9,0,8,8,8,,,,,,,,,,,,,,,,,,,,,,,,,,,,,,,,,,,,,,,,,,,,,,,,,,,,,,,,,,,,,,,,,,,,,1.2766,1199.2926859,None,None,1,1199.2926859,None,,P020,fencog,1,Pre,2021_Nov_09_1129,N-Back (New Version 2021),2021.1.4,120.03577067351709,
,,,,Conditions/Version_1/zeroback(3)_v1.xlsx,New rule: Press 'space' when you see the letter 'x' or 'X'.,x,space,,,,,,,,,0,9,9,9,0,9,9,9,,,,,,,,,,,,,,,,,,,,,,,,,,,,,,,,,,,,,,,,,,,,,,,,,,,,,,,,,,,,,,,,,,,,,1.0286,1202.3255771999975,None,space,1,1202.3255771999975,None,0.3933469000039622,P020,fencog,1,Pre,2021_Nov_09_1129,N-Back (New Version 2021),2021.1.4,120.03577067351709,
,,,,Conditions/Version_1/zeroback(3)_v1.xlsx,New rule: Press 'space' when you see the letter 'x' or 'X'.,,,,,,,,,,,0,9,9,9,,,,,,,,,,,,,,,,,,,,,,,,,,,,,,,,,,,,,,,,,,,,,,,,,,,,,,,,,,,,,,,,,,,,,,,,,,,,,,,,,P020,fencog,1,Pre,2021_Nov_09_1129,N-Back (New Version 2021),2021.1.4,120.03577067351709,
,,,,Conditions/Version_1/twoback(3)_v1.xlsx,New rule: Press 'space' when you see 2-back (i.e. the same letter as the one that appeared 2 letters ago.),e,None,,,,,,,,,0,10,10,10,0,0,0,0,,,,,,,,,,,,,,,,,,,,,,,,,,,,,,,,,,,,,,,,,,,,,,,,,,,,,,,,,,,1204.3465397999971,None,1207.3335899999947,None,space,8.513581999999587,1207.3335899999947,None,1204.3465397999971,None,1.4502,1217.321241800004,None,None,1,1217.321241800004,None,,P020,fencog,1,Pre,2021_Nov_09_1129,N-Back (New Version 2021),2021.1.4,120.03577067351709,
,,,,Conditions/Version_1/twoback(3)_v1.xlsx,New rule: Press 'space' when you see 2-back (i.e. the same letter as the one that appeared 2 letters ago.),o,None,,,,,,,,,0,10,10,10,0,1,1,1,,,,,,,,,,,,,,,,,,,,,,,,,,,,,,,,,,,,,,,,,,,,,,,,,,,,,,,,,,,,,,,,,,,,,1.7044,1221.0361293000024,None,None,1,1221.0361293000024,None,,P020,fencog,1,Pre,2021_Nov_09_1129,N-Back (New Version 2021),2021.1.4,120.03577067351709,
,,,,Conditions/Version_1/twoback(3)_v1.xlsx,New rule: Press 'space' when you see 2-back (i.e. the same letter as the one that appeared 2 letters ago.),P,None,,,,,,,,,0,10,10,10,0,2,2,2,,,,,,,,,,,,,,,,,,,,,,,,,,,,,,,,,,,,,,,,,,,,,,,,,,,,,,,,,,,,,,,,,,,,,1.6052,1224.6439353000023,None,None,1,1224.6439353000023,None,,P020,fencog,1,Pre,2021_Nov_09_1129,N-Back (New Version 2021),2021.1.4,120.03577067351709,
,,,,Conditions/Version_1/twoback(3)_v1.xlsx,New rule: Press 'space' when you see 2-back (i.e. the same letter as the one that appeared 2 letters ago.),z,None,,,,,,,,,0,10,10,10,0,3,3,3,,,,,,,,,,,,,,,,,,,,,,,,,,,,,,,,,,,,,,,,,,,,,,,,,,,,,,,,,,,,,,,,,,,,,1.444,1228.1026470999932,None,None,1,1228.1026470999932,None,,P020,fencog,1,Pre,2021_Nov_09_1129,N-Back (New Version 2021),2021.1.4,120.03577067351709,
,,,,Conditions/Version_1/twoback(3)_v1.xlsx,New rule: Press 'space' when you see 2-back (i.e. the same letter as the one that appeared 2 letters ago.),X,None,,,,,,,,,0,10,10,10,0,4,4,4,,,,,,,,,,,,,,,,,,,,,,,,,,,,,,,,,,,,,,,,,,,,,,,,,,,,,,,,,,,,,,,,,,,,,1.1836,1231.2922757000051,None,None,1,1231.2922757000051,None,,P020,fencog,1,Pre,2021_Nov_09_1129,N-Back (New Version 2021),2021.1.4,120.03577067351709,
,,,,Conditions/Version_1/twoback(3)_v1.xlsx,New rule: Press 'space' when you see 2-back (i.e. the same letter as the one that appeared 2 letters ago.),z,space,,,,,,,,,0,10,10,10,0,5,5,5,,,,,,,,,,,,,,,,,,,,,,,,,,,,,,,,,,,,,,,,,,,,,,,,,,,,,,,,,,,,,,,,,,,,,1.1526,1234.4629585999937,None,space,1,1234.4629585999937,None,0.48827290000917856,P020,fencog,1,Pre,2021_Nov_09_1129,N-Back (New Version 2021),2021.1.4,120.03577067351709,
,,,,Conditions/Version_1/twoback(3)_v1.xlsx,New rule: Press 'space' when you see 2-back (i.e. the same letter as the one that appeared 2 letters ago.),x,space,,,,,,,,,0,10,10,10,0,6,6,6,,,,,,,,,,,,,,,,,,,,,,,,,,,,,,,,,,,,,,,,,,,,,,,,,,,,,,,,,,,,,,,,,,,,,1.9462,1238.4147845999978,None,space,1,1238.4147845999978,None,0.6965025999961654,P020,fencog,1,Pre,2021_Nov_09_1129,N-Back (New Version 2021),2021.1.4,120.03577067351709,
,,,,Conditions/Version_1/twoback(3)_v1.xlsx,New rule: Press 'space' when you see 2-back (i.e. the same letter as the one that appeared 2 letters ago.),c,None,,,,,,,,,0,10,10,10,0,7,7,7,,,,,,,,,,,,,,,,,,,,,,,,,,,,,,,,,,,,,,,,,,,,,,,,,,,,,,,,,,,,,,,,,,,,,1.6734,1242.0967523,None,None,1,1242.0967523,None,,P020,fencog,1,Pre,2021_Nov_09_1129,N-Back (New Version 2021),2021.1.4,120.03577067351709,
,,,,Conditions/Version_1/twoback(3)_v1.xlsx,New rule: Press 'space' when you see 2-back (i.e. the same letter as the one that appeared 2 letters ago.),i,None,,,,,,,,,0,10,10,10,0,8,8,8,,,,,,,,,,,,,,,,,,,,,,,,,,,,,,,,,,,,,,,,,,,,,,,,,,,,,,,,,,,,,,,,,,,,,1.971,1246.0712607000023,None,None,1,1246.0712607000023,None,,P020,fencog,1,Pre,2021_Nov_09_1129,N-Back (New Version 2021),2021.1.4,120.03577067351709,
,,,,Conditions/Version_1/twoback(3)_v1.xlsx,New rule: Press 'space' when you see 2-back (i.e. the same letter as the one that appeared 2 letters ago.),C,space,,,,,,,,,0,10,10,10,0,9,9,9,,,,,,,,,,,,,,,,,,,,,,,,,,,,,,,,,,,,,,,,,,,,,,,,,,,,,,,,,,,,,,,,,,,,,1.8842,1249.9702270999987,None,None,0,1249.9702270999987,None,,P020,fencog,1,Pre,2021_Nov_09_1129,N-Back (New Version 2021),2021.1.4,120.03577067351709,
,,,,Conditions/Version_1/twoback(3)_v1.xlsx,New rule: Press 'space' when you see 2-back (i.e. the same letter as the one that appeared 2 letters ago.),,,,,,,,,,,0,10,10,10,,,,,,,,,,,,,,,,,,,,,,,,,,,,,,,,,,,,,,,,,,,,,,,,,,,,,,,,,,,,,,,,,,,,,,,,,,,,,,,,,P020,fencog,1,Pre,2021_Nov_09_1129,N-Back (New Version 2021),2021.1.4,120.03577067351709,
,,,,Conditions/Version_1/oneback(3)_v1.xlsx,New rule: Press 'space' when you see 1-back (i.e. the same letter as the one that appeared 1 letter ago.),o,None,,,,,,,,,0,11,11,11,0,0,0,0,,,,,,,,,,,,,,,,,,,,,,,,,,,,,,,,,,,,,,,,,,,,,,,,,,,,,,,,,,,1251.995053599996,None,1254.9791074999957,None,space,0.508001800000784,1254.9791074999957,None,1251.995053599996,None,1.3944,1256.9188373999932,None,None,1,1256.9188373999932,None,,P020,fencog,1,Pre,2021_Nov_09_1129,N-Back (New Version 2021),2021.1.4,120.03577067351709,
,,,,Conditions/Version_1/oneback(3)_v1.xlsx,New rule: Press 'space' when you see 1-back (i.e. the same letter as the one that appeared 1 letter ago.),O,space,,,,,,,,,0,11,11,11,0,1,1,1,,,,,,,,,,,,,,,,,,,,,,,,,,,,,,,,,,,,,,,,,,,,,,,,,,,,,,,,,,,,,,,,,,,,,1.6424,1260.5754417999997,None,space,1,1260.5754417999997,None,0.5755861000070581,P020,fencog,1,Pre,2021_Nov_09_1129,N-Back (New Version 2021),2021.1.4,120.03577067351709,
,,,,Conditions/Version_1/oneback(3)_v1.xlsx,New rule: Press 'space' when you see 1-back (i.e. the same letter as the one that appeared 1 letter ago.),h,None,,,,,,,,,0,11,11,11,0,2,2,2,,,,,,,,,,,,,,,,,,,,,,,,,,,,,,,,,,,,,,,,,,,,,,,,,,,,,,,,,,,,,,,,,,,,,1.878,1264.4649124999996,None,None,1,1264.4649124999996,None,,P020,fencog,1,Pre,2021_Nov_09_1129,N-Back (New Version 2021),2021.1.4,120.03577067351709,
,,,,Conditions/Version_1/oneback(3)_v1.xlsx,New rule: Press 'space' when you see 1-back (i.e. the same letter as the one that appeared 1 letter ago.),g,None,,,,,,,,,0,11,11,11,0,3,3,3,,,,,,,,,,,,,,,,,,,,,,,,,,,,,,,,,,,,,,,,,,,,,,,,,,,,,,,,,,,,,,,,,,,,,1.6238,1268.0900258000038,None,None,1,1268.0900258000038,None,,P020,fencog,1,Pre,2021_Nov_09_1129,N-Back (New Version 2021),2021.1.4,120.03577067351709,
,,,,Conditions/Version_1/oneback(3)_v1.xlsx,New rule: Press 'space' when you see 1-back (i.e. the same letter as the one that appeared 1 letter ago.),n,None,,,,,,,,,0,11,11,11,0,4,4,4,,,,,,,,,,,,,,,,,,,,,,,,,,,,,,,,,,,,,,,,,,,,,,,,,,,,,,,,,,,,,,,,,,,,,1.382,1271.4802326000063,None,None,1,1271.4802326000063,None,,P020,fencog,1,Pre,2021_Nov_09_1129,N-Back (New Version 2021),2021.1.4,120.03577067351709,
,,,,Conditions/Version_1/oneback(3)_v1.xlsx,New rule: Press 'space' when you see 1-back (i.e. the same letter as the one that appeared 1 letter ago.),z,None,,,,,,,,,0,11,11,11,0,5,5,5,,,,,,,,,,,,,,,,,,,,,,,,,,,,,,,,,,,,,,,,,,,,,,,,,,,,,,,,,,,,,,,,,,,,,1.5556,1275.049522500005,None,None,1,1275.049522500005,None,,P020,fencog,1,Pre,2021_Nov_09_1129,N-Back (New Version 2021),2021.1.4,120.03577067351709,
,,,,Conditions/Version_1/oneback(3)_v1.xlsx,New rule: Press 'space' when you see 1-back (i.e. the same letter as the one that appeared 1 letter ago.),X,None,,,,,,,,,0,11,11,11,0,6,6,6,,,,,,,,,,,,,,,,,,,,,,,,,,,,,,,,,,,,,,,,,,,,,,,,,,,,,,,,,,,,,,,,,,,,,1.103,1278.199553700004,None,None,1,1278.199553700004,None,,P020,fencog,1,Pre,2021_Nov_09_1129,N-Back (New Version 2021),2021.1.4,120.03577067351709,
,,,,Conditions/Version_1/oneback(3)_v1.xlsx,New rule: Press 'space' when you see 1-back (i.e. the same letter as the one that appeared 1 letter ago.),r,None,,,,,,,,,0,11,11,11,0,7,7,7,,,,,,,,,,,,,,,,,,,,,,,,,,,,,,,,,,,,,,,,,,,,,,,,,,,,,,,,,,,,,,,,,,,,,1.6176,1281.7947817999957,None,None,1,1281.7947817999957,None,,P020,fencog,1,Pre,2021_Nov_09_1129,N-Back (New Version 2021),2021.1.4,120.03577067351709,
,,,,Conditions/Version_1/oneback(3)_v1.xlsx,New rule: Press 'space' when you see 1-back (i.e. the same letter as the one that appeared 1 letter ago.),r,space,,,,,,,,,0,11,11,11,0,8,8,8,,,,,,,,,,,,,,,,,,,,,,,,,,,,,,,,,,,,,,,,,,,,,,,,,,,,,,,,,,,,,,,,,,,,,1.4626,1285.2671145000058,None,space,1,1285.2671145000058,None,0.5639978999970481,P020,fencog,1,Pre,2021_Nov_09_1129,N-Back (New Version 2021),2021.1.4,120.03577067351709,
,,,,Conditions/Version_1/oneback(3)_v1.xlsx,New rule: Press 'space' when you see 1-back (i.e. the same letter as the one that appeared 1 letter ago.),P,None,,,,,,,,,0,11,11,11,0,9,9,9,,,,,,,,,,,,,,,,,,,,,,,,,,,,,,,,,,,,,,,,,,,,,,,,,,,,,,,,,,,,,,,,,,,,,1.2828,1288.551939500001,None,None,1,1288.551939500001,None,,P020,fencog,1,Pre,2021_Nov_09_1129,N-Back (New Version 2021),2021.1.4,120.03577067351709,
,,,,Conditions/Version_1/oneback(3)_v1.xlsx,New rule: Press 'space' when you see 1-back (i.e. the same letter as the one that appeared 1 letter ago.),,,,,,,,,,,0,11,11,11,,,,,,,,,,,,,,,,,,,,,,,,,,,,,,,,,,,,,,,,,,,,,,,,,,,,,,,,,,,,,,,,,,,,,,,,,,,,,,,,,P020,fencog,1,Pre,2021_Nov_09_1129,N-Back (New Version 2021),2021.1.4,120.03577067351709,
,,,,Conditions/Version_1/twoback(4)_v1.xlsx,New rule: Press 'space' when you see 2-back (i.e. the same letter as the one that appeared 2 letters ago.),r,None,,,,,,,,,0,12,12,12,0,0,0,0,,,,,,,,,,,,,,,,,,,,,,,,,,,,,,,,,,,,,,,,,,,,,,,,,,,,,,,,,,,1290.5774124000018,None,1293.5670353000023,None,space,4.903975699999137,1293.5670353000023,None,1290.5774124000018,None,1.5432,1300.0461133000063,None,None,1,1300.0461133000063,None,,P020,fencog,1,Pre,2021_Nov_09_1129,N-Back (New Version 2021),2021.1.4,120.03577067351709,
,,,,Conditions/Version_1/twoback(4)_v1.xlsx,New rule: Press 'space' when you see 2-back (i.e. the same letter as the one that appeared 2 letters ago.),T,None,,,,,,,,,0,12,12,12,0,1,1,1,,,,,,,,,,,,,,,,,,,,,,,,,,,,,,,,,,,,,,,,,,,,,,,,,,,,,,,,,,,,,,,,,,,,,1.9958,1304.0449651999952,None,None,1,1304.0449651999952,None,,P020,fencog,1,Pre,2021_Nov_09_1129,N-Back (New Version 2021),2021.1.4,120.03577067351709,
,,,,Conditions/Version_1/twoback(4)_v1.xlsx,New rule: Press 'space' when you see 2-back (i.e. the same letter as the one that appeared 2 letters ago.),o,None,,,,,,,,,0,12,12,12,0,2,2,2,,,,,,,,,,,,,,,,,,,,,,,,,,,,,,,,,,,,,,,,,,,,,,,,,,,,,,,,,,,,,,,,,,,,,1.2394,1307.2857019999938,None,None,1,1307.2857019999938,None,,P020,fencog,1,Pre,2021_Nov_09_1129,N-Back (New Version 2021),2021.1.4,120.03577067351709,
,,,,Conditions/Version_1/twoback(4)_v1.xlsx,New rule: Press 'space' when you see 2-back (i.e. the same letter as the one that appeared 2 letters ago.),p,None,,,,,,,,,0,12,12,12,0,3,3,3,,,,,,,,,,,,,,,,,,,,,,,,,,,,,,,,,,,,,,,,,,,,,,,,,,,,,,,,,,,,,,,,,,,,,1.5928,1310.8846342000033,None,None,1,1310.8846342000033,None,,P020,fencog,1,Pre,2021_Nov_09_1129,N-Back (New Version 2021),2021.1.4,120.03577067351709,
,,,,Conditions/Version_1/twoback(4)_v1.xlsx,New rule: Press 'space' when you see 2-back (i.e. the same letter as the one that appeared 2 letters ago.),p,None,,,,,,,,,0,12,12,12,0,4,4,4,,,,,,,,,,,,,,,,,,,,,,,,,,,,,,,,,,,,,,,,,,,,,,,,,,,,,,,,,,,,,,,,,,,,,1.1216,1314.0100596999982,None,None,1,1314.0100596999982,None,,P020,fencog,1,Pre,2021_Nov_09_1129,N-Back (New Version 2021),2021.1.4,120.03577067351709,
,,,,Conditions/Version_1/twoback(4)_v1.xlsx,New rule: Press 'space' when you see 2-back (i.e. the same letter as the one that appeared 2 letters ago.),y,None,,,,,,,,,0,12,12,12,0,5,5,5,,,,,,,,,,,,,,,,,,,,,,,,,,,,,,,,,,,,,,,,,,,,,,,,,,,,,,,,,,,,,,,,,,,,,1.6548,1317.6792268999998,None,None,1,1317.6792268999998,None,,P020,fencog,1,Pre,2021_Nov_09_1129,N-Back (New Version 2021),2021.1.4,120.03577067351709,
,,,,Conditions/Version_1/twoback(4)_v1.xlsx,New rule: Press 'space' when you see 2-back (i.e. the same letter as the one that appeared 2 letters ago.),P,space,,,,,,,,,0,12,12,12,0,6,6,6,,,,,,,,,,,,,,,,,,,,,,,,,,,,,,,,,,,,,,,,,,,,,,,,,,,,,,,,,,,,,,,,,,,,,1.5742,1321.2591664999927,None,space,1,1321.2591664999927,None,0.5238529000052949,P020,fencog,1,Pre,2021_Nov_09_1129,N-Back (New Version 2021),2021.1.4,120.03577067351709,
,,,,Conditions/Version_1/twoback(4)_v1.xlsx,New rule: Press 'space' when you see 2-back (i.e. the same letter as the one that appeared 2 letters ago.),y,None,,,,,,,,,0,12,12,12,0,7,7,7,,,,,,,,,,,,,,,,,,,,,,,,,,,,,,,,,,,,,,,,,,,,,,,,,,,,,,,,,,,,,,,,,,,,,1.4626,1324.730779999998,None,space,0,1324.730779999998,None,0.44411810000019614,P020,fencog,1,Pre,2021_Nov_09_1129,N-Back (New Version 2021),2021.1.4,120.03577067351709,
,,,,Conditions/Version_1/twoback(4)_v1.xlsx,New rule: Press 'space' when you see 2-back (i.e. the same letter as the one that appeared 2 letters ago.),y,space,,,,,,,,,0,12,12,12,0,8,8,8,,,,,,,,,,,,,,,,,,,,,,,,,,,,,,,,,,,,,,,,,,,,,,,,,,,,,,,,,,,,,,,,,,,,,1.4192,1328.1546418999933,None,None,0,1328.1546418999933,None,,P020,fencog,1,Pre,2021_Nov_09_1129,N-Back (New Version 2021),2021.1.4,120.03577067351709,
,,,,Conditions/Version_1/twoback(4)_v1.xlsx,New rule: Press 'space' when you see 2-back (i.e. the same letter as the one that appeared 2 letters ago.),,,,,,,,,,,0,12,12,12,,,,,,,,,,,,,,,,,,,,,,,,,,,,,,,,,,,,,,,,,,,,,,,,,,,,,,,,,,,,,,,,,,,,,,,,,,,,,,,,,P020,fencog,1,Pre,2021_Nov_09_1129,N-Back (New Version 2021),2021.1.4,120.03577067351709,
,,,,Conditions/Version_1/zeroback(4)_v1.xlsx,New rule: Press 'space' when you see the letter 'x' or 'X'.,o,None,,,,,,,,,0,13,13,13,0,0,0,0,,,,,,,,,,,,,,,,,,,,,,,,,,,,,,,,,,,,,,,,,,,,,,,,,,,,,,,,,,,1330.1722732000053,None,1333.155146399993,None,space,0.34797899999830406,1333.155146399993,None,1330.1722732000053,None,1.9214,1335.4554250999936,None,None,1,1335.4554250999936,None,,P020,fencog,1,Pre,2021_Nov_09_1129,N-Back (New Version 2021),2021.1.4,120.03577067351709,
,,,,Conditions/Version_1/zeroback(4)_v1.xlsx,New rule: Press 'space' when you see the letter 'x' or 'X'.,X,space,,,,,,,,,0,13,13,13,0,1,1,1,,,,,,,,,,,,,,,,,,,,,,,,,,,,,,,,,,,,,,,,,,,,,,,,,,,,,,,,,,,,,,,,,,,,,1.7788,1339.2432449000044,None,space,1,1339.2432449000044,None,0.5157467999961227,P020,fencog,1,Pre,2021_Nov_09_1129,N-Back (New Version 2021),2021.1.4,120.03577067351709,
,,,,Conditions/Version_1/zeroback(4)_v1.xlsx,New rule: Press 'space' when you see the letter 'x' or 'X'.,p,None,,,,,,,,,0,13,13,13,0,2,2,2,,,,,,,,,,,,,,,,,,,,,,,,,,,,,,,,,,,,,,,,,,,,,,,,,,,,,,,,,,,,,,,,,,,,,1.4688,1342.7169265999983,None,None,1,1342.7169265999983,None,,P020,fencog,1,Pre,2021_Nov_09_1129,N-Back (New Version 2021),2021.1.4,120.03577067351709,
,,,,Conditions/Version_1/zeroback(4)_v1.xlsx,New rule: Press 'space' when you see the letter 'x' or 'X'.,m,None,,,,,,,,,0,13,13,13,0,3,3,3,,,,,,,,,,,,,,,,,,,,,,,,,,,,,,,,,,,,,,,,,,,,,,,,,,,,,,,,,,,,,,,,,,,,,1.506,1346.2262478000048,None,None,1,1346.2262478000048,None,,P020,fencog,1,Pre,2021_Nov_09_1129,N-Back (New Version 2021),2021.1.4,120.03577067351709,
,,,,Conditions/Version_1/zeroback(4)_v1.xlsx,New rule: Press 'space' when you see the letter 'x' or 'X'.,n,None,,,,,,,,,0,13,13,13,0,4,4,4,,,,,,,,,,,,,,,,,,,,,,,,,,,,,,,,,,,,,,,,,,,,,,,,,,,,,,,,,,,,,,,,,,,,,1.94,1350.1729431999993,None,None,1,1350.1729431999993,None,,P020,fencog,1,Pre,2021_Nov_09_1129,N-Back (New Version 2021),2021.1.4,120.03577067351709,
,,,,Conditions/Version_1/zeroback(4)_v1.xlsx,New rule: Press 'space' when you see the letter 'x' or 'X'.,m,None,,,,,,,,,0,13,13,13,0,5,5,5,,,,,,,,,,,,,,,,,,,,,,,,,,,,,,,,,,,,,,,,,,,,,,,,,,,,,,,,,,,,,,,,,,,,,1.2208,1353.3970612999983,None,None,1,1353.3970612999983,None,,P020,fencog,1,Pre,2021_Nov_09_1129,N-Back (New Version 2021),2021.1.4,120.03577067351709,
,,,,Conditions/Version_1/zeroback(4)_v1.xlsx,New rule: Press 'space' when you see the letter 'x' or 'X'.,C,None,,,,,,,,,0,13,13,13,0,6,6,6,,,,,,,,,,,,,,,,,,,,,,,,,,,,,,,,,,,,,,,,,,,,,,,,,,,,,,,,,,,,,,,,,,,,,1.0348,1356.439043499995,None,None,1,1356.439043499995,None,,P020,fencog,1,Pre,2021_Nov_09_1129,N-Back (New Version 2021),2021.1.4,120.03577067351709,
,,,,Conditions/Version_1/zeroback(4)_v1.xlsx,New rule: Press 'space' when you see the letter 'x' or 'X'.,m,None,,,,,,,,,0,13,13,13,0,7,7,7,,,,,,,,,,,,,,,,,,,,,,,,,,,,,,,,,,,,,,,,,,,,,,,,,,,,,,,,,,,,,,,,,,,,,1.8656,1360.3136779000051,None,None,1,1360.3136779000051,None,,P020,fencog,1,Pre,2021_Nov_09_1129,N-Back (New Version 2021),2021.1.4,120.03577067351709,
,,,,Conditions/Version_1/zeroback(4)_v1.xlsx,New rule: Press 'space' when you see the letter 'x' or 'X'.,p,None,,,,,,,,,0,13,13,13,0,8,8,8,,,,,,,,,,,,,,,,,,,,,,,,,,,,,,,,,,,,,,,,,,,,,,,,,,,,,,,,,,,,,,,,,,,,,1.4564,1363.7781218000018,None,None,1,1363.7781218000018,None,,P020,fencog,1,Pre,2021_Nov_09_1129,N-Back (New Version 2021),2021.1.4,120.03577067351709,
,,,,Conditions/Version_1/zeroback(4)_v1.xlsx,New rule: Press 'space' when you see the letter 'x' or 'X'.,X,space,,,,,,,,,0,13,13,13,0,9,9,9,,,,,,,,,,,,,,,,,,,,,,,,,,,,,,,,,,,,,,,,,,,,,,,,,,,,,,,,,,,,,,,,,,,,,1.2952,1367.0775126999943,None,space,1,1367.0775126999943,None,0.42562339999130927,P020,fencog,1,Pre,2021_Nov_09_1129,N-Back (New Version 2021),2021.1.4,120.03577067351709,
,,,,Conditions/Version_1/zeroback(4)_v1.xlsx,New rule: Press 'space' when you see the letter 'x' or 'X'.,,,,,,,,,,,0,13,13,13,,,,,,,,,,,,,,,,,,,,,,,,,,,,,,,,,,,,,,,,,,,,,,,,,,,,,,,,,,,,,,,,,,,,,,,,,,,,,,,,,P020,fencog,1,Pre,2021_Nov_09_1129,N-Back (New Version 2021),2021.1.4,120.03577067351709,
,,,,Conditions/Version_1/oneback(4)_v1.xlsx,New rule: Press 'space' when you see 1-back (i.e. the same letter as the one that appeared 1 letter ago.),w,None,,,,,,,,,0,14,14,14,0,0,0,0,,,,,,,,,,,,,,,,,,,,,,,,,,,,,,,,,,,,,,,,,,,,,,,,,,,,,,,,,,,1369.1127211999992,None,1372.0967775000026,None,space,0.5104208999982802,1372.0967775000026,None,1369.1127211999992,None,1.7044,1374.340817599994,None,None,1,1374.340817599994,None,,P020,fencog,1,Pre,2021_Nov_09_1129,N-Back (New Version 2021),2021.1.4,120.03577067351709,
,,,,Conditions/Version_1/oneback(4)_v1.xlsx,New rule: Press 'space' when you see 1-back (i.e. the same letter as the one that appeared 1 letter ago.),q,None,,,,,,,,,0,14,14,14,0,1,1,1,,,,,,,,,,,,,,,,,,,,,,,,,,,,,,,,,,,,,,,,,,,,,,,,,,,,,,,,,,,,,,,,,,,,,1.4068,1377.7489206000027,None,None,1,1377.7489206000027,None,,P020,fencog,1,Pre,2021_Nov_09_1129,N-Back (New Version 2021),2021.1.4,120.03577067351709,
,,,,Conditions/Version_1/oneback(4)_v1.xlsx,New rule: Press 'space' when you see 1-back (i.e. the same letter as the one that appeared 1 letter ago.),i,None,,,,,,,,,0,14,14,14,0,2,2,2,,,,,,,,,,,,,,,,,,,,,,,,,,,,,,,,,,,,,,,,,,,,,,,,,,,,,,,,,,,,,,,,,,,,,1.103,1380.8639651999983,None,None,1,1380.8639651999983,None,,P020,fencog,1,Pre,2021_Nov_09_1129,N-Back (New Version 2021),2021.1.4,120.03577067351709,
,,,,Conditions/Version_1/oneback(4)_v1.xlsx,New rule: Press 'space' when you see 1-back (i.e. the same letter as the one that appeared 1 letter ago.),t,None,,,,,,,,,0,14,14,14,0,3,3,3,,,,,,,,,,,,,,,,,,,,,,,,,,,,,,,,,,,,,,,,,,,,,,,,,,,,,,,,,,,,,,,,,,,,,1.5742,1384.4468286000047,None,None,1,1384.4468286000047,None,,P020,fencog,1,Pre,2021_Nov_09_1129,N-Back (New Version 2021),2021.1.4,120.03577067351709,
,,,,Conditions/Version_1/oneback(4)_v1.xlsx,New rule: Press 'space' when you see 1-back (i.e. the same letter as the one that appeared 1 letter ago.),v,None,,,,,,,,,0,14,14,14,0,4,4,4,,,,,,,,,,,,,,,,,,,,,,,,,,,,,,,,,,,,,,,,,,,,,,,,,,,,,,,,,,,,,,,,,,,,,1.0658,1387.5218894999998,None,None,1,1387.5218894999998,None,,P020,fencog,1,Pre,2021_Nov_09_1129,N-Back (New Version 2021),2021.1.4,120.03577067351709,
,,,,Conditions/Version_1/oneback(4)_v1.xlsx,New rule: Press 'space' when you see 1-back (i.e. the same letter as the one that appeared 1 letter ago.),V,space,,,,,,,,,0,14,14,14,0,5,5,5,,,,,,,,,,,,,,,,,,,,,,,,,,,,,,,,,,,,,,,,,,,,,,,,,,,,,,,,,,,,,,,,,,,,,1.8222,1391.3542535000015,None,space,1,1391.3542535000015,None,0.47690290000173263,P020,fencog,1,Pre,2021_Nov_09_1129,N-Back (New Version 2021),2021.1.4,120.03577067351709,
,,,,Conditions/Version_1/oneback(4)_v1.xlsx,New rule: Press 'space' when you see 1-back (i.e. the same letter as the one that appeared 1 letter ago.),v,space,,,,,,,,,0,14,14,14,0,6,6,6,,,,,,,,,,,,,,,,,,,,,,,,,,,,,,,,,,,,,,,,,,,,,,,,,,,,,,,,,,,,,,,,,,,,,1.9028,1395.2683694000007,None,space,1,1395.2683694000007,None,0.738570500005153,P020,fencog,1,Pre,2021_Nov_09_1129,N-Back (New Version 2021),2021.1.4,120.03577067351709,
,,,,Conditions/Version_1/oneback(4)_v1.xlsx,New rule: Press 'space' when you see 1-back (i.e. the same letter as the one that appeared 1 letter ago.),p,None,,,,,,,,,0,14,14,14,0,7,7,7,,,,,,,,,,,,,,,,,,,,,,,,,,,,,,,,,,,,,,,,,,,,,,,,,,,,,,,,,,,,,,,,,,,,,1.5246,1398.792899699998,None,None,1,1398.792899699998,None,,P020,fencog,1,Pre,2021_Nov_09_1129,N-Back (New Version 2021),2021.1.4,120.03577067351709,
,,,,Conditions/Version_1/oneback(4)_v1.xlsx,New rule: Press 'space' when you see 1-back (i.e. the same letter as the one that appeared 1 letter ago.),w,None,,,,,,,,,0,14,14,14,0,8,8,8,,,,,,,,,,,,,,,,,,,,,,,,,,,,,,,,,,,,,,,,,,,,,,,,,,,,,,,,,,,,,,,,,,,,,1.3262,1402.1324692000053,None,None,1,1402.1324692000053,None,,P020,fencog,1,Pre,2021_Nov_09_1129,N-Back (New Version 2021),2021.1.4,120.03577067351709,
,,,,Conditions/Version_1/oneback(4)_v1.xlsx,New rule: Press 'space' when you see 1-back (i.e. the same letter as the one that appeared 1 letter ago.),W,space,,,,,,,,,0,14,14,14,0,9,9,9,,,,,,,,,,,,,,,,,,,,,,,,,,,,,,,,,,,,,,,,,,,,,,,,,,,,,,,,,,,,,,,,,,,,,1.9276,1406.0648034000042,None,space,1,1406.0648034000042,None,0.47824389999732375,P020,fencog,1,Pre,2021_Nov_09_1129,N-Back (New Version 2021),2021.1.4,120.03577067351709,
,,,,Conditions/Version_1/oneback(4)_v1.xlsx,New rule: Press 'space' when you see 1-back (i.e. the same letter as the one that appeared 1 letter ago.),,,,,,,,,,,0,14,14,14,,,,,,,,,,,,,,,,,,,,,,,,,,,,,,,,,,,,,,,,,,,,,,,,,,,,,,,,,,,,,,,,,,,,,,,,,,,,,,,,,P020,fencog,1,Pre,2021_Nov_09_1129,N-Back (New Version 2021),2021.1.4,120.03577067351709,
,,,,Conditions/Version_1/threeback(4)_v1.xlsx,New rule: Press 'space' when you see 3-back (i.e. the same letter as the one that appeared 3 letters ago.),A,None,,,,,,,,,0,15,15,15,0,0,0,0,,,,,,,,,,,,,,,,,,,,,,,,,,,,,,,,,,,,,,,,,,,,,,,,,,,,,,,,,,,1408.086724199995,None,1411.0740835000033,None,space,18.084977099992102,1411.0740835000033,None,1408.086724199995,None,1.01,1430.1994590999966,None,None,1,1430.1994590999966,None,,P020,fencog,1,Pre,2021_Nov_09_1129,N-Back (New Version 2021),2021.1.4,120.03577067351709,
,,,,Conditions/Version_1/threeback(4)_v1.xlsx,New rule: Press 'space' when you see 3-back (i.e. the same letter as the one that appeared 3 letters ago.),n,None,,,,,,,,,0,15,15,15,0,1,1,1,,,,,,,,,,,,,,,,,,,,,,,,,,,,,,,,,,,,,,,,,,,,,,,,,,,,,,,,,,,,,,,,,,,,,1.2146,1433.4174679999996,None,None,1,1433.4174679999996,None,,P020,fencog,1,Pre,2021_Nov_09_1129,N-Back (New Version 2021),2021.1.4,120.03577067351709,
,,,,Conditions/Version_1/threeback(4)_v1.xlsx,New rule: Press 'space' when you see 3-back (i.e. the same letter as the one that appeared 3 letters ago.),g,None,,,,,,,,,0,15,15,15,0,2,2,2,,,,,,,,,,,,,,,,,,,,,,,,,,,,,,,,,,,,,,,,,,,,,,,,,,,,,,,,,,,,,,,,,,,,,1.5246,1436.9475091000058,None,None,1,1436.9475091000058,None,,P020,fencog,1,Pre,2021_Nov_09_1129,N-Back (New Version 2021),2021.1.4,120.03577067351709,
,,,,Conditions/Version_1/threeback(4)_v1.xlsx,New rule: Press 'space' when you see 3-back (i.e. the same letter as the one that appeared 3 letters ago.),A,space,,,,,,,,,0,15,15,15,0,3,3,3,,,,,,,,,,,,,,,,,,,,,,,,,,,,,,,,,,,,,,,,,,,,,,,,,,,,,,,,,,,,,,,,,,,,,1.0224,1439.9854814999999,None,space,1,1439.9854814999999,None,0.4055030000017723,P020,fencog,1,Pre,2021_Nov_09_1129,N-Back (New Version 2021),2021.1.4,120.03577067351709,
,,,,Conditions/Version_1/threeback(4)_v1.xlsx,New rule: Press 'space' when you see 3-back (i.e. the same letter as the one that appeared 3 letters ago.),p,None,,,,,,,,,0,15,15,15,0,4,4,4,,,,,,,,,,,,,,,,,,,,,,,,,,,,,,,,,,,,,,,,,,,,,,,,,,,,,,,,,,,,,,,,,,,,,1.413,1443.403825500005,None,None,1,1443.403825500005,None,,P020,fencog,1,Pre,2021_Nov_09_1129,N-Back (New Version 2021),2021.1.4,120.03577067351709,
,,,,Conditions/Version_1/threeback(4)_v1.xlsx,New rule: Press 'space' when you see 3-back (i.e. the same letter as the one that appeared 3 letters ago.),O,None,,,,,,,,,0,15,15,15,0,5,5,5,,,,,,,,,,,,,,,,,,,,,,,,,,,,,,,,,,,,,,,,,,,,,,,,,,,,,,,,,,,,,,,,,,,,,1.1836,1446.586175599994,None,None,1,1446.586175599994,None,,P020,fencog,1,Pre,2021_Nov_09_1129,N-Back (New Version 2021),2021.1.4,120.03577067351709,
,,,,Conditions/Version_1/threeback(4)_v1.xlsx,New rule: Press 'space' when you see 3-back (i.e. the same letter as the one that appeared 3 letters ago.),a,space,,,,,,,,,0,15,15,15,0,6,6,6,,,,,,,,,,,,,,,,,,,,,,,,,,,,,,,,,,,,,,,,,,,,,,,,,,,,,,,,,,,,,,,,,,,,,1.6114,1450.201512700005,None,None,0,1450.201512700005,None,,P020,fencog,1,Pre,2021_Nov_09_1129,N-Back (New Version 2021),2021.1.4,120.03577067351709,
,,,,Conditions/Version_1/threeback(4)_v1.xlsx,New rule: Press 'space' when you see 3-back (i.e. the same letter as the one that appeared 3 letters ago.),p,space,,,,,,,,,0,15,15,15,0,7,7,7,,,,,,,,,,,,,,,,,,,,,,,,,,,,,,,,,,,,,,,,,,,,,,,,,,,,,,,,,,,,,,,,,,,,,1.4998,1453.710721800002,None,None,0,1453.710721800002,None,,P020,fencog,1,Pre,2021_Nov_09_1129,N-Back (New Version 2021),2021.1.4,120.03577067351709,
,,,,Conditions/Version_1/threeback(4)_v1.xlsx,New rule: Press 'space' when you see 3-back (i.e. the same letter as the one that appeared 3 letters ago.),x,None,,,,,,,,,0,15,15,15,0,8,8,8,,,,,,,,,,,,,,,,,,,,,,,,,,,,,,,,,,,,,,,,,,,,,,,,,,,,,,,,,,,,,,,,,,,,,1.7974,1457.5175591000007,None,None,1,1457.5175591000007,None,,P020,fencog,1,Pre,2021_Nov_09_1129,N-Back (New Version 2021),2021.1.4,120.03577067351709,
,,,,Conditions/Version_1/threeback(4)_v1.xlsx,New rule: Press 'space' when you see 3-back (i.e. the same letter as the one that appeared 3 letters ago.),X,None,,,,,,,,,0,15,15,15,0,9,9,9,,,,,,,,,,,,,,,,,,,,,,,,,,,,,,,,,,,,,,,,,,,,,,,,,,,,,,,,,,,,,,,,,,,,,1.8222,1461.355046800003,None,None,1,1461.355046800003,None,,P020,fencog,1,Pre,2021_Nov_09_1129,N-Back (New Version 2021),2021.1.4,120.03577067351709,
,,,,Conditions/Version_1/threeback(4)_v1.xlsx,New rule: Press 'space' when you see 3-back (i.e. the same letter as the one that appeared 3 letters ago.),,,,,,,,,,,0,15,15,15,,,,,,,,,,,,,,,,,,,,,,,,,,,,,,,,,,,,,,,,,,,,,,,,,,,,,,,,,,,,,,,,,,,,,,,,,,,,,,,,,P020,fencog,1,Pre,2021_Nov_09_1129,N-Back (New Version 2021),2021.1.4,120.03577067351709,
