CondFileP,InstructionsP,LettersDisplayedP,CorrectnessP,CondFile,Instructions,LettersDisplayed,Correctness,practicetrials.thisRepN,practicetrials.thisTrialN,practicetrials.thisN,practicetrials.thisIndex,InnerLoopPractice.thisRepN,InnerLoopPractice.thisTrialN,InnerLoopPractice.thisN,InnerLoopPractice.thisIndex,trials.thisRepN,trials.thisTrialN,trials.thisN,trials.thisIndex,InnerLoop.thisRepN,InnerLoop.thisTrialN,InnerLoop.thisN,InnerLoop.thisIndex,TaskVersionText.started,TaskVersionText.stopped,InstrKey1.keys,InstrKey1.rt,InstrKey1.started,InstrKey1.stopped,text.started,text.stopped,key_resp_4.keys,key_resp_4.rt,key_resp_4.started,key_resp_4.stopped,text_2.started,text_2.stopped,key_resp_3.keys,key_resp_3.rt,key_resp_3.started,key_resp_3.stopped,text_3.started,text_3.stopped,key_resp_2.keys,key_resp_2.rt,key_resp_2.started,key_resp_2.stopped,PractIn1.started,PractIn1.stopped,PractIn2.started,PractIn2.stopped,PractInstructionPass.keys,PractInstructionPass.rt,PractInstructionPass.started,PractInstructionPass.stopped,PractBlock1.started,PractBlock1.stopped,ISIjitterPractice,ISI_Pract_Fixation.started,ISI_Pract_Fixation.stopped,N_backP.started,N_backP.stopped,KeyPractice.keys,KeyPractice.corr,KeyPractice.rt,KeyPractice.started,KeyPractice.stopped,text_4.started,text_4.stopped,TransitionText.started,TransitionText.stopped,key_resp_6.keys,key_resp_6.rt,key_resp_6.started,key_resp_6.stopped,text_5.started,text_5.stopped,key_resp_5.keys,key_resp_5.rt,key_resp_5.started,key_resp_5.stopped,MainInt1.started,MainInt1.stopped,MainInt2.started,MainInt2.stopped,InstructionPass.keys,InstructionPass.rt,InstructionPass.started,InstructionPass.stopped,Blocks1.started,Blocks1.stopped,ISIjitter,N_backD.started,N_backD.stopped,key_resp.keys,key_resp.corr,key_resp.started,key_resp.stopped,key_resp.rt,participant,Study Name,Task Version (required to run),PRE/POST,date,expName,psychopyVersion,frameRate
,,,,,,,,,,,,,,,,,,,,,,,,28.8226493,None,space,42.4136268,29.3189048,None,,,,,,,,,,,,,,,,,,,,,,,,,,,,,,,,,,,,,,,,,,,,,,,,,,,,,,,,,,,,,,,,,,,,,,,P020,fencog,2,Post,2021_Nov_16_1214,N-Back (New Version 2021),2021.1.4,120.173675
,,,,,,,,,,,,,,,,,,,,,,,,,,,,,,71.7674996,None,space,13.5314641,72.256713,None,,,,,,,,,,,,,,,,,,,,,,,,,,,,,,,,,,,,,,,,,,,,,,,,,,,,,,,,,,,,,,,,,P020,fencog,2,Post,2021_Nov_16_1214,N-Back (New Version 2021),2021.1.4,120.173675
,,,,,,,,,,,,,,,,,,,,,,,,,,,,,,,,,,,,85.8276144,None,space,0.8370806,86.3195499,None,,,,,,,,,,,,,,,,,,,,,,,,,,,,,,,,,,,,,,,,,,,,,,,,,,,,,,,,,,,P020,fencog,2,Post,2021_Nov_16_1214,N-Back (New Version 2021),2021.1.4,120.173675
,,,,,,,,,,,,,,,,,,,,,,,,,,,,,,,,,,,,,,,,,,87.1847578,None,space,0.8310531,87.6770929,None,,,,,,,,,,,,,,,,,,,,,,,,,,,,,,,,,,,,,,,,,,,,,,,,,,,,,P020,fencog,2,Post,2021_Nov_16_1214,N-Back (New Version 2021),2021.1.4,120.173675
Conditions/Version_2Pr/zeroback(1)_v2.xlsx,Rule: Press 'space' when you see the letter 'x' or 'X'.,x,space,,,,,0,0,0,0,0,0,0,0,,,,,,,,,,,,,,,,,,,,,,,,,,,,,,,,,89.8997163,None,92.8855696,None,space,0.5029253,92.8855696,None,89.8997163,None,1.865,93.41945,None,95.2932476,None,space,1,0.2788651,95.2932476,None,95.5882033,None,,,,,,,,,,,,,,,,,,,,,,,,,,,,,,,P020,fencog,2,Post,2021_Nov_16_1214,N-Back (New Version 2021),2021.1.4,120.173675
Conditions/Version_2Pr/zeroback(1)_v2.xlsx,Rule: Press 'space' when you see the letter 'x' or 'X'.,R,None,,,,,0,0,0,0,0,1,1,1,,,,,,,,,,,,,,,,,,,,,,,,,,,,,,,,,,,,,,,,,,,1.715,97.0901298,None,98.8076373,None,None,1,,98.8076373,None,100.8142738,None,,,,,,,,,,,,,,,,,,,,,,,,,,,,,,,P020,fencog,2,Post,2021_Nov_16_1214,N-Back (New Version 2021),2021.1.4,120.173675
Conditions/Version_2Pr/zeroback(1)_v2.xlsx,Rule: Press 'space' when you see the letter 'x' or 'X'.,p,None,,,,,0,0,0,0,0,2,2,2,,,,,,,,,,,,,,,,,,,,,,,,,,,,,,,,,,,,,,,,,,,1.79,102.3135842,None,104.1056972,None,None,1,,104.1056972,None,106.1049546,None,,,,,,,,,,,,,,,,,,,,,,,,,,,,,,,P020,fencog,2,Post,2021_Nov_16_1214,N-Back (New Version 2021),2021.1.4,120.173675
Conditions/Version_2Pr/zeroback(1)_v2.xlsx,Rule: Press 'space' when you see the letter 'x' or 'X'.,O,None,,,,,0,0,0,0,0,3,3,3,,,,,,,,,,,,,,,,,,,,,,,,,,,,,,,,,,,,,,,,,,,1.24,107.6120809,None,108.8559481,None,None,1,,108.8559481,None,110.8528776,None,,,,,,,,,,,,,,,,,,,,,,,,,,,,,,,P020,fencog,2,Post,2021_Nov_16_1214,N-Back (New Version 2021),2021.1.4,120.173675
Conditions/Version_2Pr/zeroback(1)_v2.xlsx,Rule: Press 'space' when you see the letter 'x' or 'X'.,i,None,,,,,0,0,0,0,0,4,4,4,,,,,,,,,,,,,,,,,,,,,,,,,,,,,,,,,,,,,,,,,,,1.59,112.3523842,None,113.9439252,None,None,1,,113.9439252,None,115.9429829,None,,,,,,,,,,,,,,,,,,,,,,,,,,,,,,,P020,fencog,2,Post,2021_Nov_16_1214,N-Back (New Version 2021),2021.1.4,120.173675
Conditions/Version_2Pr/zeroback(1)_v2.xlsx,Rule: Press 'space' when you see the letter 'x' or 'X'.,U,None,,,,,0,0,0,0,0,5,5,5,,,,,,,,,,,,,,,,,,,,,,,,,,,,,,,,,,,,,,,,,,,1.515,117.4427024,None,118.959843,None,None,1,,118.959843,None,120.9639686,None,,,,,,,,,,,,,,,,,,,,,,,,,,,,,,,P020,fencog,2,Post,2021_Nov_16_1214,N-Back (New Version 2021),2021.1.4,120.173675
Conditions/Version_2Pr/zeroback(1)_v2.xlsx,Rule: Press 'space' when you see the letter 'x' or 'X'.,N,None,,,,,0,0,0,0,0,6,6,6,,,,,,,,,,,,,,,,,,,,,,,,,,,,,,,,,,,,,,,,,,,1.09,122.4658924,None,123.5598212,None,None,1,,123.5598212,None,125.5651024,None,,,,,,,,,,,,,,,,,,,,,,,,,,,,,,,P020,fencog,2,Post,2021_Nov_16_1214,N-Back (New Version 2021),2021.1.4,120.173675
Conditions/Version_2Pr/zeroback(1)_v2.xlsx,Rule: Press 'space' when you see the letter 'x' or 'X'.,m,None,,,,,0,0,0,0,0,7,7,7,,,,,,,,,,,,,,,,,,,,,,,,,,,,,,,,,,,,,,,,,,,1.465,127.0645803,None,128.5382522,None,None,1,,128.5382522,None,130.5384874,None,,,,,,,,,,,,,,,,,,,,,,,,,,,,,,,P020,fencog,2,Post,2021_Nov_16_1214,N-Back (New Version 2021),2021.1.4,120.173675
Conditions/Version_2Pr/zeroback(1)_v2.xlsx,Rule: Press 'space' when you see the letter 'x' or 'X'.,x,space,,,,,0,0,0,0,0,8,8,8,,,,,,,,,,,,,,,,,,,,,,,,,,,,,,,,,,,,,,,,,,,1.84,132.0379561,None,133.8791807,None,space,1,0.3088643,133.8791807,None,134.1966752,None,,,,,,,,,,,,,,,,,,,,,,,,,,,,,,,P020,fencog,2,Post,2021_Nov_16_1214,N-Back (New Version 2021),2021.1.4,120.173675
Conditions/Version_2Pr/zeroback(1)_v2.xlsx,Rule: Press 'space' when you see the letter 'x' or 'X'.,X,space,,,,,0,0,0,0,0,9,9,9,,,,,,,,,,,,,,,,,,,,,,,,,,,,,,,,,,,,,,,,,,,1.94,135.7036342,None,137.6538561,None,space,1,0.310235,137.6538561,None,137.9863122,None,,,,,,,,,,,,,,,,,,,,,,,,,,,,,,,P020,fencog,2,Post,2021_Nov_16_1214,N-Back (New Version 2021),2021.1.4,120.173675
Conditions/Version_2Pr/zeroback(1)_v2.xlsx,Rule: Press 'space' when you see the letter 'x' or 'X'.,,,,,,,0,0,0,0,,,,,,,,,,,,,,,,,,,,,,,,,,,,,,,,,,,,,,,,,,,,,,,,,,,,,,,,,,,,,,,,,,,,,,,,,,,,,,,,,,,,,,,,,P020,fencog,2,Post,2021_Nov_16_1214,N-Back (New Version 2021),2021.1.4,120.173675
Conditions/Version_2Pr/oneback(1)_v2.xlsx,New rule: Press 'space' when you see 1-back (i.e. the same letter as the one that appeared 1 letter ago.),r,None,,,,,0,1,1,1,0,0,0,0,,,,,,,,,,,,,,,,,,,,,,,,,,,,,,,,,139.5122467,None,142.4972799,None,space,1.5227893,142.4972799,None,139.5122467,None,1.79,144.0472503,None,145.8466022,None,None,1,,145.8466022,None,147.8441425,None,,,,,,,,,,,,,,,,,,,,,,,,,,,,,,,P020,fencog,2,Post,2021_Nov_16_1214,N-Back (New Version 2021),2021.1.4,120.173675
Conditions/Version_2Pr/oneback(1)_v2.xlsx,New rule: Press 'space' when you see 1-back (i.e. the same letter as the one that appeared 1 letter ago.),t,None,,,,,0,1,1,1,0,1,1,1,,,,,,,,,,,,,,,,,,,,,,,,,,,,,,,,,,,,,,,,,,,1.815,149.3495792,None,151.1664048,None,None,1,,151.1664048,None,153.1733771,None,,,,,,,,,,,,,,,,,,,,,,,,,,,,,,,P020,fencog,2,Post,2021_Nov_16_1214,N-Back (New Version 2021),2021.1.4,120.173675
Conditions/Version_2Pr/oneback(1)_v2.xlsx,New rule: Press 'space' when you see 1-back (i.e. the same letter as the one that appeared 1 letter ago.),Y,None,,,,,0,1,1,1,0,2,2,2,,,,,,,,,,,,,,,,,,,,,,,,,,,,,,,,,,,,,,,,,,,1.665,154.6729143,None,156.3401594,None,None,1,,156.3401594,None,158.3471804,None,,,,,,,,,,,,,,,,,,,,,,,,,,,,,,,P020,fencog,2,Post,2021_Nov_16_1214,N-Back (New Version 2021),2021.1.4,120.173675
Conditions/Version_2Pr/oneback(1)_v2.xlsx,New rule: Press 'space' when you see 1-back (i.e. the same letter as the one that appeared 1 letter ago.),y,space,,,,,0,1,1,1,0,3,3,3,,,,,,,,,,,,,,,,,,,,,,,,,,,,,,,,,,,,,,,,,,,1.065,159.8477426,None,160.9133057,None,space,1,0.4509467,160.9133057,None,161.3808852,None,,,,,,,,,,,,,,,,,,,,,,,,,,,,,,,P020,fencog,2,Post,2021_Nov_16_1214,N-Back (New Version 2021),2021.1.4,120.173675
Conditions/Version_2Pr/oneback(1)_v2.xlsx,New rule: Press 'space' when you see 1-back (i.e. the same letter as the one that appeared 1 letter ago.),p,None,,,,,0,1,1,1,0,4,4,4,,,,,,,,,,,,,,,,,,,,,,,,,,,,,,,,,,,,,,,,,,,1.615,162.8873276,None,164.503471,None,None,1,,164.503471,None,166.5026912,None,,,,,,,,,,,,,,,,,,,,,,,,,,,,,,,P020,fencog,2,Post,2021_Nov_16_1214,N-Back (New Version 2021),2021.1.4,120.173675
Conditions/Version_2Pr/oneback(1)_v2.xlsx,New rule: Press 'space' when you see 1-back (i.e. the same letter as the one that appeared 1 letter ago.),P,space,,,,,0,1,1,1,0,5,5,5,,,,,,,,,,,,,,,,,,,,,,,,,,,,,,,,,,,,,,,,,,,1.165,168.0023419,None,169.1722426,None,space,1,0.3759799,169.1722426,None,169.5609713,None,,,,,,,,,,,,,,,,,,,,,,,,,,,,,,,P020,fencog,2,Post,2021_Nov_16_1214,N-Back (New Version 2021),2021.1.4,120.173675
Conditions/Version_2Pr/oneback(1)_v2.xlsx,New rule: Press 'space' when you see 1-back (i.e. the same letter as the one that appeared 1 letter ago.),e,None,,,,,0,1,1,1,0,6,6,6,,,,,,,,,,,,,,,,,,,,,,,,,,,,,,,,,,,,,,,,,,,1.765,171.0597242,None,172.8387091,None,None,1,,172.8387091,None,174.8340033,None,,,,,,,,,,,,,,,,,,,,,,,,,,,,,,,P020,fencog,2,Post,2021_Nov_16_1214,N-Back (New Version 2021),2021.1.4,120.173675
Conditions/Version_2Pr/oneback(1)_v2.xlsx,New rule: Press 'space' when you see 1-back (i.e. the same letter as the one that appeared 1 letter ago.),r,None,,,,,0,1,1,1,0,7,7,7,,,,,,,,,,,,,,,,,,,,,,,,,,,,,,,,,,,,,,,,,,,1.54,176.3330907,None,177.8788005,None,None,1,,177.8788005,None,179.8825014,None,,,,,,,,,,,,,,,,,,,,,,,,,,,,,,,P020,fencog,2,Post,2021_Nov_16_1214,N-Back (New Version 2021),2021.1.4,120.173675
Conditions/Version_2Pr/oneback(1)_v2.xlsx,New rule: Press 'space' when you see 1-back (i.e. the same letter as the one that appeared 1 letter ago.),R,space,,,,,0,1,1,1,0,8,8,8,,,,,,,,,,,,,,,,,,,,,,,,,,,,,,,,,,,,,,,,,,,1.715,181.3818174,None,183.0981231,None,None,0,,183.0981231,None,185.1091403,None,,,,,,,,,,,,,,,,,,,,,,,,,,,,,,,P020,fencog,2,Post,2021_Nov_16_1214,N-Back (New Version 2021),2021.1.4,120.173675
Conditions/Version_2Pr/oneback(1)_v2.xlsx,New rule: Press 'space' when you see 1-back (i.e. the same letter as the one that appeared 1 letter ago.),p,None,,,,,0,1,1,1,0,9,9,9,,,,,,,,,,,,,,,,,,,,,,,,,,,,,,,,,,,,,,,,,,,1.315,186.6052541,None,187.9221529,None,None,1,,187.9221529,None,189.929038,None,,,,,,,,,,,,,,,,,,,,,,,,,,,,,,,P020,fencog,2,Post,2021_Nov_16_1214,N-Back (New Version 2021),2021.1.4,120.173675
Conditions/Version_2Pr/oneback(1)_v2.xlsx,New rule: Press 'space' when you see 1-back (i.e. the same letter as the one that appeared 1 letter ago.),,,,,,,0,1,1,1,,,,,,,,,,,,,,,,,,,,,,,,,,,,,,,,,,,,,,,,,,,,,,,,,,,,,,,,,,,,,,,,,,,,,,,,,,,,,,,,,,,,,,,,,P020,fencog,2,Post,2021_Nov_16_1214,N-Back (New Version 2021),2021.1.4,120.173675
Conditions/Version_2Pr/twoback(1)_v2.xlsx,New rule: Press 'space' when you see 2-back (i.e. the same letter as the one that appeared 2 letters ago.),r,None,,,,,0,2,2,2,0,0,0,0,,,,,,,,,,,,,,,,,,,,,,,,,,,,,,,,,191.4477331,None,194.4302765,None,space,0.3496006,194.4302765,None,191.4477331,None,1.465,194.8067162,None,196.2860142,None,None,1,,196.2860142,None,198.2875735,None,,,,,,,,,,,,,,,,,,,,,,,,,,,,,,,P020,fencog,2,Post,2021_Nov_16_1214,N-Back (New Version 2021),2021.1.4,120.173675
Conditions/Version_2Pr/twoback(1)_v2.xlsx,New rule: Press 'space' when you see 2-back (i.e. the same letter as the one that appeared 2 letters ago.),P,None,,,,,0,2,2,2,0,1,1,1,,,,,,,,,,,,,,,,,,,,,,,,,,,,,,,,,,,,,,,,,,,1.065,199.784666,None,200.8511885,None,None,1,,200.8511885,None,202.8503787,None,,,,,,,,,,,,,,,,,,,,,,,,,,,,,,,P020,fencog,2,Post,2021_Nov_16_1214,N-Back (New Version 2021),2021.1.4,120.173675
Conditions/Version_2Pr/twoback(1)_v2.xlsx,New rule: Press 'space' when you see 2-back (i.e. the same letter as the one that appeared 2 letters ago.),o,None,,,,,0,2,2,2,0,2,2,2,,,,,,,,,,,,,,,,,,,,,,,,,,,,,,,,,,,,,,,,,,,1.515,204.3535597,None,205.8750293,None,None,1,,205.8750293,None,207.8825703,None,,,,,,,,,,,,,,,,,,,,,,,,,,,,,,,P020,fencog,2,Post,2021_Nov_16_1214,N-Back (New Version 2021),2021.1.4,120.173675
Conditions/Version_2Pr/twoback(1)_v2.xlsx,New rule: Press 'space' when you see 2-back (i.e. the same letter as the one that appeared 2 letters ago.),p,space,,,,,0,2,2,2,0,3,3,3,,,,,,,,,,,,,,,,,,,,,,,,,,,,,,,,,,,,,,,,,,,1.215,209.3832268,None,210.5983,None,space,1,0.6536137,210.5983,None,211.2595498,None,,,,,,,,,,,,,,,,,,,,,,,,,,,,,,,P020,fencog,2,Post,2021_Nov_16_1214,N-Back (New Version 2021),2021.1.4,120.173675
Conditions/Version_2Pr/twoback(1)_v2.xlsx,New rule: Press 'space' when you see 2-back (i.e. the same letter as the one that appeared 2 letters ago.),Y,None,,,,,0,2,2,2,0,4,4,4,,,,,,,,,,,,,,,,,,,,,,,,,,,,,,,,,,,,,,,,,,,1.24,212.7640951,None,214.0058353,None,None,1,,214.0058353,None,216.0049086,None,,,,,,,,,,,,,,,,,,,,,,,,,,,,,,,P020,fencog,2,Post,2021_Nov_16_1214,N-Back (New Version 2021),2021.1.4,120.173675
Conditions/Version_2Pr/twoback(1)_v2.xlsx,New rule: Press 'space' when you see 2-back (i.e. the same letter as the one that appeared 2 letters ago.),q,None,,,,,0,2,2,2,0,5,5,5,,,,,,,,,,,,,,,,,,,,,,,,,,,,,,,,,,,,,,,,,,,1.49,217.5046095,None,218.9970591,None,space,0,0.3108737,218.9970591,None,219.3259505,None,,,,,,,,,,,,,,,,,,,,,,,,,,,,,,,P020,fencog,2,Post,2021_Nov_16_1214,N-Back (New Version 2021),2021.1.4,120.173675
Conditions/Version_2Pr/twoback(1)_v2.xlsx,New rule: Press 'space' when you see 2-back (i.e. the same letter as the one that appeared 2 letters ago.),m,None,,,,,0,2,2,2,0,6,6,6,,,,,,,,,,,,,,,,,,,,,,,,,,,,,,,,,,,,,,,,,,,1.99,220.8286661,None,222.8200236,None,None,1,,222.8200236,None,224.8307847,None,,,,,,,,,,,,,,,,,,,,,,,,,,,,,,,P020,fencog,2,Post,2021_Nov_16_1214,N-Back (New Version 2021),2021.1.4,120.173675
Conditions/Version_2Pr/twoback(1)_v2.xlsx,New rule: Press 'space' when you see 2-back (i.e. the same letter as the one that appeared 2 letters ago.),Q,space,,,,,0,2,2,2,0,7,7,7,,,,,,,,,,,,,,,,,,,,,,,,,,,,,,,,,,,,,,,,,,,1.14,226.3275193,None,227.4701732,None,space,1,0.3099045,227.4701732,None,227.7936437,None,,,,,,,,,,,,,,,,,,,,,,,,,,,,,,,P020,fencog,2,Post,2021_Nov_16_1214,N-Back (New Version 2021),2021.1.4,120.173675
Conditions/Version_2Pr/twoback(1)_v2.xlsx,New rule: Press 'space' when you see 2-back (i.e. the same letter as the one that appeared 2 letters ago.),L,None,,,,,0,2,2,2,0,8,8,8,,,,,,,,,,,,,,,,,,,,,,,,,,,,,,,,,,,,,,,,,,,1.89,229.2927822,None,231.1850598,None,None,1,,231.1850598,None,233.1914006,None,,,,,,,,,,,,,,,,,,,,,,,,,,,,,,,P020,fencog,2,Post,2021_Nov_16_1214,N-Back (New Version 2021),2021.1.4,120.173675
Conditions/Version_2Pr/twoback(1)_v2.xlsx,New rule: Press 'space' when you see 2-back (i.e. the same letter as the one that appeared 2 letters ago.),q,space,,,,,0,2,2,2,0,9,9,9,,,,,,,,,,,,,,,,,,,,,,,,,,,,,,,,,,,,,,,,,,,1.09,234.6924742,None,235.7825734,None,space,1,0.4775473,235.7825734,None,236.2748261,None,,,,,,,,,,,,,,,,,,,,,,,,,,,,,,,P020,fencog,2,Post,2021_Nov_16_1214,N-Back (New Version 2021),2021.1.4,120.173675
Conditions/Version_2Pr/twoback(1)_v2.xlsx,New rule: Press 'space' when you see 2-back (i.e. the same letter as the one that appeared 2 letters ago.),,,,,,,0,2,2,2,,,,,,,,,,,,,,,,,,,,,,,,,,,,,,,,,,,,,,,,,,,,,,,,,,,,,,,,,,,,,,,,,,,,,,,,,,,,,,,,,,,,,,,,,P020,fencog,2,Post,2021_Nov_16_1214,N-Back (New Version 2021),2021.1.4,120.173675
Conditions/Version_2Pr/threeback(1)_v2.xlsx,New rule: Press 'space' when you see 3-back (i.e. the same letter as the one that appeared 3 letters ago.),u,None,,,,,0,3,3,3,0,0,0,0,,,,,,,,,,,,,,,,,,,,,,,,,,,,,,,,,237.8026327,None,240.7922278,None,space,0.8916862,240.7922278,None,237.8026327,None,1.965,241.7089554,None,243.6823566,None,None,1,,243.6823566,None,245.6852475,None,,,,,,,,,,,,,,,,,,,,,,,,,,,,,,,P020,fencog,2,Post,2021_Nov_16_1214,N-Back (New Version 2021),2021.1.4,120.173675
Conditions/Version_2Pr/threeback(1)_v2.xlsx,New rule: Press 'space' when you see 3-back (i.e. the same letter as the one that appeared 3 letters ago.),U,None,,,,,0,3,3,3,0,1,1,1,,,,,,,,,,,,,,,,,,,,,,,,,,,,,,,,,,,,,,,,,,,1.915,247.1873551,None,249.1033164,None,None,1,,249.1033164,None,251.1028126,None,,,,,,,,,,,,,,,,,,,,,,,,,,,,,,,P020,fencog,2,Post,2021_Nov_16_1214,N-Back (New Version 2021),2021.1.4,120.173675
Conditions/Version_2Pr/threeback(1)_v2.xlsx,New rule: Press 'space' when you see 3-back (i.e. the same letter as the one that appeared 3 letters ago.),p,None,,,,,0,3,3,3,0,2,2,2,,,,,,,,,,,,,,,,,,,,,,,,,,,,,,,,,,,,,,,,,,,1.44,252.6025418,None,254.0449103,None,None,1,,254.0449103,None,256.0513467,None,,,,,,,,,,,,,,,,,,,,,,,,,,,,,,,P020,fencog,2,Post,2021_Nov_16_1214,N-Back (New Version 2021),2021.1.4,120.173675
Conditions/Version_2Pr/threeback(1)_v2.xlsx,New rule: Press 'space' when you see 3-back (i.e. the same letter as the one that appeared 3 letters ago.),U,space,,,,,0,3,3,3,0,3,3,3,,,,,,,,,,,,,,,,,,,,,,,,,,,,,,,,,,,,,,,,,,,1.54,257.5509903,None,259.0920766,None,space,1,0.3520515,259.0920766,None,259.4601912,None,,,,,,,,,,,,,,,,,,,,,,,,,,,,,,,P020,fencog,2,Post,2021_Nov_16_1214,N-Back (New Version 2021),2021.1.4,120.173675
Conditions/Version_2Pr/threeback(1)_v2.xlsx,New rule: Press 'space' when you see 3-back (i.e. the same letter as the one that appeared 3 letters ago.),e,None,,,,,0,3,3,3,0,4,4,4,,,,,,,,,,,,,,,,,,,,,,,,,,,,,,,,,,,,,,,,,,,1.84,260.9666064,None,262.8086048,None,None,1,,262.8086048,None,264.8156208,None,,,,,,,,,,,,,,,,,,,,,,,,,,,,,,,P020,fencog,2,Post,2021_Nov_16_1214,N-Back (New Version 2021),2021.1.4,120.173675
Conditions/Version_2Pr/threeback(1)_v2.xlsx,New rule: Press 'space' when you see 3-back (i.e. the same letter as the one that appeared 3 letters ago.),R,None,,,,,0,3,3,3,0,5,5,5,,,,,,,,,,,,,,,,,,,,,,,,,,,,,,,,,,,,,,,,,,,1.365,266.3149683,None,267.6820846,None,None,1,,267.6820846,None,269.6890971,None,,,,,,,,,,,,,,,,,,,,,,,,,,,,,,,P020,fencog,2,Post,2021_Nov_16_1214,N-Back (New Version 2021),2021.1.4,120.173675
Conditions/Version_2Pr/threeback(1)_v2.xlsx,New rule: Press 'space' when you see 3-back (i.e. the same letter as the one that appeared 3 letters ago.),p,None,,,,,0,3,3,3,0,6,6,6,,,,,,,,,,,,,,,,,,,,,,,,,,,,,,,,,,,,,,,,,,,1.19,271.1885129,None,272.3833295,None,None,1,,272.3833295,None,274.3877823,None,,,,,,,,,,,,,,,,,,,,,,,,,,,,,,,P020,fencog,2,Post,2021_Nov_16_1214,N-Back (New Version 2021),2021.1.4,120.173675
Conditions/Version_2Pr/threeback(1)_v2.xlsx,New rule: Press 'space' when you see 3-back (i.e. the same letter as the one that appeared 3 letters ago.),E,space,,,,,0,3,3,3,0,7,7,7,,,,,,,,,,,,,,,,,,,,,,,,,,,,,,,,,,,,,,,,,,,1.115,275.8873276,None,277.0052798,None,space,1,0.3348242,277.0052798,None,277.3539218,None,,,,,,,,,,,,,,,,,,,,,,,,,,,,,,,P020,fencog,2,Post,2021_Nov_16_1214,N-Back (New Version 2021),2021.1.4,120.173675
Conditions/Version_2Pr/threeback(1)_v2.xlsx,New rule: Press 'space' when you see 3-back (i.e. the same letter as the one that appeared 3 letters ago.),k,None,,,,,0,3,3,3,0,8,8,8,,,,,,,,,,,,,,,,,,,,,,,,,,,,,,,,,,,,,,,,,,,1.315,278.852979,None,280.1783149,None,None,1,,280.1783149,None,282.174642,None,,,,,,,,,,,,,,,,,,,,,,,,,,,,,,,P020,fencog,2,Post,2021_Nov_16_1214,N-Back (New Version 2021),2021.1.4,120.173675
Conditions/Version_2Pr/threeback(1)_v2.xlsx,New rule: Press 'space' when you see 3-back (i.e. the same letter as the one that appeared 3 letters ago.),m,None,,,,,0,3,3,3,0,9,9,9,,,,,,,,,,,,,,,,,,,,,,,,,,,,,,,,,,,,,,,,,,,1.065,283.6766509,None,284.7481757,None,None,1,,284.7481757,None,286.7507305,None,,,,,,,,,,,,,,,,,,,,,,,,,,,,,,,P020,fencog,2,Post,2021_Nov_16_1214,N-Back (New Version 2021),2021.1.4,120.173675
Conditions/Version_2Pr/threeback(1)_v2.xlsx,New rule: Press 'space' when you see 3-back (i.e. the same letter as the one that appeared 3 letters ago.),,,,,,,0,3,3,3,,,,,,,,,,,,,,,,,,,,,,,,,,,,,,,,,,,,,,,,,,,,,,,,,,,,,,,,,,,,,,,,,,,,,,,,,,,,,,,,,,,,,,,,,P020,fencog,2,Post,2021_Nov_16_1214,N-Back (New Version 2021),2021.1.4,120.173675
,,,,,,,,,,,,,,,,,,,,,,,,,,,,,,,,,,,,,,,,,,,,,,,,,,,,,,,,,,,,,,,,,,,,,,288.2616667,None,space,2.4212027,288.7586803,None,,,,,,,,,,,,,,,,,,,,,,,,,P020,fencog,2,Post,2021_Nov_16_1214,N-Back (New Version 2021),2021.1.4,120.173675
,,,,,,,,,,,,,,,,,,,,,,,,,,,,,,,,,,,,,,,,,,,,,,,,,,,,,,,,,,,,,,,,,,,,,,,,,,,,291.2048984,None,space,0.7362395,291.6997675,None,,,,,,,,,,,,,,,,,,,P020,fencog,2,Post,2021_Nov_16_1214,N-Back (New Version 2021),2021.1.4,120.173675
,,,,Conditions/Version_1/zeroback(1)_v1.xlsx,Rule: Press 'space' when you see the letter 'x' or 'X'.,b,None,,,,,,,,,0,0,0,0,0,0,0,0,,,,,,,,,,,,,,,,,,,,,,,,,,,,,,,,,,,,,,,,,,,,,,,,,,,,,,,,,,,292.5402046,None,295.5268674,None,space,0.3250219,295.5268674,None,292.5402046,None,1.382,297.2657732,None,None,1,297.2657732,None,,P020,fencog,2,Post,2021_Nov_16_1214,N-Back (New Version 2021),2021.1.4,120.173675
,,,,Conditions/Version_1/zeroback(1)_v1.xlsx,Rule: Press 'space' when you see the letter 'x' or 'X'.,T,None,,,,,,,,,0,0,0,0,0,1,1,1,,,,,,,,,,,,,,,,,,,,,,,,,,,,,,,,,,,,,,,,,,,,,,,,,,,,,,,,,,,,,,,,,,,,,1.5928,300.8638318,None,None,1,300.8638318,None,,P020,fencog,2,Post,2021_Nov_16_1214,N-Back (New Version 2021),2021.1.4,120.173675
,,,,Conditions/Version_1/zeroback(1)_v1.xlsx,Rule: Press 'space' when you see the letter 'x' or 'X'.,L,None,,,,,,,,,0,0,0,0,0,2,2,2,,,,,,,,,,,,,,,,,,,,,,,,,,,,,,,,,,,,,,,,,,,,,,,,,,,,,,,,,,,,,,,,,,,,,1.1588,304.0297904,None,None,1,304.0297904,None,,P020,fencog,2,Post,2021_Nov_16_1214,N-Back (New Version 2021),2021.1.4,120.173675
,,,,Conditions/Version_1/zeroback(1)_v1.xlsx,Rule: Press 'space' when you see the letter 'x' or 'X'.,x,space,,,,,,,,,0,0,0,0,0,3,3,3,,,,,,,,,,,,,,,,,,,,,,,,,,,,,,,,,,,,,,,,,,,,,,,,,,,,,,,,,,,,,,,,,,,,,1.7416,307.7809707,None,space,1,307.7809707,None,0.3108591,P020,fencog,2,Post,2021_Nov_16_1214,N-Back (New Version 2021),2021.1.4,120.173675
,,,,Conditions/Version_1/zeroback(1)_v1.xlsx,Rule: Press 'space' when you see the letter 'x' or 'X'.,o,None,,,,,,,,,0,0,0,0,0,4,4,4,,,,,,,,,,,,,,,,,,,,,,,,,,,,,,,,,,,,,,,,,,,,,,,,,,,,,,,,,,,,,,,,,,,,,1.6486,311.4358993,None,None,1,311.4358993,None,,P020,fencog,2,Post,2021_Nov_16_1214,N-Back (New Version 2021),2021.1.4,120.173675
,,,,Conditions/Version_1/zeroback(1)_v1.xlsx,Rule: Press 'space' when you see the letter 'x' or 'X'.,P,None,,,,,,,,,0,0,0,0,0,5,5,5,,,,,,,,,,,,,,,,,,,,,,,,,,,,,,,,,,,,,,,,,,,,,,,,,,,,,,,,,,,,,,,,,,,,,1.4502,314.8935455,None,None,1,314.8935455,None,,P020,fencog,2,Post,2021_Nov_16_1214,N-Back (New Version 2021),2021.1.4,120.173675
,,,,Conditions/Version_1/zeroback(1)_v1.xlsx,Rule: Press 'space' when you see the letter 'x' or 'X'.,X,space,,,,,,,,,0,0,0,0,0,6,6,6,,,,,,,,,,,,,,,,,,,,,,,,,,,,,,,,,,,,,,,,,,,,,,,,,,,,,,,,,,,,,,,,,,,,,1.413,318.3226548,None,space,1,318.3226548,None,0.3213137,P020,fencog,2,Post,2021_Nov_16_1214,N-Back (New Version 2021),2021.1.4,120.173675
,,,,Conditions/Version_1/zeroback(1)_v1.xlsx,Rule: Press 'space' when you see the letter 'x' or 'X'.,n,None,,,,,,,,,0,0,0,0,0,7,7,7,,,,,,,,,,,,,,,,,,,,,,,,,,,,,,,,,,,,,,,,,,,,,,,,,,,,,,,,,,,,,,,,,,,,,1.1836,321.5112755,None,None,1,321.5112755,None,,P020,fencog,2,Post,2021_Nov_16_1214,N-Back (New Version 2021),2021.1.4,120.173675
,,,,Conditions/Version_1/zeroback(1)_v1.xlsx,Rule: Press 'space' when you see the letter 'x' or 'X'.,M,None,,,,,,,,,0,0,0,0,0,8,8,8,,,,,,,,,,,,,,,,,,,,,,,,,,,,,,,,,,,,,,,,,,,,,,,,,,,,,,,,,,,,,,,,,,,,,1.3882,324.9073986,None,None,1,324.9073986,None,,P020,fencog,2,Post,2021_Nov_16_1214,N-Back (New Version 2021),2021.1.4,120.173675
,,,,Conditions/Version_1/zeroback(1)_v1.xlsx,Rule: Press 'space' when you see the letter 'x' or 'X'.,a,None,,,,,,,,,0,0,0,0,0,9,9,9,,,,,,,,,,,,,,,,,,,,,,,,,,,,,,,,,,,,,,,,,,,,,,,,,,,,,,,,,,,,,,,,,,,,,1.9648,328.8820751,None,None,1,328.8820751,None,,P020,fencog,2,Post,2021_Nov_16_1214,N-Back (New Version 2021),2021.1.4,120.173675
,,,,Conditions/Version_1/zeroback(1)_v1.xlsx,Rule: Press 'space' when you see the letter 'x' or 'X'.,,,,,,,,,,,0,0,0,0,,,,,,,,,,,,,,,,,,,,,,,,,,,,,,,,,,,,,,,,,,,,,,,,,,,,,,,,,,,,,,,,,,,,,,,,,,,,,,,,,P020,fencog,2,Post,2021_Nov_16_1214,N-Back (New Version 2021),2021.1.4,120.173675
,,,,Conditions/Version_1/oneback(1)_v1.xlsx,New rule: Press 'space' when you see 1-back (i.e. the same letter as the one that appeared 1 letter ago.),b,None,,,,,,,,,0,1,1,1,0,0,0,0,,,,,,,,,,,,,,,,,,,,,,,,,,,,,,,,,,,,,,,,,,,,,,,,,,,,,,,,,,,330.9085382,None,333.8965552,None,space,0.4512421,333.8965552,None,330.9085382,None,1.8594,336.2363179,None,None,1,336.2363179,None,,P020,fencog,2,Post,2021_Nov_16_1214,N-Back (New Version 2021),2021.1.4,120.173675
,,,,Conditions/Version_1/oneback(1)_v1.xlsx,New rule: Press 'space' when you see 1-back (i.e. the same letter as the one that appeared 1 letter ago.),p,None,,,,,,,,,0,1,1,1,0,1,1,1,,,,,,,,,,,,,,,,,,,,,,,,,,,,,,,,,,,,,,,,,,,,,,,,,,,,,,,,,,,,,,,,,,,,,1.5122,339.7514664,None,None,1,339.7514664,None,,P020,fencog,2,Post,2021_Nov_16_1214,N-Back (New Version 2021),2021.1.4,120.173675
,,,,Conditions/Version_1/oneback(1)_v1.xlsx,New rule: Press 'space' when you see 1-back (i.e. the same letter as the one that appeared 1 letter ago.),M,None,,,,,,,,,0,1,1,1,0,2,2,2,,,,,,,,,,,,,,,,,,,,,,,,,,,,,,,,,,,,,,,,,,,,,,,,,,,,,,,,,,,,,,,,,,,,,1.6672,343.4255401,None,None,1,343.4255401,None,,P020,fencog,2,Post,2021_Nov_16_1214,N-Back (New Version 2021),2021.1.4,120.173675
,,,,Conditions/Version_1/oneback(1)_v1.xlsx,New rule: Press 'space' when you see 1-back (i.e. the same letter as the one that appeared 1 letter ago.),M,space,,,,,,,,,0,1,1,1,0,3,3,3,,,,,,,,,,,,,,,,,,,,,,,,,,,,,,,,,,,,,,,,,,,,,,,,,,,,,,,,,,,,,,,,,,,,,1.8346,347.2661509,None,space,1,347.2661509,None,0.3538176,P020,fencog,2,Post,2021_Nov_16_1214,N-Back (New Version 2021),2021.1.4,120.173675
,,,,Conditions/Version_1/oneback(1)_v1.xlsx,New rule: Press 'space' when you see 1-back (i.e. the same letter as the one that appeared 1 letter ago.),n,None,,,,,,,,,0,1,1,1,0,4,4,4,,,,,,,,,,,,,,,,,,,,,,,,,,,,,,,,,,,,,,,,,,,,,,,,,,,,,,,,,,,,,,,,,,,,,1.9586,351.2294843,None,None,1,351.2294843,None,,P020,fencog,2,Post,2021_Nov_16_1214,N-Back (New Version 2021),2021.1.4,120.173675
,,,,Conditions/Version_1/oneback(1)_v1.xlsx,New rule: Press 'space' when you see 1-back (i.e. the same letter as the one that appeared 1 letter ago.),g,None,,,,,,,,,0,1,1,1,0,5,5,5,,,,,,,,,,,,,,,,,,,,,,,,,,,,,,,,,,,,,,,,,,,,,,,,,,,,,,,,,,,,,,,,,,,,,1.0782,354.3152477,None,None,1,354.3152477,None,,P020,fencog,2,Post,2021_Nov_16_1214,N-Back (New Version 2021),2021.1.4,120.173675
,,,,Conditions/Version_1/oneback(1)_v1.xlsx,New rule: Press 'space' when you see 1-back (i.e. the same letter as the one that appeared 1 letter ago.),P,None,,,,,,,,,0,1,1,1,0,6,6,6,,,,,,,,,,,,,,,,,,,,,,,,,,,,,,,,,,,,,,,,,,,,,,,,,,,,,,,,,,,,,,,,,,,,,1.1464,357.4712451,None,None,1,357.4712451,None,,P020,fencog,2,Post,2021_Nov_16_1214,N-Back (New Version 2021),2021.1.4,120.173675
,,,,Conditions/Version_1/oneback(1)_v1.xlsx,New rule: Press 'space' when you see 1-back (i.e. the same letter as the one that appeared 1 letter ago.),o,None,,,,,,,,,0,1,1,1,0,7,7,7,,,,,,,,,,,,,,,,,,,,,,,,,,,,,,,,,,,,,,,,,,,,,,,,,,,,,,,,,,,,,,,,,,,,,1.5866,361.06177,None,None,1,361.06177,None,,P020,fencog,2,Post,2021_Nov_16_1214,N-Back (New Version 2021),2021.1.4,120.173675
,,,,Conditions/Version_1/oneback(1)_v1.xlsx,New rule: Press 'space' when you see 1-back (i.e. the same letter as the one that appeared 1 letter ago.),f,None,,,,,,,,,0,1,1,1,0,8,8,8,,,,,,,,,,,,,,,,,,,,,,,,,,,,,,,,,,,,,,,,,,,,,,,,,,,,,,,,,,,,,,,,,,,,,1.7106,364.7866037,None,None,1,364.7866037,None,,P020,fencog,2,Post,2021_Nov_16_1214,N-Back (New Version 2021),2021.1.4,120.173675
,,,,Conditions/Version_1/oneback(1)_v1.xlsx,New rule: Press 'space' when you see 1-back (i.e. the same letter as the one that appeared 1 letter ago.),F,space,,,,,,,,,0,1,1,1,0,9,9,9,,,,,,,,,,,,,,,,,,,,,,,,,,,,,,,,,,,,,,,,,,,,,,,,,,,,,,,,,,,,,,,,,,,,,1.1402,367.9343425,None,space,1,367.9343425,None,0.3093144,P020,fencog,2,Post,2021_Nov_16_1214,N-Back (New Version 2021),2021.1.4,120.173675
,,,,Conditions/Version_1/oneback(1)_v1.xlsx,New rule: Press 'space' when you see 1-back (i.e. the same letter as the one that appeared 1 letter ago.),,,,,,,,,,,0,1,1,1,,,,,,,,,,,,,,,,,,,,,,,,,,,,,,,,,,,,,,,,,,,,,,,,,,,,,,,,,,,,,,,,,,,,,,,,,,,,,,,,,P020,fencog,2,Post,2021_Nov_16_1214,N-Back (New Version 2021),2021.1.4,120.173675
,,,,Conditions/Version_1/twoback(1)_v1.xlsx,New rule: Press 'space' when you see 2-back (i.e. the same letter as the one that appeared 2 letters ago.),b,None,,,,,,,,,0,2,2,2,0,0,0,0,,,,,,,,,,,,,,,,,,,,,,,,,,,,,,,,,,,,,,,,,,,,,,,,,,,,,,,,,,,369.9580883,None,372.9438115,None,space,0.4199493,372.9438115,None,369.9580883,None,1.2084,374.5993468,None,None,1,374.5993468,None,,P020,fencog,2,Post,2021_Nov_16_1214,N-Back (New Version 2021),2021.1.4,120.173675
,,,,Conditions/Version_1/twoback(1)_v1.xlsx,New rule: Press 'space' when you see 2-back (i.e. the same letter as the one that appeared 2 letters ago.),h,None,,,,,,,,,0,2,2,2,0,1,1,1,,,,,,,,,,,,,,,,,,,,,,,,,,,,,,,,,,,,,,,,,,,,,,,,,,,,,,,,,,,,,,,,,,,,,1.9586,378.5660964,None,None,1,378.5660964,None,,P020,fencog,2,Post,2021_Nov_16_1214,N-Back (New Version 2021),2021.1.4,120.173675
,,,,Conditions/Version_1/twoback(1)_v1.xlsx,New rule: Press 'space' when you see 2-back (i.e. the same letter as the one that appeared 2 letters ago.),j,None,,,,,,,,,0,2,2,2,0,2,2,2,,,,,,,,,,,,,,,,,,,,,,,,,,,,,,,,,,,,,,,,,,,,,,,,,,,,,,,,,,,,,,,,,,,,,1.9152,382.4918673,None,None,1,382.4918673,None,,P020,fencog,2,Post,2021_Nov_16_1214,N-Back (New Version 2021),2021.1.4,120.173675
,,,,Conditions/Version_1/twoback(1)_v1.xlsx,New rule: Press 'space' when you see 2-back (i.e. the same letter as the one that appeared 2 letters ago.),H,space,,,,,,,,,0,2,2,2,0,3,3,3,,,,,,,,,,,,,,,,,,,,,,,,,,,,,,,,,,,,,,,,,,,,,,,,,,,,,,,,,,,,,,,,,,,,,1.878,386.3809147,None,space,1,386.3809147,None,0.3591576,P020,fencog,2,Post,2021_Nov_16_1214,N-Back (New Version 2021),2021.1.4,120.173675
,,,,Conditions/Version_1/twoback(1)_v1.xlsx,New rule: Press 'space' when you see 2-back (i.e. the same letter as the one that appeared 2 letters ago.),p,None,,,,,,,,,0,2,2,2,0,4,4,4,,,,,,,,,,,,,,,,,,,,,,,,,,,,,,,,,,,,,,,,,,,,,,,,,,,,,,,,,,,,,,,,,,,,,1.2828,389.6700425,None,None,1,389.6700425,None,,P020,fencog,2,Post,2021_Nov_16_1214,N-Back (New Version 2021),2021.1.4,120.173675
,,,,Conditions/Version_1/twoback(1)_v1.xlsx,New rule: Press 'space' when you see 2-back (i.e. the same letter as the one that appeared 2 letters ago.),p,None,,,,,,,,,0,2,2,2,0,5,5,5,,,,,,,,,,,,,,,,,,,,,,,,,,,,,,,,,,,,,,,,,,,,,,,,,,,,,,,,,,,,,,,,,,,,,1.3262,393.0024965,None,None,1,393.0024965,None,,P020,fencog,2,Post,2021_Nov_16_1214,N-Back (New Version 2021),2021.1.4,120.173675
,,,,Conditions/Version_1/twoback(1)_v1.xlsx,New rule: Press 'space' when you see 2-back (i.e. the same letter as the one that appeared 2 letters ago.),w,None,,,,,,,,,0,2,2,2,0,6,6,6,,,,,,,,,,,,,,,,,,,,,,,,,,,,,,,,,,,,,,,,,,,,,,,,,,,,,,,,,,,,,,,,,,,,,1.6796,396.6859802,None,None,1,396.6859802,None,,P020,fencog,2,Post,2021_Nov_16_1214,N-Back (New Version 2021),2021.1.4,120.173675
,,,,Conditions/Version_1/twoback(1)_v1.xlsx,New rule: Press 'space' when you see 2-back (i.e. the same letter as the one that appeared 2 letters ago.),R,None,,,,,,,,,0,2,2,2,0,7,7,7,,,,,,,,,,,,,,,,,,,,,,,,,,,,,,,,,,,,,,,,,,,,,,,,,,,,,,,,,,,,,,,,,,,,,1.7726,400.467973,None,None,1,400.467973,None,,P020,fencog,2,Post,2021_Nov_16_1214,N-Back (New Version 2021),2021.1.4,120.173675
,,,,Conditions/Version_1/twoback(1)_v1.xlsx,New rule: Press 'space' when you see 2-back (i.e. the same letter as the one that appeared 2 letters ago.),a,None,,,,,,,,,0,2,2,2,0,8,8,8,,,,,,,,,,,,,,,,,,,,,,,,,,,,,,,,,,,,,,,,,,,,,,,,,,,,,,,,,,,,,,,,,,,,,1.2208,403.6950331,None,None,1,403.6950331,None,,P020,fencog,2,Post,2021_Nov_16_1214,N-Back (New Version 2021),2021.1.4,120.173675
,,,,Conditions/Version_1/twoback(1)_v1.xlsx,New rule: Press 'space' when you see 2-back (i.e. the same letter as the one that appeared 2 letters ago.),r,space,,,,,,,,,0,2,2,2,0,9,9,9,,,,,,,,,,,,,,,,,,,,,,,,,,,,,,,,,,,,,,,,,,,,,,,,,,,,,,,,,,,,,,,,,,,,,1.4006,407.1119664,None,space,1,407.1119664,None,0.3721305,P020,fencog,2,Post,2021_Nov_16_1214,N-Back (New Version 2021),2021.1.4,120.173675
,,,,Conditions/Version_1/twoback(1)_v1.xlsx,New rule: Press 'space' when you see 2-back (i.e. the same letter as the one that appeared 2 letters ago.),,,,,,,,,,,0,2,2,2,,,,,,,,,,,,,,,,,,,,,,,,,,,,,,,,,,,,,,,,,,,,,,,,,,,,,,,,,,,,,,,,,,,,,,,,,,,,,,,,,P020,fencog,2,Post,2021_Nov_16_1214,N-Back (New Version 2021),2021.1.4,120.173675
,,,,Conditions/Version_1/threeback(1)_v1.xlsx,New rule: Press 'space' when you see 3-back (i.e. the same letter as the one that appeared 3 letters ago.),r,None,,,,,,,,,0,3,3,3,0,0,0,0,,,,,,,,,,,,,,,,,,,,,,,,,,,,,,,,,,,,,,,,,,,,,,,,,,,,,,,,,,,409.1387377,None,412.1244644,None,space,1.9913458,412.1244644,None,409.1387377,None,1.723,415.8624092,None,None,1,415.8624092,None,,P020,fencog,2,Post,2021_Nov_16_1214,N-Back (New Version 2021),2021.1.4,120.173675
,,,,Conditions/Version_1/threeback(1)_v1.xlsx,New rule: Press 'space' when you see 3-back (i.e. the same letter as the one that appeared 3 letters ago.),o,None,,,,,,,,,0,3,3,3,0,1,1,1,,,,,,,,,,,,,,,,,,,,,,,,,,,,,,,,,,,,,,,,,,,,,,,,,,,,,,,,,,,,,,,,,,,,,1.754,419.625742,None,None,1,419.625742,None,,P020,fencog,2,Post,2021_Nov_16_1214,N-Back (New Version 2021),2021.1.4,120.173675
,,,,Conditions/Version_1/threeback(1)_v1.xlsx,New rule: Press 'space' when you see 3-back (i.e. the same letter as the one that appeared 3 letters ago.),P,None,,,,,,,,,0,3,3,3,0,2,2,2,,,,,,,,,,,,,,,,,,,,,,,,,,,,,,,,,,,,,,,,,,,,,,,,,,,,,,,,,,,,,,,,,,,,,1.0224,422.6520173,None,None,1,422.6520173,None,,P020,fencog,2,Post,2021_Nov_16_1214,N-Back (New Version 2021),2021.1.4,120.173675
,,,,Conditions/Version_1/threeback(1)_v1.xlsx,New rule: Press 'space' when you see 3-back (i.e. the same letter as the one that appeared 3 letters ago.),R,space,,,,,,,,,0,3,3,3,0,3,3,3,,,,,,,,,,,,,,,,,,,,,,,,,,,,,,,,,,,,,,,,,,,,,,,,,,,,,,,,,,,,,,,,,,,,,1.3448,426.0010111,None,space,1,426.0010111,None,0.6668081,P020,fencog,2,Post,2021_Nov_16_1214,N-Back (New Version 2021),2021.1.4,120.173675
,,,,Conditions/Version_1/threeback(1)_v1.xlsx,New rule: Press 'space' when you see 3-back (i.e. the same letter as the one that appeared 3 letters ago.),p,None,,,,,,,,,0,3,3,3,0,4,4,4,,,,,,,,,,,,,,,,,,,,,,,,,,,,,,,,,,,,,,,,,,,,,,,,,,,,,,,,,,,,,,,,,,,,,1.3944,429.4022316,None,None,1,429.4022316,None,,P020,fencog,2,Post,2021_Nov_16_1214,N-Back (New Version 2021),2021.1.4,120.173675
,,,,Conditions/Version_1/threeback(1)_v1.xlsx,New rule: Press 'space' when you see 3-back (i.e. the same letter as the one that appeared 3 letters ago.),E,None,,,,,,,,,0,3,3,3,0,5,5,5,,,,,,,,,,,,,,,,,,,,,,,,,,,,,,,,,,,,,,,,,,,,,,,,,,,,,,,,,,,,,,,,,,,,,1.2022,432.6072471,None,None,1,432.6072471,None,,P020,fencog,2,Post,2021_Nov_16_1214,N-Back (New Version 2021),2021.1.4,120.173675
,,,,Conditions/Version_1/threeback(1)_v1.xlsx,New rule: Press 'space' when you see 3-back (i.e. the same letter as the one that appeared 3 letters ago.),e,None,,,,,,,,,0,3,3,3,0,6,6,6,,,,,,,,,,,,,,,,,,,,,,,,,,,,,,,,,,,,,,,,,,,,,,,,,,,,,,,,,,,,,,,,,,,,,1.2456,435.8562483,None,None,1,435.8562483,None,,P020,fencog,2,Post,2021_Nov_16_1214,N-Back (New Version 2021),2021.1.4,120.173675
,,,,Conditions/Version_1/threeback(1)_v1.xlsx,New rule: Press 'space' when you see 3-back (i.e. the same letter as the one that appeared 3 letters ago.),m,None,,,,,,,,,0,3,3,3,0,7,7,7,,,,,,,,,,,,,,,,,,,,,,,,,,,,,,,,,,,,,,,,,,,,,,,,,,,,,,,,,,,,,,,,,,,,,1.9772,439.8411873,None,None,1,439.8411873,None,,P020,fencog,2,Post,2021_Nov_16_1214,N-Back (New Version 2021),2021.1.4,120.173675
,,,,Conditions/Version_1/threeback(1)_v1.xlsx,New rule: Press 'space' when you see 3-back (i.e. the same letter as the one that appeared 3 letters ago.),n,None,,,,,,,,,0,3,3,3,0,8,8,8,,,,,,,,,,,,,,,,,,,,,,,,,,,,,,,,,,,,,,,,,,,,,,,,,,,,,,,,,,,,,,,,,,,,,1.4316,443.2828551,None,None,1,443.2828551,None,,P020,fencog,2,Post,2021_Nov_16_1214,N-Back (New Version 2021),2021.1.4,120.173675
,,,,Conditions/Version_1/threeback(1)_v1.xlsx,New rule: Press 'space' when you see 3-back (i.e. the same letter as the one that appeared 3 letters ago.),e,space,,,,,,,,,0,3,3,3,0,9,9,9,,,,,,,,,,,,,,,,,,,,,,,,,,,,,,,,,,,,,,,,,,,,,,,,,,,,,,,,,,,,,,,,,,,,,1.0968,446.3900718,None,space,1,446.3900718,None,0.4936196,P020,fencog,2,Post,2021_Nov_16_1214,N-Back (New Version 2021),2021.1.4,120.173675
,,,,Conditions/Version_1/threeback(1)_v1.xlsx,New rule: Press 'space' when you see 3-back (i.e. the same letter as the one that appeared 3 letters ago.),,,,,,,,,,,0,3,3,3,,,,,,,,,,,,,,,,,,,,,,,,,,,,,,,,,,,,,,,,,,,,,,,,,,,,,,,,,,,,,,,,,,,,,,,,,,,,,,,,,P020,fencog,2,Post,2021_Nov_16_1214,N-Back (New Version 2021),2021.1.4,120.173675
,,,,Conditions/Version_1/oneback(2)_v1.xlsx,New rule: Press 'space' when you see 1-back (i.e. the same letter as the one that appeared 1 letter ago.),q,None,,,,,,,,,0,4,4,4,0,0,0,0,,,,,,,,,,,,,,,,,,,,,,,,,,,,,,,,,,,,,,,,,,,,,,,,,,,,,,,,,,,448.4181553,None,451.4040205,None,space,0.2316574,451.4040205,None,448.4181553,None,1.4316,453.0928131,None,None,1,453.0928131,None,,P020,fencog,2,Post,2021_Nov_16_1214,N-Back (New Version 2021),2021.1.4,120.173675
,,,,Conditions/Version_1/oneback(2)_v1.xlsx,New rule: Press 'space' when you see 1-back (i.e. the same letter as the one that appeared 1 letter ago.),Q,space,,,,,,,,,0,4,4,4,0,1,1,1,,,,,,,,,,,,,,,,,,,,,,,,,,,,,,,,,,,,,,,,,,,,,,,,,,,,,,,,,,,,,,,,,,,,,1.2022,456.3011631,None,space,1,456.3011631,None,0.3263991,P020,fencog,2,Post,2021_Nov_16_1214,N-Back (New Version 2021),2021.1.4,120.173675
,,,,Conditions/Version_1/oneback(2)_v1.xlsx,New rule: Press 'space' when you see 1-back (i.e. the same letter as the one that appeared 1 letter ago.),P,None,,,,,,,,,0,4,4,4,0,2,2,2,,,,,,,,,,,,,,,,,,,,,,,,,,,,,,,,,,,,,,,,,,,,,,,,,,,,,,,,,,,,,,,,,,,,,1.5494,459.8702343,None,None,1,459.8702343,None,,P020,fencog,2,Post,2021_Nov_16_1214,N-Back (New Version 2021),2021.1.4,120.173675
,,,,Conditions/Version_1/oneback(2)_v1.xlsx,New rule: Press 'space' when you see 1-back (i.e. the same letter as the one that appeared 1 letter ago.),o,None,,,,,,,,,0,4,4,4,0,3,3,3,,,,,,,,,,,,,,,,,,,,,,,,,,,,,,,,,,,,,,,,,,,,,,,,,,,,,,,,,,,,,,,,,,,,,1.5122,463.3898529,None,None,1,463.3898529,None,,P020,fencog,2,Post,2021_Nov_16_1214,N-Back (New Version 2021),2021.1.4,120.173675
,,,,Conditions/Version_1/oneback(2)_v1.xlsx,New rule: Press 'space' when you see 1-back (i.e. the same letter as the one that appeared 1 letter ago.),m,None,,,,,,,,,0,4,4,4,0,4,4,4,,,,,,,,,,,,,,,,,,,,,,,,,,,,,,,,,,,,,,,,,,,,,,,,,,,,,,,,,,,,,,,,,,,,,1.2208,466.6140386,None,None,1,466.6140386,None,,P020,fencog,2,Post,2021_Nov_16_1214,N-Back (New Version 2021),2021.1.4,120.173675
,,,,Conditions/Version_1/oneback(2)_v1.xlsx,New rule: Press 'space' when you see 1-back (i.e. the same letter as the one that appeared 1 letter ago.),Z,None,,,,,,,,,0,4,4,4,0,5,5,5,,,,,,,,,,,,,,,,,,,,,,,,,,,,,,,,,,,,,,,,,,,,,,,,,,,,,,,,,,,,,,,,,,,,,1.165,469.7905382,None,None,1,469.7905382,None,,P020,fencog,2,Post,2021_Nov_16_1214,N-Back (New Version 2021),2021.1.4,120.173675
,,,,Conditions/Version_1/oneback(2)_v1.xlsx,New rule: Press 'space' when you see 1-back (i.e. the same letter as the one that appeared 1 letter ago.),c,None,,,,,,,,,0,4,4,4,0,6,6,6,,,,,,,,,,,,,,,,,,,,,,,,,,,,,,,,,,,,,,,,,,,,,,,,,,,,,,,,,,,,,,,,,,,,,1.1836,472.9801349,None,None,1,472.9801349,None,,P020,fencog,2,Post,2021_Nov_16_1214,N-Back (New Version 2021),2021.1.4,120.173675
,,,,Conditions/Version_1/oneback(2)_v1.xlsx,New rule: Press 'space' when you see 1-back (i.e. the same letter as the one that appeared 1 letter ago.),c,space,,,,,,,,,0,4,4,4,0,7,7,7,,,,,,,,,,,,,,,,,,,,,,,,,,,,,,,,,,,,,,,,,,,,,,,,,,,,,,,,,,,,,,,,,,,,,1.382,476.3693787,None,space,1,476.3693787,None,0.346249,P020,fencog,2,Post,2021_Nov_16_1214,N-Back (New Version 2021),2021.1.4,120.173675
,,,,Conditions/Version_1/oneback(2)_v1.xlsx,New rule: Press 'space' when you see 1-back (i.e. the same letter as the one that appeared 1 letter ago.),P,None,,,,,,,,,0,4,4,4,0,8,8,8,,,,,,,,,,,,,,,,,,,,,,,,,,,,,,,,,,,,,,,,,,,,,,,,,,,,,,,,,,,,,,,,,,,,,1.1898,479.5610839,None,None,1,479.5610839,None,,P020,fencog,2,Post,2021_Nov_16_1214,N-Back (New Version 2021),2021.1.4,120.173675
,,,,Conditions/Version_1/oneback(2)_v1.xlsx,New rule: Press 'space' when you see 1-back (i.e. the same letter as the one that appeared 1 letter ago.),p,space,,,,,,,,,0,4,4,4,0,9,9,9,,,,,,,,,,,,,,,,,,,,,,,,,,,,,,,,,,,,,,,,,,,,,,,,,,,,,,,,,,,,,,,,,,,,,1.6858,483.2617114,None,space,1,483.2617114,None,0.4138092,P020,fencog,2,Post,2021_Nov_16_1214,N-Back (New Version 2021),2021.1.4,120.173675
,,,,Conditions/Version_1/oneback(2)_v1.xlsx,New rule: Press 'space' when you see 1-back (i.e. the same letter as the one that appeared 1 letter ago.),,,,,,,,,,,0,4,4,4,,,,,,,,,,,,,,,,,,,,,,,,,,,,,,,,,,,,,,,,,,,,,,,,,,,,,,,,,,,,,,,,,,,,,,,,,,,,,,,,,P020,fencog,2,Post,2021_Nov_16_1214,N-Back (New Version 2021),2021.1.4,120.173675
,,,,Conditions/Version_1/zeroback(2)_v1.xlsx,New rule: Press 'space' when you see the letter 'x' or 'X'.,p,None,,,,,,,,,0,5,5,5,0,0,0,0,,,,,,,,,,,,,,,,,,,,,,,,,,,,,,,,,,,,,,,,,,,,,,,,,,,,,,,,,,,485.2867386,None,488.275959,None,space,0.2635569,488.275959,None,485.2867386,None,1.6176,490.1820432,None,None,1,490.1820432,None,,P020,fencog,2,Post,2021_Nov_16_1214,N-Back (New Version 2021),2021.1.4,120.173675
,,,,Conditions/Version_1/zeroback(2)_v1.xlsx,New rule: Press 'space' when you see the letter 'x' or 'X'.,L,None,,,,,,,,,0,5,5,5,0,1,1,1,,,,,,,,,,,,,,,,,,,,,,,,,,,,,,,,,,,,,,,,,,,,,,,,,,,,,,,,,,,,,,,,,,,,,1.4874,493.6725122,None,None,1,493.6725122,None,,P020,fencog,2,Post,2021_Nov_16_1214,N-Back (New Version 2021),2021.1.4,120.173675
,,,,Conditions/Version_1/zeroback(2)_v1.xlsx,New rule: Press 'space' when you see the letter 'x' or 'X'.,G,None,,,,,,,,,0,5,5,5,0,2,2,2,,,,,,,,,,,,,,,,,,,,,,,,,,,,,,,,,,,,,,,,,,,,,,,,,,,,,,,,,,,,,,,,,,,,,1.5556,497.241471,None,None,1,497.241471,None,,P020,fencog,2,Post,2021_Nov_16_1214,N-Back (New Version 2021),2021.1.4,120.173675
,,,,Conditions/Version_1/zeroback(2)_v1.xlsx,New rule: Press 'space' when you see the letter 'x' or 'X'.,y,None,,,,,,,,,0,5,5,5,0,3,3,3,,,,,,,,,,,,,,,,,,,,,,,,,,,,,,,,,,,,,,,,,,,,,,,,,,,,,,,,,,,,,,,,,,,,,1.2332,500.4764789,None,None,1,500.4764789,None,,P020,fencog,2,Post,2021_Nov_16_1214,N-Back (New Version 2021),2021.1.4,120.173675
,,,,Conditions/Version_1/zeroback(2)_v1.xlsx,New rule: Press 'space' when you see the letter 'x' or 'X'.,Y,None,,,,,,,,,0,5,5,5,0,4,4,4,,,,,,,,,,,,,,,,,,,,,,,,,,,,,,,,,,,,,,,,,,,,,,,,,,,,,,,,,,,,,,,,,,,,,1.5804,504.0631891,None,None,1,504.0631891,None,,P020,fencog,2,Post,2021_Nov_16_1214,N-Back (New Version 2021),2021.1.4,120.173675
,,,,Conditions/Version_1/zeroback(2)_v1.xlsx,New rule: Press 'space' when you see the letter 'x' or 'X'.,W,None,,,,,,,,,0,5,5,5,0,5,5,5,,,,,,,,,,,,,,,,,,,,,,,,,,,,,,,,,,,,,,,,,,,,,,,,,,,,,,,,,,,,,,,,,,,,,1.4998,507.5689357,None,None,1,507.5689357,None,,P020,fencog,2,Post,2021_Nov_16_1214,N-Back (New Version 2021),2021.1.4,120.173675
,,,,Conditions/Version_1/zeroback(2)_v1.xlsx,New rule: Press 'space' when you see the letter 'x' or 'X'.,x,space,,,,,,,,,0,5,5,5,0,6,6,6,,,,,,,,,,,,,,,,,,,,,,,,,,,,,,,,,,,,,,,,,,,,,,,,,,,,,,,,,,,,,,,,,,,,,1.6796,511.2505847,None,space,1,511.2505847,None,0.3930524,P020,fencog,2,Post,2021_Nov_16_1214,N-Back (New Version 2021),2021.1.4,120.173675
,,,,Conditions/Version_1/zeroback(2)_v1.xlsx,New rule: Press 'space' when you see the letter 'x' or 'X'.,X,space,,,,,,,,,0,5,5,5,0,7,7,7,,,,,,,,,,,,,,,,,,,,,,,,,,,,,,,,,,,,,,,,,,,,,,,,,,,,,,,,,,,,,,,,,,,,,1.0906,514.3507334,None,space,1,514.3507334,None,0.3647721,P020,fencog,2,Post,2021_Nov_16_1214,N-Back (New Version 2021),2021.1.4,120.173675
,,,,Conditions/Version_1/zeroback(2)_v1.xlsx,New rule: Press 'space' when you see the letter 'x' or 'X'.,p,None,,,,,,,,,0,5,5,5,0,8,8,8,,,,,,,,,,,,,,,,,,,,,,,,,,,,,,,,,,,,,,,,,,,,,,,,,,,,,,,,,,,,,,,,,,,,,1.3758,517.7402981,None,None,1,517.7402981,None,,P020,fencog,2,Post,2021_Nov_16_1214,N-Back (New Version 2021),2021.1.4,120.173675
,,,,Conditions/Version_1/zeroback(2)_v1.xlsx,New rule: Press 'space' when you see the letter 'x' or 'X'.,h,None,,,,,,,,,0,5,5,5,0,9,9,9,,,,,,,,,,,,,,,,,,,,,,,,,,,,,,,,,,,,,,,,,,,,,,,,,,,,,,,,,,,,,,,,,,,,,1.0348,520.7822826,None,None,1,520.7822826,None,,P020,fencog,2,Post,2021_Nov_16_1214,N-Back (New Version 2021),2021.1.4,120.173675
,,,,Conditions/Version_1/zeroback(2)_v1.xlsx,New rule: Press 'space' when you see the letter 'x' or 'X'.,,,,,,,,,,,0,5,5,5,,,,,,,,,,,,,,,,,,,,,,,,,,,,,,,,,,,,,,,,,,,,,,,,,,,,,,,,,,,,,,,,,,,,,,,,,,,,,,,,,P020,fencog,2,Post,2021_Nov_16_1214,N-Back (New Version 2021),2021.1.4,120.173675
,,,,Conditions/Version_1/threeback(2)_v1.xlsx,New rule: Press 'space' when you see 3-back (i.e. the same letter as the one that appeared 3 letters ago.),q,None,,,,,,,,,0,6,6,6,0,0,0,0,,,,,,,,,,,,,,,,,,,,,,,,,,,,,,,,,,,,,,,,,,,,,,,,,,,,,,,,,,,522.8114751,None,525.7992137,None,space,0.3643395,525.7992137,None,522.8114751,None,1.7788,527.9751508,None,None,1,527.9751508,None,,P020,fencog,2,Post,2021_Nov_16_1214,N-Back (New Version 2021),2021.1.4,120.173675
,,,,Conditions/Version_1/threeback(2)_v1.xlsx,New rule: Press 'space' when you see 3-back (i.e. the same letter as the one that appeared 3 letters ago.),Y,None,,,,,,,,,0,6,6,6,0,1,1,1,,,,,,,,,,,,,,,,,,,,,,,,,,,,,,,,,,,,,,,,,,,,,,,,,,,,,,,,,,,,,,,,,,,,,1.4812,531.4618033,None,None,1,531.4618033,None,,P020,fencog,2,Post,2021_Nov_16_1214,N-Back (New Version 2021),2021.1.4,120.173675
,,,,Conditions/Version_1/threeback(2)_v1.xlsx,New rule: Press 'space' when you see 3-back (i.e. the same letter as the one that appeared 3 letters ago.),p,None,,,,,,,,,0,6,6,6,0,2,2,2,,,,,,,,,,,,,,,,,,,,,,,,,,,,,,,,,,,,,,,,,,,,,,,,,,,,,,,,,,,,,,,,,,,,,1.7168,535.1786774,None,None,1,535.1786774,None,,P020,fencog,2,Post,2021_Nov_16_1214,N-Back (New Version 2021),2021.1.4,120.173675
,,,,Conditions/Version_1/threeback(2)_v1.xlsx,New rule: Press 'space' when you see 3-back (i.e. the same letter as the one that appeared 3 letters ago.),p,None,,,,,,,,,0,6,6,6,0,3,3,3,,,,,,,,,,,,,,,,,,,,,,,,,,,,,,,,,,,,,,,,,,,,,,,,,,,,,,,,,,,,,,,,,,,,,1.475,538.6675641,None,None,1,538.6675641,None,,P020,fencog,2,Post,2021_Nov_16_1214,N-Back (New Version 2021),2021.1.4,120.173675
,,,,Conditions/Version_1/threeback(2)_v1.xlsx,New rule: Press 'space' when you see 3-back (i.e. the same letter as the one that appeared 3 letters ago.),y,space,,,,,,,,,0,6,6,6,0,4,4,4,,,,,,,,,,,,,,,,,,,,,,,,,,,,,,,,,,,,,,,,,,,,,,,,,,,,,,,,,,,,,,,,,,,,,1.7974,542.4664012,None,space,1,542.4664012,None,0.4011211,P020,fencog,2,Post,2021_Nov_16_1214,N-Back (New Version 2021),2021.1.4,120.173675
,,,,Conditions/Version_1/threeback(2)_v1.xlsx,New rule: Press 'space' when you see 3-back (i.e. the same letter as the one that appeared 3 letters ago.),u,None,,,,,,,,,0,6,6,6,0,5,5,5,,,,,,,,,,,,,,,,,,,,,,,,,,,,,,,,,,,,,,,,,,,,,,,,,,,,,,,,,,,,,,,,,,,,,1.2642,545.7422583,None,None,1,545.7422583,None,,P020,fencog,2,Post,2021_Nov_16_1214,N-Back (New Version 2021),2021.1.4,120.173675
,,,,Conditions/Version_1/threeback(2)_v1.xlsx,New rule: Press 'space' when you see 3-back (i.e. the same letter as the one that appeared 3 letters ago.),P,space,,,,,,,,,0,6,6,6,0,6,6,6,,,,,,,,,,,,,,,,,,,,,,,,,,,,,,,,,,,,,,,,,,,,,,,,,,,,,,,,,,,,,,,,,,,,,1.6548,549.4070603,None,None,0,549.4070603,None,,P020,fencog,2,Post,2021_Nov_16_1214,N-Back (New Version 2021),2021.1.4,120.173675
,,,,Conditions/Version_1/threeback(2)_v1.xlsx,New rule: Press 'space' when you see 3-back (i.e. the same letter as the one that appeared 3 letters ago.),a,None,,,,,,,,,0,6,6,6,0,7,7,7,,,,,,,,,,,,,,,,,,,,,,,,,,,,,,,,,,,,,,,,,,,,,,,,,,,,,,,,,,,,,,,,,,,,,1.227,552.6466376,None,None,1,552.6466376,None,,P020,fencog,2,Post,2021_Nov_16_1214,N-Back (New Version 2021),2021.1.4,120.173675
,,,,Conditions/Version_1/threeback(2)_v1.xlsx,New rule: Press 'space' when you see 3-back (i.e. the same letter as the one that appeared 3 letters ago.),U,space,,,,,,,,,0,6,6,6,0,8,8,8,,,,,,,,,,,,,,,,,,,,,,,,,,,,,,,,,,,,,,,,,,,,,,,,,,,,,,,,,,,,,,,,,,,,,1.599,556.2458433,None,space,1,556.2458433,None,0.4936525,P020,fencog,2,Post,2021_Nov_16_1214,N-Back (New Version 2021),2021.1.4,120.173675
,,,,Conditions/Version_1/threeback(2)_v1.xlsx,New rule: Press 'space' when you see 3-back (i.e. the same letter as the one that appeared 3 letters ago.),q,None,,,,,,,,,0,6,6,6,0,9,9,9,,,,,,,,,,,,,,,,,,,,,,,,,,,,,,,,,,,,,,,,,,,,,,,,,,,,,,,,,,,,,,,,,,,,,1.8098,560.0621193,None,None,1,560.0621193,None,,P020,fencog,2,Post,2021_Nov_16_1214,N-Back (New Version 2021),2021.1.4,120.173675
,,,,Conditions/Version_1/threeback(2)_v1.xlsx,New rule: Press 'space' when you see 3-back (i.e. the same letter as the one that appeared 3 letters ago.),,,,,,,,,,,0,6,6,6,,,,,,,,,,,,,,,,,,,,,,,,,,,,,,,,,,,,,,,,,,,,,,,,,,,,,,,,,,,,,,,,,,,,,,,,,,,,,,,,,P020,fencog,2,Post,2021_Nov_16_1214,N-Back (New Version 2021),2021.1.4,120.173675
,,,,Conditions/Version_1/twoback(2)_v1.xlsx,New rule: Press 'space' when you see 2-back (i.e. the same letter as the one that appeared 2 letters ago.),q,None,,,,,,,,,0,7,7,7,0,0,0,0,,,,,,,,,,,,,,,,,,,,,,,,,,,,,,,,,,,,,,,,,,,,,,,,,,,,,,,,,,,562.091194,None,565.0787143,None,space,0.0127636,565.0787143,None,562.091194,None,1.5804,566.709352,None,None,1,566.709352,None,,P020,fencog,2,Post,2021_Nov_16_1214,N-Back (New Version 2021),2021.1.4,120.173675
,,,,Conditions/Version_1/twoback(2)_v1.xlsx,New rule: Press 'space' when you see 2-back (i.e. the same letter as the one that appeared 2 letters ago.),r,None,,,,,,,,,0,7,7,7,0,1,1,1,,,,,,,,,,,,,,,,,,,,,,,,,,,,,,,,,,,,,,,,,,,,,,,,,,,,,,,,,,,,,,,,,,,,,1.7788,570.4915109,None,None,1,570.4915109,None,,P020,fencog,2,Post,2021_Nov_16_1214,N-Back (New Version 2021),2021.1.4,120.173675
,,,,Conditions/Version_1/twoback(2)_v1.xlsx,New rule: Press 'space' when you see 2-back (i.e. the same letter as the one that appeared 2 letters ago.),q,space,,,,,,,,,0,7,7,7,0,2,2,2,,,,,,,,,,,,,,,,,,,,,,,,,,,,,,,,,,,,,,,,,,,,,,,,,,,,,,,,,,,,,,,,,,,,,1.5928,574.0915803,None,space,1,574.0915803,None,0.3838721,P020,fencog,2,Post,2021_Nov_16_1214,N-Back (New Version 2021),2021.1.4,120.173675
,,,,Conditions/Version_1/twoback(2)_v1.xlsx,New rule: Press 'space' when you see 2-back (i.e. the same letter as the one that appeared 2 letters ago.),P,None,,,,,,,,,0,7,7,7,0,3,3,3,,,,,,,,,,,,,,,,,,,,,,,,,,,,,,,,,,,,,,,,,,,,,,,,,,,,,,,,,,,,,,,,,,,,,1.8532,577.9476335,None,None,1,577.9476335,None,,P020,fencog,2,Post,2021_Nov_16_1214,N-Back (New Version 2021),2021.1.4,120.173675
,,,,Conditions/Version_1/twoback(2)_v1.xlsx,New rule: Press 'space' when you see 2-back (i.e. the same letter as the one that appeared 2 letters ago.),p,None,,,,,,,,,0,7,7,7,0,4,4,4,,,,,,,,,,,,,,,,,,,,,,,,,,,,,,,,,,,,,,,,,,,,,,,,,,,,,,,,,,,,,,,,,,,,,1.2456,581.2030046,None,None,1,581.2030046,None,,P020,fencog,2,Post,2021_Nov_16_1214,N-Back (New Version 2021),2021.1.4,120.173675
,,,,Conditions/Version_1/twoback(2)_v1.xlsx,New rule: Press 'space' when you see 2-back (i.e. the same letter as the one that appeared 2 letters ago.),H,None,,,,,,,,,0,7,7,7,0,5,5,5,,,,,,,,,,,,,,,,,,,,,,,,,,,,,,,,,,,,,,,,,,,,,,,,,,,,,,,,,,,,,,,,,,,,,1.7354,584.9453584,None,None,1,584.9453584,None,,P020,fencog,2,Post,2021_Nov_16_1214,N-Back (New Version 2021),2021.1.4,120.173675
,,,,Conditions/Version_1/twoback(2)_v1.xlsx,New rule: Press 'space' when you see 2-back (i.e. the same letter as the one that appeared 2 letters ago.),g,None,,,,,,,,,0,7,7,7,0,6,6,6,,,,,,,,,,,,,,,,,,,,,,,,,,,,,,,,,,,,,,,,,,,,,,,,,,,,,,,,,,,,,,,,,,,,,1.1092,588.0633391,None,None,1,588.0633391,None,,P020,fencog,2,Post,2021_Nov_16_1214,N-Back (New Version 2021),2021.1.4,120.173675
,,,,Conditions/Version_1/twoback(2)_v1.xlsx,New rule: Press 'space' when you see 2-back (i.e. the same letter as the one that appeared 2 letters ago.),j,None,,,,,,,,,0,7,7,7,0,7,7,7,,,,,,,,,,,,,,,,,,,,,,,,,,,,,,,,,,,,,,,,,,,,,,,,,,,,,,,,,,,,,,,,,,,,,1.0906,591.1629595,None,None,1,591.1629595,None,,P020,fencog,2,Post,2021_Nov_16_1214,N-Back (New Version 2021),2021.1.4,120.173675
,,,,Conditions/Version_1/twoback(2)_v1.xlsx,New rule: Press 'space' when you see 2-back (i.e. the same letter as the one that appeared 2 letters ago.),g,space,,,,,,,,,0,7,7,7,0,8,8,8,,,,,,,,,,,,,,,,,,,,,,,,,,,,,,,,,,,,,,,,,,,,,,,,,,,,,,,,,,,,,,,,,,,,,1.4316,594.6011045,None,None,0,594.6011045,None,,P020,fencog,2,Post,2021_Nov_16_1214,N-Back (New Version 2021),2021.1.4,120.173675
,,,,Conditions/Version_1/twoback(2)_v1.xlsx,New rule: Press 'space' when you see 2-back (i.e. the same letter as the one that appeared 2 letters ago.),G,None,,,,,,,,,0,7,7,7,0,9,9,9,,,,,,,,,,,,,,,,,,,,,,,,,,,,,,,,,,,,,,,,,,,,,,,,,,,,,,,,,,,,,,,,,,,,,1.9648,598.566338,None,None,1,598.566338,None,,P020,fencog,2,Post,2021_Nov_16_1214,N-Back (New Version 2021),2021.1.4,120.173675
,,,,Conditions/Version_1/twoback(2)_v1.xlsx,New rule: Press 'space' when you see 2-back (i.e. the same letter as the one that appeared 2 letters ago.),,,,,,,,,,,0,7,7,7,,,,,,,,,,,,,,,,,,,,,,,,,,,,,,,,,,,,,,,,,,,,,,,,,,,,,,,,,,,,,,,,,,,,,,,,,,,,,,,,,P020,fencog,2,Post,2021_Nov_16_1214,N-Back (New Version 2021),2021.1.4,120.173675
,,,,Conditions/Version_1/threeback(3)_v1.xlsx,New rule: Press 'space' when you see 3-back (i.e. the same letter as the one that appeared 3 letters ago.),w,None,,,,,,,,,0,8,8,8,0,0,0,0,,,,,,,,,,,,,,,,,,,,,,,,,,,,,,,,,,,,,,,,,,,,,,,,,,,,,,,,,,,600.5894022,None,603.5757052,None,space,0.4277221,603.5757052,None,600.5894022,None,1.227,605.2643418,None,None,1,605.2643418,None,,P020,fencog,2,Post,2021_Nov_16_1214,N-Back (New Version 2021),2021.1.4,120.173675
,,,,Conditions/Version_1/threeback(3)_v1.xlsx,New rule: Press 'space' when you see 3-back (i.e. the same letter as the one that appeared 3 letters ago.),p,None,,,,,,,,,0,8,8,8,0,1,1,1,,,,,,,,,,,,,,,,,,,,,,,,,,,,,,,,,,,,,,,,,,,,,,,,,,,,,,,,,,,,,,,,,,,,,1.2022,608.4717303,None,None,1,608.4717303,None,,P020,fencog,2,Post,2021_Nov_16_1214,N-Back (New Version 2021),2021.1.4,120.173675
,,,,Conditions/Version_1/threeback(3)_v1.xlsx,New rule: Press 'space' when you see 3-back (i.e. the same letter as the one that appeared 3 letters ago.),P,None,,,,,,,,,0,8,8,8,0,2,2,2,,,,,,,,,,,,,,,,,,,,,,,,,,,,,,,,,,,,,,,,,,,,,,,,,,,,,,,,,,,,,,,,,,,,,1.63,612.1043068,None,None,1,612.1043068,None,,P020,fencog,2,Post,2021_Nov_16_1214,N-Back (New Version 2021),2021.1.4,120.173675
,,,,Conditions/Version_1/threeback(3)_v1.xlsx,New rule: Press 'space' when you see 3-back (i.e. the same letter as the one that appeared 3 letters ago.),i,None,,,,,,,,,0,8,8,8,0,3,3,3,,,,,,,,,,,,,,,,,,,,,,,,,,,,,,,,,,,,,,,,,,,,,,,,,,,,,,,,,,,,,,,,,,,,,1.5804,615.6917531,None,None,1,615.6917531,None,,P020,fencog,2,Post,2021_Nov_16_1214,N-Back (New Version 2021),2021.1.4,120.173675
,,,,Conditions/Version_1/threeback(3)_v1.xlsx,New rule: Press 'space' when you see 3-back (i.e. the same letter as the one that appeared 3 letters ago.),f,None,,,,,,,,,0,8,8,8,0,4,4,4,,,,,,,,,,,,,,,,,,,,,,,,,,,,,,,,,,,,,,,,,,,,,,,,,,,,,,,,,,,,,,,,,,,,,1.382,619.0776527,None,None,1,619.0776527,None,,P020,fencog,2,Post,2021_Nov_16_1214,N-Back (New Version 2021),2021.1.4,120.173675
,,,,Conditions/Version_1/threeback(3)_v1.xlsx,New rule: Press 'space' when you see 3-back (i.e. the same letter as the one that appeared 3 letters ago.),o,None,,,,,,,,,0,8,8,8,0,5,5,5,,,,,,,,,,,,,,,,,,,,,,,,,,,,,,,,,,,,,,,,,,,,,,,,,,,,,,,,,,,,,,,,,,,,,1.568,622.6594544,None,None,1,622.6594544,None,,P020,fencog,2,Post,2021_Nov_16_1214,N-Back (New Version 2021),2021.1.4,120.173675
,,,,Conditions/Version_1/threeback(3)_v1.xlsx,New rule: Press 'space' when you see 3-back (i.e. the same letter as the one that appeared 3 letters ago.),w,None,,,,,,,,,0,8,8,8,0,6,6,6,,,,,,,,,,,,,,,,,,,,,,,,,,,,,,,,,,,,,,,,,,,,,,,,,,,,,,,,,,,,,,,,,,,,,1.7354,626.4032774,None,None,1,626.4032774,None,,P020,fencog,2,Post,2021_Nov_16_1214,N-Back (New Version 2021),2021.1.4,120.173675
,,,,Conditions/Version_1/threeback(3)_v1.xlsx,New rule: Press 'space' when you see 3-back (i.e. the same letter as the one that appeared 3 letters ago.),F,space,,,,,,,,,0,8,8,8,0,7,7,7,,,,,,,,,,,,,,,,,,,,,,,,,,,,,,,,,,,,,,,,,,,,,,,,,,,,,,,,,,,,,,,,,,,,,1.6796,630.0969027,None,None,0,630.0969027,None,,P020,fencog,2,Post,2021_Nov_16_1214,N-Back (New Version 2021),2021.1.4,120.173675
,,,,Conditions/Version_1/threeback(3)_v1.xlsx,New rule: Press 'space' when you see 3-back (i.e. the same letter as the one that appeared 3 letters ago.),p,None,,,,,,,,,0,8,8,8,0,8,8,8,,,,,,,,,,,,,,,,,,,,,,,,,,,,,,,,,,,,,,,,,,,,,,,,,,,,,,,,,,,,,,,,,,,,,1.847,633.9472975,None,None,1,633.9472975,None,,P020,fencog,2,Post,2021_Nov_16_1214,N-Back (New Version 2021),2021.1.4,120.173675
,,,,Conditions/Version_1/threeback(3)_v1.xlsx,New rule: Press 'space' when you see 3-back (i.e. the same letter as the one that appeared 3 letters ago.),W,space,,,,,,,,,0,8,8,8,0,9,9,9,,,,,,,,,,,,,,,,,,,,,,,,,,,,,,,,,,,,,,,,,,,,,,,,,,,,,,,,,,,,,,,,,,,,,1.4378,637.3879221,None,None,0,637.3879221,None,,P020,fencog,2,Post,2021_Nov_16_1214,N-Back (New Version 2021),2021.1.4,120.173675
,,,,Conditions/Version_1/threeback(3)_v1.xlsx,New rule: Press 'space' when you see 3-back (i.e. the same letter as the one that appeared 3 letters ago.),,,,,,,,,,,0,8,8,8,,,,,,,,,,,,,,,,,,,,,,,,,,,,,,,,,,,,,,,,,,,,,,,,,,,,,,,,,,,,,,,,,,,,,,,,,,,,,,,,,P020,fencog,2,Post,2021_Nov_16_1214,N-Back (New Version 2021),2021.1.4,120.173675
,,,,Conditions/Version_1/zeroback(3)_v1.xlsx,New rule: Press 'space' when you see the letter 'x' or 'X'.,X,space,,,,,,,,,0,9,9,9,0,0,0,0,,,,,,,,,,,,,,,,,,,,,,,,,,,,,,,,,,,,,,,,,,,,,,,,,,,,,,,,,,,639.4040154,None,642.3873261,None,space,1.0076974,642.3873261,None,639.4040154,None,1.5866,645.0023353,None,space,1,645.0023353,None,1.6087962,P020,fencog,2,Post,2021_Nov_16_1214,N-Back (New Version 2021),2021.1.4,120.173675
,,,,Conditions/Version_1/zeroback(3)_v1.xlsx,New rule: Press 'space' when you see the letter 'x' or 'X'.,B,None,,,,,,,,,0,9,9,9,0,1,1,1,,,,,,,,,,,,,,,,,,,,,,,,,,,,,,,,,,,,,,,,,,,,,,,,,,,,,,,,,,,,,,,,,,,,,1.816,648.8189183,None,None,1,648.8189183,None,,P020,fencog,2,Post,2021_Nov_16_1214,N-Back (New Version 2021),2021.1.4,120.173675
,,,,Conditions/Version_1/zeroback(3)_v1.xlsx,New rule: Press 'space' when you see the letter 'x' or 'X'.,m,None,,,,,,,,,0,9,9,9,0,2,2,2,,,,,,,,,,,,,,,,,,,,,,,,,,,,,,,,,,,,,,,,,,,,,,,,,,,,,,,,,,,,,,,,,,,,,1.1154,651.9488462,None,None,1,651.9488462,None,,P020,fencog,2,Post,2021_Nov_16_1214,N-Back (New Version 2021),2021.1.4,120.173675
,,,,Conditions/Version_1/zeroback(3)_v1.xlsx,New rule: Press 'space' when you see the letter 'x' or 'X'.,m,None,,,,,,,,,0,9,9,9,0,3,3,3,,,,,,,,,,,,,,,,,,,,,,,,,,,,,,,,,,,,,,,,,,,,,,,,,,,,,,,,,,,,,,,,,,,,,1.01,654.9664933,None,None,1,654.9664933,None,,P020,fencog,2,Post,2021_Nov_16_1214,N-Back (New Version 2021),2021.1.4,120.173675
,,,,Conditions/Version_1/zeroback(3)_v1.xlsx,New rule: Press 'space' when you see the letter 'x' or 'X'.,o,None,,,,,,,,,0,9,9,9,0,4,4,4,,,,,,,,,,,,,,,,,,,,,,,,,,,,,,,,,,,,,,,,,,,,,,,,,,,,,,,,,,,,,,,,,,,,,1.3572,658.3260527,None,None,1,658.3260527,None,,P020,fencog,2,Post,2021_Nov_16_1214,N-Back (New Version 2021),2021.1.4,120.173675
,,,,Conditions/Version_1/zeroback(3)_v1.xlsx,New rule: Press 'space' when you see the letter 'x' or 'X'.,p,None,,,,,,,,,0,9,9,9,0,5,5,5,,,,,,,,,,,,,,,,,,,,,,,,,,,,,,,,,,,,,,,,,,,,,,,,,,,,,,,,,,,,,,,,,,,,,1.444,661.7727545,None,None,1,661.7727545,None,,P020,fencog,2,Post,2021_Nov_16_1214,N-Back (New Version 2021),2021.1.4,120.173675
,,,,Conditions/Version_1/zeroback(3)_v1.xlsx,New rule: Press 'space' when you see the letter 'x' or 'X'.,G,None,,,,,,,,,0,9,9,9,0,6,6,6,,,,,,,,,,,,,,,,,,,,,,,,,,,,,,,,,,,,,,,,,,,,,,,,,,,,,,,,,,,,,,,,,,,,,1.4936,665.2725245,None,None,1,665.2725245,None,,P020,fencog,2,Post,2021_Nov_16_1214,N-Back (New Version 2021),2021.1.4,120.173675
,,,,Conditions/Version_1/zeroback(3)_v1.xlsx,New rule: Press 'space' when you see the letter 'x' or 'X'.,X,space,,,,,,,,,0,9,9,9,0,7,7,7,,,,,,,,,,,,,,,,,,,,,,,,,,,,,,,,,,,,,,,,,,,,,,,,,,,,,,,,,,,,,,,,,,,,,1.3386,668.6206124,None,space,1,668.6206124,None,0.350528,P020,fencog,2,Post,2021_Nov_16_1214,N-Back (New Version 2021),2021.1.4,120.173675
,,,,Conditions/Version_1/zeroback(3)_v1.xlsx,New rule: Press 'space' when you see the letter 'x' or 'X'.,p,None,,,,,,,,,0,9,9,9,0,8,8,8,,,,,,,,,,,,,,,,,,,,,,,,,,,,,,,,,,,,,,,,,,,,,,,,,,,,,,,,,,,,,,,,,,,,,1.2704,671.8946562,None,None,1,671.8946562,None,,P020,fencog,2,Post,2021_Nov_16_1214,N-Back (New Version 2021),2021.1.4,120.173675
,,,,Conditions/Version_1/zeroback(3)_v1.xlsx,New rule: Press 'space' when you see the letter 'x' or 'X'.,x,space,,,,,,,,,0,9,9,9,0,9,9,9,,,,,,,,,,,,,,,,,,,,,,,,,,,,,,,,,,,,,,,,,,,,,,,,,,,,,,,,,,,,,,,,,,,,,1.3076,675.2042562,None,space,1,675.2042562,None,0.3750112,P020,fencog,2,Post,2021_Nov_16_1214,N-Back (New Version 2021),2021.1.4,120.173675
,,,,Conditions/Version_1/zeroback(3)_v1.xlsx,New rule: Press 'space' when you see the letter 'x' or 'X'.,,,,,,,,,,,0,9,9,9,,,,,,,,,,,,,,,,,,,,,,,,,,,,,,,,,,,,,,,,,,,,,,,,,,,,,,,,,,,,,,,,,,,,,,,,,,,,,,,,,P020,fencog,2,Post,2021_Nov_16_1214,N-Back (New Version 2021),2021.1.4,120.173675
,,,,Conditions/Version_1/twoback(3)_v1.xlsx,New rule: Press 'space' when you see 2-back (i.e. the same letter as the one that appeared 2 letters ago.),e,None,,,,,,,,,0,10,10,10,0,0,0,0,,,,,,,,,,,,,,,,,,,,,,,,,,,,,,,,,,,,,,,,,,,,,,,,,,,,,,,,,,,677.2429246,None,680.2193098,None,space,0.4079846,680.2193098,None,677.2429246,None,1.6548,682.3082284,None,None,1,682.3082284,None,,P020,fencog,2,Post,2021_Nov_16_1214,N-Back (New Version 2021),2021.1.4,120.173675
,,,,Conditions/Version_1/twoback(3)_v1.xlsx,New rule: Press 'space' when you see 2-back (i.e. the same letter as the one that appeared 2 letters ago.),o,None,,,,,,,,,0,10,10,10,0,1,1,1,,,,,,,,,,,,,,,,,,,,,,,,,,,,,,,,,,,,,,,,,,,,,,,,,,,,,,,,,,,,,,,,,,,,,1.9834,686.2988874,None,None,1,686.2988874,None,,P020,fencog,2,Post,2021_Nov_16_1214,N-Back (New Version 2021),2021.1.4,120.173675
,,,,Conditions/Version_1/twoback(3)_v1.xlsx,New rule: Press 'space' when you see 2-back (i.e. the same letter as the one that appeared 2 letters ago.),P,None,,,,,,,,,0,10,10,10,0,2,2,2,,,,,,,,,,,,,,,,,,,,,,,,,,,,,,,,,,,,,,,,,,,,,,,,,,,,,,,,,,,,,,,,,,,,,1.1216,689.4225473,None,None,1,689.4225473,None,,P020,fencog,2,Post,2021_Nov_16_1214,N-Back (New Version 2021),2021.1.4,120.173675
,,,,Conditions/Version_1/twoback(3)_v1.xlsx,New rule: Press 'space' when you see 2-back (i.e. the same letter as the one that appeared 2 letters ago.),z,None,,,,,,,,,0,10,10,10,0,3,3,3,,,,,,,,,,,,,,,,,,,,,,,,,,,,,,,,,,,,,,,,,,,,,,,,,,,,,,,,,,,,,,,,,,,,,1.7664,693.1963244,None,None,1,693.1963244,None,,P020,fencog,2,Post,2021_Nov_16_1214,N-Back (New Version 2021),2021.1.4,120.173675
,,,,Conditions/Version_1/twoback(3)_v1.xlsx,New rule: Press 'space' when you see 2-back (i.e. the same letter as the one that appeared 2 letters ago.),X,None,,,,,,,,,0,10,10,10,0,4,4,4,,,,,,,,,,,,,,,,,,,,,,,,,,,,,,,,,,,,,,,,,,,,,,,,,,,,,,,,,,,,,,,,,,,,,1.1402,696.3373364,None,None,1,696.3373364,None,,P020,fencog,2,Post,2021_Nov_16_1214,N-Back (New Version 2021),2021.1.4,120.173675
,,,,Conditions/Version_1/twoback(3)_v1.xlsx,New rule: Press 'space' when you see 2-back (i.e. the same letter as the one that appeared 2 letters ago.),z,space,,,,,,,,,0,10,10,10,0,5,5,5,,,,,,,,,,,,,,,,,,,,,,,,,,,,,,,,,,,,,,,,,,,,,,,,,,,,,,,,,,,,,,,,,,,,,1.9338,700.2778636,None,space,1,700.2778636,None,0.3652797,P020,fencog,2,Post,2021_Nov_16_1214,N-Back (New Version 2021),2021.1.4,120.173675
,,,,Conditions/Version_1/twoback(3)_v1.xlsx,New rule: Press 'space' when you see 2-back (i.e. the same letter as the one that appeared 2 letters ago.),x,space,,,,,,,,,0,10,10,10,0,6,6,6,,,,,,,,,,,,,,,,,,,,,,,,,,,,,,,,,,,,,,,,,,,,,,,,,,,,,,,,,,,,,,,,,,,,,1.6672,703.9435916,None,space,1,703.9435916,None,0.4997499,P020,fencog,2,Post,2021_Nov_16_1214,N-Back (New Version 2021),2021.1.4,120.173675
,,,,Conditions/Version_1/twoback(3)_v1.xlsx,New rule: Press 'space' when you see 2-back (i.e. the same letter as the one that appeared 2 letters ago.),c,None,,,,,,,,,0,10,10,10,0,7,7,7,,,,,,,,,,,,,,,,,,,,,,,,,,,,,,,,,,,,,,,,,,,,,,,,,,,,,,,,,,,,,,,,,,,,,1.816,707.7590124,None,None,1,707.7590124,None,,P020,fencog,2,Post,2021_Nov_16_1214,N-Back (New Version 2021),2021.1.4,120.173675
,,,,Conditions/Version_1/twoback(3)_v1.xlsx,New rule: Press 'space' when you see 2-back (i.e. the same letter as the one that appeared 2 letters ago.),i,None,,,,,,,,,0,10,10,10,0,8,8,8,,,,,,,,,,,,,,,,,,,,,,,,,,,,,,,,,,,,,,,,,,,,,,,,,,,,,,,,,,,,,,,,,,,,,1.5494,711.3079081,None,None,1,711.3079081,None,,P020,fencog,2,Post,2021_Nov_16_1214,N-Back (New Version 2021),2021.1.4,120.173675
,,,,Conditions/Version_1/twoback(3)_v1.xlsx,New rule: Press 'space' when you see 2-back (i.e. the same letter as the one that appeared 2 letters ago.),C,space,,,,,,,,,0,10,10,10,0,9,9,9,,,,,,,,,,,,,,,,,,,,,,,,,,,,,,,,,,,,,,,,,,,,,,,,,,,,,,,,,,,,,,,,,,,,,1.568,714.8837392,None,space,1,714.8837392,None,0.6791751,P020,fencog,2,Post,2021_Nov_16_1214,N-Back (New Version 2021),2021.1.4,120.173675
,,,,Conditions/Version_1/twoback(3)_v1.xlsx,New rule: Press 'space' when you see 2-back (i.e. the same letter as the one that appeared 2 letters ago.),,,,,,,,,,,0,10,10,10,,,,,,,,,,,,,,,,,,,,,,,,,,,,,,,,,,,,,,,,,,,,,,,,,,,,,,,,,,,,,,,,,,,,,,,,,,,,,,,,,P020,fencog,2,Post,2021_Nov_16_1214,N-Back (New Version 2021),2021.1.4,120.173675
,,,,Conditions/Version_1/oneback(3)_v1.xlsx,New rule: Press 'space' when you see 1-back (i.e. the same letter as the one that appeared 1 letter ago.),o,None,,,,,,,,,0,11,11,11,0,0,0,0,,,,,,,,,,,,,,,,,,,,,,,,,,,,,,,,,,,,,,,,,,,,,,,,,,,,,,,,,,,716.9060925,None,719.8906352,None,space,0.4485529,719.8906352,None,716.9060925,None,1.816,722.1797759,None,None,1,722.1797759,None,,P020,fencog,2,Post,2021_Nov_16_1214,N-Back (New Version 2021),2021.1.4,120.173675
,,,,Conditions/Version_1/oneback(3)_v1.xlsx,New rule: Press 'space' when you see 1-back (i.e. the same letter as the one that appeared 1 letter ago.),O,space,,,,,,,,,0,11,11,11,0,1,1,1,,,,,,,,,,,,,,,,,,,,,,,,,,,,,,,,,,,,,,,,,,,,,,,,,,,,,,,,,,,,,,,,,,,,,1.6796,725.8619967,None,space,1,725.8619967,None,0.3009471,P020,fencog,2,Post,2021_Nov_16_1214,N-Back (New Version 2021),2021.1.4,120.173675
,,,,Conditions/Version_1/oneback(3)_v1.xlsx,New rule: Press 'space' when you see 1-back (i.e. the same letter as the one that appeared 1 letter ago.),h,None,,,,,,,,,0,11,11,11,0,2,2,2,,,,,,,,,,,,,,,,,,,,,,,,,,,,,,,,,,,,,,,,,,,,,,,,,,,,,,,,,,,,,,,,,,,,,1.3572,729.2228979,None,None,1,729.2228979,None,,P020,fencog,2,Post,2021_Nov_16_1214,N-Back (New Version 2021),2021.1.4,120.173675
,,,,Conditions/Version_1/oneback(3)_v1.xlsx,New rule: Press 'space' when you see 1-back (i.e. the same letter as the one that appeared 1 letter ago.),g,None,,,,,,,,,0,11,11,11,0,3,3,3,,,,,,,,,,,,,,,,,,,,,,,,,,,,,,,,,,,,,,,,,,,,,,,,,,,,,,,,,,,,,,,,,,,,,1.2022,732.4360113,None,None,1,732.4360113,None,,P020,fencog,2,Post,2021_Nov_16_1214,N-Back (New Version 2021),2021.1.4,120.173675
,,,,Conditions/Version_1/oneback(3)_v1.xlsx,New rule: Press 'space' when you see 1-back (i.e. the same letter as the one that appeared 1 letter ago.),n,None,,,,,,,,,0,11,11,11,0,4,4,4,,,,,,,,,,,,,,,,,,,,,,,,,,,,,,,,,,,,,,,,,,,,,,,,,,,,,,,,,,,,,,,,,,,,,1.4006,735.8505659,None,None,1,735.8505659,None,,P020,fencog,2,Post,2021_Nov_16_1214,N-Back (New Version 2021),2021.1.4,120.173675
,,,,Conditions/Version_1/oneback(3)_v1.xlsx,New rule: Press 'space' when you see 1-back (i.e. the same letter as the one that appeared 1 letter ago.),z,None,,,,,,,,,0,11,11,11,0,5,5,5,,,,,,,,,,,,,,,,,,,,,,,,,,,,,,,,,,,,,,,,,,,,,,,,,,,,,,,,,,,,,,,,,,,,,1.7664,739.616233,None,None,1,739.616233,None,,P020,fencog,2,Post,2021_Nov_16_1214,N-Back (New Version 2021),2021.1.4,120.173675
,,,,Conditions/Version_1/oneback(3)_v1.xlsx,New rule: Press 'space' when you see 1-back (i.e. the same letter as the one that appeared 1 letter ago.),X,None,,,,,,,,,0,11,11,11,0,6,6,6,,,,,,,,,,,,,,,,,,,,,,,,,,,,,,,,,,,,,,,,,,,,,,,,,,,,,,,,,,,,,,,,,,,,,1.7416,743.3576737,None,None,1,743.3576737,None,,P020,fencog,2,Post,2021_Nov_16_1214,N-Back (New Version 2021),2021.1.4,120.173675
,,,,Conditions/Version_1/oneback(3)_v1.xlsx,New rule: Press 'space' when you see 1-back (i.e. the same letter as the one that appeared 1 letter ago.),r,None,,,,,,,,,0,11,11,11,0,7,7,7,,,,,,,,,,,,,,,,,,,,,,,,,,,,,,,,,,,,,,,,,,,,,,,,,,,,,,,,,,,,,,,,,,,,,1.2642,746.6238276,None,None,1,746.6238276,None,,P020,fencog,2,Post,2021_Nov_16_1214,N-Back (New Version 2021),2021.1.4,120.173675
,,,,Conditions/Version_1/oneback(3)_v1.xlsx,New rule: Press 'space' when you see 1-back (i.e. the same letter as the one that appeared 1 letter ago.),r,space,,,,,,,,,0,11,11,11,0,8,8,8,,,,,,,,,,,,,,,,,,,,,,,,,,,,,,,,,,,,,,,,,,,,,,,,,,,,,,,,,,,,,,,,,,,,,1.6672,750.3049459,None,space,1,750.3049459,None,0.3381885,P020,fencog,2,Post,2021_Nov_16_1214,N-Back (New Version 2021),2021.1.4,120.173675
,,,,Conditions/Version_1/oneback(3)_v1.xlsx,New rule: Press 'space' when you see 1-back (i.e. the same letter as the one that appeared 1 letter ago.),P,None,,,,,,,,,0,11,11,11,0,9,9,9,,,,,,,,,,,,,,,,,,,,,,,,,,,,,,,,,,,,,,,,,,,,,,,,,,,,,,,,,,,,,,,,,,,,,1.4626,753.8213391,None,None,1,753.8213391,None,,P020,fencog,2,Post,2021_Nov_16_1214,N-Back (New Version 2021),2021.1.4,120.173675
,,,,Conditions/Version_1/oneback(3)_v1.xlsx,New rule: Press 'space' when you see 1-back (i.e. the same letter as the one that appeared 1 letter ago.),,,,,,,,,,,0,11,11,11,,,,,,,,,,,,,,,,,,,,,,,,,,,,,,,,,,,,,,,,,,,,,,,,,,,,,,,,,,,,,,,,,,,,,,,,,,,,,,,,,P020,fencog,2,Post,2021_Nov_16_1214,N-Back (New Version 2021),2021.1.4,120.173675
,,,,Conditions/Version_1/twoback(4)_v1.xlsx,New rule: Press 'space' when you see 2-back (i.e. the same letter as the one that appeared 2 letters ago.),r,None,,,,,,,,,0,12,12,12,0,0,0,0,,,,,,,,,,,,,,,,,,,,,,,,,,,,,,,,,,,,,,,,,,,,,,,,,,,,,,,,,,,755.8040467,None,758.7872606,None,space,0.7678214,758.7872606,None,755.8040467,None,1.0844,760.6693892,None,None,1,760.6693892,None,,P020,fencog,2,Post,2021_Nov_16_1214,N-Back (New Version 2021),2021.1.4,120.173675
,,,,Conditions/Version_1/twoback(4)_v1.xlsx,New rule: Press 'space' when you see 2-back (i.e. the same letter as the one that appeared 2 letters ago.),T,None,,,,,,,,,0,12,12,12,0,1,1,1,,,,,,,,,,,,,,,,,,,,,,,,,,,,,,,,,,,,,,,,,,,,,,,,,,,,,,,,,,,,,,,,,,,,,1.3014,763.9920339,None,None,1,763.9920339,None,,P020,fencog,2,Post,2021_Nov_16_1214,N-Back (New Version 2021),2021.1.4,120.173675
,,,,Conditions/Version_1/twoback(4)_v1.xlsx,New rule: Press 'space' when you see 2-back (i.e. the same letter as the one that appeared 2 letters ago.),o,None,,,,,,,,,0,12,12,12,0,2,2,2,,,,,,,,,,,,,,,,,,,,,,,,,,,,,,,,,,,,,,,,,,,,,,,,,,,,,,,,,,,,,,,,,,,,,1.0906,767.0841586,None,None,1,767.0841586,None,,P020,fencog,2,Post,2021_Nov_16_1214,N-Back (New Version 2021),2021.1.4,120.173675
,,,,Conditions/Version_1/twoback(4)_v1.xlsx,New rule: Press 'space' when you see 2-back (i.e. the same letter as the one that appeared 2 letters ago.),p,None,,,,,,,,,0,12,12,12,0,3,3,3,,,,,,,,,,,,,,,,,,,,,,,,,,,,,,,,,,,,,,,,,,,,,,,,,,,,,,,,,,,,,,,,,,,,,1.2146,770.3091532,None,space,0,770.3091532,None,1.3259619,P020,fencog,2,Post,2021_Nov_16_1214,N-Back (New Version 2021),2021.1.4,120.173675
,,,,Conditions/Version_1/twoback(4)_v1.xlsx,New rule: Press 'space' when you see 2-back (i.e. the same letter as the one that appeared 2 letters ago.),p,None,,,,,,,,,0,12,12,12,0,4,4,4,,,,,,,,,,,,,,,,,,,,,,,,,,,,,,,,,,,,,,,,,,,,,,,,,,,,,,,,,,,,,,,,,,,,,1.7044,774.0245149,None,None,1,774.0245149,None,,P020,fencog,2,Post,2021_Nov_16_1214,N-Back (New Version 2021),2021.1.4,120.173675
,,,,Conditions/Version_1/twoback(4)_v1.xlsx,New rule: Press 'space' when you see 2-back (i.e. the same letter as the one that appeared 2 letters ago.),y,None,,,,,,,,,0,12,12,12,0,5,5,5,,,,,,,,,,,,,,,,,,,,,,,,,,,,,,,,,,,,,,,,,,,,,,,,,,,,,,,,,,,,,,,,,,,,,1.1092,777.1467026,None,None,1,777.1467026,None,,P020,fencog,2,Post,2021_Nov_16_1214,N-Back (New Version 2021),2021.1.4,120.173675
,,,,Conditions/Version_1/twoback(4)_v1.xlsx,New rule: Press 'space' when you see 2-back (i.e. the same letter as the one that appeared 2 letters ago.),P,space,,,,,,,,,0,12,12,12,0,6,6,6,,,,,,,,,,,,,,,,,,,,,,,,,,,,,,,,,,,,,,,,,,,,,,,,,,,,,,,,,,,,,,,,,,,,,1.8408,780.9872356,None,space,1,780.9872356,None,0.5196295,P020,fencog,2,Post,2021_Nov_16_1214,N-Back (New Version 2021),2021.1.4,120.173675
,,,,Conditions/Version_1/twoback(4)_v1.xlsx,New rule: Press 'space' when you see 2-back (i.e. the same letter as the one that appeared 2 letters ago.),y,None,,,,,,,,,0,12,12,12,0,7,7,7,,,,,,,,,,,,,,,,,,,,,,,,,,,,,,,,,,,,,,,,,,,,,,,,,,,,,,,,,,,,,,,,,,,,,1.3138,784.3029502,None,space,0,784.3029502,None,1.1081229,P020,fencog,2,Post,2021_Nov_16_1214,N-Back (New Version 2021),2021.1.4,120.173675
,,,,Conditions/Version_1/twoback(4)_v1.xlsx,New rule: Press 'space' when you see 2-back (i.e. the same letter as the one that appeared 2 letters ago.),y,space,,,,,,,,,0,12,12,12,0,8,8,8,,,,,,,,,,,,,,,,,,,,,,,,,,,,,,,,,,,,,,,,,,,,,,,,,,,,,,,,,,,,,,,,,,,,,1.4874,787.7935011,None,None,0,787.7935011,None,,P020,fencog,2,Post,2021_Nov_16_1214,N-Back (New Version 2021),2021.1.4,120.173675
,,,,Conditions/Version_1/twoback(4)_v1.xlsx,New rule: Press 'space' when you see 2-back (i.e. the same letter as the one that appeared 2 letters ago.),,,,,,,,,,,0,12,12,12,,,,,,,,,,,,,,,,,,,,,,,,,,,,,,,,,,,,,,,,,,,,,,,,,,,,,,,,,,,,,,,,,,,,,,,,,,,,,,,,,P020,fencog,2,Post,2021_Nov_16_1214,N-Back (New Version 2021),2021.1.4,120.173675
,,,,Conditions/Version_1/zeroback(4)_v1.xlsx,New rule: Press 'space' when you see the letter 'x' or 'X'.,o,None,,,,,,,,,0,13,13,13,0,0,0,0,,,,,,,,,,,,,,,,,,,,,,,,,,,,,,,,,,,,,,,,,,,,,,,,,,,,,,,,,,,789.8113736,None,792.8033811,None,space,0.2794829,792.8033811,None,789.8113736,None,1.7912,794.9081542,None,None,1,794.9081542,None,,P020,fencog,2,Post,2021_Nov_16_1214,N-Back (New Version 2021),2021.1.4,120.173675
,,,,Conditions/Version_1/zeroback(4)_v1.xlsx,New rule: Press 'space' when you see the letter 'x' or 'X'.,X,space,,,,,,,,,0,13,13,13,0,1,1,1,,,,,,,,,,,,,,,,,,,,,,,,,,,,,,,,,,,,,,,,,,,,,,,,,,,,,,,,,,,,,,,,,,,,,1.9338,798.849886,None,space,1,798.849886,None,0.3691885,P020,fencog,2,Post,2021_Nov_16_1214,N-Back (New Version 2021),2021.1.4,120.173675
,,,,Conditions/Version_1/zeroback(4)_v1.xlsx,New rule: Press 'space' when you see the letter 'x' or 'X'.,p,None,,,,,,,,,0,13,13,13,0,2,2,2,,,,,,,,,,,,,,,,,,,,,,,,,,,,,,,,,,,,,,,,,,,,,,,,,,,,,,,,,,,,,,,,,,,,,1.7044,802.564122,None,None,1,802.564122,None,,P020,fencog,2,Post,2021_Nov_16_1214,N-Back (New Version 2021),2021.1.4,120.173675
,,,,Conditions/Version_1/zeroback(4)_v1.xlsx,New rule: Press 'space' when you see the letter 'x' or 'X'.,m,None,,,,,,,,,0,13,13,13,0,3,3,3,,,,,,,,,,,,,,,,,,,,,,,,,,,,,,,,,,,,,,,,,,,,,,,,,,,,,,,,,,,,,,,,,,,,,1.6672,806.2297483,None,None,1,806.2297483,None,,P020,fencog,2,Post,2021_Nov_16_1214,N-Back (New Version 2021),2021.1.4,120.173675
,,,,Conditions/Version_1/zeroback(4)_v1.xlsx,New rule: Press 'space' when you see the letter 'x' or 'X'.,n,None,,,,,,,,,0,13,13,13,0,4,4,4,,,,,,,,,,,,,,,,,,,,,,,,,,,,,,,,,,,,,,,,,,,,,,,,,,,,,,,,,,,,,,,,,,,,,1.2828,809.5121487,None,None,1,809.5121487,None,,P020,fencog,2,Post,2021_Nov_16_1214,N-Back (New Version 2021),2021.1.4,120.173675
,,,,Conditions/Version_1/zeroback(4)_v1.xlsx,New rule: Press 'space' when you see the letter 'x' or 'X'.,m,None,,,,,,,,,0,13,13,13,0,5,5,5,,,,,,,,,,,,,,,,,,,,,,,,,,,,,,,,,,,,,,,,,,,,,,,,,,,,,,,,,,,,,,,,,,,,,1.8842,813.4026367,None,None,1,813.4026367,None,,P020,fencog,2,Post,2021_Nov_16_1214,N-Back (New Version 2021),2021.1.4,120.173675
,,,,Conditions/Version_1/zeroback(4)_v1.xlsx,New rule: Press 'space' when you see the letter 'x' or 'X'.,C,None,,,,,,,,,0,13,13,13,0,6,6,6,,,,,,,,,,,,,,,,,,,,,,,,,,,,,,,,,,,,,,,,,,,,,,,,,,,,,,,,,,,,,,,,,,,,,1.909,817.3220073,None,None,1,817.3220073,None,,P020,fencog,2,Post,2021_Nov_16_1214,N-Back (New Version 2021),2021.1.4,120.173675
,,,,Conditions/Version_1/zeroback(4)_v1.xlsx,New rule: Press 'space' when you see the letter 'x' or 'X'.,m,None,,,,,,,,,0,13,13,13,0,7,7,7,,,,,,,,,,,,,,,,,,,,,,,,,,,,,,,,,,,,,,,,,,,,,,,,,,,,,,,,,,,,,,,,,,,,,1.2952,820.6254828,None,None,1,820.6254828,None,,P020,fencog,2,Post,2021_Nov_16_1214,N-Back (New Version 2021),2021.1.4,120.173675
,,,,Conditions/Version_1/zeroback(4)_v1.xlsx,New rule: Press 'space' when you see the letter 'x' or 'X'.,p,None,,,,,,,,,0,13,13,13,0,8,8,8,,,,,,,,,,,,,,,,,,,,,,,,,,,,,,,,,,,,,,,,,,,,,,,,,,,,,,,,,,,,,,,,,,,,,1.7974,824.4285707,None,None,1,824.4285707,None,,P020,fencog,2,Post,2021_Nov_16_1214,N-Back (New Version 2021),2021.1.4,120.173675
,,,,Conditions/Version_1/zeroback(4)_v1.xlsx,New rule: Press 'space' when you see the letter 'x' or 'X'.,X,space,,,,,,,,,0,13,13,13,0,9,9,9,,,,,,,,,,,,,,,,,,,,,,,,,,,,,,,,,,,,,,,,,,,,,,,,,,,,,,,,,,,,,,,,,,,,,1.0286,827.4663394,None,space,1,827.4663394,None,0.464536,P020,fencog,2,Post,2021_Nov_16_1214,N-Back (New Version 2021),2021.1.4,120.173675
,,,,Conditions/Version_1/zeroback(4)_v1.xlsx,New rule: Press 'space' when you see the letter 'x' or 'X'.,,,,,,,,,,,0,13,13,13,,,,,,,,,,,,,,,,,,,,,,,,,,,,,,,,,,,,,,,,,,,,,,,,,,,,,,,,,,,,,,,,,,,,,,,,,,,,,,,,,P020,fencog,2,Post,2021_Nov_16_1214,N-Back (New Version 2021),2021.1.4,120.173675
,,,,Conditions/Version_1/oneback(4)_v1.xlsx,New rule: Press 'space' when you see 1-back (i.e. the same letter as the one that appeared 1 letter ago.),w,None,,,,,,,,,0,14,14,14,0,0,0,0,,,,,,,,,,,,,,,,,,,,,,,,,,,,,,,,,,,,,,,,,,,,,,,,,,,,,,,,,,,829.497957,None,832.490165,None,space,0.9127319,832.490165,None,829.497957,None,1.4626,834.8883173,None,None,1,834.8883173,None,,P020,fencog,2,Post,2021_Nov_16_1214,N-Back (New Version 2021),2021.1.4,120.173675
,,,,Conditions/Version_1/oneback(4)_v1.xlsx,New rule: Press 'space' when you see 1-back (i.e. the same letter as the one that appeared 1 letter ago.),q,None,,,,,,,,,0,14,14,14,0,1,1,1,,,,,,,,,,,,,,,,,,,,,,,,,,,,,,,,,,,,,,,,,,,,,,,,,,,,,,,,,,,,,,,,,,,,,1.1278,838.0236767,None,None,1,838.0236767,None,,P020,fencog,2,Post,2021_Nov_16_1214,N-Back (New Version 2021),2021.1.4,120.173675
,,,,Conditions/Version_1/oneback(4)_v1.xlsx,New rule: Press 'space' when you see 1-back (i.e. the same letter as the one that appeared 1 letter ago.),i,None,,,,,,,,,0,14,14,14,0,2,2,2,,,,,,,,,,,,,,,,,,,,,,,,,,,,,,,,,,,,,,,,,,,,,,,,,,,,,,,,,,,,,,,,,,,,,1.6548,841.6859433,None,None,1,841.6859433,None,,P020,fencog,2,Post,2021_Nov_16_1214,N-Back (New Version 2021),2021.1.4,120.173675
,,,,Conditions/Version_1/oneback(4)_v1.xlsx,New rule: Press 'space' when you see 1-back (i.e. the same letter as the one that appeared 1 letter ago.),t,None,,,,,,,,,0,14,14,14,0,3,3,3,,,,,,,,,,,,,,,,,,,,,,,,,,,,,,,,,,,,,,,,,,,,,,,,,,,,,,,,,,,,,,,,,,,,,1.2456,844.935914,None,None,1,844.935914,None,,P020,fencog,2,Post,2021_Nov_16_1214,N-Back (New Version 2021),2021.1.4,120.173675
,,,,Conditions/Version_1/oneback(4)_v1.xlsx,New rule: Press 'space' when you see 1-back (i.e. the same letter as the one that appeared 1 letter ago.),v,None,,,,,,,,,0,14,14,14,0,4,4,4,,,,,,,,,,,,,,,,,,,,,,,,,,,,,,,,,,,,,,,,,,,,,,,,,,,,,,,,,,,,,,,,,,,,,1.599,848.5441129,None,None,1,848.5441129,None,,P020,fencog,2,Post,2021_Nov_16_1214,N-Back (New Version 2021),2021.1.4,120.173675
,,,,Conditions/Version_1/oneback(4)_v1.xlsx,New rule: Press 'space' when you see 1-back (i.e. the same letter as the one that appeared 1 letter ago.),V,space,,,,,,,,,0,14,14,14,0,5,5,5,,,,,,,,,,,,,,,,,,,,,,,,,,,,,,,,,,,,,,,,,,,,,,,,,,,,,,,,,,,,,,,,,,,,,1.4192,851.976851,None,space,1,851.976851,None,0.3699369,P020,fencog,2,Post,2021_Nov_16_1214,N-Back (New Version 2021),2021.1.4,120.173675
,,,,Conditions/Version_1/oneback(4)_v1.xlsx,New rule: Press 'space' when you see 1-back (i.e. the same letter as the one that appeared 1 letter ago.),v,space,,,,,,,,,0,14,14,14,0,6,6,6,,,,,,,,,,,,,,,,,,,,,,,,,,,,,,,,,,,,,,,,,,,,,,,,,,,,,,,,,,,,,,,,,,,,,1.0286,855.0155634,None,space,1,855.0155634,None,0.3553417,P020,fencog,2,Post,2021_Nov_16_1214,N-Back (New Version 2021),2021.1.4,120.173675
,,,,Conditions/Version_1/oneback(4)_v1.xlsx,New rule: Press 'space' when you see 1-back (i.e. the same letter as the one that appeared 1 letter ago.),p,None,,,,,,,,,0,14,14,14,0,7,7,7,,,,,,,,,,,,,,,,,,,,,,,,,,,,,,,,,,,,,,,,,,,,,,,,,,,,,,,,,,,,,,,,,,,,,1.3572,858.3727233,None,None,1,858.3727233,None,,P020,fencog,2,Post,2021_Nov_16_1214,N-Back (New Version 2021),2021.1.4,120.173675
,,,,Conditions/Version_1/oneback(4)_v1.xlsx,New rule: Press 'space' when you see 1-back (i.e. the same letter as the one that appeared 1 letter ago.),w,None,,,,,,,,,0,14,14,14,0,8,8,8,,,,,,,,,,,,,,,,,,,,,,,,,,,,,,,,,,,,,,,,,,,,,,,,,,,,,,,,,,,,,,,,,,,,,1.072,861.4468738,None,None,1,861.4468738,None,,P020,fencog,2,Post,2021_Nov_16_1214,N-Back (New Version 2021),2021.1.4,120.173675
,,,,Conditions/Version_1/oneback(4)_v1.xlsx,New rule: Press 'space' when you see 1-back (i.e. the same letter as the one that appeared 1 letter ago.),W,space,,,,,,,,,0,14,14,14,0,9,9,9,,,,,,,,,,,,,,,,,,,,,,,,,,,,,,,,,,,,,,,,,,,,,,,,,,,,,,,,,,,,,,,,,,,,,1.7044,865.1582884,None,space,1,865.1582884,None,0.4205979,P020,fencog,2,Post,2021_Nov_16_1214,N-Back (New Version 2021),2021.1.4,120.173675
,,,,Conditions/Version_1/oneback(4)_v1.xlsx,New rule: Press 'space' when you see 1-back (i.e. the same letter as the one that appeared 1 letter ago.),,,,,,,,,,,0,14,14,14,,,,,,,,,,,,,,,,,,,,,,,,,,,,,,,,,,,,,,,,,,,,,,,,,,,,,,,,,,,,,,,,,,,,,,,,,,,,,,,,,P020,fencog,2,Post,2021_Nov_16_1214,N-Back (New Version 2021),2021.1.4,120.173675
,,,,Conditions/Version_1/threeback(4)_v1.xlsx,New rule: Press 'space' when you see 3-back (i.e. the same letter as the one that appeared 3 letters ago.),A,None,,,,,,,,,0,15,15,15,0,0,0,0,,,,,,,,,,,,,,,,,,,,,,,,,,,,,,,,,,,,,,,,,,,,,,,,,,,,,,,,,,,867.1807571,None,870.1709502,None,space,0.2638312,870.1709502,None,867.1807571,None,1.0906,871.554517,None,None,1,871.554517,None,,P020,fencog,2,Post,2021_Nov_16_1214,N-Back (New Version 2021),2021.1.4,120.173675
,,,,Conditions/Version_1/threeback(4)_v1.xlsx,New rule: Press 'space' when you see 3-back (i.e. the same letter as the one that appeared 3 letters ago.),n,None,,,,,,,,,0,15,15,15,0,1,1,1,,,,,,,,,,,,,,,,,,,,,,,,,,,,,,,,,,,,,,,,,,,,,,,,,,,,,,,,,,,,,,,,,,,,,1.4688,875.0356227,None,None,1,875.0356227,None,,P020,fencog,2,Post,2021_Nov_16_1214,N-Back (New Version 2021),2021.1.4,120.173675
,,,,Conditions/Version_1/threeback(4)_v1.xlsx,New rule: Press 'space' when you see 3-back (i.e. the same letter as the one that appeared 3 letters ago.),g,None,,,,,,,,,0,15,15,15,0,2,2,2,,,,,,,,,,,,,,,,,,,,,,,,,,,,,,,,,,,,,,,,,,,,,,,,,,,,,,,,,,,,,,,,,,,,,1.4812,878.5294503,None,None,1,878.5294503,None,,P020,fencog,2,Post,2021_Nov_16_1214,N-Back (New Version 2021),2021.1.4,120.173675
,,,,Conditions/Version_1/threeback(4)_v1.xlsx,New rule: Press 'space' when you see 3-back (i.e. the same letter as the one that appeared 3 letters ago.),A,space,,,,,,,,,0,15,15,15,0,3,3,3,,,,,,,,,,,,,,,,,,,,,,,,,,,,,,,,,,,,,,,,,,,,,,,,,,,,,,,,,,,,,,,,,,,,,1.6982,882.2322136,None,space,1,882.2322136,None,0.5545831,P020,fencog,2,Post,2021_Nov_16_1214,N-Back (New Version 2021),2021.1.4,120.173675
,,,,Conditions/Version_1/threeback(4)_v1.xlsx,New rule: Press 'space' when you see 3-back (i.e. the same letter as the one that appeared 3 letters ago.),p,None,,,,,,,,,0,15,15,15,0,4,4,4,,,,,,,,,,,,,,,,,,,,,,,,,,,,,,,,,,,,,,,,,,,,,,,,,,,,,,,,,,,,,,,,,,,,,1.7974,886.031118,None,None,1,886.031118,None,,P020,fencog,2,Post,2021_Nov_16_1214,N-Back (New Version 2021),2021.1.4,120.173675
,,,,Conditions/Version_1/threeback(4)_v1.xlsx,New rule: Press 'space' when you see 3-back (i.e. the same letter as the one that appeared 3 letters ago.),O,None,,,,,,,,,0,15,15,15,0,5,5,5,,,,,,,,,,,,,,,,,,,,,,,,,,,,,,,,,,,,,,,,,,,,,,,,,,,,,,,,,,,,,,,,,,,,,1.4254,889.4551539,None,None,1,889.4551539,None,,P020,fencog,2,Post,2021_Nov_16_1214,N-Back (New Version 2021),2021.1.4,120.173675
,,,,Conditions/Version_1/threeback(4)_v1.xlsx,New rule: Press 'space' when you see 3-back (i.e. the same letter as the one that appeared 3 letters ago.),a,space,,,,,,,,,0,15,15,15,0,6,6,6,,,,,,,,,,,,,,,,,,,,,,,,,,,,,,,,,,,,,,,,,,,,,,,,,,,,,,,,,,,,,,,,,,,,,1.01,892.4720557,None,space,1,892.4720557,None,0.5945889,P020,fencog,2,Post,2021_Nov_16_1214,N-Back (New Version 2021),2021.1.4,120.173675
,,,,Conditions/Version_1/threeback(4)_v1.xlsx,New rule: Press 'space' when you see 3-back (i.e. the same letter as the one that appeared 3 letters ago.),p,space,,,,,,,,,0,15,15,15,0,7,7,7,,,,,,,,,,,,,,,,,,,,,,,,,,,,,,,,,,,,,,,,,,,,,,,,,,,,,,,,,,,,,,,,,,,,,1.5122,895.9873486,None,space,1,895.9873486,None,0.3915465,P020,fencog,2,Post,2021_Nov_16_1214,N-Back (New Version 2021),2021.1.4,120.173675
,,,,Conditions/Version_1/threeback(4)_v1.xlsx,New rule: Press 'space' when you see 3-back (i.e. the same letter as the one that appeared 3 letters ago.),x,None,,,,,,,,,0,15,15,15,0,8,8,8,,,,,,,,,,,,,,,,,,,,,,,,,,,,,,,,,,,,,,,,,,,,,,,,,,,,,,,,,,,,,,,,,,,,,1.9524,899.945572,None,None,1,899.945572,None,,P020,fencog,2,Post,2021_Nov_16_1214,N-Back (New Version 2021),2021.1.4,120.173675
,,,,Conditions/Version_1/threeback(4)_v1.xlsx,New rule: Press 'space' when you see 3-back (i.e. the same letter as the one that appeared 3 letters ago.),X,None,,,,,,,,,0,15,15,15,0,9,9,9,,,,,,,,,,,,,,,,,,,,,,,,,,,,,,,,,,,,,,,,,,,,,,,,,,,,,,,,,,,,,,,,,,,,,1.8408,903.7924793,None,None,1,903.7924793,None,,P020,fencog,2,Post,2021_Nov_16_1214,N-Back (New Version 2021),2021.1.4,120.173675
,,,,Conditions/Version_1/threeback(4)_v1.xlsx,New rule: Press 'space' when you see 3-back (i.e. the same letter as the one that appeared 3 letters ago.),,,,,,,,,,,0,15,15,15,,,,,,,,,,,,,,,,,,,,,,,,,,,,,,,,,,,,,,,,,,,,,,,,,,,,,,,,,,,,,,,,,,,,,,,,,,,,,,,,,P020,fencog,2,Post,2021_Nov_16_1214,N-Back (New Version 2021),2021.1.4,120.173675
