CondFileP,InstructionsP,LettersDisplayedP,CorrectnessP,CondFile,Instructions,LettersDisplayed,Correctness,practicetrials.thisRepN,practicetrials.thisTrialN,practicetrials.thisN,practicetrials.thisIndex,InnerLoopPractice.thisRepN,InnerLoopPractice.thisTrialN,InnerLoopPractice.thisN,InnerLoopPractice.thisIndex,trials.thisRepN,trials.thisTrialN,trials.thisN,trials.thisIndex,InnerLoop.thisRepN,InnerLoop.thisTrialN,InnerLoop.thisN,InnerLoop.thisIndex,TaskVersionText.started,TaskVersionText.stopped,InstrKey1.keys,InstrKey1.rt,InstrKey1.started,InstrKey1.stopped,text.started,text.stopped,key_resp_4.keys,key_resp_4.rt,key_resp_4.started,key_resp_4.stopped,text_2.started,text_2.stopped,key_resp_3.keys,key_resp_3.rt,key_resp_3.started,key_resp_3.stopped,text_3.started,text_3.stopped,key_resp_2.keys,key_resp_2.rt,key_resp_2.started,key_resp_2.stopped,PractIn1.started,PractIn1.stopped,PractIn2.started,PractIn2.stopped,PractInstructionPass.keys,PractInstructionPass.rt,PractInstructionPass.started,PractInstructionPass.stopped,PractBlock1.started,PractBlock1.stopped,ISIjitterPractice,ISI_Pract_Fixation.started,ISI_Pract_Fixation.stopped,N_backP.started,N_backP.stopped,KeyPractice.keys,KeyPractice.corr,KeyPractice.started,KeyPractice.stopped,text_4.started,text_4.stopped,KeyPractice.rt,TransitionText.started,TransitionText.stopped,key_resp_6.keys,key_resp_6.rt,key_resp_6.started,key_resp_6.stopped,text_5.started,text_5.stopped,key_resp_5.keys,key_resp_5.rt,key_resp_5.started,key_resp_5.stopped,MainInt1.started,MainInt1.stopped,MainInt2.started,MainInt2.stopped,InstructionPass.keys,InstructionPass.rt,InstructionPass.started,InstructionPass.stopped,Blocks1.started,Blocks1.stopped,ISIjitter,N_backD.started,N_backD.stopped,key_resp.keys,key_resp.corr,key_resp.started,key_resp.stopped,key_resp.rt,participant,Study Name,Task Version (required to run),PRE/POST,date,expName,psychopyVersion,frameRate
,,,,,,,,,,,,,,,,,,,,,,,,18.0405686,None,space,328.4975992,18.5321958,None,,,,,,,,,,,,,,,,,,,,,,,,,,,,,,,,,,,,,,,,,,,,,,,,,,,,,,,,,,,,,,,,,,,,,,,P021,fencog,1,Pre,2021_Dec_10_1314,N-Back (New Version 2021),2021.1.4,119.9055145
,,,,,,,,,,,,,,,,,,,,,,,,,,,,,,347.0630685,None,space,9.1340891,347.5596848,None,,,,,,,,,,,,,,,,,,,,,,,,,,,,,,,,,,,,,,,,,,,,,,,,,,,,,,,,,,,,,,,,,P021,fencog,1,Pre,2021_Dec_10_1314,N-Back (New Version 2021),2021.1.4,119.9055145
,,,,,,,,,,,,,,,,,,,,,,,,,,,,,,,,,,,,356.7298517,None,space,12.2219335,357.2238848,None,,,,,,,,,,,,,,,,,,,,,,,,,,,,,,,,,,,,,,,,,,,,,,,,,,,,,,,,,,,P021,fencog,1,Pre,2021_Dec_10_1314,N-Back (New Version 2021),2021.1.4,119.9055145
,,,,,,,,,,,,,,,,,,,,,,,,,,,,,,,,,,,,,,,,,,369.4714938,None,space,8.4282335,369.9615634,None,,,,,,,,,,,,,,,,,,,,,,,,,,,,,,,,,,,,,,,,,,,,,,,,,,,,,P021,fencog,1,Pre,2021_Dec_10_1314,N-Back (New Version 2021),2021.1.4,119.9055145
Conditions/Version_1Pr/zeroback(1)_v1.xlsx,Rule: Press 'space' when you see the letter 'x' or 'X'.,Z,None,,,,,0,0,0,0,0,0,0,0,,,,,,,,,,,,,,,,,,,,,,,,,,,,,,,,,379.8163626,None,382.799439,None,space,8.894664,382.799439,None,379.8163626,None,1.49,391.7296131,None,393.2235793,None,None,1,393.2235793,None,395.2291994,None,,,,,,,,,,,,,,,,,,,,,,,,,,,,,,,,P021,fencog,1,Pre,2021_Dec_10_1314,N-Back (New Version 2021),2021.1.4,119.9055145
Conditions/Version_1Pr/zeroback(1)_v1.xlsx,Rule: Press 'space' when you see the letter 'x' or 'X'.,r,None,,,,,0,0,0,0,0,1,1,1,,,,,,,,,,,,,,,,,,,,,,,,,,,,,,,,,,,,,,,,,,,1.815,396.7279036,None,398.5443448,None,None,1,398.5443448,None,400.5515552,None,,,,,,,,,,,,,,,,,,,,,,,,,,,,,,,,P021,fencog,1,Pre,2021_Dec_10_1314,N-Back (New Version 2021),2021.1.4,119.9055145
Conditions/Version_1Pr/zeroback(1)_v1.xlsx,Rule: Press 'space' when you see the letter 'x' or 'X'.,X,space,,,,,0,0,0,0,0,2,2,2,,,,,,,,,,,,,,,,,,,,,,,,,,,,,,,,,,,,,,,,,,,1.215,402.0511163,None,403.2691026,None,space,1,403.2691026,None,403.5931846,None,0.3124851,,,,,,,,,,,,,,,,,,,,,,,,,,,,,,,P021,fencog,1,Pre,2021_Dec_10_1314,N-Back (New Version 2021),2021.1.4,119.9055145
Conditions/Version_1Pr/zeroback(1)_v1.xlsx,Rule: Press 'space' when you see the letter 'x' or 'X'.,p,None,,,,,0,0,0,0,0,3,3,3,,,,,,,,,,,,,,,,,,,,,,,,,,,,,,,,,,,,,,,,,,,1.115,405.1002028,None,406.2173256,None,None,1,406.2173256,None,408.2243269,None,,,,,,,,,,,,,,,,,,,,,,,,,,,,,,,,P021,fencog,1,Pre,2021_Dec_10_1314,N-Back (New Version 2021),2021.1.4,119.9055145
Conditions/Version_1Pr/zeroback(1)_v1.xlsx,Rule: Press 'space' when you see the letter 'x' or 'X'.,w,None,,,,,0,0,0,0,0,4,4,4,,,,,,,,,,,,,,,,,,,,,,,,,,,,,,,,,,,,,,,,,,,1.39,409.7238142,None,411.1159339,None,None,1,411.1159339,None,413.1228158,None,,,,,,,,,,,,,,,,,,,,,,,,,,,,,,,,P021,fencog,1,Pre,2021_Dec_10_1314,N-Back (New Version 2021),2021.1.4,119.9055145
Conditions/Version_1Pr/zeroback(1)_v1.xlsx,Rule: Press 'space' when you see the letter 'x' or 'X'.,e,None,,,,,0,0,0,0,0,5,5,5,,,,,,,,,,,,,,,,,,,,,,,,,,,,,,,,,,,,,,,,,,,1.89,414.6223965,None,416.5139227,None,None,1,416.5139227,None,418.5163261,None,,,,,,,,,,,,,,,,,,,,,,,,,,,,,,,,P021,fencog,1,Pre,2021_Dec_10_1314,N-Back (New Version 2021),2021.1.4,119.9055145
Conditions/Version_1Pr/zeroback(1)_v1.xlsx,Rule: Press 'space' when you see the letter 'x' or 'X'.,X,space,,,,,0,0,0,0,0,6,6,6,,,,,,,,,,,,,,,,,,,,,,,,,,,,,,,,,,,,,,,,,,,1.565,420.0207837,None,421.5869807,None,space,1,421.5869807,None,421.9121685,None,0.314635,,,,,,,,,,,,,,,,,,,,,,,,,,,,,,,P021,fencog,1,Pre,2021_Dec_10_1314,N-Back (New Version 2021),2021.1.4,119.9055145
Conditions/Version_1Pr/zeroback(1)_v1.xlsx,Rule: Press 'space' when you see the letter 'x' or 'X'.,x,space,,,,,0,0,0,0,0,7,7,7,,,,,,,,,,,,,,,,,,,,,,,,,,,,,,,,,,,,,,,,,,,1.84,423.4114405,None,425.2531025,None,space,1,425.2531025,None,425.6608149,None,0.4004572,,,,,,,,,,,,,,,,,,,,,,,,,,,,,,,P021,fencog,1,Pre,2021_Dec_10_1314,N-Back (New Version 2021),2021.1.4,119.9055145
Conditions/Version_1Pr/zeroback(1)_v1.xlsx,Rule: Press 'space' when you see the letter 'x' or 'X'.,p,None,,,,,0,0,0,0,0,8,8,8,,,,,,,,,,,,,,,,,,,,,,,,,,,,,,,,,,,,,,,,,,,1.09,427.1603326,None,428.2518712,None,None,1,428.2518712,None,430.2510825,None,,,,,,,,,,,,,,,,,,,,,,,,,,,,,,,,P021,fencog,1,Pre,2021_Dec_10_1314,N-Back (New Version 2021),2021.1.4,119.9055145
Conditions/Version_1Pr/zeroback(1)_v1.xlsx,Rule: Press 'space' when you see the letter 'x' or 'X'.,r,None,,,,,0,0,0,0,0,9,9,9,,,,,,,,,,,,,,,,,,,,,,,,,,,,,,,,,,,,,,,,,,,1.54,431.7506532,None,433.2918682,None,None,1,433.2918682,None,435.2915827,None,,,,,,,,,,,,,,,,,,,,,,,,,,,,,,,,P021,fencog,1,Pre,2021_Dec_10_1314,N-Back (New Version 2021),2021.1.4,119.9055145
Conditions/Version_1Pr/zeroback(1)_v1.xlsx,Rule: Press 'space' when you see the letter 'x' or 'X'.,,,,,,,0,0,0,0,,,,,,,,,,,,,,,,,,,,,,,,,,,,,,,,,,,,,,,,,,,,,,,,,,,,,,,,,,,,,,,,,,,,,,,,,,,,,,,,,,,,,,,,,P021,fencog,1,Pre,2021_Dec_10_1314,N-Back (New Version 2021),2021.1.4,119.9055145
Conditions/Version_1Pr/oneback(1)_v1.xlsx,New rule: Press 'space' when you see 1-back (i.e. the same letter as the one that appeared 1 letter ago.),a,None,,,,,0,1,1,1,0,0,0,0,,,,,,,,,,,,,,,,,,,,,,,,,,,,,,,,,436.8143623,None,439.8004922,None,space,20.8930625,439.8004922,None,436.8143623,None,1.79,460.712029,None,462.5090095,None,None,1,462.5090095,None,464.5160011,None,,,,,,,,,,,,,,,,,,,,,,,,,,,,,,,,P021,fencog,1,Pre,2021_Dec_10_1314,N-Back (New Version 2021),2021.1.4,119.9055145
Conditions/Version_1Pr/oneback(1)_v1.xlsx,New rule: Press 'space' when you see 1-back (i.e. the same letter as the one that appeared 1 letter ago.),x,None,,,,,0,1,1,1,0,1,1,1,,,,,,,,,,,,,,,,,,,,,,,,,,,,,,,,,,,,,,,,,,,1.04,466.0155023,None,467.056825,None,None,1,467.056825,None,469.0561712,None,,,,,,,,,,,,,,,,,,,,,,,,,,,,,,,,P021,fencog,1,Pre,2021_Dec_10_1314,N-Back (New Version 2021),2021.1.4,119.9055145
Conditions/Version_1Pr/oneback(1)_v1.xlsx,New rule: Press 'space' when you see 1-back (i.e. the same letter as the one that appeared 1 letter ago.),g,None,,,,,0,1,1,1,0,2,2,2,,,,,,,,,,,,,,,,,,,,,,,,,,,,,,,,,,,,,,,,,,,1.54,470.5556812,None,472.0969768,None,None,1,472.0969768,None,474.0963735,None,,,,,,,,,,,,,,,,,,,,,,,,,,,,,,,,P021,fencog,1,Pre,2021_Dec_10_1314,N-Back (New Version 2021),2021.1.4,119.9055145
Conditions/Version_1Pr/oneback(1)_v1.xlsx,New rule: Press 'space' when you see 1-back (i.e. the same letter as the one that appeared 1 letter ago.),G,space,,,,,0,1,1,1,0,3,3,3,,,,,,,,,,,,,,,,,,,,,,,,,,,,,,,,,,,,,,,,,,,1.14,475.5959164,None,476.737502,None,space,1,476.737502,None,477.3048679,None,0.5560533,,,,,,,,,,,,,,,,,,,,,,,,,,,,,,,P021,fencog,1,Pre,2021_Dec_10_1314,N-Back (New Version 2021),2021.1.4,119.9055145
Conditions/Version_1Pr/oneback(1)_v1.xlsx,New rule: Press 'space' when you see 1-back (i.e. the same letter as the one that appeared 1 letter ago.),u,None,,,,,0,1,1,1,0,4,4,4,,,,,,,,,,,,,,,,,,,,,,,,,,,,,,,,,,,,,,,,,,,1.29,478.811635,None,480.1036382,None,None,1,480.1036382,None,482.1107054,None,,,,,,,,,,,,,,,,,,,,,,,,,,,,,,,,P021,fencog,1,Pre,2021_Dec_10_1314,N-Back (New Version 2021),2021.1.4,119.9055145
Conditions/Version_1Pr/oneback(1)_v1.xlsx,New rule: Press 'space' when you see 1-back (i.e. the same letter as the one that appeared 1 letter ago.),y,None,,,,,0,1,1,1,0,5,5,5,,,,,,,,,,,,,,,,,,,,,,,,,,,,,,,,,,,,,,,,,,,1.565,483.6102067,None,485.1773141,None,None,1,485.1773141,None,487.1841501,None,,,,,,,,,,,,,,,,,,,,,,,,,,,,,,,,P021,fencog,1,Pre,2021_Dec_10_1314,N-Back (New Version 2021),2021.1.4,119.9055145
Conditions/Version_1Pr/oneback(1)_v1.xlsx,New rule: Press 'space' when you see 1-back (i.e. the same letter as the one that appeared 1 letter ago.),y,space,,,,,0,1,1,1,0,6,6,6,,,,,,,,,,,,,,,,,,,,,,,,,,,,,,,,,,,,,,,,,,,1.965,488.6837212,None,490.649791,None,space,1,490.649791,None,491.1424079,None,0.483673,,,,,,,,,,,,,,,,,,,,,,,,,,,,,,,P021,fencog,1,Pre,2021_Dec_10_1314,N-Back (New Version 2021),2021.1.4,119.9055145
Conditions/Version_1Pr/oneback(1)_v1.xlsx,New rule: Press 'space' when you see 1-back (i.e. the same letter as the one that appeared 1 letter ago.),k,None,,,,,0,1,1,1,0,7,7,7,,,,,,,,,,,,,,,,,,,,,,,,,,,,,,,,,,,,,,,,,,,1.815,492.6491842,None,494.4652252,None,None,1,494.4652252,None,496.4647005,None,,,,,,,,,,,,,,,,,,,,,,,,,,,,,,,,P021,fencog,1,Pre,2021_Dec_10_1314,N-Back (New Version 2021),2021.1.4,119.9055145
Conditions/Version_1Pr/oneback(1)_v1.xlsx,New rule: Press 'space' when you see 1-back (i.e. the same letter as the one that appeared 1 letter ago.),c,None,,,,,0,1,1,1,0,8,8,8,,,,,,,,,,,,,,,,,,,,,,,,,,,,,,,,,,,,,,,,,,,1.065,497.9642456,None,499.0305792,None,None,1,499.0305792,None,501.0302318,None,,,,,,,,,,,,,,,,,,,,,,,,,,,,,,,,P021,fencog,1,Pre,2021_Dec_10_1314,N-Back (New Version 2021),2021.1.4,119.9055145
Conditions/Version_1Pr/oneback(1)_v1.xlsx,New rule: Press 'space' when you see 1-back (i.e. the same letter as the one that appeared 1 letter ago.),r,None,,,,,0,1,1,1,0,9,9,9,,,,,,,,,,,,,,,,,,,,,,,,,,,,,,,,,,,,,,,,,,,1.165,502.5298618,None,503.695897,None,None,1,503.695897,None,505.6953031,None,,,,,,,,,,,,,,,,,,,,,,,,,,,,,,,,P021,fencog,1,Pre,2021_Dec_10_1314,N-Back (New Version 2021),2021.1.4,119.9055145
Conditions/Version_1Pr/oneback(1)_v1.xlsx,New rule: Press 'space' when you see 1-back (i.e. the same letter as the one that appeared 1 letter ago.),,,,,,,0,1,1,1,,,,,,,,,,,,,,,,,,,,,,,,,,,,,,,,,,,,,,,,,,,,,,,,,,,,,,,,,,,,,,,,,,,,,,,,,,,,,,,,,,,,,,,,,P021,fencog,1,Pre,2021_Dec_10_1314,N-Back (New Version 2021),2021.1.4,119.9055145
Conditions/Version_1Pr/twoback(1)_v1.xlsx,New rule: Press 'space' when you see 2-back (i.e. the same letter as the one that appeared 2 letters ago.),E,None,,,,,0,2,2,2,0,0,0,0,,,,,,,,,,,,,,,,,,,,,,,,,,,,,,,,,507.2163574,None,510.2041379,None,space,5.3851344,510.2041379,None,507.2163574,None,1.34,515.6129475,None,516.9606041,None,None,1,516.9606041,None,518.9663366,None,,,,,,,,,,,,,,,,,,,,,,,,,,,,,,,,P021,fencog,1,Pre,2021_Dec_10_1314,N-Back (New Version 2021),2021.1.4,119.9055145
Conditions/Version_1Pr/twoback(1)_v1.xlsx,New rule: Press 'space' when you see 2-back (i.e. the same letter as the one that appeared 2 letters ago.),p,None,,,,,0,2,2,2,0,1,1,1,,,,,,,,,,,,,,,,,,,,,,,,,,,,,,,,,,,,,,,,,,,1.74,520.465837,None,522.2070287,None,None,1,522.2070287,None,524.2064737,None,,,,,,,,,,,,,,,,,,,,,,,,,,,,,,,,P021,fencog,1,Pre,2021_Dec_10_1314,N-Back (New Version 2021),2021.1.4,119.9055145
Conditions/Version_1Pr/twoback(1)_v1.xlsx,New rule: Press 'space' when you see 2-back (i.e. the same letter as the one that appeared 2 letters ago.),e,space,,,,,0,2,2,2,0,2,2,2,,,,,,,,,,,,,,,,,,,,,,,,,,,,,,,,,,,,,,,,,,,1.59,525.706092,None,527.2971572,None,space,1,527.2971572,None,527.7054027,None,0.3961836,,,,,,,,,,,,,,,,,,,,,,,,,,,,,,,P021,fencog,1,Pre,2021_Dec_10_1314,N-Back (New Version 2021),2021.1.4,119.9055145
Conditions/Version_1Pr/twoback(1)_v1.xlsx,New rule: Press 'space' when you see 2-back (i.e. the same letter as the one that appeared 2 letters ago.),s,None,,,,,0,2,2,2,0,3,3,3,,,,,,,,,,,,,,,,,,,,,,,,,,,,,,,,,,,,,,,,,,,2.015,529.2049524,None,531.2214372,None,None,1,531.2214372,None,533.2204014,None,,,,,,,,,,,,,,,,,,,,,,,,,,,,,,,,P021,fencog,1,Pre,2021_Dec_10_1314,N-Back (New Version 2021),2021.1.4,119.9055145
Conditions/Version_1Pr/twoback(1)_v1.xlsx,New rule: Press 'space' when you see 2-back (i.e. the same letter as the one that appeared 2 letters ago.),S,None,,,,,0,2,2,2,0,4,4,4,,,,,,,,,,,,,,,,,,,,,,,,,,,,,,,,,,,,,,,,,,,1.99,534.7200185,None,536.7114068,None,None,1,536.7114068,None,538.7105603,None,,,,,,,,,,,,,,,,,,,,,,,,,,,,,,,,P021,fencog,1,Pre,2021_Dec_10_1314,N-Back (New Version 2021),2021.1.4,119.9055145
Conditions/Version_1Pr/twoback(1)_v1.xlsx,New rule: Press 'space' when you see 2-back (i.e. the same letter as the one that appeared 2 letters ago.),s,space,,,,,0,2,2,2,0,5,5,5,,,,,,,,,,,,,,,,,,,,,,,,,,,,,,,,,,,,,,,,,,,1.19,540.2100669,None,541.4020134,None,space,1,541.4020134,None,541.9105786,None,0.500065,,,,,,,,,,,,,,,,,,,,,,,,,,,,,,,P021,fencog,1,Pre,2021_Dec_10_1314,N-Back (New Version 2021),2021.1.4,119.9055145
Conditions/Version_1Pr/twoback(1)_v1.xlsx,New rule: Press 'space' when you see 2-back (i.e. the same letter as the one that appeared 2 letters ago.),P,None,,,,,0,2,2,2,0,6,6,6,,,,,,,,,,,,,,,,,,,,,,,,,,,,,,,,,,,,,,,,,,,1.765,543.4176782,None,545.1849769,None,space,0,545.1849769,None,545.6040574,None,0.4042189,,,,,,,,,,,,,,,,,,,,,,,,,,,,,,,P021,fencog,1,Pre,2021_Dec_10_1314,N-Back (New Version 2021),2021.1.4,119.9055145
Conditions/Version_1Pr/twoback(1)_v1.xlsx,New rule: Press 'space' when you see 2-back (i.e. the same letter as the one that appeared 2 letters ago.),C,None,,,,,0,2,2,2,0,7,7,7,,,,,,,,,,,,,,,,,,,,,,,,,,,,,,,,,,,,,,,,,,,1.39,547.1079561,None,548.4998876,None,None,1,548.4998876,None,550.5069774,None,,,,,,,,,,,,,,,,,,,,,,,,,,,,,,,,P021,fencog,1,Pre,2021_Dec_10_1314,N-Back (New Version 2021),2021.1.4,119.9055145
Conditions/Version_1Pr/twoback(1)_v1.xlsx,New rule: Press 'space' when you see 2-back (i.e. the same letter as the one that appeared 2 letters ago.),x,None,,,,,0,2,2,2,0,8,8,8,,,,,,,,,,,,,,,,,,,,,,,,,,,,,,,,,,,,,,,,,,,1.265,552.0065957,None,553.2729085,None,None,1,553.2729085,None,555.2723933,None,,,,,,,,,,,,,,,,,,,,,,,,,,,,,,,,P021,fencog,1,Pre,2021_Dec_10_1314,N-Back (New Version 2021),2021.1.4,119.9055145
Conditions/Version_1Pr/twoback(1)_v1.xlsx,New rule: Press 'space' when you see 2-back (i.e. the same letter as the one that appeared 2 letters ago.),Z,None,,,,,0,2,2,2,0,9,9,9,,,,,,,,,,,,,,,,,,,,,,,,,,,,,,,,,,,,,,,,,,,1.215,556.771747,None,557.988261,None,None,1,557.988261,None,559.9874852,None,,,,,,,,,,,,,,,,,,,,,,,,,,,,,,,,P021,fencog,1,Pre,2021_Dec_10_1314,N-Back (New Version 2021),2021.1.4,119.9055145
Conditions/Version_1Pr/twoback(1)_v1.xlsx,New rule: Press 'space' when you see 2-back (i.e. the same letter as the one that appeared 2 letters ago.),,,,,,,0,2,2,2,,,,,,,,,,,,,,,,,,,,,,,,,,,,,,,,,,,,,,,,,,,,,,,,,,,,,,,,,,,,,,,,,,,,,,,,,,,,,,,,,,,,,,,,,P021,fencog,1,Pre,2021_Dec_10_1314,N-Back (New Version 2021),2021.1.4,119.9055145
Conditions/Version_1Pr/threeback(1)_v1.xlsx,New rule: Press 'space' when you see 3-back (i.e. the same letter as the one that appeared 3 letters ago.),r,None,,,,,0,3,3,3,0,0,0,0,,,,,,,,,,,,,,,,,,,,,,,,,,,,,,,,,561.5105123,None,564.4877176,None,space,8.2134924,564.4877176,None,561.5105123,None,1.515,572.728426,None,574.2535807,None,None,1,574.2535807,None,576.2576203,None,,,,,,,,,,,,,,,,,,,,,,,,,,,,,,,,P021,fencog,1,Pre,2021_Dec_10_1314,N-Back (New Version 2021),2021.1.4,119.9055145
Conditions/Version_1Pr/threeback(1)_v1.xlsx,New rule: Press 'space' when you see 3-back (i.e. the same letter as the one that appeared 3 letters ago.),a,None,,,,,0,3,3,3,0,1,1,1,,,,,,,,,,,,,,,,,,,,,,,,,,,,,,,,,,,,,,,,,,,1.465,577.7574767,None,579.2235048,None,None,1,579.2235048,None,581.222857,None,,,,,,,,,,,,,,,,,,,,,,,,,,,,,,,,P021,fencog,1,Pre,2021_Dec_10_1314,N-Back (New Version 2021),2021.1.4,119.9055145
Conditions/Version_1Pr/threeback(1)_v1.xlsx,New rule: Press 'space' when you see 3-back (i.e. the same letter as the one that appeared 3 letters ago.),t,None,,,,,0,3,3,3,0,2,2,2,,,,,,,,,,,,,,,,,,,,,,,,,,,,,,,,,,,,,,,,,,,1.865,582.722376,None,584.5897966,None,None,1,584.5897966,None,586.5966043,None,,,,,,,,,,,,,,,,,,,,,,,,,,,,,,,,P021,fencog,1,Pre,2021_Dec_10_1314,N-Back (New Version 2021),2021.1.4,119.9055145
Conditions/Version_1Pr/threeback(1)_v1.xlsx,New rule: Press 'space' when you see 3-back (i.e. the same letter as the one that appeared 3 letters ago.),r,space,,,,,0,3,3,3,0,3,3,3,,,,,,,,,,,,,,,,,,,,,,,,,,,,,,,,,,,,,,,,,,,1.24,588.095789,None,589.3371125,None,space,1,589.3371125,None,589.8788348,None,0.5321219,,,,,,,,,,,,,,,,,,,,,,,,,,,,,,,P021,fencog,1,Pre,2021_Dec_10_1314,N-Back (New Version 2021),2021.1.4,119.9055145
Conditions/Version_1Pr/threeback(1)_v1.xlsx,New rule: Press 'space' when you see 3-back (i.e. the same letter as the one that appeared 3 letters ago.),a,None,,,,,0,3,3,3,0,4,4,4,,,,,,,,,,,,,,,,,,,,,,,,,,,,,,,,,,,,,,,,,,,1.665,591.3783071,None,593.044298,None,space,0,593.044298,None,593.7466743,None,0.6888702,,,,,,,,,,,,,,,,,,,,,,,,,,,,,,,P021,fencog,1,Pre,2021_Dec_10_1314,N-Back (New Version 2021),2021.1.4,119.9055145
Conditions/Version_1Pr/threeback(1)_v1.xlsx,New rule: Press 'space' when you see 3-back (i.e. the same letter as the one that appeared 3 letters ago.),Y,None,,,,,0,3,3,3,0,5,5,5,,,,,,,,,,,,,,,,,,,,,,,,,,,,,,,,,,,,,,,,,,,1.74,595.2520001,None,596.9950836,None,None,1,596.9950836,None,599.0009201,None,,,,,,,,,,,,,,,,,,,,,,,,,,,,,,,,P021,fencog,1,Pre,2021_Dec_10_1314,N-Back (New Version 2021),2021.1.4,119.9055145
Conditions/Version_1Pr/threeback(1)_v1.xlsx,New rule: Press 'space' when you see 3-back (i.e. the same letter as the one that appeared 3 letters ago.),q,None,,,,,0,3,3,3,0,6,6,6,,,,,,,,,,,,,,,,,,,,,,,,,,,,,,,,,,,,,,,,,,,1.165,600.5004543,None,601.6674343,None,None,1,601.6674343,None,603.6744691,None,,,,,,,,,,,,,,,,,,,,,,,,,,,,,,,,P021,fencog,1,Pre,2021_Dec_10_1314,N-Back (New Version 2021),2021.1.4,119.9055145
Conditions/Version_1Pr/threeback(1)_v1.xlsx,New rule: Press 'space' when you see 3-back (i.e. the same letter as the one that appeared 3 letters ago.),A,space,,,,,0,3,3,3,0,7,7,7,,,,,,,,,,,,,,,,,,,,,,,,,,,,,,,,,,,,,,,,,,,1.49,605.174047,None,606.6662555,None,None,0,606.6662555,None,608.6736604,None,,,,,,,,,,,,,,,,,,,,,,,,,,,,,,,,P021,fencog,1,Pre,2021_Dec_10_1314,N-Back (New Version 2021),2021.1.4,119.9055145
Conditions/Version_1Pr/threeback(1)_v1.xlsx,New rule: Press 'space' when you see 3-back (i.e. the same letter as the one that appeared 3 letters ago.),y,None,,,,,0,3,3,3,0,8,8,8,,,,,,,,,,,,,,,,,,,,,,,,,,,,,,,,,,,,,,,,,,,1.59,610.1725726,None,611.763801,None,space,0,611.763801,None,612.3748045,None,0.6012935,,,,,,,,,,,,,,,,,,,,,,,,,,,,,,,P021,fencog,1,Pre,2021_Dec_10_1314,N-Back (New Version 2021),2021.1.4,119.9055145
Conditions/Version_1Pr/threeback(1)_v1.xlsx,New rule: Press 'space' when you see 3-back (i.e. the same letter as the one that appeared 3 letters ago.),r,None,,,,,0,3,3,3,0,9,9,9,,,,,,,,,,,,,,,,,,,,,,,,,,,,,,,,,,,,,,,,,,,1.69,613.8798474,None,615.5709514,None,None,1,615.5709514,None,617.5721924,None,,,,,,,,,,,,,,,,,,,,,,,,,,,,,,,,P021,fencog,1,Pre,2021_Dec_10_1314,N-Back (New Version 2021),2021.1.4,119.9055145
Conditions/Version_1Pr/threeback(1)_v1.xlsx,New rule: Press 'space' when you see 3-back (i.e. the same letter as the one that appeared 3 letters ago.),,,,,,,0,3,3,3,,,,,,,,,,,,,,,,,,,,,,,,,,,,,,,,,,,,,,,,,,,,,,,,,,,,,,,,,,,,,,,,,,,,,,,,,,,,,,,,,,,,,,,,,P021,fencog,1,Pre,2021_Dec_10_1314,N-Back (New Version 2021),2021.1.4,119.9055145
,,,,,,,,,,,,,,,,,,,,,,,,,,,,,,,,,,,,,,,,,,,,,,,,,,,,,,,,,,,,,,,,,,,,,,619.0839689,None,space,16.1790693,619.5700374,None,,,,,,,,,,,,,,,,,,,,,,,,,P021,fencog,1,Pre,2021_Dec_10_1314,N-Back (New Version 2021),2021.1.4,119.9055145
,,,,,,,,,,,,,,,,,,,,,,,,,,,,,,,,,,,,,,,,,,,,,,,,,,,,,,,,,,,,,,,,,,,,,,,,,,,,635.7693028,None,space,9.1235556,636.2654028,None,,,,,,,,,,,,,,,,,,,P021,fencog,1,Pre,2021_Dec_10_1314,N-Back (New Version 2021),2021.1.4,119.9055145
,,,,Conditions/Version_1/zeroback(1)_v1.xlsx,Rule: Press 'space' when you see the letter 'x' or 'X'.,b,None,,,,,,,,,0,0,0,0,0,0,0,0,,,,,,,,,,,,,,,,,,,,,,,,,,,,,,,,,,,,,,,,,,,,,,,,,,,,,,,,,,,645.506405,None,648.4948459,None,space,1.4781329,648.4948459,None,645.506405,None,1.2952,651.2941951,None,None,1,651.2941951,None,,P021,fencog,1,Pre,2021_Dec_10_1314,N-Back (New Version 2021),2021.1.4,119.9055145
,,,,Conditions/Version_1/zeroback(1)_v1.xlsx,Rule: Press 'space' when you see the letter 'x' or 'X'.,T,None,,,,,,,,,0,0,0,0,0,1,1,1,,,,,,,,,,,,,,,,,,,,,,,,,,,,,,,,,,,,,,,,,,,,,,,,,,,,,,,,,,,,,,,,,,,,,1.6176,654.9258527,None,None,1,654.9258527,None,,P021,fencog,1,Pre,2021_Dec_10_1314,N-Back (New Version 2021),2021.1.4,119.9055145
,,,,Conditions/Version_1/zeroback(1)_v1.xlsx,Rule: Press 'space' when you see the letter 'x' or 'X'.,L,None,,,,,,,,,0,0,0,0,0,2,2,2,,,,,,,,,,,,,,,,,,,,,,,,,,,,,,,,,,,,,,,,,,,,,,,,,,,,,,,,,,,,,,,,,,,,,1.4936,658.4256677,None,None,1,658.4256677,None,,P021,fencog,1,Pre,2021_Dec_10_1314,N-Back (New Version 2021),2021.1.4,119.9055145
,,,,Conditions/Version_1/zeroback(1)_v1.xlsx,Rule: Press 'space' when you see the letter 'x' or 'X'.,x,space,,,,,,,,,0,0,0,0,0,3,3,3,,,,,,,,,,,,,,,,,,,,,,,,,,,,,,,,,,,,,,,,,,,,,,,,,,,,,,,,,,,,,,,,,,,,,1.165,661.598962,None,space,1,661.598962,None,0.3659823,P021,fencog,1,Pre,2021_Dec_10_1314,N-Back (New Version 2021),2021.1.4,119.9055145
,,,,Conditions/Version_1/zeroback(1)_v1.xlsx,Rule: Press 'space' when you see the letter 'x' or 'X'.,o,None,,,,,,,,,0,0,0,0,0,4,4,4,,,,,,,,,,,,,,,,,,,,,,,,,,,,,,,,,,,,,,,,,,,,,,,,,,,,,,,,,,,,,,,,,,,,,1.63,665.2321568,None,None,1,665.2321568,None,,P021,fencog,1,Pre,2021_Dec_10_1314,N-Back (New Version 2021),2021.1.4,119.9055145
,,,,Conditions/Version_1/zeroback(1)_v1.xlsx,Rule: Press 'space' when you see the letter 'x' or 'X'.,P,None,,,,,,,,,0,0,0,0,0,5,5,5,,,,,,,,,,,,,,,,,,,,,,,,,,,,,,,,,,,,,,,,,,,,,,,,,,,,,,,,,,,,,,,,,,,,,1.1526,668.3969138,None,None,1,668.3969138,None,,P021,fencog,1,Pre,2021_Dec_10_1314,N-Back (New Version 2021),2021.1.4,119.9055145
,,,,Conditions/Version_1/zeroback(1)_v1.xlsx,Rule: Press 'space' when you see the letter 'x' or 'X'.,X,space,,,,,,,,,0,0,0,0,0,6,6,6,,,,,,,,,,,,,,,,,,,,,,,,,,,,,,,,,,,,,,,,,,,,,,,,,,,,,,,,,,,,,,,,,,,,,1.2704,671.6710388,None,space,1,671.6710388,None,0.3257904,P021,fencog,1,Pre,2021_Dec_10_1314,N-Back (New Version 2021),2021.1.4,119.9055145
,,,,Conditions/Version_1/zeroback(1)_v1.xlsx,Rule: Press 'space' when you see the letter 'x' or 'X'.,n,None,,,,,,,,,0,0,0,0,0,7,7,7,,,,,,,,,,,,,,,,,,,,,,,,,,,,,,,,,,,,,,,,,,,,,,,,,,,,,,,,,,,,,,,,,,,,,1.8036,675.4799191,None,None,1,675.4799191,None,,P021,fencog,1,Pre,2021_Dec_10_1314,N-Back (New Version 2021),2021.1.4,119.9055145
,,,,Conditions/Version_1/zeroback(1)_v1.xlsx,Rule: Press 'space' when you see the letter 'x' or 'X'.,M,None,,,,,,,,,0,0,0,0,0,8,8,8,,,,,,,,,,,,,,,,,,,,,,,,,,,,,,,,,,,,,,,,,,,,,,,,,,,,,,,,,,,,,,,,,,,,,1.7354,679.2288114,None,None,1,679.2288114,None,,P021,fencog,1,Pre,2021_Dec_10_1314,N-Back (New Version 2021),2021.1.4,119.9055145
,,,,Conditions/Version_1/zeroback(1)_v1.xlsx,Rule: Press 'space' when you see the letter 'x' or 'X'.,a,None,,,,,,,,,0,0,0,0,0,9,9,9,,,,,,,,,,,,,,,,,,,,,,,,,,,,,,,,,,,,,,,,,,,,,,,,,,,,,,,,,,,,,,,,,,,,,1.7168,682.9535041,None,None,1,682.9535041,None,,P021,fencog,1,Pre,2021_Dec_10_1314,N-Back (New Version 2021),2021.1.4,119.9055145
,,,,Conditions/Version_1/zeroback(1)_v1.xlsx,Rule: Press 'space' when you see the letter 'x' or 'X'.,,,,,,,,,,,0,0,0,0,,,,,,,,,,,,,,,,,,,,,,,,,,,,,,,,,,,,,,,,,,,,,,,,,,,,,,,,,,,,,,,,,,,,,,,,,,,,,,,,,P021,fencog,1,Pre,2021_Dec_10_1314,N-Back (New Version 2021),2021.1.4,119.9055145
,,,,Conditions/Version_1/oneback(1)_v1.xlsx,New rule: Press 'space' when you see 1-back (i.e. the same letter as the one that appeared 1 letter ago.),b,None,,,,,,,,,0,1,1,1,0,0,0,0,,,,,,,,,,,,,,,,,,,,,,,,,,,,,,,,,,,,,,,,,,,,,,,,,,,,,,,,,,,684.9807344,None,687.967372,None,space,14.5494376,687.967372,None,684.9807344,None,1.9214,704.469653,None,None,1,704.469653,None,,P021,fencog,1,Pre,2021_Dec_10_1314,N-Back (New Version 2021),2021.1.4,119.9055145
,,,,Conditions/Version_1/oneback(1)_v1.xlsx,New rule: Press 'space' when you see 1-back (i.e. the same letter as the one that appeared 1 letter ago.),p,None,,,,,,,,,0,1,1,1,0,1,1,1,,,,,,,,,,,,,,,,,,,,,,,,,,,,,,,,,,,,,,,,,,,,,,,,,,,,,,,,,,,,,,,,,,,,,1.227,707.7018844,None,None,1,707.7018844,None,,P021,fencog,1,Pre,2021_Dec_10_1314,N-Back (New Version 2021),2021.1.4,119.9055145
,,,,Conditions/Version_1/oneback(1)_v1.xlsx,New rule: Press 'space' when you see 1-back (i.e. the same letter as the one that appeared 1 letter ago.),M,None,,,,,,,,,0,1,1,1,0,2,2,2,,,,,,,,,,,,,,,,,,,,,,,,,,,,,,,,,,,,,,,,,,,,,,,,,,,,,,,,,,,,,,,,,,,,,1.8532,711.559193,None,None,1,711.559193,None,,P021,fencog,1,Pre,2021_Dec_10_1314,N-Back (New Version 2021),2021.1.4,119.9055145
,,,,Conditions/Version_1/oneback(1)_v1.xlsx,New rule: Press 'space' when you see 1-back (i.e. the same letter as the one that appeared 1 letter ago.),M,space,,,,,,,,,0,1,1,1,0,3,3,3,,,,,,,,,,,,,,,,,,,,,,,,,,,,,,,,,,,,,,,,,,,,,,,,,,,,,,,,,,,,,,,,,,,,,1.165,714.7248759,None,space,1,714.7248759,None,0.383937,P021,fencog,1,Pre,2021_Dec_10_1314,N-Back (New Version 2021),2021.1.4,119.9055145
,,,,Conditions/Version_1/oneback(1)_v1.xlsx,New rule: Press 'space' when you see 1-back (i.e. the same letter as the one that appeared 1 letter ago.),n,None,,,,,,,,,0,1,1,1,0,4,4,4,,,,,,,,,,,,,,,,,,,,,,,,,,,,,,,,,,,,,,,,,,,,,,,,,,,,,,,,,,,,,,,,,,,,,1.2022,717.9329891,None,None,1,717.9329891,None,,P021,fencog,1,Pre,2021_Dec_10_1314,N-Back (New Version 2021),2021.1.4,119.9055145
,,,,Conditions/Version_1/oneback(1)_v1.xlsx,New rule: Press 'space' when you see 1-back (i.e. the same letter as the one that appeared 1 letter ago.),g,None,,,,,,,,,0,1,1,1,0,5,5,5,,,,,,,,,,,,,,,,,,,,,,,,,,,,,,,,,,,,,,,,,,,,,,,,,,,,,,,,,,,,,,,,,,,,,1.63,721.5727125,None,None,1,721.5727125,None,,P021,fencog,1,Pre,2021_Dec_10_1314,N-Back (New Version 2021),2021.1.4,119.9055145
,,,,Conditions/Version_1/oneback(1)_v1.xlsx,New rule: Press 'space' when you see 1-back (i.e. the same letter as the one that appeared 1 letter ago.),P,None,,,,,,,,,0,1,1,1,0,6,6,6,,,,,,,,,,,,,,,,,,,,,,,,,,,,,,,,,,,,,,,,,,,,,,,,,,,,,,,,,,,,,,,,,,,,,1.1526,724.7305669,None,None,1,724.7305669,None,,P021,fencog,1,Pre,2021_Dec_10_1314,N-Back (New Version 2021),2021.1.4,119.9055145
,,,,Conditions/Version_1/oneback(1)_v1.xlsx,New rule: Press 'space' when you see 1-back (i.e. the same letter as the one that appeared 1 letter ago.),o,None,,,,,,,,,0,1,1,1,0,7,7,7,,,,,,,,,,,,,,,,,,,,,,,,,,,,,,,,,,,,,,,,,,,,,,,,,,,,,,,,,,,,,,,,,,,,,1.0472,727.7794564,None,None,1,727.7794564,None,,P021,fencog,1,Pre,2021_Dec_10_1314,N-Back (New Version 2021),2021.1.4,119.9055145
,,,,Conditions/Version_1/oneback(1)_v1.xlsx,New rule: Press 'space' when you see 1-back (i.e. the same letter as the one that appeared 1 letter ago.),f,None,,,,,,,,,0,1,1,1,0,8,8,8,,,,,,,,,,,,,,,,,,,,,,,,,,,,,,,,,,,,,,,,,,,,,,,,,,,,,,,,,,,,,,,,,,,,,1.0596,730.8472538,None,None,1,730.8472538,None,,P021,fencog,1,Pre,2021_Dec_10_1314,N-Back (New Version 2021),2021.1.4,119.9055145
,,,,Conditions/Version_1/oneback(1)_v1.xlsx,New rule: Press 'space' when you see 1-back (i.e. the same letter as the one that appeared 1 letter ago.),F,space,,,,,,,,,0,1,1,1,0,9,9,9,,,,,,,,,,,,,,,,,,,,,,,,,,,,,,,,,,,,,,,,,,,,,,,,,,,,,,,,,,,,,,,,,,,,,1.1402,734.003937,None,space,1,734.003937,None,0.3369388,P021,fencog,1,Pre,2021_Dec_10_1314,N-Back (New Version 2021),2021.1.4,119.9055145
,,,,Conditions/Version_1/oneback(1)_v1.xlsx,New rule: Press 'space' when you see 1-back (i.e. the same letter as the one that appeared 1 letter ago.),,,,,,,,,,,0,1,1,1,,,,,,,,,,,,,,,,,,,,,,,,,,,,,,,,,,,,,,,,,,,,,,,,,,,,,,,,,,,,,,,,,,,,,,,,,,,,,,,,,P021,fencog,1,Pre,2021_Dec_10_1314,N-Back (New Version 2021),2021.1.4,119.9055145
,,,,Conditions/Version_1/twoback(1)_v1.xlsx,New rule: Press 'space' when you see 2-back (i.e. the same letter as the one that appeared 2 letters ago.),b,None,,,,,,,,,0,2,2,2,0,0,0,0,,,,,,,,,,,,,,,,,,,,,,,,,,,,,,,,,,,,,,,,,,,,,,,,,,,,,,,,,,,736.0270044,None,739.0096803,None,space,14.4269685,739.0096803,None,736.0270044,None,1.599,755.0630349,None,None,1,755.0630349,None,,P021,fencog,1,Pre,2021_Dec_10_1314,N-Back (New Version 2021),2021.1.4,119.9055145
,,,,Conditions/Version_1/twoback(1)_v1.xlsx,New rule: Press 'space' when you see 2-back (i.e. the same letter as the one that appeared 2 letters ago.),h,None,,,,,,,,,0,2,2,2,0,1,1,1,,,,,,,,,,,,,,,,,,,,,,,,,,,,,,,,,,,,,,,,,,,,,,,,,,,,,,,,,,,,,,,,,,,,,1.5618,758.6301675,None,None,1,758.6301675,None,,P021,fencog,1,Pre,2021_Dec_10_1314,N-Back (New Version 2021),2021.1.4,119.9055145
,,,,Conditions/Version_1/twoback(1)_v1.xlsx,New rule: Press 'space' when you see 2-back (i.e. the same letter as the one that appeared 2 letters ago.),j,None,,,,,,,,,0,2,2,2,0,2,2,2,,,,,,,,,,,,,,,,,,,,,,,,,,,,,,,,,,,,,,,,,,,,,,,,,,,,,,,,,,,,,,,,,,,,,1.8718,762.5116966,None,None,1,762.5116966,None,,P021,fencog,1,Pre,2021_Dec_10_1314,N-Back (New Version 2021),2021.1.4,119.9055145
,,,,Conditions/Version_1/twoback(1)_v1.xlsx,New rule: Press 'space' when you see 2-back (i.e. the same letter as the one that appeared 2 letters ago.),H,space,,,,,,,,,0,2,2,2,0,3,3,3,,,,,,,,,,,,,,,,,,,,,,,,,,,,,,,,,,,,,,,,,,,,,,,,,,,,,,,,,,,,,,,,,,,,,1.847,766.3678956,None,None,0,766.3678956,None,,P021,fencog,1,Pre,2021_Dec_10_1314,N-Back (New Version 2021),2021.1.4,119.9055145
,,,,Conditions/Version_1/twoback(1)_v1.xlsx,New rule: Press 'space' when you see 2-back (i.e. the same letter as the one that appeared 2 letters ago.),p,None,,,,,,,,,0,2,2,2,0,4,4,4,,,,,,,,,,,,,,,,,,,,,,,,,,,,,,,,,,,,,,,,,,,,,,,,,,,,,,,,,,,,,,,,,,,,,1.9028,770.2749774,None,None,1,770.2749774,None,,P021,fencog,1,Pre,2021_Dec_10_1314,N-Back (New Version 2021),2021.1.4,119.9055145
,,,,Conditions/Version_1/twoback(1)_v1.xlsx,New rule: Press 'space' when you see 2-back (i.e. the same letter as the one that appeared 2 letters ago.),p,None,,,,,,,,,0,2,2,2,0,5,5,5,,,,,,,,,,,,,,,,,,,,,,,,,,,,,,,,,,,,,,,,,,,,,,,,,,,,,,,,,,,,,,,,,,,,,1.9896,774.265413,None,None,1,774.265413,None,,P021,fencog,1,Pre,2021_Dec_10_1314,N-Back (New Version 2021),2021.1.4,119.9055145
,,,,Conditions/Version_1/twoback(1)_v1.xlsx,New rule: Press 'space' when you see 2-back (i.e. the same letter as the one that appeared 2 letters ago.),w,None,,,,,,,,,0,2,2,2,0,6,6,6,,,,,,,,,,,,,,,,,,,,,,,,,,,,,,,,,,,,,,,,,,,,,,,,,,,,,,,,,,,,,,,,,,,,,1.1526,777.4228157,None,None,1,777.4228157,None,,P021,fencog,1,Pre,2021_Dec_10_1314,N-Back (New Version 2021),2021.1.4,119.9055145
,,,,Conditions/Version_1/twoback(1)_v1.xlsx,New rule: Press 'space' when you see 2-back (i.e. the same letter as the one that appeared 2 letters ago.),R,None,,,,,,,,,0,2,2,2,0,7,7,7,,,,,,,,,,,,,,,,,,,,,,,,,,,,,,,,,,,,,,,,,,,,,,,,,,,,,,,,,,,,,,,,,,,,,1.1278,780.5562949,None,None,1,780.5562949,None,,P021,fencog,1,Pre,2021_Dec_10_1314,N-Back (New Version 2021),2021.1.4,119.9055145
,,,,Conditions/Version_1/twoback(1)_v1.xlsx,New rule: Press 'space' when you see 2-back (i.e. the same letter as the one that appeared 2 letters ago.),a,None,,,,,,,,,0,2,2,2,0,8,8,8,,,,,,,,,,,,,,,,,,,,,,,,,,,,,,,,,,,,,,,,,,,,,,,,,,,,,,,,,,,,,,,,,,,,,1.0162,783.5795006,None,None,1,783.5795006,None,,P021,fencog,1,Pre,2021_Dec_10_1314,N-Back (New Version 2021),2021.1.4,119.9055145
,,,,Conditions/Version_1/twoback(1)_v1.xlsx,New rule: Press 'space' when you see 2-back (i.e. the same letter as the one that appeared 2 letters ago.),r,space,,,,,,,,,0,2,2,2,0,9,9,9,,,,,,,,,,,,,,,,,,,,,,,,,,,,,,,,,,,,,,,,,,,,,,,,,,,,,,,,,,,,,,,,,,,,,1.1216,786.7033633,None,space,1,786.7033633,None,0.6292038,P021,fencog,1,Pre,2021_Dec_10_1314,N-Back (New Version 2021),2021.1.4,119.9055145
,,,,Conditions/Version_1/twoback(1)_v1.xlsx,New rule: Press 'space' when you see 2-back (i.e. the same letter as the one that appeared 2 letters ago.),,,,,,,,,,,0,2,2,2,,,,,,,,,,,,,,,,,,,,,,,,,,,,,,,,,,,,,,,,,,,,,,,,,,,,,,,,,,,,,,,,,,,,,,,,,,,,,,,,,P021,fencog,1,Pre,2021_Dec_10_1314,N-Back (New Version 2021),2021.1.4,119.9055145
,,,,Conditions/Version_1/threeback(1)_v1.xlsx,New rule: Press 'space' when you see 3-back (i.e. the same letter as the one that appeared 3 letters ago.),r,None,,,,,,,,,0,3,3,3,0,0,0,0,,,,,,,,,,,,,,,,,,,,,,,,,,,,,,,,,,,,,,,,,,,,,,,,,,,,,,,,,,,788.726397,None,791.7122484,None,space,21.8842603,791.7122484,None,788.726397,None,1.196,814.8199954,None,None,1,814.8199954,None,,P021,fencog,1,Pre,2021_Dec_10_1314,N-Back (New Version 2021),2021.1.4,119.9055145
,,,,Conditions/Version_1/threeback(1)_v1.xlsx,New rule: Press 'space' when you see 3-back (i.e. the same letter as the one that appeared 3 letters ago.),o,None,,,,,,,,,0,3,3,3,0,1,1,1,,,,,,,,,,,,,,,,,,,,,,,,,,,,,,,,,,,,,,,,,,,,,,,,,,,,,,,,,,,,,,,,,,,,,1.165,817.9857781,None,None,1,817.9857781,None,,P021,fencog,1,Pre,2021_Dec_10_1314,N-Back (New Version 2021),2021.1.4,119.9055145
,,,,Conditions/Version_1/threeback(1)_v1.xlsx,New rule: Press 'space' when you see 3-back (i.e. the same letter as the one that appeared 3 letters ago.),P,None,,,,,,,,,0,3,3,3,0,2,2,2,,,,,,,,,,,,,,,,,,,,,,,,,,,,,,,,,,,,,,,,,,,,,,,,,,,,,,,,,,,,,,,,,,,,,1.8594,821.851336,None,None,1,821.851336,None,,P021,fencog,1,Pre,2021_Dec_10_1314,N-Back (New Version 2021),2021.1.4,119.9055145
,,,,Conditions/Version_1/threeback(1)_v1.xlsx,New rule: Press 'space' when you see 3-back (i.e. the same letter as the one that appeared 3 letters ago.),R,space,,,,,,,,,0,3,3,3,0,3,3,3,,,,,,,,,,,,,,,,,,,,,,,,,,,,,,,,,,,,,,,,,,,,,,,,,,,,,,,,,,,,,,,,,,,,,1.0968,824.9503471,None,space,1,824.9503471,None,0.5022088,P021,fencog,1,Pre,2021_Dec_10_1314,N-Back (New Version 2021),2021.1.4,119.9055145
,,,,Conditions/Version_1/threeback(1)_v1.xlsx,New rule: Press 'space' when you see 3-back (i.e. the same letter as the one that appeared 3 letters ago.),p,None,,,,,,,,,0,3,3,3,0,4,4,4,,,,,,,,,,,,,,,,,,,,,,,,,,,,,,,,,,,,,,,,,,,,,,,,,,,,,,,,,,,,,,,,,,,,,1.0844,828.0412376,None,None,1,828.0412376,None,,P021,fencog,1,Pre,2021_Dec_10_1314,N-Back (New Version 2021),2021.1.4,119.9055145
,,,,Conditions/Version_1/threeback(1)_v1.xlsx,New rule: Press 'space' when you see 3-back (i.e. the same letter as the one that appeared 3 letters ago.),E,None,,,,,,,,,0,3,3,3,0,5,5,5,,,,,,,,,,,,,,,,,,,,,,,,,,,,,,,,,,,,,,,,,,,,,,,,,,,,,,,,,,,,,,,,,,,,,1.2518,831.298451,None,None,1,831.298451,None,,P021,fencog,1,Pre,2021_Dec_10_1314,N-Back (New Version 2021),2021.1.4,119.9055145
,,,,Conditions/Version_1/threeback(1)_v1.xlsx,New rule: Press 'space' when you see 3-back (i.e. the same letter as the one that appeared 3 letters ago.),e,None,,,,,,,,,0,3,3,3,0,6,6,6,,,,,,,,,,,,,,,,,,,,,,,,,,,,,,,,,,,,,,,,,,,,,,,,,,,,,,,,,,,,,,,,,,,,,1.5494,834.8474241,None,space,0,834.8474241,None,1.3331377,P021,fencog,1,Pre,2021_Dec_10_1314,N-Back (New Version 2021),2021.1.4,119.9055145
,,,,Conditions/Version_1/threeback(1)_v1.xlsx,New rule: Press 'space' when you see 3-back (i.e. the same letter as the one that appeared 3 letters ago.),m,None,,,,,,,,,0,3,3,3,0,7,7,7,,,,,,,,,,,,,,,,,,,,,,,,,,,,,,,,,,,,,,,,,,,,,,,,,,,,,,,,,,,,,,,,,,,,,1.1216,837.9720575,None,None,1,837.9720575,None,,P021,fencog,1,Pre,2021_Dec_10_1314,N-Back (New Version 2021),2021.1.4,119.9055145
,,,,Conditions/Version_1/threeback(1)_v1.xlsx,New rule: Press 'space' when you see 3-back (i.e. the same letter as the one that appeared 3 letters ago.),n,None,,,,,,,,,0,3,3,3,0,8,8,8,,,,,,,,,,,,,,,,,,,,,,,,,,,,,,,,,,,,,,,,,,,,,,,,,,,,,,,,,,,,,,,,,,,,,1.3138,841.2956509,None,None,1,841.2956509,None,,P021,fencog,1,Pre,2021_Dec_10_1314,N-Back (New Version 2021),2021.1.4,119.9055145
,,,,Conditions/Version_1/threeback(1)_v1.xlsx,New rule: Press 'space' when you see 3-back (i.e. the same letter as the one that appeared 3 letters ago.),e,space,,,,,,,,,0,3,3,3,0,9,9,9,,,,,,,,,,,,,,,,,,,,,,,,,,,,,,,,,,,,,,,,,,,,,,,,,,,,,,,,,,,,,,,,,,,,,1.0224,844.3196404,None,space,1,844.3196404,None,0.9808671,P021,fencog,1,Pre,2021_Dec_10_1314,N-Back (New Version 2021),2021.1.4,119.9055145
,,,,Conditions/Version_1/threeback(1)_v1.xlsx,New rule: Press 'space' when you see 3-back (i.e. the same letter as the one that appeared 3 letters ago.),,,,,,,,,,,0,3,3,3,,,,,,,,,,,,,,,,,,,,,,,,,,,,,,,,,,,,,,,,,,,,,,,,,,,,,,,,,,,,,,,,,,,,,,,,,,,,,,,,,P021,fencog,1,Pre,2021_Dec_10_1314,N-Back (New Version 2021),2021.1.4,119.9055145
,,,,Conditions/Version_1/oneback(2)_v1.xlsx,New rule: Press 'space' when you see 1-back (i.e. the same letter as the one that appeared 1 letter ago.),q,None,,,,,,,,,0,4,4,4,0,0,0,0,,,,,,,,,,,,,,,,,,,,,,,,,,,,,,,,,,,,,,,,,,,,,,,,,,,,,,,,,,,846.3383892,None,849.3279438,None,space,1.6204522,849.3279438,None,846.3383892,None,1.7416,852.7171165,None,None,1,852.7171165,None,,P021,fencog,1,Pre,2021_Dec_10_1314,N-Back (New Version 2021),2021.1.4,119.9055145
,,,,Conditions/Version_1/oneback(2)_v1.xlsx,New rule: Press 'space' when you see 1-back (i.e. the same letter as the one that appeared 1 letter ago.),Q,space,,,,,,,,,0,4,4,4,0,1,1,1,,,,,,,,,,,,,,,,,,,,,,,,,,,,,,,,,,,,,,,,,,,,,,,,,,,,,,,,,,,,,,,,,,,,,1.5494,856.2668929,None,space,1,856.2668929,None,0.4655205,P021,fencog,1,Pre,2021_Dec_10_1314,N-Back (New Version 2021),2021.1.4,119.9055145
,,,,Conditions/Version_1/oneback(2)_v1.xlsx,New rule: Press 'space' when you see 1-back (i.e. the same letter as the one that appeared 1 letter ago.),P,None,,,,,,,,,0,4,4,4,0,2,2,2,,,,,,,,,,,,,,,,,,,,,,,,,,,,,,,,,,,,,,,,,,,,,,,,,,,,,,,,,,,,,,,,,,,,,1.9648,860.2400549,None,None,1,860.2400549,None,,P021,fencog,1,Pre,2021_Dec_10_1314,N-Back (New Version 2021),2021.1.4,119.9055145
,,,,Conditions/Version_1/oneback(2)_v1.xlsx,New rule: Press 'space' when you see 1-back (i.e. the same letter as the one that appeared 1 letter ago.),o,None,,,,,,,,,0,4,4,4,0,3,3,3,,,,,,,,,,,,,,,,,,,,,,,,,,,,,,,,,,,,,,,,,,,,,,,,,,,,,,,,,,,,,,,,,,,,,1.7292,863.9721563,None,None,1,863.9721563,None,,P021,fencog,1,Pre,2021_Dec_10_1314,N-Back (New Version 2021),2021.1.4,119.9055145
,,,,Conditions/Version_1/oneback(2)_v1.xlsx,New rule: Press 'space' when you see 1-back (i.e. the same letter as the one that appeared 1 letter ago.),m,None,,,,,,,,,0,4,4,4,0,4,4,4,,,,,,,,,,,,,,,,,,,,,,,,,,,,,,,,,,,,,,,,,,,,,,,,,,,,,,,,,,,,,,,,,,,,,1.8656,867.8375421,None,None,1,867.8375421,None,,P021,fencog,1,Pre,2021_Dec_10_1314,N-Back (New Version 2021),2021.1.4,119.9055145
,,,,Conditions/Version_1/oneback(2)_v1.xlsx,New rule: Press 'space' when you see 1-back (i.e. the same letter as the one that appeared 1 letter ago.),Z,None,,,,,,,,,0,4,4,4,0,5,5,5,,,,,,,,,,,,,,,,,,,,,,,,,,,,,,,,,,,,,,,,,,,,,,,,,,,,,,,,,,,,,,,,,,,,,1.661,871.5031531,None,None,1,871.5031531,None,,P021,fencog,1,Pre,2021_Dec_10_1314,N-Back (New Version 2021),2021.1.4,119.9055145
,,,,Conditions/Version_1/oneback(2)_v1.xlsx,New rule: Press 'space' when you see 1-back (i.e. the same letter as the one that appeared 1 letter ago.),c,None,,,,,,,,,0,4,4,4,0,6,6,6,,,,,,,,,,,,,,,,,,,,,,,,,,,,,,,,,,,,,,,,,,,,,,,,,,,,,,,,,,,,,,,,,,,,,1.0162,874.51892,None,None,1,874.51892,None,,P021,fencog,1,Pre,2021_Dec_10_1314,N-Back (New Version 2021),2021.1.4,119.9055145
,,,,Conditions/Version_1/oneback(2)_v1.xlsx,New rule: Press 'space' when you see 1-back (i.e. the same letter as the one that appeared 1 letter ago.),c,space,,,,,,,,,0,4,4,4,0,7,7,7,,,,,,,,,,,,,,,,,,,,,,,,,,,,,,,,,,,,,,,,,,,,,,,,,,,,,,,,,,,,,,,,,,,,,1.6548,878.1761355,None,space,1,878.1761355,None,0.4282042,P021,fencog,1,Pre,2021_Dec_10_1314,N-Back (New Version 2021),2021.1.4,119.9055145
,,,,Conditions/Version_1/oneback(2)_v1.xlsx,New rule: Press 'space' when you see 1-back (i.e. the same letter as the one that appeared 1 letter ago.),P,None,,,,,,,,,0,4,4,4,0,8,8,8,,,,,,,,,,,,,,,,,,,,,,,,,,,,,,,,,,,,,,,,,,,,,,,,,,,,,,,,,,,,,,,,,,,,,1.5432,881.725089,None,None,1,881.725089,None,,P021,fencog,1,Pre,2021_Dec_10_1314,N-Back (New Version 2021),2021.1.4,119.9055145
,,,,Conditions/Version_1/oneback(2)_v1.xlsx,New rule: Press 'space' when you see 1-back (i.e. the same letter as the one that appeared 1 letter ago.),p,space,,,,,,,,,0,4,4,4,0,9,9,9,,,,,,,,,,,,,,,,,,,,,,,,,,,,,,,,,,,,,,,,,,,,,,,,,,,,,,,,,,,,,,,,,,,,,1.3324,885.0573953,None,space,1,885.0573953,None,0.5710158,P021,fencog,1,Pre,2021_Dec_10_1314,N-Back (New Version 2021),2021.1.4,119.9055145
,,,,Conditions/Version_1/oneback(2)_v1.xlsx,New rule: Press 'space' when you see 1-back (i.e. the same letter as the one that appeared 1 letter ago.),,,,,,,,,,,0,4,4,4,,,,,,,,,,,,,,,,,,,,,,,,,,,,,,,,,,,,,,,,,,,,,,,,,,,,,,,,,,,,,,,,,,,,,,,,,,,,,,,,,P021,fencog,1,Pre,2021_Dec_10_1314,N-Back (New Version 2021),2021.1.4,119.9055145
,,,,Conditions/Version_1/zeroback(2)_v1.xlsx,New rule: Press 'space' when you see the letter 'x' or 'X'.,p,None,,,,,,,,,0,5,5,5,0,0,0,0,,,,,,,,,,,,,,,,,,,,,,,,,,,,,,,,,,,,,,,,,,,,,,,,,,,,,,,,,,,887.0730828,None,890.0581258,None,space,1.8501282,890.0581258,None,887.0730828,None,1.692,893.6299014,None,None,1,893.6299014,None,,P021,fencog,1,Pre,2021_Dec_10_1314,N-Back (New Version 2021),2021.1.4,119.9055145
,,,,Conditions/Version_1/zeroback(2)_v1.xlsx,New rule: Press 'space' when you see the letter 'x' or 'X'.,L,None,,,,,,,,,0,5,5,5,0,1,1,1,,,,,,,,,,,,,,,,,,,,,,,,,,,,,,,,,,,,,,,,,,,,,,,,,,,,,,,,,,,,,,,,,,,,,1.3634,896.9959251,None,None,1,896.9959251,None,,P021,fencog,1,Pre,2021_Dec_10_1314,N-Back (New Version 2021),2021.1.4,119.9055145
,,,,Conditions/Version_1/zeroback(2)_v1.xlsx,New rule: Press 'space' when you see the letter 'x' or 'X'.,G,None,,,,,,,,,0,5,5,5,0,2,2,2,,,,,,,,,,,,,,,,,,,,,,,,,,,,,,,,,,,,,,,,,,,,,,,,,,,,,,,,,,,,,,,,,,,,,1.2146,900.2112722,None,None,1,900.2112722,None,,P021,fencog,1,Pre,2021_Dec_10_1314,N-Back (New Version 2021),2021.1.4,119.9055145
,,,,Conditions/Version_1/zeroback(2)_v1.xlsx,New rule: Press 'space' when you see the letter 'x' or 'X'.,y,None,,,,,,,,,0,5,5,5,0,3,3,3,,,,,,,,,,,,,,,,,,,,,,,,,,,,,,,,,,,,,,,,,,,,,,,,,,,,,,,,,,,,,,,,,,,,,1.4254,903.6352243,None,None,1,903.6352243,None,,P021,fencog,1,Pre,2021_Dec_10_1314,N-Back (New Version 2021),2021.1.4,119.9055145
,,,,Conditions/Version_1/zeroback(2)_v1.xlsx,New rule: Press 'space' when you see the letter 'x' or 'X'.,Y,None,,,,,,,,,0,5,5,5,0,4,4,4,,,,,,,,,,,,,,,,,,,,,,,,,,,,,,,,,,,,,,,,,,,,,,,,,,,,,,,,,,,,,,,,,,,,,1.382,907.0177686,None,None,1,907.0177686,None,,P021,fencog,1,Pre,2021_Dec_10_1314,N-Back (New Version 2021),2021.1.4,119.9055145
,,,,Conditions/Version_1/zeroback(2)_v1.xlsx,New rule: Press 'space' when you see the letter 'x' or 'X'.,W,None,,,,,,,,,0,5,5,5,0,5,5,5,,,,,,,,,,,,,,,,,,,,,,,,,,,,,,,,,,,,,,,,,,,,,,,,,,,,,,,,,,,,,,,,,,,,,1.2766,910.3000802,None,None,1,910.3000802,None,,P021,fencog,1,Pre,2021_Dec_10_1314,N-Back (New Version 2021),2021.1.4,119.9055145
,,,,Conditions/Version_1/zeroback(2)_v1.xlsx,New rule: Press 'space' when you see the letter 'x' or 'X'.,x,space,,,,,,,,,0,5,5,5,0,6,6,6,,,,,,,,,,,,,,,,,,,,,,,,,,,,,,,,,,,,,,,,,,,,,,,,,,,,,,,,,,,,,,,,,,,,,1.1092,913.4157559,None,space,1,913.4157559,None,0.3646613,P021,fencog,1,Pre,2021_Dec_10_1314,N-Back (New Version 2021),2021.1.4,119.9055145
,,,,Conditions/Version_1/zeroback(2)_v1.xlsx,New rule: Press 'space' when you see the letter 'x' or 'X'.,X,space,,,,,,,,,0,5,5,5,0,7,7,7,,,,,,,,,,,,,,,,,,,,,,,,,,,,,,,,,,,,,,,,,,,,,,,,,,,,,,,,,,,,,,,,,,,,,1.01,916.4315473,None,space,1,916.4315473,None,0.364835,P021,fencog,1,Pre,2021_Dec_10_1314,N-Back (New Version 2021),2021.1.4,119.9055145
,,,,Conditions/Version_1/zeroback(2)_v1.xlsx,New rule: Press 'space' when you see the letter 'x' or 'X'.,p,None,,,,,,,,,0,5,5,5,0,8,8,8,,,,,,,,,,,,,,,,,,,,,,,,,,,,,,,,,,,,,,,,,,,,,,,,,,,,,,,,,,,,,,,,,,,,,1.1774,919.6138261,None,None,1,919.6138261,None,,P021,fencog,1,Pre,2021_Dec_10_1314,N-Back (New Version 2021),2021.1.4,119.9055145
,,,,Conditions/Version_1/zeroback(2)_v1.xlsx,New rule: Press 'space' when you see the letter 'x' or 'X'.,h,None,,,,,,,,,0,5,5,5,0,9,9,9,,,,,,,,,,,,,,,,,,,,,,,,,,,,,,,,,,,,,,,,,,,,,,,,,,,,,,,,,,,,,,,,,,,,,1.3138,922.9378522,None,None,1,922.9378522,None,,P021,fencog,1,Pre,2021_Dec_10_1314,N-Back (New Version 2021),2021.1.4,119.9055145
,,,,Conditions/Version_1/zeroback(2)_v1.xlsx,New rule: Press 'space' when you see the letter 'x' or 'X'.,,,,,,,,,,,0,5,5,5,,,,,,,,,,,,,,,,,,,,,,,,,,,,,,,,,,,,,,,,,,,,,,,,,,,,,,,,,,,,,,,,,,,,,,,,,,,,,,,,,P021,fencog,1,Pre,2021_Dec_10_1314,N-Back (New Version 2021),2021.1.4,119.9055145
,,,,Conditions/Version_1/threeback(2)_v1.xlsx,New rule: Press 'space' when you see 3-back (i.e. the same letter as the one that appeared 3 letters ago.),q,None,,,,,,,,,0,6,6,6,0,0,0,0,,,,,,,,,,,,,,,,,,,,,,,,,,,,,,,,,,,,,,,,,,,,,,,,,,,,,,,,,,,924.9570314,None,927.9459109,None,space,20.6503139,927.9459109,None,924.9570314,None,1.7602,950.3842151,None,None,1,950.3842151,None,,P021,fencog,1,Pre,2021_Dec_10_1314,N-Back (New Version 2021),2021.1.4,119.9055145
,,,,Conditions/Version_1/threeback(2)_v1.xlsx,New rule: Press 'space' when you see 3-back (i.e. the same letter as the one that appeared 3 letters ago.),Y,None,,,,,,,,,0,6,6,6,0,1,1,1,,,,,,,,,,,,,,,,,,,,,,,,,,,,,,,,,,,,,,,,,,,,,,,,,,,,,,,,,,,,,,,,,,,,,1.01,953.4038875,None,None,1,953.4038875,None,,P021,fencog,1,Pre,2021_Dec_10_1314,N-Back (New Version 2021),2021.1.4,119.9055145
,,,,Conditions/Version_1/threeback(2)_v1.xlsx,New rule: Press 'space' when you see 3-back (i.e. the same letter as the one that appeared 3 letters ago.),p,None,,,,,,,,,0,6,6,6,0,2,2,2,,,,,,,,,,,,,,,,,,,,,,,,,,,,,,,,,,,,,,,,,,,,,,,,,,,,,,,,,,,,,,,,,,,,,1.3014,956.7112501,None,None,1,956.7112501,None,,P021,fencog,1,Pre,2021_Dec_10_1314,N-Back (New Version 2021),2021.1.4,119.9055145
,,,,Conditions/Version_1/threeback(2)_v1.xlsx,New rule: Press 'space' when you see 3-back (i.e. the same letter as the one that appeared 3 letters ago.),p,None,,,,,,,,,0,6,6,6,0,3,3,3,,,,,,,,,,,,,,,,,,,,,,,,,,,,,,,,,,,,,,,,,,,,,,,,,,,,,,,,,,,,,,,,,,,,,1.0658,959.776884,None,None,1,959.776884,None,,P021,fencog,1,Pre,2021_Dec_10_1314,N-Back (New Version 2021),2021.1.4,119.9055145
,,,,Conditions/Version_1/threeback(2)_v1.xlsx,New rule: Press 'space' when you see 3-back (i.e. the same letter as the one that appeared 3 letters ago.),y,space,,,,,,,,,0,6,6,6,0,4,4,4,,,,,,,,,,,,,,,,,,,,,,,,,,,,,,,,,,,,,,,,,,,,,,,,,,,,,,,,,,,,,,,,,,,,,1.0224,962.8010025,None,space,1,962.8010025,None,1.2110097,P021,fencog,1,Pre,2021_Dec_10_1314,N-Back (New Version 2021),2021.1.4,119.9055145
,,,,Conditions/Version_1/threeback(2)_v1.xlsx,New rule: Press 'space' when you see 3-back (i.e. the same letter as the one that appeared 3 letters ago.),u,None,,,,,,,,,0,6,6,6,0,5,5,5,,,,,,,,,,,,,,,,,,,,,,,,,,,,,,,,,,,,,,,,,,,,,,,,,,,,,,,,,,,,,,,,,,,,,1.7664,966.5666118,None,None,1,966.5666118,None,,P021,fencog,1,Pre,2021_Dec_10_1314,N-Back (New Version 2021),2021.1.4,119.9055145
,,,,Conditions/Version_1/threeback(2)_v1.xlsx,New rule: Press 'space' when you see 3-back (i.e. the same letter as the one that appeared 3 letters ago.),P,space,,,,,,,,,0,6,6,6,0,6,6,6,,,,,,,,,,,,,,,,,,,,,,,,,,,,,,,,,,,,,,,,,,,,,,,,,,,,,,,,,,,,,,,,,,,,,1.041,969.6075749,None,space,1,969.6075749,None,1.2044724,P021,fencog,1,Pre,2021_Dec_10_1314,N-Back (New Version 2021),2021.1.4,119.9055145
,,,,Conditions/Version_1/threeback(2)_v1.xlsx,New rule: Press 'space' when you see 3-back (i.e. the same letter as the one that appeared 3 letters ago.),a,None,,,,,,,,,0,6,6,6,0,7,7,7,,,,,,,,,,,,,,,,,,,,,,,,,,,,,,,,,,,,,,,,,,,,,,,,,,,,,,,,,,,,,,,,,,,,,1.0968,972.7064046,None,None,1,972.7064046,None,,P021,fencog,1,Pre,2021_Dec_10_1314,N-Back (New Version 2021),2021.1.4,119.9055145
,,,,Conditions/Version_1/threeback(2)_v1.xlsx,New rule: Press 'space' when you see 3-back (i.e. the same letter as the one that appeared 3 letters ago.),U,space,,,,,,,,,0,6,6,6,0,8,8,8,,,,,,,,,,,,,,,,,,,,,,,,,,,,,,,,,,,,,,,,,,,,,,,,,,,,,,,,,,,,,,,,,,,,,1.3324,976.0403875,None,space,1,976.0403875,None,0.8515667,P021,fencog,1,Pre,2021_Dec_10_1314,N-Back (New Version 2021),2021.1.4,119.9055145
,,,,Conditions/Version_1/threeback(2)_v1.xlsx,New rule: Press 'space' when you see 3-back (i.e. the same letter as the one that appeared 3 letters ago.),q,None,,,,,,,,,0,6,6,6,0,9,9,9,,,,,,,,,,,,,,,,,,,,,,,,,,,,,,,,,,,,,,,,,,,,,,,,,,,,,,,,,,,,,,,,,,,,,1.5122,979.5626772,None,None,1,979.5626772,None,,P021,fencog,1,Pre,2021_Dec_10_1314,N-Back (New Version 2021),2021.1.4,119.9055145
,,,,Conditions/Version_1/threeback(2)_v1.xlsx,New rule: Press 'space' when you see 3-back (i.e. the same letter as the one that appeared 3 letters ago.),,,,,,,,,,,0,6,6,6,,,,,,,,,,,,,,,,,,,,,,,,,,,,,,,,,,,,,,,,,,,,,,,,,,,,,,,,,,,,,,,,,,,,,,,,,,,,,,,,,P021,fencog,1,Pre,2021_Dec_10_1314,N-Back (New Version 2021),2021.1.4,119.9055145
,,,,Conditions/Version_1/twoback(2)_v1.xlsx,New rule: Press 'space' when you see 2-back (i.e. the same letter as the one that appeared 2 letters ago.),q,None,,,,,,,,,0,7,7,7,0,0,0,0,,,,,,,,,,,,,,,,,,,,,,,,,,,,,,,,,,,,,,,,,,,,,,,,,,,,,,,,,,,981.5815133,None,984.5720227,None,space,35.7839054,984.5720227,None,981.5815133,None,1.196,1021.575191,None,None,1,1021.575191,None,,P021,fencog,1,Pre,2021_Dec_10_1314,N-Back (New Version 2021),2021.1.4,119.9055145
,,,,Conditions/Version_1/twoback(2)_v1.xlsx,New rule: Press 'space' when you see 2-back (i.e. the same letter as the one that appeared 2 letters ago.),r,None,,,,,,,,,0,7,7,7,0,1,1,1,,,,,,,,,,,,,,,,,,,,,,,,,,,,,,,,,,,,,,,,,,,,,,,,,,,,,,,,,,,,,,,,,,,,,1.8966,1025.47402,None,None,1,1025.47402,None,,P021,fencog,1,Pre,2021_Dec_10_1314,N-Back (New Version 2021),2021.1.4,119.9055145
,,,,Conditions/Version_1/twoback(2)_v1.xlsx,New rule: Press 'space' when you see 2-back (i.e. the same letter as the one that appeared 2 letters ago.),q,space,,,,,,,,,0,7,7,7,0,2,2,2,,,,,,,,,,,,,,,,,,,,,,,,,,,,,,,,,,,,,,,,,,,,,,,,,,,,,,,,,,,,,,,,,,,,,1.94,1029.4145,None,space,1,1029.4145,None,0.6053439,P021,fencog,1,Pre,2021_Dec_10_1314,N-Back (New Version 2021),2021.1.4,119.9055145
,,,,Conditions/Version_1/twoback(2)_v1.xlsx,New rule: Press 'space' when you see 2-back (i.e. the same letter as the one that appeared 2 letters ago.),P,None,,,,,,,,,0,7,7,7,0,3,3,3,,,,,,,,,,,,,,,,,,,,,,,,,,,,,,,,,,,,,,,,,,,,,,,,,,,,,,,,,,,,,,,,,,,,,1.7292,1033.146833,None,None,1,1033.146833,None,,P021,fencog,1,Pre,2021_Dec_10_1314,N-Back (New Version 2021),2021.1.4,119.9055145
,,,,Conditions/Version_1/twoback(2)_v1.xlsx,New rule: Press 'space' when you see 2-back (i.e. the same letter as the one that appeared 2 letters ago.),p,None,,,,,,,,,0,7,7,7,0,4,4,4,,,,,,,,,,,,,,,,,,,,,,,,,,,,,,,,,,,,,,,,,,,,,,,,,,,,,,,,,,,,,,,,,,,,,1.785,1036.943879,None,None,1,1036.943879,None,,P021,fencog,1,Pre,2021_Dec_10_1314,N-Back (New Version 2021),2021.1.4,119.9055145
,,,,Conditions/Version_1/twoback(2)_v1.xlsx,New rule: Press 'space' when you see 2-back (i.e. the same letter as the one that appeared 2 letters ago.),H,None,,,,,,,,,0,7,7,7,0,5,5,5,,,,,,,,,,,,,,,,,,,,,,,,,,,,,,,,,,,,,,,,,,,,,,,,,,,,,,,,,,,,,,,,,,,,,1.8098,1040.761096,None,None,1,1040.761096,None,,P021,fencog,1,Pre,2021_Dec_10_1314,N-Back (New Version 2021),2021.1.4,119.9055145
,,,,Conditions/Version_1/twoback(2)_v1.xlsx,New rule: Press 'space' when you see 2-back (i.e. the same letter as the one that appeared 2 letters ago.),g,None,,,,,,,,,0,7,7,7,0,6,6,6,,,,,,,,,,,,,,,,,,,,,,,,,,,,,,,,,,,,,,,,,,,,,,,,,,,,,,,,,,,,,,,,,,,,,1.6238,1044.385089,None,None,1,1044.385089,None,,P021,fencog,1,Pre,2021_Dec_10_1314,N-Back (New Version 2021),2021.1.4,119.9055145
,,,,Conditions/Version_1/twoback(2)_v1.xlsx,New rule: Press 'space' when you see 2-back (i.e. the same letter as the one that appeared 2 letters ago.),j,None,,,,,,,,,0,7,7,7,0,7,7,7,,,,,,,,,,,,,,,,,,,,,,,,,,,,,,,,,,,,,,,,,,,,,,,,,,,,,,,,,,,,,,,,,,,,,1.7788,1048.167291,None,None,1,1048.167291,None,,P021,fencog,1,Pre,2021_Dec_10_1314,N-Back (New Version 2021),2021.1.4,119.9055145
,,,,Conditions/Version_1/twoback(2)_v1.xlsx,New rule: Press 'space' when you see 2-back (i.e. the same letter as the one that appeared 2 letters ago.),g,space,,,,,,,,,0,7,7,7,0,8,8,8,,,,,,,,,,,,,,,,,,,,,,,,,,,,,,,,,,,,,,,,,,,,,,,,,,,,,,,,,,,,,,,,,,,,,1.7168,1051.882842,None,space,1,1051.882842,None,0.8569689,P021,fencog,1,Pre,2021_Dec_10_1314,N-Back (New Version 2021),2021.1.4,119.9055145
,,,,Conditions/Version_1/twoback(2)_v1.xlsx,New rule: Press 'space' when you see 2-back (i.e. the same letter as the one that appeared 2 letters ago.),G,None,,,,,,,,,0,7,7,7,0,9,9,9,,,,,,,,,,,,,,,,,,,,,,,,,,,,,,,,,,,,,,,,,,,,,,,,,,,,,,,,,,,,,,,,,,,,,1.3758,1055.265189,None,None,1,1055.265189,None,,P021,fencog,1,Pre,2021_Dec_10_1314,N-Back (New Version 2021),2021.1.4,119.9055145
,,,,Conditions/Version_1/twoback(2)_v1.xlsx,New rule: Press 'space' when you see 2-back (i.e. the same letter as the one that appeared 2 letters ago.),,,,,,,,,,,0,7,7,7,,,,,,,,,,,,,,,,,,,,,,,,,,,,,,,,,,,,,,,,,,,,,,,,,,,,,,,,,,,,,,,,,,,,,,,,,,,,,,,,,P021,fencog,1,Pre,2021_Dec_10_1314,N-Back (New Version 2021),2021.1.4,119.9055145
,,,,Conditions/Version_1/threeback(3)_v1.xlsx,New rule: Press 'space' when you see 3-back (i.e. the same letter as the one that appeared 3 letters ago.),w,None,,,,,,,,,0,8,8,8,0,0,0,0,,,,,,,,,,,,,,,,,,,,,,,,,,,,,,,,,,,,,,,,,,,,,,,,,,,,,,,,,,,1057.286059,None,1060.273682,None,space,6.4180863,1060.273682,None,1057.286059,None,1.8098,1068.527872,None,None,1,1068.527872,None,,P021,fencog,1,Pre,2021_Dec_10_1314,N-Back (New Version 2021),2021.1.4,119.9055145
,,,,Conditions/Version_1/threeback(3)_v1.xlsx,New rule: Press 'space' when you see 3-back (i.e. the same letter as the one that appeared 3 letters ago.),p,None,,,,,,,,,0,8,8,8,0,1,1,1,,,,,,,,,,,,,,,,,,,,,,,,,,,,,,,,,,,,,,,,,,,,,,,,,,,,,,,,,,,,,,,,,,,,,1.754,1072.28527,None,None,1,1072.28527,None,,P021,fencog,1,Pre,2021_Dec_10_1314,N-Back (New Version 2021),2021.1.4,119.9055145
,,,,Conditions/Version_1/threeback(3)_v1.xlsx,New rule: Press 'space' when you see 3-back (i.e. the same letter as the one that appeared 3 letters ago.),P,None,,,,,,,,,0,8,8,8,0,2,2,2,,,,,,,,,,,,,,,,,,,,,,,,,,,,,,,,,,,,,,,,,,,,,,,,,,,,,,,,,,,,,,,,,,,,,1.2456,1075.537218,None,None,1,1075.537218,None,,P021,fencog,1,Pre,2021_Dec_10_1314,N-Back (New Version 2021),2021.1.4,119.9055145
,,,,Conditions/Version_1/threeback(3)_v1.xlsx,New rule: Press 'space' when you see 3-back (i.e. the same letter as the one that appeared 3 letters ago.),i,None,,,,,,,,,0,8,8,8,0,3,3,3,,,,,,,,,,,,,,,,,,,,,,,,,,,,,,,,,,,,,,,,,,,,,,,,,,,,,,,,,,,,,,,,,,,,,1.0534,1078.600633,None,None,1,1078.600633,None,,P021,fencog,1,Pre,2021_Dec_10_1314,N-Back (New Version 2021),2021.1.4,119.9055145
,,,,Conditions/Version_1/threeback(3)_v1.xlsx,New rule: Press 'space' when you see 3-back (i.e. the same letter as the one that appeared 3 letters ago.),f,None,,,,,,,,,0,8,8,8,0,4,4,4,,,,,,,,,,,,,,,,,,,,,,,,,,,,,,,,,,,,,,,,,,,,,,,,,,,,,,,,,,,,,,,,,,,,,1.2146,1081.823979,None,None,1,1081.823979,None,,P021,fencog,1,Pre,2021_Dec_10_1314,N-Back (New Version 2021),2021.1.4,119.9055145
,,,,Conditions/Version_1/threeback(3)_v1.xlsx,New rule: Press 'space' when you see 3-back (i.e. the same letter as the one that appeared 3 letters ago.),o,None,,,,,,,,,0,8,8,8,0,5,5,5,,,,,,,,,,,,,,,,,,,,,,,,,,,,,,,,,,,,,,,,,,,,,,,,,,,,,,,,,,,,,,,,,,,,,1.8532,1085.681101,None,None,1,1085.681101,None,,P021,fencog,1,Pre,2021_Dec_10_1314,N-Back (New Version 2021),2021.1.4,119.9055145
,,,,Conditions/Version_1/threeback(3)_v1.xlsx,New rule: Press 'space' when you see 3-back (i.e. the same letter as the one that appeared 3 letters ago.),w,None,,,,,,,,,0,8,8,8,0,6,6,6,,,,,,,,,,,,,,,,,,,,,,,,,,,,,,,,,,,,,,,,,,,,,,,,,,,,,,,,,,,,,,,,,,,,,1.6982,1089.380776,None,None,1,1089.380776,None,,P021,fencog,1,Pre,2021_Dec_10_1314,N-Back (New Version 2021),2021.1.4,119.9055145
,,,,Conditions/Version_1/threeback(3)_v1.xlsx,New rule: Press 'space' when you see 3-back (i.e. the same letter as the one that appeared 3 letters ago.),F,space,,,,,,,,,0,8,8,8,0,7,7,7,,,,,,,,,,,,,,,,,,,,,,,,,,,,,,,,,,,,,,,,,,,,,,,,,,,,,,,,,,,,,,,,,,,,,1.9648,1093.35385,None,None,0,1093.35385,None,,P021,fencog,1,Pre,2021_Dec_10_1314,N-Back (New Version 2021),2021.1.4,119.9055145
,,,,Conditions/Version_1/threeback(3)_v1.xlsx,New rule: Press 'space' when you see 3-back (i.e. the same letter as the one that appeared 3 letters ago.),p,None,,,,,,,,,0,8,8,8,0,8,8,8,,,,,,,,,,,,,,,,,,,,,,,,,,,,,,,,,,,,,,,,,,,,,,,,,,,,,,,,,,,,,,,,,,,,,1.3076,1096.669416,None,None,1,1096.669416,None,,P021,fencog,1,Pre,2021_Dec_10_1314,N-Back (New Version 2021),2021.1.4,119.9055145
,,,,Conditions/Version_1/threeback(3)_v1.xlsx,New rule: Press 'space' when you see 3-back (i.e. the same letter as the one that appeared 3 letters ago.),W,space,,,,,,,,,0,8,8,8,0,9,9,9,,,,,,,,,,,,,,,,,,,,,,,,,,,,,,,,,,,,,,,,,,,,,,,,,,,,,,,,,,,,,,,,,,,,,1.382,1100.051965,None,space,1,1100.051965,None,0.8559996,P021,fencog,1,Pre,2021_Dec_10_1314,N-Back (New Version 2021),2021.1.4,119.9055145
,,,,Conditions/Version_1/threeback(3)_v1.xlsx,New rule: Press 'space' when you see 3-back (i.e. the same letter as the one that appeared 3 letters ago.),,,,,,,,,,,0,8,8,8,,,,,,,,,,,,,,,,,,,,,,,,,,,,,,,,,,,,,,,,,,,,,,,,,,,,,,,,,,,,,,,,,,,,,,,,,,,,,,,,,P021,fencog,1,Pre,2021_Dec_10_1314,N-Back (New Version 2021),2021.1.4,119.9055145
,,,,Conditions/Version_1/zeroback(3)_v1.xlsx,New rule: Press 'space' when you see the letter 'x' or 'X'.,X,space,,,,,,,,,0,9,9,9,0,0,0,0,,,,,,,,,,,,,,,,,,,,,,,,,,,,,,,,,,,,,,,,,,,,,,,,,,,,,,,,,,,1102.069719,None,1105.060757,None,space,0.8869378,1105.060757,None,1102.069719,None,1.537,1107.507901,None,space,1,1107.507901,None,0.4077625,P021,fencog,1,Pre,2021_Dec_10_1314,N-Back (New Version 2021),2021.1.4,119.9055145
,,,,Conditions/Version_1/zeroback(3)_v1.xlsx,New rule: Press 'space' when you see the letter 'x' or 'X'.,B,None,,,,,,,,,0,9,9,9,0,1,1,1,,,,,,,,,,,,,,,,,,,,,,,,,,,,,,,,,,,,,,,,,,,,,,,,,,,,,,,,,,,,,,,,,,,,,1.9338,1111.448391,None,None,1,1111.448391,None,,P021,fencog,1,Pre,2021_Dec_10_1314,N-Back (New Version 2021),2021.1.4,119.9055145
,,,,Conditions/Version_1/zeroback(3)_v1.xlsx,New rule: Press 'space' when you see the letter 'x' or 'X'.,m,None,,,,,,,,,0,9,9,9,0,2,2,2,,,,,,,,,,,,,,,,,,,,,,,,,,,,,,,,,,,,,,,,,,,,,,,,,,,,,,,,,,,,,,,,,,,,,1.0658,1114.52255,None,None,1,1114.52255,None,,P021,fencog,1,Pre,2021_Dec_10_1314,N-Back (New Version 2021),2021.1.4,119.9055145
,,,,Conditions/Version_1/zeroback(3)_v1.xlsx,New rule: Press 'space' when you see the letter 'x' or 'X'.,m,None,,,,,,,,,0,9,9,9,0,3,3,3,,,,,,,,,,,,,,,,,,,,,,,,,,,,,,,,,,,,,,,,,,,,,,,,,,,,,,,,,,,,,,,,,,,,,1.3386,1117.863458,None,None,1,1117.863458,None,,P021,fencog,1,Pre,2021_Dec_10_1314,N-Back (New Version 2021),2021.1.4,119.9055145
,,,,Conditions/Version_1/zeroback(3)_v1.xlsx,New rule: Press 'space' when you see the letter 'x' or 'X'.,o,None,,,,,,,,,0,9,9,9,0,4,4,4,,,,,,,,,,,,,,,,,,,,,,,,,,,,,,,,,,,,,,,,,,,,,,,,,,,,,,,,,,,,,,,,,,,,,1.7664,1121.629008,None,None,1,1121.629008,None,,P021,fencog,1,Pre,2021_Dec_10_1314,N-Back (New Version 2021),2021.1.4,119.9055145
,,,,Conditions/Version_1/zeroback(3)_v1.xlsx,New rule: Press 'space' when you see the letter 'x' or 'X'.,p,None,,,,,,,,,0,9,9,9,0,5,5,5,,,,,,,,,,,,,,,,,,,,,,,,,,,,,,,,,,,,,,,,,,,,,,,,,,,,,,,,,,,,,,,,,,,,,1.3758,1125.011089,None,None,1,1125.011089,None,,P021,fencog,1,Pre,2021_Dec_10_1314,N-Back (New Version 2021),2021.1.4,119.9055145
,,,,Conditions/Version_1/zeroback(3)_v1.xlsx,New rule: Press 'space' when you see the letter 'x' or 'X'.,G,None,,,,,,,,,0,9,9,9,0,6,6,6,,,,,,,,,,,,,,,,,,,,,,,,,,,,,,,,,,,,,,,,,,,,,,,,,,,,,,,,,,,,,,,,,,,,,1.289,1128.301766,None,None,1,1128.301766,None,,P021,fencog,1,Pre,2021_Dec_10_1314,N-Back (New Version 2021),2021.1.4,119.9055145
,,,,Conditions/Version_1/zeroback(3)_v1.xlsx,New rule: Press 'space' when you see the letter 'x' or 'X'.,X,space,,,,,,,,,0,9,9,9,0,7,7,7,,,,,,,,,,,,,,,,,,,,,,,,,,,,,,,,,,,,,,,,,,,,,,,,,,,,,,,,,,,,,,,,,,,,,1.9772,1132.283932,None,space,1,1132.283932,None,0.351606,P021,fencog,1,Pre,2021_Dec_10_1314,N-Back (New Version 2021),2021.1.4,119.9055145
,,,,Conditions/Version_1/zeroback(3)_v1.xlsx,New rule: Press 'space' when you see the letter 'x' or 'X'.,p,None,,,,,,,,,0,9,9,9,0,8,8,8,,,,,,,,,,,,,,,,,,,,,,,,,,,,,,,,,,,,,,,,,,,,,,,,,,,,,,,,,,,,,,,,,,,,,1.6982,1135.982849,None,None,1,1135.982849,None,,P021,fencog,1,Pre,2021_Dec_10_1314,N-Back (New Version 2021),2021.1.4,119.9055145
,,,,Conditions/Version_1/zeroback(3)_v1.xlsx,New rule: Press 'space' when you see the letter 'x' or 'X'.,x,space,,,,,,,,,0,9,9,9,0,9,9,9,,,,,,,,,,,,,,,,,,,,,,,,,,,,,,,,,,,,,,,,,,,,,,,,,,,,,,,,,,,,,,,,,,,,,1.94,1139.92336,None,space,1,1139.92336,None,0.3681564,P021,fencog,1,Pre,2021_Dec_10_1314,N-Back (New Version 2021),2021.1.4,119.9055145
,,,,Conditions/Version_1/zeroback(3)_v1.xlsx,New rule: Press 'space' when you see the letter 'x' or 'X'.,,,,,,,,,,,0,9,9,9,,,,,,,,,,,,,,,,,,,,,,,,,,,,,,,,,,,,,,,,,,,,,,,,,,,,,,,,,,,,,,,,,,,,,,,,,,,,,,,,,P021,fencog,1,Pre,2021_Dec_10_1314,N-Back (New Version 2021),2021.1.4,119.9055145
,,,,Conditions/Version_1/twoback(3)_v1.xlsx,New rule: Press 'space' when you see 2-back (i.e. the same letter as the one that appeared 2 letters ago.),e,None,,,,,,,,,0,10,10,10,0,0,0,0,,,,,,,,,,,,,,,,,,,,,,,,,,,,,,,,,,,,,,,,,,,,,,,,,,,,,,,,,,,1141.941585,None,1144.923059,None,space,15.3845082,1144.923059,None,1141.941585,None,1.5122,1161.841801,None,None,1,1161.841801,None,,P021,fencog,1,Pre,2021_Dec_10_1314,N-Back (New Version 2021),2021.1.4,119.9055145
,,,,Conditions/Version_1/twoback(3)_v1.xlsx,New rule: Press 'space' when you see 2-back (i.e. the same letter as the one that appeared 2 letters ago.),o,None,,,,,,,,,0,10,10,10,0,1,1,1,,,,,,,,,,,,,,,,,,,,,,,,,,,,,,,,,,,,,,,,,,,,,,,,,,,,,,,,,,,,,,,,,,,,,1.94,1165.782312,None,None,1,1165.782312,None,,P021,fencog,1,Pre,2021_Dec_10_1314,N-Back (New Version 2021),2021.1.4,119.9055145
,,,,Conditions/Version_1/twoback(3)_v1.xlsx,New rule: Press 'space' when you see 2-back (i.e. the same letter as the one that appeared 2 letters ago.),P,None,,,,,,,,,0,10,10,10,0,2,2,2,,,,,,,,,,,,,,,,,,,,,,,,,,,,,,,,,,,,,,,,,,,,,,,,,,,,,,,,,,,,,,,,,,,,,1.5556,1169.33954,None,None,1,1169.33954,None,,P021,fencog,1,Pre,2021_Dec_10_1314,N-Back (New Version 2021),2021.1.4,119.9055145
,,,,Conditions/Version_1/twoback(3)_v1.xlsx,New rule: Press 'space' when you see 2-back (i.e. the same letter as the one that appeared 2 letters ago.),z,None,,,,,,,,,0,10,10,10,0,3,3,3,,,,,,,,,,,,,,,,,,,,,,,,,,,,,,,,,,,,,,,,,,,,,,,,,,,,,,,,,,,,,,,,,,,,,1.3944,1172.740368,None,None,1,1172.740368,None,,P021,fencog,1,Pre,2021_Dec_10_1314,N-Back (New Version 2021),2021.1.4,119.9055145
,,,,Conditions/Version_1/twoback(3)_v1.xlsx,New rule: Press 'space' when you see 2-back (i.e. the same letter as the one that appeared 2 letters ago.),X,None,,,,,,,,,0,10,10,10,0,4,4,4,,,,,,,,,,,,,,,,,,,,,,,,,,,,,,,,,,,,,,,,,,,,,,,,,,,,,,,,,,,,,,,,,,,,,1.9524,1176.704012,None,None,1,1176.704012,None,,P021,fencog,1,Pre,2021_Dec_10_1314,N-Back (New Version 2021),2021.1.4,119.9055145
,,,,Conditions/Version_1/twoback(3)_v1.xlsx,New rule: Press 'space' when you see 2-back (i.e. the same letter as the one that appeared 2 letters ago.),z,space,,,,,,,,,0,10,10,10,0,5,5,5,,,,,,,,,,,,,,,,,,,,,,,,,,,,,,,,,,,,,,,,,,,,,,,,,,,,,,,,,,,,,,,,,,,,,1.134,1179.844845,None,space,1,1179.844845,None,0.5905292,P021,fencog,1,Pre,2021_Dec_10_1314,N-Back (New Version 2021),2021.1.4,119.9055145
,,,,Conditions/Version_1/twoback(3)_v1.xlsx,New rule: Press 'space' when you see 2-back (i.e. the same letter as the one that appeared 2 letters ago.),x,space,,,,,,,,,0,10,10,10,0,6,6,6,,,,,,,,,,,,,,,,,,,,,,,,,,,,,,,,,,,,,,,,,,,,,,,,,,,,,,,,,,,,,,,,,,,,,1.1278,1182.977209,None,space,1,1182.977209,None,0.442193,P021,fencog,1,Pre,2021_Dec_10_1314,N-Back (New Version 2021),2021.1.4,119.9055145
,,,,Conditions/Version_1/twoback(3)_v1.xlsx,New rule: Press 'space' when you see 2-back (i.e. the same letter as the one that appeared 2 letters ago.),c,None,,,,,,,,,0,10,10,10,0,7,7,7,,,,,,,,,,,,,,,,,,,,,,,,,,,,,,,,,,,,,,,,,,,,,,,,,,,,,,,,,,,,,,,,,,,,,1.0472,1186.026288,None,None,1,1186.026288,None,,P021,fencog,1,Pre,2021_Dec_10_1314,N-Back (New Version 2021),2021.1.4,119.9055145
,,,,Conditions/Version_1/twoback(3)_v1.xlsx,New rule: Press 'space' when you see 2-back (i.e. the same letter as the one that appeared 2 letters ago.),i,None,,,,,,,,,0,10,10,10,0,8,8,8,,,,,,,,,,,,,,,,,,,,,,,,,,,,,,,,,,,,,,,,,,,,,,,,,,,,,,,,,,,,,,,,,,,,,1.289,1189.316925,None,None,1,1189.316925,None,,P021,fencog,1,Pre,2021_Dec_10_1314,N-Back (New Version 2021),2021.1.4,119.9055145
,,,,Conditions/Version_1/twoback(3)_v1.xlsx,New rule: Press 'space' when you see 2-back (i.e. the same letter as the one that appeared 2 letters ago.),C,space,,,,,,,,,0,10,10,10,0,9,9,9,,,,,,,,,,,,,,,,,,,,,,,,,,,,,,,,,,,,,,,,,,,,,,,,,,,,,,,,,,,,,,,,,,,,,1.6362,1192.957637,None,space,1,1192.957637,None,0.4057665,P021,fencog,1,Pre,2021_Dec_10_1314,N-Back (New Version 2021),2021.1.4,119.9055145
,,,,Conditions/Version_1/twoback(3)_v1.xlsx,New rule: Press 'space' when you see 2-back (i.e. the same letter as the one that appeared 2 letters ago.),,,,,,,,,,,0,10,10,10,,,,,,,,,,,,,,,,,,,,,,,,,,,,,,,,,,,,,,,,,,,,,,,,,,,,,,,,,,,,,,,,,,,,,,,,,,,,,,,,,P021,fencog,1,Pre,2021_Dec_10_1314,N-Back (New Version 2021),2021.1.4,119.9055145
,,,,Conditions/Version_1/oneback(3)_v1.xlsx,New rule: Press 'space' when you see 1-back (i.e. the same letter as the one that appeared 1 letter ago.),o,None,,,,,,,,,0,11,11,11,0,0,0,0,,,,,,,,,,,,,,,,,,,,,,,,,,,,,,,,,,,,,,,,,,,,,,,,,,,,,,,,,,,1194.975465,None,1197.957521,None,space,0.0299848,1197.957521,None,1194.975465,None,1.0844,1199.097317,None,None,1,1199.097317,None,,P021,fencog,1,Pre,2021_Dec_10_1314,N-Back (New Version 2021),2021.1.4,119.9055145
,,,,Conditions/Version_1/oneback(3)_v1.xlsx,New rule: Press 'space' when you see 1-back (i.e. the same letter as the one that appeared 1 letter ago.),O,space,,,,,,,,,0,11,11,11,0,1,1,1,,,,,,,,,,,,,,,,,,,,,,,,,,,,,,,,,,,,,,,,,,,,,,,,,,,,,,,,,,,,,,,,,,,,,1.971,1203.114104,None,space,1,1203.114104,None,0.3451952,P021,fencog,1,Pre,2021_Dec_10_1314,N-Back (New Version 2021),2021.1.4,119.9055145
,,,,Conditions/Version_1/oneback(3)_v1.xlsx,New rule: Press 'space' when you see 1-back (i.e. the same letter as the one that appeared 1 letter ago.),h,None,,,,,,,,,0,11,11,11,0,2,2,2,,,,,,,,,,,,,,,,,,,,,,,,,,,,,,,,,,,,,,,,,,,,,,,,,,,,,,,,,,,,,,,,,,,,,1.4006,1206.487396,None,None,1,1206.487396,None,,P021,fencog,1,Pre,2021_Dec_10_1314,N-Back (New Version 2021),2021.1.4,119.9055145
,,,,Conditions/Version_1/oneback(3)_v1.xlsx,New rule: Press 'space' when you see 1-back (i.e. the same letter as the one that appeared 1 letter ago.),g,None,,,,,,,,,0,11,11,11,0,3,3,3,,,,,,,,,,,,,,,,,,,,,,,,,,,,,,,,,,,,,,,,,,,,,,,,,,,,,,,,,,,,,,,,,,,,,1.4068,1209.902858,None,None,1,1209.902858,None,,P021,fencog,1,Pre,2021_Dec_10_1314,N-Back (New Version 2021),2021.1.4,119.9055145
,,,,Conditions/Version_1/oneback(3)_v1.xlsx,New rule: Press 'space' when you see 1-back (i.e. the same letter as the one that appeared 1 letter ago.),n,None,,,,,,,,,0,11,11,11,0,4,4,4,,,,,,,,,,,,,,,,,,,,,,,,,,,,,,,,,,,,,,,,,,,,,,,,,,,,,,,,,,,,,,,,,,,,,1.4688,1213.376476,None,None,1,1213.376476,None,,P021,fencog,1,Pre,2021_Dec_10_1314,N-Back (New Version 2021),2021.1.4,119.9055145
,,,,Conditions/Version_1/oneback(3)_v1.xlsx,New rule: Press 'space' when you see 1-back (i.e. the same letter as the one that appeared 1 letter ago.),z,None,,,,,,,,,0,11,11,11,0,5,5,5,,,,,,,,,,,,,,,,,,,,,,,,,,,,,,,,,,,,,,,,,,,,,,,,,,,,,,,,,,,,,,,,,,,,,1.6362,1217.017119,None,None,1,1217.017119,None,,P021,fencog,1,Pre,2021_Dec_10_1314,N-Back (New Version 2021),2021.1.4,119.9055145
,,,,Conditions/Version_1/oneback(3)_v1.xlsx,New rule: Press 'space' when you see 1-back (i.e. the same letter as the one that appeared 1 letter ago.),X,None,,,,,,,,,0,11,11,11,0,6,6,6,,,,,,,,,,,,,,,,,,,,,,,,,,,,,,,,,,,,,,,,,,,,,,,,,,,,,,,,,,,,,,,,,,,,,1.7106,1220.734871,None,None,1,1220.734871,None,,P021,fencog,1,Pre,2021_Dec_10_1314,N-Back (New Version 2021),2021.1.4,119.9055145
,,,,Conditions/Version_1/oneback(3)_v1.xlsx,New rule: Press 'space' when you see 1-back (i.e. the same letter as the one that appeared 1 letter ago.),r,None,,,,,,,,,0,11,11,11,0,7,7,7,,,,,,,,,,,,,,,,,,,,,,,,,,,,,,,,,,,,,,,,,,,,,,,,,,,,,,,,,,,,,,,,,,,,,1.2766,1224.023459,None,None,1,1224.023459,None,,P021,fencog,1,Pre,2021_Dec_10_1314,N-Back (New Version 2021),2021.1.4,119.9055145
,,,,Conditions/Version_1/oneback(3)_v1.xlsx,New rule: Press 'space' when you see 1-back (i.e. the same letter as the one that appeared 1 letter ago.),r,space,,,,,,,,,0,11,11,11,0,8,8,8,,,,,,,,,,,,,,,,,,,,,,,,,,,,,,,,,,,,,,,,,,,,,,,,,,,,,,,,,,,,,,,,,,,,,1.1836,1227.205718,None,space,1,1227.205718,None,0.4696137,P021,fencog,1,Pre,2021_Dec_10_1314,N-Back (New Version 2021),2021.1.4,119.9055145
,,,,Conditions/Version_1/oneback(3)_v1.xlsx,New rule: Press 'space' when you see 1-back (i.e. the same letter as the one that appeared 1 letter ago.),P,None,,,,,,,,,0,11,11,11,0,9,9,9,,,,,,,,,,,,,,,,,,,,,,,,,,,,,,,,,,,,,,,,,,,,,,,,,,,,,,,,,,,,,,,,,,,,,1.9896,1231.211614,None,None,1,1231.211614,None,,P021,fencog,1,Pre,2021_Dec_10_1314,N-Back (New Version 2021),2021.1.4,119.9055145
,,,,Conditions/Version_1/oneback(3)_v1.xlsx,New rule: Press 'space' when you see 1-back (i.e. the same letter as the one that appeared 1 letter ago.),,,,,,,,,,,0,11,11,11,,,,,,,,,,,,,,,,,,,,,,,,,,,,,,,,,,,,,,,,,,,,,,,,,,,,,,,,,,,,,,,,,,,,,,,,,,,,,,,,,P021,fencog,1,Pre,2021_Dec_10_1314,N-Back (New Version 2021),2021.1.4,119.9055145
,,,,Conditions/Version_1/twoback(4)_v1.xlsx,New rule: Press 'space' when you see 2-back (i.e. the same letter as the one that appeared 2 letters ago.),r,None,,,,,,,,,0,12,12,12,0,0,0,0,,,,,,,,,,,,,,,,,,,,,,,,,,,,,,,,,,,,,,,,,,,,,,,,,,,,,,,,,,,1233.235173,None,1236.220785,None,space,31.0383908,1236.220785,None,1233.235173,None,1.3634,1268.651672,None,None,1,1268.651672,None,,P021,fencog,1,Pre,2021_Dec_10_1314,N-Back (New Version 2021),2021.1.4,119.9055145
,,,,Conditions/Version_1/twoback(4)_v1.xlsx,New rule: Press 'space' when you see 2-back (i.e. the same letter as the one that appeared 2 letters ago.),T,None,,,,,,,,,0,12,12,12,0,1,1,1,,,,,,,,,,,,,,,,,,,,,,,,,,,,,,,,,,,,,,,,,,,,,,,,,,,,,,,,,,,,,,,,,,,,,1.6052,1272.258923,None,None,1,1272.258923,None,,P021,fencog,1,Pre,2021_Dec_10_1314,N-Back (New Version 2021),2021.1.4,119.9055145
,,,,Conditions/Version_1/twoback(4)_v1.xlsx,New rule: Press 'space' when you see 2-back (i.e. the same letter as the one that appeared 2 letters ago.),o,None,,,,,,,,,0,12,12,12,0,2,2,2,,,,,,,,,,,,,,,,,,,,,,,,,,,,,,,,,,,,,,,,,,,,,,,,,,,,,,,,,,,,,,,,,,,,,1.4874,1275.749725,None,None,1,1275.749725,None,,P021,fencog,1,Pre,2021_Dec_10_1314,N-Back (New Version 2021),2021.1.4,119.9055145
,,,,Conditions/Version_1/twoback(4)_v1.xlsx,New rule: Press 'space' when you see 2-back (i.e. the same letter as the one that appeared 2 letters ago.),p,None,,,,,,,,,0,12,12,12,0,3,3,3,,,,,,,,,,,,,,,,,,,,,,,,,,,,,,,,,,,,,,,,,,,,,,,,,,,,,,,,,,,,,,,,,,,,,1.01,1278.7658,None,None,1,1278.7658,None,,P021,fencog,1,Pre,2021_Dec_10_1314,N-Back (New Version 2021),2021.1.4,119.9055145
,,,,Conditions/Version_1/twoback(4)_v1.xlsx,New rule: Press 'space' when you see 2-back (i.e. the same letter as the one that appeared 2 letters ago.),p,None,,,,,,,,,0,12,12,12,0,4,4,4,,,,,,,,,,,,,,,,,,,,,,,,,,,,,,,,,,,,,,,,,,,,,,,,,,,,,,,,,,,,,,,,,,,,,1.754,1282.530823,None,None,1,1282.530823,None,,P021,fencog,1,Pre,2021_Dec_10_1314,N-Back (New Version 2021),2021.1.4,119.9055145
,,,,Conditions/Version_1/twoback(4)_v1.xlsx,New rule: Press 'space' when you see 2-back (i.e. the same letter as the one that appeared 2 letters ago.),y,None,,,,,,,,,0,12,12,12,0,5,5,5,,,,,,,,,,,,,,,,,,,,,,,,,,,,,,,,,,,,,,,,,,,,,,,,,,,,,,,,,,,,,,,,,,,,,1.5866,1286.121508,None,None,1,1286.121508,None,,P021,fencog,1,Pre,2021_Dec_10_1314,N-Back (New Version 2021),2021.1.4,119.9055145
,,,,Conditions/Version_1/twoback(4)_v1.xlsx,New rule: Press 'space' when you see 2-back (i.e. the same letter as the one that appeared 2 letters ago.),P,space,,,,,,,,,0,12,12,12,0,6,6,6,,,,,,,,,,,,,,,,,,,,,,,,,,,,,,,,,,,,,,,,,,,,,,,,,,,,,,,,,,,,,,,,,,,,,1.9834,1290.103665,None,space,1,1290.103665,None,1.2514886,P021,fencog,1,Pre,2021_Dec_10_1314,N-Back (New Version 2021),2021.1.4,119.9055145
,,,,Conditions/Version_1/twoback(4)_v1.xlsx,New rule: Press 'space' when you see 2-back (i.e. the same letter as the one that appeared 2 letters ago.),y,None,,,,,,,,,0,12,12,12,0,7,7,7,,,,,,,,,,,,,,,,,,,,,,,,,,,,,,,,,,,,,,,,,,,,,,,,,,,,,,,,,,,,,,,,,,,,,1.5618,1293.669437,None,space,0,1293.669437,None,1.1337886,P021,fencog,1,Pre,2021_Dec_10_1314,N-Back (New Version 2021),2021.1.4,119.9055145
,,,,Conditions/Version_1/twoback(4)_v1.xlsx,New rule: Press 'space' when you see 2-back (i.e. the same letter as the one that appeared 2 letters ago.),y,space,,,,,,,,,0,12,12,12,0,8,8,8,,,,,,,,,,,,,,,,,,,,,,,,,,,,,,,,,,,,,,,,,,,,,,,,,,,,,,,,,,,,,,,,,,,,,1.4192,1297.093243,None,None,0,1297.093243,None,,P021,fencog,1,Pre,2021_Dec_10_1314,N-Back (New Version 2021),2021.1.4,119.9055145
,,,,Conditions/Version_1/twoback(4)_v1.xlsx,New rule: Press 'space' when you see 2-back (i.e. the same letter as the one that appeared 2 letters ago.),,,,,,,,,,,0,12,12,12,,,,,,,,,,,,,,,,,,,,,,,,,,,,,,,,,,,,,,,,,,,,,,,,,,,,,,,,,,,,,,,,,,,,,,,,,,,,,,,,,P021,fencog,1,Pre,2021_Dec_10_1314,N-Back (New Version 2021),2021.1.4,119.9055145
,,,,Conditions/Version_1/zeroback(4)_v1.xlsx,New rule: Press 'space' when you see the letter 'x' or 'X'.,o,None,,,,,,,,,0,13,13,13,0,0,0,0,,,,,,,,,,,,,,,,,,,,,,,,,,,,,,,,,,,,,,,,,,,,,,,,,,,,,,,,,,,1299.109512,None,1302.092605,None,space,2.4548534,1302.092605,None,1299.109512,None,1.3262,1305.898992,None,None,1,1305.898992,None,,P021,fencog,1,Pre,2021_Dec_10_1314,N-Back (New Version 2021),2021.1.4,119.9055145
,,,,Conditions/Version_1/zeroback(4)_v1.xlsx,New rule: Press 'space' when you see the letter 'x' or 'X'.,X,space,,,,,,,,,0,13,13,13,0,1,1,1,,,,,,,,,,,,,,,,,,,,,,,,,,,,,,,,,,,,,,,,,,,,,,,,,,,,,,,,,,,,,,,,,,,,,1.0286,1308.931386,None,space,1,1308.931386,None,0.4237257,P021,fencog,1,Pre,2021_Dec_10_1314,N-Back (New Version 2021),2021.1.4,119.9055145
,,,,Conditions/Version_1/zeroback(4)_v1.xlsx,New rule: Press 'space' when you see the letter 'x' or 'X'.,p,None,,,,,,,,,0,13,13,13,0,2,2,2,,,,,,,,,,,,,,,,,,,,,,,,,,,,,,,,,,,,,,,,,,,,,,,,,,,,,,,,,,,,,,,,,,,,,1.6114,1312.546989,None,None,1,1312.546989,None,,P021,fencog,1,Pre,2021_Dec_10_1314,N-Back (New Version 2021),2021.1.4,119.9055145
,,,,Conditions/Version_1/zeroback(4)_v1.xlsx,New rule: Press 'space' when you see the letter 'x' or 'X'.,m,None,,,,,,,,,0,13,13,13,0,3,3,3,,,,,,,,,,,,,,,,,,,,,,,,,,,,,,,,,,,,,,,,,,,,,,,,,,,,,,,,,,,,,,,,,,,,,1.5618,1316.112571,None,None,1,1316.112571,None,,P021,fencog,1,Pre,2021_Dec_10_1314,N-Back (New Version 2021),2021.1.4,119.9055145
,,,,Conditions/Version_1/zeroback(4)_v1.xlsx,New rule: Press 'space' when you see the letter 'x' or 'X'.,n,None,,,,,,,,,0,13,13,13,0,4,4,4,,,,,,,,,,,,,,,,,,,,,,,,,,,,,,,,,,,,,,,,,,,,,,,,,,,,,,,,,,,,,,,,,,,,,1.94,1320.053116,None,None,1,1320.053116,None,,P021,fencog,1,Pre,2021_Dec_10_1314,N-Back (New Version 2021),2021.1.4,119.9055145
,,,,Conditions/Version_1/zeroback(4)_v1.xlsx,New rule: Press 'space' when you see the letter 'x' or 'X'.,m,None,,,,,,,,,0,13,13,13,0,5,5,5,,,,,,,,,,,,,,,,,,,,,,,,,,,,,,,,,,,,,,,,,,,,,,,,,,,,,,,,,,,,,,,,,,,,,1.1836,1323.23553,None,None,1,1323.23553,None,,P021,fencog,1,Pre,2021_Dec_10_1314,N-Back (New Version 2021),2021.1.4,119.9055145
,,,,Conditions/Version_1/zeroback(4)_v1.xlsx,New rule: Press 'space' when you see the letter 'x' or 'X'.,C,None,,,,,,,,,0,13,13,13,0,6,6,6,,,,,,,,,,,,,,,,,,,,,,,,,,,,,,,,,,,,,,,,,,,,,,,,,,,,,,,,,,,,,,,,,,,,,1.7478,1326.98438,None,None,1,1326.98438,None,,P021,fencog,1,Pre,2021_Dec_10_1314,N-Back (New Version 2021),2021.1.4,119.9055145
,,,,Conditions/Version_1/zeroback(4)_v1.xlsx,New rule: Press 'space' when you see the letter 'x' or 'X'.,m,None,,,,,,,,,0,13,13,13,0,7,7,7,,,,,,,,,,,,,,,,,,,,,,,,,,,,,,,,,,,,,,,,,,,,,,,,,,,,,,,,,,,,,,,,,,,,,1.3758,1330.366619,None,None,1,1330.366619,None,,P021,fencog,1,Pre,2021_Dec_10_1314,N-Back (New Version 2021),2021.1.4,119.9055145
,,,,Conditions/Version_1/zeroback(4)_v1.xlsx,New rule: Press 'space' when you see the letter 'x' or 'X'.,p,None,,,,,,,,,0,13,13,13,0,8,8,8,,,,,,,,,,,,,,,,,,,,,,,,,,,,,,,,,,,,,,,,,,,,,,,,,,,,,,,,,,,,,,,,,,,,,1.0782,1333.449062,None,None,1,1333.449062,None,,P021,fencog,1,Pre,2021_Dec_10_1314,N-Back (New Version 2021),2021.1.4,119.9055145
,,,,Conditions/Version_1/zeroback(4)_v1.xlsx,New rule: Press 'space' when you see the letter 'x' or 'X'.,X,space,,,,,,,,,0,13,13,13,0,9,9,9,,,,,,,,,,,,,,,,,,,,,,,,,,,,,,,,,,,,,,,,,,,,,,,,,,,,,,,,,,,,,,,,,,,,,1.9276,1337.381264,None,space,1,1337.381264,None,0.3657786,P021,fencog,1,Pre,2021_Dec_10_1314,N-Back (New Version 2021),2021.1.4,119.9055145
,,,,Conditions/Version_1/zeroback(4)_v1.xlsx,New rule: Press 'space' when you see the letter 'x' or 'X'.,,,,,,,,,,,0,13,13,13,,,,,,,,,,,,,,,,,,,,,,,,,,,,,,,,,,,,,,,,,,,,,,,,,,,,,,,,,,,,,,,,,,,,,,,,,,,,,,,,,P021,fencog,1,Pre,2021_Dec_10_1314,N-Back (New Version 2021),2021.1.4,119.9055145
,,,,Conditions/Version_1/oneback(4)_v1.xlsx,New rule: Press 'space' when you see 1-back (i.e. the same letter as the one that appeared 1 letter ago.),w,None,,,,,,,,,0,14,14,14,0,0,0,0,,,,,,,,,,,,,,,,,,,,,,,,,,,,,,,,,,,,,,,,,,,,,,,,,,,,,,,,,,,1339.400291,None,1342.389652,None,space,2.013318,1342.389652,None,1339.400291,None,1.2952,1345.728727,None,None,1,1345.728727,None,,P021,fencog,1,Pre,2021_Dec_10_1314,N-Back (New Version 2021),2021.1.4,119.9055145
,,,,Conditions/Version_1/oneback(4)_v1.xlsx,New rule: Press 'space' when you see 1-back (i.e. the same letter as the one that appeared 1 letter ago.),q,None,,,,,,,,,0,14,14,14,0,1,1,1,,,,,,,,,,,,,,,,,,,,,,,,,,,,,,,,,,,,,,,,,,,,,,,,,,,,,,,,,,,,,,,,,,,,,1.3448,1349.077743,None,None,1,1349.077743,None,,P021,fencog,1,Pre,2021_Dec_10_1314,N-Back (New Version 2021),2021.1.4,119.9055145
,,,,Conditions/Version_1/oneback(4)_v1.xlsx,New rule: Press 'space' when you see 1-back (i.e. the same letter as the one that appeared 1 letter ago.),i,None,,,,,,,,,0,14,14,14,0,2,2,2,,,,,,,,,,,,,,,,,,,,,,,,,,,,,,,,,,,,,,,,,,,,,,,,,,,,,,,,,,,,,,,,,,,,,1.196,1352.27717,None,None,1,1352.27717,None,,P021,fencog,1,Pre,2021_Dec_10_1314,N-Back (New Version 2021),2021.1.4,119.9055145
,,,,Conditions/Version_1/oneback(4)_v1.xlsx,New rule: Press 'space' when you see 1-back (i.e. the same letter as the one that appeared 1 letter ago.),t,None,,,,,,,,,0,14,14,14,0,3,3,3,,,,,,,,,,,,,,,,,,,,,,,,,,,,,,,,,,,,,,,,,,,,,,,,,,,,,,,,,,,,,,,,,,,,,1.1216,1355.40086,None,None,1,1355.40086,None,,P021,fencog,1,Pre,2021_Dec_10_1314,N-Back (New Version 2021),2021.1.4,119.9055145
,,,,Conditions/Version_1/oneback(4)_v1.xlsx,New rule: Press 'space' when you see 1-back (i.e. the same letter as the one that appeared 1 letter ago.),v,None,,,,,,,,,0,14,14,14,0,4,4,4,,,,,,,,,,,,,,,,,,,,,,,,,,,,,,,,,,,,,,,,,,,,,,,,,,,,,,,,,,,,,,,,,,,,,1.6796,1359.083771,None,None,1,1359.083771,None,,P021,fencog,1,Pre,2021_Dec_10_1314,N-Back (New Version 2021),2021.1.4,119.9055145
,,,,Conditions/Version_1/oneback(4)_v1.xlsx,New rule: Press 'space' when you see 1-back (i.e. the same letter as the one that appeared 1 letter ago.),V,space,,,,,,,,,0,14,14,14,0,5,5,5,,,,,,,,,,,,,,,,,,,,,,,,,,,,,,,,,,,,,,,,,,,,,,,,,,,,,,,,,,,,,,,,,,,,,1.258,1362.341228,None,space,1,1362.341228,None,0.3818115,P021,fencog,1,Pre,2021_Dec_10_1314,N-Back (New Version 2021),2021.1.4,119.9055145
,,,,Conditions/Version_1/oneback(4)_v1.xlsx,New rule: Press 'space' when you see 1-back (i.e. the same letter as the one that appeared 1 letter ago.),v,space,,,,,,,,,0,14,14,14,0,6,6,6,,,,,,,,,,,,,,,,,,,,,,,,,,,,,,,,,,,,,,,,,,,,,,,,,,,,,,,,,,,,,,,,,,,,,1.9958,1366.34757,None,space,1,1366.34757,None,0.4154337,P021,fencog,1,Pre,2021_Dec_10_1314,N-Back (New Version 2021),2021.1.4,119.9055145
,,,,Conditions/Version_1/oneback(4)_v1.xlsx,New rule: Press 'space' when you see 1-back (i.e. the same letter as the one that appeared 1 letter ago.),p,None,,,,,,,,,0,14,14,14,0,7,7,7,,,,,,,,,,,,,,,,,,,,,,,,,,,,,,,,,,,,,,,,,,,,,,,,,,,,,,,,,,,,,,,,,,,,,1.3758,1369.729951,None,None,1,1369.729951,None,,P021,fencog,1,Pre,2021_Dec_10_1314,N-Back (New Version 2021),2021.1.4,119.9055145
,,,,Conditions/Version_1/oneback(4)_v1.xlsx,New rule: Press 'space' when you see 1-back (i.e. the same letter as the one that appeared 1 letter ago.),w,None,,,,,,,,,0,14,14,14,0,8,8,8,,,,,,,,,,,,,,,,,,,,,,,,,,,,,,,,,,,,,,,,,,,,,,,,,,,,,,,,,,,,,,,,,,,,,1.3138,1373.045785,None,None,1,1373.045785,None,,P021,fencog,1,Pre,2021_Dec_10_1314,N-Back (New Version 2021),2021.1.4,119.9055145
,,,,Conditions/Version_1/oneback(4)_v1.xlsx,New rule: Press 'space' when you see 1-back (i.e. the same letter as the one that appeared 1 letter ago.),W,space,,,,,,,,,0,14,14,14,0,9,9,9,,,,,,,,,,,,,,,,,,,,,,,,,,,,,,,,,,,,,,,,,,,,,,,,,,,,,,,,,,,,,,,,,,,,,1.0596,1376.111391,None,space,1,1376.111391,None,0.4194831,P021,fencog,1,Pre,2021_Dec_10_1314,N-Back (New Version 2021),2021.1.4,119.9055145
,,,,Conditions/Version_1/oneback(4)_v1.xlsx,New rule: Press 'space' when you see 1-back (i.e. the same letter as the one that appeared 1 letter ago.),,,,,,,,,,,0,14,14,14,,,,,,,,,,,,,,,,,,,,,,,,,,,,,,,,,,,,,,,,,,,,,,,,,,,,,,,,,,,,,,,,,,,,,,,,,,,,,,,,,P021,fencog,1,Pre,2021_Dec_10_1314,N-Back (New Version 2021),2021.1.4,119.9055145
,,,,Conditions/Version_1/threeback(4)_v1.xlsx,New rule: Press 'space' when you see 3-back (i.e. the same letter as the one that appeared 3 letters ago.),A,None,,,,,,,,,0,15,15,15,0,0,0,0,,,,,,,,,,,,,,,,,,,,,,,,,,,,,,,,,,,,,,,,,,,,,,,,,,,,,,,,,,,1378.12926,None,1381.11111,None,space,34.1557465,1381.11111,None,1378.12926,None,1.9214,1417.21583,None,None,1,1417.21583,None,,P021,fencog,1,Pre,2021_Dec_10_1314,N-Back (New Version 2021),2021.1.4,119.9055145
,,,,Conditions/Version_1/threeback(4)_v1.xlsx,New rule: Press 'space' when you see 3-back (i.e. the same letter as the one that appeared 3 letters ago.),n,None,,,,,,,,,0,15,15,15,0,1,1,1,,,,,,,,,,,,,,,,,,,,,,,,,,,,,,,,,,,,,,,,,,,,,,,,,,,,,,,,,,,,,,,,,,,,,1.0968,1420.314889,None,None,1,1420.314889,None,,P021,fencog,1,Pre,2021_Dec_10_1314,N-Back (New Version 2021),2021.1.4,119.9055145
,,,,Conditions/Version_1/threeback(4)_v1.xlsx,New rule: Press 'space' when you see 3-back (i.e. the same letter as the one that appeared 3 letters ago.),g,None,,,,,,,,,0,15,15,15,0,2,2,2,,,,,,,,,,,,,,,,,,,,,,,,,,,,,,,,,,,,,,,,,,,,,,,,,,,,,,,,,,,,,,,,,,,,,1.599,1423.913825,None,None,1,1423.913825,None,,P021,fencog,1,Pre,2021_Dec_10_1314,N-Back (New Version 2021),2021.1.4,119.9055145
,,,,Conditions/Version_1/threeback(4)_v1.xlsx,New rule: Press 'space' when you see 3-back (i.e. the same letter as the one that appeared 3 letters ago.),A,space,,,,,,,,,0,15,15,15,0,3,3,3,,,,,,,,,,,,,,,,,,,,,,,,,,,,,,,,,,,,,,,,,,,,,,,,,,,,,,,,,,,,,,,,,,,,,1.8532,1427.771239,None,space,1,1427.771239,None,0.5435908,P021,fencog,1,Pre,2021_Dec_10_1314,N-Back (New Version 2021),2021.1.4,119.9055145
,,,,Conditions/Version_1/threeback(4)_v1.xlsx,New rule: Press 'space' when you see 3-back (i.e. the same letter as the one that appeared 3 letters ago.),p,None,,,,,,,,,0,15,15,15,0,4,4,4,,,,,,,,,,,,,,,,,,,,,,,,,,,,,,,,,,,,,,,,,,,,,,,,,,,,,,,,,,,,,,,,,,,,,1.5928,1431.369956,None,None,1,1431.369956,None,,P021,fencog,1,Pre,2021_Dec_10_1314,N-Back (New Version 2021),2021.1.4,119.9055145
,,,,Conditions/Version_1/threeback(4)_v1.xlsx,New rule: Press 'space' when you see 3-back (i.e. the same letter as the one that appeared 3 letters ago.),O,None,,,,,,,,,0,15,15,15,0,5,5,5,,,,,,,,,,,,,,,,,,,,,,,,,,,,,,,,,,,,,,,,,,,,,,,,,,,,,,,,,,,,,,,,,,,,,1.2766,1434.652344,None,None,1,1434.652344,None,,P021,fencog,1,Pre,2021_Dec_10_1314,N-Back (New Version 2021),2021.1.4,119.9055145
,,,,Conditions/Version_1/threeback(4)_v1.xlsx,New rule: Press 'space' when you see 3-back (i.e. the same letter as the one that appeared 3 letters ago.),a,space,,,,,,,,,0,15,15,15,0,6,6,6,,,,,,,,,,,,,,,,,,,,,,,,,,,,,,,,,,,,,,,,,,,,,,,,,,,,,,,,,,,,,,,,,,,,,1.9772,1438.634941,None,space,1,1438.634941,None,0.5196873,P021,fencog,1,Pre,2021_Dec_10_1314,N-Back (New Version 2021),2021.1.4,119.9055145
,,,,Conditions/Version_1/threeback(4)_v1.xlsx,New rule: Press 'space' when you see 3-back (i.e. the same letter as the one that appeared 3 letters ago.),p,space,,,,,,,,,0,15,15,15,0,7,7,7,,,,,,,,,,,,,,,,,,,,,,,,,,,,,,,,,,,,,,,,,,,,,,,,,,,,,,,,,,,,,,,,,,,,,1.909,1442.558317,None,space,1,1442.558317,None,0.8202973,P021,fencog,1,Pre,2021_Dec_10_1314,N-Back (New Version 2021),2021.1.4,119.9055145
,,,,Conditions/Version_1/threeback(4)_v1.xlsx,New rule: Press 'space' when you see 3-back (i.e. the same letter as the one that appeared 3 letters ago.),x,None,,,,,,,,,0,15,15,15,0,8,8,8,,,,,,,,,,,,,,,,,,,,,,,,,,,,,,,,,,,,,,,,,,,,,,,,,,,,,,,,,,,,,,,,,,,,,1.692,1446.249464,None,None,1,1446.249464,None,,P021,fencog,1,Pre,2021_Dec_10_1314,N-Back (New Version 2021),2021.1.4,119.9055145
,,,,Conditions/Version_1/threeback(4)_v1.xlsx,New rule: Press 'space' when you see 3-back (i.e. the same letter as the one that appeared 3 letters ago.),X,None,,,,,,,,,0,15,15,15,0,9,9,9,,,,,,,,,,,,,,,,,,,,,,,,,,,,,,,,,,,,,,,,,,,,,,,,,,,,,,,,,,,,,,,,,,,,,1.0658,1449.323001,None,None,1,1449.323001,None,,P021,fencog,1,Pre,2021_Dec_10_1314,N-Back (New Version 2021),2021.1.4,119.9055145
,,,,Conditions/Version_1/threeback(4)_v1.xlsx,New rule: Press 'space' when you see 3-back (i.e. the same letter as the one that appeared 3 letters ago.),,,,,,,,,,,0,15,15,15,,,,,,,,,,,,,,,,,,,,,,,,,,,,,,,,,,,,,,,,,,,,,,,,,,,,,,,,,,,,,,,,,,,,,,,,,,,,,,,,,P021,fencog,1,Pre,2021_Dec_10_1314,N-Back (New Version 2021),2021.1.4,119.9055145
