CondFileP,InstructionsP,LettersDisplayedP,CorrectnessP,CondFile,Instructions,LettersDisplayed,Correctness,practicetrials.thisRepN,practicetrials.thisTrialN,practicetrials.thisN,practicetrials.thisIndex,InnerLoopPractice.thisRepN,InnerLoopPractice.thisTrialN,InnerLoopPractice.thisN,InnerLoopPractice.thisIndex,trials.thisRepN,trials.thisTrialN,trials.thisN,trials.thisIndex,InnerLoop.thisRepN,InnerLoop.thisTrialN,InnerLoop.thisN,InnerLoop.thisIndex,TaskVersionText.started,TaskVersionText.stopped,InstrKey1.keys,InstrKey1.rt,InstrKey1.started,InstrKey1.stopped,text.started,text.stopped,key_resp_4.keys,key_resp_4.rt,key_resp_4.started,key_resp_4.stopped,text_2.started,text_2.stopped,key_resp_3.keys,key_resp_3.rt,key_resp_3.started,key_resp_3.stopped,text_3.started,text_3.stopped,key_resp_2.keys,key_resp_2.rt,key_resp_2.started,key_resp_2.stopped,PractIn1.started,PractIn1.stopped,PractIn2.started,PractIn2.stopped,PractInstructionPass.keys,PractInstructionPass.rt,PractInstructionPass.started,PractInstructionPass.stopped,PractBlock1.started,PractBlock1.stopped,ISIjitterPractice,ISI_Pract_Fixation.started,ISI_Pract_Fixation.stopped,N_backP.started,N_backP.stopped,KeyPractice.keys,KeyPractice.corr,KeyPractice.rt,KeyPractice.started,KeyPractice.stopped,text_4.started,text_4.stopped,TransitionText.started,TransitionText.stopped,key_resp_6.keys,key_resp_6.rt,key_resp_6.started,key_resp_6.stopped,text_5.started,text_5.stopped,key_resp_5.keys,key_resp_5.rt,key_resp_5.started,key_resp_5.stopped,MainInt1.started,MainInt1.stopped,MainInt2.started,MainInt2.stopped,InstructionPass.keys,InstructionPass.rt,InstructionPass.started,InstructionPass.stopped,Blocks1.started,Blocks1.stopped,ISIjitter,N_backD.started,N_backD.stopped,key_resp.keys,key_resp.corr,key_resp.started,key_resp.stopped,key_resp.rt,participant,Study Name,Task Version (required to run),PRE/POST,date,expName,psychopyVersion,frameRate
,,,,,,,,,,,,,,,,,,,,,,,,38.1392755,None,space,401.1683904,38.6333322,None,,,,,,,,,,,,,,,,,,,,,,,,,,,,,,,,,,,,,,,,,,,,,,,,,,,,,,,,,,,,,,,,,,,,,,,P021,fencog,2,Post,2021_Dec_17_1207,N-Back (New Version 2021),2021.1.4,120.135128
,,,,,,,,,,,,,,,,,,,,,,,,,,,,,,439.8380269,None,space,0.2941261,440.3315132,None,,,,,,,,,,,,,,,,,,,,,,,,,,,,,,,,,,,,,,,,,,,,,,,,,,,,,,,,,,,,,,,,,P021,fencog,2,Post,2021_Dec_17_1207,N-Back (New Version 2021),2021.1.4,120.135128
,,,,,,,,,,,,,,,,,,,,,,,,,,,,,,,,,,,,440.6653008,None,space,0.5173071,441.1565572,None,,,,,,,,,,,,,,,,,,,,,,,,,,,,,,,,,,,,,,,,,,,,,,,,,,,,,,,,,,,P021,fencog,2,Post,2021_Dec_17_1207,N-Back (New Version 2021),2021.1.4,120.135128
,,,,,,,,,,,,,,,,,,,,,,,,,,,,,,,,,,,,,,,,,,441.7157317,None,space,2.9955576,442.2060773,None,,,,,,,,,,,,,,,,,,,,,,,,,,,,,,,,,,,,,,,,,,,,,,,,,,,,,P021,fencog,2,Post,2021_Dec_17_1207,N-Back (New Version 2021),2021.1.4,120.135128
Conditions/Version_2Pr/zeroback(1)_v2.xlsx,Rule: Press 'space' when you see the letter 'x' or 'X'.,x,space,,,,,0,0,0,0,0,0,0,0,,,,,,,,,,,,,,,,,,,,,,,,,,,,,,,,,446.5822058,None,449.5720108,None,space,0.5258782,449.5720108,None,446.5822058,None,1.715,450.1318075,None,451.8545376,None,space,1,0.3551526,451.8545376,None,452.2271933,None,,,,,,,,,,,,,,,,,,,,,,,,,,,,,,,P021,fencog,2,Post,2021_Dec_17_1207,N-Back (New Version 2021),2021.1.4,120.135128
Conditions/Version_2Pr/zeroback(1)_v2.xlsx,Rule: Press 'space' when you see the letter 'x' or 'X'.,R,None,,,,,0,0,0,0,0,1,1,1,,,,,,,,,,,,,,,,,,,,,,,,,,,,,,,,,,,,,,,,,,,1.815,453.7268131,None,455.544293,None,None,1,,455.544293,None,457.5506378,None,,,,,,,,,,,,,,,,,,,,,,,,,,,,,,,P021,fencog,2,Post,2021_Dec_17_1207,N-Back (New Version 2021),2021.1.4,120.135128
Conditions/Version_2Pr/zeroback(1)_v2.xlsx,Rule: Press 'space' when you see the letter 'x' or 'X'.,p,None,,,,,0,0,0,0,0,2,2,2,,,,,,,,,,,,,,,,,,,,,,,,,,,,,,,,,,,,,,,,,,,1.44,459.0503008,None,460.4959652,None,None,1,,460.4959652,None,462.4991691,None,,,,,,,,,,,,,,,,,,,,,,,,,,,,,,,P021,fencog,2,Post,2021_Dec_17_1207,N-Back (New Version 2021),2021.1.4,120.135128
Conditions/Version_2Pr/zeroback(1)_v2.xlsx,Rule: Press 'space' when you see the letter 'x' or 'X'.,O,None,,,,,0,0,0,0,0,3,3,3,,,,,,,,,,,,,,,,,,,,,,,,,,,,,,,,,,,,,,,,,,,1.215,463.998891,None,465.2166955,None,None,1,,465.2166955,None,467.2229287,None,,,,,,,,,,,,,,,,,,,,,,,,,,,,,,,P021,fencog,2,Post,2021_Dec_17_1207,N-Back (New Version 2021),2021.1.4,120.135128
Conditions/Version_2Pr/zeroback(1)_v2.xlsx,Rule: Press 'space' when you see the letter 'x' or 'X'.,i,None,,,,,0,0,0,0,0,4,4,4,,,,,,,,,,,,,,,,,,,,,,,,,,,,,,,,,,,,,,,,,,,1.79,468.7223963,None,470.5148363,None,None,1,,470.5148363,None,472.5214394,None,,,,,,,,,,,,,,,,,,,,,,,,,,,,,,,P021,fencog,2,Post,2021_Dec_17_1207,N-Back (New Version 2021),2021.1.4,120.135128
Conditions/Version_2Pr/zeroback(1)_v2.xlsx,Rule: Press 'space' when you see the letter 'x' or 'X'.,U,None,,,,,0,0,0,0,0,5,5,5,,,,,,,,,,,,,,,,,,,,,,,,,,,,,,,,,,,,,,,,,,,1.04,474.0206037,None,475.0623135,None,None,1,,475.0623135,None,477.0616418,None,,,,,,,,,,,,,,,,,,,,,,,,,,,,,,,P021,fencog,2,Post,2021_Dec_17_1207,N-Back (New Version 2021),2021.1.4,120.135128
Conditions/Version_2Pr/zeroback(1)_v2.xlsx,Rule: Press 'space' when you see the letter 'x' or 'X'.,N,None,,,,,0,0,0,0,0,6,6,6,,,,,,,,,,,,,,,,,,,,,,,,,,,,,,,,,,,,,,,,,,,1.34,478.5610687,None,479.9070747,None,None,1,,479.9070747,None,481.9103047,None,,,,,,,,,,,,,,,,,,,,,,,,,,,,,,,P021,fencog,2,Post,2021_Dec_17_1207,N-Back (New Version 2021),2021.1.4,120.135128
Conditions/Version_2Pr/zeroback(1)_v2.xlsx,Rule: Press 'space' when you see the letter 'x' or 'X'.,m,None,,,,,0,0,0,0,0,7,7,7,,,,,,,,,,,,,,,,,,,,,,,,,,,,,,,,,,,,,,,,,,,1.84,483.4097846,None,485.2522352,None,None,1,,485.2522352,None,487.2586262,None,,,,,,,,,,,,,,,,,,,,,,,,,,,,,,,P021,fencog,2,Post,2021_Dec_17_1207,N-Back (New Version 2021),2021.1.4,120.135128
Conditions/Version_2Pr/zeroback(1)_v2.xlsx,Rule: Press 'space' when you see the letter 'x' or 'X'.,x,space,,,,,0,0,0,0,0,8,8,8,,,,,,,,,,,,,,,,,,,,,,,,,,,,,,,,,,,,,,,,,,,1.765,488.758206,None,490.5257568,None,space,1,0.4758194,490.5257568,None,491.0172214,None,,,,,,,,,,,,,,,,,,,,,,,,,,,,,,,P021,fencog,2,Post,2021_Dec_17_1207,N-Back (New Version 2021),2021.1.4,120.135128
Conditions/Version_2Pr/zeroback(1)_v2.xlsx,Rule: Press 'space' when you see the letter 'x' or 'X'.,X,space,,,,,0,0,0,0,0,9,9,9,,,,,,,,,,,,,,,,,,,,,,,,,,,,,,,,,,,,,,,,,,,1.515,492.5237283,None,494.0413458,None,space,1,0.3843061,494.0413458,None,494.4406508,None,,,,,,,,,,,,,,,,,,,,,,,,,,,,,,,P021,fencog,2,Post,2021_Dec_17_1207,N-Back (New Version 2021),2021.1.4,120.135128
Conditions/Version_2Pr/zeroback(1)_v2.xlsx,Rule: Press 'space' when you see the letter 'x' or 'X'.,,,,,,,0,0,0,0,,,,,,,,,,,,,,,,,,,,,,,,,,,,,,,,,,,,,,,,,,,,,,,,,,,,,,,,,,,,,,,,,,,,,,,,,,,,,,,,,,,,,,,,,P021,fencog,2,Post,2021_Dec_17_1207,N-Back (New Version 2021),2021.1.4,120.135128
Conditions/Version_2Pr/oneback(1)_v2.xlsx,New rule: Press 'space' when you see 1-back (i.e. the same letter as the one that appeared 1 letter ago.),r,None,,,,,0,1,1,1,0,0,0,0,,,,,,,,,,,,,,,,,,,,,,,,,,,,,,,,,495.9760779,None,498.9571734,None,space,0.4203998,498.9571734,None,495.9760779,None,1.815,499.4022488,None,501.2235944,None,None,1,,501.2235944,None,503.2288594,None,,,,,,,,,,,,,,,,,,,,,,,,,,,,,,,P021,fencog,2,Post,2021_Dec_17_1207,N-Back (New Version 2021),2021.1.4,120.135128
Conditions/Version_2Pr/oneback(1)_v2.xlsx,New rule: Press 'space' when you see 1-back (i.e. the same letter as the one that appeared 1 letter ago.),t,None,,,,,0,1,1,1,0,1,1,1,,,,,,,,,,,,,,,,,,,,,,,,,,,,,,,,,,,,,,,,,,,1.74,504.7284898,None,506.470475,None,None,1,,506.470475,None,508.4773809,None,,,,,,,,,,,,,,,,,,,,,,,,,,,,,,,P021,fencog,2,Post,2021_Dec_17_1207,N-Back (New Version 2021),2021.1.4,120.135128
Conditions/Version_2Pr/oneback(1)_v2.xlsx,New rule: Press 'space' when you see 1-back (i.e. the same letter as the one that appeared 1 letter ago.),Y,None,,,,,0,1,1,1,0,2,2,2,,,,,,,,,,,,,,,,,,,,,,,,,,,,,,,,,,,,,,,,,,,1.44,509.9784158,None,511.4196137,None,None,1,,511.4196137,None,513.4259281,None,,,,,,,,,,,,,,,,,,,,,,,,,,,,,,,P021,fencog,2,Post,2021_Dec_17_1207,N-Back (New Version 2021),2021.1.4,120.135128
Conditions/Version_2Pr/oneback(1)_v2.xlsx,New rule: Press 'space' when you see 1-back (i.e. the same letter as the one that appeared 1 letter ago.),y,space,,,,,0,1,1,1,0,3,3,3,,,,,,,,,,,,,,,,,,,,,,,,,,,,,,,,,,,,,,,,,,,1.94,514.9254854,None,516.8683143,None,space,1,0.3814171,516.8683143,None,517.2630167,None,,,,,,,,,,,,,,,,,,,,,,,,,,,,,,,P021,fencog,2,Post,2021_Dec_17_1207,N-Back (New Version 2021),2021.1.4,120.135128
Conditions/Version_2Pr/oneback(1)_v2.xlsx,New rule: Press 'space' when you see 1-back (i.e. the same letter as the one that appeared 1 letter ago.),p,None,,,,,0,1,1,1,0,4,4,4,,,,,,,,,,,,,,,,,,,,,,,,,,,,,,,,,,,,,,,,,,,1.79,518.765978,None,520.5569044,None,None,1,,520.5569044,None,522.556552,None,,,,,,,,,,,,,,,,,,,,,,,,,,,,,,,P021,fencog,2,Post,2021_Dec_17_1207,N-Back (New Version 2021),2021.1.4,120.135128
Conditions/Version_2Pr/oneback(1)_v2.xlsx,New rule: Press 'space' when you see 1-back (i.e. the same letter as the one that appeared 1 letter ago.),P,space,,,,,0,1,1,1,0,5,5,5,,,,,,,,,,,,,,,,,,,,,,,,,,,,,,,,,,,,,,,,,,,1.915,524.0559776,None,525.980032,None,space,1,1.1896968,525.980032,None,527.1816843,None,,,,,,,,,,,,,,,,,,,,,,,,,,,,,,,P021,fencog,2,Post,2021_Dec_17_1207,N-Back (New Version 2021),2021.1.4,120.135128
Conditions/Version_2Pr/oneback(1)_v2.xlsx,New rule: Press 'space' when you see 1-back (i.e. the same letter as the one that appeared 1 letter ago.),e,None,,,,,0,1,1,1,0,6,6,6,,,,,,,,,,,,,,,,,,,,,,,,,,,,,,,,,,,,,,,,,,,2.015,528.687673,None,530.7047913,None,None,1,,530.7047913,None,532.7119108,None,,,,,,,,,,,,,,,,,,,,,,,,,,,,,,,P021,fencog,2,Post,2021_Dec_17_1207,N-Back (New Version 2021),2021.1.4,120.135128
Conditions/Version_2Pr/oneback(1)_v2.xlsx,New rule: Press 'space' when you see 1-back (i.e. the same letter as the one that appeared 1 letter ago.),r,None,,,,,0,1,1,1,0,7,7,7,,,,,,,,,,,,,,,,,,,,,,,,,,,,,,,,,,,,,,,,,,,1.59,534.2113587,None,535.8021898,None,None,1,,535.8021898,None,537.8020456,None,,,,,,,,,,,,,,,,,,,,,,,,,,,,,,,P021,fencog,2,Post,2021_Dec_17_1207,N-Back (New Version 2021),2021.1.4,120.135128
Conditions/Version_2Pr/oneback(1)_v2.xlsx,New rule: Press 'space' when you see 1-back (i.e. the same letter as the one that appeared 1 letter ago.),R,space,,,,,0,1,1,1,0,8,8,8,,,,,,,,,,,,,,,,,,,,,,,,,,,,,,,,,,,,,,,,,,,1.14,539.3015217,None,540.4463656,None,space,1,0.4594112,540.4463656,None,540.9193354,None,,,,,,,,,,,,,,,,,,,,,,,,,,,,,,,P021,fencog,2,Post,2021_Dec_17_1207,N-Back (New Version 2021),2021.1.4,120.135128
Conditions/Version_2Pr/oneback(1)_v2.xlsx,New rule: Press 'space' when you see 1-back (i.e. the same letter as the one that appeared 1 letter ago.),p,None,,,,,0,1,1,1,0,9,9,9,,,,,,,,,,,,,,,,,,,,,,,,,,,,,,,,,,,,,,,,,,,1.315,542.425656,None,543.7427901,None,None,1,,543.7427901,None,545.7495629,None,,,,,,,,,,,,,,,,,,,,,,,,,,,,,,,P021,fencog,2,Post,2021_Dec_17_1207,N-Back (New Version 2021),2021.1.4,120.135128
Conditions/Version_2Pr/oneback(1)_v2.xlsx,New rule: Press 'space' when you see 1-back (i.e. the same letter as the one that appeared 1 letter ago.),,,,,,,0,1,1,1,,,,,,,,,,,,,,,,,,,,,,,,,,,,,,,,,,,,,,,,,,,,,,,,,,,,,,,,,,,,,,,,,,,,,,,,,,,,,,,,,,,,,,,,,P021,fencog,2,Post,2021_Dec_17_1207,N-Back (New Version 2021),2021.1.4,120.135128
Conditions/Version_2Pr/twoback(1)_v2.xlsx,New rule: Press 'space' when you see 2-back (i.e. the same letter as the one that appeared 2 letters ago.),r,None,,,,,0,2,2,2,0,0,0,0,,,,,,,,,,,,,,,,,,,,,,,,,,,,,,,,,547.2705825,None,550.2590089,None,space,0.4384748,550.2590089,None,547.2705825,None,1.89,550.7230331,None,552.6142383,None,None,1,,552.6142383,None,554.6136005,None,,,,,,,,,,,,,,,,,,,,,,,,,,,,,,,P021,fencog,2,Post,2021_Dec_17_1207,N-Back (New Version 2021),2021.1.4,120.135128
Conditions/Version_2Pr/twoback(1)_v2.xlsx,New rule: Press 'space' when you see 2-back (i.e. the same letter as the one that appeared 2 letters ago.),P,None,,,,,0,2,2,2,0,1,1,1,,,,,,,,,,,,,,,,,,,,,,,,,,,,,,,,,,,,,,,,,,,1.69,556.1131708,None,557.8061045,None,None,1,,557.8061045,None,559.812012,None,,,,,,,,,,,,,,,,,,,,,,,,,,,,,,,P021,fencog,2,Post,2021_Dec_17_1207,N-Back (New Version 2021),2021.1.4,120.135128
Conditions/Version_2Pr/twoback(1)_v2.xlsx,New rule: Press 'space' when you see 2-back (i.e. the same letter as the one that appeared 2 letters ago.),o,None,,,,,0,2,2,2,0,2,2,2,,,,,,,,,,,,,,,,,,,,,,,,,,,,,,,,,,,,,,,,,,,1.065,561.3117374,None,562.3786367,None,None,1,,562.3786367,None,564.3858181,None,,,,,,,,,,,,,,,,,,,,,,,,,,,,,,,P021,fencog,2,Post,2021_Dec_17_1207,N-Back (New Version 2021),2021.1.4,120.135128
Conditions/Version_2Pr/twoback(1)_v2.xlsx,New rule: Press 'space' when you see 2-back (i.e. the same letter as the one that appeared 2 letters ago.),p,space,,,,,0,2,2,2,0,3,3,3,,,,,,,,,,,,,,,,,,,,,,,,,,,,,,,,,,,,,,,,,,,1.79,565.8853792,None,567.6774753,None,space,1,0.6681999,567.6774753,None,568.3610618,None,,,,,,,,,,,,,,,,,,,,,,,,,,,,,,,P021,fencog,2,Post,2021_Dec_17_1207,N-Back (New Version 2021),2021.1.4,120.135128
Conditions/Version_2Pr/twoback(1)_v2.xlsx,New rule: Press 'space' when you see 2-back (i.e. the same letter as the one that appeared 2 letters ago.),Y,None,,,,,0,2,2,2,0,4,4,4,,,,,,,,,,,,,,,,,,,,,,,,,,,,,,,,,,,,,,,,,,,1.515,569.8675722,None,571.3846352,None,None,1,,571.3846352,None,573.3933269,None,,,,,,,,,,,,,,,,,,,,,,,,,,,,,,,P021,fencog,2,Post,2021_Dec_17_1207,N-Back (New Version 2021),2021.1.4,120.135128
Conditions/Version_2Pr/twoback(1)_v2.xlsx,New rule: Press 'space' when you see 2-back (i.e. the same letter as the one that appeared 2 letters ago.),q,None,,,,,0,2,2,2,0,5,5,5,,,,,,,,,,,,,,,,,,,,,,,,,,,,,,,,,,,,,,,,,,,1.04,574.8910707,None,575.9338569,None,None,1,,575.9338569,None,577.9399902,None,,,,,,,,,,,,,,,,,,,,,,,,,,,,,,,P021,fencog,2,Post,2021_Dec_17_1207,N-Back (New Version 2021),2021.1.4,120.135128
Conditions/Version_2Pr/twoback(1)_v2.xlsx,New rule: Press 'space' when you see 2-back (i.e. the same letter as the one that appeared 2 letters ago.),m,None,,,,,0,2,2,2,0,6,6,6,,,,,,,,,,,,,,,,,,,,,,,,,,,,,,,,,,,,,,,,,,,1.54,579.4397339,None,580.9812409,None,None,1,,580.9812409,None,582.9800421,None,,,,,,,,,,,,,,,,,,,,,,,,,,,,,,,P021,fencog,2,Post,2021_Dec_17_1207,N-Back (New Version 2021),2021.1.4,120.135128
Conditions/Version_2Pr/twoback(1)_v2.xlsx,New rule: Press 'space' when you see 2-back (i.e. the same letter as the one that appeared 2 letters ago.),Q,space,,,,,0,2,2,2,0,7,7,7,,,,,,,,,,,,,,,,,,,,,,,,,,,,,,,,,,,,,,,,,,,1.64,584.4811015,None,586.1223362,None,space,1,0.4792619,586.1223362,None,586.6162845,None,,,,,,,,,,,,,,,,,,,,,,,,,,,,,,,P021,fencog,2,Post,2021_Dec_17_1207,N-Back (New Version 2021),2021.1.4,120.135128
Conditions/Version_2Pr/twoback(1)_v2.xlsx,New rule: Press 'space' when you see 2-back (i.e. the same letter as the one that appeared 2 letters ago.),L,None,,,,,0,2,2,2,0,8,8,8,,,,,,,,,,,,,,,,,,,,,,,,,,,,,,,,,,,,,,,,,,,1.715,588.1202855,None,589.8393541,None,None,1,,589.8393541,None,591.8444847,None,,,,,,,,,,,,,,,,,,,,,,,,,,,,,,,P021,fencog,2,Post,2021_Dec_17_1207,N-Back (New Version 2021),2021.1.4,120.135128
Conditions/Version_2Pr/twoback(1)_v2.xlsx,New rule: Press 'space' when you see 2-back (i.e. the same letter as the one that appeared 2 letters ago.),q,space,,,,,0,2,2,2,0,9,9,9,,,,,,,,,,,,,,,,,,,,,,,,,,,,,,,,,,,,,,,,,,,1.94,593.3439099,None,595.2855683,None,space,1,0.4118419,595.2855683,None,595.7104915,None,,,,,,,,,,,,,,,,,,,,,,,,,,,,,,,P021,fencog,2,Post,2021_Dec_17_1207,N-Back (New Version 2021),2021.1.4,120.135128
Conditions/Version_2Pr/twoback(1)_v2.xlsx,New rule: Press 'space' when you see 2-back (i.e. the same letter as the one that appeared 2 letters ago.),,,,,,,0,2,2,2,,,,,,,,,,,,,,,,,,,,,,,,,,,,,,,,,,,,,,,,,,,,,,,,,,,,,,,,,,,,,,,,,,,,,,,,,,,,,,,,,,,,,,,,,P021,fencog,2,Post,2021_Dec_17_1207,N-Back (New Version 2021),2021.1.4,120.135128
Conditions/Version_2Pr/threeback(1)_v2.xlsx,New rule: Press 'space' when you see 3-back (i.e. the same letter as the one that appeared 3 letters ago.),u,None,,,,,0,3,3,3,0,0,0,0,,,,,,,,,,,,,,,,,,,,,,,,,,,,,,,,,597.2486177,None,600.235035,None,space,0.5984612,600.235035,None,597.2486177,None,1.29,600.8548529,None,602.1518254,None,None,1,,602.1518254,None,604.1574317,None,,,,,,,,,,,,,,,,,,,,,,,,,,,,,,,P021,fencog,2,Post,2021_Dec_17_1207,N-Back (New Version 2021),2021.1.4,120.135128
Conditions/Version_2Pr/threeback(1)_v2.xlsx,New rule: Press 'space' when you see 3-back (i.e. the same letter as the one that appeared 3 letters ago.),U,None,,,,,0,3,3,3,0,1,1,1,,,,,,,,,,,,,,,,,,,,,,,,,,,,,,,,,,,,,,,,,,,1.44,605.6570259,None,607.0990513,None,None,1,,607.0990513,None,609.1060116,None,,,,,,,,,,,,,,,,,,,,,,,,,,,,,,,P021,fencog,2,Post,2021_Dec_17_1207,N-Back (New Version 2021),2021.1.4,120.135128
Conditions/Version_2Pr/threeback(1)_v2.xlsx,New rule: Press 'space' when you see 3-back (i.e. the same letter as the one that appeared 3 letters ago.),p,None,,,,,0,3,3,3,0,2,2,2,,,,,,,,,,,,,,,,,,,,,,,,,,,,,,,,,,,,,,,,,,,1.54,610.6053211,None,612.1525524,None,None,1,,612.1525524,None,614.1540238,None,,,,,,,,,,,,,,,,,,,,,,,,,,,,,,,P021,fencog,2,Post,2021_Dec_17_1207,N-Back (New Version 2021),2021.1.4,120.135128
Conditions/Version_2Pr/threeback(1)_v2.xlsx,New rule: Press 'space' when you see 3-back (i.e. the same letter as the one that appeared 3 letters ago.),U,space,,,,,0,3,3,3,0,3,3,3,,,,,,,,,,,,,,,,,,,,,,,,,,,,,,,,,,,,,,,,,,,1.765,615.653972,None,617.4207884,None,space,1,0.7408954,617.4207884,None,618.1743372,None,,,,,,,,,,,,,,,,,,,,,,,,,,,,,,,P021,fencog,2,Post,2021_Dec_17_1207,N-Back (New Version 2021),2021.1.4,120.135128
Conditions/Version_2Pr/threeback(1)_v2.xlsx,New rule: Press 'space' when you see 3-back (i.e. the same letter as the one that appeared 3 letters ago.),e,None,,,,,0,3,3,3,0,4,4,4,,,,,,,,,,,,,,,,,,,,,,,,,,,,,,,,,,,,,,,,,,,1.615,619.6776306,None,621.2948897,None,None,1,,621.2948897,None,623.3017653,None,,,,,,,,,,,,,,,,,,,,,,,,,,,,,,,P021,fencog,2,Post,2021_Dec_17_1207,N-Back (New Version 2021),2021.1.4,120.135128
Conditions/Version_2Pr/threeback(1)_v2.xlsx,New rule: Press 'space' when you see 3-back (i.e. the same letter as the one that appeared 3 letters ago.),R,None,,,,,0,3,3,3,0,5,5,5,,,,,,,,,,,,,,,,,,,,,,,,,,,,,,,,,,,,,,,,,,,2.015,624.8012742,None,626.8182864,None,None,1,,626.8182864,None,628.8251854,None,,,,,,,,,,,,,,,,,,,,,,,,,,,,,,,P021,fencog,2,Post,2021_Dec_17_1207,N-Back (New Version 2021),2021.1.4,120.135128
Conditions/Version_2Pr/threeback(1)_v2.xlsx,New rule: Press 'space' when you see 3-back (i.e. the same letter as the one that appeared 3 letters ago.),p,None,,,,,0,3,3,3,0,6,6,6,,,,,,,,,,,,,,,,,,,,,,,,,,,,,,,,,,,,,,,,,,,1.165,630.3246376,None,631.494182,None,None,1,,631.494182,None,633.4987269,None,,,,,,,,,,,,,,,,,,,,,,,,,,,,,,,P021,fencog,2,Post,2021_Dec_17_1207,N-Back (New Version 2021),2021.1.4,120.135128
Conditions/Version_2Pr/threeback(1)_v2.xlsx,New rule: Press 'space' when you see 3-back (i.e. the same letter as the one that appeared 3 letters ago.),E,space,,,,,0,3,3,3,0,7,7,7,,,,,,,,,,,,,,,,,,,,,,,,,,,,,,,,,,,,,,,,,,,1.415,634.9983029,None,636.4237828,None,space,1,0.3857046,636.4237828,None,636.8234579,None,,,,,,,,,,,,,,,,,,,,,,,,,,,,,,,P021,fencog,2,Post,2021_Dec_17_1207,N-Back (New Version 2021),2021.1.4,120.135128
Conditions/Version_2Pr/threeback(1)_v2.xlsx,New rule: Press 'space' when you see 3-back (i.e. the same letter as the one that appeared 3 letters ago.),k,None,,,,,0,3,3,3,0,8,8,8,,,,,,,,,,,,,,,,,,,,,,,,,,,,,,,,,,,,,,,,,,,1.59,638.3304917,None,639.924487,None,None,1,,639.924487,None,641.9293665,None,,,,,,,,,,,,,,,,,,,,,,,,,,,,,,,P021,fencog,2,Post,2021_Dec_17_1207,N-Back (New Version 2021),2021.1.4,120.135128
Conditions/Version_2Pr/threeback(1)_v2.xlsx,New rule: Press 'space' when you see 3-back (i.e. the same letter as the one that appeared 3 letters ago.),m,None,,,,,0,3,3,3,0,9,9,9,,,,,,,,,,,,,,,,,,,,,,,,,,,,,,,,,,,,,,,,,,,1.74,643.4290187,None,645.1709926,None,None,1,,645.1709926,None,647.1780508,None,,,,,,,,,,,,,,,,,,,,,,,,,,,,,,,P021,fencog,2,Post,2021_Dec_17_1207,N-Back (New Version 2021),2021.1.4,120.135128
Conditions/Version_2Pr/threeback(1)_v2.xlsx,New rule: Press 'space' when you see 3-back (i.e. the same letter as the one that appeared 3 letters ago.),,,,,,,0,3,3,3,,,,,,,,,,,,,,,,,,,,,,,,,,,,,,,,,,,,,,,,,,,,,,,,,,,,,,,,,,,,,,,,,,,,,,,,,,,,,,,,,,,,,,,,,P021,fencog,2,Post,2021_Dec_17_1207,N-Back (New Version 2021),2021.1.4,120.135128
,,,,,,,,,,,,,,,,,,,,,,,,,,,,,,,,,,,,,,,,,,,,,,,,,,,,,,,,,,,,,,,,,,,,,,648.6836648,None,space,1.6723006,649.1691241,None,,,,,,,,,,,,,,,,,,,,,,,,,P021,fencog,2,Post,2021_Dec_17_1207,N-Back (New Version 2021),2021.1.4,120.135128
,,,,,,,,,,,,,,,,,,,,,,,,,,,,,,,,,,,,,,,,,,,,,,,,,,,,,,,,,,,,,,,,,,,,,,,,,,,,650.8660052,None,space,2.3847401,651.3606369,None,,,,,,,,,,,,,,,,,,,P021,fencog,2,Post,2021_Dec_17_1207,N-Back (New Version 2021),2021.1.4,120.135128
,,,,Conditions/Version_1/zeroback(1)_v1.xlsx,Rule: Press 'space' when you see the letter 'x' or 'X'.,b,None,,,,,,,,,0,0,0,0,0,0,0,0,,,,,,,,,,,,,,,,,,,,,,,,,,,,,,,,,,,,,,,,,,,,,,,,,,,,,,,,,,,653.8544474,None,656.8427918,None,space,0.2625677,656.8427918,None,653.8544474,None,1.289,658.426048,None,None,1,658.426048,None,,P021,fencog,2,Post,2021_Dec_17_1207,N-Back (New Version 2021),2021.1.4,120.135128
,,,,Conditions/Version_1/zeroback(1)_v1.xlsx,Rule: Press 'space' when you see the letter 'x' or 'X'.,T,None,,,,,,,,,0,0,0,0,0,1,1,1,,,,,,,,,,,,,,,,,,,,,,,,,,,,,,,,,,,,,,,,,,,,,,,,,,,,,,,,,,,,,,,,,,,,,1.7416,662.173717,None,None,1,662.173717,None,,P021,fencog,2,Post,2021_Dec_17_1207,N-Back (New Version 2021),2021.1.4,120.135128
,,,,Conditions/Version_1/zeroback(1)_v1.xlsx,Rule: Press 'space' when you see the letter 'x' or 'X'.,L,None,,,,,,,,,0,0,0,0,0,2,2,2,,,,,,,,,,,,,,,,,,,,,,,,,,,,,,,,,,,,,,,,,,,,,,,,,,,,,,,,,,,,,,,,,,,,,1.8036,665.9890481,None,None,1,665.9890481,None,,P021,fencog,2,Post,2021_Dec_17_1207,N-Back (New Version 2021),2021.1.4,120.135128
,,,,Conditions/Version_1/zeroback(1)_v1.xlsx,Rule: Press 'space' when you see the letter 'x' or 'X'.,x,space,,,,,,,,,0,0,0,0,0,3,3,3,,,,,,,,,,,,,,,,,,,,,,,,,,,,,,,,,,,,,,,,,,,,,,,,,,,,,,,,,,,,,,,,,,,,,1.0844,669.07966,None,space,1,669.07966,None,0.4418413,P021,fencog,2,Post,2021_Dec_17_1207,N-Back (New Version 2021),2021.1.4,120.135128
,,,,Conditions/Version_1/zeroback(1)_v1.xlsx,Rule: Press 'space' when you see the letter 'x' or 'X'.,o,None,,,,,,,,,0,0,0,0,0,4,4,4,,,,,,,,,,,,,,,,,,,,,,,,,,,,,,,,,,,,,,,,,,,,,,,,,,,,,,,,,,,,,,,,,,,,,1.2022,672.2869998,None,None,1,672.2869998,None,,P021,fencog,2,Post,2021_Dec_17_1207,N-Back (New Version 2021),2021.1.4,120.135128
,,,,Conditions/Version_1/zeroback(1)_v1.xlsx,Rule: Press 'space' when you see the letter 'x' or 'X'.,P,None,,,,,,,,,0,0,0,0,0,5,5,5,,,,,,,,,,,,,,,,,,,,,,,,,,,,,,,,,,,,,,,,,,,,,,,,,,,,,,,,,,,,,,,,,,,,,1.3634,675.6526638,None,None,1,675.6526638,None,,P021,fencog,2,Post,2021_Dec_17_1207,N-Back (New Version 2021),2021.1.4,120.135128
,,,,Conditions/Version_1/zeroback(1)_v1.xlsx,Rule: Press 'space' when you see the letter 'x' or 'X'.,X,space,,,,,,,,,0,0,0,0,0,6,6,6,,,,,,,,,,,,,,,,,,,,,,,,,,,,,,,,,,,,,,,,,,,,,,,,,,,,,,,,,,,,,,,,,,,,,1.9648,679.6181416,None,space,1,679.6181416,None,0.3914594,P021,fencog,2,Post,2021_Dec_17_1207,N-Back (New Version 2021),2021.1.4,120.135128
,,,,Conditions/Version_1/zeroback(1)_v1.xlsx,Rule: Press 'space' when you see the letter 'x' or 'X'.,n,None,,,,,,,,,0,0,0,0,0,7,7,7,,,,,,,,,,,,,,,,,,,,,,,,,,,,,,,,,,,,,,,,,,,,,,,,,,,,,,,,,,,,,,,,,,,,,1.1092,682.734805,None,None,1,682.734805,None,,P021,fencog,2,Post,2021_Dec_17_1207,N-Back (New Version 2021),2021.1.4,120.135128
,,,,Conditions/Version_1/zeroback(1)_v1.xlsx,Rule: Press 'space' when you see the letter 'x' or 'X'.,M,None,,,,,,,,,0,0,0,0,0,8,8,8,,,,,,,,,,,,,,,,,,,,,,,,,,,,,,,,,,,,,,,,,,,,,,,,,,,,,,,,,,,,,,,,,,,,,1.0472,685.7934524,None,None,1,685.7934524,None,,P021,fencog,2,Post,2021_Dec_17_1207,N-Back (New Version 2021),2021.1.4,120.135128
,,,,Conditions/Version_1/zeroback(1)_v1.xlsx,Rule: Press 'space' when you see the letter 'x' or 'X'.,a,None,,,,,,,,,0,0,0,0,0,9,9,9,,,,,,,,,,,,,,,,,,,,,,,,,,,,,,,,,,,,,,,,,,,,,,,,,,,,,,,,,,,,,,,,,,,,,1.7478,689.5514703,None,None,1,689.5514703,None,,P021,fencog,2,Post,2021_Dec_17_1207,N-Back (New Version 2021),2021.1.4,120.135128
,,,,Conditions/Version_1/zeroback(1)_v1.xlsx,Rule: Press 'space' when you see the letter 'x' or 'X'.,,,,,,,,,,,0,0,0,0,,,,,,,,,,,,,,,,,,,,,,,,,,,,,,,,,,,,,,,,,,,,,,,,,,,,,,,,,,,,,,,,,,,,,,,,,,,,,,,,,P021,fencog,2,Post,2021_Dec_17_1207,N-Back (New Version 2021),2021.1.4,120.135128
,,,,Conditions/Version_1/oneback(1)_v1.xlsx,New rule: Press 'space' when you see 1-back (i.e. the same letter as the one that appeared 1 letter ago.),b,None,,,,,,,,,0,1,1,1,0,0,0,0,,,,,,,,,,,,,,,,,,,,,,,,,,,,,,,,,,,,,,,,,,,,,,,,,,,,,,,,,,,691.5800192,None,694.5666978,None,space,0.330814,694.5666978,None,691.5800192,None,1.4998,696.4226468,None,None,1,696.4226468,None,,P021,fencog,2,Post,2021_Dec_17_1207,N-Back (New Version 2021),2021.1.4,120.135128
,,,,Conditions/Version_1/oneback(1)_v1.xlsx,New rule: Press 'space' when you see 1-back (i.e. the same letter as the one that appeared 1 letter ago.),p,None,,,,,,,,,0,1,1,1,0,1,1,1,,,,,,,,,,,,,,,,,,,,,,,,,,,,,,,,,,,,,,,,,,,,,,,,,,,,,,,,,,,,,,,,,,,,,1.3262,699.7623557,None,None,1,699.7623557,None,,P021,fencog,2,Post,2021_Dec_17_1207,N-Back (New Version 2021),2021.1.4,120.135128
,,,,Conditions/Version_1/oneback(1)_v1.xlsx,New rule: Press 'space' when you see 1-back (i.e. the same letter as the one that appeared 1 letter ago.),M,None,,,,,,,,,0,1,1,1,0,2,2,2,,,,,,,,,,,,,,,,,,,,,,,,,,,,,,,,,,,,,,,,,,,,,,,,,,,,,,,,,,,,,,,,,,,,,1.165,702.9279161,None,None,1,702.9279161,None,,P021,fencog,2,Post,2021_Dec_17_1207,N-Back (New Version 2021),2021.1.4,120.135128
,,,,Conditions/Version_1/oneback(1)_v1.xlsx,New rule: Press 'space' when you see 1-back (i.e. the same letter as the one that appeared 1 letter ago.),M,space,,,,,,,,,0,1,1,1,0,3,3,3,,,,,,,,,,,,,,,,,,,,,,,,,,,,,,,,,,,,,,,,,,,,,,,,,,,,,,,,,,,,,,,,,,,,,1.5494,706.4771899,None,space,1,706.4771899,None,0.420239,P021,fencog,2,Post,2021_Dec_17_1207,N-Back (New Version 2021),2021.1.4,120.135128
,,,,Conditions/Version_1/oneback(1)_v1.xlsx,New rule: Press 'space' when you see 1-back (i.e. the same letter as the one that appeared 1 letter ago.),n,None,,,,,,,,,0,1,1,1,0,4,4,4,,,,,,,,,,,,,,,,,,,,,,,,,,,,,,,,,,,,,,,,,,,,,,,,,,,,,,,,,,,,,,,,,,,,,1.1712,709.6511515,None,None,1,709.6511515,None,,P021,fencog,2,Post,2021_Dec_17_1207,N-Back (New Version 2021),2021.1.4,120.135128
,,,,Conditions/Version_1/oneback(1)_v1.xlsx,New rule: Press 'space' when you see 1-back (i.e. the same letter as the one that appeared 1 letter ago.),g,None,,,,,,,,,0,1,1,1,0,5,5,5,,,,,,,,,,,,,,,,,,,,,,,,,,,,,,,,,,,,,,,,,,,,,,,,,,,,,,,,,,,,,,,,,,,,,1.6486,713.3046002,None,None,1,713.3046002,None,,P021,fencog,2,Post,2021_Dec_17_1207,N-Back (New Version 2021),2021.1.4,120.135128
,,,,Conditions/Version_1/oneback(1)_v1.xlsx,New rule: Press 'space' when you see 1-back (i.e. the same letter as the one that appeared 1 letter ago.),P,None,,,,,,,,,0,1,1,1,0,6,6,6,,,,,,,,,,,,,,,,,,,,,,,,,,,,,,,,,,,,,,,,,,,,,,,,,,,,,,,,,,,,,,,,,,,,,1.723,717.0321091,None,None,1,717.0321091,None,,P021,fencog,2,Post,2021_Dec_17_1207,N-Back (New Version 2021),2021.1.4,120.135128
,,,,Conditions/Version_1/oneback(1)_v1.xlsx,New rule: Press 'space' when you see 1-back (i.e. the same letter as the one that appeared 1 letter ago.),o,None,,,,,,,,,0,1,1,1,0,7,7,7,,,,,,,,,,,,,,,,,,,,,,,,,,,,,,,,,,,,,,,,,,,,,,,,,,,,,,,,,,,,,,,,,,,,,1.5556,720.5894221,None,None,1,720.5894221,None,,P021,fencog,2,Post,2021_Dec_17_1207,N-Back (New Version 2021),2021.1.4,120.135128
,,,,Conditions/Version_1/oneback(1)_v1.xlsx,New rule: Press 'space' when you see 1-back (i.e. the same letter as the one that appeared 1 letter ago.),f,None,,,,,,,,,0,1,1,1,0,8,8,8,,,,,,,,,,,,,,,,,,,,,,,,,,,,,,,,,,,,,,,,,,,,,,,,,,,,,,,,,,,,,,,,,,,,,1.2704,723.8642134,None,None,1,723.8642134,None,,P021,fencog,2,Post,2021_Dec_17_1207,N-Back (New Version 2021),2021.1.4,120.135128
,,,,Conditions/Version_1/oneback(1)_v1.xlsx,New rule: Press 'space' when you see 1-back (i.e. the same letter as the one that appeared 1 letter ago.),F,space,,,,,,,,,0,1,1,1,0,9,9,9,,,,,,,,,,,,,,,,,,,,,,,,,,,,,,,,,,,,,,,,,,,,,,,,,,,,,,,,,,,,,,,,,,,,,1.2828,727.1565394,None,space,1,727.1565394,None,0.3728799,P021,fencog,2,Post,2021_Dec_17_1207,N-Back (New Version 2021),2021.1.4,120.135128
,,,,Conditions/Version_1/oneback(1)_v1.xlsx,New rule: Press 'space' when you see 1-back (i.e. the same letter as the one that appeared 1 letter ago.),,,,,,,,,,,0,1,1,1,,,,,,,,,,,,,,,,,,,,,,,,,,,,,,,,,,,,,,,,,,,,,,,,,,,,,,,,,,,,,,,,,,,,,,,,,,,,,,,,,P021,fencog,2,Post,2021_Dec_17_1207,N-Back (New Version 2021),2021.1.4,120.135128
,,,,Conditions/Version_1/twoback(1)_v1.xlsx,New rule: Press 'space' when you see 2-back (i.e. the same letter as the one that appeared 2 letters ago.),b,None,,,,,,,,,0,2,2,2,0,0,0,0,,,,,,,,,,,,,,,,,,,,,,,,,,,,,,,,,,,,,,,,,,,,,,,,,,,,,,,,,,,729.1913056,None,732.1724252,None,space,0.6048403,732.1724252,None,729.1913056,None,1.3014,734.1105523,None,None,1,734.1105523,None,,P021,fencog,2,Post,2021_Dec_17_1207,N-Back (New Version 2021),2021.1.4,120.135128
,,,,Conditions/Version_1/twoback(1)_v1.xlsx,New rule: Press 'space' when you see 2-back (i.e. the same letter as the one that appeared 2 letters ago.),h,None,,,,,,,,,0,2,2,2,0,1,1,1,,,,,,,,,,,,,,,,,,,,,,,,,,,,,,,,,,,,,,,,,,,,,,,,,,,,,,,,,,,,,,,,,,,,,1.3634,737.4771634,None,None,1,737.4771634,None,,P021,fencog,2,Post,2021_Dec_17_1207,N-Back (New Version 2021),2021.1.4,120.135128
,,,,Conditions/Version_1/twoback(1)_v1.xlsx,New rule: Press 'space' when you see 2-back (i.e. the same letter as the one that appeared 2 letters ago.),j,None,,,,,,,,,0,2,2,2,0,2,2,2,,,,,,,,,,,,,,,,,,,,,,,,,,,,,,,,,,,,,,,,,,,,,,,,,,,,,,,,,,,,,,,,,,,,,1.3758,740.8699496,None,None,1,740.8699496,None,,P021,fencog,2,Post,2021_Dec_17_1207,N-Back (New Version 2021),2021.1.4,120.135128
,,,,Conditions/Version_1/twoback(1)_v1.xlsx,New rule: Press 'space' when you see 2-back (i.e. the same letter as the one that appeared 2 letters ago.),H,space,,,,,,,,,0,2,2,2,0,3,3,3,,,,,,,,,,,,,,,,,,,,,,,,,,,,,,,,,,,,,,,,,,,,,,,,,,,,,,,,,,,,,,,,,,,,,1.506,744.3837357,None,space,1,744.3837357,None,0.5695747,P021,fencog,2,Post,2021_Dec_17_1207,N-Back (New Version 2021),2021.1.4,120.135128
,,,,Conditions/Version_1/twoback(1)_v1.xlsx,New rule: Press 'space' when you see 2-back (i.e. the same letter as the one that appeared 2 letters ago.),p,None,,,,,,,,,0,2,2,2,0,4,4,4,,,,,,,,,,,,,,,,,,,,,,,,,,,,,,,,,,,,,,,,,,,,,,,,,,,,,,,,,,,,,,,,,,,,,1.9338,748.3294753,None,None,1,748.3294753,None,,P021,fencog,2,Post,2021_Dec_17_1207,N-Back (New Version 2021),2021.1.4,120.135128
,,,,Conditions/Version_1/twoback(1)_v1.xlsx,New rule: Press 'space' when you see 2-back (i.e. the same letter as the one that appeared 2 letters ago.),p,None,,,,,,,,,0,2,2,2,0,5,5,5,,,,,,,,,,,,,,,,,,,,,,,,,,,,,,,,,,,,,,,,,,,,,,,,,,,,,,,,,,,,,,,,,,,,,1.3076,751.638757,None,None,1,751.638757,None,,P021,fencog,2,Post,2021_Dec_17_1207,N-Back (New Version 2021),2021.1.4,120.135128
,,,,Conditions/Version_1/twoback(1)_v1.xlsx,New rule: Press 'space' when you see 2-back (i.e. the same letter as the one that appeared 2 letters ago.),w,None,,,,,,,,,0,2,2,2,0,6,6,6,,,,,,,,,,,,,,,,,,,,,,,,,,,,,,,,,,,,,,,,,,,,,,,,,,,,,,,,,,,,,,,,,,,,,1.9958,755.6393489,None,None,1,755.6393489,None,,P021,fencog,2,Post,2021_Dec_17_1207,N-Back (New Version 2021),2021.1.4,120.135128
,,,,Conditions/Version_1/twoback(1)_v1.xlsx,New rule: Press 'space' when you see 2-back (i.e. the same letter as the one that appeared 2 letters ago.),R,None,,,,,,,,,0,2,2,2,0,7,7,7,,,,,,,,,,,,,,,,,,,,,,,,,,,,,,,,,,,,,,,,,,,,,,,,,,,,,,,,,,,,,,,,,,,,,1.5556,759.2054438,None,None,1,759.2054438,None,,P021,fencog,2,Post,2021_Dec_17_1207,N-Back (New Version 2021),2021.1.4,120.135128
,,,,Conditions/Version_1/twoback(1)_v1.xlsx,New rule: Press 'space' when you see 2-back (i.e. the same letter as the one that appeared 2 letters ago.),a,None,,,,,,,,,0,2,2,2,0,8,8,8,,,,,,,,,,,,,,,,,,,,,,,,,,,,,,,,,,,,,,,,,,,,,,,,,,,,,,,,,,,,,,,,,,,,,1.7416,762.9532652,None,None,1,762.9532652,None,,P021,fencog,2,Post,2021_Dec_17_1207,N-Back (New Version 2021),2021.1.4,120.135128
,,,,Conditions/Version_1/twoback(1)_v1.xlsx,New rule: Press 'space' when you see 2-back (i.e. the same letter as the one that appeared 2 letters ago.),r,space,,,,,,,,,0,2,2,2,0,9,9,9,,,,,,,,,,,,,,,,,,,,,,,,,,,,,,,,,,,,,,,,,,,,,,,,,,,,,,,,,,,,,,,,,,,,,1.2642,766.2260978,None,space,1,766.2260978,None,0.6150507,P021,fencog,2,Post,2021_Dec_17_1207,N-Back (New Version 2021),2021.1.4,120.135128
,,,,Conditions/Version_1/twoback(1)_v1.xlsx,New rule: Press 'space' when you see 2-back (i.e. the same letter as the one that appeared 2 letters ago.),,,,,,,,,,,0,2,2,2,,,,,,,,,,,,,,,,,,,,,,,,,,,,,,,,,,,,,,,,,,,,,,,,,,,,,,,,,,,,,,,,,,,,,,,,,,,,,,,,,P021,fencog,2,Post,2021_Dec_17_1207,N-Back (New Version 2021),2021.1.4,120.135128
,,,,Conditions/Version_1/threeback(1)_v1.xlsx,New rule: Press 'space' when you see 3-back (i.e. the same letter as the one that appeared 3 letters ago.),r,None,,,,,,,,,0,3,3,3,0,0,0,0,,,,,,,,,,,,,,,,,,,,,,,,,,,,,,,,,,,,,,,,,,,,,,,,,,,,,,,,,,,768.2558462,None,771.2426854,None,space,5.4386872,771.2426854,None,768.2558462,None,1.7478,778.4641915,None,None,1,778.4641915,None,,P021,fencog,2,Post,2021_Dec_17_1207,N-Back (New Version 2021),2021.1.4,120.135128
,,,,Conditions/Version_1/threeback(1)_v1.xlsx,New rule: Press 'space' when you see 3-back (i.e. the same letter as the one that appeared 3 letters ago.),o,None,,,,,,,,,0,3,3,3,0,1,1,1,,,,,,,,,,,,,,,,,,,,,,,,,,,,,,,,,,,,,,,,,,,,,,,,,,,,,,,,,,,,,,,,,,,,,1.0596,781.5296843,None,None,1,781.5296843,None,,P021,fencog,2,Post,2021_Dec_17_1207,N-Back (New Version 2021),2021.1.4,120.135128
,,,,Conditions/Version_1/threeback(1)_v1.xlsx,New rule: Press 'space' when you see 3-back (i.e. the same letter as the one that appeared 3 letters ago.),P,None,,,,,,,,,0,3,3,3,0,2,2,2,,,,,,,,,,,,,,,,,,,,,,,,,,,,,,,,,,,,,,,,,,,,,,,,,,,,,,,,,,,,,,,,,,,,,1.8594,785.3952052,None,None,1,785.3952052,None,,P021,fencog,2,Post,2021_Dec_17_1207,N-Back (New Version 2021),2021.1.4,120.135128
,,,,Conditions/Version_1/threeback(1)_v1.xlsx,New rule: Press 'space' when you see 3-back (i.e. the same letter as the one that appeared 3 letters ago.),R,space,,,,,,,,,0,3,3,3,0,3,3,3,,,,,,,,,,,,,,,,,,,,,,,,,,,,,,,,,,,,,,,,,,,,,,,,,,,,,,,,,,,,,,,,,,,,,1.3138,788.7127301,None,space,1,788.7127301,None,0.9606275,P021,fencog,2,Post,2021_Dec_17_1207,N-Back (New Version 2021),2021.1.4,120.135128
,,,,Conditions/Version_1/threeback(1)_v1.xlsx,New rule: Press 'space' when you see 3-back (i.e. the same letter as the one that appeared 3 letters ago.),p,None,,,,,,,,,0,3,3,3,0,4,4,4,,,,,,,,,,,,,,,,,,,,,,,,,,,,,,,,,,,,,,,,,,,,,,,,,,,,,,,,,,,,,,,,,,,,,1.0844,791.8111971,None,None,1,791.8111971,None,,P021,fencog,2,Post,2021_Dec_17_1207,N-Back (New Version 2021),2021.1.4,120.135128
,,,,Conditions/Version_1/threeback(1)_v1.xlsx,New rule: Press 'space' when you see 3-back (i.e. the same letter as the one that appeared 3 letters ago.),E,None,,,,,,,,,0,3,3,3,0,5,5,5,,,,,,,,,,,,,,,,,,,,,,,,,,,,,,,,,,,,,,,,,,,,,,,,,,,,,,,,,,,,,,,,,,,,,1.351,795.1758166,None,None,1,795.1758166,None,,P021,fencog,2,Post,2021_Dec_17_1207,N-Back (New Version 2021),2021.1.4,120.135128
,,,,Conditions/Version_1/threeback(1)_v1.xlsx,New rule: Press 'space' when you see 3-back (i.e. the same letter as the one that appeared 3 letters ago.),e,None,,,,,,,,,0,3,3,3,0,6,6,6,,,,,,,,,,,,,,,,,,,,,,,,,,,,,,,,,,,,,,,,,,,,,,,,,,,,,,,,,,,,,,,,,,,,,1.878,799.0580586,None,None,1,799.0580586,None,,P021,fencog,2,Post,2021_Dec_17_1207,N-Back (New Version 2021),2021.1.4,120.135128
,,,,Conditions/Version_1/threeback(1)_v1.xlsx,New rule: Press 'space' when you see 3-back (i.e. the same letter as the one that appeared 3 letters ago.),m,None,,,,,,,,,0,3,3,3,0,7,7,7,,,,,,,,,,,,,,,,,,,,,,,,,,,,,,,,,,,,,,,,,,,,,,,,,,,,,,,,,,,,,,,,,,,,,1.692,802.7484118,None,None,1,802.7484118,None,,P021,fencog,2,Post,2021_Dec_17_1207,N-Back (New Version 2021),2021.1.4,120.135128
,,,,Conditions/Version_1/threeback(1)_v1.xlsx,New rule: Press 'space' when you see 3-back (i.e. the same letter as the one that appeared 3 letters ago.),n,None,,,,,,,,,0,3,3,3,0,8,8,8,,,,,,,,,,,,,,,,,,,,,,,,,,,,,,,,,,,,,,,,,,,,,,,,,,,,,,,,,,,,,,,,,,,,,1.0162,805.764854,None,None,1,805.764854,None,,P021,fencog,2,Post,2021_Dec_17_1207,N-Back (New Version 2021),2021.1.4,120.135128
,,,,Conditions/Version_1/threeback(1)_v1.xlsx,New rule: Press 'space' when you see 3-back (i.e. the same letter as the one that appeared 3 letters ago.),e,space,,,,,,,,,0,3,3,3,0,9,9,9,,,,,,,,,,,,,,,,,,,,,,,,,,,,,,,,,,,,,,,,,,,,,,,,,,,,,,,,,,,,,,,,,,,,,1.8656,809.6456427,None,space,1,809.6456427,None,0.6036698,P021,fencog,2,Post,2021_Dec_17_1207,N-Back (New Version 2021),2021.1.4,120.135128
,,,,Conditions/Version_1/threeback(1)_v1.xlsx,New rule: Press 'space' when you see 3-back (i.e. the same letter as the one that appeared 3 letters ago.),,,,,,,,,,,0,3,3,3,,,,,,,,,,,,,,,,,,,,,,,,,,,,,,,,,,,,,,,,,,,,,,,,,,,,,,,,,,,,,,,,,,,,,,,,,,,,,,,,,P021,fencog,2,Post,2021_Dec_17_1207,N-Back (New Version 2021),2021.1.4,120.135128
,,,,Conditions/Version_1/oneback(2)_v1.xlsx,New rule: Press 'space' when you see 1-back (i.e. the same letter as the one that appeared 1 letter ago.),q,None,,,,,,,,,0,4,4,4,0,0,0,0,,,,,,,,,,,,,,,,,,,,,,,,,,,,,,,,,,,,,,,,,,,,,,,,,,,,,,,,,,,811.6691008,None,814.6554921,None,space,4.137625,814.6554921,None,811.6691008,None,1.5742,820.3941026,None,None,1,820.3941026,None,,P021,fencog,2,Post,2021_Dec_17_1207,N-Back (New Version 2021),2021.1.4,120.135128
,,,,Conditions/Version_1/oneback(2)_v1.xlsx,New rule: Press 'space' when you see 1-back (i.e. the same letter as the one that appeared 1 letter ago.),Q,space,,,,,,,,,0,4,4,4,0,1,1,1,,,,,,,,,,,,,,,,,,,,,,,,,,,,,,,,,,,,,,,,,,,,,,,,,,,,,,,,,,,,,,,,,,,,,1.444,823.8512475,None,space,1,823.8512475,None,0.3579933,P021,fencog,2,Post,2021_Dec_17_1207,N-Back (New Version 2021),2021.1.4,120.135128
,,,,Conditions/Version_1/oneback(2)_v1.xlsx,New rule: Press 'space' when you see 1-back (i.e. the same letter as the one that appeared 1 letter ago.),P,None,,,,,,,,,0,4,4,4,0,2,2,2,,,,,,,,,,,,,,,,,,,,,,,,,,,,,,,,,,,,,,,,,,,,,,,,,,,,,,,,,,,,,,,,,,,,,1.4688,827.3329217,None,None,1,827.3329217,None,,P021,fencog,2,Post,2021_Dec_17_1207,N-Back (New Version 2021),2021.1.4,120.135128
,,,,Conditions/Version_1/oneback(2)_v1.xlsx,New rule: Press 'space' when you see 1-back (i.e. the same letter as the one that appeared 1 letter ago.),o,None,,,,,,,,,0,4,4,4,0,3,3,3,,,,,,,,,,,,,,,,,,,,,,,,,,,,,,,,,,,,,,,,,,,,,,,,,,,,,,,,,,,,,,,,,,,,,1.4626,830.8079763,None,None,1,830.8079763,None,,P021,fencog,2,Post,2021_Dec_17_1207,N-Back (New Version 2021),2021.1.4,120.135128
,,,,Conditions/Version_1/oneback(2)_v1.xlsx,New rule: Press 'space' when you see 1-back (i.e. the same letter as the one that appeared 1 letter ago.),m,None,,,,,,,,,0,4,4,4,0,4,4,4,,,,,,,,,,,,,,,,,,,,,,,,,,,,,,,,,,,,,,,,,,,,,,,,,,,,,,,,,,,,,,,,,,,,,1.3448,834.1644717,None,None,1,834.1644717,None,,P021,fencog,2,Post,2021_Dec_17_1207,N-Back (New Version 2021),2021.1.4,120.135128
,,,,Conditions/Version_1/oneback(2)_v1.xlsx,New rule: Press 'space' when you see 1-back (i.e. the same letter as the one that appeared 1 letter ago.),Z,None,,,,,,,,,0,4,4,4,0,5,5,5,,,,,,,,,,,,,,,,,,,,,,,,,,,,,,,,,,,,,,,,,,,,,,,,,,,,,,,,,,,,,,,,,,,,,1.3696,837.5410456,None,None,1,837.5410456,None,,P021,fencog,2,Post,2021_Dec_17_1207,N-Back (New Version 2021),2021.1.4,120.135128
,,,,Conditions/Version_1/oneback(2)_v1.xlsx,New rule: Press 'space' when you see 1-back (i.e. the same letter as the one that appeared 1 letter ago.),c,None,,,,,,,,,0,4,4,4,0,6,6,6,,,,,,,,,,,,,,,,,,,,,,,,,,,,,,,,,,,,,,,,,,,,,,,,,,,,,,,,,,,,,,,,,,,,,1.3138,840.8626553,None,None,1,840.8626553,None,,P021,fencog,2,Post,2021_Dec_17_1207,N-Back (New Version 2021),2021.1.4,120.135128
,,,,Conditions/Version_1/oneback(2)_v1.xlsx,New rule: Press 'space' when you see 1-back (i.e. the same letter as the one that appeared 1 letter ago.),c,space,,,,,,,,,0,4,4,4,0,7,7,7,,,,,,,,,,,,,,,,,,,,,,,,,,,,,,,,,,,,,,,,,,,,,,,,,,,,,,,,,,,,,,,,,,,,,1.3882,844.2528845,None,space,1,844.2528845,None,0.5084301,P021,fencog,2,Post,2021_Dec_17_1207,N-Back (New Version 2021),2021.1.4,120.135128
,,,,Conditions/Version_1/oneback(2)_v1.xlsx,New rule: Press 'space' when you see 1-back (i.e. the same letter as the one that appeared 1 letter ago.),P,None,,,,,,,,,0,4,4,4,0,8,8,8,,,,,,,,,,,,,,,,,,,,,,,,,,,,,,,,,,,,,,,,,,,,,,,,,,,,,,,,,,,,,,,,,,,,,1.6114,847.8713415,None,None,1,847.8713415,None,,P021,fencog,2,Post,2021_Dec_17_1207,N-Back (New Version 2021),2021.1.4,120.135128
,,,,Conditions/Version_1/oneback(2)_v1.xlsx,New rule: Press 'space' when you see 1-back (i.e. the same letter as the one that appeared 1 letter ago.),p,space,,,,,,,,,0,4,4,4,0,9,9,9,,,,,,,,,,,,,,,,,,,,,,,,,,,,,,,,,,,,,,,,,,,,,,,,,,,,,,,,,,,,,,,,,,,,,1.5494,851.4267478,None,space,1,851.4267478,None,0.41452,P021,fencog,2,Post,2021_Dec_17_1207,N-Back (New Version 2021),2021.1.4,120.135128
,,,,Conditions/Version_1/oneback(2)_v1.xlsx,New rule: Press 'space' when you see 1-back (i.e. the same letter as the one that appeared 1 letter ago.),,,,,,,,,,,0,4,4,4,,,,,,,,,,,,,,,,,,,,,,,,,,,,,,,,,,,,,,,,,,,,,,,,,,,,,,,,,,,,,,,,,,,,,,,,,,,,,,,,,P021,fencog,2,Post,2021_Dec_17_1207,N-Back (New Version 2021),2021.1.4,120.135128
,,,,Conditions/Version_1/zeroback(2)_v1.xlsx,New rule: Press 'space' when you see the letter 'x' or 'X'.,p,None,,,,,,,,,0,5,5,5,0,0,0,0,,,,,,,,,,,,,,,,,,,,,,,,,,,,,,,,,,,,,,,,,,,,,,,,,,,,,,,,,,,853.4537083,None,856.4430861,None,space,3.2862231,856.4430861,None,853.4537083,None,1.4006,861.1564919,None,None,1,861.1564919,None,,P021,fencog,2,Post,2021_Dec_17_1207,N-Back (New Version 2021),2021.1.4,120.135128
,,,,Conditions/Version_1/zeroback(2)_v1.xlsx,New rule: Press 'space' when you see the letter 'x' or 'X'.,L,None,,,,,,,,,0,5,5,5,0,1,1,1,,,,,,,,,,,,,,,,,,,,,,,,,,,,,,,,,,,,,,,,,,,,,,,,,,,,,,,,,,,,,,,,,,,,,1.4564,864.6173953,None,None,1,864.6173953,None,,P021,fencog,2,Post,2021_Dec_17_1207,N-Back (New Version 2021),2021.1.4,120.135128
,,,,Conditions/Version_1/zeroback(2)_v1.xlsx,New rule: Press 'space' when you see the letter 'x' or 'X'.,G,None,,,,,,,,,0,5,5,5,0,2,2,2,,,,,,,,,,,,,,,,,,,,,,,,,,,,,,,,,,,,,,,,,,,,,,,,,,,,,,,,,,,,,,,,,,,,,1.9896,868.6139742,None,None,1,868.6139742,None,,P021,fencog,2,Post,2021_Dec_17_1207,N-Back (New Version 2021),2021.1.4,120.135128
,,,,Conditions/Version_1/zeroback(2)_v1.xlsx,New rule: Press 'space' when you see the letter 'x' or 'X'.,y,None,,,,,,,,,0,5,5,5,0,3,3,3,,,,,,,,,,,,,,,,,,,,,,,,,,,,,,,,,,,,,,,,,,,,,,,,,,,,,,,,,,,,,,,,,,,,,1.6672,872.2861816,None,None,1,872.2861816,None,,P021,fencog,2,Post,2021_Dec_17_1207,N-Back (New Version 2021),2021.1.4,120.135128
,,,,Conditions/Version_1/zeroback(2)_v1.xlsx,New rule: Press 'space' when you see the letter 'x' or 'X'.,Y,None,,,,,,,,,0,5,5,5,0,4,4,4,,,,,,,,,,,,,,,,,,,,,,,,,,,,,,,,,,,,,,,,,,,,,,,,,,,,,,,,,,,,,,,,,,,,,1.63,875.9207653,None,None,1,875.9207653,None,,P021,fencog,2,Post,2021_Dec_17_1207,N-Back (New Version 2021),2021.1.4,120.135128
,,,,Conditions/Version_1/zeroback(2)_v1.xlsx,New rule: Press 'space' when you see the letter 'x' or 'X'.,W,None,,,,,,,,,0,5,5,5,0,5,5,5,,,,,,,,,,,,,,,,,,,,,,,,,,,,,,,,,,,,,,,,,,,,,,,,,,,,,,,,,,,,,,,,,,,,,1.661,879.5937862,None,None,1,879.5937862,None,,P021,fencog,2,Post,2021_Dec_17_1207,N-Back (New Version 2021),2021.1.4,120.135128
,,,,Conditions/Version_1/zeroback(2)_v1.xlsx,New rule: Press 'space' when you see the letter 'x' or 'X'.,x,space,,,,,,,,,0,5,5,5,0,6,6,6,,,,,,,,,,,,,,,,,,,,,,,,,,,,,,,,,,,,,,,,,,,,,,,,,,,,,,,,,,,,,,,,,,,,,1.3696,882.9769527,None,space,1,882.9769527,None,0.4003605,P021,fencog,2,Post,2021_Dec_17_1207,N-Back (New Version 2021),2021.1.4,120.135128
,,,,Conditions/Version_1/zeroback(2)_v1.xlsx,New rule: Press 'space' when you see the letter 'x' or 'X'.,X,space,,,,,,,,,0,5,5,5,0,7,7,7,,,,,,,,,,,,,,,,,,,,,,,,,,,,,,,,,,,,,,,,,,,,,,,,,,,,,,,,,,,,,,,,,,,,,1.5246,886.5079294,None,space,1,886.5079294,None,0.5089948,P021,fencog,2,Post,2021_Dec_17_1207,N-Back (New Version 2021),2021.1.4,120.135128
,,,,Conditions/Version_1/zeroback(2)_v1.xlsx,New rule: Press 'space' when you see the letter 'x' or 'X'.,p,None,,,,,,,,,0,5,5,5,0,8,8,8,,,,,,,,,,,,,,,,,,,,,,,,,,,,,,,,,,,,,,,,,,,,,,,,,,,,,,,,,,,,,,,,,,,,,1.5866,890.1065829,None,None,1,890.1065829,None,,P021,fencog,2,Post,2021_Dec_17_1207,N-Back (New Version 2021),2021.1.4,120.135128
,,,,Conditions/Version_1/zeroback(2)_v1.xlsx,New rule: Press 'space' when you see the letter 'x' or 'X'.,h,None,,,,,,,,,0,5,5,5,0,9,9,9,,,,,,,,,,,,,,,,,,,,,,,,,,,,,,,,,,,,,,,,,,,,,,,,,,,,,,,,,,,,,,,,,,,,,1.3572,893.475517,None,None,1,893.475517,None,,P021,fencog,2,Post,2021_Dec_17_1207,N-Back (New Version 2021),2021.1.4,120.135128
,,,,Conditions/Version_1/zeroback(2)_v1.xlsx,New rule: Press 'space' when you see the letter 'x' or 'X'.,,,,,,,,,,,0,5,5,5,,,,,,,,,,,,,,,,,,,,,,,,,,,,,,,,,,,,,,,,,,,,,,,,,,,,,,,,,,,,,,,,,,,,,,,,,,,,,,,,,P021,fencog,2,Post,2021_Dec_17_1207,N-Back (New Version 2021),2021.1.4,120.135128
,,,,Conditions/Version_1/threeback(2)_v1.xlsx,New rule: Press 'space' when you see 3-back (i.e. the same letter as the one that appeared 3 letters ago.),q,None,,,,,,,,,0,6,6,6,0,0,0,0,,,,,,,,,,,,,,,,,,,,,,,,,,,,,,,,,,,,,,,,,,,,,,,,,,,,,,,,,,,895.5012552,None,898.4900471,None,space,8.9831356,898.4900471,None,895.5012552,None,1.0472,908.5505317,None,None,1,908.5505317,None,,P021,fencog,2,Post,2021_Dec_17_1207,N-Back (New Version 2021),2021.1.4,120.135128
,,,,Conditions/Version_1/threeback(2)_v1.xlsx,New rule: Press 'space' when you see 3-back (i.e. the same letter as the one that appeared 3 letters ago.),Y,None,,,,,,,,,0,6,6,6,0,1,1,1,,,,,,,,,,,,,,,,,,,,,,,,,,,,,,,,,,,,,,,,,,,,,,,,,,,,,,,,,,,,,,,,,,,,,1.5866,912.1460655,None,None,1,912.1460655,None,,P021,fencog,2,Post,2021_Dec_17_1207,N-Back (New Version 2021),2021.1.4,120.135128
,,,,Conditions/Version_1/threeback(2)_v1.xlsx,New rule: Press 'space' when you see 3-back (i.e. the same letter as the one that appeared 3 letters ago.),p,None,,,,,,,,,0,6,6,6,0,2,2,2,,,,,,,,,,,,,,,,,,,,,,,,,,,,,,,,,,,,,,,,,,,,,,,,,,,,,,,,,,,,,,,,,,,,,1.7292,915.8815339,None,None,1,915.8815339,None,,P021,fencog,2,Post,2021_Dec_17_1207,N-Back (New Version 2021),2021.1.4,120.135128
,,,,Conditions/Version_1/threeback(2)_v1.xlsx,New rule: Press 'space' when you see 3-back (i.e. the same letter as the one that appeared 3 letters ago.),p,None,,,,,,,,,0,6,6,6,0,3,3,3,,,,,,,,,,,,,,,,,,,,,,,,,,,,,,,,,,,,,,,,,,,,,,,,,,,,,,,,,,,,,,,,,,,,,1.8594,919.7473294,None,None,1,919.7473294,None,,P021,fencog,2,Post,2021_Dec_17_1207,N-Back (New Version 2021),2021.1.4,120.135128
,,,,Conditions/Version_1/threeback(2)_v1.xlsx,New rule: Press 'space' when you see 3-back (i.e. the same letter as the one that appeared 3 letters ago.),y,space,,,,,,,,,0,6,6,6,0,4,4,4,,,,,,,,,,,,,,,,,,,,,,,,,,,,,,,,,,,,,,,,,,,,,,,,,,,,,,,,,,,,,,,,,,,,,1.1154,922.8629895,None,space,1,922.8629895,None,0.5062502,P021,fencog,2,Post,2021_Dec_17_1207,N-Back (New Version 2021),2021.1.4,120.135128
,,,,Conditions/Version_1/threeback(2)_v1.xlsx,New rule: Press 'space' when you see 3-back (i.e. the same letter as the one that appeared 3 letters ago.),u,None,,,,,,,,,0,6,6,6,0,5,5,5,,,,,,,,,,,,,,,,,,,,,,,,,,,,,,,,,,,,,,,,,,,,,,,,,,,,,,,,,,,,,,,,,,,,,1.2828,926.145233,None,None,1,926.145233,None,,P021,fencog,2,Post,2021_Dec_17_1207,N-Back (New Version 2021),2021.1.4,120.135128
,,,,Conditions/Version_1/threeback(2)_v1.xlsx,New rule: Press 'space' when you see 3-back (i.e. the same letter as the one that appeared 3 letters ago.),P,space,,,,,,,,,0,6,6,6,0,6,6,6,,,,,,,,,,,,,,,,,,,,,,,,,,,,,,,,,,,,,,,,,,,,,,,,,,,,,,,,,,,,,,,,,,,,,1.9028,930.0537233,None,space,1,930.0537233,None,0.6914999,P021,fencog,2,Post,2021_Dec_17_1207,N-Back (New Version 2021),2021.1.4,120.135128
,,,,Conditions/Version_1/threeback(2)_v1.xlsx,New rule: Press 'space' when you see 3-back (i.e. the same letter as the one that appeared 3 letters ago.),a,None,,,,,,,,,0,6,6,6,0,7,7,7,,,,,,,,,,,,,,,,,,,,,,,,,,,,,,,,,,,,,,,,,,,,,,,,,,,,,,,,,,,,,,,,,,,,,1.8718,933.9358156,None,None,1,933.9358156,None,,P021,fencog,2,Post,2021_Dec_17_1207,N-Back (New Version 2021),2021.1.4,120.135128
,,,,Conditions/Version_1/threeback(2)_v1.xlsx,New rule: Press 'space' when you see 3-back (i.e. the same letter as the one that appeared 3 letters ago.),U,space,,,,,,,,,0,6,6,6,0,8,8,8,,,,,,,,,,,,,,,,,,,,,,,,,,,,,,,,,,,,,,,,,,,,,,,,,,,,,,,,,,,,,,,,,,,,,1.1092,937.0586885,None,space,1,937.0586885,None,0.8464048,P021,fencog,2,Post,2021_Dec_17_1207,N-Back (New Version 2021),2021.1.4,120.135128
,,,,Conditions/Version_1/threeback(2)_v1.xlsx,New rule: Press 'space' when you see 3-back (i.e. the same letter as the one that appeared 3 letters ago.),q,None,,,,,,,,,0,6,6,6,0,9,9,9,,,,,,,,,,,,,,,,,,,,,,,,,,,,,,,,,,,,,,,,,,,,,,,,,,,,,,,,,,,,,,,,,,,,,1.4502,940.507564,None,None,1,940.507564,None,,P021,fencog,2,Post,2021_Dec_17_1207,N-Back (New Version 2021),2021.1.4,120.135128
,,,,Conditions/Version_1/threeback(2)_v1.xlsx,New rule: Press 'space' when you see 3-back (i.e. the same letter as the one that appeared 3 letters ago.),,,,,,,,,,,0,6,6,6,,,,,,,,,,,,,,,,,,,,,,,,,,,,,,,,,,,,,,,,,,,,,,,,,,,,,,,,,,,,,,,,,,,,,,,,,,,,,,,,,P021,fencog,2,Post,2021_Dec_17_1207,N-Back (New Version 2021),2021.1.4,120.135128
,,,,Conditions/Version_1/twoback(2)_v1.xlsx,New rule: Press 'space' when you see 2-back (i.e. the same letter as the one that appeared 2 letters ago.),q,None,,,,,,,,,0,7,7,7,0,0,0,0,,,,,,,,,,,,,,,,,,,,,,,,,,,,,,,,,,,,,,,,,,,,,,,,,,,,,,,,,,,942.5311932,None,945.5176975,None,space,2.4754864,945.5176975,None,942.5311932,None,1.7912,949.8135886,None,None,1,949.8135886,None,,P021,fencog,2,Post,2021_Dec_17_1207,N-Back (New Version 2021),2021.1.4,120.135128
,,,,Conditions/Version_1/twoback(2)_v1.xlsx,New rule: Press 'space' when you see 2-back (i.e. the same letter as the one that appeared 2 letters ago.),r,None,,,,,,,,,0,7,7,7,0,1,1,1,,,,,,,,,,,,,,,,,,,,,,,,,,,,,,,,,,,,,,,,,,,,,,,,,,,,,,,,,,,,,,,,,,,,,1.9028,953.7204818,None,None,1,953.7204818,None,,P021,fencog,2,Post,2021_Dec_17_1207,N-Back (New Version 2021),2021.1.4,120.135128
,,,,Conditions/Version_1/twoback(2)_v1.xlsx,New rule: Press 'space' when you see 2-back (i.e. the same letter as the one that appeared 2 letters ago.),q,space,,,,,,,,,0,7,7,7,0,2,2,2,,,,,,,,,,,,,,,,,,,,,,,,,,,,,,,,,,,,,,,,,,,,,,,,,,,,,,,,,,,,,,,,,,,,,1.8718,957.5942291,None,space,1,957.5942291,None,0.6068077,P021,fencog,2,Post,2021_Dec_17_1207,N-Back (New Version 2021),2021.1.4,120.135128
,,,,Conditions/Version_1/twoback(2)_v1.xlsx,New rule: Press 'space' when you see 2-back (i.e. the same letter as the one that appeared 2 letters ago.),P,None,,,,,,,,,0,7,7,7,0,3,3,3,,,,,,,,,,,,,,,,,,,,,,,,,,,,,,,,,,,,,,,,,,,,,,,,,,,,,,,,,,,,,,,,,,,,,1.9586,961.5514727,None,None,1,961.5514727,None,,P021,fencog,2,Post,2021_Dec_17_1207,N-Back (New Version 2021),2021.1.4,120.135128
,,,,Conditions/Version_1/twoback(2)_v1.xlsx,New rule: Press 'space' when you see 2-back (i.e. the same letter as the one that appeared 2 letters ago.),p,None,,,,,,,,,0,7,7,7,0,4,4,4,,,,,,,,,,,,,,,,,,,,,,,,,,,,,,,,,,,,,,,,,,,,,,,,,,,,,,,,,,,,,,,,,,,,,1.754,965.3086701,None,None,1,965.3086701,None,,P021,fencog,2,Post,2021_Dec_17_1207,N-Back (New Version 2021),2021.1.4,120.135128
,,,,Conditions/Version_1/twoback(2)_v1.xlsx,New rule: Press 'space' when you see 2-back (i.e. the same letter as the one that appeared 2 letters ago.),H,None,,,,,,,,,0,7,7,7,0,5,5,5,,,,,,,,,,,,,,,,,,,,,,,,,,,,,,,,,,,,,,,,,,,,,,,,,,,,,,,,,,,,,,,,,,,,,1.7478,969.0601818,None,None,1,969.0601818,None,,P021,fencog,2,Post,2021_Dec_17_1207,N-Back (New Version 2021),2021.1.4,120.135128
,,,,Conditions/Version_1/twoback(2)_v1.xlsx,New rule: Press 'space' when you see 2-back (i.e. the same letter as the one that appeared 2 letters ago.),g,None,,,,,,,,,0,7,7,7,0,6,6,6,,,,,,,,,,,,,,,,,,,,,,,,,,,,,,,,,,,,,,,,,,,,,,,,,,,,,,,,,,,,,,,,,,,,,1.6982,972.7647825,None,None,1,972.7647825,None,,P021,fencog,2,Post,2021_Dec_17_1207,N-Back (New Version 2021),2021.1.4,120.135128
,,,,Conditions/Version_1/twoback(2)_v1.xlsx,New rule: Press 'space' when you see 2-back (i.e. the same letter as the one that appeared 2 letters ago.),j,None,,,,,,,,,0,7,7,7,0,7,7,7,,,,,,,,,,,,,,,,,,,,,,,,,,,,,,,,,,,,,,,,,,,,,,,,,,,,,,,,,,,,,,,,,,,,,1.0596,975.830695,None,None,1,975.830695,None,,P021,fencog,2,Post,2021_Dec_17_1207,N-Back (New Version 2021),2021.1.4,120.135128
,,,,Conditions/Version_1/twoback(2)_v1.xlsx,New rule: Press 'space' when you see 2-back (i.e. the same letter as the one that appeared 2 letters ago.),g,space,,,,,,,,,0,7,7,7,0,8,8,8,,,,,,,,,,,,,,,,,,,,,,,,,,,,,,,,,,,,,,,,,,,,,,,,,,,,,,,,,,,,,,,,,,,,,1.0658,978.8984376,None,space,1,978.8984376,None,0.5667621,P021,fencog,2,Post,2021_Dec_17_1207,N-Back (New Version 2021),2021.1.4,120.135128
,,,,Conditions/Version_1/twoback(2)_v1.xlsx,New rule: Press 'space' when you see 2-back (i.e. the same letter as the one that appeared 2 letters ago.),G,None,,,,,,,,,0,7,7,7,0,9,9,9,,,,,,,,,,,,,,,,,,,,,,,,,,,,,,,,,,,,,,,,,,,,,,,,,,,,,,,,,,,,,,,,,,,,,1.0472,981.953759,None,None,1,981.953759,None,,P021,fencog,2,Post,2021_Dec_17_1207,N-Back (New Version 2021),2021.1.4,120.135128
,,,,Conditions/Version_1/twoback(2)_v1.xlsx,New rule: Press 'space' when you see 2-back (i.e. the same letter as the one that appeared 2 letters ago.),,,,,,,,,,,0,7,7,7,,,,,,,,,,,,,,,,,,,,,,,,,,,,,,,,,,,,,,,,,,,,,,,,,,,,,,,,,,,,,,,,,,,,,,,,,,,,,,,,,P021,fencog,2,Post,2021_Dec_17_1207,N-Back (New Version 2021),2021.1.4,120.135128
,,,,Conditions/Version_1/threeback(3)_v1.xlsx,New rule: Press 'space' when you see 3-back (i.e. the same letter as the one that appeared 3 letters ago.),w,None,,,,,,,,,0,8,8,8,0,0,0,0,,,,,,,,,,,,,,,,,,,,,,,,,,,,,,,,,,,,,,,,,,,,,,,,,,,,,,,,,,,983.9779435,None,986.9631053,None,space,5.9498457,986.9631053,None,983.9779435,None,1.351,994.2940749,None,None,1,994.2940749,None,,P021,fencog,2,Post,2021_Dec_17_1207,N-Back (New Version 2021),2021.1.4,120.135128
,,,,Conditions/Version_1/threeback(3)_v1.xlsx,New rule: Press 'space' when you see 3-back (i.e. the same letter as the one that appeared 3 letters ago.),p,None,,,,,,,,,0,8,8,8,0,1,1,1,,,,,,,,,,,,,,,,,,,,,,,,,,,,,,,,,,,,,,,,,,,,,,,,,,,,,,,,,,,,,,,,,,,,,1.7168,998.0175795,None,None,1,998.0175795,None,,P021,fencog,2,Post,2021_Dec_17_1207,N-Back (New Version 2021),2021.1.4,120.135128
,,,,Conditions/Version_1/threeback(3)_v1.xlsx,New rule: Press 'space' when you see 3-back (i.e. the same letter as the one that appeared 3 letters ago.),P,None,,,,,,,,,0,8,8,8,0,2,2,2,,,,,,,,,,,,,,,,,,,,,,,,,,,,,,,,,,,,,,,,,,,,,,,,,,,,,,,,,,,,,,,,,,,,,1.816,1001.841452,None,None,1,1001.841452,None,,P021,fencog,2,Post,2021_Dec_17_1207,N-Back (New Version 2021),2021.1.4,120.135128
,,,,Conditions/Version_1/threeback(3)_v1.xlsx,New rule: Press 'space' when you see 3-back (i.e. the same letter as the one that appeared 3 letters ago.),i,None,,,,,,,,,0,8,8,8,0,3,3,3,,,,,,,,,,,,,,,,,,,,,,,,,,,,,,,,,,,,,,,,,,,,,,,,,,,,,,,,,,,,,,,,,,,,,1.9524,1005.805505,None,None,1,1005.805505,None,,P021,fencog,2,Post,2021_Dec_17_1207,N-Back (New Version 2021),2021.1.4,120.135128
,,,,Conditions/Version_1/threeback(3)_v1.xlsx,New rule: Press 'space' when you see 3-back (i.e. the same letter as the one that appeared 3 letters ago.),f,None,,,,,,,,,0,8,8,8,0,4,4,4,,,,,,,,,,,,,,,,,,,,,,,,,,,,,,,,,,,,,,,,,,,,,,,,,,,,,,,,,,,,,,,,,,,,,1.9462,1009.763232,None,None,1,1009.763232,None,,P021,fencog,2,Post,2021_Dec_17_1207,N-Back (New Version 2021),2021.1.4,120.135128
,,,,Conditions/Version_1/threeback(3)_v1.xlsx,New rule: Press 'space' when you see 3-back (i.e. the same letter as the one that appeared 3 letters ago.),o,None,,,,,,,,,0,8,8,8,0,5,5,5,,,,,,,,,,,,,,,,,,,,,,,,,,,,,,,,,,,,,,,,,,,,,,,,,,,,,,,,,,,,,,,,,,,,,1.8904,1013.661669,None,None,1,1013.661669,None,,P021,fencog,2,Post,2021_Dec_17_1207,N-Back (New Version 2021),2021.1.4,120.135128
,,,,Conditions/Version_1/threeback(3)_v1.xlsx,New rule: Press 'space' when you see 3-back (i.e. the same letter as the one that appeared 3 letters ago.),w,None,,,,,,,,,0,8,8,8,0,6,6,6,,,,,,,,,,,,,,,,,,,,,,,,,,,,,,,,,,,,,,,,,,,,,,,,,,,,,,,,,,,,,,,,,,,,,1.444,1017.111789,None,None,1,1017.111789,None,,P021,fencog,2,Post,2021_Dec_17_1207,N-Back (New Version 2021),2021.1.4,120.135128
,,,,Conditions/Version_1/threeback(3)_v1.xlsx,New rule: Press 'space' when you see 3-back (i.e. the same letter as the one that appeared 3 letters ago.),F,space,,,,,,,,,0,8,8,8,0,7,7,7,,,,,,,,,,,,,,,,,,,,,,,,,,,,,,,,,,,,,,,,,,,,,,,,,,,,,,,,,,,,,,,,,,,,,1.227,1020.355711,None,space,1,1020.355711,None,1.1734013,P021,fencog,2,Post,2021_Dec_17_1207,N-Back (New Version 2021),2021.1.4,120.135128
,,,,Conditions/Version_1/threeback(3)_v1.xlsx,New rule: Press 'space' when you see 3-back (i.e. the same letter as the one that appeared 3 letters ago.),p,None,,,,,,,,,0,8,8,8,0,8,8,8,,,,,,,,,,,,,,,,,,,,,,,,,,,,,,,,,,,,,,,,,,,,,,,,,,,,,,,,,,,,,,,,,,,,,1.9958,1024.357987,None,None,1,1024.357987,None,,P021,fencog,2,Post,2021_Dec_17_1207,N-Back (New Version 2021),2021.1.4,120.135128
,,,,Conditions/Version_1/threeback(3)_v1.xlsx,New rule: Press 'space' when you see 3-back (i.e. the same letter as the one that appeared 3 letters ago.),W,space,,,,,,,,,0,8,8,8,0,9,9,9,,,,,,,,,,,,,,,,,,,,,,,,,,,,,,,,,,,,,,,,,,,,,,,,,,,,,,,,,,,,,,,,,,,,,1.754,1028.115388,None,space,1,1028.115388,None,1.6057165,P021,fencog,2,Post,2021_Dec_17_1207,N-Back (New Version 2021),2021.1.4,120.135128
,,,,Conditions/Version_1/threeback(3)_v1.xlsx,New rule: Press 'space' when you see 3-back (i.e. the same letter as the one that appeared 3 letters ago.),,,,,,,,,,,0,8,8,8,,,,,,,,,,,,,,,,,,,,,,,,,,,,,,,,,,,,,,,,,,,,,,,,,,,,,,,,,,,,,,,,,,,,,,,,,,,,,,,,,P021,fencog,2,Post,2021_Dec_17_1207,N-Back (New Version 2021),2021.1.4,120.135128
,,,,Conditions/Version_1/zeroback(3)_v1.xlsx,New rule: Press 'space' when you see the letter 'x' or 'X'.,X,space,,,,,,,,,0,9,9,9,0,0,0,0,,,,,,,,,,,,,,,,,,,,,,,,,,,,,,,,,,,,,,,,,,,,,,,,,,,,,,,,,,,1030.136202,None,1033.123607,None,space,5.8772584,1033.123607,None,1030.136202,None,1.8098,1040.837184,None,space,1,1040.837184,None,0.4437747,P021,fencog,2,Post,2021_Dec_17_1207,N-Back (New Version 2021),2021.1.4,120.135128
,,,,Conditions/Version_1/zeroback(3)_v1.xlsx,New rule: Press 'space' when you see the letter 'x' or 'X'.,B,None,,,,,,,,,0,9,9,9,0,1,1,1,,,,,,,,,,,,,,,,,,,,,,,,,,,,,,,,,,,,,,,,,,,,,,,,,,,,,,,,,,,,,,,,,,,,,1.8842,1044.728925,None,None,1,1044.728925,None,,P021,fencog,2,Post,2021_Dec_17_1207,N-Back (New Version 2021),2021.1.4,120.135128
,,,,Conditions/Version_1/zeroback(3)_v1.xlsx,New rule: Press 'space' when you see the letter 'x' or 'X'.,m,None,,,,,,,,,0,9,9,9,0,2,2,2,,,,,,,,,,,,,,,,,,,,,,,,,,,,,,,,,,,,,,,,,,,,,,,,,,,,,,,,,,,,,,,,,,,,,1.7912,1048.529816,None,None,1,1048.529816,None,,P021,fencog,2,Post,2021_Dec_17_1207,N-Back (New Version 2021),2021.1.4,120.135128
,,,,Conditions/Version_1/zeroback(3)_v1.xlsx,New rule: Press 'space' when you see the letter 'x' or 'X'.,m,None,,,,,,,,,0,9,9,9,0,3,3,3,,,,,,,,,,,,,,,,,,,,,,,,,,,,,,,,,,,,,,,,,,,,,,,,,,,,,,,,,,,,,,,,,,,,,1.2828,1051.816401,None,None,1,1051.816401,None,,P021,fencog,2,Post,2021_Dec_17_1207,N-Back (New Version 2021),2021.1.4,120.135128
,,,,Conditions/Version_1/zeroback(3)_v1.xlsx,New rule: Press 'space' when you see the letter 'x' or 'X'.,o,None,,,,,,,,,0,9,9,9,0,4,4,4,,,,,,,,,,,,,,,,,,,,,,,,,,,,,,,,,,,,,,,,,,,,,,,,,,,,,,,,,,,,,,,,,,,,,1.7044,1055.523721,None,None,1,1055.523721,None,,P021,fencog,2,Post,2021_Dec_17_1207,N-Back (New Version 2021),2021.1.4,120.135128
,,,,Conditions/Version_1/zeroback(3)_v1.xlsx,New rule: Press 'space' when you see the letter 'x' or 'X'.,p,None,,,,,,,,,0,9,9,9,0,5,5,5,,,,,,,,,,,,,,,,,,,,,,,,,,,,,,,,,,,,,,,,,,,,,,,,,,,,,,,,,,,,,,,,,,,,,1.4688,1058.998787,None,None,1,1058.998787,None,,P021,fencog,2,Post,2021_Dec_17_1207,N-Back (New Version 2021),2021.1.4,120.135128
,,,,Conditions/Version_1/zeroback(3)_v1.xlsx,New rule: Press 'space' when you see the letter 'x' or 'X'.,G,None,,,,,,,,,0,9,9,9,0,6,6,6,,,,,,,,,,,,,,,,,,,,,,,,,,,,,,,,,,,,,,,,,,,,,,,,,,,,,,,,,,,,,,,,,,,,,1.4378,1062.439384,None,None,1,1062.439384,None,,P021,fencog,2,Post,2021_Dec_17_1207,N-Back (New Version 2021),2021.1.4,120.135128
,,,,Conditions/Version_1/zeroback(3)_v1.xlsx,New rule: Press 'space' when you see the letter 'x' or 'X'.,X,space,,,,,,,,,0,9,9,9,0,7,7,7,,,,,,,,,,,,,,,,,,,,,,,,,,,,,,,,,,,,,,,,,,,,,,,,,,,,,,,,,,,,,,,,,,,,,1.5866,1066.029874,None,space,1,1066.029874,None,0.3950439,P021,fencog,2,Post,2021_Dec_17_1207,N-Back (New Version 2021),2021.1.4,120.135128
,,,,Conditions/Version_1/zeroback(3)_v1.xlsx,New rule: Press 'space' when you see the letter 'x' or 'X'.,p,None,,,,,,,,,0,9,9,9,0,8,8,8,,,,,,,,,,,,,,,,,,,,,,,,,,,,,,,,,,,,,,,,,,,,,,,,,,,,,,,,,,,,,,,,,,,,,1.2642,1069.304145,None,None,1,1069.304145,None,,P021,fencog,2,Post,2021_Dec_17_1207,N-Back (New Version 2021),2021.1.4,120.135128
,,,,Conditions/Version_1/zeroback(3)_v1.xlsx,New rule: Press 'space' when you see the letter 'x' or 'X'.,x,space,,,,,,,,,0,9,9,9,0,9,9,9,,,,,,,,,,,,,,,,,,,,,,,,,,,,,,,,,,,,,,,,,,,,,,,,,,,,,,,,,,,,,,,,,,,,,1.8284,1073.143589,None,space,1,1073.143589,None,0.353304,P021,fencog,2,Post,2021_Dec_17_1207,N-Back (New Version 2021),2021.1.4,120.135128
,,,,Conditions/Version_1/zeroback(3)_v1.xlsx,New rule: Press 'space' when you see the letter 'x' or 'X'.,,,,,,,,,,,0,9,9,9,,,,,,,,,,,,,,,,,,,,,,,,,,,,,,,,,,,,,,,,,,,,,,,,,,,,,,,,,,,,,,,,,,,,,,,,,,,,,,,,,P021,fencog,2,Post,2021_Dec_17_1207,N-Back (New Version 2021),2021.1.4,120.135128
,,,,Conditions/Version_1/twoback(3)_v1.xlsx,New rule: Press 'space' when you see 2-back (i.e. the same letter as the one that appeared 2 letters ago.),e,None,,,,,,,,,0,10,10,10,0,0,0,0,,,,,,,,,,,,,,,,,,,,,,,,,,,,,,,,,,,,,,,,,,,,,,,,,,,,,,,,,,,1075.164207,None,1078.153721,None,space,1.7672618,1078.153721,None,1075.164207,None,1.6672,1081.616111,None,None,1,1081.616111,None,,P021,fencog,2,Post,2021_Dec_17_1207,N-Back (New Version 2021),2021.1.4,120.135128
,,,,Conditions/Version_1/twoback(3)_v1.xlsx,New rule: Press 'space' when you see 2-back (i.e. the same letter as the one that appeared 2 letters ago.),o,None,,,,,,,,,0,10,10,10,0,1,1,1,,,,,,,,,,,,,,,,,,,,,,,,,,,,,,,,,,,,,,,,,,,,,,,,,,,,,,,,,,,,,,,,,,,,,1.2518,1084.877038,None,None,1,1084.877038,None,,P021,fencog,2,Post,2021_Dec_17_1207,N-Back (New Version 2021),2021.1.4,120.135128
,,,,Conditions/Version_1/twoback(3)_v1.xlsx,New rule: Press 'space' when you see 2-back (i.e. the same letter as the one that appeared 2 letters ago.),P,None,,,,,,,,,0,10,10,10,0,2,2,2,,,,,,,,,,,,,,,,,,,,,,,,,,,,,,,,,,,,,,,,,,,,,,,,,,,,,,,,,,,,,,,,,,,,,1.3572,1088.246969,None,None,1,1088.246969,None,,P021,fencog,2,Post,2021_Dec_17_1207,N-Back (New Version 2021),2021.1.4,120.135128
,,,,Conditions/Version_1/twoback(3)_v1.xlsx,New rule: Press 'space' when you see 2-back (i.e. the same letter as the one that appeared 2 letters ago.),z,None,,,,,,,,,0,10,10,10,0,3,3,3,,,,,,,,,,,,,,,,,,,,,,,,,,,,,,,,,,,,,,,,,,,,,,,,,,,,,,,,,,,,,,,,,,,,,1.2332,1091.482129,None,None,1,1091.482129,None,,P021,fencog,2,Post,2021_Dec_17_1207,N-Back (New Version 2021),2021.1.4,120.135128
,,,,Conditions/Version_1/twoback(3)_v1.xlsx,New rule: Press 'space' when you see 2-back (i.e. the same letter as the one that appeared 2 letters ago.),X,None,,,,,,,,,0,10,10,10,0,4,4,4,,,,,,,,,,,,,,,,,,,,,,,,,,,,,,,,,,,,,,,,,,,,,,,,,,,,,,,,,,,,,,,,,,,,,1.63,1095.126961,None,None,1,1095.126961,None,,P021,fencog,2,Post,2021_Dec_17_1207,N-Back (New Version 2021),2021.1.4,120.135128
,,,,Conditions/Version_1/twoback(3)_v1.xlsx,New rule: Press 'space' when you see 2-back (i.e. the same letter as the one that appeared 2 letters ago.),z,space,,,,,,,,,0,10,10,10,0,5,5,5,,,,,,,,,,,,,,,,,,,,,,,,,,,,,,,,,,,,,,,,,,,,,,,,,,,,,,,,,,,,,,,,,,,,,1.351,1098.478052,None,space,1,1098.478052,None,0.7868382,P021,fencog,2,Post,2021_Dec_17_1207,N-Back (New Version 2021),2021.1.4,120.135128
,,,,Conditions/Version_1/twoback(3)_v1.xlsx,New rule: Press 'space' when you see 2-back (i.e. the same letter as the one that appeared 2 letters ago.),x,space,,,,,,,,,0,10,10,10,0,6,6,6,,,,,,,,,,,,,,,,,,,,,,,,,,,,,,,,,,,,,,,,,,,,,,,,,,,,,,,,,,,,,,,,,,,,,1.6114,1102.093339,None,space,1,1102.093339,None,0.5637608,P021,fencog,2,Post,2021_Dec_17_1207,N-Back (New Version 2021),2021.1.4,120.135128
,,,,Conditions/Version_1/twoback(3)_v1.xlsx,New rule: Press 'space' when you see 2-back (i.e. the same letter as the one that appeared 2 letters ago.),c,None,,,,,,,,,0,10,10,10,0,7,7,7,,,,,,,,,,,,,,,,,,,,,,,,,,,,,,,,,,,,,,,,,,,,,,,,,,,,,,,,,,,,,,,,,,,,,1.4316,1105.533908,None,None,1,1105.533908,None,,P021,fencog,2,Post,2021_Dec_17_1207,N-Back (New Version 2021),2021.1.4,120.135128
,,,,Conditions/Version_1/twoback(3)_v1.xlsx,New rule: Press 'space' when you see 2-back (i.e. the same letter as the one that appeared 2 letters ago.),i,None,,,,,,,,,0,10,10,10,0,8,8,8,,,,,,,,,,,,,,,,,,,,,,,,,,,,,,,,,,,,,,,,,,,,,,,,,,,,,,,,,,,,,,,,,,,,,1.1898,1108.727455,None,None,1,1108.727455,None,,P021,fencog,2,Post,2021_Dec_17_1207,N-Back (New Version 2021),2021.1.4,120.135128
,,,,Conditions/Version_1/twoback(3)_v1.xlsx,New rule: Press 'space' when you see 2-back (i.e. the same letter as the one that appeared 2 letters ago.),C,space,,,,,,,,,0,10,10,10,0,9,9,9,,,,,,,,,,,,,,,,,,,,,,,,,,,,,,,,,,,,,,,,,,,,,,,,,,,,,,,,,,,,,,,,,,,,,1.1588,1111.893914,None,space,1,1111.893914,None,0.5468416,P021,fencog,2,Post,2021_Dec_17_1207,N-Back (New Version 2021),2021.1.4,120.135128
,,,,Conditions/Version_1/twoback(3)_v1.xlsx,New rule: Press 'space' when you see 2-back (i.e. the same letter as the one that appeared 2 letters ago.),,,,,,,,,,,0,10,10,10,,,,,,,,,,,,,,,,,,,,,,,,,,,,,,,,,,,,,,,,,,,,,,,,,,,,,,,,,,,,,,,,,,,,,,,,,,,,,,,,,P021,fencog,2,Post,2021_Dec_17_1207,N-Back (New Version 2021),2021.1.4,120.135128
,,,,Conditions/Version_1/oneback(3)_v1.xlsx,New rule: Press 'space' when you see 1-back (i.e. the same letter as the one that appeared 1 letter ago.),o,None,,,,,,,,,0,11,11,11,0,0,0,0,,,,,,,,,,,,,,,,,,,,,,,,,,,,,,,,,,,,,,,,,,,,,,,,,,,,,,,,,,,1113.922321,None,1116.909492,None,space,0.2675704,1116.909492,None,1113.922321,None,1.3696,1118.580119,None,None,1,1118.580119,None,,P021,fencog,2,Post,2021_Dec_17_1207,N-Back (New Version 2021),2021.1.4,120.135128
,,,,Conditions/Version_1/oneback(3)_v1.xlsx,New rule: Press 'space' when you see 1-back (i.e. the same letter as the one that appeared 1 letter ago.),O,space,,,,,,,,,0,11,11,11,0,1,1,1,,,,,,,,,,,,,,,,,,,,,,,,,,,,,,,,,,,,,,,,,,,,,,,,,,,,,,,,,,,,,,,,,,,,,1.7478,1122.330066,None,space,1,1122.330066,None,0.3906621,P021,fencog,2,Post,2021_Dec_17_1207,N-Back (New Version 2021),2021.1.4,120.135128
,,,,Conditions/Version_1/oneback(3)_v1.xlsx,New rule: Press 'space' when you see 1-back (i.e. the same letter as the one that appeared 1 letter ago.),h,None,,,,,,,,,0,11,11,11,0,2,2,2,,,,,,,,,,,,,,,,,,,,,,,,,,,,,,,,,,,,,,,,,,,,,,,,,,,,,,,,,,,,,,,,,,,,,1.9958,1126.336905,None,None,1,1126.336905,None,,P021,fencog,2,Post,2021_Dec_17_1207,N-Back (New Version 2021),2021.1.4,120.135128
,,,,Conditions/Version_1/oneback(3)_v1.xlsx,New rule: Press 'space' when you see 1-back (i.e. the same letter as the one that appeared 1 letter ago.),g,None,,,,,,,,,0,11,11,11,0,3,3,3,,,,,,,,,,,,,,,,,,,,,,,,,,,,,,,,,,,,,,,,,,,,,,,,,,,,,,,,,,,,,,,,,,,,,1.7726,1130.118396,None,None,1,1130.118396,None,,P021,fencog,2,Post,2021_Dec_17_1207,N-Back (New Version 2021),2021.1.4,120.135128
,,,,Conditions/Version_1/oneback(3)_v1.xlsx,New rule: Press 'space' when you see 1-back (i.e. the same letter as the one that appeared 1 letter ago.),n,None,,,,,,,,,0,11,11,11,0,4,4,4,,,,,,,,,,,,,,,,,,,,,,,,,,,,,,,,,,,,,,,,,,,,,,,,,,,,,,,,,,,,,,,,,,,,,1.8904,1134.009038,None,None,1,1134.009038,None,,P021,fencog,2,Post,2021_Dec_17_1207,N-Back (New Version 2021),2021.1.4,120.135128
,,,,Conditions/Version_1/oneback(3)_v1.xlsx,New rule: Press 'space' when you see 1-back (i.e. the same letter as the one that appeared 1 letter ago.),z,None,,,,,,,,,0,11,11,11,0,5,5,5,,,,,,,,,,,,,,,,,,,,,,,,,,,,,,,,,,,,,,,,,,,,,,,,,,,,,,,,,,,,,,,,,,,,,1.847,1137.866833,None,None,1,1137.866833,None,,P021,fencog,2,Post,2021_Dec_17_1207,N-Back (New Version 2021),2021.1.4,120.135128
,,,,Conditions/Version_1/oneback(3)_v1.xlsx,New rule: Press 'space' when you see 1-back (i.e. the same letter as the one that appeared 1 letter ago.),X,None,,,,,,,,,0,11,11,11,0,6,6,6,,,,,,,,,,,,,,,,,,,,,,,,,,,,,,,,,,,,,,,,,,,,,,,,,,,,,,,,,,,,,,,,,,,,,1.661,1141.54116,None,None,1,1141.54116,None,,P021,fencog,2,Post,2021_Dec_17_1207,N-Back (New Version 2021),2021.1.4,120.135128
,,,,Conditions/Version_1/oneback(3)_v1.xlsx,New rule: Press 'space' when you see 1-back (i.e. the same letter as the one that appeared 1 letter ago.),r,None,,,,,,,,,0,11,11,11,0,7,7,7,,,,,,,,,,,,,,,,,,,,,,,,,,,,,,,,,,,,,,,,,,,,,,,,,,,,,,,,,,,,,,,,,,,,,1.9276,1145.480367,None,None,1,1145.480367,None,,P021,fencog,2,Post,2021_Dec_17_1207,N-Back (New Version 2021),2021.1.4,120.135128
,,,,Conditions/Version_1/oneback(3)_v1.xlsx,New rule: Press 'space' when you see 1-back (i.e. the same letter as the one that appeared 1 letter ago.),r,space,,,,,,,,,0,11,11,11,0,8,8,8,,,,,,,,,,,,,,,,,,,,,,,,,,,,,,,,,,,,,,,,,,,,,,,,,,,,,,,,,,,,,,,,,,,,,1.2828,1148.762937,None,space,1,1148.762937,None,0.461881,P021,fencog,2,Post,2021_Dec_17_1207,N-Back (New Version 2021),2021.1.4,120.135128
,,,,Conditions/Version_1/oneback(3)_v1.xlsx,New rule: Press 'space' when you see 1-back (i.e. the same letter as the one that appeared 1 letter ago.),P,None,,,,,,,,,0,11,11,11,0,9,9,9,,,,,,,,,,,,,,,,,,,,,,,,,,,,,,,,,,,,,,,,,,,,,,,,,,,,,,,,,,,,,,,,,,,,,1.2456,1152.013259,None,None,1,1152.013259,None,,P021,fencog,2,Post,2021_Dec_17_1207,N-Back (New Version 2021),2021.1.4,120.135128
,,,,Conditions/Version_1/oneback(3)_v1.xlsx,New rule: Press 'space' when you see 1-back (i.e. the same letter as the one that appeared 1 letter ago.),,,,,,,,,,,0,11,11,11,,,,,,,,,,,,,,,,,,,,,,,,,,,,,,,,,,,,,,,,,,,,,,,,,,,,,,,,,,,,,,,,,,,,,,,,,,,,,,,,,P021,fencog,2,Post,2021_Dec_17_1207,N-Back (New Version 2021),2021.1.4,120.135128
,,,,Conditions/Version_1/twoback(4)_v1.xlsx,New rule: Press 'space' when you see 2-back (i.e. the same letter as the one that appeared 2 letters ago.),r,None,,,,,,,,,0,12,12,12,0,0,0,0,,,,,,,,,,,,,,,,,,,,,,,,,,,,,,,,,,,,,,,,,,,,,,,,,,,,,,,,,,,1154.041973,None,1157.029429,None,space,2.4593863,1157.029429,None,1154.041973,None,1.5556,1161.109119,None,None,1,1161.109119,None,,P021,fencog,2,Post,2021_Dec_17_1207,N-Back (New Version 2021),2021.1.4,120.135128
,,,,Conditions/Version_1/twoback(4)_v1.xlsx,New rule: Press 'space' when you see 2-back (i.e. the same letter as the one that appeared 2 letters ago.),T,None,,,,,,,,,0,12,12,12,0,1,1,1,,,,,,,,,,,,,,,,,,,,,,,,,,,,,,,,,,,,,,,,,,,,,,,,,,,,,,,,,,,,,,,,,,,,,1.6052,1164.718479,None,None,1,1164.718479,None,,P021,fencog,2,Post,2021_Dec_17_1207,N-Back (New Version 2021),2021.1.4,120.135128
,,,,Conditions/Version_1/twoback(4)_v1.xlsx,New rule: Press 'space' when you see 2-back (i.e. the same letter as the one that appeared 2 letters ago.),o,None,,,,,,,,,0,12,12,12,0,2,2,2,,,,,,,,,,,,,,,,,,,,,,,,,,,,,,,,,,,,,,,,,,,,,,,,,,,,,,,,,,,,,,,,,,,,,1.1836,1167.915499,None,None,1,1167.915499,None,,P021,fencog,2,Post,2021_Dec_17_1207,N-Back (New Version 2021),2021.1.4,120.135128
,,,,Conditions/Version_1/twoback(4)_v1.xlsx,New rule: Press 'space' when you see 2-back (i.e. the same letter as the one that appeared 2 letters ago.),p,None,,,,,,,,,0,12,12,12,0,3,3,3,,,,,,,,,,,,,,,,,,,,,,,,,,,,,,,,,,,,,,,,,,,,,,,,,,,,,,,,,,,,,,,,,,,,,1.3572,1171.272765,None,None,1,1171.272765,None,,P021,fencog,2,Post,2021_Dec_17_1207,N-Back (New Version 2021),2021.1.4,120.135128
,,,,Conditions/Version_1/twoback(4)_v1.xlsx,New rule: Press 'space' when you see 2-back (i.e. the same letter as the one that appeared 2 letters ago.),p,None,,,,,,,,,0,12,12,12,0,4,4,4,,,,,,,,,,,,,,,,,,,,,,,,,,,,,,,,,,,,,,,,,,,,,,,,,,,,,,,,,,,,,,,,,,,,,1.4998,1174.771964,None,None,1,1174.771964,None,,P021,fencog,2,Post,2021_Dec_17_1207,N-Back (New Version 2021),2021.1.4,120.135128
,,,,Conditions/Version_1/twoback(4)_v1.xlsx,New rule: Press 'space' when you see 2-back (i.e. the same letter as the one that appeared 2 letters ago.),y,None,,,,,,,,,0,12,12,12,0,5,5,5,,,,,,,,,,,,,,,,,,,,,,,,,,,,,,,,,,,,,,,,,,,,,,,,,,,,,,,,,,,,,,,,,,,,,1.258,1178.029181,None,None,1,1178.029181,None,,P021,fencog,2,Post,2021_Dec_17_1207,N-Back (New Version 2021),2021.1.4,120.135128
,,,,Conditions/Version_1/twoback(4)_v1.xlsx,New rule: Press 'space' when you see 2-back (i.e. the same letter as the one that appeared 2 letters ago.),P,space,,,,,,,,,0,12,12,12,0,6,6,6,,,,,,,,,,,,,,,,,,,,,,,,,,,,,,,,,,,,,,,,,,,,,,,,,,,,,,,,,,,,,,,,,,,,,1.7974,1181.829298,None,space,1,1181.829298,None,0.6755876,P021,fencog,2,Post,2021_Dec_17_1207,N-Back (New Version 2021),2021.1.4,120.135128
,,,,Conditions/Version_1/twoback(4)_v1.xlsx,New rule: Press 'space' when you see 2-back (i.e. the same letter as the one that appeared 2 letters ago.),y,None,,,,,,,,,0,12,12,12,0,7,7,7,,,,,,,,,,,,,,,,,,,,,,,,,,,,,,,,,,,,,,,,,,,,,,,,,,,,,,,,,,,,,,,,,,,,,1.0658,1184.902137,None,space,0,1184.902137,None,0.770553,P021,fencog,2,Post,2021_Dec_17_1207,N-Back (New Version 2021),2021.1.4,120.135128
,,,,Conditions/Version_1/twoback(4)_v1.xlsx,New rule: Press 'space' when you see 2-back (i.e. the same letter as the one that appeared 2 letters ago.),y,space,,,,,,,,,0,12,12,12,0,8,8,8,,,,,,,,,,,,,,,,,,,,,,,,,,,,,,,,,,,,,,,,,,,,,,,,,,,,,,,,,,,,,,,,,,,,,1.8656,1188.767702,None,None,0,1188.767702,None,,P021,fencog,2,Post,2021_Dec_17_1207,N-Back (New Version 2021),2021.1.4,120.135128
,,,,Conditions/Version_1/twoback(4)_v1.xlsx,New rule: Press 'space' when you see 2-back (i.e. the same letter as the one that appeared 2 letters ago.),,,,,,,,,,,0,12,12,12,,,,,,,,,,,,,,,,,,,,,,,,,,,,,,,,,,,,,,,,,,,,,,,,,,,,,,,,,,,,,,,,,,,,,,,,,,,,,,,,,P021,fencog,2,Post,2021_Dec_17_1207,N-Back (New Version 2021),2021.1.4,120.135128
,,,,Conditions/Version_1/zeroback(4)_v1.xlsx,New rule: Press 'space' when you see the letter 'x' or 'X'.,o,None,,,,,,,,,0,13,13,13,0,0,0,0,,,,,,,,,,,,,,,,,,,,,,,,,,,,,,,,,,,,,,,,,,,,,,,,,,,,,,,,,,,1190.798877,None,1193.776148,None,space,0.3046465,1193.776148,None,1190.798877,None,1.3944,1195.506791,None,None,1,1195.506791,None,,P021,fencog,2,Post,2021_Dec_17_1207,N-Back (New Version 2021),2021.1.4,120.135128
,,,,Conditions/Version_1/zeroback(4)_v1.xlsx,New rule: Press 'space' when you see the letter 'x' or 'X'.,X,space,,,,,,,,,0,13,13,13,0,1,1,1,,,,,,,,,,,,,,,,,,,,,,,,,,,,,,,,,,,,,,,,,,,,,,,,,,,,,,,,,,,,,,,,,,,,,1.2456,1198.756327,None,space,1,1198.756327,None,0.3963266,P021,fencog,2,Post,2021_Dec_17_1207,N-Back (New Version 2021),2021.1.4,120.135128
,,,,Conditions/Version_1/zeroback(4)_v1.xlsx,New rule: Press 'space' when you see the letter 'x' or 'X'.,p,None,,,,,,,,,0,13,13,13,0,2,2,2,,,,,,,,,,,,,,,,,,,,,,,,,,,,,,,,,,,,,,,,,,,,,,,,,,,,,,,,,,,,,,,,,,,,,1.847,1202.606058,None,None,1,1202.606058,None,,P021,fencog,2,Post,2021_Dec_17_1207,N-Back (New Version 2021),2021.1.4,120.135128
,,,,Conditions/Version_1/zeroback(4)_v1.xlsx,New rule: Press 'space' when you see the letter 'x' or 'X'.,m,None,,,,,,,,,0,13,13,13,0,3,3,3,,,,,,,,,,,,,,,,,,,,,,,,,,,,,,,,,,,,,,,,,,,,,,,,,,,,,,,,,,,,,,,,,,,,,1.3882,1206.006405,None,None,1,1206.006405,None,,P021,fencog,2,Post,2021_Dec_17_1207,N-Back (New Version 2021),2021.1.4,120.135128
,,,,Conditions/Version_1/zeroback(4)_v1.xlsx,New rule: Press 'space' when you see the letter 'x' or 'X'.,n,None,,,,,,,,,0,13,13,13,0,4,4,4,,,,,,,,,,,,,,,,,,,,,,,,,,,,,,,,,,,,,,,,,,,,,,,,,,,,,,,,,,,,,,,,,,,,,1.8532,1209.876616,None,None,1,1209.876616,None,,P021,fencog,2,Post,2021_Dec_17_1207,N-Back (New Version 2021),2021.1.4,120.135128
,,,,Conditions/Version_1/zeroback(4)_v1.xlsx,New rule: Press 'space' when you see the letter 'x' or 'X'.,m,None,,,,,,,,,0,13,13,13,0,5,5,5,,,,,,,,,,,,,,,,,,,,,,,,,,,,,,,,,,,,,,,,,,,,,,,,,,,,,,,,,,,,,,,,,,,,,1.2394,1213.119717,None,None,1,1213.119717,None,,P021,fencog,2,Post,2021_Dec_17_1207,N-Back (New Version 2021),2021.1.4,120.135128
,,,,Conditions/Version_1/zeroback(4)_v1.xlsx,New rule: Press 'space' when you see the letter 'x' or 'X'.,C,None,,,,,,,,,0,13,13,13,0,6,6,6,,,,,,,,,,,,,,,,,,,,,,,,,,,,,,,,,,,,,,,,,,,,,,,,,,,,,,,,,,,,,,,,,,,,,1.6548,1216.784289,None,None,1,1216.784289,None,,P021,fencog,2,Post,2021_Dec_17_1207,N-Back (New Version 2021),2021.1.4,120.135128
,,,,Conditions/Version_1/zeroback(4)_v1.xlsx,New rule: Press 'space' when you see the letter 'x' or 'X'.,m,None,,,,,,,,,0,13,13,13,0,7,7,7,,,,,,,,,,,,,,,,,,,,,,,,,,,,,,,,,,,,,,,,,,,,,,,,,,,,,,,,,,,,,,,,,,,,,1.94,1220.728326,None,None,1,1220.728326,None,,P021,fencog,2,Post,2021_Dec_17_1207,N-Back (New Version 2021),2021.1.4,120.135128
,,,,Conditions/Version_1/zeroback(4)_v1.xlsx,New rule: Press 'space' when you see the letter 'x' or 'X'.,p,None,,,,,,,,,0,13,13,13,0,8,8,8,,,,,,,,,,,,,,,,,,,,,,,,,,,,,,,,,,,,,,,,,,,,,,,,,,,,,,,,,,,,,,,,,,,,,1.8594,1224.601154,None,None,1,1224.601154,None,,P021,fencog,2,Post,2021_Dec_17_1207,N-Back (New Version 2021),2021.1.4,120.135128
,,,,Conditions/Version_1/zeroback(4)_v1.xlsx,New rule: Press 'space' when you see the letter 'x' or 'X'.,X,space,,,,,,,,,0,13,13,13,0,9,9,9,,,,,,,,,,,,,,,,,,,,,,,,,,,,,,,,,,,,,,,,,,,,,,,,,,,,,,,,,,,,,,,,,,,,,1.9958,1228.608185,None,space,1,1228.608185,None,0.4486935,P021,fencog,2,Post,2021_Dec_17_1207,N-Back (New Version 2021),2021.1.4,120.135128
,,,,Conditions/Version_1/zeroback(4)_v1.xlsx,New rule: Press 'space' when you see the letter 'x' or 'X'.,,,,,,,,,,,0,13,13,13,,,,,,,,,,,,,,,,,,,,,,,,,,,,,,,,,,,,,,,,,,,,,,,,,,,,,,,,,,,,,,,,,,,,,,,,,,,,,,,,,P021,fencog,2,Post,2021_Dec_17_1207,N-Back (New Version 2021),2021.1.4,120.135128
,,,,Conditions/Version_1/oneback(4)_v1.xlsx,New rule: Press 'space' when you see 1-back (i.e. the same letter as the one that appeared 1 letter ago.),w,None,,,,,,,,,0,14,14,14,0,0,0,0,,,,,,,,,,,,,,,,,,,,,,,,,,,,,,,,,,,,,,,,,,,,,,,,,,,,,,,,,,,1230.645622,None,1233.623788,None,space,0.8888305,1233.623788,None,1230.645622,None,1.3634,1235.904637,None,None,1,1235.904637,None,,P021,fencog,2,Post,2021_Dec_17_1207,N-Back (New Version 2021),2021.1.4,120.135128
,,,,Conditions/Version_1/oneback(4)_v1.xlsx,New rule: Press 'space' when you see 1-back (i.e. the same letter as the one that appeared 1 letter ago.),q,None,,,,,,,,,0,14,14,14,0,1,1,1,,,,,,,,,,,,,,,,,,,,,,,,,,,,,,,,,,,,,,,,,,,,,,,,,,,,,,,,,,,,,,,,,,,,,1.9276,1239.846939,None,None,1,1239.846939,None,,P021,fencog,2,Post,2021_Dec_17_1207,N-Back (New Version 2021),2021.1.4,120.135128
,,,,Conditions/Version_1/oneback(4)_v1.xlsx,New rule: Press 'space' when you see 1-back (i.e. the same letter as the one that appeared 1 letter ago.),i,None,,,,,,,,,0,14,14,14,0,2,2,2,,,,,,,,,,,,,,,,,,,,,,,,,,,,,,,,,,,,,,,,,,,,,,,,,,,,,,,,,,,,,,,,,,,,,1.6982,1243.554163,None,None,1,1243.554163,None,,P021,fencog,2,Post,2021_Dec_17_1207,N-Back (New Version 2021),2021.1.4,120.135128
,,,,Conditions/Version_1/oneback(4)_v1.xlsx,New rule: Press 'space' when you see 1-back (i.e. the same letter as the one that appeared 1 letter ago.),t,None,,,,,,,,,0,14,14,14,0,3,3,3,,,,,,,,,,,,,,,,,,,,,,,,,,,,,,,,,,,,,,,,,,,,,,,,,,,,,,,,,,,,,,,,,,,,,1.6424,1247.210831,None,None,1,1247.210831,None,,P021,fencog,2,Post,2021_Dec_17_1207,N-Back (New Version 2021),2021.1.4,120.135128
,,,,Conditions/Version_1/oneback(4)_v1.xlsx,New rule: Press 'space' when you see 1-back (i.e. the same letter as the one that appeared 1 letter ago.),v,None,,,,,,,,,0,14,14,14,0,4,4,4,,,,,,,,,,,,,,,,,,,,,,,,,,,,,,,,,,,,,,,,,,,,,,,,,,,,,,,,,,,,,,,,,,,,,1.8594,1251.08434,None,None,1,1251.08434,None,,P021,fencog,2,Post,2021_Dec_17_1207,N-Back (New Version 2021),2021.1.4,120.135128
,,,,Conditions/Version_1/oneback(4)_v1.xlsx,New rule: Press 'space' when you see 1-back (i.e. the same letter as the one that appeared 1 letter ago.),V,space,,,,,,,,,0,14,14,14,0,5,5,5,,,,,,,,,,,,,,,,,,,,,,,,,,,,,,,,,,,,,,,,,,,,,,,,,,,,,,,,,,,,,,,,,,,,,1.8098,1254.907996,None,space,1,1254.907996,None,0.5326637,P021,fencog,2,Post,2021_Dec_17_1207,N-Back (New Version 2021),2021.1.4,120.135128
,,,,Conditions/Version_1/oneback(4)_v1.xlsx,New rule: Press 'space' when you see 1-back (i.e. the same letter as the one that appeared 1 letter ago.),v,space,,,,,,,,,0,14,14,14,0,6,6,6,,,,,,,,,,,,,,,,,,,,,,,,,,,,,,,,,,,,,,,,,,,,,,,,,,,,,,,,,,,,,,,,,,,,,1.5122,1258.43374,None,space,1,1258.43374,None,0.5911594,P021,fencog,2,Post,2021_Dec_17_1207,N-Back (New Version 2021),2021.1.4,120.135128
,,,,Conditions/Version_1/oneback(4)_v1.xlsx,New rule: Press 'space' when you see 1-back (i.e. the same letter as the one that appeared 1 letter ago.),p,None,,,,,,,,,0,14,14,14,0,7,7,7,,,,,,,,,,,,,,,,,,,,,,,,,,,,,,,,,,,,,,,,,,,,,,,,,,,,,,,,,,,,,,,,,,,,,1.2022,1261.638291,None,None,1,1261.638291,None,,P021,fencog,2,Post,2021_Dec_17_1207,N-Back (New Version 2021),2021.1.4,120.135128
,,,,Conditions/Version_1/oneback(4)_v1.xlsx,New rule: Press 'space' when you see 1-back (i.e. the same letter as the one that appeared 1 letter ago.),w,None,,,,,,,,,0,14,14,14,0,8,8,8,,,,,,,,,,,,,,,,,,,,,,,,,,,,,,,,,,,,,,,,,,,,,,,,,,,,,,,,,,,,,,,,,,,,,1.1464,1264.794987,None,None,1,1264.794987,None,,P021,fencog,2,Post,2021_Dec_17_1207,N-Back (New Version 2021),2021.1.4,120.135128
,,,,Conditions/Version_1/oneback(4)_v1.xlsx,New rule: Press 'space' when you see 1-back (i.e. the same letter as the one that appeared 1 letter ago.),W,space,,,,,,,,,0,14,14,14,0,9,9,9,,,,,,,,,,,,,,,,,,,,,,,,,,,,,,,,,,,,,,,,,,,,,,,,,,,,,,,,,,,,,,,,,,,,,1.3386,1268.138239,None,space,1,1268.138239,None,0.4786516,P021,fencog,2,Post,2021_Dec_17_1207,N-Back (New Version 2021),2021.1.4,120.135128
,,,,Conditions/Version_1/oneback(4)_v1.xlsx,New rule: Press 'space' when you see 1-back (i.e. the same letter as the one that appeared 1 letter ago.),,,,,,,,,,,0,14,14,14,,,,,,,,,,,,,,,,,,,,,,,,,,,,,,,,,,,,,,,,,,,,,,,,,,,,,,,,,,,,,,,,,,,,,,,,,,,,,,,,,P021,fencog,2,Post,2021_Dec_17_1207,N-Back (New Version 2021),2021.1.4,120.135128
,,,,Conditions/Version_1/threeback(4)_v1.xlsx,New rule: Press 'space' when you see 3-back (i.e. the same letter as the one that appeared 3 letters ago.),A,None,,,,,,,,,0,15,15,15,0,0,0,0,,,,,,,,,,,,,,,,,,,,,,,,,,,,,,,,,,,,,,,,,,,,,,,,,,,,,,,,,,,1270.164888,None,1273.154036,None,space,3.2307725,1273.154036,None,1270.164888,None,1.6858,1278.102435,None,None,1,1278.102435,None,,P021,fencog,2,Post,2021_Dec_17_1207,N-Back (New Version 2021),2021.1.4,120.135128
,,,,Conditions/Version_1/threeback(4)_v1.xlsx,New rule: Press 'space' when you see 3-back (i.e. the same letter as the one that appeared 3 letters ago.),n,None,,,,,,,,,0,15,15,15,0,1,1,1,,,,,,,,,,,,,,,,,,,,,,,,,,,,,,,,,,,,,,,,,,,,,,,,,,,,,,,,,,,,,,,,,,,,,1.2642,1281.374945,None,None,1,1281.374945,None,,P021,fencog,2,Post,2021_Dec_17_1207,N-Back (New Version 2021),2021.1.4,120.135128
,,,,Conditions/Version_1/threeback(4)_v1.xlsx,New rule: Press 'space' when you see 3-back (i.e. the same letter as the one that appeared 3 letters ago.),g,None,,,,,,,,,0,15,15,15,0,2,2,2,,,,,,,,,,,,,,,,,,,,,,,,,,,,,,,,,,,,,,,,,,,,,,,,,,,,,,,,,,,,,,,,,,,,,1.971,1285.355692,None,None,1,1285.355692,None,,P021,fencog,2,Post,2021_Dec_17_1207,N-Back (New Version 2021),2021.1.4,120.135128
,,,,Conditions/Version_1/threeback(4)_v1.xlsx,New rule: Press 'space' when you see 3-back (i.e. the same letter as the one that appeared 3 letters ago.),A,space,,,,,,,,,0,15,15,15,0,3,3,3,,,,,,,,,,,,,,,,,,,,,,,,,,,,,,,,,,,,,,,,,,,,,,,,,,,,,,,,,,,,,,,,,,,,,1.1774,1288.539046,None,space,1,1288.539046,None,0.5576081,P021,fencog,2,Post,2021_Dec_17_1207,N-Back (New Version 2021),2021.1.4,120.135128
,,,,Conditions/Version_1/threeback(4)_v1.xlsx,New rule: Press 'space' when you see 3-back (i.e. the same letter as the one that appeared 3 letters ago.),p,None,,,,,,,,,0,15,15,15,0,4,4,4,,,,,,,,,,,,,,,,,,,,,,,,,,,,,,,,,,,,,,,,,,,,,,,,,,,,,,,,,,,,,,,,,,,,,1.6734,1292.222688,None,None,1,1292.222688,None,,P021,fencog,2,Post,2021_Dec_17_1207,N-Back (New Version 2021),2021.1.4,120.135128
,,,,Conditions/Version_1/threeback(4)_v1.xlsx,New rule: Press 'space' when you see 3-back (i.e. the same letter as the one that appeared 3 letters ago.),O,None,,,,,,,,,0,15,15,15,0,5,5,5,,,,,,,,,,,,,,,,,,,,,,,,,,,,,,,,,,,,,,,,,,,,,,,,,,,,,,,,,,,,,,,,,,,,,1.7292,1295.96111,None,None,1,1295.96111,None,,P021,fencog,2,Post,2021_Dec_17_1207,N-Back (New Version 2021),2021.1.4,120.135128
,,,,Conditions/Version_1/threeback(4)_v1.xlsx,New rule: Press 'space' when you see 3-back (i.e. the same letter as the one that appeared 3 letters ago.),a,space,,,,,,,,,0,15,15,15,0,6,6,6,,,,,,,,,,,,,,,,,,,,,,,,,,,,,,,,,,,,,,,,,,,,,,,,,,,,,,,,,,,,,,,,,,,,,1.8346,1299.806806,None,space,1,1299.806806,None,0.6098829,P021,fencog,2,Post,2021_Dec_17_1207,N-Back (New Version 2021),2021.1.4,120.135128
,,,,Conditions/Version_1/threeback(4)_v1.xlsx,New rule: Press 'space' when you see 3-back (i.e. the same letter as the one that appeared 3 letters ago.),p,space,,,,,,,,,0,15,15,15,0,7,7,7,,,,,,,,,,,,,,,,,,,,,,,,,,,,,,,,,,,,,,,,,,,,,,,,,,,,,,,,,,,,,,,,,,,,,1.413,1303.225634,None,space,1,1303.225634,None,1.4310653,P021,fencog,2,Post,2021_Dec_17_1207,N-Back (New Version 2021),2021.1.4,120.135128
,,,,Conditions/Version_1/threeback(4)_v1.xlsx,New rule: Press 'space' when you see 3-back (i.e. the same letter as the one that appeared 3 letters ago.),x,None,,,,,,,,,0,15,15,15,0,8,8,8,,,,,,,,,,,,,,,,,,,,,,,,,,,,,,,,,,,,,,,,,,,,,,,,,,,,,,,,,,,,,,,,,,,,,1.8966,1307.127154,None,None,1,1307.127154,None,,P021,fencog,2,Post,2021_Dec_17_1207,N-Back (New Version 2021),2021.1.4,120.135128
,,,,Conditions/Version_1/threeback(4)_v1.xlsx,New rule: Press 'space' when you see 3-back (i.e. the same letter as the one that appeared 3 letters ago.),X,None,,,,,,,,,0,15,15,15,0,9,9,9,,,,,,,,,,,,,,,,,,,,,,,,,,,,,,,,,,,,,,,,,,,,,,,,,,,,,,,,,,,,,,,,,,,,,1.8842,1311.023065,None,None,1,1311.023065,None,,P021,fencog,2,Post,2021_Dec_17_1207,N-Back (New Version 2021),2021.1.4,120.135128
,,,,Conditions/Version_1/threeback(4)_v1.xlsx,New rule: Press 'space' when you see 3-back (i.e. the same letter as the one that appeared 3 letters ago.),,,,,,,,,,,0,15,15,15,,,,,,,,,,,,,,,,,,,,,,,,,,,,,,,,,,,,,,,,,,,,,,,,,,,,,,,,,,,,,,,,,,,,,,,,,,,,,,,,,P021,fencog,2,Post,2021_Dec_17_1207,N-Back (New Version 2021),2021.1.4,120.135128
