CondFileP,InstructionsP,LettersDisplayedP,CorrectnessP,CondFile,Instructions,LettersDisplayed,Correctness,practicetrials.thisRepN,practicetrials.thisTrialN,practicetrials.thisN,practicetrials.thisIndex,InnerLoopPractice.thisRepN,InnerLoopPractice.thisTrialN,InnerLoopPractice.thisN,InnerLoopPractice.thisIndex,trials.thisRepN,trials.thisTrialN,trials.thisN,trials.thisIndex,InnerLoop.thisRepN,InnerLoop.thisTrialN,InnerLoop.thisN,InnerLoop.thisIndex,TaskVersionText.started,TaskVersionText.stopped,InstrKey1.keys,InstrKey1.rt,InstrKey1.started,InstrKey1.stopped,text.started,text.stopped,key_resp_4.keys,key_resp_4.rt,key_resp_4.started,key_resp_4.stopped,text_2.started,text_2.stopped,key_resp_3.keys,key_resp_3.rt,key_resp_3.started,key_resp_3.stopped,text_3.started,text_3.stopped,key_resp_2.keys,key_resp_2.rt,key_resp_2.started,key_resp_2.stopped,PractIn1.started,PractIn1.stopped,PractIn2.started,PractIn2.stopped,PractInstructionPass.keys,PractInstructionPass.rt,PractInstructionPass.started,PractInstructionPass.stopped,PractBlock1.started,PractBlock1.stopped,ISIjitterPractice,ISI_Pract_Fixation.started,ISI_Pract_Fixation.stopped,N_backP.started,N_backP.stopped,KeyPractice.keys,KeyPractice.corr,KeyPractice.started,KeyPractice.stopped,text_4.started,text_4.stopped,KeyPractice.rt,TransitionText.started,TransitionText.stopped,key_resp_6.keys,key_resp_6.rt,key_resp_6.started,key_resp_6.stopped,text_5.started,text_5.stopped,key_resp_5.keys,key_resp_5.rt,key_resp_5.started,key_resp_5.stopped,MainInt1.started,MainInt1.stopped,MainInt2.started,MainInt2.stopped,InstructionPass.keys,InstructionPass.rt,InstructionPass.started,InstructionPass.stopped,Blocks1.started,Blocks1.stopped,ISIjitter,N_backD.started,N_backD.stopped,key_resp.keys,key_resp.corr,key_resp.started,key_resp.stopped,key_resp.rt,participant,Study Name,Task Version (required to run),PRE/POST,date,expName,psychopyVersion,frameRate
,,,,,,,,,,,,,,,,,,,,,,,,25.0198512,None,space,77.271201,25.5039224,None,,,,,,,,,,,,,,,,,,,,,,,,,,,,,,,,,,,,,,,,,,,,,,,,,,,,,,,,,,,,,,,,,,,,,,,P022,dencog,1,Pre,2022_Jan_19_1137,N-Back (New Version 2021),2021.1.4,120.2009764
,,,,,,,,,,,,,,,,,,,,,,,,,,,,,,102.8131228,None,space,7.6924612,103.3064587,None,,,,,,,,,,,,,,,,,,,,,,,,,,,,,,,,,,,,,,,,,,,,,,,,,,,,,,,,,,,,,,,,,P022,dencog,1,Pre,2022_Jan_19_1137,N-Back (New Version 2021),2021.1.4,120.2009764
,,,,,,,,,,,,,,,,,,,,,,,,,,,,,,,,,,,,111.0473609,None,space,9.3168879,111.5381194,None,,,,,,,,,,,,,,,,,,,,,,,,,,,,,,,,,,,,,,,,,,,,,,,,,,,,,,,,,,,P022,dencog,1,Pre,2022_Jan_19_1137,N-Back (New Version 2021),2021.1.4,120.2009764
,,,,,,,,,,,,,,,,,,,,,,,,,,,,,,,,,,,,,,,,,,120.8844122,None,space,14.6067122,121.3762567,None,,,,,,,,,,,,,,,,,,,,,,,,,,,,,,,,,,,,,,,,,,,,,,,,,,,,,P022,dencog,1,Pre,2022_Jan_19_1137,N-Back (New Version 2021),2021.1.4,120.2009764
Conditions/Version_1Pr/zeroback(1)_v1.xlsx,Rule: Press 'space' when you see the letter 'x' or 'X'.,Z,None,,,,,0,0,0,0,0,0,0,0,,,,,,,,,,,,,,,,,,,,,,,,,,,,,,,,,137.3902624,None,140.3719457,None,space,0.8189402,140.3719457,None,137.3902624,None,1.79,141.2154773,None,143.0133213,None,None,1,143.0133213,None,145.0198645,None,,,,,,,,,,,,,,,,,,,,,,,,,,,,,,,,P022,dencog,1,Pre,2022_Jan_19_1137,N-Back (New Version 2021),2021.1.4,120.2009764
Conditions/Version_1Pr/zeroback(1)_v1.xlsx,Rule: Press 'space' when you see the letter 'x' or 'X'.,r,None,,,,,0,0,0,0,0,1,1,1,,,,,,,,,,,,,,,,,,,,,,,,,,,,,,,,,,,,,,,,,,,1.39,146.5180669,None,147.9187055,None,None,1,147.9187055,None,149.9167277,None,,,,,,,,,,,,,,,,,,,,,,,,,,,,,,,,P022,dencog,1,Pre,2022_Jan_19_1137,N-Back (New Version 2021),2021.1.4,120.2009764
Conditions/Version_1Pr/zeroback(1)_v1.xlsx,Rule: Press 'space' when you see the letter 'x' or 'X'.,X,space,,,,,0,0,0,0,0,2,2,2,,,,,,,,,,,,,,,,,,,,,,,,,,,,,,,,,,,,,,,,,,,1.99,151.4166469,None,153.4109468,None,space,1,153.4109468,None,153.7914311,None,0.3718738,,,,,,,,,,,,,,,,,,,,,,,,,,,,,,,P022,dencog,1,Pre,2022_Jan_19_1137,N-Back (New Version 2021),2021.1.4,120.2009764
Conditions/Version_1Pr/zeroback(1)_v1.xlsx,Rule: Press 'space' when you see the letter 'x' or 'X'.,p,None,,,,,0,0,0,0,0,3,3,3,,,,,,,,,,,,,,,,,,,,,,,,,,,,,,,,,,,,,,,,,,,1.24,155.2999476,None,156.5438664,None,None,1,156.5438664,None,158.5477835,None,,,,,,,,,,,,,,,,,,,,,,,,,,,,,,,,P022,dencog,1,Pre,2022_Jan_19_1137,N-Back (New Version 2021),2021.1.4,120.2009764
Conditions/Version_1Pr/zeroback(1)_v1.xlsx,Rule: Press 'space' when you see the letter 'x' or 'X'.,w,None,,,,,0,0,0,0,0,4,4,4,,,,,,,,,,,,,,,,,,,,,,,,,,,,,,,,,,,,,,,,,,,1.54,160.0474669,None,161.5890594,None,None,1,161.5890594,None,163.592083,None,,,,,,,,,,,,,,,,,,,,,,,,,,,,,,,,P022,dencog,1,Pre,2022_Jan_19_1137,N-Back (New Version 2021),2021.1.4,120.2009764
Conditions/Version_1Pr/zeroback(1)_v1.xlsx,Rule: Press 'space' when you see the letter 'x' or 'X'.,e,None,,,,,0,0,0,0,0,5,5,5,,,,,,,,,,,,,,,,,,,,,,,,,,,,,,,,,,,,,,,,,,,1.64,165.0959506,None,166.7383781,None,None,1,166.7383781,None,168.744889,None,,,,,,,,,,,,,,,,,,,,,,,,,,,,,,,,P022,dencog,1,Pre,2022_Jan_19_1137,N-Back (New Version 2021),2021.1.4,120.2009764
Conditions/Version_1Pr/zeroback(1)_v1.xlsx,Rule: Press 'space' when you see the letter 'x' or 'X'.,X,space,,,,,0,0,0,0,0,6,6,6,,,,,,,,,,,,,,,,,,,,,,,,,,,,,,,,,,,,,,,,,,,1.69,170.2444459,None,171.9362975,None,space,1,171.9362975,None,172.2954766,None,0.3505534,,,,,,,,,,,,,,,,,,,,,,,,,,,,,,,P022,dencog,1,Pre,2022_Jan_19_1137,N-Back (New Version 2021),2021.1.4,120.2009764
Conditions/Version_1Pr/zeroback(1)_v1.xlsx,Rule: Press 'space' when you see the letter 'x' or 'X'.,x,space,,,,,0,0,0,0,0,7,7,7,,,,,,,,,,,,,,,,,,,,,,,,,,,,,,,,,,,,,,,,,,,1.29,173.8060018,None,175.1020812,None,space,1,175.1020812,None,175.6684577,None,0.5526918,,,,,,,,,,,,,,,,,,,,,,,,,,,,,,,P022,dencog,1,Pre,2022_Jan_19_1137,N-Back (New Version 2021),2021.1.4,120.2009764
Conditions/Version_1Pr/zeroback(1)_v1.xlsx,Rule: Press 'space' when you see the letter 'x' or 'X'.,p,None,,,,,0,0,0,0,0,8,8,8,,,,,,,,,,,,,,,,,,,,,,,,,,,,,,,,,,,,,,,,,,,1.365,177.175335,None,178.5482713,None,None,1,178.5482713,None,180.5495193,None,,,,,,,,,,,,,,,,,,,,,,,,,,,,,,,,P022,dencog,1,Pre,2022_Jan_19_1137,N-Back (New Version 2021),2021.1.4,120.2009764
Conditions/Version_1Pr/zeroback(1)_v1.xlsx,Rule: Press 'space' when you see the letter 'x' or 'X'.,r,None,,,,,0,0,0,0,0,9,9,9,,,,,,,,,,,,,,,,,,,,,,,,,,,,,,,,,,,,,,,,,,,1.665,182.0492772,None,183.7152842,None,None,1,183.7152842,None,185.7187681,None,,,,,,,,,,,,,,,,,,,,,,,,,,,,,,,,P022,dencog,1,Pre,2022_Jan_19_1137,N-Back (New Version 2021),2021.1.4,120.2009764
Conditions/Version_1Pr/zeroback(1)_v1.xlsx,Rule: Press 'space' when you see the letter 'x' or 'X'.,,,,,,,0,0,0,0,,,,,,,,,,,,,,,,,,,,,,,,,,,,,,,,,,,,,,,,,,,,,,,,,,,,,,,,,,,,,,,,,,,,,,,,,,,,,,,,,,,,,,,,,P022,dencog,1,Pre,2022_Jan_19_1137,N-Back (New Version 2021),2021.1.4,120.2009764
Conditions/Version_1Pr/oneback(1)_v1.xlsx,New rule: Press 'space' when you see 1-back (i.e. the same letter as the one that appeared 1 letter ago.),a,None,,,,,0,1,1,1,0,0,0,0,,,,,,,,,,,,,,,,,,,,,,,,,,,,,,,,,187.254485,None,190.2405919,None,space,0.534501,190.2405919,None,187.254485,None,1.99,190.8021905,None,192.7991233,None,None,1,192.7991233,None,194.8082716,None,,,,,,,,,,,,,,,,,,,,,,,,,,,,,,,,P022,dencog,1,Pre,2022_Jan_19_1137,N-Back (New Version 2021),2021.1.4,120.2009764
Conditions/Version_1Pr/oneback(1)_v1.xlsx,New rule: Press 'space' when you see 1-back (i.e. the same letter as the one that appeared 1 letter ago.),x,None,,,,,0,1,1,1,0,1,1,1,,,,,,,,,,,,,,,,,,,,,,,,,,,,,,,,,,,,,,,,,,,1.415,196.3034491,None,197.7195588,None,None,1,197.7195588,None,199.7190719,None,,,,,,,,,,,,,,,,,,,,,,,,,,,,,,,,P022,dencog,1,Pre,2022_Jan_19_1137,N-Back (New Version 2021),2021.1.4,120.2009764
Conditions/Version_1Pr/oneback(1)_v1.xlsx,New rule: Press 'space' when you see 1-back (i.e. the same letter as the one that appeared 1 letter ago.),g,None,,,,,0,1,1,1,0,2,2,2,,,,,,,,,,,,,,,,,,,,,,,,,,,,,,,,,,,,,,,,,,,1.915,201.2186223,None,203.1358951,None,None,1,203.1358951,None,205.1463675,None,,,,,,,,,,,,,,,,,,,,,,,,,,,,,,,,P022,dencog,1,Pre,2022_Jan_19_1137,N-Back (New Version 2021),2021.1.4,120.2009764
Conditions/Version_1Pr/oneback(1)_v1.xlsx,New rule: Press 'space' when you see 1-back (i.e. the same letter as the one that appeared 1 letter ago.),G,space,,,,,0,1,1,1,0,3,3,3,,,,,,,,,,,,,,,,,,,,,,,,,,,,,,,,,,,,,,,,,,,1.29,206.6419334,None,207.9352766,None,space,1,207.9352766,None,208.3536202,None,0.407383,,,,,,,,,,,,,,,,,,,,,,,,,,,,,,,P022,dencog,1,Pre,2022_Jan_19_1137,N-Back (New Version 2021),2021.1.4,120.2009764
Conditions/Version_1Pr/oneback(1)_v1.xlsx,New rule: Press 'space' when you see 1-back (i.e. the same letter as the one that appeared 1 letter ago.),u,None,,,,,0,1,1,1,0,4,4,4,,,,,,,,,,,,,,,,,,,,,,,,,,,,,,,,,,,,,,,,,,,1.465,209.8576411,None,211.3273333,None,None,1,211.3273333,None,213.3315935,None,,,,,,,,,,,,,,,,,,,,,,,,,,,,,,,,P022,dencog,1,Pre,2022_Jan_19_1137,N-Back (New Version 2021),2021.1.4,120.2009764
Conditions/Version_1Pr/oneback(1)_v1.xlsx,New rule: Press 'space' when you see 1-back (i.e. the same letter as the one that appeared 1 letter ago.),y,None,,,,,0,1,1,1,0,5,5,5,,,,,,,,,,,,,,,,,,,,,,,,,,,,,,,,,,,,,,,,,,,1.765,214.830867,None,216.5975853,None,None,1,216.5975853,None,218.5990166,None,,,,,,,,,,,,,,,,,,,,,,,,,,,,,,,,P022,dencog,1,Pre,2022_Jan_19_1137,N-Back (New Version 2021),2021.1.4,120.2009764
Conditions/Version_1Pr/oneback(1)_v1.xlsx,New rule: Press 'space' when you see 1-back (i.e. the same letter as the one that appeared 1 letter ago.),y,space,,,,,0,1,1,1,0,6,6,6,,,,,,,,,,,,,,,,,,,,,,,,,,,,,,,,,,,,,,,,,,,1.89,220.1046293,None,221.9958224,None,space,1,221.9958224,None,222.5961658,None,0.5871946,,,,,,,,,,,,,,,,,,,,,,,,,,,,,,,P022,dencog,1,Pre,2022_Jan_19_1137,N-Back (New Version 2021),2021.1.4,120.2009764
Conditions/Version_1Pr/oneback(1)_v1.xlsx,New rule: Press 'space' when you see 1-back (i.e. the same letter as the one that appeared 1 letter ago.),k,None,,,,,0,1,1,1,0,7,7,7,,,,,,,,,,,,,,,,,,,,,,,,,,,,,,,,,,,,,,,,,,,1.19,224.1033161,None,225.2953263,None,None,1,225.2953263,None,227.3019197,None,,,,,,,,,,,,,,,,,,,,,,,,,,,,,,,,P022,dencog,1,Pre,2022_Jan_19_1137,N-Back (New Version 2021),2021.1.4,120.2009764
Conditions/Version_1Pr/oneback(1)_v1.xlsx,New rule: Press 'space' when you see 1-back (i.e. the same letter as the one that appeared 1 letter ago.),c,None,,,,,0,1,1,1,0,8,8,8,,,,,,,,,,,,,,,,,,,,,,,,,,,,,,,,,,,,,,,,,,,1.79,228.8017816,None,230.594165,None,None,1,230.594165,None,232.5979938,None,,,,,,,,,,,,,,,,,,,,,,,,,,,,,,,,P022,dencog,1,Pre,2022_Jan_19_1137,N-Back (New Version 2021),2021.1.4,120.2009764
Conditions/Version_1Pr/oneback(1)_v1.xlsx,New rule: Press 'space' when you see 1-back (i.e. the same letter as the one that appeared 1 letter ago.),r,None,,,,,0,1,1,1,0,9,9,9,,,,,,,,,,,,,,,,,,,,,,,,,,,,,,,,,,,,,,,,,,,1.94,234.1001539,None,236.0490629,None,None,1,236.0490629,None,238.0494774,None,,,,,,,,,,,,,,,,,,,,,,,,,,,,,,,,P022,dencog,1,Pre,2022_Jan_19_1137,N-Back (New Version 2021),2021.1.4,120.2009764
Conditions/Version_1Pr/oneback(1)_v1.xlsx,New rule: Press 'space' when you see 1-back (i.e. the same letter as the one that appeared 1 letter ago.),,,,,,,0,1,1,1,,,,,,,,,,,,,,,,,,,,,,,,,,,,,,,,,,,,,,,,,,,,,,,,,,,,,,,,,,,,,,,,,,,,,,,,,,,,,,,,,,,,,,,,,P022,dencog,1,Pre,2022_Jan_19_1137,N-Back (New Version 2021),2021.1.4,120.2009764
Conditions/Version_1Pr/twoback(1)_v1.xlsx,New rule: Press 'space' when you see 2-back (i.e. the same letter as the one that appeared 2 letters ago.),E,None,,,,,0,2,2,2,0,0,0,0,,,,,,,,,,,,,,,,,,,,,,,,,,,,,,,,,239.570623,None,242.5586771,None,space,0.2002598,242.5586771,None,239.570623,None,1.24,242.7798457,None,244.0256025,None,None,1,244.0256025,None,246.0301801,None,,,,,,,,,,,,,,,,,,,,,,,,,,,,,,,,P022,dencog,1,Pre,2022_Jan_19_1137,N-Back (New Version 2021),2021.1.4,120.2009764
Conditions/Version_1Pr/twoback(1)_v1.xlsx,New rule: Press 'space' when you see 2-back (i.e. the same letter as the one that appeared 2 letters ago.),p,None,,,,,0,2,2,2,0,1,1,1,,,,,,,,,,,,,,,,,,,,,,,,,,,,,,,,,,,,,,,,,,,1.34,247.5298437,None,248.871812,None,None,1,248.871812,None,250.8715147,None,,,,,,,,,,,,,,,,,,,,,,,,,,,,,,,,P022,dencog,1,Pre,2022_Jan_19_1137,N-Back (New Version 2021),2021.1.4,120.2009764
Conditions/Version_1Pr/twoback(1)_v1.xlsx,New rule: Press 'space' when you see 2-back (i.e. the same letter as the one that appeared 2 letters ago.),e,space,,,,,0,2,2,2,0,2,2,2,,,,,,,,,,,,,,,,,,,,,,,,,,,,,,,,,,,,,,,,,,,1.115,252.3784998,None,253.4946322,None,space,1,253.4946322,None,253.8540864,None,0.3441814,,,,,,,,,,,,,,,,,,,,,,,,,,,,,,,P022,dencog,1,Pre,2022_Jan_19_1137,N-Back (New Version 2021),2021.1.4,120.2009764
Conditions/Version_1Pr/twoback(1)_v1.xlsx,New rule: Press 'space' when you see 2-back (i.e. the same letter as the one that appeared 2 letters ago.),s,None,,,,,0,2,2,2,0,3,3,3,,,,,,,,,,,,,,,,,,,,,,,,,,,,,,,,,,,,,,,,,,,2.015,255.3607199,None,257.3782098,None,None,1,257.3782098,None,259.3762843,None,,,,,,,,,,,,,,,,,,,,,,,,,,,,,,,,P022,dencog,1,Pre,2022_Jan_19_1137,N-Back (New Version 2021),2021.1.4,120.2009764
Conditions/Version_1Pr/twoback(1)_v1.xlsx,New rule: Press 'space' when you see 2-back (i.e. the same letter as the one that appeared 2 letters ago.),S,None,,,,,0,2,2,2,0,4,4,4,,,,,,,,,,,,,,,,,,,,,,,,,,,,,,,,,,,,,,,,,,,1.09,260.875942,None,261.9697274,None,None,1,261.9697274,None,263.9751143,None,,,,,,,,,,,,,,,,,,,,,,,,,,,,,,,,P022,dencog,1,Pre,2022_Jan_19_1137,N-Back (New Version 2021),2021.1.4,120.2009764
Conditions/Version_1Pr/twoback(1)_v1.xlsx,New rule: Press 'space' when you see 2-back (i.e. the same letter as the one that appeared 2 letters ago.),s,space,,,,,0,2,2,2,0,5,5,5,,,,,,,,,,,,,,,,,,,,,,,,,,,,,,,,,,,,,,,,,,,1.165,265.4745882,None,266.6481562,None,space,1,266.6481562,None,267.0440725,None,0.3825671,,,,,,,,,,,,,,,,,,,,,,,,,,,,,,,P022,dencog,1,Pre,2022_Jan_19_1137,N-Back (New Version 2021),2021.1.4,120.2009764
Conditions/Version_1Pr/twoback(1)_v1.xlsx,New rule: Press 'space' when you see 2-back (i.e. the same letter as the one that appeared 2 letters ago.),P,None,,,,,0,2,2,2,0,6,6,6,,,,,,,,,,,,,,,,,,,,,,,,,,,,,,,,,,,,,,,,,,,1.49,268.5487173,None,270.0408781,None,space,0,270.0408781,None,270.4609931,None,0.4059815,,,,,,,,,,,,,,,,,,,,,,,,,,,,,,,P022,dencog,1,Pre,2022_Jan_19_1137,N-Back (New Version 2021),2021.1.4,120.2009764
Conditions/Version_1Pr/twoback(1)_v1.xlsx,New rule: Press 'space' when you see 2-back (i.e. the same letter as the one that appeared 2 letters ago.),C,None,,,,,0,2,2,2,0,7,7,7,,,,,,,,,,,,,,,,,,,,,,,,,,,,,,,,,,,,,,,,,,,1.79,271.9641964,None,273.7573415,None,None,1,273.7573415,None,275.763543,None,,,,,,,,,,,,,,,,,,,,,,,,,,,,,,,,P022,dencog,1,Pre,2022_Jan_19_1137,N-Back (New Version 2021),2021.1.4,120.2009764
Conditions/Version_1Pr/twoback(1)_v1.xlsx,New rule: Press 'space' when you see 2-back (i.e. the same letter as the one that appeared 2 letters ago.),x,None,,,,,0,2,2,2,0,8,8,8,,,,,,,,,,,,,,,,,,,,,,,,,,,,,,,,,,,,,,,,,,,1.465,277.2628205,None,278.7290264,None,None,1,278.7290264,None,280.7281793,None,,,,,,,,,,,,,,,,,,,,,,,,,,,,,,,,P022,dencog,1,Pre,2022_Jan_19_1137,N-Back (New Version 2021),2021.1.4,120.2009764
Conditions/Version_1Pr/twoback(1)_v1.xlsx,New rule: Press 'space' when you see 2-back (i.e. the same letter as the one that appeared 2 letters ago.),Z,None,,,,,0,2,2,2,0,9,9,9,,,,,,,,,,,,,,,,,,,,,,,,,,,,,,,,,,,,,,,,,,,1.065,282.2279074,None,283.2984231,None,None,1,283.2984231,None,285.3021515,None,,,,,,,,,,,,,,,,,,,,,,,,,,,,,,,,P022,dencog,1,Pre,2022_Jan_19_1137,N-Back (New Version 2021),2021.1.4,120.2009764
Conditions/Version_1Pr/twoback(1)_v1.xlsx,New rule: Press 'space' when you see 2-back (i.e. the same letter as the one that appeared 2 letters ago.),,,,,,,0,2,2,2,,,,,,,,,,,,,,,,,,,,,,,,,,,,,,,,,,,,,,,,,,,,,,,,,,,,,,,,,,,,,,,,,,,,,,,,,,,,,,,,,,,,,,,,,P022,dencog,1,Pre,2022_Jan_19_1137,N-Back (New Version 2021),2021.1.4,120.2009764
Conditions/Version_1Pr/threeback(1)_v1.xlsx,New rule: Press 'space' when you see 3-back (i.e. the same letter as the one that appeared 3 letters ago.),r,None,,,,,0,3,3,3,0,0,0,0,,,,,,,,,,,,,,,,,,,,,,,,,,,,,,,,,286.8221427,None,289.8114425,None,space,0.6912482,289.8114425,None,286.8221427,None,1.215,290.5274341,None,291.7423996,None,None,1,291.7423996,None,293.7495657,None,,,,,,,,,,,,,,,,,,,,,,,,,,,,,,,,P022,dencog,1,Pre,2022_Jan_19_1137,N-Back (New Version 2021),2021.1.4,120.2009764
Conditions/Version_1Pr/threeback(1)_v1.xlsx,New rule: Press 'space' when you see 3-back (i.e. the same letter as the one that appeared 3 letters ago.),a,None,,,,,0,3,3,3,0,1,1,1,,,,,,,,,,,,,,,,,,,,,,,,,,,,,,,,,,,,,,,,,,,1.315,295.2491346,None,296.5654072,None,None,1,296.5654072,None,298.5647579,None,,,,,,,,,,,,,,,,,,,,,,,,,,,,,,,,P022,dencog,1,Pre,2022_Jan_19_1137,N-Back (New Version 2021),2021.1.4,120.2009764
Conditions/Version_1Pr/threeback(1)_v1.xlsx,New rule: Press 'space' when you see 3-back (i.e. the same letter as the one that appeared 3 letters ago.),t,None,,,,,0,3,3,3,0,2,2,2,,,,,,,,,,,,,,,,,,,,,,,,,,,,,,,,,,,,,,,,,,,1.99,300.0644338,None,302.0629963,None,None,1,302.0629963,None,304.068942,None,,,,,,,,,,,,,,,,,,,,,,,,,,,,,,,,P022,dencog,1,Pre,2022_Jan_19_1137,N-Back (New Version 2021),2021.1.4,120.2009764
Conditions/Version_1Pr/threeback(1)_v1.xlsx,New rule: Press 'space' when you see 3-back (i.e. the same letter as the one that appeared 3 letters ago.),r,space,,,,,0,3,3,3,0,3,3,3,,,,,,,,,,,,,,,,,,,,,,,,,,,,,,,,,,,,,,,,,,,1.94,305.5625583,None,307.5045677,None,space,1,307.5045677,None,307.9633729,None,0.4461652,,,,,,,,,,,,,,,,,,,,,,,,,,,,,,,P022,dencog,1,Pre,2022_Jan_19_1137,N-Back (New Version 2021),2021.1.4,120.2009764
Conditions/Version_1Pr/threeback(1)_v1.xlsx,New rule: Press 'space' when you see 3-back (i.e. the same letter as the one that appeared 3 letters ago.),a,None,,,,,0,3,3,3,0,4,4,4,,,,,,,,,,,,,,,,,,,,,,,,,,,,,,,,,,,,,,,,,,,1.69,309.4699148,None,311.1635146,None,space,0,311.1635146,None,311.781408,None,0.6033967,,,,,,,,,,,,,,,,,,,,,,,,,,,,,,,P022,dencog,1,Pre,2022_Jan_19_1137,N-Back (New Version 2021),2021.1.4,120.2009764
Conditions/Version_1Pr/threeback(1)_v1.xlsx,New rule: Press 'space' when you see 3-back (i.e. the same letter as the one that appeared 3 letters ago.),Y,None,,,,,0,3,3,3,0,5,5,5,,,,,,,,,,,,,,,,,,,,,,,,,,,,,,,,,,,,,,,,,,,1.29,313.2854988,None,314.579536,None,None,1,314.579536,None,316.5843312,None,,,,,,,,,,,,,,,,,,,,,,,,,,,,,,,,P022,dencog,1,Pre,2022_Jan_19_1137,N-Back (New Version 2021),2021.1.4,120.2009764
Conditions/Version_1Pr/threeback(1)_v1.xlsx,New rule: Press 'space' when you see 3-back (i.e. the same letter as the one that appeared 3 letters ago.),q,None,,,,,0,3,3,3,0,6,6,6,,,,,,,,,,,,,,,,,,,,,,,,,,,,,,,,,,,,,,,,,,,1.49,318.0839431,None,319.5765496,None,None,1,319.5765496,None,321.5828844,None,,,,,,,,,,,,,,,,,,,,,,,,,,,,,,,,P022,dencog,1,Pre,2022_Jan_19_1137,N-Back (New Version 2021),2021.1.4,120.2009764
Conditions/Version_1Pr/threeback(1)_v1.xlsx,New rule: Press 'space' when you see 3-back (i.e. the same letter as the one that appeared 3 letters ago.),A,space,,,,,0,3,3,3,0,7,7,7,,,,,,,,,,,,,,,,,,,,,,,,,,,,,,,,,,,,,,,,,,,1.04,323.0824135,None,324.1265119,None,None,0,324.1265119,None,326.1331801,None,,,,,,,,,,,,,,,,,,,,,,,,,,,,,,,,P022,dencog,1,Pre,2022_Jan_19_1137,N-Back (New Version 2021),2021.1.4,120.2009764
Conditions/Version_1Pr/threeback(1)_v1.xlsx,New rule: Press 'space' when you see 3-back (i.e. the same letter as the one that appeared 3 letters ago.),y,None,,,,,0,3,3,3,0,8,8,8,,,,,,,,,,,,,,,,,,,,,,,,,,,,,,,,,,,,,,,,,,,1.74,327.6309852,None,329.3727192,None,space,0,329.3727192,None,330.2966644,None,0.9061052,,,,,,,,,,,,,,,,,,,,,,,,,,,,,,,P022,dencog,1,Pre,2022_Jan_19_1137,N-Back (New Version 2021),2021.1.4,120.2009764
Conditions/Version_1Pr/threeback(1)_v1.xlsx,New rule: Press 'space' when you see 3-back (i.e. the same letter as the one that appeared 3 letters ago.),r,None,,,,,0,3,3,3,0,9,9,9,,,,,,,,,,,,,,,,,,,,,,,,,,,,,,,,,,,,,,,,,,,1.24,331.79631,None,333.0377432,None,None,1,333.0377432,None,335.0392708,None,,,,,,,,,,,,,,,,,,,,,,,,,,,,,,,,P022,dencog,1,Pre,2022_Jan_19_1137,N-Back (New Version 2021),2021.1.4,120.2009764
Conditions/Version_1Pr/threeback(1)_v1.xlsx,New rule: Press 'space' when you see 3-back (i.e. the same letter as the one that appeared 3 letters ago.),,,,,,,0,3,3,3,,,,,,,,,,,,,,,,,,,,,,,,,,,,,,,,,,,,,,,,,,,,,,,,,,,,,,,,,,,,,,,,,,,,,,,,,,,,,,,,,,,,,,,,,P022,dencog,1,Pre,2022_Jan_19_1137,N-Back (New Version 2021),2021.1.4,120.2009764
,,,,,,,,,,,,,,,,,,,,,,,,,,,,,,,,,,,,,,,,,,,,,,,,,,,,,,,,,,,,,,,,,,,,,,336.5589911,None,space,2.0331448,337.0536398,None,,,,,,,,,,,,,,,,,,,,,,,,,P022,dencog,1,Pre,2022_Jan_19_1137,N-Back (New Version 2021),2021.1.4,120.2009764
,,,,,,,,,,,,,,,,,,,,,,,,,,,,,,,,,,,,,,,,,,,,,,,,,,,,,,,,,,,,,,,,,,,,,,,,,,,,339.1088128,None,space,3.5159564,339.6030778,None,,,,,,,,,,,,,,,,,,,P022,dencog,1,Pre,2022_Jan_19_1137,N-Back (New Version 2021),2021.1.4,120.2009764
,,,,Conditions/Version_1/zeroback(1)_v1.xlsx,Rule: Press 'space' when you see the letter 'x' or 'X'.,b,None,,,,,,,,,0,0,0,0,0,0,0,0,,,,,,,,,,,,,,,,,,,,,,,,,,,,,,,,,,,,,,,,,,,,,,,,,,,,,,,,,,,343.2283197,None,346.219042,None,space,0.9317678,346.219042,None,343.2283197,None,1.8408,349.0169484,None,None,1,349.0169484,None,,P022,dencog,1,Pre,2022_Jan_19_1137,N-Back (New Version 2021),2021.1.4,120.2009764
,,,,Conditions/Version_1/zeroback(1)_v1.xlsx,Rule: Press 'space' when you see the letter 'x' or 'X'.,T,None,,,,,,,,,0,0,0,0,0,1,1,1,,,,,,,,,,,,,,,,,,,,,,,,,,,,,,,,,,,,,,,,,,,,,,,,,,,,,,,,,,,,,,,,,,,,,1.0844,352.116871,None,None,1,352.116871,None,,P022,dencog,1,Pre,2022_Jan_19_1137,N-Back (New Version 2021),2021.1.4,120.2009764
,,,,Conditions/Version_1/zeroback(1)_v1.xlsx,Rule: Press 'space' when you see the letter 'x' or 'X'.,L,None,,,,,,,,,0,0,0,0,0,2,2,2,,,,,,,,,,,,,,,,,,,,,,,,,,,,,,,,,,,,,,,,,,,,,,,,,,,,,,,,,,,,,,,,,,,,,1.9462,356.0741949,None,None,1,356.0741949,None,,P022,dencog,1,Pre,2022_Jan_19_1137,N-Back (New Version 2021),2021.1.4,120.2009764
,,,,Conditions/Version_1/zeroback(1)_v1.xlsx,Rule: Press 'space' when you see the letter 'x' or 'X'.,x,space,,,,,,,,,0,0,0,0,0,3,3,3,,,,,,,,,,,,,,,,,,,,,,,,,,,,,,,,,,,,,,,,,,,,,,,,,,,,,,,,,,,,,,,,,,,,,1.816,359.8969321,None,space,1,359.8969321,None,1.7817862,P022,dencog,1,Pre,2022_Jan_19_1137,N-Back (New Version 2021),2021.1.4,120.2009764
,,,,Conditions/Version_1/zeroback(1)_v1.xlsx,Rule: Press 'space' when you see the letter 'x' or 'X'.,o,None,,,,,,,,,0,0,0,0,0,4,4,4,,,,,,,,,,,,,,,,,,,,,,,,,,,,,,,,,,,,,,,,,,,,,,,,,,,,,,,,,,,,,,,,,,,,,1.971,363.8718662,None,None,1,363.8718662,None,,P022,dencog,1,Pre,2022_Jan_19_1137,N-Back (New Version 2021),2021.1.4,120.2009764
,,,,Conditions/Version_1/zeroback(1)_v1.xlsx,Rule: Press 'space' when you see the letter 'x' or 'X'.,P,None,,,,,,,,,0,0,0,0,0,5,5,5,,,,,,,,,,,,,,,,,,,,,,,,,,,,,,,,,,,,,,,,,,,,,,,,,,,,,,,,,,,,,,,,,,,,,1.1588,367.0369115,None,None,1,367.0369115,None,,P022,dencog,1,Pre,2022_Jan_19_1137,N-Back (New Version 2021),2021.1.4,120.2009764
,,,,Conditions/Version_1/zeroback(1)_v1.xlsx,Rule: Press 'space' when you see the letter 'x' or 'X'.,X,space,,,,,,,,,0,0,0,0,0,6,6,6,,,,,,,,,,,,,,,,,,,,,,,,,,,,,,,,,,,,,,,,,,,,,,,,,,,,,,,,,,,,,,,,,,,,,1.7354,370.7848088,None,space,1,370.7848088,None,1.5338755,P022,dencog,1,Pre,2022_Jan_19_1137,N-Back (New Version 2021),2021.1.4,120.2009764
,,,,Conditions/Version_1/zeroback(1)_v1.xlsx,Rule: Press 'space' when you see the letter 'x' or 'X'.,n,None,,,,,,,,,0,0,0,0,0,7,7,7,,,,,,,,,,,,,,,,,,,,,,,,,,,,,,,,,,,,,,,,,,,,,,,,,,,,,,,,,,,,,,,,,,,,,1.0968,373.893417,None,None,1,373.893417,None,,P022,dencog,1,Pre,2022_Jan_19_1137,N-Back (New Version 2021),2021.1.4,120.2009764
,,,,Conditions/Version_1/zeroback(1)_v1.xlsx,Rule: Press 'space' when you see the letter 'x' or 'X'.,M,None,,,,,,,,,0,0,0,0,0,8,8,8,,,,,,,,,,,,,,,,,,,,,,,,,,,,,,,,,,,,,,,,,,,,,,,,,,,,,,,,,,,,,,,,,,,,,1.6672,377.5761569,None,None,1,377.5761569,None,,P022,dencog,1,Pre,2022_Jan_19_1137,N-Back (New Version 2021),2021.1.4,120.2009764
,,,,Conditions/Version_1/zeroback(1)_v1.xlsx,Rule: Press 'space' when you see the letter 'x' or 'X'.,a,None,,,,,,,,,0,0,0,0,0,9,9,9,,,,,,,,,,,,,,,,,,,,,,,,,,,,,,,,,,,,,,,,,,,,,,,,,,,,,,,,,,,,,,,,,,,,,1.0472,380.6320514,None,None,1,380.6320514,None,,P022,dencog,1,Pre,2022_Jan_19_1137,N-Back (New Version 2021),2021.1.4,120.2009764
,,,,Conditions/Version_1/zeroback(1)_v1.xlsx,Rule: Press 'space' when you see the letter 'x' or 'X'.,,,,,,,,,,,0,0,0,0,,,,,,,,,,,,,,,,,,,,,,,,,,,,,,,,,,,,,,,,,,,,,,,,,,,,,,,,,,,,,,,,,,,,,,,,,,,,,,,,,P022,dencog,1,Pre,2022_Jan_19_1137,N-Back (New Version 2021),2021.1.4,120.2009764
,,,,Conditions/Version_1/oneback(1)_v1.xlsx,New rule: Press 'space' when you see 1-back (i.e. the same letter as the one that appeared 1 letter ago.),b,None,,,,,,,,,0,1,1,1,0,0,0,0,,,,,,,,,,,,,,,,,,,,,,,,,,,,,,,,,,,,,,,,,,,,,,,,,,,,,,,,,,,382.6601921,None,385.6501709,None,space,0.6606956,385.6501709,None,382.6601921,None,1.4316,387.7730972,None,None,1,387.7730972,None,,P022,dencog,1,Pre,2022_Jan_19_1137,N-Back (New Version 2021),2021.1.4,120.2009764
,,,,Conditions/Version_1/oneback(1)_v1.xlsx,New rule: Press 'space' when you see 1-back (i.e. the same letter as the one that appeared 1 letter ago.),p,None,,,,,,,,,0,1,1,1,0,1,1,1,,,,,,,,,,,,,,,,,,,,,,,,,,,,,,,,,,,,,,,,,,,,,,,,,,,,,,,,,,,,,,,,,,,,,1.5866,391.376795,None,None,1,391.376795,None,,P022,dencog,1,Pre,2022_Jan_19_1137,N-Back (New Version 2021),2021.1.4,120.2009764
,,,,Conditions/Version_1/oneback(1)_v1.xlsx,New rule: Press 'space' when you see 1-back (i.e. the same letter as the one that appeared 1 letter ago.),M,None,,,,,,,,,0,1,1,1,0,2,2,2,,,,,,,,,,,,,,,,,,,,,,,,,,,,,,,,,,,,,,,,,,,,,,,,,,,,,,,,,,,,,,,,,,,,,1.7292,395.1188969,None,None,1,395.1188969,None,,P022,dencog,1,Pre,2022_Jan_19_1137,N-Back (New Version 2021),2021.1.4,120.2009764
,,,,Conditions/Version_1/oneback(1)_v1.xlsx,New rule: Press 'space' when you see 1-back (i.e. the same letter as the one that appeared 1 letter ago.),M,space,,,,,,,,,0,1,1,1,0,3,3,3,,,,,,,,,,,,,,,,,,,,,,,,,,,,,,,,,,,,,,,,,,,,,,,,,,,,,,,,,,,,,,,,,,,,,1.5432,398.6682894,None,space,1,398.6682894,None,1.5786715,P022,dencog,1,Pre,2022_Jan_19_1137,N-Back (New Version 2021),2021.1.4,120.2009764
,,,,Conditions/Version_1/oneback(1)_v1.xlsx,New rule: Press 'space' when you see 1-back (i.e. the same letter as the one that appeared 1 letter ago.),n,None,,,,,,,,,0,1,1,1,0,4,4,4,,,,,,,,,,,,,,,,,,,,,,,,,,,,,,,,,,,,,,,,,,,,,,,,,,,,,,,,,,,,,,,,,,,,,1.8222,402.4927313,None,None,1,402.4927313,None,,P022,dencog,1,Pre,2022_Jan_19_1137,N-Back (New Version 2021),2021.1.4,120.2009764
,,,,Conditions/Version_1/oneback(1)_v1.xlsx,New rule: Press 'space' when you see 1-back (i.e. the same letter as the one that appeared 1 letter ago.),g,None,,,,,,,,,0,1,1,1,0,5,5,5,,,,,,,,,,,,,,,,,,,,,,,,,,,,,,,,,,,,,,,,,,,,,,,,,,,,,,,,,,,,,,,,,,,,,1.0348,405.5328218,None,None,1,405.5328218,None,,P022,dencog,1,Pre,2022_Jan_19_1137,N-Back (New Version 2021),2021.1.4,120.2009764
,,,,Conditions/Version_1/oneback(1)_v1.xlsx,New rule: Press 'space' when you see 1-back (i.e. the same letter as the one that appeared 1 letter ago.),P,None,,,,,,,,,0,1,1,1,0,6,6,6,,,,,,,,,,,,,,,,,,,,,,,,,,,,,,,,,,,,,,,,,,,,,,,,,,,,,,,,,,,,,,,,,,,,,1.971,409.5070235,None,None,1,409.5070235,None,,P022,dencog,1,Pre,2022_Jan_19_1137,N-Back (New Version 2021),2021.1.4,120.2009764
,,,,Conditions/Version_1/oneback(1)_v1.xlsx,New rule: Press 'space' when you see 1-back (i.e. the same letter as the one that appeared 1 letter ago.),o,None,,,,,,,,,0,1,1,1,0,7,7,7,,,,,,,,,,,,,,,,,,,,,,,,,,,,,,,,,,,,,,,,,,,,,,,,,,,,,,,,,,,,,,,,,,,,,1.5618,413.0730736,None,None,1,413.0730736,None,,P022,dencog,1,Pre,2022_Jan_19_1137,N-Back (New Version 2021),2021.1.4,120.2009764
,,,,Conditions/Version_1/oneback(1)_v1.xlsx,New rule: Press 'space' when you see 1-back (i.e. the same letter as the one that appeared 1 letter ago.),f,None,,,,,,,,,0,1,1,1,0,8,8,8,,,,,,,,,,,,,,,,,,,,,,,,,,,,,,,,,,,,,,,,,,,,,,,,,,,,,,,,,,,,,,,,,,,,,1.3634,416.4471624,None,None,1,416.4471624,None,,P022,dencog,1,Pre,2022_Jan_19_1137,N-Back (New Version 2021),2021.1.4,120.2009764
,,,,Conditions/Version_1/oneback(1)_v1.xlsx,New rule: Press 'space' when you see 1-back (i.e. the same letter as the one that appeared 1 letter ago.),F,space,,,,,,,,,0,1,1,1,0,9,9,9,,,,,,,,,,,,,,,,,,,,,,,,,,,,,,,,,,,,,,,,,,,,,,,,,,,,,,,,,,,,,,,,,,,,,1.8098,420.2624431,None,space,1,420.2624431,None,1.2804738,P022,dencog,1,Pre,2022_Jan_19_1137,N-Back (New Version 2021),2021.1.4,120.2009764
,,,,Conditions/Version_1/oneback(1)_v1.xlsx,New rule: Press 'space' when you see 1-back (i.e. the same letter as the one that appeared 1 letter ago.),,,,,,,,,,,0,1,1,1,,,,,,,,,,,,,,,,,,,,,,,,,,,,,,,,,,,,,,,,,,,,,,,,,,,,,,,,,,,,,,,,,,,,,,,,,,,,,,,,,P022,dencog,1,Pre,2022_Jan_19_1137,N-Back (New Version 2021),2021.1.4,120.2009764
,,,,Conditions/Version_1/twoback(1)_v1.xlsx,New rule: Press 'space' when you see 2-back (i.e. the same letter as the one that appeared 2 letters ago.),b,None,,,,,,,,,0,2,2,2,0,0,0,0,,,,,,,,,,,,,,,,,,,,,,,,,,,,,,,,,,,,,,,,,,,,,,,,,,,,,,,,,,,422.2819323,None,425.2711067,None,space,9.6233743,425.2711067,None,422.2819323,None,1.6486,436.5741269,None,None,1,436.5741269,None,,P022,dencog,1,Pre,2022_Jan_19_1137,N-Back (New Version 2021),2021.1.4,120.2009764
,,,,Conditions/Version_1/twoback(1)_v1.xlsx,New rule: Press 'space' when you see 2-back (i.e. the same letter as the one that appeared 2 letters ago.),h,None,,,,,,,,,0,2,2,2,0,1,1,1,,,,,,,,,,,,,,,,,,,,,,,,,,,,,,,,,,,,,,,,,,,,,,,,,,,,,,,,,,,,,,,,,,,,,1.2022,439.7935402,None,None,1,439.7935402,None,,P022,dencog,1,Pre,2022_Jan_19_1137,N-Back (New Version 2021),2021.1.4,120.2009764
,,,,Conditions/Version_1/twoback(1)_v1.xlsx,New rule: Press 'space' when you see 2-back (i.e. the same letter as the one that appeared 2 letters ago.),j,None,,,,,,,,,0,2,2,2,0,2,2,2,,,,,,,,,,,,,,,,,,,,,,,,,,,,,,,,,,,,,,,,,,,,,,,,,,,,,,,,,,,,,,,,,,,,,1.3324,443.1317559,None,None,1,443.1317559,None,,P022,dencog,1,Pre,2022_Jan_19_1137,N-Back (New Version 2021),2021.1.4,120.2009764
,,,,Conditions/Version_1/twoback(1)_v1.xlsx,New rule: Press 'space' when you see 2-back (i.e. the same letter as the one that appeared 2 letters ago.),H,space,,,,,,,,,0,2,2,2,0,3,3,3,,,,,,,,,,,,,,,,,,,,,,,,,,,,,,,,,,,,,,,,,,,,,,,,,,,,,,,,,,,,,,,,,,,,,1.041,446.1803137,None,space,1,446.1803137,None,1.1381438,P022,dencog,1,Pre,2022_Jan_19_1137,N-Back (New Version 2021),2021.1.4,120.2009764
,,,,Conditions/Version_1/twoback(1)_v1.xlsx,New rule: Press 'space' when you see 2-back (i.e. the same letter as the one that appeared 2 letters ago.),p,None,,,,,,,,,0,2,2,2,0,4,4,4,,,,,,,,,,,,,,,,,,,,,,,,,,,,,,,,,,,,,,,,,,,,,,,,,,,,,,,,,,,,,,,,,,,,,1.754,449.9447871,None,None,1,449.9447871,None,,P022,dencog,1,Pre,2022_Jan_19_1137,N-Back (New Version 2021),2021.1.4,120.2009764
,,,,Conditions/Version_1/twoback(1)_v1.xlsx,New rule: Press 'space' when you see 2-back (i.e. the same letter as the one that appeared 2 letters ago.),p,None,,,,,,,,,0,2,2,2,0,5,5,5,,,,,,,,,,,,,,,,,,,,,,,,,,,,,,,,,,,,,,,,,,,,,,,,,,,,,,,,,,,,,,,,,,,,,1.1836,453.1357767,None,None,1,453.1357767,None,,P022,dencog,1,Pre,2022_Jan_19_1137,N-Back (New Version 2021),2021.1.4,120.2009764
,,,,Conditions/Version_1/twoback(1)_v1.xlsx,New rule: Press 'space' when you see 2-back (i.e. the same letter as the one that appeared 2 letters ago.),w,None,,,,,,,,,0,2,2,2,0,6,6,6,,,,,,,,,,,,,,,,,,,,,,,,,,,,,,,,,,,,,,,,,,,,,,,,,,,,,,,,,,,,,,,,,,,,,1.3572,456.4931551,None,None,1,456.4931551,None,,P022,dencog,1,Pre,2022_Jan_19_1137,N-Back (New Version 2021),2021.1.4,120.2009764
,,,,Conditions/Version_1/twoback(1)_v1.xlsx,New rule: Press 'space' when you see 2-back (i.e. the same letter as the one that appeared 2 letters ago.),R,None,,,,,,,,,0,2,2,2,0,7,7,7,,,,,,,,,,,,,,,,,,,,,,,,,,,,,,,,,,,,,,,,,,,,,,,,,,,,,,,,,,,,,,,,,,,,,1.227,459.7290492,None,None,1,459.7290492,None,,P022,dencog,1,Pre,2022_Jan_19_1137,N-Back (New Version 2021),2021.1.4,120.2009764
,,,,Conditions/Version_1/twoback(1)_v1.xlsx,New rule: Press 'space' when you see 2-back (i.e. the same letter as the one that appeared 2 letters ago.),a,None,,,,,,,,,0,2,2,2,0,8,8,8,,,,,,,,,,,,,,,,,,,,,,,,,,,,,,,,,,,,,,,,,,,,,,,,,,,,,,,,,,,,,,,,,,,,,1.382,463.1162227,None,None,1,463.1162227,None,,P022,dencog,1,Pre,2022_Jan_19_1137,N-Back (New Version 2021),2021.1.4,120.2009764
,,,,Conditions/Version_1/twoback(1)_v1.xlsx,New rule: Press 'space' when you see 2-back (i.e. the same letter as the one that appeared 2 letters ago.),r,space,,,,,,,,,0,2,2,2,0,9,9,9,,,,,,,,,,,,,,,,,,,,,,,,,,,,,,,,,,,,,,,,,,,,,,,,,,,,,,,,,,,,,,,,,,,,,1.4688,466.5901056,None,space,1,466.5901056,None,1.1766207,P022,dencog,1,Pre,2022_Jan_19_1137,N-Back (New Version 2021),2021.1.4,120.2009764
,,,,Conditions/Version_1/twoback(1)_v1.xlsx,New rule: Press 'space' when you see 2-back (i.e. the same letter as the one that appeared 2 letters ago.),,,,,,,,,,,0,2,2,2,,,,,,,,,,,,,,,,,,,,,,,,,,,,,,,,,,,,,,,,,,,,,,,,,,,,,,,,,,,,,,,,,,,,,,,,,,,,,,,,,P022,dencog,1,Pre,2022_Jan_19_1137,N-Back (New Version 2021),2021.1.4,120.2009764
,,,,Conditions/Version_1/threeback(1)_v1.xlsx,New rule: Press 'space' when you see 3-back (i.e. the same letter as the one that appeared 3 letters ago.),r,None,,,,,,,,,0,3,3,3,0,0,0,0,,,,,,,,,,,,,,,,,,,,,,,,,,,,,,,,,,,,,,,,,,,,,,,,,,,,,,,,,,,468.6114026,None,471.5946944,None,space,0.5480382,471.5946944,None,468.6114026,None,1.1526,473.3214053,None,None,1,473.3214053,None,,P022,dencog,1,Pre,2022_Jan_19_1137,N-Back (New Version 2021),2021.1.4,120.2009764
,,,,Conditions/Version_1/threeback(1)_v1.xlsx,New rule: Press 'space' when you see 3-back (i.e. the same letter as the one that appeared 3 letters ago.),o,None,,,,,,,,,0,3,3,3,0,1,1,1,,,,,,,,,,,,,,,,,,,,,,,,,,,,,,,,,,,,,,,,,,,,,,,,,,,,,,,,,,,,,,,,,,,,,1.661,476.9868762,None,None,1,476.9868762,None,,P022,dencog,1,Pre,2022_Jan_19_1137,N-Back (New Version 2021),2021.1.4,120.2009764
,,,,Conditions/Version_1/threeback(1)_v1.xlsx,New rule: Press 'space' when you see 3-back (i.e. the same letter as the one that appeared 3 letters ago.),P,None,,,,,,,,,0,3,3,3,0,2,2,2,,,,,,,,,,,,,,,,,,,,,,,,,,,,,,,,,,,,,,,,,,,,,,,,,,,,,,,,,,,,,,,,,,,,,1.5618,480.5526717,None,None,1,480.5526717,None,,P022,dencog,1,Pre,2022_Jan_19_1137,N-Back (New Version 2021),2021.1.4,120.2009764
,,,,Conditions/Version_1/threeback(1)_v1.xlsx,New rule: Press 'space' when you see 3-back (i.e. the same letter as the one that appeared 3 letters ago.),R,space,,,,,,,,,0,3,3,3,0,3,3,3,,,,,,,,,,,,,,,,,,,,,,,,,,,,,,,,,,,,,,,,,,,,,,,,,,,,,,,,,,,,,,,,,,,,,1.4316,483.9930388,None,space,1,483.9930388,None,1.0777461,P022,dencog,1,Pre,2022_Jan_19_1137,N-Back (New Version 2021),2021.1.4,120.2009764
,,,,Conditions/Version_1/threeback(1)_v1.xlsx,New rule: Press 'space' when you see 3-back (i.e. the same letter as the one that appeared 3 letters ago.),p,None,,,,,,,,,0,3,3,3,0,4,4,4,,,,,,,,,,,,,,,,,,,,,,,,,,,,,,,,,,,,,,,,,,,,,,,,,,,,,,,,,,,,,,,,,,,,,1.3014,487.3009222,None,None,1,487.3009222,None,,P022,dencog,1,Pre,2022_Jan_19_1137,N-Back (New Version 2021),2021.1.4,120.2009764
,,,,Conditions/Version_1/threeback(1)_v1.xlsx,New rule: Press 'space' when you see 3-back (i.e. the same letter as the one that appeared 3 letters ago.),E,None,,,,,,,,,0,3,3,3,0,5,5,5,,,,,,,,,,,,,,,,,,,,,,,,,,,,,,,,,,,,,,,,,,,,,,,,,,,,,,,,,,,,,,,,,,,,,1.599,490.9042082,None,None,1,490.9042082,None,,P022,dencog,1,Pre,2022_Jan_19_1137,N-Back (New Version 2021),2021.1.4,120.2009764
,,,,Conditions/Version_1/threeback(1)_v1.xlsx,New rule: Press 'space' when you see 3-back (i.e. the same letter as the one that appeared 3 letters ago.),e,None,,,,,,,,,0,3,3,3,0,6,6,6,,,,,,,,,,,,,,,,,,,,,,,,,,,,,,,,,,,,,,,,,,,,,,,,,,,,,,,,,,,,,,,,,,,,,1.1154,494.0300659,None,None,1,494.0300659,None,,P022,dencog,1,Pre,2022_Jan_19_1137,N-Back (New Version 2021),2021.1.4,120.2009764
,,,,Conditions/Version_1/threeback(1)_v1.xlsx,New rule: Press 'space' when you see 3-back (i.e. the same letter as the one that appeared 3 letters ago.),m,None,,,,,,,,,0,3,3,3,0,7,7,7,,,,,,,,,,,,,,,,,,,,,,,,,,,,,,,,,,,,,,,,,,,,,,,,,,,,,,,,,,,,,,,,,,,,,1.5122,497.5515228,None,None,1,497.5515228,None,,P022,dencog,1,Pre,2022_Jan_19_1137,N-Back (New Version 2021),2021.1.4,120.2009764
,,,,Conditions/Version_1/threeback(1)_v1.xlsx,New rule: Press 'space' when you see 3-back (i.e. the same letter as the one that appeared 3 letters ago.),n,None,,,,,,,,,0,3,3,3,0,8,8,8,,,,,,,,,,,,,,,,,,,,,,,,,,,,,,,,,,,,,,,,,,,,,,,,,,,,,,,,,,,,,,,,,,,,,1.7416,501.3012523,None,None,1,501.3012523,None,,P022,dencog,1,Pre,2022_Jan_19_1137,N-Back (New Version 2021),2021.1.4,120.2009764
,,,,Conditions/Version_1/threeback(1)_v1.xlsx,New rule: Press 'space' when you see 3-back (i.e. the same letter as the one that appeared 3 letters ago.),e,space,,,,,,,,,0,3,3,3,0,9,9,9,,,,,,,,,,,,,,,,,,,,,,,,,,,,,,,,,,,,,,,,,,,,,,,,,,,,,,,,,,,,,,,,,,,,,1.4874,504.7955085,None,space,1,504.7955085,None,1.9150955,P022,dencog,1,Pre,2022_Jan_19_1137,N-Back (New Version 2021),2021.1.4,120.2009764
,,,,Conditions/Version_1/threeback(1)_v1.xlsx,New rule: Press 'space' when you see 3-back (i.e. the same letter as the one that appeared 3 letters ago.),,,,,,,,,,,0,3,3,3,,,,,,,,,,,,,,,,,,,,,,,,,,,,,,,,,,,,,,,,,,,,,,,,,,,,,,,,,,,,,,,,,,,,,,,,,,,,,,,,,P022,dencog,1,Pre,2022_Jan_19_1137,N-Back (New Version 2021),2021.1.4,120.2009764
,,,,Conditions/Version_1/oneback(2)_v1.xlsx,New rule: Press 'space' when you see 1-back (i.e. the same letter as the one that appeared 1 letter ago.),q,None,,,,,,,,,0,4,4,4,0,0,0,0,,,,,,,,,,,,,,,,,,,,,,,,,,,,,,,,,,,,,,,,,,,,,,,,,,,,,,,,,,,506.8330072,None,509.812857,None,space,2.6419127,509.812857,None,506.8330072,None,1.9834,514.4591123,None,None,1,514.4591123,None,,P022,dencog,1,Pre,2022_Jan_19_1137,N-Back (New Version 2021),2021.1.4,120.2009764
,,,,Conditions/Version_1/oneback(2)_v1.xlsx,New rule: Press 'space' when you see 1-back (i.e. the same letter as the one that appeared 1 letter ago.),Q,space,,,,,,,,,0,4,4,4,0,1,1,1,,,,,,,,,,,,,,,,,,,,,,,,,,,,,,,,,,,,,,,,,,,,,,,,,,,,,,,,,,,,,,,,,,,,,1.444,517.909363,None,space,1,517.909363,None,0.6332804,P022,dencog,1,Pre,2022_Jan_19_1137,N-Back (New Version 2021),2021.1.4,120.2009764
,,,,Conditions/Version_1/oneback(2)_v1.xlsx,New rule: Press 'space' when you see 1-back (i.e. the same letter as the one that appeared 1 letter ago.),P,None,,,,,,,,,0,4,4,4,0,2,2,2,,,,,,,,,,,,,,,,,,,,,,,,,,,,,,,,,,,,,,,,,,,,,,,,,,,,,,,,,,,,,,,,,,,,,1.9214,521.8409446,None,None,1,521.8409446,None,,P022,dencog,1,Pre,2022_Jan_19_1137,N-Back (New Version 2021),2021.1.4,120.2009764
,,,,Conditions/Version_1/oneback(2)_v1.xlsx,New rule: Press 'space' when you see 1-back (i.e. the same letter as the one that appeared 1 letter ago.),o,None,,,,,,,,,0,4,4,4,0,3,3,3,,,,,,,,,,,,,,,,,,,,,,,,,,,,,,,,,,,,,,,,,,,,,,,,,,,,,,,,,,,,,,,,,,,,,1.2952,525.151097,None,None,1,525.151097,None,,P022,dencog,1,Pre,2022_Jan_19_1137,N-Back (New Version 2021),2021.1.4,120.2009764
,,,,Conditions/Version_1/oneback(2)_v1.xlsx,New rule: Press 'space' when you see 1-back (i.e. the same letter as the one that appeared 1 letter ago.),m,None,,,,,,,,,0,4,4,4,0,4,4,4,,,,,,,,,,,,,,,,,,,,,,,,,,,,,,,,,,,,,,,,,,,,,,,,,,,,,,,,,,,,,,,,,,,,,1.5556,528.7133046,None,None,1,528.7133046,None,,P022,dencog,1,Pre,2022_Jan_19_1137,N-Back (New Version 2021),2021.1.4,120.2009764
,,,,Conditions/Version_1/oneback(2)_v1.xlsx,New rule: Press 'space' when you see 1-back (i.e. the same letter as the one that appeared 1 letter ago.),Z,None,,,,,,,,,0,4,4,4,0,5,5,5,,,,,,,,,,,,,,,,,,,,,,,,,,,,,,,,,,,,,,,,,,,,,,,,,,,,,,,,,,,,,,,,,,,,,1.599,532.3166041,None,None,1,532.3166041,None,,P022,dencog,1,Pre,2022_Jan_19_1137,N-Back (New Version 2021),2021.1.4,120.2009764
,,,,Conditions/Version_1/oneback(2)_v1.xlsx,New rule: Press 'space' when you see 1-back (i.e. the same letter as the one that appeared 1 letter ago.),c,None,,,,,,,,,0,4,4,4,0,6,6,6,,,,,,,,,,,,,,,,,,,,,,,,,,,,,,,,,,,,,,,,,,,,,,,,,,,,,,,,,,,,,,,,,,,,,1.0534,535.3778867,None,None,1,535.3778867,None,,P022,dencog,1,Pre,2022_Jan_19_1137,N-Back (New Version 2021),2021.1.4,120.2009764
,,,,Conditions/Version_1/oneback(2)_v1.xlsx,New rule: Press 'space' when you see 1-back (i.e. the same letter as the one that appeared 1 letter ago.),c,space,,,,,,,,,0,4,4,4,0,7,7,7,,,,,,,,,,,,,,,,,,,,,,,,,,,,,,,,,,,,,,,,,,,,,,,,,,,,,,,,,,,,,,,,,,,,,1.9772,539.3600638,None,space,1,539.3600638,None,1.774479,P022,dencog,1,Pre,2022_Jan_19_1137,N-Back (New Version 2021),2021.1.4,120.2009764
,,,,Conditions/Version_1/oneback(2)_v1.xlsx,New rule: Press 'space' when you see 1-back (i.e. the same letter as the one that appeared 1 letter ago.),P,None,,,,,,,,,0,4,4,4,0,8,8,8,,,,,,,,,,,,,,,,,,,,,,,,,,,,,,,,,,,,,,,,,,,,,,,,,,,,,,,,,,,,,,,,,,,,,1.5494,542.9095779,None,None,1,542.9095779,None,,P022,dencog,1,Pre,2022_Jan_19_1137,N-Back (New Version 2021),2021.1.4,120.2009764
,,,,Conditions/Version_1/oneback(2)_v1.xlsx,New rule: Press 'space' when you see 1-back (i.e. the same letter as the one that appeared 1 letter ago.),p,space,,,,,,,,,0,4,4,4,0,9,9,9,,,,,,,,,,,,,,,,,,,,,,,,,,,,,,,,,,,,,,,,,,,,,,,,,,,,,,,,,,,,,,,,,,,,,1.1712,546.0830351,None,space,1,546.0830351,None,1.2595424,P022,dencog,1,Pre,2022_Jan_19_1137,N-Back (New Version 2021),2021.1.4,120.2009764
,,,,Conditions/Version_1/oneback(2)_v1.xlsx,New rule: Press 'space' when you see 1-back (i.e. the same letter as the one that appeared 1 letter ago.),,,,,,,,,,,0,4,4,4,,,,,,,,,,,,,,,,,,,,,,,,,,,,,,,,,,,,,,,,,,,,,,,,,,,,,,,,,,,,,,,,,,,,,,,,,,,,,,,,,P022,dencog,1,Pre,2022_Jan_19_1137,N-Back (New Version 2021),2021.1.4,120.2009764
,,,,Conditions/Version_1/zeroback(2)_v1.xlsx,New rule: Press 'space' when you see the letter 'x' or 'X'.,p,None,,,,,,,,,0,5,5,5,0,0,0,0,,,,,,,,,,,,,,,,,,,,,,,,,,,,,,,,,,,,,,,,,,,,,,,,,,,,,,,,,,,548.1101449,None,551.0924473,None,space,22.0661891,551.0924473,None,548.1101449,None,1.5928,574.783109,None,None,1,574.783109,None,,P022,dencog,1,Pre,2022_Jan_19_1137,N-Back (New Version 2021),2021.1.4,120.2009764
,,,,Conditions/Version_1/zeroback(2)_v1.xlsx,New rule: Press 'space' when you see the letter 'x' or 'X'.,L,None,,,,,,,,,0,5,5,5,0,1,1,1,,,,,,,,,,,,,,,,,,,,,,,,,,,,,,,,,,,,,,,,,,,,,,,,,,,,,,,,,,,,,,,,,,,,,1.4998,578.2821303,None,None,1,578.2821303,None,,P022,dencog,1,Pre,2022_Jan_19_1137,N-Back (New Version 2021),2021.1.4,120.2009764
,,,,Conditions/Version_1/zeroback(2)_v1.xlsx,New rule: Press 'space' when you see the letter 'x' or 'X'.,G,None,,,,,,,,,0,5,5,5,0,2,2,2,,,,,,,,,,,,,,,,,,,,,,,,,,,,,,,,,,,,,,,,,,,,,,,,,,,,,,,,,,,,,,,,,,,,,1.6982,581.9948939,None,None,1,581.9948939,None,,P022,dencog,1,Pre,2022_Jan_19_1137,N-Back (New Version 2021),2021.1.4,120.2009764
,,,,Conditions/Version_1/zeroback(2)_v1.xlsx,New rule: Press 'space' when you see the letter 'x' or 'X'.,y,None,,,,,,,,,0,5,5,5,0,3,3,3,,,,,,,,,,,,,,,,,,,,,,,,,,,,,,,,,,,,,,,,,,,,,,,,,,,,,,,,,,,,,,,,,,,,,1.0906,585.0880714,None,None,1,585.0880714,None,,P022,dencog,1,Pre,2022_Jan_19_1137,N-Back (New Version 2021),2021.1.4,120.2009764
,,,,Conditions/Version_1/zeroback(2)_v1.xlsx,New rule: Press 'space' when you see the letter 'x' or 'X'.,Y,None,,,,,,,,,0,5,5,5,0,4,4,4,,,,,,,,,,,,,,,,,,,,,,,,,,,,,,,,,,,,,,,,,,,,,,,,,,,,,,,,,,,,,,,,,,,,,1.2952,588.3877146,None,None,1,588.3877146,None,,P022,dencog,1,Pre,2022_Jan_19_1137,N-Back (New Version 2021),2021.1.4,120.2009764
,,,,Conditions/Version_1/zeroback(2)_v1.xlsx,New rule: Press 'space' when you see the letter 'x' or 'X'.,W,None,,,,,,,,,0,5,5,5,0,5,5,5,,,,,,,,,,,,,,,,,,,,,,,,,,,,,,,,,,,,,,,,,,,,,,,,,,,,,,,,,,,,,,,,,,,,,1.3944,591.7969257,None,None,1,591.7969257,None,,P022,dencog,1,Pre,2022_Jan_19_1137,N-Back (New Version 2021),2021.1.4,120.2009764
,,,,Conditions/Version_1/zeroback(2)_v1.xlsx,New rule: Press 'space' when you see the letter 'x' or 'X'.,x,space,,,,,,,,,0,5,5,5,0,6,6,6,,,,,,,,,,,,,,,,,,,,,,,,,,,,,,,,,,,,,,,,,,,,,,,,,,,,,,,,,,,,,,,,,,,,,1.3076,595.1100753,None,space,1,595.1100753,None,0.4883666,P022,dencog,1,Pre,2022_Jan_19_1137,N-Back (New Version 2021),2021.1.4,120.2009764
,,,,Conditions/Version_1/zeroback(2)_v1.xlsx,New rule: Press 'space' when you see the letter 'x' or 'X'.,X,space,,,,,,,,,0,5,5,5,0,7,7,7,,,,,,,,,,,,,,,,,,,,,,,,,,,,,,,,,,,,,,,,,,,,,,,,,,,,,,,,,,,,,,,,,,,,,1.6796,598.792493,None,space,1,598.792493,None,0.6538763,P022,dencog,1,Pre,2022_Jan_19_1137,N-Back (New Version 2021),2021.1.4,120.2009764
,,,,Conditions/Version_1/zeroback(2)_v1.xlsx,New rule: Press 'space' when you see the letter 'x' or 'X'.,p,None,,,,,,,,,0,5,5,5,0,8,8,8,,,,,,,,,,,,,,,,,,,,,,,,,,,,,,,,,,,,,,,,,,,,,,,,,,,,,,,,,,,,,,,,,,,,,1.4068,602.2005562,None,None,1,602.2005562,None,,P022,dencog,1,Pre,2022_Jan_19_1137,N-Back (New Version 2021),2021.1.4,120.2009764
,,,,Conditions/Version_1/zeroback(2)_v1.xlsx,New rule: Press 'space' when you see the letter 'x' or 'X'.,h,None,,,,,,,,,0,5,5,5,0,9,9,9,,,,,,,,,,,,,,,,,,,,,,,,,,,,,,,,,,,,,,,,,,,,,,,,,,,,,,,,,,,,,,,,,,,,,1.6858,605.8989115,None,None,1,605.8989115,None,,P022,dencog,1,Pre,2022_Jan_19_1137,N-Back (New Version 2021),2021.1.4,120.2009764
,,,,Conditions/Version_1/zeroback(2)_v1.xlsx,New rule: Press 'space' when you see the letter 'x' or 'X'.,,,,,,,,,,,0,5,5,5,,,,,,,,,,,,,,,,,,,,,,,,,,,,,,,,,,,,,,,,,,,,,,,,,,,,,,,,,,,,,,,,,,,,,,,,,,,,,,,,,P022,dencog,1,Pre,2022_Jan_19_1137,N-Back (New Version 2021),2021.1.4,120.2009764
,,,,Conditions/Version_1/threeback(2)_v1.xlsx,New rule: Press 'space' when you see 3-back (i.e. the same letter as the one that appeared 3 letters ago.),q,None,,,,,,,,,0,6,6,6,0,0,0,0,,,,,,,,,,,,,,,,,,,,,,,,,,,,,,,,,,,,,,,,,,,,,,,,,,,,,,,,,,,607.9371577,None,610.9190063,None,space,1.663313,610.9190063,None,607.9371577,None,1.2766,613.8883647,None,None,1,613.8883647,None,,P022,dencog,1,Pre,2022_Jan_19_1137,N-Back (New Version 2021),2021.1.4,120.2009764
,,,,Conditions/Version_1/threeback(2)_v1.xlsx,New rule: Press 'space' when you see 3-back (i.e. the same letter as the one that appeared 3 letters ago.),Y,None,,,,,,,,,0,6,6,6,0,1,1,1,,,,,,,,,,,,,,,,,,,,,,,,,,,,,,,,,,,,,,,,,,,,,,,,,,,,,,,,,,,,,,,,,,,,,1.785,617.6790792,None,None,1,617.6790792,None,,P022,dencog,1,Pre,2022_Jan_19_1137,N-Back (New Version 2021),2021.1.4,120.2009764
,,,,Conditions/Version_1/threeback(2)_v1.xlsx,New rule: Press 'space' when you see 3-back (i.e. the same letter as the one that appeared 3 letters ago.),p,None,,,,,,,,,0,6,6,6,0,2,2,2,,,,,,,,,,,,,,,,,,,,,,,,,,,,,,,,,,,,,,,,,,,,,,,,,,,,,,,,,,,,,,,,,,,,,1.8718,621.5557264,None,None,1,621.5557264,None,,P022,dencog,1,Pre,2022_Jan_19_1137,N-Back (New Version 2021),2021.1.4,120.2009764
,,,,Conditions/Version_1/threeback(2)_v1.xlsx,New rule: Press 'space' when you see 3-back (i.e. the same letter as the one that appeared 3 letters ago.),p,None,,,,,,,,,0,6,6,6,0,3,3,3,,,,,,,,,,,,,,,,,,,,,,,,,,,,,,,,,,,,,,,,,,,,,,,,,,,,,,,,,,,,,,,,,,,,,1.6238,625.1859844,None,None,1,625.1859844,None,,P022,dencog,1,Pre,2022_Jan_19_1137,N-Back (New Version 2021),2021.1.4,120.2009764
,,,,Conditions/Version_1/threeback(2)_v1.xlsx,New rule: Press 'space' when you see 3-back (i.e. the same letter as the one that appeared 3 letters ago.),y,space,,,,,,,,,0,6,6,6,0,4,4,4,,,,,,,,,,,,,,,,,,,,,,,,,,,,,,,,,,,,,,,,,,,,,,,,,,,,,,,,,,,,,,,,,,,,,1.3262,628.5319742,None,space,1,628.5319742,None,0.914465,P022,dencog,1,Pre,2022_Jan_19_1137,N-Back (New Version 2021),2021.1.4,120.2009764
,,,,Conditions/Version_1/threeback(2)_v1.xlsx,New rule: Press 'space' when you see 3-back (i.e. the same letter as the one that appeared 3 letters ago.),u,None,,,,,,,,,0,6,6,6,0,5,5,5,,,,,,,,,,,,,,,,,,,,,,,,,,,,,,,,,,,,,,,,,,,,,,,,,,,,,,,,,,,,,,,,,,,,,1.2642,631.7993952,None,None,1,631.7993952,None,,P022,dencog,1,Pre,2022_Jan_19_1137,N-Back (New Version 2021),2021.1.4,120.2009764
,,,,Conditions/Version_1/threeback(2)_v1.xlsx,New rule: Press 'space' when you see 3-back (i.e. the same letter as the one that appeared 3 letters ago.),P,space,,,,,,,,,0,6,6,6,0,6,6,6,,,,,,,,,,,,,,,,,,,,,,,,,,,,,,,,,,,,,,,,,,,,,,,,,,,,,,,,,,,,,,,,,,,,,1.9028,635.7162019,None,space,1,635.7162019,None,1.0421878,P022,dencog,1,Pre,2022_Jan_19_1137,N-Back (New Version 2021),2021.1.4,120.2009764
,,,,Conditions/Version_1/threeback(2)_v1.xlsx,New rule: Press 'space' when you see 3-back (i.e. the same letter as the one that appeared 3 letters ago.),a,None,,,,,,,,,0,6,6,6,0,7,7,7,,,,,,,,,,,,,,,,,,,,,,,,,,,,,,,,,,,,,,,,,,,,,,,,,,,,,,,,,,,,,,,,,,,,,1.537,639.257047,None,None,1,639.257047,None,,P022,dencog,1,Pre,2022_Jan_19_1137,N-Back (New Version 2021),2021.1.4,120.2009764
,,,,Conditions/Version_1/threeback(2)_v1.xlsx,New rule: Press 'space' when you see 3-back (i.e. the same letter as the one that appeared 3 letters ago.),U,space,,,,,,,,,0,6,6,6,0,8,8,8,,,,,,,,,,,,,,,,,,,,,,,,,,,,,,,,,,,,,,,,,,,,,,,,,,,,,,,,,,,,,,,,,,,,,1.723,642.9903875,None,space,1,642.9903875,None,1.0402494,P022,dencog,1,Pre,2022_Jan_19_1137,N-Back (New Version 2021),2021.1.4,120.2009764
,,,,Conditions/Version_1/threeback(2)_v1.xlsx,New rule: Press 'space' when you see 3-back (i.e. the same letter as the one that appeared 3 letters ago.),q,None,,,,,,,,,0,6,6,6,0,9,9,9,,,,,,,,,,,,,,,,,,,,,,,,,,,,,,,,,,,,,,,,,,,,,,,,,,,,,,,,,,,,,,,,,,,,,1.2704,646.2721275,None,None,1,646.2721275,None,,P022,dencog,1,Pre,2022_Jan_19_1137,N-Back (New Version 2021),2021.1.4,120.2009764
,,,,Conditions/Version_1/threeback(2)_v1.xlsx,New rule: Press 'space' when you see 3-back (i.e. the same letter as the one that appeared 3 letters ago.),,,,,,,,,,,0,6,6,6,,,,,,,,,,,,,,,,,,,,,,,,,,,,,,,,,,,,,,,,,,,,,,,,,,,,,,,,,,,,,,,,,,,,,,,,,,,,,,,,,P022,dencog,1,Pre,2022_Jan_19_1137,N-Back (New Version 2021),2021.1.4,120.2009764
,,,,Conditions/Version_1/twoback(2)_v1.xlsx,New rule: Press 'space' when you see 2-back (i.e. the same letter as the one that appeared 2 letters ago.),q,None,,,,,,,,,0,7,7,7,0,0,0,0,,,,,,,,,,,,,,,,,,,,,,,,,,,,,,,,,,,,,,,,,,,,,,,,,,,,,,,,,,,648.2996702,None,651.287021,None,space,26.9271898,651.287021,None,648.2996702,None,1.537,679.7769048,None,None,1,679.7769048,None,,P022,dencog,1,Pre,2022_Jan_19_1137,N-Back (New Version 2021),2021.1.4,120.2009764
,,,,Conditions/Version_1/twoback(2)_v1.xlsx,New rule: Press 'space' when you see 2-back (i.e. the same letter as the one that appeared 2 letters ago.),r,None,,,,,,,,,0,7,7,7,0,1,1,1,,,,,,,,,,,,,,,,,,,,,,,,,,,,,,,,,,,,,,,,,,,,,,,,,,,,,,,,,,,,,,,,,,,,,1.7168,683.5007761,None,None,1,683.5007761,None,,P022,dencog,1,Pre,2022_Jan_19_1137,N-Back (New Version 2021),2021.1.4,120.2009764
,,,,Conditions/Version_1/twoback(2)_v1.xlsx,New rule: Press 'space' when you see 2-back (i.e. the same letter as the one that appeared 2 letters ago.),q,space,,,,,,,,,0,7,7,7,0,2,2,2,,,,,,,,,,,,,,,,,,,,,,,,,,,,,,,,,,,,,,,,,,,,,,,,,,,,,,,,,,,,,,,,,,,,,1.103,686.6092719,None,space,1,686.6092719,None,1.3491519,P022,dencog,1,Pre,2022_Jan_19_1137,N-Back (New Version 2021),2021.1.4,120.2009764
,,,,Conditions/Version_1/twoback(2)_v1.xlsx,New rule: Press 'space' when you see 2-back (i.e. the same letter as the one that appeared 2 letters ago.),P,None,,,,,,,,,0,7,7,7,0,3,3,3,,,,,,,,,,,,,,,,,,,,,,,,,,,,,,,,,,,,,,,,,,,,,,,,,,,,,,,,,,,,,,,,,,,,,1.7664,690.3822071,None,None,1,690.3822071,None,,P022,dencog,1,Pre,2022_Jan_19_1137,N-Back (New Version 2021),2021.1.4,120.2009764
,,,,Conditions/Version_1/twoback(2)_v1.xlsx,New rule: Press 'space' when you see 2-back (i.e. the same letter as the one that appeared 2 letters ago.),p,None,,,,,,,,,0,7,7,7,0,4,4,4,,,,,,,,,,,,,,,,,,,,,,,,,,,,,,,,,,,,,,,,,,,,,,,,,,,,,,,,,,,,,,,,,,,,,1.5804,693.9718844,None,None,1,693.9718844,None,,P022,dencog,1,Pre,2022_Jan_19_1137,N-Back (New Version 2021),2021.1.4,120.2009764
,,,,Conditions/Version_1/twoback(2)_v1.xlsx,New rule: Press 'space' when you see 2-back (i.e. the same letter as the one that appeared 2 letters ago.),H,None,,,,,,,,,0,7,7,7,0,5,5,5,,,,,,,,,,,,,,,,,,,,,,,,,,,,,,,,,,,,,,,,,,,,,,,,,,,,,,,,,,,,,,,,,,,,,1.3324,697.3051442,None,None,1,697.3051442,None,,P022,dencog,1,Pre,2022_Jan_19_1137,N-Back (New Version 2021),2021.1.4,120.2009764
,,,,Conditions/Version_1/twoback(2)_v1.xlsx,New rule: Press 'space' when you see 2-back (i.e. the same letter as the one that appeared 2 letters ago.),g,None,,,,,,,,,0,7,7,7,0,6,6,6,,,,,,,,,,,,,,,,,,,,,,,,,,,,,,,,,,,,,,,,,,,,,,,,,,,,,,,,,,,,,,,,,,,,,1.1526,700.4628418,None,None,1,700.4628418,None,,P022,dencog,1,Pre,2022_Jan_19_1137,N-Back (New Version 2021),2021.1.4,120.2009764
,,,,Conditions/Version_1/twoback(2)_v1.xlsx,New rule: Press 'space' when you see 2-back (i.e. the same letter as the one that appeared 2 letters ago.),j,None,,,,,,,,,0,7,7,7,0,7,7,7,,,,,,,,,,,,,,,,,,,,,,,,,,,,,,,,,,,,,,,,,,,,,,,,,,,,,,,,,,,,,,,,,,,,,1.1216,703.5867083,None,None,1,703.5867083,None,,P022,dencog,1,Pre,2022_Jan_19_1137,N-Back (New Version 2021),2021.1.4,120.2009764
,,,,Conditions/Version_1/twoback(2)_v1.xlsx,New rule: Press 'space' when you see 2-back (i.e. the same letter as the one that appeared 2 letters ago.),g,space,,,,,,,,,0,7,7,7,0,8,8,8,,,,,,,,,,,,,,,,,,,,,,,,,,,,,,,,,,,,,,,,,,,,,,,,,,,,,,,,,,,,,,,,,,,,,1.568,707.1608079,None,space,1,707.1608079,None,1.1736456,P022,dencog,1,Pre,2022_Jan_19_1137,N-Back (New Version 2021),2021.1.4,120.2009764
,,,,Conditions/Version_1/twoback(2)_v1.xlsx,New rule: Press 'space' when you see 2-back (i.e. the same letter as the one that appeared 2 letters ago.),G,None,,,,,,,,,0,7,7,7,0,9,9,9,,,,,,,,,,,,,,,,,,,,,,,,,,,,,,,,,,,,,,,,,,,,,,,,,,,,,,,,,,,,,,,,,,,,,1.4812,710.6515245,None,None,1,710.6515245,None,,P022,dencog,1,Pre,2022_Jan_19_1137,N-Back (New Version 2021),2021.1.4,120.2009764
,,,,Conditions/Version_1/twoback(2)_v1.xlsx,New rule: Press 'space' when you see 2-back (i.e. the same letter as the one that appeared 2 letters ago.),,,,,,,,,,,0,7,7,7,,,,,,,,,,,,,,,,,,,,,,,,,,,,,,,,,,,,,,,,,,,,,,,,,,,,,,,,,,,,,,,,,,,,,,,,,,,,,,,,,P022,dencog,1,Pre,2022_Jan_19_1137,N-Back (New Version 2021),2021.1.4,120.2009764
,,,,Conditions/Version_1/threeback(3)_v1.xlsx,New rule: Press 'space' when you see 3-back (i.e. the same letter as the one that appeared 3 letters ago.),w,None,,,,,,,,,0,8,8,8,0,0,0,0,,,,,,,,,,,,,,,,,,,,,,,,,,,,,,,,,,,,,,,,,,,,,,,,,,,,,,,,,,,712.674862,None,715.6610566,None,space,0.8811772,715.6610566,None,712.674862,None,1.289,717.8638979,None,None,1,717.8638979,None,,P022,dencog,1,Pre,2022_Jan_19_1137,N-Back (New Version 2021),2021.1.4,120.2009764
,,,,Conditions/Version_1/threeback(3)_v1.xlsx,New rule: Press 'space' when you see 3-back (i.e. the same letter as the one that appeared 3 letters ago.),p,None,,,,,,,,,0,8,8,8,0,1,1,1,,,,,,,,,,,,,,,,,,,,,,,,,,,,,,,,,,,,,,,,,,,,,,,,,,,,,,,,,,,,,,,,,,,,,1.0782,720.9481698,None,None,1,720.9481698,None,,P022,dencog,1,Pre,2022_Jan_19_1137,N-Back (New Version 2021),2021.1.4,120.2009764
,,,,Conditions/Version_1/threeback(3)_v1.xlsx,New rule: Press 'space' when you see 3-back (i.e. the same letter as the one that appeared 3 letters ago.),P,None,,,,,,,,,0,8,8,8,0,2,2,2,,,,,,,,,,,,,,,,,,,,,,,,,,,,,,,,,,,,,,,,,,,,,,,,,,,,,,,,,,,,,,,,,,,,,1.3138,724.2637378,None,None,1,724.2637378,None,,P022,dencog,1,Pre,2022_Jan_19_1137,N-Back (New Version 2021),2021.1.4,120.2009764
,,,,Conditions/Version_1/threeback(3)_v1.xlsx,New rule: Press 'space' when you see 3-back (i.e. the same letter as the one that appeared 3 letters ago.),i,None,,,,,,,,,0,8,8,8,0,3,3,3,,,,,,,,,,,,,,,,,,,,,,,,,,,,,,,,,,,,,,,,,,,,,,,,,,,,,,,,,,,,,,,,,,,,,1.1154,727.3810204,None,None,1,727.3810204,None,,P022,dencog,1,Pre,2022_Jan_19_1137,N-Back (New Version 2021),2021.1.4,120.2009764
,,,,Conditions/Version_1/threeback(3)_v1.xlsx,New rule: Press 'space' when you see 3-back (i.e. the same letter as the one that appeared 3 letters ago.),f,None,,,,,,,,,0,8,8,8,0,4,4,4,,,,,,,,,,,,,,,,,,,,,,,,,,,,,,,,,,,,,,,,,,,,,,,,,,,,,,,,,,,,,,,,,,,,,1.3696,730.7618487,None,None,1,730.7618487,None,,P022,dencog,1,Pre,2022_Jan_19_1137,N-Back (New Version 2021),2021.1.4,120.2009764
,,,,Conditions/Version_1/threeback(3)_v1.xlsx,New rule: Press 'space' when you see 3-back (i.e. the same letter as the one that appeared 3 letters ago.),o,None,,,,,,,,,0,8,8,8,0,5,5,5,,,,,,,,,,,,,,,,,,,,,,,,,,,,,,,,,,,,,,,,,,,,,,,,,,,,,,,,,,,,,,,,,,,,,1.3262,734.0954007,None,None,1,734.0954007,None,,P022,dencog,1,Pre,2022_Jan_19_1137,N-Back (New Version 2021),2021.1.4,120.2009764
,,,,Conditions/Version_1/threeback(3)_v1.xlsx,New rule: Press 'space' when you see 3-back (i.e. the same letter as the one that appeared 3 letters ago.),w,None,,,,,,,,,0,8,8,8,0,6,6,6,,,,,,,,,,,,,,,,,,,,,,,,,,,,,,,,,,,,,,,,,,,,,,,,,,,,,,,,,,,,,,,,,,,,,1.4254,737.5271231,None,None,1,737.5271231,None,,P022,dencog,1,Pre,2022_Jan_19_1137,N-Back (New Version 2021),2021.1.4,120.2009764
,,,,Conditions/Version_1/threeback(3)_v1.xlsx,New rule: Press 'space' when you see 3-back (i.e. the same letter as the one that appeared 3 letters ago.),F,space,,,,,,,,,0,8,8,8,0,7,7,7,,,,,,,,,,,,,,,,,,,,,,,,,,,,,,,,,,,,,,,,,,,,,,,,,,,,,,,,,,,,,,,,,,,,,1.2828,740.8188423,None,space,1,740.8188423,None,0.8274461,P022,dencog,1,Pre,2022_Jan_19_1137,N-Back (New Version 2021),2021.1.4,120.2009764
,,,,Conditions/Version_1/threeback(3)_v1.xlsx,New rule: Press 'space' when you see 3-back (i.e. the same letter as the one that appeared 3 letters ago.),p,None,,,,,,,,,0,8,8,8,0,8,8,8,,,,,,,,,,,,,,,,,,,,,,,,,,,,,,,,,,,,,,,,,,,,,,,,,,,,,,,,,,,,,,,,,,,,,1.3572,744.1902244,None,None,1,744.1902244,None,,P022,dencog,1,Pre,2022_Jan_19_1137,N-Back (New Version 2021),2021.1.4,120.2009764
,,,,Conditions/Version_1/threeback(3)_v1.xlsx,New rule: Press 'space' when you see 3-back (i.e. the same letter as the one that appeared 3 letters ago.),W,space,,,,,,,,,0,8,8,8,0,9,9,9,,,,,,,,,,,,,,,,,,,,,,,,,,,,,,,,,,,,,,,,,,,,,,,,,,,,,,,,,,,,,,,,,,,,,1.1898,747.3825098,None,space,1,747.3825098,None,0.7517118,P022,dencog,1,Pre,2022_Jan_19_1137,N-Back (New Version 2021),2021.1.4,120.2009764
,,,,Conditions/Version_1/threeback(3)_v1.xlsx,New rule: Press 'space' when you see 3-back (i.e. the same letter as the one that appeared 3 letters ago.),,,,,,,,,,,0,8,8,8,,,,,,,,,,,,,,,,,,,,,,,,,,,,,,,,,,,,,,,,,,,,,,,,,,,,,,,,,,,,,,,,,,,,,,,,,,,,,,,,,P022,dencog,1,Pre,2022_Jan_19_1137,N-Back (New Version 2021),2021.1.4,120.2009764
,,,,Conditions/Version_1/zeroback(3)_v1.xlsx,New rule: Press 'space' when you see the letter 'x' or 'X'.,X,space,,,,,,,,,0,9,9,9,0,0,0,0,,,,,,,,,,,,,,,,,,,,,,,,,,,,,,,,,,,,,,,,,,,,,,,,,,,,,,,,,,,749.401926,None,752.3910219,None,space,0.6231719,752.3910219,None,749.401926,None,1.878,754.9211166,None,space,1,754.9211166,None,0.597014,P022,dencog,1,Pre,2022_Jan_19_1137,N-Back (New Version 2021),2021.1.4,120.2009764
,,,,Conditions/Version_1/zeroback(3)_v1.xlsx,New rule: Press 'space' when you see the letter 'x' or 'X'.,B,None,,,,,,,,,0,9,9,9,0,1,1,1,,,,,,,,,,,,,,,,,,,,,,,,,,,,,,,,,,,,,,,,,,,,,,,,,,,,,,,,,,,,,,,,,,,,,1.7292,758.6546114,None,None,1,758.6546114,None,,P022,dencog,1,Pre,2022_Jan_19_1137,N-Back (New Version 2021),2021.1.4,120.2009764
,,,,Conditions/Version_1/zeroback(3)_v1.xlsx,New rule: Press 'space' when you see the letter 'x' or 'X'.,m,None,,,,,,,,,0,9,9,9,0,2,2,2,,,,,,,,,,,,,,,,,,,,,,,,,,,,,,,,,,,,,,,,,,,,,,,,,,,,,,,,,,,,,,,,,,,,,1.5494,762.2127374,None,None,1,762.2127374,None,,P022,dencog,1,Pre,2022_Jan_19_1137,N-Back (New Version 2021),2021.1.4,120.2009764
,,,,Conditions/Version_1/zeroback(3)_v1.xlsx,New rule: Press 'space' when you see the letter 'x' or 'X'.,m,None,,,,,,,,,0,9,9,9,0,3,3,3,,,,,,,,,,,,,,,,,,,,,,,,,,,,,,,,,,,,,,,,,,,,,,,,,,,,,,,,,,,,,,,,,,,,,1.1712,765.3931172,None,space,0,765.3931172,None,0.8049544,P022,dencog,1,Pre,2022_Jan_19_1137,N-Back (New Version 2021),2021.1.4,120.2009764
,,,,Conditions/Version_1/zeroback(3)_v1.xlsx,New rule: Press 'space' when you see the letter 'x' or 'X'.,o,None,,,,,,,,,0,9,9,9,0,4,4,4,,,,,,,,,,,,,,,,,,,,,,,,,,,,,,,,,,,,,,,,,,,,,,,,,,,,,,,,,,,,,,,,,,,,,1.2766,768.6764706,None,None,1,768.6764706,None,,P022,dencog,1,Pre,2022_Jan_19_1137,N-Back (New Version 2021),2021.1.4,120.2009764
,,,,Conditions/Version_1/zeroback(3)_v1.xlsx,New rule: Press 'space' when you see the letter 'x' or 'X'.,p,None,,,,,,,,,0,9,9,9,0,5,5,5,,,,,,,,,,,,,,,,,,,,,,,,,,,,,,,,,,,,,,,,,,,,,,,,,,,,,,,,,,,,,,,,,,,,,1.9214,772.6082893,None,None,1,772.6082893,None,,P022,dencog,1,Pre,2022_Jan_19_1137,N-Back (New Version 2021),2021.1.4,120.2009764
,,,,Conditions/Version_1/zeroback(3)_v1.xlsx,New rule: Press 'space' when you see the letter 'x' or 'X'.,G,None,,,,,,,,,0,9,9,9,0,6,6,6,,,,,,,,,,,,,,,,,,,,,,,,,,,,,,,,,,,,,,,,,,,,,,,,,,,,,,,,,,,,,,,,,,,,,1.413,776.0246731,None,None,1,776.0246731,None,,P022,dencog,1,Pre,2022_Jan_19_1137,N-Back (New Version 2021),2021.1.4,120.2009764
,,,,Conditions/Version_1/zeroback(3)_v1.xlsx,New rule: Press 'space' when you see the letter 'x' or 'X'.,X,space,,,,,,,,,0,9,9,9,0,7,7,7,,,,,,,,,,,,,,,,,,,,,,,,,,,,,,,,,,,,,,,,,,,,,,,,,,,,,,,,,,,,,,,,,,,,,1.9152,779.9480257,None,space,1,779.9480257,None,0.6102077,P022,dencog,1,Pre,2022_Jan_19_1137,N-Back (New Version 2021),2021.1.4,120.2009764
,,,,Conditions/Version_1/zeroback(3)_v1.xlsx,New rule: Press 'space' when you see the letter 'x' or 'X'.,p,None,,,,,,,,,0,9,9,9,0,8,8,8,,,,,,,,,,,,,,,,,,,,,,,,,,,,,,,,,,,,,,,,,,,,,,,,,,,,,,,,,,,,,,,,,,,,,1.2332,783.1880383,None,None,1,783.1880383,None,,P022,dencog,1,Pre,2022_Jan_19_1137,N-Back (New Version 2021),2021.1.4,120.2009764
,,,,Conditions/Version_1/zeroback(3)_v1.xlsx,New rule: Press 'space' when you see the letter 'x' or 'X'.,x,space,,,,,,,,,0,9,9,9,0,9,9,9,,,,,,,,,,,,,,,,,,,,,,,,,,,,,,,,,,,,,,,,,,,,,,,,,,,,,,,,,,,,,,,,,,,,,1.3262,786.5208597,None,space,1,786.5208597,None,0.6060193,P022,dencog,1,Pre,2022_Jan_19_1137,N-Back (New Version 2021),2021.1.4,120.2009764
,,,,Conditions/Version_1/zeroback(3)_v1.xlsx,New rule: Press 'space' when you see the letter 'x' or 'X'.,,,,,,,,,,,0,9,9,9,,,,,,,,,,,,,,,,,,,,,,,,,,,,,,,,,,,,,,,,,,,,,,,,,,,,,,,,,,,,,,,,,,,,,,,,,,,,,,,,,P022,dencog,1,Pre,2022_Jan_19_1137,N-Back (New Version 2021),2021.1.4,120.2009764
,,,,Conditions/Version_1/twoback(3)_v1.xlsx,New rule: Press 'space' when you see 2-back (i.e. the same letter as the one that appeared 2 letters ago.),e,None,,,,,,,,,0,10,10,10,0,0,0,0,,,,,,,,,,,,,,,,,,,,,,,,,,,,,,,,,,,,,,,,,,,,,,,,,,,,,,,,,,,788.5419131,None,791.5294873,None,space,2.0928673,791.5294873,None,788.5419131,None,1.4316,795.0850163,None,None,1,795.0850163,None,,P022,dencog,1,Pre,2022_Jan_19_1137,N-Back (New Version 2021),2021.1.4,120.2009764
,,,,Conditions/Version_1/twoback(3)_v1.xlsx,New rule: Press 'space' when you see 2-back (i.e. the same letter as the one that appeared 2 letters ago.),o,None,,,,,,,,,0,10,10,10,0,1,1,1,,,,,,,,,,,,,,,,,,,,,,,,,,,,,,,,,,,,,,,,,,,,,,,,,,,,,,,,,,,,,,,,,,,,,1.878,798.9667706,None,None,1,798.9667706,None,,P022,dencog,1,Pre,2022_Jan_19_1137,N-Back (New Version 2021),2021.1.4,120.2009764
,,,,Conditions/Version_1/twoback(3)_v1.xlsx,New rule: Press 'space' when you see 2-back (i.e. the same letter as the one that appeared 2 letters ago.),P,None,,,,,,,,,0,10,10,10,0,2,2,2,,,,,,,,,,,,,,,,,,,,,,,,,,,,,,,,,,,,,,,,,,,,,,,,,,,,,,,,,,,,,,,,,,,,,1.816,802.7821759,None,None,1,802.7821759,None,,P022,dencog,1,Pre,2022_Jan_19_1137,N-Back (New Version 2021),2021.1.4,120.2009764
,,,,Conditions/Version_1/twoback(3)_v1.xlsx,New rule: Press 'space' when you see 2-back (i.e. the same letter as the one that appeared 2 letters ago.),z,None,,,,,,,,,0,10,10,10,0,3,3,3,,,,,,,,,,,,,,,,,,,,,,,,,,,,,,,,,,,,,,,,,,,,,,,,,,,,,,,,,,,,,,,,,,,,,1.8284,806.6263688,None,None,1,806.6263688,None,,P022,dencog,1,Pre,2022_Jan_19_1137,N-Back (New Version 2021),2021.1.4,120.2009764
,,,,Conditions/Version_1/twoback(3)_v1.xlsx,New rule: Press 'space' when you see 2-back (i.e. the same letter as the one that appeared 2 letters ago.),X,None,,,,,,,,,0,10,10,10,0,4,4,4,,,,,,,,,,,,,,,,,,,,,,,,,,,,,,,,,,,,,,,,,,,,,,,,,,,,,,,,,,,,,,,,,,,,,1.7416,810.3771098,None,None,1,810.3771098,None,,P022,dencog,1,Pre,2022_Jan_19_1137,N-Back (New Version 2021),2021.1.4,120.2009764
,,,,Conditions/Version_1/twoback(3)_v1.xlsx,New rule: Press 'space' when you see 2-back (i.e. the same letter as the one that appeared 2 letters ago.),z,space,,,,,,,,,0,10,10,10,0,5,5,5,,,,,,,,,,,,,,,,,,,,,,,,,,,,,,,,,,,,,,,,,,,,,,,,,,,,,,,,,,,,,,,,,,,,,1.8904,814.2716469,None,space,1,814.2716469,None,0.6709607,P022,dencog,1,Pre,2022_Jan_19_1137,N-Back (New Version 2021),2021.1.4,120.2009764
,,,,Conditions/Version_1/twoback(3)_v1.xlsx,New rule: Press 'space' when you see 2-back (i.e. the same letter as the one that appeared 2 letters ago.),x,space,,,,,,,,,0,10,10,10,0,6,6,6,,,,,,,,,,,,,,,,,,,,,,,,,,,,,,,,,,,,,,,,,,,,,,,,,,,,,,,,,,,,,,,,,,,,,1.661,817.944542,None,space,1,817.944542,None,0.7101153,P022,dencog,1,Pre,2022_Jan_19_1137,N-Back (New Version 2021),2021.1.4,120.2009764
,,,,Conditions/Version_1/twoback(3)_v1.xlsx,New rule: Press 'space' when you see 2-back (i.e. the same letter as the one that appeared 2 letters ago.),c,None,,,,,,,,,0,10,10,10,0,7,7,7,,,,,,,,,,,,,,,,,,,,,,,,,,,,,,,,,,,,,,,,,,,,,,,,,,,,,,,,,,,,,,,,,,,,,1.444,821.395423,None,None,1,821.395423,None,,P022,dencog,1,Pre,2022_Jan_19_1137,N-Back (New Version 2021),2021.1.4,120.2009764
,,,,Conditions/Version_1/twoback(3)_v1.xlsx,New rule: Press 'space' when you see 2-back (i.e. the same letter as the one that appeared 2 letters ago.),i,None,,,,,,,,,0,10,10,10,0,8,8,8,,,,,,,,,,,,,,,,,,,,,,,,,,,,,,,,,,,,,,,,,,,,,,,,,,,,,,,,,,,,,,,,,,,,,1.134,824.544344,None,None,1,824.544344,None,,P022,dencog,1,Pre,2022_Jan_19_1137,N-Back (New Version 2021),2021.1.4,120.2009764
,,,,Conditions/Version_1/twoback(3)_v1.xlsx,New rule: Press 'space' when you see 2-back (i.e. the same letter as the one that appeared 2 letters ago.),C,space,,,,,,,,,0,10,10,10,0,9,9,9,,,,,,,,,,,,,,,,,,,,,,,,,,,,,,,,,,,,,,,,,,,,,,,,,,,,,,,,,,,,,,,,,,,,,1.4626,828.0166597,None,space,1,828.0166597,None,0.4533533,P022,dencog,1,Pre,2022_Jan_19_1137,N-Back (New Version 2021),2021.1.4,120.2009764
,,,,Conditions/Version_1/twoback(3)_v1.xlsx,New rule: Press 'space' when you see 2-back (i.e. the same letter as the one that appeared 2 letters ago.),,,,,,,,,,,0,10,10,10,,,,,,,,,,,,,,,,,,,,,,,,,,,,,,,,,,,,,,,,,,,,,,,,,,,,,,,,,,,,,,,,,,,,,,,,,,,,,,,,,P022,dencog,1,Pre,2022_Jan_19_1137,N-Back (New Version 2021),2021.1.4,120.2009764
,,,,Conditions/Version_1/oneback(3)_v1.xlsx,New rule: Press 'space' when you see 1-back (i.e. the same letter as the one that appeared 1 letter ago.),o,None,,,,,,,,,0,11,11,11,0,0,0,0,,,,,,,,,,,,,,,,,,,,,,,,,,,,,,,,,,,,,,,,,,,,,,,,,,,,,,,,,,,830.038616,None,833.0264849,None,space,0.6038304,833.0264849,None,830.038616,None,1.3696,835.0315976,None,None,1,835.0315976,None,,P022,dencog,1,Pre,2022_Jan_19_1137,N-Back (New Version 2021),2021.1.4,120.2009764
,,,,Conditions/Version_1/oneback(3)_v1.xlsx,New rule: Press 'space' when you see 1-back (i.e. the same letter as the one that appeared 1 letter ago.),O,space,,,,,,,,,0,11,11,11,0,1,1,1,,,,,,,,,,,,,,,,,,,,,,,,,,,,,,,,,,,,,,,,,,,,,,,,,,,,,,,,,,,,,,,,,,,,,1.7292,838.7792388,None,space,1,838.7792388,None,0.6270875,P022,dencog,1,Pre,2022_Jan_19_1137,N-Back (New Version 2021),2021.1.4,120.2009764
,,,,Conditions/Version_1/oneback(3)_v1.xlsx,New rule: Press 'space' when you see 1-back (i.e. the same letter as the one that appeared 1 letter ago.),h,None,,,,,,,,,0,11,11,11,0,2,2,2,,,,,,,,,,,,,,,,,,,,,,,,,,,,,,,,,,,,,,,,,,,,,,,,,,,,,,,,,,,,,,,,,,,,,1.6548,842.4371834,None,None,1,842.4371834,None,,P022,dencog,1,Pre,2022_Jan_19_1137,N-Back (New Version 2021),2021.1.4,120.2009764
,,,,Conditions/Version_1/oneback(3)_v1.xlsx,New rule: Press 'space' when you see 1-back (i.e. the same letter as the one that appeared 1 letter ago.),g,None,,,,,,,,,0,11,11,11,0,3,3,3,,,,,,,,,,,,,,,,,,,,,,,,,,,,,,,,,,,,,,,,,,,,,,,,,,,,,,,,,,,,,,,,,,,,,1.4688,845.91115,None,None,1,845.91115,None,,P022,dencog,1,Pre,2022_Jan_19_1137,N-Back (New Version 2021),2021.1.4,120.2009764
,,,,Conditions/Version_1/oneback(3)_v1.xlsx,New rule: Press 'space' when you see 1-back (i.e. the same letter as the one that appeared 1 letter ago.),n,None,,,,,,,,,0,11,11,11,0,4,4,4,,,,,,,,,,,,,,,,,,,,,,,,,,,,,,,,,,,,,,,,,,,,,,,,,,,,,,,,,,,,,,,,,,,,,1.7044,849.6182953,None,None,1,849.6182953,None,,P022,dencog,1,Pre,2022_Jan_19_1137,N-Back (New Version 2021),2021.1.4,120.2009764
,,,,Conditions/Version_1/oneback(3)_v1.xlsx,New rule: Press 'space' when you see 1-back (i.e. the same letter as the one that appeared 1 letter ago.),z,None,,,,,,,,,0,11,11,11,0,5,5,5,,,,,,,,,,,,,,,,,,,,,,,,,,,,,,,,,,,,,,,,,,,,,,,,,,,,,,,,,,,,,,,,,,,,,1.2766,852.9008469,None,None,1,852.9008469,None,,P022,dencog,1,Pre,2022_Jan_19_1137,N-Back (New Version 2021),2021.1.4,120.2009764
,,,,Conditions/Version_1/oneback(3)_v1.xlsx,New rule: Press 'space' when you see 1-back (i.e. the same letter as the one that appeared 1 letter ago.),X,None,,,,,,,,,0,11,11,11,0,6,6,6,,,,,,,,,,,,,,,,,,,,,,,,,,,,,,,,,,,,,,,,,,,,,,,,,,,,,,,,,,,,,,,,,,,,,1.6672,856.5666014,None,None,1,856.5666014,None,,P022,dencog,1,Pre,2022_Jan_19_1137,N-Back (New Version 2021),2021.1.4,120.2009764
,,,,Conditions/Version_1/oneback(3)_v1.xlsx,New rule: Press 'space' when you see 1-back (i.e. the same letter as the one that appeared 1 letter ago.),r,None,,,,,,,,,0,11,11,11,0,7,7,7,,,,,,,,,,,,,,,,,,,,,,,,,,,,,,,,,,,,,,,,,,,,,,,,,,,,,,,,,,,,,,,,,,,,,1.4254,860.0009673,None,None,1,860.0009673,None,,P022,dencog,1,Pre,2022_Jan_19_1137,N-Back (New Version 2021),2021.1.4,120.2009764
,,,,Conditions/Version_1/oneback(3)_v1.xlsx,New rule: Press 'space' when you see 1-back (i.e. the same letter as the one that appeared 1 letter ago.),r,space,,,,,,,,,0,11,11,11,0,8,8,8,,,,,,,,,,,,,,,,,,,,,,,,,,,,,,,,,,,,,,,,,,,,,,,,,,,,,,,,,,,,,,,,,,,,,1.289,863.2895318,None,space,1,863.2895318,None,0.6124728,P022,dencog,1,Pre,2022_Jan_19_1137,N-Back (New Version 2021),2021.1.4,120.2009764
,,,,Conditions/Version_1/oneback(3)_v1.xlsx,New rule: Press 'space' when you see 1-back (i.e. the same letter as the one that appeared 1 letter ago.),P,None,,,,,,,,,0,11,11,11,0,9,9,9,,,,,,,,,,,,,,,,,,,,,,,,,,,,,,,,,,,,,,,,,,,,,,,,,,,,,,,,,,,,,,,,,,,,,1.0596,866.3934829,None,None,1,866.3934829,None,,P022,dencog,1,Pre,2022_Jan_19_1137,N-Back (New Version 2021),2021.1.4,120.2009764
,,,,Conditions/Version_1/oneback(3)_v1.xlsx,New rule: Press 'space' when you see 1-back (i.e. the same letter as the one that appeared 1 letter ago.),,,,,,,,,,,0,11,11,11,,,,,,,,,,,,,,,,,,,,,,,,,,,,,,,,,,,,,,,,,,,,,,,,,,,,,,,,,,,,,,,,,,,,,,,,,,,,,,,,,P022,dencog,1,Pre,2022_Jan_19_1137,N-Back (New Version 2021),2021.1.4,120.2009764
,,,,Conditions/Version_1/twoback(4)_v1.xlsx,New rule: Press 'space' when you see 2-back (i.e. the same letter as the one that appeared 2 letters ago.),r,None,,,,,,,,,0,12,12,12,0,0,0,0,,,,,,,,,,,,,,,,,,,,,,,,,,,,,,,,,,,,,,,,,,,,,,,,,,,,,,,,,,,868.383459,None,871.3643447,None,space,65.2839593,871.3643447,None,868.383459,None,1.0534,937.7253512,None,None,1,937.7253512,None,,P022,dencog,1,Pre,2022_Jan_19_1137,N-Back (New Version 2021),2021.1.4,120.2009764
,,,,Conditions/Version_1/twoback(4)_v1.xlsx,New rule: Press 'space' when you see 2-back (i.e. the same letter as the one that appeared 2 letters ago.),T,None,,,,,,,,,0,12,12,12,0,1,1,1,,,,,,,,,,,,,,,,,,,,,,,,,,,,,,,,,,,,,,,,,,,,,,,,,,,,,,,,,,,,,,,,,,,,,1.0596,940.7911399,None,None,1,940.7911399,None,,P022,dencog,1,Pre,2022_Jan_19_1137,N-Back (New Version 2021),2021.1.4,120.2009764
,,,,Conditions/Version_1/twoback(4)_v1.xlsx,New rule: Press 'space' when you see 2-back (i.e. the same letter as the one that appeared 2 letters ago.),o,None,,,,,,,,,0,12,12,12,0,2,2,2,,,,,,,,,,,,,,,,,,,,,,,,,,,,,,,,,,,,,,,,,,,,,,,,,,,,,,,,,,,,,,,,,,,,,1.692,944.4817206,None,None,1,944.4817206,None,,P022,dencog,1,Pre,2022_Jan_19_1137,N-Back (New Version 2021),2021.1.4,120.2009764
,,,,Conditions/Version_1/twoback(4)_v1.xlsx,New rule: Press 'space' when you see 2-back (i.e. the same letter as the one that appeared 2 letters ago.),p,None,,,,,,,,,0,12,12,12,0,3,3,3,,,,,,,,,,,,,,,,,,,,,,,,,,,,,,,,,,,,,,,,,,,,,,,,,,,,,,,,,,,,,,,,,,,,,1.382,947.8640557,None,None,1,947.8640557,None,,P022,dencog,1,Pre,2022_Jan_19_1137,N-Back (New Version 2021),2021.1.4,120.2009764
,,,,Conditions/Version_1/twoback(4)_v1.xlsx,New rule: Press 'space' when you see 2-back (i.e. the same letter as the one that appeared 2 letters ago.),p,None,,,,,,,,,0,12,12,12,0,4,4,4,,,,,,,,,,,,,,,,,,,,,,,,,,,,,,,,,,,,,,,,,,,,,,,,,,,,,,,,,,,,,,,,,,,,,1.9028,951.7712182,None,None,1,951.7712182,None,,P022,dencog,1,Pre,2022_Jan_19_1137,N-Back (New Version 2021),2021.1.4,120.2009764
,,,,Conditions/Version_1/twoback(4)_v1.xlsx,New rule: Press 'space' when you see 2-back (i.e. the same letter as the one that appeared 2 letters ago.),y,None,,,,,,,,,0,12,12,12,0,5,5,5,,,,,,,,,,,,,,,,,,,,,,,,,,,,,,,,,,,,,,,,,,,,,,,,,,,,,,,,,,,,,,,,,,,,,1.4688,955.2455228,None,None,1,955.2455228,None,,P022,dencog,1,Pre,2022_Jan_19_1137,N-Back (New Version 2021),2021.1.4,120.2009764
,,,,Conditions/Version_1/twoback(4)_v1.xlsx,New rule: Press 'space' when you see 2-back (i.e. the same letter as the one that appeared 2 letters ago.),P,space,,,,,,,,,0,12,12,12,0,6,6,6,,,,,,,,,,,,,,,,,,,,,,,,,,,,,,,,,,,,,,,,,,,,,,,,,,,,,,,,,,,,,,,,,,,,,1.6238,958.8690899,None,space,1,958.8690899,None,0.7207431,P022,dencog,1,Pre,2022_Jan_19_1137,N-Back (New Version 2021),2021.1.4,120.2009764
,,,,Conditions/Version_1/twoback(4)_v1.xlsx,New rule: Press 'space' when you see 2-back (i.e. the same letter as the one that appeared 2 letters ago.),y,None,,,,,,,,,0,12,12,12,0,7,7,7,,,,,,,,,,,,,,,,,,,,,,,,,,,,,,,,,,,,,,,,,,,,,,,,,,,,,,,,,,,,,,,,,,,,,1.3944,962.2681404,None,space,0,962.2681404,None,1.0736465,P022,dencog,1,Pre,2022_Jan_19_1137,N-Back (New Version 2021),2021.1.4,120.2009764
,,,,Conditions/Version_1/twoback(4)_v1.xlsx,New rule: Press 'space' when you see 2-back (i.e. the same letter as the one that appeared 2 letters ago.),y,space,,,,,,,,,0,12,12,12,0,8,8,8,,,,,,,,,,,,,,,,,,,,,,,,,,,,,,,,,,,,,,,,,,,,,,,,,,,,,,,,,,,,,,,,,,,,,1.754,966.025312,None,None,0,966.025312,None,,P022,dencog,1,Pre,2022_Jan_19_1137,N-Back (New Version 2021),2021.1.4,120.2009764
,,,,Conditions/Version_1/twoback(4)_v1.xlsx,New rule: Press 'space' when you see 2-back (i.e. the same letter as the one that appeared 2 letters ago.),,,,,,,,,,,0,12,12,12,,,,,,,,,,,,,,,,,,,,,,,,,,,,,,,,,,,,,,,,,,,,,,,,,,,,,,,,,,,,,,,,,,,,,,,,,,,,,,,,,P022,dencog,1,Pre,2022_Jan_19_1137,N-Back (New Version 2021),2021.1.4,120.2009764
,,,,Conditions/Version_1/zeroback(4)_v1.xlsx,New rule: Press 'space' when you see the letter 'x' or 'X'.,o,None,,,,,,,,,0,13,13,13,0,0,0,0,,,,,,,,,,,,,,,,,,,,,,,,,,,,,,,,,,,,,,,,,,,,,,,,,,,,,,,,,,,968.0411436,None,971.0259031,None,space,0.5321389,971.0259031,None,968.0411436,None,1.227,972.8074463,None,None,1,972.8074463,None,,P022,dencog,1,Pre,2022_Jan_19_1137,N-Back (New Version 2021),2021.1.4,120.2009764
,,,,Conditions/Version_1/zeroback(4)_v1.xlsx,New rule: Press 'space' when you see the letter 'x' or 'X'.,X,space,,,,,,,,,0,13,13,13,0,1,1,1,,,,,,,,,,,,,,,,,,,,,,,,,,,,,,,,,,,,,,,,,,,,,,,,,,,,,,,,,,,,,,,,,,,,,1.971,976.7968905,None,space,1,976.7968905,None,0.6009149,P022,dencog,1,Pre,2022_Jan_19_1137,N-Back (New Version 2021),2021.1.4,120.2009764
,,,,Conditions/Version_1/zeroback(4)_v1.xlsx,New rule: Press 'space' when you see the letter 'x' or 'X'.,p,None,,,,,,,,,0,13,13,13,0,2,2,2,,,,,,,,,,,,,,,,,,,,,,,,,,,,,,,,,,,,,,,,,,,,,,,,,,,,,,,,,,,,,,,,,,,,,1.8842,980.6903433,None,None,1,980.6903433,None,,P022,dencog,1,Pre,2022_Jan_19_1137,N-Back (New Version 2021),2021.1.4,120.2009764
,,,,Conditions/Version_1/zeroback(4)_v1.xlsx,New rule: Press 'space' when you see the letter 'x' or 'X'.,m,None,,,,,,,,,0,13,13,13,0,3,3,3,,,,,,,,,,,,,,,,,,,,,,,,,,,,,,,,,,,,,,,,,,,,,,,,,,,,,,,,,,,,,,,,,,,,,1.3014,984.0035863,None,None,1,984.0035863,None,,P022,dencog,1,Pre,2022_Jan_19_1137,N-Back (New Version 2021),2021.1.4,120.2009764
,,,,Conditions/Version_1/zeroback(4)_v1.xlsx,New rule: Press 'space' when you see the letter 'x' or 'X'.,n,None,,,,,,,,,0,13,13,13,0,4,4,4,,,,,,,,,,,,,,,,,,,,,,,,,,,,,,,,,,,,,,,,,,,,,,,,,,,,,,,,,,,,,,,,,,,,,1.4688,987.4775501,None,None,1,987.4775501,None,,P022,dencog,1,Pre,2022_Jan_19_1137,N-Back (New Version 2021),2021.1.4,120.2009764
,,,,Conditions/Version_1/zeroback(4)_v1.xlsx,New rule: Press 'space' when you see the letter 'x' or 'X'.,m,None,,,,,,,,,0,13,13,13,0,5,5,5,,,,,,,,,,,,,,,,,,,,,,,,,,,,,,,,,,,,,,,,,,,,,,,,,,,,,,,,,,,,,,,,,,,,,1.599,991.0817345,None,None,1,991.0817345,None,,P022,dencog,1,Pre,2022_Jan_19_1137,N-Back (New Version 2021),2021.1.4,120.2009764
,,,,Conditions/Version_1/zeroback(4)_v1.xlsx,New rule: Press 'space' when you see the letter 'x' or 'X'.,C,None,,,,,,,,,0,13,13,13,0,6,6,6,,,,,,,,,,,,,,,,,,,,,,,,,,,,,,,,,,,,,,,,,,,,,,,,,,,,,,,,,,,,,,,,,,,,,1.258,994.3422201,None,None,1,994.3422201,None,,P022,dencog,1,Pre,2022_Jan_19_1137,N-Back (New Version 2021),2021.1.4,120.2009764
,,,,Conditions/Version_1/zeroback(4)_v1.xlsx,New rule: Press 'space' when you see the letter 'x' or 'X'.,m,None,,,,,,,,,0,13,13,13,0,7,7,7,,,,,,,,,,,,,,,,,,,,,,,,,,,,,,,,,,,,,,,,,,,,,,,,,,,,,,,,,,,,,,,,,,,,,1.2022,997.5493464,None,None,1,997.5493464,None,,P022,dencog,1,Pre,2022_Jan_19_1137,N-Back (New Version 2021),2021.1.4,120.2009764
,,,,Conditions/Version_1/zeroback(4)_v1.xlsx,New rule: Press 'space' when you see the letter 'x' or 'X'.,p,None,,,,,,,,,0,13,13,13,0,8,8,8,,,,,,,,,,,,,,,,,,,,,,,,,,,,,,,,,,,,,,,,,,,,,,,,,,,,,,,,,,,,,,,,,,,,,1.8718,1001.423294,None,None,1,1001.423294,None,,P022,dencog,1,Pre,2022_Jan_19_1137,N-Back (New Version 2021),2021.1.4,120.2009764
,,,,Conditions/Version_1/zeroback(4)_v1.xlsx,New rule: Press 'space' when you see the letter 'x' or 'X'.,X,space,,,,,,,,,0,13,13,13,0,9,9,9,,,,,,,,,,,,,,,,,,,,,,,,,,,,,,,,,,,,,,,,,,,,,,,,,,,,,,,,,,,,,,,,,,,,,1.8222,1005.255854,None,space,1,1005.255854,None,0.7739489,P022,dencog,1,Pre,2022_Jan_19_1137,N-Back (New Version 2021),2021.1.4,120.2009764
,,,,Conditions/Version_1/zeroback(4)_v1.xlsx,New rule: Press 'space' when you see the letter 'x' or 'X'.,,,,,,,,,,,0,13,13,13,,,,,,,,,,,,,,,,,,,,,,,,,,,,,,,,,,,,,,,,,,,,,,,,,,,,,,,,,,,,,,,,,,,,,,,,,,,,,,,,,P022,dencog,1,Pre,2022_Jan_19_1137,N-Back (New Version 2021),2021.1.4,120.2009764
,,,,Conditions/Version_1/oneback(4)_v1.xlsx,New rule: Press 'space' when you see 1-back (i.e. the same letter as the one that appeared 1 letter ago.),w,None,,,,,,,,,0,14,14,14,0,0,0,0,,,,,,,,,,,,,,,,,,,,,,,,,,,,,,,,,,,,,,,,,,,,,,,,,,,,,,,,,,,1007.276355,None,1010.265233,None,space,0.2845273,1010.265233,None,1007.276355,None,1.7416,1012.323807,None,None,1,1012.323807,None,,P022,dencog,1,Pre,2022_Jan_19_1137,N-Back (New Version 2021),2021.1.4,120.2009764
,,,,Conditions/Version_1/oneback(4)_v1.xlsx,New rule: Press 'space' when you see 1-back (i.e. the same letter as the one that appeared 1 letter ago.),q,None,,,,,,,,,0,14,14,14,0,1,1,1,,,,,,,,,,,,,,,,,,,,,,,,,,,,,,,,,,,,,,,,,,,,,,,,,,,,,,,,,,,,,,,,,,,,,1.6672,1016.002495,None,None,1,1016.002495,None,,P022,dencog,1,Pre,2022_Jan_19_1137,N-Back (New Version 2021),2021.1.4,120.2009764
,,,,Conditions/Version_1/oneback(4)_v1.xlsx,New rule: Press 'space' when you see 1-back (i.e. the same letter as the one that appeared 1 letter ago.),i,None,,,,,,,,,0,14,14,14,0,2,2,2,,,,,,,,,,,,,,,,,,,,,,,,,,,,,,,,,,,,,,,,,,,,,,,,,,,,,,,,,,,,,,,,,,,,,1.7478,1019.751325,None,None,1,1019.751325,None,,P022,dencog,1,Pre,2022_Jan_19_1137,N-Back (New Version 2021),2021.1.4,120.2009764
,,,,Conditions/Version_1/oneback(4)_v1.xlsx,New rule: Press 'space' when you see 1-back (i.e. the same letter as the one that appeared 1 letter ago.),t,None,,,,,,,,,0,14,14,14,0,3,3,3,,,,,,,,,,,,,,,,,,,,,,,,,,,,,,,,,,,,,,,,,,,,,,,,,,,,,,,,,,,,,,,,,,,,,1.289,1023.041903,None,None,1,1023.041903,None,,P022,dencog,1,Pre,2022_Jan_19_1137,N-Back (New Version 2021),2021.1.4,120.2009764
,,,,Conditions/Version_1/oneback(4)_v1.xlsx,New rule: Press 'space' when you see 1-back (i.e. the same letter as the one that appeared 1 letter ago.),v,None,,,,,,,,,0,14,14,14,0,4,4,4,,,,,,,,,,,,,,,,,,,,,,,,,,,,,,,,,,,,,,,,,,,,,,,,,,,,,,,,,,,,,,,,,,,,,1.5618,1026.608264,None,None,1,1026.608264,None,,P022,dencog,1,Pre,2022_Jan_19_1137,N-Back (New Version 2021),2021.1.4,120.2009764
,,,,Conditions/Version_1/oneback(4)_v1.xlsx,New rule: Press 'space' when you see 1-back (i.e. the same letter as the one that appeared 1 letter ago.),V,space,,,,,,,,,0,14,14,14,0,5,5,5,,,,,,,,,,,,,,,,,,,,,,,,,,,,,,,,,,,,,,,,,,,,,,,,,,,,,,,,,,,,,,,,,,,,,1.4006,1030.016712,None,space,1,1030.016712,None,0.5730563,P022,dencog,1,Pre,2022_Jan_19_1137,N-Back (New Version 2021),2021.1.4,120.2009764
,,,,Conditions/Version_1/oneback(4)_v1.xlsx,New rule: Press 'space' when you see 1-back (i.e. the same letter as the one that appeared 1 letter ago.),v,space,,,,,,,,,0,14,14,14,0,6,6,6,,,,,,,,,,,,,,,,,,,,,,,,,,,,,,,,,,,,,,,,,,,,,,,,,,,,,,,,,,,,,,,,,,,,,1.8842,1033.909489,None,None,0,1033.909489,None,,P022,dencog,1,Pre,2022_Jan_19_1137,N-Back (New Version 2021),2021.1.4,120.2009764
,,,,Conditions/Version_1/oneback(4)_v1.xlsx,New rule: Press 'space' when you see 1-back (i.e. the same letter as the one that appeared 1 letter ago.),p,None,,,,,,,,,0,14,14,14,0,7,7,7,,,,,,,,,,,,,,,,,,,,,,,,,,,,,,,,,,,,,,,,,,,,,,,,,,,,,,,,,,,,,,,,,,,,,1.723,1037.642199,None,None,1,1037.642199,None,,P022,dencog,1,Pre,2022_Jan_19_1137,N-Back (New Version 2021),2021.1.4,120.2009764
,,,,Conditions/Version_1/oneback(4)_v1.xlsx,New rule: Press 'space' when you see 1-back (i.e. the same letter as the one that appeared 1 letter ago.),w,None,,,,,,,,,0,14,14,14,0,8,8,8,,,,,,,,,,,,,,,,,,,,,,,,,,,,,,,,,,,,,,,,,,,,,,,,,,,,,,,,,,,,,,,,,,,,,1.3262,1040.981456,None,None,1,1040.981456,None,,P022,dencog,1,Pre,2022_Jan_19_1137,N-Back (New Version 2021),2021.1.4,120.2009764
,,,,Conditions/Version_1/oneback(4)_v1.xlsx,New rule: Press 'space' when you see 1-back (i.e. the same letter as the one that appeared 1 letter ago.),W,space,,,,,,,,,0,14,14,14,0,9,9,9,,,,,,,,,,,,,,,,,,,,,,,,,,,,,,,,,,,,,,,,,,,,,,,,,,,,,,,,,,,,,,,,,,,,,1.6858,1044.677326,None,space,1,1044.677326,None,0.4885355,P022,dencog,1,Pre,2022_Jan_19_1137,N-Back (New Version 2021),2021.1.4,120.2009764
,,,,Conditions/Version_1/oneback(4)_v1.xlsx,New rule: Press 'space' when you see 1-back (i.e. the same letter as the one that appeared 1 letter ago.),,,,,,,,,,,0,14,14,14,,,,,,,,,,,,,,,,,,,,,,,,,,,,,,,,,,,,,,,,,,,,,,,,,,,,,,,,,,,,,,,,,,,,,,,,,,,,,,,,,P022,dencog,1,Pre,2022_Jan_19_1137,N-Back (New Version 2021),2021.1.4,120.2009764
,,,,Conditions/Version_1/threeback(4)_v1.xlsx,New rule: Press 'space' when you see 3-back (i.e. the same letter as the one that appeared 3 letters ago.),A,None,,,,,,,,,0,15,15,15,0,0,0,0,,,,,,,,,,,,,,,,,,,,,,,,,,,,,,,,,,,,,,,,,,,,,,,,,,,,,,,,,,,1046.69948,None,1049.687219,None,space,2.2547463,1049.687219,None,1046.69948,None,1.5804,1053.5607,None,None,1,1053.5607,None,,P022,dencog,1,Pre,2022_Jan_19_1137,N-Back (New Version 2021),2021.1.4,120.2009764
,,,,Conditions/Version_1/threeback(4)_v1.xlsx,New rule: Press 'space' when you see 3-back (i.e. the same letter as the one that appeared 3 letters ago.),n,None,,,,,,,,,0,15,15,15,0,1,1,1,,,,,,,,,,,,,,,,,,,,,,,,,,,,,,,,,,,,,,,,,,,,,,,,,,,,,,,,,,,,,,,,,,,,,1.382,1056.949187,None,None,1,1056.949187,None,,P022,dencog,1,Pre,2022_Jan_19_1137,N-Back (New Version 2021),2021.1.4,120.2009764
,,,,Conditions/Version_1/threeback(4)_v1.xlsx,New rule: Press 'space' when you see 3-back (i.e. the same letter as the one that appeared 3 letters ago.),g,None,,,,,,,,,0,15,15,15,0,2,2,2,,,,,,,,,,,,,,,,,,,,,,,,,,,,,,,,,,,,,,,,,,,,,,,,,,,,,,,,,,,,,,,,,,,,,1.32,1060.281527,None,None,1,1060.281527,None,,P022,dencog,1,Pre,2022_Jan_19_1137,N-Back (New Version 2021),2021.1.4,120.2009764
,,,,Conditions/Version_1/threeback(4)_v1.xlsx,New rule: Press 'space' when you see 3-back (i.e. the same letter as the one that appeared 3 letters ago.),A,space,,,,,,,,,0,15,15,15,0,3,3,3,,,,,,,,,,,,,,,,,,,,,,,,,,,,,,,,,,,,,,,,,,,,,,,,,,,,,,,,,,,,,,,,,,,,,1.2828,1063.57212,None,space,1,1063.57212,None,0.7057274,P022,dencog,1,Pre,2022_Jan_19_1137,N-Back (New Version 2021),2021.1.4,120.2009764
,,,,Conditions/Version_1/threeback(4)_v1.xlsx,New rule: Press 'space' when you see 3-back (i.e. the same letter as the one that appeared 3 letters ago.),p,None,,,,,,,,,0,15,15,15,0,4,4,4,,,,,,,,,,,,,,,,,,,,,,,,,,,,,,,,,,,,,,,,,,,,,,,,,,,,,,,,,,,,,,,,,,,,,1.909,1067.487334,None,None,1,1067.487334,None,,P022,dencog,1,Pre,2022_Jan_19_1137,N-Back (New Version 2021),2021.1.4,120.2009764
,,,,Conditions/Version_1/threeback(4)_v1.xlsx,New rule: Press 'space' when you see 3-back (i.e. the same letter as the one that appeared 3 letters ago.),O,None,,,,,,,,,0,15,15,15,0,5,5,5,,,,,,,,,,,,,,,,,,,,,,,,,,,,,,,,,,,,,,,,,,,,,,,,,,,,,,,,,,,,,,,,,,,,,1.1898,1070.678768,None,None,1,1070.678768,None,,P022,dencog,1,Pre,2022_Jan_19_1137,N-Back (New Version 2021),2021.1.4,120.2009764
,,,,Conditions/Version_1/threeback(4)_v1.xlsx,New rule: Press 'space' when you see 3-back (i.e. the same letter as the one that appeared 3 letters ago.),a,space,,,,,,,,,0,15,15,15,0,6,6,6,,,,,,,,,,,,,,,,,,,,,,,,,,,,,,,,,,,,,,,,,,,,,,,,,,,,,,,,,,,,,,,,,,,,,1.9834,1074.668407,None,space,1,1074.668407,None,0.8093849,P022,dencog,1,Pre,2022_Jan_19_1137,N-Back (New Version 2021),2021.1.4,120.2009764
,,,,Conditions/Version_1/threeback(4)_v1.xlsx,New rule: Press 'space' when you see 3-back (i.e. the same letter as the one that appeared 3 letters ago.),p,space,,,,,,,,,0,15,15,15,0,7,7,7,,,,,,,,,,,,,,,,,,,,,,,,,,,,,,,,,,,,,,,,,,,,,,,,,,,,,,,,,,,,,,,,,,,,,1.2022,1077.884058,None,space,1,1077.884058,None,1.1617987,P022,dencog,1,Pre,2022_Jan_19_1137,N-Back (New Version 2021),2021.1.4,120.2009764
,,,,Conditions/Version_1/threeback(4)_v1.xlsx,New rule: Press 'space' when you see 3-back (i.e. the same letter as the one that appeared 3 letters ago.),x,None,,,,,,,,,0,15,15,15,0,8,8,8,,,,,,,,,,,,,,,,,,,,,,,,,,,,,,,,,,,,,,,,,,,,,,,,,,,,,,,,,,,,,,,,,,,,,1.0906,1080.979771,None,None,1,1080.979771,None,,P022,dencog,1,Pre,2022_Jan_19_1137,N-Back (New Version 2021),2021.1.4,120.2009764
,,,,Conditions/Version_1/threeback(4)_v1.xlsx,New rule: Press 'space' when you see 3-back (i.e. the same letter as the one that appeared 3 letters ago.),X,None,,,,,,,,,0,15,15,15,0,9,9,9,,,,,,,,,,,,,,,,,,,,,,,,,,,,,,,,,,,,,,,,,,,,,,,,,,,,,,,,,,,,,,,,,,,,,1.9152,1084.899108,None,None,1,1084.899108,None,,P022,dencog,1,Pre,2022_Jan_19_1137,N-Back (New Version 2021),2021.1.4,120.2009764
,,,,Conditions/Version_1/threeback(4)_v1.xlsx,New rule: Press 'space' when you see 3-back (i.e. the same letter as the one that appeared 3 letters ago.),,,,,,,,,,,0,15,15,15,,,,,,,,,,,,,,,,,,,,,,,,,,,,,,,,,,,,,,,,,,,,,,,,,,,,,,,,,,,,,,,,,,,,,,,,,,,,,,,,,P022,dencog,1,Pre,2022_Jan_19_1137,N-Back (New Version 2021),2021.1.4,120.2009764
