CondFileP,InstructionsP,LettersDisplayedP,CorrectnessP,CondFile,Instructions,LettersDisplayed,Correctness,practicetrials.thisRepN,practicetrials.thisTrialN,practicetrials.thisN,practicetrials.thisIndex,InnerLoopPractice.thisRepN,InnerLoopPractice.thisTrialN,InnerLoopPractice.thisN,InnerLoopPractice.thisIndex,trials.thisRepN,trials.thisTrialN,trials.thisN,trials.thisIndex,InnerLoop.thisRepN,InnerLoop.thisTrialN,InnerLoop.thisN,InnerLoop.thisIndex,TaskVersionText.started,TaskVersionText.stopped,InstrKey1.keys,InstrKey1.rt,InstrKey1.started,InstrKey1.stopped,text.started,text.stopped,key_resp_4.keys,key_resp_4.rt,key_resp_4.started,key_resp_4.stopped,text_2.started,text_2.stopped,key_resp_3.keys,key_resp_3.rt,key_resp_3.started,key_resp_3.stopped,text_3.started,text_3.stopped,key_resp_2.keys,key_resp_2.rt,key_resp_2.started,key_resp_2.stopped,PractIn1.started,PractIn1.stopped,PractIn2.started,PractIn2.stopped,PractInstructionPass.keys,PractInstructionPass.rt,PractInstructionPass.started,PractInstructionPass.stopped,PractBlock1.started,PractBlock1.stopped,ISIjitterPractice,ISI_Pract_Fixation.started,ISI_Pract_Fixation.stopped,N_backP.started,N_backP.stopped,KeyPractice.keys,KeyPractice.corr,KeyPractice.started,KeyPractice.stopped,text_4.started,text_4.stopped,KeyPractice.rt,TransitionText.started,TransitionText.stopped,key_resp_6.keys,key_resp_6.rt,key_resp_6.started,key_resp_6.stopped,text_5.started,text_5.stopped,key_resp_5.keys,key_resp_5.rt,key_resp_5.started,key_resp_5.stopped,MainInt1.started,MainInt1.stopped,MainInt2.started,MainInt2.stopped,InstructionPass.keys,InstructionPass.rt,InstructionPass.started,InstructionPass.stopped,Blocks1.started,Blocks1.stopped,ISIjitter,N_backD.started,N_backD.stopped,key_resp.keys,key_resp.corr,key_resp.started,key_resp.stopped,key_resp.rt,participant,Study Name,Task Version (required to run),PRE/POST,date,expName,psychopyVersion,frameRate
,,,,,,,,,,,,,,,,,,,,,,,,50.9857321,None,space,20.6714469,51.4792183,None,,,,,,,,,,,,,,,,,,,,,,,,,,,,,,,,,,,,,,,,,,,,,,,,,,,,,,,,,,,,,,,,,,,,,,,P022,fencog,2,Post,2022_Jan_26_1207,N-Back (New Version 2021),2021.1.4,120.056955
,,,,,,,,,,,,,,,,,,,,,,,,,,,,,,72.1839518,None,space,13.269296,72.6815487,None,,,,,,,,,,,,,,,,,,,,,,,,,,,,,,,,,,,,,,,,,,,,,,,,,,,,,,,,,,,,,,,,,P022,fencog,2,Post,2022_Jan_26_1207,N-Back (New Version 2021),2021.1.4,120.056955
,,,,,,,,,,,,,,,,,,,,,,,,,,,,,,,,,,,,85.9864685,None,space,8.824647,86.4782476,None,,,,,,,,,,,,,,,,,,,,,,,,,,,,,,,,,,,,,,,,,,,,,,,,,,,,,,,,,,,P022,fencog,2,Post,2022_Jan_26_1207,N-Back (New Version 2021),2021.1.4,120.056955
,,,,,,,,,,,,,,,,,,,,,,,,,,,,,,,,,,,,,,,,,,95.329626,None,space,5.1898332,95.8169509,None,,,,,,,,,,,,,,,,,,,,,,,,,,,,,,,,,,,,,,,,,,,,,,,,,,,,,P022,fencog,2,Post,2022_Jan_26_1207,N-Back (New Version 2021),2021.1.4,120.056955
Conditions/Version_2Pr/zeroback(1)_v2.xlsx,Rule: Press 'space' when you see the letter 'x' or 'X'.,x,space,,,,,0,0,0,0,0,0,0,0,,,,,,,,,,,,,,,,,,,,,,,,,,,,,,,,,102.4411175,None,105.4325317,None,space,1.2542546,105.4325317,None,102.4411175,None,1.915,106.7190173,None,108.6399303,None,None,0,108.6399303,None,110.6488693,None,,,,,,,,,,,,,,,,,,,,,,,,,,,,,,,,P022,fencog,2,Post,2022_Jan_26_1207,N-Back (New Version 2021),2021.1.4,120.056955
Conditions/Version_2Pr/zeroback(1)_v2.xlsx,Rule: Press 'space' when you see the letter 'x' or 'X'.,R,None,,,,,0,0,0,0,0,1,1,1,,,,,,,,,,,,,,,,,,,,,,,,,,,,,,,,,,,,,,,,,,,1.765,112.1451666,None,113.9232061,None,None,1,113.9232061,None,115.9183842,None,,,,,,,,,,,,,,,,,,,,,,,,,,,,,,,,P022,fencog,2,Post,2022_Jan_26_1207,N-Back (New Version 2021),2021.1.4,120.056955
Conditions/Version_2Pr/zeroback(1)_v2.xlsx,Rule: Press 'space' when you see the letter 'x' or 'X'.,p,None,,,,,0,0,0,0,0,2,2,2,,,,,,,,,,,,,,,,,,,,,,,,,,,,,,,,,,,,,,,,,,,1.24,117.4179793,None,118.6601725,None,None,1,118.6601725,None,120.6670318,None,,,,,,,,,,,,,,,,,,,,,,,,,,,,,,,,P022,fencog,2,Post,2022_Jan_26_1207,N-Back (New Version 2021),2021.1.4,120.056955
Conditions/Version_2Pr/zeroback(1)_v2.xlsx,Rule: Press 'space' when you see the letter 'x' or 'X'.,O,None,,,,,0,0,0,0,0,3,3,3,,,,,,,,,,,,,,,,,,,,,,,,,,,,,,,,,,,,,,,,,,,1.89,122.1677234,None,124.0723073,None,None,1,124.0723073,None,126.0654211,None,,,,,,,,,,,,,,,,,,,,,,,,,,,,,,,,P022,fencog,2,Post,2022_Jan_26_1207,N-Back (New Version 2021),2021.1.4,120.056955
Conditions/Version_2Pr/zeroback(1)_v2.xlsx,Rule: Press 'space' when you see the letter 'x' or 'X'.,i,None,,,,,0,0,0,0,0,4,4,4,,,,,,,,,,,,,,,,,,,,,,,,,,,,,,,,,,,,,,,,,,,1.315,127.5651572,None,128.8824744,None,None,1,128.8824744,None,130.8890794,None,,,,,,,,,,,,,,,,,,,,,,,,,,,,,,,,P022,fencog,2,Post,2022_Jan_26_1207,N-Back (New Version 2021),2021.1.4,120.056955
Conditions/Version_2Pr/zeroback(1)_v2.xlsx,Rule: Press 'space' when you see the letter 'x' or 'X'.,U,None,,,,,0,0,0,0,0,5,5,5,,,,,,,,,,,,,,,,,,,,,,,,,,,,,,,,,,,,,,,,,,,1.84,132.3890287,None,134.2308952,None,None,1,134.2308952,None,136.2375117,None,,,,,,,,,,,,,,,,,,,,,,,,,,,,,,,,P022,fencog,2,Post,2022_Jan_26_1207,N-Back (New Version 2021),2021.1.4,120.056955
Conditions/Version_2Pr/zeroback(1)_v2.xlsx,Rule: Press 'space' when you see the letter 'x' or 'X'.,N,None,,,,,0,0,0,0,0,6,6,6,,,,,,,,,,,,,,,,,,,,,,,,,,,,,,,,,,,,,,,,,,,1.265,137.7382412,None,139.0059707,None,None,1,139.0059707,None,141.0042123,None,,,,,,,,,,,,,,,,,,,,,,,,,,,,,,,,P022,fencog,2,Post,2022_Jan_26_1207,N-Back (New Version 2021),2021.1.4,120.056955
Conditions/Version_2Pr/zeroback(1)_v2.xlsx,Rule: Press 'space' when you see the letter 'x' or 'X'.,m,None,,,,,0,0,0,0,0,7,7,7,,,,,,,,,,,,,,,,,,,,,,,,,,,,,,,,,,,,,,,,,,,1.79,142.5104971,None,144.3023575,None,None,1,144.3023575,None,146.3048918,None,,,,,,,,,,,,,,,,,,,,,,,,,,,,,,,,P022,fencog,2,Post,2022_Jan_26_1207,N-Back (New Version 2021),2021.1.4,120.056955
Conditions/Version_2Pr/zeroback(1)_v2.xlsx,Rule: Press 'space' when you see the letter 'x' or 'X'.,x,space,,,,,0,0,0,0,0,8,8,8,,,,,,,,,,,,,,,,,,,,,,,,,,,,,,,,,,,,,,,,,,,1.64,147.8098065,None,149.4502206,None,space,1,149.4502206,None,150.5261732,None,1.0605997,,,,,,,,,,,,,,,,,,,,,,,,,,,,,,,P022,fencog,2,Post,2022_Jan_26_1207,N-Back (New Version 2021),2021.1.4,120.056955
Conditions/Version_2Pr/zeroback(1)_v2.xlsx,Rule: Press 'space' when you see the letter 'x' or 'X'.,X,space,,,,,0,0,0,0,0,9,9,9,,,,,,,,,,,,,,,,,,,,,,,,,,,,,,,,,,,,,,,,,,,1.04,152.0325297,None,153.0802862,None,space,1,153.0802862,None,153.9897239,None,0.8945431,,,,,,,,,,,,,,,,,,,,,,,,,,,,,,,P022,fencog,2,Post,2022_Jan_26_1207,N-Back (New Version 2021),2021.1.4,120.056955
Conditions/Version_2Pr/zeroback(1)_v2.xlsx,Rule: Press 'space' when you see the letter 'x' or 'X'.,,,,,,,0,0,0,0,,,,,,,,,,,,,,,,,,,,,,,,,,,,,,,,,,,,,,,,,,,,,,,,,,,,,,,,,,,,,,,,,,,,,,,,,,,,,,,,,,,,,,,,,P022,fencog,2,Post,2022_Jan_26_1207,N-Back (New Version 2021),2021.1.4,120.056955
Conditions/Version_2Pr/oneback(1)_v2.xlsx,New rule: Press 'space' when you see 1-back (i.e. the same letter as the one that appeared 1 letter ago.),r,None,,,,,0,1,1,1,0,0,0,0,,,,,,,,,,,,,,,,,,,,,,,,,,,,,,,,,155.5121487,None,158.4997333,None,space,98.9629211,158.4997333,None,155.5121487,None,1.64,257.4870908,None,259.1345738,None,None,1,259.1345738,None,261.1336791,None,,,,,,,,,,,,,,,,,,,,,,,,,,,,,,,,P022,fencog,2,Post,2022_Jan_26_1207,N-Back (New Version 2021),2021.1.4,120.056955
Conditions/Version_2Pr/oneback(1)_v2.xlsx,New rule: Press 'space' when you see 1-back (i.e. the same letter as the one that appeared 1 letter ago.),t,None,,,,,0,1,1,1,0,1,1,1,,,,,,,,,,,,,,,,,,,,,,,,,,,,,,,,,,,,,,,,,,,1.615,262.6332429,None,264.2503114,None,None,1,264.2503114,None,266.2571597,None,,,,,,,,,,,,,,,,,,,,,,,,,,,,,,,,P022,fencog,2,Post,2022_Jan_26_1207,N-Back (New Version 2021),2021.1.4,120.056955
Conditions/Version_2Pr/oneback(1)_v2.xlsx,New rule: Press 'space' when you see 1-back (i.e. the same letter as the one that appeared 1 letter ago.),Y,None,,,,,0,1,1,1,0,2,2,2,,,,,,,,,,,,,,,,,,,,,,,,,,,,,,,,,,,,,,,,,,,1.815,267.7567044,None,269.573037,None,None,1,269.573037,None,271.5722554,None,,,,,,,,,,,,,,,,,,,,,,,,,,,,,,,,P022,fencog,2,Post,2022_Jan_26_1207,N-Back (New Version 2021),2021.1.4,120.056955
Conditions/Version_2Pr/oneback(1)_v2.xlsx,New rule: Press 'space' when you see 1-back (i.e. the same letter as the one that appeared 1 letter ago.),y,space,,,,,0,1,1,1,0,3,3,3,,,,,,,,,,,,,,,,,,,,,,,,,,,,,,,,,,,,,,,,,,,1.09,273.0718337,None,274.1637745,None,space,1,274.1637745,None,274.5234945,None,0.3472336,,,,,,,,,,,,,,,,,,,,,,,,,,,,,,,P022,fencog,2,Post,2022_Jan_26_1207,N-Back (New Version 2021),2021.1.4,120.056955
Conditions/Version_2Pr/oneback(1)_v2.xlsx,New rule: Press 'space' when you see 1-back (i.e. the same letter as the one that appeared 1 letter ago.),p,None,,,,,0,1,1,1,0,4,4,4,,,,,,,,,,,,,,,,,,,,,,,,,,,,,,,,,,,,,,,,,,,1.54,276.0293827,None,277.5709044,None,None,1,277.5709044,None,279.5747741,None,,,,,,,,,,,,,,,,,,,,,,,,,,,,,,,,P022,fencog,2,Post,2022_Jan_26_1207,N-Back (New Version 2021),2021.1.4,120.056955
Conditions/Version_2Pr/oneback(1)_v2.xlsx,New rule: Press 'space' when you see 1-back (i.e. the same letter as the one that appeared 1 letter ago.),P,space,,,,,0,1,1,1,0,5,5,5,,,,,,,,,,,,,,,,,,,,,,,,,,,,,,,,,,,,,,,,,,,1.065,281.0782491,None,282.1464989,None,space,1,282.1464989,None,282.5531027,None,0.3963806,,,,,,,,,,,,,,,,,,,,,,,,,,,,,,,P022,fencog,2,Post,2022_Jan_26_1207,N-Back (New Version 2021),2021.1.4,120.056955
Conditions/Version_2Pr/oneback(1)_v2.xlsx,New rule: Press 'space' when you see 1-back (i.e. the same letter as the one that appeared 1 letter ago.),e,None,,,,,0,1,1,1,0,6,6,6,,,,,,,,,,,,,,,,,,,,,,,,,,,,,,,,,,,,,,,,,,,1.29,284.0522139,None,285.3446556,None,None,1,285.3446556,None,287.3509561,None,,,,,,,,,,,,,,,,,,,,,,,,,,,,,,,,P022,fencog,2,Post,2022_Jan_26_1207,N-Back (New Version 2021),2021.1.4,120.056955
Conditions/Version_2Pr/oneback(1)_v2.xlsx,New rule: Press 'space' when you see 1-back (i.e. the same letter as the one that appeared 1 letter ago.),r,None,,,,,0,1,1,1,0,7,7,7,,,,,,,,,,,,,,,,,,,,,,,,,,,,,,,,,,,,,,,,,,,1.565,288.8505778,None,290.4169259,None,None,1,290.4169259,None,292.4164372,None,,,,,,,,,,,,,,,,,,,,,,,,,,,,,,,,P022,fencog,2,Post,2022_Jan_26_1207,N-Back (New Version 2021),2021.1.4,120.056955
Conditions/Version_2Pr/oneback(1)_v2.xlsx,New rule: Press 'space' when you see 1-back (i.e. the same letter as the one that appeared 1 letter ago.),R,space,,,,,0,1,1,1,0,8,8,8,,,,,,,,,,,,,,,,,,,,,,,,,,,,,,,,,,,,,,,,,,,1.14,293.9159026,None,295.057152,None,space,1,295.057152,None,295.5177853,None,0.4456214,,,,,,,,,,,,,,,,,,,,,,,,,,,,,,,P022,fencog,2,Post,2022_Jan_26_1207,N-Back (New Version 2021),2021.1.4,120.056955
Conditions/Version_2Pr/oneback(1)_v2.xlsx,New rule: Press 'space' when you see 1-back (i.e. the same letter as the one that appeared 1 letter ago.),p,None,,,,,0,1,1,1,0,9,9,9,,,,,,,,,,,,,,,,,,,,,,,,,,,,,,,,,,,,,,,,,,,1.765,297.023558,None,298.7903413,None,None,1,298.7903413,None,300.7974364,None,,,,,,,,,,,,,,,,,,,,,,,,,,,,,,,,P022,fencog,2,Post,2022_Jan_26_1207,N-Back (New Version 2021),2021.1.4,120.056955
Conditions/Version_2Pr/oneback(1)_v2.xlsx,New rule: Press 'space' when you see 1-back (i.e. the same letter as the one that appeared 1 letter ago.),,,,,,,0,1,1,1,,,,,,,,,,,,,,,,,,,,,,,,,,,,,,,,,,,,,,,,,,,,,,,,,,,,,,,,,,,,,,,,,,,,,,,,,,,,,,,,,,,,,,,,,P022,fencog,2,Post,2022_Jan_26_1207,N-Back (New Version 2021),2021.1.4,120.056955
Conditions/Version_2Pr/twoback(1)_v2.xlsx,New rule: Press 'space' when you see 2-back (i.e. the same letter as the one that appeared 2 letters ago.),r,None,,,,,0,2,2,2,0,0,0,0,,,,,,,,,,,,,,,,,,,,,,,,,,,,,,,,,302.3180079,None,305.3065926,None,space,2.4282371,305.3065926,None,302.3180079,None,1.89,307.7579395,None,309.6541209,None,None,1,309.6541209,None,311.6607711,None,,,,,,,,,,,,,,,,,,,,,,,,,,,,,,,,P022,fencog,2,Post,2022_Jan_26_1207,N-Back (New Version 2021),2021.1.4,120.056955
Conditions/Version_2Pr/twoback(1)_v2.xlsx,New rule: Press 'space' when you see 2-back (i.e. the same letter as the one that appeared 2 letters ago.),P,None,,,,,0,2,2,2,0,1,1,1,,,,,,,,,,,,,,,,,,,,,,,,,,,,,,,,,,,,,,,,,,,1.69,313.160262,None,314.8572688,None,None,1,314.8572688,None,316.8593916,None,,,,,,,,,,,,,,,,,,,,,,,,,,,,,,,,P022,fencog,2,Post,2022_Jan_26_1207,N-Back (New Version 2021),2021.1.4,120.056955
Conditions/Version_2Pr/twoback(1)_v2.xlsx,New rule: Press 'space' when you see 2-back (i.e. the same letter as the one that appeared 2 letters ago.),o,None,,,,,0,2,2,2,0,2,2,2,,,,,,,,,,,,,,,,,,,,,,,,,,,,,,,,,,,,,,,,,,,1.99,318.3589086,None,320.3551858,None,None,1,320.3551858,None,322.3601075,None,,,,,,,,,,,,,,,,,,,,,,,,,,,,,,,,P022,fencog,2,Post,2022_Jan_26_1207,N-Back (New Version 2021),2021.1.4,120.056955
Conditions/Version_2Pr/twoback(1)_v2.xlsx,New rule: Press 'space' when you see 2-back (i.e. the same letter as the one that appeared 2 letters ago.),p,space,,,,,0,2,2,2,0,3,3,3,,,,,,,,,,,,,,,,,,,,,,,,,,,,,,,,,,,,,,,,,,,1.765,323.8570959,None,325.6258013,None,space,1,325.6258013,None,326.1238457,None,0.4849132,,,,,,,,,,,,,,,,,,,,,,,,,,,,,,,P022,fencog,2,Post,2022_Jan_26_1207,N-Back (New Version 2021),2021.1.4,120.056955
Conditions/Version_2Pr/twoback(1)_v2.xlsx,New rule: Press 'space' when you see 2-back (i.e. the same letter as the one that appeared 2 letters ago.),Y,None,,,,,0,2,2,2,0,4,4,4,,,,,,,,,,,,,,,,,,,,,,,,,,,,,,,,,,,,,,,,,,,1.19,327.6334837,None,328.8306278,None,None,1,328.8306278,None,330.8302619,None,,,,,,,,,,,,,,,,,,,,,,,,,,,,,,,,P022,fencog,2,Post,2022_Jan_26_1207,N-Back (New Version 2021),2021.1.4,120.056955
Conditions/Version_2Pr/twoback(1)_v2.xlsx,New rule: Press 'space' when you see 2-back (i.e. the same letter as the one that appeared 2 letters ago.),q,None,,,,,0,2,2,2,0,5,5,5,,,,,,,,,,,,,,,,,,,,,,,,,,,,,,,,,,,,,,,,,,,1.49,332.3297989,None,333.8314978,None,None,1,333.8314978,None,335.8288146,None,,,,,,,,,,,,,,,,,,,,,,,,,,,,,,,,P022,fencog,2,Post,2022_Jan_26_1207,N-Back (New Version 2021),2021.1.4,120.056955
Conditions/Version_2Pr/twoback(1)_v2.xlsx,New rule: Press 'space' when you see 2-back (i.e. the same letter as the one that appeared 2 letters ago.),m,None,,,,,0,2,2,2,0,6,6,6,,,,,,,,,,,,,,,,,,,,,,,,,,,,,,,,,,,,,,,,,,,1.565,337.3280294,None,338.8990186,None,None,1,338.8990186,None,340.9022496,None,,,,,,,,,,,,,,,,,,,,,,,,,,,,,,,,P022,fencog,2,Post,2022_Jan_26_1207,N-Back (New Version 2021),2021.1.4,120.056955
Conditions/Version_2Pr/twoback(1)_v2.xlsx,New rule: Press 'space' when you see 2-back (i.e. the same letter as the one that appeared 2 letters ago.),Q,space,,,,,0,2,2,2,0,7,7,7,,,,,,,,,,,,,,,,,,,,,,,,,,,,,,,,,,,,,,,,,,,1.665,342.4019101,None,344.0700095,None,space,1,344.0700095,None,344.6359361,None,0.552852,,,,,,,,,,,,,,,,,,,,,,,,,,,,,,,P022,fencog,2,Post,2022_Jan_26_1207,N-Back (New Version 2021),2021.1.4,120.056955
Conditions/Version_2Pr/twoback(1)_v2.xlsx,New rule: Press 'space' when you see 2-back (i.e. the same letter as the one that appeared 2 letters ago.),L,None,,,,,0,2,2,2,0,8,8,8,,,,,,,,,,,,,,,,,,,,,,,,,,,,,,,,,,,,,,,,,,,1.715,346.1421176,None,347.8607759,None,None,1,347.8607759,None,349.8594198,None,,,,,,,,,,,,,,,,,,,,,,,,,,,,,,,,P022,fencog,2,Post,2022_Jan_26_1207,N-Back (New Version 2021),2021.1.4,120.056955
Conditions/Version_2Pr/twoback(1)_v2.xlsx,New rule: Press 'space' when you see 2-back (i.e. the same letter as the one that appeared 2 letters ago.),q,space,,,,,0,2,2,2,0,9,9,9,,,,,,,,,,,,,,,,,,,,,,,,,,,,,,,,,,,,,,,,,,,1.065,351.365724,None,352.4402111,None,space,1,352.4402111,None,352.8800436,None,0.4228086,,,,,,,,,,,,,,,,,,,,,,,,,,,,,,,P022,fencog,2,Post,2022_Jan_26_1207,N-Back (New Version 2021),2021.1.4,120.056955
Conditions/Version_2Pr/twoback(1)_v2.xlsx,New rule: Press 'space' when you see 2-back (i.e. the same letter as the one that appeared 2 letters ago.),,,,,,,0,2,2,2,,,,,,,,,,,,,,,,,,,,,,,,,,,,,,,,,,,,,,,,,,,,,,,,,,,,,,,,,,,,,,,,,,,,,,,,,,,,,,,,,,,,,,,,,P022,fencog,2,Post,2022_Jan_26_1207,N-Back (New Version 2021),2021.1.4,120.056955
Conditions/Version_2Pr/threeback(1)_v2.xlsx,New rule: Press 'space' when you see 3-back (i.e. the same letter as the one that appeared 3 letters ago.),u,None,,,,,0,3,3,3,0,0,0,0,,,,,,,,,,,,,,,,,,,,,,,,,,,,,,,,,354.4008496,None,357.3861742,None,space,0.4607482,357.3861742,None,354.4008496,None,1.14,357.8680079,None,359.0156533,None,None,1,359.0156533,None,361.0212041,None,,,,,,,,,,,,,,,,,,,,,,,,,,,,,,,,P022,fencog,2,Post,2022_Jan_26_1207,N-Back (New Version 2021),2021.1.4,120.056955
Conditions/Version_2Pr/threeback(1)_v2.xlsx,New rule: Press 'space' when you see 3-back (i.e. the same letter as the one that appeared 3 letters ago.),U,None,,,,,0,3,3,3,0,1,1,1,,,,,,,,,,,,,,,,,,,,,,,,,,,,,,,,,,,,,,,,,,,1.365,362.5209773,None,363.8883412,None,None,1,363.8883412,None,365.8880199,None,,,,,,,,,,,,,,,,,,,,,,,,,,,,,,,,P022,fencog,2,Post,2022_Jan_26_1207,N-Back (New Version 2021),2021.1.4,120.056955
Conditions/Version_2Pr/threeback(1)_v2.xlsx,New rule: Press 'space' when you see 3-back (i.e. the same letter as the one that appeared 3 letters ago.),p,None,,,,,0,3,3,3,0,2,2,2,,,,,,,,,,,,,,,,,,,,,,,,,,,,,,,,,,,,,,,,,,,1.64,367.3943967,None,369.0361555,None,None,1,369.0361555,None,371.0426348,None,,,,,,,,,,,,,,,,,,,,,,,,,,,,,,,,P022,fencog,2,Post,2022_Jan_26_1207,N-Back (New Version 2021),2021.1.4,120.056955
Conditions/Version_2Pr/threeback(1)_v2.xlsx,New rule: Press 'space' when you see 3-back (i.e. the same letter as the one that appeared 3 letters ago.),U,space,,,,,0,3,3,3,0,3,3,3,,,,,,,,,,,,,,,,,,,,,,,,,,,,,,,,,,,,,,,,,,,1.065,372.5430898,None,373.6169006,None,space,1,373.6169006,None,374.0514685,None,0.4218765,,,,,,,,,,,,,,,,,,,,,,,,,,,,,,,P022,fencog,2,Post,2022_Jan_26_1207,N-Back (New Version 2021),2021.1.4,120.056955
Conditions/Version_2Pr/threeback(1)_v2.xlsx,New rule: Press 'space' when you see 3-back (i.e. the same letter as the one that appeared 3 letters ago.),e,None,,,,,0,3,3,3,0,4,4,4,,,,,,,,,,,,,,,,,,,,,,,,,,,,,,,,,,,,,,,,,,,1.69,375.5583549,None,377.2496654,None,None,1,377.2496654,None,379.2529514,None,,,,,,,,,,,,,,,,,,,,,,,,,,,,,,,,P022,fencog,2,Post,2022_Jan_26_1207,N-Back (New Version 2021),2021.1.4,120.056955
Conditions/Version_2Pr/threeback(1)_v2.xlsx,New rule: Press 'space' when you see 3-back (i.e. the same letter as the one that appeared 3 letters ago.),R,None,,,,,0,3,3,3,0,5,5,5,,,,,,,,,,,,,,,,,,,,,,,,,,,,,,,,,,,,,,,,,,,1.94,380.7570336,None,382.6978635,None,None,1,382.6978635,None,384.6972893,None,,,,,,,,,,,,,,,,,,,,,,,,,,,,,,,,P022,fencog,2,Post,2022_Jan_26_1207,N-Back (New Version 2021),2021.1.4,120.056955
Conditions/Version_2Pr/threeback(1)_v2.xlsx,New rule: Press 'space' when you see 3-back (i.e. the same letter as the one that appeared 3 letters ago.),p,None,,,,,0,3,3,3,0,6,6,6,,,,,,,,,,,,,,,,,,,,,,,,,,,,,,,,,,,,,,,,,,,1.39,386.1968289,None,387.5882021,None,None,1,387.5882021,None,389.5884362,None,,,,,,,,,,,,,,,,,,,,,,,,,,,,,,,,P022,fencog,2,Post,2022_Jan_26_1207,N-Back (New Version 2021),2021.1.4,120.056955
Conditions/Version_2Pr/threeback(1)_v2.xlsx,New rule: Press 'space' when you see 3-back (i.e. the same letter as the one that appeared 3 letters ago.),E,space,,,,,0,3,3,3,0,7,7,7,,,,,,,,,,,,,,,,,,,,,,,,,,,,,,,,,,,,,,,,,,,1.89,391.0953784,None,392.9877474,None,space,1,392.9877474,None,393.4280619,None,0.4269263,,,,,,,,,,,,,,,,,,,,,,,,,,,,,,,P022,fencog,2,Post,2022_Jan_26_1207,N-Back (New Version 2021),2021.1.4,120.056955
Conditions/Version_2Pr/threeback(1)_v2.xlsx,New rule: Press 'space' when you see 3-back (i.e. the same letter as the one that appeared 3 letters ago.),k,None,,,,,0,3,3,3,0,8,8,8,,,,,,,,,,,,,,,,,,,,,,,,,,,,,,,,,,,,,,,,,,,2.015,394.9275871,None,396.944914,None,None,1,396.944914,None,398.9457063,None,,,,,,,,,,,,,,,,,,,,,,,,,,,,,,,,P022,fencog,2,Post,2022_Jan_26_1207,N-Back (New Version 2021),2021.1.4,120.056955
Conditions/Version_2Pr/threeback(1)_v2.xlsx,New rule: Press 'space' when you see 3-back (i.e. the same letter as the one that appeared 3 letters ago.),m,None,,,,,0,3,3,3,0,9,9,9,,,,,,,,,,,,,,,,,,,,,,,,,,,,,,,,,,,,,,,,,,,1.44,400.4512612,None,401.8924849,None,None,1,401.8924849,None,403.8960036,None,,,,,,,,,,,,,,,,,,,,,,,,,,,,,,,,P022,fencog,2,Post,2022_Jan_26_1207,N-Back (New Version 2021),2021.1.4,120.056955
Conditions/Version_2Pr/threeback(1)_v2.xlsx,New rule: Press 'space' when you see 3-back (i.e. the same letter as the one that appeared 3 letters ago.),,,,,,,0,3,3,3,,,,,,,,,,,,,,,,,,,,,,,,,,,,,,,,,,,,,,,,,,,,,,,,,,,,,,,,,,,,,,,,,,,,,,,,,,,,,,,,,,,,,,,,,P022,fencog,2,Post,2022_Jan_26_1207,N-Back (New Version 2021),2021.1.4,120.056955
,,,,,,,,,,,,,,,,,,,,,,,,,,,,,,,,,,,,,,,,,,,,,,,,,,,,,,,,,,,,,,,,,,,,,,405.4097255,None,space,6.9947819,405.8999427,None,,,,,,,,,,,,,,,,,,,,,,,,,P022,fencog,2,Post,2022_Jan_26_1207,N-Back (New Version 2021),2021.1.4,120.056955
,,,,,,,,,,,,,,,,,,,,,,,,,,,,,,,,,,,,,,,,,,,,,,,,,,,,,,,,,,,,,,,,,,,,,,,,,,,,412.9192319,None,space,5.6562163,413.4147253,None,,,,,,,,,,,,,,,,,,,P022,fencog,2,Post,2022_Jan_26_1207,N-Back (New Version 2021),2021.1.4,120.056955
,,,,Conditions/Version_1/zeroback(1)_v1.xlsx,Rule: Press 'space' when you see the letter 'x' or 'X'.,b,None,,,,,,,,,0,0,0,0,0,0,0,0,,,,,,,,,,,,,,,,,,,,,,,,,,,,,,,,,,,,,,,,,,,,,,,,,,,,,,,,,,,419.1878529,None,422.171022,None,space,0.3316845,422.171022,None,419.1878529,None,1.5556,424.0915731,None,None,1,424.0915731,None,,P022,fencog,2,Post,2022_Jan_26_1207,N-Back (New Version 2021),2021.1.4,120.056955
,,,,Conditions/Version_1/zeroback(1)_v1.xlsx,Rule: Press 'space' when you see the letter 'x' or 'X'.,T,None,,,,,,,,,0,0,0,0,0,1,1,1,,,,,,,,,,,,,,,,,,,,,,,,,,,,,,,,,,,,,,,,,,,,,,,,,,,,,,,,,,,,,,,,,,,,,1.2766,427.3765695,None,None,1,427.3765695,None,,P022,fencog,2,Post,2022_Jan_26_1207,N-Back (New Version 2021),2021.1.4,120.056955
,,,,Conditions/Version_1/zeroback(1)_v1.xlsx,Rule: Press 'space' when you see the letter 'x' or 'X'.,L,None,,,,,,,,,0,0,0,0,0,2,2,2,,,,,,,,,,,,,,,,,,,,,,,,,,,,,,,,,,,,,,,,,,,,,,,,,,,,,,,,,,,,,,,,,,,,,1.7602,431.1422813,None,None,1,431.1422813,None,,P022,fencog,2,Post,2022_Jan_26_1207,N-Back (New Version 2021),2021.1.4,120.056955
,,,,Conditions/Version_1/zeroback(1)_v1.xlsx,Rule: Press 'space' when you see the letter 'x' or 'X'.,x,space,,,,,,,,,0,0,0,0,0,3,3,3,,,,,,,,,,,,,,,,,,,,,,,,,,,,,,,,,,,,,,,,,,,,,,,,,,,,,,,,,,,,,,,,,,,,,1.3944,434.5417269,None,space,1,434.5417269,None,0.3849084,P022,fencog,2,Post,2022_Jan_26_1207,N-Back (New Version 2021),2021.1.4,120.056955
,,,,Conditions/Version_1/zeroback(1)_v1.xlsx,Rule: Press 'space' when you see the letter 'x' or 'X'.,o,None,,,,,,,,,0,0,0,0,0,4,4,4,,,,,,,,,,,,,,,,,,,,,,,,,,,,,,,,,,,,,,,,,,,,,,,,,,,,,,,,,,,,,,,,,,,,,1.9214,438.4758035,None,None,1,438.4758035,None,,P022,fencog,2,Post,2022_Jan_26_1207,N-Back (New Version 2021),2021.1.4,120.056955
,,,,Conditions/Version_1/zeroback(1)_v1.xlsx,Rule: Press 'space' when you see the letter 'x' or 'X'.,P,None,,,,,,,,,0,0,0,0,0,5,5,5,,,,,,,,,,,,,,,,,,,,,,,,,,,,,,,,,,,,,,,,,,,,,,,,,,,,,,,,,,,,,,,,,,,,,1.847,442.3462192,None,None,1,442.3462192,None,,P022,fencog,2,Post,2022_Jan_26_1207,N-Back (New Version 2021),2021.1.4,120.056955
,,,,Conditions/Version_1/zeroback(1)_v1.xlsx,Rule: Press 'space' when you see the letter 'x' or 'X'.,X,space,,,,,,,,,0,0,0,0,0,6,6,6,,,,,,,,,,,,,,,,,,,,,,,,,,,,,,,,,,,,,,,,,,,,,,,,,,,,,,,,,,,,,,,,,,,,,1.1154,445.462883,None,space,1,445.462883,None,1.1597634,P022,fencog,2,Post,2022_Jan_26_1207,N-Back (New Version 2021),2021.1.4,120.056955
,,,,Conditions/Version_1/zeroback(1)_v1.xlsx,Rule: Press 'space' when you see the letter 'x' or 'X'.,n,None,,,,,,,,,0,0,0,0,0,7,7,7,,,,,,,,,,,,,,,,,,,,,,,,,,,,,,,,,,,,,,,,,,,,,,,,,,,,,,,,,,,,,,,,,,,,,1.2704,448.7390572,None,None,1,448.7390572,None,,P022,fencog,2,Post,2022_Jan_26_1207,N-Back (New Version 2021),2021.1.4,120.056955
,,,,Conditions/Version_1/zeroback(1)_v1.xlsx,Rule: Press 'space' when you see the letter 'x' or 'X'.,M,None,,,,,,,,,0,0,0,0,0,8,8,8,,,,,,,,,,,,,,,,,,,,,,,,,,,,,,,,,,,,,,,,,,,,,,,,,,,,,,,,,,,,,,,,,,,,,1.0782,451.8370847,None,None,1,451.8370847,None,,P022,fencog,2,Post,2022_Jan_26_1207,N-Back (New Version 2021),2021.1.4,120.056955
,,,,Conditions/Version_1/zeroback(1)_v1.xlsx,Rule: Press 'space' when you see the letter 'x' or 'X'.,a,None,,,,,,,,,0,0,0,0,0,9,9,9,,,,,,,,,,,,,,,,,,,,,,,,,,,,,,,,,,,,,,,,,,,,,,,,,,,,,,,,,,,,,,,,,,,,,1.0968,454.9493237,None,None,1,454.9493237,None,,P022,fencog,2,Post,2022_Jan_26_1207,N-Back (New Version 2021),2021.1.4,120.056955
,,,,Conditions/Version_1/zeroback(1)_v1.xlsx,Rule: Press 'space' when you see the letter 'x' or 'X'.,,,,,,,,,,,0,0,0,0,,,,,,,,,,,,,,,,,,,,,,,,,,,,,,,,,,,,,,,,,,,,,,,,,,,,,,,,,,,,,,,,,,,,,,,,,,,,,,,,,P022,fencog,2,Post,2022_Jan_26_1207,N-Back (New Version 2021),2021.1.4,120.056955
,,,,Conditions/Version_1/oneback(1)_v1.xlsx,New rule: Press 'space' when you see 1-back (i.e. the same letter as the one that appeared 1 letter ago.),b,None,,,,,,,,,0,1,1,1,0,0,0,0,,,,,,,,,,,,,,,,,,,,,,,,,,,,,,,,,,,,,,,,,,,,,,,,,,,,,,,,,,,456.9844375,None,459.9694006,None,space,0.4134064,459.9694006,None,456.9844375,None,1.3386,461.7507185,None,None,1,461.7507185,None,,P022,fencog,2,Post,2022_Jan_26_1207,N-Back (New Version 2021),2021.1.4,120.056955
,,,,Conditions/Version_1/oneback(1)_v1.xlsx,New rule: Press 'space' when you see 1-back (i.e. the same letter as the one that appeared 1 letter ago.),p,None,,,,,,,,,0,1,1,1,0,1,1,1,,,,,,,,,,,,,,,,,,,,,,,,,,,,,,,,,,,,,,,,,,,,,,,,,,,,,,,,,,,,,,,,,,,,,1.1898,464.9491536,None,None,1,464.9491536,None,,P022,fencog,2,Post,2022_Jan_26_1207,N-Back (New Version 2021),2021.1.4,120.056955
,,,,Conditions/Version_1/oneback(1)_v1.xlsx,New rule: Press 'space' when you see 1-back (i.e. the same letter as the one that appeared 1 letter ago.),M,None,,,,,,,,,0,1,1,1,0,2,2,2,,,,,,,,,,,,,,,,,,,,,,,,,,,,,,,,,,,,,,,,,,,,,,,,,,,,,,,,,,,,,,,,,,,,,1.754,468.7062219,None,None,1,468.7062219,None,,P022,fencog,2,Post,2022_Jan_26_1207,N-Back (New Version 2021),2021.1.4,120.056955
,,,,Conditions/Version_1/oneback(1)_v1.xlsx,New rule: Press 'space' when you see 1-back (i.e. the same letter as the one that appeared 1 letter ago.),M,space,,,,,,,,,0,1,1,1,0,3,3,3,,,,,,,,,,,,,,,,,,,,,,,,,,,,,,,,,,,,,,,,,,,,,,,,,,,,,,,,,,,,,,,,,,,,,1.7354,472.4468269,None,space,1,472.4468269,None,1.2802794,P022,fencog,2,Post,2022_Jan_26_1207,N-Back (New Version 2021),2021.1.4,120.056955
,,,,Conditions/Version_1/oneback(1)_v1.xlsx,New rule: Press 'space' when you see 1-back (i.e. the same letter as the one that appeared 1 letter ago.),n,None,,,,,,,,,0,1,1,1,0,4,4,4,,,,,,,,,,,,,,,,,,,,,,,,,,,,,,,,,,,,,,,,,,,,,,,,,,,,,,,,,,,,,,,,,,,,,1.9338,476.3940542,None,None,1,476.3940542,None,,P022,fencog,2,Post,2022_Jan_26_1207,N-Back (New Version 2021),2021.1.4,120.056955
,,,,Conditions/Version_1/oneback(1)_v1.xlsx,New rule: Press 'space' when you see 1-back (i.e. the same letter as the one that appeared 1 letter ago.),g,None,,,,,,,,,0,1,1,1,0,5,5,5,,,,,,,,,,,,,,,,,,,,,,,,,,,,,,,,,,,,,,,,,,,,,,,,,,,,,,,,,,,,,,,,,,,,,1.1526,479.5541307,None,None,1,479.5541307,None,,P022,fencog,2,Post,2022_Jan_26_1207,N-Back (New Version 2021),2021.1.4,120.056955
,,,,Conditions/Version_1/oneback(1)_v1.xlsx,New rule: Press 'space' when you see 1-back (i.e. the same letter as the one that appeared 1 letter ago.),P,None,,,,,,,,,0,1,1,1,0,6,6,6,,,,,,,,,,,,,,,,,,,,,,,,,,,,,,,,,,,,,,,,,,,,,,,,,,,,,,,,,,,,,,,,,,,,,1.8532,483.4263033,None,None,1,483.4263033,None,,P022,fencog,2,Post,2022_Jan_26_1207,N-Back (New Version 2021),2021.1.4,120.056955
,,,,Conditions/Version_1/oneback(1)_v1.xlsx,New rule: Press 'space' when you see 1-back (i.e. the same letter as the one that appeared 1 letter ago.),o,None,,,,,,,,,0,1,1,1,0,7,7,7,,,,,,,,,,,,,,,,,,,,,,,,,,,,,,,,,,,,,,,,,,,,,,,,,,,,,,,,,,,,,,,,,,,,,1.723,487.1628389,None,None,1,487.1628389,None,,P022,fencog,2,Post,2022_Jan_26_1207,N-Back (New Version 2021),2021.1.4,120.056955
,,,,Conditions/Version_1/oneback(1)_v1.xlsx,New rule: Press 'space' when you see 1-back (i.e. the same letter as the one that appeared 1 letter ago.),f,None,,,,,,,,,0,1,1,1,0,8,8,8,,,,,,,,,,,,,,,,,,,,,,,,,,,,,,,,,,,,,,,,,,,,,,,,,,,,,,,,,,,,,,,,,,,,,1.7602,490.9338478,None,None,1,490.9338478,None,,P022,fencog,2,Post,2022_Jan_26_1207,N-Back (New Version 2021),2021.1.4,120.056955
,,,,Conditions/Version_1/oneback(1)_v1.xlsx,New rule: Press 'space' when you see 1-back (i.e. the same letter as the one that appeared 1 letter ago.),F,space,,,,,,,,,0,1,1,1,0,9,9,9,,,,,,,,,,,,,,,,,,,,,,,,,,,,,,,,,,,,,,,,,,,,,,,,,,,,,,,,,,,,,,,,,,,,,1.3758,494.3170455,None,space,1,494.3170455,None,1.1616303,P022,fencog,2,Post,2022_Jan_26_1207,N-Back (New Version 2021),2021.1.4,120.056955
,,,,Conditions/Version_1/oneback(1)_v1.xlsx,New rule: Press 'space' when you see 1-back (i.e. the same letter as the one that appeared 1 letter ago.),,,,,,,,,,,0,1,1,1,,,,,,,,,,,,,,,,,,,,,,,,,,,,,,,,,,,,,,,,,,,,,,,,,,,,,,,,,,,,,,,,,,,,,,,,,,,,,,,,,P022,fencog,2,Post,2022_Jan_26_1207,N-Back (New Version 2021),2021.1.4,120.056955
,,,,Conditions/Version_1/twoback(1)_v1.xlsx,New rule: Press 'space' when you see 2-back (i.e. the same letter as the one that appeared 2 letters ago.),b,None,,,,,,,,,0,2,2,2,0,0,0,0,,,,,,,,,,,,,,,,,,,,,,,,,,,,,,,,,,,,,,,,,,,,,,,,,,,,,,,,,,,496.345627,None,499.3275839,None,space,0.4311285,499.3275839,None,496.345627,None,1.4688,501.2574377,None,None,1,501.2574377,None,,P022,fencog,2,Post,2022_Jan_26_1207,N-Back (New Version 2021),2021.1.4,120.056955
,,,,Conditions/Version_1/twoback(1)_v1.xlsx,New rule: Press 'space' when you see 2-back (i.e. the same letter as the one that appeared 2 letters ago.),h,None,,,,,,,,,0,2,2,2,0,1,1,1,,,,,,,,,,,,,,,,,,,,,,,,,,,,,,,,,,,,,,,,,,,,,,,,,,,,,,,,,,,,,,,,,,,,,1.2642,504.5306437,None,None,1,504.5306437,None,,P022,fencog,2,Post,2022_Jan_26_1207,N-Back (New Version 2021),2021.1.4,120.056955
,,,,Conditions/Version_1/twoback(1)_v1.xlsx,New rule: Press 'space' when you see 2-back (i.e. the same letter as the one that appeared 2 letters ago.),j,None,,,,,,,,,0,2,2,2,0,2,2,2,,,,,,,,,,,,,,,,,,,,,,,,,,,,,,,,,,,,,,,,,,,,,,,,,,,,,,,,,,,,,,,,,,,,,1.754,508.3028666,None,None,1,508.3028666,None,,P022,fencog,2,Post,2022_Jan_26_1207,N-Back (New Version 2021),2021.1.4,120.056955
,,,,Conditions/Version_1/twoback(1)_v1.xlsx,New rule: Press 'space' when you see 2-back (i.e. the same letter as the one that appeared 2 letters ago.),H,space,,,,,,,,,0,2,2,2,0,3,3,3,,,,,,,,,,,,,,,,,,,,,,,,,,,,,,,,,,,,,,,,,,,,,,,,,,,,,,,,,,,,,,,,,,,,,1.8408,512.1446296,None,space,1,512.1446296,None,1.2781388,P022,fencog,2,Post,2022_Jan_26_1207,N-Back (New Version 2021),2021.1.4,120.056955
,,,,Conditions/Version_1/twoback(1)_v1.xlsx,New rule: Press 'space' when you see 2-back (i.e. the same letter as the one that appeared 2 letters ago.),p,None,,,,,,,,,0,2,2,2,0,4,4,4,,,,,,,,,,,,,,,,,,,,,,,,,,,,,,,,,,,,,,,,,,,,,,,,,,,,,,,,,,,,,,,,,,,,,1.723,515.8756347,None,None,1,515.8756347,None,,P022,fencog,2,Post,2022_Jan_26_1207,N-Back (New Version 2021),2021.1.4,120.056955
,,,,Conditions/Version_1/twoback(1)_v1.xlsx,New rule: Press 'space' when you see 2-back (i.e. the same letter as the one that appeared 2 letters ago.),p,None,,,,,,,,,0,2,2,2,0,5,5,5,,,,,,,,,,,,,,,,,,,,,,,,,,,,,,,,,,,,,,,,,,,,,,,,,,,,,,,,,,,,,,,,,,,,,1.1216,518.9995448,None,None,1,518.9995448,None,,P022,fencog,2,Post,2022_Jan_26_1207,N-Back (New Version 2021),2021.1.4,120.056955
,,,,Conditions/Version_1/twoback(1)_v1.xlsx,New rule: Press 'space' when you see 2-back (i.e. the same letter as the one that appeared 2 letters ago.),w,None,,,,,,,,,0,2,2,2,0,6,6,6,,,,,,,,,,,,,,,,,,,,,,,,,,,,,,,,,,,,,,,,,,,,,,,,,,,,,,,,,,,,,,,,,,,,,1.5742,522.574117,None,None,1,522.574117,None,,P022,fencog,2,Post,2022_Jan_26_1207,N-Back (New Version 2021),2021.1.4,120.056955
,,,,Conditions/Version_1/twoback(1)_v1.xlsx,New rule: Press 'space' when you see 2-back (i.e. the same letter as the one that appeared 2 letters ago.),R,None,,,,,,,,,0,2,2,2,0,7,7,7,,,,,,,,,,,,,,,,,,,,,,,,,,,,,,,,,,,,,,,,,,,,,,,,,,,,,,,,,,,,,,,,,,,,,1.2084,525.7891779,None,None,1,525.7891779,None,,P022,fencog,2,Post,2022_Jan_26_1207,N-Back (New Version 2021),2021.1.4,120.056955
,,,,Conditions/Version_1/twoback(1)_v1.xlsx,New rule: Press 'space' when you see 2-back (i.e. the same letter as the one that appeared 2 letters ago.),a,None,,,,,,,,,0,2,2,2,0,8,8,8,,,,,,,,,,,,,,,,,,,,,,,,,,,,,,,,,,,,,,,,,,,,,,,,,,,,,,,,,,,,,,,,,,,,,1.8594,529.6612329,None,None,1,529.6612329,None,,P022,fencog,2,Post,2022_Jan_26_1207,N-Back (New Version 2021),2021.1.4,120.056955
,,,,Conditions/Version_1/twoback(1)_v1.xlsx,New rule: Press 'space' when you see 2-back (i.e. the same letter as the one that appeared 2 letters ago.),r,space,,,,,,,,,0,2,2,2,0,9,9,9,,,,,,,,,,,,,,,,,,,,,,,,,,,,,,,,,,,,,,,,,,,,,,,,,,,,,,,,,,,,,,,,,,,,,1.6176,533.2791207,None,space,1,533.2791207,None,0.6796743,P022,fencog,2,Post,2022_Jan_26_1207,N-Back (New Version 2021),2021.1.4,120.056955
,,,,Conditions/Version_1/twoback(1)_v1.xlsx,New rule: Press 'space' when you see 2-back (i.e. the same letter as the one that appeared 2 letters ago.),,,,,,,,,,,0,2,2,2,,,,,,,,,,,,,,,,,,,,,,,,,,,,,,,,,,,,,,,,,,,,,,,,,,,,,,,,,,,,,,,,,,,,,,,,,,,,,,,,,P022,fencog,2,Post,2022_Jan_26_1207,N-Back (New Version 2021),2021.1.4,120.056955
,,,,Conditions/Version_1/threeback(1)_v1.xlsx,New rule: Press 'space' when you see 3-back (i.e. the same letter as the one that appeared 3 letters ago.),r,None,,,,,,,,,0,3,3,3,0,0,0,0,,,,,,,,,,,,,,,,,,,,,,,,,,,,,,,,,,,,,,,,,,,,,,,,,,,,,,,,,,,535.2997367,None,538.287658,None,space,0.4073608,538.287658,None,535.2997367,None,1.1278,539.8600318,None,None,1,539.8600318,None,,P022,fencog,2,Post,2022_Jan_26_1207,N-Back (New Version 2021),2021.1.4,120.056955
,,,,Conditions/Version_1/threeback(1)_v1.xlsx,New rule: Press 'space' when you see 3-back (i.e. the same letter as the one that appeared 3 letters ago.),o,None,,,,,,,,,0,3,3,3,0,1,1,1,,,,,,,,,,,,,,,,,,,,,,,,,,,,,,,,,,,,,,,,,,,,,,,,,,,,,,,,,,,,,,,,,,,,,1.5866,543.450457,None,None,1,543.450457,None,,P022,fencog,2,Post,2022_Jan_26_1207,N-Back (New Version 2021),2021.1.4,120.056955
,,,,Conditions/Version_1/threeback(1)_v1.xlsx,New rule: Press 'space' when you see 3-back (i.e. the same letter as the one that appeared 3 letters ago.),P,None,,,,,,,,,0,3,3,3,0,2,2,2,,,,,,,,,,,,,,,,,,,,,,,,,,,,,,,,,,,,,,,,,,,,,,,,,,,,,,,,,,,,,,,,,,,,,1.2394,546.694266,None,None,1,546.694266,None,,P022,fencog,2,Post,2022_Jan_26_1207,N-Back (New Version 2021),2021.1.4,120.056955
,,,,Conditions/Version_1/threeback(1)_v1.xlsx,New rule: Press 'space' when you see 3-back (i.e. the same letter as the one that appeared 3 letters ago.),R,space,,,,,,,,,0,3,3,3,0,3,3,3,,,,,,,,,,,,,,,,,,,,,,,,,,,,,,,,,,,,,,,,,,,,,,,,,,,,,,,,,,,,,,,,,,,,,1.6238,550.3240787,None,space,1,550.3240787,None,0.8027749,P022,fencog,2,Post,2022_Jan_26_1207,N-Back (New Version 2021),2021.1.4,120.056955
,,,,Conditions/Version_1/threeback(1)_v1.xlsx,New rule: Press 'space' when you see 3-back (i.e. the same letter as the one that appeared 3 letters ago.),p,None,,,,,,,,,0,3,3,3,0,4,4,4,,,,,,,,,,,,,,,,,,,,,,,,,,,,,,,,,,,,,,,,,,,,,,,,,,,,,,,,,,,,,,,,,,,,,1.6176,553.9480914,None,space,0,553.9480914,None,1.3711025,P022,fencog,2,Post,2022_Jan_26_1207,N-Back (New Version 2021),2021.1.4,120.056955
,,,,Conditions/Version_1/threeback(1)_v1.xlsx,New rule: Press 'space' when you see 3-back (i.e. the same letter as the one that appeared 3 letters ago.),E,None,,,,,,,,,0,3,3,3,0,5,5,5,,,,,,,,,,,,,,,,,,,,,,,,,,,,,,,,,,,,,,,,,,,,,,,,,,,,,,,,,,,,,,,,,,,,,1.3262,557.2797339,None,None,1,557.2797339,None,,P022,fencog,2,Post,2022_Jan_26_1207,N-Back (New Version 2021),2021.1.4,120.056955
,,,,Conditions/Version_1/threeback(1)_v1.xlsx,New rule: Press 'space' when you see 3-back (i.e. the same letter as the one that appeared 3 letters ago.),e,None,,,,,,,,,0,3,3,3,0,6,6,6,,,,,,,,,,,,,,,,,,,,,,,,,,,,,,,,,,,,,,,,,,,,,,,,,,,,,,,,,,,,,,,,,,,,,1.1588,560.4496279,None,None,1,560.4496279,None,,P022,fencog,2,Post,2022_Jan_26_1207,N-Back (New Version 2021),2021.1.4,120.056955
,,,,Conditions/Version_1/threeback(1)_v1.xlsx,New rule: Press 'space' when you see 3-back (i.e. the same letter as the one that appeared 3 letters ago.),m,None,,,,,,,,,0,3,3,3,0,7,7,7,,,,,,,,,,,,,,,,,,,,,,,,,,,,,,,,,,,,,,,,,,,,,,,,,,,,,,,,,,,,,,,,,,,,,1.9524,564.4111467,None,None,1,564.4111467,None,,P022,fencog,2,Post,2022_Jan_26_1207,N-Back (New Version 2021),2021.1.4,120.056955
,,,,Conditions/Version_1/threeback(1)_v1.xlsx,New rule: Press 'space' when you see 3-back (i.e. the same letter as the one that appeared 3 letters ago.),n,None,,,,,,,,,0,3,3,3,0,8,8,8,,,,,,,,,,,,,,,,,,,,,,,,,,,,,,,,,,,,,,,,,,,,,,,,,,,,,,,,,,,,,,,,,,,,,1.103,567.5221874,None,None,1,567.5221874,None,,P022,fencog,2,Post,2022_Jan_26_1207,N-Back (New Version 2021),2021.1.4,120.056955
,,,,Conditions/Version_1/threeback(1)_v1.xlsx,New rule: Press 'space' when you see 3-back (i.e. the same letter as the one that appeared 3 letters ago.),e,space,,,,,,,,,0,3,3,3,0,9,9,9,,,,,,,,,,,,,,,,,,,,,,,,,,,,,,,,,,,,,,,,,,,,,,,,,,,,,,,,,,,,,,,,,,,,,1.599,571.1260852,None,space,1,571.1260852,None,0.7525105,P022,fencog,2,Post,2022_Jan_26_1207,N-Back (New Version 2021),2021.1.4,120.056955
,,,,Conditions/Version_1/threeback(1)_v1.xlsx,New rule: Press 'space' when you see 3-back (i.e. the same letter as the one that appeared 3 letters ago.),,,,,,,,,,,0,3,3,3,,,,,,,,,,,,,,,,,,,,,,,,,,,,,,,,,,,,,,,,,,,,,,,,,,,,,,,,,,,,,,,,,,,,,,,,,,,,,,,,,P022,fencog,2,Post,2022_Jan_26_1207,N-Back (New Version 2021),2021.1.4,120.056955
,,,,Conditions/Version_1/oneback(2)_v1.xlsx,New rule: Press 'space' when you see 1-back (i.e. the same letter as the one that appeared 1 letter ago.),q,None,,,,,,,,,0,4,4,4,0,0,0,0,,,,,,,,,,,,,,,,,,,,,,,,,,,,,,,,,,,,,,,,,,,,,,,,,,,,,,,,,,,573.1500481,None,576.1347841,None,space,0.39195,576.1347841,None,573.1500481,None,1.537,578.0909767,None,None,1,578.0909767,None,,P022,fencog,2,Post,2022_Jan_26_1207,N-Back (New Version 2021),2021.1.4,120.056955
,,,,Conditions/Version_1/oneback(2)_v1.xlsx,New rule: Press 'space' when you see 1-back (i.e. the same letter as the one that appeared 1 letter ago.),Q,space,,,,,,,,,0,4,4,4,0,1,1,1,,,,,,,,,,,,,,,,,,,,,,,,,,,,,,,,,,,,,,,,,,,,,,,,,,,,,,,,,,,,,,,,,,,,,1.661,581.7561116,None,space,1,581.7561116,None,0.9465421,P022,fencog,2,Post,2022_Jan_26_1207,N-Back (New Version 2021),2021.1.4,120.056955
,,,,Conditions/Version_1/oneback(2)_v1.xlsx,New rule: Press 'space' when you see 1-back (i.e. the same letter as the one that appeared 1 letter ago.),P,None,,,,,,,,,0,4,4,4,0,2,2,2,,,,,,,,,,,,,,,,,,,,,,,,,,,,,,,,,,,,,,,,,,,,,,,,,,,,,,,,,,,,,,,,,,,,,1.2642,585.0249648,None,None,1,585.0249648,None,,P022,fencog,2,Post,2022_Jan_26_1207,N-Back (New Version 2021),2021.1.4,120.056955
,,,,Conditions/Version_1/oneback(2)_v1.xlsx,New rule: Press 'space' when you see 1-back (i.e. the same letter as the one that appeared 1 letter ago.),o,None,,,,,,,,,0,4,4,4,0,3,3,3,,,,,,,,,,,,,,,,,,,,,,,,,,,,,,,,,,,,,,,,,,,,,,,,,,,,,,,,,,,,,,,,,,,,,1.0782,588.1223653,None,None,1,588.1223653,None,,P022,fencog,2,Post,2022_Jan_26_1207,N-Back (New Version 2021),2021.1.4,120.056955
,,,,Conditions/Version_1/oneback(2)_v1.xlsx,New rule: Press 'space' when you see 1-back (i.e. the same letter as the one that appeared 1 letter ago.),m,None,,,,,,,,,0,4,4,4,0,4,4,4,,,,,,,,,,,,,,,,,,,,,,,,,,,,,,,,,,,,,,,,,,,,,,,,,,,,,,,,,,,,,,,,,,,,,1.5804,591.7114424,None,None,1,591.7114424,None,,P022,fencog,2,Post,2022_Jan_26_1207,N-Back (New Version 2021),2021.1.4,120.056955
,,,,Conditions/Version_1/oneback(2)_v1.xlsx,New rule: Press 'space' when you see 1-back (i.e. the same letter as the one that appeared 1 letter ago.),Z,None,,,,,,,,,0,4,4,4,0,5,5,5,,,,,,,,,,,,,,,,,,,,,,,,,,,,,,,,,,,,,,,,,,,,,,,,,,,,,,,,,,,,,,,,,,,,,1.7044,595.4241093,None,None,1,595.4241093,None,,P022,fencog,2,Post,2022_Jan_26_1207,N-Back (New Version 2021),2021.1.4,120.056955
,,,,Conditions/Version_1/oneback(2)_v1.xlsx,New rule: Press 'space' when you see 1-back (i.e. the same letter as the one that appeared 1 letter ago.),c,None,,,,,,,,,0,4,4,4,0,6,6,6,,,,,,,,,,,,,,,,,,,,,,,,,,,,,,,,,,,,,,,,,,,,,,,,,,,,,,,,,,,,,,,,,,,,,1.0286,598.4665996,None,None,1,598.4665996,None,,P022,fencog,2,Post,2022_Jan_26_1207,N-Back (New Version 2021),2021.1.4,120.056955
,,,,Conditions/Version_1/oneback(2)_v1.xlsx,New rule: Press 'space' when you see 1-back (i.e. the same letter as the one that appeared 1 letter ago.),c,space,,,,,,,,,0,4,4,4,0,7,7,7,,,,,,,,,,,,,,,,,,,,,,,,,,,,,,,,,,,,,,,,,,,,,,,,,,,,,,,,,,,,,,,,,,,,,1.6548,602.1248681,None,space,1,602.1248681,None,0.634188,P022,fencog,2,Post,2022_Jan_26_1207,N-Back (New Version 2021),2021.1.4,120.056955
,,,,Conditions/Version_1/oneback(2)_v1.xlsx,New rule: Press 'space' when you see 1-back (i.e. the same letter as the one that appeared 1 letter ago.),P,None,,,,,,,,,0,4,4,4,0,8,8,8,,,,,,,,,,,,,,,,,,,,,,,,,,,,,,,,,,,,,,,,,,,,,,,,,,,,,,,,,,,,,,,,,,,,,1.63,605.758512,None,None,1,605.758512,None,,P022,fencog,2,Post,2022_Jan_26_1207,N-Back (New Version 2021),2021.1.4,120.056955
,,,,Conditions/Version_1/oneback(2)_v1.xlsx,New rule: Press 'space' when you see 1-back (i.e. the same letter as the one that appeared 1 letter ago.),p,space,,,,,,,,,0,4,4,4,0,9,9,9,,,,,,,,,,,,,,,,,,,,,,,,,,,,,,,,,,,,,,,,,,,,,,,,,,,,,,,,,,,,,,,,,,,,,1.351,609.1311547,None,space,1,609.1311547,None,0.5714833,P022,fencog,2,Post,2022_Jan_26_1207,N-Back (New Version 2021),2021.1.4,120.056955
,,,,Conditions/Version_1/oneback(2)_v1.xlsx,New rule: Press 'space' when you see 1-back (i.e. the same letter as the one that appeared 1 letter ago.),,,,,,,,,,,0,4,4,4,,,,,,,,,,,,,,,,,,,,,,,,,,,,,,,,,,,,,,,,,,,,,,,,,,,,,,,,,,,,,,,,,,,,,,,,,,,,,,,,,P022,fencog,2,Post,2022_Jan_26_1207,N-Back (New Version 2021),2021.1.4,120.056955
,,,,Conditions/Version_1/zeroback(2)_v1.xlsx,New rule: Press 'space' when you see the letter 'x' or 'X'.,p,None,,,,,,,,,0,5,5,5,0,0,0,0,,,,,,,,,,,,,,,,,,,,,,,,,,,,,,,,,,,,,,,,,,,,,,,,,,,,,,,,,,,611.1454829,None,614.134441,None,space,0.4082255,614.134441,None,611.1454829,None,1.7168,616.28774,None,None,1,616.28774,None,,P022,fencog,2,Post,2022_Jan_26_1207,N-Back (New Version 2021),2021.1.4,120.056955
,,,,Conditions/Version_1/zeroback(2)_v1.xlsx,New rule: Press 'space' when you see the letter 'x' or 'X'.,L,None,,,,,,,,,0,5,5,5,0,1,1,1,,,,,,,,,,,,,,,,,,,,,,,,,,,,,,,,,,,,,,,,,,,,,,,,,,,,,,,,,,,,,,,,,,,,,1.0968,619.3870659,None,None,1,619.3870659,None,,P022,fencog,2,Post,2022_Jan_26_1207,N-Back (New Version 2021),2021.1.4,120.056955
,,,,Conditions/Version_1/zeroback(2)_v1.xlsx,New rule: Press 'space' when you see the letter 'x' or 'X'.,G,None,,,,,,,,,0,5,5,5,0,2,2,2,,,,,,,,,,,,,,,,,,,,,,,,,,,,,,,,,,,,,,,,,,,,,,,,,,,,,,,,,,,,,,,,,,,,,1.413,622.8124575,None,None,1,622.8124575,None,,P022,fencog,2,Post,2022_Jan_26_1207,N-Back (New Version 2021),2021.1.4,120.056955
,,,,Conditions/Version_1/zeroback(2)_v1.xlsx,New rule: Press 'space' when you see the letter 'x' or 'X'.,y,None,,,,,,,,,0,5,5,5,0,3,3,3,,,,,,,,,,,,,,,,,,,,,,,,,,,,,,,,,,,,,,,,,,,,,,,,,,,,,,,,,,,,,,,,,,,,,1.7354,626.5596429,None,None,1,626.5596429,None,,P022,fencog,2,Post,2022_Jan_26_1207,N-Back (New Version 2021),2021.1.4,120.056955
,,,,Conditions/Version_1/zeroback(2)_v1.xlsx,New rule: Press 'space' when you see the letter 'x' or 'X'.,Y,None,,,,,,,,,0,5,5,5,0,4,4,4,,,,,,,,,,,,,,,,,,,,,,,,,,,,,,,,,,,,,,,,,,,,,,,,,,,,,,,,,,,,,,,,,,,,,1.1898,629.7585669,None,None,1,629.7585669,None,,P022,fencog,2,Post,2022_Jan_26_1207,N-Back (New Version 2021),2021.1.4,120.056955
,,,,Conditions/Version_1/zeroback(2)_v1.xlsx,New rule: Press 'space' when you see the letter 'x' or 'X'.,W,None,,,,,,,,,0,5,5,5,0,5,5,5,,,,,,,,,,,,,,,,,,,,,,,,,,,,,,,,,,,,,,,,,,,,,,,,,,,,,,,,,,,,,,,,,,,,,1.9648,633.7260432,None,None,1,633.7260432,None,,P022,fencog,2,Post,2022_Jan_26_1207,N-Back (New Version 2021),2021.1.4,120.056955
,,,,Conditions/Version_1/zeroback(2)_v1.xlsx,New rule: Press 'space' when you see the letter 'x' or 'X'.,x,space,,,,,,,,,0,5,5,5,0,6,6,6,,,,,,,,,,,,,,,,,,,,,,,,,,,,,,,,,,,,,,,,,,,,,,,,,,,,,,,,,,,,,,,,,,,,,1.4564,637.1928166,None,space,1,637.1928166,None,0.6138632,P022,fencog,2,Post,2022_Jan_26_1207,N-Back (New Version 2021),2021.1.4,120.056955
,,,,Conditions/Version_1/zeroback(2)_v1.xlsx,New rule: Press 'space' when you see the letter 'x' or 'X'.,X,space,,,,,,,,,0,5,5,5,0,7,7,7,,,,,,,,,,,,,,,,,,,,,,,,,,,,,,,,,,,,,,,,,,,,,,,,,,,,,,,,,,,,,,,,,,,,,1.878,641.0812937,None,space,1,641.0812937,None,0.629424,P022,fencog,2,Post,2022_Jan_26_1207,N-Back (New Version 2021),2021.1.4,120.056955
,,,,Conditions/Version_1/zeroback(2)_v1.xlsx,New rule: Press 'space' when you see the letter 'x' or 'X'.,p,None,,,,,,,,,0,5,5,5,0,8,8,8,,,,,,,,,,,,,,,,,,,,,,,,,,,,,,,,,,,,,,,,,,,,,,,,,,,,,,,,,,,,,,,,,,,,,1.9462,645.0455168,None,None,1,645.0455168,None,,P022,fencog,2,Post,2022_Jan_26_1207,N-Back (New Version 2021),2021.1.4,120.056955
,,,,Conditions/Version_1/zeroback(2)_v1.xlsx,New rule: Press 'space' when you see the letter 'x' or 'X'.,h,None,,,,,,,,,0,5,5,5,0,9,9,9,,,,,,,,,,,,,,,,,,,,,,,,,,,,,,,,,,,,,,,,,,,,,,,,,,,,,,,,,,,,,,,,,,,,,1.568,648.6194533,None,None,1,648.6194533,None,,P022,fencog,2,Post,2022_Jan_26_1207,N-Back (New Version 2021),2021.1.4,120.056955
,,,,Conditions/Version_1/zeroback(2)_v1.xlsx,New rule: Press 'space' when you see the letter 'x' or 'X'.,,,,,,,,,,,0,5,5,5,,,,,,,,,,,,,,,,,,,,,,,,,,,,,,,,,,,,,,,,,,,,,,,,,,,,,,,,,,,,,,,,,,,,,,,,,,,,,,,,,P022,fencog,2,Post,2022_Jan_26_1207,N-Back (New Version 2021),2021.1.4,120.056955
,,,,Conditions/Version_1/threeback(2)_v1.xlsx,New rule: Press 'space' when you see 3-back (i.e. the same letter as the one that appeared 3 letters ago.),q,None,,,,,,,,,0,6,6,6,0,0,0,0,,,,,,,,,,,,,,,,,,,,,,,,,,,,,,,,,,,,,,,,,,,,,,,,,,,,,,,,,,,650.6441669,None,653.6292035,None,space,10.4895213,653.6292035,None,650.6441669,None,1.7354,665.9001366,None,None,1,665.9001366,None,,P022,fencog,2,Post,2022_Jan_26_1207,N-Back (New Version 2021),2021.1.4,120.056955
,,,,Conditions/Version_1/threeback(2)_v1.xlsx,New rule: Press 'space' when you see 3-back (i.e. the same letter as the one that appeared 3 letters ago.),Y,None,,,,,,,,,0,6,6,6,0,1,1,1,,,,,,,,,,,,,,,,,,,,,,,,,,,,,,,,,,,,,,,,,,,,,,,,,,,,,,,,,,,,,,,,,,,,,1.816,669.721757,None,None,1,669.721757,None,,P022,fencog,2,Post,2022_Jan_26_1207,N-Back (New Version 2021),2021.1.4,120.056955
,,,,Conditions/Version_1/threeback(2)_v1.xlsx,New rule: Press 'space' when you see 3-back (i.e. the same letter as the one that appeared 3 letters ago.),p,None,,,,,,,,,0,6,6,6,0,2,2,2,,,,,,,,,,,,,,,,,,,,,,,,,,,,,,,,,,,,,,,,,,,,,,,,,,,,,,,,,,,,,,,,,,,,,1.878,673.6043944,None,None,1,673.6043944,None,,P022,fencog,2,Post,2022_Jan_26_1207,N-Back (New Version 2021),2021.1.4,120.056955
,,,,Conditions/Version_1/threeback(2)_v1.xlsx,New rule: Press 'space' when you see 3-back (i.e. the same letter as the one that appeared 3 letters ago.),p,None,,,,,,,,,0,6,6,6,0,3,3,3,,,,,,,,,,,,,,,,,,,,,,,,,,,,,,,,,,,,,,,,,,,,,,,,,,,,,,,,,,,,,,,,,,,,,1.4688,677.088907,None,None,1,677.088907,None,,P022,fencog,2,Post,2022_Jan_26_1207,N-Back (New Version 2021),2021.1.4,120.056955
,,,,Conditions/Version_1/threeback(2)_v1.xlsx,New rule: Press 'space' when you see 3-back (i.e. the same letter as the one that appeared 3 letters ago.),y,space,,,,,,,,,0,6,6,6,0,4,4,4,,,,,,,,,,,,,,,,,,,,,,,,,,,,,,,,,,,,,,,,,,,,,,,,,,,,,,,,,,,,,,,,,,,,,1.5246,680.6215532,None,space,1,680.6215532,None,1.0891209,P022,fencog,2,Post,2022_Jan_26_1207,N-Back (New Version 2021),2021.1.4,120.056955
,,,,Conditions/Version_1/threeback(2)_v1.xlsx,New rule: Press 'space' when you see 3-back (i.e. the same letter as the one that appeared 3 letters ago.),u,None,,,,,,,,,0,6,6,6,0,5,5,5,,,,,,,,,,,,,,,,,,,,,,,,,,,,,,,,,,,,,,,,,,,,,,,,,,,,,,,,,,,,,,,,,,,,,1.0658,683.7019716,None,None,1,683.7019716,None,,P022,fencog,2,Post,2022_Jan_26_1207,N-Back (New Version 2021),2021.1.4,120.056955
,,,,Conditions/Version_1/threeback(2)_v1.xlsx,New rule: Press 'space' when you see 3-back (i.e. the same letter as the one that appeared 3 letters ago.),P,space,,,,,,,,,0,6,6,6,0,6,6,6,,,,,,,,,,,,,,,,,,,,,,,,,,,,,,,,,,,,,,,,,,,,,,,,,,,,,,,,,,,,,,,,,,,,,1.2022,686.908345,None,space,1,686.908345,None,1.2344947,P022,fencog,2,Post,2022_Jan_26_1207,N-Back (New Version 2021),2021.1.4,120.056955
,,,,Conditions/Version_1/threeback(2)_v1.xlsx,New rule: Press 'space' when you see 3-back (i.e. the same letter as the one that appeared 3 letters ago.),a,None,,,,,,,,,0,6,6,6,0,7,7,7,,,,,,,,,,,,,,,,,,,,,,,,,,,,,,,,,,,,,,,,,,,,,,,,,,,,,,,,,,,,,,,,,,,,,1.971,690.8832125,None,None,1,690.8832125,None,,P022,fencog,2,Post,2022_Jan_26_1207,N-Back (New Version 2021),2021.1.4,120.056955
,,,,Conditions/Version_1/threeback(2)_v1.xlsx,New rule: Press 'space' when you see 3-back (i.e. the same letter as the one that appeared 3 letters ago.),U,space,,,,,,,,,0,6,6,6,0,8,8,8,,,,,,,,,,,,,,,,,,,,,,,,,,,,,,,,,,,,,,,,,,,,,,,,,,,,,,,,,,,,,,,,,,,,,1.5184,694.4147237,None,space,1,694.4147237,None,1.2241132,P022,fencog,2,Post,2022_Jan_26_1207,N-Back (New Version 2021),2021.1.4,120.056955
,,,,Conditions/Version_1/threeback(2)_v1.xlsx,New rule: Press 'space' when you see 3-back (i.e. the same letter as the one that appeared 3 letters ago.),q,None,,,,,,,,,0,6,6,6,0,9,9,9,,,,,,,,,,,,,,,,,,,,,,,,,,,,,,,,,,,,,,,,,,,,,,,,,,,,,,,,,,,,,,,,,,,,,1.258,697.6836002,None,None,1,697.6836002,None,,P022,fencog,2,Post,2022_Jan_26_1207,N-Back (New Version 2021),2021.1.4,120.056955
,,,,Conditions/Version_1/threeback(2)_v1.xlsx,New rule: Press 'space' when you see 3-back (i.e. the same letter as the one that appeared 3 letters ago.),,,,,,,,,,,0,6,6,6,,,,,,,,,,,,,,,,,,,,,,,,,,,,,,,,,,,,,,,,,,,,,,,,,,,,,,,,,,,,,,,,,,,,,,,,,,,,,,,,,P022,fencog,2,Post,2022_Jan_26_1207,N-Back (New Version 2021),2021.1.4,120.056955
,,,,Conditions/Version_1/twoback(2)_v1.xlsx,New rule: Press 'space' when you see 2-back (i.e. the same letter as the one that appeared 2 letters ago.),q,None,,,,,,,,,0,7,7,7,0,0,0,0,,,,,,,,,,,,,,,,,,,,,,,,,,,,,,,,,,,,,,,,,,,,,,,,,,,,,,,,,,,699.7083241,None,702.6980026,None,space,4.9726944,702.6980026,None,699.7083241,None,1.1712,708.8686782,None,None,1,708.8686782,None,,P022,fencog,2,Post,2022_Jan_26_1207,N-Back (New Version 2021),2021.1.4,120.056955
,,,,Conditions/Version_1/twoback(2)_v1.xlsx,New rule: Press 'space' when you see 2-back (i.e. the same letter as the one that appeared 2 letters ago.),r,None,,,,,,,,,0,7,7,7,0,1,1,1,,,,,,,,,,,,,,,,,,,,,,,,,,,,,,,,,,,,,,,,,,,,,,,,,,,,,,,,,,,,,,,,,,,,,1.3448,712.2174845,None,None,1,712.2174845,None,,P022,fencog,2,Post,2022_Jan_26_1207,N-Back (New Version 2021),2021.1.4,120.056955
,,,,Conditions/Version_1/twoback(2)_v1.xlsx,New rule: Press 'space' when you see 2-back (i.e. the same letter as the one that appeared 2 letters ago.),q,space,,,,,,,,,0,7,7,7,0,2,2,2,,,,,,,,,,,,,,,,,,,,,,,,,,,,,,,,,,,,,,,,,,,,,,,,,,,,,,,,,,,,,,,,,,,,,1.3076,715.5254263,None,space,1,715.5254263,None,1.0092571,P022,fencog,2,Post,2022_Jan_26_1207,N-Back (New Version 2021),2021.1.4,120.056955
,,,,Conditions/Version_1/twoback(2)_v1.xlsx,New rule: Press 'space' when you see 2-back (i.e. the same letter as the one that appeared 2 letters ago.),P,None,,,,,,,,,0,7,7,7,0,3,3,3,,,,,,,,,,,,,,,,,,,,,,,,,,,,,,,,,,,,,,,,,,,,,,,,,,,,,,,,,,,,,,,,,,,,,1.072,718.5990666,None,None,1,718.5990666,None,,P022,fencog,2,Post,2022_Jan_26_1207,N-Back (New Version 2021),2021.1.4,120.056955
,,,,Conditions/Version_1/twoback(2)_v1.xlsx,New rule: Press 'space' when you see 2-back (i.e. the same letter as the one that appeared 2 letters ago.),p,None,,,,,,,,,0,7,7,7,0,4,4,4,,,,,,,,,,,,,,,,,,,,,,,,,,,,,,,,,,,,,,,,,,,,,,,,,,,,,,,,,,,,,,,,,,,,,1.6362,722.2406376,None,None,1,722.2406376,None,,P022,fencog,2,Post,2022_Jan_26_1207,N-Back (New Version 2021),2021.1.4,120.056955
,,,,Conditions/Version_1/twoback(2)_v1.xlsx,New rule: Press 'space' when you see 2-back (i.e. the same letter as the one that appeared 2 letters ago.),H,None,,,,,,,,,0,7,7,7,0,5,5,5,,,,,,,,,,,,,,,,,,,,,,,,,,,,,,,,,,,,,,,,,,,,,,,,,,,,,,,,,,,,,,,,,,,,,1.2828,725.5381176,None,None,1,725.5381176,None,,P022,fencog,2,Post,2022_Jan_26_1207,N-Back (New Version 2021),2021.1.4,120.056955
,,,,Conditions/Version_1/twoback(2)_v1.xlsx,New rule: Press 'space' when you see 2-back (i.e. the same letter as the one that appeared 2 letters ago.),g,None,,,,,,,,,0,7,7,7,0,6,6,6,,,,,,,,,,,,,,,,,,,,,,,,,,,,,,,,,,,,,,,,,,,,,,,,,,,,,,,,,,,,,,,,,,,,,1.2518,728.7899175,None,None,1,728.7899175,None,,P022,fencog,2,Post,2022_Jan_26_1207,N-Back (New Version 2021),2021.1.4,120.056955
,,,,Conditions/Version_1/twoback(2)_v1.xlsx,New rule: Press 'space' when you see 2-back (i.e. the same letter as the one that appeared 2 letters ago.),j,None,,,,,,,,,0,7,7,7,0,7,7,7,,,,,,,,,,,,,,,,,,,,,,,,,,,,,,,,,,,,,,,,,,,,,,,,,,,,,,,,,,,,,,,,,,,,,1.6114,732.41267,None,None,1,732.41267,None,,P022,fencog,2,Post,2022_Jan_26_1207,N-Back (New Version 2021),2021.1.4,120.056955
,,,,Conditions/Version_1/twoback(2)_v1.xlsx,New rule: Press 'space' when you see 2-back (i.e. the same letter as the one that appeared 2 letters ago.),g,space,,,,,,,,,0,7,7,7,0,8,8,8,,,,,,,,,,,,,,,,,,,,,,,,,,,,,,,,,,,,,,,,,,,,,,,,,,,,,,,,,,,,,,,,,,,,,1.6052,736.0307859,None,space,1,736.0307859,None,1.0478575,P022,fencog,2,Post,2022_Jan_26_1207,N-Back (New Version 2021),2021.1.4,120.056955
,,,,Conditions/Version_1/twoback(2)_v1.xlsx,New rule: Press 'space' when you see 2-back (i.e. the same letter as the one that appeared 2 letters ago.),G,None,,,,,,,,,0,7,7,7,0,9,9,9,,,,,,,,,,,,,,,,,,,,,,,,,,,,,,,,,,,,,,,,,,,,,,,,,,,,,,,,,,,,,,,,,,,,,1.8718,739.9104225,None,None,1,739.9104225,None,,P022,fencog,2,Post,2022_Jan_26_1207,N-Back (New Version 2021),2021.1.4,120.056955
,,,,Conditions/Version_1/twoback(2)_v1.xlsx,New rule: Press 'space' when you see 2-back (i.e. the same letter as the one that appeared 2 letters ago.),,,,,,,,,,,0,7,7,7,,,,,,,,,,,,,,,,,,,,,,,,,,,,,,,,,,,,,,,,,,,,,,,,,,,,,,,,,,,,,,,,,,,,,,,,,,,,,,,,,P022,fencog,2,Post,2022_Jan_26_1207,N-Back (New Version 2021),2021.1.4,120.056955
,,,,Conditions/Version_1/threeback(3)_v1.xlsx,New rule: Press 'space' when you see 3-back (i.e. the same letter as the one that appeared 3 letters ago.),w,None,,,,,,,,,0,8,8,8,0,0,0,0,,,,,,,,,,,,,,,,,,,,,,,,,,,,,,,,,,,,,,,,,,,,,,,,,,,,,,,,,,,741.9375369,None,744.9277014,None,space,0.3989743,744.9277014,None,741.9375369,None,1.1526,746.5079179,None,None,1,746.5079179,None,,P022,fencog,2,Post,2022_Jan_26_1207,N-Back (New Version 2021),2021.1.4,120.056955
,,,,Conditions/Version_1/threeback(3)_v1.xlsx,New rule: Press 'space' when you see 3-back (i.e. the same letter as the one that appeared 3 letters ago.),p,None,,,,,,,,,0,8,8,8,0,1,1,1,,,,,,,,,,,,,,,,,,,,,,,,,,,,,,,,,,,,,,,,,,,,,,,,,,,,,,,,,,,,,,,,,,,,,1.9276,750.439622,None,None,1,750.439622,None,,P022,fencog,2,Post,2022_Jan_26_1207,N-Back (New Version 2021),2021.1.4,120.056955
,,,,Conditions/Version_1/threeback(3)_v1.xlsx,New rule: Press 'space' when you see 3-back (i.e. the same letter as the one that appeared 3 letters ago.),P,None,,,,,,,,,0,8,8,8,0,2,2,2,,,,,,,,,,,,,,,,,,,,,,,,,,,,,,,,,,,,,,,,,,,,,,,,,,,,,,,,,,,,,,,,,,,,,1.165,753.6137566,None,None,1,753.6137566,None,,P022,fencog,2,Post,2022_Jan_26_1207,N-Back (New Version 2021),2021.1.4,120.056955
,,,,Conditions/Version_1/threeback(3)_v1.xlsx,New rule: Press 'space' when you see 3-back (i.e. the same letter as the one that appeared 3 letters ago.),i,None,,,,,,,,,0,8,8,8,0,3,3,3,,,,,,,,,,,,,,,,,,,,,,,,,,,,,,,,,,,,,,,,,,,,,,,,,,,,,,,,,,,,,,,,,,,,,1.0286,756.6488302,None,None,1,756.6488302,None,,P022,fencog,2,Post,2022_Jan_26_1207,N-Back (New Version 2021),2021.1.4,120.056955
,,,,Conditions/Version_1/threeback(3)_v1.xlsx,New rule: Press 'space' when you see 3-back (i.e. the same letter as the one that appeared 3 letters ago.),f,None,,,,,,,,,0,8,8,8,0,4,4,4,,,,,,,,,,,,,,,,,,,,,,,,,,,,,,,,,,,,,,,,,,,,,,,,,,,,,,,,,,,,,,,,,,,,,1.7168,760.372136,None,None,1,760.372136,None,,P022,fencog,2,Post,2022_Jan_26_1207,N-Back (New Version 2021),2021.1.4,120.056955
,,,,Conditions/Version_1/threeback(3)_v1.xlsx,New rule: Press 'space' when you see 3-back (i.e. the same letter as the one that appeared 3 letters ago.),o,None,,,,,,,,,0,8,8,8,0,5,5,5,,,,,,,,,,,,,,,,,,,,,,,,,,,,,,,,,,,,,,,,,,,,,,,,,,,,,,,,,,,,,,,,,,,,,1.01,763.3940477,None,None,1,763.3940477,None,,P022,fencog,2,Post,2022_Jan_26_1207,N-Back (New Version 2021),2021.1.4,120.056955
,,,,Conditions/Version_1/threeback(3)_v1.xlsx,New rule: Press 'space' when you see 3-back (i.e. the same letter as the one that appeared 3 letters ago.),w,None,,,,,,,,,0,8,8,8,0,6,6,6,,,,,,,,,,,,,,,,,,,,,,,,,,,,,,,,,,,,,,,,,,,,,,,,,,,,,,,,,,,,,,,,,,,,,1.971,767.3688684,None,None,1,767.3688684,None,,P022,fencog,2,Post,2022_Jan_26_1207,N-Back (New Version 2021),2021.1.4,120.056955
,,,,Conditions/Version_1/threeback(3)_v1.xlsx,New rule: Press 'space' when you see 3-back (i.e. the same letter as the one that appeared 3 letters ago.),F,space,,,,,,,,,0,8,8,8,0,7,7,7,,,,,,,,,,,,,,,,,,,,,,,,,,,,,,,,,,,,,,,,,,,,,,,,,,,,,,,,,,,,,,,,,,,,,1.9214,771.3002647,None,space,1,771.3002647,None,0.8584882,P022,fencog,2,Post,2022_Jan_26_1207,N-Back (New Version 2021),2021.1.4,120.056955
,,,,Conditions/Version_1/threeback(3)_v1.xlsx,New rule: Press 'space' when you see 3-back (i.e. the same letter as the one that appeared 3 letters ago.),p,None,,,,,,,,,0,8,8,8,0,8,8,8,,,,,,,,,,,,,,,,,,,,,,,,,,,,,,,,,,,,,,,,,,,,,,,,,,,,,,,,,,,,,,,,,,,,,1.6052,774.9126787,None,None,1,774.9126787,None,,P022,fencog,2,Post,2022_Jan_26_1207,N-Back (New Version 2021),2021.1.4,120.056955
,,,,Conditions/Version_1/threeback(3)_v1.xlsx,New rule: Press 'space' when you see 3-back (i.e. the same letter as the one that appeared 3 letters ago.),W,space,,,,,,,,,0,8,8,8,0,9,9,9,,,,,,,,,,,,,,,,,,,,,,,,,,,,,,,,,,,,,,,,,,,,,,,,,,,,,,,,,,,,,,,,,,,,,1.9586,778.8739254,None,space,1,778.8739254,None,1.1966892,P022,fencog,2,Post,2022_Jan_26_1207,N-Back (New Version 2021),2021.1.4,120.056955
,,,,Conditions/Version_1/threeback(3)_v1.xlsx,New rule: Press 'space' when you see 3-back (i.e. the same letter as the one that appeared 3 letters ago.),,,,,,,,,,,0,8,8,8,,,,,,,,,,,,,,,,,,,,,,,,,,,,,,,,,,,,,,,,,,,,,,,,,,,,,,,,,,,,,,,,,,,,,,,,,,,,,,,,,P022,fencog,2,Post,2022_Jan_26_1207,N-Back (New Version 2021),2021.1.4,120.056955
,,,,Conditions/Version_1/zeroback(3)_v1.xlsx,New rule: Press 'space' when you see the letter 'x' or 'X'.,X,space,,,,,,,,,0,9,9,9,0,0,0,0,,,,,,,,,,,,,,,,,,,,,,,,,,,,,,,,,,,,,,,,,,,,,,,,,,,,,,,,,,,780.9119831,None,783.9029138,None,space,0.4797155,783.9029138,None,780.9119831,None,1.6424,786.0548895,None,space,1,786.0548895,None,1.0561438,P022,fencog,2,Post,2022_Jan_26_1207,N-Back (New Version 2021),2021.1.4,120.056955
,,,,Conditions/Version_1/zeroback(3)_v1.xlsx,New rule: Press 'space' when you see the letter 'x' or 'X'.,B,None,,,,,,,,,0,9,9,9,0,1,1,1,,,,,,,,,,,,,,,,,,,,,,,,,,,,,,,,,,,,,,,,,,,,,,,,,,,,,,,,,,,,,,,,,,,,,1.1774,789.2459944,None,None,1,789.2459944,None,,P022,fencog,2,Post,2022_Jan_26_1207,N-Back (New Version 2021),2021.1.4,120.056955
,,,,Conditions/Version_1/zeroback(3)_v1.xlsx,New rule: Press 'space' when you see the letter 'x' or 'X'.,m,None,,,,,,,,,0,9,9,9,0,2,2,2,,,,,,,,,,,,,,,,,,,,,,,,,,,,,,,,,,,,,,,,,,,,,,,,,,,,,,,,,,,,,,,,,,,,,1.475,792.7275812,None,None,1,792.7275812,None,,P022,fencog,2,Post,2022_Jan_26_1207,N-Back (New Version 2021),2021.1.4,120.056955
,,,,Conditions/Version_1/zeroback(3)_v1.xlsx,New rule: Press 'space' when you see the letter 'x' or 'X'.,m,None,,,,,,,,,0,9,9,9,0,3,3,3,,,,,,,,,,,,,,,,,,,,,,,,,,,,,,,,,,,,,,,,,,,,,,,,,,,,,,,,,,,,,,,,,,,,,1.8408,796.5679288,None,None,1,796.5679288,None,,P022,fencog,2,Post,2022_Jan_26_1207,N-Back (New Version 2021),2021.1.4,120.056955
,,,,Conditions/Version_1/zeroback(3)_v1.xlsx,New rule: Press 'space' when you see the letter 'x' or 'X'.,o,None,,,,,,,,,0,9,9,9,0,4,4,4,,,,,,,,,,,,,,,,,,,,,,,,,,,,,,,,,,,,,,,,,,,,,,,,,,,,,,,,,,,,,,,,,,,,,1.878,800.4498695,None,None,1,800.4498695,None,,P022,fencog,2,Post,2022_Jan_26_1207,N-Back (New Version 2021),2021.1.4,120.056955
,,,,Conditions/Version_1/zeroback(3)_v1.xlsx,New rule: Press 'space' when you see the letter 'x' or 'X'.,p,None,,,,,,,,,0,9,9,9,0,5,5,5,,,,,,,,,,,,,,,,,,,,,,,,,,,,,,,,,,,,,,,,,,,,,,,,,,,,,,,,,,,,,,,,,,,,,1.9152,804.3660889,None,None,1,804.3660889,None,,P022,fencog,2,Post,2022_Jan_26_1207,N-Back (New Version 2021),2021.1.4,120.056955
,,,,Conditions/Version_1/zeroback(3)_v1.xlsx,New rule: Press 'space' when you see the letter 'x' or 'X'.,G,None,,,,,,,,,0,9,9,9,0,6,6,6,,,,,,,,,,,,,,,,,,,,,,,,,,,,,,,,,,,,,,,,,,,,,,,,,,,,,,,,,,,,,,,,,,,,,1.0596,807.4467098,None,None,1,807.4467098,None,,P022,fencog,2,Post,2022_Jan_26_1207,N-Back (New Version 2021),2021.1.4,120.056955
,,,,Conditions/Version_1/zeroback(3)_v1.xlsx,New rule: Press 'space' when you see the letter 'x' or 'X'.,X,space,,,,,,,,,0,9,9,9,0,7,7,7,,,,,,,,,,,,,,,,,,,,,,,,,,,,,,,,,,,,,,,,,,,,,,,,,,,,,,,,,,,,,,,,,,,,,1.4998,810.9467757,None,space,1,810.9467757,None,0.4999848,P022,fencog,2,Post,2022_Jan_26_1207,N-Back (New Version 2021),2021.1.4,120.056955
,,,,Conditions/Version_1/zeroback(3)_v1.xlsx,New rule: Press 'space' when you see the letter 'x' or 'X'.,p,None,,,,,,,,,0,9,9,9,0,8,8,8,,,,,,,,,,,,,,,,,,,,,,,,,,,,,,,,,,,,,,,,,,,,,,,,,,,,,,,,,,,,,,,,,,,,,1.0162,813.9636325,None,None,1,813.9636325,None,,P022,fencog,2,Post,2022_Jan_26_1207,N-Back (New Version 2021),2021.1.4,120.056955
,,,,Conditions/Version_1/zeroback(3)_v1.xlsx,New rule: Press 'space' when you see the letter 'x' or 'X'.,x,space,,,,,,,,,0,9,9,9,0,9,9,9,,,,,,,,,,,,,,,,,,,,,,,,,,,,,,,,,,,,,,,,,,,,,,,,,,,,,,,,,,,,,,,,,,,,,1.2394,817.2116076,None,space,1,817.2116076,None,0.7794719,P022,fencog,2,Post,2022_Jan_26_1207,N-Back (New Version 2021),2021.1.4,120.056955
,,,,Conditions/Version_1/zeroback(3)_v1.xlsx,New rule: Press 'space' when you see the letter 'x' or 'X'.,,,,,,,,,,,0,9,9,9,,,,,,,,,,,,,,,,,,,,,,,,,,,,,,,,,,,,,,,,,,,,,,,,,,,,,,,,,,,,,,,,,,,,,,,,,,,,,,,,,P022,fencog,2,Post,2022_Jan_26_1207,N-Back (New Version 2021),2021.1.4,120.056955
,,,,Conditions/Version_1/twoback(3)_v1.xlsx,New rule: Press 'space' when you see 2-back (i.e. the same letter as the one that appeared 2 letters ago.),e,None,,,,,,,,,0,10,10,10,0,0,0,0,,,,,,,,,,,,,,,,,,,,,,,,,,,,,,,,,,,,,,,,,,,,,,,,,,,,,,,,,,,819.2357914,None,822.2215278,None,space,1.3770903,822.2215278,None,819.2357914,None,1.258,824.8842544,None,None,1,824.8842544,None,,P022,fencog,2,Post,2022_Jan_26_1207,N-Back (New Version 2021),2021.1.4,120.056955
,,,,Conditions/Version_1/twoback(3)_v1.xlsx,New rule: Press 'space' when you see 2-back (i.e. the same letter as the one that appeared 2 letters ago.),o,None,,,,,,,,,0,10,10,10,0,1,1,1,,,,,,,,,,,,,,,,,,,,,,,,,,,,,,,,,,,,,,,,,,,,,,,,,,,,,,,,,,,,,,,,,,,,,1.0348,827.924976,None,None,1,827.924976,None,,P022,fencog,2,Post,2022_Jan_26_1207,N-Back (New Version 2021),2021.1.4,120.056955
,,,,Conditions/Version_1/twoback(3)_v1.xlsx,New rule: Press 'space' when you see 2-back (i.e. the same letter as the one that appeared 2 letters ago.),P,None,,,,,,,,,0,10,10,10,0,2,2,2,,,,,,,,,,,,,,,,,,,,,,,,,,,,,,,,,,,,,,,,,,,,,,,,,,,,,,,,,,,,,,,,,,,,,1.9276,831.8571652,None,None,1,831.8571652,None,,P022,fencog,2,Post,2022_Jan_26_1207,N-Back (New Version 2021),2021.1.4,120.056955
,,,,Conditions/Version_1/twoback(3)_v1.xlsx,New rule: Press 'space' when you see 2-back (i.e. the same letter as the one that appeared 2 letters ago.),z,None,,,,,,,,,0,10,10,10,0,3,3,3,,,,,,,,,,,,,,,,,,,,,,,,,,,,,,,,,,,,,,,,,,,,,,,,,,,,,,,,,,,,,,,,,,,,,1.3634,835.2272047,None,None,1,835.2272047,None,,P022,fencog,2,Post,2022_Jan_26_1207,N-Back (New Version 2021),2021.1.4,120.056955
,,,,Conditions/Version_1/twoback(3)_v1.xlsx,New rule: Press 'space' when you see 2-back (i.e. the same letter as the one that appeared 2 letters ago.),X,None,,,,,,,,,0,10,10,10,0,4,4,4,,,,,,,,,,,,,,,,,,,,,,,,,,,,,,,,,,,,,,,,,,,,,,,,,,,,,,,,,,,,,,,,,,,,,1.7664,838.9971982,None,None,1,838.9971982,None,,P022,fencog,2,Post,2022_Jan_26_1207,N-Back (New Version 2021),2021.1.4,120.056955
,,,,Conditions/Version_1/twoback(3)_v1.xlsx,New rule: Press 'space' when you see 2-back (i.e. the same letter as the one that appeared 2 letters ago.),z,space,,,,,,,,,0,10,10,10,0,5,5,5,,,,,,,,,,,,,,,,,,,,,,,,,,,,,,,,,,,,,,,,,,,,,,,,,,,,,,,,,,,,,,,,,,,,,1.196,842.2037722,None,space,1,842.2037722,None,1.2432135,P022,fencog,2,Post,2022_Jan_26_1207,N-Back (New Version 2021),2021.1.4,120.056955
,,,,Conditions/Version_1/twoback(3)_v1.xlsx,New rule: Press 'space' when you see 2-back (i.e. the same letter as the one that appeared 2 letters ago.),x,space,,,,,,,,,0,10,10,10,0,6,6,6,,,,,,,,,,,,,,,,,,,,,,,,,,,,,,,,,,,,,,,,,,,,,,,,,,,,,,,,,,,,,,,,,,,,,1.0658,845.2702046,None,space,1,845.2702046,None,1.4245549,P022,fencog,2,Post,2022_Jan_26_1207,N-Back (New Version 2021),2021.1.4,120.056955
,,,,Conditions/Version_1/twoback(3)_v1.xlsx,New rule: Press 'space' when you see 2-back (i.e. the same letter as the one that appeared 2 letters ago.),c,None,,,,,,,,,0,10,10,10,0,7,7,7,,,,,,,,,,,,,,,,,,,,,,,,,,,,,,,,,,,,,,,,,,,,,,,,,,,,,,,,,,,,,,,,,,,,,1.227,848.5022132,None,None,1,848.5022132,None,,P022,fencog,2,Post,2022_Jan_26_1207,N-Back (New Version 2021),2021.1.4,120.056955
,,,,Conditions/Version_1/twoback(3)_v1.xlsx,New rule: Press 'space' when you see 2-back (i.e. the same letter as the one that appeared 2 letters ago.),i,None,,,,,,,,,0,10,10,10,0,8,8,8,,,,,,,,,,,,,,,,,,,,,,,,,,,,,,,,,,,,,,,,,,,,,,,,,,,,,,,,,,,,,,,,,,,,,1.506,852.0134066,None,None,1,852.0134066,None,,P022,fencog,2,Post,2022_Jan_26_1207,N-Back (New Version 2021),2021.1.4,120.056955
,,,,Conditions/Version_1/twoback(3)_v1.xlsx,New rule: Press 'space' when you see 2-back (i.e. the same letter as the one that appeared 2 letters ago.),C,space,,,,,,,,,0,10,10,10,0,9,9,9,,,,,,,,,,,,,,,,,,,,,,,,,,,,,,,,,,,,,,,,,,,,,,,,,,,,,,,,,,,,,,,,,,,,,1.754,855.7774446,None,space,1,855.7774446,None,1.4537081,P022,fencog,2,Post,2022_Jan_26_1207,N-Back (New Version 2021),2021.1.4,120.056955
,,,,Conditions/Version_1/twoback(3)_v1.xlsx,New rule: Press 'space' when you see 2-back (i.e. the same letter as the one that appeared 2 letters ago.),,,,,,,,,,,0,10,10,10,,,,,,,,,,,,,,,,,,,,,,,,,,,,,,,,,,,,,,,,,,,,,,,,,,,,,,,,,,,,,,,,,,,,,,,,,,,,,,,,,P022,fencog,2,Post,2022_Jan_26_1207,N-Back (New Version 2021),2021.1.4,120.056955
,,,,Conditions/Version_1/oneback(3)_v1.xlsx,New rule: Press 'space' when you see 1-back (i.e. the same letter as the one that appeared 1 letter ago.),o,None,,,,,,,,,0,11,11,11,0,0,0,0,,,,,,,,,,,,,,,,,,,,,,,,,,,,,,,,,,,,,,,,,,,,,,,,,,,,,,,,,,,857.8030979,None,860.7922081,None,space,0.3744184,860.7922081,None,857.8030979,None,1.6796,862.8798547,None,None,1,862.8798547,None,,P022,fencog,2,Post,2022_Jan_26_1207,N-Back (New Version 2021),2021.1.4,120.056955
,,,,Conditions/Version_1/oneback(3)_v1.xlsx,New rule: Press 'space' when you see 1-back (i.e. the same letter as the one that appeared 1 letter ago.),O,space,,,,,,,,,0,11,11,11,0,1,1,1,,,,,,,,,,,,,,,,,,,,,,,,,,,,,,,,,,,,,,,,,,,,,,,,,,,,,,,,,,,,,,,,,,,,,1.2828,866.1638604,None,space,1,866.1638604,None,0.4667135,P022,fencog,2,Post,2022_Jan_26_1207,N-Back (New Version 2021),2021.1.4,120.056955
,,,,Conditions/Version_1/oneback(3)_v1.xlsx,New rule: Press 'space' when you see 1-back (i.e. the same letter as the one that appeared 1 letter ago.),h,None,,,,,,,,,0,11,11,11,0,2,2,2,,,,,,,,,,,,,,,,,,,,,,,,,,,,,,,,,,,,,,,,,,,,,,,,,,,,,,,,,,,,,,,,,,,,,1.7478,869.9253885,None,None,1,869.9253885,None,,P022,fencog,2,Post,2022_Jan_26_1207,N-Back (New Version 2021),2021.1.4,120.056955
,,,,Conditions/Version_1/oneback(3)_v1.xlsx,New rule: Press 'space' when you see 1-back (i.e. the same letter as the one that appeared 1 letter ago.),g,None,,,,,,,,,0,11,11,11,0,3,3,3,,,,,,,,,,,,,,,,,,,,,,,,,,,,,,,,,,,,,,,,,,,,,,,,,,,,,,,,,,,,,,,,,,,,,1.9276,873.8614676,None,None,1,873.8614676,None,,P022,fencog,2,Post,2022_Jan_26_1207,N-Back (New Version 2021),2021.1.4,120.056955
,,,,Conditions/Version_1/oneback(3)_v1.xlsx,New rule: Press 'space' when you see 1-back (i.e. the same letter as the one that appeared 1 letter ago.),n,None,,,,,,,,,0,11,11,11,0,4,4,4,,,,,,,,,,,,,,,,,,,,,,,,,,,,,,,,,,,,,,,,,,,,,,,,,,,,,,,,,,,,,,,,,,,,,1.2766,877.1515355,None,None,1,877.1515355,None,,P022,fencog,2,Post,2022_Jan_26_1207,N-Back (New Version 2021),2021.1.4,120.056955
,,,,Conditions/Version_1/oneback(3)_v1.xlsx,New rule: Press 'space' when you see 1-back (i.e. the same letter as the one that appeared 1 letter ago.),z,None,,,,,,,,,0,11,11,11,0,5,5,5,,,,,,,,,,,,,,,,,,,,,,,,,,,,,,,,,,,,,,,,,,,,,,,,,,,,,,,,,,,,,,,,,,,,,1.1898,880.3371649,None,None,1,880.3371649,None,,P022,fencog,2,Post,2022_Jan_26_1207,N-Back (New Version 2021),2021.1.4,120.056955
,,,,Conditions/Version_1/oneback(3)_v1.xlsx,New rule: Press 'space' when you see 1-back (i.e. the same letter as the one that appeared 1 letter ago.),X,None,,,,,,,,,0,11,11,11,0,6,6,6,,,,,,,,,,,,,,,,,,,,,,,,,,,,,,,,,,,,,,,,,,,,,,,,,,,,,,,,,,,,,,,,,,,,,1.072,883.4235249,None,None,1,883.4235249,None,,P022,fencog,2,Post,2022_Jan_26_1207,N-Back (New Version 2021),2021.1.4,120.056955
,,,,Conditions/Version_1/oneback(3)_v1.xlsx,New rule: Press 'space' when you see 1-back (i.e. the same letter as the one that appeared 1 letter ago.),r,None,,,,,,,,,0,11,11,11,0,7,7,7,,,,,,,,,,,,,,,,,,,,,,,,,,,,,,,,,,,,,,,,,,,,,,,,,,,,,,,,,,,,,,,,,,,,,1.5618,886.9932075,None,None,1,886.9932075,None,,P022,fencog,2,Post,2022_Jan_26_1207,N-Back (New Version 2021),2021.1.4,120.056955
,,,,Conditions/Version_1/oneback(3)_v1.xlsx,New rule: Press 'space' when you see 1-back (i.e. the same letter as the one that appeared 1 letter ago.),r,space,,,,,,,,,0,11,11,11,0,8,8,8,,,,,,,,,,,,,,,,,,,,,,,,,,,,,,,,,,,,,,,,,,,,,,,,,,,,,,,,,,,,,,,,,,,,,1.537,890.5402023,None,space,1,890.5402023,None,1.5944408,P022,fencog,2,Post,2022_Jan_26_1207,N-Back (New Version 2021),2021.1.4,120.056955
,,,,Conditions/Version_1/oneback(3)_v1.xlsx,New rule: Press 'space' when you see 1-back (i.e. the same letter as the one that appeared 1 letter ago.),P,None,,,,,,,,,0,11,11,11,0,9,9,9,,,,,,,,,,,,,,,,,,,,,,,,,,,,,,,,,,,,,,,,,,,,,,,,,,,,,,,,,,,,,,,,,,,,,1.909,894.4554677,None,None,1,894.4554677,None,,P022,fencog,2,Post,2022_Jan_26_1207,N-Back (New Version 2021),2021.1.4,120.056955
,,,,Conditions/Version_1/oneback(3)_v1.xlsx,New rule: Press 'space' when you see 1-back (i.e. the same letter as the one that appeared 1 letter ago.),,,,,,,,,,,0,11,11,11,,,,,,,,,,,,,,,,,,,,,,,,,,,,,,,,,,,,,,,,,,,,,,,,,,,,,,,,,,,,,,,,,,,,,,,,,,,,,,,,,P022,fencog,2,Post,2022_Jan_26_1207,N-Back (New Version 2021),2021.1.4,120.056955
,,,,Conditions/Version_1/twoback(4)_v1.xlsx,New rule: Press 'space' when you see 2-back (i.e. the same letter as the one that appeared 2 letters ago.),r,None,,,,,,,,,0,12,12,12,0,0,0,0,,,,,,,,,,,,,,,,,,,,,,,,,,,,,,,,,,,,,,,,,,,,,,,,,,,,,,,,,,,896.5137524,None,899.4983388,None,space,1.6683829,899.4983388,None,896.5137524,None,1.413,902.6032324,None,None,1,902.6032324,None,,P022,fencog,2,Post,2022_Jan_26_1207,N-Back (New Version 2021),2021.1.4,120.056955
,,,,Conditions/Version_1/twoback(4)_v1.xlsx,New rule: Press 'space' when you see 2-back (i.e. the same letter as the one that appeared 2 letters ago.),T,None,,,,,,,,,0,12,12,12,0,1,1,1,,,,,,,,,,,,,,,,,,,,,,,,,,,,,,,,,,,,,,,,,,,,,,,,,,,,,,,,,,,,,,,,,,,,,1.5556,906.1690005,None,None,1,906.1690005,None,,P022,fencog,2,Post,2022_Jan_26_1207,N-Back (New Version 2021),2021.1.4,120.056955
,,,,Conditions/Version_1/twoback(4)_v1.xlsx,New rule: Press 'space' when you see 2-back (i.e. the same letter as the one that appeared 2 letters ago.),o,None,,,,,,,,,0,12,12,12,0,2,2,2,,,,,,,,,,,,,,,,,,,,,,,,,,,,,,,,,,,,,,,,,,,,,,,,,,,,,,,,,,,,,,,,,,,,,1.6734,909.8514322,None,None,1,909.8514322,None,,P022,fencog,2,Post,2022_Jan_26_1207,N-Back (New Version 2021),2021.1.4,120.056955
,,,,Conditions/Version_1/twoback(4)_v1.xlsx,New rule: Press 'space' when you see 2-back (i.e. the same letter as the one that appeared 2 letters ago.),p,None,,,,,,,,,0,12,12,12,0,3,3,3,,,,,,,,,,,,,,,,,,,,,,,,,,,,,,,,,,,,,,,,,,,,,,,,,,,,,,,,,,,,,,,,,,,,,1.4006,913.2739402,None,None,1,913.2739402,None,,P022,fencog,2,Post,2022_Jan_26_1207,N-Back (New Version 2021),2021.1.4,120.056955
,,,,Conditions/Version_1/twoback(4)_v1.xlsx,New rule: Press 'space' when you see 2-back (i.e. the same letter as the one that appeared 2 letters ago.),p,None,,,,,,,,,0,12,12,12,0,4,4,4,,,,,,,,,,,,,,,,,,,,,,,,,,,,,,,,,,,,,,,,,,,,,,,,,,,,,,,,,,,,,,,,,,,,,1.5246,916.8012021,None,None,1,916.8012021,None,,P022,fencog,2,Post,2022_Jan_26_1207,N-Back (New Version 2021),2021.1.4,120.056955
,,,,Conditions/Version_1/twoback(4)_v1.xlsx,New rule: Press 'space' when you see 2-back (i.e. the same letter as the one that appeared 2 letters ago.),y,None,,,,,,,,,0,12,12,12,0,5,5,5,,,,,,,,,,,,,,,,,,,,,,,,,,,,,,,,,,,,,,,,,,,,,,,,,,,,,,,,,,,,,,,,,,,,,1.692,920.5060112,None,None,1,920.5060112,None,,P022,fencog,2,Post,2022_Jan_26_1207,N-Back (New Version 2021),2021.1.4,120.056955
,,,,Conditions/Version_1/twoback(4)_v1.xlsx,New rule: Press 'space' when you see 2-back (i.e. the same letter as the one that appeared 2 letters ago.),P,space,,,,,,,,,0,12,12,12,0,6,6,6,,,,,,,,,,,,,,,,,,,,,,,,,,,,,,,,,,,,,,,,,,,,,,,,,,,,,,,,,,,,,,,,,,,,,1.8966,924.4106485,None,space,1,924.4106485,None,1.2202808,P022,fencog,2,Post,2022_Jan_26_1207,N-Back (New Version 2021),2021.1.4,120.056955
,,,,Conditions/Version_1/twoback(4)_v1.xlsx,New rule: Press 'space' when you see 2-back (i.e. the same letter as the one that appeared 2 letters ago.),y,None,,,,,,,,,0,12,12,12,0,7,7,7,,,,,,,,,,,,,,,,,,,,,,,,,,,,,,,,,,,,,,,,,,,,,,,,,,,,,,,,,,,,,,,,,,,,,1.6176,928.0292499,None,None,1,928.0292499,None,,P022,fencog,2,Post,2022_Jan_26_1207,N-Back (New Version 2021),2021.1.4,120.056955
,,,,Conditions/Version_1/twoback(4)_v1.xlsx,New rule: Press 'space' when you see 2-back (i.e. the same letter as the one that appeared 2 letters ago.),y,space,,,,,,,,,0,12,12,12,0,8,8,8,,,,,,,,,,,,,,,,,,,,,,,,,,,,,,,,,,,,,,,,,,,,,,,,,,,,,,,,,,,,,,,,,,,,,1.6982,931.7278763,None,None,0,931.7278763,None,,P022,fencog,2,Post,2022_Jan_26_1207,N-Back (New Version 2021),2021.1.4,120.056955
,,,,Conditions/Version_1/twoback(4)_v1.xlsx,New rule: Press 'space' when you see 2-back (i.e. the same letter as the one that appeared 2 letters ago.),,,,,,,,,,,0,12,12,12,,,,,,,,,,,,,,,,,,,,,,,,,,,,,,,,,,,,,,,,,,,,,,,,,,,,,,,,,,,,,,,,,,,,,,,,,,,,,,,,,P022,fencog,2,Post,2022_Jan_26_1207,N-Back (New Version 2021),2021.1.4,120.056955
,,,,Conditions/Version_1/zeroback(4)_v1.xlsx,New rule: Press 'space' when you see the letter 'x' or 'X'.,o,None,,,,,,,,,0,13,13,13,0,0,0,0,,,,,,,,,,,,,,,,,,,,,,,,,,,,,,,,,,,,,,,,,,,,,,,,,,,,,,,,,,,933.747316,None,936.739333,None,space,1.0115245,936.739333,None,933.747316,None,1.2146,938.9927895,None,None,1,938.9927895,None,,P022,fencog,2,Post,2022_Jan_26_1207,N-Back (New Version 2021),2021.1.4,120.056955
,,,,Conditions/Version_1/zeroback(4)_v1.xlsx,New rule: Press 'space' when you see the letter 'x' or 'X'.,X,space,,,,,,,,,0,13,13,13,0,1,1,1,,,,,,,,,,,,,,,,,,,,,,,,,,,,,,,,,,,,,,,,,,,,,,,,,,,,,,,,,,,,,,,,,,,,,1.2518,942.2527255,None,space,1,942.2527255,None,0.4740106,P022,fencog,2,Post,2022_Jan_26_1207,N-Back (New Version 2021),2021.1.4,120.056955
,,,,Conditions/Version_1/zeroback(4)_v1.xlsx,New rule: Press 'space' when you see the letter 'x' or 'X'.,p,None,,,,,,,,,0,13,13,13,0,2,2,2,,,,,,,,,,,,,,,,,,,,,,,,,,,,,,,,,,,,,,,,,,,,,,,,,,,,,,,,,,,,,,,,,,,,,1.0162,945.2750172,None,None,1,945.2750172,None,,P022,fencog,2,Post,2022_Jan_26_1207,N-Back (New Version 2021),2021.1.4,120.056955
,,,,Conditions/Version_1/zeroback(4)_v1.xlsx,New rule: Press 'space' when you see the letter 'x' or 'X'.,m,None,,,,,,,,,0,13,13,13,0,3,3,3,,,,,,,,,,,,,,,,,,,,,,,,,,,,,,,,,,,,,,,,,,,,,,,,,,,,,,,,,,,,,,,,,,,,,1.6362,948.9276883,None,None,1,948.9276883,None,,P022,fencog,2,Post,2022_Jan_26_1207,N-Back (New Version 2021),2021.1.4,120.056955
,,,,Conditions/Version_1/zeroback(4)_v1.xlsx,New rule: Press 'space' when you see the letter 'x' or 'X'.,n,None,,,,,,,,,0,13,13,13,0,4,4,4,,,,,,,,,,,,,,,,,,,,,,,,,,,,,,,,,,,,,,,,,,,,,,,,,,,,,,,,,,,,,,,,,,,,,1.3386,952.2719447,None,None,1,952.2719447,None,,P022,fencog,2,Post,2022_Jan_26_1207,N-Back (New Version 2021),2021.1.4,120.056955
,,,,Conditions/Version_1/zeroback(4)_v1.xlsx,New rule: Press 'space' when you see the letter 'x' or 'X'.,m,None,,,,,,,,,0,13,13,13,0,5,5,5,,,,,,,,,,,,,,,,,,,,,,,,,,,,,,,,,,,,,,,,,,,,,,,,,,,,,,,,,,,,,,,,,,,,,1.2766,955.5557749,None,None,1,955.5557749,None,,P022,fencog,2,Post,2022_Jan_26_1207,N-Back (New Version 2021),2021.1.4,120.056955
,,,,Conditions/Version_1/zeroback(4)_v1.xlsx,New rule: Press 'space' when you see the letter 'x' or 'X'.,C,None,,,,,,,,,0,13,13,13,0,6,6,6,,,,,,,,,,,,,,,,,,,,,,,,,,,,,,,,,,,,,,,,,,,,,,,,,,,,,,,,,,,,,,,,,,,,,1.8408,959.3949558,None,None,1,959.3949558,None,,P022,fencog,2,Post,2022_Jan_26_1207,N-Back (New Version 2021),2021.1.4,120.056955
,,,,Conditions/Version_1/zeroback(4)_v1.xlsx,New rule: Press 'space' when you see the letter 'x' or 'X'.,m,None,,,,,,,,,0,13,13,13,0,7,7,7,,,,,,,,,,,,,,,,,,,,,,,,,,,,,,,,,,,,,,,,,,,,,,,,,,,,,,,,,,,,,,,,,,,,,1.9648,963.3606847,None,None,1,963.3606847,None,,P022,fencog,2,Post,2022_Jan_26_1207,N-Back (New Version 2021),2021.1.4,120.056955
,,,,Conditions/Version_1/zeroback(4)_v1.xlsx,New rule: Press 'space' when you see the letter 'x' or 'X'.,p,None,,,,,,,,,0,13,13,13,0,8,8,8,,,,,,,,,,,,,,,,,,,,,,,,,,,,,,,,,,,,,,,,,,,,,,,,,,,,,,,,,,,,,,,,,,,,,1.9958,967.3720102,None,None,1,967.3720102,None,,P022,fencog,2,Post,2022_Jan_26_1207,N-Back (New Version 2021),2021.1.4,120.056955
,,,,Conditions/Version_1/zeroback(4)_v1.xlsx,New rule: Press 'space' when you see the letter 'x' or 'X'.,X,space,,,,,,,,,0,13,13,13,0,9,9,9,,,,,,,,,,,,,,,,,,,,,,,,,,,,,,,,,,,,,,,,,,,,,,,,,,,,,,,,,,,,,,,,,,,,,1.041,970.4164613,None,space,1,970.4164613,None,0.7742757,P022,fencog,2,Post,2022_Jan_26_1207,N-Back (New Version 2021),2021.1.4,120.056955
,,,,Conditions/Version_1/zeroback(4)_v1.xlsx,New rule: Press 'space' when you see the letter 'x' or 'X'.,,,,,,,,,,,0,13,13,13,,,,,,,,,,,,,,,,,,,,,,,,,,,,,,,,,,,,,,,,,,,,,,,,,,,,,,,,,,,,,,,,,,,,,,,,,,,,,,,,,P022,fencog,2,Post,2022_Jan_26_1207,N-Back (New Version 2021),2021.1.4,120.056955
,,,,Conditions/Version_1/oneback(4)_v1.xlsx,New rule: Press 'space' when you see 1-back (i.e. the same letter as the one that appeared 1 letter ago.),w,None,,,,,,,,,0,14,14,14,0,0,0,0,,,,,,,,,,,,,,,,,,,,,,,,,,,,,,,,,,,,,,,,,,,,,,,,,,,,,,,,,,,972.4402604,None,975.4263725,None,space,0.3721682,975.4263725,None,972.4402604,None,1.3572,977.1834962,None,None,1,977.1834962,None,,P022,fencog,2,Post,2022_Jan_26_1207,N-Back (New Version 2021),2021.1.4,120.056955
,,,,Conditions/Version_1/oneback(4)_v1.xlsx,New rule: Press 'space' when you see 1-back (i.e. the same letter as the one that appeared 1 letter ago.),q,None,,,,,,,,,0,14,14,14,0,1,1,1,,,,,,,,,,,,,,,,,,,,,,,,,,,,,,,,,,,,,,,,,,,,,,,,,,,,,,,,,,,,,,,,,,,,,1.0534,980.2467901,None,None,1,980.2467901,None,,P022,fencog,2,Post,2022_Jan_26_1207,N-Back (New Version 2021),2021.1.4,120.056955
,,,,Conditions/Version_1/oneback(4)_v1.xlsx,New rule: Press 'space' when you see 1-back (i.e. the same letter as the one that appeared 1 letter ago.),i,None,,,,,,,,,0,14,14,14,0,2,2,2,,,,,,,,,,,,,,,,,,,,,,,,,,,,,,,,,,,,,,,,,,,,,,,,,,,,,,,,,,,,,,,,,,,,,1.6548,983.9046685,None,None,1,983.9046685,None,,P022,fencog,2,Post,2022_Jan_26_1207,N-Back (New Version 2021),2021.1.4,120.056955
,,,,Conditions/Version_1/oneback(4)_v1.xlsx,New rule: Press 'space' when you see 1-back (i.e. the same letter as the one that appeared 1 letter ago.),t,None,,,,,,,,,0,14,14,14,0,3,3,3,,,,,,,,,,,,,,,,,,,,,,,,,,,,,,,,,,,,,,,,,,,,,,,,,,,,,,,,,,,,,,,,,,,,,1.9896,987.8967279,None,None,1,987.8967279,None,,P022,fencog,2,Post,2022_Jan_26_1207,N-Back (New Version 2021),2021.1.4,120.056955
,,,,Conditions/Version_1/oneback(4)_v1.xlsx,New rule: Press 'space' when you see 1-back (i.e. the same letter as the one that appeared 1 letter ago.),v,None,,,,,,,,,0,14,14,14,0,4,4,4,,,,,,,,,,,,,,,,,,,,,,,,,,,,,,,,,,,,,,,,,,,,,,,,,,,,,,,,,,,,,,,,,,,,,1.1216,991.030578,None,None,1,991.030578,None,,P022,fencog,2,Post,2022_Jan_26_1207,N-Back (New Version 2021),2021.1.4,120.056955
,,,,Conditions/Version_1/oneback(4)_v1.xlsx,New rule: Press 'space' when you see 1-back (i.e. the same letter as the one that appeared 1 letter ago.),V,space,,,,,,,,,0,14,14,14,0,5,5,5,,,,,,,,,,,,,,,,,,,,,,,,,,,,,,,,,,,,,,,,,,,,,,,,,,,,,,,,,,,,,,,,,,,,,1.1278,994.1706215,None,None,0,994.1706215,None,,P022,fencog,2,Post,2022_Jan_26_1207,N-Back (New Version 2021),2021.1.4,120.056955
,,,,Conditions/Version_1/oneback(4)_v1.xlsx,New rule: Press 'space' when you see 1-back (i.e. the same letter as the one that appeared 1 letter ago.),v,space,,,,,,,,,0,14,14,14,0,6,6,6,,,,,,,,,,,,,,,,,,,,,,,,,,,,,,,,,,,,,,,,,,,,,,,,,,,,,,,,,,,,,,,,,,,,,1.413,997.5923982,None,space,1,997.5923982,None,0.8142518,P022,fencog,2,Post,2022_Jan_26_1207,N-Back (New Version 2021),2021.1.4,120.056955
,,,,Conditions/Version_1/oneback(4)_v1.xlsx,New rule: Press 'space' when you see 1-back (i.e. the same letter as the one that appeared 1 letter ago.),p,None,,,,,,,,,0,14,14,14,0,7,7,7,,,,,,,,,,,,,,,,,,,,,,,,,,,,,,,,,,,,,,,,,,,,,,,,,,,,,,,,,,,,,,,,,,,,,1.9524,1001.564653,None,None,1,1001.564653,None,,P022,fencog,2,Post,2022_Jan_26_1207,N-Back (New Version 2021),2021.1.4,120.056955
,,,,Conditions/Version_1/oneback(4)_v1.xlsx,New rule: Press 'space' when you see 1-back (i.e. the same letter as the one that appeared 1 letter ago.),w,None,,,,,,,,,0,14,14,14,0,8,8,8,,,,,,,,,,,,,,,,,,,,,,,,,,,,,,,,,,,,,,,,,,,,,,,,,,,,,,,,,,,,,,,,,,,,,1.2456,1004.817718,None,None,1,1004.817718,None,,P022,fencog,2,Post,2022_Jan_26_1207,N-Back (New Version 2021),2021.1.4,120.056955
,,,,Conditions/Version_1/oneback(4)_v1.xlsx,New rule: Press 'space' when you see 1-back (i.e. the same letter as the one that appeared 1 letter ago.),W,space,,,,,,,,,0,14,14,14,0,9,9,9,,,,,,,,,,,,,,,,,,,,,,,,,,,,,,,,,,,,,,,,,,,,,,,,,,,,,,,,,,,,,,,,,,,,,1.3076,1008.135515,None,space,1,1008.135515,None,0.5430755,P022,fencog,2,Post,2022_Jan_26_1207,N-Back (New Version 2021),2021.1.4,120.056955
,,,,Conditions/Version_1/oneback(4)_v1.xlsx,New rule: Press 'space' when you see 1-back (i.e. the same letter as the one that appeared 1 letter ago.),,,,,,,,,,,0,14,14,14,,,,,,,,,,,,,,,,,,,,,,,,,,,,,,,,,,,,,,,,,,,,,,,,,,,,,,,,,,,,,,,,,,,,,,,,,,,,,,,,,P022,fencog,2,Post,2022_Jan_26_1207,N-Back (New Version 2021),2021.1.4,120.056955
,,,,Conditions/Version_1/threeback(4)_v1.xlsx,New rule: Press 'space' when you see 3-back (i.e. the same letter as the one that appeared 3 letters ago.),A,None,,,,,,,,,0,15,15,15,0,0,0,0,,,,,,,,,,,,,,,,,,,,,,,,,,,,,,,,,,,,,,,,,,,,,,,,,,,,,,,,,,,1010.159585,None,1013.139077,None,space,0.4994942,1013.139077,None,1010.159585,None,1.7912,1015.464506,None,None,1,1015.464506,None,,P022,fencog,2,Post,2022_Jan_26_1207,N-Back (New Version 2021),2021.1.4,120.056955
,,,,Conditions/Version_1/threeback(4)_v1.xlsx,New rule: Press 'space' when you see 3-back (i.e. the same letter as the one that appeared 3 letters ago.),n,None,,,,,,,,,0,15,15,15,0,1,1,1,,,,,,,,,,,,,,,,,,,,,,,,,,,,,,,,,,,,,,,,,,,,,,,,,,,,,,,,,,,,,,,,,,,,,1.4192,1018.902303,None,None,1,1018.902303,None,,P022,fencog,2,Post,2022_Jan_26_1207,N-Back (New Version 2021),2021.1.4,120.056955
,,,,Conditions/Version_1/threeback(4)_v1.xlsx,New rule: Press 'space' when you see 3-back (i.e. the same letter as the one that appeared 3 letters ago.),g,None,,,,,,,,,0,15,15,15,0,2,2,2,,,,,,,,,,,,,,,,,,,,,,,,,,,,,,,,,,,,,,,,,,,,,,,,,,,,,,,,,,,,,,,,,,,,,1.1402,1022.043841,None,None,1,1022.043841,None,,P022,fencog,2,Post,2022_Jan_26_1207,N-Back (New Version 2021),2021.1.4,120.056955
,,,,Conditions/Version_1/threeback(4)_v1.xlsx,New rule: Press 'space' when you see 3-back (i.e. the same letter as the one that appeared 3 letters ago.),A,space,,,,,,,,,0,15,15,15,0,3,3,3,,,,,,,,,,,,,,,,,,,,,,,,,,,,,,,,,,,,,,,,,,,,,,,,,,,,,,,,,,,,,,,,,,,,,1.382,1025.433605,None,space,1,1025.433605,None,0.7969896,P022,fencog,2,Post,2022_Jan_26_1207,N-Back (New Version 2021),2021.1.4,120.056955
,,,,Conditions/Version_1/threeback(4)_v1.xlsx,New rule: Press 'space' when you see 3-back (i.e. the same letter as the one that appeared 3 letters ago.),p,None,,,,,,,,,0,15,15,15,0,4,4,4,,,,,,,,,,,,,,,,,,,,,,,,,,,,,,,,,,,,,,,,,,,,,,,,,,,,,,,,,,,,,,,,,,,,,1.8222,1029.257618,None,None,1,1029.257618,None,,P022,fencog,2,Post,2022_Jan_26_1207,N-Back (New Version 2021),2021.1.4,120.056955
,,,,Conditions/Version_1/threeback(4)_v1.xlsx,New rule: Press 'space' when you see 3-back (i.e. the same letter as the one that appeared 3 letters ago.),O,None,,,,,,,,,0,15,15,15,0,5,5,5,,,,,,,,,,,,,,,,,,,,,,,,,,,,,,,,,,,,,,,,,,,,,,,,,,,,,,,,,,,,,,,,,,,,,1.5432,1032.806609,None,None,1,1032.806609,None,,P022,fencog,2,Post,2022_Jan_26_1207,N-Back (New Version 2021),2021.1.4,120.056955
,,,,Conditions/Version_1/threeback(4)_v1.xlsx,New rule: Press 'space' when you see 3-back (i.e. the same letter as the one that appeared 3 letters ago.),a,space,,,,,,,,,0,15,15,15,0,6,6,6,,,,,,,,,,,,,,,,,,,,,,,,,,,,,,,,,,,,,,,,,,,,,,,,,,,,,,,,,,,,,,,,,,,,,1.1712,1035.983849,None,space,1,1035.983849,None,0.8548299,P022,fencog,2,Post,2022_Jan_26_1207,N-Back (New Version 2021),2021.1.4,120.056955
,,,,Conditions/Version_1/threeback(4)_v1.xlsx,New rule: Press 'space' when you see 3-back (i.e. the same letter as the one that appeared 3 letters ago.),p,space,,,,,,,,,0,15,15,15,0,7,7,7,,,,,,,,,,,,,,,,,,,,,,,,,,,,,,,,,,,,,,,,,,,,,,,,,,,,,,,,,,,,,,,,,,,,,1.9834,1039.976865,None,space,1,1039.976865,None,0.9657249,P022,fencog,2,Post,2022_Jan_26_1207,N-Back (New Version 2021),2021.1.4,120.056955
,,,,Conditions/Version_1/threeback(4)_v1.xlsx,New rule: Press 'space' when you see 3-back (i.e. the same letter as the one that appeared 3 letters ago.),x,None,,,,,,,,,0,15,15,15,0,8,8,8,,,,,,,,,,,,,,,,,,,,,,,,,,,,,,,,,,,,,,,,,,,,,,,,,,,,,,,,,,,,,,,,,,,,,1.1092,1043.088904,None,None,1,1043.088904,None,,P022,fencog,2,Post,2022_Jan_26_1207,N-Back (New Version 2021),2021.1.4,120.056955
,,,,Conditions/Version_1/threeback(4)_v1.xlsx,New rule: Press 'space' when you see 3-back (i.e. the same letter as the one that appeared 3 letters ago.),X,None,,,,,,,,,0,15,15,15,0,9,9,9,,,,,,,,,,,,,,,,,,,,,,,,,,,,,,,,,,,,,,,,,,,,,,,,,,,,,,,,,,,,,,,,,,,,,1.5122,1046.613608,None,None,1,1046.613608,None,,P022,fencog,2,Post,2022_Jan_26_1207,N-Back (New Version 2021),2021.1.4,120.056955
,,,,Conditions/Version_1/threeback(4)_v1.xlsx,New rule: Press 'space' when you see 3-back (i.e. the same letter as the one that appeared 3 letters ago.),,,,,,,,,,,0,15,15,15,,,,,,,,,,,,,,,,,,,,,,,,,,,,,,,,,,,,,,,,,,,,,,,,,,,,,,,,,,,,,,,,,,,,,,,,,,,,,,,,,P022,fencog,2,Post,2022_Jan_26_1207,N-Back (New Version 2021),2021.1.4,120.056955
