CondFileP,InstructionsP,LettersDisplayedP,CorrectnessP,CondFile,Instructions,LettersDisplayed,Correctness,practicetrials.thisRepN,practicetrials.thisTrialN,practicetrials.thisN,practicetrials.thisIndex,InnerLoopPractice.thisRepN,InnerLoopPractice.thisTrialN,InnerLoopPractice.thisN,InnerLoopPractice.thisIndex,trials.thisRepN,trials.thisTrialN,trials.thisN,trials.thisIndex,InnerLoop.thisRepN,InnerLoop.thisTrialN,InnerLoop.thisN,InnerLoop.thisIndex,TaskVersionText.started,TaskVersionText.stopped,InstrKey1.keys,InstrKey1.rt,InstrKey1.started,InstrKey1.stopped,text.started,text.stopped,key_resp_4.keys,key_resp_4.rt,key_resp_4.started,key_resp_4.stopped,text_2.started,text_2.stopped,key_resp_3.keys,key_resp_3.rt,key_resp_3.started,key_resp_3.stopped,text_3.started,text_3.stopped,key_resp_2.keys,key_resp_2.rt,key_resp_2.started,key_resp_2.stopped,PractIn1.started,PractIn1.stopped,PractIn2.started,PractIn2.stopped,PractInstructionPass.keys,PractInstructionPass.rt,PractInstructionPass.started,PractInstructionPass.stopped,PractBlock1.started,PractBlock1.stopped,ISIjitterPractice,ISI_Pract_Fixation.started,ISI_Pract_Fixation.stopped,N_backP.started,N_backP.stopped,KeyPractice.keys,KeyPractice.corr,KeyPractice.rt,KeyPractice.started,KeyPractice.stopped,text_4.started,text_4.stopped,TransitionText.started,TransitionText.stopped,key_resp_6.keys,key_resp_6.rt,key_resp_6.started,key_resp_6.stopped,text_5.started,text_5.stopped,key_resp_5.keys,key_resp_5.rt,key_resp_5.started,key_resp_5.stopped,MainInt1.started,MainInt1.stopped,MainInt2.started,MainInt2.stopped,InstructionPass.keys,InstructionPass.rt,InstructionPass.started,InstructionPass.stopped,Blocks1.started,Blocks1.stopped,ISIjitter,N_backD.started,N_backD.stopped,key_resp.keys,key_resp.corr,key_resp.started,key_resp.stopped,key_resp.rt,participant,Study Name,Task Version (required to run),PRE/POST,date,expName,psychopyVersion,frameRate,
,,,,,,,,,,,,,,,,,,,,,,,,31.84904319999987,None,space,5.407840599999872,32.339567299999544,None,,,,,,,,,,,,,,,,,,,,,,,,,,,,,,,,,,,,,,,,,,,,,,,,,,,,,,,,,,,,,,,,,,,,,,,P023,fencog,1,Post,2022_Feb_16_1209,N-Back (New Version 2021),2021.1.4,119.92032493627532,
,,,,,,,,,,,,,,,,,,,,,,,,,,,,,,37.77719269999943,None,space,6.859539200000654,38.27173210000001,None,,,,,,,,,,,,,,,,,,,,,,,,,,,,,,,,,,,,,,,,,,,,,,,,,,,,,,,,,,,,,,,,,P023,fencog,1,Post,2022_Feb_16_1209,N-Back (New Version 2021),2021.1.4,119.92032493627532,
,,,,,,,,,,,,,,,,,,,,,,,,,,,,,,,,,,,,45.18433759999971,None,space,15.603399900000113,45.67817279999963,None,,,,,,,,,,,,,,,,,,,,,,,,,,,,,,,,,,,,,,,,,,,,,,,,,,,,,,,,,,,P023,fencog,1,Post,2022_Feb_16_1209,N-Back (New Version 2021),2021.1.4,119.92032493627532,
,,,,,,,,,,,,,,,,,,,,,,,,,,,,,,,,,,,,,,,,,,61.30678660000012,None,space,7.0545318000004045,61.79805919999944,None,,,,,,,,,,,,,,,,,,,,,,,,,,,,,,,,,,,,,,,,,,,,,,,,,,,,,P023,fencog,1,Post,2022_Feb_16_1209,N-Back (New Version 2021),2021.1.4,119.92032493627532,
Conditions/Version_1Pr/zeroback(1)_v1.xlsx,Rule: Press 'space' when you see the letter 'x' or 'X'.,Z,None,,,,,0,0,0,0,0,0,0,0,,,,,,,,,,,,,,,,,,,,,,,,,,,,,,,,,70.23706510000011,None,73.22059379999973,None,space,0.6358233000000837,73.22059379999973,None,70.23706510000011,None,1.84,73.8847539999997,None,75.72863330000018,None,space,0,0.40413189999981114,75.72863330000018,None,76.1508146999995,None,,,,,,,,,,,,,,,,,,,,,,,,,,,,,,,P023,fencog,1,Post,2022_Feb_16_1209,N-Back (New Version 2021),2021.1.4,119.92032493627532,
Conditions/Version_1Pr/zeroback(1)_v1.xlsx,Rule: Press 'space' when you see the letter 'x' or 'X'.,r,None,,,,,0,0,0,0,0,1,1,1,,,,,,,,,,,,,,,,,,,,,,,,,,,,,,,,,,,,,,,,,,,1.69,77.65082979999988,None,79.3423929999999,None,None,1,,79.3423929999999,None,81.34577730000001,None,,,,,,,,,,,,,,,,,,,,,,,,,,,,,,,P023,fencog,1,Post,2022_Feb_16_1209,N-Back (New Version 2021),2021.1.4,119.92032493627532,
Conditions/Version_1Pr/zeroback(1)_v1.xlsx,Rule: Press 'space' when you see the letter 'x' or 'X'.,X,space,,,,,0,0,0,0,0,2,2,2,,,,,,,,,,,,,,,,,,,,,,,,,,,,,,,,,,,,,,,,,,,1.44,82.85055029999967,None,84.29411849999997,None,space,1,0.4428315000004659,84.29411849999997,None,84.75056719999975,None,,,,,,,,,,,,,,,,,,,,,,,,,,,,,,,P023,fencog,1,Post,2022_Feb_16_1209,N-Back (New Version 2021),2021.1.4,119.92032493627532,
Conditions/Version_1Pr/zeroback(1)_v1.xlsx,Rule: Press 'space' when you see the letter 'x' or 'X'.,p,None,,,,,0,0,0,0,0,3,3,3,,,,,,,,,,,,,,,,,,,,,,,,,,,,,,,,,,,,,,,,,,,1.89,86.25687159999961,None,88.15077759999986,None,None,1,,88.15077759999986,None,90.15575609999996,None,,,,,,,,,,,,,,,,,,,,,,,,,,,,,,,P023,fencog,1,Post,2022_Feb_16_1209,N-Back (New Version 2021),2021.1.4,119.92032493627532,
Conditions/Version_1Pr/zeroback(1)_v1.xlsx,Rule: Press 'space' when you see the letter 'x' or 'X'.,w,None,,,,,0,0,0,0,0,4,4,4,,,,,,,,,,,,,,,,,,,,,,,,,,,,,,,,,,,,,,,,,,,1.565,91.65528089999952,None,93.22301389999939,None,None,1,,93.22301389999939,None,95.22931169999993,None,,,,,,,,,,,,,,,,,,,,,,,,,,,,,,,P023,fencog,1,Post,2022_Feb_16_1209,N-Back (New Version 2021),2021.1.4,119.92032493627532,
Conditions/Version_1Pr/zeroback(1)_v1.xlsx,Rule: Press 'space' when you see the letter 'x' or 'X'.,e,None,,,,,0,0,0,0,0,5,5,5,,,,,,,,,,,,,,,,,,,,,,,,,,,,,,,,,,,,,,,,,,,1.09,96.72879769999963,None,97.82324629999948,None,None,1,,97.82324629999948,None,99.82783399999971,None,,,,,,,,,,,,,,,,,,,,,,,,,,,,,,,P023,fencog,1,Post,2022_Feb_16_1209,N-Back (New Version 2021),2021.1.4,119.92032493627532,
Conditions/Version_1Pr/zeroback(1)_v1.xlsx,Rule: Press 'space' when you see the letter 'x' or 'X'.,X,space,,,,,0,0,0,0,0,6,6,6,,,,,,,,,,,,,,,,,,,,,,,,,,,,,,,,,,,,,,,,,,,1.215,101.32745209999939,None,102.54351489999954,None,space,1,0.3847484000007171,102.54351489999954,None,102.94416319999982,None,,,,,,,,,,,,,,,,,,,,,,,,,,,,,,,P023,fencog,1,Post,2022_Feb_16_1209,N-Back (New Version 2021),2021.1.4,119.92032493627532,
Conditions/Version_1Pr/zeroback(1)_v1.xlsx,Rule: Press 'space' when you see the letter 'x' or 'X'.,x,space,,,,,0,0,0,0,0,7,7,7,,,,,,,,,,,,,,,,,,,,,,,,,,,,,,,,,,,,,,,,,,,1.79,104.44319869999981,None,106.24053829999957,None,space,1,0.3164526999998998,106.24053829999957,None,106.57409449999977,None,,,,,,,,,,,,,,,,,,,,,,,,,,,,,,,P023,fencog,1,Post,2022_Feb_16_1209,N-Back (New Version 2021),2021.1.4,119.92032493627532,
Conditions/Version_1Pr/zeroback(1)_v1.xlsx,Rule: Press 'space' when you see the letter 'x' or 'X'.,p,None,,,,,0,0,0,0,0,8,8,8,,,,,,,,,,,,,,,,,,,,,,,,,,,,,,,,,,,,,,,,,,,1.615,108.07543059999989,None,109.69595500000014,None,None,1,,109.69595500000014,None,111.69943760000024,None,,,,,,,,,,,,,,,,,,,,,,,,,,,,,,,P023,fencog,1,Post,2022_Feb_16_1209,N-Back (New Version 2021),2021.1.4,119.92032493627532,
Conditions/Version_1Pr/zeroback(1)_v1.xlsx,Rule: Press 'space' when you see the letter 'x' or 'X'.,r,None,,,,,0,0,0,0,0,9,9,9,,,,,,,,,,,,,,,,,,,,,,,,,,,,,,,,,,,,,,,,,,,1.74,113.19896919999974,None,114.94162809999943,None,None,1,,114.94162809999943,None,116.9478853999999,None,,,,,,,,,,,,,,,,,,,,,,,,,,,,,,,P023,fencog,1,Post,2022_Feb_16_1209,N-Back (New Version 2021),2021.1.4,119.92032493627532,
Conditions/Version_1Pr/zeroback(1)_v1.xlsx,Rule: Press 'space' when you see the letter 'x' or 'X'.,,,,,,,0,0,0,0,,,,,,,,,,,,,,,,,,,,,,,,,,,,,,,,,,,,,,,,,,,,,,,,,,,,,,,,,,,,,,,,,,,,,,,,,,,,,,,,,,,,,,,,,P023,fencog,1,Post,2022_Feb_16_1209,N-Back (New Version 2021),2021.1.4,119.92032493627532,
Conditions/Version_1Pr/oneback(1)_v1.xlsx,New rule: Press 'space' when you see 1-back (i.e. the same letter as the one that appeared 1 letter ago.),a,None,,,,,0,1,1,1,0,0,0,0,,,,,,,,,,,,,,,,,,,,,,,,,,,,,,,,,118.4717254999996,None,121.44871789999979,None,space,0.5648509000002377,121.44871789999979,None,118.4717254999996,None,1.59,122.03709280000021,None,123.63704859999962,None,None,1,,123.63704859999962,None,125.63304439999956,None,,,,,,,,,,,,,,,,,,,,,,,,,,,,,,,P023,fencog,1,Post,2022_Feb_16_1209,N-Back (New Version 2021),2021.1.4,119.92032493627532,
Conditions/Version_1Pr/oneback(1)_v1.xlsx,New rule: Press 'space' when you see 1-back (i.e. the same letter as the one that appeared 1 letter ago.),x,None,,,,,0,1,1,1,0,1,1,1,,,,,,,,,,,,,,,,,,,,,,,,,,,,,,,,,,,,,,,,,,,1.765,127.1364367999995,None,128.90242260000014,None,None,1,,128.90242260000014,None,130.90856079999958,None,,,,,,,,,,,,,,,,,,,,,,,,,,,,,,,P023,fencog,1,Post,2022_Feb_16_1209,N-Back (New Version 2021),2021.1.4,119.92032493627532,
Conditions/Version_1Pr/oneback(1)_v1.xlsx,New rule: Press 'space' when you see 1-back (i.e. the same letter as the one that appeared 1 letter ago.),g,None,,,,,0,1,1,1,0,2,2,2,,,,,,,,,,,,,,,,,,,,,,,,,,,,,,,,,,,,,,,,,,,1.19,132.40978470000027,None,133.60732129999997,None,None,1,,133.60732129999997,None,135.60904370000026,None,,,,,,,,,,,,,,,,,,,,,,,,,,,,,,,P023,fencog,1,Post,2022_Feb_16_1209,N-Back (New Version 2021),2021.1.4,119.92032493627532,
Conditions/Version_1Pr/oneback(1)_v1.xlsx,New rule: Press 'space' when you see 1-back (i.e. the same letter as the one that appeared 1 letter ago.),G,space,,,,,0,1,1,1,0,3,3,3,,,,,,,,,,,,,,,,,,,,,,,,,,,,,,,,,,,,,,,,,,,1.89,137.10861229999955,None,139.00220759999956,None,space,1,0.5545657999991818,139.00220759999956,None,139.56942679999975,None,,,,,,,,,,,,,,,,,,,,,,,,,,,,,,,P023,fencog,1,Post,2022_Feb_16_1209,N-Back (New Version 2021),2021.1.4,119.92032493627532,
Conditions/Version_1Pr/oneback(1)_v1.xlsx,New rule: Press 'space' when you see 1-back (i.e. the same letter as the one that appeared 1 letter ago.),u,None,,,,,0,1,1,1,0,4,4,4,,,,,,,,,,,,,,,,,,,,,,,,,,,,,,,,,,,,,,,,,,,1.24,141.07464900000014,None,142.31618059999983,None,None,1,,142.31618059999983,None,144.32301199999984,None,,,,,,,,,,,,,,,,,,,,,,,,,,,,,,,P023,fencog,1,Post,2022_Feb_16_1209,N-Back (New Version 2021),2021.1.4,119.92032493627532,
Conditions/Version_1Pr/oneback(1)_v1.xlsx,New rule: Press 'space' when you see 1-back (i.e. the same letter as the one that appeared 1 letter ago.),y,None,,,,,0,1,1,1,0,5,5,5,,,,,,,,,,,,,,,,,,,,,,,,,,,,,,,,,,,,,,,,,,,1.64,145.82270400000016,None,147.46446749999996,None,None,1,,147.46446749999996,None,149.47153139999955,None,,,,,,,,,,,,,,,,,,,,,,,,,,,,,,,P023,fencog,1,Post,2022_Feb_16_1209,N-Back (New Version 2021),2021.1.4,119.92032493627532,
Conditions/Version_1Pr/oneback(1)_v1.xlsx,New rule: Press 'space' when you see 1-back (i.e. the same letter as the one that appeared 1 letter ago.),y,space,,,,,0,1,1,1,0,6,6,6,,,,,,,,,,,,,,,,,,,,,,,,,,,,,,,,,,,,,,,,,,,1.665,150.9712116999999,None,152.6380896999999,None,space,1,0.4403376999998727,152.6380896999999,None,153.09082990000024,None,,,,,,,,,,,,,,,,,,,,,,,,,,,,,,,P023,fencog,1,Post,2022_Feb_16_1209,N-Back (New Version 2021),2021.1.4,119.92032493627532,
Conditions/Version_1Pr/oneback(1)_v1.xlsx,New rule: Press 'space' when you see 1-back (i.e. the same letter as the one that appeared 1 letter ago.),k,None,,,,,0,1,1,1,0,7,7,7,,,,,,,,,,,,,,,,,,,,,,,,,,,,,,,,,,,,,,,,,,,1.265,154.59511669999938,None,155.86149639999985,None,None,1,,155.86149639999985,None,157.86088689999997,None,,,,,,,,,,,,,,,,,,,,,,,,,,,,,,,P023,fencog,1,Post,2022_Feb_16_1209,N-Back (New Version 2021),2021.1.4,119.92032493627532,
Conditions/Version_1Pr/oneback(1)_v1.xlsx,New rule: Press 'space' when you see 1-back (i.e. the same letter as the one that appeared 1 letter ago.),c,None,,,,,0,1,1,1,0,8,8,8,,,,,,,,,,,,,,,,,,,,,,,,,,,,,,,,,,,,,,,,,,,1.79,159.36307229999966,None,161.1624714999998,None,None,1,,161.1624714999998,None,163.16764280000007,None,,,,,,,,,,,,,,,,,,,,,,,,,,,,,,,P023,fencog,1,Post,2022_Feb_16_1209,N-Back (New Version 2021),2021.1.4,119.92032493627532,
Conditions/Version_1Pr/oneback(1)_v1.xlsx,New rule: Press 'space' when you see 1-back (i.e. the same letter as the one that appeared 1 letter ago.),r,None,,,,,0,1,1,1,0,9,9,9,,,,,,,,,,,,,,,,,,,,,,,,,,,,,,,,,,,,,,,,,,,1.84,164.66716319999978,None,166.50907110000026,None,None,1,,166.50907110000026,None,168.5160625999997,None,,,,,,,,,,,,,,,,,,,,,,,,,,,,,,,P023,fencog,1,Post,2022_Feb_16_1209,N-Back (New Version 2021),2021.1.4,119.92032493627532,
Conditions/Version_1Pr/oneback(1)_v1.xlsx,New rule: Press 'space' when you see 1-back (i.e. the same letter as the one that appeared 1 letter ago.),,,,,,,0,1,1,1,,,,,,,,,,,,,,,,,,,,,,,,,,,,,,,,,,,,,,,,,,,,,,,,,,,,,,,,,,,,,,,,,,,,,,,,,,,,,,,,,,,,,,,,,P023,fencog,1,Post,2022_Feb_16_1209,N-Back (New Version 2021),2021.1.4,119.92032493627532,
Conditions/Version_1Pr/twoback(1)_v1.xlsx,New rule: Press 'space' when you see 2-back (i.e. the same letter as the one that appeared 2 letters ago.),E,None,,,,,0,2,2,2,0,0,0,0,,,,,,,,,,,,,,,,,,,,,,,,,,,,,,,,,170.04077719999987,None,173.0259876,None,space,0.8463638000002902,173.0259876,None,170.04077719999987,None,1.115,173.89282720000028,None,175.01617749999969,None,None,1,,175.01617749999969,None,177.02185499999996,None,,,,,,,,,,,,,,,,,,,,,,,,,,,,,,,P023,fencog,1,Post,2022_Feb_16_1209,N-Back (New Version 2021),2021.1.4,119.92032493627532,
Conditions/Version_1Pr/twoback(1)_v1.xlsx,New rule: Press 'space' when you see 2-back (i.e. the same letter as the one that appeared 2 letters ago.),p,None,,,,,0,2,2,2,0,1,1,1,,,,,,,,,,,,,,,,,,,,,,,,,,,,,,,,,,,,,,,,,,,1.665,178.52140109999982,None,180.1884298999994,None,None,1,,180.1884298999994,None,182.1953322999998,None,,,,,,,,,,,,,,,,,,,,,,,,,,,,,,,P023,fencog,1,Post,2022_Feb_16_1209,N-Back (New Version 2021),2021.1.4,119.92032493627532,
Conditions/Version_1Pr/twoback(1)_v1.xlsx,New rule: Press 'space' when you see 2-back (i.e. the same letter as the one that appeared 2 letters ago.),e,space,,,,,0,2,2,2,0,2,2,2,,,,,,,,,,,,,,,,,,,,,,,,,,,,,,,,,,,,,,,,,,,1.715,183.69479969999975,None,185.41184259999955,None,space,1,0.3423246000002109,185.41184259999955,None,185.7706258999997,None,,,,,,,,,,,,,,,,,,,,,,,,,,,,,,,P023,fencog,1,Post,2022_Feb_16_1209,N-Back (New Version 2021),2021.1.4,119.92032493627532,
Conditions/Version_1Pr/twoback(1)_v1.xlsx,New rule: Press 'space' when you see 2-back (i.e. the same letter as the one that appeared 2 letters ago.),s,None,,,,,0,2,2,2,0,3,3,3,,,,,,,,,,,,,,,,,,,,,,,,,,,,,,,,,,,,,,,,,,,1.84,187.27878349999992,None,189.12439660000018,None,None,1,,189.12439660000018,None,191.12576639999952,None,,,,,,,,,,,,,,,,,,,,,,,,,,,,,,,P023,fencog,1,Post,2022_Feb_16_1209,N-Back (New Version 2021),2021.1.4,119.92032493627532,
Conditions/Version_1Pr/twoback(1)_v1.xlsx,New rule: Press 'space' when you see 2-back (i.e. the same letter as the one that appeared 2 letters ago.),S,None,,,,,0,2,2,2,0,4,4,4,,,,,,,,,,,,,,,,,,,,,,,,,,,,,,,,,,,,,,,,,,,1.515,192.62558869999975,None,194.14787199999955,None,None,1,,194.14787199999955,None,196.1474059000002,None,,,,,,,,,,,,,,,,,,,,,,,,,,,,,,,P023,fencog,1,Post,2022_Feb_16_1209,N-Back (New Version 2021),2021.1.4,119.92032493627532,
Conditions/Version_1Pr/twoback(1)_v1.xlsx,New rule: Press 'space' when you see 2-back (i.e. the same letter as the one that appeared 2 letters ago.),s,space,,,,,0,2,2,2,0,5,5,5,,,,,,,,,,,,,,,,,,,,,,,,,,,,,,,,,,,,,,,,,,,1.965,197.64913759999945,None,199.6159262000001,None,space,1,0.3244542000002184,199.6159262000001,None,199.95103560000007,None,,,,,,,,,,,,,,,,,,,,,,,,,,,,,,,P023,fencog,1,Post,2022_Feb_16_1209,N-Back (New Version 2021),2021.1.4,119.92032493627532,
Conditions/Version_1Pr/twoback(1)_v1.xlsx,New rule: Press 'space' when you see 2-back (i.e. the same letter as the one that appeared 2 letters ago.),P,None,,,,,0,2,2,2,0,6,6,6,,,,,,,,,,,,,,,,,,,,,,,,,,,,,,,,,,,,,,,,,,,1.94,201.45631890000004,None,203.39917549999973,None,None,1,,203.39917549999973,None,205.40516500000012,None,,,,,,,,,,,,,,,,,,,,,,,,,,,,,,,P023,fencog,1,Post,2022_Feb_16_1209,N-Back (New Version 2021),2021.1.4,119.92032493627532,
Conditions/Version_1Pr/twoback(1)_v1.xlsx,New rule: Press 'space' when you see 2-back (i.e. the same letter as the one that appeared 2 letters ago.),C,None,,,,,0,2,2,2,0,7,7,7,,,,,,,,,,,,,,,,,,,,,,,,,,,,,,,,,,,,,,,,,,,1.64,206.90475220000008,None,208.5473108999995,None,None,1,,208.5473108999995,None,210.55363409999973,None,,,,,,,,,,,,,,,,,,,,,,,,,,,,,,,P023,fencog,1,Post,2022_Feb_16_1209,N-Back (New Version 2021),2021.1.4,119.92032493627532,
Conditions/Version_1Pr/twoback(1)_v1.xlsx,New rule: Press 'space' when you see 2-back (i.e. the same letter as the one that appeared 2 letters ago.),x,None,,,,,0,2,2,2,0,8,8,8,,,,,,,,,,,,,,,,,,,,,,,,,,,,,,,,,,,,,,,,,,,1.44,212.05317769999965,None,213.49599469999976,None,None,1,,213.49599469999976,None,215.50223769999957,None,,,,,,,,,,,,,,,,,,,,,,,,,,,,,,,P023,fencog,1,Post,2022_Feb_16_1209,N-Back (New Version 2021),2021.1.4,119.92032493627532,
Conditions/Version_1Pr/twoback(1)_v1.xlsx,New rule: Press 'space' when you see 2-back (i.e. the same letter as the one that appeared 2 letters ago.),Z,None,,,,,0,2,2,2,0,9,9,9,,,,,,,,,,,,,,,,,,,,,,,,,,,,,,,,,,,,,,,,,,,1.14,217.00237639999978,None,218.14409799999976,None,None,1,,218.14409799999976,None,220.15087080000012,None,,,,,,,,,,,,,,,,,,,,,,,,,,,,,,,P023,fencog,1,Post,2022_Feb_16_1209,N-Back (New Version 2021),2021.1.4,119.92032493627532,
Conditions/Version_1Pr/twoback(1)_v1.xlsx,New rule: Press 'space' when you see 2-back (i.e. the same letter as the one that appeared 2 letters ago.),,,,,,,0,2,2,2,,,,,,,,,,,,,,,,,,,,,,,,,,,,,,,,,,,,,,,,,,,,,,,,,,,,,,,,,,,,,,,,,,,,,,,,,,,,,,,,,,,,,,,,,P023,fencog,1,Post,2022_Feb_16_1209,N-Back (New Version 2021),2021.1.4,119.92032493627532,
Conditions/Version_1Pr/threeback(1)_v1.xlsx,New rule: Press 'space' when you see 3-back (i.e. the same letter as the one that appeared 3 letters ago.),r,None,,,,,0,3,3,3,0,0,0,0,,,,,,,,,,,,,,,,,,,,,,,,,,,,,,,,,221.6711532999998,None,224.66045750000012,None,space,4.444887999999992,224.66045750000012,None,221.6711532999998,None,1.365,229.1267558999998,None,230.49852089999968,None,None,1,,230.49852089999968,None,232.5051311999996,None,,,,,,,,,,,,,,,,,,,,,,,,,,,,,,,P023,fencog,1,Post,2022_Feb_16_1209,N-Back (New Version 2021),2021.1.4,119.92032493627532,
Conditions/Version_1Pr/threeback(1)_v1.xlsx,New rule: Press 'space' when you see 3-back (i.e. the same letter as the one that appeared 3 letters ago.),a,None,,,,,0,3,3,3,0,1,1,1,,,,,,,,,,,,,,,,,,,,,,,,,,,,,,,,,,,,,,,,,,,1.69,234.00511240000014,None,235.6970408999996,None,None,1,,235.6970408999996,None,237.70412130000022,None,,,,,,,,,,,,,,,,,,,,,,,,,,,,,,,P023,fencog,1,Post,2022_Feb_16_1209,N-Back (New Version 2021),2021.1.4,119.92032493627532,
Conditions/Version_1Pr/threeback(1)_v1.xlsx,New rule: Press 'space' when you see 3-back (i.e. the same letter as the one that appeared 3 letters ago.),t,None,,,,,0,3,3,3,0,2,2,2,,,,,,,,,,,,,,,,,,,,,,,,,,,,,,,,,,,,,,,,,,,1.09,239.20331019999958,None,240.29688069999975,None,None,1,,240.29688069999975,None,242.30126909999944,None,,,,,,,,,,,,,,,,,,,,,,,,,,,,,,,P023,fencog,1,Post,2022_Feb_16_1209,N-Back (New Version 2021),2021.1.4,119.92032493627532,
Conditions/Version_1Pr/threeback(1)_v1.xlsx,New rule: Press 'space' when you see 3-back (i.e. the same letter as the one that appeared 3 letters ago.),r,space,,,,,0,3,3,3,0,3,3,3,,,,,,,,,,,,,,,,,,,,,,,,,,,,,,,,,,,,,,,,,,,1.665,243.80219690000013,None,245.46925099999953,None,space,1,0.3932788000001892,245.46925099999953,None,245.8734298999998,None,,,,,,,,,,,,,,,,,,,,,,,,,,,,,,,P023,fencog,1,Post,2022_Feb_16_1209,N-Back (New Version 2021),2021.1.4,119.92032493627532,
Conditions/Version_1Pr/threeback(1)_v1.xlsx,New rule: Press 'space' when you see 3-back (i.e. the same letter as the one that appeared 3 letters ago.),a,None,,,,,0,3,3,3,0,4,4,4,,,,,,,,,,,,,,,,,,,,,,,,,,,,,,,,,,,,,,,,,,,1.865,247.37594360000003,None,249.24571930000002,None,space,0,0.7251738999993904,249.24571930000002,None,249.98257279999962,None,,,,,,,,,,,,,,,,,,,,,,,,,,,,,,,P023,fencog,1,Post,2022_Feb_16_1209,N-Back (New Version 2021),2021.1.4,119.92032493627532,
Conditions/Version_1Pr/threeback(1)_v1.xlsx,New rule: Press 'space' when you see 3-back (i.e. the same letter as the one that appeared 3 letters ago.),Y,None,,,,,0,3,3,3,0,5,5,5,,,,,,,,,,,,,,,,,,,,,,,,,,,,,,,,,,,,,,,,,,,1.39,251.48328450000008,None,252.87664349999977,None,None,1,,252.87664349999977,None,254.88394640000024,None,,,,,,,,,,,,,,,,,,,,,,,,,,,,,,,P023,fencog,1,Post,2022_Feb_16_1209,N-Back (New Version 2021),2021.1.4,119.92032493627532,
Conditions/Version_1Pr/threeback(1)_v1.xlsx,New rule: Press 'space' when you see 3-back (i.e. the same letter as the one that appeared 3 letters ago.),q,None,,,,,0,3,3,3,0,6,6,6,,,,,,,,,,,,,,,,,,,,,,,,,,,,,,,,,,,,,,,,,,,1.49,256.3817878,None,257.8745546,None,None,1,,257.8745546,None,259.87940660000004,None,,,,,,,,,,,,,,,,,,,,,,,,,,,,,,,P023,fencog,1,Post,2022_Feb_16_1209,N-Back (New Version 2021),2021.1.4,119.92032493627532,
Conditions/Version_1Pr/threeback(1)_v1.xlsx,New rule: Press 'space' when you see 3-back (i.e. the same letter as the one that appeared 3 letters ago.),A,space,,,,,0,3,3,3,0,7,7,7,,,,,,,,,,,,,,,,,,,,,,,,,,,,,,,,,,,,,,,,,,,1.64,261.38033240000004,None,263.02939719999995,None,None,0,,263.02939719999995,None,265.0332677999995,None,,,,,,,,,,,,,,,,,,,,,,,,,,,,,,,P023,fencog,1,Post,2022_Feb_16_1209,N-Back (New Version 2021),2021.1.4,119.92032493627532,
Conditions/Version_1Pr/threeback(1)_v1.xlsx,New rule: Press 'space' when you see 3-back (i.e. the same letter as the one that appeared 3 letters ago.),y,None,,,,,0,3,3,3,0,8,8,8,,,,,,,,,,,,,,,,,,,,,,,,,,,,,,,,,,,,,,,,,,,1.99,266.5289219999995,None,268.5218868000002,None,space,0,0.8013251000002128,268.5218868000002,None,269.3400937999995,None,,,,,,,,,,,,,,,,,,,,,,,,,,,,,,,P023,fencog,1,Post,2022_Feb_16_1209,N-Back (New Version 2021),2021.1.4,119.92032493627532,
Conditions/Version_1Pr/threeback(1)_v1.xlsx,New rule: Press 'space' when you see 3-back (i.e. the same letter as the one that appeared 3 letters ago.),r,None,,,,,0,3,3,3,0,9,9,9,,,,,,,,,,,,,,,,,,,,,,,,,,,,,,,,,,,,,,,,,,,1.265,270.8442396999999,None,272.11152219999985,None,None,1,,272.11152219999985,None,274.11809840000024,None,,,,,,,,,,,,,,,,,,,,,,,,,,,,,,,P023,fencog,1,Post,2022_Feb_16_1209,N-Back (New Version 2021),2021.1.4,119.92032493627532,
Conditions/Version_1Pr/threeback(1)_v1.xlsx,New rule: Press 'space' when you see 3-back (i.e. the same letter as the one that appeared 3 letters ago.),,,,,,,0,3,3,3,,,,,,,,,,,,,,,,,,,,,,,,,,,,,,,,,,,,,,,,,,,,,,,,,,,,,,,,,,,,,,,,,,,,,,,,,,,,,,,,,,,,,,,,,P023,fencog,1,Post,2022_Feb_16_1209,N-Back (New Version 2021),2021.1.4,119.92032493627532,
,,,,,,,,,,,,,,,,,,,,,,,,,,,,,,,,,,,,,,,,,,,,,,,,,,,,,,,,,,,,,,,,,,,,,,275.6305569999995,None,space,144.82332029999998,276.12607839999964,None,,,,,,,,,,,,,,,,,,,,,,,,,P023,fencog,1,Post,2022_Feb_16_1209,N-Back (New Version 2021),2021.1.4,119.92032493627532,
,,,,,,,,,,,,,,,,,,,,,,,,,,,,,,,,,,,,,,,,,,,,,,,,,,,,,,,,,,,,,,,,,,,,,,,,,,,,420.97137079999993,None,space,4.524046999999882,421.46710919999987,None,,,,,,,,,,,,,,,,,,,P023,fencog,1,Post,2022_Feb_16_1209,N-Back (New Version 2021),2021.1.4,119.92032493627532,
,,,,Conditions/Version_1/zeroback(1)_v1.xlsx,Rule: Press 'space' when you see the letter 'x' or 'X'.,b,None,,,,,,,,,0,0,0,0,0,0,0,0,,,,,,,,,,,,,,,,,,,,,,,,,,,,,,,,,,,,,,,,,,,,,,,,,,,,,,,,,,,426.09552970000004,None,429.0849446000002,None,space,1.0161768999996639,429.0849446000002,None,426.09552970000004,None,1.7602,431.88957870000013,None,None,1,431.88957870000013,None,,P023,fencog,1,Post,2022_Feb_16_1209,N-Back (New Version 2021),2021.1.4,119.92032493627532,
,,,,Conditions/Version_1/zeroback(1)_v1.xlsx,Rule: Press 'space' when you see the letter 'x' or 'X'.,T,None,,,,,,,,,0,0,0,0,0,1,1,1,,,,,,,,,,,,,,,,,,,,,,,,,,,,,,,,,,,,,,,,,,,,,,,,,,,,,,,,,,,,,,,,,,,,,1.3696,435.2652908,None,None,1,435.2652908,None,,P023,fencog,1,Post,2022_Feb_16_1209,N-Back (New Version 2021),2021.1.4,119.92032493627532,
,,,,Conditions/Version_1/zeroback(1)_v1.xlsx,Rule: Press 'space' when you see the letter 'x' or 'X'.,L,None,,,,,,,,,0,0,0,0,0,2,2,2,,,,,,,,,,,,,,,,,,,,,,,,,,,,,,,,,,,,,,,,,,,,,,,,,,,,,,,,,,,,,,,,,,,,,1.0906,438.3645403999999,None,None,1,438.3645403999999,None,,P023,fencog,1,Post,2022_Feb_16_1209,N-Back (New Version 2021),2021.1.4,119.92032493627532,
,,,,Conditions/Version_1/zeroback(1)_v1.xlsx,Rule: Press 'space' when you see the letter 'x' or 'X'.,x,space,,,,,,,,,0,0,0,0,0,3,3,3,,,,,,,,,,,,,,,,,,,,,,,,,,,,,,,,,,,,,,,,,,,,,,,,,,,,,,,,,,,,,,,,,,,,,1.9338,442.31276720000005,None,space,1,442.31276720000005,None,0.34917330000007496,P023,fencog,1,Post,2022_Feb_16_1209,N-Back (New Version 2021),2021.1.4,119.92032493627532,
,,,,Conditions/Version_1/zeroback(1)_v1.xlsx,Rule: Press 'space' when you see the letter 'x' or 'X'.,o,None,,,,,,,,,0,0,0,0,0,4,4,4,,,,,,,,,,,,,,,,,,,,,,,,,,,,,,,,,,,,,,,,,,,,,,,,,,,,,,,,,,,,,,,,,,,,,1.7664,446.08445089999987,None,None,1,446.08445089999987,None,,P023,fencog,1,Post,2022_Feb_16_1209,N-Back (New Version 2021),2021.1.4,119.92032493627532,
,,,,Conditions/Version_1/zeroback(1)_v1.xlsx,Rule: Press 'space' when you see the letter 'x' or 'X'.,P,None,,,,,,,,,0,0,0,0,0,5,5,5,,,,,,,,,,,,,,,,,,,,,,,,,,,,,,,,,,,,,,,,,,,,,,,,,,,,,,,,,,,,,,,,,,,,,1.661,449.7508422000001,None,None,1,449.7508422000001,None,,P023,fencog,1,Post,2022_Feb_16_1209,N-Back (New Version 2021),2021.1.4,119.92032493627532,
,,,,Conditions/Version_1/zeroback(1)_v1.xlsx,Rule: Press 'space' when you see the letter 'x' or 'X'.,X,space,,,,,,,,,0,0,0,0,0,6,6,6,,,,,,,,,,,,,,,,,,,,,,,,,,,,,,,,,,,,,,,,,,,,,,,,,,,,,,,,,,,,,,,,,,,,,1.2704,453.0324920000003,None,space,1,453.0324920000003,None,0.4176587000001746,P023,fencog,1,Post,2022_Feb_16_1209,N-Back (New Version 2021),2021.1.4,119.92032493627532,
,,,,Conditions/Version_1/zeroback(1)_v1.xlsx,Rule: Press 'space' when you see the letter 'x' or 'X'.,n,None,,,,,,,,,0,0,0,0,0,7,7,7,,,,,,,,,,,,,,,,,,,,,,,,,,,,,,,,,,,,,,,,,,,,,,,,,,,,,,,,,,,,,,,,,,,,,1.0782,456.12516400000004,None,None,1,456.12516400000004,None,,P023,fencog,1,Post,2022_Feb_16_1209,N-Back (New Version 2021),2021.1.4,119.92032493627532,
,,,,Conditions/Version_1/zeroback(1)_v1.xlsx,Rule: Press 'space' when you see the letter 'x' or 'X'.,M,None,,,,,,,,,0,0,0,0,0,8,8,8,,,,,,,,,,,,,,,,,,,,,,,,,,,,,,,,,,,,,,,,,,,,,,,,,,,,,,,,,,,,,,,,,,,,,1.7478,459.88301820000015,None,None,1,459.88301820000015,None,,P023,fencog,1,Post,2022_Feb_16_1209,N-Back (New Version 2021),2021.1.4,119.92032493627532,
,,,,Conditions/Version_1/zeroback(1)_v1.xlsx,Rule: Press 'space' when you see the letter 'x' or 'X'.,a,None,,,,,,,,,0,0,0,0,0,9,9,9,,,,,,,,,,,,,,,,,,,,,,,,,,,,,,,,,,,,,,,,,,,,,,,,,,,,,,,,,,,,,,,,,,,,,1.1712,463.06360419999965,None,None,1,463.06360419999965,None,,P023,fencog,1,Post,2022_Feb_16_1209,N-Back (New Version 2021),2021.1.4,119.92032493627532,
,,,,Conditions/Version_1/zeroback(1)_v1.xlsx,Rule: Press 'space' when you see the letter 'x' or 'X'.,,,,,,,,,,,0,0,0,0,,,,,,,,,,,,,,,,,,,,,,,,,,,,,,,,,,,,,,,,,,,,,,,,,,,,,,,,,,,,,,,,,,,,,,,,,,,,,,,,,P023,fencog,1,Post,2022_Feb_16_1209,N-Back (New Version 2021),2021.1.4,119.92032493627532,
,,,,Conditions/Version_1/oneback(1)_v1.xlsx,New rule: Press 'space' when you see 1-back (i.e. the same letter as the one that appeared 1 letter ago.),b,None,,,,,,,,,0,1,1,1,0,0,0,0,,,,,,,,,,,,,,,,,,,,,,,,,,,,,,,,,,,,,,,,,,,,,,,,,,,,,,,,,,,465.0924643999997,None,468.08009669999956,None,space,0.759247700000742,468.08009669999956,None,465.0924643999997,None,1.1278,469.9940558999997,None,None,1,469.9940558999997,None,,P023,fencog,1,Post,2022_Feb_16_1209,N-Back (New Version 2021),2021.1.4,119.92032493627532,
,,,,Conditions/Version_1/oneback(1)_v1.xlsx,New rule: Press 'space' when you see 1-back (i.e. the same letter as the one that appeared 1 letter ago.),p,None,,,,,,,,,0,1,1,1,0,1,1,1,,,,,,,,,,,,,,,,,,,,,,,,,,,,,,,,,,,,,,,,,,,,,,,,,,,,,,,,,,,,,,,,,,,,,1.909,473.90937870000016,None,None,1,473.90937870000016,None,,P023,fencog,1,Post,2022_Feb_16_1209,N-Back (New Version 2021),2021.1.4,119.92032493627532,
,,,,Conditions/Version_1/oneback(1)_v1.xlsx,New rule: Press 'space' when you see 1-back (i.e. the same letter as the one that appeared 1 letter ago.),M,None,,,,,,,,,0,1,1,1,0,2,2,2,,,,,,,,,,,,,,,,,,,,,,,,,,,,,,,,,,,,,,,,,,,,,,,,,,,,,,,,,,,,,,,,,,,,,1.0968,477.0085597999996,None,None,1,477.0085597999996,None,,P023,fencog,1,Post,2022_Feb_16_1209,N-Back (New Version 2021),2021.1.4,119.92032493627532,
,,,,Conditions/Version_1/oneback(1)_v1.xlsx,New rule: Press 'space' when you see 1-back (i.e. the same letter as the one that appeared 1 letter ago.),M,space,,,,,,,,,0,1,1,1,0,3,3,3,,,,,,,,,,,,,,,,,,,,,,,,,,,,,,,,,,,,,,,,,,,,,,,,,,,,,,,,,,,,,,,,,,,,,1.103,480.12438529999963,None,space,1,480.12438529999963,None,0.41930039999988367,P023,fencog,1,Post,2022_Feb_16_1209,N-Back (New Version 2021),2021.1.4,119.92032493627532,
,,,,Conditions/Version_1/oneback(1)_v1.xlsx,New rule: Press 'space' when you see 1-back (i.e. the same letter as the one that appeared 1 letter ago.),n,None,,,,,,,,,0,1,1,1,0,4,4,4,,,,,,,,,,,,,,,,,,,,,,,,,,,,,,,,,,,,,,,,,,,,,,,,,,,,,,,,,,,,,,,,,,,,,1.0472,483.17444909999995,None,None,1,483.17444909999995,None,,P023,fencog,1,Post,2022_Feb_16_1209,N-Back (New Version 2021),2021.1.4,119.92032493627532,
,,,,Conditions/Version_1/oneback(1)_v1.xlsx,New rule: Press 'space' when you see 1-back (i.e. the same letter as the one that appeared 1 letter ago.),g,None,,,,,,,,,0,1,1,1,0,5,5,5,,,,,,,,,,,,,,,,,,,,,,,,,,,,,,,,,,,,,,,,,,,,,,,,,,,,,,,,,,,,,,,,,,,,,1.1464,486.3308294999997,None,None,1,486.3308294999997,None,,P023,fencog,1,Post,2022_Feb_16_1209,N-Back (New Version 2021),2021.1.4,119.92032493627532,
,,,,Conditions/Version_1/oneback(1)_v1.xlsx,New rule: Press 'space' when you see 1-back (i.e. the same letter as the one that appeared 1 letter ago.),P,None,,,,,,,,,0,1,1,1,0,6,6,6,,,,,,,,,,,,,,,,,,,,,,,,,,,,,,,,,,,,,,,,,,,,,,,,,,,,,,,,,,,,,,,,,,,,,1.227,489.56302679999953,None,None,1,489.56302679999953,None,,P023,fencog,1,Post,2022_Feb_16_1209,N-Back (New Version 2021),2021.1.4,119.92032493627532,
,,,,Conditions/Version_1/oneback(1)_v1.xlsx,New rule: Press 'space' when you see 1-back (i.e. the same letter as the one that appeared 1 letter ago.),o,None,,,,,,,,,0,1,1,1,0,7,7,7,,,,,,,,,,,,,,,,,,,,,,,,,,,,,,,,,,,,,,,,,,,,,,,,,,,,,,,,,,,,,,,,,,,,,1.4874,493.0536929,None,None,1,493.0536929,None,,P023,fencog,1,Post,2022_Feb_16_1209,N-Back (New Version 2021),2021.1.4,119.92032493627532,
,,,,Conditions/Version_1/oneback(1)_v1.xlsx,New rule: Press 'space' when you see 1-back (i.e. the same letter as the one that appeared 1 letter ago.),f,None,,,,,,,,,0,1,1,1,0,8,8,8,,,,,,,,,,,,,,,,,,,,,,,,,,,,,,,,,,,,,,,,,,,,,,,,,,,,,,,,,,,,,,,,,,,,,1.661,496.7211112999994,None,None,1,496.7211112999994,None,,P023,fencog,1,Post,2022_Feb_16_1209,N-Back (New Version 2021),2021.1.4,119.92032493627532,
,,,,Conditions/Version_1/oneback(1)_v1.xlsx,New rule: Press 'space' when you see 1-back (i.e. the same letter as the one that appeared 1 letter ago.),F,space,,,,,,,,,0,1,1,1,0,9,9,9,,,,,,,,,,,,,,,,,,,,,,,,,,,,,,,,,,,,,,,,,,,,,,,,,,,,,,,,,,,,,,,,,,,,,1.3758,500.1034582000002,None,space,1,500.1034582000002,None,0.35485979999975825,P023,fencog,1,Post,2022_Feb_16_1209,N-Back (New Version 2021),2021.1.4,119.92032493627532,
,,,,Conditions/Version_1/oneback(1)_v1.xlsx,New rule: Press 'space' when you see 1-back (i.e. the same letter as the one that appeared 1 letter ago.),,,,,,,,,,,0,1,1,1,,,,,,,,,,,,,,,,,,,,,,,,,,,,,,,,,,,,,,,,,,,,,,,,,,,,,,,,,,,,,,,,,,,,,,,,,,,,,,,,,P023,fencog,1,Post,2022_Feb_16_1209,N-Back (New Version 2021),2021.1.4,119.92032493627532,
,,,,Conditions/Version_1/twoback(1)_v1.xlsx,New rule: Press 'space' when you see 2-back (i.e. the same letter as the one that appeared 2 letters ago.),b,None,,,,,,,,,0,2,2,2,0,0,0,0,,,,,,,,,,,,,,,,,,,,,,,,,,,,,,,,,,,,,,,,,,,,,,,,,,,,,,,,,,,502.1320157,None,505.1315188999997,None,space,3.7386444000003394,505.1315188999997,None,502.1320157,None,1.9338,510.8322386,None,None,1,510.8322386,None,,P023,fencog,1,Post,2022_Feb_16_1209,N-Back (New Version 2021),2021.1.4,119.92032493627532,
,,,,Conditions/Version_1/twoback(1)_v1.xlsx,New rule: Press 'space' when you see 2-back (i.e. the same letter as the one that appeared 2 letters ago.),h,None,,,,,,,,,0,2,2,2,0,1,1,1,,,,,,,,,,,,,,,,,,,,,,,,,,,,,,,,,,,,,,,,,,,,,,,,,,,,,,,,,,,,,,,,,,,,,1.134,513.9740250999994,None,None,1,513.9740250999994,None,,P023,fencog,1,Post,2022_Feb_16_1209,N-Back (New Version 2021),2021.1.4,119.92032493627532,
,,,,Conditions/Version_1/twoback(1)_v1.xlsx,New rule: Press 'space' when you see 2-back (i.e. the same letter as the one that appeared 2 letters ago.),j,None,,,,,,,,,0,2,2,2,0,2,2,2,,,,,,,,,,,,,,,,,,,,,,,,,,,,,,,,,,,,,,,,,,,,,,,,,,,,,,,,,,,,,,,,,,,,,1.9648,517.9538278,None,None,1,517.9538278,None,,P023,fencog,1,Post,2022_Feb_16_1209,N-Back (New Version 2021),2021.1.4,119.92032493627532,
,,,,Conditions/Version_1/twoback(1)_v1.xlsx,New rule: Press 'space' when you see 2-back (i.e. the same letter as the one that appeared 2 letters ago.),H,space,,,,,,,,,0,2,2,2,0,3,3,3,,,,,,,,,,,,,,,,,,,,,,,,,,,,,,,,,,,,,,,,,,,,,,,,,,,,,,,,,,,,,,,,,,,,,1.8284,521.7898114999998,None,space,1,521.7898114999998,None,0.44941039999957866,P023,fencog,1,Post,2022_Feb_16_1209,N-Back (New Version 2021),2021.1.4,119.92032493627532,
,,,,Conditions/Version_1/twoback(1)_v1.xlsx,New rule: Press 'space' when you see 2-back (i.e. the same letter as the one that appeared 2 letters ago.),p,None,,,,,,,,,0,2,2,2,0,4,4,4,,,,,,,,,,,,,,,,,,,,,,,,,,,,,,,,,,,,,,,,,,,,,,,,,,,,,,,,,,,,,,,,,,,,,1.041,524.8372380000001,None,None,1,524.8372380000001,None,,P023,fencog,1,Post,2022_Feb_16_1209,N-Back (New Version 2021),2021.1.4,119.92032493627532,
,,,,Conditions/Version_1/twoback(1)_v1.xlsx,New rule: Press 'space' when you see 2-back (i.e. the same letter as the one that appeared 2 letters ago.),p,None,,,,,,,,,0,2,2,2,0,5,5,5,,,,,,,,,,,,,,,,,,,,,,,,,,,,,,,,,,,,,,,,,,,,,,,,,,,,,,,,,,,,,,,,,,,,,1.6424,528.4935600999997,None,None,1,528.4935600999997,None,,P023,fencog,1,Post,2022_Feb_16_1209,N-Back (New Version 2021),2021.1.4,119.92032493627532,
,,,,Conditions/Version_1/twoback(1)_v1.xlsx,New rule: Press 'space' when you see 2-back (i.e. the same letter as the one that appeared 2 letters ago.),w,None,,,,,,,,,0,2,2,2,0,6,6,6,,,,,,,,,,,,,,,,,,,,,,,,,,,,,,,,,,,,,,,,,,,,,,,,,,,,,,,,,,,,,,,,,,,,,1.227,531.7325126999995,None,None,1,531.7325126999995,None,,P023,fencog,1,Post,2022_Feb_16_1209,N-Back (New Version 2021),2021.1.4,119.92032493627532,
,,,,Conditions/Version_1/twoback(1)_v1.xlsx,New rule: Press 'space' when you see 2-back (i.e. the same letter as the one that appeared 2 letters ago.),R,None,,,,,,,,,0,2,2,2,0,7,7,7,,,,,,,,,,,,,,,,,,,,,,,,,,,,,,,,,,,,,,,,,,,,,,,,,,,,,,,,,,,,,,,,,,,,,1.413,535.1502994000002,None,None,1,535.1502994000002,None,,P023,fencog,1,Post,2022_Feb_16_1209,N-Back (New Version 2021),2021.1.4,119.92032493627532,
,,,,Conditions/Version_1/twoback(1)_v1.xlsx,New rule: Press 'space' when you see 2-back (i.e. the same letter as the one that appeared 2 letters ago.),a,None,,,,,,,,,0,2,2,2,0,8,8,8,,,,,,,,,,,,,,,,,,,,,,,,,,,,,,,,,,,,,,,,,,,,,,,,,,,,,,,,,,,,,,,,,,,,,1.506,538.6653022,None,None,1,538.6653022,None,,P023,fencog,1,Post,2022_Feb_16_1209,N-Back (New Version 2021),2021.1.4,119.92032493627532,
,,,,Conditions/Version_1/twoback(1)_v1.xlsx,New rule: Press 'space' when you see 2-back (i.e. the same letter as the one that appeared 2 letters ago.),r,space,,,,,,,,,0,2,2,2,0,9,9,9,,,,,,,,,,,,,,,,,,,,,,,,,,,,,,,,,,,,,,,,,,,,,,,,,,,,,,,,,,,,,,,,,,,,,1.5866,542.2568322999996,None,space,1,542.2568322999996,None,0.6001029999997627,P023,fencog,1,Post,2022_Feb_16_1209,N-Back (New Version 2021),2021.1.4,119.92032493627532,
,,,,Conditions/Version_1/twoback(1)_v1.xlsx,New rule: Press 'space' when you see 2-back (i.e. the same letter as the one that appeared 2 letters ago.),,,,,,,,,,,0,2,2,2,,,,,,,,,,,,,,,,,,,,,,,,,,,,,,,,,,,,,,,,,,,,,,,,,,,,,,,,,,,,,,,,,,,,,,,,,,,,,,,,,P023,fencog,1,Post,2022_Feb_16_1209,N-Back (New Version 2021),2021.1.4,119.92032493627532,
,,,,Conditions/Version_1/threeback(1)_v1.xlsx,New rule: Press 'space' when you see 3-back (i.e. the same letter as the one that appeared 3 letters ago.),r,None,,,,,,,,,0,3,3,3,0,0,0,0,,,,,,,,,,,,,,,,,,,,,,,,,,,,,,,,,,,,,,,,,,,,,,,,,,,,,,,,,,,544.2995559000001,None,547.2813649999998,None,space,6.068562899999961,547.2813649999998,None,544.2995559000001,None,1.0968,554.4772751999999,None,None,1,554.4772751999999,None,,P023,fencog,1,Post,2022_Feb_16_1209,N-Back (New Version 2021),2021.1.4,119.92032493627532,
,,,,Conditions/Version_1/threeback(1)_v1.xlsx,New rule: Press 'space' when you see 3-back (i.e. the same letter as the one that appeared 3 letters ago.),o,None,,,,,,,,,0,3,3,3,0,1,1,1,,,,,,,,,,,,,,,,,,,,,,,,,,,,,,,,,,,,,,,,,,,,,,,,,,,,,,,,,,,,,,,,,,,,,1.9214,558.4095772999999,None,None,1,558.4095772999999,None,,P023,fencog,1,Post,2022_Feb_16_1209,N-Back (New Version 2021),2021.1.4,119.92032493627532,
,,,,Conditions/Version_1/threeback(1)_v1.xlsx,New rule: Press 'space' when you see 3-back (i.e. the same letter as the one that appeared 3 letters ago.),P,None,,,,,,,,,0,3,3,3,0,2,2,2,,,,,,,,,,,,,,,,,,,,,,,,,,,,,,,,,,,,,,,,,,,,,,,,,,,,,,,,,,,,,,,,,,,,,1.7354,562.1527331999996,None,None,1,562.1527331999996,None,,P023,fencog,1,Post,2022_Feb_16_1209,N-Back (New Version 2021),2021.1.4,119.92032493627532,
,,,,Conditions/Version_1/threeback(1)_v1.xlsx,New rule: Press 'space' when you see 3-back (i.e. the same letter as the one that appeared 3 letters ago.),R,space,,,,,,,,,0,3,3,3,0,3,3,3,,,,,,,,,,,,,,,,,,,,,,,,,,,,,,,,,,,,,,,,,,,,,,,,,,,,,,,,,,,,,,,,,,,,,1.7168,565.8740547999996,None,space,1,565.8740547999996,None,0.5960828000006586,P023,fencog,1,Post,2022_Feb_16_1209,N-Back (New Version 2021),2021.1.4,119.92032493627532,
,,,,Conditions/Version_1/threeback(1)_v1.xlsx,New rule: Press 'space' when you see 3-back (i.e. the same letter as the one that appeared 3 letters ago.),p,None,,,,,,,,,0,3,3,3,0,4,4,4,,,,,,,,,,,,,,,,,,,,,,,,,,,,,,,,,,,,,,,,,,,,,,,,,,,,,,,,,,,,,,,,,,,,,1.8532,569.7312038999999,None,None,1,569.7312038999999,None,,P023,fencog,1,Post,2022_Feb_16_1209,N-Back (New Version 2021),2021.1.4,119.92032493627532,
,,,,Conditions/Version_1/threeback(1)_v1.xlsx,New rule: Press 'space' when you see 3-back (i.e. the same letter as the one that appeared 3 letters ago.),E,None,,,,,,,,,0,3,3,3,0,5,5,5,,,,,,,,,,,,,,,,,,,,,,,,,,,,,,,,,,,,,,,,,,,,,,,,,,,,,,,,,,,,,,,,,,,,,1.5432,573.2802256999994,None,None,1,573.2802256999994,None,,P023,fencog,1,Post,2022_Feb_16_1209,N-Back (New Version 2021),2021.1.4,119.92032493627532,
,,,,Conditions/Version_1/threeback(1)_v1.xlsx,New rule: Press 'space' when you see 3-back (i.e. the same letter as the one that appeared 3 letters ago.),e,None,,,,,,,,,0,3,3,3,0,6,6,6,,,,,,,,,,,,,,,,,,,,,,,,,,,,,,,,,,,,,,,,,,,,,,,,,,,,,,,,,,,,,,,,,,,,,1.4874,576.7764164999999,None,None,1,576.7764164999999,None,,P023,fencog,1,Post,2022_Feb_16_1209,N-Back (New Version 2021),2021.1.4,119.92032493627532,
,,,,Conditions/Version_1/threeback(1)_v1.xlsx,New rule: Press 'space' when you see 3-back (i.e. the same letter as the one that appeared 3 letters ago.),m,None,,,,,,,,,0,3,3,3,0,7,7,7,,,,,,,,,,,,,,,,,,,,,,,,,,,,,,,,,,,,,,,,,,,,,,,,,,,,,,,,,,,,,,,,,,,,,1.3262,580.1136999999999,None,None,1,580.1136999999999,None,,P023,fencog,1,Post,2022_Feb_16_1209,N-Back (New Version 2021),2021.1.4,119.92032493627532,
,,,,Conditions/Version_1/threeback(1)_v1.xlsx,New rule: Press 'space' when you see 3-back (i.e. the same letter as the one that appeared 3 letters ago.),n,None,,,,,,,,,0,3,3,3,0,8,8,8,,,,,,,,,,,,,,,,,,,,,,,,,,,,,,,,,,,,,,,,,,,,,,,,,,,,,,,,,,,,,,,,,,,,,1.2704,583.3940013000001,None,None,1,583.3940013000001,None,,P023,fencog,1,Post,2022_Feb_16_1209,N-Back (New Version 2021),2021.1.4,119.92032493627532,
,,,,Conditions/Version_1/threeback(1)_v1.xlsx,New rule: Press 'space' when you see 3-back (i.e. the same letter as the one that appeared 3 letters ago.),e,space,,,,,,,,,0,3,3,3,0,9,9,9,,,,,,,,,,,,,,,,,,,,,,,,,,,,,,,,,,,,,,,,,,,,,,,,,,,,,,,,,,,,,,,,,,,,,1.3448,586.7427871,None,space,1,586.7427871,None,0.3471758999994563,P023,fencog,1,Post,2022_Feb_16_1209,N-Back (New Version 2021),2021.1.4,119.92032493627532,
,,,,Conditions/Version_1/threeback(1)_v1.xlsx,New rule: Press 'space' when you see 3-back (i.e. the same letter as the one that appeared 3 letters ago.),,,,,,,,,,,0,3,3,3,,,,,,,,,,,,,,,,,,,,,,,,,,,,,,,,,,,,,,,,,,,,,,,,,,,,,,,,,,,,,,,,,,,,,,,,,,,,,,,,,P023,fencog,1,Post,2022_Feb_16_1209,N-Back (New Version 2021),2021.1.4,119.92032493627532,
,,,,Conditions/Version_1/oneback(2)_v1.xlsx,New rule: Press 'space' when you see 1-back (i.e. the same letter as the one that appeared 1 letter ago.),q,None,,,,,,,,,0,4,4,4,0,0,0,0,,,,,,,,,,,,,,,,,,,,,,,,,,,,,,,,,,,,,,,,,,,,,,,,,,,,,,,,,,,588.7874112999998,None,591.7689070999995,None,space,1.2416074000002482,591.7689070999995,None,588.7874112999998,None,1.9958,595.0319965999997,None,None,1,595.0319965999997,None,,P023,fencog,1,Post,2022_Feb_16_1209,N-Back (New Version 2021),2021.1.4,119.92032493627532,
,,,,Conditions/Version_1/oneback(2)_v1.xlsx,New rule: Press 'space' when you see 1-back (i.e. the same letter as the one that appeared 1 letter ago.),Q,space,,,,,,,,,0,4,4,4,0,1,1,1,,,,,,,,,,,,,,,,,,,,,,,,,,,,,,,,,,,,,,,,,,,,,,,,,,,,,,,,,,,,,,,,,,,,,1.0782,598.1159831999994,None,space,1,598.1159831999994,None,0.4432699999997567,P023,fencog,1,Post,2022_Feb_16_1209,N-Back (New Version 2021),2021.1.4,119.92032493627532,
,,,,Conditions/Version_1/oneback(2)_v1.xlsx,New rule: Press 'space' when you see 1-back (i.e. the same letter as the one that appeared 1 letter ago.),P,None,,,,,,,,,0,4,4,4,0,2,2,2,,,,,,,,,,,,,,,,,,,,,,,,,,,,,,,,,,,,,,,,,,,,,,,,,,,,,,,,,,,,,,,,,,,,,1.289,601.4200228999998,None,None,1,601.4200228999998,None,,P023,fencog,1,Post,2022_Feb_16_1209,N-Back (New Version 2021),2021.1.4,119.92032493627532,
,,,,Conditions/Version_1/oneback(2)_v1.xlsx,New rule: Press 'space' when you see 1-back (i.e. the same letter as the one that appeared 1 letter ago.),o,None,,,,,,,,,0,4,4,4,0,3,3,3,,,,,,,,,,,,,,,,,,,,,,,,,,,,,,,,,,,,,,,,,,,,,,,,,,,,,,,,,,,,,,,,,,,,,1.0968,604.5213457999998,None,None,1,604.5213457999998,None,,P023,fencog,1,Post,2022_Feb_16_1209,N-Back (New Version 2021),2021.1.4,119.92032493627532,
,,,,Conditions/Version_1/oneback(2)_v1.xlsx,New rule: Press 'space' when you see 1-back (i.e. the same letter as the one that appeared 1 letter ago.),m,None,,,,,,,,,0,4,4,4,0,4,4,4,,,,,,,,,,,,,,,,,,,,,,,,,,,,,,,,,,,,,,,,,,,,,,,,,,,,,,,,,,,,,,,,,,,,,1.7416,608.2614708000001,None,None,1,608.2614708000001,None,,P023,fencog,1,Post,2022_Feb_16_1209,N-Back (New Version 2021),2021.1.4,119.92032493627532,
,,,,Conditions/Version_1/oneback(2)_v1.xlsx,New rule: Press 'space' when you see 1-back (i.e. the same letter as the one that appeared 1 letter ago.),Z,None,,,,,,,,,0,4,4,4,0,5,5,5,,,,,,,,,,,,,,,,,,,,,,,,,,,,,,,,,,,,,,,,,,,,,,,,,,,,,,,,,,,,,,,,,,,,,1.475,611.7362795999998,None,None,1,611.7362795999998,None,,P023,fencog,1,Post,2022_Feb_16_1209,N-Back (New Version 2021),2021.1.4,119.92032493627532,
,,,,Conditions/Version_1/oneback(2)_v1.xlsx,New rule: Press 'space' when you see 1-back (i.e. the same letter as the one that appeared 1 letter ago.),c,None,,,,,,,,,0,4,4,4,0,6,6,6,,,,,,,,,,,,,,,,,,,,,,,,,,,,,,,,,,,,,,,,,,,,,,,,,,,,,,,,,,,,,,,,,,,,,1.4998,615.2436938999999,None,None,1,615.2436938999999,None,,P023,fencog,1,Post,2022_Feb_16_1209,N-Back (New Version 2021),2021.1.4,119.92032493627532,
,,,,Conditions/Version_1/oneback(2)_v1.xlsx,New rule: Press 'space' when you see 1-back (i.e. the same letter as the one that appeared 1 letter ago.),c,space,,,,,,,,,0,4,4,4,0,7,7,7,,,,,,,,,,,,,,,,,,,,,,,,,,,,,,,,,,,,,,,,,,,,,,,,,,,,,,,,,,,,,,,,,,,,,1.3944,618.6502817,None,space,1,618.6502817,None,0.6668492000007973,P023,fencog,1,Post,2022_Feb_16_1209,N-Back (New Version 2021),2021.1.4,119.92032493627532,
,,,,Conditions/Version_1/oneback(2)_v1.xlsx,New rule: Press 'space' when you see 1-back (i.e. the same letter as the one that appeared 1 letter ago.),P,None,,,,,,,,,0,4,4,4,0,8,8,8,,,,,,,,,,,,,,,,,,,,,,,,,,,,,,,,,,,,,,,,,,,,,,,,,,,,,,,,,,,,,,,,,,,,,1.1464,621.8029556000001,None,None,1,621.8029556000001,None,,P023,fencog,1,Post,2022_Feb_16_1209,N-Back (New Version 2021),2021.1.4,119.92032493627532,
,,,,Conditions/Version_1/oneback(2)_v1.xlsx,New rule: Press 'space' when you see 1-back (i.e. the same letter as the one that appeared 1 letter ago.),p,space,,,,,,,,,0,4,4,4,0,9,9,9,,,,,,,,,,,,,,,,,,,,,,,,,,,,,,,,,,,,,,,,,,,,,,,,,,,,,,,,,,,,,,,,,,,,,1.816,625.6311329,None,space,1,625.6311329,None,0.3295529999995779,P023,fencog,1,Post,2022_Feb_16_1209,N-Back (New Version 2021),2021.1.4,119.92032493627532,
,,,,Conditions/Version_1/oneback(2)_v1.xlsx,New rule: Press 'space' when you see 1-back (i.e. the same letter as the one that appeared 1 letter ago.),,,,,,,,,,,0,4,4,4,,,,,,,,,,,,,,,,,,,,,,,,,,,,,,,,,,,,,,,,,,,,,,,,,,,,,,,,,,,,,,,,,,,,,,,,,,,,,,,,,P023,fencog,1,Post,2022_Feb_16_1209,N-Back (New Version 2021),2021.1.4,119.92032493627532,
,,,,Conditions/Version_1/zeroback(2)_v1.xlsx,New rule: Press 'space' when you see the letter 'x' or 'X'.,p,None,,,,,,,,,0,5,5,5,0,0,0,0,,,,,,,,,,,,,,,,,,,,,,,,,,,,,,,,,,,,,,,,,,,,,,,,,,,,,,,,,,,627.6669879000001,None,630.6488025999997,None,space,0.6182567999994717,630.6488025999997,None,627.6669879000001,None,1.9896,633.2885864999998,None,None,1,633.2885864999998,None,,P023,fencog,1,Post,2022_Feb_16_1209,N-Back (New Version 2021),2021.1.4,119.92032493627532,
,,,,Conditions/Version_1/zeroback(2)_v1.xlsx,New rule: Press 'space' when you see the letter 'x' or 'X'.,L,None,,,,,,,,,0,5,5,5,0,1,1,1,,,,,,,,,,,,,,,,,,,,,,,,,,,,,,,,,,,,,,,,,,,,,,,,,,,,,,,,,,,,,,,,,,,,,1.9338,637.2426878999995,None,None,1,637.2426878999995,None,,P023,fencog,1,Post,2022_Feb_16_1209,N-Back (New Version 2021),2021.1.4,119.92032493627532,
,,,,Conditions/Version_1/zeroback(2)_v1.xlsx,New rule: Press 'space' when you see the letter 'x' or 'X'.,G,None,,,,,,,,,0,5,5,5,0,2,2,2,,,,,,,,,,,,,,,,,,,,,,,,,,,,,,,,,,,,,,,,,,,,,,,,,,,,,,,,,,,,,,,,,,,,,1.5928,640.8475134,None,None,1,640.8475134,None,,P023,fencog,1,Post,2022_Feb_16_1209,N-Back (New Version 2021),2021.1.4,119.92032493627532,
,,,,Conditions/Version_1/zeroback(2)_v1.xlsx,New rule: Press 'space' when you see the letter 'x' or 'X'.,y,None,,,,,,,,,0,5,5,5,0,3,3,3,,,,,,,,,,,,,,,,,,,,,,,,,,,,,,,,,,,,,,,,,,,,,,,,,,,,,,,,,,,,,,,,,,,,,1.0224,643.8786728999994,None,None,1,643.8786728999994,None,,P023,fencog,1,Post,2022_Feb_16_1209,N-Back (New Version 2021),2021.1.4,119.92032493627532,
,,,,Conditions/Version_1/zeroback(2)_v1.xlsx,New rule: Press 'space' when you see the letter 'x' or 'X'.,Y,None,,,,,,,,,0,5,5,5,0,4,4,4,,,,,,,,,,,,,,,,,,,,,,,,,,,,,,,,,,,,,,,,,,,,,,,,,,,,,,,,,,,,,,,,,,,,,1.7478,647.6332197000002,None,None,1,647.6332197000002,None,,P023,fencog,1,Post,2022_Feb_16_1209,N-Back (New Version 2021),2021.1.4,119.92032493627532,
,,,,Conditions/Version_1/zeroback(2)_v1.xlsx,New rule: Press 'space' when you see the letter 'x' or 'X'.,W,None,,,,,,,,,0,5,5,5,0,5,5,5,,,,,,,,,,,,,,,,,,,,,,,,,,,,,,,,,,,,,,,,,,,,,,,,,,,,,,,,,,,,,,,,,,,,,1.5804,651.2159823000002,None,None,1,651.2159823000002,None,,P023,fencog,1,Post,2022_Feb_16_1209,N-Back (New Version 2021),2021.1.4,119.92032493627532,
,,,,Conditions/Version_1/zeroback(2)_v1.xlsx,New rule: Press 'space' when you see the letter 'x' or 'X'.,x,space,,,,,,,,,0,5,5,5,0,6,6,6,,,,,,,,,,,,,,,,,,,,,,,,,,,,,,,,,,,,,,,,,,,,,,,,,,,,,,,,,,,,,,,,,,,,,1.3758,654.5989448999999,None,space,1,654.5989448999999,None,0.31423029999950813,P023,fencog,1,Post,2022_Feb_16_1209,N-Back (New Version 2021),2021.1.4,119.92032493627532,
,,,,Conditions/Version_1/zeroback(2)_v1.xlsx,New rule: Press 'space' when you see the letter 'x' or 'X'.,X,space,,,,,,,,,0,5,5,5,0,7,7,7,,,,,,,,,,,,,,,,,,,,,,,,,,,,,,,,,,,,,,,,,,,,,,,,,,,,,,,,,,,,,,,,,,,,,1.0782,657.6898316999996,None,space,1,657.6898316999996,None,0.35113970000020345,P023,fencog,1,Post,2022_Feb_16_1209,N-Back (New Version 2021),2021.1.4,119.92032493627532,
,,,,Conditions/Version_1/zeroback(2)_v1.xlsx,New rule: Press 'space' when you see the letter 'x' or 'X'.,p,None,,,,,,,,,0,5,5,5,0,8,8,8,,,,,,,,,,,,,,,,,,,,,,,,,,,,,,,,,,,,,,,,,,,,,,,,,,,,,,,,,,,,,,,,,,,,,1.444,661.1461512999995,None,None,1,661.1461512999995,None,,P023,fencog,1,Post,2022_Feb_16_1209,N-Back (New Version 2021),2021.1.4,119.92032493627532,
,,,,Conditions/Version_1/zeroback(2)_v1.xlsx,New rule: Press 'space' when you see the letter 'x' or 'X'.,h,None,,,,,,,,,0,5,5,5,0,9,9,9,,,,,,,,,,,,,,,,,,,,,,,,,,,,,,,,,,,,,,,,,,,,,,,,,,,,,,,,,,,,,,,,,,,,,1.1464,664.2962032999994,None,None,1,664.2962032999994,None,,P023,fencog,1,Post,2022_Feb_16_1209,N-Back (New Version 2021),2021.1.4,119.92032493627532,
,,,,Conditions/Version_1/zeroback(2)_v1.xlsx,New rule: Press 'space' when you see the letter 'x' or 'X'.,,,,,,,,,,,0,5,5,5,,,,,,,,,,,,,,,,,,,,,,,,,,,,,,,,,,,,,,,,,,,,,,,,,,,,,,,,,,,,,,,,,,,,,,,,,,,,,,,,,P023,fencog,1,Post,2022_Feb_16_1209,N-Back (New Version 2021),2021.1.4,119.92032493627532,
,,,,Conditions/Version_1/threeback(2)_v1.xlsx,New rule: Press 'space' when you see 3-back (i.e. the same letter as the one that appeared 3 letters ago.),q,None,,,,,,,,,0,6,6,6,0,0,0,0,,,,,,,,,,,,,,,,,,,,,,,,,,,,,,,,,,,,,,,,,,,,,,,,,,,,,,,,,,,666.3242780999999,None,669.3125485,None,space,12.113431599999785,669.3125485,None,666.3242780999999,None,1.3138,682.7645334999997,None,None,1,682.7645334999997,None,,P023,fencog,1,Post,2022_Feb_16_1209,N-Back (New Version 2021),2021.1.4,119.92032493627532,
,,,,Conditions/Version_1/threeback(2)_v1.xlsx,New rule: Press 'space' when you see 3-back (i.e. the same letter as the one that appeared 3 letters ago.),Y,None,,,,,,,,,0,6,6,6,0,1,1,1,,,,,,,,,,,,,,,,,,,,,,,,,,,,,,,,,,,,,,,,,,,,,,,,,,,,,,,,,,,,,,,,,,,,,1.2208,685.9885705999995,None,None,1,685.9885705999995,None,,P023,fencog,1,Post,2022_Feb_16_1209,N-Back (New Version 2021),2021.1.4,119.92032493627532,
,,,,Conditions/Version_1/threeback(2)_v1.xlsx,New rule: Press 'space' when you see 3-back (i.e. the same letter as the one that appeared 3 letters ago.),p,None,,,,,,,,,0,6,6,6,0,2,2,2,,,,,,,,,,,,,,,,,,,,,,,,,,,,,,,,,,,,,,,,,,,,,,,,,,,,,,,,,,,,,,,,,,,,,1.1092,689.1068421,None,None,1,689.1068421,None,,P023,fencog,1,Post,2022_Feb_16_1209,N-Back (New Version 2021),2021.1.4,119.92032493627532,
,,,,Conditions/Version_1/threeback(2)_v1.xlsx,New rule: Press 'space' when you see 3-back (i.e. the same letter as the one that appeared 3 letters ago.),p,None,,,,,,,,,0,6,6,6,0,3,3,3,,,,,,,,,,,,,,,,,,,,,,,,,,,,,,,,,,,,,,,,,,,,,,,,,,,,,,,,,,,,,,,,,,,,,1.5432,692.6533244000002,None,None,1,692.6533244000002,None,,P023,fencog,1,Post,2022_Feb_16_1209,N-Back (New Version 2021),2021.1.4,119.92032493627532,
,,,,Conditions/Version_1/threeback(2)_v1.xlsx,New rule: Press 'space' when you see 3-back (i.e. the same letter as the one that appeared 3 letters ago.),y,space,,,,,,,,,0,6,6,6,0,4,4,4,,,,,,,,,,,,,,,,,,,,,,,,,,,,,,,,,,,,,,,,,,,,,,,,,,,,,,,,,,,,,,,,,,,,,1.9648,696.6240527,None,space,1,696.6240527,None,0.4474017000002277,P023,fencog,1,Post,2022_Feb_16_1209,N-Back (New Version 2021),2021.1.4,119.92032493627532,
,,,,Conditions/Version_1/threeback(2)_v1.xlsx,New rule: Press 'space' when you see 3-back (i.e. the same letter as the one that appeared 3 letters ago.),u,None,,,,,,,,,0,6,6,6,0,5,5,5,,,,,,,,,,,,,,,,,,,,,,,,,,,,,,,,,,,,,,,,,,,,,,,,,,,,,,,,,,,,,,,,,,,,,1.661,700.3005409999996,None,None,1,700.3005409999996,None,,P023,fencog,1,Post,2022_Feb_16_1209,N-Back (New Version 2021),2021.1.4,119.92032493627532,
,,,,Conditions/Version_1/threeback(2)_v1.xlsx,New rule: Press 'space' when you see 3-back (i.e. the same letter as the one that appeared 3 letters ago.),P,space,,,,,,,,,0,6,6,6,0,6,6,6,,,,,,,,,,,,,,,,,,,,,,,,,,,,,,,,,,,,,,,,,,,,,,,,,,,,,,,,,,,,,,,,,,,,,1.2704,703.5752018000003,None,space,1,703.5752018000003,None,0.4954261000002589,P023,fencog,1,Post,2022_Feb_16_1209,N-Back (New Version 2021),2021.1.4,119.92032493627532,
,,,,Conditions/Version_1/threeback(2)_v1.xlsx,New rule: Press 'space' when you see 3-back (i.e. the same letter as the one that appeared 3 letters ago.),a,None,,,,,,,,,0,6,6,6,0,7,7,7,,,,,,,,,,,,,,,,,,,,,,,,,,,,,,,,,,,,,,,,,,,,,,,,,,,,,,,,,,,,,,,,,,,,,1.4502,707.0276028999997,None,None,1,707.0276028999997,None,,P023,fencog,1,Post,2022_Feb_16_1209,N-Back (New Version 2021),2021.1.4,119.92032493627532,
,,,,Conditions/Version_1/threeback(2)_v1.xlsx,New rule: Press 'space' when you see 3-back (i.e. the same letter as the one that appeared 3 letters ago.),U,space,,,,,,,,,0,6,6,6,0,8,8,8,,,,,,,,,,,,,,,,,,,,,,,,,,,,,,,,,,,,,,,,,,,,,,,,,,,,,,,,,,,,,,,,,,,,,1.5122,710.5497790999998,None,space,1,710.5497790999998,None,0.3807772999998633,P023,fencog,1,Post,2022_Feb_16_1209,N-Back (New Version 2021),2021.1.4,119.92032493627532,
,,,,Conditions/Version_1/threeback(2)_v1.xlsx,New rule: Press 'space' when you see 3-back (i.e. the same letter as the one that appeared 3 letters ago.),q,None,,,,,,,,,0,6,6,6,0,9,9,9,,,,,,,,,,,,,,,,,,,,,,,,,,,,,,,,,,,,,,,,,,,,,,,,,,,,,,,,,,,,,,,,,,,,,1.2394,713.7970740999999,None,None,1,713.7970740999999,None,,P023,fencog,1,Post,2022_Feb_16_1209,N-Back (New Version 2021),2021.1.4,119.92032493627532,
,,,,Conditions/Version_1/threeback(2)_v1.xlsx,New rule: Press 'space' when you see 3-back (i.e. the same letter as the one that appeared 3 letters ago.),,,,,,,,,,,0,6,6,6,,,,,,,,,,,,,,,,,,,,,,,,,,,,,,,,,,,,,,,,,,,,,,,,,,,,,,,,,,,,,,,,,,,,,,,,,,,,,,,,,P023,fencog,1,Post,2022_Feb_16_1209,N-Back (New Version 2021),2021.1.4,119.92032493627532,
,,,,Conditions/Version_1/twoback(2)_v1.xlsx,New rule: Press 'space' when you see 2-back (i.e. the same letter as the one that appeared 2 letters ago.),q,None,,,,,,,,,0,7,7,7,0,0,0,0,,,,,,,,,,,,,,,,,,,,,,,,,,,,,,,,,,,,,,,,,,,,,,,,,,,,,,,,,,,715.8216528000003,None,718.7979808999999,None,space,0.8479847999997219,718.7979808999999,None,715.8216528000003,None,1.258,720.9285203,None,None,1,720.9285203,None,,P023,fencog,1,Post,2022_Feb_16_1209,N-Back (New Version 2021),2021.1.4,119.92032493627532,
,,,,Conditions/Version_1/twoback(2)_v1.xlsx,New rule: Press 'space' when you see 2-back (i.e. the same letter as the one that appeared 2 letters ago.),r,None,,,,,,,,,0,7,7,7,0,1,1,1,,,,,,,,,,,,,,,,,,,,,,,,,,,,,,,,,,,,,,,,,,,,,,,,,,,,,,,,,,,,,,,,,,,,,1.103,724.0390803999999,None,None,1,724.0390803999999,None,,P023,fencog,1,Post,2022_Feb_16_1209,N-Back (New Version 2021),2021.1.4,119.92032493627532,
,,,,Conditions/Version_1/twoback(2)_v1.xlsx,New rule: Press 'space' when you see 2-back (i.e. the same letter as the one that appeared 2 letters ago.),q,space,,,,,,,,,0,7,7,7,0,2,2,2,,,,,,,,,,,,,,,,,,,,,,,,,,,,,,,,,,,,,,,,,,,,,,,,,,,,,,,,,,,,,,,,,,,,,1.1464,727.1984506999997,None,space,1,727.1984506999997,None,0.3970349000001079,P023,fencog,1,Post,2022_Feb_16_1209,N-Back (New Version 2021),2021.1.4,119.92032493627532,
,,,,Conditions/Version_1/twoback(2)_v1.xlsx,New rule: Press 'space' when you see 2-back (i.e. the same letter as the one that appeared 2 letters ago.),P,None,,,,,,,,,0,7,7,7,0,3,3,3,,,,,,,,,,,,,,,,,,,,,,,,,,,,,,,,,,,,,,,,,,,,,,,,,,,,,,,,,,,,,,,,,,,,,1.7912,730.9932125999994,None,None,1,730.9932125999994,None,,P023,fencog,1,Post,2022_Feb_16_1209,N-Back (New Version 2021),2021.1.4,119.92032493627532,
,,,,Conditions/Version_1/twoback(2)_v1.xlsx,New rule: Press 'space' when you see 2-back (i.e. the same letter as the one that appeared 2 letters ago.),p,None,,,,,,,,,0,7,7,7,0,4,4,4,,,,,,,,,,,,,,,,,,,,,,,,,,,,,,,,,,,,,,,,,,,,,,,,,,,,,,,,,,,,,,,,,,,,,1.5184,734.5243770999996,None,None,1,734.5243770999996,None,,P023,fencog,1,Post,2022_Feb_16_1209,N-Back (New Version 2021),2021.1.4,119.92032493627532,
,,,,Conditions/Version_1/twoback(2)_v1.xlsx,New rule: Press 'space' when you see 2-back (i.e. the same letter as the one that appeared 2 letters ago.),H,None,,,,,,,,,0,7,7,7,0,5,5,5,,,,,,,,,,,,,,,,,,,,,,,,,,,,,,,,,,,,,,,,,,,,,,,,,,,,,,,,,,,,,,,,,,,,,1.4998,738.0233035000001,None,None,1,738.0233035000001,None,,P023,fencog,1,Post,2022_Feb_16_1209,N-Back (New Version 2021),2021.1.4,119.92032493627532,
,,,,Conditions/Version_1/twoback(2)_v1.xlsx,New rule: Press 'space' when you see 2-back (i.e. the same letter as the one that appeared 2 letters ago.),g,None,,,,,,,,,0,7,7,7,0,6,6,6,,,,,,,,,,,,,,,,,,,,,,,,,,,,,,,,,,,,,,,,,,,,,,,,,,,,,,,,,,,,,,,,,,,,,1.971,742.0078554000002,None,None,1,742.0078554000002,None,,P023,fencog,1,Post,2022_Feb_16_1209,N-Back (New Version 2021),2021.1.4,119.92032493627532,
,,,,Conditions/Version_1/twoback(2)_v1.xlsx,New rule: Press 'space' when you see 2-back (i.e. the same letter as the one that appeared 2 letters ago.),j,None,,,,,,,,,0,7,7,7,0,7,7,7,,,,,,,,,,,,,,,,,,,,,,,,,,,,,,,,,,,,,,,,,,,,,,,,,,,,,,,,,,,,,,,,,,,,,1.5432,745.5627003999998,None,None,1,745.5627003999998,None,,P023,fencog,1,Post,2022_Feb_16_1209,N-Back (New Version 2021),2021.1.4,119.92032493627532,
,,,,Conditions/Version_1/twoback(2)_v1.xlsx,New rule: Press 'space' when you see 2-back (i.e. the same letter as the one that appeared 2 letters ago.),g,space,,,,,,,,,0,7,7,7,0,8,8,8,,,,,,,,,,,,,,,,,,,,,,,,,,,,,,,,,,,,,,,,,,,,,,,,,,,,,,,,,,,,,,,,,,,,,1.2456,748.8170555999995,None,space,1,748.8170555999995,None,1.4380672000006598,P023,fencog,1,Post,2022_Feb_16_1209,N-Back (New Version 2021),2021.1.4,119.92032493627532,
,,,,Conditions/Version_1/twoback(2)_v1.xlsx,New rule: Press 'space' when you see 2-back (i.e. the same letter as the one that appeared 2 letters ago.),G,None,,,,,,,,,0,7,7,7,0,9,9,9,,,,,,,,,,,,,,,,,,,,,,,,,,,,,,,,,,,,,,,,,,,,,,,,,,,,,,,,,,,,,,,,,,,,,1.8842,752.7145905999996,None,None,1,752.7145905999996,None,,P023,fencog,1,Post,2022_Feb_16_1209,N-Back (New Version 2021),2021.1.4,119.92032493627532,
,,,,Conditions/Version_1/twoback(2)_v1.xlsx,New rule: Press 'space' when you see 2-back (i.e. the same letter as the one that appeared 2 letters ago.),,,,,,,,,,,0,7,7,7,,,,,,,,,,,,,,,,,,,,,,,,,,,,,,,,,,,,,,,,,,,,,,,,,,,,,,,,,,,,,,,,,,,,,,,,,,,,,,,,,P023,fencog,1,Post,2022_Feb_16_1209,N-Back (New Version 2021),2021.1.4,119.92032493627532,
,,,,Conditions/Version_1/threeback(3)_v1.xlsx,New rule: Press 'space' when you see 3-back (i.e. the same letter as the one that appeared 3 letters ago.),w,None,,,,,,,,,0,8,8,8,0,0,0,0,,,,,,,,,,,,,,,,,,,,,,,,,,,,,,,,,,,,,,,,,,,,,,,,,,,,,,,,,,,754.7412464999998,None,757.7290452999996,None,space,2.1288586999999097,757.7290452999996,None,754.7412464999998,None,1.4378,761.3273672999994,None,None,1,761.3273672999994,None,,P023,fencog,1,Post,2022_Feb_16_1209,N-Back (New Version 2021),2021.1.4,119.92032493627532,
,,,,Conditions/Version_1/threeback(3)_v1.xlsx,New rule: Press 'space' when you see 3-back (i.e. the same letter as the one that appeared 3 letters ago.),p,None,,,,,,,,,0,8,8,8,0,1,1,1,,,,,,,,,,,,,,,,,,,,,,,,,,,,,,,,,,,,,,,,,,,,,,,,,,,,,,,,,,,,,,,,,,,,,1.9772,765.3180160000002,None,None,1,765.3180160000002,None,,P023,fencog,1,Post,2022_Feb_16_1209,N-Back (New Version 2021),2021.1.4,119.92032493627532,
,,,,Conditions/Version_1/threeback(3)_v1.xlsx,New rule: Press 'space' when you see 3-back (i.e. the same letter as the one that appeared 3 letters ago.),P,None,,,,,,,,,0,8,8,8,0,2,2,2,,,,,,,,,,,,,,,,,,,,,,,,,,,,,,,,,,,,,,,,,,,,,,,,,,,,,,,,,,,,,,,,,,,,,1.4316,768.7629664999995,None,None,1,768.7629664999995,None,,P023,fencog,1,Post,2022_Feb_16_1209,N-Back (New Version 2021),2021.1.4,119.92032493627532,
,,,,Conditions/Version_1/threeback(3)_v1.xlsx,New rule: Press 'space' when you see 3-back (i.e. the same letter as the one that appeared 3 letters ago.),i,None,,,,,,,,,0,8,8,8,0,3,3,3,,,,,,,,,,,,,,,,,,,,,,,,,,,,,,,,,,,,,,,,,,,,,,,,,,,,,,,,,,,,,,,,,,,,,1.599,772.3659484999998,None,None,1,772.3659484999998,None,,P023,fencog,1,Post,2022_Feb_16_1209,N-Back (New Version 2021),2021.1.4,119.92032493627532,
,,,,Conditions/Version_1/threeback(3)_v1.xlsx,New rule: Press 'space' when you see 3-back (i.e. the same letter as the one that appeared 3 letters ago.),f,None,,,,,,,,,0,8,8,8,0,4,4,4,,,,,,,,,,,,,,,,,,,,,,,,,,,,,,,,,,,,,,,,,,,,,,,,,,,,,,,,,,,,,,,,,,,,,1.1154,775.4872993999998,None,None,1,775.4872993999998,None,,P023,fencog,1,Post,2022_Feb_16_1209,N-Back (New Version 2021),2021.1.4,119.92032493627532,
,,,,Conditions/Version_1/threeback(3)_v1.xlsx,New rule: Press 'space' when you see 3-back (i.e. the same letter as the one that appeared 3 letters ago.),o,None,,,,,,,,,0,8,8,8,0,5,5,5,,,,,,,,,,,,,,,,,,,,,,,,,,,,,,,,,,,,,,,,,,,,,,,,,,,,,,,,,,,,,,,,,,,,,1.7354,779.22775,None,None,1,779.22775,None,,P023,fencog,1,Post,2022_Feb_16_1209,N-Back (New Version 2021),2021.1.4,119.92032493627532,
,,,,Conditions/Version_1/threeback(3)_v1.xlsx,New rule: Press 'space' when you see 3-back (i.e. the same letter as the one that appeared 3 letters ago.),w,None,,,,,,,,,0,8,8,8,0,6,6,6,,,,,,,,,,,,,,,,,,,,,,,,,,,,,,,,,,,,,,,,,,,,,,,,,,,,,,,,,,,,,,,,,,,,,1.2642,782.4971380999996,None,None,1,782.4971380999996,None,,P023,fencog,1,Post,2022_Feb_16_1209,N-Back (New Version 2021),2021.1.4,119.92032493627532,
,,,,Conditions/Version_1/threeback(3)_v1.xlsx,New rule: Press 'space' when you see 3-back (i.e. the same letter as the one that appeared 3 letters ago.),F,space,,,,,,,,,0,8,8,8,0,7,7,7,,,,,,,,,,,,,,,,,,,,,,,,,,,,,,,,,,,,,,,,,,,,,,,,,,,,,,,,,,,,,,,,,,,,,1.5742,786.0783602000001,None,space,1,786.0783602000001,None,0.5959837000000334,P023,fencog,1,Post,2022_Feb_16_1209,N-Back (New Version 2021),2021.1.4,119.92032493627532,
,,,,Conditions/Version_1/threeback(3)_v1.xlsx,New rule: Press 'space' when you see 3-back (i.e. the same letter as the one that appeared 3 letters ago.),p,None,,,,,,,,,0,8,8,8,0,8,8,8,,,,,,,,,,,,,,,,,,,,,,,,,,,,,,,,,,,,,,,,,,,,,,,,,,,,,,,,,,,,,,,,,,,,,1.9338,790.0182047999997,None,None,1,790.0182047999997,None,,P023,fencog,1,Post,2022_Feb_16_1209,N-Back (New Version 2021),2021.1.4,119.92032493627532,
,,,,Conditions/Version_1/threeback(3)_v1.xlsx,New rule: Press 'space' when you see 3-back (i.e. the same letter as the one that appeared 3 letters ago.),W,space,,,,,,,,,0,8,8,8,0,9,9,9,,,,,,,,,,,,,,,,,,,,,,,,,,,,,,,,,,,,,,,,,,,,,,,,,,,,,,,,,,,,,,,,,,,,,1.4874,793.5153039999996,None,space,1,793.5153039999996,None,0.39158969999971305,P023,fencog,1,Post,2022_Feb_16_1209,N-Back (New Version 2021),2021.1.4,119.92032493627532,
,,,,Conditions/Version_1/threeback(3)_v1.xlsx,New rule: Press 'space' when you see 3-back (i.e. the same letter as the one that appeared 3 letters ago.),,,,,,,,,,,0,8,8,8,,,,,,,,,,,,,,,,,,,,,,,,,,,,,,,,,,,,,,,,,,,,,,,,,,,,,,,,,,,,,,,,,,,,,,,,,,,,,,,,,P023,fencog,1,Post,2022_Feb_16_1209,N-Back (New Version 2021),2021.1.4,119.92032493627532,
,,,,Conditions/Version_1/zeroback(3)_v1.xlsx,New rule: Press 'space' when you see the letter 'x' or 'X'.,X,space,,,,,,,,,0,9,9,9,0,0,0,0,,,,,,,,,,,,,,,,,,,,,,,,,,,,,,,,,,,,,,,,,,,,,,,,,,,,,,,,,,,795.5372380999997,None,798.5244682000002,None,space,0.8162324000004446,798.5244682000002,None,795.5372380999997,None,1.5742,800.9381020000001,None,space,1,800.9381020000001,None,0.42973000000074535,P023,fencog,1,Post,2022_Feb_16_1209,N-Back (New Version 2021),2021.1.4,119.92032493627532,
,,,,Conditions/Version_1/zeroback(3)_v1.xlsx,New rule: Press 'space' when you see the letter 'x' or 'X'.,B,None,,,,,,,,,0,9,9,9,0,1,1,1,,,,,,,,,,,,,,,,,,,,,,,,,,,,,,,,,,,,,,,,,,,,,,,,,,,,,,,,,,,,,,,,,,,,,1.0658,804.0073078999994,None,None,1,804.0073078999994,None,,P023,fencog,1,Post,2022_Feb_16_1209,N-Back (New Version 2021),2021.1.4,119.92032493627532,
,,,,Conditions/Version_1/zeroback(3)_v1.xlsx,New rule: Press 'space' when you see the letter 'x' or 'X'.,m,None,,,,,,,,,0,9,9,9,0,2,2,2,,,,,,,,,,,,,,,,,,,,,,,,,,,,,,,,,,,,,,,,,,,,,,,,,,,,,,,,,,,,,,,,,,,,,1.9586,807.9721144999994,None,None,1,807.9721144999994,None,,P023,fencog,1,Post,2022_Feb_16_1209,N-Back (New Version 2021),2021.1.4,119.92032493627532,
,,,,Conditions/Version_1/zeroback(3)_v1.xlsx,New rule: Press 'space' when you see the letter 'x' or 'X'.,m,None,,,,,,,,,0,9,9,9,0,3,3,3,,,,,,,,,,,,,,,,,,,,,,,,,,,,,,,,,,,,,,,,,,,,,,,,,,,,,,,,,,,,,,,,,,,,,1.878,811.8516517999997,None,None,1,811.8516517999997,None,,P023,fencog,1,Post,2022_Feb_16_1209,N-Back (New Version 2021),2021.1.4,119.92032493627532,
,,,,Conditions/Version_1/zeroback(3)_v1.xlsx,New rule: Press 'space' when you see the letter 'x' or 'X'.,o,None,,,,,,,,,0,9,9,9,0,4,4,4,,,,,,,,,,,,,,,,,,,,,,,,,,,,,,,,,,,,,,,,,,,,,,,,,,,,,,,,,,,,,,,,,,,,,1.8036,815.6631318999998,None,None,1,815.6631318999998,None,,P023,fencog,1,Post,2022_Feb_16_1209,N-Back (New Version 2021),2021.1.4,119.92032493627532,
,,,,Conditions/Version_1/zeroback(3)_v1.xlsx,New rule: Press 'space' when you see the letter 'x' or 'X'.,p,None,,,,,,,,,0,9,9,9,0,5,5,5,,,,,,,,,,,,,,,,,,,,,,,,,,,,,,,,,,,,,,,,,,,,,,,,,,,,,,,,,,,,,,,,,,,,,1.5866,819.2579240999994,None,None,1,819.2579240999994,None,,P023,fencog,1,Post,2022_Feb_16_1209,N-Back (New Version 2021),2021.1.4,119.92032493627532,
,,,,Conditions/Version_1/zeroback(3)_v1.xlsx,New rule: Press 'space' when you see the letter 'x' or 'X'.,G,None,,,,,,,,,0,9,9,9,0,6,6,6,,,,,,,,,,,,,,,,,,,,,,,,,,,,,,,,,,,,,,,,,,,,,,,,,,,,,,,,,,,,,,,,,,,,,1.0844,822.3484681,None,None,1,822.3484681,None,,P023,fencog,1,Post,2022_Feb_16_1209,N-Back (New Version 2021),2021.1.4,119.92032493627532,
,,,,Conditions/Version_1/zeroback(3)_v1.xlsx,New rule: Press 'space' when you see the letter 'x' or 'X'.,X,space,,,,,,,,,0,9,9,9,0,7,7,7,,,,,,,,,,,,,,,,,,,,,,,,,,,,,,,,,,,,,,,,,,,,,,,,,,,,,,,,,,,,,,,,,,,,,1.6114,825.9647445999999,None,space,1,825.9647445999999,None,0.34223870000005263,P023,fencog,1,Post,2022_Feb_16_1209,N-Back (New Version 2021),2021.1.4,119.92032493627532,
,,,,Conditions/Version_1/zeroback(3)_v1.xlsx,New rule: Press 'space' when you see the letter 'x' or 'X'.,p,None,,,,,,,,,0,9,9,9,0,8,8,8,,,,,,,,,,,,,,,,,,,,,,,,,,,,,,,,,,,,,,,,,,,,,,,,,,,,,,,,,,,,,,,,,,,,,1.9214,829.8879167999994,None,None,1,829.8879167999994,None,,P023,fencog,1,Post,2022_Feb_16_1209,N-Back (New Version 2021),2021.1.4,119.92032493627532,
,,,,Conditions/Version_1/zeroback(3)_v1.xlsx,New rule: Press 'space' when you see the letter 'x' or 'X'.,x,space,,,,,,,,,0,9,9,9,0,9,9,9,,,,,,,,,,,,,,,,,,,,,,,,,,,,,,,,,,,,,,,,,,,,,,,,,,,,,,,,,,,,,,,,,,,,,1.32,833.2154051999996,None,space,1,833.2154051999996,None,0.3554041999996116,P023,fencog,1,Post,2022_Feb_16_1209,N-Back (New Version 2021),2021.1.4,119.92032493627532,
,,,,Conditions/Version_1/zeroback(3)_v1.xlsx,New rule: Press 'space' when you see the letter 'x' or 'X'.,,,,,,,,,,,0,9,9,9,,,,,,,,,,,,,,,,,,,,,,,,,,,,,,,,,,,,,,,,,,,,,,,,,,,,,,,,,,,,,,,,,,,,,,,,,,,,,,,,,P023,fencog,1,Post,2022_Feb_16_1209,N-Back (New Version 2021),2021.1.4,119.92032493627532,
,,,,Conditions/Version_1/twoback(3)_v1.xlsx,New rule: Press 'space' when you see 2-back (i.e. the same letter as the one that appeared 2 letters ago.),e,None,,,,,,,,,0,10,10,10,0,0,0,0,,,,,,,,,,,,,,,,,,,,,,,,,,,,,,,,,,,,,,,,,,,,,,,,,,,,,,,,,,,835.2439137000001,None,838.2292711,None,space,0.5796256000003268,838.2292711,None,835.2439137000001,None,1.9586,840.7941903000001,None,None,1,840.7941903000001,None,,P023,fencog,1,Post,2022_Feb_16_1209,N-Back (New Version 2021),2021.1.4,119.92032493627532,
,,,,Conditions/Version_1/twoback(3)_v1.xlsx,New rule: Press 'space' when you see 2-back (i.e. the same letter as the one that appeared 2 letters ago.),o,None,,,,,,,,,0,10,10,10,0,1,1,1,,,,,,,,,,,,,,,,,,,,,,,,,,,,,,,,,,,,,,,,,,,,,,,,,,,,,,,,,,,,,,,,,,,,,1.0224,843.8276197999994,None,None,1,843.8276197999994,None,,P023,fencog,1,Post,2022_Feb_16_1209,N-Back (New Version 2021),2021.1.4,119.92032493627532,
,,,,Conditions/Version_1/twoback(3)_v1.xlsx,New rule: Press 'space' when you see 2-back (i.e. the same letter as the one that appeared 2 letters ago.),P,None,,,,,,,,,0,10,10,10,0,2,2,2,,,,,,,,,,,,,,,,,,,,,,,,,,,,,,,,,,,,,,,,,,,,,,,,,,,,,,,,,,,,,,,,,,,,,1.723,847.5623454999995,None,None,1,847.5623454999995,None,,P023,fencog,1,Post,2022_Feb_16_1209,N-Back (New Version 2021),2021.1.4,119.92032493627532,
,,,,Conditions/Version_1/twoback(3)_v1.xlsx,New rule: Press 'space' when you see 2-back (i.e. the same letter as the one that appeared 2 letters ago.),z,None,,,,,,,,,0,10,10,10,0,3,3,3,,,,,,,,,,,,,,,,,,,,,,,,,,,,,,,,,,,,,,,,,,,,,,,,,,,,,,,,,,,,,,,,,,,,,1.3386,850.9188238999996,None,None,1,850.9188238999996,None,,P023,fencog,1,Post,2022_Feb_16_1209,N-Back (New Version 2021),2021.1.4,119.92032493627532,
,,,,Conditions/Version_1/twoback(3)_v1.xlsx,New rule: Press 'space' when you see 2-back (i.e. the same letter as the one that appeared 2 letters ago.),X,None,,,,,,,,,0,10,10,10,0,4,4,4,,,,,,,,,,,,,,,,,,,,,,,,,,,,,,,,,,,,,,,,,,,,,,,,,,,,,,,,,,,,,,,,,,,,,1.7664,854.6816220999999,None,None,1,854.6816220999999,None,,P023,fencog,1,Post,2022_Feb_16_1209,N-Back (New Version 2021),2021.1.4,119.92032493627532,
,,,,Conditions/Version_1/twoback(3)_v1.xlsx,New rule: Press 'space' when you see 2-back (i.e. the same letter as the one that appeared 2 letters ago.),z,space,,,,,,,,,0,10,10,10,0,5,5,5,,,,,,,,,,,,,,,,,,,,,,,,,,,,,,,,,,,,,,,,,,,,,,,,,,,,,,,,,,,,,,,,,,,,,1.4006,858.0882147000002,None,space,1,858.0882147000002,None,0.3594922000002043,P023,fencog,1,Post,2022_Feb_16_1209,N-Back (New Version 2021),2021.1.4,119.92032493627532,
,,,,Conditions/Version_1/twoback(3)_v1.xlsx,New rule: Press 'space' when you see 2-back (i.e. the same letter as the one that appeared 2 letters ago.),x,space,,,,,,,,,0,10,10,10,0,6,6,6,,,,,,,,,,,,,,,,,,,,,,,,,,,,,,,,,,,,,,,,,,,,,,,,,,,,,,,,,,,,,,,,,,,,,1.2456,861.3453460999999,None,space,1,861.3453460999999,None,0.40728870000020834,P023,fencog,1,Post,2022_Feb_16_1209,N-Back (New Version 2021),2021.1.4,119.92032493627532,
,,,,Conditions/Version_1/twoback(3)_v1.xlsx,New rule: Press 'space' when you see 2-back (i.e. the same letter as the one that appeared 2 letters ago.),c,None,,,,,,,,,0,10,10,10,0,7,7,7,,,,,,,,,,,,,,,,,,,,,,,,,,,,,,,,,,,,,,,,,,,,,,,,,,,,,,,,,,,,,,,,,,,,,1.134,864.4881327000003,None,None,1,864.4881327000003,None,,P023,fencog,1,Post,2022_Feb_16_1209,N-Back (New Version 2021),2021.1.4,119.92032493627532,
,,,,Conditions/Version_1/twoback(3)_v1.xlsx,New rule: Press 'space' when you see 2-back (i.e. the same letter as the one that appeared 2 letters ago.),i,None,,,,,,,,,0,10,10,10,0,8,8,8,,,,,,,,,,,,,,,,,,,,,,,,,,,,,,,,,,,,,,,,,,,,,,,,,,,,,,,,,,,,,,,,,,,,,1.6052,868.1017240000001,None,None,1,868.1017240000001,None,,P023,fencog,1,Post,2022_Feb_16_1209,N-Back (New Version 2021),2021.1.4,119.92032493627532,
,,,,Conditions/Version_1/twoback(3)_v1.xlsx,New rule: Press 'space' when you see 2-back (i.e. the same letter as the one that appeared 2 letters ago.),C,space,,,,,,,,,0,10,10,10,0,9,9,9,,,,,,,,,,,,,,,,,,,,,,,,,,,,,,,,,,,,,,,,,,,,,,,,,,,,,,,,,,,,,,,,,,,,,1.568,871.6756246999994,None,space,1,871.6756246999994,None,0.30476069999986066,P023,fencog,1,Post,2022_Feb_16_1209,N-Back (New Version 2021),2021.1.4,119.92032493627532,
,,,,Conditions/Version_1/twoback(3)_v1.xlsx,New rule: Press 'space' when you see 2-back (i.e. the same letter as the one that appeared 2 letters ago.),,,,,,,,,,,0,10,10,10,,,,,,,,,,,,,,,,,,,,,,,,,,,,,,,,,,,,,,,,,,,,,,,,,,,,,,,,,,,,,,,,,,,,,,,,,,,,,,,,,P023,fencog,1,Post,2022_Feb_16_1209,N-Back (New Version 2021),2021.1.4,119.92032493627532,
,,,,Conditions/Version_1/oneback(3)_v1.xlsx,New rule: Press 'space' when you see 1-back (i.e. the same letter as the one that appeared 1 letter ago.),o,None,,,,,,,,,0,11,11,11,0,0,0,0,,,,,,,,,,,,,,,,,,,,,,,,,,,,,,,,,,,,,,,,,,,,,,,,,,,,,,,,,,,873.6981076000002,None,876.6847885999996,None,space,0.26491470000019035,876.6847885999996,None,873.6981076000002,None,1.847,878.8330397,None,None,1,878.8330397,None,,P023,fencog,1,Post,2022_Feb_16_1209,N-Back (New Version 2021),2021.1.4,119.92032493627532,
,,,,Conditions/Version_1/oneback(3)_v1.xlsx,New rule: Press 'space' when you see 1-back (i.e. the same letter as the one that appeared 1 letter ago.),O,space,,,,,,,,,0,11,11,11,0,1,1,1,,,,,,,,,,,,,,,,,,,,,,,,,,,,,,,,,,,,,,,,,,,,,,,,,,,,,,,,,,,,,,,,,,,,,1.0286,881.8745337,None,space,1,881.8745337,None,0.580116199999793,P023,fencog,1,Post,2022_Feb_16_1209,N-Back (New Version 2021),2021.1.4,119.92032493627532,
,,,,Conditions/Version_1/oneback(3)_v1.xlsx,New rule: Press 'space' when you see 1-back (i.e. the same letter as the one that appeared 1 letter ago.),h,None,,,,,,,,,0,11,11,11,0,2,2,2,,,,,,,,,,,,,,,,,,,,,,,,,,,,,,,,,,,,,,,,,,,,,,,,,,,,,,,,,,,,,,,,,,,,,1.971,885.8464729999996,None,None,1,885.8464729999996,None,,P023,fencog,1,Post,2022_Feb_16_1209,N-Back (New Version 2021),2021.1.4,119.92032493627532,
,,,,Conditions/Version_1/oneback(3)_v1.xlsx,New rule: Press 'space' when you see 1-back (i.e. the same letter as the one that appeared 1 letter ago.),g,None,,,,,,,,,0,11,11,11,0,3,3,3,,,,,,,,,,,,,,,,,,,,,,,,,,,,,,,,,,,,,,,,,,,,,,,,,,,,,,,,,,,,,,,,,,,,,1.2084,889.0538828999997,None,None,1,889.0538828999997,None,,P023,fencog,1,Post,2022_Feb_16_1209,N-Back (New Version 2021),2021.1.4,119.92032493627532,
,,,,Conditions/Version_1/oneback(3)_v1.xlsx,New rule: Press 'space' when you see 1-back (i.e. the same letter as the one that appeared 1 letter ago.),n,None,,,,,,,,,0,11,11,11,0,4,4,4,,,,,,,,,,,,,,,,,,,,,,,,,,,,,,,,,,,,,,,,,,,,,,,,,,,,,,,,,,,,,,,,,,,,,1.3758,892.4363223999999,None,None,1,892.4363223999999,None,,P023,fencog,1,Post,2022_Feb_16_1209,N-Back (New Version 2021),2021.1.4,119.92032493627532,
,,,,Conditions/Version_1/oneback(3)_v1.xlsx,New rule: Press 'space' when you see 1-back (i.e. the same letter as the one that appeared 1 letter ago.),z,None,,,,,,,,,0,11,11,11,0,5,5,5,,,,,,,,,,,,,,,,,,,,,,,,,,,,,,,,,,,,,,,,,,,,,,,,,,,,,,,,,,,,,,,,,,,,,1.351,895.7937790999995,None,None,1,895.7937790999995,None,,P023,fencog,1,Post,2022_Feb_16_1209,N-Back (New Version 2021),2021.1.4,119.92032493627532,
,,,,Conditions/Version_1/oneback(3)_v1.xlsx,New rule: Press 'space' when you see 1-back (i.e. the same letter as the one that appeared 1 letter ago.),X,None,,,,,,,,,0,11,11,11,0,6,6,6,,,,,,,,,,,,,,,,,,,,,,,,,,,,,,,,,,,,,,,,,,,,,,,,,,,,,,,,,,,,,,,,,,,,,1.5246,899.3532432000002,None,None,1,899.3532432000002,None,,P023,fencog,1,Post,2022_Feb_16_1209,N-Back (New Version 2021),2021.1.4,119.92032493627532,
,,,,Conditions/Version_1/oneback(3)_v1.xlsx,New rule: Press 'space' when you see 1-back (i.e. the same letter as the one that appeared 1 letter ago.),r,None,,,,,,,,,0,11,11,11,0,7,7,7,,,,,,,,,,,,,,,,,,,,,,,,,,,,,,,,,,,,,,,,,,,,,,,,,,,,,,,,,,,,,,,,,,,,,1.413,902.7452223999999,None,None,1,902.7452223999999,None,,P023,fencog,1,Post,2022_Feb_16_1209,N-Back (New Version 2021),2021.1.4,119.92032493627532,
,,,,Conditions/Version_1/oneback(3)_v1.xlsx,New rule: Press 'space' when you see 1-back (i.e. the same letter as the one that appeared 1 letter ago.),r,space,,,,,,,,,0,11,11,11,0,8,8,8,,,,,,,,,,,,,,,,,,,,,,,,,,,,,,,,,,,,,,,,,,,,,,,,,,,,,,,,,,,,,,,,,,,,,1.1588,905.9082042,None,space,1,905.9082042,None,0.47428079999917827,P023,fencog,1,Post,2022_Feb_16_1209,N-Back (New Version 2021),2021.1.4,119.92032493627532,
,,,,Conditions/Version_1/oneback(3)_v1.xlsx,New rule: Press 'space' when you see 1-back (i.e. the same letter as the one that appeared 1 letter ago.),P,None,,,,,,,,,0,11,11,11,0,9,9,9,,,,,,,,,,,,,,,,,,,,,,,,,,,,,,,,,,,,,,,,,,,,,,,,,,,,,,,,,,,,,,,,,,,,,1.5742,909.4893498000001,None,None,1,909.4893498000001,None,,P023,fencog,1,Post,2022_Feb_16_1209,N-Back (New Version 2021),2021.1.4,119.92032493627532,
,,,,Conditions/Version_1/oneback(3)_v1.xlsx,New rule: Press 'space' when you see 1-back (i.e. the same letter as the one that appeared 1 letter ago.),,,,,,,,,,,0,11,11,11,,,,,,,,,,,,,,,,,,,,,,,,,,,,,,,,,,,,,,,,,,,,,,,,,,,,,,,,,,,,,,,,,,,,,,,,,,,,,,,,,P023,fencog,1,Post,2022_Feb_16_1209,N-Back (New Version 2021),2021.1.4,119.92032493627532,
,,,,Conditions/Version_1/twoback(4)_v1.xlsx,New rule: Press 'space' when you see 2-back (i.e. the same letter as the one that appeared 2 letters ago.),r,None,,,,,,,,,0,12,12,12,0,0,0,0,,,,,,,,,,,,,,,,,,,,,,,,,,,,,,,,,,,,,,,,,,,,,,,,,,,,,,,,,,,911.5179122,None,914.4994344999996,None,space,0.5111090999998851,914.4994344999996,None,911.5179122,None,1.9214,916.9623144999996,None,None,1,916.9623144999996,None,,P023,fencog,1,Post,2022_Feb_16_1209,N-Back (New Version 2021),2021.1.4,119.92032493627532,
,,,,Conditions/Version_1/twoback(4)_v1.xlsx,New rule: Press 'space' when you see 2-back (i.e. the same letter as the one that appeared 2 letters ago.),T,None,,,,,,,,,0,12,12,12,0,1,1,1,,,,,,,,,,,,,,,,,,,,,,,,,,,,,,,,,,,,,,,,,,,,,,,,,,,,,,,,,,,,,,,,,,,,,1.4254,920.3866646999995,None,None,1,920.3866646999995,None,,P023,fencog,1,Post,2022_Feb_16_1209,N-Back (New Version 2021),2021.1.4,119.92032493627532,
,,,,Conditions/Version_1/twoback(4)_v1.xlsx,New rule: Press 'space' when you see 2-back (i.e. the same letter as the one that appeared 2 letters ago.),o,None,,,,,,,,,0,12,12,12,0,2,2,2,,,,,,,,,,,,,,,,,,,,,,,,,,,,,,,,,,,,,,,,,,,,,,,,,,,,,,,,,,,,,,,,,,,,,1.9648,924.3520546999998,None,None,1,924.3520546999998,None,,P023,fencog,1,Post,2022_Feb_16_1209,N-Back (New Version 2021),2021.1.4,119.92032493627532,
,,,,Conditions/Version_1/twoback(4)_v1.xlsx,New rule: Press 'space' when you see 2-back (i.e. the same letter as the one that appeared 2 letters ago.),p,None,,,,,,,,,0,12,12,12,0,3,3,3,,,,,,,,,,,,,,,,,,,,,,,,,,,,,,,,,,,,,,,,,,,,,,,,,,,,,,,,,,,,,,,,,,,,,1.1774,927.5342739999996,None,None,1,927.5342739999996,None,,P023,fencog,1,Post,2022_Feb_16_1209,N-Back (New Version 2021),2021.1.4,119.92032493627532,
,,,,Conditions/Version_1/twoback(4)_v1.xlsx,New rule: Press 'space' when you see 2-back (i.e. the same letter as the one that appeared 2 letters ago.),p,None,,,,,,,,,0,12,12,12,0,4,4,4,,,,,,,,,,,,,,,,,,,,,,,,,,,,,,,,,,,,,,,,,,,,,,,,,,,,,,,,,,,,,,,,,,,,,1.2518,930.7918392000001,None,None,1,930.7918392000001,None,,P023,fencog,1,Post,2022_Feb_16_1209,N-Back (New Version 2021),2021.1.4,119.92032493627532,
,,,,Conditions/Version_1/twoback(4)_v1.xlsx,New rule: Press 'space' when you see 2-back (i.e. the same letter as the one that appeared 2 letters ago.),y,None,,,,,,,,,0,12,12,12,0,5,5,5,,,,,,,,,,,,,,,,,,,,,,,,,,,,,,,,,,,,,,,,,,,,,,,,,,,,,,,,,,,,,,,,,,,,,1.2208,934.0239744,None,None,1,934.0239744,None,,P023,fencog,1,Post,2022_Feb_16_1209,N-Back (New Version 2021),2021.1.4,119.92032493627532,
,,,,Conditions/Version_1/twoback(4)_v1.xlsx,New rule: Press 'space' when you see 2-back (i.e. the same letter as the one that appeared 2 letters ago.),P,space,,,,,,,,,0,12,12,12,0,6,6,6,,,,,,,,,,,,,,,,,,,,,,,,,,,,,,,,,,,,,,,,,,,,,,,,,,,,,,,,,,,,,,,,,,,,,1.3076,937.332523,None,space,1,937.332523,None,0.39559229999940726,P023,fencog,1,Post,2022_Feb_16_1209,N-Back (New Version 2021),2021.1.4,119.92032493627532,
,,,,Conditions/Version_1/twoback(4)_v1.xlsx,New rule: Press 'space' when you see 2-back (i.e. the same letter as the one that appeared 2 letters ago.),y,None,,,,,,,,,0,12,12,12,0,7,7,7,,,,,,,,,,,,,,,,,,,,,,,,,,,,,,,,,,,,,,,,,,,,,,,,,,,,,,,,,,,,,,,,,,,,,1.4626,940.8058856999996,None,space,0,940.8058856999996,None,0.2954798999999184,P023,fencog,1,Post,2022_Feb_16_1209,N-Back (New Version 2021),2021.1.4,119.92032493627532,
,,,,Conditions/Version_1/twoback(4)_v1.xlsx,New rule: Press 'space' when you see 2-back (i.e. the same letter as the one that appeared 2 letters ago.),y,space,,,,,,,,,0,12,12,12,0,8,8,8,,,,,,,,,,,,,,,,,,,,,,,,,,,,,,,,,,,,,,,,,,,,,,,,,,,,,,,,,,,,,,,,,,,,,1.2022,944.0136173000001,None,None,0,944.0136173000001,None,,P023,fencog,1,Post,2022_Feb_16_1209,N-Back (New Version 2021),2021.1.4,119.92032493627532,
,,,,Conditions/Version_1/twoback(4)_v1.xlsx,New rule: Press 'space' when you see 2-back (i.e. the same letter as the one that appeared 2 letters ago.),,,,,,,,,,,0,12,12,12,,,,,,,,,,,,,,,,,,,,,,,,,,,,,,,,,,,,,,,,,,,,,,,,,,,,,,,,,,,,,,,,,,,,,,,,,,,,,,,,,P023,fencog,1,Post,2022_Feb_16_1209,N-Back (New Version 2021),2021.1.4,119.92032493627532,
,,,,Conditions/Version_1/zeroback(4)_v1.xlsx,New rule: Press 'space' when you see the letter 'x' or 'X'.,o,None,,,,,,,,,0,13,13,13,0,0,0,0,,,,,,,,,,,,,,,,,,,,,,,,,,,,,,,,,,,,,,,,,,,,,,,,,,,,,,,,,,,946.0406864999995,None,949.0217993999995,None,space,0.573783299999377,949.0217993999995,None,946.0406864999995,None,1.227,950.8544419,None,None,1,950.8544419,None,,P023,fencog,1,Post,2022_Feb_16_1209,N-Back (New Version 2021),2021.1.4,119.92032493627532,
,,,,Conditions/Version_1/zeroback(4)_v1.xlsx,New rule: Press 'space' when you see the letter 'x' or 'X'.,X,space,,,,,,,,,0,13,13,13,0,1,1,1,,,,,,,,,,,,,,,,,,,,,,,,,,,,,,,,,,,,,,,,,,,,,,,,,,,,,,,,,,,,,,,,,,,,,1.3386,954.2014160999997,None,space,1,954.2014160999997,None,0.4288080999995145,P023,fencog,1,Post,2022_Feb_16_1209,N-Back (New Version 2021),2021.1.4,119.92032493627532,
,,,,Conditions/Version_1/zeroback(4)_v1.xlsx,New rule: Press 'space' when you see the letter 'x' or 'X'.,p,None,,,,,,,,,0,13,13,13,0,2,2,2,,,,,,,,,,,,,,,,,,,,,,,,,,,,,,,,,,,,,,,,,,,,,,,,,,,,,,,,,,,,,,,,,,,,,1.3324,957.5349660000002,None,None,1,957.5349660000002,None,,P023,fencog,1,Post,2022_Feb_16_1209,N-Back (New Version 2021),2021.1.4,119.92032493627532,
,,,,Conditions/Version_1/zeroback(4)_v1.xlsx,New rule: Press 'space' when you see the letter 'x' or 'X'.,m,None,,,,,,,,,0,13,13,13,0,3,3,3,,,,,,,,,,,,,,,,,,,,,,,,,,,,,,,,,,,,,,,,,,,,,,,,,,,,,,,,,,,,,,,,,,,,,1.32,960.8662374999994,None,None,1,960.8662374999994,None,,P023,fencog,1,Post,2022_Feb_16_1209,N-Back (New Version 2021),2021.1.4,119.92032493627532,
,,,,Conditions/Version_1/zeroback(4)_v1.xlsx,New rule: Press 'space' when you see the letter 'x' or 'X'.,n,None,,,,,,,,,0,13,13,13,0,4,4,4,,,,,,,,,,,,,,,,,,,,,,,,,,,,,,,,,,,,,,,,,,,,,,,,,,,,,,,,,,,,,,,,,,,,,1.5432,964.4175894,None,None,1,964.4175894,None,,P023,fencog,1,Post,2022_Feb_16_1209,N-Back (New Version 2021),2021.1.4,119.92032493627532,
,,,,Conditions/Version_1/zeroback(4)_v1.xlsx,New rule: Press 'space' when you see the letter 'x' or 'X'.,m,None,,,,,,,,,0,13,13,13,0,5,5,5,,,,,,,,,,,,,,,,,,,,,,,,,,,,,,,,,,,,,,,,,,,,,,,,,,,,,,,,,,,,,,,,,,,,,1.6548,968.0846357,None,None,1,968.0846357,None,,P023,fencog,1,Post,2022_Feb_16_1209,N-Back (New Version 2021),2021.1.4,119.92032493627532,
,,,,Conditions/Version_1/zeroback(4)_v1.xlsx,New rule: Press 'space' when you see the letter 'x' or 'X'.,C,None,,,,,,,,,0,13,13,13,0,6,6,6,,,,,,,,,,,,,,,,,,,,,,,,,,,,,,,,,,,,,,,,,,,,,,,,,,,,,,,,,,,,,,,,,,,,,1.4936,971.5879419000003,None,None,1,971.5879419000003,None,,P023,fencog,1,Post,2022_Feb_16_1209,N-Back (New Version 2021),2021.1.4,119.92032493627532,
,,,,Conditions/Version_1/zeroback(4)_v1.xlsx,New rule: Press 'space' when you see the letter 'x' or 'X'.,m,None,,,,,,,,,0,13,13,13,0,7,7,7,,,,,,,,,,,,,,,,,,,,,,,,,,,,,,,,,,,,,,,,,,,,,,,,,,,,,,,,,,,,,,,,,,,,,1.8346,975.4322958000002,None,None,1,975.4322958000002,None,,P023,fencog,1,Post,2022_Feb_16_1209,N-Back (New Version 2021),2021.1.4,119.92032493627532,
,,,,Conditions/Version_1/zeroback(4)_v1.xlsx,New rule: Press 'space' when you see the letter 'x' or 'X'.,p,None,,,,,,,,,0,13,13,13,0,8,8,8,,,,,,,,,,,,,,,,,,,,,,,,,,,,,,,,,,,,,,,,,,,,,,,,,,,,,,,,,,,,,,,,,,,,,1.4998,978.9401283999996,None,None,1,978.9401283999996,None,,P023,fencog,1,Post,2022_Feb_16_1209,N-Back (New Version 2021),2021.1.4,119.92032493627532,
,,,,Conditions/Version_1/zeroback(4)_v1.xlsx,New rule: Press 'space' when you see the letter 'x' or 'X'.,X,space,,,,,,,,,0,13,13,13,0,9,9,9,,,,,,,,,,,,,,,,,,,,,,,,,,,,,,,,,,,,,,,,,,,,,,,,,,,,,,,,,,,,,,,,,,,,,1.7106,982.6631006999996,None,space,1,982.6631006999996,None,0.5438652000002548,P023,fencog,1,Post,2022_Feb_16_1209,N-Back (New Version 2021),2021.1.4,119.92032493627532,
,,,,Conditions/Version_1/zeroback(4)_v1.xlsx,New rule: Press 'space' when you see the letter 'x' or 'X'.,,,,,,,,,,,0,13,13,13,,,,,,,,,,,,,,,,,,,,,,,,,,,,,,,,,,,,,,,,,,,,,,,,,,,,,,,,,,,,,,,,,,,,,,,,,,,,,,,,,P023,fencog,1,Post,2022_Feb_16_1209,N-Back (New Version 2021),2021.1.4,119.92032493627532,
,,,,Conditions/Version_1/oneback(4)_v1.xlsx,New rule: Press 'space' when you see 1-back (i.e. the same letter as the one that appeared 1 letter ago.),w,None,,,,,,,,,0,14,14,14,0,0,0,0,,,,,,,,,,,,,,,,,,,,,,,,,,,,,,,,,,,,,,,,,,,,,,,,,,,,,,,,,,,984.6911792000001,None,987.6776602,None,space,0.3869520999996894,987.6776602,None,984.6911792000001,None,1.1898,989.2838510000001,None,None,1,989.2838510000001,None,,P023,fencog,1,Post,2022_Feb_16_1209,N-Back (New Version 2021),2021.1.4,119.92032493627532,
,,,,Conditions/Version_1/oneback(4)_v1.xlsx,New rule: Press 'space' when you see 1-back (i.e. the same letter as the one that appeared 1 letter ago.),q,None,,,,,,,,,0,14,14,14,0,1,1,1,,,,,,,,,,,,,,,,,,,,,,,,,,,,,,,,,,,,,,,,,,,,,,,,,,,,,,,,,,,,,,,,,,,,,1.5804,992.8745251999999,None,None,1,992.8745251999999,None,,P023,fencog,1,Post,2022_Feb_16_1209,N-Back (New Version 2021),2021.1.4,119.92032493627532,
,,,,Conditions/Version_1/oneback(4)_v1.xlsx,New rule: Press 'space' when you see 1-back (i.e. the same letter as the one that appeared 1 letter ago.),i,None,,,,,,,,,0,14,14,14,0,2,2,2,,,,,,,,,,,,,,,,,,,,,,,,,,,,,,,,,,,,,,,,,,,,,,,,,,,,,,,,,,,,,,,,,,,,,1.0658,995.9531934999995,None,None,1,995.9531934999995,None,,P023,fencog,1,Post,2022_Feb_16_1209,N-Back (New Version 2021),2021.1.4,119.92032493627532,
,,,,Conditions/Version_1/oneback(4)_v1.xlsx,New rule: Press 'space' when you see 1-back (i.e. the same letter as the one that appeared 1 letter ago.),t,None,,,,,,,,,0,14,14,14,0,3,3,3,,,,,,,,,,,,,,,,,,,,,,,,,,,,,,,,,,,,,,,,,,,,,,,,,,,,,,,,,,,,,,,,,,,,,1.0534,999.0131780000002,None,None,1,999.0131780000002,None,,P023,fencog,1,Post,2022_Feb_16_1209,N-Back (New Version 2021),2021.1.4,119.92032493627532,
,,,,Conditions/Version_1/oneback(4)_v1.xlsx,New rule: Press 'space' when you see 1-back (i.e. the same letter as the one that appeared 1 letter ago.),v,None,,,,,,,,,0,14,14,14,0,4,4,4,,,,,,,,,,,,,,,,,,,,,,,,,,,,,,,,,,,,,,,,,,,,,,,,,,,,,,,,,,,,,,,,,,,,,1.4936,1002.5150416999995,None,None,1,1002.5150416999995,None,,P023,fencog,1,Post,2022_Feb_16_1209,N-Back (New Version 2021),2021.1.4,119.92032493627532,
,,,,Conditions/Version_1/oneback(4)_v1.xlsx,New rule: Press 'space' when you see 1-back (i.e. the same letter as the one that appeared 1 letter ago.),V,space,,,,,,,,,0,14,14,14,0,5,5,5,,,,,,,,,,,,,,,,,,,,,,,,,,,,,,,,,,,,,,,,,,,,,,,,,,,,,,,,,,,,,,,,,,,,,1.9524,1006.4797767999999,None,space,1,1006.4797767999999,None,0.5875666000001729,P023,fencog,1,Post,2022_Feb_16_1209,N-Back (New Version 2021),2021.1.4,119.92032493627532,
,,,,Conditions/Version_1/oneback(4)_v1.xlsx,New rule: Press 'space' when you see 1-back (i.e. the same letter as the one that appeared 1 letter ago.),v,space,,,,,,,,,0,14,14,14,0,6,6,6,,,,,,,,,,,,,,,,,,,,,,,,,,,,,,,,,,,,,,,,,,,,,,,,,,,,,,,,,,,,,,,,,,,,,1.5184,1010.0016427999999,None,space,1,1010.0016427999999,None,0.4661575999998604,P023,fencog,1,Post,2022_Feb_16_1209,N-Back (New Version 2021),2021.1.4,119.92032493627532,
,,,,Conditions/Version_1/oneback(4)_v1.xlsx,New rule: Press 'space' when you see 1-back (i.e. the same letter as the one that appeared 1 letter ago.),p,None,,,,,,,,,0,14,14,14,0,7,7,7,,,,,,,,,,,,,,,,,,,,,,,,,,,,,,,,,,,,,,,,,,,,,,,,,,,,,,,,,,,,,,,,,,,,,1.1774,1013.1840647999998,None,None,1,1013.1840647999998,None,,P023,fencog,1,Post,2022_Feb_16_1209,N-Back (New Version 2021),2021.1.4,119.92032493627532,
,,,,Conditions/Version_1/oneback(4)_v1.xlsx,New rule: Press 'space' when you see 1-back (i.e. the same letter as the one that appeared 1 letter ago.),w,None,,,,,,,,,0,14,14,14,0,8,8,8,,,,,,,,,,,,,,,,,,,,,,,,,,,,,,,,,,,,,,,,,,,,,,,,,,,,,,,,,,,,,,,,,,,,,1.6362,1016.8267225,None,None,1,1016.8267225,None,,P023,fencog,1,Post,2022_Feb_16_1209,N-Back (New Version 2021),2021.1.4,119.92032493627532,
,,,,Conditions/Version_1/oneback(4)_v1.xlsx,New rule: Press 'space' when you see 1-back (i.e. the same letter as the one that appeared 1 letter ago.),W,space,,,,,,,,,0,14,14,14,0,9,9,9,,,,,,,,,,,,,,,,,,,,,,,,,,,,,,,,,,,,,,,,,,,,,,,,,,,,,,,,,,,,,,,,,,,,,1.9958,1020.8318577999999,None,space,1,1020.8318577999999,None,0.41152560000045924,P023,fencog,1,Post,2022_Feb_16_1209,N-Back (New Version 2021),2021.1.4,119.92032493627532,
,,,,Conditions/Version_1/oneback(4)_v1.xlsx,New rule: Press 'space' when you see 1-back (i.e. the same letter as the one that appeared 1 letter ago.),,,,,,,,,,,0,14,14,14,,,,,,,,,,,,,,,,,,,,,,,,,,,,,,,,,,,,,,,,,,,,,,,,,,,,,,,,,,,,,,,,,,,,,,,,,,,,,,,,,P023,fencog,1,Post,2022_Feb_16_1209,N-Back (New Version 2021),2021.1.4,119.92032493627532,
,,,,Conditions/Version_1/threeback(4)_v1.xlsx,New rule: Press 'space' when you see 3-back (i.e. the same letter as the one that appeared 3 letters ago.),A,None,,,,,,,,,0,15,15,15,0,0,0,0,,,,,,,,,,,,,,,,,,,,,,,,,,,,,,,,,,,,,,,,,,,,,,,,,,,,,,,,,,,1022.8514729999997,None,1025.8407331999997,None,space,0.40917410000020027,1025.8407331999997,None,1022.8514729999997,None,1.3758,1027.6548385999995,None,None,1,1027.6548385999995,None,,P023,fencog,1,Post,2022_Feb_16_1209,N-Back (New Version 2021),2021.1.4,119.92032493627532,
,,,,Conditions/Version_1/threeback(4)_v1.xlsx,New rule: Press 'space' when you see 3-back (i.e. the same letter as the one that appeared 3 letters ago.),n,None,,,,,,,,,0,15,15,15,0,1,1,1,,,,,,,,,,,,,,,,,,,,,,,,,,,,,,,,,,,,,,,,,,,,,,,,,,,,,,,,,,,,,,,,,,,,,1.3882,1031.0454696999996,None,None,1,1031.0454696999996,None,,P023,fencog,1,Post,2022_Feb_16_1209,N-Back (New Version 2021),2021.1.4,119.92032493627532,
,,,,Conditions/Version_1/threeback(4)_v1.xlsx,New rule: Press 'space' when you see 3-back (i.e. the same letter as the one that appeared 3 letters ago.),g,None,,,,,,,,,0,15,15,15,0,2,2,2,,,,,,,,,,,,,,,,,,,,,,,,,,,,,,,,,,,,,,,,,,,,,,,,,,,,,,,,,,,,,,,,,,,,,1.8098,1034.861121,None,None,1,1034.861121,None,,P023,fencog,1,Post,2022_Feb_16_1209,N-Back (New Version 2021),2021.1.4,119.92032493627532,
,,,,Conditions/Version_1/threeback(4)_v1.xlsx,New rule: Press 'space' when you see 3-back (i.e. the same letter as the one that appeared 3 letters ago.),A,space,,,,,,,,,0,15,15,15,0,3,3,3,,,,,,,,,,,,,,,,,,,,,,,,,,,,,,,,,,,,,,,,,,,,,,,,,,,,,,,,,,,,,,,,,,,,,1.3262,1038.199952,None,space,1,1038.199952,None,0.3172248999999283,P023,fencog,1,Post,2022_Feb_16_1209,N-Back (New Version 2021),2021.1.4,119.92032493627532,
,,,,Conditions/Version_1/threeback(4)_v1.xlsx,New rule: Press 'space' when you see 3-back (i.e. the same letter as the one that appeared 3 letters ago.),p,None,,,,,,,,,0,15,15,15,0,4,4,4,,,,,,,,,,,,,,,,,,,,,,,,,,,,,,,,,,,,,,,,,,,,,,,,,,,,,,,,,,,,,,,,,,,,,1.0472,1041.2521371000003,None,None,1,1041.2521371000003,None,,P023,fencog,1,Post,2022_Feb_16_1209,N-Back (New Version 2021),2021.1.4,119.92032493627532,
,,,,Conditions/Version_1/threeback(4)_v1.xlsx,New rule: Press 'space' when you see 3-back (i.e. the same letter as the one that appeared 3 letters ago.),O,None,,,,,,,,,0,15,15,15,0,5,5,5,,,,,,,,,,,,,,,,,,,,,,,,,,,,,,,,,,,,,,,,,,,,,,,,,,,,,,,,,,,,,,,,,,,,,1.3386,1044.6003204999997,None,None,1,1044.6003204999997,None,,P023,fencog,1,Post,2022_Feb_16_1209,N-Back (New Version 2021),2021.1.4,119.92032493627532,
,,,,Conditions/Version_1/threeback(4)_v1.xlsx,New rule: Press 'space' when you see 3-back (i.e. the same letter as the one that appeared 3 letters ago.),a,space,,,,,,,,,0,15,15,15,0,6,6,6,,,,,,,,,,,,,,,,,,,,,,,,,,,,,,,,,,,,,,,,,,,,,,,,,,,,,,,,,,,,,,,,,,,,,1.2704,1047.8805739999998,None,space,1,1047.8805739999998,None,0.3955634999992981,P023,fencog,1,Post,2022_Feb_16_1209,N-Back (New Version 2021),2021.1.4,119.92032493627532,
,,,,Conditions/Version_1/threeback(4)_v1.xlsx,New rule: Press 'space' when you see 3-back (i.e. the same letter as the one that appeared 3 letters ago.),p,space,,,,,,,,,0,15,15,15,0,7,7,7,,,,,,,,,,,,,,,,,,,,,,,,,,,,,,,,,,,,,,,,,,,,,,,,,,,,,,,,,,,,,,,,,,,,,1.9028,1051.7896267999995,None,space,1,1051.7896267999995,None,0.42443749999983993,P023,fencog,1,Post,2022_Feb_16_1209,N-Back (New Version 2021),2021.1.4,119.92032493627532,
,,,,Conditions/Version_1/threeback(4)_v1.xlsx,New rule: Press 'space' when you see 3-back (i.e. the same letter as the one that appeared 3 letters ago.),x,None,,,,,,,,,0,15,15,15,0,8,8,8,,,,,,,,,,,,,,,,,,,,,,,,,,,,,,,,,,,,,,,,,,,,,,,,,,,,,,,,,,,,,,,,,,,,,1.3572,1055.1494683,None,None,1,1055.1494683,None,,P023,fencog,1,Post,2022_Feb_16_1209,N-Back (New Version 2021),2021.1.4,119.92032493627532,
,,,,Conditions/Version_1/threeback(4)_v1.xlsx,New rule: Press 'space' when you see 3-back (i.e. the same letter as the one that appeared 3 letters ago.),X,None,,,,,,,,,0,15,15,15,0,9,9,9,,,,,,,,,,,,,,,,,,,,,,,,,,,,,,,,,,,,,,,,,,,,,,,,,,,,,,,,,,,,,,,,,,,,,1.5246,1058.6800576999995,None,None,1,1058.6800576999995,None,,P023,fencog,1,Post,2022_Feb_16_1209,N-Back (New Version 2021),2021.1.4,119.92032493627532,
,,,,Conditions/Version_1/threeback(4)_v1.xlsx,New rule: Press 'space' when you see 3-back (i.e. the same letter as the one that appeared 3 letters ago.),,,,,,,,,,,0,15,15,15,,,,,,,,,,,,,,,,,,,,,,,,,,,,,,,,,,,,,,,,,,,,,,,,,,,,,,,,,,,,,,,,,,,,,,,,,,,,,,,,,P023,fencog,1,Post,2022_Feb_16_1209,N-Back (New Version 2021),2021.1.4,119.92032493627532,
