CondFileP,InstructionsP,LettersDisplayedP,CorrectnessP,CondFile,Instructions,LettersDisplayed,Correctness,practicetrials.thisRepN,practicetrials.thisTrialN,practicetrials.thisN,practicetrials.thisIndex,InnerLoopPractice.thisRepN,InnerLoopPractice.thisTrialN,InnerLoopPractice.thisN,InnerLoopPractice.thisIndex,trials.thisRepN,trials.thisTrialN,trials.thisN,trials.thisIndex,InnerLoop.thisRepN,InnerLoop.thisTrialN,InnerLoop.thisN,InnerLoop.thisIndex,TaskVersionText.started,TaskVersionText.stopped,InstrKey1.keys,InstrKey1.rt,InstrKey1.started,InstrKey1.stopped,text.started,text.stopped,key_resp_4.keys,key_resp_4.rt,key_resp_4.started,key_resp_4.stopped,text_2.started,text_2.stopped,key_resp_3.keys,key_resp_3.rt,key_resp_3.started,key_resp_3.stopped,text_3.started,text_3.stopped,key_resp_2.keys,key_resp_2.rt,key_resp_2.started,key_resp_2.stopped,PractIn1.started,PractIn1.stopped,PractIn2.started,PractIn2.stopped,PractInstructionPass.keys,PractInstructionPass.rt,PractInstructionPass.started,PractInstructionPass.stopped,PractBlock1.started,PractBlock1.stopped,ISIjitterPractice,ISI_Pract_Fixation.started,ISI_Pract_Fixation.stopped,N_backP.started,N_backP.stopped,KeyPractice.keys,KeyPractice.corr,KeyPractice.rt,KeyPractice.started,KeyPractice.stopped,text_4.started,text_4.stopped,TransitionText.started,TransitionText.stopped,key_resp_6.keys,key_resp_6.rt,key_resp_6.started,key_resp_6.stopped,text_5.started,text_5.stopped,key_resp_5.keys,key_resp_5.rt,key_resp_5.started,key_resp_5.stopped,MainInt1.started,MainInt1.stopped,MainInt2.started,MainInt2.stopped,InstructionPass.keys,InstructionPass.rt,InstructionPass.started,InstructionPass.stopped,Blocks1.started,Blocks1.stopped,ISIjitter,N_backD.started,N_backD.stopped,key_resp.keys,key_resp.corr,key_resp.started,key_resp.stopped,key_resp.rt,participant,Study Name,Task Version (required to run),PRE/POST,date,expName,psychopyVersion,frameRate,
,,,,,,,,,,,,,,,,,,,,,,,,57.29592699999921,None,space,2.9835835001431406,57.78987840004265,None,,,,,,,,,,,,,,,,,,,,,,,,,,,,,,,,,,,,,,,,,,,,,,,,,,,,,,,,,,,,,,,,,,,,,,,P023,fencog,2,Pre,2022_Feb_08_1108,N-Back (New Version 2021),2021.1.4,120.19100771661809,
,,,,,,,,,,,,,,,,,,,,,,,,,,,,,,60.802918600151315,None,space,5.643404199974611,61.29766040015966,None,,,,,,,,,,,,,,,,,,,,,,,,,,,,,,,,,,,,,,,,,,,,,,,,,,,,,,,,,,,,,,,,,P023,fencog,2,Pre,2022_Feb_08_1108,N-Back (New Version 2021),2021.1.4,120.19100771661809,
,,,,,,,,,,,,,,,,,,,,,,,,,,,,,,,,,,,,66.97899610013701,None,space,6.934227099874988,67.4710762000177,None,,,,,,,,,,,,,,,,,,,,,,,,,,,,,,,,,,,,,,,,,,,,,,,,,,,,,,,,,,,P023,fencog,2,Pre,2022_Feb_08_1108,N-Back (New Version 2021),2021.1.4,120.19100771661809,
,,,,,,,,,,,,,,,,,,,,,,,,,,,,,,,,,,,,,,,,,,74.4377016001381,None,space,14.638206199975684,74.92707340000197,None,,,,,,,,,,,,,,,,,,,,,,,,,,,,,,,,,,,,,,,,,,,,,,,,,,,,,P023,fencog,2,Pre,2022_Feb_08_1108,N-Back (New Version 2021),2021.1.4,120.19100771661809,
Conditions/Version_2Pr/zeroback(1)_v2.xlsx,Rule: Press 'space' when you see the letter 'x' or 'X'.,x,space,,,,,0,0,0,0,0,0,0,0,,,,,,,,,,,,,,,,,,,,,,,,,,,,,,,,,90.97900840011425,None,93.96374920010567,None,space,3.5695099998265505,93.96374920010567,None,90.97900840011425,None,1.315,97.56056790007278,None,98.87942570005544,None,space,1,0.3258827000390738,98.87942570005544,None,99.22572130011395,None,,,,,,,,,,,,,,,,,,,,,,,,,,,,,,,P023,fencog,2,Pre,2022_Feb_08_1108,N-Back (New Version 2021),2021.1.4,120.19100771661809,
Conditions/Version_2Pr/zeroback(1)_v2.xlsx,Rule: Press 'space' when you see the letter 'x' or 'X'.,R,None,,,,,0,0,0,0,0,1,1,1,,,,,,,,,,,,,,,,,,,,,,,,,,,,,,,,,,,,,,,,,,,1.14,100.72918070014566,None,101.86915599997155,None,None,1,,101.86915599997155,None,103.8758308000397,None,,,,,,,,,,,,,,,,,,,,,,,,,,,,,,,P023,fencog,2,Pre,2022_Feb_08_1108,N-Back (New Version 2021),2021.1.4,120.19100771661809,
Conditions/Version_2Pr/zeroback(1)_v2.xlsx,Rule: Press 'space' when you see the letter 'x' or 'X'.,p,None,,,,,0,0,0,0,0,2,2,2,,,,,,,,,,,,,,,,,,,,,,,,,,,,,,,,,,,,,,,,,,,1.215,105.37543860008009,None,106.59243010007776,None,None,1,,106.59243010007776,None,108.59945480013266,None,,,,,,,,,,,,,,,,,,,,,,,,,,,,,,,P023,fencog,2,Pre,2022_Feb_08_1108,N-Back (New Version 2021),2021.1.4,120.19100771661809,
Conditions/Version_2Pr/zeroback(1)_v2.xlsx,Rule: Press 'space' when you see the letter 'x' or 'X'.,O,None,,,,,0,0,0,0,0,3,3,3,,,,,,,,,,,,,,,,,,,,,,,,,,,,,,,,,,,,,,,,,,,1.465,110.09896550001577,None,111.56584880012088,None,None,1,,111.56584880012088,None,113.5730646001175,None,,,,,,,,,,,,,,,,,,,,,,,,,,,,,,,P023,fencog,2,Pre,2022_Feb_08_1108,N-Back (New Version 2021),2021.1.4,120.19100771661809,
Conditions/Version_2Pr/zeroback(1)_v2.xlsx,Rule: Press 'space' when you see the letter 'x' or 'X'.,i,None,,,,,0,0,0,0,0,4,4,4,,,,,,,,,,,,,,,,,,,,,,,,,,,,,,,,,,,,,,,,,,,1.515,115.0723050001543,None,116.59007300017402,None,None,1,,116.59007300017402,None,118.59660280006938,None,,,,,,,,,,,,,,,,,,,,,,,,,,,,,,,P023,fencog,2,Pre,2022_Feb_08_1108,N-Back (New Version 2021),2021.1.4,120.19100771661809,
Conditions/Version_2Pr/zeroback(1)_v2.xlsx,Rule: Press 'space' when you see the letter 'x' or 'X'.,U,None,,,,,0,0,0,0,0,5,5,5,,,,,,,,,,,,,,,,,,,,,,,,,,,,,,,,,,,,,,,,,,,1.04,120.0961911000777,None,121.13980950019322,None,None,1,,121.13980950019322,None,123.14508819999173,None,,,,,,,,,,,,,,,,,,,,,,,,,,,,,,,P023,fencog,2,Pre,2022_Feb_08_1108,N-Back (New Version 2021),2021.1.4,120.19100771661809,
Conditions/Version_2Pr/zeroback(1)_v2.xlsx,Rule: Press 'space' when you see the letter 'x' or 'X'.,N,None,,,,,0,0,0,0,0,6,6,6,,,,,,,,,,,,,,,,,,,,,,,,,,,,,,,,,,,,,,,,,,,1.115,124.64490130008198,None,125.76464299997315,None,None,1,,125.76464299997315,None,127.76904650009237,None,,,,,,,,,,,,,,,,,,,,,,,,,,,,,,,P023,fencog,2,Pre,2022_Feb_08_1108,N-Back (New Version 2021),2021.1.4,120.19100771661809,
Conditions/Version_2Pr/zeroback(1)_v2.xlsx,Rule: Press 'space' when you see the letter 'x' or 'X'.,m,None,,,,,0,0,0,0,0,7,7,7,,,,,,,,,,,,,,,,,,,,,,,,,,,,,,,,,,,,,,,,,,,1.84,129.2684873000253,None,131.11900260020047,None,None,1,,131.11900260020047,None,133.11042940011248,None,,,,,,,,,,,,,,,,,,,,,,,,,,,,,,,P023,fencog,2,Pre,2022_Feb_08_1108,N-Back (New Version 2021),2021.1.4,120.19100771661809,
Conditions/Version_2Pr/zeroback(1)_v2.xlsx,Rule: Press 'space' when you see the letter 'x' or 'X'.,x,space,,,,,0,0,0,0,0,8,8,8,,,,,,,,,,,,,,,,,,,,,,,,,,,,,,,,,,,,,,,,,,,1.24,134.61699570016935,None,135.85858140001073,None,space,1,0.3230002000927925,135.85858140001073,None,136.2009076999966,None,,,,,,,,,,,,,,,,,,,,,,,,,,,,,,,P023,fencog,2,Pre,2022_Feb_08_1108,N-Back (New Version 2021),2021.1.4,120.19100771661809,
Conditions/Version_2Pr/zeroback(1)_v2.xlsx,Rule: Press 'space' when you see the letter 'x' or 'X'.,X,space,,,,,0,0,0,0,0,9,9,9,,,,,,,,,,,,,,,,,,,,,,,,,,,,,,,,,,,,,,,,,,,1.29,137.70777099998668,None,139.00024119997397,None,space,1,0.509097300004214,139.00024119997397,None,139.52417270001024,None,,,,,,,,,,,,,,,,,,,,,,,,,,,,,,,P023,fencog,2,Pre,2022_Feb_08_1108,N-Back (New Version 2021),2021.1.4,120.19100771661809,
Conditions/Version_2Pr/zeroback(1)_v2.xlsx,Rule: Press 'space' when you see the letter 'x' or 'X'.,,,,,,,0,0,0,0,,,,,,,,,,,,,,,,,,,,,,,,,,,,,,,,,,,,,,,,,,,,,,,,,,,,,,,,,,,,,,,,,,,,,,,,,,,,,,,,,,,,,,,,,P023,fencog,2,Pre,2022_Feb_08_1108,N-Back (New Version 2021),2021.1.4,120.19100771661809,
Conditions/Version_2Pr/oneback(1)_v2.xlsx,New rule: Press 'space' when you see 1-back (i.e. the same letter as the one that appeared 1 letter ago.),r,None,,,,,0,1,1,1,0,0,0,0,,,,,,,,,,,,,,,,,,,,,,,,,,,,,,,,,141.04567620018497,None,144.03537590010092,None,space,5.02600139984861,144.03537590010092,None,141.04567620018497,None,1.165,149.08328450005502,None,150.25660560000688,None,None,1,,150.25660560000688,None,152.26186430011876,None,,,,,,,,,,,,,,,,,,,,,,,,,,,,,,,P023,fencog,2,Pre,2022_Feb_08_1108,N-Back (New Version 2021),2021.1.4,120.19100771661809,
Conditions/Version_2Pr/oneback(1)_v2.xlsx,New rule: Press 'space' when you see 1-back (i.e. the same letter as the one that appeared 1 letter ago.),t,None,,,,,0,1,1,1,0,1,1,1,,,,,,,,,,,,,,,,,,,,,,,,,,,,,,,,,,,,,,,,,,,1.84,153.76140310009941,None,155.60342210019007,None,None,1,,155.60342210019007,None,157.61014030012302,None,,,,,,,,,,,,,,,,,,,,,,,,,,,,,,,P023,fencog,2,Pre,2022_Feb_08_1108,N-Back (New Version 2021),2021.1.4,120.19100771661809,
Conditions/Version_2Pr/oneback(1)_v2.xlsx,New rule: Press 'space' when you see 1-back (i.e. the same letter as the one that appeared 1 letter ago.),Y,None,,,,,0,1,1,1,0,2,2,2,,,,,,,,,,,,,,,,,,,,,,,,,,,,,,,,,,,,,,,,,,,1.14,159.10956900008023,None,160.25246500014327,None,None,1,,160.25246500014327,None,162.25853560003452,None,,,,,,,,,,,,,,,,,,,,,,,,,,,,,,,P023,fencog,2,Pre,2022_Feb_08_1108,N-Back (New Version 2021),2021.1.4,120.19100771661809,
Conditions/Version_2Pr/oneback(1)_v2.xlsx,New rule: Press 'space' when you see 1-back (i.e. the same letter as the one that appeared 1 letter ago.),y,space,,,,,0,1,1,1,0,3,3,3,,,,,,,,,,,,,,,,,,,,,,,,,,,,,,,,,,,,,,,,,,,1.64,163.75804570014589,None,165.4008644002024,None,space,1,0.3402797000017017,165.4008644002024,None,165.75046800007112,None,,,,,,,,,,,,,,,,,,,,,,,,,,,,,,,P023,fencog,2,Pre,2022_Feb_08_1108,N-Back (New Version 2021),2021.1.4,120.19100771661809,
Conditions/Version_2Pr/oneback(1)_v2.xlsx,New rule: Press 'space' when you see 1-back (i.e. the same letter as the one that appeared 1 letter ago.),p,None,,,,,0,1,1,1,0,4,4,4,,,,,,,,,,,,,,,,,,,,,,,,,,,,,,,,,,,,,,,,,,,1.865,167.25736380019225,None,169.123484400101,None,None,1,,169.123484400101,None,171.12281000008807,None,,,,,,,,,,,,,,,,,,,,,,,,,,,,,,,P023,fencog,2,Pre,2022_Feb_08_1108,N-Back (New Version 2021),2021.1.4,120.19100771661809,
Conditions/Version_2Pr/oneback(1)_v2.xlsx,New rule: Press 'space' when you see 1-back (i.e. the same letter as the one that appeared 1 letter ago.),P,space,,,,,0,1,1,1,0,5,5,5,,,,,,,,,,,,,,,,,,,,,,,,,,,,,,,,,,,,,,,,,,,2.015,172.6225121000316,None,174.6395788001828,None,space,1,0.35759419994428754,174.6395788001828,None,175.00672439998016,None,,,,,,,,,,,,,,,,,,,,,,,,,,,,,,,P023,fencog,2,Pre,2022_Feb_08_1108,N-Back (New Version 2021),2021.1.4,120.19100771661809,
Conditions/Version_2Pr/oneback(1)_v2.xlsx,New rule: Press 'space' when you see 1-back (i.e. the same letter as the one that appeared 1 letter ago.),e,None,,,,,0,1,1,1,0,6,6,6,,,,,,,,,,,,,,,,,,,,,,,,,,,,,,,,,,,,,,,,,,,1.79,176.5125610001851,None,178.3050790000707,None,None,1,,178.3050790000707,None,180.31177490018308,None,,,,,,,,,,,,,,,,,,,,,,,,,,,,,,,P023,fencog,2,Pre,2022_Feb_08_1108,N-Back (New Version 2021),2021.1.4,120.19100771661809,
Conditions/Version_2Pr/oneback(1)_v2.xlsx,New rule: Press 'space' when you see 1-back (i.e. the same letter as the one that appeared 1 letter ago.),r,None,,,,,0,1,1,1,0,7,7,7,,,,,,,,,,,,,,,,,,,,,,,,,,,,,,,,,,,,,,,,,,,1.44,181.8118675001897,None,183.25464270007797,None,None,1,,183.25464270007797,None,185.26034330017865,None,,,,,,,,,,,,,,,,,,,,,,,,,,,,,,,P023,fencog,2,Pre,2022_Feb_08_1108,N-Back (New Version 2021),2021.1.4,120.19100771661809,
Conditions/Version_2Pr/oneback(1)_v2.xlsx,New rule: Press 'space' when you see 1-back (i.e. the same letter as the one that appeared 1 letter ago.),R,space,,,,,0,1,1,1,0,8,8,8,,,,,,,,,,,,,,,,,,,,,,,,,,,,,,,,,,,,,,,,,,,1.715,186.76100300019607,None,188.47678680019453,None,space,1,0.304421299835667,188.47678680019453,None,188.7925031001214,None,,,,,,,,,,,,,,,,,,,,,,,,,,,,,,,P023,fencog,2,Pre,2022_Feb_08_1108,N-Back (New Version 2021),2021.1.4,120.19100771661809,
Conditions/Version_2Pr/oneback(1)_v2.xlsx,New rule: Press 'space' when you see 1-back (i.e. the same letter as the one that appeared 1 letter ago.),p,None,,,,,0,1,1,1,0,9,9,9,,,,,,,,,,,,,,,,,,,,,,,,,,,,,,,,,,,,,,,,,,,1.69,190.29207790014334,None,191.98345180018805,None,None,1,,191.98345180018805,None,193.98268520017155,None,,,,,,,,,,,,,,,,,,,,,,,,,,,,,,,P023,fencog,2,Pre,2022_Feb_08_1108,N-Back (New Version 2021),2021.1.4,120.19100771661809,
Conditions/Version_2Pr/oneback(1)_v2.xlsx,New rule: Press 'space' when you see 1-back (i.e. the same letter as the one that appeared 1 letter ago.),,,,,,,0,1,1,1,,,,,,,,,,,,,,,,,,,,,,,,,,,,,,,,,,,,,,,,,,,,,,,,,,,,,,,,,,,,,,,,,,,,,,,,,,,,,,,,,,,,,,,,,P023,fencog,2,Pre,2022_Feb_08_1108,N-Back (New Version 2021),2021.1.4,120.19100771661809,
Conditions/Version_2Pr/twoback(1)_v2.xlsx,New rule: Press 'space' when you see 2-back (i.e. the same letter as the one that appeared 2 letters ago.),r,None,,,,,0,2,2,2,0,0,0,0,,,,,,,,,,,,,,,,,,,,,,,,,,,,,,,,,195.5089504001662,None,198.49209500011057,None,space,0.8812295999377966,198.49209500011057,None,195.5089504001662,None,1.115,199.40162260015495,None,200.5225889000576,None,None,1,,200.5225889000576,None,202.52228260017,None,,,,,,,,,,,,,,,,,,,,,,,,,,,,,,,P023,fencog,2,Pre,2022_Feb_08_1108,N-Back (New Version 2021),2021.1.4,120.19100771661809,
Conditions/Version_2Pr/twoback(1)_v2.xlsx,New rule: Press 'space' when you see 2-back (i.e. the same letter as the one that appeared 2 letters ago.),P,None,,,,,0,2,2,2,0,1,1,1,,,,,,,,,,,,,,,,,,,,,,,,,,,,,,,,,,,,,,,,,,,1.565,204.02156790019944,None,205.58750650007278,None,None,1,,205.58750650007278,None,207.5872053001076,None,,,,,,,,,,,,,,,,,,,,,,,,,,,,,,,P023,fencog,2,Pre,2022_Feb_08_1108,N-Back (New Version 2021),2021.1.4,120.19100771661809,
Conditions/Version_2Pr/twoback(1)_v2.xlsx,New rule: Press 'space' when you see 2-back (i.e. the same letter as the one that appeared 2 letters ago.),o,None,,,,,0,2,2,2,0,2,2,2,,,,,,,,,,,,,,,,,,,,,,,,,,,,,,,,,,,,,,,,,,,1.69,209.08678760007024,None,210.77818210003898,None,None,1,,210.77818210003898,None,212.77730570011772,None,,,,,,,,,,,,,,,,,,,,,,,,,,,,,,,P023,fencog,2,Pre,2022_Feb_08_1108,N-Back (New Version 2021),2021.1.4,120.19100771661809,
Conditions/Version_2Pr/twoback(1)_v2.xlsx,New rule: Press 'space' when you see 2-back (i.e. the same letter as the one that appeared 2 letters ago.),p,space,,,,,0,2,2,2,0,3,3,3,,,,,,,,,,,,,,,,,,,,,,,,,,,,,,,,,,,,,,,,,,,1.79,214.2768095000647,None,216.06772160017863,None,space,1,0.4655526001006365,216.06772160017863,None,216.54290910018608,None,,,,,,,,,,,,,,,,,,,,,,,,,,,,,,,P023,fencog,2,Pre,2022_Feb_08_1108,N-Back (New Version 2021),2021.1.4,120.19100771661809,
Conditions/Version_2Pr/twoback(1)_v2.xlsx,New rule: Press 'space' when you see 2-back (i.e. the same letter as the one that appeared 2 letters ago.),Y,None,,,,,0,2,2,2,0,4,4,4,,,,,,,,,,,,,,,,,,,,,,,,,,,,,,,,,,,,,,,,,,,1.74,218.04264400014654,None,219.78402040014043,None,None,1,,219.78402040014043,None,221.7911463000346,None,,,,,,,,,,,,,,,,,,,,,,,,,,,,,,,P023,fencog,2,Pre,2022_Feb_08_1108,N-Back (New Version 2021),2021.1.4,120.19100771661809,
Conditions/Version_2Pr/twoback(1)_v2.xlsx,New rule: Press 'space' when you see 2-back (i.e. the same letter as the one that appeared 2 letters ago.),q,None,,,,,0,2,2,2,0,5,5,5,,,,,,,,,,,,,,,,,,,,,,,,,,,,,,,,,,,,,,,,,,,1.94,223.2905739999842,None,225.23521650000475,None,space,0,0.9378517000004649,225.23521650000475,None,226.18722770013846,None,,,,,,,,,,,,,,,,,,,,,,,,,,,,,,,P023,fencog,2,Pre,2022_Feb_08_1108,N-Back (New Version 2021),2021.1.4,120.19100771661809,
Conditions/Version_2Pr/twoback(1)_v2.xlsx,New rule: Press 'space' when you see 2-back (i.e. the same letter as the one that appeared 2 letters ago.),m,None,,,,,0,2,2,2,0,6,6,6,,,,,,,,,,,,,,,,,,,,,,,,,,,,,,,,,,,,,,,,,,,1.615,227.68929240014404,None,229.31279020011425,None,None,1,,229.31279020011425,None,231.3170924000442,None,,,,,,,,,,,,,,,,,,,,,,,,,,,,,,,P023,fencog,2,Pre,2022_Feb_08_1108,N-Back (New Version 2021),2021.1.4,120.19100771661809,
Conditions/Version_2Pr/twoback(1)_v2.xlsx,New rule: Press 'space' when you see 2-back (i.e. the same letter as the one that appeared 2 letters ago.),Q,space,,,,,0,2,2,2,0,7,7,7,,,,,,,,,,,,,,,,,,,,,,,,,,,,,,,,,,,,,,,,,,,1.765,232.81299690017477,None,234.58079949999228,None,space,1,0.4644661999773234,234.58079949999228,None,235.05518420017324,None,,,,,,,,,,,,,,,,,,,,,,,,,,,,,,,P023,fencog,2,Pre,2022_Feb_08_1108,N-Back (New Version 2021),2021.1.4,120.19100771661809,
Conditions/Version_2Pr/twoback(1)_v2.xlsx,New rule: Press 'space' when you see 2-back (i.e. the same letter as the one that appeared 2 letters ago.),L,None,,,,,0,2,2,2,0,8,8,8,,,,,,,,,,,,,,,,,,,,,,,,,,,,,,,,,,,,,,,,,,,1.14,236.56174550019205,None,237.70438560005277,None,None,1,,237.70438560005277,None,239.70280900015496,None,,,,,,,,,,,,,,,,,,,,,,,,,,,,,,,P023,fencog,2,Pre,2022_Feb_08_1108,N-Back (New Version 2021),2021.1.4,120.19100771661809,
Conditions/Version_2Pr/twoback(1)_v2.xlsx,New rule: Press 'space' when you see 2-back (i.e. the same letter as the one that appeared 2 letters ago.),q,space,,,,,0,2,2,2,0,9,9,9,,,,,,,,,,,,,,,,,,,,,,,,,,,,,,,,,,,,,,,,,,,1.915,241.20226990012452,None,243.11827380000614,None,None,0,,243.11827380000614,None,245.12221890012734,None,,,,,,,,,,,,,,,,,,,,,,,,,,,,,,,P023,fencog,2,Pre,2022_Feb_08_1108,N-Back (New Version 2021),2021.1.4,120.19100771661809,
Conditions/Version_2Pr/twoback(1)_v2.xlsx,New rule: Press 'space' when you see 2-back (i.e. the same letter as the one that appeared 2 letters ago.),,,,,,,0,2,2,2,,,,,,,,,,,,,,,,,,,,,,,,,,,,,,,,,,,,,,,,,,,,,,,,,,,,,,,,,,,,,,,,,,,,,,,,,,,,,,,,,,,,,,,,,P023,fencog,2,Pre,2022_Feb_08_1108,N-Back (New Version 2021),2021.1.4,120.19100771661809,
Conditions/Version_2Pr/threeback(1)_v2.xlsx,New rule: Press 'space' when you see 3-back (i.e. the same letter as the one that appeared 3 letters ago.),u,None,,,,,0,3,3,3,0,0,0,0,,,,,,,,,,,,,,,,,,,,,,,,,,,,,,,,,246.6501031999942,None,249.635637300089,None,space,9.817602100083604,249.635637300089,None,246.6501031999942,None,1.04,259.47994710016064,None,260.52227600011975,None,None,1,,260.52227600011975,None,262.52905120002106,None,,,,,,,,,,,,,,,,,,,,,,,,,,,,,,,P023,fencog,2,Pre,2022_Feb_08_1108,N-Back (New Version 2021),2021.1.4,120.19100771661809,
Conditions/Version_2Pr/threeback(1)_v2.xlsx,New rule: Press 'space' when you see 3-back (i.e. the same letter as the one that appeared 3 letters ago.),U,None,,,,,0,3,3,3,0,1,1,1,,,,,,,,,,,,,,,,,,,,,,,,,,,,,,,,,,,,,,,,,,,1.415,264.02867460018024,None,265.44587850011885,None,None,1,,265.44587850011885,None,267.45286349998787,None,,,,,,,,,,,,,,,,,,,,,,,,,,,,,,,P023,fencog,2,Pre,2022_Feb_08_1108,N-Back (New Version 2021),2021.1.4,120.19100771661809,
Conditions/Version_2Pr/threeback(1)_v2.xlsx,New rule: Press 'space' when you see 3-back (i.e. the same letter as the one that appeared 3 letters ago.),p,None,,,,,0,3,3,3,0,2,2,2,,,,,,,,,,,,,,,,,,,,,,,,,,,,,,,,,,,,,,,,,,,1.74,268.9524683000054,None,270.6934673001524,None,None,1,,270.6934673001524,None,272.69294760003686,None,,,,,,,,,,,,,,,,,,,,,,,,,,,,,,,P023,fencog,2,Pre,2022_Feb_08_1108,N-Back (New Version 2021),2021.1.4,120.19100771661809,
Conditions/Version_2Pr/threeback(1)_v2.xlsx,New rule: Press 'space' when you see 3-back (i.e. the same letter as the one that appeared 3 letters ago.),U,space,,,,,0,3,3,3,0,3,3,3,,,,,,,,,,,,,,,,,,,,,,,,,,,,,,,,,,,,,,,,,,,1.815,274.19235600018874,None,276.00895699998364,None,space,1,0.3402154000941664,276.00895699998364,None,276.3598979001399,None,,,,,,,,,,,,,,,,,,,,,,,,,,,,,,,P023,fencog,2,Pre,2022_Feb_08_1108,N-Back (New Version 2021),2021.1.4,120.19100771661809,
Conditions/Version_2Pr/threeback(1)_v2.xlsx,New rule: Press 'space' when you see 3-back (i.e. the same letter as the one that appeared 3 letters ago.),e,None,,,,,0,3,3,3,0,4,4,4,,,,,,,,,,,,,,,,,,,,,,,,,,,,,,,,,,,,,,,,,,,1.165,277.86634990014136,None,279.0335028001573,None,None,1,,279.0335028001573,None,281.04012340004556,None,,,,,,,,,,,,,,,,,,,,,,,,,,,,,,,P023,fencog,2,Pre,2022_Feb_08_1108,N-Back (New Version 2021),2021.1.4,120.19100771661809,
Conditions/Version_2Pr/threeback(1)_v2.xlsx,New rule: Press 'space' when you see 3-back (i.e. the same letter as the one that appeared 3 letters ago.),R,None,,,,,0,3,3,3,0,5,5,5,,,,,,,,,,,,,,,,,,,,,,,,,,,,,,,,,,,,,,,,,,,1.765,282.5400828002021,None,284.30594370001927,None,None,1,,284.30594370001927,None,286.30564140016213,None,,,,,,,,,,,,,,,,,,,,,,,,,,,,,,,P023,fencog,2,Pre,2022_Feb_08_1108,N-Back (New Version 2021),2021.1.4,120.19100771661809,
Conditions/Version_2Pr/threeback(1)_v2.xlsx,New rule: Press 'space' when you see 3-back (i.e. the same letter as the one that appeared 3 letters ago.),p,None,,,,,0,3,3,3,0,6,6,6,,,,,,,,,,,,,,,,,,,,,,,,,,,,,,,,,,,,,,,,,,,1.79,287.8051473000087,None,289.60106800007634,None,space,0,0.6042847000062466,289.60106800007634,None,290.2173296001274,None,,,,,,,,,,,,,,,,,,,,,,,,,,,,,,,P023,fencog,2,Pre,2022_Feb_08_1108,N-Back (New Version 2021),2021.1.4,120.19100771661809,
Conditions/Version_2Pr/threeback(1)_v2.xlsx,New rule: Press 'space' when you see 3-back (i.e. the same letter as the one that appeared 3 letters ago.),E,space,,,,,0,3,3,3,0,7,7,7,,,,,,,,,,,,,,,,,,,,,,,,,,,,,,,,,,,,,,,,,,,1.665,291.72028800006956,None,293.3877775000874,None,space,1,0.4173972997814417,293.3877775000874,None,293.8187483001966,None,,,,,,,,,,,,,,,,,,,,,,,,,,,,,,,P023,fencog,2,Pre,2022_Feb_08_1108,N-Back (New Version 2021),2021.1.4,120.19100771661809,
Conditions/Version_2Pr/threeback(1)_v2.xlsx,New rule: Press 'space' when you see 3-back (i.e. the same letter as the one that appeared 3 letters ago.),k,None,,,,,0,3,3,3,0,8,8,8,,,,,,,,,,,,,,,,,,,,,,,,,,,,,,,,,,,,,,,,,,,1.615,295.31955150002614,None,296.93711440009065,None,None,1,,296.93711440009065,None,298.9436202000361,None,,,,,,,,,,,,,,,,,,,,,,,,,,,,,,,P023,fencog,2,Pre,2022_Feb_08_1108,N-Back (New Version 2021),2021.1.4,120.19100771661809,
Conditions/Version_2Pr/threeback(1)_v2.xlsx,New rule: Press 'space' when you see 3-back (i.e. the same letter as the one that appeared 3 letters ago.),m,None,,,,,0,3,3,3,0,9,9,9,,,,,,,,,,,,,,,,,,,,,,,,,,,,,,,,,,,,,,,,,,,1.69,300.44308500015177,None,302.13422040012665,None,None,1,,302.13422040012665,None,304.1369857999962,None,,,,,,,,,,,,,,,,,,,,,,,,,,,,,,,P023,fencog,2,Pre,2022_Feb_08_1108,N-Back (New Version 2021),2021.1.4,120.19100771661809,
Conditions/Version_2Pr/threeback(1)_v2.xlsx,New rule: Press 'space' when you see 3-back (i.e. the same letter as the one that appeared 3 letters ago.),,,,,,,0,3,3,3,,,,,,,,,,,,,,,,,,,,,,,,,,,,,,,,,,,,,,,,,,,,,,,,,,,,,,,,,,,,,,,,,,,,,,,,,,,,,,,,,,,,,,,,,P023,fencog,2,Pre,2022_Feb_08_1108,N-Back (New Version 2021),2021.1.4,120.19100771661809,
,,,,,,,,,,,,,,,,,,,,,,,,,,,,,,,,,,,,,,,,,,,,,,,,,,,,,,,,,,,,,,,,,,,,,,305.6482137001585,None,space,11.551728499820456,306.1416174999904,None,,,,,,,,,,,,,,,,,,,,,,,,,P023,fencog,2,Pre,2022_Feb_08_1108,N-Back (New Version 2021),2021.1.4,120.19100771661809,
,,,,,,,,,,,,,,,,,,,,,,,,,,,,,,,,,,,,,,,,,,,,,,,,,,,,,,,,,,,,,,,,,,,,,,,,,,,,317.7180694001727,None,space,2.8159598999191076,318.2133838001173,None,,,,,,,,,,,,,,,,,,,P023,fencog,2,Pre,2022_Feb_08_1108,N-Back (New Version 2021),2021.1.4,120.19100771661809,
,,,,Conditions/Version_1/zeroback(1)_v1.xlsx,Rule: Press 'space' when you see the letter 'x' or 'X'.,b,None,,,,,,,,,0,0,0,0,0,0,0,0,,,,,,,,,,,,,,,,,,,,,,,,,,,,,,,,,,,,,,,,,,,,,,,,,,,,,,,,,,,321.1385928001255,None,324.12045580009,None,space,0.7088995000813156,324.12045580009,None,321.1385928001255,None,1.7416,326.60255310009234,None,None,1,326.60255310009234,None,,P023,fencog,2,Pre,2022_Feb_08_1108,N-Back (New Version 2021),2021.1.4,120.19100771661809,
,,,,Conditions/Version_1/zeroback(1)_v1.xlsx,Rule: Press 'space' when you see the letter 'x' or 'X'.,T,None,,,,,,,,,0,0,0,0,0,1,1,1,,,,,,,,,,,,,,,,,,,,,,,,,,,,,,,,,,,,,,,,,,,,,,,,,,,,,,,,,,,,,,,,,,,,,1.7602,330.3763073000591,None,None,1,330.3763073000591,None,,P023,fencog,2,Pre,2022_Feb_08_1108,N-Back (New Version 2021),2021.1.4,120.19100771661809,
,,,,Conditions/Version_1/zeroback(1)_v1.xlsx,Rule: Press 'space' when you see the letter 'x' or 'X'.,L,None,,,,,,,,,0,0,0,0,0,2,2,2,,,,,,,,,,,,,,,,,,,,,,,,,,,,,,,,,,,,,,,,,,,,,,,,,,,,,,,,,,,,,,,,,,,,,1.413,333.80001970008016,None,None,1,333.80001970008016,None,,P023,fencog,2,Pre,2022_Feb_08_1108,N-Back (New Version 2021),2021.1.4,120.19100771661809,
,,,,Conditions/Version_1/zeroback(1)_v1.xlsx,Rule: Press 'space' when you see the letter 'x' or 'X'.,x,space,,,,,,,,,0,0,0,0,0,3,3,3,,,,,,,,,,,,,,,,,,,,,,,,,,,,,,,,,,,,,,,,,,,,,,,,,,,,,,,,,,,,,,,,,,,,,1.5494,337.3497902001254,None,None,0,337.3497902001254,None,,P023,fencog,2,Pre,2022_Feb_08_1108,N-Back (New Version 2021),2021.1.4,120.19100771661809,
,,,,Conditions/Version_1/zeroback(1)_v1.xlsx,Rule: Press 'space' when you see the letter 'x' or 'X'.,o,None,,,,,,,,,0,0,0,0,0,4,4,4,,,,,,,,,,,,,,,,,,,,,,,,,,,,,,,,,,,,,,,,,,,,,,,,,,,,,,,,,,,,,,,,,,,,,1.0906,340.43960540019907,None,None,1,340.43960540019907,None,,P023,fencog,2,Pre,2022_Feb_08_1108,N-Back (New Version 2021),2021.1.4,120.19100771661809,
,,,,Conditions/Version_1/zeroback(1)_v1.xlsx,Rule: Press 'space' when you see the letter 'x' or 'X'.,P,None,,,,,,,,,0,0,0,0,0,5,5,5,,,,,,,,,,,,,,,,,,,,,,,,,,,,,,,,,,,,,,,,,,,,,,,,,,,,,,,,,,,,,,,,,,,,,1.041,343.4814015000593,None,None,1,343.4814015000593,None,,P023,fencog,2,Pre,2022_Feb_08_1108,N-Back (New Version 2021),2021.1.4,120.19100771661809,
,,,,Conditions/Version_1/zeroback(1)_v1.xlsx,Rule: Press 'space' when you see the letter 'x' or 'X'.,X,space,,,,,,,,,0,0,0,0,0,6,6,6,,,,,,,,,,,,,,,,,,,,,,,,,,,,,,,,,,,,,,,,,,,,,,,,,,,,,,,,,,,,,,,,,,,,,1.3138,346.8044068000745,None,space,1,346.8044068000745,None,0.3126833001151681,P023,fencog,2,Pre,2022_Feb_08_1108,N-Back (New Version 2021),2021.1.4,120.19100771661809,
,,,,Conditions/Version_1/zeroback(1)_v1.xlsx,Rule: Press 'space' when you see the letter 'x' or 'X'.,n,None,,,,,,,,,0,0,0,0,0,7,7,7,,,,,,,,,,,,,,,,,,,,,,,,,,,,,,,,,,,,,,,,,,,,,,,,,,,,,,,,,,,,,,,,,,,,,1.9896,350.7961007000413,None,None,1,350.7961007000413,None,,P023,fencog,2,Pre,2022_Feb_08_1108,N-Back (New Version 2021),2021.1.4,120.19100771661809,
,,,,Conditions/Version_1/zeroback(1)_v1.xlsx,Rule: Press 'space' when you see the letter 'x' or 'X'.,M,None,,,,,,,,,0,0,0,0,0,8,8,8,,,,,,,,,,,,,,,,,,,,,,,,,,,,,,,,,,,,,,,,,,,,,,,,,,,,,,,,,,,,,,,,,,,,,1.0348,353.8481235001236,None,None,1,353.8481235001236,None,,P023,fencog,2,Pre,2022_Feb_08_1108,N-Back (New Version 2021),2021.1.4,120.19100771661809,
,,,,Conditions/Version_1/zeroback(1)_v1.xlsx,Rule: Press 'space' when you see the letter 'x' or 'X'.,a,None,,,,,,,,,0,0,0,0,0,9,9,9,,,,,,,,,,,,,,,,,,,,,,,,,,,,,,,,,,,,,,,,,,,,,,,,,,,,,,,,,,,,,,,,,,,,,1.4254,357.27807300002314,None,None,1,357.27807300002314,None,,P023,fencog,2,Pre,2022_Feb_08_1108,N-Back (New Version 2021),2021.1.4,120.19100771661809,
,,,,Conditions/Version_1/zeroback(1)_v1.xlsx,Rule: Press 'space' when you see the letter 'x' or 'X'.,,,,,,,,,,,0,0,0,0,,,,,,,,,,,,,,,,,,,,,,,,,,,,,,,,,,,,,,,,,,,,,,,,,,,,,,,,,,,,,,,,,,,,,,,,,,,,,,,,,P023,fencog,2,Pre,2022_Feb_08_1108,N-Back (New Version 2021),2021.1.4,120.19100771661809,
,,,,Conditions/Version_1/oneback(1)_v1.xlsx,New rule: Press 'space' when you see 1-back (i.e. the same letter as the one that appeared 1 letter ago.),b,None,,,,,,,,,0,1,1,1,0,0,0,0,,,,,,,,,,,,,,,,,,,,,,,,,,,,,,,,,,,,,,,,,,,,,,,,,,,,,,,,,,,359.3118886000011,None,362.2971954999957,None,space,1.7880184999667108,362.2971954999957,None,359.3118886000011,None,1.0286,365.140819700202,None,None,1,365.140819700202,None,,P023,fencog,2,Pre,2022_Feb_08_1108,N-Back (New Version 2021),2021.1.4,120.19100771661809,
,,,,Conditions/Version_1/oneback(1)_v1.xlsx,New rule: Press 'space' when you see 1-back (i.e. the same letter as the one that appeared 1 letter ago.),p,None,,,,,,,,,0,1,1,1,0,1,1,1,,,,,,,,,,,,,,,,,,,,,,,,,,,,,,,,,,,,,,,,,,,,,,,,,,,,,,,,,,,,,,,,,,,,,1.5122,368.65708480007015,None,None,1,368.65708480007015,None,,P023,fencog,2,Pre,2022_Feb_08_1108,N-Back (New Version 2021),2021.1.4,120.19100771661809,
,,,,Conditions/Version_1/oneback(1)_v1.xlsx,New rule: Press 'space' when you see 1-back (i.e. the same letter as the one that appeared 1 letter ago.),M,None,,,,,,,,,0,1,1,1,0,2,2,2,,,,,,,,,,,,,,,,,,,,,,,,,,,,,,,,,,,,,,,,,,,,,,,,,,,,,,,,,,,,,,,,,,,,,1.351,372.0231217001565,None,None,1,372.0231217001565,None,,P023,fencog,2,Pre,2022_Feb_08_1108,N-Back (New Version 2021),2021.1.4,120.19100771661809,
,,,,Conditions/Version_1/oneback(1)_v1.xlsx,New rule: Press 'space' when you see 1-back (i.e. the same letter as the one that appeared 1 letter ago.),M,space,,,,,,,,,0,1,1,1,0,3,3,3,,,,,,,,,,,,,,,,,,,,,,,,,,,,,,,,,,,,,,,,,,,,,,,,,,,,,,,,,,,,,,,,,,,,,1.3262,375.3623729001265,None,space,1,375.3623729001265,None,0.4988791001960635,P023,fencog,2,Pre,2022_Feb_08_1108,N-Back (New Version 2021),2021.1.4,120.19100771661809,
,,,,Conditions/Version_1/oneback(1)_v1.xlsx,New rule: Press 'space' when you see 1-back (i.e. the same letter as the one that appeared 1 letter ago.),n,None,,,,,,,,,0,1,1,1,0,4,4,4,,,,,,,,,,,,,,,,,,,,,,,,,,,,,,,,,,,,,,,,,,,,,,,,,,,,,,,,,,,,,,,,,,,,,1.0782,378.44498120015487,None,None,1,378.44498120015487,None,,P023,fencog,2,Pre,2022_Feb_08_1108,N-Back (New Version 2021),2021.1.4,120.19100771661809,
,,,,Conditions/Version_1/oneback(1)_v1.xlsx,New rule: Press 'space' when you see 1-back (i.e. the same letter as the one that appeared 1 letter ago.),g,None,,,,,,,,,0,1,1,1,0,5,5,5,,,,,,,,,,,,,,,,,,,,,,,,,,,,,,,,,,,,,,,,,,,,,,,,,,,,,,,,,,,,,,,,,,,,,1.2642,381.71163949999027,None,None,1,381.71163949999027,None,,P023,fencog,2,Pre,2022_Feb_08_1108,N-Back (New Version 2021),2021.1.4,120.19100771661809,
,,,,Conditions/Version_1/oneback(1)_v1.xlsx,New rule: Press 'space' when you see 1-back (i.e. the same letter as the one that appeared 1 letter ago.),P,None,,,,,,,,,0,1,1,1,0,6,6,6,,,,,,,,,,,,,,,,,,,,,,,,,,,,,,,,,,,,,,,,,,,,,,,,,,,,,,,,,,,,,,,,,,,,,1.0968,384.8180262001697,None,None,1,384.8180262001697,None,,P023,fencog,2,Pre,2022_Feb_08_1108,N-Back (New Version 2021),2021.1.4,120.19100771661809,
,,,,Conditions/Version_1/oneback(1)_v1.xlsx,New rule: Press 'space' when you see 1-back (i.e. the same letter as the one that appeared 1 letter ago.),o,None,,,,,,,,,0,1,1,1,0,7,7,7,,,,,,,,,,,,,,,,,,,,,,,,,,,,,,,,,,,,,,,,,,,,,,,,,,,,,,,,,,,,,,,,,,,,,1.0658,387.88757300004363,None,None,1,387.88757300004363,None,,P023,fencog,2,Pre,2022_Feb_08_1108,N-Back (New Version 2021),2021.1.4,120.19100771661809,
,,,,Conditions/Version_1/oneback(1)_v1.xlsx,New rule: Press 'space' when you see 1-back (i.e. the same letter as the one that appeared 1 letter ago.),f,None,,,,,,,,,0,1,1,1,0,8,8,8,,,,,,,,,,,,,,,,,,,,,,,,,,,,,,,,,,,,,,,,,,,,,,,,,,,,,,,,,,,,,,,,,,,,,1.7416,391.63293449999765,None,None,1,391.63293449999765,None,,P023,fencog,2,Pre,2022_Feb_08_1108,N-Back (New Version 2021),2021.1.4,120.19100771661809,
,,,,Conditions/Version_1/oneback(1)_v1.xlsx,New rule: Press 'space' when you see 1-back (i.e. the same letter as the one that appeared 1 letter ago.),F,space,,,,,,,,,0,1,1,1,0,9,9,9,,,,,,,,,,,,,,,,,,,,,,,,,,,,,,,,,,,,,,,,,,,,,,,,,,,,,,,,,,,,,,,,,,,,,1.4812,395.1225253001321,None,space,1,395.1225253001321,None,0.3866076001431793,P023,fencog,2,Pre,2022_Feb_08_1108,N-Back (New Version 2021),2021.1.4,120.19100771661809,
,,,,Conditions/Version_1/oneback(1)_v1.xlsx,New rule: Press 'space' when you see 1-back (i.e. the same letter as the one that appeared 1 letter ago.),,,,,,,,,,,0,1,1,1,,,,,,,,,,,,,,,,,,,,,,,,,,,,,,,,,,,,,,,,,,,,,,,,,,,,,,,,,,,,,,,,,,,,,,,,,,,,,,,,,P023,fencog,2,Pre,2022_Feb_08_1108,N-Back (New Version 2021),2021.1.4,120.19100771661809,
,,,,Conditions/Version_1/twoback(1)_v1.xlsx,New rule: Press 'space' when you see 2-back (i.e. the same letter as the one that appeared 2 letters ago.),b,None,,,,,,,,,0,2,2,2,0,0,0,0,,,,,,,,,,,,,,,,,,,,,,,,,,,,,,,,,,,,,,,,,,,,,,,,,,,,,,,,,,,397.14268120005727,None,400.13480900018476,None,space,0.9742570000234991,400.13480900018476,None,397.14268120005727,None,1.2518,402.388646800071,None,None,1,402.388646800071,None,,P023,fencog,2,Pre,2022_Feb_08_1108,N-Back (New Version 2021),2021.1.4,120.19100771661809,
,,,,Conditions/Version_1/twoback(1)_v1.xlsx,New rule: Press 'space' when you see 2-back (i.e. the same letter as the one that appeared 2 letters ago.),h,None,,,,,,,,,0,2,2,2,0,1,1,1,,,,,,,,,,,,,,,,,,,,,,,,,,,,,,,,,,,,,,,,,,,,,,,,,,,,,,,,,,,,,,,,,,,,,1.1774,405.57995750010014,None,None,1,405.57995750010014,None,,P023,fencog,2,Pre,2022_Feb_08_1108,N-Back (New Version 2021),2021.1.4,120.19100771661809,
,,,,Conditions/Version_1/twoback(1)_v1.xlsx,New rule: Press 'space' when you see 2-back (i.e. the same letter as the one that appeared 2 letters ago.),j,None,,,,,,,,,0,2,2,2,0,2,2,2,,,,,,,,,,,,,,,,,,,,,,,,,,,,,,,,,,,,,,,,,,,,,,,,,,,,,,,,,,,,,,,,,,,,,1.7912,409.3813116000965,None,None,1,409.3813116000965,None,,P023,fencog,2,Pre,2022_Feb_08_1108,N-Back (New Version 2021),2021.1.4,120.19100771661809,
,,,,Conditions/Version_1/twoback(1)_v1.xlsx,New rule: Press 'space' when you see 2-back (i.e. the same letter as the one that appeared 2 letters ago.),H,space,,,,,,,,,0,2,2,2,0,3,3,3,,,,,,,,,,,,,,,,,,,,,,,,,,,,,,,,,,,,,,,,,,,,,,,,,,,,,,,,,,,,,,,,,,,,,1.8098,413.2022718000226,None,space,1,413.2022718000226,None,0.49900899990461767,P023,fencog,2,Pre,2022_Feb_08_1108,N-Back (New Version 2021),2021.1.4,120.19100771661809,
,,,,Conditions/Version_1/twoback(1)_v1.xlsx,New rule: Press 'space' when you see 2-back (i.e. the same letter as the one that appeared 2 letters ago.),p,None,,,,,,,,,0,2,2,2,0,4,4,4,,,,,,,,,,,,,,,,,,,,,,,,,,,,,,,,,,,,,,,,,,,,,,,,,,,,,,,,,,,,,,,,,,,,,1.7664,416.9754648001399,None,None,1,416.9754648001399,None,,P023,fencog,2,Pre,2022_Feb_08_1108,N-Back (New Version 2021),2021.1.4,120.19100771661809,
,,,,Conditions/Version_1/twoback(1)_v1.xlsx,New rule: Press 'space' when you see 2-back (i.e. the same letter as the one that appeared 2 letters ago.),p,None,,,,,,,,,0,2,2,2,0,5,5,5,,,,,,,,,,,,,,,,,,,,,,,,,,,,,,,,,,,,,,,,,,,,,,,,,,,,,,,,,,,,,,,,,,,,,1.382,420.35806160001084,None,None,1,420.35806160001084,None,,P023,fencog,2,Pre,2022_Feb_08_1108,N-Back (New Version 2021),2021.1.4,120.19100771661809,
,,,,Conditions/Version_1/twoback(1)_v1.xlsx,New rule: Press 'space' when you see 2-back (i.e. the same letter as the one that appeared 2 letters ago.),w,None,,,,,,,,,0,2,2,2,0,6,6,6,,,,,,,,,,,,,,,,,,,,,,,,,,,,,,,,,,,,,,,,,,,,,,,,,,,,,,,,,,,,,,,,,,,,,1.7044,424.0667069000192,None,None,1,424.0667069000192,None,,P023,fencog,2,Pre,2022_Feb_08_1108,N-Back (New Version 2021),2021.1.4,120.19100771661809,
,,,,Conditions/Version_1/twoback(1)_v1.xlsx,New rule: Press 'space' when you see 2-back (i.e. the same letter as the one that appeared 2 letters ago.),R,None,,,,,,,,,0,2,2,2,0,7,7,7,,,,,,,,,,,,,,,,,,,,,,,,,,,,,,,,,,,,,,,,,,,,,,,,,,,,,,,,,,,,,,,,,,,,,1.816,427.88865520013496,None,None,1,427.88865520013496,None,,P023,fencog,2,Pre,2022_Feb_08_1108,N-Back (New Version 2021),2021.1.4,120.19100771661809,
,,,,Conditions/Version_1/twoback(1)_v1.xlsx,New rule: Press 'space' when you see 2-back (i.e. the same letter as the one that appeared 2 letters ago.),a,None,,,,,,,,,0,2,2,2,0,8,8,8,,,,,,,,,,,,,,,,,,,,,,,,,,,,,,,,,,,,,,,,,,,,,,,,,,,,,,,,,,,,,,,,,,,,,1.1464,431.04038580018096,None,None,1,431.04038580018096,None,,P023,fencog,2,Pre,2022_Feb_08_1108,N-Back (New Version 2021),2021.1.4,120.19100771661809,
,,,,Conditions/Version_1/twoback(1)_v1.xlsx,New rule: Press 'space' when you see 2-back (i.e. the same letter as the one that appeared 2 letters ago.),r,space,,,,,,,,,0,2,2,2,0,9,9,9,,,,,,,,,,,,,,,,,,,,,,,,,,,,,,,,,,,,,,,,,,,,,,,,,,,,,,,,,,,,,,,,,,,,,1.32,434.37007450009696,None,space,1,434.37007450009696,None,0.45903779985383153,P023,fencog,2,Pre,2022_Feb_08_1108,N-Back (New Version 2021),2021.1.4,120.19100771661809,
,,,,Conditions/Version_1/twoback(1)_v1.xlsx,New rule: Press 'space' when you see 2-back (i.e. the same letter as the one that appeared 2 letters ago.),,,,,,,,,,,0,2,2,2,,,,,,,,,,,,,,,,,,,,,,,,,,,,,,,,,,,,,,,,,,,,,,,,,,,,,,,,,,,,,,,,,,,,,,,,,,,,,,,,,P023,fencog,2,Pre,2022_Feb_08_1108,N-Back (New Version 2021),2021.1.4,120.19100771661809,
,,,,Conditions/Version_1/threeback(1)_v1.xlsx,New rule: Press 'space' when you see 3-back (i.e. the same letter as the one that appeared 3 letters ago.),r,None,,,,,,,,,0,3,3,3,0,0,0,0,,,,,,,,,,,,,,,,,,,,,,,,,,,,,,,,,,,,,,,,,,,,,,,,,,,,,,,,,,,436.3904411001131,None,439.379251500126,None,space,25.94620390003547,439.379251500126,None,436.3904411001131,None,1.3386,466.7023101001978,None,None,1,466.7023101001978,None,,P023,fencog,2,Pre,2022_Feb_08_1108,N-Back (New Version 2021),2021.1.4,120.19100771661809,
,,,,Conditions/Version_1/threeback(1)_v1.xlsx,New rule: Press 'space' when you see 3-back (i.e. the same letter as the one that appeared 3 letters ago.),o,None,,,,,,,,,0,3,3,3,0,1,1,1,,,,,,,,,,,,,,,,,,,,,,,,,,,,,,,,,,,,,,,,,,,,,,,,,,,,,,,,,,,,,,,,,,,,,1.6176,470.3264611000195,None,None,1,470.3264611000195,None,,P023,fencog,2,Pre,2022_Feb_08_1108,N-Back (New Version 2021),2021.1.4,120.19100771661809,
,,,,Conditions/Version_1/threeback(1)_v1.xlsx,New rule: Press 'space' when you see 3-back (i.e. the same letter as the one that appeared 3 letters ago.),P,None,,,,,,,,,0,3,3,3,0,2,2,2,,,,,,,,,,,,,,,,,,,,,,,,,,,,,,,,,,,,,,,,,,,,,,,,,,,,,,,,,,,,,,,,,,,,,1.9276,474.26017939997837,None,None,1,474.26017939997837,None,,P023,fencog,2,Pre,2022_Feb_08_1108,N-Back (New Version 2021),2021.1.4,120.19100771661809,
,,,,Conditions/Version_1/threeback(1)_v1.xlsx,New rule: Press 'space' when you see 3-back (i.e. the same letter as the one that appeared 3 letters ago.),R,space,,,,,,,,,0,3,3,3,0,3,3,3,,,,,,,,,,,,,,,,,,,,,,,,,,,,,,,,,,,,,,,,,,,,,,,,,,,,,,,,,,,,,,,,,,,,,1.01,477.28318110015243,None,space,1,477.28318110015243,None,0.5138691000174731,P023,fencog,2,Pre,2022_Feb_08_1108,N-Back (New Version 2021),2021.1.4,120.19100771661809,
,,,,Conditions/Version_1/threeback(1)_v1.xlsx,New rule: Press 'space' when you see 3-back (i.e. the same letter as the one that appeared 3 letters ago.),p,None,,,,,,,,,0,3,3,3,0,4,4,4,,,,,,,,,,,,,,,,,,,,,,,,,,,,,,,,,,,,,,,,,,,,,,,,,,,,,,,,,,,,,,,,,,,,,1.9586,481.24809860019013,None,None,1,481.24809860019013,None,,P023,fencog,2,Pre,2022_Feb_08_1108,N-Back (New Version 2021),2021.1.4,120.19100771661809,
,,,,Conditions/Version_1/threeback(1)_v1.xlsx,New rule: Press 'space' when you see 3-back (i.e. the same letter as the one that appeared 3 letters ago.),E,None,,,,,,,,,0,3,3,3,0,5,5,5,,,,,,,,,,,,,,,,,,,,,,,,,,,,,,,,,,,,,,,,,,,,,,,,,,,,,,,,,,,,,,,,,,,,,1.2084,484.45536080002785,None,None,1,484.45536080002785,None,,P023,fencog,2,Pre,2022_Feb_08_1108,N-Back (New Version 2021),2021.1.4,120.19100771661809,
,,,,Conditions/Version_1/threeback(1)_v1.xlsx,New rule: Press 'space' when you see 3-back (i.e. the same letter as the one that appeared 3 letters ago.),e,None,,,,,,,,,0,3,3,3,0,6,6,6,,,,,,,,,,,,,,,,,,,,,,,,,,,,,,,,,,,,,,,,,,,,,,,,,,,,,,,,,,,,,,,,,,,,,1.568,488.02933580009267,None,None,1,488.02933580009267,None,,P023,fencog,2,Pre,2022_Feb_08_1108,N-Back (New Version 2021),2021.1.4,120.19100771661809,
,,,,Conditions/Version_1/threeback(1)_v1.xlsx,New rule: Press 'space' when you see 3-back (i.e. the same letter as the one that appeared 3 letters ago.),m,None,,,,,,,,,0,3,3,3,0,7,7,7,,,,,,,,,,,,,,,,,,,,,,,,,,,,,,,,,,,,,,,,,,,,,,,,,,,,,,,,,,,,,,,,,,,,,1.878,491.9126093001105,None,None,1,491.9126093001105,None,,P023,fencog,2,Pre,2022_Feb_08_1108,N-Back (New Version 2021),2021.1.4,120.19100771661809,
,,,,Conditions/Version_1/threeback(1)_v1.xlsx,New rule: Press 'space' when you see 3-back (i.e. the same letter as the one that appeared 3 letters ago.),n,None,,,,,,,,,0,3,3,3,0,8,8,8,,,,,,,,,,,,,,,,,,,,,,,,,,,,,,,,,,,,,,,,,,,,,,,,,,,,,,,,,,,,,,,,,,,,,1.4626,495.38929970003664,None,None,1,495.38929970003664,None,,P023,fencog,2,Pre,2022_Feb_08_1108,N-Back (New Version 2021),2021.1.4,120.19100771661809,
,,,,Conditions/Version_1/threeback(1)_v1.xlsx,New rule: Press 'space' when you see 3-back (i.e. the same letter as the one that appeared 3 letters ago.),e,space,,,,,,,,,0,3,3,3,0,9,9,9,,,,,,,,,,,,,,,,,,,,,,,,,,,,,,,,,,,,,,,,,,,,,,,,,,,,,,,,,,,,,,,,,,,,,1.4316,498.82620650017634,None,None,0,498.82620650017634,None,,P023,fencog,2,Pre,2022_Feb_08_1108,N-Back (New Version 2021),2021.1.4,120.19100771661809,
,,,,Conditions/Version_1/threeback(1)_v1.xlsx,New rule: Press 'space' when you see 3-back (i.e. the same letter as the one that appeared 3 letters ago.),,,,,,,,,,,0,3,3,3,,,,,,,,,,,,,,,,,,,,,,,,,,,,,,,,,,,,,,,,,,,,,,,,,,,,,,,,,,,,,,,,,,,,,,,,,,,,,,,,,P023,fencog,2,Pre,2022_Feb_08_1108,N-Back (New Version 2021),2021.1.4,120.19100771661809,
,,,,Conditions/Version_1/oneback(2)_v1.xlsx,New rule: Press 'space' when you see 1-back (i.e. the same letter as the one that appeared 1 letter ago.),q,None,,,,,,,,,0,4,4,4,0,0,0,0,,,,,,,,,,,,,,,,,,,,,,,,,,,,,,,,,,,,,,,,,,,,,,,,,,,,,,,,,,,500.85199029999785,None,503.83782969997264,None,space,0.2554823998361826,503.83782969997264,None,500.85199029999785,None,1.4254,505.54964040010236,None,None,1,505.54964040010236,None,,P023,fencog,2,Pre,2022_Feb_08_1108,N-Back (New Version 2021),2021.1.4,120.19100771661809,
,,,,Conditions/Version_1/oneback(2)_v1.xlsx,New rule: Press 'space' when you see 1-back (i.e. the same letter as the one that appeared 1 letter ago.),Q,space,,,,,,,,,0,4,4,4,0,1,1,1,,,,,,,,,,,,,,,,,,,,,,,,,,,,,,,,,,,,,,,,,,,,,,,,,,,,,,,,,,,,,,,,,,,,,1.0472,508.59901960007846,None,space,1,508.59901960007846,None,0.350271699950099,P023,fencog,2,Pre,2022_Feb_08_1108,N-Back (New Version 2021),2021.1.4,120.19100771661809,
,,,,Conditions/Version_1/oneback(2)_v1.xlsx,New rule: Press 'space' when you see 1-back (i.e. the same letter as the one that appeared 1 letter ago.),P,None,,,,,,,,,0,4,4,4,0,2,2,2,,,,,,,,,,,,,,,,,,,,,,,,,,,,,,,,,,,,,,,,,,,,,,,,,,,,,,,,,,,,,,,,,,,,,1.3262,511.9390060000587,None,None,1,511.9390060000587,None,,P023,fencog,2,Pre,2022_Feb_08_1108,N-Back (New Version 2021),2021.1.4,120.19100771661809,
,,,,Conditions/Version_1/oneback(2)_v1.xlsx,New rule: Press 'space' when you see 1-back (i.e. the same letter as the one that appeared 1 letter ago.),o,None,,,,,,,,,0,4,4,4,0,3,3,3,,,,,,,,,,,,,,,,,,,,,,,,,,,,,,,,,,,,,,,,,,,,,,,,,,,,,,,,,,,,,,,,,,,,,1.9276,515.8712631000672,None,None,1,515.8712631000672,None,,P023,fencog,2,Pre,2022_Feb_08_1108,N-Back (New Version 2021),2021.1.4,120.19100771661809,
,,,,Conditions/Version_1/oneback(2)_v1.xlsx,New rule: Press 'space' when you see 1-back (i.e. the same letter as the one that appeared 1 letter ago.),m,None,,,,,,,,,0,4,4,4,0,4,4,4,,,,,,,,,,,,,,,,,,,,,,,,,,,,,,,,,,,,,,,,,,,,,,,,,,,,,,,,,,,,,,,,,,,,,1.32,519.1958056001458,None,None,1,519.1958056001458,None,,P023,fencog,2,Pre,2022_Feb_08_1108,N-Back (New Version 2021),2021.1.4,120.19100771661809,
,,,,Conditions/Version_1/oneback(2)_v1.xlsx,New rule: Press 'space' when you see 1-back (i.e. the same letter as the one that appeared 1 letter ago.),Z,None,,,,,,,,,0,4,4,4,0,5,5,5,,,,,,,,,,,,,,,,,,,,,,,,,,,,,,,,,,,,,,,,,,,,,,,,,,,,,,,,,,,,,,,,,,,,,1.165,522.3727928001899,None,None,1,522.3727928001899,None,,P023,fencog,2,Pre,2022_Feb_08_1108,N-Back (New Version 2021),2021.1.4,120.19100771661809,
,,,,Conditions/Version_1/oneback(2)_v1.xlsx,New rule: Press 'space' when you see 1-back (i.e. the same letter as the one that appeared 1 letter ago.),c,None,,,,,,,,,0,4,4,4,0,6,6,6,,,,,,,,,,,,,,,,,,,,,,,,,,,,,,,,,,,,,,,,,,,,,,,,,,,,,,,,,,,,,,,,,,,,,1.8036,526.185168800177,None,None,1,526.185168800177,None,,P023,fencog,2,Pre,2022_Feb_08_1108,N-Back (New Version 2021),2021.1.4,120.19100771661809,
,,,,Conditions/Version_1/oneback(2)_v1.xlsx,New rule: Press 'space' when you see 1-back (i.e. the same letter as the one that appeared 1 letter ago.),c,space,,,,,,,,,0,4,4,4,0,7,7,7,,,,,,,,,,,,,,,,,,,,,,,,,,,,,,,,,,,,,,,,,,,,,,,,,,,,,,,,,,,,,,,,,,,,,1.4936,529.6836839001626,None,space,1,529.6836839001626,None,0.3455678001046181,P023,fencog,2,Pre,2022_Feb_08_1108,N-Back (New Version 2021),2021.1.4,120.19100771661809,
,,,,Conditions/Version_1/oneback(2)_v1.xlsx,New rule: Press 'space' when you see 1-back (i.e. the same letter as the one that appeared 1 letter ago.),P,None,,,,,,,,,0,4,4,4,0,8,8,8,,,,,,,,,,,,,,,,,,,,,,,,,,,,,,,,,,,,,,,,,,,,,,,,,,,,,,,,,,,,,,,,,,,,,1.6176,533.3085239999928,None,None,1,533.3085239999928,None,,P023,fencog,2,Pre,2022_Feb_08_1108,N-Back (New Version 2021),2021.1.4,120.19100771661809,
,,,,Conditions/Version_1/oneback(2)_v1.xlsx,New rule: Press 'space' when you see 1-back (i.e. the same letter as the one that appeared 1 letter ago.),p,space,,,,,,,,,0,4,4,4,0,9,9,9,,,,,,,,,,,,,,,,,,,,,,,,,,,,,,,,,,,,,,,,,,,,,,,,,,,,,,,,,,,,,,,,,,,,,1.0286,536.3485050001182,None,space,1,536.3485050001182,None,0.34490460017696023,P023,fencog,2,Pre,2022_Feb_08_1108,N-Back (New Version 2021),2021.1.4,120.19100771661809,
,,,,Conditions/Version_1/oneback(2)_v1.xlsx,New rule: Press 'space' when you see 1-back (i.e. the same letter as the one that appeared 1 letter ago.),,,,,,,,,,,0,4,4,4,,,,,,,,,,,,,,,,,,,,,,,,,,,,,,,,,,,,,,,,,,,,,,,,,,,,,,,,,,,,,,,,,,,,,,,,,,,,,,,,,P023,fencog,2,Pre,2022_Feb_08_1108,N-Back (New Version 2021),2021.1.4,120.19100771661809,
,,,,Conditions/Version_1/zeroback(2)_v1.xlsx,New rule: Press 'space' when you see the letter 'x' or 'X'.,p,None,,,,,,,,,0,5,5,5,0,0,0,0,,,,,,,,,,,,,,,,,,,,,,,,,,,,,,,,,,,,,,,,,,,,,,,,,,,,,,,,,,,538.3706573001109,None,541.3565297001041,None,space,3.4005191000178456,541.3565297001041,None,538.3706573001109,None,1.816,546.6039369001519,None,None,1,546.6039369001519,None,,P023,fencog,2,Pre,2022_Feb_08_1108,N-Back (New Version 2021),2021.1.4,120.19100771661809,
,,,,Conditions/Version_1/zeroback(2)_v1.xlsx,New rule: Press 'space' when you see the letter 'x' or 'X'.,L,None,,,,,,,,,0,5,5,5,0,1,1,1,,,,,,,,,,,,,,,,,,,,,,,,,,,,,,,,,,,,,,,,,,,,,,,,,,,,,,,,,,,,,,,,,,,,,1.754,550.3637552000582,None,None,1,550.3637552000582,None,,P023,fencog,2,Pre,2022_Feb_08_1108,N-Back (New Version 2021),2021.1.4,120.19100771661809,
,,,,Conditions/Version_1/zeroback(2)_v1.xlsx,New rule: Press 'space' when you see the letter 'x' or 'X'.,G,None,,,,,,,,,0,5,5,5,0,2,2,2,,,,,,,,,,,,,,,,,,,,,,,,,,,,,,,,,,,,,,,,,,,,,,,,,,,,,,,,,,,,,,,,,,,,,1.8346,554.2112976000644,None,None,1,554.2112976000644,None,,P023,fencog,2,Pre,2022_Feb_08_1108,N-Back (New Version 2021),2021.1.4,120.19100771661809,
,,,,Conditions/Version_1/zeroback(2)_v1.xlsx,New rule: Press 'space' when you see the letter 'x' or 'X'.,y,None,,,,,,,,,0,5,5,5,0,3,3,3,,,,,,,,,,,,,,,,,,,,,,,,,,,,,,,,,,,,,,,,,,,,,,,,,,,,,,,,,,,,,,,,,,,,,1.4936,557.7085653000977,None,None,1,557.7085653000977,None,,P023,fencog,2,Pre,2022_Feb_08_1108,N-Back (New Version 2021),2021.1.4,120.19100771661809,
,,,,Conditions/Version_1/zeroback(2)_v1.xlsx,New rule: Press 'space' when you see the letter 'x' or 'X'.,Y,None,,,,,,,,,0,5,5,5,0,4,4,4,,,,,,,,,,,,,,,,,,,,,,,,,,,,,,,,,,,,,,,,,,,,,,,,,,,,,,,,,,,,,,,,,,,,,1.2704,560.9840437001549,None,None,1,560.9840437001549,None,,P023,fencog,2,Pre,2022_Feb_08_1108,N-Back (New Version 2021),2021.1.4,120.19100771661809,
,,,,Conditions/Version_1/zeroback(2)_v1.xlsx,New rule: Press 'space' when you see the letter 'x' or 'X'.,W,None,,,,,,,,,0,5,5,5,0,5,5,5,,,,,,,,,,,,,,,,,,,,,,,,,,,,,,,,,,,,,,,,,,,,,,,,,,,,,,,,,,,,,,,,,,,,,1.5742,564.5662410000805,None,None,1,564.5662410000805,None,,P023,fencog,2,Pre,2022_Feb_08_1108,N-Back (New Version 2021),2021.1.4,120.19100771661809,
,,,,Conditions/Version_1/zeroback(2)_v1.xlsx,New rule: Press 'space' when you see the letter 'x' or 'X'.,x,space,,,,,,,,,0,5,5,5,0,6,6,6,,,,,,,,,,,,,,,,,,,,,,,,,,,,,,,,,,,,,,,,,,,,,,,,,,,,,,,,,,,,,,,,,,,,,1.5804,568.1556791001931,None,space,1,568.1556791001931,None,0.2975409999489784,P023,fencog,2,Pre,2022_Feb_08_1108,N-Back (New Version 2021),2021.1.4,120.19100771661809,
,,,,Conditions/Version_1/zeroback(2)_v1.xlsx,New rule: Press 'space' when you see the letter 'x' or 'X'.,X,space,,,,,,,,,0,5,5,5,0,7,7,7,,,,,,,,,,,,,,,,,,,,,,,,,,,,,,,,,,,,,,,,,,,,,,,,,,,,,,,,,,,,,,,,,,,,,1.2952,571.4545120000839,None,space,1,571.4545120000839,None,0.31861609988845885,P023,fencog,2,Pre,2022_Feb_08_1108,N-Back (New Version 2021),2021.1.4,120.19100771661809,
,,,,Conditions/Version_1/zeroback(2)_v1.xlsx,New rule: Press 'space' when you see the letter 'x' or 'X'.,p,None,,,,,,,,,0,5,5,5,0,8,8,8,,,,,,,,,,,,,,,,,,,,,,,,,,,,,,,,,,,,,,,,,,,,,,,,,,,,,,,,,,,,,,,,,,,,,1.847,575.3033557999879,None,None,1,575.3033557999879,None,,P023,fencog,2,Pre,2022_Feb_08_1108,N-Back (New Version 2021),2021.1.4,120.19100771661809,
,,,,Conditions/Version_1/zeroback(2)_v1.xlsx,New rule: Press 'space' when you see the letter 'x' or 'X'.,h,None,,,,,,,,,0,5,5,5,0,9,9,9,,,,,,,,,,,,,,,,,,,,,,,,,,,,,,,,,,,,,,,,,,,,,,,,,,,,,,,,,,,,,,,,,,,,,1.6796,578.9856615001336,None,None,1,578.9856615001336,None,,P023,fencog,2,Pre,2022_Feb_08_1108,N-Back (New Version 2021),2021.1.4,120.19100771661809,
,,,,Conditions/Version_1/zeroback(2)_v1.xlsx,New rule: Press 'space' when you see the letter 'x' or 'X'.,,,,,,,,,,,0,5,5,5,,,,,,,,,,,,,,,,,,,,,,,,,,,,,,,,,,,,,,,,,,,,,,,,,,,,,,,,,,,,,,,,,,,,,,,,,,,,,,,,,P023,fencog,2,Pre,2022_Feb_08_1108,N-Back (New Version 2021),2021.1.4,120.19100771661809,
,,,,Conditions/Version_1/threeback(2)_v1.xlsx,New rule: Press 'space' when you see 3-back (i.e. the same letter as the one that appeared 3 letters ago.),q,None,,,,,,,,,0,6,6,6,0,0,0,0,,,,,,,,,,,,,,,,,,,,,,,,,,,,,,,,,,,,,,,,,,,,,,,,,,,,,,,,,,,581.0072966001462,None,583.9946096001659,None,space,135.29045560001396,583.9946096001659,None,581.0072966001462,None,1.5122,720.8195514001418,None,None,1,720.8195514001418,None,,P023,fencog,2,Pre,2022_Feb_08_1108,N-Back (New Version 2021),2021.1.4,120.19100771661809,
,,,,Conditions/Version_1/threeback(2)_v1.xlsx,New rule: Press 'space' when you see 3-back (i.e. the same letter as the one that appeared 3 letters ago.),Y,None,,,,,,,,,0,6,6,6,0,1,1,1,,,,,,,,,,,,,,,,,,,,,,,,,,,,,,,,,,,,,,,,,,,,,,,,,,,,,,,,,,,,,,,,,,,,,1.0224,723.851542300079,None,None,1,723.851542300079,None,,P023,fencog,2,Pre,2022_Feb_08_1108,N-Back (New Version 2021),2021.1.4,120.19100771661809,
,,,,Conditions/Version_1/threeback(2)_v1.xlsx,New rule: Press 'space' when you see 3-back (i.e. the same letter as the one that appeared 3 letters ago.),p,None,,,,,,,,,0,6,6,6,0,2,2,2,,,,,,,,,,,,,,,,,,,,,,,,,,,,,,,,,,,,,,,,,,,,,,,,,,,,,,,,,,,,,,,,,,,,,1.6548,727.5086482001934,None,None,1,727.5086482001934,None,,P023,fencog,2,Pre,2022_Feb_08_1108,N-Back (New Version 2021),2021.1.4,120.19100771661809,
,,,,Conditions/Version_1/threeback(2)_v1.xlsx,New rule: Press 'space' when you see 3-back (i.e. the same letter as the one that appeared 3 letters ago.),p,None,,,,,,,,,0,6,6,6,0,3,3,3,,,,,,,,,,,,,,,,,,,,,,,,,,,,,,,,,,,,,,,,,,,,,,,,,,,,,,,,,,,,,,,,,,,,,1.3448,730.8580465000123,None,space,0,730.8580465000123,None,0.34708279999904335,P023,fencog,2,Pre,2022_Feb_08_1108,N-Back (New Version 2021),2021.1.4,120.19100771661809,
,,,,Conditions/Version_1/threeback(2)_v1.xlsx,New rule: Press 'space' when you see 3-back (i.e. the same letter as the one that appeared 3 letters ago.),y,space,,,,,,,,,0,6,6,6,0,4,4,4,,,,,,,,,,,,,,,,,,,,,,,,,,,,,,,,,,,,,,,,,,,,,,,,,,,,,,,,,,,,,,,,,,,,,1.5494,734.4072772001382,None,space,1,734.4072772001382,None,0.4778837999328971,P023,fencog,2,Pre,2022_Feb_08_1108,N-Back (New Version 2021),2021.1.4,120.19100771661809,
,,,,Conditions/Version_1/threeback(2)_v1.xlsx,New rule: Press 'space' when you see 3-back (i.e. the same letter as the one that appeared 3 letters ago.),u,None,,,,,,,,,0,6,6,6,0,5,5,5,,,,,,,,,,,,,,,,,,,,,,,,,,,,,,,,,,,,,,,,,,,,,,,,,,,,,,,,,,,,,,,,,,,,,1.9586,738.372544300044,None,None,1,738.372544300044,None,,P023,fencog,2,Pre,2022_Feb_08_1108,N-Back (New Version 2021),2021.1.4,120.19100771661809,
,,,,Conditions/Version_1/threeback(2)_v1.xlsx,New rule: Press 'space' when you see 3-back (i.e. the same letter as the one that appeared 3 letters ago.),P,space,,,,,,,,,0,6,6,6,0,6,6,6,,,,,,,,,,,,,,,,,,,,,,,,,,,,,,,,,,,,,,,,,,,,,,,,,,,,,,,,,,,,,,,,,,,,,1.2704,741.6462400001474,None,space,1,741.6462400001474,None,0.4947239998728037,P023,fencog,2,Pre,2022_Feb_08_1108,N-Back (New Version 2021),2021.1.4,120.19100771661809,
,,,,Conditions/Version_1/threeback(2)_v1.xlsx,New rule: Press 'space' when you see 3-back (i.e. the same letter as the one that appeared 3 letters ago.),a,None,,,,,,,,,0,6,6,6,0,7,7,7,,,,,,,,,,,,,,,,,,,,,,,,,,,,,,,,,,,,,,,,,,,,,,,,,,,,,,,,,,,,,,,,,,,,,1.5184,745.1736042001285,None,None,1,745.1736042001285,None,,P023,fencog,2,Pre,2022_Feb_08_1108,N-Back (New Version 2021),2021.1.4,120.19100771661809,
,,,,Conditions/Version_1/threeback(2)_v1.xlsx,New rule: Press 'space' when you see 3-back (i.e. the same letter as the one that appeared 3 letters ago.),U,space,,,,,,,,,0,6,6,6,0,8,8,8,,,,,,,,,,,,,,,,,,,,,,,,,,,,,,,,,,,,,,,,,,,,,,,,,,,,,,,,,,,,,,,,,,,,,1.1836,748.361028400017,None,None,0,748.361028400017,None,,P023,fencog,2,Pre,2022_Feb_08_1108,N-Back (New Version 2021),2021.1.4,120.19100771661809,
,,,,Conditions/Version_1/threeback(2)_v1.xlsx,New rule: Press 'space' when you see 3-back (i.e. the same letter as the one that appeared 3 letters ago.),q,None,,,,,,,,,0,6,6,6,0,9,9,9,,,,,,,,,,,,,,,,,,,,,,,,,,,,,,,,,,,,,,,,,,,,,,,,,,,,,,,,,,,,,,,,,,,,,1.351,751.7262509001885,None,None,1,751.7262509001885,None,,P023,fencog,2,Pre,2022_Feb_08_1108,N-Back (New Version 2021),2021.1.4,120.19100771661809,
,,,,Conditions/Version_1/threeback(2)_v1.xlsx,New rule: Press 'space' when you see 3-back (i.e. the same letter as the one that appeared 3 letters ago.),,,,,,,,,,,0,6,6,6,,,,,,,,,,,,,,,,,,,,,,,,,,,,,,,,,,,,,,,,,,,,,,,,,,,,,,,,,,,,,,,,,,,,,,,,,,,,,,,,,P023,fencog,2,Pre,2022_Feb_08_1108,N-Back (New Version 2021),2021.1.4,120.19100771661809,
,,,,Conditions/Version_1/twoback(2)_v1.xlsx,New rule: Press 'space' when you see 2-back (i.e. the same letter as the one that appeared 2 letters ago.),q,None,,,,,,,,,0,7,7,7,0,0,0,0,,,,,,,,,,,,,,,,,,,,,,,,,,,,,,,,,,,,,,,,,,,,,,,,,,,,,,,,,,,753.7564735000487,None,756.7455947999842,None,space,2.0275391000322998,756.7455947999842,None,753.7564735000487,None,1.4874,760.29067700007,None,None,1,760.29067700007,None,,P023,fencog,2,Pre,2022_Feb_08_1108,N-Back (New Version 2021),2021.1.4,120.19100771661809,
,,,,Conditions/Version_1/twoback(2)_v1.xlsx,New rule: Press 'space' when you see 2-back (i.e. the same letter as the one that appeared 2 letters ago.),r,None,,,,,,,,,0,7,7,7,0,1,1,1,,,,,,,,,,,,,,,,,,,,,,,,,,,,,,,,,,,,,,,,,,,,,,,,,,,,,,,,,,,,,,,,,,,,,1.0348,763.3405443001539,None,None,1,763.3405443001539,None,,P023,fencog,2,Pre,2022_Feb_08_1108,N-Back (New Version 2021),2021.1.4,120.19100771661809,
,,,,Conditions/Version_1/twoback(2)_v1.xlsx,New rule: Press 'space' when you see 2-back (i.e. the same letter as the one that appeared 2 letters ago.),q,space,,,,,,,,,0,7,7,7,0,2,2,2,,,,,,,,,,,,,,,,,,,,,,,,,,,,,,,,,,,,,,,,,,,,,,,,,,,,,,,,,,,,,,,,,,,,,1.6424,767.0049205000978,None,space,1,767.0049205000978,None,0.40806960011832416,P023,fencog,2,Pre,2022_Feb_08_1108,N-Back (New Version 2021),2021.1.4,120.19100771661809,
,,,,Conditions/Version_1/twoback(2)_v1.xlsx,New rule: Press 'space' when you see 2-back (i.e. the same letter as the one that appeared 2 letters ago.),P,None,,,,,,,,,0,7,7,7,0,3,3,3,,,,,,,,,,,,,,,,,,,,,,,,,,,,,,,,,,,,,,,,,,,,,,,,,,,,,,,,,,,,,,,,,,,,,1.506,770.5135061000474,None,None,1,770.5135061000474,None,,P023,fencog,2,Pre,2022_Feb_08_1108,N-Back (New Version 2021),2021.1.4,120.19100771661809,
,,,,Conditions/Version_1/twoback(2)_v1.xlsx,New rule: Press 'space' when you see 2-back (i.e. the same letter as the one that appeared 2 letters ago.),p,None,,,,,,,,,0,7,7,7,0,4,4,4,,,,,,,,,,,,,,,,,,,,,,,,,,,,,,,,,,,,,,,,,,,,,,,,,,,,,,,,,,,,,,,,,,,,,1.9586,774.4781330002006,None,None,1,774.4781330002006,None,,P023,fencog,2,Pre,2022_Feb_08_1108,N-Back (New Version 2021),2021.1.4,120.19100771661809,
,,,,Conditions/Version_1/twoback(2)_v1.xlsx,New rule: Press 'space' when you see 2-back (i.e. the same letter as the one that appeared 2 letters ago.),H,None,,,,,,,,,0,7,7,7,0,5,5,5,,,,,,,,,,,,,,,,,,,,,,,,,,,,,,,,,,,,,,,,,,,,,,,,,,,,,,,,,,,,,,,,,,,,,1.2518,777.73849290004,None,None,1,777.73849290004,None,,P023,fencog,2,Pre,2022_Feb_08_1108,N-Back (New Version 2021),2021.1.4,120.19100771661809,
,,,,Conditions/Version_1/twoback(2)_v1.xlsx,New rule: Press 'space' when you see 2-back (i.e. the same letter as the one that appeared 2 letters ago.),g,None,,,,,,,,,0,7,7,7,0,6,6,6,,,,,,,,,,,,,,,,,,,,,,,,,,,,,,,,,,,,,,,,,,,,,,,,,,,,,,,,,,,,,,,,,,,,,1.1464,780.8929962001275,None,None,1,780.8929962001275,None,,P023,fencog,2,Pre,2022_Feb_08_1108,N-Back (New Version 2021),2021.1.4,120.19100771661809,
,,,,Conditions/Version_1/twoback(2)_v1.xlsx,New rule: Press 'space' when you see 2-back (i.e. the same letter as the one that appeared 2 letters ago.),j,None,,,,,,,,,0,7,7,7,0,7,7,7,,,,,,,,,,,,,,,,,,,,,,,,,,,,,,,,,,,,,,,,,,,,,,,,,,,,,,,,,,,,,,,,,,,,,1.3634,784.2673112000339,None,None,1,784.2673112000339,None,,P023,fencog,2,Pre,2022_Feb_08_1108,N-Back (New Version 2021),2021.1.4,120.19100771661809,
,,,,Conditions/Version_1/twoback(2)_v1.xlsx,New rule: Press 'space' when you see 2-back (i.e. the same letter as the one that appeared 2 letters ago.),g,space,,,,,,,,,0,7,7,7,0,8,8,8,,,,,,,,,,,,,,,,,,,,,,,,,,,,,,,,,,,,,,,,,,,,,,,,,,,,,,,,,,,,,,,,,,,,,1.9028,788.1822635000572,None,space,1,788.1822635000572,None,0.5187521998304874,P023,fencog,2,Pre,2022_Feb_08_1108,N-Back (New Version 2021),2021.1.4,120.19100771661809,
,,,,Conditions/Version_1/twoback(2)_v1.xlsx,New rule: Press 'space' when you see 2-back (i.e. the same letter as the one that appeared 2 letters ago.),G,None,,,,,,,,,0,7,7,7,0,9,9,9,,,,,,,,,,,,,,,,,,,,,,,,,,,,,,,,,,,,,,,,,,,,,,,,,,,,,,,,,,,,,,,,,,,,,1.909,792.0987836001441,None,None,1,792.0987836001441,None,,P023,fencog,2,Pre,2022_Feb_08_1108,N-Back (New Version 2021),2021.1.4,120.19100771661809,
,,,,Conditions/Version_1/twoback(2)_v1.xlsx,New rule: Press 'space' when you see 2-back (i.e. the same letter as the one that appeared 2 letters ago.),,,,,,,,,,,0,7,7,7,,,,,,,,,,,,,,,,,,,,,,,,,,,,,,,,,,,,,,,,,,,,,,,,,,,,,,,,,,,,,,,,,,,,,,,,,,,,,,,,,P023,fencog,2,Pre,2022_Feb_08_1108,N-Back (New Version 2021),2021.1.4,120.19100771661809,
,,,,Conditions/Version_1/threeback(3)_v1.xlsx,New rule: Press 'space' when you see 3-back (i.e. the same letter as the one that appeared 3 letters ago.),w,None,,,,,,,,,0,8,8,8,0,0,0,0,,,,,,,,,,,,,,,,,,,,,,,,,,,,,,,,,,,,,,,,,,,,,,,,,,,,,,,,,,,794.1300372001715,None,797.1158671001904,None,space,12.177699799882248,797.1158671001904,None,794.1300372001715,None,1.9772,811.3013496000785,None,None,1,811.3013496000785,None,,P023,fencog,2,Pre,2022_Feb_08_1108,N-Back (New Version 2021),2021.1.4,120.19100771661809,
,,,,Conditions/Version_1/threeback(3)_v1.xlsx,New rule: Press 'space' when you see 3-back (i.e. the same letter as the one that appeared 3 letters ago.),p,None,,,,,,,,,0,8,8,8,0,1,1,1,,,,,,,,,,,,,,,,,,,,,,,,,,,,,,,,,,,,,,,,,,,,,,,,,,,,,,,,,,,,,,,,,,,,,1.785,815.0944507999811,None,None,1,815.0944507999811,None,,P023,fencog,2,Pre,2022_Feb_08_1108,N-Back (New Version 2021),2021.1.4,120.19100771661809,
,,,,Conditions/Version_1/threeback(3)_v1.xlsx,New rule: Press 'space' when you see 3-back (i.e. the same letter as the one that appeared 3 letters ago.),P,None,,,,,,,,,0,8,8,8,0,2,2,2,,,,,,,,,,,,,,,,,,,,,,,,,,,,,,,,,,,,,,,,,,,,,,,,,,,,,,,,,,,,,,,,,,,,,1.0472,818.1494335001335,None,None,1,818.1494335001335,None,,P023,fencog,2,Pre,2022_Feb_08_1108,N-Back (New Version 2021),2021.1.4,120.19100771661809,
,,,,Conditions/Version_1/threeback(3)_v1.xlsx,New rule: Press 'space' when you see 3-back (i.e. the same letter as the one that appeared 3 letters ago.),i,None,,,,,,,,,0,8,8,8,0,3,3,3,,,,,,,,,,,,,,,,,,,,,,,,,,,,,,,,,,,,,,,,,,,,,,,,,,,,,,,,,,,,,,,,,,,,,1.0596,821.2259798999876,None,None,1,821.2259798999876,None,,P023,fencog,2,Pre,2022_Feb_08_1108,N-Back (New Version 2021),2021.1.4,120.19100771661809,
,,,,Conditions/Version_1/threeback(3)_v1.xlsx,New rule: Press 'space' when you see 3-back (i.e. the same letter as the one that appeared 3 letters ago.),f,None,,,,,,,,,0,8,8,8,0,4,4,4,,,,,,,,,,,,,,,,,,,,,,,,,,,,,,,,,,,,,,,,,,,,,,,,,,,,,,,,,,,,,,,,,,,,,1.9958,825.23068960011,None,None,1,825.23068960011,None,,P023,fencog,2,Pre,2022_Feb_08_1108,N-Back (New Version 2021),2021.1.4,120.19100771661809,
,,,,Conditions/Version_1/threeback(3)_v1.xlsx,New rule: Press 'space' when you see 3-back (i.e. the same letter as the one that appeared 3 letters ago.),o,None,,,,,,,,,0,8,8,8,0,5,5,5,,,,,,,,,,,,,,,,,,,,,,,,,,,,,,,,,,,,,,,,,,,,,,,,,,,,,,,,,,,,,,,,,,,,,1.8098,829.0536875000689,None,None,1,829.0536875000689,None,,P023,fencog,2,Pre,2022_Feb_08_1108,N-Back (New Version 2021),2021.1.4,120.19100771661809,
,,,,Conditions/Version_1/threeback(3)_v1.xlsx,New rule: Press 'space' when you see 3-back (i.e. the same letter as the one that appeared 3 letters ago.),w,None,,,,,,,,,0,8,8,8,0,6,6,6,,,,,,,,,,,,,,,,,,,,,,,,,,,,,,,,,,,,,,,,,,,,,,,,,,,,,,,,,,,,,,,,,,,,,1.7478,832.8039510999806,None,None,1,832.8039510999806,None,,P023,fencog,2,Pre,2022_Feb_08_1108,N-Back (New Version 2021),2021.1.4,120.19100771661809,
,,,,Conditions/Version_1/threeback(3)_v1.xlsx,New rule: Press 'space' when you see 3-back (i.e. the same letter as the one that appeared 3 letters ago.),F,space,,,,,,,,,0,8,8,8,0,7,7,7,,,,,,,,,,,,,,,,,,,,,,,,,,,,,,,,,,,,,,,,,,,,,,,,,,,,,,,,,,,,,,,,,,,,,1.6672,836.4856607001275,None,None,0,836.4856607001275,None,,P023,fencog,2,Pre,2022_Feb_08_1108,N-Back (New Version 2021),2021.1.4,120.19100771661809,
,,,,Conditions/Version_1/threeback(3)_v1.xlsx,New rule: Press 'space' when you see 3-back (i.e. the same letter as the one that appeared 3 letters ago.),p,None,,,,,,,,,0,8,8,8,0,8,8,8,,,,,,,,,,,,,,,,,,,,,,,,,,,,,,,,,,,,,,,,,,,,,,,,,,,,,,,,,,,,,,,,,,,,,1.3634,839.8588886000216,None,None,1,839.8588886000216,None,,P023,fencog,2,Pre,2022_Feb_08_1108,N-Back (New Version 2021),2021.1.4,120.19100771661809,
,,,,Conditions/Version_1/threeback(3)_v1.xlsx,New rule: Press 'space' when you see 3-back (i.e. the same letter as the one that appeared 3 letters ago.),W,space,,,,,,,,,0,8,8,8,0,9,9,9,,,,,,,,,,,,,,,,,,,,,,,,,,,,,,,,,,,,,,,,,,,,,,,,,,,,,,,,,,,,,,,,,,,,,1.5122,843.3748578000814,None,space,1,843.3748578000814,None,0.5664723000954837,P023,fencog,2,Pre,2022_Feb_08_1108,N-Back (New Version 2021),2021.1.4,120.19100771661809,
,,,,Conditions/Version_1/threeback(3)_v1.xlsx,New rule: Press 'space' when you see 3-back (i.e. the same letter as the one that appeared 3 letters ago.),,,,,,,,,,,0,8,8,8,,,,,,,,,,,,,,,,,,,,,,,,,,,,,,,,,,,,,,,,,,,,,,,,,,,,,,,,,,,,,,,,,,,,,,,,,,,,,,,,,P023,fencog,2,Pre,2022_Feb_08_1108,N-Back (New Version 2021),2021.1.4,120.19100771661809,
,,,,Conditions/Version_1/zeroback(3)_v1.xlsx,New rule: Press 'space' when you see the letter 'x' or 'X'.,X,space,,,,,,,,,0,9,9,9,0,0,0,0,,,,,,,,,,,,,,,,,,,,,,,,,,,,,,,,,,,,,,,,,,,,,,,,,,,,,,,,,,,845.3973854000214,None,848.3834357999731,None,space,2.941572300158441,848.3834357999731,None,845.3973854000214,None,1.3572,852.7142825000919,None,space,1,852.7142825000919,None,0.7306870999746025,P023,fencog,2,Pre,2022_Feb_08_1108,N-Back (New Version 2021),2021.1.4,120.19100771661809,
,,,,Conditions/Version_1/zeroback(3)_v1.xlsx,New rule: Press 'space' when you see the letter 'x' or 'X'.,B,None,,,,,,,,,0,9,9,9,0,1,1,1,,,,,,,,,,,,,,,,,,,,,,,,,,,,,,,,,,,,,,,,,,,,,,,,,,,,,,,,,,,,,,,,,,,,,1.9772,856.7054215001408,None,None,1,856.7054215001408,None,,P023,fencog,2,Pre,2022_Feb_08_1108,N-Back (New Version 2021),2021.1.4,120.19100771661809,
,,,,Conditions/Version_1/zeroback(3)_v1.xlsx,New rule: Press 'space' when you see the letter 'x' or 'X'.,m,None,,,,,,,,,0,9,9,9,0,2,2,2,,,,,,,,,,,,,,,,,,,,,,,,,,,,,,,,,,,,,,,,,,,,,,,,,,,,,,,,,,,,,,,,,,,,,1.9028,860.6194456000812,None,None,1,860.6194456000812,None,,P023,fencog,2,Pre,2022_Feb_08_1108,N-Back (New Version 2021),2021.1.4,120.19100771661809,
,,,,Conditions/Version_1/zeroback(3)_v1.xlsx,New rule: Press 'space' when you see the letter 'x' or 'X'.,m,None,,,,,,,,,0,9,9,9,0,3,3,3,,,,,,,,,,,,,,,,,,,,,,,,,,,,,,,,,,,,,,,,,,,,,,,,,,,,,,,,,,,,,,,,,,,,,1.568,864.1933563000057,None,space,0,864.1933563000057,None,1.4760032000485808,P023,fencog,2,Pre,2022_Feb_08_1108,N-Back (New Version 2021),2021.1.4,120.19100771661809,
,,,,Conditions/Version_1/zeroback(3)_v1.xlsx,New rule: Press 'space' when you see the letter 'x' or 'X'.,o,None,,,,,,,,,0,9,9,9,0,4,4,4,,,,,,,,,,,,,,,,,,,,,,,,,,,,,,,,,,,,,,,,,,,,,,,,,,,,,,,,,,,,,,,,,,,,,1.8408,868.0339274001308,None,None,1,868.0339274001308,None,,P023,fencog,2,Pre,2022_Feb_08_1108,N-Back (New Version 2021),2021.1.4,120.19100771661809,
,,,,Conditions/Version_1/zeroback(3)_v1.xlsx,New rule: Press 'space' when you see the letter 'x' or 'X'.,p,None,,,,,,,,,0,9,9,9,0,5,5,5,,,,,,,,,,,,,,,,,,,,,,,,,,,,,,,,,,,,,,,,,,,,,,,,,,,,,,,,,,,,,,,,,,,,,1.041,871.074949900154,None,None,1,871.074949900154,None,,P023,fencog,2,Pre,2022_Feb_08_1108,N-Back (New Version 2021),2021.1.4,120.19100771661809,
,,,,Conditions/Version_1/zeroback(3)_v1.xlsx,New rule: Press 'space' when you see the letter 'x' or 'X'.,G,None,,,,,,,,,0,9,9,9,0,6,6,6,,,,,,,,,,,,,,,,,,,,,,,,,,,,,,,,,,,,,,,,,,,,,,,,,,,,,,,,,,,,,,,,,,,,,1.7912,874.8657913000789,None,None,1,874.8657913000789,None,,P023,fencog,2,Pre,2022_Feb_08_1108,N-Back (New Version 2021),2021.1.4,120.19100771661809,
,,,,Conditions/Version_1/zeroback(3)_v1.xlsx,New rule: Press 'space' when you see the letter 'x' or 'X'.,X,space,,,,,,,,,0,9,9,9,0,7,7,7,,,,,,,,,,,,,,,,,,,,,,,,,,,,,,,,,,,,,,,,,,,,,,,,,,,,,,,,,,,,,,,,,,,,,1.0906,877.9561689000111,None,space,1,877.9561689000111,None,0.3531396999023855,P023,fencog,2,Pre,2022_Feb_08_1108,N-Back (New Version 2021),2021.1.4,120.19100771661809,
,,,,Conditions/Version_1/zeroback(3)_v1.xlsx,New rule: Press 'space' when you see the letter 'x' or 'X'.,p,None,,,,,,,,,0,9,9,9,0,8,8,8,,,,,,,,,,,,,,,,,,,,,,,,,,,,,,,,,,,,,,,,,,,,,,,,,,,,,,,,,,,,,,,,,,,,,1.6734,881.6302959001623,None,None,1,881.6302959001623,None,,P023,fencog,2,Pre,2022_Feb_08_1108,N-Back (New Version 2021),2021.1.4,120.19100771661809,
,,,,Conditions/Version_1/zeroback(3)_v1.xlsx,New rule: Press 'space' when you see the letter 'x' or 'X'.,x,space,,,,,,,,,0,9,9,9,0,9,9,9,,,,,,,,,,,,,,,,,,,,,,,,,,,,,,,,,,,,,,,,,,,,,,,,,,,,,,,,,,,,,,,,,,,,,1.9896,885.6283857000526,None,space,1,885.6283857000526,None,0.32068030000664294,P023,fencog,2,Pre,2022_Feb_08_1108,N-Back (New Version 2021),2021.1.4,120.19100771661809,
,,,,Conditions/Version_1/zeroback(3)_v1.xlsx,New rule: Press 'space' when you see the letter 'x' or 'X'.,,,,,,,,,,,0,9,9,9,,,,,,,,,,,,,,,,,,,,,,,,,,,,,,,,,,,,,,,,,,,,,,,,,,,,,,,,,,,,,,,,,,,,,,,,,,,,,,,,,P023,fencog,2,Pre,2022_Feb_08_1108,N-Back (New Version 2021),2021.1.4,120.19100771661809,
,,,,Conditions/Version_1/twoback(3)_v1.xlsx,New rule: Press 'space' when you see 2-back (i.e. the same letter as the one that appeared 2 letters ago.),e,None,,,,,,,,,0,10,10,10,0,0,0,0,,,,,,,,,,,,,,,,,,,,,,,,,,,,,,,,,,,,,,,,,,,,,,,,,,,,,,,,,,,887.6514136001933,None,890.6376797000412,None,space,2.0952645998913795,890.6376797000412,None,887.6514136001933,None,1.2208,893.9845673001837,None,None,1,893.9845673001837,None,,P023,fencog,2,Pre,2022_Feb_08_1108,N-Back (New Version 2021),2021.1.4,120.19100771661809,
,,,,Conditions/Version_1/twoback(3)_v1.xlsx,New rule: Press 'space' when you see 2-back (i.e. the same letter as the one that appeared 2 letters ago.),o,None,,,,,,,,,0,10,10,10,0,1,1,1,,,,,,,,,,,,,,,,,,,,,,,,,,,,,,,,,,,,,,,,,,,,,,,,,,,,,,,,,,,,,,,,,,,,,1.01,897.0016665000003,None,None,1,897.0016665000003,None,,P023,fencog,2,Pre,2022_Feb_08_1108,N-Back (New Version 2021),2021.1.4,120.19100771661809,
,,,,Conditions/Version_1/twoback(3)_v1.xlsx,New rule: Press 'space' when you see 2-back (i.e. the same letter as the one that appeared 2 letters ago.),P,None,,,,,,,,,0,10,10,10,0,2,2,2,,,,,,,,,,,,,,,,,,,,,,,,,,,,,,,,,,,,,,,,,,,,,,,,,,,,,,,,,,,,,,,,,,,,,1.4936,900.5077100000344,None,None,1,900.5077100000344,None,,P023,fencog,2,Pre,2022_Feb_08_1108,N-Back (New Version 2021),2021.1.4,120.19100771661809,
,,,,Conditions/Version_1/twoback(3)_v1.xlsx,New rule: Press 'space' when you see 2-back (i.e. the same letter as the one that appeared 2 letters ago.),z,None,,,,,,,,,0,10,10,10,0,3,3,3,,,,,,,,,,,,,,,,,,,,,,,,,,,,,,,,,,,,,,,,,,,,,,,,,,,,,,,,,,,,,,,,,,,,,1.9524,904.4704650000203,None,None,1,904.4704650000203,None,,P023,fencog,2,Pre,2022_Feb_08_1108,N-Back (New Version 2021),2021.1.4,120.19100771661809,
,,,,Conditions/Version_1/twoback(3)_v1.xlsx,New rule: Press 'space' when you see 2-back (i.e. the same letter as the one that appeared 2 letters ago.),X,None,,,,,,,,,0,10,10,10,0,4,4,4,,,,,,,,,,,,,,,,,,,,,,,,,,,,,,,,,,,,,,,,,,,,,,,,,,,,,,,,,,,,,,,,,,,,,1.599,908.072490000166,None,None,1,908.072490000166,None,,P023,fencog,2,Pre,2022_Feb_08_1108,N-Back (New Version 2021),2021.1.4,120.19100771661809,
,,,,Conditions/Version_1/twoback(3)_v1.xlsx,New rule: Press 'space' when you see 2-back (i.e. the same letter as the one that appeared 2 letters ago.),z,space,,,,,,,,,0,10,10,10,0,5,5,5,,,,,,,,,,,,,,,,,,,,,,,,,,,,,,,,,,,,,,,,,,,,,,,,,,,,,,,,,,,,,,,,,,,,,1.1774,911.263381900033,None,space,1,911.263381900033,None,0.3817652000579983,P023,fencog,2,Pre,2022_Feb_08_1108,N-Back (New Version 2021),2021.1.4,120.19100771661809,
,,,,Conditions/Version_1/twoback(3)_v1.xlsx,New rule: Press 'space' when you see 2-back (i.e. the same letter as the one that appeared 2 letters ago.),x,space,,,,,,,,,0,10,10,10,0,6,6,6,,,,,,,,,,,,,,,,,,,,,,,,,,,,,,,,,,,,,,,,,,,,,,,,,,,,,,,,,,,,,,,,,,,,,1.5308,914.8043957999907,None,space,1,914.8043957999907,None,0.35261450009420514,P023,fencog,2,Pre,2022_Feb_08_1108,N-Back (New Version 2021),2021.1.4,120.19100771661809,
,,,,Conditions/Version_1/twoback(3)_v1.xlsx,New rule: Press 'space' when you see 2-back (i.e. the same letter as the one that appeared 2 letters ago.),c,None,,,,,,,,,0,10,10,10,0,7,7,7,,,,,,,,,,,,,,,,,,,,,,,,,,,,,,,,,,,,,,,,,,,,,,,,,,,,,,,,,,,,,,,,,,,,,1.3634,918.177956599975,None,None,1,918.177956599975,None,,P023,fencog,2,Pre,2022_Feb_08_1108,N-Back (New Version 2021),2021.1.4,120.19100771661809,
,,,,Conditions/Version_1/twoback(3)_v1.xlsx,New rule: Press 'space' when you see 2-back (i.e. the same letter as the one that appeared 2 letters ago.),i,None,,,,,,,,,0,10,10,10,0,8,8,8,,,,,,,,,,,,,,,,,,,,,,,,,,,,,,,,,,,,,,,,,,,,,,,,,,,,,,,,,,,,,,,,,,,,,1.9276,922.1122690001503,None,None,1,922.1122690001503,None,,P023,fencog,2,Pre,2022_Feb_08_1108,N-Back (New Version 2021),2021.1.4,120.19100771661809,
,,,,Conditions/Version_1/twoback(3)_v1.xlsx,New rule: Press 'space' when you see 2-back (i.e. the same letter as the one that appeared 2 letters ago.),C,space,,,,,,,,,0,10,10,10,0,9,9,9,,,,,,,,,,,,,,,,,,,,,,,,,,,,,,,,,,,,,,,,,,,,,,,,,,,,,,,,,,,,,,,,,,,,,1.0224,925.1437928001396,None,space,1,925.1437928001396,None,0.38135510007850826,P023,fencog,2,Pre,2022_Feb_08_1108,N-Back (New Version 2021),2021.1.4,120.19100771661809,
,,,,Conditions/Version_1/twoback(3)_v1.xlsx,New rule: Press 'space' when you see 2-back (i.e. the same letter as the one that appeared 2 letters ago.),,,,,,,,,,,0,10,10,10,,,,,,,,,,,,,,,,,,,,,,,,,,,,,,,,,,,,,,,,,,,,,,,,,,,,,,,,,,,,,,,,,,,,,,,,,,,,,,,,,P023,fencog,2,Pre,2022_Feb_08_1108,N-Back (New Version 2021),2021.1.4,120.19100771661809,
,,,,Conditions/Version_1/oneback(3)_v1.xlsx,New rule: Press 'space' when you see 1-back (i.e. the same letter as the one that appeared 1 letter ago.),o,None,,,,,,,,,0,11,11,11,0,0,0,0,,,,,,,,,,,,,,,,,,,,,,,,,,,,,,,,,,,,,,,,,,,,,,,,,,,,,,,,,,,927.1741417001467,None,930.1614181001205,None,space,1.523742400109768,930.1614181001205,None,927.1741417001467,None,1.2828,932.9982433000114,None,None,1,932.9982433000114,None,,P023,fencog,2,Pre,2022_Feb_08_1108,N-Back (New Version 2021),2021.1.4,120.19100771661809,
,,,,Conditions/Version_1/oneback(3)_v1.xlsx,New rule: Press 'space' when you see 1-back (i.e. the same letter as the one that appeared 1 letter ago.),O,space,,,,,,,,,0,11,11,11,0,1,1,1,,,,,,,,,,,,,,,,,,,,,,,,,,,,,,,,,,,,,,,,,,,,,,,,,,,,,,,,,,,,,,,,,,,,,1.9958,936.9974927001167,None,space,1,936.9974927001167,None,0.30373789998702705,P023,fencog,2,Pre,2022_Feb_08_1108,N-Back (New Version 2021),2021.1.4,120.19100771661809,
,,,,Conditions/Version_1/oneback(3)_v1.xlsx,New rule: Press 'space' when you see 1-back (i.e. the same letter as the one that appeared 1 letter ago.),h,None,,,,,,,,,0,11,11,11,0,2,2,2,,,,,,,,,,,,,,,,,,,,,,,,,,,,,,,,,,,,,,,,,,,,,,,,,,,,,,,,,,,,,,,,,,,,,1.8346,940.8459591001738,None,None,1,940.8459591001738,None,,P023,fencog,2,Pre,2022_Feb_08_1108,N-Back (New Version 2021),2021.1.4,120.19100771661809,
,,,,Conditions/Version_1/oneback(3)_v1.xlsx,New rule: Press 'space' when you see 1-back (i.e. the same letter as the one that appeared 1 letter ago.),g,None,,,,,,,,,0,11,11,11,0,3,3,3,,,,,,,,,,,,,,,,,,,,,,,,,,,,,,,,,,,,,,,,,,,,,,,,,,,,,,,,,,,,,,,,,,,,,1.9896,944.8366235001013,None,None,1,944.8366235001013,None,,P023,fencog,2,Pre,2022_Feb_08_1108,N-Back (New Version 2021),2021.1.4,120.19100771661809,
,,,,Conditions/Version_1/oneback(3)_v1.xlsx,New rule: Press 'space' when you see 1-back (i.e. the same letter as the one that appeared 1 letter ago.),n,None,,,,,,,,,0,11,11,11,0,4,4,4,,,,,,,,,,,,,,,,,,,,,,,,,,,,,,,,,,,,,,,,,,,,,,,,,,,,,,,,,,,,,,,,,,,,,1.1402,947.9773964001797,None,None,1,947.9773964001797,None,,P023,fencog,2,Pre,2022_Feb_08_1108,N-Back (New Version 2021),2021.1.4,120.19100771661809,
,,,,Conditions/Version_1/oneback(3)_v1.xlsx,New rule: Press 'space' when you see 1-back (i.e. the same letter as the one that appeared 1 letter ago.),z,None,,,,,,,,,0,11,11,11,0,5,5,5,,,,,,,,,,,,,,,,,,,,,,,,,,,,,,,,,,,,,,,,,,,,,,,,,,,,,,,,,,,,,,,,,,,,,1.2146,951.1937663001008,None,None,1,951.1937663001008,None,,P023,fencog,2,Pre,2022_Feb_08_1108,N-Back (New Version 2021),2021.1.4,120.19100771661809,
,,,,Conditions/Version_1/oneback(3)_v1.xlsx,New rule: Press 'space' when you see 1-back (i.e. the same letter as the one that appeared 1 letter ago.),X,None,,,,,,,,,0,11,11,11,0,6,6,6,,,,,,,,,,,,,,,,,,,,,,,,,,,,,,,,,,,,,,,,,,,,,,,,,,,,,,,,,,,,,,,,,,,,,1.0534,954.2585272002034,None,None,1,954.2585272002034,None,,P023,fencog,2,Pre,2022_Feb_08_1108,N-Back (New Version 2021),2021.1.4,120.19100771661809,
,,,,Conditions/Version_1/oneback(3)_v1.xlsx,New rule: Press 'space' when you see 1-back (i.e. the same letter as the one that appeared 1 letter ago.),r,None,,,,,,,,,0,11,11,11,0,7,7,7,,,,,,,,,,,,,,,,,,,,,,,,,,,,,,,,,,,,,,,,,,,,,,,,,,,,,,,,,,,,,,,,,,,,,1.444,957.7096078000031,None,None,1,957.7096078000031,None,,P023,fencog,2,Pre,2022_Feb_08_1108,N-Back (New Version 2021),2021.1.4,120.19100771661809,
,,,,Conditions/Version_1/oneback(3)_v1.xlsx,New rule: Press 'space' when you see 1-back (i.e. the same letter as the one that appeared 1 letter ago.),r,space,,,,,,,,,0,11,11,11,0,8,8,8,,,,,,,,,,,,,,,,,,,,,,,,,,,,,,,,,,,,,,,,,,,,,,,,,,,,,,,,,,,,,,,,,,,,,1.4998,961.2148541000206,None,space,1,961.2148541000206,None,0.4143808998633176,P023,fencog,2,Pre,2022_Feb_08_1108,N-Back (New Version 2021),2021.1.4,120.19100771661809,
,,,,Conditions/Version_1/oneback(3)_v1.xlsx,New rule: Press 'space' when you see 1-back (i.e. the same letter as the one that appeared 1 letter ago.),P,None,,,,,,,,,0,11,11,11,0,9,9,9,,,,,,,,,,,,,,,,,,,,,,,,,,,,,,,,,,,,,,,,,,,,,,,,,,,,,,,,,,,,,,,,,,,,,1.3448,964.6026155001018,None,None,1,964.6026155001018,None,,P023,fencog,2,Pre,2022_Feb_08_1108,N-Back (New Version 2021),2021.1.4,120.19100771661809,
,,,,Conditions/Version_1/oneback(3)_v1.xlsx,New rule: Press 'space' when you see 1-back (i.e. the same letter as the one that appeared 1 letter ago.),,,,,,,,,,,0,11,11,11,,,,,,,,,,,,,,,,,,,,,,,,,,,,,,,,,,,,,,,,,,,,,,,,,,,,,,,,,,,,,,,,,,,,,,,,,,,,,,,,,P023,fencog,2,Pre,2022_Feb_08_1108,N-Back (New Version 2021),2021.1.4,120.19100771661809,
,,,,Conditions/Version_1/twoback(4)_v1.xlsx,New rule: Press 'space' when you see 2-back (i.e. the same letter as the one that appeared 2 letters ago.),r,None,,,,,,,,,0,12,12,12,0,0,0,0,,,,,,,,,,,,,,,,,,,,,,,,,,,,,,,,,,,,,,,,,,,,,,,,,,,,,,,,,,,966.5959737000521,None,969.5816041000653,None,space,11.207383699947968,969.5816041000653,None,966.5959737000521,None,1.6362,982.4507650001906,None,None,1,982.4507650001906,None,,P023,fencog,2,Pre,2022_Feb_08_1108,N-Back (New Version 2021),2021.1.4,120.19100771661809,
,,,,Conditions/Version_1/twoback(4)_v1.xlsx,New rule: Press 'space' when you see 2-back (i.e. the same letter as the one that appeared 2 letters ago.),T,None,,,,,,,,,0,12,12,12,0,1,1,1,,,,,,,,,,,,,,,,,,,,,,,,,,,,,,,,,,,,,,,,,,,,,,,,,,,,,,,,,,,,,,,,,,,,,1.5308,985.9914310001768,None,None,1,985.9914310001768,None,,P023,fencog,2,Pre,2022_Feb_08_1108,N-Back (New Version 2021),2021.1.4,120.19100771661809,
,,,,Conditions/Version_1/twoback(4)_v1.xlsx,New rule: Press 'space' when you see 2-back (i.e. the same letter as the one that appeared 2 letters ago.),o,None,,,,,,,,,0,12,12,12,0,2,2,2,,,,,,,,,,,,,,,,,,,,,,,,,,,,,,,,,,,,,,,,,,,,,,,,,,,,,,,,,,,,,,,,,,,,,1.8222,989.8146955000702,None,None,1,989.8146955000702,None,,P023,fencog,2,Pre,2022_Feb_08_1108,N-Back (New Version 2021),2021.1.4,120.19100771661809,
,,,,Conditions/Version_1/twoback(4)_v1.xlsx,New rule: Press 'space' when you see 2-back (i.e. the same letter as the one that appeared 2 letters ago.),p,None,,,,,,,,,0,12,12,12,0,3,3,3,,,,,,,,,,,,,,,,,,,,,,,,,,,,,,,,,,,,,,,,,,,,,,,,,,,,,,,,,,,,,,,,,,,,,1.041,992.8567783001345,None,None,1,992.8567783001345,None,,P023,fencog,2,Pre,2022_Feb_08_1108,N-Back (New Version 2021),2021.1.4,120.19100771661809,
,,,,Conditions/Version_1/twoback(4)_v1.xlsx,New rule: Press 'space' when you see 2-back (i.e. the same letter as the one that appeared 2 letters ago.),p,None,,,,,,,,,0,12,12,12,0,4,4,4,,,,,,,,,,,,,,,,,,,,,,,,,,,,,,,,,,,,,,,,,,,,,,,,,,,,,,,,,,,,,,,,,,,,,1.6114,996.479532700032,None,None,1,996.479532700032,None,,P023,fencog,2,Pre,2022_Feb_08_1108,N-Back (New Version 2021),2021.1.4,120.19100771661809,
,,,,Conditions/Version_1/twoback(4)_v1.xlsx,New rule: Press 'space' when you see 2-back (i.e. the same letter as the one that appeared 2 letters ago.),y,None,,,,,,,,,0,12,12,12,0,5,5,5,,,,,,,,,,,,,,,,,,,,,,,,,,,,,,,,,,,,,,,,,,,,,,,,,,,,,,,,,,,,,,,,,,,,,1.909,1000.3973805001006,None,None,1,1000.3973805001006,None,,P023,fencog,2,Pre,2022_Feb_08_1108,N-Back (New Version 2021),2021.1.4,120.19100771661809,
,,,,Conditions/Version_1/twoback(4)_v1.xlsx,New rule: Press 'space' when you see 2-back (i.e. the same letter as the one that appeared 2 letters ago.),P,space,,,,,,,,,0,12,12,12,0,6,6,6,,,,,,,,,,,,,,,,,,,,,,,,,,,,,,,,,,,,,,,,,,,,,,,,,,,,,,,,,,,,,,,,,,,,,1.2704,1003.6859683000948,None,space,1,1003.6859683000948,None,0.3593053000513464,P023,fencog,2,Pre,2022_Feb_08_1108,N-Back (New Version 2021),2021.1.4,120.19100771661809,
,,,,Conditions/Version_1/twoback(4)_v1.xlsx,New rule: Press 'space' when you see 2-back (i.e. the same letter as the one that appeared 2 letters ago.),y,None,,,,,,,,,0,12,12,12,0,7,7,7,,,,,,,,,,,,,,,,,,,,,,,,,,,,,,,,,,,,,,,,,,,,,,,,,,,,,,,,,,,,,,,,,,,,,1.5866,1007.270346699981,None,space,0,1007.270346699981,None,0.5426922000478953,P023,fencog,2,Pre,2022_Feb_08_1108,N-Back (New Version 2021),2021.1.4,120.19100771661809,
,,,,Conditions/Version_1/twoback(4)_v1.xlsx,New rule: Press 'space' when you see 2-back (i.e. the same letter as the one that appeared 2 letters ago.),y,space,,,,,,,,,0,12,12,12,0,8,8,8,,,,,,,,,,,,,,,,,,,,,,,,,,,,,,,,,,,,,,,,,,,,,,,,,,,,,,,,,,,,,,,,,,,,,1.4688,1010.7503874001559,None,None,0,1010.7503874001559,None,,P023,fencog,2,Pre,2022_Feb_08_1108,N-Back (New Version 2021),2021.1.4,120.19100771661809,
,,,,Conditions/Version_1/twoback(4)_v1.xlsx,New rule: Press 'space' when you see 2-back (i.e. the same letter as the one that appeared 2 letters ago.),,,,,,,,,,,0,12,12,12,,,,,,,,,,,,,,,,,,,,,,,,,,,,,,,,,,,,,,,,,,,,,,,,,,,,,,,,,,,,,,,,,,,,,,,,,,,,,,,,,P023,fencog,2,Pre,2022_Feb_08_1108,N-Back (New Version 2021),2021.1.4,120.19100771661809,
,,,,Conditions/Version_1/zeroback(4)_v1.xlsx,New rule: Press 'space' when you see the letter 'x' or 'X'.,o,None,,,,,,,,,0,13,13,13,0,0,0,0,,,,,,,,,,,,,,,,,,,,,,,,,,,,,,,,,,,,,,,,,,,,,,,,,,,,,,,,,,,1012.7711624000221,None,1015.7511856001802,None,space,0.9501861999742687,1015.7511856001802,None,1012.7711624000221,None,1.754,1018.5062252001371,None,None,1,1018.5062252001371,None,,P023,fencog,2,Pre,2022_Feb_08_1108,N-Back (New Version 2021),2021.1.4,120.19100771661809,
,,,,Conditions/Version_1/zeroback(4)_v1.xlsx,New rule: Press 'space' when you see the letter 'x' or 'X'.,X,space,,,,,,,,,0,13,13,13,0,1,1,1,,,,,,,,,,,,,,,,,,,,,,,,,,,,,,,,,,,,,,,,,,,,,,,,,,,,,,,,,,,,,,,,,,,,,1.258,1021.7637651001569,None,space,1,1021.7637651001569,None,0.3852979000657797,P023,fencog,2,Pre,2022_Feb_08_1108,N-Back (New Version 2021),2021.1.4,120.19100771661809,
,,,,Conditions/Version_1/zeroback(4)_v1.xlsx,New rule: Press 'space' when you see the letter 'x' or 'X'.,p,None,,,,,,,,,0,13,13,13,0,2,2,2,,,,,,,,,,,,,,,,,,,,,,,,,,,,,,,,,,,,,,,,,,,,,,,,,,,,,,,,,,,,,,,,,,,,,1.5928,1025.3643521000631,None,None,1,1025.3643521000631,None,,P023,fencog,2,Pre,2022_Feb_08_1108,N-Back (New Version 2021),2021.1.4,120.19100771661809,
,,,,Conditions/Version_1/zeroback(4)_v1.xlsx,New rule: Press 'space' when you see the letter 'x' or 'X'.,m,None,,,,,,,,,0,13,13,13,0,3,3,3,,,,,,,,,,,,,,,,,,,,,,,,,,,,,,,,,,,,,,,,,,,,,,,,,,,,,,,,,,,,,,,,,,,,,1.0472,1028.4208625999745,None,None,1,1028.4208625999745,None,,P023,fencog,2,Pre,2022_Feb_08_1108,N-Back (New Version 2021),2021.1.4,120.19100771661809,
,,,,Conditions/Version_1/zeroback(4)_v1.xlsx,New rule: Press 'space' when you see the letter 'x' or 'X'.,n,None,,,,,,,,,0,13,13,13,0,4,4,4,,,,,,,,,,,,,,,,,,,,,,,,,,,,,,,,,,,,,,,,,,,,,,,,,,,,,,,,,,,,,,,,,,,,,1.0968,1031.5272366001736,None,None,1,1031.5272366001736,None,,P023,fencog,2,Pre,2022_Feb_08_1108,N-Back (New Version 2021),2021.1.4,120.19100771661809,
,,,,Conditions/Version_1/zeroback(4)_v1.xlsx,New rule: Press 'space' when you see the letter 'x' or 'X'.,m,None,,,,,,,,,0,13,13,13,0,5,5,5,,,,,,,,,,,,,,,,,,,,,,,,,,,,,,,,,,,,,,,,,,,,,,,,,,,,,,,,,,,,,,,,,,,,,1.5246,1035.051393700065,None,None,1,1035.051393700065,None,,P023,fencog,2,Pre,2022_Feb_08_1108,N-Back (New Version 2021),2021.1.4,120.19100771661809,
,,,,Conditions/Version_1/zeroback(4)_v1.xlsx,New rule: Press 'space' when you see the letter 'x' or 'X'.,C,None,,,,,,,,,0,13,13,13,0,6,6,6,,,,,,,,,,,,,,,,,,,,,,,,,,,,,,,,,,,,,,,,,,,,,,,,,,,,,,,,,,,,,,,,,,,,,1.8594,1038.9173592000734,None,None,1,1038.9173592000734,None,,P023,fencog,2,Pre,2022_Feb_08_1108,N-Back (New Version 2021),2021.1.4,120.19100771661809,
,,,,Conditions/Version_1/zeroback(4)_v1.xlsx,New rule: Press 'space' when you see the letter 'x' or 'X'.,m,None,,,,,,,,,0,13,13,13,0,7,7,7,,,,,,,,,,,,,,,,,,,,,,,,,,,,,,,,,,,,,,,,,,,,,,,,,,,,,,,,,,,,,,,,,,,,,1.1898,1042.1077054999769,None,None,1,1042.1077054999769,None,,P023,fencog,2,Pre,2022_Feb_08_1108,N-Back (New Version 2021),2021.1.4,120.19100771661809,
,,,,Conditions/Version_1/zeroback(4)_v1.xlsx,New rule: Press 'space' when you see the letter 'x' or 'X'.,p,None,,,,,,,,,0,13,13,13,0,8,8,8,,,,,,,,,,,,,,,,,,,,,,,,,,,,,,,,,,,,,,,,,,,,,,,,,,,,,,,,,,,,,,,,,,,,,1.3324,1045.4400361001026,None,None,1,1045.4400361001026,None,,P023,fencog,2,Pre,2022_Feb_08_1108,N-Back (New Version 2021),2021.1.4,120.19100771661809,
,,,,Conditions/Version_1/zeroback(4)_v1.xlsx,New rule: Press 'space' when you see the letter 'x' or 'X'.,X,space,,,,,,,,,0,13,13,13,0,9,9,9,,,,,,,,,,,,,,,,,,,,,,,,,,,,,,,,,,,,,,,,,,,,,,,,,,,,,,,,,,,,,,,,,,,,,1.1712,1048.6140797000844,None,space,1,1048.6140797000844,None,0.36681680008769035,P023,fencog,2,Pre,2022_Feb_08_1108,N-Back (New Version 2021),2021.1.4,120.19100771661809,
,,,,Conditions/Version_1/zeroback(4)_v1.xlsx,New rule: Press 'space' when you see the letter 'x' or 'X'.,,,,,,,,,,,0,13,13,13,,,,,,,,,,,,,,,,,,,,,,,,,,,,,,,,,,,,,,,,,,,,,,,,,,,,,,,,,,,,,,,,,,,,,,,,,,,,,,,,,P023,fencog,2,Pre,2022_Feb_08_1108,N-Back (New Version 2021),2021.1.4,120.19100771661809,
,,,,Conditions/Version_1/oneback(4)_v1.xlsx,New rule: Press 'space' when you see 1-back (i.e. the same letter as the one that appeared 1 letter ago.),w,None,,,,,,,,,0,14,14,14,0,0,0,0,,,,,,,,,,,,,,,,,,,,,,,,,,,,,,,,,,,,,,,,,,,,,,,,,,,,,,,,,,,1050.6384329001885,None,1053.6236380999908,None,space,1.8297357999254018,1053.6236380999908,None,1050.6384329001885,None,1.9152,1057.3949085001368,None,None,1,1057.3949085001368,None,,P023,fencog,2,Pre,2022_Feb_08_1108,N-Back (New Version 2021),2021.1.4,120.19100771661809,
,,,,Conditions/Version_1/oneback(4)_v1.xlsx,New rule: Press 'space' when you see 1-back (i.e. the same letter as the one that appeared 1 letter ago.),q,None,,,,,,,,,0,14,14,14,0,1,1,1,,,,,,,,,,,,,,,,,,,,,,,,,,,,,,,,,,,,,,,,,,,,,,,,,,,,,,,,,,,,,,,,,,,,,1.7974,1061.1938536001835,None,None,1,1061.1938536001835,None,,P023,fencog,2,Pre,2022_Feb_08_1108,N-Back (New Version 2021),2021.1.4,120.19100771661809,
,,,,Conditions/Version_1/oneback(4)_v1.xlsx,New rule: Press 'space' when you see 1-back (i.e. the same letter as the one that appeared 1 letter ago.),i,None,,,,,,,,,0,14,14,14,0,2,2,2,,,,,,,,,,,,,,,,,,,,,,,,,,,,,,,,,,,,,,,,,,,,,,,,,,,,,,,,,,,,,,,,,,,,,1.4564,1064.6512037001085,None,None,1,1064.6512037001085,None,,P023,fencog,2,Pre,2022_Feb_08_1108,N-Back (New Version 2021),2021.1.4,120.19100771661809,
,,,,Conditions/Version_1/oneback(4)_v1.xlsx,New rule: Press 'space' when you see 1-back (i.e. the same letter as the one that appeared 1 letter ago.),t,None,,,,,,,,,0,14,14,14,0,3,3,3,,,,,,,,,,,,,,,,,,,,,,,,,,,,,,,,,,,,,,,,,,,,,,,,,,,,,,,,,,,,,,,,,,,,,1.227,1067.883370600175,None,None,1,1067.883370600175,None,,P023,fencog,2,Pre,2022_Feb_08_1108,N-Back (New Version 2021),2021.1.4,120.19100771661809,
,,,,Conditions/Version_1/oneback(4)_v1.xlsx,New rule: Press 'space' when you see 1-back (i.e. the same letter as the one that appeared 1 letter ago.),v,None,,,,,,,,,0,14,14,14,0,4,4,4,,,,,,,,,,,,,,,,,,,,,,,,,,,,,,,,,,,,,,,,,,,,,,,,,,,,,,,,,,,,,,,,,,,,,1.1092,1071.0021788000595,None,None,1,1071.0021788000595,None,,P023,fencog,2,Pre,2022_Feb_08_1108,N-Back (New Version 2021),2021.1.4,120.19100771661809,
,,,,Conditions/Version_1/oneback(4)_v1.xlsx,New rule: Press 'space' when you see 1-back (i.e. the same letter as the one that appeared 1 letter ago.),V,space,,,,,,,,,0,14,14,14,0,5,5,5,,,,,,,,,,,,,,,,,,,,,,,,,,,,,,,,,,,,,,,,,,,,,,,,,,,,,,,,,,,,,,,,,,,,,1.5432,1074.5581162001472,None,space,1,1074.5581162001472,None,0.2710106000304222,P023,fencog,2,Pre,2022_Feb_08_1108,N-Back (New Version 2021),2021.1.4,120.19100771661809,
,,,,Conditions/Version_1/oneback(4)_v1.xlsx,New rule: Press 'space' when you see 1-back (i.e. the same letter as the one that appeared 1 letter ago.),v,space,,,,,,,,,0,14,14,14,0,6,6,6,,,,,,,,,,,,,,,,,,,,,,,,,,,,,,,,,,,,,,,,,,,,,,,,,,,,,,,,,,,,,,,,,,,,,1.6548,1078.2134758001193,None,space,1,1078.2134758001193,None,0.5035023000091314,P023,fencog,2,Pre,2022_Feb_08_1108,N-Back (New Version 2021),2021.1.4,120.19100771661809,
,,,,Conditions/Version_1/oneback(4)_v1.xlsx,New rule: Press 'space' when you see 1-back (i.e. the same letter as the one that appeared 1 letter ago.),p,None,,,,,,,,,0,14,14,14,0,7,7,7,,,,,,,,,,,,,,,,,,,,,,,,,,,,,,,,,,,,,,,,,,,,,,,,,,,,,,,,,,,,,,,,,,,,,1.8966,1082.1131426000502,None,None,1,1082.1131426000502,None,,P023,fencog,2,Pre,2022_Feb_08_1108,N-Back (New Version 2021),2021.1.4,120.19100771661809,
,,,,Conditions/Version_1/oneback(4)_v1.xlsx,New rule: Press 'space' when you see 1-back (i.e. the same letter as the one that appeared 1 letter ago.),w,None,,,,,,,,,0,14,14,14,0,8,8,8,,,,,,,,,,,,,,,,,,,,,,,,,,,,,,,,,,,,,,,,,,,,,,,,,,,,,,,,,,,,,,,,,,,,,1.909,1086.0283340001479,None,None,1,1086.0283340001479,None,,P023,fencog,2,Pre,2022_Feb_08_1108,N-Back (New Version 2021),2021.1.4,120.19100771661809,
,,,,Conditions/Version_1/oneback(4)_v1.xlsx,New rule: Press 'space' when you see 1-back (i.e. the same letter as the one that appeared 1 letter ago.),W,space,,,,,,,,,0,14,14,14,0,9,9,9,,,,,,,,,,,,,,,,,,,,,,,,,,,,,,,,,,,,,,,,,,,,,,,,,,,,,,,,,,,,,,,,,,,,,1.4502,1089.477027800167,None,space,1,1089.477027800167,None,0.32003639987669885,P023,fencog,2,Pre,2022_Feb_08_1108,N-Back (New Version 2021),2021.1.4,120.19100771661809,
,,,,Conditions/Version_1/oneback(4)_v1.xlsx,New rule: Press 'space' when you see 1-back (i.e. the same letter as the one that appeared 1 letter ago.),,,,,,,,,,,0,14,14,14,,,,,,,,,,,,,,,,,,,,,,,,,,,,,,,,,,,,,,,,,,,,,,,,,,,,,,,,,,,,,,,,,,,,,,,,,,,,,,,,,P023,fencog,2,Pre,2022_Feb_08_1108,N-Back (New Version 2021),2021.1.4,120.19100771661809,
,,,,Conditions/Version_1/threeback(4)_v1.xlsx,New rule: Press 'space' when you see 3-back (i.e. the same letter as the one that appeared 3 letters ago.),A,None,,,,,,,,,0,15,15,15,0,0,0,0,,,,,,,,,,,,,,,,,,,,,,,,,,,,,,,,,,,,,,,,,,,,,,,,,,,,,,,,,,,1091.5127028001007,None,1094.4936597000342,None,space,19.23158030002378,1094.4936597000342,None,1091.5127028001007,None,1.63,1115.3877413000446,None,None,1,1115.3877413000446,None,,P023,fencog,2,Pre,2022_Feb_08_1108,N-Back (New Version 2021),2021.1.4,120.19100771661809,
,,,,Conditions/Version_1/threeback(4)_v1.xlsx,New rule: Press 'space' when you see 3-back (i.e. the same letter as the one that appeared 3 letters ago.),n,None,,,,,,,,,0,15,15,15,0,1,1,1,,,,,,,,,,,,,,,,,,,,,,,,,,,,,,,,,,,,,,,,,,,,,,,,,,,,,,,,,,,,,,,,,,,,,1.6052,1119.0027081000153,None,None,1,1119.0027081000153,None,,P023,fencog,2,Pre,2022_Feb_08_1108,N-Back (New Version 2021),2021.1.4,120.19100771661809,
,,,,Conditions/Version_1/threeback(4)_v1.xlsx,New rule: Press 'space' when you see 3-back (i.e. the same letter as the one that appeared 3 letters ago.),g,None,,,,,,,,,0,15,15,15,0,2,2,2,,,,,,,,,,,,,,,,,,,,,,,,,,,,,,,,,,,,,,,,,,,,,,,,,,,,,,,,,,,,,,,,,,,,,1.3882,1122.401276800083,None,None,1,1122.401276800083,None,,P023,fencog,2,Pre,2022_Feb_08_1108,N-Back (New Version 2021),2021.1.4,120.19100771661809,
,,,,Conditions/Version_1/threeback(4)_v1.xlsx,New rule: Press 'space' when you see 3-back (i.e. the same letter as the one that appeared 3 letters ago.),A,space,,,,,,,,,0,15,15,15,0,3,3,3,,,,,,,,,,,,,,,,,,,,,,,,,,,,,,,,,,,,,,,,,,,,,,,,,,,,,,,,,,,,,,,,,,,,,1.7416,1126.150157000171,None,space,1,1126.150157000171,None,0.5510617999825627,P023,fencog,2,Pre,2022_Feb_08_1108,N-Back (New Version 2021),2021.1.4,120.19100771661809,
,,,,Conditions/Version_1/threeback(4)_v1.xlsx,New rule: Press 'space' when you see 3-back (i.e. the same letter as the one that appeared 3 letters ago.),p,None,,,,,,,,,0,15,15,15,0,4,4,4,,,,,,,,,,,,,,,,,,,,,,,,,,,,,,,,,,,,,,,,,,,,,,,,,,,,,,,,,,,,,,,,,,,,,1.8656,1130.0238747000694,None,None,1,1130.0238747000694,None,,P023,fencog,2,Pre,2022_Feb_08_1108,N-Back (New Version 2021),2021.1.4,120.19100771661809,
,,,,Conditions/Version_1/threeback(4)_v1.xlsx,New rule: Press 'space' when you see 3-back (i.e. the same letter as the one that appeared 3 letters ago.),O,None,,,,,,,,,0,15,15,15,0,5,5,5,,,,,,,,,,,,,,,,,,,,,,,,,,,,,,,,,,,,,,,,,,,,,,,,,,,,,,,,,,,,,,,,,,,,,1.6362,1133.6637975000776,None,None,1,1133.6637975000776,None,,P023,fencog,2,Pre,2022_Feb_08_1108,N-Back (New Version 2021),2021.1.4,120.19100771661809,
,,,,Conditions/Version_1/threeback(4)_v1.xlsx,New rule: Press 'space' when you see 3-back (i.e. the same letter as the one that appeared 3 letters ago.),a,space,,,,,,,,,0,15,15,15,0,6,6,6,,,,,,,,,,,,,,,,,,,,,,,,,,,,,,,,,,,,,,,,,,,,,,,,,,,,,,,,,,,,,,,,,,,,,1.878,1137.546545600053,None,space,1,1137.546545600053,None,0.5706411998253316,P023,fencog,2,Pre,2022_Feb_08_1108,N-Back (New Version 2021),2021.1.4,120.19100771661809,
,,,,Conditions/Version_1/threeback(4)_v1.xlsx,New rule: Press 'space' when you see 3-back (i.e. the same letter as the one that appeared 3 letters ago.),p,space,,,,,,,,,0,15,15,15,0,7,7,7,,,,,,,,,,,,,,,,,,,,,,,,,,,,,,,,,,,,,,,,,,,,,,,,,,,,,,,,,,,,,,,,,,,,,1.1774,1140.7286631001625,None,space,1,1140.7286631001625,None,0.4284558999352157,P023,fencog,2,Pre,2022_Feb_08_1108,N-Back (New Version 2021),2021.1.4,120.19100771661809,
,,,,Conditions/Version_1/threeback(4)_v1.xlsx,New rule: Press 'space' when you see 3-back (i.e. the same letter as the one that appeared 3 letters ago.),x,None,,,,,,,,,0,15,15,15,0,8,8,8,,,,,,,,,,,,,,,,,,,,,,,,,,,,,,,,,,,,,,,,,,,,,,,,,,,,,,,,,,,,,,,,,,,,,1.4874,1144.2231761000585,None,None,1,1144.2231761000585,None,,P023,fencog,2,Pre,2022_Feb_08_1108,N-Back (New Version 2021),2021.1.4,120.19100771661809,
,,,,Conditions/Version_1/threeback(4)_v1.xlsx,New rule: Press 'space' when you see 3-back (i.e. the same letter as the one that appeared 3 letters ago.),X,None,,,,,,,,,0,15,15,15,0,9,9,9,,,,,,,,,,,,,,,,,,,,,,,,,,,,,,,,,,,,,,,,,,,,,,,,,,,,,,,,,,,,,,,,,,,,,1.0906,1147.3183999001049,None,None,1,1147.3183999001049,None,,P023,fencog,2,Pre,2022_Feb_08_1108,N-Back (New Version 2021),2021.1.4,120.19100771661809,
,,,,Conditions/Version_1/threeback(4)_v1.xlsx,New rule: Press 'space' when you see 3-back (i.e. the same letter as the one that appeared 3 letters ago.),,,,,,,,,,,0,15,15,15,,,,,,,,,,,,,,,,,,,,,,,,,,,,,,,,,,,,,,,,,,,,,,,,,,,,,,,,,,,,,,,,,,,,,,,,,,,,,,,,,P023,fencog,2,Pre,2022_Feb_08_1108,N-Back (New Version 2021),2021.1.4,120.19100771661809,
