CondFileP,InstructionsP,LettersDisplayedP,CorrectnessP,CondFile,Instructions,LettersDisplayed,Correctness,practicetrials.thisRepN,practicetrials.thisTrialN,practicetrials.thisN,practicetrials.thisIndex,InnerLoopPractice.thisRepN,InnerLoopPractice.thisTrialN,InnerLoopPractice.thisN,InnerLoopPractice.thisIndex,trials.thisRepN,trials.thisTrialN,trials.thisN,trials.thisIndex,InnerLoop.thisRepN,InnerLoop.thisTrialN,InnerLoop.thisN,InnerLoop.thisIndex,TaskVersionText.started,TaskVersionText.stopped,InstrKey1.keys,InstrKey1.rt,InstrKey1.started,InstrKey1.stopped,text.started,text.stopped,key_resp_4.keys,key_resp_4.rt,key_resp_4.started,key_resp_4.stopped,text_2.started,text_2.stopped,key_resp_3.keys,key_resp_3.rt,key_resp_3.started,key_resp_3.stopped,text_3.started,text_3.stopped,key_resp_2.keys,key_resp_2.rt,key_resp_2.started,key_resp_2.stopped,PractIn1.started,PractIn1.stopped,PractIn2.started,PractIn2.stopped,PractInstructionPass.keys,PractInstructionPass.rt,PractInstructionPass.started,PractInstructionPass.stopped,PractBlock1.started,PractBlock1.stopped,ISIjitterPractice,ISI_Pract_Fixation.started,ISI_Pract_Fixation.stopped,N_backP.started,N_backP.stopped,KeyPractice.keys,KeyPractice.corr,KeyPractice.rt,KeyPractice.started,KeyPractice.stopped,text_4.started,text_4.stopped,TransitionText.started,TransitionText.stopped,key_resp_6.keys,key_resp_6.rt,key_resp_6.started,key_resp_6.stopped,text_5.started,text_5.stopped,key_resp_5.keys,key_resp_5.rt,key_resp_5.started,key_resp_5.stopped,MainInt1.started,MainInt1.stopped,MainInt2.started,MainInt2.stopped,InstructionPass.keys,InstructionPass.rt,InstructionPass.started,InstructionPass.stopped,Blocks1.started,Blocks1.stopped,ISIjitter,N_backD.started,N_backD.stopped,key_resp.keys,key_resp.corr,key_resp.started,key_resp.stopped,key_resp.rt,participant,Study Name,Task Version (required to run),PRE/POST,date,expName,psychopyVersion,frameRate,
,,,,,,,,,,,,,,,,,,,,,,,,18.693155099987052,None,space,177.34545510000316,19.183251699985703,None,,,,,,,,,,,,,,,,,,,,,,,,,,,,,,,,,,,,,,,,,,,,,,,,,,,,,,,,,,,,,,,,,,,,,,,P024,FENCOG,2,Pre,2022_Feb_11_1119,N-Back (New Version 2021),2021.1.4,120.25807383156045,
,,,,,,,,,,,,,,,,,,,,,,,,,,,,,,196.5612182999903,None,space,2.5687051999848336,197.0562465999974,None,,,,,,,,,,,,,,,,,,,,,,,,,,,,,,,,,,,,,,,,,,,,,,,,,,,,,,,,,,,,,,,,,P024,FENCOG,2,Pre,2022_Feb_11_1119,N-Back (New Version 2021),2021.1.4,120.25807383156045,
,,,,,,,,,,,,,,,,,,,,,,,,,,,,,,,,,,,,199.6644898999948,None,space,4.821039100002963,200.1556517999852,None,,,,,,,,,,,,,,,,,,,,,,,,,,,,,,,,,,,,,,,,,,,,,,,,,,,,,,,,,,,P024,FENCOG,2,Pre,2022_Feb_11_1119,N-Back (New Version 2021),2021.1.4,120.25807383156045,
,,,,,,,,,,,,,,,,,,,,,,,,,,,,,,,,,,,,,,,,,,205.00415870000143,None,space,6.897200500010513,205.49567959998967,None,,,,,,,,,,,,,,,,,,,,,,,,,,,,,,,,,,,,,,,,,,,,,,,,,,,,,P024,FENCOG,2,Pre,2022_Feb_11_1119,N-Back (New Version 2021),2021.1.4,120.25807383156045,
Conditions/Version_2Pr/zeroback(1)_v2.xlsx,Rule: Press 'space' when you see the letter 'x' or 'X'.,x,space,,,,,0,0,0,0,0,0,0,0,,,,,,,,,,,,,,,,,,,,,,,,,,,,,,,,,213.80359140000655,None,216.7862697999808,None,space,0.5503630999883171,216.7862697999808,None,213.80359140000655,None,1.64,217.3671274999797,None,219.01094449998345,None,space,1,0.4218655999866314,219.01094449998345,None,219.44646419998026,None,,,,,,,,,,,,,,,,,,,,,,,,,,,,,,,P024,FENCOG,2,Pre,2022_Feb_11_1119,N-Back (New Version 2021),2021.1.4,120.25807383156045,
Conditions/Version_2Pr/zeroback(1)_v2.xlsx,Rule: Press 'space' when you see the letter 'x' or 'X'.,R,None,,,,,0,0,0,0,0,1,1,1,,,,,,,,,,,,,,,,,,,,,,,,,,,,,,,,,,,,,,,,,,,1.14,220.94861120000132,None,222.09148549998645,None,None,1,,222.09148549998645,None,224.09776030000648,None,,,,,,,,,,,,,,,,,,,,,,,,,,,,,,,P024,FENCOG,2,Pre,2022_Feb_11_1119,N-Back (New Version 2021),2021.1.4,120.25807383156045,
Conditions/Version_2Pr/zeroback(1)_v2.xlsx,Rule: Press 'space' when you see the letter 'x' or 'X'.,p,None,,,,,0,0,0,0,0,2,2,2,,,,,,,,,,,,,,,,,,,,,,,,,,,,,,,,,,,,,,,,,,,1.065,225.59727889997885,None,226.6671811999986,None,None,1,,226.6671811999986,None,228.6712977999996,None,,,,,,,,,,,,,,,,,,,,,,,,,,,,,,,P024,FENCOG,2,Pre,2022_Feb_11_1119,N-Back (New Version 2021),2021.1.4,120.25807383156045,
Conditions/Version_2Pr/zeroback(1)_v2.xlsx,Rule: Press 'space' when you see the letter 'x' or 'X'.,O,None,,,,,0,0,0,0,0,3,3,3,,,,,,,,,,,,,,,,,,,,,,,,,,,,,,,,,,,,,,,,,,,1.59,230.17090559998178,None,231.76275900000473,None,None,1,,231.76275900000473,None,233.76985909999348,None,,,,,,,,,,,,,,,,,,,,,,,,,,,,,,,P024,FENCOG,2,Pre,2022_Feb_11_1119,N-Back (New Version 2021),2021.1.4,120.25807383156045,
Conditions/Version_2Pr/zeroback(1)_v2.xlsx,Rule: Press 'space' when you see the letter 'x' or 'X'.,i,None,,,,,0,0,0,0,0,4,4,4,,,,,,,,,,,,,,,,,,,,,,,,,,,,,,,,,,,,,,,,,,,1.915,235.26912029998493,None,237.18609050000669,None,None,1,,237.18609050000669,None,239.19332619998022,None,,,,,,,,,,,,,,,,,,,,,,,,,,,,,,,P024,FENCOG,2,Pre,2022_Feb_11_1119,N-Back (New Version 2021),2021.1.4,120.25807383156045,
Conditions/Version_2Pr/zeroback(1)_v2.xlsx,Rule: Press 'space' when you see the letter 'x' or 'X'.,U,None,,,,,0,0,0,0,0,5,5,5,,,,,,,,,,,,,,,,,,,,,,,,,,,,,,,,,,,,,,,,,,,1.615,240.69281129998853,None,242.3124550000066,None,None,1,,242.3124550000066,None,244.31666949999635,None,,,,,,,,,,,,,,,,,,,,,,,,,,,,,,,P024,FENCOG,2,Pre,2022_Feb_11_1119,N-Back (New Version 2021),2021.1.4,120.25807383156045,
Conditions/Version_2Pr/zeroback(1)_v2.xlsx,Rule: Press 'space' when you see the letter 'x' or 'X'.,N,None,,,,,0,0,0,0,0,6,6,6,,,,,,,,,,,,,,,,,,,,,,,,,,,,,,,,,,,,,,,,,,,1.89,245.8163571000041,None,247.70957370000542,None,None,1,,247.70957370000542,None,249.71524359998875,None,,,,,,,,,,,,,,,,,,,,,,,,,,,,,,,P024,FENCOG,2,Pre,2022_Feb_11_1119,N-Back (New Version 2021),2021.1.4,120.25807383156045,
Conditions/Version_2Pr/zeroback(1)_v2.xlsx,Rule: Press 'space' when you see the letter 'x' or 'X'.,m,None,,,,,0,0,0,0,0,7,7,7,,,,,,,,,,,,,,,,,,,,,,,,,,,,,,,,,,,,,,,,,,,1.74,251.2143478000071,None,252.95644759997958,None,None,1,,252.95644759997958,None,254.96345369998016,None,,,,,,,,,,,,,,,,,,,,,,,,,,,,,,,P024,FENCOG,2,Pre,2022_Feb_11_1119,N-Back (New Version 2021),2021.1.4,120.25807383156045,
Conditions/Version_2Pr/zeroback(1)_v2.xlsx,Rule: Press 'space' when you see the letter 'x' or 'X'.,x,space,,,,,0,0,0,0,0,8,8,8,,,,,,,,,,,,,,,,,,,,,,,,,,,,,,,,,,,,,,,,,,,1.265,256.46318849999807,None,257.72939150000457,None,space,1,0.3835558000137098,257.72939150000457,None,258.12239040000713,None,,,,,,,,,,,,,,,,,,,,,,,,,,,,,,,P024,FENCOG,2,Pre,2022_Feb_11_1119,N-Back (New Version 2021),2021.1.4,120.25807383156045,
Conditions/Version_2Pr/zeroback(1)_v2.xlsx,Rule: Press 'space' when you see the letter 'x' or 'X'.,X,space,,,,,0,0,0,0,0,9,9,9,,,,,,,,,,,,,,,,,,,,,,,,,,,,,,,,,,,,,,,,,,,1.44,259.6298285999801,None,261.0707989000075,None,space,1,0.5220602000190411,261.0707989000075,None,261.6037743999914,None,,,,,,,,,,,,,,,,,,,,,,,,,,,,,,,P024,FENCOG,2,Pre,2022_Feb_11_1119,N-Back (New Version 2021),2021.1.4,120.25807383156045,
Conditions/Version_2Pr/zeroback(1)_v2.xlsx,Rule: Press 'space' when you see the letter 'x' or 'X'.,,,,,,,0,0,0,0,,,,,,,,,,,,,,,,,,,,,,,,,,,,,,,,,,,,,,,,,,,,,,,,,,,,,,,,,,,,,,,,,,,,,,,,,,,,,,,,,,,,,,,,,P024,FENCOG,2,Pre,2022_Feb_11_1119,N-Back (New Version 2021),2021.1.4,120.25807383156045,
Conditions/Version_2Pr/oneback(1)_v2.xlsx,New rule: Press 'space' when you see 1-back (i.e. the same letter as the one that appeared 1 letter ago.),r,None,,,,,0,1,1,1,0,0,0,0,,,,,,,,,,,,,,,,,,,,,,,,,,,,,,,,,263.1255145999894,None,266.1137927999953,None,space,1.951149100001203,266.1137927999953,None,263.1255145999894,None,1.565,268.09190179998404,None,269.66065959999105,None,None,1,,269.66065959999105,None,271.66686279998976,None,,,,,,,,,,,,,,,,,,,,,,,,,,,,,,,P024,FENCOG,2,Pre,2022_Feb_11_1119,N-Back (New Version 2021),2021.1.4,120.25807383156045,
Conditions/Version_2Pr/oneback(1)_v2.xlsx,New rule: Press 'space' when you see 1-back (i.e. the same letter as the one that appeared 1 letter ago.),t,None,,,,,0,1,1,1,0,1,1,1,,,,,,,,,,,,,,,,,,,,,,,,,,,,,,,,,,,,,,,,,,,1.39,273.1666207999806,None,274.560900499986,None,None,1,,274.560900499986,None,276.5654923999973,None,,,,,,,,,,,,,,,,,,,,,,,,,,,,,,,P024,FENCOG,2,Pre,2022_Feb_11_1119,N-Back (New Version 2021),2021.1.4,120.25807383156045,
Conditions/Version_2Pr/oneback(1)_v2.xlsx,New rule: Press 'space' when you see 1-back (i.e. the same letter as the one that appeared 1 letter ago.),Y,None,,,,,0,1,1,1,0,2,2,2,,,,,,,,,,,,,,,,,,,,,,,,,,,,,,,,,,,,,,,,,,,1.115,278.06482969998615,None,279.18273850000696,None,None,1,,279.18273850000696,None,281.18929049998405,None,,,,,,,,,,,,,,,,,,,,,,,,,,,,,,,P024,FENCOG,2,Pre,2022_Feb_11_1119,N-Back (New Version 2021),2021.1.4,120.25807383156045,
Conditions/Version_2Pr/oneback(1)_v2.xlsx,New rule: Press 'space' when you see 1-back (i.e. the same letter as the one that appeared 1 letter ago.),y,space,,,,,0,1,1,1,0,3,3,3,,,,,,,,,,,,,,,,,,,,,,,,,,,,,,,,,,,,,,,,,,,1.99,282.6888160999806,None,284.6813256999885,None,space,1,0.39961870000115596,284.6813256999885,None,285.09125830000266,None,,,,,,,,,,,,,,,,,,,,,,,,,,,,,,,P024,FENCOG,2,Pre,2022_Feb_11_1119,N-Back (New Version 2021),2021.1.4,120.25807383156045,
Conditions/Version_2Pr/oneback(1)_v2.xlsx,New rule: Press 'space' when you see 1-back (i.e. the same letter as the one that appeared 1 letter ago.),p,None,,,,,0,1,1,1,0,4,4,4,,,,,,,,,,,,,,,,,,,,,,,,,,,,,,,,,,,,,,,,,,,1.315,286.5959543999925,None,287.91220229998,None,None,1,,287.91220229998,None,289.9116853000014,None,,,,,,,,,,,,,,,,,,,,,,,,,,,,,,,P024,FENCOG,2,Pre,2022_Feb_11_1119,N-Back (New Version 2021),2021.1.4,120.25807383156045,
Conditions/Version_2Pr/oneback(1)_v2.xlsx,New rule: Press 'space' when you see 1-back (i.e. the same letter as the one that appeared 1 letter ago.),P,space,,,,,0,1,1,1,0,5,5,5,,,,,,,,,,,,,,,,,,,,,,,,,,,,,,,,,,,,,,,,,,,1.59,291.41126629998325,None,293.0045436999935,None,space,1,0.34008059999905527,293.0045436999935,None,293.3540035999904,None,,,,,,,,,,,,,,,,,,,,,,,,,,,,,,,P024,FENCOG,2,Pre,2022_Feb_11_1119,N-Back (New Version 2021),2021.1.4,120.25807383156045,
Conditions/Version_2Pr/oneback(1)_v2.xlsx,New rule: Press 'space' when you see 1-back (i.e. the same letter as the one that appeared 1 letter ago.),e,None,,,,,0,1,1,1,0,6,6,6,,,,,,,,,,,,,,,,,,,,,,,,,,,,,,,,,,,,,,,,,,,1.815,294.85996579998755,None,296.6776665999787,None,None,1,,296.6776665999787,None,298.68417319998844,None,,,,,,,,,,,,,,,,,,,,,,,,,,,,,,,P024,FENCOG,2,Pre,2022_Feb_11_1119,N-Back (New Version 2021),2021.1.4,120.25807383156045,
Conditions/Version_2Pr/oneback(1)_v2.xlsx,New rule: Press 'space' when you see 1-back (i.e. the same letter as the one that appeared 1 letter ago.),r,None,,,,,0,1,1,1,0,7,7,7,,,,,,,,,,,,,,,,,,,,,,,,,,,,,,,,,,,,,,,,,,,1.215,300.1835999999894,None,301.3999981999805,None,None,1,,301.3999981999805,None,303.3992045999912,None,,,,,,,,,,,,,,,,,,,,,,,,,,,,,,,P024,FENCOG,2,Pre,2022_Feb_11_1119,N-Back (New Version 2021),2021.1.4,120.25807383156045,
Conditions/Version_2Pr/oneback(1)_v2.xlsx,New rule: Press 'space' when you see 1-back (i.e. the same letter as the one that appeared 1 letter ago.),R,space,,,,,0,1,1,1,0,8,8,8,,,,,,,,,,,,,,,,,,,,,,,,,,,,,,,,,,,,,,,,,,,1.09,304.8988696000015,None,305.98996799997985,None,space,1,0.3946676999912597,305.98996799997985,None,306.3995435999823,None,,,,,,,,,,,,,,,,,,,,,,,,,,,,,,,P024,FENCOG,2,Pre,2022_Feb_11_1119,N-Back (New Version 2021),2021.1.4,120.25807383156045,
Conditions/Version_2Pr/oneback(1)_v2.xlsx,New rule: Press 'space' when you see 1-back (i.e. the same letter as the one that appeared 1 letter ago.),p,None,,,,,0,1,1,1,0,9,9,9,,,,,,,,,,,,,,,,,,,,,,,,,,,,,,,,,,,,,,,,,,,1.49,307.9062667999824,None,309.3981327000074,None,None,1,,309.3981327000074,None,311.4054178999795,None,,,,,,,,,,,,,,,,,,,,,,,,,,,,,,,P024,FENCOG,2,Pre,2022_Feb_11_1119,N-Back (New Version 2021),2021.1.4,120.25807383156045,
Conditions/Version_2Pr/oneback(1)_v2.xlsx,New rule: Press 'space' when you see 1-back (i.e. the same letter as the one that appeared 1 letter ago.),,,,,,,0,1,1,1,,,,,,,,,,,,,,,,,,,,,,,,,,,,,,,,,,,,,,,,,,,,,,,,,,,,,,,,,,,,,,,,,,,,,,,,,,,,,,,,,,,,,,,,,P024,FENCOG,2,Pre,2022_Feb_11_1119,N-Back (New Version 2021),2021.1.4,120.25807383156045,
Conditions/Version_2Pr/twoback(1)_v2.xlsx,New rule: Press 'space' when you see 2-back (i.e. the same letter as the one that appeared 2 letters ago.),r,None,,,,,0,2,2,2,0,0,0,0,,,,,,,,,,,,,,,,,,,,,,,,,,,,,,,,,312.94033009998384,None,315.9142984999926,None,space,0.8944562999822665,315.9142984999926,None,312.94033009998384,None,1.215,316.8319085999974,None,318.0532048000023,None,None,1,,318.0532048000023,None,320.0528607000015,None,,,,,,,,,,,,,,,,,,,,,,,,,,,,,,,P024,FENCOG,2,Pre,2022_Feb_11_1119,N-Back (New Version 2021),2021.1.4,120.25807383156045,
Conditions/Version_2Pr/twoback(1)_v2.xlsx,New rule: Press 'space' when you see 2-back (i.e. the same letter as the one that appeared 2 letters ago.),P,None,,,,,0,2,2,2,0,1,1,1,,,,,,,,,,,,,,,,,,,,,,,,,,,,,,,,,,,,,,,,,,,1.54,321.55226539997966,None,323.10149070000625,None,None,1,,323.10149070000625,None,325.1013419999799,None,,,,,,,,,,,,,,,,,,,,,,,,,,,,,,,P024,FENCOG,2,Pre,2022_Feb_11_1119,N-Back (New Version 2021),2021.1.4,120.25807383156045,
Conditions/Version_2Pr/twoback(1)_v2.xlsx,New rule: Press 'space' when you see 2-back (i.e. the same letter as the one that appeared 2 letters ago.),o,None,,,,,0,2,2,2,0,2,2,2,,,,,,,,,,,,,,,,,,,,,,,,,,,,,,,,,,,,,,,,,,,1.39,326.6008940000029,None,327.9937080999953,None,None,1,,327.9937080999953,None,329.9999153999961,None,,,,,,,,,,,,,,,,,,,,,,,,,,,,,,,P024,FENCOG,2,Pre,2022_Feb_11_1119,N-Back (New Version 2021),2021.1.4,120.25807383156045,
Conditions/Version_2Pr/twoback(1)_v2.xlsx,New rule: Press 'space' when you see 2-back (i.e. the same letter as the one that appeared 2 letters ago.),p,space,,,,,0,2,2,2,0,3,3,3,,,,,,,,,,,,,,,,,,,,,,,,,,,,,,,,,,,,,,,,,,,1.415,331.49947749997955,None,332.9162595999951,None,space,1,0.3165228999860119,332.9162595999951,None,333.2420449999918,None,,,,,,,,,,,,,,,,,,,,,,,,,,,,,,,P024,FENCOG,2,Pre,2022_Feb_11_1119,N-Back (New Version 2021),2021.1.4,120.25807383156045,
Conditions/Version_2Pr/twoback(1)_v2.xlsx,New rule: Press 'space' when you see 2-back (i.e. the same letter as the one that appeared 2 letters ago.),Y,None,,,,,0,2,2,2,0,4,4,4,,,,,,,,,,,,,,,,,,,,,,,,,,,,,,,,,,,,,,,,,,,1.24,334.7484989000077,None,335.99052089999896,None,None,1,,335.99052089999896,None,337.99753809999675,None,,,,,,,,,,,,,,,,,,,,,,,,,,,,,,,P024,FENCOG,2,Pre,2022_Feb_11_1119,N-Back (New Version 2021),2021.1.4,120.25807383156045,
Conditions/Version_2Pr/twoback(1)_v2.xlsx,New rule: Press 'space' when you see 2-back (i.e. the same letter as the one that appeared 2 letters ago.),q,None,,,,,0,2,2,2,0,5,5,5,,,,,,,,,,,,,,,,,,,,,,,,,,,,,,,,,,,,,,,,,,,1.915,339.49704990000464,None,341.41452729998855,None,None,1,,341.41452729998855,None,343.4175500999845,None,,,,,,,,,,,,,,,,,,,,,,,,,,,,,,,P024,FENCOG,2,Pre,2022_Feb_11_1119,N-Back (New Version 2021),2021.1.4,120.25807383156045,
Conditions/Version_2Pr/twoback(1)_v2.xlsx,New rule: Press 'space' when you see 2-back (i.e. the same letter as the one that appeared 2 letters ago.),m,None,,,,,0,2,2,2,0,6,6,6,,,,,,,,,,,,,,,,,,,,,,,,,,,,,,,,,,,,,,,,,,,1.49,344.92044049999095,None,346.4117048000044,None,None,1,,346.4117048000044,None,348.41105130000506,None,,,,,,,,,,,,,,,,,,,,,,,,,,,,,,,P024,FENCOG,2,Pre,2022_Feb_11_1119,N-Back (New Version 2021),2021.1.4,120.25807383156045,
Conditions/Version_2Pr/twoback(1)_v2.xlsx,New rule: Press 'space' when you see 2-back (i.e. the same letter as the one that appeared 2 letters ago.),Q,space,,,,,0,2,2,2,0,7,7,7,,,,,,,,,,,,,,,,,,,,,,,,,,,,,,,,,,,,,,,,,,,1.515,349.9106984999962,None,351.4295603999926,None,space,1,0.9391782000020612,351.4295603999926,None,352.37732239998877,None,,,,,,,,,,,,,,,,,,,,,,,,,,,,,,,P024,FENCOG,2,Pre,2022_Feb_11_1119,N-Back (New Version 2021),2021.1.4,120.25807383156045,
Conditions/Version_2Pr/twoback(1)_v2.xlsx,New rule: Press 'space' when you see 2-back (i.e. the same letter as the one that appeared 2 letters ago.),L,None,,,,,0,2,2,2,0,8,8,8,,,,,,,,,,,,,,,,,,,,,,,,,,,,,,,,,,,,,,,,,,,1.565,353.8762313000043,None,355.4448557999858,None,None,1,,355.4448557999858,None,357.4500271999859,None,,,,,,,,,,,,,,,,,,,,,,,,,,,,,,,P024,FENCOG,2,Pre,2022_Feb_11_1119,N-Back (New Version 2021),2021.1.4,120.25807383156045,
Conditions/Version_2Pr/twoback(1)_v2.xlsx,New rule: Press 'space' when you see 2-back (i.e. the same letter as the one that appeared 2 letters ago.),q,space,,,,,0,2,2,2,0,9,9,9,,,,,,,,,,,,,,,,,,,,,,,,,,,,,,,,,,,,,,,,,,,1.09,358.9497320999799,None,360.0410561999888,None,space,1,0.49605019998853095,360.0410561999888,None,360.5557914999954,None,,,,,,,,,,,,,,,,,,,,,,,,,,,,,,,P024,FENCOG,2,Pre,2022_Feb_11_1119,N-Back (New Version 2021),2021.1.4,120.25807383156045,
Conditions/Version_2Pr/twoback(1)_v2.xlsx,New rule: Press 'space' when you see 2-back (i.e. the same letter as the one that appeared 2 letters ago.),,,,,,,0,2,2,2,,,,,,,,,,,,,,,,,,,,,,,,,,,,,,,,,,,,,,,,,,,,,,,,,,,,,,,,,,,,,,,,,,,,,,,,,,,,,,,,,,,,,,,,,P024,FENCOG,2,Pre,2022_Feb_11_1119,N-Back (New Version 2021),2021.1.4,120.25807383156045,
Conditions/Version_2Pr/threeback(1)_v2.xlsx,New rule: Press 'space' when you see 3-back (i.e. the same letter as the one that appeared 3 letters ago.),u,None,,,,,0,3,3,3,0,0,0,0,,,,,,,,,,,,,,,,,,,,,,,,,,,,,,,,,362.0791859999881,None,365.06796419998864,None,space,0.4847382000007201,365.06796419998864,None,362.0791859999881,None,1.565,365.57695799999055,None,367.1494591999799,None,None,1,,367.1494591999799,None,369.1551104999962,None,,,,,,,,,,,,,,,,,,,,,,,,,,,,,,,P024,FENCOG,2,Pre,2022_Feb_11_1119,N-Back (New Version 2021),2021.1.4,120.25807383156045,
Conditions/Version_2Pr/threeback(1)_v2.xlsx,New rule: Press 'space' when you see 3-back (i.e. the same letter as the one that appeared 3 letters ago.),U,None,,,,,0,3,3,3,0,1,1,1,,,,,,,,,,,,,,,,,,,,,,,,,,,,,,,,,,,,,,,,,,,1.89,370.65573810000205,None,372.54635719998623,None,None,1,,372.54635719998623,None,374.5534980999946,None,,,,,,,,,,,,,,,,,,,,,,,,,,,,,,,P024,FENCOG,2,Pre,2022_Feb_11_1119,N-Back (New Version 2021),2021.1.4,120.25807383156045,
Conditions/Version_2Pr/threeback(1)_v2.xlsx,New rule: Press 'space' when you see 3-back (i.e. the same letter as the one that appeared 3 letters ago.),p,None,,,,,0,3,3,3,0,2,2,2,,,,,,,,,,,,,,,,,,,,,,,,,,,,,,,,,,,,,,,,,,,1.315,376.053047399997,None,377.37000229998375,None,None,1,,377.37000229998375,None,379.3769937999896,None,,,,,,,,,,,,,,,,,,,,,,,,,,,,,,,P024,FENCOG,2,Pre,2022_Feb_11_1119,N-Back (New Version 2021),2021.1.4,120.25807383156045,
Conditions/Version_2Pr/threeback(1)_v2.xlsx,New rule: Press 'space' when you see 3-back (i.e. the same letter as the one that appeared 3 letters ago.),U,space,,,,,0,3,3,3,0,3,3,3,,,,,,,,,,,,,,,,,,,,,,,,,,,,,,,,,,,,,,,,,,,1.165,380.8764821999939,None,382.04284079998615,None,space,1,0.2862975999887567,382.04284079998615,None,382.3452133999963,None,,,,,,,,,,,,,,,,,,,,,,,,,,,,,,,P024,FENCOG,2,Pre,2022_Feb_11_1119,N-Back (New Version 2021),2021.1.4,120.25807383156045,
Conditions/Version_2Pr/threeback(1)_v2.xlsx,New rule: Press 'space' when you see 3-back (i.e. the same letter as the one that appeared 3 letters ago.),e,None,,,,,0,3,3,3,0,4,4,4,,,,,,,,,,,,,,,,,,,,,,,,,,,,,,,,,,,,,,,,,,,1.515,383.8506020999921,None,385.3667029000062,None,None,1,,385.3667029000062,None,387.3663383999956,None,,,,,,,,,,,,,,,,,,,,,,,,,,,,,,,P024,FENCOG,2,Pre,2022_Feb_11_1119,N-Back (New Version 2021),2021.1.4,120.25807383156045,
Conditions/Version_2Pr/threeback(1)_v2.xlsx,New rule: Press 'space' when you see 3-back (i.e. the same letter as the one that appeared 3 letters ago.),R,None,,,,,0,3,3,3,0,5,5,5,,,,,,,,,,,,,,,,,,,,,,,,,,,,,,,,,,,,,,,,,,,1.49,388.86589709998225,None,390.3568723000062,None,None,1,,390.3568723000062,None,392.3562668999948,None,,,,,,,,,,,,,,,,,,,,,,,,,,,,,,,P024,FENCOG,2,Pre,2022_Feb_11_1119,N-Back (New Version 2021),2021.1.4,120.25807383156045,
Conditions/Version_2Pr/threeback(1)_v2.xlsx,New rule: Press 'space' when you see 3-back (i.e. the same letter as the one that appeared 3 letters ago.),p,None,,,,,0,3,3,3,0,6,6,6,,,,,,,,,,,,,,,,,,,,,,,,,,,,,,,,,,,,,,,,,,,1.54,393.856077000004,None,395.39708399999654,None,None,1,,395.39708399999654,None,397.39675769998576,None,,,,,,,,,,,,,,,,,,,,,,,,,,,,,,,P024,FENCOG,2,Pre,2022_Feb_11_1119,N-Back (New Version 2021),2021.1.4,120.25807383156045,
Conditions/Version_2Pr/threeback(1)_v2.xlsx,New rule: Press 'space' when you see 3-back (i.e. the same letter as the one that appeared 3 letters ago.),E,space,,,,,0,3,3,3,0,7,7,7,,,,,,,,,,,,,,,,,,,,,,,,,,,,,,,,,,,,,,,,,,,1.465,398.8962395999988,None,400.3629759000032,None,space,1,0.2779989000118803,400.3629759000032,None,400.6544249999861,None,,,,,,,,,,,,,,,,,,,,,,,,,,,,,,,P024,FENCOG,2,Pre,2022_Feb_11_1119,N-Back (New Version 2021),2021.1.4,120.25807383156045,
Conditions/Version_2Pr/threeback(1)_v2.xlsx,New rule: Press 'space' when you see 3-back (i.e. the same letter as the one that appeared 3 letters ago.),k,None,,,,,0,3,3,3,0,8,8,8,,,,,,,,,,,,,,,,,,,,,,,,,,,,,,,,,,,,,,,,,,,2.015,402.15365560000646,None,404.1709913999948,None,None,1,,404.1709913999948,None,406.1774929999956,None,,,,,,,,,,,,,,,,,,,,,,,,,,,,,,,P024,FENCOG,2,Pre,2022_Feb_11_1119,N-Back (New Version 2021),2021.1.4,120.25807383156045,
Conditions/Version_2Pr/threeback(1)_v2.xlsx,New rule: Press 'space' when you see 3-back (i.e. the same letter as the one that appeared 3 letters ago.),m,None,,,,,0,3,3,3,0,9,9,9,,,,,,,,,,,,,,,,,,,,,,,,,,,,,,,,,,,,,,,,,,,1.915,407.677005799982,None,409.5934229999839,None,None,1,,409.5934229999839,None,411.5925661000074,None,,,,,,,,,,,,,,,,,,,,,,,,,,,,,,,P024,FENCOG,2,Pre,2022_Feb_11_1119,N-Back (New Version 2021),2021.1.4,120.25807383156045,
Conditions/Version_2Pr/threeback(1)_v2.xlsx,New rule: Press 'space' when you see 3-back (i.e. the same letter as the one that appeared 3 letters ago.),,,,,,,0,3,3,3,,,,,,,,,,,,,,,,,,,,,,,,,,,,,,,,,,,,,,,,,,,,,,,,,,,,,,,,,,,,,,,,,,,,,,,,,,,,,,,,,,,,,,,,,P024,FENCOG,2,Pre,2022_Feb_11_1119,N-Back (New Version 2021),2021.1.4,120.25807383156045,
,,,,,,,,,,,,,,,,,,,,,,,,,,,,,,,,,,,,,,,,,,,,,,,,,,,,,,,,,,,,,,,,,,,,,,413.1001110999787,None,space,3.4722509999992326,413.5923005999939,None,,,,,,,,,,,,,,,,,,,,,,,,,P024,FENCOG,2,Pre,2022_Feb_11_1119,N-Back (New Version 2021),2021.1.4,120.25807383156045,
,,,,,,,,,,,,,,,,,,,,,,,,,,,,,,,,,,,,,,,,,,,,,,,,,,,,,,,,,,,,,,,,,,,,,,,,,,,,417.08566029998474,None,space,2.785768800007645,417.58302689998527,None,,,,,,,,,,,,,,,,,,,P024,FENCOG,2,Pre,2022_Feb_11_1119,N-Back (New Version 2021),2021.1.4,120.25807383156045,
,,,,Conditions/Version_1/zeroback(1)_v1.xlsx,Rule: Press 'space' when you see the letter 'x' or 'X'.,b,None,,,,,,,,,0,0,0,0,0,0,0,0,,,,,,,,,,,,,,,,,,,,,,,,,,,,,,,,,,,,,,,,,,,,,,,,,,,,,,,,,,,420.4791253999865,None,423.46591319999425,None,space,0.6231468000041787,423.46591319999425,None,420.4791253999865,None,1.8656,425.9853865999903,None,None,1,425.9853865999903,None,,P024,FENCOG,2,Pre,2022_Feb_11_1119,N-Back (New Version 2021),2021.1.4,120.25807383156045,
,,,,Conditions/Version_1/zeroback(1)_v1.xlsx,Rule: Press 'space' when you see the letter 'x' or 'X'.,T,None,,,,,,,,,0,0,0,0,0,1,1,1,,,,,,,,,,,,,,,,,,,,,,,,,,,,,,,,,,,,,,,,,,,,,,,,,,,,,,,,,,,,,,,,,,,,,1.289,429.27974949998315,None,None,1,429.27974949998315,None,,P024,FENCOG,2,Pre,2022_Feb_11_1119,N-Back (New Version 2021),2021.1.4,120.25807383156045,
,,,,Conditions/Version_1/zeroback(1)_v1.xlsx,Rule: Press 'space' when you see the letter 'x' or 'X'.,L,None,,,,,,,,,0,0,0,0,0,2,2,2,,,,,,,,,,,,,,,,,,,,,,,,,,,,,,,,,,,,,,,,,,,,,,,,,,,,,,,,,,,,,,,,,,,,,1.6486,432.93628080000053,None,None,1,432.93628080000053,None,,P024,FENCOG,2,Pre,2022_Feb_11_1119,N-Back (New Version 2021),2021.1.4,120.25807383156045,
,,,,Conditions/Version_1/zeroback(1)_v1.xlsx,Rule: Press 'space' when you see the letter 'x' or 'X'.,x,space,,,,,,,,,0,0,0,0,0,3,3,3,,,,,,,,,,,,,,,,,,,,,,,,,,,,,,,,,,,,,,,,,,,,,,,,,,,,,,,,,,,,,,,,,,,,,1.1402,436.07758019998437,None,space,1,436.07758019998437,None,1.3313433000002988,P024,FENCOG,2,Pre,2022_Feb_11_1119,N-Back (New Version 2021),2021.1.4,120.25807383156045,
,,,,Conditions/Version_1/zeroback(1)_v1.xlsx,Rule: Press 'space' when you see the letter 'x' or 'X'.,o,None,,,,,,,,,0,0,0,0,0,4,4,4,,,,,,,,,,,,,,,,,,,,,,,,,,,,,,,,,,,,,,,,,,,,,,,,,,,,,,,,,,,,,,,,,,,,,1.9834,440.0681210999901,None,None,1,440.0681210999901,None,,P024,FENCOG,2,Pre,2022_Feb_11_1119,N-Back (New Version 2021),2021.1.4,120.25807383156045,
,,,,Conditions/Version_1/zeroback(1)_v1.xlsx,Rule: Press 'space' when you see the letter 'x' or 'X'.,P,None,,,,,,,,,0,0,0,0,0,5,5,5,,,,,,,,,,,,,,,,,,,,,,,,,,,,,,,,,,,,,,,,,,,,,,,,,,,,,,,,,,,,,,,,,,,,,1.9028,443.9838424999907,None,None,1,443.9838424999907,None,,P024,FENCOG,2,Pre,2022_Feb_11_1119,N-Back (New Version 2021),2021.1.4,120.25807383156045,
,,,,Conditions/Version_1/zeroback(1)_v1.xlsx,Rule: Press 'space' when you see the letter 'x' or 'X'.,X,space,,,,,,,,,0,0,0,0,0,6,6,6,,,,,,,,,,,,,,,,,,,,,,,,,,,,,,,,,,,,,,,,,,,,,,,,,,,,,,,,,,,,,,,,,,,,,1.9896,447.98222689999966,None,space,1,447.98222689999966,None,0.370613199978834,P024,FENCOG,2,Pre,2022_Feb_11_1119,N-Back (New Version 2021),2021.1.4,120.25807383156045,
,,,,Conditions/Version_1/zeroback(1)_v1.xlsx,Rule: Press 'space' when you see the letter 'x' or 'X'.,n,None,,,,,,,,,0,0,0,0,0,7,7,7,,,,,,,,,,,,,,,,,,,,,,,,,,,,,,,,,,,,,,,,,,,,,,,,,,,,,,,,,,,,,,,,,,,,,1.5928,451.5813499999931,None,None,1,451.5813499999931,None,,P024,FENCOG,2,Pre,2022_Feb_11_1119,N-Back (New Version 2021),2021.1.4,120.25807383156045,
,,,,Conditions/Version_1/zeroback(1)_v1.xlsx,Rule: Press 'space' when you see the letter 'x' or 'X'.,M,None,,,,,,,,,0,0,0,0,0,8,8,8,,,,,,,,,,,,,,,,,,,,,,,,,,,,,,,,,,,,,,,,,,,,,,,,,,,,,,,,,,,,,,,,,,,,,1.6982,455.2895728999865,None,None,1,455.2895728999865,None,,P024,FENCOG,2,Pre,2022_Feb_11_1119,N-Back (New Version 2021),2021.1.4,120.25807383156045,
,,,,Conditions/Version_1/zeroback(1)_v1.xlsx,Rule: Press 'space' when you see the letter 'x' or 'X'.,a,None,,,,,,,,,0,0,0,0,0,9,9,9,,,,,,,,,,,,,,,,,,,,,,,,,,,,,,,,,,,,,,,,,,,,,,,,,,,,,,,,,,,,,,,,,,,,,1.1464,458.4482909999788,None,None,1,458.4482909999788,None,,P024,FENCOG,2,Pre,2022_Feb_11_1119,N-Back (New Version 2021),2021.1.4,120.25807383156045,
,,,,Conditions/Version_1/zeroback(1)_v1.xlsx,Rule: Press 'space' when you see the letter 'x' or 'X'.,,,,,,,,,,,0,0,0,0,,,,,,,,,,,,,,,,,,,,,,,,,,,,,,,,,,,,,,,,,,,,,,,,,,,,,,,,,,,,,,,,,,,,,,,,,,,,,,,,,P024,FENCOG,2,Pre,2022_Feb_11_1119,N-Back (New Version 2021),2021.1.4,120.25807383156045,
,,,,Conditions/Version_1/oneback(1)_v1.xlsx,New rule: Press 'space' when you see 1-back (i.e. the same letter as the one that appeared 1 letter ago.),b,None,,,,,,,,,0,1,1,1,0,0,0,0,,,,,,,,,,,,,,,,,,,,,,,,,,,,,,,,,,,,,,,,,,,,,,,,,,,,,,,,,,,460.47363130000303,None,463.45395559997996,None,space,0.6107917000190355,463.45395559997996,None,460.47363130000303,None,1.785,465.87642179999966,None,None,1,465.87642179999966,None,,P024,FENCOG,2,Pre,2022_Feb_11_1119,N-Back (New Version 2021),2021.1.4,120.25807383156045,
,,,,Conditions/Version_1/oneback(1)_v1.xlsx,New rule: Press 'space' when you see 1-back (i.e. the same letter as the one that appeared 1 letter ago.),p,None,,,,,,,,,0,1,1,1,0,1,1,1,,,,,,,,,,,,,,,,,,,,,,,,,,,,,,,,,,,,,,,,,,,,,,,,,,,,,,,,,,,,,,,,,,,,,1.5184,469.40063629997894,None,None,1,469.40063629997894,None,,P024,FENCOG,2,Pre,2022_Feb_11_1119,N-Back (New Version 2021),2021.1.4,120.25807383156045,
,,,,Conditions/Version_1/oneback(1)_v1.xlsx,New rule: Press 'space' when you see 1-back (i.e. the same letter as the one that appeared 1 letter ago.),M,None,,,,,,,,,0,1,1,1,0,2,2,2,,,,,,,,,,,,,,,,,,,,,,,,,,,,,,,,,,,,,,,,,,,,,,,,,,,,,,,,,,,,,,,,,,,,,1.6052,473.00763899998856,None,None,1,473.00763899998856,None,,P024,FENCOG,2,Pre,2022_Feb_11_1119,N-Back (New Version 2021),2021.1.4,120.25807383156045,
,,,,Conditions/Version_1/oneback(1)_v1.xlsx,New rule: Press 'space' when you see 1-back (i.e. the same letter as the one that appeared 1 letter ago.),M,space,,,,,,,,,0,1,1,1,0,3,3,3,,,,,,,,,,,,,,,,,,,,,,,,,,,,,,,,,,,,,,,,,,,,,,,,,,,,,,,,,,,,,,,,,,,,,1.2766,476.2898106999928,None,space,1,476.2898106999928,None,0.5511504999885801,P024,FENCOG,2,Pre,2022_Feb_11_1119,N-Back (New Version 2021),2021.1.4,120.25807383156045,
,,,,Conditions/Version_1/oneback(1)_v1.xlsx,New rule: Press 'space' when you see 1-back (i.e. the same letter as the one that appeared 1 letter ago.),n,None,,,,,,,,,0,1,1,1,0,4,4,4,,,,,,,,,,,,,,,,,,,,,,,,,,,,,,,,,,,,,,,,,,,,,,,,,,,,,,,,,,,,,,,,,,,,,1.9648,480.25551719998475,None,None,1,480.25551719998475,None,,P024,FENCOG,2,Pre,2022_Feb_11_1119,N-Back (New Version 2021),2021.1.4,120.25807383156045,
,,,,Conditions/Version_1/oneback(1)_v1.xlsx,New rule: Press 'space' when you see 1-back (i.e. the same letter as the one that appeared 1 letter ago.),g,None,,,,,,,,,0,1,1,1,0,5,5,5,,,,,,,,,,,,,,,,,,,,,,,,,,,,,,,,,,,,,,,,,,,,,,,,,,,,,,,,,,,,,,,,,,,,,1.2642,483.5228610000049,None,None,1,483.5228610000049,None,,P024,FENCOG,2,Pre,2022_Feb_11_1119,N-Back (New Version 2021),2021.1.4,120.25807383156045,
,,,,Conditions/Version_1/oneback(1)_v1.xlsx,New rule: Press 'space' when you see 1-back (i.e. the same letter as the one that appeared 1 letter ago.),P,None,,,,,,,,,0,1,1,1,0,6,6,6,,,,,,,,,,,,,,,,,,,,,,,,,,,,,,,,,,,,,,,,,,,,,,,,,,,,,,,,,,,,,,,,,,,,,1.6114,487.14497870000196,None,None,1,487.14497870000196,None,,P024,FENCOG,2,Pre,2022_Feb_11_1119,N-Back (New Version 2021),2021.1.4,120.25807383156045,
,,,,Conditions/Version_1/oneback(1)_v1.xlsx,New rule: Press 'space' when you see 1-back (i.e. the same letter as the one that appeared 1 letter ago.),o,None,,,,,,,,,0,1,1,1,0,7,7,7,,,,,,,,,,,,,,,,,,,,,,,,,,,,,,,,,,,,,,,,,,,,,,,,,,,,,,,,,,,,,,,,,,,,,1.8656,491.0180085999891,None,None,1,491.0180085999891,None,,P024,FENCOG,2,Pre,2022_Feb_11_1119,N-Back (New Version 2021),2021.1.4,120.25807383156045,
,,,,Conditions/Version_1/oneback(1)_v1.xlsx,New rule: Press 'space' when you see 1-back (i.e. the same letter as the one that appeared 1 letter ago.),f,None,,,,,,,,,0,1,1,1,0,8,8,8,,,,,,,,,,,,,,,,,,,,,,,,,,,,,,,,,,,,,,,,,,,,,,,,,,,,,,,,,,,,,,,,,,,,,1.4378,494.46275489998516,None,None,1,494.46275489998516,None,,P024,FENCOG,2,Pre,2022_Feb_11_1119,N-Back (New Version 2021),2021.1.4,120.25807383156045,
,,,,Conditions/Version_1/oneback(1)_v1.xlsx,New rule: Press 'space' when you see 1-back (i.e. the same letter as the one that appeared 1 letter ago.),F,space,,,,,,,,,0,1,1,1,0,9,9,9,,,,,,,,,,,,,,,,,,,,,,,,,,,,,,,,,,,,,,,,,,,,,,,,,,,,,,,,,,,,,,,,,,,,,1.0348,497.5120614999905,None,space,1,497.5120614999905,None,0.5128439000109211,P024,FENCOG,2,Pre,2022_Feb_11_1119,N-Back (New Version 2021),2021.1.4,120.25807383156045,
,,,,Conditions/Version_1/oneback(1)_v1.xlsx,New rule: Press 'space' when you see 1-back (i.e. the same letter as the one that appeared 1 letter ago.),,,,,,,,,,,0,1,1,1,,,,,,,,,,,,,,,,,,,,,,,,,,,,,,,,,,,,,,,,,,,,,,,,,,,,,,,,,,,,,,,,,,,,,,,,,,,,,,,,,P024,FENCOG,2,Pre,2022_Feb_11_1119,N-Back (New Version 2021),2021.1.4,120.25807383156045,
,,,,Conditions/Version_1/twoback(1)_v1.xlsx,New rule: Press 'space' when you see 2-back (i.e. the same letter as the one that appeared 2 letters ago.),b,None,,,,,,,,,0,2,2,2,0,0,0,0,,,,,,,,,,,,,,,,,,,,,,,,,,,,,,,,,,,,,,,,,,,,,,,,,,,,,,,,,,,499.5479722000018,None,502.5176391999994,None,space,0.37125129997730255,502.5176391999994,None,499.5479722000018,None,1.475,504.3992280999955,None,None,1,504.3992280999955,None,,P024,FENCOG,2,Pre,2022_Feb_11_1119,N-Back (New Version 2021),2021.1.4,120.25807383156045,
,,,,Conditions/Version_1/twoback(1)_v1.xlsx,New rule: Press 'space' when you see 2-back (i.e. the same letter as the one that appeared 2 letters ago.),h,None,,,,,,,,,0,2,2,2,0,1,1,1,,,,,,,,,,,,,,,,,,,,,,,,,,,,,,,,,,,,,,,,,,,,,,,,,,,,,,,,,,,,,,,,,,,,,1.5432,507.9563286000048,None,None,1,507.9563286000048,None,,P024,FENCOG,2,Pre,2022_Feb_11_1119,N-Back (New Version 2021),2021.1.4,120.25807383156045,
,,,,Conditions/Version_1/twoback(1)_v1.xlsx,New rule: Press 'space' when you see 2-back (i.e. the same letter as the one that appeared 2 letters ago.),j,None,,,,,,,,,0,2,2,2,0,2,2,2,,,,,,,,,,,,,,,,,,,,,,,,,,,,,,,,,,,,,,,,,,,,,,,,,,,,,,,,,,,,,,,,,,,,,1.0472,511.01578190000146,None,None,1,511.01578190000146,None,,P024,FENCOG,2,Pre,2022_Feb_11_1119,N-Back (New Version 2021),2021.1.4,120.25807383156045,
,,,,Conditions/Version_1/twoback(1)_v1.xlsx,New rule: Press 'space' when you see 2-back (i.e. the same letter as the one that appeared 2 letters ago.),H,space,,,,,,,,,0,2,2,2,0,3,3,3,,,,,,,,,,,,,,,,,,,,,,,,,,,,,,,,,,,,,,,,,,,,,,,,,,,,,,,,,,,,,,,,,,,,,1.8718,514.8964224999945,None,space,1,514.8964224999945,None,0.40833109998493455,P024,FENCOG,2,Pre,2022_Feb_11_1119,N-Back (New Version 2021),2021.1.4,120.25807383156045,
,,,,Conditions/Version_1/twoback(1)_v1.xlsx,New rule: Press 'space' when you see 2-back (i.e. the same letter as the one that appeared 2 letters ago.),p,None,,,,,,,,,0,2,2,2,0,4,4,4,,,,,,,,,,,,,,,,,,,,,,,,,,,,,,,,,,,,,,,,,,,,,,,,,,,,,,,,,,,,,,,,,,,,,1.2332,518.1358616999933,None,None,1,518.1358616999933,None,,P024,FENCOG,2,Pre,2022_Feb_11_1119,N-Back (New Version 2021),2021.1.4,120.25807383156045,
,,,,Conditions/Version_1/twoback(1)_v1.xlsx,New rule: Press 'space' when you see 2-back (i.e. the same letter as the one that appeared 2 letters ago.),p,None,,,,,,,,,0,2,2,2,0,5,5,5,,,,,,,,,,,,,,,,,,,,,,,,,,,,,,,,,,,,,,,,,,,,,,,,,,,,,,,,,,,,,,,,,,,,,1.5184,521.6598123000003,None,None,1,521.6598123000003,None,,P024,FENCOG,2,Pre,2022_Feb_11_1119,N-Back (New Version 2021),2021.1.4,120.25807383156045,
,,,,Conditions/Version_1/twoback(1)_v1.xlsx,New rule: Press 'space' when you see 2-back (i.e. the same letter as the one that appeared 2 letters ago.),w,None,,,,,,,,,0,2,2,2,0,6,6,6,,,,,,,,,,,,,,,,,,,,,,,,,,,,,,,,,,,,,,,,,,,,,,,,,,,,,,,,,,,,,,,,,,,,,1.9276,525.5928216000029,None,None,1,525.5928216000029,None,,P024,FENCOG,2,Pre,2022_Feb_11_1119,N-Back (New Version 2021),2021.1.4,120.25807383156045,
,,,,Conditions/Version_1/twoback(1)_v1.xlsx,New rule: Press 'space' when you see 2-back (i.e. the same letter as the one that appeared 2 letters ago.),R,None,,,,,,,,,0,2,2,2,0,7,7,7,,,,,,,,,,,,,,,,,,,,,,,,,,,,,,,,,,,,,,,,,,,,,,,,,,,,,,,,,,,,,,,,,,,,,1.8408,529.4409674000053,None,None,1,529.4409674000053,None,,P024,FENCOG,2,Pre,2022_Feb_11_1119,N-Back (New Version 2021),2021.1.4,120.25807383156045,
,,,,Conditions/Version_1/twoback(1)_v1.xlsx,New rule: Press 'space' when you see 2-back (i.e. the same letter as the one that appeared 2 letters ago.),a,None,,,,,,,,,0,2,2,2,0,8,8,8,,,,,,,,,,,,,,,,,,,,,,,,,,,,,,,,,,,,,,,,,,,,,,,,,,,,,,,,,,,,,,,,,,,,,1.4006,532.8403378999792,None,None,1,532.8403378999792,None,,P024,FENCOG,2,Pre,2022_Feb_11_1119,N-Back (New Version 2021),2021.1.4,120.25807383156045,
,,,,Conditions/Version_1/twoback(1)_v1.xlsx,New rule: Press 'space' when you see 2-back (i.e. the same letter as the one that appeared 2 letters ago.),r,space,,,,,,,,,0,2,2,2,0,9,9,9,,,,,,,,,,,,,,,,,,,,,,,,,,,,,,,,,,,,,,,,,,,,,,,,,,,,,,,,,,,,,,,,,,,,,1.2828,536.1307411000016,None,space,1,536.1307411000016,None,0.6062833000032697,P024,FENCOG,2,Pre,2022_Feb_11_1119,N-Back (New Version 2021),2021.1.4,120.25807383156045,
,,,,Conditions/Version_1/twoback(1)_v1.xlsx,New rule: Press 'space' when you see 2-back (i.e. the same letter as the one that appeared 2 letters ago.),,,,,,,,,,,0,2,2,2,,,,,,,,,,,,,,,,,,,,,,,,,,,,,,,,,,,,,,,,,,,,,,,,,,,,,,,,,,,,,,,,,,,,,,,,,,,,,,,,,P024,FENCOG,2,Pre,2022_Feb_11_1119,N-Back (New Version 2021),2021.1.4,120.25807383156045,
,,,,Conditions/Version_1/threeback(1)_v1.xlsx,New rule: Press 'space' when you see 3-back (i.e. the same letter as the one that appeared 3 letters ago.),r,None,,,,,,,,,0,3,3,3,0,0,0,0,,,,,,,,,,,,,,,,,,,,,,,,,,,,,,,,,,,,,,,,,,,,,,,,,,,,,,,,,,,538.1525511999789,None,541.1391909999948,None,space,0.4376162000116892,541.1391909999948,None,538.1525511999789,None,1.6176,543.2288962999883,None,None,1,543.2288962999883,None,,P024,FENCOG,2,Pre,2022_Feb_11_1119,N-Back (New Version 2021),2021.1.4,120.25807383156045,
,,,,Conditions/Version_1/threeback(1)_v1.xlsx,New rule: Press 'space' when you see 3-back (i.e. the same letter as the one that appeared 3 letters ago.),o,None,,,,,,,,,0,3,3,3,0,1,1,1,,,,,,,,,,,,,,,,,,,,,,,,,,,,,,,,,,,,,,,,,,,,,,,,,,,,,,,,,,,,,,,,,,,,,1.8098,547.0467255999974,None,None,1,547.0467255999974,None,,P024,FENCOG,2,Pre,2022_Feb_11_1119,N-Back (New Version 2021),2021.1.4,120.25807383156045,
,,,,Conditions/Version_1/threeback(1)_v1.xlsx,New rule: Press 'space' when you see 3-back (i.e. the same letter as the one that appeared 3 letters ago.),P,None,,,,,,,,,0,3,3,3,0,2,2,2,,,,,,,,,,,,,,,,,,,,,,,,,,,,,,,,,,,,,,,,,,,,,,,,,,,,,,,,,,,,,,,,,,,,,1.0658,550.119289299997,None,None,1,550.119289299997,None,,P024,FENCOG,2,Pre,2022_Feb_11_1119,N-Back (New Version 2021),2021.1.4,120.25807383156045,
,,,,Conditions/Version_1/threeback(1)_v1.xlsx,New rule: Press 'space' when you see 3-back (i.e. the same letter as the one that appeared 3 letters ago.),R,space,,,,,,,,,0,3,3,3,0,3,3,3,,,,,,,,,,,,,,,,,,,,,,,,,,,,,,,,,,,,,,,,,,,,,,,,,,,,,,,,,,,,,,,,,,,,,1.4006,553.5348552000069,None,space,1,553.5348552000069,None,0.37799330000416376,P024,FENCOG,2,Pre,2022_Feb_11_1119,N-Back (New Version 2021),2021.1.4,120.25807383156045,
,,,,Conditions/Version_1/threeback(1)_v1.xlsx,New rule: Press 'space' when you see 3-back (i.e. the same letter as the one that appeared 3 letters ago.),p,None,,,,,,,,,0,3,3,3,0,4,4,4,,,,,,,,,,,,,,,,,,,,,,,,,,,,,,,,,,,,,,,,,,,,,,,,,,,,,,,,,,,,,,,,,,,,,1.9152,557.4576607999916,None,None,1,557.4576607999916,None,,P024,FENCOG,2,Pre,2022_Feb_11_1119,N-Back (New Version 2021),2021.1.4,120.25807383156045,
,,,,Conditions/Version_1/threeback(1)_v1.xlsx,New rule: Press 'space' when you see 3-back (i.e. the same letter as the one that appeared 3 letters ago.),E,None,,,,,,,,,0,3,3,3,0,5,5,5,,,,,,,,,,,,,,,,,,,,,,,,,,,,,,,,,,,,,,,,,,,,,,,,,,,,,,,,,,,,,,,,,,,,,1.847,561.3155562999891,None,None,1,561.3155562999891,None,,P024,FENCOG,2,Pre,2022_Feb_11_1119,N-Back (New Version 2021),2021.1.4,120.25807383156045,
,,,,Conditions/Version_1/threeback(1)_v1.xlsx,New rule: Press 'space' when you see 3-back (i.e. the same letter as the one that appeared 3 letters ago.),e,None,,,,,,,,,0,3,3,3,0,6,6,6,,,,,,,,,,,,,,,,,,,,,,,,,,,,,,,,,,,,,,,,,,,,,,,,,,,,,,,,,,,,,,,,,,,,,1.6362,564.9643115999934,None,None,1,564.9643115999934,None,,P024,FENCOG,2,Pre,2022_Feb_11_1119,N-Back (New Version 2021),2021.1.4,120.25807383156045,
,,,,Conditions/Version_1/threeback(1)_v1.xlsx,New rule: Press 'space' when you see 3-back (i.e. the same letter as the one that appeared 3 letters ago.),m,None,,,,,,,,,0,3,3,3,0,7,7,7,,,,,,,,,,,,,,,,,,,,,,,,,,,,,,,,,,,,,,,,,,,,,,,,,,,,,,,,,,,,,,,,,,,,,1.9958,568.9629416999815,None,None,1,568.9629416999815,None,,P024,FENCOG,2,Pre,2022_Feb_11_1119,N-Back (New Version 2021),2021.1.4,120.25807383156045,
,,,,Conditions/Version_1/threeback(1)_v1.xlsx,New rule: Press 'space' when you see 3-back (i.e. the same letter as the one that appeared 3 letters ago.),n,None,,,,,,,,,0,3,3,3,0,8,8,8,,,,,,,,,,,,,,,,,,,,,,,,,,,,,,,,,,,,,,,,,,,,,,,,,,,,,,,,,,,,,,,,,,,,,1.7168,572.6785576999828,None,None,1,572.6785576999828,None,,P024,FENCOG,2,Pre,2022_Feb_11_1119,N-Back (New Version 2021),2021.1.4,120.25807383156045,
,,,,Conditions/Version_1/threeback(1)_v1.xlsx,New rule: Press 'space' when you see 3-back (i.e. the same letter as the one that appeared 3 letters ago.),e,space,,,,,,,,,0,3,3,3,0,9,9,9,,,,,,,,,,,,,,,,,,,,,,,,,,,,,,,,,,,,,,,,,,,,,,,,,,,,,,,,,,,,,,,,,,,,,1.661,576.3444036000001,None,space,1,576.3444036000001,None,0.31235590000869706,P024,FENCOG,2,Pre,2022_Feb_11_1119,N-Back (New Version 2021),2021.1.4,120.25807383156045,
,,,,Conditions/Version_1/threeback(1)_v1.xlsx,New rule: Press 'space' when you see 3-back (i.e. the same letter as the one that appeared 3 letters ago.),,,,,,,,,,,0,3,3,3,,,,,,,,,,,,,,,,,,,,,,,,,,,,,,,,,,,,,,,,,,,,,,,,,,,,,,,,,,,,,,,,,,,,,,,,,,,,,,,,,P024,FENCOG,2,Pre,2022_Feb_11_1119,N-Back (New Version 2021),2021.1.4,120.25807383156045,
,,,,Conditions/Version_1/oneback(2)_v1.xlsx,New rule: Press 'space' when you see 1-back (i.e. the same letter as the one that appeared 1 letter ago.),q,None,,,,,,,,,0,4,4,4,0,0,0,0,,,,,,,,,,,,,,,,,,,,,,,,,,,,,,,,,,,,,,,,,,,,,,,,,,,,,,,,,,,578.3737234,None,581.3622347000055,None,space,0.7587297999998555,581.3622347000055,None,578.3737234,None,1.3386,583.483639299986,None,None,1,583.483639299986,None,,P024,FENCOG,2,Pre,2022_Feb_11_1119,N-Back (New Version 2021),2021.1.4,120.25807383156045,
,,,,Conditions/Version_1/oneback(2)_v1.xlsx,New rule: Press 'space' when you see 1-back (i.e. the same letter as the one that appeared 1 letter ago.),Q,space,,,,,,,,,0,4,4,4,0,1,1,1,,,,,,,,,,,,,,,,,,,,,,,,,,,,,,,,,,,,,,,,,,,,,,,,,,,,,,,,,,,,,,,,,,,,,1.599,587.0824210999999,None,space,1,587.0824210999999,None,0.4785629999823868,P024,FENCOG,2,Pre,2022_Feb_11_1119,N-Back (New Version 2021),2021.1.4,120.25807383156045,
,,,,Conditions/Version_1/oneback(2)_v1.xlsx,New rule: Press 'space' when you see 1-back (i.e. the same letter as the one that appeared 1 letter ago.),P,None,,,,,,,,,0,4,4,4,0,2,2,2,,,,,,,,,,,,,,,,,,,,,,,,,,,,,,,,,,,,,,,,,,,,,,,,,,,,,,,,,,,,,,,,,,,,,1.2642,590.3507971999934,None,None,1,590.3507971999934,None,,P024,FENCOG,2,Pre,2022_Feb_11_1119,N-Back (New Version 2021),2021.1.4,120.25807383156045,
,,,,Conditions/Version_1/oneback(2)_v1.xlsx,New rule: Press 'space' when you see 1-back (i.e. the same letter as the one that appeared 1 letter ago.),o,None,,,,,,,,,0,4,4,4,0,3,3,3,,,,,,,,,,,,,,,,,,,,,,,,,,,,,,,,,,,,,,,,,,,,,,,,,,,,,,,,,,,,,,,,,,,,,1.351,593.7139074000006,None,None,1,593.7139074000006,None,,P024,FENCOG,2,Pre,2022_Feb_11_1119,N-Back (New Version 2021),2021.1.4,120.25807383156045,
,,,,Conditions/Version_1/oneback(2)_v1.xlsx,New rule: Press 'space' when you see 1-back (i.e. the same letter as the one that appeared 1 letter ago.),m,None,,,,,,,,,0,4,4,4,0,4,4,4,,,,,,,,,,,,,,,,,,,,,,,,,,,,,,,,,,,,,,,,,,,,,,,,,,,,,,,,,,,,,,,,,,,,,1.1278,596.8464297000028,None,None,1,596.8464297000028,None,,P024,FENCOG,2,Pre,2022_Feb_11_1119,N-Back (New Version 2021),2021.1.4,120.25807383156045,
,,,,Conditions/Version_1/oneback(2)_v1.xlsx,New rule: Press 'space' when you see 1-back (i.e. the same letter as the one that appeared 1 letter ago.),Z,None,,,,,,,,,0,4,4,4,0,5,5,5,,,,,,,,,,,,,,,,,,,,,,,,,,,,,,,,,,,,,,,,,,,,,,,,,,,,,,,,,,,,,,,,,,,,,1.4812,600.3305856999941,None,None,1,600.3305856999941,None,,P024,FENCOG,2,Pre,2022_Feb_11_1119,N-Back (New Version 2021),2021.1.4,120.25807383156045,
,,,,Conditions/Version_1/oneback(2)_v1.xlsx,New rule: Press 'space' when you see 1-back (i.e. the same letter as the one that appeared 1 letter ago.),c,None,,,,,,,,,0,4,4,4,0,6,6,6,,,,,,,,,,,,,,,,,,,,,,,,,,,,,,,,,,,,,,,,,,,,,,,,,,,,,,,,,,,,,,,,,,,,,1.289,603.6372375999927,None,None,1,603.6372375999927,None,,P024,FENCOG,2,Pre,2022_Feb_11_1119,N-Back (New Version 2021),2021.1.4,120.25807383156045,
,,,,Conditions/Version_1/oneback(2)_v1.xlsx,New rule: Press 'space' when you see 1-back (i.e. the same letter as the one that appeared 1 letter ago.),c,space,,,,,,,,,0,4,4,4,0,7,7,7,,,,,,,,,,,,,,,,,,,,,,,,,,,,,,,,,,,,,,,,,,,,,,,,,,,,,,,,,,,,,,,,,,,,,1.8904,607.53623529998,None,space,1,607.53623529998,None,0.528917800023919,P024,FENCOG,2,Pre,2022_Feb_11_1119,N-Back (New Version 2021),2021.1.4,120.25807383156045,
,,,,Conditions/Version_1/oneback(2)_v1.xlsx,New rule: Press 'space' when you see 1-back (i.e. the same letter as the one that appeared 1 letter ago.),P,None,,,,,,,,,0,4,4,4,0,8,8,8,,,,,,,,,,,,,,,,,,,,,,,,,,,,,,,,,,,,,,,,,,,,,,,,,,,,,,,,,,,,,,,,,,,,,1.5432,611.092822000006,None,None,1,611.092822000006,None,,P024,FENCOG,2,Pre,2022_Feb_11_1119,N-Back (New Version 2021),2021.1.4,120.25807383156045,
,,,,Conditions/Version_1/oneback(2)_v1.xlsx,New rule: Press 'space' when you see 1-back (i.e. the same letter as the one that appeared 1 letter ago.),p,space,,,,,,,,,0,4,4,4,0,9,9,9,,,,,,,,,,,,,,,,,,,,,,,,,,,,,,,,,,,,,,,,,,,,,,,,,,,,,,,,,,,,,,,,,,,,,1.258,614.3577257999859,None,space,1,614.3577257999859,None,0.6913416000024881,P024,FENCOG,2,Pre,2022_Feb_11_1119,N-Back (New Version 2021),2021.1.4,120.25807383156045,
,,,,Conditions/Version_1/oneback(2)_v1.xlsx,New rule: Press 'space' when you see 1-back (i.e. the same letter as the one that appeared 1 letter ago.),,,,,,,,,,,0,4,4,4,,,,,,,,,,,,,,,,,,,,,,,,,,,,,,,,,,,,,,,,,,,,,,,,,,,,,,,,,,,,,,,,,,,,,,,,,,,,,,,,,P024,FENCOG,2,Pre,2022_Feb_11_1119,N-Back (New Version 2021),2021.1.4,120.25807383156045,
,,,,Conditions/Version_1/zeroback(2)_v1.xlsx,New rule: Press 'space' when you see the letter 'x' or 'X'.,p,None,,,,,,,,,0,5,5,5,0,0,0,0,,,,,,,,,,,,,,,,,,,,,,,,,,,,,,,,,,,,,,,,,,,,,,,,,,,,,,,,,,,616.3763777999848,None,619.3590265999956,None,space,0.9218999000149779,619.3590265999956,None,616.3763777999848,None,1.227,621.5389663999958,None,None,1,621.5389663999958,None,,P024,FENCOG,2,Pre,2022_Feb_11_1119,N-Back (New Version 2021),2021.1.4,120.25807383156045,
,,,,Conditions/Version_1/zeroback(2)_v1.xlsx,New rule: Press 'space' when you see the letter 'x' or 'X'.,L,None,,,,,,,,,0,5,5,5,0,1,1,1,,,,,,,,,,,,,,,,,,,,,,,,,,,,,,,,,,,,,,,,,,,,,,,,,,,,,,,,,,,,,,,,,,,,,1.692,625.2302062999806,None,None,1,625.2302062999806,None,,P024,FENCOG,2,Pre,2022_Feb_11_1119,N-Back (New Version 2021),2021.1.4,120.25807383156045,
,,,,Conditions/Version_1/zeroback(2)_v1.xlsx,New rule: Press 'space' when you see the letter 'x' or 'X'.,G,None,,,,,,,,,0,5,5,5,0,2,2,2,,,,,,,,,,,,,,,,,,,,,,,,,,,,,,,,,,,,,,,,,,,,,,,,,,,,,,,,,,,,,,,,,,,,,1.2766,628.5217362999974,None,None,1,628.5217362999974,None,,P024,FENCOG,2,Pre,2022_Feb_11_1119,N-Back (New Version 2021),2021.1.4,120.25807383156045,
,,,,Conditions/Version_1/zeroback(2)_v1.xlsx,New rule: Press 'space' when you see the letter 'x' or 'X'.,y,None,,,,,,,,,0,5,5,5,0,3,3,3,,,,,,,,,,,,,,,,,,,,,,,,,,,,,,,,,,,,,,,,,,,,,,,,,,,,,,,,,,,,,,,,,,,,,1.289,631.8194530000037,None,None,1,631.8194530000037,None,,P024,FENCOG,2,Pre,2022_Feb_11_1119,N-Back (New Version 2021),2021.1.4,120.25807383156045,
,,,,Conditions/Version_1/zeroback(2)_v1.xlsx,New rule: Press 'space' when you see the letter 'x' or 'X'.,Y,None,,,,,,,,,0,5,5,5,0,4,4,4,,,,,,,,,,,,,,,,,,,,,,,,,,,,,,,,,,,,,,,,,,,,,,,,,,,,,,,,,,,,,,,,,,,,,1.0472,634.8708896999888,None,space,0,634.8708896999888,None,0.6978257000155281,P024,FENCOG,2,Pre,2022_Feb_11_1119,N-Back (New Version 2021),2021.1.4,120.25807383156045,
,,,,Conditions/Version_1/zeroback(2)_v1.xlsx,New rule: Press 'space' when you see the letter 'x' or 'X'.,W,None,,,,,,,,,0,5,5,5,0,5,5,5,,,,,,,,,,,,,,,,,,,,,,,,,,,,,,,,,,,,,,,,,,,,,,,,,,,,,,,,,,,,,,,,,,,,,1.5494,638.429146599985,None,None,1,638.429146599985,None,,P024,FENCOG,2,Pre,2022_Feb_11_1119,N-Back (New Version 2021),2021.1.4,120.25807383156045,
,,,,Conditions/Version_1/zeroback(2)_v1.xlsx,New rule: Press 'space' when you see the letter 'x' or 'X'.,x,space,,,,,,,,,0,5,5,5,0,6,6,6,,,,,,,,,,,,,,,,,,,,,,,,,,,,,,,,,,,,,,,,,,,,,,,,,,,,,,,,,,,,,,,,,,,,,1.1464,641.5828825999924,None,space,1,641.5828825999924,None,0.3460398999741301,P024,FENCOG,2,Pre,2022_Feb_11_1119,N-Back (New Version 2021),2021.1.4,120.25807383156045,
,,,,Conditions/Version_1/zeroback(2)_v1.xlsx,New rule: Press 'space' when you see the letter 'x' or 'X'.,X,space,,,,,,,,,0,5,5,5,0,7,7,7,,,,,,,,,,,,,,,,,,,,,,,,,,,,,,,,,,,,,,,,,,,,,,,,,,,,,,,,,,,,,,,,,,,,,1.5556,645.1422805000038,None,space,1,645.1422805000038,None,0.37066470002173446,P024,FENCOG,2,Pre,2022_Feb_11_1119,N-Back (New Version 2021),2021.1.4,120.25807383156045,
,,,,Conditions/Version_1/zeroback(2)_v1.xlsx,New rule: Press 'space' when you see the letter 'x' or 'X'.,p,None,,,,,,,,,0,5,5,5,0,8,8,8,,,,,,,,,,,,,,,,,,,,,,,,,,,,,,,,,,,,,,,,,,,,,,,,,,,,,,,,,,,,,,,,,,,,,1.2704,648.4233699000033,None,None,1,648.4233699000033,None,,P024,FENCOG,2,Pre,2022_Feb_11_1119,N-Back (New Version 2021),2021.1.4,120.25807383156045,
,,,,Conditions/Version_1/zeroback(2)_v1.xlsx,New rule: Press 'space' when you see the letter 'x' or 'X'.,h,None,,,,,,,,,0,5,5,5,0,9,9,9,,,,,,,,,,,,,,,,,,,,,,,,,,,,,,,,,,,,,,,,,,,,,,,,,,,,,,,,,,,,,,,,,,,,,1.9648,652.3985467999883,None,None,1,652.3985467999883,None,,P024,FENCOG,2,Pre,2022_Feb_11_1119,N-Back (New Version 2021),2021.1.4,120.25807383156045,
,,,,Conditions/Version_1/zeroback(2)_v1.xlsx,New rule: Press 'space' when you see the letter 'x' or 'X'.,,,,,,,,,,,0,5,5,5,,,,,,,,,,,,,,,,,,,,,,,,,,,,,,,,,,,,,,,,,,,,,,,,,,,,,,,,,,,,,,,,,,,,,,,,,,,,,,,,,P024,FENCOG,2,Pre,2022_Feb_11_1119,N-Back (New Version 2021),2021.1.4,120.25807383156045,
,,,,Conditions/Version_1/threeback(2)_v1.xlsx,New rule: Press 'space' when you see 3-back (i.e. the same letter as the one that appeared 3 letters ago.),q,None,,,,,,,,,0,6,6,6,0,0,0,0,,,,,,,,,,,,,,,,,,,,,,,,,,,,,,,,,,,,,,,,,,,,,,,,,,,,,,,,,,,654.4291575999814,None,657.4138569000061,None,space,0.26715869997860864,657.4138569000061,None,654.4291575999814,None,1.692,659.3943517000007,None,None,1,659.3943517000007,None,,P024,FENCOG,2,Pre,2022_Feb_11_1119,N-Back (New Version 2021),2021.1.4,120.25807383156045,
,,,,Conditions/Version_1/threeback(2)_v1.xlsx,New rule: Press 'space' when you see 3-back (i.e. the same letter as the one that appeared 3 letters ago.),Y,None,,,,,,,,,0,6,6,6,0,1,1,1,,,,,,,,,,,,,,,,,,,,,,,,,,,,,,,,,,,,,,,,,,,,,,,,,,,,,,,,,,,,,,,,,,,,,1.7416,663.1350268999813,None,None,1,663.1350268999813,None,,P024,FENCOG,2,Pre,2022_Feb_11_1119,N-Back (New Version 2021),2021.1.4,120.25807383156045,
,,,,Conditions/Version_1/threeback(2)_v1.xlsx,New rule: Press 'space' when you see 3-back (i.e. the same letter as the one that appeared 3 letters ago.),p,None,,,,,,,,,0,6,6,6,0,2,2,2,,,,,,,,,,,,,,,,,,,,,,,,,,,,,,,,,,,,,,,,,,,,,,,,,,,,,,,,,,,,,,,,,,,,,1.1278,666.2675613999891,None,None,1,666.2675613999891,None,,P024,FENCOG,2,Pre,2022_Feb_11_1119,N-Back (New Version 2021),2021.1.4,120.25807383156045,
,,,,Conditions/Version_1/threeback(2)_v1.xlsx,New rule: Press 'space' when you see 3-back (i.e. the same letter as the one that appeared 3 letters ago.),p,None,,,,,,,,,0,6,6,6,0,3,3,3,,,,,,,,,,,,,,,,,,,,,,,,,,,,,,,,,,,,,,,,,,,,,,,,,,,,,,,,,,,,,,,,,,,,,1.661,669.933323699981,None,None,1,669.933323699981,None,,P024,FENCOG,2,Pre,2022_Feb_11_1119,N-Back (New Version 2021),2021.1.4,120.25807383156045,
,,,,Conditions/Version_1/threeback(2)_v1.xlsx,New rule: Press 'space' when you see 3-back (i.e. the same letter as the one that appeared 3 letters ago.),y,space,,,,,,,,,0,6,6,6,0,4,4,4,,,,,,,,,,,,,,,,,,,,,,,,,,,,,,,,,,,,,,,,,,,,,,,,,,,,,,,,,,,,,,,,,,,,,1.4378,673.3737277000037,None,space,1,673.3737277000037,None,0.7231557999912184,P024,FENCOG,2,Pre,2022_Feb_11_1119,N-Back (New Version 2021),2021.1.4,120.25807383156045,
,,,,Conditions/Version_1/threeback(2)_v1.xlsx,New rule: Press 'space' when you see 3-back (i.e. the same letter as the one that appeared 3 letters ago.),u,None,,,,,,,,,0,6,6,6,0,5,5,5,,,,,,,,,,,,,,,,,,,,,,,,,,,,,,,,,,,,,,,,,,,,,,,,,,,,,,,,,,,,,,,,,,,,,1.4688,676.8478753999807,None,None,1,676.8478753999807,None,,P024,FENCOG,2,Pre,2022_Feb_11_1119,N-Back (New Version 2021),2021.1.4,120.25807383156045,
,,,,Conditions/Version_1/threeback(2)_v1.xlsx,New rule: Press 'space' when you see 3-back (i.e. the same letter as the one that appeared 3 letters ago.),P,space,,,,,,,,,0,6,6,6,0,6,6,6,,,,,,,,,,,,,,,,,,,,,,,,,,,,,,,,,,,,,,,,,,,,,,,,,,,,,,,,,,,,,,,,,,,,,1.2456,680.096746700001,None,space,1,680.096746700001,None,0.6162878999894019,P024,FENCOG,2,Pre,2022_Feb_11_1119,N-Back (New Version 2021),2021.1.4,120.25807383156045,
,,,,Conditions/Version_1/threeback(2)_v1.xlsx,New rule: Press 'space' when you see 3-back (i.e. the same letter as the one that appeared 3 letters ago.),a,None,,,,,,,,,0,6,6,6,0,7,7,7,,,,,,,,,,,,,,,,,,,,,,,,,,,,,,,,,,,,,,,,,,,,,,,,,,,,,,,,,,,,,,,,,,,,,1.4192,683.5206903000071,None,None,1,683.5206903000071,None,,P024,FENCOG,2,Pre,2022_Feb_11_1119,N-Back (New Version 2021),2021.1.4,120.25807383156045,
,,,,Conditions/Version_1/threeback(2)_v1.xlsx,New rule: Press 'space' when you see 3-back (i.e. the same letter as the one that appeared 3 letters ago.),U,space,,,,,,,,,0,6,6,6,0,8,8,8,,,,,,,,,,,,,,,,,,,,,,,,,,,,,,,,,,,,,,,,,,,,,,,,,,,,,,,,,,,,,,,,,,,,,1.6486,687.1705871000013,None,space,1,687.1705871000013,None,0.7105296999798156,P024,FENCOG,2,Pre,2022_Feb_11_1119,N-Back (New Version 2021),2021.1.4,120.25807383156045,
,,,,Conditions/Version_1/threeback(2)_v1.xlsx,New rule: Press 'space' when you see 3-back (i.e. the same letter as the one that appeared 3 letters ago.),q,None,,,,,,,,,0,6,6,6,0,9,9,9,,,,,,,,,,,,,,,,,,,,,,,,,,,,,,,,,,,,,,,,,,,,,,,,,,,,,,,,,,,,,,,,,,,,,1.2518,690.4355455999903,None,None,1,690.4355455999903,None,,P024,FENCOG,2,Pre,2022_Feb_11_1119,N-Back (New Version 2021),2021.1.4,120.25807383156045,
,,,,Conditions/Version_1/threeback(2)_v1.xlsx,New rule: Press 'space' when you see 3-back (i.e. the same letter as the one that appeared 3 letters ago.),,,,,,,,,,,0,6,6,6,,,,,,,,,,,,,,,,,,,,,,,,,,,,,,,,,,,,,,,,,,,,,,,,,,,,,,,,,,,,,,,,,,,,,,,,,,,,,,,,,P024,FENCOG,2,Pre,2022_Feb_11_1119,N-Back (New Version 2021),2021.1.4,120.25807383156045,
,,,,Conditions/Version_1/twoback(2)_v1.xlsx,New rule: Press 'space' when you see 2-back (i.e. the same letter as the one that appeared 2 letters ago.),q,None,,,,,,,,,0,7,7,7,0,0,0,0,,,,,,,,,,,,,,,,,,,,,,,,,,,,,,,,,,,,,,,,,,,,,,,,,,,,,,,,,,,692.4595992999966,None,695.4361633999797,None,space,0.356911900016712,695.4361633999797,None,692.4595992999966,None,1.134,696.9503511000075,None,None,1,696.9503511000075,None,,P024,FENCOG,2,Pre,2022_Feb_11_1119,N-Back (New Version 2021),2021.1.4,120.25807383156045,
,,,,Conditions/Version_1/twoback(2)_v1.xlsx,New rule: Press 'space' when you see 2-back (i.e. the same letter as the one that appeared 2 letters ago.),r,None,,,,,,,,,0,7,7,7,0,1,1,1,,,,,,,,,,,,,,,,,,,,,,,,,,,,,,,,,,,,,,,,,,,,,,,,,,,,,,,,,,,,,,,,,,,,,1.5308,700.4825604999787,None,None,1,700.4825604999787,None,,P024,FENCOG,2,Pre,2022_Feb_11_1119,N-Back (New Version 2021),2021.1.4,120.25807383156045,
,,,,Conditions/Version_1/twoback(2)_v1.xlsx,New rule: Press 'space' when you see 2-back (i.e. the same letter as the one that appeared 2 letters ago.),q,space,,,,,,,,,0,7,7,7,0,2,2,2,,,,,,,,,,,,,,,,,,,,,,,,,,,,,,,,,,,,,,,,,,,,,,,,,,,,,,,,,,,,,,,,,,,,,1.8904,704.3736242000014,None,space,1,704.3736242000014,None,0.3793354000081308,P024,FENCOG,2,Pre,2022_Feb_11_1119,N-Back (New Version 2021),2021.1.4,120.25807383156045,
,,,,Conditions/Version_1/twoback(2)_v1.xlsx,New rule: Press 'space' when you see 2-back (i.e. the same letter as the one that appeared 2 letters ago.),P,None,,,,,,,,,0,7,7,7,0,3,3,3,,,,,,,,,,,,,,,,,,,,,,,,,,,,,,,,,,,,,,,,,,,,,,,,,,,,,,,,,,,,,,,,,,,,,1.32,707.7052279000054,None,None,1,707.7052279000054,None,,P024,FENCOG,2,Pre,2022_Feb_11_1119,N-Back (New Version 2021),2021.1.4,120.25807383156045,
,,,,Conditions/Version_1/twoback(2)_v1.xlsx,New rule: Press 'space' when you see 2-back (i.e. the same letter as the one that appeared 2 letters ago.),p,None,,,,,,,,,0,7,7,7,0,4,4,4,,,,,,,,,,,,,,,,,,,,,,,,,,,,,,,,,,,,,,,,,,,,,,,,,,,,,,,,,,,,,,,,,,,,,1.4316,711.1390289999836,None,None,1,711.1390289999836,None,,P024,FENCOG,2,Pre,2022_Feb_11_1119,N-Back (New Version 2021),2021.1.4,120.25807383156045,
,,,,Conditions/Version_1/twoback(2)_v1.xlsx,New rule: Press 'space' when you see 2-back (i.e. the same letter as the one that appeared 2 letters ago.),H,None,,,,,,,,,0,7,7,7,0,5,5,5,,,,,,,,,,,,,,,,,,,,,,,,,,,,,,,,,,,,,,,,,,,,,,,,,,,,,,,,,,,,,,,,,,,,,1.0596,714.2115672999935,None,None,1,714.2115672999935,None,,P024,FENCOG,2,Pre,2022_Feb_11_1119,N-Back (New Version 2021),2021.1.4,120.25807383156045,
,,,,Conditions/Version_1/twoback(2)_v1.xlsx,New rule: Press 'space' when you see 2-back (i.e. the same letter as the one that appeared 2 letters ago.),g,None,,,,,,,,,0,7,7,7,0,6,6,6,,,,,,,,,,,,,,,,,,,,,,,,,,,,,,,,,,,,,,,,,,,,,,,,,,,,,,,,,,,,,,,,,,,,,1.5122,717.7282212999999,None,None,1,717.7282212999999,None,,P024,FENCOG,2,Pre,2022_Feb_11_1119,N-Back (New Version 2021),2021.1.4,120.25807383156045,
,,,,Conditions/Version_1/twoback(2)_v1.xlsx,New rule: Press 'space' when you see 2-back (i.e. the same letter as the one that appeared 2 letters ago.),j,None,,,,,,,,,0,7,7,7,0,7,7,7,,,,,,,,,,,,,,,,,,,,,,,,,,,,,,,,,,,,,,,,,,,,,,,,,,,,,,,,,,,,,,,,,,,,,1.3758,721.1179124999908,None,None,1,721.1179124999908,None,,P024,FENCOG,2,Pre,2022_Feb_11_1119,N-Back (New Version 2021),2021.1.4,120.25807383156045,
,,,,Conditions/Version_1/twoback(2)_v1.xlsx,New rule: Press 'space' when you see 2-back (i.e. the same letter as the one that appeared 2 letters ago.),g,space,,,,,,,,,0,7,7,7,0,8,8,8,,,,,,,,,,,,,,,,,,,,,,,,,,,,,,,,,,,,,,,,,,,,,,,,,,,,,,,,,,,,,,,,,,,,,1.692,724.8175061999937,None,space,1,724.8175061999937,None,0.3834262999880593,P024,FENCOG,2,Pre,2022_Feb_11_1119,N-Back (New Version 2021),2021.1.4,120.25807383156045,
,,,,Conditions/Version_1/twoback(2)_v1.xlsx,New rule: Press 'space' when you see 2-back (i.e. the same letter as the one that appeared 2 letters ago.),G,None,,,,,,,,,0,7,7,7,0,9,9,9,,,,,,,,,,,,,,,,,,,,,,,,,,,,,,,,,,,,,,,,,,,,,,,,,,,,,,,,,,,,,,,,,,,,,1.878,728.6998497000022,None,space,0,728.6998497000022,None,0.3971468000090681,P024,FENCOG,2,Pre,2022_Feb_11_1119,N-Back (New Version 2021),2021.1.4,120.25807383156045,
,,,,Conditions/Version_1/twoback(2)_v1.xlsx,New rule: Press 'space' when you see 2-back (i.e. the same letter as the one that appeared 2 letters ago.),,,,,,,,,,,0,7,7,7,,,,,,,,,,,,,,,,,,,,,,,,,,,,,,,,,,,,,,,,,,,,,,,,,,,,,,,,,,,,,,,,,,,,,,,,,,,,,,,,,P024,FENCOG,2,Pre,2022_Feb_11_1119,N-Back (New Version 2021),2021.1.4,120.25807383156045,
,,,,Conditions/Version_1/threeback(3)_v1.xlsx,New rule: Press 'space' when you see 3-back (i.e. the same letter as the one that appeared 3 letters ago.),w,None,,,,,,,,,0,8,8,8,0,0,0,0,,,,,,,,,,,,,,,,,,,,,,,,,,,,,,,,,,,,,,,,,,,,,,,,,,,,,,,,,,,730.7303595999838,None,733.7168900999823,None,space,2.3641321000177413,733.7168900999823,None,730.7303595999838,None,1.6486,737.7546469999943,None,None,1,737.7546469999943,None,,P024,FENCOG,2,Pre,2022_Feb_11_1119,N-Back (New Version 2021),2021.1.4,120.25807383156045,
,,,,Conditions/Version_1/threeback(3)_v1.xlsx,New rule: Press 'space' when you see 3-back (i.e. the same letter as the one that appeared 3 letters ago.),p,None,,,,,,,,,0,8,8,8,0,1,1,1,,,,,,,,,,,,,,,,,,,,,,,,,,,,,,,,,,,,,,,,,,,,,,,,,,,,,,,,,,,,,,,,,,,,,1.599,741.3536692000052,None,None,1,741.3536692000052,None,,P024,FENCOG,2,Pre,2022_Feb_11_1119,N-Back (New Version 2021),2021.1.4,120.25807383156045,
,,,,Conditions/Version_1/threeback(3)_v1.xlsx,New rule: Press 'space' when you see 3-back (i.e. the same letter as the one that appeared 3 letters ago.),P,None,,,,,,,,,0,8,8,8,0,2,2,2,,,,,,,,,,,,,,,,,,,,,,,,,,,,,,,,,,,,,,,,,,,,,,,,,,,,,,,,,,,,,,,,,,,,,1.7292,745.0859065999975,None,None,1,745.0859065999975,None,,P024,FENCOG,2,Pre,2022_Feb_11_1119,N-Back (New Version 2021),2021.1.4,120.25807383156045,
,,,,Conditions/Version_1/threeback(3)_v1.xlsx,New rule: Press 'space' when you see 3-back (i.e. the same letter as the one that appeared 3 letters ago.),i,None,,,,,,,,,0,8,8,8,0,3,3,3,,,,,,,,,,,,,,,,,,,,,,,,,,,,,,,,,,,,,,,,,,,,,,,,,,,,,,,,,,,,,,,,,,,,,1.4564,748.5435085000063,None,None,1,748.5435085000063,None,,P024,FENCOG,2,Pre,2022_Feb_11_1119,N-Back (New Version 2021),2021.1.4,120.25807383156045,
,,,,Conditions/Version_1/threeback(3)_v1.xlsx,New rule: Press 'space' when you see 3-back (i.e. the same letter as the one that appeared 3 letters ago.),f,None,,,,,,,,,0,8,8,8,0,4,4,4,,,,,,,,,,,,,,,,,,,,,,,,,,,,,,,,,,,,,,,,,,,,,,,,,,,,,,,,,,,,,,,,,,,,,1.568,752.1173045999894,None,None,1,752.1173045999894,None,,P024,FENCOG,2,Pre,2022_Feb_11_1119,N-Back (New Version 2021),2021.1.4,120.25807383156045,
,,,,Conditions/Version_1/threeback(3)_v1.xlsx,New rule: Press 'space' when you see 3-back (i.e. the same letter as the one that appeared 3 letters ago.),o,None,,,,,,,,,0,8,8,8,0,5,5,5,,,,,,,,,,,,,,,,,,,,,,,,,,,,,,,,,,,,,,,,,,,,,,,,,,,,,,,,,,,,,,,,,,,,,1.072,755.1912738999818,None,None,1,755.1912738999818,None,,P024,FENCOG,2,Pre,2022_Feb_11_1119,N-Back (New Version 2021),2021.1.4,120.25807383156045,
,,,,Conditions/Version_1/threeback(3)_v1.xlsx,New rule: Press 'space' when you see 3-back (i.e. the same letter as the one that appeared 3 letters ago.),w,None,,,,,,,,,0,8,8,8,0,6,6,6,,,,,,,,,,,,,,,,,,,,,,,,,,,,,,,,,,,,,,,,,,,,,,,,,,,,,,,,,,,,,,,,,,,,,1.0534,758.2493428000016,None,None,1,758.2493428000016,None,,P024,FENCOG,2,Pre,2022_Feb_11_1119,N-Back (New Version 2021),2021.1.4,120.25807383156045,
,,,,Conditions/Version_1/threeback(3)_v1.xlsx,New rule: Press 'space' when you see 3-back (i.e. the same letter as the one that appeared 3 letters ago.),F,space,,,,,,,,,0,8,8,8,0,7,7,7,,,,,,,,,,,,,,,,,,,,,,,,,,,,,,,,,,,,,,,,,,,,,,,,,,,,,,,,,,,,,,,,,,,,,1.2642,761.5146341999935,None,space,1,761.5146341999935,None,0.7346135000116192,P024,FENCOG,2,Pre,2022_Feb_11_1119,N-Back (New Version 2021),2021.1.4,120.25807383156045,
,,,,Conditions/Version_1/threeback(3)_v1.xlsx,New rule: Press 'space' when you see 3-back (i.e. the same letter as the one that appeared 3 letters ago.),p,None,,,,,,,,,0,8,8,8,0,8,8,8,,,,,,,,,,,,,,,,,,,,,,,,,,,,,,,,,,,,,,,,,,,,,,,,,,,,,,,,,,,,,,,,,,,,,1.6858,765.2050738999969,None,None,1,765.2050738999969,None,,P024,FENCOG,2,Pre,2022_Feb_11_1119,N-Back (New Version 2021),2021.1.4,120.25807383156045,
,,,,Conditions/Version_1/threeback(3)_v1.xlsx,New rule: Press 'space' when you see 3-back (i.e. the same letter as the one that appeared 3 letters ago.),W,space,,,,,,,,,0,8,8,8,0,9,9,9,,,,,,,,,,,,,,,,,,,,,,,,,,,,,,,,,,,,,,,,,,,,,,,,,,,,,,,,,,,,,,,,,,,,,1.8904,769.0955501999997,None,space,1,769.0955501999997,None,1.1373719999974128,P024,FENCOG,2,Pre,2022_Feb_11_1119,N-Back (New Version 2021),2021.1.4,120.25807383156045,
,,,,Conditions/Version_1/threeback(3)_v1.xlsx,New rule: Press 'space' when you see 3-back (i.e. the same letter as the one that appeared 3 letters ago.),,,,,,,,,,,0,8,8,8,,,,,,,,,,,,,,,,,,,,,,,,,,,,,,,,,,,,,,,,,,,,,,,,,,,,,,,,,,,,,,,,,,,,,,,,,,,,,,,,,P024,FENCOG,2,Pre,2022_Feb_11_1119,N-Back (New Version 2021),2021.1.4,120.25807383156045,
,,,,Conditions/Version_1/zeroback(3)_v1.xlsx,New rule: Press 'space' when you see the letter 'x' or 'X'.,X,space,,,,,,,,,0,9,9,9,0,0,0,0,,,,,,,,,,,,,,,,,,,,,,,,,,,,,,,,,,,,,,,,,,,,,,,,,,,,,,,,,,,771.115660099982,None,774.1047154999978,None,space,0.7204123999981675,774.1047154999978,None,771.115660099982,None,1.816,776.6683582999976,None,space,1,776.6683582999976,None,0.6286031999916304,P024,FENCOG,2,Pre,2022_Feb_11_1119,N-Back (New Version 2021),2021.1.4,120.25807383156045,
,,,,Conditions/Version_1/zeroback(3)_v1.xlsx,New rule: Press 'space' when you see the letter 'x' or 'X'.,B,None,,,,,,,,,0,9,9,9,0,1,1,1,,,,,,,,,,,,,,,,,,,,,,,,,,,,,,,,,,,,,,,,,,,,,,,,,,,,,,,,,,,,,,,,,,,,,1.0162,779.6849856000044,None,None,1,779.6849856000044,None,,P024,FENCOG,2,Pre,2022_Feb_11_1119,N-Back (New Version 2021),2021.1.4,120.25807383156045,
,,,,Conditions/Version_1/zeroback(3)_v1.xlsx,New rule: Press 'space' when you see the letter 'x' or 'X'.,m,None,,,,,,,,,0,9,9,9,0,2,2,2,,,,,,,,,,,,,,,,,,,,,,,,,,,,,,,,,,,,,,,,,,,,,,,,,,,,,,,,,,,,,,,,,,,,,1.3572,783.0499507999921,None,None,1,783.0499507999921,None,,P024,FENCOG,2,Pre,2022_Feb_11_1119,N-Back (New Version 2021),2021.1.4,120.25807383156045,
,,,,Conditions/Version_1/zeroback(3)_v1.xlsx,New rule: Press 'space' when you see the letter 'x' or 'X'.,m,None,,,,,,,,,0,9,9,9,0,3,3,3,,,,,,,,,,,,,,,,,,,,,,,,,,,,,,,,,,,,,,,,,,,,,,,,,,,,,,,,,,,,,,,,,,,,,1.0844,786.1409886000038,None,space,0,786.1409886000038,None,0.6440795999951661,P024,FENCOG,2,Pre,2022_Feb_11_1119,N-Back (New Version 2021),2021.1.4,120.25807383156045,
,,,,Conditions/Version_1/zeroback(3)_v1.xlsx,New rule: Press 'space' when you see the letter 'x' or 'X'.,o,None,,,,,,,,,0,9,9,9,0,4,4,4,,,,,,,,,,,,,,,,,,,,,,,,,,,,,,,,,,,,,,,,,,,,,,,,,,,,,,,,,,,,,,,,,,,,,1.7354,789.8811111999967,None,None,1,789.8811111999967,None,,P024,FENCOG,2,Pre,2022_Feb_11_1119,N-Back (New Version 2021),2021.1.4,120.25807383156045,
,,,,Conditions/Version_1/zeroback(3)_v1.xlsx,New rule: Press 'space' when you see the letter 'x' or 'X'.,p,None,,,,,,,,,0,9,9,9,0,5,5,5,,,,,,,,,,,,,,,,,,,,,,,,,,,,,,,,,,,,,,,,,,,,,,,,,,,,,,,,,,,,,,,,,,,,,1.196,793.0821469000075,None,None,1,793.0821469000075,None,,P024,FENCOG,2,Pre,2022_Feb_11_1119,N-Back (New Version 2021),2021.1.4,120.25807383156045,
,,,,Conditions/Version_1/zeroback(3)_v1.xlsx,New rule: Press 'space' when you see the letter 'x' or 'X'.,G,None,,,,,,,,,0,9,9,9,0,6,6,6,,,,,,,,,,,,,,,,,,,,,,,,,,,,,,,,,,,,,,,,,,,,,,,,,,,,,,,,,,,,,,,,,,,,,1.506,796.5959838999843,None,None,1,796.5959838999843,None,,P024,FENCOG,2,Pre,2022_Feb_11_1119,N-Back (New Version 2021),2021.1.4,120.25807383156045,
,,,,Conditions/Version_1/zeroback(3)_v1.xlsx,New rule: Press 'space' when you see the letter 'x' or 'X'.,X,space,,,,,,,,,0,9,9,9,0,7,7,7,,,,,,,,,,,,,,,,,,,,,,,,,,,,,,,,,,,,,,,,,,,,,,,,,,,,,,,,,,,,,,,,,,,,,1.6734,800.2718667000008,None,space,1,800.2718667000008,None,0.4972713000024669,P024,FENCOG,2,Pre,2022_Feb_11_1119,N-Back (New Version 2021),2021.1.4,120.25807383156045,
,,,,Conditions/Version_1/zeroback(3)_v1.xlsx,New rule: Press 'space' when you see the letter 'x' or 'X'.,p,None,,,,,,,,,0,9,9,9,0,8,8,8,,,,,,,,,,,,,,,,,,,,,,,,,,,,,,,,,,,,,,,,,,,,,,,,,,,,,,,,,,,,,,,,,,,,,1.6486,803.9275617999956,None,None,1,803.9275617999956,None,,P024,FENCOG,2,Pre,2022_Feb_11_1119,N-Back (New Version 2021),2021.1.4,120.25807383156045,
,,,,Conditions/Version_1/zeroback(3)_v1.xlsx,New rule: Press 'space' when you see the letter 'x' or 'X'.,x,space,,,,,,,,,0,9,9,9,0,9,9,9,,,,,,,,,,,,,,,,,,,,,,,,,,,,,,,,,,,,,,,,,,,,,,,,,,,,,,,,,,,,,,,,,,,,,1.9834,807.9093288999866,None,space,1,807.9093288999866,None,0.3716681000078097,P024,FENCOG,2,Pre,2022_Feb_11_1119,N-Back (New Version 2021),2021.1.4,120.25807383156045,
,,,,Conditions/Version_1/zeroback(3)_v1.xlsx,New rule: Press 'space' when you see the letter 'x' or 'X'.,,,,,,,,,,,0,9,9,9,,,,,,,,,,,,,,,,,,,,,,,,,,,,,,,,,,,,,,,,,,,,,,,,,,,,,,,,,,,,,,,,,,,,,,,,,,,,,,,,,P024,FENCOG,2,Pre,2022_Feb_11_1119,N-Back (New Version 2021),2021.1.4,120.25807383156045,
,,,,Conditions/Version_1/twoback(3)_v1.xlsx,New rule: Press 'space' when you see 2-back (i.e. the same letter as the one that appeared 2 letters ago.),e,None,,,,,,,,,0,10,10,10,0,0,0,0,,,,,,,,,,,,,,,,,,,,,,,,,,,,,,,,,,,,,,,,,,,,,,,,,,,,,,,,,,,809.931716799998,None,812.9182857999986,None,space,0.7306625999917742,812.9182857999986,None,809.931716799998,None,1.2332,814.9080164000043,None,None,1,814.9080164000043,None,,P024,FENCOG,2,Pre,2022_Feb_11_1119,N-Back (New Version 2021),2021.1.4,120.25807383156045,
,,,,Conditions/Version_1/twoback(3)_v1.xlsx,New rule: Press 'space' when you see 2-back (i.e. the same letter as the one that appeared 2 letters ago.),o,None,,,,,,,,,0,10,10,10,0,1,1,1,,,,,,,,,,,,,,,,,,,,,,,,,,,,,,,,,,,,,,,,,,,,,,,,,,,,,,,,,,,,,,,,,,,,,1.3634,818.2809108000074,None,None,1,818.2809108000074,None,,P024,FENCOG,2,Pre,2022_Feb_11_1119,N-Back (New Version 2021),2021.1.4,120.25807383156045,
,,,,Conditions/Version_1/twoback(3)_v1.xlsx,New rule: Press 'space' when you see 2-back (i.e. the same letter as the one that appeared 2 letters ago.),P,None,,,,,,,,,0,10,10,10,0,2,2,2,,,,,,,,,,,,,,,,,,,,,,,,,,,,,,,,,,,,,,,,,,,,,,,,,,,,,,,,,,,,,,,,,,,,,1.3696,821.6549797999905,None,None,1,821.6549797999905,None,,P024,FENCOG,2,Pre,2022_Feb_11_1119,N-Back (New Version 2021),2021.1.4,120.25807383156045,
,,,,Conditions/Version_1/twoback(3)_v1.xlsx,New rule: Press 'space' when you see 2-back (i.e. the same letter as the one that appeared 2 letters ago.),z,None,,,,,,,,,0,10,10,10,0,3,3,3,,,,,,,,,,,,,,,,,,,,,,,,,,,,,,,,,,,,,,,,,,,,,,,,,,,,,,,,,,,,,,,,,,,,,1.723,825.3806077000045,None,None,1,825.3806077000045,None,,P024,FENCOG,2,Pre,2022_Feb_11_1119,N-Back (New Version 2021),2021.1.4,120.25807383156045,
,,,,Conditions/Version_1/twoback(3)_v1.xlsx,New rule: Press 'space' when you see 2-back (i.e. the same letter as the one that appeared 2 letters ago.),X,None,,,,,,,,,0,10,10,10,0,4,4,4,,,,,,,,,,,,,,,,,,,,,,,,,,,,,,,,,,,,,,,,,,,,,,,,,,,,,,,,,,,,,,,,,,,,,1.7478,829.1360580000037,None,None,1,829.1360580000037,None,,P024,FENCOG,2,Pre,2022_Feb_11_1119,N-Back (New Version 2021),2021.1.4,120.25807383156045,
,,,,Conditions/Version_1/twoback(3)_v1.xlsx,New rule: Press 'space' when you see 2-back (i.e. the same letter as the one that appeared 2 letters ago.),z,space,,,,,,,,,0,10,10,10,0,5,5,5,,,,,,,,,,,,,,,,,,,,,,,,,,,,,,,,,,,,,,,,,,,,,,,,,,,,,,,,,,,,,,,,,,,,,1.0658,832.202036600007,None,space,1,832.202036600007,None,0.8870672000048216,P024,FENCOG,2,Pre,2022_Feb_11_1119,N-Back (New Version 2021),2021.1.4,120.25807383156045,
,,,,Conditions/Version_1/twoback(3)_v1.xlsx,New rule: Press 'space' when you see 2-back (i.e. the same letter as the one that appeared 2 letters ago.),x,space,,,,,,,,,0,10,10,10,0,6,6,6,,,,,,,,,,,,,,,,,,,,,,,,,,,,,,,,,,,,,,,,,,,,,,,,,,,,,,,,,,,,,,,,,,,,,1.7726,835.9758638000058,None,None,0,835.9758638000058,None,,P024,FENCOG,2,Pre,2022_Feb_11_1119,N-Back (New Version 2021),2021.1.4,120.25807383156045,
,,,,Conditions/Version_1/twoback(3)_v1.xlsx,New rule: Press 'space' when you see 2-back (i.e. the same letter as the one that appeared 2 letters ago.),c,None,,,,,,,,,0,10,10,10,0,7,7,7,,,,,,,,,,,,,,,,,,,,,,,,,,,,,,,,,,,,,,,,,,,,,,,,,,,,,,,,,,,,,,,,,,,,,1.1402,839.1164779999817,None,None,1,839.1164779999817,None,,P024,FENCOG,2,Pre,2022_Feb_11_1119,N-Back (New Version 2021),2021.1.4,120.25807383156045,
,,,,Conditions/Version_1/twoback(3)_v1.xlsx,New rule: Press 'space' when you see 2-back (i.e. the same letter as the one that appeared 2 letters ago.),i,None,,,,,,,,,0,10,10,10,0,8,8,8,,,,,,,,,,,,,,,,,,,,,,,,,,,,,,,,,,,,,,,,,,,,,,,,,,,,,,,,,,,,,,,,,,,,,1.5494,842.6663584999915,None,None,1,842.6663584999915,None,,P024,FENCOG,2,Pre,2022_Feb_11_1119,N-Back (New Version 2021),2021.1.4,120.25807383156045,
,,,,Conditions/Version_1/twoback(3)_v1.xlsx,New rule: Press 'space' when you see 2-back (i.e. the same letter as the one that appeared 2 letters ago.),C,space,,,,,,,,,0,10,10,10,0,9,9,9,,,,,,,,,,,,,,,,,,,,,,,,,,,,,,,,,,,,,,,,,,,,,,,,,,,,,,,,,,,,,,,,,,,,,1.599,846.2738259999896,None,space,1,846.2738259999896,None,0.3592367999954149,P024,FENCOG,2,Pre,2022_Feb_11_1119,N-Back (New Version 2021),2021.1.4,120.25807383156045,
,,,,Conditions/Version_1/twoback(3)_v1.xlsx,New rule: Press 'space' when you see 2-back (i.e. the same letter as the one that appeared 2 letters ago.),,,,,,,,,,,0,10,10,10,,,,,,,,,,,,,,,,,,,,,,,,,,,,,,,,,,,,,,,,,,,,,,,,,,,,,,,,,,,,,,,,,,,,,,,,,,,,,,,,,P024,FENCOG,2,Pre,2022_Feb_11_1119,N-Back (New Version 2021),2021.1.4,120.25807383156045,
,,,,Conditions/Version_1/oneback(3)_v1.xlsx,New rule: Press 'space' when you see 1-back (i.e. the same letter as the one that appeared 1 letter ago.),o,None,,,,,,,,,0,11,11,11,0,0,0,0,,,,,,,,,,,,,,,,,,,,,,,,,,,,,,,,,,,,,,,,,,,,,,,,,,,,,,,,,,,848.302629999991,None,851.2898885000031,None,space,0.8872644000221044,851.2898885000031,None,848.302629999991,None,1.3696,853.5716040999978,None,None,1,853.5716040999978,None,,P024,FENCOG,2,Pre,2022_Feb_11_1119,N-Back (New Version 2021),2021.1.4,120.25807383156045,
,,,,Conditions/Version_1/oneback(3)_v1.xlsx,New rule: Press 'space' when you see 1-back (i.e. the same letter as the one that appeared 1 letter ago.),O,space,,,,,,,,,0,11,11,11,0,1,1,1,,,,,,,,,,,,,,,,,,,,,,,,,,,,,,,,,,,,,,,,,,,,,,,,,,,,,,,,,,,,,,,,,,,,,1.4006,856.9887311999919,None,space,1,856.9887311999919,None,0.3723714000079781,P024,FENCOG,2,Pre,2022_Feb_11_1119,N-Back (New Version 2021),2021.1.4,120.25807383156045,
,,,,Conditions/Version_1/oneback(3)_v1.xlsx,New rule: Press 'space' when you see 1-back (i.e. the same letter as the one that appeared 1 letter ago.),h,None,,,,,,,,,0,11,11,11,0,2,2,2,,,,,,,,,,,,,,,,,,,,,,,,,,,,,,,,,,,,,,,,,,,,,,,,,,,,,,,,,,,,,,,,,,,,,1.413,860.4109920999908,None,None,1,860.4109920999908,None,,P024,FENCOG,2,Pre,2022_Feb_11_1119,N-Back (New Version 2021),2021.1.4,120.25807383156045,
,,,,Conditions/Version_1/oneback(3)_v1.xlsx,New rule: Press 'space' when you see 1-back (i.e. the same letter as the one that appeared 1 letter ago.),g,None,,,,,,,,,0,11,11,11,0,3,3,3,,,,,,,,,,,,,,,,,,,,,,,,,,,,,,,,,,,,,,,,,,,,,,,,,,,,,,,,,,,,,,,,,,,,,1.134,863.5511025000014,None,None,1,863.5511025000014,None,,P024,FENCOG,2,Pre,2022_Feb_11_1119,N-Back (New Version 2021),2021.1.4,120.25807383156045,
,,,,Conditions/Version_1/oneback(3)_v1.xlsx,New rule: Press 'space' when you see 1-back (i.e. the same letter as the one that appeared 1 letter ago.),n,None,,,,,,,,,0,11,11,11,0,4,4,4,,,,,,,,,,,,,,,,,,,,,,,,,,,,,,,,,,,,,,,,,,,,,,,,,,,,,,,,,,,,,,,,,,,,,1.258,866.811118099984,None,None,1,866.811118099984,None,,P024,FENCOG,2,Pre,2022_Feb_11_1119,N-Back (New Version 2021),2021.1.4,120.25807383156045,
,,,,Conditions/Version_1/oneback(3)_v1.xlsx,New rule: Press 'space' when you see 1-back (i.e. the same letter as the one that appeared 1 letter ago.),z,None,,,,,,,,,0,11,11,11,0,5,5,5,,,,,,,,,,,,,,,,,,,,,,,,,,,,,,,,,,,,,,,,,,,,,,,,,,,,,,,,,,,,,,,,,,,,,1.7912,870.6076152999885,None,None,1,870.6076152999885,None,,P024,FENCOG,2,Pre,2022_Feb_11_1119,N-Back (New Version 2021),2021.1.4,120.25807383156045,
,,,,Conditions/Version_1/oneback(3)_v1.xlsx,New rule: Press 'space' when you see 1-back (i.e. the same letter as the one that appeared 1 letter ago.),X,None,,,,,,,,,0,11,11,11,0,6,6,6,,,,,,,,,,,,,,,,,,,,,,,,,,,,,,,,,,,,,,,,,,,,,,,,,,,,,,,,,,,,,,,,,,,,,1.6362,874.2479256999795,None,None,1,874.2479256999795,None,,P024,FENCOG,2,Pre,2022_Feb_11_1119,N-Back (New Version 2021),2021.1.4,120.25807383156045,
,,,,Conditions/Version_1/oneback(3)_v1.xlsx,New rule: Press 'space' when you see 1-back (i.e. the same letter as the one that appeared 1 letter ago.),r,None,,,,,,,,,0,11,11,11,0,7,7,7,,,,,,,,,,,,,,,,,,,,,,,,,,,,,,,,,,,,,,,,,,,,,,,,,,,,,,,,,,,,,,,,,,,,,1.041,877.2891874999914,None,None,1,877.2891874999914,None,,P024,FENCOG,2,Pre,2022_Feb_11_1119,N-Back (New Version 2021),2021.1.4,120.25807383156045,
,,,,Conditions/Version_1/oneback(3)_v1.xlsx,New rule: Press 'space' when you see 1-back (i.e. the same letter as the one that appeared 1 letter ago.),r,space,,,,,,,,,0,11,11,11,0,8,8,8,,,,,,,,,,,,,,,,,,,,,,,,,,,,,,,,,,,,,,,,,,,,,,,,,,,,,,,,,,,,,,,,,,,,,1.4874,880.7795471999852,None,space,1,880.7795471999852,None,0.4214961999969091,P024,FENCOG,2,Pre,2022_Feb_11_1119,N-Back (New Version 2021),2021.1.4,120.25807383156045,
,,,,Conditions/Version_1/oneback(3)_v1.xlsx,New rule: Press 'space' when you see 1-back (i.e. the same letter as the one that appeared 1 letter ago.),P,None,,,,,,,,,0,11,11,11,0,9,9,9,,,,,,,,,,,,,,,,,,,,,,,,,,,,,,,,,,,,,,,,,,,,,,,,,,,,,,,,,,,,,,,,,,,,,1.568,884.3534153999935,None,None,1,884.3534153999935,None,,P024,FENCOG,2,Pre,2022_Feb_11_1119,N-Back (New Version 2021),2021.1.4,120.25807383156045,
,,,,Conditions/Version_1/oneback(3)_v1.xlsx,New rule: Press 'space' when you see 1-back (i.e. the same letter as the one that appeared 1 letter ago.),,,,,,,,,,,0,11,11,11,,,,,,,,,,,,,,,,,,,,,,,,,,,,,,,,,,,,,,,,,,,,,,,,,,,,,,,,,,,,,,,,,,,,,,,,,,,,,,,,,P024,FENCOG,2,Pre,2022_Feb_11_1119,N-Back (New Version 2021),2021.1.4,120.25807383156045,
,,,,Conditions/Version_1/twoback(4)_v1.xlsx,New rule: Press 'space' when you see 2-back (i.e. the same letter as the one that appeared 2 letters ago.),r,None,,,,,,,,,0,12,12,12,0,0,0,0,,,,,,,,,,,,,,,,,,,,,,,,,,,,,,,,,,,,,,,,,,,,,,,,,,,,,,,,,,,886.410876399983,None,889.396733600006,None,space,0.2602609000168741,889.396733600006,None,886.410876399983,None,1.0906,890.7764456000004,None,None,1,890.7764456000004,None,,P024,FENCOG,2,Pre,2022_Feb_11_1119,N-Back (New Version 2021),2021.1.4,120.25807383156045,
,,,,Conditions/Version_1/twoback(4)_v1.xlsx,New rule: Press 'space' when you see 2-back (i.e. the same letter as the one that appeared 2 letters ago.),T,None,,,,,,,,,0,12,12,12,0,1,1,1,,,,,,,,,,,,,,,,,,,,,,,,,,,,,,,,,,,,,,,,,,,,,,,,,,,,,,,,,,,,,,,,,,,,,1.382,894.1588216999953,None,None,1,894.1588216999953,None,,P024,FENCOG,2,Pre,2022_Feb_11_1119,N-Back (New Version 2021),2021.1.4,120.25807383156045,
,,,,Conditions/Version_1/twoback(4)_v1.xlsx,New rule: Press 'space' when you see 2-back (i.e. the same letter as the one that appeared 2 letters ago.),o,None,,,,,,,,,0,12,12,12,0,2,2,2,,,,,,,,,,,,,,,,,,,,,,,,,,,,,,,,,,,,,,,,,,,,,,,,,,,,,,,,,,,,,,,,,,,,,1.8656,898.0245837999973,None,None,1,898.0245837999973,None,,P024,FENCOG,2,Pre,2022_Feb_11_1119,N-Back (New Version 2021),2021.1.4,120.25807383156045,
,,,,Conditions/Version_1/twoback(4)_v1.xlsx,New rule: Press 'space' when you see 2-back (i.e. the same letter as the one that appeared 2 letters ago.),p,None,,,,,,,,,0,12,12,12,0,3,3,3,,,,,,,,,,,,,,,,,,,,,,,,,,,,,,,,,,,,,,,,,,,,,,,,,,,,,,,,,,,,,,,,,,,,,1.2022,901.231678799988,None,None,1,901.231678799988,None,,P024,FENCOG,2,Pre,2022_Feb_11_1119,N-Back (New Version 2021),2021.1.4,120.25807383156045,
,,,,Conditions/Version_1/twoback(4)_v1.xlsx,New rule: Press 'space' when you see 2-back (i.e. the same letter as the one that appeared 2 letters ago.),p,None,,,,,,,,,0,12,12,12,0,4,4,4,,,,,,,,,,,,,,,,,,,,,,,,,,,,,,,,,,,,,,,,,,,,,,,,,,,,,,,,,,,,,,,,,,,,,1.072,904.305815300002,None,space,0,904.305815300002,None,0.5592377999855671,P024,FENCOG,2,Pre,2022_Feb_11_1119,N-Back (New Version 2021),2021.1.4,120.25807383156045,
,,,,Conditions/Version_1/twoback(4)_v1.xlsx,New rule: Press 'space' when you see 2-back (i.e. the same letter as the one that appeared 2 letters ago.),y,None,,,,,,,,,0,12,12,12,0,5,5,5,,,,,,,,,,,,,,,,,,,,,,,,,,,,,,,,,,,,,,,,,,,,,,,,,,,,,,,,,,,,,,,,,,,,,1.1712,907.4809961999999,None,None,1,907.4809961999999,None,,P024,FENCOG,2,Pre,2022_Feb_11_1119,N-Back (New Version 2021),2021.1.4,120.25807383156045,
,,,,Conditions/Version_1/twoback(4)_v1.xlsx,New rule: Press 'space' when you see 2-back (i.e. the same letter as the one that appeared 2 letters ago.),P,space,,,,,,,,,0,12,12,12,0,6,6,6,,,,,,,,,,,,,,,,,,,,,,,,,,,,,,,,,,,,,,,,,,,,,,,,,,,,,,,,,,,,,,,,,,,,,1.8966,911.3868851999869,None,space,1,911.3868851999869,None,1.0620340000023134,P024,FENCOG,2,Pre,2022_Feb_11_1119,N-Back (New Version 2021),2021.1.4,120.25807383156045,
,,,,Conditions/Version_1/twoback(4)_v1.xlsx,New rule: Press 'space' when you see 2-back (i.e. the same letter as the one that appeared 2 letters ago.),y,None,,,,,,,,,0,12,12,12,0,7,7,7,,,,,,,,,,,,,,,,,,,,,,,,,,,,,,,,,,,,,,,,,,,,,,,,,,,,,,,,,,,,,,,,,,,,,1.6858,915.0775913999823,None,space,0,915.0775913999823,None,0.9314009999798145,P024,FENCOG,2,Pre,2022_Feb_11_1119,N-Back (New Version 2021),2021.1.4,120.25807383156045,
,,,,Conditions/Version_1/twoback(4)_v1.xlsx,New rule: Press 'space' when you see 2-back (i.e. the same letter as the one that appeared 2 letters ago.),y,space,,,,,,,,,0,12,12,12,0,8,8,8,,,,,,,,,,,,,,,,,,,,,,,,,,,,,,,,,,,,,,,,,,,,,,,,,,,,,,,,,,,,,,,,,,,,,1.4998,918.5767137999937,None,None,0,918.5767137999937,None,,P024,FENCOG,2,Pre,2022_Feb_11_1119,N-Back (New Version 2021),2021.1.4,120.25807383156045,
,,,,Conditions/Version_1/twoback(4)_v1.xlsx,New rule: Press 'space' when you see 2-back (i.e. the same letter as the one that appeared 2 letters ago.),,,,,,,,,,,0,12,12,12,,,,,,,,,,,,,,,,,,,,,,,,,,,,,,,,,,,,,,,,,,,,,,,,,,,,,,,,,,,,,,,,,,,,,,,,,,,,,,,,,P024,FENCOG,2,Pre,2022_Feb_11_1119,N-Back (New Version 2021),2021.1.4,120.25807383156045,
,,,,Conditions/Version_1/zeroback(4)_v1.xlsx,New rule: Press 'space' when you see the letter 'x' or 'X'.,o,None,,,,,,,,,0,13,13,13,0,0,0,0,,,,,,,,,,,,,,,,,,,,,,,,,,,,,,,,,,,,,,,,,,,,,,,,,,,,,,,,,,,920.5940755000047,None,923.5773536000052,None,space,0.3838736999896355,923.5773536000052,None,920.5940755000047,None,1.7044,925.6913287999923,None,None,1,925.6913287999923,None,,P024,FENCOG,2,Pre,2022_Feb_11_1119,N-Back (New Version 2021),2021.1.4,120.25807383156045,
,,,,Conditions/Version_1/zeroback(4)_v1.xlsx,New rule: Press 'space' when you see the letter 'x' or 'X'.,X,space,,,,,,,,,0,13,13,13,0,1,1,1,,,,,,,,,,,,,,,,,,,,,,,,,,,,,,,,,,,,,,,,,,,,,,,,,,,,,,,,,,,,,,,,,,,,,1.32,929.0172641999961,None,space,1,929.0172641999961,None,0.5440845999983139,P024,FENCOG,2,Pre,2022_Feb_11_1119,N-Back (New Version 2021),2021.1.4,120.25807383156045,
,,,,Conditions/Version_1/zeroback(4)_v1.xlsx,New rule: Press 'space' when you see the letter 'x' or 'X'.,p,None,,,,,,,,,0,13,13,13,0,2,2,2,,,,,,,,,,,,,,,,,,,,,,,,,,,,,,,,,,,,,,,,,,,,,,,,,,,,,,,,,,,,,,,,,,,,,1.6362,932.6641715999867,None,None,1,932.6641715999867,None,,P024,FENCOG,2,Pre,2022_Feb_11_1119,N-Back (New Version 2021),2021.1.4,120.25807383156045,
,,,,Conditions/Version_1/zeroback(4)_v1.xlsx,New rule: Press 'space' when you see the letter 'x' or 'X'.,m,None,,,,,,,,,0,13,13,13,0,3,3,3,,,,,,,,,,,,,,,,,,,,,,,,,,,,,,,,,,,,,,,,,,,,,,,,,,,,,,,,,,,,,,,,,,,,,1.7788,936.4462161999836,None,None,1,936.4462161999836,None,,P024,FENCOG,2,Pre,2022_Feb_11_1119,N-Back (New Version 2021),2021.1.4,120.25807383156045,
,,,,Conditions/Version_1/zeroback(4)_v1.xlsx,New rule: Press 'space' when you see the letter 'x' or 'X'.,n,None,,,,,,,,,0,13,13,13,0,4,4,4,,,,,,,,,,,,,,,,,,,,,,,,,,,,,,,,,,,,,,,,,,,,,,,,,,,,,,,,,,,,,,,,,,,,,1.692,940.1452449999924,None,None,1,940.1452449999924,None,,P024,FENCOG,2,Pre,2022_Feb_11_1119,N-Back (New Version 2021),2021.1.4,120.25807383156045,
,,,,Conditions/Version_1/zeroback(4)_v1.xlsx,New rule: Press 'space' when you see the letter 'x' or 'X'.,m,None,,,,,,,,,0,13,13,13,0,5,5,5,,,,,,,,,,,,,,,,,,,,,,,,,,,,,,,,,,,,,,,,,,,,,,,,,,,,,,,,,,,,,,,,,,,,,1.1278,943.2776365999889,None,None,1,943.2776365999889,None,,P024,FENCOG,2,Pre,2022_Feb_11_1119,N-Back (New Version 2021),2021.1.4,120.25807383156045,
,,,,Conditions/Version_1/zeroback(4)_v1.xlsx,New rule: Press 'space' when you see the letter 'x' or 'X'.,C,None,,,,,,,,,0,13,13,13,0,6,6,6,,,,,,,,,,,,,,,,,,,,,,,,,,,,,,,,,,,,,,,,,,,,,,,,,,,,,,,,,,,,,,,,,,,,,1.816,947.0931739999796,None,None,1,947.0931739999796,None,,P024,FENCOG,2,Pre,2022_Feb_11_1119,N-Back (New Version 2021),2021.1.4,120.25807383156045,
,,,,Conditions/Version_1/zeroback(4)_v1.xlsx,New rule: Press 'space' when you see the letter 'x' or 'X'.,m,None,,,,,,,,,0,13,13,13,0,7,7,7,,,,,,,,,,,,,,,,,,,,,,,,,,,,,,,,,,,,,,,,,,,,,,,,,,,,,,,,,,,,,,,,,,,,,1.7106,950.8095204999845,None,None,1,950.8095204999845,None,,P024,FENCOG,2,Pre,2022_Feb_11_1119,N-Back (New Version 2021),2021.1.4,120.25807383156045,
,,,,Conditions/Version_1/zeroback(4)_v1.xlsx,New rule: Press 'space' when you see the letter 'x' or 'X'.,p,None,,,,,,,,,0,13,13,13,0,8,8,8,,,,,,,,,,,,,,,,,,,,,,,,,,,,,,,,,,,,,,,,,,,,,,,,,,,,,,,,,,,,,,,,,,,,,1.3076,954.124446700007,None,None,1,954.124446700007,None,,P024,FENCOG,2,Pre,2022_Feb_11_1119,N-Back (New Version 2021),2021.1.4,120.25807383156045,
,,,,Conditions/Version_1/zeroback(4)_v1.xlsx,New rule: Press 'space' when you see the letter 'x' or 'X'.,X,space,,,,,,,,,0,13,13,13,0,9,9,9,,,,,,,,,,,,,,,,,,,,,,,,,,,,,,,,,,,,,,,,,,,,,,,,,,,,,,,,,,,,,,,,,,,,,1.1774,957.3070313000062,None,space,1,957.3070313000062,None,0.6063307999866083,P024,FENCOG,2,Pre,2022_Feb_11_1119,N-Back (New Version 2021),2021.1.4,120.25807383156045,
,,,,Conditions/Version_1/zeroback(4)_v1.xlsx,New rule: Press 'space' when you see the letter 'x' or 'X'.,,,,,,,,,,,0,13,13,13,,,,,,,,,,,,,,,,,,,,,,,,,,,,,,,,,,,,,,,,,,,,,,,,,,,,,,,,,,,,,,,,,,,,,,,,,,,,,,,,,P024,FENCOG,2,Pre,2022_Feb_11_1119,N-Back (New Version 2021),2021.1.4,120.25807383156045,
,,,,Conditions/Version_1/oneback(4)_v1.xlsx,New rule: Press 'space' when you see 1-back (i.e. the same letter as the one that appeared 1 letter ago.),w,None,,,,,,,,,0,14,14,14,0,0,0,0,,,,,,,,,,,,,,,,,,,,,,,,,,,,,,,,,,,,,,,,,,,,,,,,,,,,,,,,,,,959.3282192999905,None,962.3166636999813,None,space,0.3165930999966804,962.3166636999813,None,959.3282192999905,None,1.9214,964.5806184999819,None,None,1,964.5806184999819,None,,P024,FENCOG,2,Pre,2022_Feb_11_1119,N-Back (New Version 2021),2021.1.4,120.25807383156045,
,,,,Conditions/Version_1/oneback(4)_v1.xlsx,New rule: Press 'space' when you see 1-back (i.e. the same letter as the one that appeared 1 letter ago.),q,None,,,,,,,,,0,14,14,14,0,1,1,1,,,,,,,,,,,,,,,,,,,,,,,,,,,,,,,,,,,,,,,,,,,,,,,,,,,,,,,,,,,,,,,,,,,,,1.878,968.47252879999,None,None,1,968.47252879999,None,,P024,FENCOG,2,Pre,2022_Feb_11_1119,N-Back (New Version 2021),2021.1.4,120.25807383156045,
,,,,Conditions/Version_1/oneback(4)_v1.xlsx,New rule: Press 'space' when you see 1-back (i.e. the same letter as the one that appeared 1 letter ago.),i,None,,,,,,,,,0,14,14,14,0,2,2,2,,,,,,,,,,,,,,,,,,,,,,,,,,,,,,,,,,,,,,,,,,,,,,,,,,,,,,,,,,,,,,,,,,,,,1.351,971.8357302999939,None,None,1,971.8357302999939,None,,P024,FENCOG,2,Pre,2022_Feb_11_1119,N-Back (New Version 2021),2021.1.4,120.25807383156045,
,,,,Conditions/Version_1/oneback(4)_v1.xlsx,New rule: Press 'space' when you see 1-back (i.e. the same letter as the one that appeared 1 letter ago.),t,None,,,,,,,,,0,14,14,14,0,3,3,3,,,,,,,,,,,,,,,,,,,,,,,,,,,,,,,,,,,,,,,,,,,,,,,,,,,,,,,,,,,,,,,,,,,,,1.01,974.8539196999918,None,None,1,974.8539196999918,None,,P024,FENCOG,2,Pre,2022_Feb_11_1119,N-Back (New Version 2021),2021.1.4,120.25807383156045,
,,,,Conditions/Version_1/oneback(4)_v1.xlsx,New rule: Press 'space' when you see 1-back (i.e. the same letter as the one that appeared 1 letter ago.),v,None,,,,,,,,,0,14,14,14,0,4,4,4,,,,,,,,,,,,,,,,,,,,,,,,,,,,,,,,,,,,,,,,,,,,,,,,,,,,,,,,,,,,,,,,,,,,,1.63,978.4853589999839,None,None,1,978.4853589999839,None,,P024,FENCOG,2,Pre,2022_Feb_11_1119,N-Back (New Version 2021),2021.1.4,120.25807383156045,
,,,,Conditions/Version_1/oneback(4)_v1.xlsx,New rule: Press 'space' when you see 1-back (i.e. the same letter as the one that appeared 1 letter ago.),V,space,,,,,,,,,0,14,14,14,0,5,5,5,,,,,,,,,,,,,,,,,,,,,,,,,,,,,,,,,,,,,,,,,,,,,,,,,,,,,,,,,,,,,,,,,,,,,1.1712,981.6678187999933,None,space,1,981.6678187999933,None,0.3492545000044629,P024,FENCOG,2,Pre,2022_Feb_11_1119,N-Back (New Version 2021),2021.1.4,120.25807383156045,
,,,,Conditions/Version_1/oneback(4)_v1.xlsx,New rule: Press 'space' when you see 1-back (i.e. the same letter as the one that appeared 1 letter ago.),v,space,,,,,,,,,0,14,14,14,0,6,6,6,,,,,,,,,,,,,,,,,,,,,,,,,,,,,,,,,,,,,,,,,,,,,,,,,,,,,,,,,,,,,,,,,,,,,1.7168,985.391156800004,None,space,1,985.391156800004,None,0.4341040999861434,P024,FENCOG,2,Pre,2022_Feb_11_1119,N-Back (New Version 2021),2021.1.4,120.25807383156045,
,,,,Conditions/Version_1/oneback(4)_v1.xlsx,New rule: Press 'space' when you see 1-back (i.e. the same letter as the one that appeared 1 letter ago.),p,None,,,,,,,,,0,14,14,14,0,7,7,7,,,,,,,,,,,,,,,,,,,,,,,,,,,,,,,,,,,,,,,,,,,,,,,,,,,,,,,,,,,,,,,,,,,,,1.4006,988.8057998000004,None,None,1,988.8057998000004,None,,P024,FENCOG,2,Pre,2022_Feb_11_1119,N-Back (New Version 2021),2021.1.4,120.25807383156045,
,,,,Conditions/Version_1/oneback(4)_v1.xlsx,New rule: Press 'space' when you see 1-back (i.e. the same letter as the one that appeared 1 letter ago.),w,None,,,,,,,,,0,14,14,14,0,8,8,8,,,,,,,,,,,,,,,,,,,,,,,,,,,,,,,,,,,,,,,,,,,,,,,,,,,,,,,,,,,,,,,,,,,,,1.9152,992.7214372000017,None,None,1,992.7214372000017,None,,P024,FENCOG,2,Pre,2022_Feb_11_1119,N-Back (New Version 2021),2021.1.4,120.25807383156045,
,,,,Conditions/Version_1/oneback(4)_v1.xlsx,New rule: Press 'space' when you see 1-back (i.e. the same letter as the one that appeared 1 letter ago.),W,space,,,,,,,,,0,14,14,14,0,9,9,9,,,,,,,,,,,,,,,,,,,,,,,,,,,,,,,,,,,,,,,,,,,,,,,,,,,,,,,,,,,,,,,,,,,,,1.8842,996.6126859000069,None,space,1,996.6126859000069,None,0.41249419999076054,P024,FENCOG,2,Pre,2022_Feb_11_1119,N-Back (New Version 2021),2021.1.4,120.25807383156045,
,,,,Conditions/Version_1/oneback(4)_v1.xlsx,New rule: Press 'space' when you see 1-back (i.e. the same letter as the one that appeared 1 letter ago.),,,,,,,,,,,0,14,14,14,,,,,,,,,,,,,,,,,,,,,,,,,,,,,,,,,,,,,,,,,,,,,,,,,,,,,,,,,,,,,,,,,,,,,,,,,,,,,,,,,P024,FENCOG,2,Pre,2022_Feb_11_1119,N-Back (New Version 2021),2021.1.4,120.25807383156045,
,,,,Conditions/Version_1/threeback(4)_v1.xlsx,New rule: Press 'space' when you see 3-back (i.e. the same letter as the one that appeared 3 letters ago.),A,None,,,,,,,,,0,15,15,15,0,0,0,0,,,,,,,,,,,,,,,,,,,,,,,,,,,,,,,,,,,,,,,,,,,,,,,,,,,,,,,,,,,998.6395392999984,None,1001.6217886999948,None,space,0.3392511999991257,1001.6217886999948,None,998.6395392999984,None,1.9028,1003.8950171000033,None,None,1,1003.8950171000033,None,,P024,FENCOG,2,Pre,2022_Feb_11_1119,N-Back (New Version 2021),2021.1.4,120.25807383156045,
,,,,Conditions/Version_1/threeback(4)_v1.xlsx,New rule: Press 'space' when you see 3-back (i.e. the same letter as the one that appeared 3 letters ago.),n,None,,,,,,,,,0,15,15,15,0,1,1,1,,,,,,,,,,,,,,,,,,,,,,,,,,,,,,,,,,,,,,,,,,,,,,,,,,,,,,,,,,,,,,,,,,,,,1.6362,1007.5432111999835,None,None,1,1007.5432111999835,None,,P024,FENCOG,2,Pre,2022_Feb_11_1119,N-Back (New Version 2021),2021.1.4,120.25807383156045,
,,,,Conditions/Version_1/threeback(4)_v1.xlsx,New rule: Press 'space' when you see 3-back (i.e. the same letter as the one that appeared 3 letters ago.),g,None,,,,,,,,,0,15,15,15,0,2,2,2,,,,,,,,,,,,,,,,,,,,,,,,,,,,,,,,,,,,,,,,,,,,,,,,,,,,,,,,,,,,,,,,,,,,,1.0472,1010.6059450999892,None,None,1,1010.6059450999892,None,,P024,FENCOG,2,Pre,2022_Feb_11_1119,N-Back (New Version 2021),2021.1.4,120.25807383156045,
,,,,Conditions/Version_1/threeback(4)_v1.xlsx,New rule: Press 'space' when you see 3-back (i.e. the same letter as the one that appeared 3 letters ago.),A,space,,,,,,,,,0,15,15,15,0,3,3,3,,,,,,,,,,,,,,,,,,,,,,,,,,,,,,,,,,,,,,,,,,,,,,,,,,,,,,,,,,,,,,,,,,,,,1.0658,1013.674354399991,None,space,1,1013.674354399991,None,0.5589915000018664,P024,FENCOG,2,Pre,2022_Feb_11_1119,N-Back (New Version 2021),2021.1.4,120.25807383156045,
,,,,Conditions/Version_1/threeback(4)_v1.xlsx,New rule: Press 'space' when you see 3-back (i.e. the same letter as the one that appeared 3 letters ago.),p,None,,,,,,,,,0,15,15,15,0,4,4,4,,,,,,,,,,,,,,,,,,,,,,,,,,,,,,,,,,,,,,,,,,,,,,,,,,,,,,,,,,,,,,,,,,,,,1.041,1016.7233323999972,None,None,1,1016.7233323999972,None,,P024,FENCOG,2,Pre,2022_Feb_11_1119,N-Back (New Version 2021),2021.1.4,120.25807383156045,
,,,,Conditions/Version_1/threeback(4)_v1.xlsx,New rule: Press 'space' when you see 3-back (i.e. the same letter as the one that appeared 3 letters ago.),O,None,,,,,,,,,0,15,15,15,0,5,5,5,,,,,,,,,,,,,,,,,,,,,,,,,,,,,,,,,,,,,,,,,,,,,,,,,,,,,,,,,,,,,,,,,,,,,1.0844,1019.8137034999963,None,None,1,1019.8137034999963,None,,P024,FENCOG,2,Pre,2022_Feb_11_1119,N-Back (New Version 2021),2021.1.4,120.25807383156045,
,,,,Conditions/Version_1/threeback(4)_v1.xlsx,New rule: Press 'space' when you see 3-back (i.e. the same letter as the one that appeared 3 letters ago.),a,space,,,,,,,,,0,15,15,15,0,6,6,6,,,,,,,,,,,,,,,,,,,,,,,,,,,,,,,,,,,,,,,,,,,,,,,,,,,,,,,,,,,,,,,,,,,,,1.6486,1023.4625112999929,None,None,0,1023.4625112999929,None,,P024,FENCOG,2,Pre,2022_Feb_11_1119,N-Back (New Version 2021),2021.1.4,120.25807383156045,
,,,,Conditions/Version_1/threeback(4)_v1.xlsx,New rule: Press 'space' when you see 3-back (i.e. the same letter as the one that appeared 3 letters ago.),p,space,,,,,,,,,0,15,15,15,0,7,7,7,,,,,,,,,,,,,,,,,,,,,,,,,,,,,,,,,,,,,,,,,,,,,,,,,,,,,,,,,,,,,,,,,,,,,1.1402,1026.6031350999838,None,None,0,1026.6031350999838,None,,P024,FENCOG,2,Pre,2022_Feb_11_1119,N-Back (New Version 2021),2021.1.4,120.25807383156045,
,,,,Conditions/Version_1/threeback(4)_v1.xlsx,New rule: Press 'space' when you see 3-back (i.e. the same letter as the one that appeared 3 letters ago.),x,None,,,,,,,,,0,15,15,15,0,8,8,8,,,,,,,,,,,,,,,,,,,,,,,,,,,,,,,,,,,,,,,,,,,,,,,,,,,,,,,,,,,,,,,,,,,,,1.6982,1030.301963899983,None,None,1,1030.301963899983,None,,P024,FENCOG,2,Pre,2022_Feb_11_1119,N-Back (New Version 2021),2021.1.4,120.25807383156045,
,,,,Conditions/Version_1/threeback(4)_v1.xlsx,New rule: Press 'space' when you see 3-back (i.e. the same letter as the one that appeared 3 letters ago.),X,None,,,,,,,,,0,15,15,15,0,9,9,9,,,,,,,,,,,,,,,,,,,,,,,,,,,,,,,,,,,,,,,,,,,,,,,,,,,,,,,,,,,,,,,,,,,,,1.1216,1033.4260424999811,None,None,1,1033.4260424999811,None,,P024,FENCOG,2,Pre,2022_Feb_11_1119,N-Back (New Version 2021),2021.1.4,120.25807383156045,
,,,,Conditions/Version_1/threeback(4)_v1.xlsx,New rule: Press 'space' when you see 3-back (i.e. the same letter as the one that appeared 3 letters ago.),,,,,,,,,,,0,15,15,15,,,,,,,,,,,,,,,,,,,,,,,,,,,,,,,,,,,,,,,,,,,,,,,,,,,,,,,,,,,,,,,,,,,,,,,,,,,,,,,,,P024,FENCOG,2,Pre,2022_Feb_11_1119,N-Back (New Version 2021),2021.1.4,120.25807383156045,
