CondFileP,InstructionsP,LettersDisplayedP,CorrectnessP,CondFile,Instructions,LettersDisplayed,Correctness,practicetrials.thisRepN,practicetrials.thisTrialN,practicetrials.thisN,practicetrials.thisIndex,InnerLoopPractice.thisRepN,InnerLoopPractice.thisTrialN,InnerLoopPractice.thisN,InnerLoopPractice.thisIndex,trials.thisRepN,trials.thisTrialN,trials.thisN,trials.thisIndex,InnerLoop.thisRepN,InnerLoop.thisTrialN,InnerLoop.thisN,InnerLoop.thisIndex,TaskVersionText.started,TaskVersionText.stopped,InstrKey1.keys,InstrKey1.rt,InstrKey1.started,InstrKey1.stopped,text.started,text.stopped,key_resp_4.keys,key_resp_4.rt,key_resp_4.started,key_resp_4.stopped,text_2.started,text_2.stopped,key_resp_3.keys,key_resp_3.rt,key_resp_3.started,key_resp_3.stopped,text_3.started,text_3.stopped,key_resp_2.keys,key_resp_2.rt,key_resp_2.started,key_resp_2.stopped,PractIn1.started,PractIn1.stopped,PractIn2.started,PractIn2.stopped,PractInstructionPass.keys,PractInstructionPass.rt,PractInstructionPass.started,PractInstructionPass.stopped,PractBlock1.started,PractBlock1.stopped,ISIjitterPractice,ISI_Pract_Fixation.started,ISI_Pract_Fixation.stopped,N_backP.started,N_backP.stopped,KeyPractice.keys,KeyPractice.corr,KeyPractice.started,KeyPractice.stopped,text_4.started,text_4.stopped,KeyPractice.rt,TransitionText.started,TransitionText.stopped,key_resp_6.keys,key_resp_6.rt,key_resp_6.started,key_resp_6.stopped,text_5.started,text_5.stopped,key_resp_5.keys,key_resp_5.rt,key_resp_5.started,key_resp_5.stopped,MainInt1.started,MainInt1.stopped,MainInt2.started,MainInt2.stopped,InstructionPass.keys,InstructionPass.rt,InstructionPass.started,InstructionPass.stopped,Blocks1.started,Blocks1.stopped,ISIjitter,N_backD.started,N_backD.stopped,key_resp.keys,key_resp.corr,key_resp.started,key_resp.stopped,key_resp.rt,participant,Study Name,Task Version (required to run),PRE/POST,date,expName,psychopyVersion,frameRate
,,,,,,,,,,,,,,,,,,,,,,,,29.3243487,None,space,23.2993661,29.8182981,None,,,,,,,,,,,,,,,,,,,,,,,,,,,,,,,,,,,,,,,,,,,,,,,,,,,,,,,,,,,,,,,,,,,,,,,P024,fencog,1,Post,2022_Feb_18_0923,N-Back (New Version 2021),2021.1.4,119.9649223
,,,,,,,,,,,,,,,,,,,,,,,,,,,,,,53.1503926,None,space,19.384786,53.6448707,None,,,,,,,,,,,,,,,,,,,,,,,,,,,,,,,,,,,,,,,,,,,,,,,,,,,,,,,,,,,,,,,,,P024,fencog,1,Post,2022_Feb_18_0923,N-Back (New Version 2021),2021.1.4,119.9649223
,,,,,,,,,,,,,,,,,,,,,,,,,,,,,,,,,,,,73.0644673,None,space,0.9375637,73.5562029,None,,,,,,,,,,,,,,,,,,,,,,,,,,,,,,,,,,,,,,,,,,,,,,,,,,,,,,,,,,,P024,fencog,1,Post,2022_Feb_18_0923,N-Back (New Version 2021),2021.1.4,119.9649223
,,,,,,,,,,,,,,,,,,,,,,,,,,,,,,,,,,,,,,,,,,74.5274906,None,space,2.6000828,75.0138342,None,,,,,,,,,,,,,,,,,,,,,,,,,,,,,,,,,,,,,,,,,,,,,,,,,,,,,P024,fencog,1,Post,2022_Feb_18_0923,N-Back (New Version 2021),2021.1.4,119.9649223
Conditions/Version_1Pr/zeroback(1)_v1.xlsx,Rule: Press 'space' when you see the letter 'x' or 'X'.,Z,None,,,,,0,0,0,0,0,0,0,0,,,,,,,,,,,,,,,,,,,,,,,,,,,,,,,,,79.0603735,None,82.0377731,None,space,0.4959171,82.0377731,None,79.0603735,None,1.89,82.564845,None,84.4642485,None,None,1,84.4642485,None,86.4686384,None,,,,,,,,,,,,,,,,,,,,,,,,,,,,,,,,P024,fencog,1,Post,2022_Feb_18_0923,N-Back (New Version 2021),2021.1.4,119.9649223
Conditions/Version_1Pr/zeroback(1)_v1.xlsx,Rule: Press 'space' when you see the letter 'x' or 'X'.,r,None,,,,,0,0,0,0,0,1,1,1,,,,,,,,,,,,,,,,,,,,,,,,,,,,,,,,,,,,,,,,,,,1.49,87.9675142,None,89.4648342,None,None,1,89.4648342,None,91.4665899,None,,,,,,,,,,,,,,,,,,,,,,,,,,,,,,,,P024,fencog,1,Post,2022_Feb_18_0923,N-Back (New Version 2021),2021.1.4,119.9649223
Conditions/Version_1Pr/zeroback(1)_v1.xlsx,Rule: Press 'space' when you see the letter 'x' or 'X'.,X,space,,,,,0,0,0,0,0,2,2,2,,,,,,,,,,,,,,,,,,,,,,,,,,,,,,,,,,,,,,,,,,,1.265,92.9662466,None,94.2338057,None,space,1,94.2338057,None,94.5412469,None,0.2923625,,,,,,,,,,,,,,,,,,,,,,,,,,,,,,,P024,fencog,1,Post,2022_Feb_18_0923,N-Back (New Version 2021),2021.1.4,119.9649223
Conditions/Version_1Pr/zeroback(1)_v1.xlsx,Rule: Press 'space' when you see the letter 'x' or 'X'.,p,None,,,,,0,0,0,0,0,3,3,3,,,,,,,,,,,,,,,,,,,,,,,,,,,,,,,,,,,,,,,,,,,2.015,96.0484942,None,98.0658291,None,None,1,98.0658291,None,100.0723939,None,,,,,,,,,,,,,,,,,,,,,,,,,,,,,,,,P024,fencog,1,Post,2022_Feb_18_0923,N-Back (New Version 2021),2021.1.4,119.9649223
Conditions/Version_1Pr/zeroback(1)_v1.xlsx,Rule: Press 'space' when you see the letter 'x' or 'X'.,w,None,,,,,0,0,0,0,0,4,4,4,,,,,,,,,,,,,,,,,,,,,,,,,,,,,,,,,,,,,,,,,,,1.94,101.5730132,None,103.5139353,None,None,1,103.5139353,None,105.5205796,None,,,,,,,,,,,,,,,,,,,,,,,,,,,,,,,,P024,fencog,1,Post,2022_Feb_18_0923,N-Back (New Version 2021),2021.1.4,119.9649223
Conditions/Version_1Pr/zeroback(1)_v1.xlsx,Rule: Press 'space' when you see the letter 'x' or 'X'.,e,None,,,,,0,0,0,0,0,5,5,5,,,,,,,,,,,,,,,,,,,,,,,,,,,,,,,,,,,,,,,,,,,1.515,107.0201966,None,108.5374865,None,None,1,108.5374865,None,110.5443398,None,,,,,,,,,,,,,,,,,,,,,,,,,,,,,,,,P024,fencog,1,Post,2022_Feb_18_0923,N-Back (New Version 2021),2021.1.4,119.9649223
Conditions/Version_1Pr/zeroback(1)_v1.xlsx,Rule: Press 'space' when you see the letter 'x' or 'X'.,X,space,,,,,0,0,0,0,0,6,6,6,,,,,,,,,,,,,,,,,,,,,,,,,,,,,,,,,,,,,,,,,,,1.34,112.0439075,None,113.3851531,None,space,1,113.3851531,None,113.7191784,None,0.3247967,,,,,,,,,,,,,,,,,,,,,,,,,,,,,,,P024,fencog,1,Post,2022_Feb_18_0923,N-Back (New Version 2021),2021.1.4,119.9649223
Conditions/Version_1Pr/zeroback(1)_v1.xlsx,Rule: Press 'space' when you see the letter 'x' or 'X'.,x,space,,,,,0,0,0,0,0,7,7,7,,,,,,,,,,,,,,,,,,,,,,,,,,,,,,,,,,,,,,,,,,,1.39,115.2262229,None,116.6205618,None,space,1,116.6205618,None,117.0852849,None,0.4492157,,,,,,,,,,,,,,,,,,,,,,,,,,,,,,,P024,fencog,1,Post,2022_Feb_18_0923,N-Back (New Version 2021),2021.1.4,119.9649223
Conditions/Version_1Pr/zeroback(1)_v1.xlsx,Rule: Press 'space' when you see the letter 'x' or 'X'.,p,None,,,,,0,0,0,0,0,8,8,8,,,,,,,,,,,,,,,,,,,,,,,,,,,,,,,,,,,,,,,,,,,1.99,118.5918652,None,120.5853154,None,None,1,120.5853154,None,122.5898242,None,,,,,,,,,,,,,,,,,,,,,,,,,,,,,,,,P024,fencog,1,Post,2022_Feb_18_0923,N-Back (New Version 2021),2021.1.4,119.9649223
Conditions/Version_1Pr/zeroback(1)_v1.xlsx,Rule: Press 'space' when you see the letter 'x' or 'X'.,r,None,,,,,0,0,0,0,0,9,9,9,,,,,,,,,,,,,,,,,,,,,,,,,,,,,,,,,,,,,,,,,,,1.765,124.0909225,None,125.8565165,None,None,1,125.8565165,None,127.8559049,None,,,,,,,,,,,,,,,,,,,,,,,,,,,,,,,,P024,fencog,1,Post,2022_Feb_18_0923,N-Back (New Version 2021),2021.1.4,119.9649223
Conditions/Version_1Pr/zeroback(1)_v1.xlsx,Rule: Press 'space' when you see the letter 'x' or 'X'.,,,,,,,0,0,0,0,,,,,,,,,,,,,,,,,,,,,,,,,,,,,,,,,,,,,,,,,,,,,,,,,,,,,,,,,,,,,,,,,,,,,,,,,,,,,,,,,,,,,,,,,P024,fencog,1,Post,2022_Feb_18_0923,N-Back (New Version 2021),2021.1.4,119.9649223
Conditions/Version_1Pr/oneback(1)_v1.xlsx,New rule: Press 'space' when you see 1-back (i.e. the same letter as the one that appeared 1 letter ago.),a,None,,,,,0,1,1,1,0,0,0,0,,,,,,,,,,,,,,,,,,,,,,,,,,,,,,,,,129.3858087,None,132.3736596,None,space,0.4801795,132.3736596,None,129.3858087,None,1.315,132.8747552,None,134.1984729,None,space,0,134.1984729,None,135.8365998,None,1.6155977,,,,,,,,,,,,,,,,,,,,,,,,,,,,,,,P024,fencog,1,Post,2022_Feb_18_0923,N-Back (New Version 2021),2021.1.4,119.9649223
Conditions/Version_1Pr/oneback(1)_v1.xlsx,New rule: Press 'space' when you see 1-back (i.e. the same letter as the one that appeared 1 letter ago.),x,None,,,,,0,1,1,1,0,1,1,1,,,,,,,,,,,,,,,,,,,,,,,,,,,,,,,,,,,,,,,,,,,1.765,137.3363717,None,139.1025735,None,None,1,139.1025735,None,141.1031238,None,,,,,,,,,,,,,,,,,,,,,,,,,,,,,,,,P024,fencog,1,Post,2022_Feb_18_0923,N-Back (New Version 2021),2021.1.4,119.9649223
Conditions/Version_1Pr/oneback(1)_v1.xlsx,New rule: Press 'space' when you see 1-back (i.e. the same letter as the one that appeared 1 letter ago.),g,None,,,,,0,1,1,1,0,2,2,2,,,,,,,,,,,,,,,,,,,,,,,,,,,,,,,,,,,,,,,,,,,1.165,142.6098422,None,143.7758547,None,None,1,143.7758547,None,145.7753937,None,,,,,,,,,,,,,,,,,,,,,,,,,,,,,,,,P024,fencog,1,Post,2022_Feb_18_0923,N-Back (New Version 2021),2021.1.4,119.9649223
Conditions/Version_1Pr/oneback(1)_v1.xlsx,New rule: Press 'space' when you see 1-back (i.e. the same letter as the one that appeared 1 letter ago.),G,space,,,,,0,1,1,1,0,3,3,3,,,,,,,,,,,,,,,,,,,,,,,,,,,,,,,,,,,,,,,,,,,1.615,147.2752012,None,148.892168,None,space,1,148.892168,None,149.2171303,None,0.3136195,,,,,,,,,,,,,,,,,,,,,,,,,,,,,,,P024,fencog,1,Post,2022_Feb_18_0923,N-Back (New Version 2021),2021.1.4,119.9649223
Conditions/Version_1Pr/oneback(1)_v1.xlsx,New rule: Press 'space' when you see 1-back (i.e. the same letter as the one that appeared 1 letter ago.),u,None,,,,,0,1,1,1,0,4,4,4,,,,,,,,,,,,,,,,,,,,,,,,,,,,,,,,,,,,,,,,,,,1.34,150.7240936,None,152.0747464,None,None,1,152.0747464,None,154.0731025,None,,,,,,,,,,,,,,,,,,,,,,,,,,,,,,,,P024,fencog,1,Post,2022_Feb_18_0923,N-Back (New Version 2021),2021.1.4,119.9649223
Conditions/Version_1Pr/oneback(1)_v1.xlsx,New rule: Press 'space' when you see 1-back (i.e. the same letter as the one that appeared 1 letter ago.),y,None,,,,,0,1,1,1,0,5,5,5,,,,,,,,,,,,,,,,,,,,,,,,,,,,,,,,,,,,,,,,,,,1.44,155.5726387,None,157.014557,None,None,1,157.014557,None,159.0216664,None,,,,,,,,,,,,,,,,,,,,,,,,,,,,,,,,P024,fencog,1,Post,2022_Feb_18_0923,N-Back (New Version 2021),2021.1.4,119.9649223
Conditions/Version_1Pr/oneback(1)_v1.xlsx,New rule: Press 'space' when you see 1-back (i.e. the same letter as the one that appeared 1 letter ago.),y,space,,,,,0,1,1,1,0,6,6,6,,,,,,,,,,,,,,,,,,,,,,,,,,,,,,,,,,,,,,,,,,,1.965,160.5208904,None,162.4873163,None,space,1,162.4873163,None,162.8291352,None,0.326555,,,,,,,,,,,,,,,,,,,,,,,,,,,,,,,P024,fencog,1,Post,2022_Feb_18_0923,N-Back (New Version 2021),2021.1.4,119.9649223
Conditions/Version_1Pr/oneback(1)_v1.xlsx,New rule: Press 'space' when you see 1-back (i.e. the same letter as the one that appeared 1 letter ago.),k,None,,,,,0,1,1,1,0,7,7,7,,,,,,,,,,,,,,,,,,,,,,,,,,,,,,,,,,,,,,,,,,,1.49,164.3282959,None,165.8239367,None,None,1,165.8239367,None,167.827512,None,,,,,,,,,,,,,,,,,,,,,,,,,,,,,,,,P024,fencog,1,Post,2022_Feb_18_0923,N-Back (New Version 2021),2021.1.4,119.9649223
Conditions/Version_1Pr/oneback(1)_v1.xlsx,New rule: Press 'space' when you see 1-back (i.e. the same letter as the one that appeared 1 letter ago.),c,None,,,,,0,1,1,1,0,8,8,8,,,,,,,,,,,,,,,,,,,,,,,,,,,,,,,,,,,,,,,,,,,1.04,169.3270752,None,170.3696607,None,None,1,170.3696607,None,172.3760824,None,,,,,,,,,,,,,,,,,,,,,,,,,,,,,,,,P024,fencog,1,Post,2022_Feb_18_0923,N-Back (New Version 2021),2021.1.4,119.9649223
Conditions/Version_1Pr/oneback(1)_v1.xlsx,New rule: Press 'space' when you see 1-back (i.e. the same letter as the one that appeared 1 letter ago.),r,None,,,,,0,1,1,1,0,9,9,9,,,,,,,,,,,,,,,,,,,,,,,,,,,,,,,,,,,,,,,,,,,1.14,173.875224,None,175.016686,None,None,1,175.016686,None,177.0163715,None,,,,,,,,,,,,,,,,,,,,,,,,,,,,,,,,P024,fencog,1,Post,2022_Feb_18_0923,N-Back (New Version 2021),2021.1.4,119.9649223
Conditions/Version_1Pr/oneback(1)_v1.xlsx,New rule: Press 'space' when you see 1-back (i.e. the same letter as the one that appeared 1 letter ago.),,,,,,,0,1,1,1,,,,,,,,,,,,,,,,,,,,,,,,,,,,,,,,,,,,,,,,,,,,,,,,,,,,,,,,,,,,,,,,,,,,,,,,,,,,,,,,,,,,,,,,,P024,fencog,1,Post,2022_Feb_18_0923,N-Back (New Version 2021),2021.1.4,119.9649223
Conditions/Version_1Pr/twoback(1)_v1.xlsx,New rule: Press 'space' when you see 2-back (i.e. the same letter as the one that appeared 2 letters ago.),E,None,,,,,0,2,2,2,0,0,0,0,,,,,,,,,,,,,,,,,,,,,,,,,,,,,,,,,178.5543178,None,181.5252062,None,space,6.4247957,181.5252062,None,178.5543178,None,1.64,187.9782388,None,189.6299785,None,None,1,189.6299785,None,191.6287276,None,,,,,,,,,,,,,,,,,,,,,,,,,,,,,,,,P024,fencog,1,Post,2022_Feb_18_0923,N-Back (New Version 2021),2021.1.4,119.9649223
Conditions/Version_1Pr/twoback(1)_v1.xlsx,New rule: Press 'space' when you see 2-back (i.e. the same letter as the one that appeared 2 letters ago.),p,None,,,,,0,2,2,2,0,1,1,1,,,,,,,,,,,,,,,,,,,,,,,,,,,,,,,,,,,,,,,,,,,1.74,193.1283268,None,194.8695127,None,None,1,194.8695127,None,196.8688308,None,,,,,,,,,,,,,,,,,,,,,,,,,,,,,,,,P024,fencog,1,Post,2022_Feb_18_0923,N-Back (New Version 2021),2021.1.4,119.9649223
Conditions/Version_1Pr/twoback(1)_v1.xlsx,New rule: Press 'space' when you see 2-back (i.e. the same letter as the one that appeared 2 letters ago.),e,space,,,,,0,2,2,2,0,2,2,2,,,,,,,,,,,,,,,,,,,,,,,,,,,,,,,,,,,,,,,,,,,1.115,198.368291,None,199.4843717,None,space,1,199.4843717,None,200.8111999,None,1.313376,,,,,,,,,,,,,,,,,,,,,,,,,,,,,,,P024,fencog,1,Post,2022_Feb_18_0923,N-Back (New Version 2021),2021.1.4,119.9649223
Conditions/Version_1Pr/twoback(1)_v1.xlsx,New rule: Press 'space' when you see 2-back (i.e. the same letter as the one that appeared 2 letters ago.),s,None,,,,,0,2,2,2,0,3,3,3,,,,,,,,,,,,,,,,,,,,,,,,,,,,,,,,,,,,,,,,,,,1.34,202.3173069,None,203.660074,None,None,1,203.660074,None,205.6662426,None,,,,,,,,,,,,,,,,,,,,,,,,,,,,,,,,P024,fencog,1,Post,2022_Feb_18_0923,N-Back (New Version 2021),2021.1.4,119.9649223
Conditions/Version_1Pr/twoback(1)_v1.xlsx,New rule: Press 'space' when you see 2-back (i.e. the same letter as the one that appeared 2 letters ago.),S,None,,,,,0,2,2,2,0,4,4,4,,,,,,,,,,,,,,,,,,,,,,,,,,,,,,,,,,,,,,,,,,,1.365,207.1659238,None,208.5346713,None,None,1,208.5346713,None,210.5400147,None,,,,,,,,,,,,,,,,,,,,,,,,,,,,,,,,P024,fencog,1,Post,2022_Feb_18_0923,N-Back (New Version 2021),2021.1.4,119.9649223
Conditions/Version_1Pr/twoback(1)_v1.xlsx,New rule: Press 'space' when you see 2-back (i.e. the same letter as the one that appeared 2 letters ago.),s,space,,,,,0,2,2,2,0,5,5,5,,,,,,,,,,,,,,,,,,,,,,,,,,,,,,,,,,,,,,,,,,,1.565,212.0395308,None,213.6055195,None,space,1,213.6055195,None,214.690022,None,1.0725168,,,,,,,,,,,,,,,,,,,,,,,,,,,,,,,P024,fencog,1,Post,2022_Feb_18_0923,N-Back (New Version 2021),2021.1.4,119.9649223
Conditions/Version_1Pr/twoback(1)_v1.xlsx,New rule: Press 'space' when you see 2-back (i.e. the same letter as the one that appeared 2 letters ago.),P,None,,,,,0,2,2,2,0,6,6,6,,,,,,,,,,,,,,,,,,,,,,,,,,,,,,,,,,,,,,,,,,,1.765,216.1963453,None,217.9640113,None,None,1,217.9640113,None,219.9704287,None,,,,,,,,,,,,,,,,,,,,,,,,,,,,,,,,P024,fencog,1,Post,2022_Feb_18_0923,N-Back (New Version 2021),2021.1.4,119.9649223
Conditions/Version_1Pr/twoback(1)_v1.xlsx,New rule: Press 'space' when you see 2-back (i.e. the same letter as the one that appeared 2 letters ago.),C,None,,,,,0,2,2,2,0,7,7,7,,,,,,,,,,,,,,,,,,,,,,,,,,,,,,,,,,,,,,,,,,,1.89,221.4700102,None,223.3626695,None,None,1,223.3626695,None,225.3689264,None,,,,,,,,,,,,,,,,,,,,,,,,,,,,,,,,P024,fencog,1,Post,2022_Feb_18_0923,N-Back (New Version 2021),2021.1.4,119.9649223
Conditions/Version_1Pr/twoback(1)_v1.xlsx,New rule: Press 'space' when you see 2-back (i.e. the same letter as the one that appeared 2 letters ago.),x,None,,,,,0,2,2,2,0,8,8,8,,,,,,,,,,,,,,,,,,,,,,,,,,,,,,,,,,,,,,,,,,,1.44,226.8684387,None,228.3103468,None,None,1,228.3103468,None,230.3173444,None,,,,,,,,,,,,,,,,,,,,,,,,,,,,,,,,P024,fencog,1,Post,2022_Feb_18_0923,N-Back (New Version 2021),2021.1.4,119.9649223
Conditions/Version_1Pr/twoback(1)_v1.xlsx,New rule: Press 'space' when you see 2-back (i.e. the same letter as the one that appeared 2 letters ago.),Z,None,,,,,0,2,2,2,0,9,9,9,,,,,,,,,,,,,,,,,,,,,,,,,,,,,,,,,,,,,,,,,,,1.515,231.8167828,None,233.3329933,None,None,1,233.3329933,None,235.3387445,None,,,,,,,,,,,,,,,,,,,,,,,,,,,,,,,,P024,fencog,1,Post,2022_Feb_18_0923,N-Back (New Version 2021),2021.1.4,119.9649223
Conditions/Version_1Pr/twoback(1)_v1.xlsx,New rule: Press 'space' when you see 2-back (i.e. the same letter as the one that appeared 2 letters ago.),,,,,,,0,2,2,2,,,,,,,,,,,,,,,,,,,,,,,,,,,,,,,,,,,,,,,,,,,,,,,,,,,,,,,,,,,,,,,,,,,,,,,,,,,,,,,,,,,,,,,,,P024,fencog,1,Post,2022_Feb_18_0923,N-Back (New Version 2021),2021.1.4,119.9649223
Conditions/Version_1Pr/threeback(1)_v1.xlsx,New rule: Press 'space' when you see 3-back (i.e. the same letter as the one that appeared 3 letters ago.),r,None,,,,,0,3,3,3,0,0,0,0,,,,,,,,,,,,,,,,,,,,,,,,,,,,,,,,,236.8611914,None,239.8500913,None,space,0.9477136,239.8500913,None,236.8611914,None,1.065,240.8267082,None,241.8981446,None,None,1,241.8981446,None,243.90467,None,,,,,,,,,,,,,,,,,,,,,,,,,,,,,,,,P024,fencog,1,Post,2022_Feb_18_0923,N-Back (New Version 2021),2021.1.4,119.9649223
Conditions/Version_1Pr/threeback(1)_v1.xlsx,New rule: Press 'space' when you see 3-back (i.e. the same letter as the one that appeared 3 letters ago.),a,None,,,,,0,3,3,3,0,1,1,1,,,,,,,,,,,,,,,,,,,,,,,,,,,,,,,,,,,,,,,,,,,1.515,245.404358,None,246.9213993,None,None,1,246.9213993,None,248.9284761,None,,,,,,,,,,,,,,,,,,,,,,,,,,,,,,,,P024,fencog,1,Post,2022_Feb_18_0923,N-Back (New Version 2021),2021.1.4,119.9649223
Conditions/Version_1Pr/threeback(1)_v1.xlsx,New rule: Press 'space' when you see 3-back (i.e. the same letter as the one that appeared 3 letters ago.),t,None,,,,,0,3,3,3,0,2,2,2,,,,,,,,,,,,,,,,,,,,,,,,,,,,,,,,,,,,,,,,,,,1.465,250.4297522,None,251.8956985,None,None,1,251.8956985,None,253.9022197,None,,,,,,,,,,,,,,,,,,,,,,,,,,,,,,,,P024,fencog,1,Post,2022_Feb_18_0923,N-Back (New Version 2021),2021.1.4,119.9649223
Conditions/Version_1Pr/threeback(1)_v1.xlsx,New rule: Press 'space' when you see 3-back (i.e. the same letter as the one that appeared 3 letters ago.),r,space,,,,,0,3,3,3,0,3,3,3,,,,,,,,,,,,,,,,,,,,,,,,,,,,,,,,,,,,,,,,,,,1.24,255.4016034,None,256.6435491,None,space,1,256.6435491,None,257.2604475,None,0.6023321,,,,,,,,,,,,,,,,,,,,,,,,,,,,,,,P024,fencog,1,Post,2022_Feb_18_0923,N-Back (New Version 2021),2021.1.4,119.9649223
Conditions/Version_1Pr/threeback(1)_v1.xlsx,New rule: Press 'space' when you see 3-back (i.e. the same letter as the one that appeared 3 letters ago.),a,None,,,,,0,3,3,3,0,4,4,4,,,,,,,,,,,,,,,,,,,,,,,,,,,,,,,,,,,,,,,,,,,1.64,258.7673831,None,260.4088339,None,space,0,260.4088339,None,261.6042281,None,1.1809368,,,,,,,,,,,,,,,,,,,,,,,,,,,,,,,P024,fencog,1,Post,2022_Feb_18_0923,N-Back (New Version 2021),2021.1.4,119.9649223
Conditions/Version_1Pr/threeback(1)_v1.xlsx,New rule: Press 'space' when you see 3-back (i.e. the same letter as the one that appeared 3 letters ago.),Y,None,,,,,0,3,3,3,0,5,5,5,,,,,,,,,,,,,,,,,,,,,,,,,,,,,,,,,,,,,,,,,,,1.715,263.1074559,None,264.8272693,None,None,1,264.8272693,None,266.8335384,None,,,,,,,,,,,,,,,,,,,,,,,,,,,,,,,,P024,fencog,1,Post,2022_Feb_18_0923,N-Back (New Version 2021),2021.1.4,119.9649223
Conditions/Version_1Pr/threeback(1)_v1.xlsx,New rule: Press 'space' when you see 3-back (i.e. the same letter as the one that appeared 3 letters ago.),q,None,,,,,0,3,3,3,0,6,6,6,,,,,,,,,,,,,,,,,,,,,,,,,,,,,,,,,,,,,,,,,,,1.915,268.331206,None,270.2472846,None,None,1,270.2472846,None,272.2467502,None,,,,,,,,,,,,,,,,,,,,,,,,,,,,,,,,P024,fencog,1,Post,2022_Feb_18_0923,N-Back (New Version 2021),2021.1.4,119.9649223
Conditions/Version_1Pr/threeback(1)_v1.xlsx,New rule: Press 'space' when you see 3-back (i.e. the same letter as the one that appeared 3 letters ago.),A,space,,,,,0,3,3,3,0,7,7,7,,,,,,,,,,,,,,,,,,,,,,,,,,,,,,,,,,,,,,,,,,,1.165,273.7463108,None,274.9161764,None,None,0,274.9161764,None,276.9237119,None,,,,,,,,,,,,,,,,,,,,,,,,,,,,,,,,P024,fencog,1,Post,2022_Feb_18_0923,N-Back (New Version 2021),2021.1.4,119.9649223
Conditions/Version_1Pr/threeback(1)_v1.xlsx,New rule: Press 'space' when you see 3-back (i.e. the same letter as the one that appeared 3 letters ago.),y,None,,,,,0,3,3,3,0,8,8,8,,,,,,,,,,,,,,,,,,,,,,,,,,,,,,,,,,,,,,,,,,,1.815,278.4198312,None,280.2358742,None,space,0,280.2358742,None,280.9322041,None,0.6820811,,,,,,,,,,,,,,,,,,,,,,,,,,,,,,,P024,fencog,1,Post,2022_Feb_18_0923,N-Back (New Version 2021),2021.1.4,119.9649223
Conditions/Version_1Pr/threeback(1)_v1.xlsx,New rule: Press 'space' when you see 3-back (i.e. the same letter as the one that appeared 3 letters ago.),r,None,,,,,0,3,3,3,0,9,9,9,,,,,,,,,,,,,,,,,,,,,,,,,,,,,,,,,,,,,,,,,,,1.89,282.4353601,None,284.3269427,None,space,0,284.3269427,None,285.3184409,None,0.9828294,,,,,,,,,,,,,,,,,,,,,,,,,,,,,,,P024,fencog,1,Post,2022_Feb_18_0923,N-Back (New Version 2021),2021.1.4,119.9649223
Conditions/Version_1Pr/threeback(1)_v1.xlsx,New rule: Press 'space' when you see 3-back (i.e. the same letter as the one that appeared 3 letters ago.),,,,,,,0,3,3,3,,,,,,,,,,,,,,,,,,,,,,,,,,,,,,,,,,,,,,,,,,,,,,,,,,,,,,,,,,,,,,,,,,,,,,,,,,,,,,,,,,,,,,,,,P024,fencog,1,Post,2022_Feb_18_0923,N-Back (New Version 2021),2021.1.4,119.9649223
,,,,,,,,,,,,,,,,,,,,,,,,,,,,,,,,,,,,,,,,,,,,,,,,,,,,,,,,,,,,,,,,,,,,,,286.8323136,None,space,1.2240192,287.3258733,None,,,,,,,,,,,,,,,,,,,,,,,,,P024,fencog,1,Post,2022_Feb_18_0923,N-Back (New Version 2021),2021.1.4,119.9649223
,,,,,,,,,,,,,,,,,,,,,,,,,,,,,,,,,,,,,,,,,,,,,,,,,,,,,,,,,,,,,,,,,,,,,,,,,,,,288.572593,None,space,0.8104507,289.0673619,None,,,,,,,,,,,,,,,,,,,P024,fencog,1,Post,2022_Feb_18_0923,N-Back (New Version 2021),2021.1.4,119.9649223
,,,,Conditions/Version_1/zeroback(1)_v1.xlsx,Rule: Press 'space' when you see the letter 'x' or 'X'.,b,None,,,,,,,,,0,0,0,0,0,0,0,0,,,,,,,,,,,,,,,,,,,,,,,,,,,,,,,,,,,,,,,,,,,,,,,,,,,,,,,,,,,289.996011,None,292.9842182,None,space,1.4936856,292.9842182,None,289.996011,None,1.0906,295.5983505,None,None,1,295.5983505,None,,P024,fencog,1,Post,2022_Feb_18_0923,N-Back (New Version 2021),2021.1.4,119.9649223
,,,,Conditions/Version_1/zeroback(1)_v1.xlsx,Rule: Press 'space' when you see the letter 'x' or 'X'.,T,None,,,,,,,,,0,0,0,0,0,1,1,1,,,,,,,,,,,,,,,,,,,,,,,,,,,,,,,,,,,,,,,,,,,,,,,,,,,,,,,,,,,,,,,,,,,,,1.5246,299.1227253,None,None,1,299.1227253,None,,P024,fencog,1,Post,2022_Feb_18_0923,N-Back (New Version 2021),2021.1.4,119.9649223
,,,,Conditions/Version_1/zeroback(1)_v1.xlsx,Rule: Press 'space' when you see the letter 'x' or 'X'.,L,None,,,,,,,,,0,0,0,0,0,2,2,2,,,,,,,,,,,,,,,,,,,,,,,,,,,,,,,,,,,,,,,,,,,,,,,,,,,,,,,,,,,,,,,,,,,,,1.6238,302.7555188,None,None,1,302.7555188,None,,P024,fencog,1,Post,2022_Feb_18_0923,N-Back (New Version 2021),2021.1.4,119.9649223
,,,,Conditions/Version_1/zeroback(1)_v1.xlsx,Rule: Press 'space' when you see the letter 'x' or 'X'.,x,space,,,,,,,,,0,0,0,0,0,3,3,3,,,,,,,,,,,,,,,,,,,,,,,,,,,,,,,,,,,,,,,,,,,,,,,,,,,,,,,,,,,,,,,,,,,,,1.599,306.3619628,None,space,1,306.3619628,None,1.7158444,P024,fencog,1,Post,2022_Feb_18_0923,N-Back (New Version 2021),2021.1.4,119.9649223
,,,,Conditions/Version_1/zeroback(1)_v1.xlsx,Rule: Press 'space' when you see the letter 'x' or 'X'.,o,None,,,,,,,,,0,0,0,0,0,4,4,4,,,,,,,,,,,,,,,,,,,,,,,,,,,,,,,,,,,,,,,,,,,,,,,,,,,,,,,,,,,,,,,,,,,,,1.9028,310.2691037,None,None,1,310.2691037,None,,P024,fencog,1,Post,2022_Feb_18_0923,N-Back (New Version 2021),2021.1.4,119.9649223
,,,,Conditions/Version_1/zeroback(1)_v1.xlsx,Rule: Press 'space' when you see the letter 'x' or 'X'.,P,None,,,,,,,,,0,0,0,0,0,5,5,5,,,,,,,,,,,,,,,,,,,,,,,,,,,,,,,,,,,,,,,,,,,,,,,,,,,,,,,,,,,,,,,,,,,,,1.3882,313.6597911,None,None,1,313.6597911,None,,P024,fencog,1,Post,2022_Feb_18_0923,N-Back (New Version 2021),2021.1.4,119.9649223
,,,,Conditions/Version_1/zeroback(1)_v1.xlsx,Rule: Press 'space' when you see the letter 'x' or 'X'.,X,space,,,,,,,,,0,0,0,0,0,6,6,6,,,,,,,,,,,,,,,,,,,,,,,,,,,,,,,,,,,,,,,,,,,,,,,,,,,,,,,,,,,,,,,,,,,,,1.0782,316.7502129,None,space,1,316.7502129,None,0.4395151,P024,fencog,1,Post,2022_Feb_18_0923,N-Back (New Version 2021),2021.1.4,119.9649223
,,,,Conditions/Version_1/zeroback(1)_v1.xlsx,Rule: Press 'space' when you see the letter 'x' or 'X'.,n,None,,,,,,,,,0,0,0,0,0,7,7,7,,,,,,,,,,,,,,,,,,,,,,,,,,,,,,,,,,,,,,,,,,,,,,,,,,,,,,,,,,,,,,,,,,,,,1.9152,320.6666272,None,None,1,320.6666272,None,,P024,fencog,1,Post,2022_Feb_18_0923,N-Back (New Version 2021),2021.1.4,119.9649223
,,,,Conditions/Version_1/zeroback(1)_v1.xlsx,Rule: Press 'space' when you see the letter 'x' or 'X'.,M,None,,,,,,,,,0,0,0,0,0,8,8,8,,,,,,,,,,,,,,,,,,,,,,,,,,,,,,,,,,,,,,,,,,,,,,,,,,,,,,,,,,,,,,,,,,,,,1.072,323.7497586,None,None,1,323.7497586,None,,P024,fencog,1,Post,2022_Feb_18_0923,N-Back (New Version 2021),2021.1.4,119.9649223
,,,,Conditions/Version_1/zeroback(1)_v1.xlsx,Rule: Press 'space' when you see the letter 'x' or 'X'.,a,None,,,,,,,,,0,0,0,0,0,9,9,9,,,,,,,,,,,,,,,,,,,,,,,,,,,,,,,,,,,,,,,,,,,,,,,,,,,,,,,,,,,,,,,,,,,,,1.9214,327.6802024,None,None,1,327.6802024,None,,P024,fencog,1,Post,2022_Feb_18_0923,N-Back (New Version 2021),2021.1.4,119.9649223
,,,,Conditions/Version_1/zeroback(1)_v1.xlsx,Rule: Press 'space' when you see the letter 'x' or 'X'.,,,,,,,,,,,0,0,0,0,,,,,,,,,,,,,,,,,,,,,,,,,,,,,,,,,,,,,,,,,,,,,,,,,,,,,,,,,,,,,,,,,,,,,,,,,,,,,,,,,P024,fencog,1,Post,2022_Feb_18_0923,N-Back (New Version 2021),2021.1.4,119.9649223
,,,,Conditions/Version_1/oneback(1)_v1.xlsx,New rule: Press 'space' when you see 1-back (i.e. the same letter as the one that appeared 1 letter ago.),b,None,,,,,,,,,0,1,1,1,0,0,0,0,,,,,,,,,,,,,,,,,,,,,,,,,,,,,,,,,,,,,,,,,,,,,,,,,,,,,,,,,,,329.7016798,None,332.6889707,None,space,0.2369931,332.6889707,None,329.7016798,None,1.5804,334.5307532,None,None,1,334.5307532,None,,P024,fencog,1,Post,2022_Feb_18_0923,N-Back (New Version 2021),2021.1.4,119.9649223
,,,,Conditions/Version_1/oneback(1)_v1.xlsx,New rule: Press 'space' when you see 1-back (i.e. the same letter as the one that appeared 1 letter ago.),p,None,,,,,,,,,0,1,1,1,0,1,1,1,,,,,,,,,,,,,,,,,,,,,,,,,,,,,,,,,,,,,,,,,,,,,,,,,,,,,,,,,,,,,,,,,,,,,1.475,338.0105557,None,None,1,338.0105557,None,,P024,fencog,1,Post,2022_Feb_18_0923,N-Back (New Version 2021),2021.1.4,119.9649223
,,,,Conditions/Version_1/oneback(1)_v1.xlsx,New rule: Press 'space' when you see 1-back (i.e. the same letter as the one that appeared 1 letter ago.),M,None,,,,,,,,,0,1,1,1,0,2,2,2,,,,,,,,,,,,,,,,,,,,,,,,,,,,,,,,,,,,,,,,,,,,,,,,,,,,,,,,,,,,,,,,,,,,,1.0968,341.1101252,None,None,1,341.1101252,None,,P024,fencog,1,Post,2022_Feb_18_0923,N-Back (New Version 2021),2021.1.4,119.9649223
,,,,Conditions/Version_1/oneback(1)_v1.xlsx,New rule: Press 'space' when you see 1-back (i.e. the same letter as the one that appeared 1 letter ago.),M,space,,,,,,,,,0,1,1,1,0,3,3,3,,,,,,,,,,,,,,,,,,,,,,,,,,,,,,,,,,,,,,,,,,,,,,,,,,,,,,,,,,,,,,,,,,,,,1.3386,344.4524392,None,space,1,344.4524392,None,0.5615873,P024,fencog,1,Post,2022_Feb_18_0923,N-Back (New Version 2021),2021.1.4,119.9649223
,,,,Conditions/Version_1/oneback(1)_v1.xlsx,New rule: Press 'space' when you see 1-back (i.e. the same letter as the one that appeared 1 letter ago.),n,None,,,,,,,,,0,1,1,1,0,4,4,4,,,,,,,,,,,,,,,,,,,,,,,,,,,,,,,,,,,,,,,,,,,,,,,,,,,,,,,,,,,,,,,,,,,,,1.2394,347.7016393,None,None,1,347.7016393,None,,P024,fencog,1,Post,2022_Feb_18_0923,N-Back (New Version 2021),2021.1.4,119.9649223
,,,,Conditions/Version_1/oneback(1)_v1.xlsx,New rule: Press 'space' when you see 1-back (i.e. the same letter as the one that appeared 1 letter ago.),g,None,,,,,,,,,0,1,1,1,0,5,5,5,,,,,,,,,,,,,,,,,,,,,,,,,,,,,,,,,,,,,,,,,,,,,,,,,,,,,,,,,,,,,,,,,,,,,1.847,351.5577249,None,None,1,351.5577249,None,,P024,fencog,1,Post,2022_Feb_18_0923,N-Back (New Version 2021),2021.1.4,119.9649223
,,,,Conditions/Version_1/oneback(1)_v1.xlsx,New rule: Press 'space' when you see 1-back (i.e. the same letter as the one that appeared 1 letter ago.),P,None,,,,,,,,,0,1,1,1,0,6,6,6,,,,,,,,,,,,,,,,,,,,,,,,,,,,,,,,,,,,,,,,,,,,,,,,,,,,,,,,,,,,,,,,,,,,,1.3944,354.965942,None,None,1,354.965942,None,,P024,fencog,1,Post,2022_Feb_18_0923,N-Back (New Version 2021),2021.1.4,119.9649223
,,,,Conditions/Version_1/oneback(1)_v1.xlsx,New rule: Press 'space' when you see 1-back (i.e. the same letter as the one that appeared 1 letter ago.),o,None,,,,,,,,,0,1,1,1,0,7,7,7,,,,,,,,,,,,,,,,,,,,,,,,,,,,,,,,,,,,,,,,,,,,,,,,,,,,,,,,,,,,,,,,,,,,,1.9586,358.9295076,None,None,1,358.9295076,None,,P024,fencog,1,Post,2022_Feb_18_0923,N-Back (New Version 2021),2021.1.4,119.9649223
,,,,Conditions/Version_1/oneback(1)_v1.xlsx,New rule: Press 'space' when you see 1-back (i.e. the same letter as the one that appeared 1 letter ago.),f,None,,,,,,,,,0,1,1,1,0,8,8,8,,,,,,,,,,,,,,,,,,,,,,,,,,,,,,,,,,,,,,,,,,,,,,,,,,,,,,,,,,,,,,,,,,,,,1.8222,362.7545681,None,None,1,362.7545681,None,,P024,fencog,1,Post,2022_Feb_18_0923,N-Back (New Version 2021),2021.1.4,119.9649223
,,,,Conditions/Version_1/oneback(1)_v1.xlsx,New rule: Press 'space' when you see 1-back (i.e. the same letter as the one that appeared 1 letter ago.),F,space,,,,,,,,,0,1,1,1,0,9,9,9,,,,,,,,,,,,,,,,,,,,,,,,,,,,,,,,,,,,,,,,,,,,,,,,,,,,,,,,,,,,,,,,,,,,,1.32,366.0872016,None,space,1,366.0872016,None,0.3749102,P024,fencog,1,Post,2022_Feb_18_0923,N-Back (New Version 2021),2021.1.4,119.9649223
,,,,Conditions/Version_1/oneback(1)_v1.xlsx,New rule: Press 'space' when you see 1-back (i.e. the same letter as the one that appeared 1 letter ago.),,,,,,,,,,,0,1,1,1,,,,,,,,,,,,,,,,,,,,,,,,,,,,,,,,,,,,,,,,,,,,,,,,,,,,,,,,,,,,,,,,,,,,,,,,,,,,,,,,,P024,fencog,1,Post,2022_Feb_18_0923,N-Back (New Version 2021),2021.1.4,119.9649223
,,,,Conditions/Version_1/twoback(1)_v1.xlsx,New rule: Press 'space' when you see 2-back (i.e. the same letter as the one that appeared 2 letters ago.),b,None,,,,,,,,,0,2,2,2,0,0,0,0,,,,,,,,,,,,,,,,,,,,,,,,,,,,,,,,,,,,,,,,,,,,,,,,,,,,,,,,,,,368.1209599,None,371.10384,None,space,0.2861472,371.10384,None,368.1209599,None,1.0782,372.491993,None,None,1,372.491993,None,,P024,fencog,1,Post,2022_Feb_18_0923,N-Back (New Version 2021),2021.1.4,119.9649223
,,,,Conditions/Version_1/twoback(1)_v1.xlsx,New rule: Press 'space' when you see 2-back (i.e. the same letter as the one that appeared 2 letters ago.),h,None,,,,,,,,,0,2,2,2,0,1,1,1,,,,,,,,,,,,,,,,,,,,,,,,,,,,,,,,,,,,,,,,,,,,,,,,,,,,,,,,,,,,,,,,,,,,,1.7788,376.2745849,None,None,1,376.2745849,None,,P024,fencog,1,Post,2022_Feb_18_0923,N-Back (New Version 2021),2021.1.4,119.9649223
,,,,Conditions/Version_1/twoback(1)_v1.xlsx,New rule: Press 'space' when you see 2-back (i.e. the same letter as the one that appeared 2 letters ago.),j,None,,,,,,,,,0,2,2,2,0,2,2,2,,,,,,,,,,,,,,,,,,,,,,,,,,,,,,,,,,,,,,,,,,,,,,,,,,,,,,,,,,,,,,,,,,,,,1.134,379.4165116,None,None,1,379.4165116,None,,P024,fencog,1,Post,2022_Feb_18_0923,N-Back (New Version 2021),2021.1.4,119.9649223
,,,,Conditions/Version_1/twoback(1)_v1.xlsx,New rule: Press 'space' when you see 2-back (i.e. the same letter as the one that appeared 2 letters ago.),H,space,,,,,,,,,0,2,2,2,0,3,3,3,,,,,,,,,,,,,,,,,,,,,,,,,,,,,,,,,,,,,,,,,,,,,,,,,,,,,,,,,,,,,,,,,,,,,1.94,383.3676201,None,None,0,383.3676201,None,,P024,fencog,1,Post,2022_Feb_18_0923,N-Back (New Version 2021),2021.1.4,119.9649223
,,,,Conditions/Version_1/twoback(1)_v1.xlsx,New rule: Press 'space' when you see 2-back (i.e. the same letter as the one that appeared 2 letters ago.),p,None,,,,,,,,,0,2,2,2,0,4,4,4,,,,,,,,,,,,,,,,,,,,,,,,,,,,,,,,,,,,,,,,,,,,,,,,,,,,,,,,,,,,,,,,,,,,,1.4936,386.8725758,None,None,1,386.8725758,None,,P024,fencog,1,Post,2022_Feb_18_0923,N-Back (New Version 2021),2021.1.4,119.9649223
,,,,Conditions/Version_1/twoback(1)_v1.xlsx,New rule: Press 'space' when you see 2-back (i.e. the same letter as the one that appeared 2 letters ago.),p,None,,,,,,,,,0,2,2,2,0,5,5,5,,,,,,,,,,,,,,,,,,,,,,,,,,,,,,,,,,,,,,,,,,,,,,,,,,,,,,,,,,,,,,,,,,,,,1.9772,390.8621888,None,space,0,390.8621888,None,0.4798175,P024,fencog,1,Post,2022_Feb_18_0923,N-Back (New Version 2021),2021.1.4,119.9649223
,,,,Conditions/Version_1/twoback(1)_v1.xlsx,New rule: Press 'space' when you see 2-back (i.e. the same letter as the one that appeared 2 letters ago.),w,None,,,,,,,,,0,2,2,2,0,6,6,6,,,,,,,,,,,,,,,,,,,,,,,,,,,,,,,,,,,,,,,,,,,,,,,,,,,,,,,,,,,,,,,,,,,,,1.9958,394.8692851,None,None,1,394.8692851,None,,P024,fencog,1,Post,2022_Feb_18_0923,N-Back (New Version 2021),2021.1.4,119.9649223
,,,,Conditions/Version_1/twoback(1)_v1.xlsx,New rule: Press 'space' when you see 2-back (i.e. the same letter as the one that appeared 2 letters ago.),R,None,,,,,,,,,0,2,2,2,0,7,7,7,,,,,,,,,,,,,,,,,,,,,,,,,,,,,,,,,,,,,,,,,,,,,,,,,,,,,,,,,,,,,,,,,,,,,1.4316,398.3026057,None,None,1,398.3026057,None,,P024,fencog,1,Post,2022_Feb_18_0923,N-Back (New Version 2021),2021.1.4,119.9649223
,,,,Conditions/Version_1/twoback(1)_v1.xlsx,New rule: Press 'space' when you see 2-back (i.e. the same letter as the one that appeared 2 letters ago.),a,None,,,,,,,,,0,2,2,2,0,8,8,8,,,,,,,,,,,,,,,,,,,,,,,,,,,,,,,,,,,,,,,,,,,,,,,,,,,,,,,,,,,,,,,,,,,,,1.5184,401.8349282,None,None,1,401.8349282,None,,P024,fencog,1,Post,2022_Feb_18_0923,N-Back (New Version 2021),2021.1.4,119.9649223
,,,,Conditions/Version_1/twoback(1)_v1.xlsx,New rule: Press 'space' when you see 2-back (i.e. the same letter as the one that appeared 2 letters ago.),r,space,,,,,,,,,0,2,2,2,0,9,9,9,,,,,,,,,,,,,,,,,,,,,,,,,,,,,,,,,,,,,,,,,,,,,,,,,,,,,,,,,,,,,,,,,,,,,1.1774,405.0277051,None,space,1,405.0277051,None,1.1223994,P024,fencog,1,Post,2022_Feb_18_0923,N-Back (New Version 2021),2021.1.4,119.9649223
,,,,Conditions/Version_1/twoback(1)_v1.xlsx,New rule: Press 'space' when you see 2-back (i.e. the same letter as the one that appeared 2 letters ago.),,,,,,,,,,,0,2,2,2,,,,,,,,,,,,,,,,,,,,,,,,,,,,,,,,,,,,,,,,,,,,,,,,,,,,,,,,,,,,,,,,,,,,,,,,,,,,,,,,,P024,fencog,1,Post,2022_Feb_18_0923,N-Back (New Version 2021),2021.1.4,119.9649223
,,,,Conditions/Version_1/threeback(1)_v1.xlsx,New rule: Press 'space' when you see 3-back (i.e. the same letter as the one that appeared 3 letters ago.),r,None,,,,,,,,,0,3,3,3,0,0,0,0,,,,,,,,,,,,,,,,,,,,,,,,,,,,,,,,,,,,,,,,,,,,,,,,,,,,,,,,,,,407.0563177,None,410.0405781,None,space,0.2532935,410.0405781,None,407.0563177,None,1.134,411.4474035,None,None,1,411.4474035,None,,P024,fencog,1,Post,2022_Feb_18_0923,N-Back (New Version 2021),2021.1.4,119.9649223
,,,,Conditions/Version_1/threeback(1)_v1.xlsx,New rule: Press 'space' when you see 3-back (i.e. the same letter as the one that appeared 3 letters ago.),o,None,,,,,,,,,0,3,3,3,0,1,1,1,,,,,,,,,,,,,,,,,,,,,,,,,,,,,,,,,,,,,,,,,,,,,,,,,,,,,,,,,,,,,,,,,,,,,1.4936,414.9474896,None,None,1,414.9474896,None,,P024,fencog,1,Post,2022_Feb_18_0923,N-Back (New Version 2021),2021.1.4,119.9649223
,,,,Conditions/Version_1/threeback(1)_v1.xlsx,New rule: Press 'space' when you see 3-back (i.e. the same letter as the one that appeared 3 letters ago.),P,None,,,,,,,,,0,3,3,3,0,2,2,2,,,,,,,,,,,,,,,,,,,,,,,,,,,,,,,,,,,,,,,,,,,,,,,,,,,,,,,,,,,,,,,,,,,,,1.0658,418.0211223,None,None,1,418.0211223,None,,P024,fencog,1,Post,2022_Feb_18_0923,N-Back (New Version 2021),2021.1.4,119.9649223
,,,,Conditions/Version_1/threeback(1)_v1.xlsx,New rule: Press 'space' when you see 3-back (i.e. the same letter as the one that appeared 3 letters ago.),R,space,,,,,,,,,0,3,3,3,0,3,3,3,,,,,,,,,,,,,,,,,,,,,,,,,,,,,,,,,,,,,,,,,,,,,,,,,,,,,,,,,,,,,,,,,,,,,1.7602,421.794899,None,space,1,421.794899,None,0.4269718,P024,fencog,1,Post,2022_Feb_18_0923,N-Back (New Version 2021),2021.1.4,119.9649223
,,,,Conditions/Version_1/threeback(1)_v1.xlsx,New rule: Press 'space' when you see 3-back (i.e. the same letter as the one that appeared 3 letters ago.),p,None,,,,,,,,,0,3,3,3,0,4,4,4,,,,,,,,,,,,,,,,,,,,,,,,,,,,,,,,,,,,,,,,,,,,,,,,,,,,,,,,,,,,,,,,,,,,,1.1464,424.9525661,None,None,1,424.9525661,None,,P024,fencog,1,Post,2022_Feb_18_0923,N-Back (New Version 2021),2021.1.4,119.9649223
,,,,Conditions/Version_1/threeback(1)_v1.xlsx,New rule: Press 'space' when you see 3-back (i.e. the same letter as the one that appeared 3 letters ago.),E,None,,,,,,,,,0,3,3,3,0,5,5,5,,,,,,,,,,,,,,,,,,,,,,,,,,,,,,,,,,,,,,,,,,,,,,,,,,,,,,,,,,,,,,,,,,,,,1.2208,428.1839633,None,None,1,428.1839633,None,,P024,fencog,1,Post,2022_Feb_18_0923,N-Back (New Version 2021),2021.1.4,119.9649223
,,,,Conditions/Version_1/threeback(1)_v1.xlsx,New rule: Press 'space' when you see 3-back (i.e. the same letter as the one that appeared 3 letters ago.),e,None,,,,,,,,,0,3,3,3,0,6,6,6,,,,,,,,,,,,,,,,,,,,,,,,,,,,,,,,,,,,,,,,,,,,,,,,,,,,,,,,,,,,,,,,,,,,,1.4874,431.6829658,None,None,1,431.6829658,None,,P024,fencog,1,Post,2022_Feb_18_0923,N-Back (New Version 2021),2021.1.4,119.9649223
,,,,Conditions/Version_1/threeback(1)_v1.xlsx,New rule: Press 'space' when you see 3-back (i.e. the same letter as the one that appeared 3 letters ago.),m,None,,,,,,,,,0,3,3,3,0,7,7,7,,,,,,,,,,,,,,,,,,,,,,,,,,,,,,,,,,,,,,,,,,,,,,,,,,,,,,,,,,,,,,,,,,,,,1.0906,434.7840385,None,None,1,434.7840385,None,,P024,fencog,1,Post,2022_Feb_18_0923,N-Back (New Version 2021),2021.1.4,119.9649223
,,,,Conditions/Version_1/threeback(1)_v1.xlsx,New rule: Press 'space' when you see 3-back (i.e. the same letter as the one that appeared 3 letters ago.),n,None,,,,,,,,,0,3,3,3,0,8,8,8,,,,,,,,,,,,,,,,,,,,,,,,,,,,,,,,,,,,,,,,,,,,,,,,,,,,,,,,,,,,,,,,,,,,,1.0286,437.8144718,None,None,1,437.8144718,None,,P024,fencog,1,Post,2022_Feb_18_0923,N-Back (New Version 2021),2021.1.4,119.9649223
,,,,Conditions/Version_1/threeback(1)_v1.xlsx,New rule: Press 'space' when you see 3-back (i.e. the same letter as the one that appeared 3 letters ago.),e,space,,,,,,,,,0,3,3,3,0,9,9,9,,,,,,,,,,,,,,,,,,,,,,,,,,,,,,,,,,,,,,,,,,,,,,,,,,,,,,,,,,,,,,,,,,,,,1.0224,440.8387567,None,space,1,440.8387567,None,0.4072622,P024,fencog,1,Post,2022_Feb_18_0923,N-Back (New Version 2021),2021.1.4,119.9649223
,,,,Conditions/Version_1/threeback(1)_v1.xlsx,New rule: Press 'space' when you see 3-back (i.e. the same letter as the one that appeared 3 letters ago.),,,,,,,,,,,0,3,3,3,,,,,,,,,,,,,,,,,,,,,,,,,,,,,,,,,,,,,,,,,,,,,,,,,,,,,,,,,,,,,,,,,,,,,,,,,,,,,,,,,P024,fencog,1,Post,2022_Feb_18_0923,N-Back (New Version 2021),2021.1.4,119.9649223
,,,,Conditions/Version_1/oneback(2)_v1.xlsx,New rule: Press 'space' when you see 1-back (i.e. the same letter as the one that appeared 1 letter ago.),q,None,,,,,,,,,0,4,4,4,0,0,0,0,,,,,,,,,,,,,,,,,,,,,,,,,,,,,,,,,,,,,,,,,,,,,,,,,,,,,,,,,,,442.8618124,None,445.8482019,None,space,0.1417909,445.8482019,None,442.8618124,None,1.1898,447.2116995,None,None,1,447.2116995,None,,P024,fencog,1,Post,2022_Feb_18_0923,N-Back (New Version 2021),2021.1.4,119.9649223
,,,,Conditions/Version_1/oneback(2)_v1.xlsx,New rule: Press 'space' when you see 1-back (i.e. the same letter as the one that appeared 1 letter ago.),Q,space,,,,,,,,,0,4,4,4,0,1,1,1,,,,,,,,,,,,,,,,,,,,,,,,,,,,,,,,,,,,,,,,,,,,,,,,,,,,,,,,,,,,,,,,,,,,,1.2146,450.4295766,None,space,1,450.4295766,None,1.1364467,P024,fencog,1,Post,2022_Feb_18_0923,N-Back (New Version 2021),2021.1.4,119.9649223
,,,,Conditions/Version_1/oneback(2)_v1.xlsx,New rule: Press 'space' when you see 1-back (i.e. the same letter as the one that appeared 1 letter ago.),P,None,,,,,,,,,0,4,4,4,0,2,2,2,,,,,,,,,,,,,,,,,,,,,,,,,,,,,,,,,,,,,,,,,,,,,,,,,,,,,,,,,,,,,,,,,,,,,1.3572,453.8014975,None,None,1,453.8014975,None,,P024,fencog,1,Post,2022_Feb_18_0923,N-Back (New Version 2021),2021.1.4,119.9649223
,,,,Conditions/Version_1/oneback(2)_v1.xlsx,New rule: Press 'space' when you see 1-back (i.e. the same letter as the one that appeared 1 letter ago.),o,None,,,,,,,,,0,4,4,4,0,3,3,3,,,,,,,,,,,,,,,,,,,,,,,,,,,,,,,,,,,,,,,,,,,,,,,,,,,,,,,,,,,,,,,,,,,,,1.475,457.2754627,None,None,1,457.2754627,None,,P024,fencog,1,Post,2022_Feb_18_0923,N-Back (New Version 2021),2021.1.4,119.9649223
,,,,Conditions/Version_1/oneback(2)_v1.xlsx,New rule: Press 'space' when you see 1-back (i.e. the same letter as the one that appeared 1 letter ago.),m,None,,,,,,,,,0,4,4,4,0,4,4,4,,,,,,,,,,,,,,,,,,,,,,,,,,,,,,,,,,,,,,,,,,,,,,,,,,,,,,,,,,,,,,,,,,,,,1.7788,461.0631629,None,None,1,461.0631629,None,,P024,fencog,1,Post,2022_Feb_18_0923,N-Back (New Version 2021),2021.1.4,119.9649223
,,,,Conditions/Version_1/oneback(2)_v1.xlsx,New rule: Press 'space' when you see 1-back (i.e. the same letter as the one that appeared 1 letter ago.),Z,None,,,,,,,,,0,4,4,4,0,5,5,5,,,,,,,,,,,,,,,,,,,,,,,,,,,,,,,,,,,,,,,,,,,,,,,,,,,,,,,,,,,,,,,,,,,,,1.2828,464.3486026,None,None,1,464.3486026,None,,P024,fencog,1,Post,2022_Feb_18_0923,N-Back (New Version 2021),2021.1.4,119.9649223
,,,,Conditions/Version_1/oneback(2)_v1.xlsx,New rule: Press 'space' when you see 1-back (i.e. the same letter as the one that appeared 1 letter ago.),c,None,,,,,,,,,0,4,4,4,0,6,6,6,,,,,,,,,,,,,,,,,,,,,,,,,,,,,,,,,,,,,,,,,,,,,,,,,,,,,,,,,,,,,,,,,,,,,1.0906,467.4398826,None,None,1,467.4398826,None,,P024,fencog,1,Post,2022_Feb_18_0923,N-Back (New Version 2021),2021.1.4,119.9649223
,,,,Conditions/Version_1/oneback(2)_v1.xlsx,New rule: Press 'space' when you see 1-back (i.e. the same letter as the one that appeared 1 letter ago.),c,space,,,,,,,,,0,4,4,4,0,7,7,7,,,,,,,,,,,,,,,,,,,,,,,,,,,,,,,,,,,,,,,,,,,,,,,,,,,,,,,,,,,,,,,,,,,,,1.3386,470.7883301,None,space,1,470.7883301,None,1.9776276,P024,fencog,1,Post,2022_Feb_18_0923,N-Back (New Version 2021),2021.1.4,119.9649223
,,,,Conditions/Version_1/oneback(2)_v1.xlsx,New rule: Press 'space' when you see 1-back (i.e. the same letter as the one that appeared 1 letter ago.),P,None,,,,,,,,,0,4,4,4,0,8,8,8,,,,,,,,,,,,,,,,,,,,,,,,,,,,,,,,,,,,,,,,,,,,,,,,,,,,,,,,,,,,,,,,,,,,,1.7602,474.5542477,None,None,1,474.5542477,None,,P024,fencog,1,Post,2022_Feb_18_0923,N-Back (New Version 2021),2021.1.4,119.9649223
,,,,Conditions/Version_1/oneback(2)_v1.xlsx,New rule: Press 'space' when you see 1-back (i.e. the same letter as the one that appeared 1 letter ago.),p,space,,,,,,,,,0,4,4,4,0,9,9,9,,,,,,,,,,,,,,,,,,,,,,,,,,,,,,,,,,,,,,,,,,,,,,,,,,,,,,,,,,,,,,,,,,,,,1.0844,477.655054,None,space,1,477.655054,None,0.4791284,P024,fencog,1,Post,2022_Feb_18_0923,N-Back (New Version 2021),2021.1.4,119.9649223
,,,,Conditions/Version_1/oneback(2)_v1.xlsx,New rule: Press 'space' when you see 1-back (i.e. the same letter as the one that appeared 1 letter ago.),,,,,,,,,,,0,4,4,4,,,,,,,,,,,,,,,,,,,,,,,,,,,,,,,,,,,,,,,,,,,,,,,,,,,,,,,,,,,,,,,,,,,,,,,,,,,,,,,,,P024,fencog,1,Post,2022_Feb_18_0923,N-Back (New Version 2021),2021.1.4,119.9649223
,,,,Conditions/Version_1/zeroback(2)_v1.xlsx,New rule: Press 'space' when you see the letter 'x' or 'X'.,p,None,,,,,,,,,0,5,5,5,0,0,0,0,,,,,,,,,,,,,,,,,,,,,,,,,,,,,,,,,,,,,,,,,,,,,,,,,,,,,,,,,,,479.6768725,None,482.6623375,None,space,0.2957179,482.6623375,None,479.6768725,None,1.2022,484.1844527,None,None,1,484.1844527,None,,P024,fencog,1,Post,2022_Feb_18_0923,N-Back (New Version 2021),2021.1.4,119.9649223
,,,,Conditions/Version_1/zeroback(2)_v1.xlsx,New rule: Press 'space' when you see the letter 'x' or 'X'.,L,None,,,,,,,,,0,5,5,5,0,1,1,1,,,,,,,,,,,,,,,,,,,,,,,,,,,,,,,,,,,,,,,,,,,,,,,,,,,,,,,,,,,,,,,,,,,,,1.692,487.8830423,None,None,1,487.8830423,None,,P024,fencog,1,Post,2022_Feb_18_0923,N-Back (New Version 2021),2021.1.4,119.9649223
,,,,Conditions/Version_1/zeroback(2)_v1.xlsx,New rule: Press 'space' when you see the letter 'x' or 'X'.,G,None,,,,,,,,,0,5,5,5,0,2,2,2,,,,,,,,,,,,,,,,,,,,,,,,,,,,,,,,,,,,,,,,,,,,,,,,,,,,,,,,,,,,,,,,,,,,,1.5556,491.449496,None,None,1,491.449496,None,,P024,fencog,1,Post,2022_Feb_18_0923,N-Back (New Version 2021),2021.1.4,119.9649223
,,,,Conditions/Version_1/zeroback(2)_v1.xlsx,New rule: Press 'space' when you see the letter 'x' or 'X'.,y,None,,,,,,,,,0,5,5,5,0,3,3,3,,,,,,,,,,,,,,,,,,,,,,,,,,,,,,,,,,,,,,,,,,,,,,,,,,,,,,,,,,,,,,,,,,,,,1.258,494.7175742,None,None,1,494.7175742,None,,P024,fencog,1,Post,2022_Feb_18_0923,N-Back (New Version 2021),2021.1.4,119.9649223
,,,,Conditions/Version_1/zeroback(2)_v1.xlsx,New rule: Press 'space' when you see the letter 'x' or 'X'.,Y,None,,,,,,,,,0,5,5,5,0,4,4,4,,,,,,,,,,,,,,,,,,,,,,,,,,,,,,,,,,,,,,,,,,,,,,,,,,,,,,,,,,,,,,,,,,,,,1.7974,498.5215385,None,None,1,498.5215385,None,,P024,fencog,1,Post,2022_Feb_18_0923,N-Back (New Version 2021),2021.1.4,119.9649223
,,,,Conditions/Version_1/zeroback(2)_v1.xlsx,New rule: Press 'space' when you see the letter 'x' or 'X'.,W,None,,,,,,,,,0,5,5,5,0,5,5,5,,,,,,,,,,,,,,,,,,,,,,,,,,,,,,,,,,,,,,,,,,,,,,,,,,,,,,,,,,,,,,,,,,,,,1.3882,501.9141709,None,None,1,501.9141709,None,,P024,fencog,1,Post,2022_Feb_18_0923,N-Back (New Version 2021),2021.1.4,119.9649223
,,,,Conditions/Version_1/zeroback(2)_v1.xlsx,New rule: Press 'space' when you see the letter 'x' or 'X'.,x,space,,,,,,,,,0,5,5,5,0,6,6,6,,,,,,,,,,,,,,,,,,,,,,,,,,,,,,,,,,,,,,,,,,,,,,,,,,,,,,,,,,,,,,,,,,,,,1.0348,504.9685719,None,space,1,504.9685719,None,1.7174884,P024,fencog,1,Post,2022_Feb_18_0923,N-Back (New Version 2021),2021.1.4,119.9649223
,,,,Conditions/Version_1/zeroback(2)_v1.xlsx,New rule: Press 'space' when you see the letter 'x' or 'X'.,X,space,,,,,,,,,0,5,5,5,0,7,7,7,,,,,,,,,,,,,,,,,,,,,,,,,,,,,,,,,,,,,,,,,,,,,,,,,,,,,,,,,,,,,,,,,,,,,1.6982,508.6717058,None,space,1,508.6717058,None,0.4222777,P024,fencog,1,Post,2022_Feb_18_0923,N-Back (New Version 2021),2021.1.4,119.9649223
,,,,Conditions/Version_1/zeroback(2)_v1.xlsx,New rule: Press 'space' when you see the letter 'x' or 'X'.,p,None,,,,,,,,,0,5,5,5,0,8,8,8,,,,,,,,,,,,,,,,,,,,,,,,,,,,,,,,,,,,,,,,,,,,,,,,,,,,,,,,,,,,,,,,,,,,,1.1526,511.8261488,None,None,1,511.8261488,None,,P024,fencog,1,Post,2022_Feb_18_0923,N-Back (New Version 2021),2021.1.4,119.9649223
,,,,Conditions/Version_1/zeroback(2)_v1.xlsx,New rule: Press 'space' when you see the letter 'x' or 'X'.,h,None,,,,,,,,,0,5,5,5,0,9,9,9,,,,,,,,,,,,,,,,,,,,,,,,,,,,,,,,,,,,,,,,,,,,,,,,,,,,,,,,,,,,,,,,,,,,,1.1092,514.9426814,None,None,1,514.9426814,None,,P024,fencog,1,Post,2022_Feb_18_0923,N-Back (New Version 2021),2021.1.4,119.9649223
,,,,Conditions/Version_1/zeroback(2)_v1.xlsx,New rule: Press 'space' when you see the letter 'x' or 'X'.,,,,,,,,,,,0,5,5,5,,,,,,,,,,,,,,,,,,,,,,,,,,,,,,,,,,,,,,,,,,,,,,,,,,,,,,,,,,,,,,,,,,,,,,,,,,,,,,,,,P024,fencog,1,Post,2022_Feb_18_0923,N-Back (New Version 2021),2021.1.4,119.9649223
,,,,Conditions/Version_1/threeback(2)_v1.xlsx,New rule: Press 'space' when you see 3-back (i.e. the same letter as the one that appeared 3 letters ago.),q,None,,,,,,,,,0,6,6,6,0,0,0,0,,,,,,,,,,,,,,,,,,,,,,,,,,,,,,,,,,,,,,,,,,,,,,,,,,,,,,,,,,,516.9726063,None,519.9610878,None,space,1.8687299,519.9610878,None,516.9726063,None,1.3262,523.1822659,None,None,1,523.1822659,None,,P024,fencog,1,Post,2022_Feb_18_0923,N-Back (New Version 2021),2021.1.4,119.9649223
,,,,Conditions/Version_1/threeback(2)_v1.xlsx,New rule: Press 'space' when you see 3-back (i.e. the same letter as the one that appeared 3 letters ago.),Y,None,,,,,,,,,0,6,6,6,0,1,1,1,,,,,,,,,,,,,,,,,,,,,,,,,,,,,,,,,,,,,,,,,,,,,,,,,,,,,,,,,,,,,,,,,,,,,1.6176,526.8132368,None,None,1,526.8132368,None,,P024,fencog,1,Post,2022_Feb_18_0923,N-Back (New Version 2021),2021.1.4,119.9649223
,,,,Conditions/Version_1/threeback(2)_v1.xlsx,New rule: Press 'space' when you see 3-back (i.e. the same letter as the one that appeared 3 letters ago.),p,None,,,,,,,,,0,6,6,6,0,2,2,2,,,,,,,,,,,,,,,,,,,,,,,,,,,,,,,,,,,,,,,,,,,,,,,,,,,,,,,,,,,,,,,,,,,,,1.1402,529.9540812,None,None,1,529.9540812,None,,P024,fencog,1,Post,2022_Feb_18_0923,N-Back (New Version 2021),2021.1.4,119.9649223
,,,,Conditions/Version_1/threeback(2)_v1.xlsx,New rule: Press 'space' when you see 3-back (i.e. the same letter as the one that appeared 3 letters ago.),p,None,,,,,,,,,0,6,6,6,0,3,3,3,,,,,,,,,,,,,,,,,,,,,,,,,,,,,,,,,,,,,,,,,,,,,,,,,,,,,,,,,,,,,,,,,,,,,1.8904,533.8445694,None,None,1,533.8445694,None,,P024,fencog,1,Post,2022_Feb_18_0923,N-Back (New Version 2021),2021.1.4,119.9649223
,,,,Conditions/Version_1/threeback(2)_v1.xlsx,New rule: Press 'space' when you see 3-back (i.e. the same letter as the one that appeared 3 letters ago.),y,space,,,,,,,,,0,6,6,6,0,4,4,4,,,,,,,,,,,,,,,,,,,,,,,,,,,,,,,,,,,,,,,,,,,,,,,,,,,,,,,,,,,,,,,,,,,,,1.6486,537.4943312,None,space,1,537.4943312,None,0.7838642,P024,fencog,1,Post,2022_Feb_18_0923,N-Back (New Version 2021),2021.1.4,119.9649223
,,,,Conditions/Version_1/threeback(2)_v1.xlsx,New rule: Press 'space' when you see 3-back (i.e. the same letter as the one that appeared 3 letters ago.),u,None,,,,,,,,,0,6,6,6,0,5,5,5,,,,,,,,,,,,,,,,,,,,,,,,,,,,,,,,,,,,,,,,,,,,,,,,,,,,,,,,,,,,,,,,,,,,,1.1154,540.6183618,None,None,1,540.6183618,None,,P024,fencog,1,Post,2022_Feb_18_0923,N-Back (New Version 2021),2021.1.4,119.9649223
,,,,Conditions/Version_1/threeback(2)_v1.xlsx,New rule: Press 'space' when you see 3-back (i.e. the same letter as the one that appeared 3 letters ago.),P,space,,,,,,,,,0,6,6,6,0,6,6,6,,,,,,,,,,,,,,,,,,,,,,,,,,,,,,,,,,,,,,,,,,,,,,,,,,,,,,,,,,,,,,,,,,,,,1.6114,544.2437726,None,space,1,544.2437726,None,0.8983877,P024,fencog,1,Post,2022_Feb_18_0923,N-Back (New Version 2021),2021.1.4,119.9649223
,,,,Conditions/Version_1/threeback(2)_v1.xlsx,New rule: Press 'space' when you see 3-back (i.e. the same letter as the one that appeared 3 letters ago.),a,None,,,,,,,,,0,6,6,6,0,7,7,7,,,,,,,,,,,,,,,,,,,,,,,,,,,,,,,,,,,,,,,,,,,,,,,,,,,,,,,,,,,,,,,,,,,,,1.1526,547.4096817,None,None,1,547.4096817,None,,P024,fencog,1,Post,2022_Feb_18_0923,N-Back (New Version 2021),2021.1.4,119.9649223
,,,,Conditions/Version_1/threeback(2)_v1.xlsx,New rule: Press 'space' when you see 3-back (i.e. the same letter as the one that appeared 3 letters ago.),U,space,,,,,,,,,0,6,6,6,0,8,8,8,,,,,,,,,,,,,,,,,,,,,,,,,,,,,,,,,,,,,,,,,,,,,,,,,,,,,,,,,,,,,,,,,,,,,1.5556,550.9734962,None,None,0,550.9734962,None,,P024,fencog,1,Post,2022_Feb_18_0923,N-Back (New Version 2021),2021.1.4,119.9649223
,,,,Conditions/Version_1/threeback(2)_v1.xlsx,New rule: Press 'space' when you see 3-back (i.e. the same letter as the one that appeared 3 letters ago.),q,None,,,,,,,,,0,6,6,6,0,9,9,9,,,,,,,,,,,,,,,,,,,,,,,,,,,,,,,,,,,,,,,,,,,,,,,,,,,,,,,,,,,,,,,,,,,,,1.9152,554.8906105,None,None,1,554.8906105,None,,P024,fencog,1,Post,2022_Feb_18_0923,N-Back (New Version 2021),2021.1.4,119.9649223
,,,,Conditions/Version_1/threeback(2)_v1.xlsx,New rule: Press 'space' when you see 3-back (i.e. the same letter as the one that appeared 3 letters ago.),,,,,,,,,,,0,6,6,6,,,,,,,,,,,,,,,,,,,,,,,,,,,,,,,,,,,,,,,,,,,,,,,,,,,,,,,,,,,,,,,,,,,,,,,,,,,,,,,,,P024,fencog,1,Post,2022_Feb_18_0923,N-Back (New Version 2021),2021.1.4,119.9649223
,,,,Conditions/Version_1/twoback(2)_v1.xlsx,New rule: Press 'space' when you see 2-back (i.e. the same letter as the one that appeared 2 letters ago.),q,None,,,,,,,,,0,7,7,7,0,0,0,0,,,,,,,,,,,,,,,,,,,,,,,,,,,,,,,,,,,,,,,,,,,,,,,,,,,,,,,,,,,556.9131679,None,559.8975005,None,space,0.3325954,559.8975005,None,556.9131679,None,1.9152,562.1698777,None,None,1,562.1698777,None,,P024,fencog,1,Post,2022_Feb_18_0923,N-Back (New Version 2021),2021.1.4,119.9649223
,,,,Conditions/Version_1/twoback(2)_v1.xlsx,New rule: Press 'space' when you see 2-back (i.e. the same letter as the one that appeared 2 letters ago.),r,None,,,,,,,,,0,7,7,7,0,1,1,1,,,,,,,,,,,,,,,,,,,,,,,,,,,,,,,,,,,,,,,,,,,,,,,,,,,,,,,,,,,,,,,,,,,,,1.692,565.8696483,None,None,1,565.8696483,None,,P024,fencog,1,Post,2022_Feb_18_0923,N-Back (New Version 2021),2021.1.4,119.9649223
,,,,Conditions/Version_1/twoback(2)_v1.xlsx,New rule: Press 'space' when you see 2-back (i.e. the same letter as the one that appeared 2 letters ago.),q,space,,,,,,,,,0,7,7,7,0,2,2,2,,,,,,,,,,,,,,,,,,,,,,,,,,,,,,,,,,,,,,,,,,,,,,,,,,,,,,,,,,,,,,,,,,,,,1.9648,569.8434116,None,space,1,569.8434116,None,0.7545664,P024,fencog,1,Post,2022_Feb_18_0923,N-Back (New Version 2021),2021.1.4,119.9649223
,,,,Conditions/Version_1/twoback(2)_v1.xlsx,New rule: Press 'space' when you see 2-back (i.e. the same letter as the one that appeared 2 letters ago.),P,None,,,,,,,,,0,7,7,7,0,3,3,3,,,,,,,,,,,,,,,,,,,,,,,,,,,,,,,,,,,,,,,,,,,,,,,,,,,,,,,,,,,,,,,,,,,,,1.3696,573.2256384,None,None,1,573.2256384,None,,P024,fencog,1,Post,2022_Feb_18_0923,N-Back (New Version 2021),2021.1.4,119.9649223
,,,,Conditions/Version_1/twoback(2)_v1.xlsx,New rule: Press 'space' when you see 2-back (i.e. the same letter as the one that appeared 2 letters ago.),p,None,,,,,,,,,0,7,7,7,0,4,4,4,,,,,,,,,,,,,,,,,,,,,,,,,,,,,,,,,,,,,,,,,,,,,,,,,,,,,,,,,,,,,,,,,,,,,1.4936,576.7339859,None,None,1,576.7339859,None,,P024,fencog,1,Post,2022_Feb_18_0923,N-Back (New Version 2021),2021.1.4,119.9649223
,,,,Conditions/Version_1/twoback(2)_v1.xlsx,New rule: Press 'space' when you see 2-back (i.e. the same letter as the one that appeared 2 letters ago.),H,None,,,,,,,,,0,7,7,7,0,5,5,5,,,,,,,,,,,,,,,,,,,,,,,,,,,,,,,,,,,,,,,,,,,,,,,,,,,,,,,,,,,,,,,,,,,,,1.6052,580.3476012,None,None,1,580.3476012,None,,P024,fencog,1,Post,2022_Feb_18_0923,N-Back (New Version 2021),2021.1.4,119.9649223
,,,,Conditions/Version_1/twoback(2)_v1.xlsx,New rule: Press 'space' when you see 2-back (i.e. the same letter as the one that appeared 2 letters ago.),g,None,,,,,,,,,0,7,7,7,0,6,6,6,,,,,,,,,,,,,,,,,,,,,,,,,,,,,,,,,,,,,,,,,,,,,,,,,,,,,,,,,,,,,,,,,,,,,1.8284,584.1802184,None,None,1,584.1802184,None,,P024,fencog,1,Post,2022_Feb_18_0923,N-Back (New Version 2021),2021.1.4,119.9649223
,,,,Conditions/Version_1/twoback(2)_v1.xlsx,New rule: Press 'space' when you see 2-back (i.e. the same letter as the one that appeared 2 letters ago.),j,None,,,,,,,,,0,7,7,7,0,7,7,7,,,,,,,,,,,,,,,,,,,,,,,,,,,,,,,,,,,,,,,,,,,,,,,,,,,,,,,,,,,,,,,,,,,,,1.3758,587.5622693,None,None,1,587.5622693,None,,P024,fencog,1,Post,2022_Feb_18_0923,N-Back (New Version 2021),2021.1.4,119.9649223
,,,,Conditions/Version_1/twoback(2)_v1.xlsx,New rule: Press 'space' when you see 2-back (i.e. the same letter as the one that appeared 2 letters ago.),g,space,,,,,,,,,0,7,7,7,0,8,8,8,,,,,,,,,,,,,,,,,,,,,,,,,,,,,,,,,,,,,,,,,,,,,,,,,,,,,,,,,,,,,,,,,,,,,1.4316,590.9966721,None,space,1,590.9966721,None,0.7775314,P024,fencog,1,Post,2022_Feb_18_0923,N-Back (New Version 2021),2021.1.4,119.9649223
,,,,Conditions/Version_1/twoback(2)_v1.xlsx,New rule: Press 'space' when you see 2-back (i.e. the same letter as the one that appeared 2 letters ago.),G,None,,,,,,,,,0,7,7,7,0,9,9,9,,,,,,,,,,,,,,,,,,,,,,,,,,,,,,,,,,,,,,,,,,,,,,,,,,,,,,,,,,,,,,,,,,,,,1.2518,594.261002,None,None,1,594.261002,None,,P024,fencog,1,Post,2022_Feb_18_0923,N-Back (New Version 2021),2021.1.4,119.9649223
,,,,Conditions/Version_1/twoback(2)_v1.xlsx,New rule: Press 'space' when you see 2-back (i.e. the same letter as the one that appeared 2 letters ago.),,,,,,,,,,,0,7,7,7,,,,,,,,,,,,,,,,,,,,,,,,,,,,,,,,,,,,,,,,,,,,,,,,,,,,,,,,,,,,,,,,,,,,,,,,,,,,,,,,,P024,fencog,1,Post,2022_Feb_18_0923,N-Back (New Version 2021),2021.1.4,119.9649223
,,,,Conditions/Version_1/threeback(3)_v1.xlsx,New rule: Press 'space' when you see 3-back (i.e. the same letter as the one that appeared 3 letters ago.),w,None,,,,,,,,,0,8,8,8,0,0,0,0,,,,,,,,,,,,,,,,,,,,,,,,,,,,,,,,,,,,,,,,,,,,,,,,,,,,,,,,,,,596.2912649,None,599.2773922,None,space,0.3286557,599.2773922,None,596.2912649,None,1.475,601.108308,None,None,1,601.108308,None,,P024,fencog,1,Post,2022_Feb_18_0923,N-Back (New Version 2021),2021.1.4,119.9649223
,,,,Conditions/Version_1/threeback(3)_v1.xlsx,New rule: Press 'space' when you see 3-back (i.e. the same letter as the one that appeared 3 letters ago.),p,None,,,,,,,,,0,8,8,8,0,1,1,1,,,,,,,,,,,,,,,,,,,,,,,,,,,,,,,,,,,,,,,,,,,,,,,,,,,,,,,,,,,,,,,,,,,,,1.2394,604.348848,None,None,1,604.348848,None,,P024,fencog,1,Post,2022_Feb_18_0923,N-Back (New Version 2021),2021.1.4,119.9649223
,,,,Conditions/Version_1/threeback(3)_v1.xlsx,New rule: Press 'space' when you see 3-back (i.e. the same letter as the one that appeared 3 letters ago.),P,None,,,,,,,,,0,8,8,8,0,2,2,2,,,,,,,,,,,,,,,,,,,,,,,,,,,,,,,,,,,,,,,,,,,,,,,,,,,,,,,,,,,,,,,,,,,,,1.8718,608.2343475,None,None,1,608.2343475,None,,P024,fencog,1,Post,2022_Feb_18_0923,N-Back (New Version 2021),2021.1.4,119.9649223
,,,,Conditions/Version_1/threeback(3)_v1.xlsx,New rule: Press 'space' when you see 3-back (i.e. the same letter as the one that appeared 3 letters ago.),i,None,,,,,,,,,0,8,8,8,0,3,3,3,,,,,,,,,,,,,,,,,,,,,,,,,,,,,,,,,,,,,,,,,,,,,,,,,,,,,,,,,,,,,,,,,,,,,1.2456,611.4915788,None,None,1,611.4915788,None,,P024,fencog,1,Post,2022_Feb_18_0923,N-Back (New Version 2021),2021.1.4,119.9649223
,,,,Conditions/Version_1/threeback(3)_v1.xlsx,New rule: Press 'space' when you see 3-back (i.e. the same letter as the one that appeared 3 letters ago.),f,None,,,,,,,,,0,8,8,8,0,4,4,4,,,,,,,,,,,,,,,,,,,,,,,,,,,,,,,,,,,,,,,,,,,,,,,,,,,,,,,,,,,,,,,,,,,,,1.2828,614.7876248,None,None,1,614.7876248,None,,P024,fencog,1,Post,2022_Feb_18_0923,N-Back (New Version 2021),2021.1.4,119.9649223
,,,,Conditions/Version_1/threeback(3)_v1.xlsx,New rule: Press 'space' when you see 3-back (i.e. the same letter as the one that appeared 3 letters ago.),o,None,,,,,,,,,0,8,8,8,0,5,5,5,,,,,,,,,,,,,,,,,,,,,,,,,,,,,,,,,,,,,,,,,,,,,,,,,,,,,,,,,,,,,,,,,,,,,1.5556,618.3451973,None,None,1,618.3451973,None,,P024,fencog,1,Post,2022_Feb_18_0923,N-Back (New Version 2021),2021.1.4,119.9649223
,,,,Conditions/Version_1/threeback(3)_v1.xlsx,New rule: Press 'space' when you see 3-back (i.e. the same letter as the one that appeared 3 letters ago.),w,None,,,,,,,,,0,8,8,8,0,6,6,6,,,,,,,,,,,,,,,,,,,,,,,,,,,,,,,,,,,,,,,,,,,,,,,,,,,,,,,,,,,,,,,,,,,,,1.9648,622.3184634,None,None,1,622.3184634,None,,P024,fencog,1,Post,2022_Feb_18_0923,N-Back (New Version 2021),2021.1.4,119.9649223
,,,,Conditions/Version_1/threeback(3)_v1.xlsx,New rule: Press 'space' when you see 3-back (i.e. the same letter as the one that appeared 3 letters ago.),F,space,,,,,,,,,0,8,8,8,0,7,7,7,,,,,,,,,,,,,,,,,,,,,,,,,,,,,,,,,,,,,,,,,,,,,,,,,,,,,,,,,,,,,,,,,,,,,1.5618,625.8840572,None,None,0,625.8840572,None,,P024,fencog,1,Post,2022_Feb_18_0923,N-Back (New Version 2021),2021.1.4,119.9649223
,,,,Conditions/Version_1/threeback(3)_v1.xlsx,New rule: Press 'space' when you see 3-back (i.e. the same letter as the one that appeared 3 letters ago.),p,None,,,,,,,,,0,8,8,8,0,8,8,8,,,,,,,,,,,,,,,,,,,,,,,,,,,,,,,,,,,,,,,,,,,,,,,,,,,,,,,,,,,,,,,,,,,,,1.8904,629.7746161,None,None,1,629.7746161,None,,P024,fencog,1,Post,2022_Feb_18_0923,N-Back (New Version 2021),2021.1.4,119.9649223
,,,,Conditions/Version_1/threeback(3)_v1.xlsx,New rule: Press 'space' when you see 3-back (i.e. the same letter as the one that appeared 3 letters ago.),W,space,,,,,,,,,0,8,8,8,0,9,9,9,,,,,,,,,,,,,,,,,,,,,,,,,,,,,,,,,,,,,,,,,,,,,,,,,,,,,,,,,,,,,,,,,,,,,1.0286,632.8070292,None,None,0,632.8070292,None,,P024,fencog,1,Post,2022_Feb_18_0923,N-Back (New Version 2021),2021.1.4,119.9649223
,,,,Conditions/Version_1/threeback(3)_v1.xlsx,New rule: Press 'space' when you see 3-back (i.e. the same letter as the one that appeared 3 letters ago.),,,,,,,,,,,0,8,8,8,,,,,,,,,,,,,,,,,,,,,,,,,,,,,,,,,,,,,,,,,,,,,,,,,,,,,,,,,,,,,,,,,,,,,,,,,,,,,,,,,P024,fencog,1,Post,2022_Feb_18_0923,N-Back (New Version 2021),2021.1.4,119.9649223
,,,,Conditions/Version_1/zeroback(3)_v1.xlsx,New rule: Press 'space' when you see the letter 'x' or 'X'.,X,space,,,,,,,,,0,9,9,9,0,0,0,0,,,,,,,,,,,,,,,,,,,,,,,,,,,,,,,,,,,,,,,,,,,,,,,,,,,,,,,,,,,634.8277223,None,637.8152265,None,space,0.3187687,637.8152265,None,634.8277223,None,1.6672,639.8299005,None,space,1,639.8299005,None,0.584044,P024,fencog,1,Post,2022_Feb_18_0923,N-Back (New Version 2021),2021.1.4,119.9649223
,,,,Conditions/Version_1/zeroback(3)_v1.xlsx,New rule: Press 'space' when you see the letter 'x' or 'X'.,B,None,,,,,,,,,0,9,9,9,0,1,1,1,,,,,,,,,,,,,,,,,,,,,,,,,,,,,,,,,,,,,,,,,,,,,,,,,,,,,,,,,,,,,,,,,,,,,1.8904,643.7224026,None,None,1,643.7224026,None,,P024,fencog,1,Post,2022_Feb_18_0923,N-Back (New Version 2021),2021.1.4,119.9649223
,,,,Conditions/Version_1/zeroback(3)_v1.xlsx,New rule: Press 'space' when you see the letter 'x' or 'X'.,m,None,,,,,,,,,0,9,9,9,0,2,2,2,,,,,,,,,,,,,,,,,,,,,,,,,,,,,,,,,,,,,,,,,,,,,,,,,,,,,,,,,,,,,,,,,,,,,1.7106,647.4443992,None,None,1,647.4443992,None,,P024,fencog,1,Post,2022_Feb_18_0923,N-Back (New Version 2021),2021.1.4,119.9649223
,,,,Conditions/Version_1/zeroback(3)_v1.xlsx,New rule: Press 'space' when you see the letter 'x' or 'X'.,m,None,,,,,,,,,0,9,9,9,0,3,3,3,,,,,,,,,,,,,,,,,,,,,,,,,,,,,,,,,,,,,,,,,,,,,,,,,,,,,,,,,,,,,,,,,,,,,1.7354,651.1851616,None,space,0,651.1851616,None,1.0050412,P024,fencog,1,Post,2022_Feb_18_0923,N-Back (New Version 2021),2021.1.4,119.9649223
,,,,Conditions/Version_1/zeroback(3)_v1.xlsx,New rule: Press 'space' when you see the letter 'x' or 'X'.,o,None,,,,,,,,,0,9,9,9,0,4,4,4,,,,,,,,,,,,,,,,,,,,,,,,,,,,,,,,,,,,,,,,,,,,,,,,,,,,,,,,,,,,,,,,,,,,,1.754,654.9423753,None,None,1,654.9423753,None,,P024,fencog,1,Post,2022_Feb_18_0923,N-Back (New Version 2021),2021.1.4,119.9649223
,,,,Conditions/Version_1/zeroback(3)_v1.xlsx,New rule: Press 'space' when you see the letter 'x' or 'X'.,p,None,,,,,,,,,0,9,9,9,0,5,5,5,,,,,,,,,,,,,,,,,,,,,,,,,,,,,,,,,,,,,,,,,,,,,,,,,,,,,,,,,,,,,,,,,,,,,1.847,658.7932081,None,None,1,658.7932081,None,,P024,fencog,1,Post,2022_Feb_18_0923,N-Back (New Version 2021),2021.1.4,119.9649223
,,,,Conditions/Version_1/zeroback(3)_v1.xlsx,New rule: Press 'space' when you see the letter 'x' or 'X'.,G,None,,,,,,,,,0,9,9,9,0,6,6,6,,,,,,,,,,,,,,,,,,,,,,,,,,,,,,,,,,,,,,,,,,,,,,,,,,,,,,,,,,,,,,,,,,,,,1.8346,662.6328315,None,None,1,662.6328315,None,,P024,fencog,1,Post,2022_Feb_18_0923,N-Back (New Version 2021),2021.1.4,119.9649223
,,,,Conditions/Version_1/zeroback(3)_v1.xlsx,New rule: Press 'space' when you see the letter 'x' or 'X'.,X,space,,,,,,,,,0,9,9,9,0,7,7,7,,,,,,,,,,,,,,,,,,,,,,,,,,,,,,,,,,,,,,,,,,,,,,,,,,,,,,,,,,,,,,,,,,,,,1.5184,666.1646963,None,space,1,666.1646963,None,0.4332462,P024,fencog,1,Post,2022_Feb_18_0923,N-Back (New Version 2021),2021.1.4,119.9649223
,,,,Conditions/Version_1/zeroback(3)_v1.xlsx,New rule: Press 'space' when you see the letter 'x' or 'X'.,p,None,,,,,,,,,0,9,9,9,0,8,8,8,,,,,,,,,,,,,,,,,,,,,,,,,,,,,,,,,,,,,,,,,,,,,,,,,,,,,,,,,,,,,,,,,,,,,1.0224,669.1975042,None,None,1,669.1975042,None,,P024,fencog,1,Post,2022_Feb_18_0923,N-Back (New Version 2021),2021.1.4,119.9649223
,,,,Conditions/Version_1/zeroback(3)_v1.xlsx,New rule: Press 'space' when you see the letter 'x' or 'X'.,x,space,,,,,,,,,0,9,9,9,0,9,9,9,,,,,,,,,,,,,,,,,,,,,,,,,,,,,,,,,,,,,,,,,,,,,,,,,,,,,,,,,,,,,,,,,,,,,1.6982,672.9044811,None,space,1,672.9044811,None,0.541673,P024,fencog,1,Post,2022_Feb_18_0923,N-Back (New Version 2021),2021.1.4,119.9649223
,,,,Conditions/Version_1/zeroback(3)_v1.xlsx,New rule: Press 'space' when you see the letter 'x' or 'X'.,,,,,,,,,,,0,9,9,9,,,,,,,,,,,,,,,,,,,,,,,,,,,,,,,,,,,,,,,,,,,,,,,,,,,,,,,,,,,,,,,,,,,,,,,,,,,,,,,,,P024,fencog,1,Post,2022_Feb_18_0923,N-Back (New Version 2021),2021.1.4,119.9649223
,,,,Conditions/Version_1/twoback(3)_v1.xlsx,New rule: Press 'space' when you see 2-back (i.e. the same letter as the one that appeared 2 letters ago.),e,None,,,,,,,,,0,10,10,10,0,0,0,0,,,,,,,,,,,,,,,,,,,,,,,,,,,,,,,,,,,,,,,,,,,,,,,,,,,,,,,,,,,674.9520061,None,677.9379121,None,space,0.2840509,677.9379121,None,674.9520061,None,1.5246,679.7878838,None,None,1,679.7878838,None,,P024,fencog,1,Post,2022_Feb_18_0923,N-Back (New Version 2021),2021.1.4,119.9649223
,,,,Conditions/Version_1/twoback(3)_v1.xlsx,New rule: Press 'space' when you see 2-back (i.e. the same letter as the one that appeared 2 letters ago.),o,None,,,,,,,,,0,10,10,10,0,1,1,1,,,,,,,,,,,,,,,,,,,,,,,,,,,,,,,,,,,,,,,,,,,,,,,,,,,,,,,,,,,,,,,,,,,,,1.0782,682.8759084,None,None,1,682.8759084,None,,P024,fencog,1,Post,2022_Feb_18_0923,N-Back (New Version 2021),2021.1.4,119.9649223
,,,,Conditions/Version_1/twoback(3)_v1.xlsx,New rule: Press 'space' when you see 2-back (i.e. the same letter as the one that appeared 2 letters ago.),P,None,,,,,,,,,0,10,10,10,0,2,2,2,,,,,,,,,,,,,,,,,,,,,,,,,,,,,,,,,,,,,,,,,,,,,,,,,,,,,,,,,,,,,,,,,,,,,1.9648,686.8413457,None,None,1,686.8413457,None,,P024,fencog,1,Post,2022_Feb_18_0923,N-Back (New Version 2021),2021.1.4,119.9649223
,,,,Conditions/Version_1/twoback(3)_v1.xlsx,New rule: Press 'space' when you see 2-back (i.e. the same letter as the one that appeared 2 letters ago.),z,None,,,,,,,,,0,10,10,10,0,3,3,3,,,,,,,,,,,,,,,,,,,,,,,,,,,,,,,,,,,,,,,,,,,,,,,,,,,,,,,,,,,,,,,,,,,,,1.0534,689.9013347,None,None,1,689.9013347,None,,P024,fencog,1,Post,2022_Feb_18_0923,N-Back (New Version 2021),2021.1.4,119.9649223
,,,,Conditions/Version_1/twoback(3)_v1.xlsx,New rule: Press 'space' when you see 2-back (i.e. the same letter as the one that appeared 2 letters ago.),X,None,,,,,,,,,0,10,10,10,0,4,4,4,,,,,,,,,,,,,,,,,,,,,,,,,,,,,,,,,,,,,,,,,,,,,,,,,,,,,,,,,,,,,,,,,,,,,1.5432,693.461478,None,None,1,693.461478,None,,P024,fencog,1,Post,2022_Feb_18_0923,N-Back (New Version 2021),2021.1.4,119.9649223
,,,,Conditions/Version_1/twoback(3)_v1.xlsx,New rule: Press 'space' when you see 2-back (i.e. the same letter as the one that appeared 2 letters ago.),z,space,,,,,,,,,0,10,10,10,0,5,5,5,,,,,,,,,,,,,,,,,,,,,,,,,,,,,,,,,,,,,,,,,,,,,,,,,,,,,,,,,,,,,,,,,,,,,1.4502,696.9133981,None,space,1,696.9133981,None,0.5727682,P024,fencog,1,Post,2022_Feb_18_0923,N-Back (New Version 2021),2021.1.4,119.9649223
,,,,Conditions/Version_1/twoback(3)_v1.xlsx,New rule: Press 'space' when you see 2-back (i.e. the same letter as the one that appeared 2 letters ago.),x,space,,,,,,,,,0,10,10,10,0,6,6,6,,,,,,,,,,,,,,,,,,,,,,,,,,,,,,,,,,,,,,,,,,,,,,,,,,,,,,,,,,,,,,,,,,,,,1.9896,700.9038638,None,space,1,700.9038638,None,0.6061391,P024,fencog,1,Post,2022_Feb_18_0923,N-Back (New Version 2021),2021.1.4,119.9649223
,,,,Conditions/Version_1/twoback(3)_v1.xlsx,New rule: Press 'space' when you see 2-back (i.e. the same letter as the one that appeared 2 letters ago.),c,None,,,,,,,,,0,10,10,10,0,7,7,7,,,,,,,,,,,,,,,,,,,,,,,,,,,,,,,,,,,,,,,,,,,,,,,,,,,,,,,,,,,,,,,,,,,,,1.4068,704.3121622,None,None,1,704.3121622,None,,P024,fencog,1,Post,2022_Feb_18_0923,N-Back (New Version 2021),2021.1.4,119.9649223
,,,,Conditions/Version_1/twoback(3)_v1.xlsx,New rule: Press 'space' when you see 2-back (i.e. the same letter as the one that appeared 2 letters ago.),i,None,,,,,,,,,0,10,10,10,0,8,8,8,,,,,,,,,,,,,,,,,,,,,,,,,,,,,,,,,,,,,,,,,,,,,,,,,,,,,,,,,,,,,,,,,,,,,1.7354,708.0527109,None,None,1,708.0527109,None,,P024,fencog,1,Post,2022_Feb_18_0923,N-Back (New Version 2021),2021.1.4,119.9649223
,,,,Conditions/Version_1/twoback(3)_v1.xlsx,New rule: Press 'space' when you see 2-back (i.e. the same letter as the one that appeared 2 letters ago.),C,space,,,,,,,,,0,10,10,10,0,9,9,9,,,,,,,,,,,,,,,,,,,,,,,,,,,,,,,,,,,,,,,,,,,,,,,,,,,,,,,,,,,,,,,,,,,,,1.0596,711.1262385,None,space,1,711.1262385,None,0.6879215,P024,fencog,1,Post,2022_Feb_18_0923,N-Back (New Version 2021),2021.1.4,119.9649223
,,,,Conditions/Version_1/twoback(3)_v1.xlsx,New rule: Press 'space' when you see 2-back (i.e. the same letter as the one that appeared 2 letters ago.),,,,,,,,,,,0,10,10,10,,,,,,,,,,,,,,,,,,,,,,,,,,,,,,,,,,,,,,,,,,,,,,,,,,,,,,,,,,,,,,,,,,,,,,,,,,,,,,,,,P024,fencog,1,Post,2022_Feb_18_0923,N-Back (New Version 2021),2021.1.4,119.9649223
,,,,Conditions/Version_1/oneback(3)_v1.xlsx,New rule: Press 'space' when you see 1-back (i.e. the same letter as the one that appeared 1 letter ago.),o,None,,,,,,,,,0,11,11,11,0,0,0,0,,,,,,,,,,,,,,,,,,,,,,,,,,,,,,,,,,,,,,,,,,,,,,,,,,,,,,,,,,,713.1567654,None,716.1437485,None,space,0.286281,716.1437485,None,713.1567654,None,1.0968,717.5580399,None,None,1,717.5580399,None,,P024,fencog,1,Post,2022_Feb_18_0923,N-Back (New Version 2021),2021.1.4,119.9649223
,,,,Conditions/Version_1/oneback(3)_v1.xlsx,New rule: Press 'space' when you see 1-back (i.e. the same letter as the one that appeared 1 letter ago.),O,space,,,,,,,,,0,11,11,11,0,1,1,1,,,,,,,,,,,,,,,,,,,,,,,,,,,,,,,,,,,,,,,,,,,,,,,,,,,,,,,,,,,,,,,,,,,,,1.3758,720.9493079,None,space,1,720.9493079,None,0.4249287,P024,fencog,1,Post,2022_Feb_18_0923,N-Back (New Version 2021),2021.1.4,119.9649223
,,,,Conditions/Version_1/oneback(3)_v1.xlsx,New rule: Press 'space' when you see 1-back (i.e. the same letter as the one that appeared 1 letter ago.),h,None,,,,,,,,,0,11,11,11,0,2,2,2,,,,,,,,,,,,,,,,,,,,,,,,,,,,,,,,,,,,,,,,,,,,,,,,,,,,,,,,,,,,,,,,,,,,,1.5308,724.4885934,None,None,1,724.4885934,None,,P024,fencog,1,Post,2022_Feb_18_0923,N-Back (New Version 2021),2021.1.4,119.9649223
,,,,Conditions/Version_1/oneback(3)_v1.xlsx,New rule: Press 'space' when you see 1-back (i.e. the same letter as the one that appeared 1 letter ago.),g,None,,,,,,,,,0,11,11,11,0,3,3,3,,,,,,,,,,,,,,,,,,,,,,,,,,,,,,,,,,,,,,,,,,,,,,,,,,,,,,,,,,,,,,,,,,,,,1.2146,727.7067382,None,None,1,727.7067382,None,,P024,fencog,1,Post,2022_Feb_18_0923,N-Back (New Version 2021),2021.1.4,119.9649223
,,,,Conditions/Version_1/oneback(3)_v1.xlsx,New rule: Press 'space' when you see 1-back (i.e. the same letter as the one that appeared 1 letter ago.),n,None,,,,,,,,,0,11,11,11,0,4,4,4,,,,,,,,,,,,,,,,,,,,,,,,,,,,,,,,,,,,,,,,,,,,,,,,,,,,,,,,,,,,,,,,,,,,,1.8222,731.5364716,None,None,1,731.5364716,None,,P024,fencog,1,Post,2022_Feb_18_0923,N-Back (New Version 2021),2021.1.4,119.9649223
,,,,Conditions/Version_1/oneback(3)_v1.xlsx,New rule: Press 'space' when you see 1-back (i.e. the same letter as the one that appeared 1 letter ago.),z,None,,,,,,,,,0,11,11,11,0,5,5,5,,,,,,,,,,,,,,,,,,,,,,,,,,,,,,,,,,,,,,,,,,,,,,,,,,,,,,,,,,,,,,,,,,,,,1.4626,735.0030281,None,None,1,735.0030281,None,,P024,fencog,1,Post,2022_Feb_18_0923,N-Back (New Version 2021),2021.1.4,119.9649223
,,,,Conditions/Version_1/oneback(3)_v1.xlsx,New rule: Press 'space' when you see 1-back (i.e. the same letter as the one that appeared 1 letter ago.),X,None,,,,,,,,,0,11,11,11,0,6,6,6,,,,,,,,,,,,,,,,,,,,,,,,,,,,,,,,,,,,,,,,,,,,,,,,,,,,,,,,,,,,,,,,,,,,,1.196,738.2094909,None,None,1,738.2094909,None,,P024,fencog,1,Post,2022_Feb_18_0923,N-Back (New Version 2021),2021.1.4,119.9649223
,,,,Conditions/Version_1/oneback(3)_v1.xlsx,New rule: Press 'space' when you see 1-back (i.e. the same letter as the one that appeared 1 letter ago.),r,None,,,,,,,,,0,11,11,11,0,7,7,7,,,,,,,,,,,,,,,,,,,,,,,,,,,,,,,,,,,,,,,,,,,,,,,,,,,,,,,,,,,,,,,,,,,,,1.6796,741.893525,None,None,1,741.893525,None,,P024,fencog,1,Post,2022_Feb_18_0923,N-Back (New Version 2021),2021.1.4,119.9649223
,,,,Conditions/Version_1/oneback(3)_v1.xlsx,New rule: Press 'space' when you see 1-back (i.e. the same letter as the one that appeared 1 letter ago.),r,space,,,,,,,,,0,11,11,11,0,8,8,8,,,,,,,,,,,,,,,,,,,,,,,,,,,,,,,,,,,,,,,,,,,,,,,,,,,,,,,,,,,,,,,,,,,,,1.9028,745.8072473,None,space,1,745.8072473,None,0.9590497,P024,fencog,1,Post,2022_Feb_18_0923,N-Back (New Version 2021),2021.1.4,119.9649223
,,,,Conditions/Version_1/oneback(3)_v1.xlsx,New rule: Press 'space' when you see 1-back (i.e. the same letter as the one that appeared 1 letter ago.),P,None,,,,,,,,,0,11,11,11,0,9,9,9,,,,,,,,,,,,,,,,,,,,,,,,,,,,,,,,,,,,,,,,,,,,,,,,,,,,,,,,,,,,,,,,,,,,,1.6672,749.5195501,None,None,1,749.5195501,None,,P024,fencog,1,Post,2022_Feb_18_0923,N-Back (New Version 2021),2021.1.4,119.9649223
,,,,Conditions/Version_1/oneback(3)_v1.xlsx,New rule: Press 'space' when you see 1-back (i.e. the same letter as the one that appeared 1 letter ago.),,,,,,,,,,,0,11,11,11,,,,,,,,,,,,,,,,,,,,,,,,,,,,,,,,,,,,,,,,,,,,,,,,,,,,,,,,,,,,,,,,,,,,,,,,,,,,,,,,,P024,fencog,1,Post,2022_Feb_18_0923,N-Back (New Version 2021),2021.1.4,119.9649223
,,,,Conditions/Version_1/twoback(4)_v1.xlsx,New rule: Press 'space' when you see 2-back (i.e. the same letter as the one that appeared 2 letters ago.),r,None,,,,,,,,,0,12,12,12,0,0,0,0,,,,,,,,,,,,,,,,,,,,,,,,,,,,,,,,,,,,,,,,,,,,,,,,,,,,,,,,,,,751.5104262,None,754.4985231,None,space,0.419744,754.4985231,None,751.5104262,None,1.2084,756.1547291,None,None,1,756.1547291,None,,P024,fencog,1,Post,2022_Feb_18_0923,N-Back (New Version 2021),2021.1.4,119.9649223
,,,,Conditions/Version_1/twoback(4)_v1.xlsx,New rule: Press 'space' when you see 2-back (i.e. the same letter as the one that appeared 2 letters ago.),T,None,,,,,,,,,0,12,12,12,0,1,1,1,,,,,,,,,,,,,,,,,,,,,,,,,,,,,,,,,,,,,,,,,,,,,,,,,,,,,,,,,,,,,,,,,,,,,1.9152,760.0707261,None,None,1,760.0707261,None,,P024,fencog,1,Post,2022_Feb_18_0923,N-Back (New Version 2021),2021.1.4,119.9649223
,,,,Conditions/Version_1/twoback(4)_v1.xlsx,New rule: Press 'space' when you see 2-back (i.e. the same letter as the one that appeared 2 letters ago.),o,None,,,,,,,,,0,12,12,12,0,2,2,2,,,,,,,,,,,,,,,,,,,,,,,,,,,,,,,,,,,,,,,,,,,,,,,,,,,,,,,,,,,,,,,,,,,,,1.8718,763.9520837,None,None,1,763.9520837,None,,P024,fencog,1,Post,2022_Feb_18_0923,N-Back (New Version 2021),2021.1.4,119.9649223
,,,,Conditions/Version_1/twoback(4)_v1.xlsx,New rule: Press 'space' when you see 2-back (i.e. the same letter as the one that appeared 2 letters ago.),p,None,,,,,,,,,0,12,12,12,0,3,3,3,,,,,,,,,,,,,,,,,,,,,,,,,,,,,,,,,,,,,,,,,,,,,,,,,,,,,,,,,,,,,,,,,,,,,1.1588,767.1174998,None,None,1,767.1174998,None,,P024,fencog,1,Post,2022_Feb_18_0923,N-Back (New Version 2021),2021.1.4,119.9649223
,,,,Conditions/Version_1/twoback(4)_v1.xlsx,New rule: Press 'space' when you see 2-back (i.e. the same letter as the one that appeared 2 letters ago.),p,None,,,,,,,,,0,12,12,12,0,4,4,4,,,,,,,,,,,,,,,,,,,,,,,,,,,,,,,,,,,,,,,,,,,,,,,,,,,,,,,,,,,,,,,,,,,,,1.6238,770.7416296,None,None,1,770.7416296,None,,P024,fencog,1,Post,2022_Feb_18_0923,N-Back (New Version 2021),2021.1.4,119.9649223
,,,,Conditions/Version_1/twoback(4)_v1.xlsx,New rule: Press 'space' when you see 2-back (i.e. the same letter as the one that appeared 2 letters ago.),y,None,,,,,,,,,0,12,12,12,0,5,5,5,,,,,,,,,,,,,,,,,,,,,,,,,,,,,,,,,,,,,,,,,,,,,,,,,,,,,,,,,,,,,,,,,,,,,1.599,774.3498739,None,None,1,774.3498739,None,,P024,fencog,1,Post,2022_Feb_18_0923,N-Back (New Version 2021),2021.1.4,119.9649223
,,,,Conditions/Version_1/twoback(4)_v1.xlsx,New rule: Press 'space' when you see 2-back (i.e. the same letter as the one that appeared 2 letters ago.),P,space,,,,,,,,,0,12,12,12,0,6,6,6,,,,,,,,,,,,,,,,,,,,,,,,,,,,,,,,,,,,,,,,,,,,,,,,,,,,,,,,,,,,,,,,,,,,,1.4068,777.7651199,None,None,0,777.7651199,None,,P024,fencog,1,Post,2022_Feb_18_0923,N-Back (New Version 2021),2021.1.4,119.9649223
,,,,Conditions/Version_1/twoback(4)_v1.xlsx,New rule: Press 'space' when you see 2-back (i.e. the same letter as the one that appeared 2 letters ago.),y,None,,,,,,,,,0,12,12,12,0,7,7,7,,,,,,,,,,,,,,,,,,,,,,,,,,,,,,,,,,,,,,,,,,,,,,,,,,,,,,,,,,,,,,,,,,,,,1.5184,781.2967482,None,space,0,781.2967482,None,0.5812862,P024,fencog,1,Post,2022_Feb_18_0923,N-Back (New Version 2021),2021.1.4,119.9649223
,,,,Conditions/Version_1/twoback(4)_v1.xlsx,New rule: Press 'space' when you see 2-back (i.e. the same letter as the one that appeared 2 letters ago.),y,space,,,,,,,,,0,12,12,12,0,8,8,8,,,,,,,,,,,,,,,,,,,,,,,,,,,,,,,,,,,,,,,,,,,,,,,,,,,,,,,,,,,,,,,,,,,,,1.6672,784.9626009,None,None,0,784.9626009,None,,P024,fencog,1,Post,2022_Feb_18_0923,N-Back (New Version 2021),2021.1.4,119.9649223
,,,,Conditions/Version_1/twoback(4)_v1.xlsx,New rule: Press 'space' when you see 2-back (i.e. the same letter as the one that appeared 2 letters ago.),,,,,,,,,,,0,12,12,12,,,,,,,,,,,,,,,,,,,,,,,,,,,,,,,,,,,,,,,,,,,,,,,,,,,,,,,,,,,,,,,,,,,,,,,,,,,,,,,,,P024,fencog,1,Post,2022_Feb_18_0923,N-Back (New Version 2021),2021.1.4,119.9649223
,,,,Conditions/Version_1/zeroback(4)_v1.xlsx,New rule: Press 'space' when you see the letter 'x' or 'X'.,o,None,,,,,,,,,0,13,13,13,0,0,0,0,,,,,,,,,,,,,,,,,,,,,,,,,,,,,,,,,,,,,,,,,,,,,,,,,,,,,,,,,,,786.980963,None,789.9714067,None,space,0.2666517,789.9714067,None,786.980963,None,1.7664,792.036165,None,None,1,792.036165,None,,P024,fencog,1,Post,2022_Feb_18_0923,N-Back (New Version 2021),2021.1.4,119.9649223
,,,,Conditions/Version_1/zeroback(4)_v1.xlsx,New rule: Press 'space' when you see the letter 'x' or 'X'.,X,space,,,,,,,,,0,13,13,13,0,1,1,1,,,,,,,,,,,,,,,,,,,,,,,,,,,,,,,,,,,,,,,,,,,,,,,,,,,,,,,,,,,,,,,,,,,,,1.8346,795.8940324,None,space,1,795.8940324,None,0.7840489,P024,fencog,1,Post,2022_Feb_18_0923,N-Back (New Version 2021),2021.1.4,119.9649223
,,,,Conditions/Version_1/zeroback(4)_v1.xlsx,New rule: Press 'space' when you see the letter 'x' or 'X'.,p,None,,,,,,,,,0,13,13,13,0,2,2,2,,,,,,,,,,,,,,,,,,,,,,,,,,,,,,,,,,,,,,,,,,,,,,,,,,,,,,,,,,,,,,,,,,,,,1.1402,799.033067,None,None,1,799.033067,None,,P024,fencog,1,Post,2022_Feb_18_0923,N-Back (New Version 2021),2021.1.4,119.9649223
,,,,Conditions/Version_1/zeroback(4)_v1.xlsx,New rule: Press 'space' when you see the letter 'x' or 'X'.,m,None,,,,,,,,,0,13,13,13,0,3,3,3,,,,,,,,,,,,,,,,,,,,,,,,,,,,,,,,,,,,,,,,,,,,,,,,,,,,,,,,,,,,,,,,,,,,,1.1464,802.1826132,None,None,1,802.1826132,None,,P024,fencog,1,Post,2022_Feb_18_0923,N-Back (New Version 2021),2021.1.4,119.9649223
,,,,Conditions/Version_1/zeroback(4)_v1.xlsx,New rule: Press 'space' when you see the letter 'x' or 'X'.,n,None,,,,,,,,,0,13,13,13,0,4,4,4,,,,,,,,,,,,,,,,,,,,,,,,,,,,,,,,,,,,,,,,,,,,,,,,,,,,,,,,,,,,,,,,,,,,,1.8532,806.0404174,None,None,1,806.0404174,None,,P024,fencog,1,Post,2022_Feb_18_0923,N-Back (New Version 2021),2021.1.4,119.9649223
,,,,Conditions/Version_1/zeroback(4)_v1.xlsx,New rule: Press 'space' when you see the letter 'x' or 'X'.,m,None,,,,,,,,,0,13,13,13,0,5,5,5,,,,,,,,,,,,,,,,,,,,,,,,,,,,,,,,,,,,,,,,,,,,,,,,,,,,,,,,,,,,,,,,,,,,,1.4564,809.5115694,None,None,1,809.5115694,None,,P024,fencog,1,Post,2022_Feb_18_0923,N-Back (New Version 2021),2021.1.4,119.9649223
,,,,Conditions/Version_1/zeroback(4)_v1.xlsx,New rule: Press 'space' when you see the letter 'x' or 'X'.,C,None,,,,,,,,,0,13,13,13,0,6,6,6,,,,,,,,,,,,,,,,,,,,,,,,,,,,,,,,,,,,,,,,,,,,,,,,,,,,,,,,,,,,,,,,,,,,,1.4192,812.9374417,None,None,1,812.9374417,None,,P024,fencog,1,Post,2022_Feb_18_0923,N-Back (New Version 2021),2021.1.4,119.9649223
,,,,Conditions/Version_1/zeroback(4)_v1.xlsx,New rule: Press 'space' when you see the letter 'x' or 'X'.,m,None,,,,,,,,,0,13,13,13,0,7,7,7,,,,,,,,,,,,,,,,,,,,,,,,,,,,,,,,,,,,,,,,,,,,,,,,,,,,,,,,,,,,,,,,,,,,,1.8842,816.830119,None,None,1,816.830119,None,,P024,fencog,1,Post,2022_Feb_18_0923,N-Back (New Version 2021),2021.1.4,119.9649223
,,,,Conditions/Version_1/zeroback(4)_v1.xlsx,New rule: Press 'space' when you see the letter 'x' or 'X'.,p,None,,,,,,,,,0,13,13,13,0,8,8,8,,,,,,,,,,,,,,,,,,,,,,,,,,,,,,,,,,,,,,,,,,,,,,,,,,,,,,,,,,,,,,,,,,,,,1.196,820.0361242,None,None,1,820.0361242,None,,P024,fencog,1,Post,2022_Feb_18_0923,N-Back (New Version 2021),2021.1.4,119.9649223
,,,,Conditions/Version_1/zeroback(4)_v1.xlsx,New rule: Press 'space' when you see the letter 'x' or 'X'.,X,space,,,,,,,,,0,13,13,13,0,9,9,9,,,,,,,,,,,,,,,,,,,,,,,,,,,,,,,,,,,,,,,,,,,,,,,,,,,,,,,,,,,,,,,,,,,,,1.6238,823.6683042,None,space,1,823.6683042,None,1.9299709,P024,fencog,1,Post,2022_Feb_18_0923,N-Back (New Version 2021),2021.1.4,119.9649223
,,,,Conditions/Version_1/zeroback(4)_v1.xlsx,New rule: Press 'space' when you see the letter 'x' or 'X'.,,,,,,,,,,,0,13,13,13,,,,,,,,,,,,,,,,,,,,,,,,,,,,,,,,,,,,,,,,,,,,,,,,,,,,,,,,,,,,,,,,,,,,,,,,,,,,,,,,,P024,fencog,1,Post,2022_Feb_18_0923,N-Back (New Version 2021),2021.1.4,119.9649223
,,,,Conditions/Version_1/oneback(4)_v1.xlsx,New rule: Press 'space' when you see 1-back (i.e. the same letter as the one that appeared 1 letter ago.),w,None,,,,,,,,,0,14,14,14,0,0,0,0,,,,,,,,,,,,,,,,,,,,,,,,,,,,,,,,,,,,,,,,,,,,,,,,,,,,,,,,,,,825.6891367,None,828.6767919,None,space,0.2972338,828.6767919,None,825.6891367,None,1.413,830.4163112,None,None,1,830.4163112,None,,P024,fencog,1,Post,2022_Feb_18_0923,N-Back (New Version 2021),2021.1.4,119.9649223
,,,,Conditions/Version_1/oneback(4)_v1.xlsx,New rule: Press 'space' when you see 1-back (i.e. the same letter as the one that appeared 1 letter ago.),q,None,,,,,,,,,0,14,14,14,0,1,1,1,,,,,,,,,,,,,,,,,,,,,,,,,,,,,,,,,,,,,,,,,,,,,,,,,,,,,,,,,,,,,,,,,,,,,1.909,834.3253384,None,None,1,834.3253384,None,,P024,fencog,1,Post,2022_Feb_18_0923,N-Back (New Version 2021),2021.1.4,119.9649223
,,,,Conditions/Version_1/oneback(4)_v1.xlsx,New rule: Press 'space' when you see 1-back (i.e. the same letter as the one that appeared 1 letter ago.),i,None,,,,,,,,,0,14,14,14,0,2,2,2,,,,,,,,,,,,,,,,,,,,,,,,,,,,,,,,,,,,,,,,,,,,,,,,,,,,,,,,,,,,,,,,,,,,,1.2704,837.6054252,None,None,1,837.6054252,None,,P024,fencog,1,Post,2022_Feb_18_0923,N-Back (New Version 2021),2021.1.4,119.9649223
,,,,Conditions/Version_1/oneback(4)_v1.xlsx,New rule: Press 'space' when you see 1-back (i.e. the same letter as the one that appeared 1 letter ago.),t,None,,,,,,,,,0,14,14,14,0,3,3,3,,,,,,,,,,,,,,,,,,,,,,,,,,,,,,,,,,,,,,,,,,,,,,,,,,,,,,,,,,,,,,,,,,,,,1.0658,840.6711681,None,None,1,840.6711681,None,,P024,fencog,1,Post,2022_Feb_18_0923,N-Back (New Version 2021),2021.1.4,119.9649223
,,,,Conditions/Version_1/oneback(4)_v1.xlsx,New rule: Press 'space' when you see 1-back (i.e. the same letter as the one that appeared 1 letter ago.),v,None,,,,,,,,,0,14,14,14,0,4,4,4,,,,,,,,,,,,,,,,,,,,,,,,,,,,,,,,,,,,,,,,,,,,,,,,,,,,,,,,,,,,,,,,,,,,,1.4192,844.0963335,None,None,1,844.0963335,None,,P024,fencog,1,Post,2022_Feb_18_0923,N-Back (New Version 2021),2021.1.4,119.9649223
,,,,Conditions/Version_1/oneback(4)_v1.xlsx,New rule: Press 'space' when you see 1-back (i.e. the same letter as the one that appeared 1 letter ago.),V,space,,,,,,,,,0,14,14,14,0,5,5,5,,,,,,,,,,,,,,,,,,,,,,,,,,,,,,,,,,,,,,,,,,,,,,,,,,,,,,,,,,,,,,,,,,,,,1.5246,847.628911,None,space,1,847.628911,None,0.6571765,P024,fencog,1,Post,2022_Feb_18_0923,N-Back (New Version 2021),2021.1.4,119.9649223
,,,,Conditions/Version_1/oneback(4)_v1.xlsx,New rule: Press 'space' when you see 1-back (i.e. the same letter as the one that appeared 1 letter ago.),v,space,,,,,,,,,0,14,14,14,0,6,6,6,,,,,,,,,,,,,,,,,,,,,,,,,,,,,,,,,,,,,,,,,,,,,,,,,,,,,,,,,,,,,,,,,,,,,1.7912,851.4263274,None,space,1,851.4263274,None,0.6918088,P024,fencog,1,Post,2022_Feb_18_0923,N-Back (New Version 2021),2021.1.4,119.9649223
,,,,Conditions/Version_1/oneback(4)_v1.xlsx,New rule: Press 'space' when you see 1-back (i.e. the same letter as the one that appeared 1 letter ago.),p,None,,,,,,,,,0,14,14,14,0,7,7,7,,,,,,,,,,,,,,,,,,,,,,,,,,,,,,,,,,,,,,,,,,,,,,,,,,,,,,,,,,,,,,,,,,,,,1.4626,854.8920831,None,None,1,854.8920831,None,,P024,fencog,1,Post,2022_Feb_18_0923,N-Back (New Version 2021),2021.1.4,119.9649223
,,,,Conditions/Version_1/oneback(4)_v1.xlsx,New rule: Press 'space' when you see 1-back (i.e. the same letter as the one that appeared 1 letter ago.),w,None,,,,,,,,,0,14,14,14,0,8,8,8,,,,,,,,,,,,,,,,,,,,,,,,,,,,,,,,,,,,,,,,,,,,,,,,,,,,,,,,,,,,,,,,,,,,,1.5804,858.4772831,None,None,1,858.4772831,None,,P024,fencog,1,Post,2022_Feb_18_0923,N-Back (New Version 2021),2021.1.4,119.9649223
,,,,Conditions/Version_1/oneback(4)_v1.xlsx,New rule: Press 'space' when you see 1-back (i.e. the same letter as the one that appeared 1 letter ago.),W,space,,,,,,,,,0,14,14,14,0,9,9,9,,,,,,,,,,,,,,,,,,,,,,,,,,,,,,,,,,,,,,,,,,,,,,,,,,,,,,,,,,,,,,,,,,,,,1.2084,861.6898791,None,space,1,861.6898791,None,0.4604654,P024,fencog,1,Post,2022_Feb_18_0923,N-Back (New Version 2021),2021.1.4,119.9649223
,,,,Conditions/Version_1/oneback(4)_v1.xlsx,New rule: Press 'space' when you see 1-back (i.e. the same letter as the one that appeared 1 letter ago.),,,,,,,,,,,0,14,14,14,,,,,,,,,,,,,,,,,,,,,,,,,,,,,,,,,,,,,,,,,,,,,,,,,,,,,,,,,,,,,,,,,,,,,,,,,,,,,,,,,P024,fencog,1,Post,2022_Feb_18_0923,N-Back (New Version 2021),2021.1.4,119.9649223
,,,,Conditions/Version_1/threeback(4)_v1.xlsx,New rule: Press 'space' when you see 3-back (i.e. the same letter as the one that appeared 3 letters ago.),A,None,,,,,,,,,0,15,15,15,0,0,0,0,,,,,,,,,,,,,,,,,,,,,,,,,,,,,,,,,,,,,,,,,,,,,,,,,,,,,,,,,,,863.7109721,None,866.6988956,None,space,0.6833409,866.6988956,None,863.7109721,None,1.4254,868.8321944,None,None,1,868.8321944,None,,P024,fencog,1,Post,2022_Feb_18_0923,N-Back (New Version 2021),2021.1.4,119.9649223
,,,,Conditions/Version_1/threeback(4)_v1.xlsx,New rule: Press 'space' when you see 3-back (i.e. the same letter as the one that appeared 3 letters ago.),n,None,,,,,,,,,0,15,15,15,0,1,1,1,,,,,,,,,,,,,,,,,,,,,,,,,,,,,,,,,,,,,,,,,,,,,,,,,,,,,,,,,,,,,,,,,,,,,1.6238,872.4666491,None,None,1,872.4666491,None,,P024,fencog,1,Post,2022_Feb_18_0923,N-Back (New Version 2021),2021.1.4,119.9649223
,,,,Conditions/Version_1/threeback(4)_v1.xlsx,New rule: Press 'space' when you see 3-back (i.e. the same letter as the one that appeared 3 letters ago.),g,None,,,,,,,,,0,15,15,15,0,2,2,2,,,,,,,,,,,,,,,,,,,,,,,,,,,,,,,,,,,,,,,,,,,,,,,,,,,,,,,,,,,,,,,,,,,,,1.7974,876.277955,None,None,1,876.277955,None,,P024,fencog,1,Post,2022_Feb_18_0923,N-Back (New Version 2021),2021.1.4,119.9649223
,,,,Conditions/Version_1/threeback(4)_v1.xlsx,New rule: Press 'space' when you see 3-back (i.e. the same letter as the one that appeared 3 letters ago.),A,space,,,,,,,,,0,15,15,15,0,3,3,3,,,,,,,,,,,,,,,,,,,,,,,,,,,,,,,,,,,,,,,,,,,,,,,,,,,,,,,,,,,,,,,,,,,,,1.537,879.8265698,None,space,1,879.8265698,None,0.8916163,P024,fencog,1,Post,2022_Feb_18_0923,N-Back (New Version 2021),2021.1.4,119.9649223
,,,,Conditions/Version_1/threeback(4)_v1.xlsx,New rule: Press 'space' when you see 3-back (i.e. the same letter as the one that appeared 3 letters ago.),p,None,,,,,,,,,0,15,15,15,0,4,4,4,,,,,,,,,,,,,,,,,,,,,,,,,,,,,,,,,,,,,,,,,,,,,,,,,,,,,,,,,,,,,,,,,,,,,1.0844,882.9188824,None,None,1,882.9188824,None,,P024,fencog,1,Post,2022_Feb_18_0923,N-Back (New Version 2021),2021.1.4,119.9649223
,,,,Conditions/Version_1/threeback(4)_v1.xlsx,New rule: Press 'space' when you see 3-back (i.e. the same letter as the one that appeared 3 letters ago.),O,None,,,,,,,,,0,15,15,15,0,5,5,5,,,,,,,,,,,,,,,,,,,,,,,,,,,,,,,,,,,,,,,,,,,,,,,,,,,,,,,,,,,,,,,,,,,,,1.1278,886.0577149,None,None,1,886.0577149,None,,P024,fencog,1,Post,2022_Feb_18_0923,N-Back (New Version 2021),2021.1.4,119.9649223
,,,,Conditions/Version_1/threeback(4)_v1.xlsx,New rule: Press 'space' when you see 3-back (i.e. the same letter as the one that appeared 3 letters ago.),a,space,,,,,,,,,0,15,15,15,0,6,6,6,,,,,,,,,,,,,,,,,,,,,,,,,,,,,,,,,,,,,,,,,,,,,,,,,,,,,,,,,,,,,,,,,,,,,1.4502,889.5150261,None,None,0,889.5150261,None,,P024,fencog,1,Post,2022_Feb_18_0923,N-Back (New Version 2021),2021.1.4,119.9649223
,,,,Conditions/Version_1/threeback(4)_v1.xlsx,New rule: Press 'space' when you see 3-back (i.e. the same letter as the one that appeared 3 letters ago.),p,space,,,,,,,,,0,15,15,15,0,7,7,7,,,,,,,,,,,,,,,,,,,,,,,,,,,,,,,,,,,,,,,,,,,,,,,,,,,,,,,,,,,,,,,,,,,,,1.878,893.3977373,None,space,1,893.3977373,None,1.2005545,P024,fencog,1,Post,2022_Feb_18_0923,N-Back (New Version 2021),2021.1.4,119.9649223
,,,,Conditions/Version_1/threeback(4)_v1.xlsx,New rule: Press 'space' when you see 3-back (i.e. the same letter as the one that appeared 3 letters ago.),x,None,,,,,,,,,0,15,15,15,0,8,8,8,,,,,,,,,,,,,,,,,,,,,,,,,,,,,,,,,,,,,,,,,,,,,,,,,,,,,,,,,,,,,,,,,,,,,1.4812,896.8899948,None,None,1,896.8899948,None,,P024,fencog,1,Post,2022_Feb_18_0923,N-Back (New Version 2021),2021.1.4,119.9649223
,,,,Conditions/Version_1/threeback(4)_v1.xlsx,New rule: Press 'space' when you see 3-back (i.e. the same letter as the one that appeared 3 letters ago.),X,None,,,,,,,,,0,15,15,15,0,9,9,9,,,,,,,,,,,,,,,,,,,,,,,,,,,,,,,,,,,,,,,,,,,,,,,,,,,,,,,,,,,,,,,,,,,,,1.723,900.6201353,None,None,1,900.6201353,None,,P024,fencog,1,Post,2022_Feb_18_0923,N-Back (New Version 2021),2021.1.4,119.9649223
,,,,Conditions/Version_1/threeback(4)_v1.xlsx,New rule: Press 'space' when you see 3-back (i.e. the same letter as the one that appeared 3 letters ago.),,,,,,,,,,,0,15,15,15,,,,,,,,,,,,,,,,,,,,,,,,,,,,,,,,,,,,,,,,,,,,,,,,,,,,,,,,,,,,,,,,,,,,,,,,,,,,,,,,,P024,fencog,1,Post,2022_Feb_18_0923,N-Back (New Version 2021),2021.1.4,119.9649223
