CondFileP,InstructionsP,LettersDisplayedP,CorrectnessP,CondFile,Instructions,LettersDisplayed,Correctness,practicetrials.thisRepN,practicetrials.thisTrialN,practicetrials.thisN,practicetrials.thisIndex,InnerLoopPractice.thisRepN,InnerLoopPractice.thisTrialN,InnerLoopPractice.thisN,InnerLoopPractice.thisIndex,trials.thisRepN,trials.thisTrialN,trials.thisN,trials.thisIndex,InnerLoop.thisRepN,InnerLoop.thisTrialN,InnerLoop.thisN,InnerLoop.thisIndex,TaskVersionText.started,TaskVersionText.stopped,InstrKey1.keys,InstrKey1.rt,InstrKey1.started,InstrKey1.stopped,text.started,text.stopped,key_resp_4.keys,key_resp_4.rt,key_resp_4.started,key_resp_4.stopped,text_2.started,text_2.stopped,key_resp_3.keys,key_resp_3.rt,key_resp_3.started,key_resp_3.stopped,text_3.started,text_3.stopped,key_resp_2.keys,key_resp_2.rt,key_resp_2.started,key_resp_2.stopped,PractIn1.started,PractIn1.stopped,PractIn2.started,PractIn2.stopped,PractInstructionPass.keys,PractInstructionPass.rt,PractInstructionPass.started,PractInstructionPass.stopped,PractBlock1.started,PractBlock1.stopped,ISIjitterPractice,ISI_Pract_Fixation.started,ISI_Pract_Fixation.stopped,N_backP.started,N_backP.stopped,KeyPractice.keys,KeyPractice.corr,KeyPractice.rt,KeyPractice.started,KeyPractice.stopped,text_4.started,text_4.stopped,TransitionText.started,TransitionText.stopped,key_resp_6.keys,key_resp_6.rt,key_resp_6.started,key_resp_6.stopped,text_5.started,text_5.stopped,key_resp_5.keys,key_resp_5.rt,key_resp_5.started,key_resp_5.stopped,MainInt1.started,MainInt1.stopped,MainInt2.started,MainInt2.stopped,InstructionPass.keys,InstructionPass.rt,InstructionPass.started,InstructionPass.stopped,Blocks1.started,Blocks1.stopped,ISIjitter,N_backD.started,N_backD.stopped,key_resp.keys,key_resp.corr,key_resp.started,key_resp.stopped,key_resp.rt,participant,Study Name,Task Version (required to run),PRE/POST,date,expName,psychopyVersion,frameRate,
,,,,,,,,,,,,,,,,,,,,,,,,30.880510300000424,None,space,2.197160800000347,31.37537119999979,None,,,,,,,,,,,,,,,,,,,,,,,,,,,,,,,,,,,,,,,,,,,,,,,,,,,,,,,,,,,,,,,,,,,,,,,P025,fencog,2,Post,2022_Feb_22_1155,N-Back (New Version 2021),2021.1.4,120.59264047282858,
,,,,,,,,,,,,,,,,,,,,,,,,,,,,,,33.605778799999825,None,space,3.1487486000005447,34.10287349999999,None,,,,,,,,,,,,,,,,,,,,,,,,,,,,,,,,,,,,,,,,,,,,,,,,,,,,,,,,,,,,,,,,,P025,fencog,2,Post,2022_Feb_22_1155,N-Back (New Version 2021),2021.1.4,120.59264047282858,
,,,,,,,,,,,,,,,,,,,,,,,,,,,,,,,,,,,,37.30869960000018,None,space,7.392380299999786,37.799796700000115,None,,,,,,,,,,,,,,,,,,,,,,,,,,,,,,,,,,,,,,,,,,,,,,,,,,,,,,,,,,,P025,fencog,2,Post,2022_Feb_22_1155,N-Back (New Version 2021),2021.1.4,120.59264047282858,
,,,,,,,,,,,,,,,,,,,,,,,,,,,,,,,,,,,,,,,,,,45.22226260000025,None,space,6.463707400000203,45.71317739999995,None,,,,,,,,,,,,,,,,,,,,,,,,,,,,,,,,,,,,,,,,,,,,,,,,,,,,,P025,fencog,2,Post,2022_Feb_22_1155,N-Back (New Version 2021),2021.1.4,120.59264047282858,
Conditions/Version_2Pr/zeroback(1)_v2.xlsx,Rule: Press 'space' when you see the letter 'x' or 'X'.,x,space,,,,,0,0,0,0,0,0,0,0,,,,,,,,,,,,,,,,,,,,,,,,,,,,,,,,,53.54515840000022,None,56.52871779999987,None,space,3.811948399999892,56.52871779999987,None,53.54515840000022,None,1.09,60.36611780000021,None,61.45933539999987,None,space,1,0.5563290999998571,61.45933539999987,None,62.029962600000545,None,,,,,,,,,,,,,,,,,,,,,,,,,,,,,,,P025,fencog,2,Post,2022_Feb_22_1155,N-Back (New Version 2021),2021.1.4,120.59264047282858,
Conditions/Version_2Pr/zeroback(1)_v2.xlsx,Rule: Press 'space' when you see the letter 'x' or 'X'.,R,None,,,,,0,0,0,0,0,1,1,1,,,,,,,,,,,,,,,,,,,,,,,,,,,,,,,,,,,,,,,,,,,1.315,63.53227760000027,None,64.84987600000022,None,None,1,,64.84987600000022,None,66.8525939000001,None,,,,,,,,,,,,,,,,,,,,,,,,,,,,,,,P025,fencog,2,Post,2022_Feb_22_1155,N-Back (New Version 2021),2021.1.4,120.59264047282858,
Conditions/Version_2Pr/zeroback(1)_v2.xlsx,Rule: Press 'space' when you see the letter 'x' or 'X'.,p,None,,,,,0,0,0,0,0,2,2,2,,,,,,,,,,,,,,,,,,,,,,,,,,,,,,,,,,,,,,,,,,,1.49,68.35589700000037,None,69.85739560000002,None,None,1,,69.85739560000002,None,71.85812960000021,None,,,,,,,,,,,,,,,,,,,,,,,,,,,,,,,P025,fencog,2,Post,2022_Feb_22_1155,N-Back (New Version 2021),2021.1.4,120.59264047282858,
Conditions/Version_2Pr/zeroback(1)_v2.xlsx,Rule: Press 'space' when you see the letter 'x' or 'X'.,O,None,,,,,0,0,0,0,0,3,3,3,,,,,,,,,,,,,,,,,,,,,,,,,,,,,,,,,,,,,,,,,,,1.69,73.35436910000044,None,75.04986210000061,None,None,1,,75.04986210000061,None,77.0492906999998,None,,,,,,,,,,,,,,,,,,,,,,,,,,,,,,,P025,fencog,2,Post,2022_Feb_22_1155,N-Back (New Version 2021),2021.1.4,120.59264047282858,
Conditions/Version_2Pr/zeroback(1)_v2.xlsx,Rule: Press 'space' when you see the letter 'x' or 'X'.,i,None,,,,,0,0,0,0,0,4,4,4,,,,,,,,,,,,,,,,,,,,,,,,,,,,,,,,,,,,,,,,,,,1.815,78.55295810000007,None,80.37051940000038,None,None,1,,80.37051940000038,None,82.37679610000032,None,,,,,,,,,,,,,,,,,,,,,,,,,,,,,,,P025,fencog,2,Post,2022_Feb_22_1155,N-Back (New Version 2021),2021.1.4,120.59264047282858,
Conditions/Version_2Pr/zeroback(1)_v2.xlsx,Rule: Press 'space' when you see the letter 'x' or 'X'.,U,None,,,,,0,0,0,0,0,5,5,5,,,,,,,,,,,,,,,,,,,,,,,,,,,,,,,,,,,,,,,,,,,1.865,83.87628380000024,None,85.74495250000018,None,None,1,,85.74495250000018,None,87.74851699999999,None,,,,,,,,,,,,,,,,,,,,,,,,,,,,,,,P025,fencog,2,Post,2022_Feb_22_1155,N-Back (New Version 2021),2021.1.4,120.59264047282858,
Conditions/Version_2Pr/zeroback(1)_v2.xlsx,Rule: Press 'space' when you see the letter 'x' or 'X'.,N,None,,,,,0,0,0,0,0,6,6,6,,,,,,,,,,,,,,,,,,,,,,,,,,,,,,,,,,,,,,,,,,,1.99,89.24961970000004,None,91.24496499999987,None,None,1,,91.24496499999987,None,93.24853820000044,None,,,,,,,,,,,,,,,,,,,,,,,,,,,,,,,P025,fencog,2,Post,2022_Feb_22_1155,N-Back (New Version 2021),2021.1.4,120.59264047282858,
Conditions/Version_2Pr/zeroback(1)_v2.xlsx,Rule: Press 'space' when you see the letter 'x' or 'X'.,m,None,,,,,0,0,0,0,0,7,7,7,,,,,,,,,,,,,,,,,,,,,,,,,,,,,,,,,,,,,,,,,,,1.04,94.74802880000061,None,95.78993679999985,None,None,1,,95.78993679999985,None,97.78890240000055,None,,,,,,,,,,,,,,,,,,,,,,,,,,,,,,,P025,fencog,2,Post,2022_Feb_22_1155,N-Back (New Version 2021),2021.1.4,120.59264047282858,
Conditions/Version_2Pr/zeroback(1)_v2.xlsx,Rule: Press 'space' when you see the letter 'x' or 'X'.,x,space,,,,,0,0,0,0,0,8,8,8,,,,,,,,,,,,,,,,,,,,,,,,,,,,,,,,,,,,,,,,,,,1.715,99.29204370000025,None,101.01336660000015,None,space,1,0.5073271000001114,101.01336660000015,None,101.53100530000029,None,,,,,,,,,,,,,,,,,,,,,,,,,,,,,,,P025,fencog,2,Post,2022_Feb_22_1155,N-Back (New Version 2021),2021.1.4,120.59264047282858,
Conditions/Version_2Pr/zeroback(1)_v2.xlsx,Rule: Press 'space' when you see the letter 'x' or 'X'.,X,space,,,,,0,0,0,0,0,9,9,9,,,,,,,,,,,,,,,,,,,,,,,,,,,,,,,,,,,,,,,,,,,1.415,103.03900630000044,None,104.46091729999989,None,space,1,0.782382499999585,104.46091729999989,None,105.25490150000041,None,,,,,,,,,,,,,,,,,,,,,,,,,,,,,,,P025,fencog,2,Post,2022_Feb_22_1155,N-Back (New Version 2021),2021.1.4,120.59264047282858,
Conditions/Version_2Pr/zeroback(1)_v2.xlsx,Rule: Press 'space' when you see the letter 'x' or 'X'.,,,,,,,0,0,0,0,,,,,,,,,,,,,,,,,,,,,,,,,,,,,,,,,,,,,,,,,,,,,,,,,,,,,,,,,,,,,,,,,,,,,,,,,,,,,,,,,,,,,,,,,P025,fencog,2,Post,2022_Feb_22_1155,N-Back (New Version 2021),2021.1.4,120.59264047282858,
Conditions/Version_2Pr/oneback(1)_v2.xlsx,New rule: Press 'space' when you see 1-back (i.e. the same letter as the one that appeared 1 letter ago.),r,None,,,,,0,1,1,1,0,0,0,0,,,,,,,,,,,,,,,,,,,,,,,,,,,,,,,,,106.79463940000005,None,109.7789087000001,None,space,0.8282810999999128,109.7789087000001,None,106.79463940000005,None,1.265,110.63193070000034,None,111.90329329999986,None,None,1,,111.90329329999986,None,113.91173849999996,None,,,,,,,,,,,,,,,,,,,,,,,,,,,,,,,P025,fencog,2,Post,2022_Feb_22_1155,N-Back (New Version 2021),2021.1.4,120.59264047282858,
Conditions/Version_2Pr/oneback(1)_v2.xlsx,New rule: Press 'space' when you see 1-back (i.e. the same letter as the one that appeared 1 letter ago.),t,None,,,,,0,1,1,1,0,1,1,1,,,,,,,,,,,,,,,,,,,,,,,,,,,,,,,,,,,,,,,,,,,1.065,115.40858600000047,None,116.48534579999978,None,None,1,,116.48534579999978,None,118.48237130000052,None,,,,,,,,,,,,,,,,,,,,,,,,,,,,,,,P025,fencog,2,Post,2022_Feb_22_1155,N-Back (New Version 2021),2021.1.4,120.59264047282858,
Conditions/Version_2Pr/oneback(1)_v2.xlsx,New rule: Press 'space' when you see 1-back (i.e. the same letter as the one that appeared 1 letter ago.),Y,None,,,,,0,1,1,1,0,2,2,2,,,,,,,,,,,,,,,,,,,,,,,,,,,,,,,,,,,,,,,,,,,1.115,119.98226250000062,None,121.10033290000047,None,None,1,,121.10033290000047,None,123.10747790000005,None,,,,,,,,,,,,,,,,,,,,,,,,,,,,,,,P025,fencog,2,Post,2022_Feb_22_1155,N-Back (New Version 2021),2021.1.4,120.59264047282858,
Conditions/Version_2Pr/oneback(1)_v2.xlsx,New rule: Press 'space' when you see 1-back (i.e. the same letter as the one that appeared 1 letter ago.),y,space,,,,,0,1,1,1,0,3,3,3,,,,,,,,,,,,,,,,,,,,,,,,,,,,,,,,,,,,,,,,,,,1.715,124.60583570000017,None,126.32834670000011,None,space,1,0.4681949000005261,126.32834670000011,None,126.80686539999988,None,,,,,,,,,,,,,,,,,,,,,,,,,,,,,,,P025,fencog,2,Post,2022_Feb_22_1155,N-Back (New Version 2021),2021.1.4,120.59264047282858,
Conditions/Version_2Pr/oneback(1)_v2.xlsx,New rule: Press 'space' when you see 1-back (i.e. the same letter as the one that appeared 1 letter ago.),p,None,,,,,0,1,1,1,0,4,4,4,,,,,,,,,,,,,,,,,,,,,,,,,,,,,,,,,,,,,,,,,,,1.89,128.3131712000004,None,130.20524110000042,None,None,1,,130.20524110000042,None,132.20844450000004,None,,,,,,,,,,,,,,,,,,,,,,,,,,,,,,,P025,fencog,2,Post,2022_Feb_22_1155,N-Back (New Version 2021),2021.1.4,120.59264047282858,
Conditions/Version_2Pr/oneback(1)_v2.xlsx,New rule: Press 'space' when you see 1-back (i.e. the same letter as the one that appeared 1 letter ago.),P,space,,,,,0,1,1,1,0,5,5,5,,,,,,,,,,,,,,,,,,,,,,,,,,,,,,,,,,,,,,,,,,,1.84,133.71140449999984,None,135.5558344000001,None,space,1,0.4698108000002321,135.5558344000001,None,136.04558830000042,None,,,,,,,,,,,,,,,,,,,,,,,,,,,,,,,P025,fencog,2,Post,2022_Feb_22_1155,N-Back (New Version 2021),2021.1.4,120.59264047282858,
Conditions/Version_2Pr/oneback(1)_v2.xlsx,New rule: Press 'space' when you see 1-back (i.e. the same letter as the one that appeared 1 letter ago.),e,None,,,,,0,1,1,1,0,6,6,6,,,,,,,,,,,,,,,,,,,,,,,,,,,,,,,,,,,,,,,,,,,1.94,137.55210760000045,None,139.49579320000066,None,None,1,,139.49579320000066,None,141.50111509999988,None,,,,,,,,,,,,,,,,,,,,,,,,,,,,,,,P025,fencog,2,Post,2022_Feb_22_1155,N-Back (New Version 2021),2021.1.4,120.59264047282858,
Conditions/Version_2Pr/oneback(1)_v2.xlsx,New rule: Press 'space' when you see 1-back (i.e. the same letter as the one that appeared 1 letter ago.),r,None,,,,,0,1,1,1,0,7,7,7,,,,,,,,,,,,,,,,,,,,,,,,,,,,,,,,,,,,,,,,,,,1.69,143.00056920000043,None,144.695111,None,None,1,,144.695111,None,146.69937800000025,None,,,,,,,,,,,,,,,,,,,,,,,,,,,,,,,P025,fencog,2,Post,2022_Feb_22_1155,N-Back (New Version 2021),2021.1.4,120.59264047282858,
Conditions/Version_2Pr/oneback(1)_v2.xlsx,New rule: Press 'space' when you see 1-back (i.e. the same letter as the one that appeared 1 letter ago.),R,space,,,,,0,1,1,1,0,8,8,8,,,,,,,,,,,,,,,,,,,,,,,,,,,,,,,,,,,,,,,,,,,1.315,148.1989596000003,None,149.51652190000004,None,space,1,0.4823153999996066,149.51652190000004,None,150.01875740000014,None,,,,,,,,,,,,,,,,,,,,,,,,,,,,,,,P025,fencog,2,Post,2022_Feb_22_1155,N-Back (New Version 2021),2021.1.4,120.59264047282858,
Conditions/Version_2Pr/oneback(1)_v2.xlsx,New rule: Press 'space' when you see 1-back (i.e. the same letter as the one that appeared 1 letter ago.),p,None,,,,,0,1,1,1,0,9,9,9,,,,,,,,,,,,,,,,,,,,,,,,,,,,,,,,,,,,,,,,,,,1.19,151.52300430000014,None,152.71417240000028,None,None,1,,152.71417240000028,None,154.71742690000065,None,,,,,,,,,,,,,,,,,,,,,,,,,,,,,,,P025,fencog,2,Post,2022_Feb_22_1155,N-Back (New Version 2021),2021.1.4,120.59264047282858,
Conditions/Version_2Pr/oneback(1)_v2.xlsx,New rule: Press 'space' when you see 1-back (i.e. the same letter as the one that appeared 1 letter ago.),,,,,,,0,1,1,1,,,,,,,,,,,,,,,,,,,,,,,,,,,,,,,,,,,,,,,,,,,,,,,,,,,,,,,,,,,,,,,,,,,,,,,,,,,,,,,,,,,,,,,,,P025,fencog,2,Post,2022_Feb_22_1155,N-Back (New Version 2021),2021.1.4,120.59264047282858,
Conditions/Version_2Pr/twoback(1)_v2.xlsx,New rule: Press 'space' when you see 2-back (i.e. the same letter as the one that appeared 2 letters ago.),r,None,,,,,0,2,2,2,0,0,0,0,,,,,,,,,,,,,,,,,,,,,,,,,,,,,,,,,156.2540499000006,None,159.2394623,None,space,0.648128199999519,159.2394623,None,156.2540499000006,None,1.79,159.90990229999989,None,161.70427300000028,None,None,1,,161.70427300000028,None,163.71110810000027,None,,,,,,,,,,,,,,,,,,,,,,,,,,,,,,,P025,fencog,2,Post,2022_Feb_22_1155,N-Back (New Version 2021),2021.1.4,120.59264047282858,
Conditions/Version_2Pr/twoback(1)_v2.xlsx,New rule: Press 'space' when you see 2-back (i.e. the same letter as the one that appeared 2 letters ago.),P,None,,,,,0,2,2,2,0,1,1,1,,,,,,,,,,,,,,,,,,,,,,,,,,,,,,,,,,,,,,,,,,,1.54,165.21062390000043,None,166.75338980000015,None,None,1,,166.75338980000015,None,168.75943760000064,None,,,,,,,,,,,,,,,,,,,,,,,,,,,,,,,P025,fencog,2,Post,2022_Feb_22_1155,N-Back (New Version 2021),2021.1.4,120.59264047282858,
Conditions/Version_2Pr/twoback(1)_v2.xlsx,New rule: Press 'space' when you see 2-back (i.e. the same letter as the one that appeared 2 letters ago.),o,None,,,,,0,2,2,2,0,2,2,2,,,,,,,,,,,,,,,,,,,,,,,,,,,,,,,,,,,,,,,,,,,1.29,170.25917420000042,None,171.55237529999977,None,None,1,,171.55237529999977,None,173.5579862000004,None,,,,,,,,,,,,,,,,,,,,,,,,,,,,,,,P025,fencog,2,Post,2022_Feb_22_1155,N-Back (New Version 2021),2021.1.4,120.59264047282858,
Conditions/Version_2Pr/twoback(1)_v2.xlsx,New rule: Press 'space' when you see 2-back (i.e. the same letter as the one that appeared 2 letters ago.),p,space,,,,,0,2,2,2,0,3,3,3,,,,,,,,,,,,,,,,,,,,,,,,,,,,,,,,,,,,,,,,,,,1.39,175.05782390000059,None,176.44934730000023,None,space,1,0.4249783999994179,176.44934730000023,None,176.8832798000003,None,,,,,,,,,,,,,,,,,,,,,,,,,,,,,,,P025,fencog,2,Post,2022_Feb_22_1155,N-Back (New Version 2021),2021.1.4,120.59264047282858,
Conditions/Version_2Pr/twoback(1)_v2.xlsx,New rule: Press 'space' when you see 2-back (i.e. the same letter as the one that appeared 2 letters ago.),Y,None,,,,,0,2,2,2,0,4,4,4,,,,,,,,,,,,,,,,,,,,,,,,,,,,,,,,,,,,,,,,,,,1.415,178.38980549999997,None,179.80693810000048,None,None,1,,179.80693810000048,None,181.81758979999995,None,,,,,,,,,,,,,,,,,,,,,,,,,,,,,,,P025,fencog,2,Post,2022_Feb_22_1155,N-Back (New Version 2021),2021.1.4,120.59264047282858,
Conditions/Version_2Pr/twoback(1)_v2.xlsx,New rule: Press 'space' when you see 2-back (i.e. the same letter as the one that appeared 2 letters ago.),q,None,,,,,0,2,2,2,0,5,5,5,,,,,,,,,,,,,,,,,,,,,,,,,,,,,,,,,,,,,,,,,,,2.015,183.31363650000003,None,185.33141090000026,None,None,1,,185.33141090000026,None,187.3347432999999,None,,,,,,,,,,,,,,,,,,,,,,,,,,,,,,,P025,fencog,2,Post,2022_Feb_22_1155,N-Back (New Version 2021),2021.1.4,120.59264047282858,
Conditions/Version_2Pr/twoback(1)_v2.xlsx,New rule: Press 'space' when you see 2-back (i.e. the same letter as the one that appeared 2 letters ago.),m,None,,,,,0,2,2,2,0,6,6,6,,,,,,,,,,,,,,,,,,,,,,,,,,,,,,,,,,,,,,,,,,,1.565,188.8370347,None,190.40544039999986,None,None,1,,190.40544039999986,None,192.41077050000058,None,,,,,,,,,,,,,,,,,,,,,,,,,,,,,,,P025,fencog,2,Post,2022_Feb_22_1155,N-Back (New Version 2021),2021.1.4,120.59264047282858,
Conditions/Version_2Pr/twoback(1)_v2.xlsx,New rule: Press 'space' when you see 2-back (i.e. the same letter as the one that appeared 2 letters ago.),Q,space,,,,,0,2,2,2,0,7,7,7,,,,,,,,,,,,,,,,,,,,,,,,,,,,,,,,,,,,,,,,,,,1.09,193.91197460000058,None,195.0026800000005,None,space,1,0.6517379999995683,195.0026800000005,None,195.6696361000004,None,,,,,,,,,,,,,,,,,,,,,,,,,,,,,,,P025,fencog,2,Post,2022_Feb_22_1155,N-Back (New Version 2021),2021.1.4,120.59264047282858,
Conditions/Version_2Pr/twoback(1)_v2.xlsx,New rule: Press 'space' when you see 2-back (i.e. the same letter as the one that appeared 2 letters ago.),L,None,,,,,0,2,2,2,0,8,8,8,,,,,,,,,,,,,,,,,,,,,,,,,,,,,,,,,,,,,,,,,,,1.44,197.1761587000001,None,198.61900109999988,None,None,1,,198.61900109999988,None,200.6251610999998,None,,,,,,,,,,,,,,,,,,,,,,,,,,,,,,,P025,fencog,2,Post,2022_Feb_22_1155,N-Back (New Version 2021),2021.1.4,120.59264047282858,
Conditions/Version_2Pr/twoback(1)_v2.xlsx,New rule: Press 'space' when you see 2-back (i.e. the same letter as the one that appeared 2 letters ago.),q,space,,,,,0,2,2,2,0,9,9,9,,,,,,,,,,,,,,,,,,,,,,,,,,,,,,,,,,,,,,,,,,,1.715,202.12474810000003,None,203.84186279999994,None,space,1,1.058410300000105,203.84186279999994,None,204.9169407999998,None,,,,,,,,,,,,,,,,,,,,,,,,,,,,,,,P025,fencog,2,Post,2022_Feb_22_1155,N-Back (New Version 2021),2021.1.4,120.59264047282858,
Conditions/Version_2Pr/twoback(1)_v2.xlsx,New rule: Press 'space' when you see 2-back (i.e. the same letter as the one that appeared 2 letters ago.),,,,,,,0,2,2,2,,,,,,,,,,,,,,,,,,,,,,,,,,,,,,,,,,,,,,,,,,,,,,,,,,,,,,,,,,,,,,,,,,,,,,,,,,,,,,,,,,,,,,,,,P025,fencog,2,Post,2022_Feb_22_1155,N-Back (New Version 2021),2021.1.4,120.59264047282858,
Conditions/Version_2Pr/threeback(1)_v2.xlsx,New rule: Press 'space' when you see 3-back (i.e. the same letter as the one that appeared 3 letters ago.),u,None,,,,,0,3,3,3,0,0,0,0,,,,,,,,,,,,,,,,,,,,,,,,,,,,,,,,,206.44429560000026,None,209.4338115999999,None,space,1.0137586999999257,209.4338115999999,None,206.44429560000026,None,1.115,210.47278189999997,None,211.59108379999998,None,None,1,,211.59108379999998,None,213.5963253,None,,,,,,,,,,,,,,,,,,,,,,,,,,,,,,,P025,fencog,2,Post,2022_Feb_22_1155,N-Back (New Version 2021),2021.1.4,120.59264047282858,
Conditions/Version_2Pr/threeback(1)_v2.xlsx,New rule: Press 'space' when you see 3-back (i.e. the same letter as the one that appeared 3 letters ago.),U,None,,,,,0,3,3,3,0,1,1,1,,,,,,,,,,,,,,,,,,,,,,,,,,,,,,,,,,,,,,,,,,,1.04,215.0959229,None,216.1390363999999,None,None,1,,216.1390363999999,None,218.14501240000027,None,,,,,,,,,,,,,,,,,,,,,,,,,,,,,,,P025,fencog,2,Post,2022_Feb_22_1155,N-Back (New Version 2021),2021.1.4,120.59264047282858,
Conditions/Version_2Pr/threeback(1)_v2.xlsx,New rule: Press 'space' when you see 3-back (i.e. the same letter as the one that appeared 3 letters ago.),p,None,,,,,0,3,3,3,0,2,2,2,,,,,,,,,,,,,,,,,,,,,,,,,,,,,,,,,,,,,,,,,,,1.215,219.64456450000034,None,220.86188140000013,None,None,1,,220.86188140000013,None,222.8635748000006,None,,,,,,,,,,,,,,,,,,,,,,,,,,,,,,,P025,fencog,2,Post,2022_Feb_22_1155,N-Back (New Version 2021),2021.1.4,120.59264047282858,
Conditions/Version_2Pr/threeback(1)_v2.xlsx,New rule: Press 'space' when you see 3-back (i.e. the same letter as the one that appeared 3 letters ago.),U,space,,,,,0,3,3,3,0,3,3,3,,,,,,,,,,,,,,,,,,,,,,,,,,,,,,,,,,,,,,,,,,,1.965,224.3680492000003,None,226.33510240000032,None,space,1,0.5546309000001202,226.33510240000032,None,226.9016945000003,None,,,,,,,,,,,,,,,,,,,,,,,,,,,,,,,P025,fencog,2,Post,2022_Feb_22_1155,N-Back (New Version 2021),2021.1.4,120.59264047282858,
Conditions/Version_2Pr/threeback(1)_v2.xlsx,New rule: Press 'space' when you see 3-back (i.e. the same letter as the one that appeared 3 letters ago.),e,None,,,,,0,3,3,3,0,4,4,4,,,,,,,,,,,,,,,,,,,,,,,,,,,,,,,,,,,,,,,,,,,1.665,228.40843959999984,None,230.07464720000007,None,space,0,0.6995882000001075,230.07464720000007,None,230.78988860000027,None,,,,,,,,,,,,,,,,,,,,,,,,,,,,,,,P025,fencog,2,Post,2022_Feb_22_1155,N-Back (New Version 2021),2021.1.4,120.59264047282858,
Conditions/Version_2Pr/threeback(1)_v2.xlsx,New rule: Press 'space' when you see 3-back (i.e. the same letter as the one that appeared 3 letters ago.),R,None,,,,,0,3,3,3,0,5,5,5,,,,,,,,,,,,,,,,,,,,,,,,,,,,,,,,,,,,,,,,,,,1.44,232.29215340000064,None,233.7327817000005,None,space,0,1.2203413999995973,233.7327817000005,None,234.9648876000001,None,,,,,,,,,,,,,,,,,,,,,,,,,,,,,,,P025,fencog,2,Post,2022_Feb_22_1155,N-Back (New Version 2021),2021.1.4,120.59264047282858,
Conditions/Version_2Pr/threeback(1)_v2.xlsx,New rule: Press 'space' when you see 3-back (i.e. the same letter as the one that appeared 3 letters ago.),p,None,,,,,0,3,3,3,0,6,6,6,,,,,,,,,,,,,,,,,,,,,,,,,,,,,,,,,,,,,,,,,,,1.79,236.46468340000047,None,238.25659570000062,None,space,0,0.9940916000005018,238.25659570000062,None,239.26434570000038,None,,,,,,,,,,,,,,,,,,,,,,,,,,,,,,,P025,fencog,2,Post,2022_Feb_22_1155,N-Back (New Version 2021),2021.1.4,120.59264047282858,
Conditions/Version_2Pr/threeback(1)_v2.xlsx,New rule: Press 'space' when you see 3-back (i.e. the same letter as the one that appeared 3 letters ago.),E,space,,,,,0,3,3,3,0,7,7,7,,,,,,,,,,,,,,,,,,,,,,,,,,,,,,,,,,,,,,,,,,,1.315,240.76696739999988,None,242.0883775000002,None,None,0,,242.0883775000002,None,244.09436090000054,None,,,,,,,,,,,,,,,,,,,,,,,,,,,,,,,P025,fencog,2,Post,2022_Feb_22_1155,N-Back (New Version 2021),2021.1.4,120.59264047282858,
Conditions/Version_2Pr/threeback(1)_v2.xlsx,New rule: Press 'space' when you see 3-back (i.e. the same letter as the one that appeared 3 letters ago.),k,None,,,,,0,3,3,3,0,8,8,8,,,,,,,,,,,,,,,,,,,,,,,,,,,,,,,,,,,,,,,,,,,1.09,245.59521469999981,None,246.6881389,None,None,1,,246.6881389,None,248.69402910000008,None,,,,,,,,,,,,,,,,,,,,,,,,,,,,,,,P025,fencog,2,Post,2022_Feb_22_1155,N-Back (New Version 2021),2021.1.4,120.59264047282858,
Conditions/Version_2Pr/threeback(1)_v2.xlsx,New rule: Press 'space' when you see 3-back (i.e. the same letter as the one that appeared 3 letters ago.),m,None,,,,,0,3,3,3,0,9,9,9,,,,,,,,,,,,,,,,,,,,,,,,,,,,,,,,,,,,,,,,,,,1.89,250.1939186999998,None,252.09219620000022,None,space,0,1.189107199999853,252.09219620000022,None,253.30168740000045,None,,,,,,,,,,,,,,,,,,,,,,,,,,,,,,,P025,fencog,2,Post,2022_Feb_22_1155,N-Back (New Version 2021),2021.1.4,120.59264047282858,
Conditions/Version_2Pr/threeback(1)_v2.xlsx,New rule: Press 'space' when you see 3-back (i.e. the same letter as the one that appeared 3 letters ago.),,,,,,,0,3,3,3,,,,,,,,,,,,,,,,,,,,,,,,,,,,,,,,,,,,,,,,,,,,,,,,,,,,,,,,,,,,,,,,,,,,,,,,,,,,,,,,,,,,,,,,,P025,fencog,2,Post,2022_Feb_22_1155,N-Back (New Version 2021),2021.1.4,120.59264047282858,
,,,,,,,,,,,,,,,,,,,,,,,,,,,,,,,,,,,,,,,,,,,,,,,,,,,,,,,,,,,,,,,,,,,,,,254.83210400000007,None,space,1.4395761000005223,255.32593799999995,None,,,,,,,,,,,,,,,,,,,,,,,,,P025,fencog,2,Post,2022_Feb_22_1155,N-Back (New Version 2021),2021.1.4,120.59264047282858,
,,,,,,,,,,,,,,,,,,,,,,,,,,,,,,,,,,,,,,,,,,,,,,,,,,,,,,,,,,,,,,,,,,,,,,,,,,,,256.78986950000035,None,space,0.9643116999995982,257.28403660000004,None,,,,,,,,,,,,,,,,,,,P025,fencog,2,Post,2022_Feb_22_1155,N-Back (New Version 2021),2021.1.4,120.59264047282858,
,,,,Conditions/Version_1/zeroback(1)_v1.xlsx,Rule: Press 'space' when you see the letter 'x' or 'X'.,b,None,,,,,,,,,0,0,0,0,0,0,0,0,,,,,,,,,,,,,,,,,,,,,,,,,,,,,,,,,,,,,,,,,,,,,,,,,,,,,,,,,,,258.3544460000003,None,261.3431743000001,None,space,5.4892055000000255,261.3431743000001,None,258.3544460000003,None,1.2828,268.1476751,None,None,1,268.1476751,None,,P025,fencog,2,Post,2022_Feb_22_1155,N-Back (New Version 2021),2021.1.4,120.59264047282858,
,,,,Conditions/Version_1/zeroback(1)_v1.xlsx,Rule: Press 'space' when you see the letter 'x' or 'X'.,T,None,,,,,,,,,0,0,0,0,0,1,1,1,,,,,,,,,,,,,,,,,,,,,,,,,,,,,,,,,,,,,,,,,,,,,,,,,,,,,,,,,,,,,,,,,,,,,1.4316,271.58837420000054,None,None,1,271.58837420000054,None,,P025,fencog,2,Post,2022_Feb_22_1155,N-Back (New Version 2021),2021.1.4,120.59264047282858,
,,,,Conditions/Version_1/zeroback(1)_v1.xlsx,Rule: Press 'space' when you see the letter 'x' or 'X'.,L,None,,,,,,,,,0,0,0,0,0,2,2,2,,,,,,,,,,,,,,,,,,,,,,,,,,,,,,,,,,,,,,,,,,,,,,,,,,,,,,,,,,,,,,,,,,,,,1.785,275.38626550000026,None,None,1,275.38626550000026,None,,P025,fencog,2,Post,2022_Feb_22_1155,N-Back (New Version 2021),2021.1.4,120.59264047282858,
,,,,Conditions/Version_1/zeroback(1)_v1.xlsx,Rule: Press 'space' when you see the letter 'x' or 'X'.,x,space,,,,,,,,,0,0,0,0,0,3,3,3,,,,,,,,,,,,,,,,,,,,,,,,,,,,,,,,,,,,,,,,,,,,,,,,,,,,,,,,,,,,,,,,,,,,,1.723,279.11160950000067,None,space,1,279.11160950000067,None,0.5207296999997197,P025,fencog,2,Post,2022_Feb_22_1155,N-Back (New Version 2021),2021.1.4,120.59264047282858,
,,,,Conditions/Version_1/zeroback(1)_v1.xlsx,Rule: Press 'space' when you see the letter 'x' or 'X'.,o,None,,,,,,,,,0,0,0,0,0,4,4,4,,,,,,,,,,,,,,,,,,,,,,,,,,,,,,,,,,,,,,,,,,,,,,,,,,,,,,,,,,,,,,,,,,,,,1.94,283.0589484000002,None,None,1,283.0589484000002,None,,P025,fencog,2,Post,2022_Feb_22_1155,N-Back (New Version 2021),2021.1.4,120.59264047282858,
,,,,Conditions/Version_1/zeroback(1)_v1.xlsx,Rule: Press 'space' when you see the letter 'x' or 'X'.,P,None,,,,,,,,,0,0,0,0,0,5,5,5,,,,,,,,,,,,,,,,,,,,,,,,,,,,,,,,,,,,,,,,,,,,,,,,,,,,,,,,,,,,,,,,,,,,,1.351,286.4163500000004,None,None,1,286.4163500000004,None,,P025,fencog,2,Post,2022_Feb_22_1155,N-Back (New Version 2021),2021.1.4,120.59264047282858,
,,,,Conditions/Version_1/zeroback(1)_v1.xlsx,Rule: Press 'space' when you see the letter 'x' or 'X'.,X,space,,,,,,,,,0,0,0,0,0,6,6,6,,,,,,,,,,,,,,,,,,,,,,,,,,,,,,,,,,,,,,,,,,,,,,,,,,,,,,,,,,,,,,,,,,,,,1.3448,289.7680443999998,None,space,1,289.7680443999998,None,0.5152646999995341,P025,fencog,2,Post,2022_Feb_22_1155,N-Back (New Version 2021),2021.1.4,120.59264047282858,
,,,,Conditions/Version_1/zeroback(1)_v1.xlsx,Rule: Press 'space' when you see the letter 'x' or 'X'.,n,None,,,,,,,,,0,0,0,0,0,7,7,7,,,,,,,,,,,,,,,,,,,,,,,,,,,,,,,,,,,,,,,,,,,,,,,,,,,,,,,,,,,,,,,,,,,,,1.5742,293.3482862000001,None,None,1,293.3482862000001,None,,P025,fencog,2,Post,2022_Feb_22_1155,N-Back (New Version 2021),2021.1.4,120.59264047282858,
,,,,Conditions/Version_1/zeroback(1)_v1.xlsx,Rule: Press 'space' when you see the letter 'x' or 'X'.,M,None,,,,,,,,,0,0,0,0,0,8,8,8,,,,,,,,,,,,,,,,,,,,,,,,,,,,,,,,,,,,,,,,,,,,,,,,,,,,,,,,,,,,,,,,,,,,,1.537,296.8894086999999,None,None,1,296.8894086999999,None,,P025,fencog,2,Post,2022_Feb_22_1155,N-Back (New Version 2021),2021.1.4,120.59264047282858,
,,,,Conditions/Version_1/zeroback(1)_v1.xlsx,Rule: Press 'space' when you see the letter 'x' or 'X'.,a,None,,,,,,,,,0,0,0,0,0,9,9,9,,,,,,,,,,,,,,,,,,,,,,,,,,,,,,,,,,,,,,,,,,,,,,,,,,,,,,,,,,,,,,,,,,,,,1.7602,300.66486710000027,None,None,1,300.66486710000027,None,,P025,fencog,2,Post,2022_Feb_22_1155,N-Back (New Version 2021),2021.1.4,120.59264047282858,
,,,,Conditions/Version_1/zeroback(1)_v1.xlsx,Rule: Press 'space' when you see the letter 'x' or 'X'.,,,,,,,,,,,0,0,0,0,,,,,,,,,,,,,,,,,,,,,,,,,,,,,,,,,,,,,,,,,,,,,,,,,,,,,,,,,,,,,,,,,,,,,,,,,,,,,,,,,P025,fencog,2,Post,2022_Feb_22_1155,N-Back (New Version 2021),2021.1.4,120.59264047282858,
,,,,Conditions/Version_1/oneback(1)_v1.xlsx,New rule: Press 'space' when you see 1-back (i.e. the same letter as the one that appeared 1 letter ago.),b,None,,,,,,,,,0,1,1,1,0,0,0,0,,,,,,,,,,,,,,,,,,,,,,,,,,,,,,,,,,,,,,,,,,,,,,,,,,,,,,,,,,,302.69204100000024,None,305.6793959000006,None,space,0.02532870000050025,305.6793959000006,None,302.69204100000024,None,1.3882,307.11868140000024,None,None,1,307.11868140000024,None,,P025,fencog,2,Post,2022_Feb_22_1155,N-Back (New Version 2021),2021.1.4,120.59264047282858,
,,,,Conditions/Version_1/oneback(1)_v1.xlsx,New rule: Press 'space' when you see 1-back (i.e. the same letter as the one that appeared 1 letter ago.),p,None,,,,,,,,,0,1,1,1,0,1,1,1,,,,,,,,,,,,,,,,,,,,,,,,,,,,,,,,,,,,,,,,,,,,,,,,,,,,,,,,,,,,,,,,,,,,,1.0224,310.1426935999998,None,None,1,310.1426935999998,None,,P025,fencog,2,Post,2022_Feb_22_1155,N-Back (New Version 2021),2021.1.4,120.59264047282858,
,,,,Conditions/Version_1/oneback(1)_v1.xlsx,New rule: Press 'space' when you see 1-back (i.e. the same letter as the one that appeared 1 letter ago.),M,None,,,,,,,,,0,1,1,1,0,2,2,2,,,,,,,,,,,,,,,,,,,,,,,,,,,,,,,,,,,,,,,,,,,,,,,,,,,,,,,,,,,,,,,,,,,,,1.289,313.43982289999985,None,None,1,313.43982289999985,None,,P025,fencog,2,Post,2022_Feb_22_1155,N-Back (New Version 2021),2021.1.4,120.59264047282858,
,,,,Conditions/Version_1/oneback(1)_v1.xlsx,New rule: Press 'space' when you see 1-back (i.e. the same letter as the one that appeared 1 letter ago.),M,space,,,,,,,,,0,1,1,1,0,3,3,3,,,,,,,,,,,,,,,,,,,,,,,,,,,,,,,,,,,,,,,,,,,,,,,,,,,,,,,,,,,,,,,,,,,,,1.2952,316.7408075000003,None,space,1,316.7408075000003,None,0.5042756000002555,P025,fencog,2,Post,2022_Feb_22_1155,N-Back (New Version 2021),2021.1.4,120.59264047282858,
,,,,Conditions/Version_1/oneback(1)_v1.xlsx,New rule: Press 'space' when you see 1-back (i.e. the same letter as the one that appeared 1 letter ago.),n,None,,,,,,,,,0,1,1,1,0,4,4,4,,,,,,,,,,,,,,,,,,,,,,,,,,,,,,,,,,,,,,,,,,,,,,,,,,,,,,,,,,,,,,,,,,,,,1.3758,320.12753539999994,None,None,1,320.12753539999994,None,,P025,fencog,2,Post,2022_Feb_22_1155,N-Back (New Version 2021),2021.1.4,120.59264047282858,
,,,,Conditions/Version_1/oneback(1)_v1.xlsx,New rule: Press 'space' when you see 1-back (i.e. the same letter as the one that appeared 1 letter ago.),g,None,,,,,,,,,0,1,1,1,0,5,5,5,,,,,,,,,,,,,,,,,,,,,,,,,,,,,,,,,,,,,,,,,,,,,,,,,,,,,,,,,,,,,,,,,,,,,1.692,323.82368600000063,None,None,1,323.82368600000063,None,,P025,fencog,2,Post,2022_Feb_22_1155,N-Back (New Version 2021),2021.1.4,120.59264047282858,
,,,,Conditions/Version_1/oneback(1)_v1.xlsx,New rule: Press 'space' when you see 1-back (i.e. the same letter as the one that appeared 1 letter ago.),P,None,,,,,,,,,0,1,1,1,0,6,6,6,,,,,,,,,,,,,,,,,,,,,,,,,,,,,,,,,,,,,,,,,,,,,,,,,,,,,,,,,,,,,,,,,,,,,1.1836,327.0133209000005,None,None,1,327.0133209000005,None,,P025,fencog,2,Post,2022_Feb_22_1155,N-Back (New Version 2021),2021.1.4,120.59264047282858,
,,,,Conditions/Version_1/oneback(1)_v1.xlsx,New rule: Press 'space' when you see 1-back (i.e. the same letter as the one that appeared 1 letter ago.),o,None,,,,,,,,,0,1,1,1,0,7,7,7,,,,,,,,,,,,,,,,,,,,,,,,,,,,,,,,,,,,,,,,,,,,,,,,,,,,,,,,,,,,,,,,,,,,,1.5556,330.5699817000004,None,None,1,330.5699817000004,None,,P025,fencog,2,Post,2022_Feb_22_1155,N-Back (New Version 2021),2021.1.4,120.59264047282858,
,,,,Conditions/Version_1/oneback(1)_v1.xlsx,New rule: Press 'space' when you see 1-back (i.e. the same letter as the one that appeared 1 letter ago.),f,None,,,,,,,,,0,1,1,1,0,8,8,8,,,,,,,,,,,,,,,,,,,,,,,,,,,,,,,,,,,,,,,,,,,,,,,,,,,,,,,,,,,,,,,,,,,,,1.4502,334.0199198999999,None,None,1,334.0199198999999,None,,P025,fencog,2,Post,2022_Feb_22_1155,N-Back (New Version 2021),2021.1.4,120.59264047282858,
,,,,Conditions/Version_1/oneback(1)_v1.xlsx,New rule: Press 'space' when you see 1-back (i.e. the same letter as the one that appeared 1 letter ago.),F,space,,,,,,,,,0,1,1,1,0,9,9,9,,,,,,,,,,,,,,,,,,,,,,,,,,,,,,,,,,,,,,,,,,,,,,,,,,,,,,,,,,,,,,,,,,,,,1.3324,337.3623370000005,None,space,1,337.3623370000005,None,0.5658347999997204,P025,fencog,2,Post,2022_Feb_22_1155,N-Back (New Version 2021),2021.1.4,120.59264047282858,
,,,,Conditions/Version_1/oneback(1)_v1.xlsx,New rule: Press 'space' when you see 1-back (i.e. the same letter as the one that appeared 1 letter ago.),,,,,,,,,,,0,1,1,1,,,,,,,,,,,,,,,,,,,,,,,,,,,,,,,,,,,,,,,,,,,,,,,,,,,,,,,,,,,,,,,,,,,,,,,,,,,,,,,,,P025,fencog,2,Post,2022_Feb_22_1155,N-Back (New Version 2021),2021.1.4,120.59264047282858,
,,,,Conditions/Version_1/twoback(1)_v1.xlsx,New rule: Press 'space' when you see 2-back (i.e. the same letter as the one that appeared 2 letters ago.),b,None,,,,,,,,,0,2,2,2,0,0,0,0,,,,,,,,,,,,,,,,,,,,,,,,,,,,,,,,,,,,,,,,,,,,,,,,,,,,,,,,,,,339.3866347000003,None,342.3685740000001,None,space,0.7967989000007947,342.3685740000001,None,339.3866347000003,None,1.0906,344.29056149999997,None,None,1,344.29056149999997,None,,P025,fencog,2,Post,2022_Feb_22_1155,N-Back (New Version 2021),2021.1.4,120.59264047282858,
,,,,Conditions/Version_1/twoback(1)_v1.xlsx,New rule: Press 'space' when you see 2-back (i.e. the same letter as the one that appeared 2 letters ago.),h,None,,,,,,,,,0,2,2,2,0,1,1,1,,,,,,,,,,,,,,,,,,,,,,,,,,,,,,,,,,,,,,,,,,,,,,,,,,,,,,,,,,,,,,,,,,,,,1.5866,347.8820144000001,None,None,1,347.8820144000001,None,,P025,fencog,2,Post,2022_Feb_22_1155,N-Back (New Version 2021),2021.1.4,120.59264047282858,
,,,,Conditions/Version_1/twoback(1)_v1.xlsx,New rule: Press 'space' when you see 2-back (i.e. the same letter as the one that appeared 2 letters ago.),j,None,,,,,,,,,0,2,2,2,0,2,2,2,,,,,,,,,,,,,,,,,,,,,,,,,,,,,,,,,,,,,,,,,,,,,,,,,,,,,,,,,,,,,,,,,,,,,1.6982,351.5918515000003,None,None,1,351.5918515000003,None,,P025,fencog,2,Post,2022_Feb_22_1155,N-Back (New Version 2021),2021.1.4,120.59264047282858,
,,,,Conditions/Version_1/twoback(1)_v1.xlsx,New rule: Press 'space' when you see 2-back (i.e. the same letter as the one that appeared 2 letters ago.),H,space,,,,,,,,,0,2,2,2,0,3,3,3,,,,,,,,,,,,,,,,,,,,,,,,,,,,,,,,,,,,,,,,,,,,,,,,,,,,,,,,,,,,,,,,,,,,,1.2828,354.87385489999997,None,space,1,354.87385489999997,None,0.676770299999589,P025,fencog,2,Post,2022_Feb_22_1155,N-Back (New Version 2021),2021.1.4,120.59264047282858,
,,,,Conditions/Version_1/twoback(1)_v1.xlsx,New rule: Press 'space' when you see 2-back (i.e. the same letter as the one that appeared 2 letters ago.),p,None,,,,,,,,,0,2,2,2,0,4,4,4,,,,,,,,,,,,,,,,,,,,,,,,,,,,,,,,,,,,,,,,,,,,,,,,,,,,,,,,,,,,,,,,,,,,,1.0596,357.94795969999996,None,None,1,357.94795969999996,None,,P025,fencog,2,Post,2022_Feb_22_1155,N-Back (New Version 2021),2021.1.4,120.59264047282858,
,,,,Conditions/Version_1/twoback(1)_v1.xlsx,New rule: Press 'space' when you see 2-back (i.e. the same letter as the one that appeared 2 letters ago.),p,None,,,,,,,,,0,2,2,2,0,5,5,5,,,,,,,,,,,,,,,,,,,,,,,,,,,,,,,,,,,,,,,,,,,,,,,,,,,,,,,,,,,,,,,,,,,,,1.5432,361.5027200000004,None,space,0,361.5027200000004,None,1.9657405999996627,P025,fencog,2,Post,2022_Feb_22_1155,N-Back (New Version 2021),2021.1.4,120.59264047282858,
,,,,Conditions/Version_1/twoback(1)_v1.xlsx,New rule: Press 'space' when you see 2-back (i.e. the same letter as the one that appeared 2 letters ago.),w,None,,,,,,,,,0,2,2,2,0,6,6,6,,,,,,,,,,,,,,,,,,,,,,,,,,,,,,,,,,,,,,,,,,,,,,,,,,,,,,,,,,,,,,,,,,,,,1.0348,364.5449325999998,None,None,1,364.5449325999998,None,,P025,fencog,2,Post,2022_Feb_22_1155,N-Back (New Version 2021),2021.1.4,120.59264047282858,
,,,,Conditions/Version_1/twoback(1)_v1.xlsx,New rule: Press 'space' when you see 2-back (i.e. the same letter as the one that appeared 2 letters ago.),R,None,,,,,,,,,0,2,2,2,0,7,7,7,,,,,,,,,,,,,,,,,,,,,,,,,,,,,,,,,,,,,,,,,,,,,,,,,,,,,,,,,,,,,,,,,,,,,1.5184,368.0755823999998,None,None,1,368.0755823999998,None,,P025,fencog,2,Post,2022_Feb_22_1155,N-Back (New Version 2021),2021.1.4,120.59264047282858,
,,,,Conditions/Version_1/twoback(1)_v1.xlsx,New rule: Press 'space' when you see 2-back (i.e. the same letter as the one that appeared 2 letters ago.),a,None,,,,,,,,,0,2,2,2,0,8,8,8,,,,,,,,,,,,,,,,,,,,,,,,,,,,,,,,,,,,,,,,,,,,,,,,,,,,,,,,,,,,,,,,,,,,,1.9338,372.0134361999999,None,None,1,372.0134361999999,None,,P025,fencog,2,Post,2022_Feb_22_1155,N-Back (New Version 2021),2021.1.4,120.59264047282858,
,,,,Conditions/Version_1/twoback(1)_v1.xlsx,New rule: Press 'space' when you see 2-back (i.e. the same letter as the one that appeared 2 letters ago.),r,space,,,,,,,,,0,2,2,2,0,9,9,9,,,,,,,,,,,,,,,,,,,,,,,,,,,,,,,,,,,,,,,,,,,,,,,,,,,,,,,,,,,,,,,,,,,,,1.2456,375.26508300000023,None,space,1,375.26508300000023,None,0.7661134999998467,P025,fencog,2,Post,2022_Feb_22_1155,N-Back (New Version 2021),2021.1.4,120.59264047282858,
,,,,Conditions/Version_1/twoback(1)_v1.xlsx,New rule: Press 'space' when you see 2-back (i.e. the same letter as the one that appeared 2 letters ago.),,,,,,,,,,,0,2,2,2,,,,,,,,,,,,,,,,,,,,,,,,,,,,,,,,,,,,,,,,,,,,,,,,,,,,,,,,,,,,,,,,,,,,,,,,,,,,,,,,,P025,fencog,2,Post,2022_Feb_22_1155,N-Back (New Version 2021),2021.1.4,120.59264047282858,
,,,,Conditions/Version_1/threeback(1)_v1.xlsx,New rule: Press 'space' when you see 3-back (i.e. the same letter as the one that appeared 3 letters ago.),r,None,,,,,,,,,0,3,3,3,0,0,0,0,,,,,,,,,,,,,,,,,,,,,,,,,,,,,,,,,,,,,,,,,,,,,,,,,,,,,,,,,,,377.28879959999995,None,380.27022790000046,None,space,0.07765620000009221,380.27022790000046,None,377.28879959999995,None,1.4626,381.8549324000005,None,None,1,381.8549324000005,None,,P025,fencog,2,Post,2022_Feb_22_1155,N-Back (New Version 2021),2021.1.4,120.59264047282858,
,,,,Conditions/Version_1/threeback(1)_v1.xlsx,New rule: Press 'space' when you see 3-back (i.e. the same letter as the one that appeared 3 letters ago.),o,None,,,,,,,,,0,3,3,3,0,1,1,1,,,,,,,,,,,,,,,,,,,,,,,,,,,,,,,,,,,,,,,,,,,,,,,,,,,,,,,,,,,,,,,,,,,,,1.661,385.5205749000006,None,None,1,385.5205749000006,None,,P025,fencog,2,Post,2022_Feb_22_1155,N-Back (New Version 2021),2021.1.4,120.59264047282858,
,,,,Conditions/Version_1/threeback(1)_v1.xlsx,New rule: Press 'space' when you see 3-back (i.e. the same letter as the one that appeared 3 letters ago.),P,None,,,,,,,,,0,3,3,3,0,2,2,2,,,,,,,,,,,,,,,,,,,,,,,,,,,,,,,,,,,,,,,,,,,,,,,,,,,,,,,,,,,,,,,,,,,,,1.9276,389.45263390000036,None,None,1,389.45263390000036,None,,P025,fencog,2,Post,2022_Feb_22_1155,N-Back (New Version 2021),2021.1.4,120.59264047282858,
,,,,Conditions/Version_1/threeback(1)_v1.xlsx,New rule: Press 'space' when you see 3-back (i.e. the same letter as the one that appeared 3 letters ago.),R,space,,,,,,,,,0,3,3,3,0,3,3,3,,,,,,,,,,,,,,,,,,,,,,,,,,,,,,,,,,,,,,,,,,,,,,,,,,,,,,,,,,,,,,,,,,,,,1.2208,392.68275470000026,None,space,1,392.68275470000026,None,0.4979272000000492,P025,fencog,2,Post,2022_Feb_22_1155,N-Back (New Version 2021),2021.1.4,120.59264047282858,
,,,,Conditions/Version_1/threeback(1)_v1.xlsx,New rule: Press 'space' when you see 3-back (i.e. the same letter as the one that appeared 3 letters ago.),p,None,,,,,,,,,0,3,3,3,0,4,4,4,,,,,,,,,,,,,,,,,,,,,,,,,,,,,,,,,,,,,,,,,,,,,,,,,,,,,,,,,,,,,,,,,,,,,1.1154,395.8101711999998,None,None,1,395.8101711999998,None,,P025,fencog,2,Post,2022_Feb_22_1155,N-Back (New Version 2021),2021.1.4,120.59264047282858,
,,,,Conditions/Version_1/threeback(1)_v1.xlsx,New rule: Press 'space' when you see 3-back (i.e. the same letter as the one that appeared 3 letters ago.),E,None,,,,,,,,,0,3,3,3,0,5,5,5,,,,,,,,,,,,,,,,,,,,,,,,,,,,,,,,,,,,,,,,,,,,,,,,,,,,,,,,,,,,,,,,,,,,,1.0844,398.90938319999987,None,None,1,398.90938319999987,None,,P025,fencog,2,Post,2022_Feb_22_1155,N-Back (New Version 2021),2021.1.4,120.59264047282858,
,,,,Conditions/Version_1/threeback(1)_v1.xlsx,New rule: Press 'space' when you see 3-back (i.e. the same letter as the one that appeared 3 letters ago.),e,None,,,,,,,,,0,3,3,3,0,6,6,6,,,,,,,,,,,,,,,,,,,,,,,,,,,,,,,,,,,,,,,,,,,,,,,,,,,,,,,,,,,,,,,,,,,,,1.7416,402.66161569999986,None,space,0,402.66161569999986,None,0.684270299999298,P025,fencog,2,Post,2022_Feb_22_1155,N-Back (New Version 2021),2021.1.4,120.59264047282858,
,,,,Conditions/Version_1/threeback(1)_v1.xlsx,New rule: Press 'space' when you see 3-back (i.e. the same letter as the one that appeared 3 letters ago.),m,None,,,,,,,,,0,3,3,3,0,7,7,7,,,,,,,,,,,,,,,,,,,,,,,,,,,,,,,,,,,,,,,,,,,,,,,,,,,,,,,,,,,,,,,,,,,,,1.1402,405.80725130000064,None,None,1,405.80725130000064,None,,P025,fencog,2,Post,2022_Feb_22_1155,N-Back (New Version 2021),2021.1.4,120.59264047282858,
,,,,Conditions/Version_1/threeback(1)_v1.xlsx,New rule: Press 'space' when you see 3-back (i.e. the same letter as the one that appeared 3 letters ago.),n,None,,,,,,,,,0,3,3,3,0,8,8,8,,,,,,,,,,,,,,,,,,,,,,,,,,,,,,,,,,,,,,,,,,,,,,,,,,,,,,,,,,,,,,,,,,,,,1.444,409.26444119999996,None,None,1,409.26444119999996,None,,P025,fencog,2,Post,2022_Feb_22_1155,N-Back (New Version 2021),2021.1.4,120.59264047282858,
,,,,Conditions/Version_1/threeback(1)_v1.xlsx,New rule: Press 'space' when you see 3-back (i.e. the same letter as the one that appeared 3 letters ago.),e,space,,,,,,,,,0,3,3,3,0,9,9,9,,,,,,,,,,,,,,,,,,,,,,,,,,,,,,,,,,,,,,,,,,,,,,,,,,,,,,,,,,,,,,,,,,,,,1.5308,412.7959338999999,None,space,1,412.7959338999999,None,0.7666977999997471,P025,fencog,2,Post,2022_Feb_22_1155,N-Back (New Version 2021),2021.1.4,120.59264047282858,
,,,,Conditions/Version_1/threeback(1)_v1.xlsx,New rule: Press 'space' when you see 3-back (i.e. the same letter as the one that appeared 3 letters ago.),,,,,,,,,,,0,3,3,3,,,,,,,,,,,,,,,,,,,,,,,,,,,,,,,,,,,,,,,,,,,,,,,,,,,,,,,,,,,,,,,,,,,,,,,,,,,,,,,,,P025,fencog,2,Post,2022_Feb_22_1155,N-Back (New Version 2021),2021.1.4,120.59264047282858,
,,,,Conditions/Version_1/oneback(2)_v1.xlsx,New rule: Press 'space' when you see 1-back (i.e. the same letter as the one that appeared 1 letter ago.),q,None,,,,,,,,,0,4,4,4,0,0,0,0,,,,,,,,,,,,,,,,,,,,,,,,,,,,,,,,,,,,,,,,,,,,,,,,,,,,,,,,,,,414.81759200000033,None,417.8067237000005,None,space,1.6069860999996308,417.8067237000005,None,414.81759200000033,None,1.6734,421.1180296000002,None,None,1,421.1180296000002,None,,P025,fencog,2,Post,2022_Feb_22_1155,N-Back (New Version 2021),2021.1.4,120.59264047282858,
,,,,Conditions/Version_1/oneback(2)_v1.xlsx,New rule: Press 'space' when you see 1-back (i.e. the same letter as the one that appeared 1 letter ago.),Q,space,,,,,,,,,0,4,4,4,0,1,1,1,,,,,,,,,,,,,,,,,,,,,,,,,,,,,,,,,,,,,,,,,,,,,,,,,,,,,,,,,,,,,,,,,,,,,1.2766,424.4018506000002,None,space,1,424.4018506000002,None,0.5136235999998462,P025,fencog,2,Post,2022_Feb_22_1155,N-Back (New Version 2021),2021.1.4,120.59264047282858,
,,,,Conditions/Version_1/oneback(2)_v1.xlsx,New rule: Press 'space' when you see 1-back (i.e. the same letter as the one that appeared 1 letter ago.),P,None,,,,,,,,,0,4,4,4,0,2,2,2,,,,,,,,,,,,,,,,,,,,,,,,,,,,,,,,,,,,,,,,,,,,,,,,,,,,,,,,,,,,,,,,,,,,,1.3634,427.7747368999999,None,None,1,427.7747368999999,None,,P025,fencog,2,Post,2022_Feb_22_1155,N-Back (New Version 2021),2021.1.4,120.59264047282858,
,,,,Conditions/Version_1/oneback(2)_v1.xlsx,New rule: Press 'space' when you see 1-back (i.e. the same letter as the one that appeared 1 letter ago.),o,None,,,,,,,,,0,4,4,4,0,3,3,3,,,,,,,,,,,,,,,,,,,,,,,,,,,,,,,,,,,,,,,,,,,,,,,,,,,,,,,,,,,,,,,,,,,,,1.7044,431.4819900000002,None,None,1,431.4819900000002,None,,P025,fencog,2,Post,2022_Feb_22_1155,N-Back (New Version 2021),2021.1.4,120.59264047282858,
,,,,Conditions/Version_1/oneback(2)_v1.xlsx,New rule: Press 'space' when you see 1-back (i.e. the same letter as the one that appeared 1 letter ago.),m,None,,,,,,,,,0,4,4,4,0,4,4,4,,,,,,,,,,,,,,,,,,,,,,,,,,,,,,,,,,,,,,,,,,,,,,,,,,,,,,,,,,,,,,,,,,,,,1.1464,434.63757260000057,None,None,1,434.63757260000057,None,,P025,fencog,2,Post,2022_Feb_22_1155,N-Back (New Version 2021),2021.1.4,120.59264047282858,
,,,,Conditions/Version_1/oneback(2)_v1.xlsx,New rule: Press 'space' when you see 1-back (i.e. the same letter as the one that appeared 1 letter ago.),Z,None,,,,,,,,,0,4,4,4,0,5,5,5,,,,,,,,,,,,,,,,,,,,,,,,,,,,,,,,,,,,,,,,,,,,,,,,,,,,,,,,,,,,,,,,,,,,,1.7416,438.3829764000002,None,None,1,438.3829764000002,None,,P025,fencog,2,Post,2022_Feb_22_1155,N-Back (New Version 2021),2021.1.4,120.59264047282858,
,,,,Conditions/Version_1/oneback(2)_v1.xlsx,New rule: Press 'space' when you see 1-back (i.e. the same letter as the one that appeared 1 letter ago.),c,None,,,,,,,,,0,4,4,4,0,6,6,6,,,,,,,,,,,,,,,,,,,,,,,,,,,,,,,,,,,,,,,,,,,,,,,,,,,,,,,,,,,,,,,,,,,,,1.6548,442.0472958999999,None,None,1,442.0472958999999,None,,P025,fencog,2,Post,2022_Feb_22_1155,N-Back (New Version 2021),2021.1.4,120.59264047282858,
,,,,Conditions/Version_1/oneback(2)_v1.xlsx,New rule: Press 'space' when you see 1-back (i.e. the same letter as the one that appeared 1 letter ago.),c,space,,,,,,,,,0,4,4,4,0,7,7,7,,,,,,,,,,,,,,,,,,,,,,,,,,,,,,,,,,,,,,,,,,,,,,,,,,,,,,,,,,,,,,,,,,,,,1.32,445.3779295000004,None,space,1,445.3779295000004,None,0.4960458000005019,P025,fencog,2,Post,2022_Feb_22_1155,N-Back (New Version 2021),2021.1.4,120.59264047282858,
,,,,Conditions/Version_1/oneback(2)_v1.xlsx,New rule: Press 'space' when you see 1-back (i.e. the same letter as the one that appeared 1 letter ago.),P,None,,,,,,,,,0,4,4,4,0,8,8,8,,,,,,,,,,,,,,,,,,,,,,,,,,,,,,,,,,,,,,,,,,,,,,,,,,,,,,,,,,,,,,,,,,,,,1.5494,448.9312679000004,None,None,1,448.9312679000004,None,,P025,fencog,2,Post,2022_Feb_22_1155,N-Back (New Version 2021),2021.1.4,120.59264047282858,
,,,,Conditions/Version_1/oneback(2)_v1.xlsx,New rule: Press 'space' when you see 1-back (i.e. the same letter as the one that appeared 1 letter ago.),p,space,,,,,,,,,0,4,4,4,0,9,9,9,,,,,,,,,,,,,,,,,,,,,,,,,,,,,,,,,,,,,,,,,,,,,,,,,,,,,,,,,,,,,,,,,,,,,1.4068,452.3423343000004,None,space,1,452.3423343000004,None,0.530928700000004,P025,fencog,2,Post,2022_Feb_22_1155,N-Back (New Version 2021),2021.1.4,120.59264047282858,
,,,,Conditions/Version_1/oneback(2)_v1.xlsx,New rule: Press 'space' when you see 1-back (i.e. the same letter as the one that appeared 1 letter ago.),,,,,,,,,,,0,4,4,4,,,,,,,,,,,,,,,,,,,,,,,,,,,,,,,,,,,,,,,,,,,,,,,,,,,,,,,,,,,,,,,,,,,,,,,,,,,,,,,,,P025,fencog,2,Post,2022_Feb_22_1155,N-Back (New Version 2021),2021.1.4,120.59264047282858,
,,,,Conditions/Version_1/zeroback(2)_v1.xlsx,New rule: Press 'space' when you see the letter 'x' or 'X'.,p,None,,,,,,,,,0,5,5,5,0,0,0,0,,,,,,,,,,,,,,,,,,,,,,,,,,,,,,,,,,,,,,,,,,,,,,,,,,,,,,,,,,,454.37015390000033,None,457.3512080999999,None,space,0.9647546000005605,457.3512080999999,None,454.37015390000033,None,1.4006,459.7401924000005,None,None,1,459.7401924000005,None,,P025,fencog,2,Post,2022_Feb_22_1155,N-Back (New Version 2021),2021.1.4,120.59264047282858,
,,,,Conditions/Version_1/zeroback(2)_v1.xlsx,New rule: Press 'space' when you see the letter 'x' or 'X'.,L,None,,,,,,,,,0,5,5,5,0,1,1,1,,,,,,,,,,,,,,,,,,,,,,,,,,,,,,,,,,,,,,,,,,,,,,,,,,,,,,,,,,,,,,,,,,,,,1.475,463.21416880000015,None,None,1,463.21416880000015,None,,P025,fencog,2,Post,2022_Feb_22_1155,N-Back (New Version 2021),2021.1.4,120.59264047282858,
,,,,Conditions/Version_1/zeroback(2)_v1.xlsx,New rule: Press 'space' when you see the letter 'x' or 'X'.,G,None,,,,,,,,,0,5,5,5,0,2,2,2,,,,,,,,,,,,,,,,,,,,,,,,,,,,,,,,,,,,,,,,,,,,,,,,,,,,,,,,,,,,,,,,,,,,,1.2704,466.4908482999999,None,None,1,466.4908482999999,None,,P025,fencog,2,Post,2022_Feb_22_1155,N-Back (New Version 2021),2021.1.4,120.59264047282858,
,,,,Conditions/Version_1/zeroback(2)_v1.xlsx,New rule: Press 'space' when you see the letter 'x' or 'X'.,y,None,,,,,,,,,0,5,5,5,0,3,3,3,,,,,,,,,,,,,,,,,,,,,,,,,,,,,,,,,,,,,,,,,,,,,,,,,,,,,,,,,,,,,,,,,,,,,1.6176,470.1132656,None,None,1,470.1132656,None,,P025,fencog,2,Post,2022_Feb_22_1155,N-Back (New Version 2021),2021.1.4,120.59264047282858,
,,,,Conditions/Version_1/zeroback(2)_v1.xlsx,New rule: Press 'space' when you see the letter 'x' or 'X'.,Y,None,,,,,,,,,0,5,5,5,0,4,4,4,,,,,,,,,,,,,,,,,,,,,,,,,,,,,,,,,,,,,,,,,,,,,,,,,,,,,,,,,,,,,,,,,,,,,1.9648,474.08620299999984,None,None,1,474.08620299999984,None,,P025,fencog,2,Post,2022_Feb_22_1155,N-Back (New Version 2021),2021.1.4,120.59264047282858,
,,,,Conditions/Version_1/zeroback(2)_v1.xlsx,New rule: Press 'space' when you see the letter 'x' or 'X'.,W,None,,,,,,,,,0,5,5,5,0,5,5,5,,,,,,,,,,,,,,,,,,,,,,,,,,,,,,,,,,,,,,,,,,,,,,,,,,,,,,,,,,,,,,,,,,,,,1.1836,477.2698293000003,None,None,1,477.2698293000003,None,,P025,fencog,2,Post,2022_Feb_22_1155,N-Back (New Version 2021),2021.1.4,120.59264047282858,
,,,,Conditions/Version_1/zeroback(2)_v1.xlsx,New rule: Press 'space' when you see the letter 'x' or 'X'.,x,space,,,,,,,,,0,5,5,5,0,6,6,6,,,,,,,,,,,,,,,,,,,,,,,,,,,,,,,,,,,,,,,,,,,,,,,,,,,,,,,,,,,,,,,,,,,,,1.134,480.4212109,None,space,1,480.4212109,None,0.47064399999999296,P025,fencog,2,Post,2022_Feb_22_1155,N-Back (New Version 2021),2021.1.4,120.59264047282858,
,,,,Conditions/Version_1/zeroback(2)_v1.xlsx,New rule: Press 'space' when you see the letter 'x' or 'X'.,X,space,,,,,,,,,0,5,5,5,0,7,7,7,,,,,,,,,,,,,,,,,,,,,,,,,,,,,,,,,,,,,,,,,,,,,,,,,,,,,,,,,,,,,,,,,,,,,1.7602,484.19244570000046,None,space,1,484.19244570000046,None,0.5242533000000549,P025,fencog,2,Post,2022_Feb_22_1155,N-Back (New Version 2021),2021.1.4,120.59264047282858,
,,,,Conditions/Version_1/zeroback(2)_v1.xlsx,New rule: Press 'space' when you see the letter 'x' or 'X'.,p,None,,,,,,,,,0,5,5,5,0,8,8,8,,,,,,,,,,,,,,,,,,,,,,,,,,,,,,,,,,,,,,,,,,,,,,,,,,,,,,,,,,,,,,,,,,,,,1.2828,487.48185660000036,None,None,1,487.48185660000036,None,,P025,fencog,2,Post,2022_Feb_22_1155,N-Back (New Version 2021),2021.1.4,120.59264047282858,
,,,,Conditions/Version_1/zeroback(2)_v1.xlsx,New rule: Press 'space' when you see the letter 'x' or 'X'.,h,None,,,,,,,,,0,5,5,5,0,9,9,9,,,,,,,,,,,,,,,,,,,,,,,,,,,,,,,,,,,,,,,,,,,,,,,,,,,,,,,,,,,,,,,,,,,,,1.506,490.98929000000044,None,None,1,490.98929000000044,None,,P025,fencog,2,Post,2022_Feb_22_1155,N-Back (New Version 2021),2021.1.4,120.59264047282858,
,,,,Conditions/Version_1/zeroback(2)_v1.xlsx,New rule: Press 'space' when you see the letter 'x' or 'X'.,,,,,,,,,,,0,5,5,5,,,,,,,,,,,,,,,,,,,,,,,,,,,,,,,,,,,,,,,,,,,,,,,,,,,,,,,,,,,,,,,,,,,,,,,,,,,,,,,,,P025,fencog,2,Post,2022_Feb_22_1155,N-Back (New Version 2021),2021.1.4,120.59264047282858,
,,,,Conditions/Version_1/threeback(2)_v1.xlsx,New rule: Press 'space' when you see 3-back (i.e. the same letter as the one that appeared 3 letters ago.),q,None,,,,,,,,,0,6,6,6,0,0,0,0,,,,,,,,,,,,,,,,,,,,,,,,,,,,,,,,,,,,,,,,,,,,,,,,,,,,,,,,,,,493.01563070000066,None,495.9984241000002,None,space,1.6507423000002746,495.9984241000002,None,493.01563070000066,None,1.2952,498.9705324000006,None,None,1,498.9705324000006,None,,P025,fencog,2,Post,2022_Feb_22_1155,N-Back (New Version 2021),2021.1.4,120.59264047282858,
,,,,Conditions/Version_1/threeback(2)_v1.xlsx,New rule: Press 'space' when you see 3-back (i.e. the same letter as the one that appeared 3 letters ago.),Y,None,,,,,,,,,0,6,6,6,0,1,1,1,,,,,,,,,,,,,,,,,,,,,,,,,,,,,,,,,,,,,,,,,,,,,,,,,,,,,,,,,,,,,,,,,,,,,1.1712,502.14437030000045,None,None,1,502.14437030000045,None,,P025,fencog,2,Post,2022_Feb_22_1155,N-Back (New Version 2021),2021.1.4,120.59264047282858,
,,,,Conditions/Version_1/threeback(2)_v1.xlsx,New rule: Press 'space' when you see 3-back (i.e. the same letter as the one that appeared 3 letters ago.),p,None,,,,,,,,,0,6,6,6,0,2,2,2,,,,,,,,,,,,,,,,,,,,,,,,,,,,,,,,,,,,,,,,,,,,,,,,,,,,,,,,,,,,,,,,,,,,,1.0348,505.1860907,None,None,1,505.1860907,None,,P025,fencog,2,Post,2022_Feb_22_1155,N-Back (New Version 2021),2021.1.4,120.59264047282858,
,,,,Conditions/Version_1/threeback(2)_v1.xlsx,New rule: Press 'space' when you see 3-back (i.e. the same letter as the one that appeared 3 letters ago.),p,None,,,,,,,,,0,6,6,6,0,3,3,3,,,,,,,,,,,,,,,,,,,,,,,,,,,,,,,,,,,,,,,,,,,,,,,,,,,,,,,,,,,,,,,,,,,,,1.692,508.8840723000003,None,None,1,508.8840723000003,None,,P025,fencog,2,Post,2022_Feb_22_1155,N-Back (New Version 2021),2021.1.4,120.59264047282858,
,,,,Conditions/Version_1/threeback(2)_v1.xlsx,New rule: Press 'space' when you see 3-back (i.e. the same letter as the one that appeared 3 letters ago.),y,space,,,,,,,,,0,6,6,6,0,4,4,4,,,,,,,,,,,,,,,,,,,,,,,,,,,,,,,,,,,,,,,,,,,,,,,,,,,,,,,,,,,,,,,,,,,,,1.2084,512.0958011000002,None,space,1,512.0958011000002,None,0.9457993000005445,P025,fencog,2,Post,2022_Feb_22_1155,N-Back (New Version 2021),2021.1.4,120.59264047282858,
,,,,Conditions/Version_1/threeback(2)_v1.xlsx,New rule: Press 'space' when you see 3-back (i.e. the same letter as the one that appeared 3 letters ago.),u,None,,,,,,,,,0,6,6,6,0,5,5,5,,,,,,,,,,,,,,,,,,,,,,,,,,,,,,,,,,,,,,,,,,,,,,,,,,,,,,,,,,,,,,,,,,,,,1.6796,515.7839279999998,None,None,1,515.7839279999998,None,,P025,fencog,2,Post,2022_Feb_22_1155,N-Back (New Version 2021),2021.1.4,120.59264047282858,
,,,,Conditions/Version_1/threeback(2)_v1.xlsx,New rule: Press 'space' when you see 3-back (i.e. the same letter as the one that appeared 3 letters ago.),P,space,,,,,,,,,0,6,6,6,0,6,6,6,,,,,,,,,,,,,,,,,,,,,,,,,,,,,,,,,,,,,,,,,,,,,,,,,,,,,,,,,,,,,,,,,,,,,1.8966,519.6894149999998,None,space,1,519.6894149999998,None,1.1398758999994243,P025,fencog,2,Post,2022_Feb_22_1155,N-Back (New Version 2021),2021.1.4,120.59264047282858,
,,,,Conditions/Version_1/threeback(2)_v1.xlsx,New rule: Press 'space' when you see 3-back (i.e. the same letter as the one that appeared 3 letters ago.),a,None,,,,,,,,,0,6,6,6,0,7,7,7,,,,,,,,,,,,,,,,,,,,,,,,,,,,,,,,,,,,,,,,,,,,,,,,,,,,,,,,,,,,,,,,,,,,,1.1898,522.8809602000001,None,None,1,522.8809602000001,None,,P025,fencog,2,Post,2022_Feb_22_1155,N-Back (New Version 2021),2021.1.4,120.59264047282858,
,,,,Conditions/Version_1/threeback(2)_v1.xlsx,New rule: Press 'space' when you see 3-back (i.e. the same letter as the one that appeared 3 letters ago.),U,space,,,,,,,,,0,6,6,6,0,8,8,8,,,,,,,,,,,,,,,,,,,,,,,,,,,,,,,,,,,,,,,,,,,,,,,,,,,,,,,,,,,,,,,,,,,,,1.7168,526.6038564,None,space,1,526.6038564,None,1.9156866000002992,P025,fencog,2,Post,2022_Feb_22_1155,N-Back (New Version 2021),2021.1.4,120.59264047282858,
,,,,Conditions/Version_1/threeback(2)_v1.xlsx,New rule: Press 'space' when you see 3-back (i.e. the same letter as the one that appeared 3 letters ago.),q,None,,,,,,,,,0,6,6,6,0,9,9,9,,,,,,,,,,,,,,,,,,,,,,,,,,,,,,,,,,,,,,,,,,,,,,,,,,,,,,,,,,,,,,,,,,,,,1.0782,529.6861746000004,None,space,0,529.6861746000004,None,1.012120600000344,P025,fencog,2,Post,2022_Feb_22_1155,N-Back (New Version 2021),2021.1.4,120.59264047282858,
,,,,Conditions/Version_1/threeback(2)_v1.xlsx,New rule: Press 'space' when you see 3-back (i.e. the same letter as the one that appeared 3 letters ago.),,,,,,,,,,,0,6,6,6,,,,,,,,,,,,,,,,,,,,,,,,,,,,,,,,,,,,,,,,,,,,,,,,,,,,,,,,,,,,,,,,,,,,,,,,,,,,,,,,,P025,fencog,2,Post,2022_Feb_22_1155,N-Back (New Version 2021),2021.1.4,120.59264047282858,
,,,,Conditions/Version_1/twoback(2)_v1.xlsx,New rule: Press 'space' when you see 2-back (i.e. the same letter as the one that appeared 2 letters ago.),q,None,,,,,,,,,0,7,7,7,0,0,0,0,,,,,,,,,,,,,,,,,,,,,,,,,,,,,,,,,,,,,,,,,,,,,,,,,,,,,,,,,,,531.7078007,None,534.6952860000001,None,space,1.28057919999992,534.6952860000001,None,531.7078007,None,1.6238,537.6257221000005,None,None,1,537.6257221000005,None,,P025,fencog,2,Post,2022_Feb_22_1155,N-Back (New Version 2021),2021.1.4,120.59264047282858,
,,,,Conditions/Version_1/twoback(2)_v1.xlsx,New rule: Press 'space' when you see 2-back (i.e. the same letter as the one that appeared 2 letters ago.),r,None,,,,,,,,,0,7,7,7,0,1,1,1,,,,,,,,,,,,,,,,,,,,,,,,,,,,,,,,,,,,,,,,,,,,,,,,,,,,,,,,,,,,,,,,,,,,,1.1588,540.7991480000001,None,None,1,540.7991480000001,None,,P025,fencog,2,Post,2022_Feb_22_1155,N-Back (New Version 2021),2021.1.4,120.59264047282858,
,,,,Conditions/Version_1/twoback(2)_v1.xlsx,New rule: Press 'space' when you see 2-back (i.e. the same letter as the one that appeared 2 letters ago.),q,space,,,,,,,,,0,7,7,7,0,2,2,2,,,,,,,,,,,,,,,,,,,,,,,,,,,,,,,,,,,,,,,,,,,,,,,,,,,,,,,,,,,,,,,,,,,,,1.4192,544.2236038000001,None,space,1,544.2236038000001,None,0.6368576000004396,P025,fencog,2,Post,2022_Feb_22_1155,N-Back (New Version 2021),2021.1.4,120.59264047282858,
,,,,Conditions/Version_1/twoback(2)_v1.xlsx,New rule: Press 'space' when you see 2-back (i.e. the same letter as the one that appeared 2 letters ago.),P,None,,,,,,,,,0,7,7,7,0,3,3,3,,,,,,,,,,,,,,,,,,,,,,,,,,,,,,,,,,,,,,,,,,,,,,,,,,,,,,,,,,,,,,,,,,,,,1.5122,547.7391981000001,None,None,1,547.7391981000001,None,,P025,fencog,2,Post,2022_Feb_22_1155,N-Back (New Version 2021),2021.1.4,120.59264047282858,
,,,,Conditions/Version_1/twoback(2)_v1.xlsx,New rule: Press 'space' when you see 2-back (i.e. the same letter as the one that appeared 2 letters ago.),p,None,,,,,,,,,0,7,7,7,0,4,4,4,,,,,,,,,,,,,,,,,,,,,,,,,,,,,,,,,,,,,,,,,,,,,,,,,,,,,,,,,,,,,,,,,,,,,1.4254,551.1635477999998,None,None,1,551.1635477999998,None,,P025,fencog,2,Post,2022_Feb_22_1155,N-Back (New Version 2021),2021.1.4,120.59264047282858,
,,,,Conditions/Version_1/twoback(2)_v1.xlsx,New rule: Press 'space' when you see 2-back (i.e. the same letter as the one that appeared 2 letters ago.),H,None,,,,,,,,,0,7,7,7,0,5,5,5,,,,,,,,,,,,,,,,,,,,,,,,,,,,,,,,,,,,,,,,,,,,,,,,,,,,,,,,,,,,,,,,,,,,,1.0906,554.2540083000004,None,None,1,554.2540083000004,None,,P025,fencog,2,Post,2022_Feb_22_1155,N-Back (New Version 2021),2021.1.4,120.59264047282858,
,,,,Conditions/Version_1/twoback(2)_v1.xlsx,New rule: Press 'space' when you see 2-back (i.e. the same letter as the one that appeared 2 letters ago.),g,None,,,,,,,,,0,7,7,7,0,6,6,6,,,,,,,,,,,,,,,,,,,,,,,,,,,,,,,,,,,,,,,,,,,,,,,,,,,,,,,,,,,,,,,,,,,,,1.9152,558.1737592,None,None,1,558.1737592,None,,P025,fencog,2,Post,2022_Feb_22_1155,N-Back (New Version 2021),2021.1.4,120.59264047282858,
,,,,Conditions/Version_1/twoback(2)_v1.xlsx,New rule: Press 'space' when you see 2-back (i.e. the same letter as the one that appeared 2 letters ago.),j,None,,,,,,,,,0,7,7,7,0,7,7,7,,,,,,,,,,,,,,,,,,,,,,,,,,,,,,,,,,,,,,,,,,,,,,,,,,,,,,,,,,,,,,,,,,,,,1.4688,561.6545436000006,None,None,1,561.6545436000006,None,,P025,fencog,2,Post,2022_Feb_22_1155,N-Back (New Version 2021),2021.1.4,120.59264047282858,
,,,,Conditions/Version_1/twoback(2)_v1.xlsx,New rule: Press 'space' when you see 2-back (i.e. the same letter as the one that appeared 2 letters ago.),g,space,,,,,,,,,0,7,7,7,0,8,8,8,,,,,,,,,,,,,,,,,,,,,,,,,,,,,,,,,,,,,,,,,,,,,,,,,,,,,,,,,,,,,,,,,,,,,1.0162,564.6786840000004,None,space,1,564.6786840000004,None,1.0002143000001524,P025,fencog,2,Post,2022_Feb_22_1155,N-Back (New Version 2021),2021.1.4,120.59264047282858,
,,,,Conditions/Version_1/twoback(2)_v1.xlsx,New rule: Press 'space' when you see 2-back (i.e. the same letter as the one that appeared 2 letters ago.),G,None,,,,,,,,,0,7,7,7,0,9,9,9,,,,,,,,,,,,,,,,,,,,,,,,,,,,,,,,,,,,,,,,,,,,,,,,,,,,,,,,,,,,,,,,,,,,,1.7726,568.4590599000003,None,None,1,568.4590599000003,None,,P025,fencog,2,Post,2022_Feb_22_1155,N-Back (New Version 2021),2021.1.4,120.59264047282858,
,,,,Conditions/Version_1/twoback(2)_v1.xlsx,New rule: Press 'space' when you see 2-back (i.e. the same letter as the one that appeared 2 letters ago.),,,,,,,,,,,0,7,7,7,,,,,,,,,,,,,,,,,,,,,,,,,,,,,,,,,,,,,,,,,,,,,,,,,,,,,,,,,,,,,,,,,,,,,,,,,,,,,,,,,P025,fencog,2,Post,2022_Feb_22_1155,N-Back (New Version 2021),2021.1.4,120.59264047282858,
,,,,Conditions/Version_1/threeback(3)_v1.xlsx,New rule: Press 'space' when you see 3-back (i.e. the same letter as the one that appeared 3 letters ago.),w,None,,,,,,,,,0,8,8,8,0,0,0,0,,,,,,,,,,,,,,,,,,,,,,,,,,,,,,,,,,,,,,,,,,,,,,,,,,,,,,,,,,,570.4903546000005,None,573.4752798999998,None,space,1.6514353000002302,573.4752798999998,None,570.4903546000005,None,1.413,576.5748890000004,None,None,1,576.5748890000004,None,,P025,fencog,2,Post,2022_Feb_22_1155,N-Back (New Version 2021),2021.1.4,120.59264047282858,
,,,,Conditions/Version_1/threeback(3)_v1.xlsx,New rule: Press 'space' when you see 3-back (i.e. the same letter as the one that appeared 3 letters ago.),p,None,,,,,,,,,0,8,8,8,0,1,1,1,,,,,,,,,,,,,,,,,,,,,,,,,,,,,,,,,,,,,,,,,,,,,,,,,,,,,,,,,,,,,,,,,,,,,1.8656,580.4472397,None,space,0,580.4472397,None,0.11806450000040059,P025,fencog,2,Post,2022_Feb_22_1155,N-Back (New Version 2021),2021.1.4,120.59264047282858,
,,,,Conditions/Version_1/threeback(3)_v1.xlsx,New rule: Press 'space' when you see 3-back (i.e. the same letter as the one that appeared 3 letters ago.),P,None,,,,,,,,,0,8,8,8,0,2,2,2,,,,,,,,,,,,,,,,,,,,,,,,,,,,,,,,,,,,,,,,,,,,,,,,,,,,,,,,,,,,,,,,,,,,,1.5618,584.0220555000005,None,None,1,584.0220555000005,None,,P025,fencog,2,Post,2022_Feb_22_1155,N-Back (New Version 2021),2021.1.4,120.59264047282858,
,,,,Conditions/Version_1/threeback(3)_v1.xlsx,New rule: Press 'space' when you see 3-back (i.e. the same letter as the one that appeared 3 letters ago.),i,None,,,,,,,,,0,8,8,8,0,3,3,3,,,,,,,,,,,,,,,,,,,,,,,,,,,,,,,,,,,,,,,,,,,,,,,,,,,,,,,,,,,,,,,,,,,,,1.0596,587.0973408,None,None,1,587.0973408,None,,P025,fencog,2,Post,2022_Feb_22_1155,N-Back (New Version 2021),2021.1.4,120.59264047282858,
,,,,Conditions/Version_1/threeback(3)_v1.xlsx,New rule: Press 'space' when you see 3-back (i.e. the same letter as the one that appeared 3 letters ago.),f,None,,,,,,,,,0,8,8,8,0,4,4,4,,,,,,,,,,,,,,,,,,,,,,,,,,,,,,,,,,,,,,,,,,,,,,,,,,,,,,,,,,,,,,,,,,,,,1.7726,590.8769249000006,None,None,1,590.8769249000006,None,,P025,fencog,2,Post,2022_Feb_22_1155,N-Back (New Version 2021),2021.1.4,120.59264047282858,
,,,,Conditions/Version_1/threeback(3)_v1.xlsx,New rule: Press 'space' when you see 3-back (i.e. the same letter as the one that appeared 3 letters ago.),o,None,,,,,,,,,0,8,8,8,0,5,5,5,,,,,,,,,,,,,,,,,,,,,,,,,,,,,,,,,,,,,,,,,,,,,,,,,,,,,,,,,,,,,,,,,,,,,1.506,594.3932281000007,None,None,1,594.3932281000007,None,,P025,fencog,2,Post,2022_Feb_22_1155,N-Back (New Version 2021),2021.1.4,120.59264047282858,
,,,,Conditions/Version_1/threeback(3)_v1.xlsx,New rule: Press 'space' when you see 3-back (i.e. the same letter as the one that appeared 3 letters ago.),w,None,,,,,,,,,0,8,8,8,0,6,6,6,,,,,,,,,,,,,,,,,,,,,,,,,,,,,,,,,,,,,,,,,,,,,,,,,,,,,,,,,,,,,,,,,,,,,1.1464,597.5507080000007,None,None,1,597.5507080000007,None,,P025,fencog,2,Post,2022_Feb_22_1155,N-Back (New Version 2021),2021.1.4,120.59264047282858,
,,,,Conditions/Version_1/threeback(3)_v1.xlsx,New rule: Press 'space' when you see 3-back (i.e. the same letter as the one that appeared 3 letters ago.),F,space,,,,,,,,,0,8,8,8,0,7,7,7,,,,,,,,,,,,,,,,,,,,,,,,,,,,,,,,,,,,,,,,,,,,,,,,,,,,,,,,,,,,,,,,,,,,,1.7416,601.2996125,None,None,0,601.2996125,None,,P025,fencog,2,Post,2022_Feb_22_1155,N-Back (New Version 2021),2021.1.4,120.59264047282858,
,,,,Conditions/Version_1/threeback(3)_v1.xlsx,New rule: Press 'space' when you see 3-back (i.e. the same letter as the one that appeared 3 letters ago.),p,None,,,,,,,,,0,8,8,8,0,8,8,8,,,,,,,,,,,,,,,,,,,,,,,,,,,,,,,,,,,,,,,,,,,,,,,,,,,,,,,,,,,,,,,,,,,,,1.0906,604.4104449000006,None,space,0,604.4104449000006,None,0.7751176000001578,P025,fencog,2,Post,2022_Feb_22_1155,N-Back (New Version 2021),2021.1.4,120.59264047282858,
,,,,Conditions/Version_1/threeback(3)_v1.xlsx,New rule: Press 'space' when you see 3-back (i.e. the same letter as the one that appeared 3 letters ago.),W,space,,,,,,,,,0,8,8,8,0,9,9,9,,,,,,,,,,,,,,,,,,,,,,,,,,,,,,,,,,,,,,,,,,,,,,,,,,,,,,,,,,,,,,,,,,,,,1.94,608.3547069000006,None,space,1,608.3547069000006,None,1.8615356000000247,P025,fencog,2,Post,2022_Feb_22_1155,N-Back (New Version 2021),2021.1.4,120.59264047282858,
,,,,Conditions/Version_1/threeback(3)_v1.xlsx,New rule: Press 'space' when you see 3-back (i.e. the same letter as the one that appeared 3 letters ago.),,,,,,,,,,,0,8,8,8,,,,,,,,,,,,,,,,,,,,,,,,,,,,,,,,,,,,,,,,,,,,,,,,,,,,,,,,,,,,,,,,,,,,,,,,,,,,,,,,,P025,fencog,2,Post,2022_Feb_22_1155,N-Back (New Version 2021),2021.1.4,120.59264047282858,
,,,,Conditions/Version_1/zeroback(3)_v1.xlsx,New rule: Press 'space' when you see the letter 'x' or 'X'.,X,space,,,,,,,,,0,9,9,9,0,0,0,0,,,,,,,,,,,,,,,,,,,,,,,,,,,,,,,,,,,,,,,,,,,,,,,,,,,,,,,,,,,610.3747330000006,None,613.3637318000001,None,space,0.8968482000000222,613.3637318000001,None,610.3747330000006,None,1.2394,615.5287395000005,None,space,1,615.5287395000005,None,0.7003426999999647,P025,fencog,2,Post,2022_Feb_22_1155,N-Back (New Version 2021),2021.1.4,120.59264047282858,
,,,,Conditions/Version_1/zeroback(3)_v1.xlsx,New rule: Press 'space' when you see the letter 'x' or 'X'.,B,None,,,,,,,,,0,9,9,9,0,1,1,1,,,,,,,,,,,,,,,,,,,,,,,,,,,,,,,,,,,,,,,,,,,,,,,,,,,,,,,,,,,,,,,,,,,,,1.6486,619.1915399,None,None,1,619.1915399,None,,P025,fencog,2,Post,2022_Feb_22_1155,N-Back (New Version 2021),2021.1.4,120.59264047282858,
,,,,Conditions/Version_1/zeroback(3)_v1.xlsx,New rule: Press 'space' when you see the letter 'x' or 'X'.,m,None,,,,,,,,,0,9,9,9,0,2,2,2,,,,,,,,,,,,,,,,,,,,,,,,,,,,,,,,,,,,,,,,,,,,,,,,,,,,,,,,,,,,,,,,,,,,,1.7912,622.9839055000002,None,None,1,622.9839055000002,None,,P025,fencog,2,Post,2022_Feb_22_1155,N-Back (New Version 2021),2021.1.4,120.59264047282858,
,,,,Conditions/Version_1/zeroback(3)_v1.xlsx,New rule: Press 'space' when you see the letter 'x' or 'X'.,m,None,,,,,,,,,0,9,9,9,0,3,3,3,,,,,,,,,,,,,,,,,,,,,,,,,,,,,,,,,,,,,,,,,,,,,,,,,,,,,,,,,,,,,,,,,,,,,1.3386,626.3245685000002,None,None,1,626.3245685000002,None,,P025,fencog,2,Post,2022_Feb_22_1155,N-Back (New Version 2021),2021.1.4,120.59264047282858,
,,,,Conditions/Version_1/zeroback(3)_v1.xlsx,New rule: Press 'space' when you see the letter 'x' or 'X'.,o,None,,,,,,,,,0,9,9,9,0,4,4,4,,,,,,,,,,,,,,,,,,,,,,,,,,,,,,,,,,,,,,,,,,,,,,,,,,,,,,,,,,,,,,,,,,,,,1.8966,630.2232761000005,None,None,1,630.2232761000005,None,,P025,fencog,2,Post,2022_Feb_22_1155,N-Back (New Version 2021),2021.1.4,120.59264047282858,
,,,,Conditions/Version_1/zeroback(3)_v1.xlsx,New rule: Press 'space' when you see the letter 'x' or 'X'.,p,None,,,,,,,,,0,9,9,9,0,5,5,5,,,,,,,,,,,,,,,,,,,,,,,,,,,,,,,,,,,,,,,,,,,,,,,,,,,,,,,,,,,,,,,,,,,,,1.9276,634.1632327000007,None,None,1,634.1632327000007,None,,P025,fencog,2,Post,2022_Feb_22_1155,N-Back (New Version 2021),2021.1.4,120.59264047282858,
,,,,Conditions/Version_1/zeroback(3)_v1.xlsx,New rule: Press 'space' when you see the letter 'x' or 'X'.,G,None,,,,,,,,,0,9,9,9,0,6,6,6,,,,,,,,,,,,,,,,,,,,,,,,,,,,,,,,,,,,,,,,,,,,,,,,,,,,,,,,,,,,,,,,,,,,,1.0286,637.2038493999999,None,None,1,637.2038493999999,None,,P025,fencog,2,Post,2022_Feb_22_1155,N-Back (New Version 2021),2021.1.4,120.59264047282858,
,,,,Conditions/Version_1/zeroback(3)_v1.xlsx,New rule: Press 'space' when you see the letter 'x' or 'X'.,X,space,,,,,,,,,0,9,9,9,0,7,7,7,,,,,,,,,,,,,,,,,,,,,,,,,,,,,,,,,,,,,,,,,,,,,,,,,,,,,,,,,,,,,,,,,,,,,1.6796,640.8879397000001,None,space,1,640.8879397000001,None,0.403911500000504,P025,fencog,2,Post,2022_Feb_22_1155,N-Back (New Version 2021),2021.1.4,120.59264047282858,
,,,,Conditions/Version_1/zeroback(3)_v1.xlsx,New rule: Press 'space' when you see the letter 'x' or 'X'.,p,None,,,,,,,,,0,9,9,9,0,8,8,8,,,,,,,,,,,,,,,,,,,,,,,,,,,,,,,,,,,,,,,,,,,,,,,,,,,,,,,,,,,,,,,,,,,,,1.8098,644.7106740999998,None,None,1,644.7106740999998,None,,P025,fencog,2,Post,2022_Feb_22_1155,N-Back (New Version 2021),2021.1.4,120.59264047282858,
,,,,Conditions/Version_1/zeroback(3)_v1.xlsx,New rule: Press 'space' when you see the letter 'x' or 'X'.,x,space,,,,,,,,,0,9,9,9,0,9,9,9,,,,,,,,,,,,,,,,,,,,,,,,,,,,,,,,,,,,,,,,,,,,,,,,,,,,,,,,,,,,,,,,,,,,,1.8222,648.5344771,None,space,1,648.5344771,None,0.723974100000305,P025,fencog,2,Post,2022_Feb_22_1155,N-Back (New Version 2021),2021.1.4,120.59264047282858,
,,,,Conditions/Version_1/zeroback(3)_v1.xlsx,New rule: Press 'space' when you see the letter 'x' or 'X'.,,,,,,,,,,,0,9,9,9,,,,,,,,,,,,,,,,,,,,,,,,,,,,,,,,,,,,,,,,,,,,,,,,,,,,,,,,,,,,,,,,,,,,,,,,,,,,,,,,,P025,fencog,2,Post,2022_Feb_22_1155,N-Back (New Version 2021),2021.1.4,120.59264047282858,
,,,,Conditions/Version_1/twoback(3)_v1.xlsx,New rule: Press 'space' when you see 2-back (i.e. the same letter as the one that appeared 2 letters ago.),e,None,,,,,,,,,0,10,10,10,0,0,0,0,,,,,,,,,,,,,,,,,,,,,,,,,,,,,,,,,,,,,,,,,,,,,,,,,,,,,,,,,,,650.5546098000004,None,653.5446427000006,None,space,1.8445334000007279,653.5446427000006,None,650.5546098000004,None,1.0348,656.4507509000005,None,None,1,656.4507509000005,None,,P025,fencog,2,Post,2022_Feb_22_1155,N-Back (New Version 2021),2021.1.4,120.59264047282858,
,,,,Conditions/Version_1/twoback(3)_v1.xlsx,New rule: Press 'space' when you see 2-back (i.e. the same letter as the one that appeared 2 letters ago.),o,None,,,,,,,,,0,10,10,10,0,1,1,1,,,,,,,,,,,,,,,,,,,,,,,,,,,,,,,,,,,,,,,,,,,,,,,,,,,,,,,,,,,,,,,,,,,,,1.5866,660.0477416000003,None,None,1,660.0477416000003,None,,P025,fencog,2,Post,2022_Feb_22_1155,N-Back (New Version 2021),2021.1.4,120.59264047282858,
,,,,Conditions/Version_1/twoback(3)_v1.xlsx,New rule: Press 'space' when you see 2-back (i.e. the same letter as the one that appeared 2 letters ago.),P,None,,,,,,,,,0,10,10,10,0,2,2,2,,,,,,,,,,,,,,,,,,,,,,,,,,,,,,,,,,,,,,,,,,,,,,,,,,,,,,,,,,,,,,,,,,,,,1.4998,663.5468738,None,None,1,663.5468738,None,,P025,fencog,2,Post,2022_Feb_22_1155,N-Back (New Version 2021),2021.1.4,120.59264047282858,
,,,,Conditions/Version_1/twoback(3)_v1.xlsx,New rule: Press 'space' when you see 2-back (i.e. the same letter as the one that appeared 2 letters ago.),z,None,,,,,,,,,0,10,10,10,0,3,3,3,,,,,,,,,,,,,,,,,,,,,,,,,,,,,,,,,,,,,,,,,,,,,,,,,,,,,,,,,,,,,,,,,,,,,1.7788,667.3305447000002,None,None,1,667.3305447000002,None,,P025,fencog,2,Post,2022_Feb_22_1155,N-Back (New Version 2021),2021.1.4,120.59264047282858,
,,,,Conditions/Version_1/twoback(3)_v1.xlsx,New rule: Press 'space' when you see 2-back (i.e. the same letter as the one that appeared 2 letters ago.),X,None,,,,,,,,,0,10,10,10,0,4,4,4,,,,,,,,,,,,,,,,,,,,,,,,,,,,,,,,,,,,,,,,,,,,,,,,,,,,,,,,,,,,,,,,,,,,,1.9586,671.2958594000002,None,None,1,671.2958594000002,None,,P025,fencog,2,Post,2022_Feb_22_1155,N-Back (New Version 2021),2021.1.4,120.59264047282858,
,,,,Conditions/Version_1/twoback(3)_v1.xlsx,New rule: Press 'space' when you see 2-back (i.e. the same letter as the one that appeared 2 letters ago.),z,space,,,,,,,,,0,10,10,10,0,5,5,5,,,,,,,,,,,,,,,,,,,,,,,,,,,,,,,,,,,,,,,,,,,,,,,,,,,,,,,,,,,,,,,,,,,,,1.7416,675.0445000999998,None,space,1,675.0445000999998,None,0.9931429999996908,P025,fencog,2,Post,2022_Feb_22_1155,N-Back (New Version 2021),2021.1.4,120.59264047282858,
,,,,Conditions/Version_1/twoback(3)_v1.xlsx,New rule: Press 'space' when you see 2-back (i.e. the same letter as the one that appeared 2 letters ago.),x,space,,,,,,,,,0,10,10,10,0,6,6,6,,,,,,,,,,,,,,,,,,,,,,,,,,,,,,,,,,,,,,,,,,,,,,,,,,,,,,,,,,,,,,,,,,,,,1.3572,678.4094571000005,None,space,1,678.4094571000005,None,0.9335774999999558,P025,fencog,2,Post,2022_Feb_22_1155,N-Back (New Version 2021),2021.1.4,120.59264047282858,
,,,,Conditions/Version_1/twoback(3)_v1.xlsx,New rule: Press 'space' when you see 2-back (i.e. the same letter as the one that appeared 2 letters ago.),c,None,,,,,,,,,0,10,10,10,0,7,7,7,,,,,,,,,,,,,,,,,,,,,,,,,,,,,,,,,,,,,,,,,,,,,,,,,,,,,,,,,,,,,,,,,,,,,1.3386,681.7496535999999,None,None,1,681.7496535999999,None,,P025,fencog,2,Post,2022_Feb_22_1155,N-Back (New Version 2021),2021.1.4,120.59264047282858,
,,,,Conditions/Version_1/twoback(3)_v1.xlsx,New rule: Press 'space' when you see 2-back (i.e. the same letter as the one that appeared 2 letters ago.),i,None,,,,,,,,,0,10,10,10,0,8,8,8,,,,,,,,,,,,,,,,,,,,,,,,,,,,,,,,,,,,,,,,,,,,,,,,,,,,,,,,,,,,,,,,,,,,,1.1836,684.9320777000003,None,None,1,684.9320777000003,None,,P025,fencog,2,Post,2022_Feb_22_1155,N-Back (New Version 2021),2021.1.4,120.59264047282858,
,,,,Conditions/Version_1/twoback(3)_v1.xlsx,New rule: Press 'space' when you see 2-back (i.e. the same letter as the one that appeared 2 letters ago.),C,space,,,,,,,,,0,10,10,10,0,9,9,9,,,,,,,,,,,,,,,,,,,,,,,,,,,,,,,,,,,,,,,,,,,,,,,,,,,,,,,,,,,,,,,,,,,,,1.692,688.6257526999998,None,space,1,688.6257526999998,None,0.6307262000000264,P025,fencog,2,Post,2022_Feb_22_1155,N-Back (New Version 2021),2021.1.4,120.59264047282858,
,,,,Conditions/Version_1/twoback(3)_v1.xlsx,New rule: Press 'space' when you see 2-back (i.e. the same letter as the one that appeared 2 letters ago.),,,,,,,,,,,0,10,10,10,,,,,,,,,,,,,,,,,,,,,,,,,,,,,,,,,,,,,,,,,,,,,,,,,,,,,,,,,,,,,,,,,,,,,,,,,,,,,,,,,P025,fencog,2,Post,2022_Feb_22_1155,N-Back (New Version 2021),2021.1.4,120.59264047282858,
,,,,Conditions/Version_1/oneback(3)_v1.xlsx,New rule: Press 'space' when you see 1-back (i.e. the same letter as the one that appeared 1 letter ago.),o,None,,,,,,,,,0,11,11,11,0,0,0,0,,,,,,,,,,,,,,,,,,,,,,,,,,,,,,,,,,,,,,,,,,,,,,,,,,,,,,,,,,,690.6539535000002,None,693.6526371,None,space,0.037523399999372486,693.6526371,None,690.6539535000002,None,1.3634,695.0828843999998,None,None,1,695.0828843999998,None,,P025,fencog,2,Post,2022_Feb_22_1155,N-Back (New Version 2021),2021.1.4,120.59264047282858,
,,,,Conditions/Version_1/oneback(3)_v1.xlsx,New rule: Press 'space' when you see 1-back (i.e. the same letter as the one that appeared 1 letter ago.),O,space,,,,,,,,,0,11,11,11,0,1,1,1,,,,,,,,,,,,,,,,,,,,,,,,,,,,,,,,,,,,,,,,,,,,,,,,,,,,,,,,,,,,,,,,,,,,,1.351,698.4433942000005,None,space,1,698.4433942000005,None,0.6133957000001828,P025,fencog,2,Post,2022_Feb_22_1155,N-Back (New Version 2021),2021.1.4,120.59264047282858,
,,,,Conditions/Version_1/oneback(3)_v1.xlsx,New rule: Press 'space' when you see 1-back (i.e. the same letter as the one that appeared 1 letter ago.),h,None,,,,,,,,,0,11,11,11,0,2,2,2,,,,,,,,,,,,,,,,,,,,,,,,,,,,,,,,,,,,,,,,,,,,,,,,,,,,,,,,,,,,,,,,,,,,,1.4998,701.9472795000001,None,None,1,701.9472795000001,None,,P025,fencog,2,Post,2022_Feb_22_1155,N-Back (New Version 2021),2021.1.4,120.59264047282858,
,,,,Conditions/Version_1/oneback(3)_v1.xlsx,New rule: Press 'space' when you see 1-back (i.e. the same letter as the one that appeared 1 letter ago.),g,None,,,,,,,,,0,11,11,11,0,3,3,3,,,,,,,,,,,,,,,,,,,,,,,,,,,,,,,,,,,,,,,,,,,,,,,,,,,,,,,,,,,,,,,,,,,,,1.2146,705.1677583000001,None,None,1,705.1677583000001,None,,P025,fencog,2,Post,2022_Feb_22_1155,N-Back (New Version 2021),2021.1.4,120.59264047282858,
,,,,Conditions/Version_1/oneback(3)_v1.xlsx,New rule: Press 'space' when you see 1-back (i.e. the same letter as the one that appeared 1 letter ago.),n,None,,,,,,,,,0,11,11,11,0,4,4,4,,,,,,,,,,,,,,,,,,,,,,,,,,,,,,,,,,,,,,,,,,,,,,,,,,,,,,,,,,,,,,,,,,,,,1.1836,708.3610190999998,None,None,1,708.3610190999998,None,,P025,fencog,2,Post,2022_Feb_22_1155,N-Back (New Version 2021),2021.1.4,120.59264047282858,
,,,,Conditions/Version_1/oneback(3)_v1.xlsx,New rule: Press 'space' when you see 1-back (i.e. the same letter as the one that appeared 1 letter ago.),z,None,,,,,,,,,0,11,11,11,0,5,5,5,,,,,,,,,,,,,,,,,,,,,,,,,,,,,,,,,,,,,,,,,,,,,,,,,,,,,,,,,,,,,,,,,,,,,1.0596,711.4325508000002,None,None,1,711.4325508000002,None,,P025,fencog,2,Post,2022_Feb_22_1155,N-Back (New Version 2021),2021.1.4,120.59264047282858,
,,,,Conditions/Version_1/oneback(3)_v1.xlsx,New rule: Press 'space' when you see 1-back (i.e. the same letter as the one that appeared 1 letter ago.),X,None,,,,,,,,,0,11,11,11,0,6,6,6,,,,,,,,,,,,,,,,,,,,,,,,,,,,,,,,,,,,,,,,,,,,,,,,,,,,,,,,,,,,,,,,,,,,,1.5742,715.0076806000006,None,None,1,715.0076806000006,None,,P025,fencog,2,Post,2022_Feb_22_1155,N-Back (New Version 2021),2021.1.4,120.59264047282858,
,,,,Conditions/Version_1/oneback(3)_v1.xlsx,New rule: Press 'space' when you see 1-back (i.e. the same letter as the one that appeared 1 letter ago.),r,None,,,,,,,,,0,11,11,11,0,7,7,7,,,,,,,,,,,,,,,,,,,,,,,,,,,,,,,,,,,,,,,,,,,,,,,,,,,,,,,,,,,,,,,,,,,,,1.1588,718.1723283000001,None,None,1,718.1723283000001,None,,P025,fencog,2,Post,2022_Feb_22_1155,N-Back (New Version 2021),2021.1.4,120.59264047282858,
,,,,Conditions/Version_1/oneback(3)_v1.xlsx,New rule: Press 'space' when you see 1-back (i.e. the same letter as the one that appeared 1 letter ago.),r,space,,,,,,,,,0,11,11,11,0,8,8,8,,,,,,,,,,,,,,,,,,,,,,,,,,,,,,,,,,,,,,,,,,,,,,,,,,,,,,,,,,,,,,,,,,,,,1.5618,721.7380545000005,None,space,1,721.7380545000005,None,0.6752699999997276,P025,fencog,2,Post,2022_Feb_22_1155,N-Back (New Version 2021),2021.1.4,120.59264047282858,
,,,,Conditions/Version_1/oneback(3)_v1.xlsx,New rule: Press 'space' when you see 1-back (i.e. the same letter as the one that appeared 1 letter ago.),P,None,,,,,,,,,0,11,11,11,0,9,9,9,,,,,,,,,,,,,,,,,,,,,,,,,,,,,,,,,,,,,,,,,,,,,,,,,,,,,,,,,,,,,,,,,,,,,1.8346,725.6171788000001,None,None,1,725.6171788000001,None,,P025,fencog,2,Post,2022_Feb_22_1155,N-Back (New Version 2021),2021.1.4,120.59264047282858,
,,,,Conditions/Version_1/oneback(3)_v1.xlsx,New rule: Press 'space' when you see 1-back (i.e. the same letter as the one that appeared 1 letter ago.),,,,,,,,,,,0,11,11,11,,,,,,,,,,,,,,,,,,,,,,,,,,,,,,,,,,,,,,,,,,,,,,,,,,,,,,,,,,,,,,,,,,,,,,,,,,,,,,,,,P025,fencog,2,Post,2022_Feb_22_1155,N-Back (New Version 2021),2021.1.4,120.59264047282858,
,,,,Conditions/Version_1/twoback(4)_v1.xlsx,New rule: Press 'space' when you see 2-back (i.e. the same letter as the one that appeared 2 letters ago.),r,None,,,,,,,,,0,12,12,12,0,0,0,0,,,,,,,,,,,,,,,,,,,,,,,,,,,,,,,,,,,,,,,,,,,,,,,,,,,,,,,,,,,727.6277605000005,None,730.6126107999999,None,space,0.8256615000000238,730.6126107999999,None,727.6277605000005,None,1.4936,732.9604706999999,None,None,1,732.9604706999999,None,,P025,fencog,2,Post,2022_Feb_22_1155,N-Back (New Version 2021),2021.1.4,120.59264047282858,
,,,,Conditions/Version_1/twoback(4)_v1.xlsx,New rule: Press 'space' when you see 2-back (i.e. the same letter as the one that appeared 2 letters ago.),T,None,,,,,,,,,0,12,12,12,0,1,1,1,,,,,,,,,,,,,,,,,,,,,,,,,,,,,,,,,,,,,,,,,,,,,,,,,,,,,,,,,,,,,,,,,,,,,1.1154,736.0836773000001,None,None,1,736.0836773000001,None,,P025,fencog,2,Post,2022_Feb_22_1155,N-Back (New Version 2021),2021.1.4,120.59264047282858,
,,,,Conditions/Version_1/twoback(4)_v1.xlsx,New rule: Press 'space' when you see 2-back (i.e. the same letter as the one that appeared 2 letters ago.),o,None,,,,,,,,,0,12,12,12,0,2,2,2,,,,,,,,,,,,,,,,,,,,,,,,,,,,,,,,,,,,,,,,,,,,,,,,,,,,,,,,,,,,,,,,,,,,,1.0844,739.1769187999998,None,None,1,739.1769187999998,None,,P025,fencog,2,Post,2022_Feb_22_1155,N-Back (New Version 2021),2021.1.4,120.59264047282858,
,,,,Conditions/Version_1/twoback(4)_v1.xlsx,New rule: Press 'space' when you see 2-back (i.e. the same letter as the one that appeared 2 letters ago.),p,None,,,,,,,,,0,12,12,12,0,3,3,3,,,,,,,,,,,,,,,,,,,,,,,,,,,,,,,,,,,,,,,,,,,,,,,,,,,,,,,,,,,,,,,,,,,,,1.0162,742.2068202999999,None,None,1,742.2068202999999,None,,P025,fencog,2,Post,2022_Feb_22_1155,N-Back (New Version 2021),2021.1.4,120.59264047282858,
,,,,Conditions/Version_1/twoback(4)_v1.xlsx,New rule: Press 'space' when you see 2-back (i.e. the same letter as the one that appeared 2 letters ago.),p,None,,,,,,,,,0,12,12,12,0,4,4,4,,,,,,,,,,,,,,,,,,,,,,,,,,,,,,,,,,,,,,,,,,,,,,,,,,,,,,,,,,,,,,,,,,,,,1.0906,745.3060934000005,None,None,1,745.3060934000005,None,,P025,fencog,2,Post,2022_Feb_22_1155,N-Back (New Version 2021),2021.1.4,120.59264047282858,
,,,,Conditions/Version_1/twoback(4)_v1.xlsx,New rule: Press 'space' when you see 2-back (i.e. the same letter as the one that appeared 2 letters ago.),y,None,,,,,,,,,0,12,12,12,0,5,5,5,,,,,,,,,,,,,,,,,,,,,,,,,,,,,,,,,,,,,,,,,,,,,,,,,,,,,,,,,,,,,,,,,,,,,1.2828,748.5884494000002,None,None,1,748.5884494000002,None,,P025,fencog,2,Post,2022_Feb_22_1155,N-Back (New Version 2021),2021.1.4,120.59264047282858,
,,,,Conditions/Version_1/twoback(4)_v1.xlsx,New rule: Press 'space' when you see 2-back (i.e. the same letter as the one that appeared 2 letters ago.),P,space,,,,,,,,,0,12,12,12,0,6,6,6,,,,,,,,,,,,,,,,,,,,,,,,,,,,,,,,,,,,,,,,,,,,,,,,,,,,,,,,,,,,,,,,,,,,,1.7044,752.3023855000001,None,space,1,752.3023855000001,None,1.1854713000002448,P025,fencog,2,Post,2022_Feb_22_1155,N-Back (New Version 2021),2021.1.4,120.59264047282858,
,,,,Conditions/Version_1/twoback(4)_v1.xlsx,New rule: Press 'space' when you see 2-back (i.e. the same letter as the one that appeared 2 letters ago.),y,None,,,,,,,,,0,12,12,12,0,7,7,7,,,,,,,,,,,,,,,,,,,,,,,,,,,,,,,,,,,,,,,,,,,,,,,,,,,,,,,,,,,,,,,,,,,,,1.6858,755.9955016000004,None,space,0,755.9955016000004,None,1.124715699999797,P025,fencog,2,Post,2022_Feb_22_1155,N-Back (New Version 2021),2021.1.4,120.59264047282858,
,,,,Conditions/Version_1/twoback(4)_v1.xlsx,New rule: Press 'space' when you see 2-back (i.e. the same letter as the one that appeared 2 letters ago.),y,space,,,,,,,,,0,12,12,12,0,8,8,8,,,,,,,,,,,,,,,,,,,,,,,,,,,,,,,,,,,,,,,,,,,,,,,,,,,,,,,,,,,,,,,,,,,,,1.4006,759.4103309000002,None,None,0,759.4103309000002,None,,P025,fencog,2,Post,2022_Feb_22_1155,N-Back (New Version 2021),2021.1.4,120.59264047282858,
,,,,Conditions/Version_1/twoback(4)_v1.xlsx,New rule: Press 'space' when you see 2-back (i.e. the same letter as the one that appeared 2 letters ago.),,,,,,,,,,,0,12,12,12,,,,,,,,,,,,,,,,,,,,,,,,,,,,,,,,,,,,,,,,,,,,,,,,,,,,,,,,,,,,,,,,,,,,,,,,,,,,,,,,,P025,fencog,2,Post,2022_Feb_22_1155,N-Back (New Version 2021),2021.1.4,120.59264047282858,
,,,,Conditions/Version_1/zeroback(4)_v1.xlsx,New rule: Press 'space' when you see the letter 'x' or 'X'.,o,None,,,,,,,,,0,13,13,13,0,0,0,0,,,,,,,,,,,,,,,,,,,,,,,,,,,,,,,,,,,,,,,,,,,,,,,,,,,,,,,,,,,761.4318127000006,None,764.4187698000005,None,space,0.5257129000001441,764.4187698000005,None,761.4318127000006,None,1.0658,766.0652657999999,None,None,1,766.0652657999999,None,,P025,fencog,2,Post,2022_Feb_22_1155,N-Back (New Version 2021),2021.1.4,120.59264047282858,
,,,,Conditions/Version_1/zeroback(4)_v1.xlsx,New rule: Press 'space' when you see the letter 'x' or 'X'.,X,space,,,,,,,,,0,13,13,13,0,1,1,1,,,,,,,,,,,,,,,,,,,,,,,,,,,,,,,,,,,,,,,,,,,,,,,,,,,,,,,,,,,,,,,,,,,,,1.3572,769.4283406000004,None,space,1,769.4283406000004,None,0.6767861000007542,P025,fencog,2,Post,2022_Feb_22_1155,N-Back (New Version 2021),2021.1.4,120.59264047282858,
,,,,Conditions/Version_1/zeroback(4)_v1.xlsx,New rule: Press 'space' when you see the letter 'x' or 'X'.,p,None,,,,,,,,,0,13,13,13,0,2,2,2,,,,,,,,,,,,,,,,,,,,,,,,,,,,,,,,,,,,,,,,,,,,,,,,,,,,,,,,,,,,,,,,,,,,,1.3076,772.7394637000007,None,None,1,772.7394637000007,None,,P025,fencog,2,Post,2022_Feb_22_1155,N-Back (New Version 2021),2021.1.4,120.59264047282858,
,,,,Conditions/Version_1/zeroback(4)_v1.xlsx,New rule: Press 'space' when you see the letter 'x' or 'X'.,m,None,,,,,,,,,0,13,13,13,0,3,3,3,,,,,,,,,,,,,,,,,,,,,,,,,,,,,,,,,,,,,,,,,,,,,,,,,,,,,,,,,,,,,,,,,,,,,1.7106,776.4554717000001,None,None,1,776.4554717000001,None,,P025,fencog,2,Post,2022_Feb_22_1155,N-Back (New Version 2021),2021.1.4,120.59264047282858,
,,,,Conditions/Version_1/zeroback(4)_v1.xlsx,New rule: Press 'space' when you see the letter 'x' or 'X'.,n,None,,,,,,,,,0,13,13,13,0,4,4,4,,,,,,,,,,,,,,,,,,,,,,,,,,,,,,,,,,,,,,,,,,,,,,,,,,,,,,,,,,,,,,,,,,,,,1.8036,780.2642254000002,None,None,1,780.2642254000002,None,,P025,fencog,2,Post,2022_Feb_22_1155,N-Back (New Version 2021),2021.1.4,120.59264047282858,
,,,,Conditions/Version_1/zeroback(4)_v1.xlsx,New rule: Press 'space' when you see the letter 'x' or 'X'.,m,None,,,,,,,,,0,13,13,13,0,5,5,5,,,,,,,,,,,,,,,,,,,,,,,,,,,,,,,,,,,,,,,,,,,,,,,,,,,,,,,,,,,,,,,,,,,,,1.2828,783.5537186000001,None,None,1,783.5537186000001,None,,P025,fencog,2,Post,2022_Feb_22_1155,N-Back (New Version 2021),2021.1.4,120.59264047282858,
,,,,Conditions/Version_1/zeroback(4)_v1.xlsx,New rule: Press 'space' when you see the letter 'x' or 'X'.,C,None,,,,,,,,,0,13,13,13,0,6,6,6,,,,,,,,,,,,,,,,,,,,,,,,,,,,,,,,,,,,,,,,,,,,,,,,,,,,,,,,,,,,,,,,,,,,,1.0596,786.6270678999999,None,None,1,786.6270678999999,None,,P025,fencog,2,Post,2022_Feb_22_1155,N-Back (New Version 2021),2021.1.4,120.59264047282858,
,,,,Conditions/Version_1/zeroback(4)_v1.xlsx,New rule: Press 'space' when you see the letter 'x' or 'X'.,m,None,,,,,,,,,0,13,13,13,0,7,7,7,,,,,,,,,,,,,,,,,,,,,,,,,,,,,,,,,,,,,,,,,,,,,,,,,,,,,,,,,,,,,,,,,,,,,1.0286,789.6594722999998,None,None,1,789.6594722999998,None,,P025,fencog,2,Post,2022_Feb_22_1155,N-Back (New Version 2021),2021.1.4,120.59264047282858,
,,,,Conditions/Version_1/zeroback(4)_v1.xlsx,New rule: Press 'space' when you see the letter 'x' or 'X'.,p,None,,,,,,,,,0,13,13,13,0,8,8,8,,,,,,,,,,,,,,,,,,,,,,,,,,,,,,,,,,,,,,,,,,,,,,,,,,,,,,,,,,,,,,,,,,,,,1.1588,792.8168839,None,None,1,792.8168839,None,,P025,fencog,2,Post,2022_Feb_22_1155,N-Back (New Version 2021),2021.1.4,120.59264047282858,
,,,,Conditions/Version_1/zeroback(4)_v1.xlsx,New rule: Press 'space' when you see the letter 'x' or 'X'.,X,space,,,,,,,,,0,13,13,13,0,9,9,9,,,,,,,,,,,,,,,,,,,,,,,,,,,,,,,,,,,,,,,,,,,,,,,,,,,,,,,,,,,,,,,,,,,,,1.4626,796.2825432,None,space,1,796.2825432,None,0.45589749999999185,P025,fencog,2,Post,2022_Feb_22_1155,N-Back (New Version 2021),2021.1.4,120.59264047282858,
,,,,Conditions/Version_1/zeroback(4)_v1.xlsx,New rule: Press 'space' when you see the letter 'x' or 'X'.,,,,,,,,,,,0,13,13,13,,,,,,,,,,,,,,,,,,,,,,,,,,,,,,,,,,,,,,,,,,,,,,,,,,,,,,,,,,,,,,,,,,,,,,,,,,,,,,,,,P025,fencog,2,Post,2022_Feb_22_1155,N-Back (New Version 2021),2021.1.4,120.59264047282858,
,,,,Conditions/Version_1/oneback(4)_v1.xlsx,New rule: Press 'space' when you see 1-back (i.e. the same letter as the one that appeared 1 letter ago.),w,None,,,,,,,,,0,14,14,14,0,0,0,0,,,,,,,,,,,,,,,,,,,,,,,,,,,,,,,,,,,,,,,,,,,,,,,,,,,,,,,,,,,798.3024376000003,None,801.2916654,None,space,2.1543847999992067,801.2916654,None,798.3024376000003,None,1.3696,804.8466686000002,None,None,1,804.8466686000002,None,,P025,fencog,2,Post,2022_Feb_22_1155,N-Back (New Version 2021),2021.1.4,120.59264047282858,
,,,,Conditions/Version_1/oneback(4)_v1.xlsx,New rule: Press 'space' when you see 1-back (i.e. the same letter as the one that appeared 1 letter ago.),q,None,,,,,,,,,0,14,14,14,0,1,1,1,,,,,,,,,,,,,,,,,,,,,,,,,,,,,,,,,,,,,,,,,,,,,,,,,,,,,,,,,,,,,,,,,,,,,1.5804,808.4317738,None,None,1,808.4317738,None,,P025,fencog,2,Post,2022_Feb_22_1155,N-Back (New Version 2021),2021.1.4,120.59264047282858,
,,,,Conditions/Version_1/oneback(4)_v1.xlsx,New rule: Press 'space' when you see 1-back (i.e. the same letter as the one that appeared 1 letter ago.),i,None,,,,,,,,,0,14,14,14,0,2,2,2,,,,,,,,,,,,,,,,,,,,,,,,,,,,,,,,,,,,,,,,,,,,,,,,,,,,,,,,,,,,,,,,,,,,,1.7602,812.2077767999999,None,None,1,812.2077767999999,None,,P025,fencog,2,Post,2022_Feb_22_1155,N-Back (New Version 2021),2021.1.4,120.59264047282858,
,,,,Conditions/Version_1/oneback(4)_v1.xlsx,New rule: Press 'space' when you see 1-back (i.e. the same letter as the one that appeared 1 letter ago.),t,None,,,,,,,,,0,14,14,14,0,3,3,3,,,,,,,,,,,,,,,,,,,,,,,,,,,,,,,,,,,,,,,,,,,,,,,,,,,,,,,,,,,,,,,,,,,,,1.5866,815.8094802000005,None,None,1,815.8094802000005,None,,P025,fencog,2,Post,2022_Feb_22_1155,N-Back (New Version 2021),2021.1.4,120.59264047282858,
,,,,Conditions/Version_1/oneback(4)_v1.xlsx,New rule: Press 'space' when you see 1-back (i.e. the same letter as the one that appeared 1 letter ago.),v,None,,,,,,,,,0,14,14,14,0,4,4,4,,,,,,,,,,,,,,,,,,,,,,,,,,,,,,,,,,,,,,,,,,,,,,,,,,,,,,,,,,,,,,,,,,,,,1.6424,819.4534609000002,None,None,1,819.4534609000002,None,,P025,fencog,2,Post,2022_Feb_22_1155,N-Back (New Version 2021),2021.1.4,120.59264047282858,
,,,,Conditions/Version_1/oneback(4)_v1.xlsx,New rule: Press 'space' when you see 1-back (i.e. the same letter as the one that appeared 1 letter ago.),V,space,,,,,,,,,0,14,14,14,0,5,5,5,,,,,,,,,,,,,,,,,,,,,,,,,,,,,,,,,,,,,,,,,,,,,,,,,,,,,,,,,,,,,,,,,,,,,1.9834,823.4443325000002,None,space,1,823.4443325000002,None,0.5222728999997344,P025,fencog,2,Post,2022_Feb_22_1155,N-Back (New Version 2021),2021.1.4,120.59264047282858,
,,,,Conditions/Version_1/oneback(4)_v1.xlsx,New rule: Press 'space' when you see 1-back (i.e. the same letter as the one that appeared 1 letter ago.),v,space,,,,,,,,,0,14,14,14,0,6,6,6,,,,,,,,,,,,,,,,,,,,,,,,,,,,,,,,,,,,,,,,,,,,,,,,,,,,,,,,,,,,,,,,,,,,,1.4006,826.8569157000002,None,space,1,826.8569157000002,None,1.0656694999997853,P025,fencog,2,Post,2022_Feb_22_1155,N-Back (New Version 2021),2021.1.4,120.59264047282858,
,,,,Conditions/Version_1/oneback(4)_v1.xlsx,New rule: Press 'space' when you see 1-back (i.e. the same letter as the one that appeared 1 letter ago.),p,None,,,,,,,,,0,14,14,14,0,7,7,7,,,,,,,,,,,,,,,,,,,,,,,,,,,,,,,,,,,,,,,,,,,,,,,,,,,,,,,,,,,,,,,,,,,,,1.8036,830.6653365000002,None,space,0,830.6653365000002,None,1.5346730000001116,P025,fencog,2,Post,2022_Feb_22_1155,N-Back (New Version 2021),2021.1.4,120.59264047282858,
,,,,Conditions/Version_1/oneback(4)_v1.xlsx,New rule: Press 'space' when you see 1-back (i.e. the same letter as the one that appeared 1 letter ago.),w,None,,,,,,,,,0,14,14,14,0,8,8,8,,,,,,,,,,,,,,,,,,,,,,,,,,,,,,,,,,,,,,,,,,,,,,,,,,,,,,,,,,,,,,,,,,,,,1.1278,833.8129414000005,None,None,1,833.8129414000005,None,,P025,fencog,2,Post,2022_Feb_22_1155,N-Back (New Version 2021),2021.1.4,120.59264047282858,
,,,,Conditions/Version_1/oneback(4)_v1.xlsx,New rule: Press 'space' when you see 1-back (i.e. the same letter as the one that appeared 1 letter ago.),W,space,,,,,,,,,0,14,14,14,0,9,9,9,,,,,,,,,,,,,,,,,,,,,,,,,,,,,,,,,,,,,,,,,,,,,,,,,,,,,,,,,,,,,,,,,,,,,1.5246,837.3371735000001,None,space,1,837.3371735000001,None,0.623683699999674,P025,fencog,2,Post,2022_Feb_22_1155,N-Back (New Version 2021),2021.1.4,120.59264047282858,
,,,,Conditions/Version_1/oneback(4)_v1.xlsx,New rule: Press 'space' when you see 1-back (i.e. the same letter as the one that appeared 1 letter ago.),,,,,,,,,,,0,14,14,14,,,,,,,,,,,,,,,,,,,,,,,,,,,,,,,,,,,,,,,,,,,,,,,,,,,,,,,,,,,,,,,,,,,,,,,,,,,,,,,,,P025,fencog,2,Post,2022_Feb_22_1155,N-Back (New Version 2021),2021.1.4,120.59264047282858,
,,,,Conditions/Version_1/threeback(4)_v1.xlsx,New rule: Press 'space' when you see 3-back (i.e. the same letter as the one that appeared 3 letters ago.),A,None,,,,,,,,,0,15,15,15,0,0,0,0,,,,,,,,,,,,,,,,,,,,,,,,,,,,,,,,,,,,,,,,,,,,,,,,,,,,,,,,,,,839.3594468000001,None,842.3452974000002,None,space,2.9659395999997287,842.3452974000002,None,839.3594468000001,None,1.4688,846.8035298000004,None,None,1,846.8035298000004,None,,P025,fencog,2,Post,2022_Feb_22_1155,N-Back (New Version 2021),2021.1.4,120.59264047282858,
,,,,Conditions/Version_1/threeback(4)_v1.xlsx,New rule: Press 'space' when you see 3-back (i.e. the same letter as the one that appeared 3 letters ago.),n,None,,,,,,,,,0,15,15,15,0,1,1,1,,,,,,,,,,,,,,,,,,,,,,,,,,,,,,,,,,,,,,,,,,,,,,,,,,,,,,,,,,,,,,,,,,,,,1.0906,849.9000524000003,None,None,1,849.9000524000003,None,,P025,fencog,2,Post,2022_Feb_22_1155,N-Back (New Version 2021),2021.1.4,120.59264047282858,
,,,,Conditions/Version_1/threeback(4)_v1.xlsx,New rule: Press 'space' when you see 3-back (i.e. the same letter as the one that appeared 3 letters ago.),g,None,,,,,,,,,0,15,15,15,0,2,2,2,,,,,,,,,,,,,,,,,,,,,,,,,,,,,,,,,,,,,,,,,,,,,,,,,,,,,,,,,,,,,,,,,,,,,1.8904,853.7907414000001,None,None,1,853.7907414000001,None,,P025,fencog,2,Post,2022_Feb_22_1155,N-Back (New Version 2021),2021.1.4,120.59264047282858,
,,,,Conditions/Version_1/threeback(4)_v1.xlsx,New rule: Press 'space' when you see 3-back (i.e. the same letter as the one that appeared 3 letters ago.),A,space,,,,,,,,,0,15,15,15,0,3,3,3,,,,,,,,,,,,,,,,,,,,,,,,,,,,,,,,,,,,,,,,,,,,,,,,,,,,,,,,,,,,,,,,,,,,,1.2146,857.0062812000006,None,space,1,857.0062812000006,None,0.5840775999995458,P025,fencog,2,Post,2022_Feb_22_1155,N-Back (New Version 2021),2021.1.4,120.59264047282858,
,,,,Conditions/Version_1/threeback(4)_v1.xlsx,New rule: Press 'space' when you see 3-back (i.e. the same letter as the one that appeared 3 letters ago.),p,None,,,,,,,,,0,15,15,15,0,4,4,4,,,,,,,,,,,,,,,,,,,,,,,,,,,,,,,,,,,,,,,,,,,,,,,,,,,,,,,,,,,,,,,,,,,,,1.3448,860.3577617000001,None,None,1,860.3577617000001,None,,P025,fencog,2,Post,2022_Feb_22_1155,N-Back (New Version 2021),2021.1.4,120.59264047282858,
,,,,Conditions/Version_1/threeback(4)_v1.xlsx,New rule: Press 'space' when you see 3-back (i.e. the same letter as the one that appeared 3 letters ago.),O,None,,,,,,,,,0,15,15,15,0,5,5,5,,,,,,,,,,,,,,,,,,,,,,,,,,,,,,,,,,,,,,,,,,,,,,,,,,,,,,,,,,,,,,,,,,,,,1.2642,863.6310174999999,None,None,1,863.6310174999999,None,,P025,fencog,2,Post,2022_Feb_22_1155,N-Back (New Version 2021),2021.1.4,120.59264047282858,
,,,,Conditions/Version_1/threeback(4)_v1.xlsx,New rule: Press 'space' when you see 3-back (i.e. the same letter as the one that appeared 3 letters ago.),a,space,,,,,,,,,0,15,15,15,0,6,6,6,,,,,,,,,,,,,,,,,,,,,,,,,,,,,,,,,,,,,,,,,,,,,,,,,,,,,,,,,,,,,,,,,,,,,1.4068,867.0500851000006,None,space,1,867.0500851000006,None,1.511278900000434,P025,fencog,2,Post,2022_Feb_22_1155,N-Back (New Version 2021),2021.1.4,120.59264047282858,
,,,,Conditions/Version_1/threeback(4)_v1.xlsx,New rule: Press 'space' when you see 3-back (i.e. the same letter as the one that appeared 3 letters ago.),p,space,,,,,,,,,0,15,15,15,0,7,7,7,,,,,,,,,,,,,,,,,,,,,,,,,,,,,,,,,,,,,,,,,,,,,,,,,,,,,,,,,,,,,,,,,,,,,1.8098,870.8688435000004,None,None,0,870.8688435000004,None,,P025,fencog,2,Post,2022_Feb_22_1155,N-Back (New Version 2021),2021.1.4,120.59264047282858,
,,,,Conditions/Version_1/threeback(4)_v1.xlsx,New rule: Press 'space' when you see 3-back (i.e. the same letter as the one that appeared 3 letters ago.),x,None,,,,,,,,,0,15,15,15,0,8,8,8,,,,,,,,,,,,,,,,,,,,,,,,,,,,,,,,,,,,,,,,,,,,,,,,,,,,,,,,,,,,,,,,,,,,,1.8966,874.7705506000002,None,None,1,874.7705506000002,None,,P025,fencog,2,Post,2022_Feb_22_1155,N-Back (New Version 2021),2021.1.4,120.59264047282858,
,,,,Conditions/Version_1/threeback(4)_v1.xlsx,New rule: Press 'space' when you see 3-back (i.e. the same letter as the one that appeared 3 letters ago.),X,None,,,,,,,,,0,15,15,15,0,9,9,9,,,,,,,,,,,,,,,,,,,,,,,,,,,,,,,,,,,,,,,,,,,,,,,,,,,,,,,,,,,,,,,,,,,,,1.413,878.1917807999998,None,None,1,878.1917807999998,None,,P025,fencog,2,Post,2022_Feb_22_1155,N-Back (New Version 2021),2021.1.4,120.59264047282858,
,,,,Conditions/Version_1/threeback(4)_v1.xlsx,New rule: Press 'space' when you see 3-back (i.e. the same letter as the one that appeared 3 letters ago.),,,,,,,,,,,0,15,15,15,,,,,,,,,,,,,,,,,,,,,,,,,,,,,,,,,,,,,,,,,,,,,,,,,,,,,,,,,,,,,,,,,,,,,,,,,,,,,,,,,P025,fencog,2,Post,2022_Feb_22_1155,N-Back (New Version 2021),2021.1.4,120.59264047282858,
