CondFileP,InstructionsP,LettersDisplayedP,CorrectnessP,CondFile,Instructions,LettersDisplayed,Correctness,practicetrials.thisRepN,practicetrials.thisTrialN,practicetrials.thisN,practicetrials.thisIndex,InnerLoopPractice.thisRepN,InnerLoopPractice.thisTrialN,InnerLoopPractice.thisN,InnerLoopPractice.thisIndex,trials.thisRepN,trials.thisTrialN,trials.thisN,trials.thisIndex,InnerLoop.thisRepN,InnerLoop.thisTrialN,InnerLoop.thisN,InnerLoop.thisIndex,TaskVersionText.started,TaskVersionText.stopped,InstrKey1.keys,InstrKey1.rt,InstrKey1.started,InstrKey1.stopped,text.started,text.stopped,key_resp_4.keys,key_resp_4.rt,key_resp_4.started,key_resp_4.stopped,text_2.started,text_2.stopped,key_resp_3.keys,key_resp_3.rt,key_resp_3.started,key_resp_3.stopped,text_3.started,text_3.stopped,key_resp_2.keys,key_resp_2.rt,key_resp_2.started,key_resp_2.stopped,PractIn1.started,PractIn1.stopped,PractIn2.started,PractIn2.stopped,PractInstructionPass.keys,PractInstructionPass.rt,PractInstructionPass.started,PractInstructionPass.stopped,PractBlock1.started,PractBlock1.stopped,ISIjitterPractice,ISI_Pract_Fixation.started,ISI_Pract_Fixation.stopped,N_backP.started,N_backP.stopped,KeyPractice.keys,KeyPractice.corr,KeyPractice.started,KeyPractice.stopped,text_4.started,text_4.stopped,KeyPractice.rt,TransitionText.started,TransitionText.stopped,key_resp_6.keys,key_resp_6.rt,key_resp_6.started,key_resp_6.stopped,text_5.started,text_5.stopped,key_resp_5.keys,key_resp_5.rt,key_resp_5.started,key_resp_5.stopped,MainInt1.started,MainInt1.stopped,MainInt2.started,MainInt2.stopped,InstructionPass.keys,InstructionPass.rt,InstructionPass.started,InstructionPass.stopped,Blocks1.started,Blocks1.stopped,ISIjitter,N_backD.started,N_backD.stopped,key_resp.keys,key_resp.corr,key_resp.started,key_resp.stopped,key_resp.rt,participant,Study Name,Task Version (required to run),PRE/POST,date,expName,psychopyVersion,frameRate,
,,,,,,,,,,,,,,,,,,,,,,,,29.54754519998096,None,space,18.85669320006855,30.043419299996458,None,,,,,,,,,,,,,,,,,,,,,,,,,,,,,,,,,,,,,,,,,,,,,,,,,,,,,,,,,,,,,,,,,,,,,,,P025,fencog,1,Pre,2022_Feb_15_1102,N-Back (New Version 2021),2021.1.4,120.72803839699186,
,,,,,,,,,,,,,,,,,,,,,,,,,,,,,,48.933724500006065,None,space,8.382342500030063,49.42985830001999,None,,,,,,,,,,,,,,,,,,,,,,,,,,,,,,,,,,,,,,,,,,,,,,,,,,,,,,,,,,,,,,,,,P025,fencog,1,Pre,2022_Feb_15_1102,N-Back (New Version 2021),2021.1.4,120.72803839699186,
,,,,,,,,,,,,,,,,,,,,,,,,,,,,,,,,,,,,57.851448100060225,None,space,8.356106400024146,58.344099699985236,None,,,,,,,,,,,,,,,,,,,,,,,,,,,,,,,,,,,,,,,,,,,,,,,,,,,,,,,,,,,P025,fencog,1,Pre,2022_Feb_15_1102,N-Back (New Version 2021),2021.1.4,120.72803839699186,
,,,,,,,,,,,,,,,,,,,,,,,,,,,,,,,,,,,,,,,,,,66.72675570007414,None,space,8.85172869998496,67.2164237999823,None,,,,,,,,,,,,,,,,,,,,,,,,,,,,,,,,,,,,,,,,,,,,,,,,,,,,,P025,fencog,1,Pre,2022_Feb_15_1102,N-Back (New Version 2021),2021.1.4,120.72803839699186,
Conditions/Version_1Pr/zeroback(1)_v1.xlsx,Rule: Press 'space' when you see the letter 'x' or 'X'.,Z,None,,,,,0,0,0,0,0,0,0,0,,,,,,,,,,,,,,,,,,,,,,,,,,,,,,,,,77.46592540002894,None,80.44674060004763,None,space,2.429421699955128,80.44674060004763,None,77.46592540002894,None,1.215,82.90270590002183,None,84.12245540006552,None,None,1,84.12245540006552,None,86.12723089999054,None,,,,,,,,,,,,,,,,,,,,,,,,,,,,,,,,P025,fencog,1,Pre,2022_Feb_15_1102,N-Back (New Version 2021),2021.1.4,120.72803839699186,
Conditions/Version_1Pr/zeroback(1)_v1.xlsx,Rule: Press 'space' when you see the letter 'x' or 'X'.,r,None,,,,,0,0,0,0,0,1,1,1,,,,,,,,,,,,,,,,,,,,,,,,,,,,,,,,,,,,,,,,,,,1.265,87.62625680002384,None,88.89289020001888,None,None,1,88.89289020001888,None,90.89170899998862,None,,,,,,,,,,,,,,,,,,,,,,,,,,,,,,,,P025,fencog,1,Pre,2022_Feb_15_1102,N-Back (New Version 2021),2021.1.4,120.72803839699186,
Conditions/Version_1Pr/zeroback(1)_v1.xlsx,Rule: Press 'space' when you see the letter 'x' or 'X'.,X,space,,,,,0,0,0,0,0,2,2,2,,,,,,,,,,,,,,,,,,,,,,,,,,,,,,,,,,,,,,,,,,,1.69,92.39149589999579,None,94.08415350003634,None,space,1,94.08415350003634,None,94.50804190000053,None,0.40820639999583364,,,,,,,,,,,,,,,,,,,,,,,,,,,,,,,P025,fencog,1,Pre,2022_Feb_15_1102,N-Back (New Version 2021),2021.1.4,120.72803839699186,
Conditions/Version_1Pr/zeroback(1)_v1.xlsx,Rule: Press 'space' when you see the letter 'x' or 'X'.,p,None,,,,,0,0,0,0,0,3,3,3,,,,,,,,,,,,,,,,,,,,,,,,,,,,,,,,,,,,,,,,,,,1.99,96.00708050001413,None,97.99865419999696,None,None,1,97.99865419999696,None,100.00563550007064,None,,,,,,,,,,,,,,,,,,,,,,,,,,,,,,,,P025,fencog,1,Pre,2022_Feb_15_1102,N-Back (New Version 2021),2021.1.4,120.72803839699186,
Conditions/Version_1Pr/zeroback(1)_v1.xlsx,Rule: Press 'space' when you see the letter 'x' or 'X'.,w,None,,,,,0,0,0,0,0,4,4,4,,,,,,,,,,,,,,,,,,,,,,,,,,,,,,,,,,,,,,,,,,,1.44,101.50508480006829,None,102.9470879000146,None,None,1,102.9470879000146,None,104.95407690003049,None,,,,,,,,,,,,,,,,,,,,,,,,,,,,,,,,P025,fencog,1,Pre,2022_Feb_15_1102,N-Back (New Version 2021),2021.1.4,120.72803839699186,
Conditions/Version_1Pr/zeroback(1)_v1.xlsx,Rule: Press 'space' when you see the letter 'x' or 'X'.,e,None,,,,,0,0,0,0,0,5,5,5,,,,,,,,,,,,,,,,,,,,,,,,,,,,,,,,,,,,,,,,,,,1.54,106.45360830007121,None,107.99525679997168,None,None,1,107.99525679997168,None,109.99544640001841,None,,,,,,,,,,,,,,,,,,,,,,,,,,,,,,,,P025,fencog,1,Pre,2022_Feb_15_1102,N-Back (New Version 2021),2021.1.4,120.72803839699186,
Conditions/Version_1Pr/zeroback(1)_v1.xlsx,Rule: Press 'space' when you see the letter 'x' or 'X'.,X,space,,,,,0,0,0,0,0,6,6,6,,,,,,,,,,,,,,,,,,,,,,,,,,,,,,,,,,,,,,,,,,,1.89,111.50235169997904,None,113.39320869999938,None,space,1,113.39320869999938,None,113.90148260002024,None,0.49877700000070035,,,,,,,,,,,,,,,,,,,,,,,,,,,,,,,P025,fencog,1,Pre,2022_Feb_15_1102,N-Back (New Version 2021),2021.1.4,120.72803839699186,
Conditions/Version_1Pr/zeroback(1)_v1.xlsx,Rule: Press 'space' when you see the letter 'x' or 'X'.,x,space,,,,,0,0,0,0,0,7,7,7,,,,,,,,,,,,,,,,,,,,,,,,,,,,,,,,,,,,,,,,,,,1.865,115.40091840003151,None,117.26761880004779,None,space,1,117.26761880004779,None,117.70108240004629,None,0.4244143000105396,,,,,,,,,,,,,,,,,,,,,,,,,,,,,,,P025,fencog,1,Pre,2022_Feb_15_1102,N-Back (New Version 2021),2021.1.4,120.72803839699186,
Conditions/Version_1Pr/zeroback(1)_v1.xlsx,Rule: Press 'space' when you see the letter 'x' or 'X'.,p,None,,,,,0,0,0,0,0,8,8,8,,,,,,,,,,,,,,,,,,,,,,,,,,,,,,,,,,,,,,,,,,,1.115,119.20814900007099,None,120.32487090001814,None,None,1,120.32487090001814,None,122.32389850006439,None,,,,,,,,,,,,,,,,,,,,,,,,,,,,,,,,P025,fencog,1,Pre,2022_Feb_15_1102,N-Back (New Version 2021),2021.1.4,120.72803839699186,
Conditions/Version_1Pr/zeroback(1)_v1.xlsx,Rule: Press 'space' when you see the letter 'x' or 'X'.,r,None,,,,,0,0,0,0,0,9,9,9,,,,,,,,,,,,,,,,,,,,,,,,,,,,,,,,,,,,,,,,,,,1.29,123.82360010000411,None,125.11482040002011,None,None,1,125.11482040002011,None,127.11418939998839,None,,,,,,,,,,,,,,,,,,,,,,,,,,,,,,,,P025,fencog,1,Pre,2022_Feb_15_1102,N-Back (New Version 2021),2021.1.4,120.72803839699186,
Conditions/Version_1Pr/zeroback(1)_v1.xlsx,Rule: Press 'space' when you see the letter 'x' or 'X'.,,,,,,,0,0,0,0,,,,,,,,,,,,,,,,,,,,,,,,,,,,,,,,,,,,,,,,,,,,,,,,,,,,,,,,,,,,,,,,,,,,,,,,,,,,,,,,,,,,,,,,,P025,fencog,1,Pre,2022_Feb_15_1102,N-Back (New Version 2021),2021.1.4,120.72803839699186,
Conditions/Version_1Pr/oneback(1)_v1.xlsx,New rule: Press 'space' when you see 1-back (i.e. the same letter as the one that appeared 1 letter ago.),a,None,,,,,0,1,1,1,0,0,0,0,,,,,,,,,,,,,,,,,,,,,,,,,,,,,,,,,128.64032370003406,None,131.62368710001465,None,space,6.804589800070971,131.62368710001465,None,128.64032370003406,None,1.89,138.4508071000455,None,140.3460757000139,None,None,1,140.3460757000139,None,142.3518903000513,None,,,,,,,,,,,,,,,,,,,,,,,,,,,,,,,,P025,fencog,1,Pre,2022_Feb_15_1102,N-Back (New Version 2021),2021.1.4,120.72803839699186,
Conditions/Version_1Pr/oneback(1)_v1.xlsx,New rule: Press 'space' when you see 1-back (i.e. the same letter as the one that appeared 1 letter ago.),x,None,,,,,0,1,1,1,0,1,1,1,,,,,,,,,,,,,,,,,,,,,,,,,,,,,,,,,,,,,,,,,,,1.69,143.8510258999886,None,145.54758320003748,None,None,1,145.54758320003748,None,147.55036900006235,None,,,,,,,,,,,,,,,,,,,,,,,,,,,,,,,,P025,fencog,1,Pre,2022_Feb_15_1102,N-Back (New Version 2021),2021.1.4,120.72803839699186,
Conditions/Version_1Pr/oneback(1)_v1.xlsx,New rule: Press 'space' when you see 1-back (i.e. the same letter as the one that appeared 1 letter ago.),g,None,,,,,0,1,1,1,0,2,2,2,,,,,,,,,,,,,,,,,,,,,,,,,,,,,,,,,,,,,,,,,,,1.44,149.04986650007777,None,150.4927364999894,None,None,1,150.4927364999894,None,152.49887650005985,None,,,,,,,,,,,,,,,,,,,,,,,,,,,,,,,,P025,fencog,1,Pre,2022_Feb_15_1102,N-Back (New Version 2021),2021.1.4,120.72803839699186,
Conditions/Version_1Pr/oneback(1)_v1.xlsx,New rule: Press 'space' when you see 1-back (i.e. the same letter as the one that appeared 1 letter ago.),G,space,,,,,0,1,1,1,0,3,3,3,,,,,,,,,,,,,,,,,,,,,,,,,,,,,,,,,,,,,,,,,,,1.64,153.99836369999684,None,155.6420595999807,None,space,1,155.6420595999807,None,156.20788260002155,None,0.5542327000293881,,,,,,,,,,,,,,,,,,,,,,,,,,,,,,,P025,fencog,1,Pre,2022_Feb_15_1102,N-Back (New Version 2021),2021.1.4,120.72803839699186,
Conditions/Version_1Pr/oneback(1)_v1.xlsx,New rule: Press 'space' when you see 1-back (i.e. the same letter as the one that appeared 1 letter ago.),u,None,,,,,0,1,1,1,0,4,4,4,,,,,,,,,,,,,,,,,,,,,,,,,,,,,,,,,,,,,,,,,,,1.94,157.71396049996838,None,159.65675820002798,None,None,1,159.65675820002798,None,161.6627781999996,None,,,,,,,,,,,,,,,,,,,,,,,,,,,,,,,,P025,fencog,1,Pre,2022_Feb_15_1102,N-Back (New Version 2021),2021.1.4,120.72803839699186,
Conditions/Version_1Pr/oneback(1)_v1.xlsx,New rule: Press 'space' when you see 1-back (i.e. the same letter as the one that appeared 1 letter ago.),y,None,,,,,0,1,1,1,0,5,5,5,,,,,,,,,,,,,,,,,,,,,,,,,,,,,,,,,,,,,,,,,,,1.09,163.16232430003583,None,164.25524900003802,None,None,1,164.25524900003802,None,166.2612606000621,None,,,,,,,,,,,,,,,,,,,,,,,,,,,,,,,,P025,fencog,1,Pre,2022_Feb_15_1102,N-Back (New Version 2021),2021.1.4,120.72803839699186,
Conditions/Version_1Pr/oneback(1)_v1.xlsx,New rule: Press 'space' when you see 1-back (i.e. the same letter as the one that appeared 1 letter ago.),y,space,,,,,0,1,1,1,0,6,6,6,,,,,,,,,,,,,,,,,,,,,,,,,,,,,,,,,,,,,,,,,,,1.14,167.76089769997634,None,168.9023204999976,None,space,1,168.9023204999976,None,169.47693540004548,None,0.5659437000285834,,,,,,,,,,,,,,,,,,,,,,,,,,,,,,,P025,fencog,1,Pre,2022_Feb_15_1102,N-Back (New Version 2021),2021.1.4,120.72803839699186,
Conditions/Version_1Pr/oneback(1)_v1.xlsx,New rule: Press 'space' when you see 1-back (i.e. the same letter as the one that appeared 1 letter ago.),k,None,,,,,0,1,1,1,0,7,7,7,,,,,,,,,,,,,,,,,,,,,,,,,,,,,,,,,,,,,,,,,,,1.115,170.97720149997622,None,172.09570419997908,None,None,1,172.09570419997908,None,174.10078360000625,None,,,,,,,,,,,,,,,,,,,,,,,,,,,,,,,,P025,fencog,1,Pre,2022_Feb_15_1102,N-Back (New Version 2021),2021.1.4,120.72803839699186,
Conditions/Version_1Pr/oneback(1)_v1.xlsx,New rule: Press 'space' when you see 1-back (i.e. the same letter as the one that appeared 1 letter ago.),c,None,,,,,0,1,1,1,0,8,8,8,,,,,,,,,,,,,,,,,,,,,,,,,,,,,,,,,,,,,,,,,,,1.165,175.60041110008024,None,176.7694371000398,None,None,1,176.7694371000398,None,178.77447020006366,None,,,,,,,,,,,,,,,,,,,,,,,,,,,,,,,,P025,fencog,1,Pre,2022_Feb_15_1102,N-Back (New Version 2021),2021.1.4,120.72803839699186,
Conditions/Version_1Pr/oneback(1)_v1.xlsx,New rule: Press 'space' when you see 1-back (i.e. the same letter as the one that appeared 1 letter ago.),r,None,,,,,0,1,1,1,0,9,9,9,,,,,,,,,,,,,,,,,,,,,,,,,,,,,,,,,,,,,,,,,,,1.765,180.27408990007825,None,182.04112890001852,None,None,1,182.04112890001852,None,184.04794760001823,None,,,,,,,,,,,,,,,,,,,,,,,,,,,,,,,,P025,fencog,1,Pre,2022_Feb_15_1102,N-Back (New Version 2021),2021.1.4,120.72803839699186,
Conditions/Version_1Pr/oneback(1)_v1.xlsx,New rule: Press 'space' when you see 1-back (i.e. the same letter as the one that appeared 1 letter ago.),,,,,,,0,1,1,1,,,,,,,,,,,,,,,,,,,,,,,,,,,,,,,,,,,,,,,,,,,,,,,,,,,,,,,,,,,,,,,,,,,,,,,,,,,,,,,,,,,,,,,,,P025,fencog,1,Pre,2022_Feb_15_1102,N-Back (New Version 2021),2021.1.4,120.72803839699186,
Conditions/Version_1Pr/twoback(1)_v1.xlsx,New rule: Press 'space' when you see 2-back (i.e. the same letter as the one that appeared 2 letters ago.),E,None,,,,,0,2,2,2,0,0,0,0,,,,,,,,,,,,,,,,,,,,,,,,,,,,,,,,,185.57263710000552,None,188.55705549998675,None,space,2.3351916000247,188.55705549998675,None,185.57263710000552,None,1.69,190.91968689998612,None,192.61256240005605,None,None,1,192.61256240005605,None,194.61984599998686,None,,,,,,,,,,,,,,,,,,,,,,,,,,,,,,,,P025,fencog,1,Pre,2022_Feb_15_1102,N-Back (New Version 2021),2021.1.4,120.72803839699186,
Conditions/Version_1Pr/twoback(1)_v1.xlsx,New rule: Press 'space' when you see 2-back (i.e. the same letter as the one that appeared 2 letters ago.),p,None,,,,,0,2,2,2,0,1,1,1,,,,,,,,,,,,,,,,,,,,,,,,,,,,,,,,,,,,,,,,,,,1.615,196.11910220002756,None,197.73529590002727,None,None,1,197.73529590002727,None,199.73501529998612,None,,,,,,,,,,,,,,,,,,,,,,,,,,,,,,,,P025,fencog,1,Pre,2022_Feb_15_1102,N-Back (New Version 2021),2021.1.4,120.72803839699186,
Conditions/Version_1Pr/twoback(1)_v1.xlsx,New rule: Press 'space' when you see 2-back (i.e. the same letter as the one that appeared 2 letters ago.),e,space,,,,,0,2,2,2,0,2,2,2,,,,,,,,,,,,,,,,,,,,,,,,,,,,,,,,,,,,,,,,,,,1.39,201.2341471000109,None,202.62676919996738,None,space,1,202.62676919996738,None,203.0785020000767,None,0.441373800043948,,,,,,,,,,,,,,,,,,,,,,,,,,,,,,,P025,fencog,1,Pre,2022_Feb_15_1102,N-Back (New Version 2021),2021.1.4,120.72803839699186,
Conditions/Version_1Pr/twoback(1)_v1.xlsx,New rule: Press 'space' when you see 2-back (i.e. the same letter as the one that appeared 2 letters ago.),s,None,,,,,0,2,2,2,0,3,3,3,,,,,,,,,,,,,,,,,,,,,,,,,,,,,,,,,,,,,,,,,,,1.44,204.58350189996418,None,206.02641110005789,None,None,1,206.02641110005789,None,208.03234100004192,None,,,,,,,,,,,,,,,,,,,,,,,,,,,,,,,,P025,fencog,1,Pre,2022_Feb_15_1102,N-Back (New Version 2021),2021.1.4,120.72803839699186,
Conditions/Version_1Pr/twoback(1)_v1.xlsx,New rule: Press 'space' when you see 2-back (i.e. the same letter as the one that appeared 2 letters ago.),S,None,,,,,0,2,2,2,0,4,4,4,,,,,,,,,,,,,,,,,,,,,,,,,,,,,,,,,,,,,,,,,,,1.99,209.53209340001922,None,211.52681399998255,None,None,1,211.52681399998255,None,213.53085530002136,None,,,,,,,,,,,,,,,,,,,,,,,,,,,,,,,,P025,fencog,1,Pre,2022_Feb_15_1102,N-Back (New Version 2021),2021.1.4,120.72803839699186,
Conditions/Version_1Pr/twoback(1)_v1.xlsx,New rule: Press 'space' when you see 2-back (i.e. the same letter as the one that appeared 2 letters ago.),s,space,,,,,0,2,2,2,0,5,5,5,,,,,,,,,,,,,,,,,,,,,,,,,,,,,,,,,,,,,,,,,,,1.465,215.03044790006243,None,216.49669000005815,None,space,1,216.49669000005815,None,216.93087060004473,None,0.4195556999184191,,,,,,,,,,,,,,,,,,,,,,,,,,,,,,,P025,fencog,1,Pre,2022_Feb_15_1102,N-Back (New Version 2021),2021.1.4,120.72803839699186,
Conditions/Version_1Pr/twoback(1)_v1.xlsx,New rule: Press 'space' when you see 2-back (i.e. the same letter as the one that appeared 2 letters ago.),P,None,,,,,0,2,2,2,0,6,6,6,,,,,,,,,,,,,,,,,,,,,,,,,,,,,,,,,,,,,,,,,,,1.94,218.43776250001974,None,220.38082920003217,None,None,1,220.38082920003217,None,222.38663279998582,None,,,,,,,,,,,,,,,,,,,,,,,,,,,,,,,,P025,fencog,1,Pre,2022_Feb_15_1102,N-Back (New Version 2021),2021.1.4,120.72803839699186,
Conditions/Version_1Pr/twoback(1)_v1.xlsx,New rule: Press 'space' when you see 2-back (i.e. the same letter as the one that appeared 2 letters ago.),C,None,,,,,0,2,2,2,0,7,7,7,,,,,,,,,,,,,,,,,,,,,,,,,,,,,,,,,,,,,,,,,,,1.865,223.88604919996578,None,225.75334599998314,None,None,1,225.75334599998314,None,227.7600863999687,None,,,,,,,,,,,,,,,,,,,,,,,,,,,,,,,,P025,fencog,1,Pre,2022_Feb_15_1102,N-Back (New Version 2021),2021.1.4,120.72803839699186,
Conditions/Version_1Pr/twoback(1)_v1.xlsx,New rule: Press 'space' when you see 2-back (i.e. the same letter as the one that appeared 2 letters ago.),x,None,,,,,0,2,2,2,0,8,8,8,,,,,,,,,,,,,,,,,,,,,,,,,,,,,,,,,,,,,,,,,,,2.015,229.25959380005952,None,231.27553390001412,None,space,0,231.27553390001412,None,232.0209219000535,None,0.7285137999569997,,,,,,,,,,,,,,,,,,,,,,,,,,,,,,,P025,fencog,1,Pre,2022_Feb_15_1102,N-Back (New Version 2021),2021.1.4,120.72803839699186,
Conditions/Version_1Pr/twoback(1)_v1.xlsx,New rule: Press 'space' when you see 2-back (i.e. the same letter as the one that appeared 2 letters ago.),Z,None,,,,,0,2,2,2,0,9,9,9,,,,,,,,,,,,,,,,,,,,,,,,,,,,,,,,,,,,,,,,,,,1.415,233.52463860006537,None,234.94085840007756,None,None,1,234.94085840007756,None,236.94082740007434,None,,,,,,,,,,,,,,,,,,,,,,,,,,,,,,,,P025,fencog,1,Pre,2022_Feb_15_1102,N-Back (New Version 2021),2021.1.4,120.72803839699186,
Conditions/Version_1Pr/twoback(1)_v1.xlsx,New rule: Press 'space' when you see 2-back (i.e. the same letter as the one that appeared 2 letters ago.),,,,,,,0,2,2,2,,,,,,,,,,,,,,,,,,,,,,,,,,,,,,,,,,,,,,,,,,,,,,,,,,,,,,,,,,,,,,,,,,,,,,,,,,,,,,,,,,,,,,,,,P025,fencog,1,Pre,2022_Feb_15_1102,N-Back (New Version 2021),2021.1.4,120.72803839699186,
Conditions/Version_1Pr/threeback(1)_v1.xlsx,New rule: Press 'space' when you see 3-back (i.e. the same letter as the one that appeared 3 letters ago.),r,None,,,,,0,3,3,3,0,0,0,0,,,,,,,,,,,,,,,,,,,,,,,,,,,,,,,,,238.45832840004005,None,241.4500697000185,None,space,4.842096299980767,241.4500697000185,None,238.45832840004005,None,1.115,246.31383810006082,None,247.42888540006243,None,None,1,247.42888540006243,None,249.42829130007885,None,,,,,,,,,,,,,,,,,,,,,,,,,,,,,,,,P025,fencog,1,Pre,2022_Feb_15_1102,N-Back (New Version 2021),2021.1.4,120.72803839699186,
Conditions/Version_1Pr/threeback(1)_v1.xlsx,New rule: Press 'space' when you see 3-back (i.e. the same letter as the one that appeared 3 letters ago.),a,None,,,,,0,3,3,3,0,1,1,1,,,,,,,,,,,,,,,,,,,,,,,,,,,,,,,,,,,,,,,,,,,1.54,250.927815400064,None,252.4690547999926,None,None,1,252.4690547999926,None,254.46846650005318,None,,,,,,,,,,,,,,,,,,,,,,,,,,,,,,,,P025,fencog,1,Pre,2022_Feb_15_1102,N-Back (New Version 2021),2021.1.4,120.72803839699186,
Conditions/Version_1Pr/threeback(1)_v1.xlsx,New rule: Press 'space' when you see 3-back (i.e. the same letter as the one that appeared 3 letters ago.),t,None,,,,,0,3,3,3,0,2,2,2,,,,,,,,,,,,,,,,,,,,,,,,,,,,,,,,,,,,,,,,,,,1.59,255.9680041000247,None,257.559382300009,None,None,1,257.559382300009,None,259.5585991999833,None,,,,,,,,,,,,,,,,,,,,,,,,,,,,,,,,P025,fencog,1,Pre,2022_Feb_15_1102,N-Back (New Version 2021),2021.1.4,120.72803839699186,
Conditions/Version_1Pr/threeback(1)_v1.xlsx,New rule: Press 'space' when you see 3-back (i.e. the same letter as the one that appeared 3 letters ago.),r,space,,,,,0,3,3,3,0,3,3,3,,,,,,,,,,,,,,,,,,,,,,,,,,,,,,,,,,,,,,,,,,,1.965,261.058532700059,None,263.02451939997263,None,space,1,263.02451939997263,None,263.51694750005845,None,0.4835698999231681,,,,,,,,,,,,,,,,,,,,,,,,,,,,,,,P025,fencog,1,Pre,2022_Feb_15_1102,N-Back (New Version 2021),2021.1.4,120.72803839699186,
Conditions/Version_1Pr/threeback(1)_v1.xlsx,New rule: Press 'space' when you see 3-back (i.e. the same letter as the one that appeared 3 letters ago.),a,None,,,,,0,3,3,3,0,4,4,4,,,,,,,,,,,,,,,,,,,,,,,,,,,,,,,,,,,,,,,,,,,1.04,265.02410849998705,None,266.06528770003933,None,None,1,266.06528770003933,None,268.06462189997546,None,,,,,,,,,,,,,,,,,,,,,,,,,,,,,,,,P025,fencog,1,Pre,2022_Feb_15_1102,N-Back (New Version 2021),2021.1.4,120.72803839699186,
Conditions/Version_1Pr/threeback(1)_v1.xlsx,New rule: Press 'space' when you see 3-back (i.e. the same letter as the one that appeared 3 letters ago.),Y,None,,,,,0,3,3,3,0,5,5,5,,,,,,,,,,,,,,,,,,,,,,,,,,,,,,,,,,,,,,,,,,,1.29,269.5643709000433,None,270.8572680000216,None,None,1,270.8572680000216,None,272.8634424000047,None,,,,,,,,,,,,,,,,,,,,,,,,,,,,,,,,P025,fencog,1,Pre,2022_Feb_15_1102,N-Back (New Version 2021),2021.1.4,120.72803839699186,
Conditions/Version_1Pr/threeback(1)_v1.xlsx,New rule: Press 'space' when you see 3-back (i.e. the same letter as the one that appeared 3 letters ago.),q,None,,,,,0,3,3,3,0,6,6,6,,,,,,,,,,,,,,,,,,,,,,,,,,,,,,,,,,,,,,,,,,,1.84,274.3629516999936,None,276.2056108000688,None,None,1,276.2056108000688,None,278.21191740001086,None,,,,,,,,,,,,,,,,,,,,,,,,,,,,,,,,P025,fencog,1,Pre,2022_Feb_15_1102,N-Back (New Version 2021),2021.1.4,120.72803839699186,
Conditions/Version_1Pr/threeback(1)_v1.xlsx,New rule: Press 'space' when you see 3-back (i.e. the same letter as the one that appeared 3 letters ago.),A,space,,,,,0,3,3,3,0,7,7,7,,,,,,,,,,,,,,,,,,,,,,,,,,,,,,,,,,,,,,,,,,,1.315,279.7114396999823,None,281.03580319997855,None,space,1,281.03580319997855,None,281.66321250004694,None,0.616555199958384,,,,,,,,,,,,,,,,,,,,,,,,,,,,,,,P025,fencog,1,Pre,2022_Feb_15_1102,N-Back (New Version 2021),2021.1.4,120.72803839699186,
Conditions/Version_1Pr/threeback(1)_v1.xlsx,New rule: Press 'space' when you see 3-back (i.e. the same letter as the one that appeared 3 letters ago.),y,None,,,,,0,3,3,3,0,8,8,8,,,,,,,,,,,,,,,,,,,,,,,,,,,,,,,,,,,,,,,,,,,1.215,283.1687144000316,None,284.3860519999871,None,None,1,284.3860519999871,None,286.39281220000703,None,,,,,,,,,,,,,,,,,,,,,,,,,,,,,,,,P025,fencog,1,Pre,2022_Feb_15_1102,N-Back (New Version 2021),2021.1.4,120.72803839699186,
Conditions/Version_1Pr/threeback(1)_v1.xlsx,New rule: Press 'space' when you see 3-back (i.e. the same letter as the one that appeared 3 letters ago.),r,None,,,,,0,3,3,3,0,9,9,9,,,,,,,,,,,,,,,,,,,,,,,,,,,,,,,,,,,,,,,,,,,1.615,287.8923829999985,None,289.5093984999694,None,None,1,289.5093984999694,None,291.515960299992,None,,,,,,,,,,,,,,,,,,,,,,,,,,,,,,,,P025,fencog,1,Pre,2022_Feb_15_1102,N-Back (New Version 2021),2021.1.4,120.72803839699186,
Conditions/Version_1Pr/threeback(1)_v1.xlsx,New rule: Press 'space' when you see 3-back (i.e. the same letter as the one that appeared 3 letters ago.),,,,,,,0,3,3,3,,,,,,,,,,,,,,,,,,,,,,,,,,,,,,,,,,,,,,,,,,,,,,,,,,,,,,,,,,,,,,,,,,,,,,,,,,,,,,,,,,,,,,,,,P025,fencog,1,Pre,2022_Feb_15_1102,N-Back (New Version 2021),2021.1.4,120.72803839699186,
,,,,,,,,,,,,,,,,,,,,,,,,,,,,,,,,,,,,,,,,,,,,,,,,,,,,,,,,,,,,,,,,,,,,,,293.0242978000315,None,space,9.040327099966817,293.51599980005994,None,,,,,,,,,,,,,,,,,,,,,,,,,P025,fencog,1,Pre,2022_Feb_15_1102,N-Back (New Version 2021),2021.1.4,120.72803839699186,
,,,,,,,,,,,,,,,,,,,,,,,,,,,,,,,,,,,,,,,,,,,,,,,,,,,,,,,,,,,,,,,,,,,,,,,,,,,,302.58587469998747,None,space,6.868229200015776,303.0800538000185,None,,,,,,,,,,,,,,,,,,,P025,fencog,1,Pre,2022_Feb_15_1102,N-Back (New Version 2021),2021.1.4,120.72803839699186,
,,,,Conditions/Version_1/zeroback(1)_v1.xlsx,Rule: Press 'space' when you see the letter 'x' or 'X'.,b,None,,,,,,,,,0,0,0,0,0,0,0,0,,,,,,,,,,,,,,,,,,,,,,,,,,,,,,,,,,,,,,,,,,,,,,,,,,,,,,,,,,,310.0613819999853,None,313.045409000013,None,space,1.303148900042288,313.045409000013,None,310.0613819999853,None,1.4316,315.8190020000329,None,None,1,315.8190020000329,None,,P025,fencog,1,Pre,2022_Feb_15_1102,N-Back (New Version 2021),2021.1.4,120.72803839699186,
,,,,Conditions/Version_1/zeroback(1)_v1.xlsx,Rule: Press 'space' when you see the letter 'x' or 'X'.,T,None,,,,,,,,,0,0,0,0,0,1,1,1,,,,,,,,,,,,,,,,,,,,,,,,,,,,,,,,,,,,,,,,,,,,,,,,,,,,,,,,,,,,,,,,,,,,,1.3634,319.19183430005796,None,None,1,319.19183430005796,None,,P025,fencog,1,Pre,2022_Feb_15_1102,N-Back (New Version 2021),2021.1.4,120.72803839699186,
,,,,Conditions/Version_1/zeroback(1)_v1.xlsx,Rule: Press 'space' when you see the letter 'x' or 'X'.,L,None,,,,,,,,,0,0,0,0,0,2,2,2,,,,,,,,,,,,,,,,,,,,,,,,,,,,,,,,,,,,,,,,,,,,,,,,,,,,,,,,,,,,,,,,,,,,,1.971,323.1748635000549,None,None,1,323.1748635000549,None,,P025,fencog,1,Pre,2022_Feb_15_1102,N-Back (New Version 2021),2021.1.4,120.72803839699186,
,,,,Conditions/Version_1/zeroback(1)_v1.xlsx,Rule: Press 'space' when you see the letter 'x' or 'X'.,x,space,,,,,,,,,0,0,0,0,0,3,3,3,,,,,,,,,,,,,,,,,,,,,,,,,,,,,,,,,,,,,,,,,,,,,,,,,,,,,,,,,,,,,,,,,,,,,1.7912,326.9729787000688,None,space,1,326.9729787000688,None,0.39933409995865077,P025,fencog,1,Pre,2022_Feb_15_1102,N-Back (New Version 2021),2021.1.4,120.72803839699186,
,,,,Conditions/Version_1/zeroback(1)_v1.xlsx,Rule: Press 'space' when you see the letter 'x' or 'X'.,o,None,,,,,,,,,0,0,0,0,0,4,4,4,,,,,,,,,,,,,,,,,,,,,,,,,,,,,,,,,,,,,,,,,,,,,,,,,,,,,,,,,,,,,,,,,,,,,1.6424,330.63254849996883,None,None,1,330.63254849996883,None,,P025,fencog,1,Pre,2022_Feb_15_1102,N-Back (New Version 2021),2021.1.4,120.72803839699186,
,,,,Conditions/Version_1/zeroback(1)_v1.xlsx,Rule: Press 'space' when you see the letter 'x' or 'X'.,P,None,,,,,,,,,0,0,0,0,0,5,5,5,,,,,,,,,,,,,,,,,,,,,,,,,,,,,,,,,,,,,,,,,,,,,,,,,,,,,,,,,,,,,,,,,,,,,1.4254,334.0619085000362,None,None,1,334.0619085000362,None,,P025,fencog,1,Pre,2022_Feb_15_1102,N-Back (New Version 2021),2021.1.4,120.72803839699186,
,,,,Conditions/Version_1/zeroback(1)_v1.xlsx,Rule: Press 'space' when you see the letter 'x' or 'X'.,X,space,,,,,,,,,0,0,0,0,0,6,6,6,,,,,,,,,,,,,,,,,,,,,,,,,,,,,,,,,,,,,,,,,,,,,,,,,,,,,,,,,,,,,,,,,,,,,1.723,337.78595629998017,None,space,1,337.78595629998017,None,1.3782832000870258,P025,fencog,1,Pre,2022_Feb_15_1102,N-Back (New Version 2021),2021.1.4,120.72803839699186,
,,,,Conditions/Version_1/zeroback(1)_v1.xlsx,Rule: Press 'space' when you see the letter 'x' or 'X'.,n,None,,,,,,,,,0,0,0,0,0,7,7,7,,,,,,,,,,,,,,,,,,,,,,,,,,,,,,,,,,,,,,,,,,,,,,,,,,,,,,,,,,,,,,,,,,,,,1.7292,341.5202637000475,None,None,1,341.5202637000475,None,,P025,fencog,1,Pre,2022_Feb_15_1102,N-Back (New Version 2021),2021.1.4,120.72803839699186,
,,,,Conditions/Version_1/zeroback(1)_v1.xlsx,Rule: Press 'space' when you see the letter 'x' or 'X'.,M,None,,,,,,,,,0,0,0,0,0,8,8,8,,,,,,,,,,,,,,,,,,,,,,,,,,,,,,,,,,,,,,,,,,,,,,,,,,,,,,,,,,,,,,,,,,,,,1.8904,345.4205635000253,None,None,1,345.4205635000253,None,,P025,fencog,1,Pre,2022_Feb_15_1102,N-Back (New Version 2021),2021.1.4,120.72803839699186,
,,,,Conditions/Version_1/zeroback(1)_v1.xlsx,Rule: Press 'space' when you see the letter 'x' or 'X'.,a,None,,,,,,,,,0,0,0,0,0,9,9,9,,,,,,,,,,,,,,,,,,,,,,,,,,,,,,,,,,,,,,,,,,,,,,,,,,,,,,,,,,,,,,,,,,,,,1.0224,348.4502664000029,None,None,1,348.4502664000029,None,,P025,fencog,1,Pre,2022_Feb_15_1102,N-Back (New Version 2021),2021.1.4,120.72803839699186,
,,,,Conditions/Version_1/zeroback(1)_v1.xlsx,Rule: Press 'space' when you see the letter 'x' or 'X'.,,,,,,,,,,,0,0,0,0,,,,,,,,,,,,,,,,,,,,,,,,,,,,,,,,,,,,,,,,,,,,,,,,,,,,,,,,,,,,,,,,,,,,,,,,,,,,,,,,,P025,fencog,1,Pre,2022_Feb_15_1102,N-Back (New Version 2021),2021.1.4,120.72803839699186,
,,,,Conditions/Version_1/oneback(1)_v1.xlsx,New rule: Press 'space' when you see 1-back (i.e. the same letter as the one that appeared 1 letter ago.),b,None,,,,,,,,,0,1,1,1,0,0,0,0,,,,,,,,,,,,,,,,,,,,,,,,,,,,,,,,,,,,,,,,,,,,,,,,,,,,,,,,,,,350.4767975000432,None,353.4578885000665,None,space,1.130371999926865,353.4578885000665,None,350.4767975000432,None,1.227,355.84721889998764,None,None,1,355.84721889998764,None,,P025,fencog,1,Pre,2022_Feb_15_1102,N-Back (New Version 2021),2021.1.4,120.72803839699186,
,,,,Conditions/Version_1/oneback(1)_v1.xlsx,New rule: Press 'space' when you see 1-back (i.e. the same letter as the one that appeared 1 letter ago.),p,None,,,,,,,,,0,1,1,1,0,1,1,1,,,,,,,,,,,,,,,,,,,,,,,,,,,,,,,,,,,,,,,,,,,,,,,,,,,,,,,,,,,,,,,,,,,,,1.3944,359.24613109999336,None,None,1,359.24613109999336,None,,P025,fencog,1,Pre,2022_Feb_15_1102,N-Back (New Version 2021),2021.1.4,120.72803839699186,
,,,,Conditions/Version_1/oneback(1)_v1.xlsx,New rule: Press 'space' when you see 1-back (i.e. the same letter as the one that appeared 1 letter ago.),M,None,,,,,,,,,0,1,1,1,0,2,2,2,,,,,,,,,,,,,,,,,,,,,,,,,,,,,,,,,,,,,,,,,,,,,,,,,,,,,,,,,,,,,,,,,,,,,1.9462,363.1961456000572,None,None,1,363.1961456000572,None,,P025,fencog,1,Pre,2022_Feb_15_1102,N-Back (New Version 2021),2021.1.4,120.72803839699186,
,,,,Conditions/Version_1/oneback(1)_v1.xlsx,New rule: Press 'space' when you see 1-back (i.e. the same letter as the one that appeared 1 letter ago.),M,space,,,,,,,,,0,1,1,1,0,3,3,3,,,,,,,,,,,,,,,,,,,,,,,,,,,,,,,,,,,,,,,,,,,,,,,,,,,,,,,,,,,,,,,,,,,,,1.2332,366.4358809000114,None,space,1,366.4358809000114,None,0.6244827000191435,P025,fencog,1,Pre,2022_Feb_15_1102,N-Back (New Version 2021),2021.1.4,120.72803839699186,
,,,,Conditions/Version_1/oneback(1)_v1.xlsx,New rule: Press 'space' when you see 1-back (i.e. the same letter as the one that appeared 1 letter ago.),n,None,,,,,,,,,0,1,1,1,0,4,4,4,,,,,,,,,,,,,,,,,,,,,,,,,,,,,,,,,,,,,,,,,,,,,,,,,,,,,,,,,,,,,,,,,,,,,1.0782,369.5196900999872,None,None,1,369.5196900999872,None,,P025,fencog,1,Pre,2022_Feb_15_1102,N-Back (New Version 2021),2021.1.4,120.72803839699186,
,,,,Conditions/Version_1/oneback(1)_v1.xlsx,New rule: Press 'space' when you see 1-back (i.e. the same letter as the one that appeared 1 letter ago.),g,None,,,,,,,,,0,1,1,1,0,5,5,5,,,,,,,,,,,,,,,,,,,,,,,,,,,,,,,,,,,,,,,,,,,,,,,,,,,,,,,,,,,,,,,,,,,,,1.4068,372.9337512999773,None,None,1,372.9337512999773,None,,P025,fencog,1,Pre,2022_Feb_15_1102,N-Back (New Version 2021),2021.1.4,120.72803839699186,
,,,,Conditions/Version_1/oneback(1)_v1.xlsx,New rule: Press 'space' when you see 1-back (i.e. the same letter as the one that appeared 1 letter ago.),P,None,,,,,,,,,0,1,1,1,0,6,6,6,,,,,,,,,,,,,,,,,,,,,,,,,,,,,,,,,,,,,,,,,,,,,,,,,,,,,,,,,,,,,,,,,,,,,1.6734,376.6077577000251,None,None,1,376.6077577000251,None,,P025,fencog,1,Pre,2022_Feb_15_1102,N-Back (New Version 2021),2021.1.4,120.72803839699186,
,,,,Conditions/Version_1/oneback(1)_v1.xlsx,New rule: Press 'space' when you see 1-back (i.e. the same letter as the one that appeared 1 letter ago.),o,None,,,,,,,,,0,1,1,1,0,7,7,7,,,,,,,,,,,,,,,,,,,,,,,,,,,,,,,,,,,,,,,,,,,,,,,,,,,,,,,,,,,,,,,,,,,,,1.4874,380.09855630004313,None,None,1,380.09855630004313,None,,P025,fencog,1,Pre,2022_Feb_15_1102,N-Back (New Version 2021),2021.1.4,120.72803839699186,
,,,,Conditions/Version_1/oneback(1)_v1.xlsx,New rule: Press 'space' when you see 1-back (i.e. the same letter as the one that appeared 1 letter ago.),f,None,,,,,,,,,0,1,1,1,0,8,8,8,,,,,,,,,,,,,,,,,,,,,,,,,,,,,,,,,,,,,,,,,,,,,,,,,,,,,,,,,,,,,,,,,,,,,1.041,383.1418385000434,None,None,1,383.1418385000434,None,,P025,fencog,1,Pre,2022_Feb_15_1102,N-Back (New Version 2021),2021.1.4,120.72803839699186,
,,,,Conditions/Version_1/oneback(1)_v1.xlsx,New rule: Press 'space' when you see 1-back (i.e. the same letter as the one that appeared 1 letter ago.),F,space,,,,,,,,,0,1,1,1,0,9,9,9,,,,,,,,,,,,,,,,,,,,,,,,,,,,,,,,,,,,,,,,,,,,,,,,,,,,,,,,,,,,,,,,,,,,,1.2952,386.44822380004916,None,space,1,386.44822380004916,None,0.6440109999384731,P025,fencog,1,Pre,2022_Feb_15_1102,N-Back (New Version 2021),2021.1.4,120.72803839699186,
,,,,Conditions/Version_1/oneback(1)_v1.xlsx,New rule: Press 'space' when you see 1-back (i.e. the same letter as the one that appeared 1 letter ago.),,,,,,,,,,,0,1,1,1,,,,,,,,,,,,,,,,,,,,,,,,,,,,,,,,,,,,,,,,,,,,,,,,,,,,,,,,,,,,,,,,,,,,,,,,,,,,,,,,,P025,fencog,1,Pre,2022_Feb_15_1102,N-Back (New Version 2021),2021.1.4,120.72803839699186,
,,,,Conditions/Version_1/twoback(1)_v1.xlsx,New rule: Press 'space' when you see 2-back (i.e. the same letter as the one that appeared 2 letters ago.),b,None,,,,,,,,,0,2,2,2,0,0,0,0,,,,,,,,,,,,,,,,,,,,,,,,,,,,,,,,,,,,,,,,,,,,,,,,,,,,,,,,,,,388.47608010005206,None,391.46406180004124,None,space,0.8442998999962583,391.46406180004124,None,388.47608010005206,None,1.7726,394.1109105000505,None,None,1,394.1109105000505,None,,P025,fencog,1,Pre,2022_Feb_15_1102,N-Back (New Version 2021),2021.1.4,120.72803839699186,
,,,,Conditions/Version_1/twoback(1)_v1.xlsx,New rule: Press 'space' when you see 2-back (i.e. the same letter as the one that appeared 2 letters ago.),h,None,,,,,,,,,0,2,2,2,0,1,1,1,,,,,,,,,,,,,,,,,,,,,,,,,,,,,,,,,,,,,,,,,,,,,,,,,,,,,,,,,,,,,,,,,,,,,1.6362,397.7536920000566,None,None,1,397.7536920000566,None,,P025,fencog,1,Pre,2022_Feb_15_1102,N-Back (New Version 2021),2021.1.4,120.72803839699186,
,,,,Conditions/Version_1/twoback(1)_v1.xlsx,New rule: Press 'space' when you see 2-back (i.e. the same letter as the one that appeared 2 letters ago.),j,None,,,,,,,,,0,2,2,2,0,2,2,2,,,,,,,,,,,,,,,,,,,,,,,,,,,,,,,,,,,,,,,,,,,,,,,,,,,,,,,,,,,,,,,,,,,,,1.6858,401.4518977999687,None,None,1,401.4518977999687,None,,P025,fencog,1,Pre,2022_Feb_15_1102,N-Back (New Version 2021),2021.1.4,120.72803839699186,
,,,,Conditions/Version_1/twoback(1)_v1.xlsx,New rule: Press 'space' when you see 2-back (i.e. the same letter as the one that appeared 2 letters ago.),H,space,,,,,,,,,0,2,2,2,0,3,3,3,,,,,,,,,,,,,,,,,,,,,,,,,,,,,,,,,,,,,,,,,,,,,,,,,,,,,,,,,,,,,,,,,,,,,1.847,405.3095162999816,None,space,1,405.3095162999816,None,0.48731019999831915,P025,fencog,1,Pre,2022_Feb_15_1102,N-Back (New Version 2021),2021.1.4,120.72803839699186,
,,,,Conditions/Version_1/twoback(1)_v1.xlsx,New rule: Press 'space' when you see 2-back (i.e. the same letter as the one that appeared 2 letters ago.),p,None,,,,,,,,,0,2,2,2,0,4,4,4,,,,,,,,,,,,,,,,,,,,,,,,,,,,,,,,,,,,,,,,,,,,,,,,,,,,,,,,,,,,,,,,,,,,,1.7602,409.0814830000745,None,None,1,409.0814830000745,None,,P025,fencog,1,Pre,2022_Feb_15_1102,N-Back (New Version 2021),2021.1.4,120.72803839699186,
,,,,Conditions/Version_1/twoback(1)_v1.xlsx,New rule: Press 'space' when you see 2-back (i.e. the same letter as the one that appeared 2 letters ago.),p,None,,,,,,,,,0,2,2,2,0,5,5,5,,,,,,,,,,,,,,,,,,,,,,,,,,,,,,,,,,,,,,,,,,,,,,,,,,,,,,,,,,,,,,,,,,,,,1.2642,412.3474015999818,None,space,0,412.3474015999818,None,1.8808677999768406,P025,fencog,1,Pre,2022_Feb_15_1102,N-Back (New Version 2021),2021.1.4,120.72803839699186,
,,,,Conditions/Version_1/twoback(1)_v1.xlsx,New rule: Press 'space' when you see 2-back (i.e. the same letter as the one that appeared 2 letters ago.),w,None,,,,,,,,,0,2,2,2,0,6,6,6,,,,,,,,,,,,,,,,,,,,,,,,,,,,,,,,,,,,,,,,,,,,,,,,,,,,,,,,,,,,,,,,,,,,,1.5742,415.92131140001584,None,None,1,415.92131140001584,None,,P025,fencog,1,Pre,2022_Feb_15_1102,N-Back (New Version 2021),2021.1.4,120.72803839699186,
,,,,Conditions/Version_1/twoback(1)_v1.xlsx,New rule: Press 'space' when you see 2-back (i.e. the same letter as the one that appeared 2 letters ago.),R,None,,,,,,,,,0,2,2,2,0,7,7,7,,,,,,,,,,,,,,,,,,,,,,,,,,,,,,,,,,,,,,,,,,,,,,,,,,,,,,,,,,,,,,,,,,,,,1.9214,419.8464707999956,None,None,1,419.8464707999956,None,,P025,fencog,1,Pre,2022_Feb_15_1102,N-Back (New Version 2021),2021.1.4,120.72803839699186,
,,,,Conditions/Version_1/twoback(1)_v1.xlsx,New rule: Press 'space' when you see 2-back (i.e. the same letter as the one that appeared 2 letters ago.),a,None,,,,,,,,,0,2,2,2,0,8,8,8,,,,,,,,,,,,,,,,,,,,,,,,,,,,,,,,,,,,,,,,,,,,,,,,,,,,,,,,,,,,,,,,,,,,,1.2456,423.10359850001987,None,None,1,423.10359850001987,None,,P025,fencog,1,Pre,2022_Feb_15_1102,N-Back (New Version 2021),2021.1.4,120.72803839699186,
,,,,Conditions/Version_1/twoback(1)_v1.xlsx,New rule: Press 'space' when you see 2-back (i.e. the same letter as the one that appeared 2 letters ago.),r,space,,,,,,,,,0,2,2,2,0,9,9,9,,,,,,,,,,,,,,,,,,,,,,,,,,,,,,,,,,,,,,,,,,,,,,,,,,,,,,,,,,,,,,,,,,,,,1.444,426.5596744000213,None,space,1,426.5596744000213,None,0.836801000055857,P025,fencog,1,Pre,2022_Feb_15_1102,N-Back (New Version 2021),2021.1.4,120.72803839699186,
,,,,Conditions/Version_1/twoback(1)_v1.xlsx,New rule: Press 'space' when you see 2-back (i.e. the same letter as the one that appeared 2 letters ago.),,,,,,,,,,,0,2,2,2,,,,,,,,,,,,,,,,,,,,,,,,,,,,,,,,,,,,,,,,,,,,,,,,,,,,,,,,,,,,,,,,,,,,,,,,,,,,,,,,,P025,fencog,1,Pre,2022_Feb_15_1102,N-Back (New Version 2021),2021.1.4,120.72803839699186,
,,,,Conditions/Version_1/threeback(1)_v1.xlsx,New rule: Press 'space' when you see 3-back (i.e. the same letter as the one that appeared 3 letters ago.),r,None,,,,,,,,,0,3,3,3,0,0,0,0,,,,,,,,,,,,,,,,,,,,,,,,,,,,,,,,,,,,,,,,,,,,,,,,,,,,,,,,,,,428.58073180005886,None,431.56902260007337,None,space,4.427237799973227,431.56902260007337,None,428.58073180005886,None,1.4378,437.4650249000406,None,None,1,437.4650249000406,None,,P025,fencog,1,Pre,2022_Feb_15_1102,N-Back (New Version 2021),2021.1.4,120.72803839699186,
,,,,Conditions/Version_1/threeback(1)_v1.xlsx,New rule: Press 'space' when you see 3-back (i.e. the same letter as the one that appeared 3 letters ago.),o,None,,,,,,,,,0,3,3,3,0,1,1,1,,,,,,,,,,,,,,,,,,,,,,,,,,,,,,,,,,,,,,,,,,,,,,,,,,,,,,,,,,,,,,,,,,,,,1.01,440.48152939998545,None,None,1,440.48152939998545,None,,P025,fencog,1,Pre,2022_Feb_15_1102,N-Back (New Version 2021),2021.1.4,120.72803839699186,
,,,,Conditions/Version_1/threeback(1)_v1.xlsx,New rule: Press 'space' when you see 3-back (i.e. the same letter as the one that appeared 3 letters ago.),P,None,,,,,,,,,0,3,3,3,0,2,2,2,,,,,,,,,,,,,,,,,,,,,,,,,,,,,,,,,,,,,,,,,,,,,,,,,,,,,,,,,,,,,,,,,,,,,1.7912,444.2794748999877,None,None,1,444.2794748999877,None,,P025,fencog,1,Pre,2022_Feb_15_1102,N-Back (New Version 2021),2021.1.4,120.72803839699186,
,,,,Conditions/Version_1/threeback(1)_v1.xlsx,New rule: Press 'space' when you see 3-back (i.e. the same letter as the one that appeared 3 letters ago.),R,space,,,,,,,,,0,3,3,3,0,3,3,3,,,,,,,,,,,,,,,,,,,,,,,,,,,,,,,,,,,,,,,,,,,,,,,,,,,,,,,,,,,,,,,,,,,,,1.5928,447.8793995999731,None,space,1,447.8793995999731,None,0.5171086000045761,P025,fencog,1,Pre,2022_Feb_15_1102,N-Back (New Version 2021),2021.1.4,120.72803839699186,
,,,,Conditions/Version_1/threeback(1)_v1.xlsx,New rule: Press 'space' when you see 3-back (i.e. the same letter as the one that appeared 3 letters ago.),p,None,,,,,,,,,0,3,3,3,0,4,4,4,,,,,,,,,,,,,,,,,,,,,,,,,,,,,,,,,,,,,,,,,,,,,,,,,,,,,,,,,,,,,,,,,,,,,1.3696,451.26079420000315,None,None,1,451.26079420000315,None,,P025,fencog,1,Pre,2022_Feb_15_1102,N-Back (New Version 2021),2021.1.4,120.72803839699186,
,,,,Conditions/Version_1/threeback(1)_v1.xlsx,New rule: Press 'space' when you see 3-back (i.e. the same letter as the one that appeared 3 letters ago.),E,None,,,,,,,,,0,3,3,3,0,5,5,5,,,,,,,,,,,,,,,,,,,,,,,,,,,,,,,,,,,,,,,,,,,,,,,,,,,,,,,,,,,,,,,,,,,,,1.196,454.4603830999695,None,None,1,454.4603830999695,None,,P025,fencog,1,Pre,2022_Feb_15_1102,N-Back (New Version 2021),2021.1.4,120.72803839699186,
,,,,Conditions/Version_1/threeback(1)_v1.xlsx,New rule: Press 'space' when you see 3-back (i.e. the same letter as the one that appeared 3 letters ago.),e,None,,,,,,,,,0,3,3,3,0,6,6,6,,,,,,,,,,,,,,,,,,,,,,,,,,,,,,,,,,,,,,,,,,,,,,,,,,,,,,,,,,,,,,,,,,,,,1.3386,457.80048950004857,None,None,1,457.80048950004857,None,,P025,fencog,1,Pre,2022_Feb_15_1102,N-Back (New Version 2021),2021.1.4,120.72803839699186,
,,,,Conditions/Version_1/threeback(1)_v1.xlsx,New rule: Press 'space' when you see 3-back (i.e. the same letter as the one that appeared 3 letters ago.),m,None,,,,,,,,,0,3,3,3,0,7,7,7,,,,,,,,,,,,,,,,,,,,,,,,,,,,,,,,,,,,,,,,,,,,,,,,,,,,,,,,,,,,,,,,,,,,,1.6548,461.459898000001,None,None,1,461.459898000001,None,,P025,fencog,1,Pre,2022_Feb_15_1102,N-Back (New Version 2021),2021.1.4,120.72803839699186,
,,,,Conditions/Version_1/threeback(1)_v1.xlsx,New rule: Press 'space' when you see 3-back (i.e. the same letter as the one that appeared 3 letters ago.),n,None,,,,,,,,,0,3,3,3,0,8,8,8,,,,,,,,,,,,,,,,,,,,,,,,,,,,,,,,,,,,,,,,,,,,,,,,,,,,,,,,,,,,,,,,,,,,,1.7416,465.2066181000555,None,None,1,465.2066181000555,None,,P025,fencog,1,Pre,2022_Feb_15_1102,N-Back (New Version 2021),2021.1.4,120.72803839699186,
,,,,Conditions/Version_1/threeback(1)_v1.xlsx,New rule: Press 'space' when you see 3-back (i.e. the same letter as the one that appeared 3 letters ago.),e,space,,,,,,,,,0,3,3,3,0,9,9,9,,,,,,,,,,,,,,,,,,,,,,,,,,,,,,,,,,,,,,,,,,,,,,,,,,,,,,,,,,,,,,,,,,,,,1.475,468.68073570006527,None,None,0,468.68073570006527,None,,P025,fencog,1,Pre,2022_Feb_15_1102,N-Back (New Version 2021),2021.1.4,120.72803839699186,
,,,,Conditions/Version_1/threeback(1)_v1.xlsx,New rule: Press 'space' when you see 3-back (i.e. the same letter as the one that appeared 3 letters ago.),,,,,,,,,,,0,3,3,3,,,,,,,,,,,,,,,,,,,,,,,,,,,,,,,,,,,,,,,,,,,,,,,,,,,,,,,,,,,,,,,,,,,,,,,,,,,,,,,,,P025,fencog,1,Pre,2022_Feb_15_1102,N-Back (New Version 2021),2021.1.4,120.72803839699186,
,,,,Conditions/Version_1/oneback(2)_v1.xlsx,New rule: Press 'space' when you see 1-back (i.e. the same letter as the one that appeared 1 letter ago.),q,None,,,,,,,,,0,4,4,4,0,0,0,0,,,,,,,,,,,,,,,,,,,,,,,,,,,,,,,,,,,,,,,,,,,,,,,,,,,,,,,,,,,470.70469330006745,None,473.68985219998285,None,space,1.8906702001113445,473.68985219998285,None,470.70469330006745,None,1.9586,477.5633018000517,None,None,1,477.5633018000517,None,,P025,fencog,1,Pre,2022_Feb_15_1102,N-Back (New Version 2021),2021.1.4,120.72803839699186,
,,,,Conditions/Version_1/oneback(2)_v1.xlsx,New rule: Press 'space' when you see 1-back (i.e. the same letter as the one that appeared 1 letter ago.),Q,space,,,,,,,,,0,4,4,4,0,1,1,1,,,,,,,,,,,,,,,,,,,,,,,,,,,,,,,,,,,,,,,,,,,,,,,,,,,,,,,,,,,,,,,,,,,,,1.9152,481.4877268000273,None,space,1,481.4877268000273,None,0.6606899000471458,P025,fencog,1,Pre,2022_Feb_15_1102,N-Back (New Version 2021),2021.1.4,120.72803839699186,
,,,,Conditions/Version_1/oneback(2)_v1.xlsx,New rule: Press 'space' when you see 1-back (i.e. the same letter as the one that appeared 1 letter ago.),P,None,,,,,,,,,0,4,4,4,0,2,2,2,,,,,,,,,,,,,,,,,,,,,,,,,,,,,,,,,,,,,,,,,,,,,,,,,,,,,,,,,,,,,,,,,,,,,1.6362,485.13449770002626,None,None,1,485.13449770002626,None,,P025,fencog,1,Pre,2022_Feb_15_1102,N-Back (New Version 2021),2021.1.4,120.72803839699186,
,,,,Conditions/Version_1/oneback(2)_v1.xlsx,New rule: Press 'space' when you see 1-back (i.e. the same letter as the one that appeared 1 letter ago.),o,None,,,,,,,,,0,4,4,4,0,3,3,3,,,,,,,,,,,,,,,,,,,,,,,,,,,,,,,,,,,,,,,,,,,,,,,,,,,,,,,,,,,,,,,,,,,,,1.3138,488.44984320004005,None,None,1,488.44984320004005,None,,P025,fencog,1,Pre,2022_Feb_15_1102,N-Back (New Version 2021),2021.1.4,120.72803839699186,
,,,,Conditions/Version_1/oneback(2)_v1.xlsx,New rule: Press 'space' when you see 1-back (i.e. the same letter as the one that appeared 1 letter ago.),m,None,,,,,,,,,0,4,4,4,0,4,4,4,,,,,,,,,,,,,,,,,,,,,,,,,,,,,,,,,,,,,,,,,,,,,,,,,,,,,,,,,,,,,,,,,,,,,1.8346,492.2903693000553,None,None,1,492.2903693000553,None,,P025,fencog,1,Pre,2022_Feb_15_1102,N-Back (New Version 2021),2021.1.4,120.72803839699186,
,,,,Conditions/Version_1/oneback(2)_v1.xlsx,New rule: Press 'space' when you see 1-back (i.e. the same letter as the one that appeared 1 letter ago.),Z,None,,,,,,,,,0,4,4,4,0,5,5,5,,,,,,,,,,,,,,,,,,,,,,,,,,,,,,,,,,,,,,,,,,,,,,,,,,,,,,,,,,,,,,,,,,,,,1.2704,495.5711166000692,None,None,1,495.5711166000692,None,,P025,fencog,1,Pre,2022_Feb_15_1102,N-Back (New Version 2021),2021.1.4,120.72803839699186,
,,,,Conditions/Version_1/oneback(2)_v1.xlsx,New rule: Press 'space' when you see 1-back (i.e. the same letter as the one that appeared 1 letter ago.),c,None,,,,,,,,,0,4,4,4,0,6,6,6,,,,,,,,,,,,,,,,,,,,,,,,,,,,,,,,,,,,,,,,,,,,,,,,,,,,,,,,,,,,,,,,,,,,,1.7974,499.3728844000725,None,None,1,499.3728844000725,None,,P025,fencog,1,Pre,2022_Feb_15_1102,N-Back (New Version 2021),2021.1.4,120.72803839699186,
,,,,Conditions/Version_1/oneback(2)_v1.xlsx,New rule: Press 'space' when you see 1-back (i.e. the same letter as the one that appeared 1 letter ago.),c,space,,,,,,,,,0,4,4,4,0,7,7,7,,,,,,,,,,,,,,,,,,,,,,,,,,,,,,,,,,,,,,,,,,,,,,,,,,,,,,,,,,,,,,,,,,,,,1.2952,502.6789663999807,None,space,1,502.6789663999807,None,0.5096081000519916,P025,fencog,1,Pre,2022_Feb_15_1102,N-Back (New Version 2021),2021.1.4,120.72803839699186,
,,,,Conditions/Version_1/oneback(2)_v1.xlsx,New rule: Press 'space' when you see 1-back (i.e. the same letter as the one that appeared 1 letter ago.),P,None,,,,,,,,,0,4,4,4,0,8,8,8,,,,,,,,,,,,,,,,,,,,,,,,,,,,,,,,,,,,,,,,,,,,,,,,,,,,,,,,,,,,,,,,,,,,,1.8408,506.52024810004514,None,None,1,506.52024810004514,None,,P025,fencog,1,Pre,2022_Feb_15_1102,N-Back (New Version 2021),2021.1.4,120.72803839699186,
,,,,Conditions/Version_1/oneback(2)_v1.xlsx,New rule: Press 'space' when you see 1-back (i.e. the same letter as the one that appeared 1 letter ago.),p,space,,,,,,,,,0,4,4,4,0,9,9,9,,,,,,,,,,,,,,,,,,,,,,,,,,,,,,,,,,,,,,,,,,,,,,,,,,,,,,,,,,,,,,,,,,,,,1.7416,510.26934250001796,None,space,1,510.26934250001796,None,0.5511986999772489,P025,fencog,1,Pre,2022_Feb_15_1102,N-Back (New Version 2021),2021.1.4,120.72803839699186,
,,,,Conditions/Version_1/oneback(2)_v1.xlsx,New rule: Press 'space' when you see 1-back (i.e. the same letter as the one that appeared 1 letter ago.),,,,,,,,,,,0,4,4,4,,,,,,,,,,,,,,,,,,,,,,,,,,,,,,,,,,,,,,,,,,,,,,,,,,,,,,,,,,,,,,,,,,,,,,,,,,,,,,,,,P025,fencog,1,Pre,2022_Feb_15_1102,N-Back (New Version 2021),2021.1.4,120.72803839699186,
,,,,Conditions/Version_1/zeroback(2)_v1.xlsx,New rule: Press 'space' when you see the letter 'x' or 'X'.,p,None,,,,,,,,,0,5,5,5,0,0,0,0,,,,,,,,,,,,,,,,,,,,,,,,,,,,,,,,,,,,,,,,,,,,,,,,,,,,,,,,,,,512.3064792000223,None,515.2940948000178,None,space,0.7343015000224113,515.2940948000178,None,512.3064792000223,None,1.5928,517.6498274999904,None,None,1,517.6498274999904,None,,P025,fencog,1,Pre,2022_Feb_15_1102,N-Back (New Version 2021),2021.1.4,120.72803839699186,
,,,,Conditions/Version_1/zeroback(2)_v1.xlsx,New rule: Press 'space' when you see the letter 'x' or 'X'.,L,None,,,,,,,,,0,5,5,5,0,1,1,1,,,,,,,,,,,,,,,,,,,,,,,,,,,,,,,,,,,,,,,,,,,,,,,,,,,,,,,,,,,,,,,,,,,,,1.7726,521.4243403000291,None,None,1,521.4243403000291,None,,P025,fencog,1,Pre,2022_Feb_15_1102,N-Back (New Version 2021),2021.1.4,120.72803839699186,
,,,,Conditions/Version_1/zeroback(2)_v1.xlsx,New rule: Press 'space' when you see the letter 'x' or 'X'.,G,None,,,,,,,,,0,5,5,5,0,2,2,2,,,,,,,,,,,,,,,,,,,,,,,,,,,,,,,,,,,,,,,,,,,,,,,,,,,,,,,,,,,,,,,,,,,,,1.0906,524.5225731000537,None,None,1,524.5225731000537,None,,P025,fencog,1,Pre,2022_Feb_15_1102,N-Back (New Version 2021),2021.1.4,120.72803839699186,
,,,,Conditions/Version_1/zeroback(2)_v1.xlsx,New rule: Press 'space' when you see the letter 'x' or 'X'.,y,None,,,,,,,,,0,5,5,5,0,3,3,3,,,,,,,,,,,,,,,,,,,,,,,,,,,,,,,,,,,,,,,,,,,,,,,,,,,,,,,,,,,,,,,,,,,,,1.4254,527.9566951000597,None,None,1,527.9566951000597,None,,P025,fencog,1,Pre,2022_Feb_15_1102,N-Back (New Version 2021),2021.1.4,120.72803839699186,
,,,,Conditions/Version_1/zeroback(2)_v1.xlsx,New rule: Press 'space' when you see the letter 'x' or 'X'.,Y,None,,,,,,,,,0,5,5,5,0,4,4,4,,,,,,,,,,,,,,,,,,,,,,,,,,,,,,,,,,,,,,,,,,,,,,,,,,,,,,,,,,,,,,,,,,,,,1.4688,531.4381369000766,None,None,1,531.4381369000766,None,,P025,fencog,1,Pre,2022_Feb_15_1102,N-Back (New Version 2021),2021.1.4,120.72803839699186,
,,,,Conditions/Version_1/zeroback(2)_v1.xlsx,New rule: Press 'space' when you see the letter 'x' or 'X'.,W,None,,,,,,,,,0,5,5,5,0,5,5,5,,,,,,,,,,,,,,,,,,,,,,,,,,,,,,,,,,,,,,,,,,,,,,,,,,,,,,,,,,,,,,,,,,,,,1.3386,534.7880461000605,None,None,1,534.7880461000605,None,,P025,fencog,1,Pre,2022_Feb_15_1102,N-Back (New Version 2021),2021.1.4,120.72803839699186,
,,,,Conditions/Version_1/zeroback(2)_v1.xlsx,New rule: Press 'space' when you see the letter 'x' or 'X'.,x,space,,,,,,,,,0,5,5,5,0,6,6,6,,,,,,,,,,,,,,,,,,,,,,,,,,,,,,,,,,,,,,,,,,,,,,,,,,,,,,,,,,,,,,,,,,,,,1.5246,538.3185508999741,None,space,1,538.3185508999741,None,0.5337645000545308,P025,fencog,1,Pre,2022_Feb_15_1102,N-Back (New Version 2021),2021.1.4,120.72803839699186,
,,,,Conditions/Version_1/zeroback(2)_v1.xlsx,New rule: Press 'space' when you see the letter 'x' or 'X'.,X,space,,,,,,,,,0,5,5,5,0,7,7,7,,,,,,,,,,,,,,,,,,,,,,,,,,,,,,,,,,,,,,,,,,,,,,,,,,,,,,,,,,,,,,,,,,,,,1.1464,541.468825399992,None,space,1,541.468825399992,None,0.5756433000788093,P025,fencog,1,Pre,2022_Feb_15_1102,N-Back (New Version 2021),2021.1.4,120.72803839699186,
,,,,Conditions/Version_1/zeroback(2)_v1.xlsx,New rule: Press 'space' when you see the letter 'x' or 'X'.,p,None,,,,,,,,,0,5,5,5,0,8,8,8,,,,,,,,,,,,,,,,,,,,,,,,,,,,,,,,,,,,,,,,,,,,,,,,,,,,,,,,,,,,,,,,,,,,,1.7292,545.2081194000784,None,None,1,545.2081194000784,None,,P025,fencog,1,Pre,2022_Feb_15_1102,N-Back (New Version 2021),2021.1.4,120.72803839699186,
,,,,Conditions/Version_1/zeroback(2)_v1.xlsx,New rule: Press 'space' when you see the letter 'x' or 'X'.,h,None,,,,,,,,,0,5,5,5,0,9,9,9,,,,,,,,,,,,,,,,,,,,,,,,,,,,,,,,,,,,,,,,,,,,,,,,,,,,,,,,,,,,,,,,,,,,,1.9214,549.1322129999753,None,None,1,549.1322129999753,None,,P025,fencog,1,Pre,2022_Feb_15_1102,N-Back (New Version 2021),2021.1.4,120.72803839699186,
,,,,Conditions/Version_1/zeroback(2)_v1.xlsx,New rule: Press 'space' when you see the letter 'x' or 'X'.,,,,,,,,,,,0,5,5,5,,,,,,,,,,,,,,,,,,,,,,,,,,,,,,,,,,,,,,,,,,,,,,,,,,,,,,,,,,,,,,,,,,,,,,,,,,,,,,,,,P025,fencog,1,Pre,2022_Feb_15_1102,N-Back (New Version 2021),2021.1.4,120.72803839699186,
,,,,Conditions/Version_1/threeback(2)_v1.xlsx,New rule: Press 'space' when you see 3-back (i.e. the same letter as the one that appeared 3 letters ago.),q,None,,,,,,,,,0,6,6,6,0,0,0,0,,,,,,,,,,,,,,,,,,,,,,,,,,,,,,,,,,,,,,,,,,,,,,,,,,,,,,,,,,,551.1543022000697,None,554.1409827000462,None,space,8.511380900046788,554.1409827000462,None,551.1543022000697,None,1.9276,564.6024049000116,None,None,1,564.6024049000116,None,,P025,fencog,1,Pre,2022_Feb_15_1102,N-Back (New Version 2021),2021.1.4,120.72803839699186,
,,,,Conditions/Version_1/threeback(2)_v1.xlsx,New rule: Press 'space' when you see 3-back (i.e. the same letter as the one that appeared 3 letters ago.),Y,None,,,,,,,,,0,6,6,6,0,1,1,1,,,,,,,,,,,,,,,,,,,,,,,,,,,,,,,,,,,,,,,,,,,,,,,,,,,,,,,,,,,,,,,,,,,,,1.134,567.7359561000485,None,None,1,567.7359561000485,None,,P025,fencog,1,Pre,2022_Feb_15_1102,N-Back (New Version 2021),2021.1.4,120.72803839699186,
,,,,Conditions/Version_1/threeback(2)_v1.xlsx,New rule: Press 'space' when you see 3-back (i.e. the same letter as the one that appeared 3 letters ago.),p,None,,,,,,,,,0,6,6,6,0,2,2,2,,,,,,,,,,,,,,,,,,,,,,,,,,,,,,,,,,,,,,,,,,,,,,,,,,,,,,,,,,,,,,,,,,,,,1.3448,571.0922576000448,None,None,1,571.0922576000448,None,,P025,fencog,1,Pre,2022_Feb_15_1102,N-Back (New Version 2021),2021.1.4,120.72803839699186,
,,,,Conditions/Version_1/threeback(2)_v1.xlsx,New rule: Press 'space' when you see 3-back (i.e. the same letter as the one that appeared 3 letters ago.),p,None,,,,,,,,,0,6,6,6,0,3,3,3,,,,,,,,,,,,,,,,,,,,,,,,,,,,,,,,,,,,,,,,,,,,,,,,,,,,,,,,,,,,,,,,,,,,,1.1278,574.2246789999772,None,None,1,574.2246789999772,None,,P025,fencog,1,Pre,2022_Feb_15_1102,N-Back (New Version 2021),2021.1.4,120.72803839699186,
,,,,Conditions/Version_1/threeback(2)_v1.xlsx,New rule: Press 'space' when you see 3-back (i.e. the same letter as the one that appeared 3 letters ago.),y,space,,,,,,,,,0,6,6,6,0,4,4,4,,,,,,,,,,,,,,,,,,,,,,,,,,,,,,,,,,,,,,,,,,,,,,,,,,,,,,,,,,,,,,,,,,,,,1.3386,577.5652588000521,None,None,0,577.5652588000521,None,,P025,fencog,1,Pre,2022_Feb_15_1102,N-Back (New Version 2021),2021.1.4,120.72803839699186,
,,,,Conditions/Version_1/threeback(2)_v1.xlsx,New rule: Press 'space' when you see 3-back (i.e. the same letter as the one that appeared 3 letters ago.),u,None,,,,,,,,,0,6,6,6,0,5,5,5,,,,,,,,,,,,,,,,,,,,,,,,,,,,,,,,,,,,,,,,,,,,,,,,,,,,,,,,,,,,,,,,,,,,,1.5122,581.080972500029,None,None,1,581.080972500029,None,,P025,fencog,1,Pre,2022_Feb_15_1102,N-Back (New Version 2021),2021.1.4,120.72803839699186,
,,,,Conditions/Version_1/threeback(2)_v1.xlsx,New rule: Press 'space' when you see 3-back (i.e. the same letter as the one that appeared 3 letters ago.),P,space,,,,,,,,,0,6,6,6,0,6,6,6,,,,,,,,,,,,,,,,,,,,,,,,,,,,,,,,,,,,,,,,,,,,,,,,,,,,,,,,,,,,,,,,,,,,,1.3634,584.4465717000421,None,space,1,584.4465717000421,None,0.5980500000296161,P025,fencog,1,Pre,2022_Feb_15_1102,N-Back (New Version 2021),2021.1.4,120.72803839699186,
,,,,Conditions/Version_1/threeback(2)_v1.xlsx,New rule: Press 'space' when you see 3-back (i.e. the same letter as the one that appeared 3 letters ago.),a,None,,,,,,,,,0,6,6,6,0,7,7,7,,,,,,,,,,,,,,,,,,,,,,,,,,,,,,,,,,,,,,,,,,,,,,,,,,,,,,,,,,,,,,,,,,,,,1.0348,587.4880354000488,None,None,1,587.4880354000488,None,,P025,fencog,1,Pre,2022_Feb_15_1102,N-Back (New Version 2021),2021.1.4,120.72803839699186,
,,,,Conditions/Version_1/threeback(2)_v1.xlsx,New rule: Press 'space' when you see 3-back (i.e. the same letter as the one that appeared 3 letters ago.),U,space,,,,,,,,,0,6,6,6,0,8,8,8,,,,,,,,,,,,,,,,,,,,,,,,,,,,,,,,,,,,,,,,,,,,,,,,,,,,,,,,,,,,,,,,,,,,,1.0782,590.579741399968,None,None,0,590.579741399968,None,,P025,fencog,1,Pre,2022_Feb_15_1102,N-Back (New Version 2021),2021.1.4,120.72803839699186,
,,,,Conditions/Version_1/threeback(2)_v1.xlsx,New rule: Press 'space' when you see 3-back (i.e. the same letter as the one that appeared 3 letters ago.),q,None,,,,,,,,,0,6,6,6,0,9,9,9,,,,,,,,,,,,,,,,,,,,,,,,,,,,,,,,,,,,,,,,,,,,,,,,,,,,,,,,,,,,,,,,,,,,,1.4998,594.0864969000686,None,None,1,594.0864969000686,None,,P025,fencog,1,Pre,2022_Feb_15_1102,N-Back (New Version 2021),2021.1.4,120.72803839699186,
,,,,Conditions/Version_1/threeback(2)_v1.xlsx,New rule: Press 'space' when you see 3-back (i.e. the same letter as the one that appeared 3 letters ago.),,,,,,,,,,,0,6,6,6,,,,,,,,,,,,,,,,,,,,,,,,,,,,,,,,,,,,,,,,,,,,,,,,,,,,,,,,,,,,,,,,,,,,,,,,,,,,,,,,,P025,fencog,1,Pre,2022_Feb_15_1102,N-Back (New Version 2021),2021.1.4,120.72803839699186,
,,,,Conditions/Version_1/twoback(2)_v1.xlsx,New rule: Press 'space' when you see 2-back (i.e. the same letter as the one that appeared 2 letters ago.),q,None,,,,,,,,,0,7,7,7,0,0,0,0,,,,,,,,,,,,,,,,,,,,,,,,,,,,,,,,,,,,,,,,,,,,,,,,,,,,,,,,,,,596.117281600018,None,599.1029819999821,None,space,2.5096158999949694,599.1029819999821,None,596.117281600018,None,1.785,603.4326727000298,None,None,1,603.4326727000298,None,,P025,fencog,1,Pre,2022_Feb_15_1102,N-Back (New Version 2021),2021.1.4,120.72803839699186,
,,,,Conditions/Version_1/twoback(2)_v1.xlsx,New rule: Press 'space' when you see 2-back (i.e. the same letter as the one that appeared 2 letters ago.),r,None,,,,,,,,,0,7,7,7,0,1,1,1,,,,,,,,,,,,,,,,,,,,,,,,,,,,,,,,,,,,,,,,,,,,,,,,,,,,,,,,,,,,,,,,,,,,,1.6114,607.052090400015,None,None,1,607.052090400015,None,,P025,fencog,1,Pre,2022_Feb_15_1102,N-Back (New Version 2021),2021.1.4,120.72803839699186,
,,,,Conditions/Version_1/twoback(2)_v1.xlsx,New rule: Press 'space' when you see 2-back (i.e. the same letter as the one that appeared 2 letters ago.),q,space,,,,,,,,,0,7,7,7,0,2,2,2,,,,,,,,,,,,,,,,,,,,,,,,,,,,,,,,,,,,,,,,,,,,,,,,,,,,,,,,,,,,,,,,,,,,,1.5742,610.6305563000496,None,space,1,610.6305563000496,None,0.9019995999988168,P025,fencog,1,Pre,2022_Feb_15_1102,N-Back (New Version 2021),2021.1.4,120.72803839699186,
,,,,Conditions/Version_1/twoback(2)_v1.xlsx,New rule: Press 'space' when you see 2-back (i.e. the same letter as the one that appeared 2 letters ago.),P,None,,,,,,,,,0,7,7,7,0,3,3,3,,,,,,,,,,,,,,,,,,,,,,,,,,,,,,,,,,,,,,,,,,,,,,,,,,,,,,,,,,,,,,,,,,,,,1.7478,614.3798365000403,None,None,1,614.3798365000403,None,,P025,fencog,1,Pre,2022_Feb_15_1102,N-Back (New Version 2021),2021.1.4,120.72803839699186,
,,,,Conditions/Version_1/twoback(2)_v1.xlsx,New rule: Press 'space' when you see 2-back (i.e. the same letter as the one that appeared 2 letters ago.),p,None,,,,,,,,,0,7,7,7,0,4,4,4,,,,,,,,,,,,,,,,,,,,,,,,,,,,,,,,,,,,,,,,,,,,,,,,,,,,,,,,,,,,,,,,,,,,,1.1898,617.5701063000597,None,None,1,617.5701063000597,None,,P025,fencog,1,Pre,2022_Feb_15_1102,N-Back (New Version 2021),2021.1.4,120.72803839699186,
,,,,Conditions/Version_1/twoback(2)_v1.xlsx,New rule: Press 'space' when you see 2-back (i.e. the same letter as the one that appeared 2 letters ago.),H,None,,,,,,,,,0,7,7,7,0,5,5,5,,,,,,,,,,,,,,,,,,,,,,,,,,,,,,,,,,,,,,,,,,,,,,,,,,,,,,,,,,,,,,,,,,,,,1.0162,620.5858311000047,None,None,1,620.5858311000047,None,,P025,fencog,1,Pre,2022_Feb_15_1102,N-Back (New Version 2021),2021.1.4,120.72803839699186,
,,,,Conditions/Version_1/twoback(2)_v1.xlsx,New rule: Press 'space' when you see 2-back (i.e. the same letter as the one that appeared 2 letters ago.),g,None,,,,,,,,,0,7,7,7,0,6,6,6,,,,,,,,,,,,,,,,,,,,,,,,,,,,,,,,,,,,,,,,,,,,,,,,,,,,,,,,,,,,,,,,,,,,,1.6672,624.2526733999839,None,None,1,624.2526733999839,None,,P025,fencog,1,Pre,2022_Feb_15_1102,N-Back (New Version 2021),2021.1.4,120.72803839699186,
,,,,Conditions/Version_1/twoback(2)_v1.xlsx,New rule: Press 'space' when you see 2-back (i.e. the same letter as the one that appeared 2 letters ago.),j,None,,,,,,,,,0,7,7,7,0,7,7,7,,,,,,,,,,,,,,,,,,,,,,,,,,,,,,,,,,,,,,,,,,,,,,,,,,,,,,,,,,,,,,,,,,,,,1.4874,627.7556681999704,None,None,1,627.7556681999704,None,,P025,fencog,1,Pre,2022_Feb_15_1102,N-Back (New Version 2021),2021.1.4,120.72803839699186,
,,,,Conditions/Version_1/twoback(2)_v1.xlsx,New rule: Press 'space' when you see 2-back (i.e. the same letter as the one that appeared 2 letters ago.),g,space,,,,,,,,,0,7,7,7,0,8,8,8,,,,,,,,,,,,,,,,,,,,,,,,,,,,,,,,,,,,,,,,,,,,,,,,,,,,,,,,,,,,,,,,,,,,,1.3448,631.1079305000603,None,space,1,631.1079305000603,None,0.6004108999622986,P025,fencog,1,Pre,2022_Feb_15_1102,N-Back (New Version 2021),2021.1.4,120.72803839699186,
,,,,Conditions/Version_1/twoback(2)_v1.xlsx,New rule: Press 'space' when you see 2-back (i.e. the same letter as the one that appeared 2 letters ago.),G,None,,,,,,,,,0,7,7,7,0,9,9,9,,,,,,,,,,,,,,,,,,,,,,,,,,,,,,,,,,,,,,,,,,,,,,,,,,,,,,,,,,,,,,,,,,,,,1.599,634.7067237000447,None,None,1,634.7067237000447,None,,P025,fencog,1,Pre,2022_Feb_15_1102,N-Back (New Version 2021),2021.1.4,120.72803839699186,
,,,,Conditions/Version_1/twoback(2)_v1.xlsx,New rule: Press 'space' when you see 2-back (i.e. the same letter as the one that appeared 2 letters ago.),,,,,,,,,,,0,7,7,7,,,,,,,,,,,,,,,,,,,,,,,,,,,,,,,,,,,,,,,,,,,,,,,,,,,,,,,,,,,,,,,,,,,,,,,,,,,,,,,,,P025,fencog,1,Pre,2022_Feb_15_1102,N-Back (New Version 2021),2021.1.4,120.72803839699186,
,,,,Conditions/Version_1/threeback(3)_v1.xlsx,New rule: Press 'space' when you see 3-back (i.e. the same letter as the one that appeared 3 letters ago.),w,None,,,,,,,,,0,8,8,8,0,0,0,0,,,,,,,,,,,,,,,,,,,,,,,,,,,,,,,,,,,,,,,,,,,,,,,,,,,,,,,,,,,636.7287364000222,None,639.7148649999872,None,space,1.8655245000263676,639.7148649999872,None,636.7287364000222,None,1.847,643.45441450004,None,None,1,643.45441450004,None,,P025,fencog,1,Pre,2022_Feb_15_1102,N-Back (New Version 2021),2021.1.4,120.72803839699186,
,,,,Conditions/Version_1/threeback(3)_v1.xlsx,New rule: Press 'space' when you see 3-back (i.e. the same letter as the one that appeared 3 letters ago.),p,None,,,,,,,,,0,8,8,8,0,1,1,1,,,,,,,,,,,,,,,,,,,,,,,,,,,,,,,,,,,,,,,,,,,,,,,,,,,,,,,,,,,,,,,,,,,,,1.3386,646.7948996999767,None,None,1,646.7948996999767,None,,P025,fencog,1,Pre,2022_Feb_15_1102,N-Back (New Version 2021),2021.1.4,120.72803839699186,
,,,,Conditions/Version_1/threeback(3)_v1.xlsx,New rule: Press 'space' when you see 3-back (i.e. the same letter as the one that appeared 3 letters ago.),P,None,,,,,,,,,0,8,8,8,0,2,2,2,,,,,,,,,,,,,,,,,,,,,,,,,,,,,,,,,,,,,,,,,,,,,,,,,,,,,,,,,,,,,,,,,,,,,1.3882,650.1875445999904,None,None,1,650.1875445999904,None,,P025,fencog,1,Pre,2022_Feb_15_1102,N-Back (New Version 2021),2021.1.4,120.72803839699186,
,,,,Conditions/Version_1/threeback(3)_v1.xlsx,New rule: Press 'space' when you see 3-back (i.e. the same letter as the one that appeared 3 letters ago.),i,None,,,,,,,,,0,8,8,8,0,3,3,3,,,,,,,,,,,,,,,,,,,,,,,,,,,,,,,,,,,,,,,,,,,,,,,,,,,,,,,,,,,,,,,,,,,,,1.9834,654.1773268000688,None,None,1,654.1773268000688,None,,P025,fencog,1,Pre,2022_Feb_15_1102,N-Back (New Version 2021),2021.1.4,120.72803839699186,
,,,,Conditions/Version_1/threeback(3)_v1.xlsx,New rule: Press 'space' when you see 3-back (i.e. the same letter as the one that appeared 3 letters ago.),f,None,,,,,,,,,0,8,8,8,0,4,4,4,,,,,,,,,,,,,,,,,,,,,,,,,,,,,,,,,,,,,,,,,,,,,,,,,,,,,,,,,,,,,,,,,,,,,1.4626,657.6503006999847,None,None,1,657.6503006999847,None,,P025,fencog,1,Pre,2022_Feb_15_1102,N-Back (New Version 2021),2021.1.4,120.72803839699186,
,,,,Conditions/Version_1/threeback(3)_v1.xlsx,New rule: Press 'space' when you see 3-back (i.e. the same letter as the one that appeared 3 letters ago.),o,None,,,,,,,,,0,8,8,8,0,5,5,5,,,,,,,,,,,,,,,,,,,,,,,,,,,,,,,,,,,,,,,,,,,,,,,,,,,,,,,,,,,,,,,,,,,,,1.8532,661.5072810000274,None,None,1,661.5072810000274,None,,P025,fencog,1,Pre,2022_Feb_15_1102,N-Back (New Version 2021),2021.1.4,120.72803839699186,
,,,,Conditions/Version_1/threeback(3)_v1.xlsx,New rule: Press 'space' when you see 3-back (i.e. the same letter as the one that appeared 3 letters ago.),w,None,,,,,,,,,0,8,8,8,0,6,6,6,,,,,,,,,,,,,,,,,,,,,,,,,,,,,,,,,,,,,,,,,,,,,,,,,,,,,,,,,,,,,,,,,,,,,1.6734,665.1812922999961,None,space,0,665.1812922999961,None,0.5912306000245735,P025,fencog,1,Pre,2022_Feb_15_1102,N-Back (New Version 2021),2021.1.4,120.72803839699186,
,,,,Conditions/Version_1/threeback(3)_v1.xlsx,New rule: Press 'space' when you see 3-back (i.e. the same letter as the one that appeared 3 letters ago.),F,space,,,,,,,,,0,8,8,8,0,7,7,7,,,,,,,,,,,,,,,,,,,,,,,,,,,,,,,,,,,,,,,,,,,,,,,,,,,,,,,,,,,,,,,,,,,,,1.5866,668.7756104000146,None,None,0,668.7756104000146,None,,P025,fencog,1,Pre,2022_Feb_15_1102,N-Back (New Version 2021),2021.1.4,120.72803839699186,
,,,,Conditions/Version_1/threeback(3)_v1.xlsx,New rule: Press 'space' when you see 3-back (i.e. the same letter as the one that appeared 3 letters ago.),p,None,,,,,,,,,0,8,8,8,0,8,8,8,,,,,,,,,,,,,,,,,,,,,,,,,,,,,,,,,,,,,,,,,,,,,,,,,,,,,,,,,,,,,,,,,,,,,1.2952,672.0806548000546,None,None,1,672.0806548000546,None,,P025,fencog,1,Pre,2022_Feb_15_1102,N-Back (New Version 2021),2021.1.4,120.72803839699186,
,,,,Conditions/Version_1/threeback(3)_v1.xlsx,New rule: Press 'space' when you see 3-back (i.e. the same letter as the one that appeared 3 letters ago.),W,space,,,,,,,,,0,8,8,8,0,9,9,9,,,,,,,,,,,,,,,,,,,,,,,,,,,,,,,,,,,,,,,,,,,,,,,,,,,,,,,,,,,,,,,,,,,,,1.4502,675.5381133999908,None,space,1,675.5381133999908,None,0.6583569999784231,P025,fencog,1,Pre,2022_Feb_15_1102,N-Back (New Version 2021),2021.1.4,120.72803839699186,
,,,,Conditions/Version_1/threeback(3)_v1.xlsx,New rule: Press 'space' when you see 3-back (i.e. the same letter as the one that appeared 3 letters ago.),,,,,,,,,,,0,8,8,8,,,,,,,,,,,,,,,,,,,,,,,,,,,,,,,,,,,,,,,,,,,,,,,,,,,,,,,,,,,,,,,,,,,,,,,,,,,,,,,,,P025,fencog,1,Pre,2022_Feb_15_1102,N-Back (New Version 2021),2021.1.4,120.72803839699186,
,,,,Conditions/Version_1/zeroback(3)_v1.xlsx,New rule: Press 'space' when you see the letter 'x' or 'X'.,X,space,,,,,,,,,0,9,9,9,0,0,0,0,,,,,,,,,,,,,,,,,,,,,,,,,,,,,,,,,,,,,,,,,,,,,,,,,,,,,,,,,,,677.5650803999742,None,680.5540647000307,None,space,1.250398900010623,680.5540647000307,None,677.5650803999742,None,1.4874,683.328203800018,None,space,1,683.328203800018,None,0.6602284000255167,P025,fencog,1,Pre,2022_Feb_15_1102,N-Back (New Version 2021),2021.1.4,120.72803839699186,
,,,,Conditions/Version_1/zeroback(3)_v1.xlsx,New rule: Press 'space' when you see the letter 'x' or 'X'.,B,None,,,,,,,,,0,9,9,9,0,1,1,1,,,,,,,,,,,,,,,,,,,,,,,,,,,,,,,,,,,,,,,,,,,,,,,,,,,,,,,,,,,,,,,,,,,,,1.2394,686.5771239000605,None,None,1,686.5771239000605,None,,P025,fencog,1,Pre,2022_Feb_15_1102,N-Back (New Version 2021),2021.1.4,120.72803839699186,
,,,,Conditions/Version_1/zeroback(3)_v1.xlsx,New rule: Press 'space' when you see the letter 'x' or 'X'.,m,None,,,,,,,,,0,9,9,9,0,2,2,2,,,,,,,,,,,,,,,,,,,,,,,,,,,,,,,,,,,,,,,,,,,,,,,,,,,,,,,,,,,,,,,,,,,,,1.2642,689.8495576999849,None,None,1,689.8495576999849,None,,P025,fencog,1,Pre,2022_Feb_15_1102,N-Back (New Version 2021),2021.1.4,120.72803839699186,
,,,,Conditions/Version_1/zeroback(3)_v1.xlsx,New rule: Press 'space' when you see the letter 'x' or 'X'.,m,None,,,,,,,,,0,9,9,9,0,3,3,3,,,,,,,,,,,,,,,,,,,,,,,,,,,,,,,,,,,,,,,,,,,,,,,,,,,,,,,,,,,,,,,,,,,,,1.9896,693.8393982000416,None,None,1,693.8393982000416,None,,P025,fencog,1,Pre,2022_Feb_15_1102,N-Back (New Version 2021),2021.1.4,120.72803839699186,
,,,,Conditions/Version_1/zeroback(3)_v1.xlsx,New rule: Press 'space' when you see the letter 'x' or 'X'.,o,None,,,,,,,,,0,9,9,9,0,4,4,4,,,,,,,,,,,,,,,,,,,,,,,,,,,,,,,,,,,,,,,,,,,,,,,,,,,,,,,,,,,,,,,,,,,,,1.9338,697.7800925000338,None,None,1,697.7800925000338,None,,P025,fencog,1,Pre,2022_Feb_15_1102,N-Back (New Version 2021),2021.1.4,120.72803839699186,
,,,,Conditions/Version_1/zeroback(3)_v1.xlsx,New rule: Press 'space' when you see the letter 'x' or 'X'.,p,None,,,,,,,,,0,9,9,9,0,5,5,5,,,,,,,,,,,,,,,,,,,,,,,,,,,,,,,,,,,,,,,,,,,,,,,,,,,,,,,,,,,,,,,,,,,,,1.4998,701.2808628000785,None,None,1,701.2808628000785,None,,P025,fencog,1,Pre,2022_Feb_15_1102,N-Back (New Version 2021),2021.1.4,120.72803839699186,
,,,,Conditions/Version_1/zeroback(3)_v1.xlsx,New rule: Press 'space' when you see the letter 'x' or 'X'.,G,None,,,,,,,,,0,9,9,9,0,6,6,6,,,,,,,,,,,,,,,,,,,,,,,,,,,,,,,,,,,,,,,,,,,,,,,,,,,,,,,,,,,,,,,,,,,,,1.8842,705.1796826000791,None,None,1,705.1796826000791,None,,P025,fencog,1,Pre,2022_Feb_15_1102,N-Back (New Version 2021),2021.1.4,120.72803839699186,
,,,,Conditions/Version_1/zeroback(3)_v1.xlsx,New rule: Press 'space' when you see the letter 'x' or 'X'.,X,space,,,,,,,,,0,9,9,9,0,7,7,7,,,,,,,,,,,,,,,,,,,,,,,,,,,,,,,,,,,,,,,,,,,,,,,,,,,,,,,,,,,,,,,,,,,,,1.7788,708.9694751000497,None,space,1,708.9694751000497,None,0.6430073999799788,P025,fencog,1,Pre,2022_Feb_15_1102,N-Back (New Version 2021),2021.1.4,120.72803839699186,
,,,,Conditions/Version_1/zeroback(3)_v1.xlsx,New rule: Press 'space' when you see the letter 'x' or 'X'.,p,None,,,,,,,,,0,9,9,9,0,8,8,8,,,,,,,,,,,,,,,,,,,,,,,,,,,,,,,,,,,,,,,,,,,,,,,,,,,,,,,,,,,,,,,,,,,,,1.3572,712.3340118000051,None,None,1,712.3340118000051,None,,P025,fencog,1,Pre,2022_Feb_15_1102,N-Back (New Version 2021),2021.1.4,120.72803839699186,
,,,,Conditions/Version_1/zeroback(3)_v1.xlsx,New rule: Press 'space' when you see the letter 'x' or 'X'.,x,space,,,,,,,,,0,9,9,9,0,9,9,9,,,,,,,,,,,,,,,,,,,,,,,,,,,,,,,,,,,,,,,,,,,,,,,,,,,,,,,,,,,,,,,,,,,,,1.4378,715.7760615000734,None,space,1,715.7760615000734,None,0.4687375999055803,P025,fencog,1,Pre,2022_Feb_15_1102,N-Back (New Version 2021),2021.1.4,120.72803839699186,
,,,,Conditions/Version_1/zeroback(3)_v1.xlsx,New rule: Press 'space' when you see the letter 'x' or 'X'.,,,,,,,,,,,0,9,9,9,,,,,,,,,,,,,,,,,,,,,,,,,,,,,,,,,,,,,,,,,,,,,,,,,,,,,,,,,,,,,,,,,,,,,,,,,,,,,,,,,P025,fencog,1,Pre,2022_Feb_15_1102,N-Back (New Version 2021),2021.1.4,120.72803839699186,
,,,,Conditions/Version_1/twoback(3)_v1.xlsx,New rule: Press 'space' when you see 2-back (i.e. the same letter as the one that appeared 2 letters ago.),e,None,,,,,,,,,0,10,10,10,0,0,0,0,,,,,,,,,,,,,,,,,,,,,,,,,,,,,,,,,,,,,,,,,,,,,,,,,,,,,,,,,,,717.8036176000023,None,720.7925375000341,None,space,1.668120300048031,720.7925375000341,None,717.8036176000023,None,1.3696,723.8638936000643,None,None,1,723.8638936000643,None,,P025,fencog,1,Pre,2022_Feb_15_1102,N-Back (New Version 2021),2021.1.4,120.72803839699186,
,,,,Conditions/Version_1/twoback(3)_v1.xlsx,New rule: Press 'space' when you see 2-back (i.e. the same letter as the one that appeared 2 letters ago.),o,None,,,,,,,,,0,10,10,10,0,1,1,1,,,,,,,,,,,,,,,,,,,,,,,,,,,,,,,,,,,,,,,,,,,,,,,,,,,,,,,,,,,,,,,,,,,,,1.0906,726.9553591000149,None,None,1,726.9553591000149,None,,P025,fencog,1,Pre,2022_Feb_15_1102,N-Back (New Version 2021),2021.1.4,120.72803839699186,
,,,,Conditions/Version_1/twoback(3)_v1.xlsx,New rule: Press 'space' when you see 2-back (i.e. the same letter as the one that appeared 2 letters ago.),P,None,,,,,,,,,0,10,10,10,0,2,2,2,,,,,,,,,,,,,,,,,,,,,,,,,,,,,,,,,,,,,,,,,,,,,,,,,,,,,,,,,,,,,,,,,,,,,1.5866,730.5544478000375,None,None,1,730.5544478000375,None,,P025,fencog,1,Pre,2022_Feb_15_1102,N-Back (New Version 2021),2021.1.4,120.72803839699186,
,,,,Conditions/Version_1/twoback(3)_v1.xlsx,New rule: Press 'space' when you see 2-back (i.e. the same letter as the one that appeared 2 letters ago.),z,None,,,,,,,,,0,10,10,10,0,3,3,3,,,,,,,,,,,,,,,,,,,,,,,,,,,,,,,,,,,,,,,,,,,,,,,,,,,,,,,,,,,,,,,,,,,,,1.6858,734.2554798000492,None,None,1,734.2554798000492,None,,P025,fencog,1,Pre,2022_Feb_15_1102,N-Back (New Version 2021),2021.1.4,120.72803839699186,
,,,,Conditions/Version_1/twoback(3)_v1.xlsx,New rule: Press 'space' when you see 2-back (i.e. the same letter as the one that appeared 2 letters ago.),X,None,,,,,,,,,0,10,10,10,0,4,4,4,,,,,,,,,,,,,,,,,,,,,,,,,,,,,,,,,,,,,,,,,,,,,,,,,,,,,,,,,,,,,,,,,,,,,1.01,737.2766451999778,None,None,1,737.2766451999778,None,,P025,fencog,1,Pre,2022_Feb_15_1102,N-Back (New Version 2021),2021.1.4,120.72803839699186,
,,,,Conditions/Version_1/twoback(3)_v1.xlsx,New rule: Press 'space' when you see 2-back (i.e. the same letter as the one that appeared 2 letters ago.),z,space,,,,,,,,,0,10,10,10,0,5,5,5,,,,,,,,,,,,,,,,,,,,,,,,,,,,,,,,,,,,,,,,,,,,,,,,,,,,,,,,,,,,,,,,,,,,,1.9338,741.2176000999752,None,space,1,741.2176000999752,None,1.1390561000443995,P025,fencog,1,Pre,2022_Feb_15_1102,N-Back (New Version 2021),2021.1.4,120.72803839699186,
,,,,Conditions/Version_1/twoback(3)_v1.xlsx,New rule: Press 'space' when you see 2-back (i.e. the same letter as the one that appeared 2 letters ago.),x,space,,,,,,,,,0,10,10,10,0,6,6,6,,,,,,,,,,,,,,,,,,,,,,,,,,,,,,,,,,,,,,,,,,,,,,,,,,,,,,,,,,,,,,,,,,,,,1.4874,744.7087859000312,None,space,1,744.7087859000312,None,1.3597279000096023,P025,fencog,1,Pre,2022_Feb_15_1102,N-Back (New Version 2021),2021.1.4,120.72803839699186,
,,,,Conditions/Version_1/twoback(3)_v1.xlsx,New rule: Press 'space' when you see 2-back (i.e. the same letter as the one that appeared 2 letters ago.),c,None,,,,,,,,,0,10,10,10,0,7,7,7,,,,,,,,,,,,,,,,,,,,,,,,,,,,,,,,,,,,,,,,,,,,,,,,,,,,,,,,,,,,,,,,,,,,,1.1898,747.9067671999801,None,None,1,747.9067671999801,None,,P025,fencog,1,Pre,2022_Feb_15_1102,N-Back (New Version 2021),2021.1.4,120.72803839699186,
,,,,Conditions/Version_1/twoback(3)_v1.xlsx,New rule: Press 'space' when you see 2-back (i.e. the same letter as the one that appeared 2 letters ago.),i,None,,,,,,,,,0,10,10,10,0,8,8,8,,,,,,,,,,,,,,,,,,,,,,,,,,,,,,,,,,,,,,,,,,,,,,,,,,,,,,,,,,,,,,,,,,,,,1.4378,751.3476417000638,None,None,1,751.3476417000638,None,,P025,fencog,1,Pre,2022_Feb_15_1102,N-Back (New Version 2021),2021.1.4,120.72803839699186,
,,,,Conditions/Version_1/twoback(3)_v1.xlsx,New rule: Press 'space' when you see 2-back (i.e. the same letter as the one that appeared 2 letters ago.),C,space,,,,,,,,,0,10,10,10,0,9,9,9,,,,,,,,,,,,,,,,,,,,,,,,,,,,,,,,,,,,,,,,,,,,,,,,,,,,,,,,,,,,,,,,,,,,,1.6424,754.9964024999645,None,space,1,754.9964024999645,None,0.648007900104858,P025,fencog,1,Pre,2022_Feb_15_1102,N-Back (New Version 2021),2021.1.4,120.72803839699186,
,,,,Conditions/Version_1/twoback(3)_v1.xlsx,New rule: Press 'space' when you see 2-back (i.e. the same letter as the one that appeared 2 letters ago.),,,,,,,,,,,0,10,10,10,,,,,,,,,,,,,,,,,,,,,,,,,,,,,,,,,,,,,,,,,,,,,,,,,,,,,,,,,,,,,,,,,,,,,,,,,,,,,,,,,P025,fencog,1,Pre,2022_Feb_15_1102,N-Back (New Version 2021),2021.1.4,120.72803839699186,
,,,,Conditions/Version_1/oneback(3)_v1.xlsx,New rule: Press 'space' when you see 1-back (i.e. the same letter as the one that appeared 1 letter ago.),o,None,,,,,,,,,0,11,11,11,0,0,0,0,,,,,,,,,,,,,,,,,,,,,,,,,,,,,,,,,,,,,,,,,,,,,,,,,,,,,,,,,,,757.0341008000541,None,760.0223704000236,None,space,0.6782323999796063,760.0223704000236,None,757.0341008000541,None,1.2208,761.9526509999996,None,None,1,761.9526509999996,None,,P025,fencog,1,Pre,2022_Feb_15_1102,N-Back (New Version 2021),2021.1.4,120.72803839699186,
,,,,Conditions/Version_1/oneback(3)_v1.xlsx,New rule: Press 'space' when you see 1-back (i.e. the same letter as the one that appeared 1 letter ago.),O,space,,,,,,,,,0,11,11,11,0,1,1,1,,,,,,,,,,,,,,,,,,,,,,,,,,,,,,,,,,,,,,,,,,,,,,,,,,,,,,,,,,,,,,,,,,,,,1.2084,765.1620116999839,None,space,1,765.1620116999839,None,0.6184961000690237,P025,fencog,1,Pre,2022_Feb_15_1102,N-Back (New Version 2021),2021.1.4,120.72803839699186,
,,,,Conditions/Version_1/oneback(3)_v1.xlsx,New rule: Press 'space' when you see 1-back (i.e. the same letter as the one that appeared 1 letter ago.),h,None,,,,,,,,,0,11,11,11,0,2,2,2,,,,,,,,,,,,,,,,,,,,,,,,,,,,,,,,,,,,,,,,,,,,,,,,,,,,,,,,,,,,,,,,,,,,,1.1092,768.2851756999735,None,None,1,768.2851756999735,None,,P025,fencog,1,Pre,2022_Feb_15_1102,N-Back (New Version 2021),2021.1.4,120.72803839699186,
,,,,Conditions/Version_1/oneback(3)_v1.xlsx,New rule: Press 'space' when you see 1-back (i.e. the same letter as the one that appeared 1 letter ago.),g,None,,,,,,,,,0,11,11,11,0,3,3,3,,,,,,,,,,,,,,,,,,,,,,,,,,,,,,,,,,,,,,,,,,,,,,,,,,,,,,,,,,,,,,,,,,,,,1.909,772.2085369999986,None,None,1,772.2085369999986,None,,P025,fencog,1,Pre,2022_Feb_15_1102,N-Back (New Version 2021),2021.1.4,120.72803839699186,
,,,,Conditions/Version_1/oneback(3)_v1.xlsx,New rule: Press 'space' when you see 1-back (i.e. the same letter as the one that appeared 1 letter ago.),n,None,,,,,,,,,0,11,11,11,0,4,4,4,,,,,,,,,,,,,,,,,,,,,,,,,,,,,,,,,,,,,,,,,,,,,,,,,,,,,,,,,,,,,,,,,,,,,1.6238,775.8318619000493,None,None,1,775.8318619000493,None,,P025,fencog,1,Pre,2022_Feb_15_1102,N-Back (New Version 2021),2021.1.4,120.72803839699186,
,,,,Conditions/Version_1/oneback(3)_v1.xlsx,New rule: Press 'space' when you see 1-back (i.e. the same letter as the one that appeared 1 letter ago.),z,None,,,,,,,,,0,11,11,11,0,5,5,5,,,,,,,,,,,,,,,,,,,,,,,,,,,,,,,,,,,,,,,,,,,,,,,,,,,,,,,,,,,,,,,,,,,,,1.9462,779.7806315000635,None,None,1,779.7806315000635,None,,P025,fencog,1,Pre,2022_Feb_15_1102,N-Back (New Version 2021),2021.1.4,120.72803839699186,
,,,,Conditions/Version_1/oneback(3)_v1.xlsx,New rule: Press 'space' when you see 1-back (i.e. the same letter as the one that appeared 1 letter ago.),X,None,,,,,,,,,0,11,11,11,0,6,6,6,,,,,,,,,,,,,,,,,,,,,,,,,,,,,,,,,,,,,,,,,,,,,,,,,,,,,,,,,,,,,,,,,,,,,1.6982,783.4826828000369,None,None,1,783.4826828000369,None,,P025,fencog,1,Pre,2022_Feb_15_1102,N-Back (New Version 2021),2021.1.4,120.72803839699186,
,,,,Conditions/Version_1/oneback(3)_v1.xlsx,New rule: Press 'space' when you see 1-back (i.e. the same letter as the one that appeared 1 letter ago.),r,None,,,,,,,,,0,11,11,11,0,7,7,7,,,,,,,,,,,,,,,,,,,,,,,,,,,,,,,,,,,,,,,,,,,,,,,,,,,,,,,,,,,,,,,,,,,,,1.041,786.5286655999953,None,None,1,786.5286655999953,None,,P025,fencog,1,Pre,2022_Feb_15_1102,N-Back (New Version 2021),2021.1.4,120.72803839699186,
,,,,Conditions/Version_1/oneback(3)_v1.xlsx,New rule: Press 'space' when you see 1-back (i.e. the same letter as the one that appeared 1 letter ago.),r,space,,,,,,,,,0,11,11,11,0,8,8,8,,,,,,,,,,,,,,,,,,,,,,,,,,,,,,,,,,,,,,,,,,,,,,,,,,,,,,,,,,,,,,,,,,,,,1.9214,790.4525633000303,None,space,1,790.4525633000303,None,0.5518781000282615,P025,fencog,1,Pre,2022_Feb_15_1102,N-Back (New Version 2021),2021.1.4,120.72803839699186,
,,,,Conditions/Version_1/oneback(3)_v1.xlsx,New rule: Press 'space' when you see 1-back (i.e. the same letter as the one that appeared 1 letter ago.),P,None,,,,,,,,,0,11,11,11,0,9,9,9,,,,,,,,,,,,,,,,,,,,,,,,,,,,,,,,,,,,,,,,,,,,,,,,,,,,,,,,,,,,,,,,,,,,,1.5866,794.0435640000505,None,None,1,794.0435640000505,None,,P025,fencog,1,Pre,2022_Feb_15_1102,N-Back (New Version 2021),2021.1.4,120.72803839699186,
,,,,Conditions/Version_1/oneback(3)_v1.xlsx,New rule: Press 'space' when you see 1-back (i.e. the same letter as the one that appeared 1 letter ago.),,,,,,,,,,,0,11,11,11,,,,,,,,,,,,,,,,,,,,,,,,,,,,,,,,,,,,,,,,,,,,,,,,,,,,,,,,,,,,,,,,,,,,,,,,,,,,,,,,,P025,fencog,1,Pre,2022_Feb_15_1102,N-Back (New Version 2021),2021.1.4,120.72803839699186,
,,,,Conditions/Version_1/twoback(4)_v1.xlsx,New rule: Press 'space' when you see 2-back (i.e. the same letter as the one that appeared 2 letters ago.),r,None,,,,,,,,,0,12,12,12,0,0,0,0,,,,,,,,,,,,,,,,,,,,,,,,,,,,,,,,,,,,,,,,,,,,,,,,,,,,,,,,,,,796.0683035000693,None,799.0520819000667,None,space,3.3124100000131875,799.0520819000667,None,796.0683035000693,None,1.1588,803.5833123000339,None,None,1,803.5833123000339,None,,P025,fencog,1,Pre,2022_Feb_15_1102,N-Back (New Version 2021),2021.1.4,120.72803839699186,
,,,,Conditions/Version_1/twoback(4)_v1.xlsx,New rule: Press 'space' when you see 2-back (i.e. the same letter as the one that appeared 2 letters ago.),T,None,,,,,,,,,0,12,12,12,0,1,1,1,,,,,,,,,,,,,,,,,,,,,,,,,,,,,,,,,,,,,,,,,,,,,,,,,,,,,,,,,,,,,,,,,,,,,1.9958,807.5893091000617,None,None,1,807.5893091000617,None,,P025,fencog,1,Pre,2022_Feb_15_1102,N-Back (New Version 2021),2021.1.4,120.72803839699186,
,,,,Conditions/Version_1/twoback(4)_v1.xlsx,New rule: Press 'space' when you see 2-back (i.e. the same letter as the one that appeared 2 letters ago.),o,None,,,,,,,,,0,12,12,12,0,2,2,2,,,,,,,,,,,,,,,,,,,,,,,,,,,,,,,,,,,,,,,,,,,,,,,,,,,,,,,,,,,,,,,,,,,,,1.847,811.4381583000068,None,None,1,811.4381583000068,None,,P025,fencog,1,Pre,2022_Feb_15_1102,N-Back (New Version 2021),2021.1.4,120.72803839699186,
,,,,Conditions/Version_1/twoback(4)_v1.xlsx,New rule: Press 'space' when you see 2-back (i.e. the same letter as the one that appeared 2 letters ago.),p,None,,,,,,,,,0,12,12,12,0,3,3,3,,,,,,,,,,,,,,,,,,,,,,,,,,,,,,,,,,,,,,,,,,,,,,,,,,,,,,,,,,,,,,,,,,,,,1.5308,814.9702846000437,None,None,1,814.9702846000437,None,,P025,fencog,1,Pre,2022_Feb_15_1102,N-Back (New Version 2021),2021.1.4,120.72803839699186,
,,,,Conditions/Version_1/twoback(4)_v1.xlsx,New rule: Press 'space' when you see 2-back (i.e. the same letter as the one that appeared 2 letters ago.),p,None,,,,,,,,,0,12,12,12,0,4,4,4,,,,,,,,,,,,,,,,,,,,,,,,,,,,,,,,,,,,,,,,,,,,,,,,,,,,,,,,,,,,,,,,,,,,,1.3696,818.3445141999982,None,None,1,818.3445141999982,None,,P025,fencog,1,Pre,2022_Feb_15_1102,N-Back (New Version 2021),2021.1.4,120.72803839699186,
,,,,Conditions/Version_1/twoback(4)_v1.xlsx,New rule: Press 'space' when you see 2-back (i.e. the same letter as the one that appeared 2 letters ago.),y,None,,,,,,,,,0,12,12,12,0,5,5,5,,,,,,,,,,,,,,,,,,,,,,,,,,,,,,,,,,,,,,,,,,,,,,,,,,,,,,,,,,,,,,,,,,,,,1.0534,821.4017778000562,None,None,1,821.4017778000562,None,,P025,fencog,1,Pre,2022_Feb_15_1102,N-Back (New Version 2021),2021.1.4,120.72803839699186,
,,,,Conditions/Version_1/twoback(4)_v1.xlsx,New rule: Press 'space' when you see 2-back (i.e. the same letter as the one that appeared 2 letters ago.),P,space,,,,,,,,,0,12,12,12,0,6,6,6,,,,,,,,,,,,,,,,,,,,,,,,,,,,,,,,,,,,,,,,,,,,,,,,,,,,,,,,,,,,,,,,,,,,,1.0596,824.4677422000095,None,space,1,824.4677422000095,None,1.6890728999860585,P025,fencog,1,Pre,2022_Feb_15_1102,N-Back (New Version 2021),2021.1.4,120.72803839699186,
,,,,Conditions/Version_1/twoback(4)_v1.xlsx,New rule: Press 'space' when you see 2-back (i.e. the same letter as the one that appeared 2 letters ago.),y,None,,,,,,,,,0,12,12,12,0,7,7,7,,,,,,,,,,,,,,,,,,,,,,,,,,,,,,,,,,,,,,,,,,,,,,,,,,,,,,,,,,,,,,,,,,,,,1.7106,828.1834519000258,None,space,0,828.1834519000258,None,1.0052593000000343,P025,fencog,1,Pre,2022_Feb_15_1102,N-Back (New Version 2021),2021.1.4,120.72803839699186,
,,,,Conditions/Version_1/twoback(4)_v1.xlsx,New rule: Press 'space' when you see 2-back (i.e. the same letter as the one that appeared 2 letters ago.),y,space,,,,,,,,,0,12,12,12,0,8,8,8,,,,,,,,,,,,,,,,,,,,,,,,,,,,,,,,,,,,,,,,,,,,,,,,,,,,,,,,,,,,,,,,,,,,,1.2456,831.4320811000653,None,None,0,831.4320811000653,None,,P025,fencog,1,Pre,2022_Feb_15_1102,N-Back (New Version 2021),2021.1.4,120.72803839699186,
,,,,Conditions/Version_1/twoback(4)_v1.xlsx,New rule: Press 'space' when you see 2-back (i.e. the same letter as the one that appeared 2 letters ago.),,,,,,,,,,,0,12,12,12,,,,,,,,,,,,,,,,,,,,,,,,,,,,,,,,,,,,,,,,,,,,,,,,,,,,,,,,,,,,,,,,,,,,,,,,,,,,,,,,,P025,fencog,1,Pre,2022_Feb_15_1102,N-Back (New Version 2021),2021.1.4,120.72803839699186,
,,,,Conditions/Version_1/zeroback(4)_v1.xlsx,New rule: Press 'space' when you see the letter 'x' or 'X'.,o,None,,,,,,,,,0,13,13,13,0,0,0,0,,,,,,,,,,,,,,,,,,,,,,,,,,,,,,,,,,,,,,,,,,,,,,,,,,,,,,,,,,,833.454443900031,None,836.4419641999993,None,space,0.6025748000247404,836.4419641999993,None,833.454443900031,None,1.723,838.7976610000478,None,None,1,838.7976610000478,None,,P025,fencog,1,Pre,2022_Feb_15_1102,N-Back (New Version 2021),2021.1.4,120.72803839699186,
,,,,Conditions/Version_1/zeroback(4)_v1.xlsx,New rule: Press 'space' when you see the letter 'x' or 'X'.,X,space,,,,,,,,,0,13,13,13,0,1,1,1,,,,,,,,,,,,,,,,,,,,,,,,,,,,,,,,,,,,,,,,,,,,,,,,,,,,,,,,,,,,,,,,,,,,,1.3448,842.1541273000184,None,space,1,842.1541273000184,None,0.5543892000569031,P025,fencog,1,Pre,2022_Feb_15_1102,N-Back (New Version 2021),2021.1.4,120.72803839699186,
,,,,Conditions/Version_1/zeroback(4)_v1.xlsx,New rule: Press 'space' when you see the letter 'x' or 'X'.,p,None,,,,,,,,,0,13,13,13,0,2,2,2,,,,,,,,,,,,,,,,,,,,,,,,,,,,,,,,,,,,,,,,,,,,,,,,,,,,,,,,,,,,,,,,,,,,,1.8656,846.020809300011,None,None,1,846.020809300011,None,,P025,fencog,1,Pre,2022_Feb_15_1102,N-Back (New Version 2021),2021.1.4,120.72803839699186,
,,,,Conditions/Version_1/zeroback(4)_v1.xlsx,New rule: Press 'space' when you see the letter 'x' or 'X'.,m,None,,,,,,,,,0,13,13,13,0,3,3,3,,,,,,,,,,,,,,,,,,,,,,,,,,,,,,,,,,,,,,,,,,,,,,,,,,,,,,,,,,,,,,,,,,,,,1.1588,849.1864167000167,None,None,1,849.1864167000167,None,,P025,fencog,1,Pre,2022_Feb_15_1102,N-Back (New Version 2021),2021.1.4,120.72803839699186,
,,,,Conditions/Version_1/zeroback(4)_v1.xlsx,New rule: Press 'space' when you see the letter 'x' or 'X'.,n,None,,,,,,,,,0,13,13,13,0,4,4,4,,,,,,,,,,,,,,,,,,,,,,,,,,,,,,,,,,,,,,,,,,,,,,,,,,,,,,,,,,,,,,,,,,,,,1.0782,852.2762321999762,None,None,1,852.2762321999762,None,,P025,fencog,1,Pre,2022_Feb_15_1102,N-Back (New Version 2021),2021.1.4,120.72803839699186,
,,,,Conditions/Version_1/zeroback(4)_v1.xlsx,New rule: Press 'space' when you see the letter 'x' or 'X'.,m,None,,,,,,,,,0,13,13,13,0,5,5,5,,,,,,,,,,,,,,,,,,,,,,,,,,,,,,,,,,,,,,,,,,,,,,,,,,,,,,,,,,,,,,,,,,,,,1.3138,855.5918660999741,None,None,1,855.5918660999741,None,,P025,fencog,1,Pre,2022_Feb_15_1102,N-Back (New Version 2021),2021.1.4,120.72803839699186,
,,,,Conditions/Version_1/zeroback(4)_v1.xlsx,New rule: Press 'space' when you see the letter 'x' or 'X'.,C,None,,,,,,,,,0,13,13,13,0,6,6,6,,,,,,,,,,,,,,,,,,,,,,,,,,,,,,,,,,,,,,,,,,,,,,,,,,,,,,,,,,,,,,,,,,,,,1.01,858.6078052000375,None,None,1,858.6078052000375,None,,P025,fencog,1,Pre,2022_Feb_15_1102,N-Back (New Version 2021),2021.1.4,120.72803839699186,
,,,,Conditions/Version_1/zeroback(4)_v1.xlsx,New rule: Press 'space' when you see the letter 'x' or 'X'.,m,None,,,,,,,,,0,13,13,13,0,7,7,7,,,,,,,,,,,,,,,,,,,,,,,,,,,,,,,,,,,,,,,,,,,,,,,,,,,,,,,,,,,,,,,,,,,,,1.2022,861.816170200007,None,None,1,861.816170200007,None,,P025,fencog,1,Pre,2022_Feb_15_1102,N-Back (New Version 2021),2021.1.4,120.72803839699186,
,,,,Conditions/Version_1/zeroback(4)_v1.xlsx,New rule: Press 'space' when you see the letter 'x' or 'X'.,p,None,,,,,,,,,0,13,13,13,0,8,8,8,,,,,,,,,,,,,,,,,,,,,,,,,,,,,,,,,,,,,,,,,,,,,,,,,,,,,,,,,,,,,,,,,,,,,1.9958,865.8245646000141,None,None,1,865.8245646000141,None,,P025,fencog,1,Pre,2022_Feb_15_1102,N-Back (New Version 2021),2021.1.4,120.72803839699186,
,,,,Conditions/Version_1/zeroback(4)_v1.xlsx,New rule: Press 'space' when you see the letter 'x' or 'X'.,X,space,,,,,,,,,0,13,13,13,0,9,9,9,,,,,,,,,,,,,,,,,,,,,,,,,,,,,,,,,,,,,,,,,,,,,,,,,,,,,,,,,,,,,,,,,,,,,1.134,868.9748260000488,None,space,1,868.9748260000488,None,0.7098033999791369,P025,fencog,1,Pre,2022_Feb_15_1102,N-Back (New Version 2021),2021.1.4,120.72803839699186,
,,,,Conditions/Version_1/zeroback(4)_v1.xlsx,New rule: Press 'space' when you see the letter 'x' or 'X'.,,,,,,,,,,,0,13,13,13,,,,,,,,,,,,,,,,,,,,,,,,,,,,,,,,,,,,,,,,,,,,,,,,,,,,,,,,,,,,,,,,,,,,,,,,,,,,,,,,,P025,fencog,1,Pre,2022_Feb_15_1102,N-Back (New Version 2021),2021.1.4,120.72803839699186,
,,,,Conditions/Version_1/oneback(4)_v1.xlsx,New rule: Press 'space' when you see 1-back (i.e. the same letter as the one that appeared 1 letter ago.),w,None,,,,,,,,,0,14,14,14,0,0,0,0,,,,,,,,,,,,,,,,,,,,,,,,,,,,,,,,,,,,,,,,,,,,,,,,,,,,,,,,,,,871.0009684000397,None,873.9888730000239,None,space,0.7916183000197634,873.9888730000239,None,871.0009684000397,None,1.6858,876.4947751000291,None,None,1,876.4947751000291,None,,P025,fencog,1,Pre,2022_Feb_15_1102,N-Back (New Version 2021),2021.1.4,120.72803839699186,
,,,,Conditions/Version_1/oneback(4)_v1.xlsx,New rule: Press 'space' when you see 1-back (i.e. the same letter as the one that appeared 1 letter ago.),q,None,,,,,,,,,0,14,14,14,0,1,1,1,,,,,,,,,,,,,,,,,,,,,,,,,,,,,,,,,,,,,,,,,,,,,,,,,,,,,,,,,,,,,,,,,,,,,1.01,879.5182720000157,None,None,1,879.5182720000157,None,,P025,fencog,1,Pre,2022_Feb_15_1102,N-Back (New Version 2021),2021.1.4,120.72803839699186,
,,,,Conditions/Version_1/oneback(4)_v1.xlsx,New rule: Press 'space' when you see 1-back (i.e. the same letter as the one that appeared 1 letter ago.),i,None,,,,,,,,,0,14,14,14,0,2,2,2,,,,,,,,,,,,,,,,,,,,,,,,,,,,,,,,,,,,,,,,,,,,,,,,,,,,,,,,,,,,,,,,,,,,,1.599,883.1226189000299,None,None,1,883.1226189000299,None,,P025,fencog,1,Pre,2022_Feb_15_1102,N-Back (New Version 2021),2021.1.4,120.72803839699186,
,,,,Conditions/Version_1/oneback(4)_v1.xlsx,New rule: Press 'space' when you see 1-back (i.e. the same letter as the one that appeared 1 letter ago.),t,None,,,,,,,,,0,14,14,14,0,3,3,3,,,,,,,,,,,,,,,,,,,,,,,,,,,,,,,,,,,,,,,,,,,,,,,,,,,,,,,,,,,,,,,,,,,,,1.5184,886.6505976000335,None,None,1,886.6505976000335,None,,P025,fencog,1,Pre,2022_Feb_15_1102,N-Back (New Version 2021),2021.1.4,120.72803839699186,
,,,,Conditions/Version_1/oneback(4)_v1.xlsx,New rule: Press 'space' when you see 1-back (i.e. the same letter as the one that appeared 1 letter ago.),v,None,,,,,,,,,0,14,14,14,0,4,4,4,,,,,,,,,,,,,,,,,,,,,,,,,,,,,,,,,,,,,,,,,,,,,,,,,,,,,,,,,,,,,,,,,,,,,1.2022,889.8680756000103,None,None,1,889.8680756000103,None,,P025,fencog,1,Pre,2022_Feb_15_1102,N-Back (New Version 2021),2021.1.4,120.72803839699186,
,,,,Conditions/Version_1/oneback(4)_v1.xlsx,New rule: Press 'space' when you see 1-back (i.e. the same letter as the one that appeared 1 letter ago.),V,space,,,,,,,,,0,14,14,14,0,5,5,5,,,,,,,,,,,,,,,,,,,,,,,,,,,,,,,,,,,,,,,,,,,,,,,,,,,,,,,,,,,,,,,,,,,,,1.4874,893.3651130000362,None,space,1,893.3651130000362,None,0.5035430999705568,P025,fencog,1,Pre,2022_Feb_15_1102,N-Back (New Version 2021),2021.1.4,120.72803839699186,
,,,,Conditions/Version_1/oneback(4)_v1.xlsx,New rule: Press 'space' when you see 1-back (i.e. the same letter as the one that appeared 1 letter ago.),v,space,,,,,,,,,0,14,14,14,0,6,6,6,,,,,,,,,,,,,,,,,,,,,,,,,,,,,,,,,,,,,,,,,,,,,,,,,,,,,,,,,,,,,,,,,,,,,1.4812,896.8546980000101,None,None,0,896.8546980000101,None,,P025,fencog,1,Pre,2022_Feb_15_1102,N-Back (New Version 2021),2021.1.4,120.72803839699186,
,,,,Conditions/Version_1/oneback(4)_v1.xlsx,New rule: Press 'space' when you see 1-back (i.e. the same letter as the one that appeared 1 letter ago.),p,None,,,,,,,,,0,14,14,14,0,7,7,7,,,,,,,,,,,,,,,,,,,,,,,,,,,,,,,,,,,,,,,,,,,,,,,,,,,,,,,,,,,,,,,,,,,,,1.6238,900.4786618000362,None,None,1,900.4786618000362,None,,P025,fencog,1,Pre,2022_Feb_15_1102,N-Back (New Version 2021),2021.1.4,120.72803839699186,
,,,,Conditions/Version_1/oneback(4)_v1.xlsx,New rule: Press 'space' when you see 1-back (i.e. the same letter as the one that appeared 1 letter ago.),w,None,,,,,,,,,0,14,14,14,0,8,8,8,,,,,,,,,,,,,,,,,,,,,,,,,,,,,,,,,,,,,,,,,,,,,,,,,,,,,,,,,,,,,,,,,,,,,1.351,903.8372310000705,None,None,1,903.8372310000705,None,,P025,fencog,1,Pre,2022_Feb_15_1102,N-Back (New Version 2021),2021.1.4,120.72803839699186,
,,,,Conditions/Version_1/oneback(4)_v1.xlsx,New rule: Press 'space' when you see 1-back (i.e. the same letter as the one that appeared 1 letter ago.),W,space,,,,,,,,,0,14,14,14,0,9,9,9,,,,,,,,,,,,,,,,,,,,,,,,,,,,,,,,,,,,,,,,,,,,,,,,,,,,,,,,,,,,,,,,,,,,,1.5804,907.4292790000327,None,space,1,907.4292790000327,None,0.4633938000770286,P025,fencog,1,Pre,2022_Feb_15_1102,N-Back (New Version 2021),2021.1.4,120.72803839699186,
,,,,Conditions/Version_1/oneback(4)_v1.xlsx,New rule: Press 'space' when you see 1-back (i.e. the same letter as the one that appeared 1 letter ago.),,,,,,,,,,,0,14,14,14,,,,,,,,,,,,,,,,,,,,,,,,,,,,,,,,,,,,,,,,,,,,,,,,,,,,,,,,,,,,,,,,,,,,,,,,,,,,,,,,,P025,fencog,1,Pre,2022_Feb_15_1102,N-Back (New Version 2021),2021.1.4,120.72803839699186,
,,,,Conditions/Version_1/threeback(4)_v1.xlsx,New rule: Press 'space' when you see 3-back (i.e. the same letter as the one that appeared 3 letters ago.),A,None,,,,,,,,,0,15,15,15,0,0,0,0,,,,,,,,,,,,,,,,,,,,,,,,,,,,,,,,,,,,,,,,,,,,,,,,,,,,,,,,,,,909.4572151000611,None,912.4449967000401,None,space,1.1675064000301063,912.4449967000401,None,909.4572151000611,None,1.4626,915.1088624000549,None,None,1,915.1088624000549,None,,P025,fencog,1,Pre,2022_Feb_15_1102,N-Back (New Version 2021),2021.1.4,120.72803839699186,
,,,,Conditions/Version_1/threeback(4)_v1.xlsx,New rule: Press 'space' when you see 3-back (i.e. the same letter as the one that appeared 3 letters ago.),n,None,,,,,,,,,0,15,15,15,0,1,1,1,,,,,,,,,,,,,,,,,,,,,,,,,,,,,,,,,,,,,,,,,,,,,,,,,,,,,,,,,,,,,,,,,,,,,1.7664,918.8816998000257,None,None,1,918.8816998000257,None,,P025,fencog,1,Pre,2022_Feb_15_1102,N-Back (New Version 2021),2021.1.4,120.72803839699186,
,,,,Conditions/Version_1/threeback(4)_v1.xlsx,New rule: Press 'space' when you see 3-back (i.e. the same letter as the one that appeared 3 letters ago.),g,None,,,,,,,,,0,15,15,15,0,2,2,2,,,,,,,,,,,,,,,,,,,,,,,,,,,,,,,,,,,,,,,,,,,,,,,,,,,,,,,,,,,,,,,,,,,,,1.3076,922.1892329000402,None,None,1,922.1892329000402,None,,P025,fencog,1,Pre,2022_Feb_15_1102,N-Back (New Version 2021),2021.1.4,120.72803839699186,
,,,,Conditions/Version_1/threeback(4)_v1.xlsx,New rule: Press 'space' when you see 3-back (i.e. the same letter as the one that appeared 3 letters ago.),A,space,,,,,,,,,0,15,15,15,0,3,3,3,,,,,,,,,,,,,,,,,,,,,,,,,,,,,,,,,,,,,,,,,,,,,,,,,,,,,,,,,,,,,,,,,,,,,1.7726,925.9711679000175,None,space,1,925.9711679000175,None,0.5775245000841096,P025,fencog,1,Pre,2022_Feb_15_1102,N-Back (New Version 2021),2021.1.4,120.72803839699186,
,,,,Conditions/Version_1/threeback(4)_v1.xlsx,New rule: Press 'space' when you see 3-back (i.e. the same letter as the one that appeared 3 letters ago.),p,None,,,,,,,,,0,15,15,15,0,4,4,4,,,,,,,,,,,,,,,,,,,,,,,,,,,,,,,,,,,,,,,,,,,,,,,,,,,,,,,,,,,,,,,,,,,,,1.32,929.296177900047,None,None,1,929.296177900047,None,,P025,fencog,1,Pre,2022_Feb_15_1102,N-Back (New Version 2021),2021.1.4,120.72803839699186,
,,,,Conditions/Version_1/threeback(4)_v1.xlsx,New rule: Press 'space' when you see 3-back (i.e. the same letter as the one that appeared 3 letters ago.),O,None,,,,,,,,,0,15,15,15,0,5,5,5,,,,,,,,,,,,,,,,,,,,,,,,,,,,,,,,,,,,,,,,,,,,,,,,,,,,,,,,,,,,,,,,,,,,,1.0658,932.3703688000096,None,None,1,932.3703688000096,None,,P025,fencog,1,Pre,2022_Feb_15_1102,N-Back (New Version 2021),2021.1.4,120.72803839699186,
,,,,Conditions/Version_1/threeback(4)_v1.xlsx,New rule: Press 'space' when you see 3-back (i.e. the same letter as the one that appeared 3 letters ago.),a,space,,,,,,,,,0,15,15,15,0,6,6,6,,,,,,,,,,,,,,,,,,,,,,,,,,,,,,,,,,,,,,,,,,,,,,,,,,,,,,,,,,,,,,,,,,,,,1.1526,935.539295900031,None,space,1,935.539295900031,None,1.057364200009033,P025,fencog,1,Pre,2022_Feb_15_1102,N-Back (New Version 2021),2021.1.4,120.72803839699186,
,,,,Conditions/Version_1/threeback(4)_v1.xlsx,New rule: Press 'space' when you see 3-back (i.e. the same letter as the one that appeared 3 letters ago.),p,space,,,,,,,,,0,15,15,15,0,7,7,7,,,,,,,,,,,,,,,,,,,,,,,,,,,,,,,,,,,,,,,,,,,,,,,,,,,,,,,,,,,,,,,,,,,,,1.754,939.300605299999,None,None,0,939.300605299999,None,,P025,fencog,1,Pre,2022_Feb_15_1102,N-Back (New Version 2021),2021.1.4,120.72803839699186,
,,,,Conditions/Version_1/threeback(4)_v1.xlsx,New rule: Press 'space' when you see 3-back (i.e. the same letter as the one that appeared 3 letters ago.),x,None,,,,,,,,,0,15,15,15,0,8,8,8,,,,,,,,,,,,,,,,,,,,,,,,,,,,,,,,,,,,,,,,,,,,,,,,,,,,,,,,,,,,,,,,,,,,,1.537,942.842267400003,None,None,1,942.842267400003,None,,P025,fencog,1,Pre,2022_Feb_15_1102,N-Back (New Version 2021),2021.1.4,120.72803839699186,
,,,,Conditions/Version_1/threeback(4)_v1.xlsx,New rule: Press 'space' when you see 3-back (i.e. the same letter as the one that appeared 3 letters ago.),X,None,,,,,,,,,0,15,15,15,0,9,9,9,,,,,,,,,,,,,,,,,,,,,,,,,,,,,,,,,,,,,,,,,,,,,,,,,,,,,,,,,,,,,,,,,,,,,1.6238,946.4755618000636,None,None,1,946.4755618000636,None,,P025,fencog,1,Pre,2022_Feb_15_1102,N-Back (New Version 2021),2021.1.4,120.72803839699186,
,,,,Conditions/Version_1/threeback(4)_v1.xlsx,New rule: Press 'space' when you see 3-back (i.e. the same letter as the one that appeared 3 letters ago.),,,,,,,,,,,0,15,15,15,,,,,,,,,,,,,,,,,,,,,,,,,,,,,,,,,,,,,,,,,,,,,,,,,,,,,,,,,,,,,,,,,,,,,,,,,,,,,,,,,P025,fencog,1,Pre,2022_Feb_15_1102,N-Back (New Version 2021),2021.1.4,120.72803839699186,
