CondFileP,InstructionsP,LettersDisplayedP,CorrectnessP,CondFile,Instructions,LettersDisplayed,Correctness,practicetrials.thisRepN,practicetrials.thisTrialN,practicetrials.thisN,practicetrials.thisIndex,InnerLoopPractice.thisRepN,InnerLoopPractice.thisTrialN,InnerLoopPractice.thisN,InnerLoopPractice.thisIndex,trials.thisRepN,trials.thisTrialN,trials.thisN,trials.thisIndex,InnerLoop.thisRepN,InnerLoop.thisTrialN,InnerLoop.thisN,InnerLoop.thisIndex,TaskVersionText.started,TaskVersionText.stopped,InstrKey1.keys,InstrKey1.rt,InstrKey1.started,InstrKey1.stopped,text.started,text.stopped,key_resp_4.keys,key_resp_4.rt,key_resp_4.started,key_resp_4.stopped,text_2.started,text_2.stopped,key_resp_3.keys,key_resp_3.rt,key_resp_3.started,key_resp_3.stopped,text_3.started,text_3.stopped,key_resp_2.keys,key_resp_2.rt,key_resp_2.started,key_resp_2.stopped,PractIn1.started,PractIn1.stopped,PractIn2.started,PractIn2.stopped,PractInstructionPass.keys,PractInstructionPass.rt,PractInstructionPass.started,PractInstructionPass.stopped,PractBlock1.started,PractBlock1.stopped,ISIjitterPractice,ISI_Pract_Fixation.started,ISI_Pract_Fixation.stopped,N_backP.started,N_backP.stopped,KeyPractice.keys,KeyPractice.corr,KeyPractice.rt,KeyPractice.started,KeyPractice.stopped,text_4.started,text_4.stopped,TransitionText.started,TransitionText.stopped,key_resp_6.keys,key_resp_6.rt,key_resp_6.started,key_resp_6.stopped,text_5.started,text_5.stopped,key_resp_5.keys,key_resp_5.rt,key_resp_5.started,key_resp_5.stopped,MainInt1.started,MainInt1.stopped,MainInt2.started,MainInt2.stopped,InstructionPass.keys,InstructionPass.rt,InstructionPass.started,InstructionPass.stopped,Blocks1.started,Blocks1.stopped,ISIjitter,N_backD.started,N_backD.stopped,key_resp.keys,key_resp.corr,key_resp.started,key_resp.stopped,key_resp.rt,participant,Study Name,Task Version (required to run),PRE/POST,date,expName,psychopyVersion,frameRate
,,,,,,,,,,,,,,,,,,,,,,,,44.1761069,None,space,38.7307437,44.6597636,None,,,,,,,,,,,,,,,,,,,,,,,,,,,,,,,,,,,,,,,,,,,,,,,,,,,,,,,,,,,,,,,,,,,,,,,P026,fencog,2,Post,2022_Mar_04_1348,N-Back (New Version 2021),2021.1.4,120.0160341
,,,,,,,,,,,,,,,,,,,,,,,,,,,,,,83.421084,None,space,1.6831689,83.9153003,None,,,,,,,,,,,,,,,,,,,,,,,,,,,,,,,,,,,,,,,,,,,,,,,,,,,,,,,,,,,,,,,,,P026,fencog,2,Post,2022_Mar_04_1348,N-Back (New Version 2021),2021.1.4,120.0160341
,,,,,,,,,,,,,,,,,,,,,,,,,,,,,,,,,,,,85.6306754,None,space,0.4349266,86.123479,None,,,,,,,,,,,,,,,,,,,,,,,,,,,,,,,,,,,,,,,,,,,,,,,,,,,,,,,,,,,P026,fencog,2,Post,2022_Mar_04_1348,N-Back (New Version 2021),2021.1.4,120.0160341
,,,,,,,,,,,,,,,,,,,,,,,,,,,,,,,,,,,,,,,,,,86.5799297,None,space,1.3095937,87.072917,None,,,,,,,,,,,,,,,,,,,,,,,,,,,,,,,,,,,,,,,,,,,,,,,,,,,,,P026,fencog,2,Post,2022_Mar_04_1348,N-Back (New Version 2021),2021.1.4,120.0160341
Conditions/Version_2Pr/zeroback(1)_v2.xlsx,Rule: Press 'space' when you see the letter 'x' or 'X'.,x,space,,,,,0,0,0,0,0,0,0,0,,,,,,,,,,,,,,,,,,,,,,,,,,,,,,,,,89.802696,None,92.7882135,None,space,0.650068,92.7882135,None,89.802696,None,1.115,93.4590868,None,94.5797592,None,space,1,0.3625063,94.5797592,None,94.956386,None,,,,,,,,,,,,,,,,,,,,,,,,,,,,,,,P026,fencog,2,Post,2022_Mar_04_1348,N-Back (New Version 2021),2021.1.4,120.0160341
Conditions/Version_2Pr/zeroback(1)_v2.xlsx,Rule: Press 'space' when you see the letter 'x' or 'X'.,R,None,,,,,0,0,0,0,0,1,1,1,,,,,,,,,,,,,,,,,,,,,,,,,,,,,,,,,,,,,,,,,,,1.24,96.4608529,None,97.703005,None,None,1,,97.703005,None,99.7099203,None,,,,,,,,,,,,,,,,,,,,,,,,,,,,,,,P026,fencog,2,Post,2022_Mar_04_1348,N-Back (New Version 2021),2021.1.4,120.0160341
Conditions/Version_2Pr/zeroback(1)_v2.xlsx,Rule: Press 'space' when you see the letter 'x' or 'X'.,p,None,,,,,0,0,0,0,0,2,2,2,,,,,,,,,,,,,,,,,,,,,,,,,,,,,,,,,,,,,,,,,,,1.865,101.2095927,None,103.0760982,None,None,1,,103.0760982,None,105.0834221,None,,,,,,,,,,,,,,,,,,,,,,,,,,,,,,,P026,fencog,2,Post,2022_Mar_04_1348,N-Back (New Version 2021),2021.1.4,120.0160341
Conditions/Version_2Pr/zeroback(1)_v2.xlsx,Rule: Press 'space' when you see the letter 'x' or 'X'.,O,None,,,,,0,0,0,0,0,3,3,3,,,,,,,,,,,,,,,,,,,,,,,,,,,,,,,,,,,,,,,,,,,1.165,106.5829675,None,107.749961,None,None,1,,107.749961,None,109.7570217,None,,,,,,,,,,,,,,,,,,,,,,,,,,,,,,,P026,fencog,2,Post,2022_Mar_04_1348,N-Back (New Version 2021),2021.1.4,120.0160341
Conditions/Version_2Pr/zeroback(1)_v2.xlsx,Rule: Press 'space' when you see the letter 'x' or 'X'.,i,None,,,,,0,0,0,0,0,4,4,4,,,,,,,,,,,,,,,,,,,,,,,,,,,,,,,,,,,,,,,,,,,1.39,111.2566222,None,112.6479532,None,None,1,,112.6479532,None,114.6472859,None,,,,,,,,,,,,,,,,,,,,,,,,,,,,,,,P026,fencog,2,Post,2022_Mar_04_1348,N-Back (New Version 2021),2021.1.4,120.0160341
Conditions/Version_2Pr/zeroback(1)_v2.xlsx,Rule: Press 'space' when you see the letter 'x' or 'X'.,U,None,,,,,0,0,0,0,0,5,5,5,,,,,,,,,,,,,,,,,,,,,,,,,,,,,,,,,,,,,,,,,,,1.99,116.1468026,None,118.1393893,None,None,1,,118.1393893,None,120.1456364,None,,,,,,,,,,,,,,,,,,,,,,,,,,,,,,,P026,fencog,2,Post,2022_Mar_04_1348,N-Back (New Version 2021),2021.1.4,120.0160341
Conditions/Version_2Pr/zeroback(1)_v2.xlsx,Rule: Press 'space' when you see the letter 'x' or 'X'.,N,None,,,,,0,0,0,0,0,6,6,6,,,,,,,,,,,,,,,,,,,,,,,,,,,,,,,,,,,,,,,,,,,1.59,121.6451662,None,123.2374577,None,None,1,,123.2374577,None,125.2441518,None,,,,,,,,,,,,,,,,,,,,,,,,,,,,,,,P026,fencog,2,Post,2022_Mar_04_1348,N-Back (New Version 2021),2021.1.4,120.0160341
Conditions/Version_2Pr/zeroback(1)_v2.xlsx,Rule: Press 'space' when you see the letter 'x' or 'X'.,m,None,,,,,0,0,0,0,0,7,7,7,,,,,,,,,,,,,,,,,,,,,,,,,,,,,,,,,,,,,,,,,,,1.965,126.7436594,None,128.7100798,None,None,1,,128.7100798,None,130.7091991,None,,,,,,,,,,,,,,,,,,,,,,,,,,,,,,,P026,fencog,2,Post,2022_Mar_04_1348,N-Back (New Version 2021),2021.1.4,120.0160341
Conditions/Version_2Pr/zeroback(1)_v2.xlsx,Rule: Press 'space' when you see the letter 'x' or 'X'.,x,space,,,,,0,0,0,0,0,8,8,8,,,,,,,,,,,,,,,,,,,,,,,,,,,,,,,,,,,,,,,,,,,1.49,132.2087256,None,133.6999876,None,space,1,0.5064235,133.6999876,None,134.216647,None,,,,,,,,,,,,,,,,,,,,,,,,,,,,,,,P026,fencog,2,Post,2022_Mar_04_1348,N-Back (New Version 2021),2021.1.4,120.0160341
Conditions/Version_2Pr/zeroback(1)_v2.xlsx,Rule: Press 'space' when you see the letter 'x' or 'X'.,X,space,,,,,0,0,0,0,0,9,9,9,,,,,,,,,,,,,,,,,,,,,,,,,,,,,,,,,,,,,,,,,,,1.69,135.7159964,None,137.4078318,None,space,1,0.5185791,137.4078318,None,137.9404887,None,,,,,,,,,,,,,,,,,,,,,,,,,,,,,,,P026,fencog,2,Post,2022_Mar_04_1348,N-Back (New Version 2021),2021.1.4,120.0160341
Conditions/Version_2Pr/zeroback(1)_v2.xlsx,Rule: Press 'space' when you see the letter 'x' or 'X'.,,,,,,,0,0,0,0,,,,,,,,,,,,,,,,,,,,,,,,,,,,,,,,,,,,,,,,,,,,,,,,,,,,,,,,,,,,,,,,,,,,,,,,,,,,,,,,,,,,,,,,,P026,fencog,2,Post,2022_Mar_04_1348,N-Back (New Version 2021),2021.1.4,120.0160341
Conditions/Version_2Pr/oneback(1)_v2.xlsx,New rule: Press 'space' when you see 1-back (i.e. the same letter as the one that appeared 1 letter ago.),r,None,,,,,0,1,1,1,0,0,0,0,,,,,,,,,,,,,,,,,,,,,,,,,,,,,,,,,139.457523,None,142.4483261,None,space,0.0381054,142.4483261,None,139.457523,None,1.09,142.5090491,None,143.6053211,None,None,1,,143.6053211,None,145.6048933,None,,,,,,,,,,,,,,,,,,,,,,,,,,,,,,,P026,fencog,2,Post,2022_Mar_04_1348,N-Back (New Version 2021),2021.1.4,120.0160341
Conditions/Version_2Pr/oneback(1)_v2.xlsx,New rule: Press 'space' when you see 1-back (i.e. the same letter as the one that appeared 1 letter ago.),t,None,,,,,0,1,1,1,0,1,1,1,,,,,,,,,,,,,,,,,,,,,,,,,,,,,,,,,,,,,,,,,,,1.815,147.1043366,None,148.9207474,None,None,1,,148.9207474,None,150.9199111,None,,,,,,,,,,,,,,,,,,,,,,,,,,,,,,,P026,fencog,2,Post,2022_Mar_04_1348,N-Back (New Version 2021),2021.1.4,120.0160341
Conditions/Version_2Pr/oneback(1)_v2.xlsx,New rule: Press 'space' when you see 1-back (i.e. the same letter as the one that appeared 1 letter ago.),Y,None,,,,,0,1,1,1,0,2,2,2,,,,,,,,,,,,,,,,,,,,,,,,,,,,,,,,,,,,,,,,,,,1.34,152.4194894,None,153.7618262,None,None,1,,153.7618262,None,155.768504,None,,,,,,,,,,,,,,,,,,,,,,,,,,,,,,,P026,fencog,2,Post,2022_Mar_04_1348,N-Back (New Version 2021),2021.1.4,120.0160341
Conditions/Version_2Pr/oneback(1)_v2.xlsx,New rule: Press 'space' when you see 1-back (i.e. the same letter as the one that appeared 1 letter ago.),y,space,,,,,0,1,1,1,0,3,3,3,,,,,,,,,,,,,,,,,,,,,,,,,,,,,,,,,,,,,,,,,,,1.24,157.2680038,None,158.5101062,None,space,1,0.6002418,158.5101062,None,159.1265473,None,,,,,,,,,,,,,,,,,,,,,,,,,,,,,,,P026,fencog,2,Post,2022_Mar_04_1348,N-Back (New Version 2021),2021.1.4,120.0160341
Conditions/Version_2Pr/oneback(1)_v2.xlsx,New rule: Press 'space' when you see 1-back (i.e. the same letter as the one that appeared 1 letter ago.),p,None,,,,,0,1,1,1,0,4,4,4,,,,,,,,,,,,,,,,,,,,,,,,,,,,,,,,,,,,,,,,,,,1.19,160.6336723,None,161.8250543,None,None,1,,161.8250543,None,163.824395,None,,,,,,,,,,,,,,,,,,,,,,,,,,,,,,,P026,fencog,2,Post,2022_Mar_04_1348,N-Back (New Version 2021),2021.1.4,120.0160341
Conditions/Version_2Pr/oneback(1)_v2.xlsx,New rule: Press 'space' when you see 1-back (i.e. the same letter as the one that appeared 1 letter ago.),P,space,,,,,0,1,1,1,0,5,5,5,,,,,,,,,,,,,,,,,,,,,,,,,,,,,,,,,,,,,,,,,,,1.54,165.3240235,None,166.8652524,None,space,1,0.6531096,166.8652524,None,167.5320467,None,,,,,,,,,,,,,,,,,,,,,,,,,,,,,,,P026,fencog,2,Post,2022_Mar_04_1348,N-Back (New Version 2021),2021.1.4,120.0160341
Conditions/Version_2Pr/oneback(1)_v2.xlsx,New rule: Press 'space' when you see 1-back (i.e. the same letter as the one that appeared 1 letter ago.),e,None,,,,,0,1,1,1,0,6,6,6,,,,,,,,,,,,,,,,,,,,,,,,,,,,,,,,,,,,,,,,,,,1.065,169.0311364,None,170.0979131,None,None,1,,170.0979131,None,172.0969863,None,,,,,,,,,,,,,,,,,,,,,,,,,,,,,,,P026,fencog,2,Post,2022_Mar_04_1348,N-Back (New Version 2021),2021.1.4,120.0160341
Conditions/Version_2Pr/oneback(1)_v2.xlsx,New rule: Press 'space' when you see 1-back (i.e. the same letter as the one that appeared 1 letter ago.),r,None,,,,,0,1,1,1,0,7,7,7,,,,,,,,,,,,,,,,,,,,,,,,,,,,,,,,,,,,,,,,,,,1.565,173.5965199,None,175.1627747,None,None,1,,175.1627747,None,177.1621664,None,,,,,,,,,,,,,,,,,,,,,,,,,,,,,,,P026,fencog,2,Post,2022_Mar_04_1348,N-Back (New Version 2021),2021.1.4,120.0160341
Conditions/Version_2Pr/oneback(1)_v2.xlsx,New rule: Press 'space' when you see 1-back (i.e. the same letter as the one that appeared 1 letter ago.),R,space,,,,,0,1,1,1,0,8,8,8,,,,,,,,,,,,,,,,,,,,,,,,,,,,,,,,,,,,,,,,,,,1.865,178.6617281,None,180.5278005,None,space,1,0.5425994,180.5278005,None,181.0783838,None,,,,,,,,,,,,,,,,,,,,,,,,,,,,,,,P026,fencog,2,Post,2022_Mar_04_1348,N-Back (New Version 2021),2021.1.4,120.0160341
Conditions/Version_2Pr/oneback(1)_v2.xlsx,New rule: Press 'space' when you see 1-back (i.e. the same letter as the one that appeared 1 letter ago.),p,None,,,,,0,1,1,1,0,9,9,9,,,,,,,,,,,,,,,,,,,,,,,,,,,,,,,,,,,,,,,,,,,1.215,182.5855822,None,183.8019389,None,None,1,,183.8019389,None,185.8012543,None,,,,,,,,,,,,,,,,,,,,,,,,,,,,,,,P026,fencog,2,Post,2022_Mar_04_1348,N-Back (New Version 2021),2021.1.4,120.0160341
Conditions/Version_2Pr/oneback(1)_v2.xlsx,New rule: Press 'space' when you see 1-back (i.e. the same letter as the one that appeared 1 letter ago.),,,,,,,0,1,1,1,,,,,,,,,,,,,,,,,,,,,,,,,,,,,,,,,,,,,,,,,,,,,,,,,,,,,,,,,,,,,,,,,,,,,,,,,,,,,,,,,,,,,,,,,P026,fencog,2,Post,2022_Mar_04_1348,N-Back (New Version 2021),2021.1.4,120.0160341
Conditions/Version_2Pr/twoback(1)_v2.xlsx,New rule: Press 'space' when you see 2-back (i.e. the same letter as the one that appeared 2 letters ago.),r,None,,,,,0,2,2,2,0,0,0,0,,,,,,,,,,,,,,,,,,,,,,,,,,,,,,,,,187.3218822,None,190.3098659,None,space,0.304397,190.3098659,None,187.3218822,None,1.54,190.6364758,None,192.1828583,None,None,1,,192.1828583,None,194.1821544,None,,,,,,,,,,,,,,,,,,,,,,,,,,,,,,,P026,fencog,2,Post,2022_Mar_04_1348,N-Back (New Version 2021),2021.1.4,120.0160341
Conditions/Version_2Pr/twoback(1)_v2.xlsx,New rule: Press 'space' when you see 2-back (i.e. the same letter as the one that appeared 2 letters ago.),P,None,,,,,0,2,2,2,0,1,1,1,,,,,,,,,,,,,,,,,,,,,,,,,,,,,,,,,,,,,,,,,,,1.79,195.6816755,None,197.4727929,None,None,1,,197.4727929,None,199.4722467,None,,,,,,,,,,,,,,,,,,,,,,,,,,,,,,,P026,fencog,2,Post,2022_Mar_04_1348,N-Back (New Version 2021),2021.1.4,120.0160341
Conditions/Version_2Pr/twoback(1)_v2.xlsx,New rule: Press 'space' when you see 2-back (i.e. the same letter as the one that appeared 2 letters ago.),o,None,,,,,0,2,2,2,0,2,2,2,,,,,,,,,,,,,,,,,,,,,,,,,,,,,,,,,,,,,,,,,,,1.615,200.9717779,None,202.5888623,None,None,1,,202.5888623,None,204.5957257,None,,,,,,,,,,,,,,,,,,,,,,,,,,,,,,,P026,fencog,2,Post,2022_Mar_04_1348,N-Back (New Version 2021),2021.1.4,120.0160341
Conditions/Version_2Pr/twoback(1)_v2.xlsx,New rule: Press 'space' when you see 2-back (i.e. the same letter as the one that appeared 2 letters ago.),p,space,,,,,0,2,2,2,0,3,3,3,,,,,,,,,,,,,,,,,,,,,,,,,,,,,,,,,,,,,,,,,,,1.515,206.0952682,None,207.6115438,None,space,1,0.9708268,207.6115438,None,208.5947719,None,,,,,,,,,,,,,,,,,,,,,,,,,,,,,,,P026,fencog,2,Post,2022_Mar_04_1348,N-Back (New Version 2021),2021.1.4,120.0160341
Conditions/Version_2Pr/twoback(1)_v2.xlsx,New rule: Press 'space' when you see 2-back (i.e. the same letter as the one that appeared 2 letters ago.),Y,None,,,,,0,2,2,2,0,4,4,4,,,,,,,,,,,,,,,,,,,,,,,,,,,,,,,,,,,,,,,,,,,1.715,210.0940773,None,211.8102773,None,None,1,,211.8102773,None,213.8097676,None,,,,,,,,,,,,,,,,,,,,,,,,,,,,,,,P026,fencog,2,Post,2022_Mar_04_1348,N-Back (New Version 2021),2021.1.4,120.0160341
Conditions/Version_2Pr/twoback(1)_v2.xlsx,New rule: Press 'space' when you see 2-back (i.e. the same letter as the one that appeared 2 letters ago.),q,None,,,,,0,2,2,2,0,5,5,5,,,,,,,,,,,,,,,,,,,,,,,,,,,,,,,,,,,,,,,,,,,1.44,215.3092205,None,216.7513309,None,None,1,,216.7513309,None,218.7582723,None,,,,,,,,,,,,,,,,,,,,,,,,,,,,,,,P026,fencog,2,Post,2022_Mar_04_1348,N-Back (New Version 2021),2021.1.4,120.0160341
Conditions/Version_2Pr/twoback(1)_v2.xlsx,New rule: Press 'space' when you see 2-back (i.e. the same letter as the one that appeared 2 letters ago.),m,None,,,,,0,2,2,2,0,6,6,6,,,,,,,,,,,,,,,,,,,,,,,,,,,,,,,,,,,,,,,,,,,1.865,220.2577706,None,222.1239378,None,None,1,,222.1239378,None,224.1232963,None,,,,,,,,,,,,,,,,,,,,,,,,,,,,,,,P026,fencog,2,Post,2022_Mar_04_1348,N-Back (New Version 2021),2021.1.4,120.0160341
Conditions/Version_2Pr/twoback(1)_v2.xlsx,New rule: Press 'space' when you see 2-back (i.e. the same letter as the one that appeared 2 letters ago.),Q,space,,,,,0,2,2,2,0,7,7,7,,,,,,,,,,,,,,,,,,,,,,,,,,,,,,,,,,,,,,,,,,,1.49,225.6228464,None,227.1148465,None,space,1,0.7635684,227.1148465,None,227.8898981,None,,,,,,,,,,,,,,,,,,,,,,,,,,,,,,,P026,fencog,2,Post,2022_Mar_04_1348,N-Back (New Version 2021),2021.1.4,120.0160341
Conditions/Version_2Pr/twoback(1)_v2.xlsx,New rule: Press 'space' when you see 2-back (i.e. the same letter as the one that appeared 2 letters ago.),L,None,,,,,0,2,2,2,0,8,8,8,,,,,,,,,,,,,,,,,,,,,,,,,,,,,,,,,,,,,,,,,,,1.215,229.3967664,None,230.615292,None,None,1,,230.615292,None,232.6208231,None,,,,,,,,,,,,,,,,,,,,,,,,,,,,,,,P026,fencog,2,Post,2022_Mar_04_1348,N-Back (New Version 2021),2021.1.4,120.0160341
Conditions/Version_2Pr/twoback(1)_v2.xlsx,New rule: Press 'space' when you see 2-back (i.e. the same letter as the one that appeared 2 letters ago.),q,space,,,,,0,2,2,2,0,9,9,9,,,,,,,,,,,,,,,,,,,,,,,,,,,,,,,,,,,,,,,,,,,1.415,234.1203288,None,235.53665,None,None,0,,235.53665,None,237.5408908,None,,,,,,,,,,,,,,,,,,,,,,,,,,,,,,,P026,fencog,2,Post,2022_Mar_04_1348,N-Back (New Version 2021),2021.1.4,120.0160341
Conditions/Version_2Pr/twoback(1)_v2.xlsx,New rule: Press 'space' when you see 2-back (i.e. the same letter as the one that appeared 2 letters ago.),,,,,,,0,2,2,2,,,,,,,,,,,,,,,,,,,,,,,,,,,,,,,,,,,,,,,,,,,,,,,,,,,,,,,,,,,,,,,,,,,,,,,,,,,,,,,,,,,,,,,,,P026,fencog,2,Post,2022_Mar_04_1348,N-Back (New Version 2021),2021.1.4,120.0160341
Conditions/Version_2Pr/threeback(1)_v2.xlsx,New rule: Press 'space' when you see 3-back (i.e. the same letter as the one that appeared 3 letters ago.),u,None,,,,,0,3,3,3,0,0,0,0,,,,,,,,,,,,,,,,,,,,,,,,,,,,,,,,,239.0605028,None,242.0443022,None,space,1.5060676,242.0443022,None,239.0605028,None,1.99,243.5690902,None,245.5588649,None,None,1,,245.5588649,None,247.5585781,None,,,,,,,,,,,,,,,,,,,,,,,,,,,,,,,P026,fencog,2,Post,2022_Mar_04_1348,N-Back (New Version 2021),2021.1.4,120.0160341
Conditions/Version_2Pr/threeback(1)_v2.xlsx,New rule: Press 'space' when you see 3-back (i.e. the same letter as the one that appeared 3 letters ago.),U,None,,,,,0,3,3,3,0,1,1,1,,,,,,,,,,,,,,,,,,,,,,,,,,,,,,,,,,,,,,,,,,,1.765,249.0575845,None,250.8237721,None,space,0,0.6066376,250.8237721,None,251.4453122,None,,,,,,,,,,,,,,,,,,,,,,,,,,,,,,,P026,fencog,2,Post,2022_Mar_04_1348,N-Back (New Version 2021),2021.1.4,120.0160341
Conditions/Version_2Pr/threeback(1)_v2.xlsx,New rule: Press 'space' when you see 3-back (i.e. the same letter as the one that appeared 3 letters ago.),p,None,,,,,0,3,3,3,0,2,2,2,,,,,,,,,,,,,,,,,,,,,,,,,,,,,,,,,,,,,,,,,,,1.69,252.9482712,None,254.6393537,None,None,1,,254.6393537,None,256.6394325,None,,,,,,,,,,,,,,,,,,,,,,,,,,,,,,,P026,fencog,2,Post,2022_Mar_04_1348,N-Back (New Version 2021),2021.1.4,120.0160341
Conditions/Version_2Pr/threeback(1)_v2.xlsx,New rule: Press 'space' when you see 3-back (i.e. the same letter as the one that appeared 3 letters ago.),U,space,,,,,0,3,3,3,0,3,3,3,,,,,,,,,,,,,,,,,,,,,,,,,,,,,,,,,,,,,,,,,,,1.565,258.1465864,None,259.7128922,None,space,1,1.0133216,259.7128922,None,260.7376329,None,,,,,,,,,,,,,,,,,,,,,,,,,,,,,,,P026,fencog,2,Post,2022_Mar_04_1348,N-Back (New Version 2021),2021.1.4,120.0160341
Conditions/Version_2Pr/threeback(1)_v2.xlsx,New rule: Press 'space' when you see 3-back (i.e. the same letter as the one that appeared 3 letters ago.),e,None,,,,,0,3,3,3,0,4,4,4,,,,,,,,,,,,,,,,,,,,,,,,,,,,,,,,,,,,,,,,,,,1.39,262.2370119,None,263.6282379,None,None,1,,263.6282379,None,265.6277865,None,,,,,,,,,,,,,,,,,,,,,,,,,,,,,,,P026,fencog,2,Post,2022_Mar_04_1348,N-Back (New Version 2021),2021.1.4,120.0160341
Conditions/Version_2Pr/threeback(1)_v2.xlsx,New rule: Press 'space' when you see 3-back (i.e. the same letter as the one that appeared 3 letters ago.),R,None,,,,,0,3,3,3,0,5,5,5,,,,,,,,,,,,,,,,,,,,,,,,,,,,,,,,,,,,,,,,,,,1.74,267.1271864,None,268.868466,None,None,1,,268.868466,None,270.8678411,None,,,,,,,,,,,,,,,,,,,,,,,,,,,,,,,P026,fencog,2,Post,2022_Mar_04_1348,N-Back (New Version 2021),2021.1.4,120.0160341
Conditions/Version_2Pr/threeback(1)_v2.xlsx,New rule: Press 'space' when you see 3-back (i.e. the same letter as the one that appeared 3 letters ago.),p,None,,,,,0,3,3,3,0,6,6,6,,,,,,,,,,,,,,,,,,,,,,,,,,,,,,,,,,,,,,,,,,,1.34,272.3674254,None,273.7086798,None,None,1,,273.7086798,None,275.7080816,None,,,,,,,,,,,,,,,,,,,,,,,,,,,,,,,P026,fencog,2,Post,2022_Mar_04_1348,N-Back (New Version 2021),2021.1.4,120.0160341
Conditions/Version_2Pr/threeback(1)_v2.xlsx,New rule: Press 'space' when you see 3-back (i.e. the same letter as the one that appeared 3 letters ago.),E,space,,,,,0,3,3,3,0,7,7,7,,,,,,,,,,,,,,,,,,,,,,,,,,,,,,,,,,,,,,,,,,,1.515,277.207659,None,278.7243675,None,space,1,1.1778727,278.7243675,None,279.9165959,None,,,,,,,,,,,,,,,,,,,,,,,,,,,,,,,P026,fencog,2,Post,2022_Mar_04_1348,N-Back (New Version 2021),2021.1.4,120.0160341
Conditions/Version_2Pr/threeback(1)_v2.xlsx,New rule: Press 'space' when you see 3-back (i.e. the same letter as the one that appeared 3 letters ago.),k,None,,,,,0,3,3,3,0,8,8,8,,,,,,,,,,,,,,,,,,,,,,,,,,,,,,,,,,,,,,,,,,,1.965,281.4230495,None,283.389098,None,None,1,,283.389098,None,285.3885583,None,,,,,,,,,,,,,,,,,,,,,,,,,,,,,,,P026,fencog,2,Post,2022_Mar_04_1348,N-Back (New Version 2021),2021.1.4,120.0160341
Conditions/Version_2Pr/threeback(1)_v2.xlsx,New rule: Press 'space' when you see 3-back (i.e. the same letter as the one that appeared 3 letters ago.),m,None,,,,,0,3,3,3,0,9,9,9,,,,,,,,,,,,,,,,,,,,,,,,,,,,,,,,,,,,,,,,,,,1.215,286.8882007,None,288.104529,None,None,1,,288.104529,None,290.1038585,None,,,,,,,,,,,,,,,,,,,,,,,,,,,,,,,P026,fencog,2,Post,2022_Mar_04_1348,N-Back (New Version 2021),2021.1.4,120.0160341
Conditions/Version_2Pr/threeback(1)_v2.xlsx,New rule: Press 'space' when you see 3-back (i.e. the same letter as the one that appeared 3 letters ago.),,,,,,,0,3,3,3,,,,,,,,,,,,,,,,,,,,,,,,,,,,,,,,,,,,,,,,,,,,,,,,,,,,,,,,,,,,,,,,,,,,,,,,,,,,,,,,,,,,,,,,,P026,fencog,2,Post,2022_Mar_04_1348,N-Back (New Version 2021),2021.1.4,120.0160341
,,,,,,,,,,,,,,,,,,,,,,,,,,,,,,,,,,,,,,,,,,,,,,,,,,,,,,,,,,,,,,,,,,,,,,291.6091389,None,space,14.9110153,292.0953116,None,,,,,,,,,,,,,,,,,,,,,,,,,P026,fencog,2,Post,2022_Mar_04_1348,N-Back (New Version 2021),2021.1.4,120.0160341
,,,,,,,,,,,,,,,,,,,,,,,,,,,,,,,,,,,,,,,,,,,,,,,,,,,,,,,,,,,,,,,,,,,,,,,,,,,,307.0278705,None,space,1.6258846,307.5244596,None,,,,,,,,,,,,,,,,,,,P026,fencog,2,Post,2022_Mar_04_1348,N-Back (New Version 2021),2021.1.4,120.0160341
,,,,Conditions/Version_1/zeroback(1)_v1.xlsx,Rule: Press 'space' when you see the letter 'x' or 'X'.,b,None,,,,,,,,,0,0,0,0,0,0,0,0,,,,,,,,,,,,,,,,,,,,,,,,,,,,,,,,,,,,,,,,,,,,,,,,,,,,,,,,,,,309.2584827,None,312.2489675,None,space,0.4133653,312.2489675,None,309.2584827,None,1.9276,314.613782,None,None,1,314.613782,None,,P026,fencog,2,Post,2022_Mar_04_1348,N-Back (New Version 2021),2021.1.4,120.0160341
,,,,Conditions/Version_1/zeroback(1)_v1.xlsx,Rule: Press 'space' when you see the letter 'x' or 'X'.,T,None,,,,,,,,,0,0,0,0,0,1,1,1,,,,,,,,,,,,,,,,,,,,,,,,,,,,,,,,,,,,,,,,,,,,,,,,,,,,,,,,,,,,,,,,,,,,,1.6486,318.2705375,None,None,1,318.2705375,None,,P026,fencog,2,Post,2022_Mar_04_1348,N-Back (New Version 2021),2021.1.4,120.0160341
,,,,Conditions/Version_1/zeroback(1)_v1.xlsx,Rule: Press 'space' when you see the letter 'x' or 'X'.,L,None,,,,,,,,,0,0,0,0,0,2,2,2,,,,,,,,,,,,,,,,,,,,,,,,,,,,,,,,,,,,,,,,,,,,,,,,,,,,,,,,,,,,,,,,,,,,,1.4192,321.6945566,None,None,1,321.6945566,None,,P026,fencog,2,Post,2022_Mar_04_1348,N-Back (New Version 2021),2021.1.4,120.0160341
,,,,Conditions/Version_1/zeroback(1)_v1.xlsx,Rule: Press 'space' when you see the letter 'x' or 'X'.,x,space,,,,,,,,,0,0,0,0,0,3,3,3,,,,,,,,,,,,,,,,,,,,,,,,,,,,,,,,,,,,,,,,,,,,,,,,,,,,,,,,,,,,,,,,,,,,,1.785,325.4850741,None,space,1,325.4850741,None,1.7692212,P026,fencog,2,Post,2022_Mar_04_1348,N-Back (New Version 2021),2021.1.4,120.0160341
,,,,Conditions/Version_1/zeroback(1)_v1.xlsx,Rule: Press 'space' when you see the letter 'x' or 'X'.,o,None,,,,,,,,,0,0,0,0,0,4,4,4,,,,,,,,,,,,,,,,,,,,,,,,,,,,,,,,,,,,,,,,,,,,,,,,,,,,,,,,,,,,,,,,,,,,,1.289,328.775927,None,None,1,328.775927,None,,P026,fencog,2,Post,2022_Mar_04_1348,N-Back (New Version 2021),2021.1.4,120.0160341
,,,,Conditions/Version_1/zeroback(1)_v1.xlsx,Rule: Press 'space' when you see the letter 'x' or 'X'.,P,None,,,,,,,,,0,0,0,0,0,5,5,5,,,,,,,,,,,,,,,,,,,,,,,,,,,,,,,,,,,,,,,,,,,,,,,,,,,,,,,,,,,,,,,,,,,,,1.4502,332.224977,None,None,1,332.224977,None,,P026,fencog,2,Post,2022_Mar_04_1348,N-Back (New Version 2021),2021.1.4,120.0160341
,,,,Conditions/Version_1/zeroback(1)_v1.xlsx,Rule: Press 'space' when you see the letter 'x' or 'X'.,X,space,,,,,,,,,0,0,0,0,0,6,6,6,,,,,,,,,,,,,,,,,,,,,,,,,,,,,,,,,,,,,,,,,,,,,,,,,,,,,,,,,,,,,,,,,,,,,1.8346,336.0652739,None,space,1,336.0652739,None,1.8209903,P026,fencog,2,Post,2022_Mar_04_1348,N-Back (New Version 2021),2021.1.4,120.0160341
,,,,Conditions/Version_1/zeroback(1)_v1.xlsx,Rule: Press 'space' when you see the letter 'x' or 'X'.,n,None,,,,,,,,,0,0,0,0,0,7,7,7,,,,,,,,,,,,,,,,,,,,,,,,,,,,,,,,,,,,,,,,,,,,,,,,,,,,,,,,,,,,,,,,,,,,,1.351,339.4236337,None,None,1,339.4236337,None,,P026,fencog,2,Post,2022_Mar_04_1348,N-Back (New Version 2021),2021.1.4,120.0160341
,,,,Conditions/Version_1/zeroback(1)_v1.xlsx,Rule: Press 'space' when you see the letter 'x' or 'X'.,M,None,,,,,,,,,0,0,0,0,0,8,8,8,,,,,,,,,,,,,,,,,,,,,,,,,,,,,,,,,,,,,,,,,,,,,,,,,,,,,,,,,,,,,,,,,,,,,1.7354,343.1725677,None,None,1,343.1725677,None,,P026,fencog,2,Post,2022_Mar_04_1348,N-Back (New Version 2021),2021.1.4,120.0160341
,,,,Conditions/Version_1/zeroback(1)_v1.xlsx,Rule: Press 'space' when you see the letter 'x' or 'X'.,a,None,,,,,,,,,0,0,0,0,0,9,9,9,,,,,,,,,,,,,,,,,,,,,,,,,,,,,,,,,,,,,,,,,,,,,,,,,,,,,,,,,,,,,,,,,,,,,1.2208,346.4046215,None,None,1,346.4046215,None,,P026,fencog,2,Post,2022_Mar_04_1348,N-Back (New Version 2021),2021.1.4,120.0160341
,,,,Conditions/Version_1/zeroback(1)_v1.xlsx,Rule: Press 'space' when you see the letter 'x' or 'X'.,,,,,,,,,,,0,0,0,0,,,,,,,,,,,,,,,,,,,,,,,,,,,,,,,,,,,,,,,,,,,,,,,,,,,,,,,,,,,,,,,,,,,,,,,,,,,,,,,,,P026,fencog,2,Post,2022_Mar_04_1348,N-Back (New Version 2021),2021.1.4,120.0160341
,,,,Conditions/Version_1/oneback(1)_v1.xlsx,New rule: Press 'space' when you see 1-back (i.e. the same letter as the one that appeared 1 letter ago.),b,None,,,,,,,,,0,1,1,1,0,0,0,0,,,,,,,,,,,,,,,,,,,,,,,,,,,,,,,,,,,,,,,,,,,,,,,,,,,,,,,,,,,348.4298883,None,351.4118777,None,space,0.5784246,351.4118777,None,348.4298883,None,1.2952,353.3102542,None,None,1,353.3102542,None,,P026,fencog,2,Post,2022_Mar_04_1348,N-Back (New Version 2021),2021.1.4,120.0160341
,,,,Conditions/Version_1/oneback(1)_v1.xlsx,New rule: Press 'space' when you see 1-back (i.e. the same letter as the one that appeared 1 letter ago.),p,None,,,,,,,,,0,1,1,1,0,1,1,1,,,,,,,,,,,,,,,,,,,,,,,,,,,,,,,,,,,,,,,,,,,,,,,,,,,,,,,,,,,,,,,,,,,,,1.0782,356.3927136,None,None,1,356.3927136,None,,P026,fencog,2,Post,2022_Mar_04_1348,N-Back (New Version 2021),2021.1.4,120.0160341
,,,,Conditions/Version_1/oneback(1)_v1.xlsx,New rule: Press 'space' when you see 1-back (i.e. the same letter as the one that appeared 1 letter ago.),M,None,,,,,,,,,0,1,1,1,0,2,2,2,,,,,,,,,,,,,,,,,,,,,,,,,,,,,,,,,,,,,,,,,,,,,,,,,,,,,,,,,,,,,,,,,,,,,1.1898,359.5833632,None,None,1,359.5833632,None,,P026,fencog,2,Post,2022_Mar_04_1348,N-Back (New Version 2021),2021.1.4,120.0160341
,,,,Conditions/Version_1/oneback(1)_v1.xlsx,New rule: Press 'space' when you see 1-back (i.e. the same letter as the one that appeared 1 letter ago.),M,space,,,,,,,,,0,1,1,1,0,3,3,3,,,,,,,,,,,,,,,,,,,,,,,,,,,,,,,,,,,,,,,,,,,,,,,,,,,,,,,,,,,,,,,,,,,,,1.6672,363.2573378,None,space,1,363.2573378,None,0.828983,P026,fencog,2,Post,2022_Mar_04_1348,N-Back (New Version 2021),2021.1.4,120.0160341
,,,,Conditions/Version_1/oneback(1)_v1.xlsx,New rule: Press 'space' when you see 1-back (i.e. the same letter as the one that appeared 1 letter ago.),n,None,,,,,,,,,0,1,1,1,0,4,4,4,,,,,,,,,,,,,,,,,,,,,,,,,,,,,,,,,,,,,,,,,,,,,,,,,,,,,,,,,,,,,,,,,,,,,1.5184,366.7813872,None,None,1,366.7813872,None,,P026,fencog,2,Post,2022_Mar_04_1348,N-Back (New Version 2021),2021.1.4,120.0160341
,,,,Conditions/Version_1/oneback(1)_v1.xlsx,New rule: Press 'space' when you see 1-back (i.e. the same letter as the one that appeared 1 letter ago.),g,None,,,,,,,,,0,1,1,1,0,5,5,5,,,,,,,,,,,,,,,,,,,,,,,,,,,,,,,,,,,,,,,,,,,,,,,,,,,,,,,,,,,,,,,,,,,,,1.5556,370.3399213,None,None,1,370.3399213,None,,P026,fencog,2,Post,2022_Mar_04_1348,N-Back (New Version 2021),2021.1.4,120.0160341
,,,,Conditions/Version_1/oneback(1)_v1.xlsx,New rule: Press 'space' when you see 1-back (i.e. the same letter as the one that appeared 1 letter ago.),P,None,,,,,,,,,0,1,1,1,0,6,6,6,,,,,,,,,,,,,,,,,,,,,,,,,,,,,,,,,,,,,,,,,,,,,,,,,,,,,,,,,,,,,,,,,,,,,1.8656,374.2124558,None,None,1,374.2124558,None,,P026,fencog,2,Post,2022_Mar_04_1348,N-Back (New Version 2021),2021.1.4,120.0160341
,,,,Conditions/Version_1/oneback(1)_v1.xlsx,New rule: Press 'space' when you see 1-back (i.e. the same letter as the one that appeared 1 letter ago.),o,None,,,,,,,,,0,1,1,1,0,7,7,7,,,,,,,,,,,,,,,,,,,,,,,,,,,,,,,,,,,,,,,,,,,,,,,,,,,,,,,,,,,,,,,,,,,,,1.9834,378.1945694,None,None,1,378.1945694,None,,P026,fencog,2,Post,2022_Mar_04_1348,N-Back (New Version 2021),2021.1.4,120.0160341
,,,,Conditions/Version_1/oneback(1)_v1.xlsx,New rule: Press 'space' when you see 1-back (i.e. the same letter as the one that appeared 1 letter ago.),f,None,,,,,,,,,0,1,1,1,0,8,8,8,,,,,,,,,,,,,,,,,,,,,,,,,,,,,,,,,,,,,,,,,,,,,,,,,,,,,,,,,,,,,,,,,,,,,1.6858,381.8855359,None,None,1,381.8855359,None,,P026,fencog,2,Post,2022_Mar_04_1348,N-Back (New Version 2021),2021.1.4,120.0160341
,,,,Conditions/Version_1/oneback(1)_v1.xlsx,New rule: Press 'space' when you see 1-back (i.e. the same letter as the one that appeared 1 letter ago.),F,space,,,,,,,,,0,1,1,1,0,9,9,9,,,,,,,,,,,,,,,,,,,,,,,,,,,,,,,,,,,,,,,,,,,,,,,,,,,,,,,,,,,,,,,,,,,,,1.0286,384.9263877,None,space,1,384.9263877,None,1.0724931,P026,fencog,2,Post,2022_Mar_04_1348,N-Back (New Version 2021),2021.1.4,120.0160341
,,,,Conditions/Version_1/oneback(1)_v1.xlsx,New rule: Press 'space' when you see 1-back (i.e. the same letter as the one that appeared 1 letter ago.),,,,,,,,,,,0,1,1,1,,,,,,,,,,,,,,,,,,,,,,,,,,,,,,,,,,,,,,,,,,,,,,,,,,,,,,,,,,,,,,,,,,,,,,,,,,,,,,,,,P026,fencog,2,Post,2022_Mar_04_1348,N-Back (New Version 2021),2021.1.4,120.0160341
,,,,Conditions/Version_1/twoback(1)_v1.xlsx,New rule: Press 'space' when you see 2-back (i.e. the same letter as the one that appeared 2 letters ago.),b,None,,,,,,,,,0,2,2,2,0,0,0,0,,,,,,,,,,,,,,,,,,,,,,,,,,,,,,,,,,,,,,,,,,,,,,,,,,,,,,,,,,,386.9510536,None,389.9343727,None,space,0.352051,389.9343727,None,386.9510536,None,1.8966,392.207149,None,None,1,392.207149,None,,P026,fencog,2,Post,2022_Mar_04_1348,N-Back (New Version 2021),2021.1.4,120.0160341
,,,,Conditions/Version_1/twoback(1)_v1.xlsx,New rule: Press 'space' when you see 2-back (i.e. the same letter as the one that appeared 2 letters ago.),h,None,,,,,,,,,0,2,2,2,0,1,1,1,,,,,,,,,,,,,,,,,,,,,,,,,,,,,,,,,,,,,,,,,,,,,,,,,,,,,,,,,,,,,,,,,,,,,1.2456,395.4564966,None,None,1,395.4564966,None,,P026,fencog,2,Post,2022_Mar_04_1348,N-Back (New Version 2021),2021.1.4,120.0160341
,,,,Conditions/Version_1/twoback(1)_v1.xlsx,New rule: Press 'space' when you see 2-back (i.e. the same letter as the one that appeared 2 letters ago.),j,None,,,,,,,,,0,2,2,2,0,2,2,2,,,,,,,,,,,,,,,,,,,,,,,,,,,,,,,,,,,,,,,,,,,,,,,,,,,,,,,,,,,,,,,,,,,,,1.6176,399.0820058,None,None,1,399.0820058,None,,P026,fencog,2,Post,2022_Mar_04_1348,N-Back (New Version 2021),2021.1.4,120.0160341
,,,,Conditions/Version_1/twoback(1)_v1.xlsx,New rule: Press 'space' when you see 2-back (i.e. the same letter as the one that appeared 2 letters ago.),H,space,,,,,,,,,0,2,2,2,0,3,3,3,,,,,,,,,,,,,,,,,,,,,,,,,,,,,,,,,,,,,,,,,,,,,,,,,,,,,,,,,,,,,,,,,,,,,1.8098,402.9041594,None,space,1,402.9041594,None,0.8140798,P026,fencog,2,Post,2022_Mar_04_1348,N-Back (New Version 2021),2021.1.4,120.0160341
,,,,Conditions/Version_1/twoback(1)_v1.xlsx,New rule: Press 'space' when you see 2-back (i.e. the same letter as the one that appeared 2 letters ago.),p,None,,,,,,,,,0,2,2,2,0,4,4,4,,,,,,,,,,,,,,,,,,,,,,,,,,,,,,,,,,,,,,,,,,,,,,,,,,,,,,,,,,,,,,,,,,,,,1.0472,405.9530282,None,None,1,405.9530282,None,,P026,fencog,2,Post,2022_Mar_04_1348,N-Back (New Version 2021),2021.1.4,120.0160341
,,,,Conditions/Version_1/twoback(1)_v1.xlsx,New rule: Press 'space' when you see 2-back (i.e. the same letter as the one that appeared 2 letters ago.),p,None,,,,,,,,,0,2,2,2,0,5,5,5,,,,,,,,,,,,,,,,,,,,,,,,,,,,,,,,,,,,,,,,,,,,,,,,,,,,,,,,,,,,,,,,,,,,,1.2208,409.1770404,None,None,1,409.1770404,None,,P026,fencog,2,Post,2022_Mar_04_1348,N-Back (New Version 2021),2021.1.4,120.0160341
,,,,Conditions/Version_1/twoback(1)_v1.xlsx,New rule: Press 'space' when you see 2-back (i.e. the same letter as the one that appeared 2 letters ago.),w,None,,,,,,,,,0,2,2,2,0,6,6,6,,,,,,,,,,,,,,,,,,,,,,,,,,,,,,,,,,,,,,,,,,,,,,,,,,,,,,,,,,,,,,,,,,,,,1.8346,413.0180729,None,None,1,413.0180729,None,,P026,fencog,2,Post,2022_Mar_04_1348,N-Back (New Version 2021),2021.1.4,120.0160341
,,,,Conditions/Version_1/twoback(1)_v1.xlsx,New rule: Press 'space' when you see 2-back (i.e. the same letter as the one that appeared 2 letters ago.),R,None,,,,,,,,,0,2,2,2,0,7,7,7,,,,,,,,,,,,,,,,,,,,,,,,,,,,,,,,,,,,,,,,,,,,,,,,,,,,,,,,,,,,,,,,,,,,,1.754,416.7748512,None,None,1,416.7748512,None,,P026,fencog,2,Post,2022_Mar_04_1348,N-Back (New Version 2021),2021.1.4,120.0160341
,,,,Conditions/Version_1/twoback(1)_v1.xlsx,New rule: Press 'space' when you see 2-back (i.e. the same letter as the one that appeared 2 letters ago.),a,None,,,,,,,,,0,2,2,2,0,8,8,8,,,,,,,,,,,,,,,,,,,,,,,,,,,,,,,,,,,,,,,,,,,,,,,,,,,,,,,,,,,,,,,,,,,,,1.4564,420.2322316,None,None,1,420.2322316,None,,P026,fencog,2,Post,2022_Mar_04_1348,N-Back (New Version 2021),2021.1.4,120.0160341
,,,,Conditions/Version_1/twoback(1)_v1.xlsx,New rule: Press 'space' when you see 2-back (i.e. the same letter as the one that appeared 2 letters ago.),r,space,,,,,,,,,0,2,2,2,0,9,9,9,,,,,,,,,,,,,,,,,,,,,,,,,,,,,,,,,,,,,,,,,,,,,,,,,,,,,,,,,,,,,,,,,,,,,1.4874,423.7227603,None,space,1,423.7227603,None,0.7954117,P026,fencog,2,Post,2022_Mar_04_1348,N-Back (New Version 2021),2021.1.4,120.0160341
,,,,Conditions/Version_1/twoback(1)_v1.xlsx,New rule: Press 'space' when you see 2-back (i.e. the same letter as the one that appeared 2 letters ago.),,,,,,,,,,,0,2,2,2,,,,,,,,,,,,,,,,,,,,,,,,,,,,,,,,,,,,,,,,,,,,,,,,,,,,,,,,,,,,,,,,,,,,,,,,,,,,,,,,,P026,fencog,2,Post,2022_Mar_04_1348,N-Back (New Version 2021),2021.1.4,120.0160341
,,,,Conditions/Version_1/threeback(1)_v1.xlsx,New rule: Press 'space' when you see 3-back (i.e. the same letter as the one that appeared 3 letters ago.),r,None,,,,,,,,,0,3,3,3,0,0,0,0,,,,,,,,,,,,,,,,,,,,,,,,,,,,,,,,,,,,,,,,,,,,,,,,,,,,,,,,,,,425.7419769,None,428.7313699,None,space,0.3469912,428.7313699,None,425.7419769,None,1.8594,430.9539599,None,None,1,430.9539599,None,,P026,fencog,2,Post,2022_Mar_04_1348,N-Back (New Version 2021),2021.1.4,120.0160341
,,,,Conditions/Version_1/threeback(1)_v1.xlsx,New rule: Press 'space' when you see 3-back (i.e. the same letter as the one that appeared 3 letters ago.),o,None,,,,,,,,,0,3,3,3,0,1,1,1,,,,,,,,,,,,,,,,,,,,,,,,,,,,,,,,,,,,,,,,,,,,,,,,,,,,,,,,,,,,,,,,,,,,,1.63,434.586219,None,None,1,434.586219,None,,P026,fencog,2,Post,2022_Mar_04_1348,N-Back (New Version 2021),2021.1.4,120.0160341
,,,,Conditions/Version_1/threeback(1)_v1.xlsx,New rule: Press 'space' when you see 3-back (i.e. the same letter as the one that appeared 3 letters ago.),P,None,,,,,,,,,0,3,3,3,0,2,2,2,,,,,,,,,,,,,,,,,,,,,,,,,,,,,,,,,,,,,,,,,,,,,,,,,,,,,,,,,,,,,,,,,,,,,1.5866,438.1768224,None,None,1,438.1768224,None,,P026,fencog,2,Post,2022_Mar_04_1348,N-Back (New Version 2021),2021.1.4,120.0160341
,,,,Conditions/Version_1/threeback(1)_v1.xlsx,New rule: Press 'space' when you see 3-back (i.e. the same letter as the one that appeared 3 letters ago.),R,space,,,,,,,,,0,3,3,3,0,3,3,3,,,,,,,,,,,,,,,,,,,,,,,,,,,,,,,,,,,,,,,,,,,,,,,,,,,,,,,,,,,,,,,,,,,,,1.3448,441.5258548,None,space,1,441.5258548,None,1.1686948,P026,fencog,2,Post,2022_Mar_04_1348,N-Back (New Version 2021),2021.1.4,120.0160341
,,,,Conditions/Version_1/threeback(1)_v1.xlsx,New rule: Press 'space' when you see 3-back (i.e. the same letter as the one that appeared 3 letters ago.),p,None,,,,,,,,,0,3,3,3,0,4,4,4,,,,,,,,,,,,,,,,,,,,,,,,,,,,,,,,,,,,,,,,,,,,,,,,,,,,,,,,,,,,,,,,,,,,,1.4316,444.9581947,None,None,1,444.9581947,None,,P026,fencog,2,Post,2022_Mar_04_1348,N-Back (New Version 2021),2021.1.4,120.0160341
,,,,Conditions/Version_1/threeback(1)_v1.xlsx,New rule: Press 'space' when you see 3-back (i.e. the same letter as the one that appeared 3 letters ago.),E,None,,,,,,,,,0,3,3,3,0,5,5,5,,,,,,,,,,,,,,,,,,,,,,,,,,,,,,,,,,,,,,,,,,,,,,,,,,,,,,,,,,,,,,,,,,,,,1.0658,448.0239922,None,None,1,448.0239922,None,,P026,fencog,2,Post,2022_Mar_04_1348,N-Back (New Version 2021),2021.1.4,120.0160341
,,,,Conditions/Version_1/threeback(1)_v1.xlsx,New rule: Press 'space' when you see 3-back (i.e. the same letter as the one that appeared 3 letters ago.),e,None,,,,,,,,,0,3,3,3,0,6,6,6,,,,,,,,,,,,,,,,,,,,,,,,,,,,,,,,,,,,,,,,,,,,,,,,,,,,,,,,,,,,,,,,,,,,,1.599,451.6231421,None,None,1,451.6231421,None,,P026,fencog,2,Post,2022_Mar_04_1348,N-Back (New Version 2021),2021.1.4,120.0160341
,,,,Conditions/Version_1/threeback(1)_v1.xlsx,New rule: Press 'space' when you see 3-back (i.e. the same letter as the one that appeared 3 letters ago.),m,None,,,,,,,,,0,3,3,3,0,7,7,7,,,,,,,,,,,,,,,,,,,,,,,,,,,,,,,,,,,,,,,,,,,,,,,,,,,,,,,,,,,,,,,,,,,,,1.1092,454.7387551,None,None,1,454.7387551,None,,P026,fencog,2,Post,2022_Mar_04_1348,N-Back (New Version 2021),2021.1.4,120.0160341
,,,,Conditions/Version_1/threeback(1)_v1.xlsx,New rule: Press 'space' when you see 3-back (i.e. the same letter as the one that appeared 3 letters ago.),n,None,,,,,,,,,0,3,3,3,0,8,8,8,,,,,,,,,,,,,,,,,,,,,,,,,,,,,,,,,,,,,,,,,,,,,,,,,,,,,,,,,,,,,,,,,,,,,1.0348,457.7796106,None,None,1,457.7796106,None,,P026,fencog,2,Post,2022_Mar_04_1348,N-Back (New Version 2021),2021.1.4,120.0160341
,,,,Conditions/Version_1/threeback(1)_v1.xlsx,New rule: Press 'space' when you see 3-back (i.e. the same letter as the one that appeared 3 letters ago.),e,space,,,,,,,,,0,3,3,3,0,9,9,9,,,,,,,,,,,,,,,,,,,,,,,,,,,,,,,,,,,,,,,,,,,,,,,,,,,,,,,,,,,,,,,,,,,,,1.5246,461.3033417,None,space,1,461.3033417,None,1.1750859,P026,fencog,2,Post,2022_Mar_04_1348,N-Back (New Version 2021),2021.1.4,120.0160341
,,,,Conditions/Version_1/threeback(1)_v1.xlsx,New rule: Press 'space' when you see 3-back (i.e. the same letter as the one that appeared 3 letters ago.),,,,,,,,,,,0,3,3,3,,,,,,,,,,,,,,,,,,,,,,,,,,,,,,,,,,,,,,,,,,,,,,,,,,,,,,,,,,,,,,,,,,,,,,,,,,,,,,,,,P026,fencog,2,Post,2022_Mar_04_1348,N-Back (New Version 2021),2021.1.4,120.0160341
,,,,Conditions/Version_1/oneback(2)_v1.xlsx,New rule: Press 'space' when you see 1-back (i.e. the same letter as the one that appeared 1 letter ago.),q,None,,,,,,,,,0,4,4,4,0,0,0,0,,,,,,,,,,,,,,,,,,,,,,,,,,,,,,,,,,,,,,,,,,,,,,,,,,,,,,,,,,,463.3216656,None,466.3124395,None,space,0.3420608,466.3124395,None,463.3216656,None,1.5432,468.2179876,None,None,1,468.2179876,None,,P026,fencog,2,Post,2022_Mar_04_1348,N-Back (New Version 2021),2021.1.4,120.0160341
,,,,Conditions/Version_1/oneback(2)_v1.xlsx,New rule: Press 'space' when you see 1-back (i.e. the same letter as the one that appeared 1 letter ago.),Q,space,,,,,,,,,0,4,4,4,0,1,1,1,,,,,,,,,,,,,,,,,,,,,,,,,,,,,,,,,,,,,,,,,,,,,,,,,,,,,,,,,,,,,,,,,,,,,1.1464,471.3672672,None,space,1,471.3672672,None,1.6070371,P026,fencog,2,Post,2022_Mar_04_1348,N-Back (New Version 2021),2021.1.4,120.0160341
,,,,Conditions/Version_1/oneback(2)_v1.xlsx,New rule: Press 'space' when you see 1-back (i.e. the same letter as the one that appeared 1 letter ago.),P,None,,,,,,,,,0,4,4,4,0,2,2,2,,,,,,,,,,,,,,,,,,,,,,,,,,,,,,,,,,,,,,,,,,,,,,,,,,,,,,,,,,,,,,,,,,,,,1.9834,475.3492684,None,None,1,475.3492684,None,,P026,fencog,2,Post,2022_Mar_04_1348,N-Back (New Version 2021),2021.1.4,120.0160341
,,,,Conditions/Version_1/oneback(2)_v1.xlsx,New rule: Press 'space' when you see 1-back (i.e. the same letter as the one that appeared 1 letter ago.),o,None,,,,,,,,,0,4,4,4,0,3,3,3,,,,,,,,,,,,,,,,,,,,,,,,,,,,,,,,,,,,,,,,,,,,,,,,,,,,,,,,,,,,,,,,,,,,,1.227,478.5817203,None,None,1,478.5817203,None,,P026,fencog,2,Post,2022_Mar_04_1348,N-Back (New Version 2021),2021.1.4,120.0160341
,,,,Conditions/Version_1/oneback(2)_v1.xlsx,New rule: Press 'space' when you see 1-back (i.e. the same letter as the one that appeared 1 letter ago.),m,None,,,,,,,,,0,4,4,4,0,4,4,4,,,,,,,,,,,,,,,,,,,,,,,,,,,,,,,,,,,,,,,,,,,,,,,,,,,,,,,,,,,,,,,,,,,,,1.754,482.3389711,None,None,1,482.3389711,None,,P026,fencog,2,Post,2022_Mar_04_1348,N-Back (New Version 2021),2021.1.4,120.0160341
,,,,Conditions/Version_1/oneback(2)_v1.xlsx,New rule: Press 'space' when you see 1-back (i.e. the same letter as the one that appeared 1 letter ago.),Z,None,,,,,,,,,0,4,4,4,0,5,5,5,,,,,,,,,,,,,,,,,,,,,,,,,,,,,,,,,,,,,,,,,,,,,,,,,,,,,,,,,,,,,,,,,,,,,1.4936,485.8408792,None,None,1,485.8408792,None,,P026,fencog,2,Post,2022_Mar_04_1348,N-Back (New Version 2021),2021.1.4,120.0160341
,,,,Conditions/Version_1/oneback(2)_v1.xlsx,New rule: Press 'space' when you see 1-back (i.e. the same letter as the one that appeared 1 letter ago.),c,None,,,,,,,,,0,4,4,4,0,6,6,6,,,,,,,,,,,,,,,,,,,,,,,,,,,,,,,,,,,,,,,,,,,,,,,,,,,,,,,,,,,,,,,,,,,,,1.2084,489.0544822,None,None,1,489.0544822,None,,P026,fencog,2,Post,2022_Mar_04_1348,N-Back (New Version 2021),2021.1.4,120.0160341
,,,,Conditions/Version_1/oneback(2)_v1.xlsx,New rule: Press 'space' when you see 1-back (i.e. the same letter as the one that appeared 1 letter ago.),c,space,,,,,,,,,0,4,4,4,0,7,7,7,,,,,,,,,,,,,,,,,,,,,,,,,,,,,,,,,,,,,,,,,,,,,,,,,,,,,,,,,,,,,,,,,,,,,1.8098,492.8773501,None,space,1,492.8773501,None,1.0809668,P026,fencog,2,Post,2022_Mar_04_1348,N-Back (New Version 2021),2021.1.4,120.0160341
,,,,Conditions/Version_1/oneback(2)_v1.xlsx,New rule: Press 'space' when you see 1-back (i.e. the same letter as the one that appeared 1 letter ago.),P,None,,,,,,,,,0,4,4,4,0,8,8,8,,,,,,,,,,,,,,,,,,,,,,,,,,,,,,,,,,,,,,,,,,,,,,,,,,,,,,,,,,,,,,,,,,,,,1.6424,496.5262695,None,None,1,496.5262695,None,,P026,fencog,2,Post,2022_Mar_04_1348,N-Back (New Version 2021),2021.1.4,120.0160341
,,,,Conditions/Version_1/oneback(2)_v1.xlsx,New rule: Press 'space' when you see 1-back (i.e. the same letter as the one that appeared 1 letter ago.),p,space,,,,,,,,,0,4,4,4,0,9,9,9,,,,,,,,,,,,,,,,,,,,,,,,,,,,,,,,,,,,,,,,,,,,,,,,,,,,,,,,,,,,,,,,,,,,,1.8222,500.3505066,None,space,1,500.3505066,None,1.4398778,P026,fencog,2,Post,2022_Mar_04_1348,N-Back (New Version 2021),2021.1.4,120.0160341
,,,,Conditions/Version_1/oneback(2)_v1.xlsx,New rule: Press 'space' when you see 1-back (i.e. the same letter as the one that appeared 1 letter ago.),,,,,,,,,,,0,4,4,4,,,,,,,,,,,,,,,,,,,,,,,,,,,,,,,,,,,,,,,,,,,,,,,,,,,,,,,,,,,,,,,,,,,,,,,,,,,,,,,,,P026,fencog,2,Post,2022_Mar_04_1348,N-Back (New Version 2021),2021.1.4,120.0160341
,,,,Conditions/Version_1/zeroback(2)_v1.xlsx,New rule: Press 'space' when you see the letter 'x' or 'X'.,p,None,,,,,,,,,0,5,5,5,0,0,0,0,,,,,,,,,,,,,,,,,,,,,,,,,,,,,,,,,,,,,,,,,,,,,,,,,,,,,,,,,,,502.3664212,None,505.3505049,None,space,0.5197703,505.3505049,None,502.3664212,None,1.754,507.64802,None,None,1,507.64802,None,,P026,fencog,2,Post,2022_Mar_04_1348,N-Back (New Version 2021),2021.1.4,120.0160341
,,,,Conditions/Version_1/zeroback(2)_v1.xlsx,New rule: Press 'space' when you see the letter 'x' or 'X'.,L,None,,,,,,,,,0,5,5,5,0,1,1,1,,,,,,,,,,,,,,,,,,,,,,,,,,,,,,,,,,,,,,,,,,,,,,,,,,,,,,,,,,,,,,,,,,,,,1.0782,510.7304089,None,None,1,510.7304089,None,,P026,fencog,2,Post,2022_Mar_04_1348,N-Back (New Version 2021),2021.1.4,120.0160341
,,,,Conditions/Version_1/zeroback(2)_v1.xlsx,New rule: Press 'space' when you see the letter 'x' or 'X'.,G,None,,,,,,,,,0,5,5,5,0,2,2,2,,,,,,,,,,,,,,,,,,,,,,,,,,,,,,,,,,,,,,,,,,,,,,,,,,,,,,,,,,,,,,,,,,,,,1.3448,514.0807917,None,None,1,514.0807917,None,,P026,fencog,2,Post,2022_Mar_04_1348,N-Back (New Version 2021),2021.1.4,120.0160341
,,,,Conditions/Version_1/zeroback(2)_v1.xlsx,New rule: Press 'space' when you see the letter 'x' or 'X'.,y,None,,,,,,,,,0,5,5,5,0,3,3,3,,,,,,,,,,,,,,,,,,,,,,,,,,,,,,,,,,,,,,,,,,,,,,,,,,,,,,,,,,,,,,,,,,,,,1.568,517.6616908,None,None,1,517.6616908,None,,P026,fencog,2,Post,2022_Mar_04_1348,N-Back (New Version 2021),2021.1.4,120.0160341
,,,,Conditions/Version_1/zeroback(2)_v1.xlsx,New rule: Press 'space' when you see the letter 'x' or 'X'.,Y,None,,,,,,,,,0,5,5,5,0,4,4,4,,,,,,,,,,,,,,,,,,,,,,,,,,,,,,,,,,,,,,,,,,,,,,,,,,,,,,,,,,,,,,,,,,,,,1.382,521.0441874,None,None,1,521.0441874,None,,P026,fencog,2,Post,2022_Mar_04_1348,N-Back (New Version 2021),2021.1.4,120.0160341
,,,,Conditions/Version_1/zeroback(2)_v1.xlsx,New rule: Press 'space' when you see the letter 'x' or 'X'.,W,None,,,,,,,,,0,5,5,5,0,5,5,5,,,,,,,,,,,,,,,,,,,,,,,,,,,,,,,,,,,,,,,,,,,,,,,,,,,,,,,,,,,,,,,,,,,,,1.5866,524.6351091,None,None,1,524.6351091,None,,P026,fencog,2,Post,2022_Mar_04_1348,N-Back (New Version 2021),2021.1.4,120.0160341
,,,,Conditions/Version_1/zeroback(2)_v1.xlsx,New rule: Press 'space' when you see the letter 'x' or 'X'.,x,space,,,,,,,,,0,5,5,5,0,6,6,6,,,,,,,,,,,,,,,,,,,,,,,,,,,,,,,,,,,,,,,,,,,,,,,,,,,,,,,,,,,,,,,,,,,,,1.4378,528.0836402,None,space,1,528.0836402,None,0.7146276,P026,fencog,2,Post,2022_Mar_04_1348,N-Back (New Version 2021),2021.1.4,120.0160341
,,,,Conditions/Version_1/zeroback(2)_v1.xlsx,New rule: Press 'space' when you see the letter 'x' or 'X'.,X,space,,,,,,,,,0,5,5,5,0,7,7,7,,,,,,,,,,,,,,,,,,,,,,,,,,,,,,,,,,,,,,,,,,,,,,,,,,,,,,,,,,,,,,,,,,,,,1.2084,531.2910425,None,space,1,531.2910425,None,0.5232679,P026,fencog,2,Post,2022_Mar_04_1348,N-Back (New Version 2021),2021.1.4,120.0160341
,,,,Conditions/Version_1/zeroback(2)_v1.xlsx,New rule: Press 'space' when you see the letter 'x' or 'X'.,p,None,,,,,,,,,0,5,5,5,0,8,8,8,,,,,,,,,,,,,,,,,,,,,,,,,,,,,,,,,,,,,,,,,,,,,,,,,,,,,,,,,,,,,,,,,,,,,1.0658,534.3569349,None,None,1,534.3569349,None,,P026,fencog,2,Post,2022_Mar_04_1348,N-Back (New Version 2021),2021.1.4,120.0160341
,,,,Conditions/Version_1/zeroback(2)_v1.xlsx,New rule: Press 'space' when you see the letter 'x' or 'X'.,h,None,,,,,,,,,0,5,5,5,0,9,9,9,,,,,,,,,,,,,,,,,,,,,,,,,,,,,,,,,,,,,,,,,,,,,,,,,,,,,,,,,,,,,,,,,,,,,1.0844,537.4476756,None,None,1,537.4476756,None,,P026,fencog,2,Post,2022_Mar_04_1348,N-Back (New Version 2021),2021.1.4,120.0160341
,,,,Conditions/Version_1/zeroback(2)_v1.xlsx,New rule: Press 'space' when you see the letter 'x' or 'X'.,,,,,,,,,,,0,5,5,5,,,,,,,,,,,,,,,,,,,,,,,,,,,,,,,,,,,,,,,,,,,,,,,,,,,,,,,,,,,,,,,,,,,,,,,,,,,,,,,,,P026,fencog,2,Post,2022_Mar_04_1348,N-Back (New Version 2021),2021.1.4,120.0160341
,,,,Conditions/Version_1/threeback(2)_v1.xlsx,New rule: Press 'space' when you see 3-back (i.e. the same letter as the one that appeared 3 letters ago.),q,None,,,,,,,,,0,6,6,6,0,0,0,0,,,,,,,,,,,,,,,,,,,,,,,,,,,,,,,,,,,,,,,,,,,,,,,,,,,,,,,,,,,539.4669065,None,542.4561367,None,space,0.5659774,542.4561367,None,539.4669065,None,1.8098,544.8536452,None,None,1,544.8536452,None,,P026,fencog,2,Post,2022_Mar_04_1348,N-Back (New Version 2021),2021.1.4,120.0160341
,,,,Conditions/Version_1/threeback(2)_v1.xlsx,New rule: Press 'space' when you see 3-back (i.e. the same letter as the one that appeared 3 letters ago.),Y,None,,,,,,,,,0,6,6,6,0,1,1,1,,,,,,,,,,,,,,,,,,,,,,,,,,,,,,,,,,,,,,,,,,,,,,,,,,,,,,,,,,,,,,,,,,,,,1.3572,548.2112077,None,None,1,548.2112077,None,,P026,fencog,2,Post,2022_Mar_04_1348,N-Back (New Version 2021),2021.1.4,120.0160341
,,,,Conditions/Version_1/threeback(2)_v1.xlsx,New rule: Press 'space' when you see 3-back (i.e. the same letter as the one that appeared 3 letters ago.),p,None,,,,,,,,,0,6,6,6,0,2,2,2,,,,,,,,,,,,,,,,,,,,,,,,,,,,,,,,,,,,,,,,,,,,,,,,,,,,,,,,,,,,,,,,,,,,,1.6052,551.8184888,None,None,1,551.8184888,None,,P026,fencog,2,Post,2022_Mar_04_1348,N-Back (New Version 2021),2021.1.4,120.0160341
,,,,Conditions/Version_1/threeback(2)_v1.xlsx,New rule: Press 'space' when you see 3-back (i.e. the same letter as the one that appeared 3 letters ago.),p,None,,,,,,,,,0,6,6,6,0,3,3,3,,,,,,,,,,,,,,,,,,,,,,,,,,,,,,,,,,,,,,,,,,,,,,,,,,,,,,,,,,,,,,,,,,,,,1.1588,554.9757272,None,None,1,554.9757272,None,,P026,fencog,2,Post,2022_Mar_04_1348,N-Back (New Version 2021),2021.1.4,120.0160341
,,,,Conditions/Version_1/threeback(2)_v1.xlsx,New rule: Press 'space' when you see 3-back (i.e. the same letter as the one that appeared 3 letters ago.),y,space,,,,,,,,,0,6,6,6,0,4,4,4,,,,,,,,,,,,,,,,,,,,,,,,,,,,,,,,,,,,,,,,,,,,,,,,,,,,,,,,,,,,,,,,,,,,,1.599,558.5746855,None,space,1,558.5746855,None,0.6396033,P026,fencog,2,Post,2022_Mar_04_1348,N-Back (New Version 2021),2021.1.4,120.0160341
,,,,Conditions/Version_1/threeback(2)_v1.xlsx,New rule: Press 'space' when you see 3-back (i.e. the same letter as the one that appeared 3 letters ago.),u,None,,,,,,,,,0,6,6,6,0,5,5,5,,,,,,,,,,,,,,,,,,,,,,,,,,,,,,,,,,,,,,,,,,,,,,,,,,,,,,,,,,,,,,,,,,,,,1.2766,561.8571584,None,None,1,561.8571584,None,,P026,fencog,2,Post,2022_Mar_04_1348,N-Back (New Version 2021),2021.1.4,120.0160341
,,,,Conditions/Version_1/threeback(2)_v1.xlsx,New rule: Press 'space' when you see 3-back (i.e. the same letter as the one that appeared 3 letters ago.),P,space,,,,,,,,,0,6,6,6,0,6,6,6,,,,,,,,,,,,,,,,,,,,,,,,,,,,,,,,,,,,,,,,,,,,,,,,,,,,,,,,,,,,,,,,,,,,,1.8718,565.7309057,None,space,1,565.7309057,None,1.4353518,P026,fencog,2,Post,2022_Mar_04_1348,N-Back (New Version 2021),2021.1.4,120.0160341
,,,,Conditions/Version_1/threeback(2)_v1.xlsx,New rule: Press 'space' when you see 3-back (i.e. the same letter as the one that appeared 3 letters ago.),a,None,,,,,,,,,0,6,6,6,0,7,7,7,,,,,,,,,,,,,,,,,,,,,,,,,,,,,,,,,,,,,,,,,,,,,,,,,,,,,,,,,,,,,,,,,,,,,1.4068,569.1381506,None,None,1,569.1381506,None,,P026,fencog,2,Post,2022_Mar_04_1348,N-Back (New Version 2021),2021.1.4,120.0160341
,,,,Conditions/Version_1/threeback(2)_v1.xlsx,New rule: Press 'space' when you see 3-back (i.e. the same letter as the one that appeared 3 letters ago.),U,space,,,,,,,,,0,6,6,6,0,8,8,8,,,,,,,,,,,,,,,,,,,,,,,,,,,,,,,,,,,,,,,,,,,,,,,,,,,,,,,,,,,,,,,,,,,,,1.1092,572.2540309,None,space,1,572.2540309,None,1.4641852,P026,fencog,2,Post,2022_Mar_04_1348,N-Back (New Version 2021),2021.1.4,120.0160341
,,,,Conditions/Version_1/threeback(2)_v1.xlsx,New rule: Press 'space' when you see 3-back (i.e. the same letter as the one that appeared 3 letters ago.),q,None,,,,,,,,,0,6,6,6,0,9,9,9,,,,,,,,,,,,,,,,,,,,,,,,,,,,,,,,,,,,,,,,,,,,,,,,,,,,,,,,,,,,,,,,,,,,,1.382,575.6363662,None,None,1,575.6363662,None,,P026,fencog,2,Post,2022_Mar_04_1348,N-Back (New Version 2021),2021.1.4,120.0160341
,,,,Conditions/Version_1/threeback(2)_v1.xlsx,New rule: Press 'space' when you see 3-back (i.e. the same letter as the one that appeared 3 letters ago.),,,,,,,,,,,0,6,6,6,,,,,,,,,,,,,,,,,,,,,,,,,,,,,,,,,,,,,,,,,,,,,,,,,,,,,,,,,,,,,,,,,,,,,,,,,,,,,,,,,P026,fencog,2,Post,2022_Mar_04_1348,N-Back (New Version 2021),2021.1.4,120.0160341
,,,,Conditions/Version_1/twoback(2)_v1.xlsx,New rule: Press 'space' when you see 2-back (i.e. the same letter as the one that appeared 2 letters ago.),q,None,,,,,,,,,0,7,7,7,0,0,0,0,,,,,,,,,,,,,,,,,,,,,,,,,,,,,,,,,,,,,,,,,,,,,,,,,,,,,,,,,,,577.657397,None,580.6446795,None,space,0.2815941,580.6446795,None,577.657397,None,1.692,582.6425634,None,None,1,582.6425634,None,,P026,fencog,2,Post,2022_Mar_04_1348,N-Back (New Version 2021),2021.1.4,120.0160341
,,,,Conditions/Version_1/twoback(2)_v1.xlsx,New rule: Press 'space' when you see 2-back (i.e. the same letter as the one that appeared 2 letters ago.),r,None,,,,,,,,,0,7,7,7,0,1,1,1,,,,,,,,,,,,,,,,,,,,,,,,,,,,,,,,,,,,,,,,,,,,,,,,,,,,,,,,,,,,,,,,,,,,,1.0472,585.6916709,None,None,1,585.6916709,None,,P026,fencog,2,Post,2022_Mar_04_1348,N-Back (New Version 2021),2021.1.4,120.0160341
,,,,Conditions/Version_1/twoback(2)_v1.xlsx,New rule: Press 'space' when you see 2-back (i.e. the same letter as the one that appeared 2 letters ago.),q,space,,,,,,,,,0,7,7,7,0,2,2,2,,,,,,,,,,,,,,,,,,,,,,,,,,,,,,,,,,,,,,,,,,,,,,,,,,,,,,,,,,,,,,,,,,,,,1.6982,589.3905653,None,space,1,589.3905653,None,0.8635079,P026,fencog,2,Post,2022_Mar_04_1348,N-Back (New Version 2021),2021.1.4,120.0160341
,,,,Conditions/Version_1/twoback(2)_v1.xlsx,New rule: Press 'space' when you see 2-back (i.e. the same letter as the one that appeared 2 letters ago.),P,None,,,,,,,,,0,7,7,7,0,3,3,3,,,,,,,,,,,,,,,,,,,,,,,,,,,,,,,,,,,,,,,,,,,,,,,,,,,,,,,,,,,,,,,,,,,,,1.475,592.8645248,None,None,1,592.8645248,None,,P026,fencog,2,Post,2022_Mar_04_1348,N-Back (New Version 2021),2021.1.4,120.0160341
,,,,Conditions/Version_1/twoback(2)_v1.xlsx,New rule: Press 'space' when you see 2-back (i.e. the same letter as the one that appeared 2 letters ago.),p,None,,,,,,,,,0,7,7,7,0,4,4,4,,,,,,,,,,,,,,,,,,,,,,,,,,,,,,,,,,,,,,,,,,,,,,,,,,,,,,,,,,,,,,,,,,,,,1.8346,596.7050571,None,None,1,596.7050571,None,,P026,fencog,2,Post,2022_Mar_04_1348,N-Back (New Version 2021),2021.1.4,120.0160341
,,,,Conditions/Version_1/twoback(2)_v1.xlsx,New rule: Press 'space' when you see 2-back (i.e. the same letter as the one that appeared 2 letters ago.),H,None,,,,,,,,,0,7,7,7,0,5,5,5,,,,,,,,,,,,,,,,,,,,,,,,,,,,,,,,,,,,,,,,,,,,,,,,,,,,,,,,,,,,,,,,,,,,,1.7044,600.4123576,None,None,1,600.4123576,None,,P026,fencog,2,Post,2022_Mar_04_1348,N-Back (New Version 2021),2021.1.4,120.0160341
,,,,Conditions/Version_1/twoback(2)_v1.xlsx,New rule: Press 'space' when you see 2-back (i.e. the same letter as the one that appeared 2 letters ago.),g,None,,,,,,,,,0,7,7,7,0,6,6,6,,,,,,,,,,,,,,,,,,,,,,,,,,,,,,,,,,,,,,,,,,,,,,,,,,,,,,,,,,,,,,,,,,,,,1.4316,603.8446722,None,None,1,603.8446722,None,,P026,fencog,2,Post,2022_Mar_04_1348,N-Back (New Version 2021),2021.1.4,120.0160341
,,,,Conditions/Version_1/twoback(2)_v1.xlsx,New rule: Press 'space' when you see 2-back (i.e. the same letter as the one that appeared 2 letters ago.),j,None,,,,,,,,,0,7,7,7,0,7,7,7,,,,,,,,,,,,,,,,,,,,,,,,,,,,,,,,,,,,,,,,,,,,,,,,,,,,,,,,,,,,,,,,,,,,,1.165,607.0103927,None,None,1,607.0103927,None,,P026,fencog,2,Post,2022_Mar_04_1348,N-Back (New Version 2021),2021.1.4,120.0160341
,,,,Conditions/Version_1/twoback(2)_v1.xlsx,New rule: Press 'space' when you see 2-back (i.e. the same letter as the one that appeared 2 letters ago.),g,space,,,,,,,,,0,7,7,7,0,8,8,8,,,,,,,,,,,,,,,,,,,,,,,,,,,,,,,,,,,,,,,,,,,,,,,,,,,,,,,,,,,,,,,,,,,,,1.847,610.8593473,None,space,1,610.8593473,None,0.8028858,P026,fencog,2,Post,2022_Mar_04_1348,N-Back (New Version 2021),2021.1.4,120.0160341
,,,,Conditions/Version_1/twoback(2)_v1.xlsx,New rule: Press 'space' when you see 2-back (i.e. the same letter as the one that appeared 2 letters ago.),G,None,,,,,,,,,0,7,7,7,0,9,9,9,,,,,,,,,,,,,,,,,,,,,,,,,,,,,,,,,,,,,,,,,,,,,,,,,,,,,,,,,,,,,,,,,,,,,1.6424,614.5082369,None,None,1,614.5082369,None,,P026,fencog,2,Post,2022_Mar_04_1348,N-Back (New Version 2021),2021.1.4,120.0160341
,,,,Conditions/Version_1/twoback(2)_v1.xlsx,New rule: Press 'space' when you see 2-back (i.e. the same letter as the one that appeared 2 letters ago.),,,,,,,,,,,0,7,7,7,,,,,,,,,,,,,,,,,,,,,,,,,,,,,,,,,,,,,,,,,,,,,,,,,,,,,,,,,,,,,,,,,,,,,,,,,,,,,,,,,P026,fencog,2,Post,2022_Mar_04_1348,N-Back (New Version 2021),2021.1.4,120.0160341
,,,,Conditions/Version_1/threeback(3)_v1.xlsx,New rule: Press 'space' when you see 3-back (i.e. the same letter as the one that appeared 3 letters ago.),w,None,,,,,,,,,0,8,8,8,0,0,0,0,,,,,,,,,,,,,,,,,,,,,,,,,,,,,,,,,,,,,,,,,,,,,,,,,,,,,,,,,,,616.5292749,None,619.5170261,None,space,0.2731682,619.5170261,None,616.5292749,None,1.9648,621.7810566,None,None,1,621.7810566,None,,P026,fencog,2,Post,2022_Mar_04_1348,N-Back (New Version 2021),2021.1.4,120.0160341
,,,,Conditions/Version_1/threeback(3)_v1.xlsx,New rule: Press 'space' when you see 3-back (i.e. the same letter as the one that appeared 3 letters ago.),p,None,,,,,,,,,0,8,8,8,0,1,1,1,,,,,,,,,,,,,,,,,,,,,,,,,,,,,,,,,,,,,,,,,,,,,,,,,,,,,,,,,,,,,,,,,,,,,1.7354,625.5218013,None,None,1,625.5218013,None,,P026,fencog,2,Post,2022_Mar_04_1348,N-Back (New Version 2021),2021.1.4,120.0160341
,,,,Conditions/Version_1/threeback(3)_v1.xlsx,New rule: Press 'space' when you see 3-back (i.e. the same letter as the one that appeared 3 letters ago.),P,None,,,,,,,,,0,8,8,8,0,2,2,2,,,,,,,,,,,,,,,,,,,,,,,,,,,,,,,,,,,,,,,,,,,,,,,,,,,,,,,,,,,,,,,,,,,,,1.1278,628.654209,None,None,1,628.654209,None,,P026,fencog,2,Post,2022_Mar_04_1348,N-Back (New Version 2021),2021.1.4,120.0160341
,,,,Conditions/Version_1/threeback(3)_v1.xlsx,New rule: Press 'space' when you see 3-back (i.e. the same letter as the one that appeared 3 letters ago.),i,None,,,,,,,,,0,8,8,8,0,3,3,3,,,,,,,,,,,,,,,,,,,,,,,,,,,,,,,,,,,,,,,,,,,,,,,,,,,,,,,,,,,,,,,,,,,,,1.1402,631.794732,None,None,1,631.794732,None,,P026,fencog,2,Post,2022_Mar_04_1348,N-Back (New Version 2021),2021.1.4,120.0160341
,,,,Conditions/Version_1/threeback(3)_v1.xlsx,New rule: Press 'space' when you see 3-back (i.e. the same letter as the one that appeared 3 letters ago.),f,None,,,,,,,,,0,8,8,8,0,4,4,4,,,,,,,,,,,,,,,,,,,,,,,,,,,,,,,,,,,,,,,,,,,,,,,,,,,,,,,,,,,,,,,,,,,,,1.6176,635.4186889,None,None,1,635.4186889,None,,P026,fencog,2,Post,2022_Mar_04_1348,N-Back (New Version 2021),2021.1.4,120.0160341
,,,,Conditions/Version_1/threeback(3)_v1.xlsx,New rule: Press 'space' when you see 3-back (i.e. the same letter as the one that appeared 3 letters ago.),o,None,,,,,,,,,0,8,8,8,0,5,5,5,,,,,,,,,,,,,,,,,,,,,,,,,,,,,,,,,,,,,,,,,,,,,,,,,,,,,,,,,,,,,,,,,,,,,1.599,639.0177006,None,None,1,639.0177006,None,,P026,fencog,2,Post,2022_Mar_04_1348,N-Back (New Version 2021),2021.1.4,120.0160341
,,,,Conditions/Version_1/threeback(3)_v1.xlsx,New rule: Press 'space' when you see 3-back (i.e. the same letter as the one that appeared 3 letters ago.),w,None,,,,,,,,,0,8,8,8,0,6,6,6,,,,,,,,,,,,,,,,,,,,,,,,,,,,,,,,,,,,,,,,,,,,,,,,,,,,,,,,,,,,,,,,,,,,,1.072,642.091724,None,None,1,642.091724,None,,P026,fencog,2,Post,2022_Mar_04_1348,N-Back (New Version 2021),2021.1.4,120.0160341
,,,,Conditions/Version_1/threeback(3)_v1.xlsx,New rule: Press 'space' when you see 3-back (i.e. the same letter as the one that appeared 3 letters ago.),F,space,,,,,,,,,0,8,8,8,0,7,7,7,,,,,,,,,,,,,,,,,,,,,,,,,,,,,,,,,,,,,,,,,,,,,,,,,,,,,,,,,,,,,,,,,,,,,1.3634,645.4573884,None,space,1,645.4573884,None,0.9008068,P026,fencog,2,Post,2022_Mar_04_1348,N-Back (New Version 2021),2021.1.4,120.0160341
,,,,Conditions/Version_1/threeback(3)_v1.xlsx,New rule: Press 'space' when you see 3-back (i.e. the same letter as the one that appeared 3 letters ago.),p,None,,,,,,,,,0,8,8,8,0,8,8,8,,,,,,,,,,,,,,,,,,,,,,,,,,,,,,,,,,,,,,,,,,,,,,,,,,,,,,,,,,,,,,,,,,,,,1.4998,648.9564962,None,None,1,648.9564962,None,,P026,fencog,2,Post,2022_Mar_04_1348,N-Back (New Version 2021),2021.1.4,120.0160341
,,,,Conditions/Version_1/threeback(3)_v1.xlsx,New rule: Press 'space' when you see 3-back (i.e. the same letter as the one that appeared 3 letters ago.),W,space,,,,,,,,,0,8,8,8,0,9,9,9,,,,,,,,,,,,,,,,,,,,,,,,,,,,,,,,,,,,,,,,,,,,,,,,,,,,,,,,,,,,,,,,,,,,,1.9338,652.8967974,None,space,1,652.8967974,None,0.4053906,P026,fencog,2,Post,2022_Mar_04_1348,N-Back (New Version 2021),2021.1.4,120.0160341
,,,,Conditions/Version_1/threeback(3)_v1.xlsx,New rule: Press 'space' when you see 3-back (i.e. the same letter as the one that appeared 3 letters ago.),,,,,,,,,,,0,8,8,8,,,,,,,,,,,,,,,,,,,,,,,,,,,,,,,,,,,,,,,,,,,,,,,,,,,,,,,,,,,,,,,,,,,,,,,,,,,,,,,,,P026,fencog,2,Post,2022_Mar_04_1348,N-Back (New Version 2021),2021.1.4,120.0160341
,,,,Conditions/Version_1/zeroback(3)_v1.xlsx,New rule: Press 'space' when you see the letter 'x' or 'X'.,X,space,,,,,,,,,0,9,9,9,0,0,0,0,,,,,,,,,,,,,,,,,,,,,,,,,,,,,,,,,,,,,,,,,,,,,,,,,,,,,,,,,,,654.9154808,None,657.9053999,None,space,0.4206623,657.9053999,None,654.9154808,None,1.7912,660.1447307,None,space,1,660.1447307,None,0.4293557,P026,fencog,2,Post,2022_Mar_04_1348,N-Back (New Version 2021),2021.1.4,120.0160341
,,,,Conditions/Version_1/zeroback(3)_v1.xlsx,New rule: Press 'space' when you see the letter 'x' or 'X'.,B,None,,,,,,,,,0,9,9,9,0,1,1,1,,,,,,,,,,,,,,,,,,,,,,,,,,,,,,,,,,,,,,,,,,,,,,,,,,,,,,,,,,,,,,,,,,,,,1.0658,663.2120363,None,None,1,663.2120363,None,,P026,fencog,2,Post,2022_Mar_04_1348,N-Back (New Version 2021),2021.1.4,120.0160341
,,,,Conditions/Version_1/zeroback(3)_v1.xlsx,New rule: Press 'space' when you see the letter 'x' or 'X'.,m,None,,,,,,,,,0,9,9,9,0,2,2,2,,,,,,,,,,,,,,,,,,,,,,,,,,,,,,,,,,,,,,,,,,,,,,,,,,,,,,,,,,,,,,,,,,,,,1.5928,666.817746,None,None,1,666.817746,None,,P026,fencog,2,Post,2022_Mar_04_1348,N-Back (New Version 2021),2021.1.4,120.0160341
,,,,Conditions/Version_1/zeroback(3)_v1.xlsx,New rule: Press 'space' when you see the letter 'x' or 'X'.,m,None,,,,,,,,,0,9,9,9,0,3,3,3,,,,,,,,,,,,,,,,,,,,,,,,,,,,,,,,,,,,,,,,,,,,,,,,,,,,,,,,,,,,,,,,,,,,,1.4626,670.2835055,None,None,1,670.2835055,None,,P026,fencog,2,Post,2022_Mar_04_1348,N-Back (New Version 2021),2021.1.4,120.0160341
,,,,Conditions/Version_1/zeroback(3)_v1.xlsx,New rule: Press 'space' when you see the letter 'x' or 'X'.,o,None,,,,,,,,,0,9,9,9,0,4,4,4,,,,,,,,,,,,,,,,,,,,,,,,,,,,,,,,,,,,,,,,,,,,,,,,,,,,,,,,,,,,,,,,,,,,,1.0162,673.2991617,None,None,1,673.2991617,None,,P026,fencog,2,Post,2022_Mar_04_1348,N-Back (New Version 2021),2021.1.4,120.0160341
,,,,Conditions/Version_1/zeroback(3)_v1.xlsx,New rule: Press 'space' when you see the letter 'x' or 'X'.,p,None,,,,,,,,,0,9,9,9,0,5,5,5,,,,,,,,,,,,,,,,,,,,,,,,,,,,,,,,,,,,,,,,,,,,,,,,,,,,,,,,,,,,,,,,,,,,,1.3448,676.6482178,None,None,1,676.6482178,None,,P026,fencog,2,Post,2022_Mar_04_1348,N-Back (New Version 2021),2021.1.4,120.0160341
,,,,Conditions/Version_1/zeroback(3)_v1.xlsx,New rule: Press 'space' when you see the letter 'x' or 'X'.,G,None,,,,,,,,,0,9,9,9,0,6,6,6,,,,,,,,,,,,,,,,,,,,,,,,,,,,,,,,,,,,,,,,,,,,,,,,,,,,,,,,,,,,,,,,,,,,,1.0534,679.7055818,None,None,1,679.7055818,None,,P026,fencog,2,Post,2022_Mar_04_1348,N-Back (New Version 2021),2021.1.4,120.0160341
,,,,Conditions/Version_1/zeroback(3)_v1.xlsx,New rule: Press 'space' when you see the letter 'x' or 'X'.,X,space,,,,,,,,,0,9,9,9,0,7,7,7,,,,,,,,,,,,,,,,,,,,,,,,,,,,,,,,,,,,,,,,,,,,,,,,,,,,,,,,,,,,,,,,,,,,,1.041,682.7550267,None,space,1,682.7550267,None,0.4911207,P026,fencog,2,Post,2022_Mar_04_1348,N-Back (New Version 2021),2021.1.4,120.0160341
,,,,Conditions/Version_1/zeroback(3)_v1.xlsx,New rule: Press 'space' when you see the letter 'x' or 'X'.,p,None,,,,,,,,,0,9,9,9,0,8,8,8,,,,,,,,,,,,,,,,,,,,,,,,,,,,,,,,,,,,,,,,,,,,,,,,,,,,,,,,,,,,,,,,,,,,,1.692,686.4454085,None,None,1,686.4454085,None,,P026,fencog,2,Post,2022_Mar_04_1348,N-Back (New Version 2021),2021.1.4,120.0160341
,,,,Conditions/Version_1/zeroback(3)_v1.xlsx,New rule: Press 'space' when you see the letter 'x' or 'X'.,x,space,,,,,,,,,0,9,9,9,0,9,9,9,,,,,,,,,,,,,,,,,,,,,,,,,,,,,,,,,,,,,,,,,,,,,,,,,,,,,,,,,,,,,,,,,,,,,1.6362,690.0858678,None,space,1,690.0858678,None,0.5682534,P026,fencog,2,Post,2022_Mar_04_1348,N-Back (New Version 2021),2021.1.4,120.0160341
,,,,Conditions/Version_1/zeroback(3)_v1.xlsx,New rule: Press 'space' when you see the letter 'x' or 'X'.,,,,,,,,,,,0,9,9,9,,,,,,,,,,,,,,,,,,,,,,,,,,,,,,,,,,,,,,,,,,,,,,,,,,,,,,,,,,,,,,,,,,,,,,,,,,,,,,,,,P026,fencog,2,Post,2022_Mar_04_1348,N-Back (New Version 2021),2021.1.4,120.0160341
,,,,Conditions/Version_1/twoback(3)_v1.xlsx,New rule: Press 'space' when you see 2-back (i.e. the same letter as the one that appeared 2 letters ago.),e,None,,,,,,,,,0,10,10,10,0,0,0,0,,,,,,,,,,,,,,,,,,,,,,,,,,,,,,,,,,,,,,,,,,,,,,,,,,,,,,,,,,,692.1040974,None,695.0951724,None,space,0.8309834,695.0951724,None,692.1040974,None,1.4254,697.3753551,None,None,1,697.3753551,None,,P026,fencog,2,Post,2022_Mar_04_1348,N-Back (New Version 2021),2021.1.4,120.0160341
,,,,Conditions/Version_1/twoback(3)_v1.xlsx,New rule: Press 'space' when you see 2-back (i.e. the same letter as the one that appeared 2 letters ago.),o,None,,,,,,,,,0,10,10,10,0,1,1,1,,,,,,,,,,,,,,,,,,,,,,,,,,,,,,,,,,,,,,,,,,,,,,,,,,,,,,,,,,,,,,,,,,,,,1.506,700.8827336,None,None,1,700.8827336,None,,P026,fencog,2,Post,2022_Mar_04_1348,N-Back (New Version 2021),2021.1.4,120.0160341
,,,,Conditions/Version_1/twoback(3)_v1.xlsx,New rule: Press 'space' when you see 2-back (i.e. the same letter as the one that appeared 2 letters ago.),P,None,,,,,,,,,0,10,10,10,0,2,2,2,,,,,,,,,,,,,,,,,,,,,,,,,,,,,,,,,,,,,,,,,,,,,,,,,,,,,,,,,,,,,,,,,,,,,1.2084,704.090369,None,None,1,704.090369,None,,P026,fencog,2,Post,2022_Mar_04_1348,N-Back (New Version 2021),2021.1.4,120.0160341
,,,,Conditions/Version_1/twoback(3)_v1.xlsx,New rule: Press 'space' when you see 2-back (i.e. the same letter as the one that appeared 2 letters ago.),z,None,,,,,,,,,0,10,10,10,0,3,3,3,,,,,,,,,,,,,,,,,,,,,,,,,,,,,,,,,,,,,,,,,,,,,,,,,,,,,,,,,,,,,,,,,,,,,1.444,707.5410102,None,None,1,707.5410102,None,,P026,fencog,2,Post,2022_Mar_04_1348,N-Back (New Version 2021),2021.1.4,120.0160341
,,,,Conditions/Version_1/twoback(3)_v1.xlsx,New rule: Press 'space' when you see 2-back (i.e. the same letter as the one that appeared 2 letters ago.),X,None,,,,,,,,,0,10,10,10,0,4,4,4,,,,,,,,,,,,,,,,,,,,,,,,,,,,,,,,,,,,,,,,,,,,,,,,,,,,,,,,,,,,,,,,,,,,,1.165,710.7132607,None,None,1,710.7132607,None,,P026,fencog,2,Post,2022_Mar_04_1348,N-Back (New Version 2021),2021.1.4,120.0160341
,,,,Conditions/Version_1/twoback(3)_v1.xlsx,New rule: Press 'space' when you see 2-back (i.e. the same letter as the one that appeared 2 letters ago.),z,space,,,,,,,,,0,10,10,10,0,5,5,5,,,,,,,,,,,,,,,,,,,,,,,,,,,,,,,,,,,,,,,,,,,,,,,,,,,,,,,,,,,,,,,,,,,,,1.289,714.0037926,None,space,1,714.0037926,None,1.2263638,P026,fencog,2,Post,2022_Mar_04_1348,N-Back (New Version 2021),2021.1.4,120.0160341
,,,,Conditions/Version_1/twoback(3)_v1.xlsx,New rule: Press 'space' when you see 2-back (i.e. the same letter as the one that appeared 2 letters ago.),x,space,,,,,,,,,0,10,10,10,0,6,6,6,,,,,,,,,,,,,,,,,,,,,,,,,,,,,,,,,,,,,,,,,,,,,,,,,,,,,,,,,,,,,,,,,,,,,1.2766,717.286267,None,space,1,717.286267,None,0.9678159,P026,fencog,2,Post,2022_Mar_04_1348,N-Back (New Version 2021),2021.1.4,120.0160341
,,,,Conditions/Version_1/twoback(3)_v1.xlsx,New rule: Press 'space' when you see 2-back (i.e. the same letter as the one that appeared 2 letters ago.),c,None,,,,,,,,,0,10,10,10,0,7,7,7,,,,,,,,,,,,,,,,,,,,,,,,,,,,,,,,,,,,,,,,,,,,,,,,,,,,,,,,,,,,,,,,,,,,,1.9338,721.218488,None,None,1,721.218488,None,,P026,fencog,2,Post,2022_Mar_04_1348,N-Back (New Version 2021),2021.1.4,120.0160341
,,,,Conditions/Version_1/twoback(3)_v1.xlsx,New rule: Press 'space' when you see 2-back (i.e. the same letter as the one that appeared 2 letters ago.),i,None,,,,,,,,,0,10,10,10,0,8,8,8,,,,,,,,,,,,,,,,,,,,,,,,,,,,,,,,,,,,,,,,,,,,,,,,,,,,,,,,,,,,,,,,,,,,,1.7664,724.9840138,None,None,1,724.9840138,None,,P026,fencog,2,Post,2022_Mar_04_1348,N-Back (New Version 2021),2021.1.4,120.0160341
,,,,Conditions/Version_1/twoback(3)_v1.xlsx,New rule: Press 'space' when you see 2-back (i.e. the same letter as the one that appeared 2 letters ago.),C,space,,,,,,,,,0,10,10,10,0,9,9,9,,,,,,,,,,,,,,,,,,,,,,,,,,,,,,,,,,,,,,,,,,,,,,,,,,,,,,,,,,,,,,,,,,,,,1.382,728.3681995,None,space,1,728.3681995,None,0.5499655,P026,fencog,2,Post,2022_Mar_04_1348,N-Back (New Version 2021),2021.1.4,120.0160341
,,,,Conditions/Version_1/twoback(3)_v1.xlsx,New rule: Press 'space' when you see 2-back (i.e. the same letter as the one that appeared 2 letters ago.),,,,,,,,,,,0,10,10,10,,,,,,,,,,,,,,,,,,,,,,,,,,,,,,,,,,,,,,,,,,,,,,,,,,,,,,,,,,,,,,,,,,,,,,,,,,,,,,,,,P026,fencog,2,Post,2022_Mar_04_1348,N-Back (New Version 2021),2021.1.4,120.0160341
,,,,Conditions/Version_1/oneback(3)_v1.xlsx,New rule: Press 'space' when you see 1-back (i.e. the same letter as the one that appeared 1 letter ago.),o,None,,,,,,,,,0,11,11,11,0,0,0,0,,,,,,,,,,,,,,,,,,,,,,,,,,,,,,,,,,,,,,,,,,,,,,,,,,,,,,,,,,,730.3926306,None,733.3747802,None,space,0.455305,733.3747802,None,730.3926306,None,1.9276,735.7810736,None,None,1,735.7810736,None,,P026,fencog,2,Post,2022_Mar_04_1348,N-Back (New Version 2021),2021.1.4,120.0160341
,,,,Conditions/Version_1/oneback(3)_v1.xlsx,New rule: Press 'space' when you see 1-back (i.e. the same letter as the one that appeared 1 letter ago.),O,space,,,,,,,,,0,11,11,11,0,1,1,1,,,,,,,,,,,,,,,,,,,,,,,,,,,,,,,,,,,,,,,,,,,,,,,,,,,,,,,,,,,,,,,,,,,,,1.3944,739.1798256,None,space,1,739.1798256,None,0.570359,P026,fencog,2,Post,2022_Mar_04_1348,N-Back (New Version 2021),2021.1.4,120.0160341
,,,,Conditions/Version_1/oneback(3)_v1.xlsx,New rule: Press 'space' when you see 1-back (i.e. the same letter as the one that appeared 1 letter ago.),h,None,,,,,,,,,0,11,11,11,0,2,2,2,,,,,,,,,,,,,,,,,,,,,,,,,,,,,,,,,,,,,,,,,,,,,,,,,,,,,,,,,,,,,,,,,,,,,1.1092,742.33281,None,None,1,742.33281,None,,P026,fencog,2,Post,2022_Mar_04_1348,N-Back (New Version 2021),2021.1.4,120.0160341
,,,,Conditions/Version_1/oneback(3)_v1.xlsx,New rule: Press 'space' when you see 1-back (i.e. the same letter as the one that appeared 1 letter ago.),g,None,,,,,,,,,0,11,11,11,0,3,3,3,,,,,,,,,,,,,,,,,,,,,,,,,,,,,,,,,,,,,,,,,,,,,,,,,,,,,,,,,,,,,,,,,,,,,1.8966,746.2026708,None,None,1,746.2026708,None,,P026,fencog,2,Post,2022_Mar_04_1348,N-Back (New Version 2021),2021.1.4,120.0160341
,,,,Conditions/Version_1/oneback(3)_v1.xlsx,New rule: Press 'space' when you see 1-back (i.e. the same letter as the one that appeared 1 letter ago.),n,None,,,,,,,,,0,11,11,11,0,4,4,4,,,,,,,,,,,,,,,,,,,,,,,,,,,,,,,,,,,,,,,,,,,,,,,,,,,,,,,,,,,,,,,,,,,,,1.6424,749.8515749,None,None,1,749.8515749,None,,P026,fencog,2,Post,2022_Mar_04_1348,N-Back (New Version 2021),2021.1.4,120.0160341
,,,,Conditions/Version_1/oneback(3)_v1.xlsx,New rule: Press 'space' when you see 1-back (i.e. the same letter as the one that appeared 1 letter ago.),z,None,,,,,,,,,0,11,11,11,0,5,5,5,,,,,,,,,,,,,,,,,,,,,,,,,,,,,,,,,,,,,,,,,,,,,,,,,,,,,,,,,,,,,,,,,,,,,1.2704,753.1261434,None,None,1,753.1261434,None,,P026,fencog,2,Post,2022_Mar_04_1348,N-Back (New Version 2021),2021.1.4,120.0160341
,,,,Conditions/Version_1/oneback(3)_v1.xlsx,New rule: Press 'space' when you see 1-back (i.e. the same letter as the one that appeared 1 letter ago.),X,None,,,,,,,,,0,11,11,11,0,6,6,6,,,,,,,,,,,,,,,,,,,,,,,,,,,,,,,,,,,,,,,,,,,,,,,,,,,,,,,,,,,,,,,,,,,,,1.6982,756.8327596,None,None,1,756.8327596,None,,P026,fencog,2,Post,2022_Mar_04_1348,N-Back (New Version 2021),2021.1.4,120.0160341
,,,,Conditions/Version_1/oneback(3)_v1.xlsx,New rule: Press 'space' when you see 1-back (i.e. the same letter as the one that appeared 1 letter ago.),r,None,,,,,,,,,0,11,11,11,0,7,7,7,,,,,,,,,,,,,,,,,,,,,,,,,,,,,,,,,,,,,,,,,,,,,,,,,,,,,,,,,,,,,,,,,,,,,1.4626,760.2987634,None,None,1,760.2987634,None,,P026,fencog,2,Post,2022_Mar_04_1348,N-Back (New Version 2021),2021.1.4,120.0160341
,,,,Conditions/Version_1/oneback(3)_v1.xlsx,New rule: Press 'space' when you see 1-back (i.e. the same letter as the one that appeared 1 letter ago.),r,space,,,,,,,,,0,11,11,11,0,8,8,8,,,,,,,,,,,,,,,,,,,,,,,,,,,,,,,,,,,,,,,,,,,,,,,,,,,,,,,,,,,,,,,,,,,,,1.072,763.3727298,None,space,1,763.3727298,None,0.721306,P026,fencog,2,Post,2022_Mar_04_1348,N-Back (New Version 2021),2021.1.4,120.0160341
,,,,Conditions/Version_1/oneback(3)_v1.xlsx,New rule: Press 'space' when you see 1-back (i.e. the same letter as the one that appeared 1 letter ago.),P,None,,,,,,,,,0,11,11,11,0,9,9,9,,,,,,,,,,,,,,,,,,,,,,,,,,,,,,,,,,,,,,,,,,,,,,,,,,,,,,,,,,,,,,,,,,,,,1.4502,766.8216405,None,None,1,766.8216405,None,,P026,fencog,2,Post,2022_Mar_04_1348,N-Back (New Version 2021),2021.1.4,120.0160341
,,,,Conditions/Version_1/oneback(3)_v1.xlsx,New rule: Press 'space' when you see 1-back (i.e. the same letter as the one that appeared 1 letter ago.),,,,,,,,,,,0,11,11,11,,,,,,,,,,,,,,,,,,,,,,,,,,,,,,,,,,,,,,,,,,,,,,,,,,,,,,,,,,,,,,,,,,,,,,,,,,,,,,,,,P026,fencog,2,Post,2022_Mar_04_1348,N-Back (New Version 2021),2021.1.4,120.0160341
,,,,Conditions/Version_1/twoback(4)_v1.xlsx,New rule: Press 'space' when you see 2-back (i.e. the same letter as the one that appeared 2 letters ago.),r,None,,,,,,,,,0,12,12,12,0,0,0,0,,,,,,,,,,,,,,,,,,,,,,,,,,,,,,,,,,,,,,,,,,,,,,,,,,,,,,,,,,,768.8403248,None,771.8292892,None,space,0.4251133,771.8292892,None,768.8403248,None,1.4998,773.7779375,None,None,1,773.7779375,None,,P026,fencog,2,Post,2022_Mar_04_1348,N-Back (New Version 2021),2021.1.4,120.0160341
,,,,Conditions/Version_1/twoback(4)_v1.xlsx,New rule: Press 'space' when you see 2-back (i.e. the same letter as the one that appeared 2 letters ago.),T,None,,,,,,,,,0,12,12,12,0,1,1,1,,,,,,,,,,,,,,,,,,,,,,,,,,,,,,,,,,,,,,,,,,,,,,,,,,,,,,,,,,,,,,,,,,,,,1.1402,776.9186237,None,None,1,776.9186237,None,,P026,fencog,2,Post,2022_Mar_04_1348,N-Back (New Version 2021),2021.1.4,120.0160341
,,,,Conditions/Version_1/twoback(4)_v1.xlsx,New rule: Press 'space' when you see 2-back (i.e. the same letter as the one that appeared 2 letters ago.),o,None,,,,,,,,,0,12,12,12,0,2,2,2,,,,,,,,,,,,,,,,,,,,,,,,,,,,,,,,,,,,,,,,,,,,,,,,,,,,,,,,,,,,,,,,,,,,,1.3138,780.2343254,None,None,1,780.2343254,None,,P026,fencog,2,Post,2022_Mar_04_1348,N-Back (New Version 2021),2021.1.4,120.0160341
,,,,Conditions/Version_1/twoback(4)_v1.xlsx,New rule: Press 'space' when you see 2-back (i.e. the same letter as the one that appeared 2 letters ago.),p,None,,,,,,,,,0,12,12,12,0,3,3,3,,,,,,,,,,,,,,,,,,,,,,,,,,,,,,,,,,,,,,,,,,,,,,,,,,,,,,,,,,,,,,,,,,,,,1.9586,784.1916114,None,None,1,784.1916114,None,,P026,fencog,2,Post,2022_Mar_04_1348,N-Back (New Version 2021),2021.1.4,120.0160341
,,,,Conditions/Version_1/twoback(4)_v1.xlsx,New rule: Press 'space' when you see 2-back (i.e. the same letter as the one that appeared 2 letters ago.),p,None,,,,,,,,,0,12,12,12,0,4,4,4,,,,,,,,,,,,,,,,,,,,,,,,,,,,,,,,,,,,,,,,,,,,,,,,,,,,,,,,,,,,,,,,,,,,,1.6486,787.8403375,None,None,1,787.8403375,None,,P026,fencog,2,Post,2022_Mar_04_1348,N-Back (New Version 2021),2021.1.4,120.0160341
,,,,Conditions/Version_1/twoback(4)_v1.xlsx,New rule: Press 'space' when you see 2-back (i.e. the same letter as the one that appeared 2 letters ago.),y,None,,,,,,,,,0,12,12,12,0,5,5,5,,,,,,,,,,,,,,,,,,,,,,,,,,,,,,,,,,,,,,,,,,,,,,,,,,,,,,,,,,,,,,,,,,,,,1.3572,791.197746,None,None,1,791.197746,None,,P026,fencog,2,Post,2022_Mar_04_1348,N-Back (New Version 2021),2021.1.4,120.0160341
,,,,Conditions/Version_1/twoback(4)_v1.xlsx,New rule: Press 'space' when you see 2-back (i.e. the same letter as the one that appeared 2 letters ago.),P,space,,,,,,,,,0,12,12,12,0,6,6,6,,,,,,,,,,,,,,,,,,,,,,,,,,,,,,,,,,,,,,,,,,,,,,,,,,,,,,,,,,,,,,,,,,,,,1.63,794.8301601,None,space,1,794.8301601,None,0.9199897,P026,fencog,2,Post,2022_Mar_04_1348,N-Back (New Version 2021),2021.1.4,120.0160341
,,,,Conditions/Version_1/twoback(4)_v1.xlsx,New rule: Press 'space' when you see 2-back (i.e. the same letter as the one that appeared 2 letters ago.),y,None,,,,,,,,,0,12,12,12,0,7,7,7,,,,,,,,,,,,,,,,,,,,,,,,,,,,,,,,,,,,,,,,,,,,,,,,,,,,,,,,,,,,,,,,,,,,,1.32,798.1539283,None,space,0,798.1539283,None,0.7402347,P026,fencog,2,Post,2022_Mar_04_1348,N-Back (New Version 2021),2021.1.4,120.0160341
,,,,Conditions/Version_1/twoback(4)_v1.xlsx,New rule: Press 'space' when you see 2-back (i.e. the same letter as the one that appeared 2 letters ago.),y,space,,,,,,,,,0,12,12,12,0,8,8,8,,,,,,,,,,,,,,,,,,,,,,,,,,,,,,,,,,,,,,,,,,,,,,,,,,,,,,,,,,,,,,,,,,,,,1.4502,801.6030584,None,None,0,801.6030584,None,,P026,fencog,2,Post,2022_Mar_04_1348,N-Back (New Version 2021),2021.1.4,120.0160341
,,,,Conditions/Version_1/twoback(4)_v1.xlsx,New rule: Press 'space' when you see 2-back (i.e. the same letter as the one that appeared 2 letters ago.),,,,,,,,,,,0,12,12,12,,,,,,,,,,,,,,,,,,,,,,,,,,,,,,,,,,,,,,,,,,,,,,,,,,,,,,,,,,,,,,,,,,,,,,,,,,,,,,,,,P026,fencog,2,Post,2022_Mar_04_1348,N-Back (New Version 2021),2021.1.4,120.0160341
,,,,Conditions/Version_1/zeroback(4)_v1.xlsx,New rule: Press 'space' when you see the letter 'x' or 'X'.,o,None,,,,,,,,,0,13,13,13,0,0,0,0,,,,,,,,,,,,,,,,,,,,,,,,,,,,,,,,,,,,,,,,,,,,,,,,,,,,,,,,,,,803.6195405,None,806.6067578,None,space,0.3993703,806.6067578,None,803.6195405,None,1.2332,808.2676209,None,None,1,808.2676209,None,,P026,fencog,2,Post,2022_Mar_04_1348,N-Back (New Version 2021),2021.1.4,120.0160341
,,,,Conditions/Version_1/zeroback(4)_v1.xlsx,New rule: Press 'space' when you see the letter 'x' or 'X'.,X,space,,,,,,,,,0,13,13,13,0,1,1,1,,,,,,,,,,,,,,,,,,,,,,,,,,,,,,,,,,,,,,,,,,,,,,,,,,,,,,,,,,,,,,,,,,,,,1.909,812.183275,None,space,1,812.183275,None,1.0149316,P026,fencog,2,Post,2022_Mar_04_1348,N-Back (New Version 2021),2021.1.4,120.0160341
,,,,Conditions/Version_1/zeroback(4)_v1.xlsx,New rule: Press 'space' when you see the letter 'x' or 'X'.,p,None,,,,,,,,,0,13,13,13,0,2,2,2,,,,,,,,,,,,,,,,,,,,,,,,,,,,,,,,,,,,,,,,,,,,,,,,,,,,,,,,,,,,,,,,,,,,,1.9214,816.10707,None,None,1,816.10707,None,,P026,fencog,2,Post,2022_Mar_04_1348,N-Back (New Version 2021),2021.1.4,120.0160341
,,,,Conditions/Version_1/zeroback(4)_v1.xlsx,New rule: Press 'space' when you see the letter 'x' or 'X'.,m,None,,,,,,,,,0,13,13,13,0,3,3,3,,,,,,,,,,,,,,,,,,,,,,,,,,,,,,,,,,,,,,,,,,,,,,,,,,,,,,,,,,,,,,,,,,,,,1.0472,819.1561728,None,None,1,819.1561728,None,,P026,fencog,2,Post,2022_Mar_04_1348,N-Back (New Version 2021),2021.1.4,120.0160341
,,,,Conditions/Version_1/zeroback(4)_v1.xlsx,New rule: Press 'space' when you see the letter 'x' or 'X'.,n,None,,,,,,,,,0,13,13,13,0,4,4,4,,,,,,,,,,,,,,,,,,,,,,,,,,,,,,,,,,,,,,,,,,,,,,,,,,,,,,,,,,,,,,,,,,,,,1.9152,823.0716356,None,None,1,823.0716356,None,,P026,fencog,2,Post,2022_Mar_04_1348,N-Back (New Version 2021),2021.1.4,120.0160341
,,,,Conditions/Version_1/zeroback(4)_v1.xlsx,New rule: Press 'space' when you see the letter 'x' or 'X'.,m,None,,,,,,,,,0,13,13,13,0,5,5,5,,,,,,,,,,,,,,,,,,,,,,,,,,,,,,,,,,,,,,,,,,,,,,,,,,,,,,,,,,,,,,,,,,,,,1.5246,826.5956052,None,None,1,826.5956052,None,,P026,fencog,2,Post,2022_Mar_04_1348,N-Back (New Version 2021),2021.1.4,120.0160341
,,,,Conditions/Version_1/zeroback(4)_v1.xlsx,New rule: Press 'space' when you see the letter 'x' or 'X'.,C,None,,,,,,,,,0,13,13,13,0,6,6,6,,,,,,,,,,,,,,,,,,,,,,,,,,,,,,,,,,,,,,,,,,,,,,,,,,,,,,,,,,,,,,,,,,,,,1.4936,830.0945854,None,None,1,830.0945854,None,,P026,fencog,2,Post,2022_Mar_04_1348,N-Back (New Version 2021),2021.1.4,120.0160341
,,,,Conditions/Version_1/zeroback(4)_v1.xlsx,New rule: Press 'space' when you see the letter 'x' or 'X'.,m,None,,,,,,,,,0,13,13,13,0,7,7,7,,,,,,,,,,,,,,,,,,,,,,,,,,,,,,,,,,,,,,,,,,,,,,,,,,,,,,,,,,,,,,,,,,,,,1.041,833.1354175,None,None,1,833.1354175,None,,P026,fencog,2,Post,2022_Mar_04_1348,N-Back (New Version 2021),2021.1.4,120.0160341
,,,,Conditions/Version_1/zeroback(4)_v1.xlsx,New rule: Press 'space' when you see the letter 'x' or 'X'.,p,None,,,,,,,,,0,13,13,13,0,8,8,8,,,,,,,,,,,,,,,,,,,,,,,,,,,,,,,,,,,,,,,,,,,,,,,,,,,,,,,,,,,,,,,,,,,,,1.3076,836.4426798,None,None,1,836.4426798,None,,P026,fencog,2,Post,2022_Mar_04_1348,N-Back (New Version 2021),2021.1.4,120.0160341
,,,,Conditions/Version_1/zeroback(4)_v1.xlsx,New rule: Press 'space' when you see the letter 'x' or 'X'.,X,space,,,,,,,,,0,13,13,13,0,9,9,9,,,,,,,,,,,,,,,,,,,,,,,,,,,,,,,,,,,,,,,,,,,,,,,,,,,,,,,,,,,,,,,,,,,,,1.94,840.3835683,None,space,1,840.3835683,None,0.6544934,P026,fencog,2,Post,2022_Mar_04_1348,N-Back (New Version 2021),2021.1.4,120.0160341
,,,,Conditions/Version_1/zeroback(4)_v1.xlsx,New rule: Press 'space' when you see the letter 'x' or 'X'.,,,,,,,,,,,0,13,13,13,,,,,,,,,,,,,,,,,,,,,,,,,,,,,,,,,,,,,,,,,,,,,,,,,,,,,,,,,,,,,,,,,,,,,,,,,,,,,,,,,P026,fencog,2,Post,2022_Mar_04_1348,N-Back (New Version 2021),2021.1.4,120.0160341
,,,,Conditions/Version_1/oneback(4)_v1.xlsx,New rule: Press 'space' when you see 1-back (i.e. the same letter as the one that appeared 1 letter ago.),w,None,,,,,,,,,0,14,14,14,0,0,0,0,,,,,,,,,,,,,,,,,,,,,,,,,,,,,,,,,,,,,,,,,,,,,,,,,,,,,,,,,,,842.4025945,None,845.3916741,None,space,0.5664802,845.3916741,None,842.4025945,None,1.3882,847.3728092,None,None,1,847.3728092,None,,P026,fencog,2,Post,2022_Mar_04_1348,N-Back (New Version 2021),2021.1.4,120.0160341
,,,,Conditions/Version_1/oneback(4)_v1.xlsx,New rule: Press 'space' when you see 1-back (i.e. the same letter as the one that appeared 1 letter ago.),q,None,,,,,,,,,0,14,14,14,0,1,1,1,,,,,,,,,,,,,,,,,,,,,,,,,,,,,,,,,,,,,,,,,,,,,,,,,,,,,,,,,,,,,,,,,,,,,1.041,850.4136033,None,None,1,850.4136033,None,,P026,fencog,2,Post,2022_Mar_04_1348,N-Back (New Version 2021),2021.1.4,120.0160341
,,,,Conditions/Version_1/oneback(4)_v1.xlsx,New rule: Press 'space' when you see 1-back (i.e. the same letter as the one that appeared 1 letter ago.),i,None,,,,,,,,,0,14,14,14,0,2,2,2,,,,,,,,,,,,,,,,,,,,,,,,,,,,,,,,,,,,,,,,,,,,,,,,,,,,,,,,,,,,,,,,,,,,,1.1092,853.5295701,None,None,1,853.5295701,None,,P026,fencog,2,Post,2022_Mar_04_1348,N-Back (New Version 2021),2021.1.4,120.0160341
,,,,Conditions/Version_1/oneback(4)_v1.xlsx,New rule: Press 'space' when you see 1-back (i.e. the same letter as the one that appeared 1 letter ago.),t,None,,,,,,,,,0,14,14,14,0,3,3,3,,,,,,,,,,,,,,,,,,,,,,,,,,,,,,,,,,,,,,,,,,,,,,,,,,,,,,,,,,,,,,,,,,,,,1.5494,857.0782901,None,None,1,857.0782901,None,,P026,fencog,2,Post,2022_Mar_04_1348,N-Back (New Version 2021),2021.1.4,120.0160341
,,,,Conditions/Version_1/oneback(4)_v1.xlsx,New rule: Press 'space' when you see 1-back (i.e. the same letter as the one that appeared 1 letter ago.),v,None,,,,,,,,,0,14,14,14,0,4,4,4,,,,,,,,,,,,,,,,,,,,,,,,,,,,,,,,,,,,,,,,,,,,,,,,,,,,,,,,,,,,,,,,,,,,,1.0844,860.1698937,None,None,1,860.1698937,None,,P026,fencog,2,Post,2022_Mar_04_1348,N-Back (New Version 2021),2021.1.4,120.0160341
,,,,Conditions/Version_1/oneback(4)_v1.xlsx,New rule: Press 'space' when you see 1-back (i.e. the same letter as the one that appeared 1 letter ago.),V,space,,,,,,,,,0,14,14,14,0,5,5,5,,,,,,,,,,,,,,,,,,,,,,,,,,,,,,,,,,,,,,,,,,,,,,,,,,,,,,,,,,,,,,,,,,,,,1.2704,863.45308,None,space,1,863.45308,None,0.6170134,P026,fencog,2,Post,2022_Mar_04_1348,N-Back (New Version 2021),2021.1.4,120.0160341
,,,,Conditions/Version_1/oneback(4)_v1.xlsx,New rule: Press 'space' when you see 1-back (i.e. the same letter as the one that appeared 1 letter ago.),v,space,,,,,,,,,0,14,14,14,0,6,6,6,,,,,,,,,,,,,,,,,,,,,,,,,,,,,,,,,,,,,,,,,,,,,,,,,,,,,,,,,,,,,,,,,,,,,1.4998,866.9587743,None,space,1,866.9587743,None,1.111315,P026,fencog,2,Post,2022_Mar_04_1348,N-Back (New Version 2021),2021.1.4,120.0160341
,,,,Conditions/Version_1/oneback(4)_v1.xlsx,New rule: Press 'space' when you see 1-back (i.e. the same letter as the one that appeared 1 letter ago.),p,None,,,,,,,,,0,14,14,14,0,7,7,7,,,,,,,,,,,,,,,,,,,,,,,,,,,,,,,,,,,,,,,,,,,,,,,,,,,,,,,,,,,,,,,,,,,,,1.6796,870.6409012,None,None,1,870.6409012,None,,P026,fencog,2,Post,2022_Mar_04_1348,N-Back (New Version 2021),2021.1.4,120.0160341
,,,,Conditions/Version_1/oneback(4)_v1.xlsx,New rule: Press 'space' when you see 1-back (i.e. the same letter as the one that appeared 1 letter ago.),w,None,,,,,,,,,0,14,14,14,0,8,8,8,,,,,,,,,,,,,,,,,,,,,,,,,,,,,,,,,,,,,,,,,,,,,,,,,,,,,,,,,,,,,,,,,,,,,1.4006,874.0399426,None,None,1,874.0399426,None,,P026,fencog,2,Post,2022_Mar_04_1348,N-Back (New Version 2021),2021.1.4,120.0160341
,,,,Conditions/Version_1/oneback(4)_v1.xlsx,New rule: Press 'space' when you see 1-back (i.e. the same letter as the one that appeared 1 letter ago.),W,space,,,,,,,,,0,14,14,14,0,9,9,9,,,,,,,,,,,,,,,,,,,,,,,,,,,,,,,,,,,,,,,,,,,,,,,,,,,,,,,,,,,,,,,,,,,,,1.2828,877.3222888,None,space,1,877.3222888,None,0.5797861,P026,fencog,2,Post,2022_Mar_04_1348,N-Back (New Version 2021),2021.1.4,120.0160341
,,,,Conditions/Version_1/oneback(4)_v1.xlsx,New rule: Press 'space' when you see 1-back (i.e. the same letter as the one that appeared 1 letter ago.),,,,,,,,,,,0,14,14,14,,,,,,,,,,,,,,,,,,,,,,,,,,,,,,,,,,,,,,,,,,,,,,,,,,,,,,,,,,,,,,,,,,,,,,,,,,,,,,,,,P026,fencog,2,Post,2022_Mar_04_1348,N-Back (New Version 2021),2021.1.4,120.0160341
,,,,Conditions/Version_1/threeback(4)_v1.xlsx,New rule: Press 'space' when you see 3-back (i.e. the same letter as the one that appeared 3 letters ago.),A,None,,,,,,,,,0,15,15,15,0,0,0,0,,,,,,,,,,,,,,,,,,,,,,,,,,,,,,,,,,,,,,,,,,,,,,,,,,,,,,,,,,,879.3415723,None,882.3307512,None,space,0.5553173,882.3307512,None,879.3415723,None,1.1588,884.0625461,None,None,1,884.0625461,None,,P026,fencog,2,Post,2022_Mar_04_1348,N-Back (New Version 2021),2021.1.4,120.0160341
,,,,Conditions/Version_1/threeback(4)_v1.xlsx,New rule: Press 'space' when you see 3-back (i.e. the same letter as the one that appeared 3 letters ago.),n,None,,,,,,,,,0,15,15,15,0,1,1,1,,,,,,,,,,,,,,,,,,,,,,,,,,,,,,,,,,,,,,,,,,,,,,,,,,,,,,,,,,,,,,,,,,,,,1.3076,887.3776929,None,None,1,887.3776929,None,,P026,fencog,2,Post,2022_Mar_04_1348,N-Back (New Version 2021),2021.1.4,120.0160341
,,,,Conditions/Version_1/threeback(4)_v1.xlsx,New rule: Press 'space' when you see 3-back (i.e. the same letter as the one that appeared 3 letters ago.),g,None,,,,,,,,,0,15,15,15,0,2,2,2,,,,,,,,,,,,,,,,,,,,,,,,,,,,,,,,,,,,,,,,,,,,,,,,,,,,,,,,,,,,,,,,,,,,,1.3138,890.6933711,None,None,1,890.6933711,None,,P026,fencog,2,Post,2022_Mar_04_1348,N-Back (New Version 2021),2021.1.4,120.0160341
,,,,Conditions/Version_1/threeback(4)_v1.xlsx,New rule: Press 'space' when you see 3-back (i.e. the same letter as the one that appeared 3 letters ago.),A,space,,,,,,,,,0,15,15,15,0,3,3,3,,,,,,,,,,,,,,,,,,,,,,,,,,,,,,,,,,,,,,,,,,,,,,,,,,,,,,,,,,,,,,,,,,,,,1.1216,893.8174696,None,space,1,893.8174696,None,0.9966632,P026,fencog,2,Post,2022_Mar_04_1348,N-Back (New Version 2021),2021.1.4,120.0160341
,,,,Conditions/Version_1/threeback(4)_v1.xlsx,New rule: Press 'space' when you see 3-back (i.e. the same letter as the one that appeared 3 letters ago.),p,None,,,,,,,,,0,15,15,15,0,4,4,4,,,,,,,,,,,,,,,,,,,,,,,,,,,,,,,,,,,,,,,,,,,,,,,,,,,,,,,,,,,,,,,,,,,,,1.9834,897.7995617,None,None,1,897.7995617,None,,P026,fencog,2,Post,2022_Mar_04_1348,N-Back (New Version 2021),2021.1.4,120.0160341
,,,,Conditions/Version_1/threeback(4)_v1.xlsx,New rule: Press 'space' when you see 3-back (i.e. the same letter as the one that appeared 3 letters ago.),O,None,,,,,,,,,0,15,15,15,0,5,5,5,,,,,,,,,,,,,,,,,,,,,,,,,,,,,,,,,,,,,,,,,,,,,,,,,,,,,,,,,,,,,,,,,,,,,1.8408,901.6401354,None,None,1,901.6401354,None,,P026,fencog,2,Post,2022_Mar_04_1348,N-Back (New Version 2021),2021.1.4,120.0160341
,,,,Conditions/Version_1/threeback(4)_v1.xlsx,New rule: Press 'space' when you see 3-back (i.e. the same letter as the one that appeared 3 letters ago.),a,space,,,,,,,,,0,15,15,15,0,6,6,6,,,,,,,,,,,,,,,,,,,,,,,,,,,,,,,,,,,,,,,,,,,,,,,,,,,,,,,,,,,,,,,,,,,,,1.2394,904.8810633,None,space,1,904.8810633,None,1.0530335,P026,fencog,2,Post,2022_Mar_04_1348,N-Back (New Version 2021),2021.1.4,120.0160341
,,,,Conditions/Version_1/threeback(4)_v1.xlsx,New rule: Press 'space' when you see 3-back (i.e. the same letter as the one that appeared 3 letters ago.),p,space,,,,,,,,,0,15,15,15,0,7,7,7,,,,,,,,,,,,,,,,,,,,,,,,,,,,,,,,,,,,,,,,,,,,,,,,,,,,,,,,,,,,,,,,,,,,,1.6796,908.5630106,None,space,1,908.5630106,None,0.9471763,P026,fencog,2,Post,2022_Mar_04_1348,N-Back (New Version 2021),2021.1.4,120.0160341
,,,,Conditions/Version_1/threeback(4)_v1.xlsx,New rule: Press 'space' when you see 3-back (i.e. the same letter as the one that appeared 3 letters ago.),x,None,,,,,,,,,0,15,15,15,0,8,8,8,,,,,,,,,,,,,,,,,,,,,,,,,,,,,,,,,,,,,,,,,,,,,,,,,,,,,,,,,,,,,,,,,,,,,1.1526,911.7205889,None,None,1,911.7205889,None,,P026,fencog,2,Post,2022_Mar_04_1348,N-Back (New Version 2021),2021.1.4,120.0160341
,,,,Conditions/Version_1/threeback(4)_v1.xlsx,New rule: Press 'space' when you see 3-back (i.e. the same letter as the one that appeared 3 letters ago.),X,None,,,,,,,,,0,15,15,15,0,9,9,9,,,,,,,,,,,,,,,,,,,,,,,,,,,,,,,,,,,,,,,,,,,,,,,,,,,,,,,,,,,,,,,,,,,,,1.847,915.5693958,None,None,1,915.5693958,None,,P026,fencog,2,Post,2022_Mar_04_1348,N-Back (New Version 2021),2021.1.4,120.0160341
,,,,Conditions/Version_1/threeback(4)_v1.xlsx,New rule: Press 'space' when you see 3-back (i.e. the same letter as the one that appeared 3 letters ago.),,,,,,,,,,,0,15,15,15,,,,,,,,,,,,,,,,,,,,,,,,,,,,,,,,,,,,,,,,,,,,,,,,,,,,,,,,,,,,,,,,,,,,,,,,,,,,,,,,,P026,fencog,2,Post,2022_Mar_04_1348,N-Back (New Version 2021),2021.1.4,120.0160341
