CondFileP,InstructionsP,LettersDisplayedP,CorrectnessP,CondFile,Instructions,LettersDisplayed,Correctness,practicetrials.thisRepN,practicetrials.thisTrialN,practicetrials.thisN,practicetrials.thisIndex,InnerLoopPractice.thisRepN,InnerLoopPractice.thisTrialN,InnerLoopPractice.thisN,InnerLoopPractice.thisIndex,trials.thisRepN,trials.thisTrialN,trials.thisN,trials.thisIndex,InnerLoop.thisRepN,InnerLoop.thisTrialN,InnerLoop.thisN,InnerLoop.thisIndex,TaskVersionText.started,TaskVersionText.stopped,InstrKey1.keys,InstrKey1.rt,InstrKey1.started,InstrKey1.stopped,text.started,text.stopped,key_resp_4.keys,key_resp_4.rt,key_resp_4.started,key_resp_4.stopped,text_2.started,text_2.stopped,key_resp_3.keys,key_resp_3.rt,key_resp_3.started,key_resp_3.stopped,text_3.started,text_3.stopped,key_resp_2.keys,key_resp_2.rt,key_resp_2.started,key_resp_2.stopped,PractIn1.started,PractIn1.stopped,PractIn2.started,PractIn2.stopped,PractInstructionPass.keys,PractInstructionPass.rt,PractInstructionPass.started,PractInstructionPass.stopped,PractBlock1.started,PractBlock1.stopped,ISIjitterPractice,ISI_Pract_Fixation.started,ISI_Pract_Fixation.stopped,N_backP.started,N_backP.stopped,KeyPractice.keys,KeyPractice.corr,KeyPractice.started,KeyPractice.stopped,text_4.started,text_4.stopped,KeyPractice.rt,TransitionText.started,TransitionText.stopped,key_resp_6.keys,key_resp_6.rt,key_resp_6.started,key_resp_6.stopped,text_5.started,text_5.stopped,key_resp_5.keys,key_resp_5.rt,key_resp_5.started,key_resp_5.stopped,MainInt1.started,MainInt1.stopped,MainInt2.started,MainInt2.stopped,InstructionPass.keys,InstructionPass.rt,InstructionPass.started,InstructionPass.stopped,Blocks1.started,Blocks1.stopped,ISIjitter,N_backD.started,N_backD.stopped,key_resp.keys,key_resp.corr,key_resp.started,key_resp.stopped,key_resp.rt,participant,Study Name,Task Version (required to run),PRE/POST,date,expName,psychopyVersion,frameRate,
,,,,,,,,,,,,,,,,,,,,,,,,22.061017600000014,None,space,87.92973759999995,22.556034799999907,None,,,,,,,,,,,,,,,,,,,,,,,,,,,,,,,,,,,,,,,,,,,,,,,,,,,,,,,,,,,,,,,,,,,,,,,P026,FENCOG,1,Pre,2022_Feb_23_1118,N-Back (New Version 2021),2021.1.4,119.96808848856989,
,,,,,,,,,,,,,,,,,,,,,,,,,,,,,,110.51864899999964,None,space,36.16776859999982,111.01371179999978,None,,,,,,,,,,,,,,,,,,,,,,,,,,,,,,,,,,,,,,,,,,,,,,,,,,,,,,,,,,,,,,,,,P026,FENCOG,1,Pre,2022_Feb_23_1118,N-Back (New Version 2021),2021.1.4,119.96808848856989,
,,,,,,,,,,,,,,,,,,,,,,,,,,,,,,,,,,,,147.21848959999988,None,space,9.293971700000384,147.71150469999975,None,,,,,,,,,,,,,,,,,,,,,,,,,,,,,,,,,,,,,,,,,,,,,,,,,,,,,,,,,,,P026,FENCOG,1,Pre,2022_Feb_23_1118,N-Back (New Version 2021),2021.1.4,119.96808848856989,
,,,,,,,,,,,,,,,,,,,,,,,,,,,,,,,,,,,,,,,,,,157.03587049999987,None,space,15.568455300000096,157.52517659999967,None,,,,,,,,,,,,,,,,,,,,,,,,,,,,,,,,,,,,,,,,,,,,,,,,,,,,,P026,FENCOG,1,Pre,2022_Feb_23_1118,N-Back (New Version 2021),2021.1.4,119.96808848856989,
Conditions/Version_1Pr/zeroback(1)_v1.xlsx,Rule: Press 'space' when you see the letter 'x' or 'X'.,Z,None,,,,,0,0,0,0,0,0,0,0,,,,,,,,,,,,,,,,,,,,,,,,,,,,,,,,,174.46764819999999,None,177.4536481,None,space,0.13585269999975935,177.4536481,None,174.46764819999999,None,1.565,177.61502109999992,None,179.18775779999987,None,None,1,179.18775779999987,None,181.19302100000004,None,,,,,,,,,,,,,,,,,,,,,,,,,,,,,,,,P026,FENCOG,1,Pre,2022_Feb_23_1118,N-Back (New Version 2021),2021.1.4,119.96808848856989,
Conditions/Version_1Pr/zeroback(1)_v1.xlsx,Rule: Press 'space' when you see the letter 'x' or 'X'.,r,None,,,,,0,0,0,0,0,1,1,1,,,,,,,,,,,,,,,,,,,,,,,,,,,,,,,,,,,,,,,,,,,1.465,182.6919810999998,None,184.1597512999997,None,None,1,184.1597512999997,None,186.1659384999998,None,,,,,,,,,,,,,,,,,,,,,,,,,,,,,,,,P026,FENCOG,1,Pre,2022_Feb_23_1118,N-Back (New Version 2021),2021.1.4,119.96808848856989,
Conditions/Version_1Pr/zeroback(1)_v1.xlsx,Rule: Press 'space' when you see the letter 'x' or 'X'.,X,space,,,,,0,0,0,0,0,2,2,2,,,,,,,,,,,,,,,,,,,,,,,,,,,,,,,,,,,,,,,,,,,1.74,187.66551619999973,None,189.40918519999968,None,space,1,189.40918519999968,None,189.87348479999991,None,0.4522412000001168,,,,,,,,,,,,,,,,,,,,,,,,,,,,,,,P026,FENCOG,1,Pre,2022_Feb_23_1118,N-Back (New Version 2021),2021.1.4,119.96808848856989,
Conditions/Version_1Pr/zeroback(1)_v1.xlsx,Rule: Press 'space' when you see the letter 'x' or 'X'.,p,None,,,,,0,0,0,0,0,3,3,3,,,,,,,,,,,,,,,,,,,,,,,,,,,,,,,,,,,,,,,,,,,1.99,191.37269399999968,None,193.3681434,None,None,1,193.3681434,None,195.37138789999972,None,,,,,,,,,,,,,,,,,,,,,,,,,,,,,,,,P026,FENCOG,1,Pre,2022_Feb_23_1118,N-Back (New Version 2021),2021.1.4,119.96808848856989,
Conditions/Version_1Pr/zeroback(1)_v1.xlsx,Rule: Press 'space' when you see the letter 'x' or 'X'.,w,None,,,,,0,0,0,0,0,4,4,4,,,,,,,,,,,,,,,,,,,,,,,,,,,,,,,,,,,,,,,,,,,1.29,196.87114459999975,None,198.1639799999998,None,None,1,198.1639799999998,None,200.17006839999976,None,,,,,,,,,,,,,,,,,,,,,,,,,,,,,,,,P026,FENCOG,1,Pre,2022_Feb_23_1118,N-Back (New Version 2021),2021.1.4,119.96808848856989,
Conditions/Version_1Pr/zeroback(1)_v1.xlsx,Rule: Press 'space' when you see the letter 'x' or 'X'.,e,None,,,,,0,0,0,0,0,5,5,5,,,,,,,,,,,,,,,,,,,,,,,,,,,,,,,,,,,,,,,,,,,1.265,201.66972209999994,None,202.93753709999964,None,None,1,202.93753709999964,None,204.9435113999998,None,,,,,,,,,,,,,,,,,,,,,,,,,,,,,,,,P026,FENCOG,1,Pre,2022_Feb_23_1118,N-Back (New Version 2021),2021.1.4,119.96808848856989,
Conditions/Version_1Pr/zeroback(1)_v1.xlsx,Rule: Press 'space' when you see the letter 'x' or 'X'.,X,space,,,,,0,0,0,0,0,6,6,6,,,,,,,,,,,,,,,,,,,,,,,,,,,,,,,,,,,,,,,,,,,1.49,206.44324059999963,None,207.93646599999965,None,space,1,207.93646599999965,None,208.31132359999992,None,0.3650590000002012,,,,,,,,,,,,,,,,,,,,,,,,,,,,,,,P026,FENCOG,1,Pre,2022_Feb_23_1118,N-Back (New Version 2021),2021.1.4,119.96808848856989,
Conditions/Version_1Pr/zeroback(1)_v1.xlsx,Rule: Press 'space' when you see the letter 'x' or 'X'.,x,space,,,,,0,0,0,0,0,7,7,7,,,,,,,,,,,,,,,,,,,,,,,,,,,,,,,,,,,,,,,,,,,2.015,209.81732459999967,None,211.83510539999997,None,space,1,211.83510539999997,None,212.35073779999993,None,0.5066235000003871,,,,,,,,,,,,,,,,,,,,,,,,,,,,,,,P026,FENCOG,1,Pre,2022_Feb_23_1118,N-Back (New Version 2021),2021.1.4,119.96808848856989,
Conditions/Version_1Pr/zeroback(1)_v1.xlsx,Rule: Press 'space' when you see the letter 'x' or 'X'.,p,None,,,,,0,0,0,0,0,8,8,8,,,,,,,,,,,,,,,,,,,,,,,,,,,,,,,,,,,,,,,,,,,1.415,213.85785480000004,None,215.2738445,None,None,1,215.2738445,None,217.2733519999997,None,,,,,,,,,,,,,,,,,,,,,,,,,,,,,,,,P026,FENCOG,1,Pre,2022_Feb_23_1118,N-Back (New Version 2021),2021.1.4,119.96808848856989,
Conditions/Version_1Pr/zeroback(1)_v1.xlsx,Rule: Press 'space' when you see the letter 'x' or 'X'.,r,None,,,,,0,0,0,0,0,9,9,9,,,,,,,,,,,,,,,,,,,,,,,,,,,,,,,,,,,,,,,,,,,1.64,218.77301880000005,None,220.41405159999977,None,None,1,220.41405159999977,None,222.4136395999999,None,,,,,,,,,,,,,,,,,,,,,,,,,,,,,,,,P026,FENCOG,1,Pre,2022_Feb_23_1118,N-Back (New Version 2021),2021.1.4,119.96808848856989,
Conditions/Version_1Pr/zeroback(1)_v1.xlsx,Rule: Press 'space' when you see the letter 'x' or 'X'.,,,,,,,0,0,0,0,,,,,,,,,,,,,,,,,,,,,,,,,,,,,,,,,,,,,,,,,,,,,,,,,,,,,,,,,,,,,,,,,,,,,,,,,,,,,,,,,,,,,,,,,P026,FENCOG,1,Pre,2022_Feb_23_1118,N-Back (New Version 2021),2021.1.4,119.96808848856989,
Conditions/Version_1Pr/oneback(1)_v1.xlsx,New rule: Press 'space' when you see 1-back (i.e. the same letter as the one that appeared 1 letter ago.),a,None,,,,,0,1,1,1,0,0,0,0,,,,,,,,,,,,,,,,,,,,,,,,,,,,,,,,,223.9369926999998,None,226.91458569999986,None,space,4.835103399999753,226.91458569999986,None,223.9369926999998,None,1.79,231.77164959999982,None,233.57250269999986,None,None,1,233.57250269999986,None,235.5764393999998,None,,,,,,,,,,,,,,,,,,,,,,,,,,,,,,,,P026,FENCOG,1,Pre,2022_Feb_23_1118,N-Back (New Version 2021),2021.1.4,119.96808848856989,
Conditions/Version_1Pr/oneback(1)_v1.xlsx,New rule: Press 'space' when you see 1-back (i.e. the same letter as the one that appeared 1 letter ago.),x,None,,,,,0,1,1,1,0,1,1,1,,,,,,,,,,,,,,,,,,,,,,,,,,,,,,,,,,,,,,,,,,,1.59,237.0759992999997,None,238.66889459999993,None,None,1,238.66889459999993,None,240.67494839999972,None,,,,,,,,,,,,,,,,,,,,,,,,,,,,,,,,P026,FENCOG,1,Pre,2022_Feb_23_1118,N-Back (New Version 2021),2021.1.4,119.96808848856989,
Conditions/Version_1Pr/oneback(1)_v1.xlsx,New rule: Press 'space' when you see 1-back (i.e. the same letter as the one that appeared 1 letter ago.),g,None,,,,,0,1,1,1,0,2,2,2,,,,,,,,,,,,,,,,,,,,,,,,,,,,,,,,,,,,,,,,,,,1.29,242.1744638,None,243.46987139999965,None,None,1,243.46987139999965,None,245.47353209999983,None,,,,,,,,,,,,,,,,,,,,,,,,,,,,,,,,P026,FENCOG,1,Pre,2022_Feb_23_1118,N-Back (New Version 2021),2021.1.4,119.96808848856989,
Conditions/Version_1Pr/oneback(1)_v1.xlsx,New rule: Press 'space' when you see 1-back (i.e. the same letter as the one that appeared 1 letter ago.),G,space,,,,,0,1,1,1,0,3,3,3,,,,,,,,,,,,,,,,,,,,,,,,,,,,,,,,,,,,,,,,,,,1.19,246.9731512999997,None,248.1662938999998,None,space,1,248.1662938999998,None,248.99919959999988,None,0.823231300000316,,,,,,,,,,,,,,,,,,,,,,,,,,,,,,,P026,FENCOG,1,Pre,2022_Feb_23_1118,N-Back (New Version 2021),2021.1.4,119.96808848856989,
Conditions/Version_1Pr/oneback(1)_v1.xlsx,New rule: Press 'space' when you see 1-back (i.e. the same letter as the one that appeared 1 letter ago.),u,None,,,,,0,1,1,1,0,4,4,4,,,,,,,,,,,,,,,,,,,,,,,,,,,,,,,,,,,,,,,,,,,1.415,250.50501309999981,None,251.92196169999988,None,None,1,251.92196169999988,None,253.92103789999965,None,,,,,,,,,,,,,,,,,,,,,,,,,,,,,,,,P026,FENCOG,1,Pre,2022_Feb_23_1118,N-Back (New Version 2021),2021.1.4,119.96808848856989,
Conditions/Version_1Pr/oneback(1)_v1.xlsx,New rule: Press 'space' when you see 1-back (i.e. the same letter as the one that appeared 1 letter ago.),y,None,,,,,0,1,1,1,0,5,5,5,,,,,,,,,,,,,,,,,,,,,,,,,,,,,,,,,,,,,,,,,,,1.215,255.42015949999995,None,256.6373473999997,None,None,1,256.6373473999997,None,258.6442565999996,None,,,,,,,,,,,,,,,,,,,,,,,,,,,,,,,,P026,FENCOG,1,Pre,2022_Feb_23_1118,N-Back (New Version 2021),2021.1.4,119.96808848856989,
Conditions/Version_1Pr/oneback(1)_v1.xlsx,New rule: Press 'space' when you see 1-back (i.e. the same letter as the one that appeared 1 letter ago.),y,space,,,,,0,1,1,1,0,6,6,6,,,,,,,,,,,,,,,,,,,,,,,,,,,,,,,,,,,,,,,,,,,1.44,260.143787,None,261.58504219999986,None,space,1,261.58504219999986,None,262.04381909999984,None,0.44440250000025117,,,,,,,,,,,,,,,,,,,,,,,,,,,,,,,P026,FENCOG,1,Pre,2022_Feb_23_1118,N-Back (New Version 2021),2021.1.4,119.96808848856989,
Conditions/Version_1Pr/oneback(1)_v1.xlsx,New rule: Press 'space' when you see 1-back (i.e. the same letter as the one that appeared 1 letter ago.),k,None,,,,,0,1,1,1,0,7,7,7,,,,,,,,,,,,,,,,,,,,,,,,,,,,,,,,,,,,,,,,,,,1.065,263.54273569999987,None,264.60908219999965,None,None,1,264.60908219999965,None,266.6162313,None,,,,,,,,,,,,,,,,,,,,,,,,,,,,,,,,P026,FENCOG,1,Pre,2022_Feb_23_1118,N-Back (New Version 2021),2021.1.4,119.96808848856989,
Conditions/Version_1Pr/oneback(1)_v1.xlsx,New rule: Press 'space' when you see 1-back (i.e. the same letter as the one that appeared 1 letter ago.),c,None,,,,,0,1,1,1,0,8,8,8,,,,,,,,,,,,,,,,,,,,,,,,,,,,,,,,,,,,,,,,,,,1.965,268.11684669999977,None,270.08562619999975,None,None,1,270.08562619999975,None,272.0907794999998,None,,,,,,,,,,,,,,,,,,,,,,,,,,,,,,,,P026,FENCOG,1,Pre,2022_Feb_23_1118,N-Back (New Version 2021),2021.1.4,119.96808848856989,
Conditions/Version_1Pr/oneback(1)_v1.xlsx,New rule: Press 'space' when you see 1-back (i.e. the same letter as the one that appeared 1 letter ago.),r,None,,,,,0,1,1,1,0,9,9,9,,,,,,,,,,,,,,,,,,,,,,,,,,,,,,,,,,,,,,,,,,,1.765,273.58987039999965,None,275.35625600000003,None,None,1,275.35625600000003,None,277.3593796,None,,,,,,,,,,,,,,,,,,,,,,,,,,,,,,,,P026,FENCOG,1,Pre,2022_Feb_23_1118,N-Back (New Version 2021),2021.1.4,119.96808848856989,
Conditions/Version_1Pr/oneback(1)_v1.xlsx,New rule: Press 'space' when you see 1-back (i.e. the same letter as the one that appeared 1 letter ago.),,,,,,,0,1,1,1,,,,,,,,,,,,,,,,,,,,,,,,,,,,,,,,,,,,,,,,,,,,,,,,,,,,,,,,,,,,,,,,,,,,,,,,,,,,,,,,,,,,,,,,,P026,FENCOG,1,Pre,2022_Feb_23_1118,N-Back (New Version 2021),2021.1.4,119.96808848856989,
Conditions/Version_1Pr/twoback(1)_v1.xlsx,New rule: Press 'space' when you see 2-back (i.e. the same letter as the one that appeared 2 letters ago.),E,None,,,,,0,2,2,2,0,0,0,0,,,,,,,,,,,,,,,,,,,,,,,,,,,,,,,,,278.8879185999999,None,281.8644618999997,None,space,0.7652359999997316,281.8644618999997,None,278.8879185999999,None,1.74,282.65542860000005,None,284.3987522999996,None,None,1,284.3987522999996,None,286.4031861999997,None,,,,,,,,,,,,,,,,,,,,,,,,,,,,,,,,P026,FENCOG,1,Pre,2022_Feb_23_1118,N-Back (New Version 2021),2021.1.4,119.96808848856989,
Conditions/Version_1Pr/twoback(1)_v1.xlsx,New rule: Press 'space' when you see 2-back (i.e. the same letter as the one that appeared 2 letters ago.),p,None,,,,,0,2,2,2,0,1,1,1,,,,,,,,,,,,,,,,,,,,,,,,,,,,,,,,,,,,,,,,,,,1.79,287.9027248999996,None,289.69347149999976,None,None,1,289.69347149999976,None,291.6932311999999,None,,,,,,,,,,,,,,,,,,,,,,,,,,,,,,,,P026,FENCOG,1,Pre,2022_Feb_23_1118,N-Back (New Version 2021),2021.1.4,119.96808848856989,
Conditions/Version_1Pr/twoback(1)_v1.xlsx,New rule: Press 'space' when you see 2-back (i.e. the same letter as the one that appeared 2 letters ago.),e,space,,,,,0,2,2,2,0,2,2,2,,,,,,,,,,,,,,,,,,,,,,,,,,,,,,,,,,,,,,,,,,,1.565,293.19279289999986,None,294.7599003999999,None,space,1,294.7599003999999,None,295.40236979999963,None,0.6296710999999959,,,,,,,,,,,,,,,,,,,,,,,,,,,,,,,P026,FENCOG,1,Pre,2022_Feb_23_1118,N-Back (New Version 2021),2021.1.4,119.96808848856989,
Conditions/Version_1Pr/twoback(1)_v1.xlsx,New rule: Press 'space' when you see 2-back (i.e. the same letter as the one that appeared 2 letters ago.),s,None,,,,,0,2,2,2,0,3,3,3,,,,,,,,,,,,,,,,,,,,,,,,,,,,,,,,,,,,,,,,,,,1.24,296.90798449999966,None,298.14981769999986,None,None,1,298.14981769999986,None,300.15704549999964,None,,,,,,,,,,,,,,,,,,,,,,,,,,,,,,,,P026,FENCOG,1,Pre,2022_Feb_23_1118,N-Back (New Version 2021),2021.1.4,119.96808848856989,
Conditions/Version_1Pr/twoback(1)_v1.xlsx,New rule: Press 'space' when you see 2-back (i.e. the same letter as the one that appeared 2 letters ago.),S,None,,,,,0,2,2,2,0,4,4,4,,,,,,,,,,,,,,,,,,,,,,,,,,,,,,,,,,,,,,,,,,,1.515,301.6570192999998,None,303.17454769999995,None,None,1,303.17454769999995,None,305.1809903999997,None,,,,,,,,,,,,,,,,,,,,,,,,,,,,,,,,P026,FENCOG,1,Pre,2022_Feb_23_1118,N-Back (New Version 2021),2021.1.4,119.96808848856989,
Conditions/Version_1Pr/twoback(1)_v1.xlsx,New rule: Press 'space' when you see 2-back (i.e. the same letter as the one that appeared 2 letters ago.),s,space,,,,,0,2,2,2,0,5,5,5,,,,,,,,,,,,,,,,,,,,,,,,,,,,,,,,,,,,,,,,,,,1.04,306.68046000000004,None,307.7214173999996,None,space,1,307.7214173999996,None,308.3548587999999,None,0.6200862999999117,,,,,,,,,,,,,,,,,,,,,,,,,,,,,,,P026,FENCOG,1,Pre,2022_Feb_23_1118,N-Back (New Version 2021),2021.1.4,119.96808848856989,
Conditions/Version_1Pr/twoback(1)_v1.xlsx,New rule: Press 'space' when you see 2-back (i.e. the same letter as the one that appeared 2 letters ago.),P,None,,,,,0,2,2,2,0,6,6,6,,,,,,,,,,,,,,,,,,,,,,,,,,,,,,,,,,,,,,,,,,,1.715,309.85417659999985,None,311.57096139999976,None,None,1,311.57096139999976,None,313.5780956999997,None,,,,,,,,,,,,,,,,,,,,,,,,,,,,,,,,P026,FENCOG,1,Pre,2022_Feb_23_1118,N-Back (New Version 2021),2021.1.4,119.96808848856989,
Conditions/Version_1Pr/twoback(1)_v1.xlsx,New rule: Press 'space' when you see 2-back (i.e. the same letter as the one that appeared 2 letters ago.),C,None,,,,,0,2,2,2,0,7,7,7,,,,,,,,,,,,,,,,,,,,,,,,,,,,,,,,,,,,,,,,,,,1.315,315.07763969999996,None,316.3939112999997,None,None,1,316.3939112999997,None,318.39337179999984,None,,,,,,,,,,,,,,,,,,,,,,,,,,,,,,,,P026,FENCOG,1,Pre,2022_Feb_23_1118,N-Back (New Version 2021),2021.1.4,119.96808848856989,
Conditions/Version_1Pr/twoback(1)_v1.xlsx,New rule: Press 'space' when you see 2-back (i.e. the same letter as the one that appeared 2 letters ago.),x,None,,,,,0,2,2,2,0,8,8,8,,,,,,,,,,,,,,,,,,,,,,,,,,,,,,,,,,,,,,,,,,,1.64,319.8929045,None,321.5341420999998,None,None,1,321.5341420999998,None,323.5334893999998,None,,,,,,,,,,,,,,,,,,,,,,,,,,,,,,,,P026,FENCOG,1,Pre,2022_Feb_23_1118,N-Back (New Version 2021),2021.1.4,119.96808848856989,
Conditions/Version_1Pr/twoback(1)_v1.xlsx,New rule: Press 'space' when you see 2-back (i.e. the same letter as the one that appeared 2 letters ago.),Z,None,,,,,0,2,2,2,0,9,9,9,,,,,,,,,,,,,,,,,,,,,,,,,,,,,,,,,,,,,,,,,,,1.59,325.0330477999996,None,326.62441420000005,None,None,1,326.62441420000005,None,328.6236313999998,None,,,,,,,,,,,,,,,,,,,,,,,,,,,,,,,,P026,FENCOG,1,Pre,2022_Feb_23_1118,N-Back (New Version 2021),2021.1.4,119.96808848856989,
Conditions/Version_1Pr/twoback(1)_v1.xlsx,New rule: Press 'space' when you see 2-back (i.e. the same letter as the one that appeared 2 letters ago.),,,,,,,0,2,2,2,,,,,,,,,,,,,,,,,,,,,,,,,,,,,,,,,,,,,,,,,,,,,,,,,,,,,,,,,,,,,,,,,,,,,,,,,,,,,,,,,,,,,,,,,P026,FENCOG,1,Pre,2022_Feb_23_1118,N-Back (New Version 2021),2021.1.4,119.96808848856989,
Conditions/Version_1Pr/threeback(1)_v1.xlsx,New rule: Press 'space' when you see 3-back (i.e. the same letter as the one that appeared 3 letters ago.),r,None,,,,,0,3,3,3,0,0,0,0,,,,,,,,,,,,,,,,,,,,,,,,,,,,,,,,,330.1423243999998,None,333.1240488999997,None,space,0.3774978999999803,333.1240488999997,None,330.1423243999998,None,2.015,333.52517659999967,None,335.54662949999965,None,None,1,335.54662949999965,None,337.54604259999996,None,,,,,,,,,,,,,,,,,,,,,,,,,,,,,,,,P026,FENCOG,1,Pre,2022_Feb_23_1118,N-Back (New Version 2021),2021.1.4,119.96808848856989,
Conditions/Version_1Pr/threeback(1)_v1.xlsx,New rule: Press 'space' when you see 3-back (i.e. the same letter as the one that appeared 3 letters ago.),a,None,,,,,0,3,3,3,0,1,1,1,,,,,,,,,,,,,,,,,,,,,,,,,,,,,,,,,,,,,,,,,,,1.615,339.04557909999994,None,340.6618739999999,None,None,1,340.6618739999999,None,342.66119409999965,None,,,,,,,,,,,,,,,,,,,,,,,,,,,,,,,,P026,FENCOG,1,Pre,2022_Feb_23_1118,N-Back (New Version 2021),2021.1.4,119.96808848856989,
Conditions/Version_1Pr/threeback(1)_v1.xlsx,New rule: Press 'space' when you see 3-back (i.e. the same letter as the one that appeared 3 letters ago.),t,None,,,,,0,3,3,3,0,2,2,2,,,,,,,,,,,,,,,,,,,,,,,,,,,,,,,,,,,,,,,,,,,1.24,344.1607254999999,None,345.4026137999999,None,None,1,345.4026137999999,None,347.4097821999999,None,,,,,,,,,,,,,,,,,,,,,,,,,,,,,,,,P026,FENCOG,1,Pre,2022_Feb_23_1118,N-Back (New Version 2021),2021.1.4,119.96808848856989,
Conditions/Version_1Pr/threeback(1)_v1.xlsx,New rule: Press 'space' when you see 3-back (i.e. the same letter as the one that appeared 3 letters ago.),r,space,,,,,0,3,3,3,0,3,3,3,,,,,,,,,,,,,,,,,,,,,,,,,,,,,,,,,,,,,,,,,,,1.965,348.9093114999996,None,350.8755084999998,None,space,1,350.8755084999998,None,351.57576659999995,None,0.6900651000000835,,,,,,,,,,,,,,,,,,,,,,,,,,,,,,,P026,FENCOG,1,Pre,2022_Feb_23_1118,N-Back (New Version 2021),2021.1.4,119.96808848856989,
Conditions/Version_1Pr/threeback(1)_v1.xlsx,New rule: Press 'space' when you see 3-back (i.e. the same letter as the one that appeared 3 letters ago.),a,None,,,,,0,3,3,3,0,4,4,4,,,,,,,,,,,,,,,,,,,,,,,,,,,,,,,,,,,,,,,,,,,1.84,353.07476799999995,None,354.9158898999999,None,space,0,354.9158898999999,None,355.38715609999963,None,0.45763979999992443,,,,,,,,,,,,,,,,,,,,,,,,,,,,,,,P026,FENCOG,1,Pre,2022_Feb_23_1118,N-Back (New Version 2021),2021.1.4,119.96808848856989,
Conditions/Version_1Pr/threeback(1)_v1.xlsx,New rule: Press 'space' when you see 3-back (i.e. the same letter as the one that appeared 3 letters ago.),Y,None,,,,,0,3,3,3,0,5,5,5,,,,,,,,,,,,,,,,,,,,,,,,,,,,,,,,,,,,,,,,,,,1.79,356.8902998999997,None,358.6830491999999,None,None,1,358.6830491999999,None,360.6892297999998,None,,,,,,,,,,,,,,,,,,,,,,,,,,,,,,,,P026,FENCOG,1,Pre,2022_Feb_23_1118,N-Back (New Version 2021),2021.1.4,119.96808848856989,
Conditions/Version_1Pr/threeback(1)_v1.xlsx,New rule: Press 'space' when you see 3-back (i.e. the same letter as the one that appeared 3 letters ago.),q,None,,,,,0,3,3,3,0,6,6,6,,,,,,,,,,,,,,,,,,,,,,,,,,,,,,,,,,,,,,,,,,,1.515,362.1887892,None,363.70542399999977,None,None,1,363.70542399999977,None,365.7127456999997,None,,,,,,,,,,,,,,,,,,,,,,,,,,,,,,,,P026,FENCOG,1,Pre,2022_Feb_23_1118,N-Back (New Version 2021),2021.1.4,119.96808848856989,
Conditions/Version_1Pr/threeback(1)_v1.xlsx,New rule: Press 'space' when you see 3-back (i.e. the same letter as the one that appeared 3 letters ago.),A,space,,,,,0,3,3,3,0,7,7,7,,,,,,,,,,,,,,,,,,,,,,,,,,,,,,,,,,,,,,,,,,,1.665,367.2122820999998,None,368.8794863999997,None,space,1,368.8794863999997,None,369.49540909999996,None,0.6060336999998981,,,,,,,,,,,,,,,,,,,,,,,,,,,,,,,P026,FENCOG,1,Pre,2022_Feb_23_1118,N-Back (New Version 2021),2021.1.4,119.96808848856989,
Conditions/Version_1Pr/threeback(1)_v1.xlsx,New rule: Press 'space' when you see 3-back (i.e. the same letter as the one that appeared 3 letters ago.),y,None,,,,,0,3,3,3,0,8,8,8,,,,,,,,,,,,,,,,,,,,,,,,,,,,,,,,,,,,,,,,,,,1.865,370.994514,None,372.86083929999995,None,space,0,372.86083929999995,None,373.2964367999998,None,0.42476170000009006,,,,,,,,,,,,,,,,,,,,,,,,,,,,,,,P026,FENCOG,1,Pre,2022_Feb_23_1118,N-Back (New Version 2021),2021.1.4,119.96808848856989,
Conditions/Version_1Pr/threeback(1)_v1.xlsx,New rule: Press 'space' when you see 3-back (i.e. the same letter as the one that appeared 3 letters ago.),r,None,,,,,0,3,3,3,0,9,9,9,,,,,,,,,,,,,,,,,,,,,,,,,,,,,,,,,,,,,,,,,,,1.04,374.80196479999995,None,375.84316609999996,None,None,1,375.84316609999996,None,377.8426424999998,None,,,,,,,,,,,,,,,,,,,,,,,,,,,,,,,,P026,FENCOG,1,Pre,2022_Feb_23_1118,N-Back (New Version 2021),2021.1.4,119.96808848856989,
Conditions/Version_1Pr/threeback(1)_v1.xlsx,New rule: Press 'space' when you see 3-back (i.e. the same letter as the one that appeared 3 letters ago.),,,,,,,0,3,3,3,,,,,,,,,,,,,,,,,,,,,,,,,,,,,,,,,,,,,,,,,,,,,,,,,,,,,,,,,,,,,,,,,,,,,,,,,,,,,,,,,,,,,,,,,P026,FENCOG,1,Pre,2022_Feb_23_1118,N-Back (New Version 2021),2021.1.4,119.96808848856989,
,,,,,,,,,,,,,,,,,,,,,,,,,,,,,,,,,,,,,,,,,,,,,,,,,,,,,,,,,,,,,,,,,,,,,,379.34744039999987,None,space,2.6515337000000727,379.83388419999983,None,,,,,,,,,,,,,,,,,,,,,,,,,P026,FENCOG,1,Pre,2022_Feb_23_1118,N-Back (New Version 2021),2021.1.4,119.96808848856989,
,,,,,,,,,,,,,,,,,,,,,,,,,,,,,,,,,,,,,,,,,,,,,,,,,,,,,,,,,,,,,,,,,,,,,,,,,,,,382.5119437999997,None,space,6.413511500000368,383.00821879999967,None,,,,,,,,,,,,,,,,,,,P026,FENCOG,1,Pre,2022_Feb_23_1118,N-Back (New Version 2021),2021.1.4,119.96808848856989,
,,,,Conditions/Version_1/zeroback(1)_v1.xlsx,Rule: Press 'space' when you see the letter 'x' or 'X'.,b,None,,,,,,,,,0,0,0,0,0,0,0,0,,,,,,,,,,,,,,,,,,,,,,,,,,,,,,,,,,,,,,,,,,,,,,,,,,,,,,,,,,,389.5287715999998,None,392.5155476,None,space,0.5060793000002377,392.5155476,None,389.5287715999998,None,1.7168,394.7738938999996,None,None,1,394.7738938999996,None,,P026,FENCOG,1,Pre,2022_Feb_23_1118,N-Back (New Version 2021),2021.1.4,119.96808848856989,
,,,,Conditions/Version_1/zeroback(1)_v1.xlsx,Rule: Press 'space' when you see the letter 'x' or 'X'.,T,None,,,,,,,,,0,0,0,0,0,1,1,1,,,,,,,,,,,,,,,,,,,,,,,,,,,,,,,,,,,,,,,,,,,,,,,,,,,,,,,,,,,,,,,,,,,,,1.0906,397.87047570000004,None,None,1,397.87047570000004,None,,P026,FENCOG,1,Pre,2022_Feb_23_1118,N-Back (New Version 2021),2021.1.4,119.96808848856989,
,,,,Conditions/Version_1/zeroback(1)_v1.xlsx,Rule: Press 'space' when you see the letter 'x' or 'X'.,L,None,,,,,,,,,0,0,0,0,0,2,2,2,,,,,,,,,,,,,,,,,,,,,,,,,,,,,,,,,,,,,,,,,,,,,,,,,,,,,,,,,,,,,,,,,,,,,1.4688,401.34683319999976,None,None,1,401.34683319999976,None,,P026,FENCOG,1,Pre,2022_Feb_23_1118,N-Back (New Version 2021),2021.1.4,119.96808848856989,
,,,,Conditions/Version_1/zeroback(1)_v1.xlsx,Rule: Press 'space' when you see the letter 'x' or 'X'.,x,space,,,,,,,,,0,0,0,0,0,3,3,3,,,,,,,,,,,,,,,,,,,,,,,,,,,,,,,,,,,,,,,,,,,,,,,,,,,,,,,,,,,,,,,,,,,,,1.4812,404.84307179999996,None,space,1,404.84307179999996,None,0.6107420999996975,P026,FENCOG,1,Pre,2022_Feb_23_1118,N-Back (New Version 2021),2021.1.4,119.96808848856989,
,,,,Conditions/Version_1/zeroback(1)_v1.xlsx,Rule: Press 'space' when you see the letter 'x' or 'X'.,o,None,,,,,,,,,0,0,0,0,0,4,4,4,,,,,,,,,,,,,,,,,,,,,,,,,,,,,,,,,,,,,,,,,,,,,,,,,,,,,,,,,,,,,,,,,,,,,1.8222,408.6763682999999,None,None,1,408.6763682999999,None,,P026,FENCOG,1,Pre,2022_Feb_23_1118,N-Back (New Version 2021),2021.1.4,119.96808848856989,
,,,,Conditions/Version_1/zeroback(1)_v1.xlsx,Rule: Press 'space' when you see the letter 'x' or 'X'.,P,None,,,,,,,,,0,0,0,0,0,5,5,5,,,,,,,,,,,,,,,,,,,,,,,,,,,,,,,,,,,,,,,,,,,,,,,,,,,,,,,,,,,,,,,,,,,,,1.041,411.72436449999987,None,None,1,411.72436449999987,None,,P026,FENCOG,1,Pre,2022_Feb_23_1118,N-Back (New Version 2021),2021.1.4,119.96808848856989,
,,,,Conditions/Version_1/zeroback(1)_v1.xlsx,Rule: Press 'space' when you see the letter 'x' or 'X'.,X,space,,,,,,,,,0,0,0,0,0,6,6,6,,,,,,,,,,,,,,,,,,,,,,,,,,,,,,,,,,,,,,,,,,,,,,,,,,,,,,,,,,,,,,,,,,,,,1.1774,414.9081446,None,space,1,414.9081446,None,0.40157349999981307,P026,FENCOG,1,Pre,2022_Feb_23_1118,N-Back (New Version 2021),2021.1.4,119.96808848856989,
,,,,Conditions/Version_1/zeroback(1)_v1.xlsx,Rule: Press 'space' when you see the letter 'x' or 'X'.,n,None,,,,,,,,,0,0,0,0,0,7,7,7,,,,,,,,,,,,,,,,,,,,,,,,,,,,,,,,,,,,,,,,,,,,,,,,,,,,,,,,,,,,,,,,,,,,,1.8966,418.8156962999997,None,None,1,418.8156962999997,None,,P026,FENCOG,1,Pre,2022_Feb_23_1118,N-Back (New Version 2021),2021.1.4,119.96808848856989,
,,,,Conditions/Version_1/zeroback(1)_v1.xlsx,Rule: Press 'space' when you see the letter 'x' or 'X'.,M,None,,,,,,,,,0,0,0,0,0,8,8,8,,,,,,,,,,,,,,,,,,,,,,,,,,,,,,,,,,,,,,,,,,,,,,,,,,,,,,,,,,,,,,,,,,,,,1.599,422.42256689999977,None,None,1,422.42256689999977,None,,P026,FENCOG,1,Pre,2022_Feb_23_1118,N-Back (New Version 2021),2021.1.4,119.96808848856989,
,,,,Conditions/Version_1/zeroback(1)_v1.xlsx,Rule: Press 'space' when you see the letter 'x' or 'X'.,a,None,,,,,,,,,0,0,0,0,0,9,9,9,,,,,,,,,,,,,,,,,,,,,,,,,,,,,,,,,,,,,,,,,,,,,,,,,,,,,,,,,,,,,,,,,,,,,1.5494,425.9712120999998,None,None,1,425.9712120999998,None,,P026,FENCOG,1,Pre,2022_Feb_23_1118,N-Back (New Version 2021),2021.1.4,119.96808848856989,
,,,,Conditions/Version_1/zeroback(1)_v1.xlsx,Rule: Press 'space' when you see the letter 'x' or 'X'.,,,,,,,,,,,0,0,0,0,,,,,,,,,,,,,,,,,,,,,,,,,,,,,,,,,,,,,,,,,,,,,,,,,,,,,,,,,,,,,,,,,,,,,,,,,,,,,,,,,P026,FENCOG,1,Pre,2022_Feb_23_1118,N-Back (New Version 2021),2021.1.4,119.96808848856989,
,,,,Conditions/Version_1/oneback(1)_v1.xlsx,New rule: Press 'space' when you see 1-back (i.e. the same letter as the one that appeared 1 letter ago.),b,None,,,,,,,,,0,1,1,1,0,0,0,0,,,,,,,,,,,,,,,,,,,,,,,,,,,,,,,,,,,,,,,,,,,,,,,,,,,,,,,,,,,428.0034284999997,None,430.9877408999996,None,space,0.7458690000003116,430.9877408999996,None,428.0034284999997,None,1.8594,433.61922039999945,None,None,1,433.61922039999945,None,,P026,FENCOG,1,Pre,2022_Feb_23_1118,N-Back (New Version 2021),2021.1.4,119.96808848856989,
,,,,Conditions/Version_1/oneback(1)_v1.xlsx,New rule: Press 'space' when you see 1-back (i.e. the same letter as the one that appeared 1 letter ago.),p,None,,,,,,,,,0,1,1,1,0,1,1,1,,,,,,,,,,,,,,,,,,,,,,,,,,,,,,,,,,,,,,,,,,,,,,,,,,,,,,,,,,,,,,,,,,,,,1.258,436.88373850000016,None,None,1,436.88373850000016,None,,P026,FENCOG,1,Pre,2022_Feb_23_1118,N-Back (New Version 2021),2021.1.4,119.96808848856989,
,,,,Conditions/Version_1/oneback(1)_v1.xlsx,New rule: Press 'space' when you see 1-back (i.e. the same letter as the one that appeared 1 letter ago.),M,None,,,,,,,,,0,1,1,1,0,2,2,2,,,,,,,,,,,,,,,,,,,,,,,,,,,,,,,,,,,,,,,,,,,,,,,,,,,,,,,,,,,,,,,,,,,,,1.3138,440.20144560000017,None,None,1,440.20144560000017,None,,P026,FENCOG,1,Pre,2022_Feb_23_1118,N-Back (New Version 2021),2021.1.4,119.96808848856989,
,,,,Conditions/Version_1/oneback(1)_v1.xlsx,New rule: Press 'space' when you see 1-back (i.e. the same letter as the one that appeared 1 letter ago.),M,space,,,,,,,,,0,1,1,1,0,3,3,3,,,,,,,,,,,,,,,,,,,,,,,,,,,,,,,,,,,,,,,,,,,,,,,,,,,,,,,,,,,,,,,,,,,,,1.4502,443.6567874999996,None,space,1,443.6567874999996,None,0.7171283999996376,P026,FENCOG,1,Pre,2022_Feb_23_1118,N-Back (New Version 2021),2021.1.4,119.96808848856989,
,,,,Conditions/Version_1/oneback(1)_v1.xlsx,New rule: Press 'space' when you see 1-back (i.e. the same letter as the one that appeared 1 letter ago.),n,None,,,,,,,,,0,1,1,1,0,4,4,4,,,,,,,,,,,,,,,,,,,,,,,,,,,,,,,,,,,,,,,,,,,,,,,,,,,,,,,,,,,,,,,,,,,,,1.9648,447.6221276000001,None,None,1,447.6221276000001,None,,P026,FENCOG,1,Pre,2022_Feb_23_1118,N-Back (New Version 2021),2021.1.4,119.96808848856989,
,,,,Conditions/Version_1/oneback(1)_v1.xlsx,New rule: Press 'space' when you see 1-back (i.e. the same letter as the one that appeared 1 letter ago.),g,None,,,,,,,,,0,1,1,1,0,5,5,5,,,,,,,,,,,,,,,,,,,,,,,,,,,,,,,,,,,,,,,,,,,,,,,,,,,,,,,,,,,,,,,,,,,,,1.1836,450.80455519999987,None,None,1,450.80455519999987,None,,P026,FENCOG,1,Pre,2022_Feb_23_1118,N-Back (New Version 2021),2021.1.4,119.96808848856989,
,,,,Conditions/Version_1/oneback(1)_v1.xlsx,New rule: Press 'space' when you see 1-back (i.e. the same letter as the one that appeared 1 letter ago.),P,None,,,,,,,,,0,1,1,1,0,6,6,6,,,,,,,,,,,,,,,,,,,,,,,,,,,,,,,,,,,,,,,,,,,,,,,,,,,,,,,,,,,,,,,,,,,,,1.1216,453.92994249999947,None,None,1,453.92994249999947,None,,P026,FENCOG,1,Pre,2022_Feb_23_1118,N-Back (New Version 2021),2021.1.4,119.96808848856989,
,,,,Conditions/Version_1/oneback(1)_v1.xlsx,New rule: Press 'space' when you see 1-back (i.e. the same letter as the one that appeared 1 letter ago.),o,None,,,,,,,,,0,1,1,1,0,7,7,7,,,,,,,,,,,,,,,,,,,,,,,,,,,,,,,,,,,,,,,,,,,,,,,,,,,,,,,,,,,,,,,,,,,,,1.0658,457.00275420000025,None,None,1,457.00275420000025,None,,P026,FENCOG,1,Pre,2022_Feb_23_1118,N-Back (New Version 2021),2021.1.4,119.96808848856989,
,,,,Conditions/Version_1/oneback(1)_v1.xlsx,New rule: Press 'space' when you see 1-back (i.e. the same letter as the one that appeared 1 letter ago.),f,None,,,,,,,,,0,1,1,1,0,8,8,8,,,,,,,,,,,,,,,,,,,,,,,,,,,,,,,,,,,,,,,,,,,,,,,,,,,,,,,,,,,,,,,,,,,,,1.878,460.88667719999967,None,None,1,460.88667719999967,None,,P026,FENCOG,1,Pre,2022_Feb_23_1118,N-Back (New Version 2021),2021.1.4,119.96808848856989,
,,,,Conditions/Version_1/oneback(1)_v1.xlsx,New rule: Press 'space' when you see 1-back (i.e. the same letter as the one that appeared 1 letter ago.),F,space,,,,,,,,,0,1,1,1,0,9,9,9,,,,,,,,,,,,,,,,,,,,,,,,,,,,,,,,,,,,,,,,,,,,,,,,,,,,,,,,,,,,,,,,,,,,,1.63,464.52747619999946,None,space,1,464.52747619999946,None,0.5900518999997075,P026,FENCOG,1,Pre,2022_Feb_23_1118,N-Back (New Version 2021),2021.1.4,119.96808848856989,
,,,,Conditions/Version_1/oneback(1)_v1.xlsx,New rule: Press 'space' when you see 1-back (i.e. the same letter as the one that appeared 1 letter ago.),,,,,,,,,,,0,1,1,1,,,,,,,,,,,,,,,,,,,,,,,,,,,,,,,,,,,,,,,,,,,,,,,,,,,,,,,,,,,,,,,,,,,,,,,,,,,,,,,,,P026,FENCOG,1,Pre,2022_Feb_23_1118,N-Back (New Version 2021),2021.1.4,119.96808848856989,
,,,,Conditions/Version_1/twoback(1)_v1.xlsx,New rule: Press 'space' when you see 2-back (i.e. the same letter as the one that appeared 2 letters ago.),b,None,,,,,,,,,0,2,2,2,0,0,0,0,,,,,,,,,,,,,,,,,,,,,,,,,,,,,,,,,,,,,,,,,,,,,,,,,,,,,,,,,,,466.55303369999956,None,469.54319149999947,None,space,0.4065700999999535,469.54319149999947,None,466.55303369999956,None,1.0844,471.05830990000004,None,None,1,471.05830990000004,None,,P026,FENCOG,1,Pre,2022_Feb_23_1118,N-Back (New Version 2021),2021.1.4,119.96808848856989,
,,,,Conditions/Version_1/twoback(1)_v1.xlsx,New rule: Press 'space' when you see 2-back (i.e. the same letter as the one that appeared 2 letters ago.),h,None,,,,,,,,,0,2,2,2,0,1,1,1,,,,,,,,,,,,,,,,,,,,,,,,,,,,,,,,,,,,,,,,,,,,,,,,,,,,,,,,,,,,,,,,,,,,,1.1278,474.1978181999998,None,None,1,474.1978181999998,None,,P026,FENCOG,1,Pre,2022_Feb_23_1118,N-Back (New Version 2021),2021.1.4,119.96808848856989,
,,,,Conditions/Version_1/twoback(1)_v1.xlsx,New rule: Press 'space' when you see 2-back (i.e. the same letter as the one that appeared 2 letters ago.),j,None,,,,,,,,,0,2,2,2,0,2,2,2,,,,,,,,,,,,,,,,,,,,,,,,,,,,,,,,,,,,,,,,,,,,,,,,,,,,,,,,,,,,,,,,,,,,,1.63,477.8350650999996,None,None,1,477.8350650999996,None,,P026,FENCOG,1,Pre,2022_Feb_23_1118,N-Back (New Version 2021),2021.1.4,119.96808848856989,
,,,,Conditions/Version_1/twoback(1)_v1.xlsx,New rule: Press 'space' when you see 2-back (i.e. the same letter as the one that appeared 2 letters ago.),H,space,,,,,,,,,0,2,2,2,0,3,3,3,,,,,,,,,,,,,,,,,,,,,,,,,,,,,,,,,,,,,,,,,,,,,,,,,,,,,,,,,,,,,,,,,,,,,1.6548,481.49782619999996,None,space,1,481.49782619999996,None,0.4918510999996215,P026,FENCOG,1,Pre,2022_Feb_23_1118,N-Back (New Version 2021),2021.1.4,119.96808848856989,
,,,,Conditions/Version_1/twoback(1)_v1.xlsx,New rule: Press 'space' when you see 2-back (i.e. the same letter as the one that appeared 2 letters ago.),p,None,,,,,,,,,0,2,2,2,0,4,4,4,,,,,,,,,,,,,,,,,,,,,,,,,,,,,,,,,,,,,,,,,,,,,,,,,,,,,,,,,,,,,,,,,,,,,1.7974,485.30683480000016,None,None,1,485.30683480000016,None,,P026,FENCOG,1,Pre,2022_Feb_23_1118,N-Back (New Version 2021),2021.1.4,119.96808848856989,
,,,,Conditions/Version_1/twoback(1)_v1.xlsx,New rule: Press 'space' when you see 2-back (i.e. the same letter as the one that appeared 2 letters ago.),p,None,,,,,,,,,0,2,2,2,0,5,5,5,,,,,,,,,,,,,,,,,,,,,,,,,,,,,,,,,,,,,,,,,,,,,,,,,,,,,,,,,,,,,,,,,,,,,1.7478,489.06016640000007,None,None,1,489.06016640000007,None,,P026,FENCOG,1,Pre,2022_Feb_23_1118,N-Back (New Version 2021),2021.1.4,119.96808848856989,
,,,,Conditions/Version_1/twoback(1)_v1.xlsx,New rule: Press 'space' when you see 2-back (i.e. the same letter as the one that appeared 2 letters ago.),w,None,,,,,,,,,0,2,2,2,0,6,6,6,,,,,,,,,,,,,,,,,,,,,,,,,,,,,,,,,,,,,,,,,,,,,,,,,,,,,,,,,,,,,,,,,,,,,1.8036,492.86728410000023,None,None,1,492.86728410000023,None,,P026,FENCOG,1,Pre,2022_Feb_23_1118,N-Back (New Version 2021),2021.1.4,119.96808848856989,
,,,,Conditions/Version_1/twoback(1)_v1.xlsx,New rule: Press 'space' when you see 2-back (i.e. the same letter as the one that appeared 2 letters ago.),R,None,,,,,,,,,0,2,2,2,0,7,7,7,,,,,,,,,,,,,,,,,,,,,,,,,,,,,,,,,,,,,,,,,,,,,,,,,,,,,,,,,,,,,,,,,,,,,1.8346,496.7094919999995,None,None,1,496.7094919999995,None,,P026,FENCOG,1,Pre,2022_Feb_23_1118,N-Back (New Version 2021),2021.1.4,119.96808848856989,
,,,,Conditions/Version_1/twoback(1)_v1.xlsx,New rule: Press 'space' when you see 2-back (i.e. the same letter as the one that appeared 2 letters ago.),a,None,,,,,,,,,0,2,2,2,0,8,8,8,,,,,,,,,,,,,,,,,,,,,,,,,,,,,,,,,,,,,,,,,,,,,,,,,,,,,,,,,,,,,,,,,,,,,1.32,500.0411408999994,None,None,1,500.0411408999994,None,,P026,FENCOG,1,Pre,2022_Feb_23_1118,N-Back (New Version 2021),2021.1.4,119.96808848856989,
,,,,Conditions/Version_1/twoback(1)_v1.xlsx,New rule: Press 'space' when you see 2-back (i.e. the same letter as the one that appeared 2 letters ago.),r,space,,,,,,,,,0,2,2,2,0,9,9,9,,,,,,,,,,,,,,,,,,,,,,,,,,,,,,,,,,,,,,,,,,,,,,,,,,,,,,,,,,,,,,,,,,,,,1.165,503.2139857999996,None,space,1,503.2139857999996,None,0.4156223999998474,P026,FENCOG,1,Pre,2022_Feb_23_1118,N-Back (New Version 2021),2021.1.4,119.96808848856989,
,,,,Conditions/Version_1/twoback(1)_v1.xlsx,New rule: Press 'space' when you see 2-back (i.e. the same letter as the one that appeared 2 letters ago.),,,,,,,,,,,0,2,2,2,,,,,,,,,,,,,,,,,,,,,,,,,,,,,,,,,,,,,,,,,,,,,,,,,,,,,,,,,,,,,,,,,,,,,,,,,,,,,,,,,P026,FENCOG,1,Pre,2022_Feb_23_1118,N-Back (New Version 2021),2021.1.4,119.96808848856989,
,,,,Conditions/Version_1/threeback(1)_v1.xlsx,New rule: Press 'space' when you see 3-back (i.e. the same letter as the one that appeared 3 letters ago.),r,None,,,,,,,,,0,3,3,3,0,0,0,0,,,,,,,,,,,,,,,,,,,,,,,,,,,,,,,,,,,,,,,,,,,,,,,,,,,,,,,,,,,505.23721780000005,None,508.2234358999999,None,space,0.2782782000003863,508.2234358999999,None,505.23721780000005,None,1.32,509.8457261999997,None,None,1,509.8457261999997,None,,P026,FENCOG,1,Pre,2022_Feb_23_1118,N-Back (New Version 2021),2021.1.4,119.96808848856989,
,,,,Conditions/Version_1/threeback(1)_v1.xlsx,New rule: Press 'space' when you see 3-back (i.e. the same letter as the one that appeared 3 letters ago.),o,None,,,,,,,,,0,3,3,3,0,1,1,1,,,,,,,,,,,,,,,,,,,,,,,,,,,,,,,,,,,,,,,,,,,,,,,,,,,,,,,,,,,,,,,,,,,,,1.8036,513.6611872999997,None,None,1,513.6611872999997,None,,P026,FENCOG,1,Pre,2022_Feb_23_1118,N-Back (New Version 2021),2021.1.4,119.96808848856989,
,,,,Conditions/Version_1/threeback(1)_v1.xlsx,New rule: Press 'space' when you see 3-back (i.e. the same letter as the one that appeared 3 letters ago.),P,None,,,,,,,,,0,3,3,3,0,2,2,2,,,,,,,,,,,,,,,,,,,,,,,,,,,,,,,,,,,,,,,,,,,,,,,,,,,,,,,,,,,,,,,,,,,,,1.351,517.0183959999999,None,None,1,517.0183959999999,None,,P026,FENCOG,1,Pre,2022_Feb_23_1118,N-Back (New Version 2021),2021.1.4,119.96808848856989,
,,,,Conditions/Version_1/threeback(1)_v1.xlsx,New rule: Press 'space' when you see 3-back (i.e. the same letter as the one that appeared 3 letters ago.),R,space,,,,,,,,,0,3,3,3,0,3,3,3,,,,,,,,,,,,,,,,,,,,,,,,,,,,,,,,,,,,,,,,,,,,,,,,,,,,,,,,,,,,,,,,,,,,,1.2332,520.2508733999998,None,space,1,520.2508733999998,None,1.5709466999996948,P026,FENCOG,1,Pre,2022_Feb_23_1118,N-Back (New Version 2021),2021.1.4,119.96808848856989,
,,,,Conditions/Version_1/threeback(1)_v1.xlsx,New rule: Press 'space' when you see 3-back (i.e. the same letter as the one that appeared 3 letters ago.),p,None,,,,,,,,,0,3,3,3,0,4,4,4,,,,,,,,,,,,,,,,,,,,,,,,,,,,,,,,,,,,,,,,,,,,,,,,,,,,,,,,,,,,,,,,,,,,,1.5246,523.7754983999998,None,None,1,523.7754983999998,None,,P026,FENCOG,1,Pre,2022_Feb_23_1118,N-Back (New Version 2021),2021.1.4,119.96808848856989,
,,,,Conditions/Version_1/threeback(1)_v1.xlsx,New rule: Press 'space' when you see 3-back (i.e. the same letter as the one that appeared 3 letters ago.),E,None,,,,,,,,,0,3,3,3,0,5,5,5,,,,,,,,,,,,,,,,,,,,,,,,,,,,,,,,,,,,,,,,,,,,,,,,,,,,,,,,,,,,,,,,,,,,,1.6052,527.3904778000001,None,None,1,527.3904778000001,None,,P026,FENCOG,1,Pre,2022_Feb_23_1118,N-Back (New Version 2021),2021.1.4,119.96808848856989,
,,,,Conditions/Version_1/threeback(1)_v1.xlsx,New rule: Press 'space' when you see 3-back (i.e. the same letter as the one that appeared 3 letters ago.),e,None,,,,,,,,,0,3,3,3,0,6,6,6,,,,,,,,,,,,,,,,,,,,,,,,,,,,,,,,,,,,,,,,,,,,,,,,,,,,,,,,,,,,,,,,,,,,,1.8408,531.2309620999999,None,None,1,531.2309620999999,None,,P026,FENCOG,1,Pre,2022_Feb_23_1118,N-Back (New Version 2021),2021.1.4,119.96808848856989,
,,,,Conditions/Version_1/threeback(1)_v1.xlsx,New rule: Press 'space' when you see 3-back (i.e. the same letter as the one that appeared 3 letters ago.),m,None,,,,,,,,,0,3,3,3,0,7,7,7,,,,,,,,,,,,,,,,,,,,,,,,,,,,,,,,,,,,,,,,,,,,,,,,,,,,,,,,,,,,,,,,,,,,,1.8966,535.1314896999997,None,None,1,535.1314896999997,None,,P026,FENCOG,1,Pre,2022_Feb_23_1118,N-Back (New Version 2021),2021.1.4,119.96808848856989,
,,,,Conditions/Version_1/threeback(1)_v1.xlsx,New rule: Press 'space' when you see 3-back (i.e. the same letter as the one that appeared 3 letters ago.),n,None,,,,,,,,,0,3,3,3,0,8,8,8,,,,,,,,,,,,,,,,,,,,,,,,,,,,,,,,,,,,,,,,,,,,,,,,,,,,,,,,,,,,,,,,,,,,,1.3758,538.5204054000001,None,None,1,538.5204054000001,None,,P026,FENCOG,1,Pre,2022_Feb_23_1118,N-Back (New Version 2021),2021.1.4,119.96808848856989,
,,,,Conditions/Version_1/threeback(1)_v1.xlsx,New rule: Press 'space' when you see 3-back (i.e. the same letter as the one that appeared 3 letters ago.),e,space,,,,,,,,,0,3,3,3,0,9,9,9,,,,,,,,,,,,,,,,,,,,,,,,,,,,,,,,,,,,,,,,,,,,,,,,,,,,,,,,,,,,,,,,,,,,,1.4316,541.9546426000002,None,space,1,541.9546426000002,None,1.779033900000286,P026,FENCOG,1,Pre,2022_Feb_23_1118,N-Back (New Version 2021),2021.1.4,119.96808848856989,
,,,,Conditions/Version_1/threeback(1)_v1.xlsx,New rule: Press 'space' when you see 3-back (i.e. the same letter as the one that appeared 3 letters ago.),,,,,,,,,,,0,3,3,3,,,,,,,,,,,,,,,,,,,,,,,,,,,,,,,,,,,,,,,,,,,,,,,,,,,,,,,,,,,,,,,,,,,,,,,,,,,,,,,,,P026,FENCOG,1,Pre,2022_Feb_23_1118,N-Back (New Version 2021),2021.1.4,119.96808848856989,
,,,,Conditions/Version_1/oneback(2)_v1.xlsx,New rule: Press 'space' when you see 1-back (i.e. the same letter as the one that appeared 1 letter ago.),q,None,,,,,,,,,0,4,4,4,0,0,0,0,,,,,,,,,,,,,,,,,,,,,,,,,,,,,,,,,,,,,,,,,,,,,,,,,,,,,,,,,,,543.9844980000003,None,546.9703229000002,None,space,0.2833613000002515,546.9703229000002,None,543.9844980000003,None,1.5494,548.8353640999999,None,None,1,548.8353640999999,None,,P026,FENCOG,1,Pre,2022_Feb_23_1118,N-Back (New Version 2021),2021.1.4,119.96808848856989,
,,,,Conditions/Version_1/oneback(2)_v1.xlsx,New rule: Press 'space' when you see 1-back (i.e. the same letter as the one that appeared 1 letter ago.),Q,space,,,,,,,,,0,4,4,4,0,1,1,1,,,,,,,,,,,,,,,,,,,,,,,,,,,,,,,,,,,,,,,,,,,,,,,,,,,,,,,,,,,,,,,,,,,,,1.9028,552.7517124999999,None,space,1,552.7517124999999,None,0.6621013000003586,P026,FENCOG,1,Pre,2022_Feb_23_1118,N-Back (New Version 2021),2021.1.4,119.96808848856989,
,,,,Conditions/Version_1/oneback(2)_v1.xlsx,New rule: Press 'space' when you see 1-back (i.e. the same letter as the one that appeared 1 letter ago.),P,None,,,,,,,,,0,4,4,4,0,2,2,2,,,,,,,,,,,,,,,,,,,,,,,,,,,,,,,,,,,,,,,,,,,,,,,,,,,,,,,,,,,,,,,,,,,,,1.0782,555.8357547999999,None,None,1,555.8357547999999,None,,P026,FENCOG,1,Pre,2022_Feb_23_1118,N-Back (New Version 2021),2021.1.4,119.96808848856989,
,,,,Conditions/Version_1/oneback(2)_v1.xlsx,New rule: Press 'space' when you see 1-back (i.e. the same letter as the one that appeared 1 letter ago.),o,None,,,,,,,,,0,4,4,4,0,3,3,3,,,,,,,,,,,,,,,,,,,,,,,,,,,,,,,,,,,,,,,,,,,,,,,,,,,,,,,,,,,,,,,,,,,,,1.0906,558.9313877,None,None,1,558.9313877,None,,P026,FENCOG,1,Pre,2022_Feb_23_1118,N-Back (New Version 2021),2021.1.4,119.96808848856989,
,,,,Conditions/Version_1/oneback(2)_v1.xlsx,New rule: Press 'space' when you see 1-back (i.e. the same letter as the one that appeared 1 letter ago.),m,None,,,,,,,,,0,4,4,4,0,4,4,4,,,,,,,,,,,,,,,,,,,,,,,,,,,,,,,,,,,,,,,,,,,,,,,,,,,,,,,,,,,,,,,,,,,,,1.6796,562.6133844000001,None,None,1,562.6133844000001,None,,P026,FENCOG,1,Pre,2022_Feb_23_1118,N-Back (New Version 2021),2021.1.4,119.96808848856989,
,,,,Conditions/Version_1/oneback(2)_v1.xlsx,New rule: Press 'space' when you see 1-back (i.e. the same letter as the one that appeared 1 letter ago.),Z,None,,,,,,,,,0,4,4,4,0,5,5,5,,,,,,,,,,,,,,,,,,,,,,,,,,,,,,,,,,,,,,,,,,,,,,,,,,,,,,,,,,,,,,,,,,,,,1.2146,565.8295297999998,None,None,1,565.8295297999998,None,,P026,FENCOG,1,Pre,2022_Feb_23_1118,N-Back (New Version 2021),2021.1.4,119.96808848856989,
,,,,Conditions/Version_1/oneback(2)_v1.xlsx,New rule: Press 'space' when you see 1-back (i.e. the same letter as the one that appeared 1 letter ago.),c,None,,,,,,,,,0,4,4,4,0,6,6,6,,,,,,,,,,,,,,,,,,,,,,,,,,,,,,,,,,,,,,,,,,,,,,,,,,,,,,,,,,,,,,,,,,,,,1.7478,569.5779711999999,None,None,1,569.5779711999999,None,,P026,FENCOG,1,Pre,2022_Feb_23_1118,N-Back (New Version 2021),2021.1.4,119.96808848856989,
,,,,Conditions/Version_1/oneback(2)_v1.xlsx,New rule: Press 'space' when you see 1-back (i.e. the same letter as the one that appeared 1 letter ago.),c,space,,,,,,,,,0,4,4,4,0,7,7,7,,,,,,,,,,,,,,,,,,,,,,,,,,,,,,,,,,,,,,,,,,,,,,,,,,,,,,,,,,,,,,,,,,,,,1.3014,572.8855484000001,None,space,1,572.8855484000001,None,0.600069899999653,P026,FENCOG,1,Pre,2022_Feb_23_1118,N-Back (New Version 2021),2021.1.4,119.96808848856989,
,,,,Conditions/Version_1/oneback(2)_v1.xlsx,New rule: Press 'space' when you see 1-back (i.e. the same letter as the one that appeared 1 letter ago.),P,None,,,,,,,,,0,4,4,4,0,8,8,8,,,,,,,,,,,,,,,,,,,,,,,,,,,,,,,,,,,,,,,,,,,,,,,,,,,,,,,,,,,,,,,,,,,,,1.5246,576.4102821000001,None,None,1,576.4102821000001,None,,P026,FENCOG,1,Pre,2022_Feb_23_1118,N-Back (New Version 2021),2021.1.4,119.96808848856989,
,,,,Conditions/Version_1/oneback(2)_v1.xlsx,New rule: Press 'space' when you see 1-back (i.e. the same letter as the one that appeared 1 letter ago.),p,space,,,,,,,,,0,4,4,4,0,9,9,9,,,,,,,,,,,,,,,,,,,,,,,,,,,,,,,,,,,,,,,,,,,,,,,,,,,,,,,,,,,,,,,,,,,,,1.8594,580.2833046999999,None,space,1,580.2833046999999,None,0.5864877000003617,P026,FENCOG,1,Pre,2022_Feb_23_1118,N-Back (New Version 2021),2021.1.4,119.96808848856989,
,,,,Conditions/Version_1/oneback(2)_v1.xlsx,New rule: Press 'space' when you see 1-back (i.e. the same letter as the one that appeared 1 letter ago.),,,,,,,,,,,0,4,4,4,,,,,,,,,,,,,,,,,,,,,,,,,,,,,,,,,,,,,,,,,,,,,,,,,,,,,,,,,,,,,,,,,,,,,,,,,,,,,,,,,P026,FENCOG,1,Pre,2022_Feb_23_1118,N-Back (New Version 2021),2021.1.4,119.96808848856989,
,,,,Conditions/Version_1/zeroback(2)_v1.xlsx,New rule: Press 'space' when you see the letter 'x' or 'X'.,p,None,,,,,,,,,0,5,5,5,0,0,0,0,,,,,,,,,,,,,,,,,,,,,,,,,,,,,,,,,,,,,,,,,,,,,,,,,,,,,,,,,,,582.3004962,None,585.2845333999999,None,space,0.16924700000072335,585.2845333999999,None,582.3004962,None,1.8656,587.3479009999996,None,None,1,587.3479009999996,None,,P026,FENCOG,1,Pre,2022_Feb_23_1118,N-Back (New Version 2021),2021.1.4,119.96808848856989,
,,,,Conditions/Version_1/zeroback(2)_v1.xlsx,New rule: Press 'space' when you see the letter 'x' or 'X'.,L,None,,,,,,,,,0,5,5,5,0,1,1,1,,,,,,,,,,,,,,,,,,,,,,,,,,,,,,,,,,,,,,,,,,,,,,,,,,,,,,,,,,,,,,,,,,,,,1.2642,590.6136180999997,None,None,1,590.6136180999997,None,,P026,FENCOG,1,Pre,2022_Feb_23_1118,N-Back (New Version 2021),2021.1.4,119.96808848856989,
,,,,Conditions/Version_1/zeroback(2)_v1.xlsx,New rule: Press 'space' when you see the letter 'x' or 'X'.,G,None,,,,,,,,,0,5,5,5,0,2,2,2,,,,,,,,,,,,,,,,,,,,,,,,,,,,,,,,,,,,,,,,,,,,,,,,,,,,,,,,,,,,,,,,,,,,,1.568,594.1874697999997,None,None,1,594.1874697999997,None,,P026,FENCOG,1,Pre,2022_Feb_23_1118,N-Back (New Version 2021),2021.1.4,119.96808848856989,
,,,,Conditions/Version_1/zeroback(2)_v1.xlsx,New rule: Press 'space' when you see the letter 'x' or 'X'.,y,None,,,,,,,,,0,5,5,5,0,3,3,3,,,,,,,,,,,,,,,,,,,,,,,,,,,,,,,,,,,,,,,,,,,,,,,,,,,,,,,,,,,,,,,,,,,,,1.6114,597.8030629999998,None,None,1,597.8030629999998,None,,P026,FENCOG,1,Pre,2022_Feb_23_1118,N-Back (New Version 2021),2021.1.4,119.96808848856989,
,,,,Conditions/Version_1/zeroback(2)_v1.xlsx,New rule: Press 'space' when you see the letter 'x' or 'X'.,Y,None,,,,,,,,,0,5,5,5,0,4,4,4,,,,,,,,,,,,,,,,,,,,,,,,,,,,,,,,,,,,,,,,,,,,,,,,,,,,,,,,,,,,,,,,,,,,,1.0534,600.8616691000002,None,None,1,600.8616691000002,None,,P026,FENCOG,1,Pre,2022_Feb_23_1118,N-Back (New Version 2021),2021.1.4,119.96808848856989,
,,,,Conditions/Version_1/zeroback(2)_v1.xlsx,New rule: Press 'space' when you see the letter 'x' or 'X'.,W,None,,,,,,,,,0,5,5,5,0,5,5,5,,,,,,,,,,,,,,,,,,,,,,,,,,,,,,,,,,,,,,,,,,,,,,,,,,,,,,,,,,,,,,,,,,,,,1.5556,604.4279165000003,None,None,1,604.4279165000003,None,,P026,FENCOG,1,Pre,2022_Feb_23_1118,N-Back (New Version 2021),2021.1.4,119.96808848856989,
,,,,Conditions/Version_1/zeroback(2)_v1.xlsx,New rule: Press 'space' when you see the letter 'x' or 'X'.,x,space,,,,,,,,,0,5,5,5,0,6,6,6,,,,,,,,,,,,,,,,,,,,,,,,,,,,,,,,,,,,,,,,,,,,,,,,,,,,,,,,,,,,,,,,,,,,,1.0472,607.4832831999997,None,space,1,607.4832831999997,None,0.5943975000000137,P026,FENCOG,1,Pre,2022_Feb_23_1118,N-Back (New Version 2021),2021.1.4,119.96808848856989,
,,,,Conditions/Version_1/zeroback(2)_v1.xlsx,New rule: Press 'space' when you see the letter 'x' or 'X'.,X,space,,,,,,,,,0,5,5,5,0,7,7,7,,,,,,,,,,,,,,,,,,,,,,,,,,,,,,,,,,,,,,,,,,,,,,,,,,,,,,,,,,,,,,,,,,,,,1.0162,610.4993448999999,None,space,1,610.4993448999999,None,0.7062605000000985,P026,FENCOG,1,Pre,2022_Feb_23_1118,N-Back (New Version 2021),2021.1.4,119.96808848856989,
,,,,Conditions/Version_1/zeroback(2)_v1.xlsx,New rule: Press 'space' when you see the letter 'x' or 'X'.,p,None,,,,,,,,,0,5,5,5,0,8,8,8,,,,,,,,,,,,,,,,,,,,,,,,,,,,,,,,,,,,,,,,,,,,,,,,,,,,,,,,,,,,,,,,,,,,,1.1154,613.6163036000003,None,None,1,613.6163036000003,None,,P026,FENCOG,1,Pre,2022_Feb_23_1118,N-Back (New Version 2021),2021.1.4,119.96808848856989,
,,,,Conditions/Version_1/zeroback(2)_v1.xlsx,New rule: Press 'space' when you see the letter 'x' or 'X'.,h,None,,,,,,,,,0,5,5,5,0,9,9,9,,,,,,,,,,,,,,,,,,,,,,,,,,,,,,,,,,,,,,,,,,,,,,,,,,,,,,,,,,,,,,,,,,,,,1.9586,617.5888381,None,None,1,617.5888381,None,,P026,FENCOG,1,Pre,2022_Feb_23_1118,N-Back (New Version 2021),2021.1.4,119.96808848856989,
,,,,Conditions/Version_1/zeroback(2)_v1.xlsx,New rule: Press 'space' when you see the letter 'x' or 'X'.,,,,,,,,,,,0,5,5,5,,,,,,,,,,,,,,,,,,,,,,,,,,,,,,,,,,,,,,,,,,,,,,,,,,,,,,,,,,,,,,,,,,,,,,,,,,,,,,,,,P026,FENCOG,1,Pre,2022_Feb_23_1118,N-Back (New Version 2021),2021.1.4,119.96808848856989,
,,,,Conditions/Version_1/threeback(2)_v1.xlsx,New rule: Press 'space' when you see 3-back (i.e. the same letter as the one that appeared 3 letters ago.),q,None,,,,,,,,,0,6,6,6,0,0,0,0,,,,,,,,,,,,,,,,,,,,,,,,,,,,,,,,,,,,,,,,,,,,,,,,,,,,,,,,,,,619.6126927999999,None,622.6095800999997,None,space,5.028017599999657,622.6095800999997,None,619.6126927999999,None,1.6734,629.3351945,None,None,1,629.3351945,None,,P026,FENCOG,1,Pre,2022_Feb_23_1118,N-Back (New Version 2021),2021.1.4,119.96808848856989,
,,,,Conditions/Version_1/threeback(2)_v1.xlsx,New rule: Press 'space' when you see 3-back (i.e. the same letter as the one that appeared 3 letters ago.),Y,None,,,,,,,,,0,6,6,6,0,1,1,1,,,,,,,,,,,,,,,,,,,,,,,,,,,,,,,,,,,,,,,,,,,,,,,,,,,,,,,,,,,,,,,,,,,,,1.1898,632.5261121999997,None,None,1,632.5261121999997,None,,P026,FENCOG,1,Pre,2022_Feb_23_1118,N-Back (New Version 2021),2021.1.4,119.96808848856989,
,,,,Conditions/Version_1/threeback(2)_v1.xlsx,New rule: Press 'space' when you see 3-back (i.e. the same letter as the one that appeared 3 letters ago.),p,None,,,,,,,,,0,6,6,6,0,2,2,2,,,,,,,,,,,,,,,,,,,,,,,,,,,,,,,,,,,,,,,,,,,,,,,,,,,,,,,,,,,,,,,,,,,,,1.8098,636.3417585000002,None,None,1,636.3417585000002,None,,P026,FENCOG,1,Pre,2022_Feb_23_1118,N-Back (New Version 2021),2021.1.4,119.96808848856989,
,,,,Conditions/Version_1/threeback(2)_v1.xlsx,New rule: Press 'space' when you see 3-back (i.e. the same letter as the one that appeared 3 letters ago.),p,None,,,,,,,,,0,6,6,6,0,3,3,3,,,,,,,,,,,,,,,,,,,,,,,,,,,,,,,,,,,,,,,,,,,,,,,,,,,,,,,,,,,,,,,,,,,,,1.568,639.915802,None,None,1,639.915802,None,,P026,FENCOG,1,Pre,2022_Feb_23_1118,N-Back (New Version 2021),2021.1.4,119.96808848856989,
,,,,Conditions/Version_1/threeback(2)_v1.xlsx,New rule: Press 'space' when you see 3-back (i.e. the same letter as the one that appeared 3 letters ago.),y,space,,,,,,,,,0,6,6,6,0,4,4,4,,,,,,,,,,,,,,,,,,,,,,,,,,,,,,,,,,,,,,,,,,,,,,,,,,,,,,,,,,,,,,,,,,,,,1.661,643.5812470999995,None,space,1,643.5812470999995,None,0.42458499999975174,P026,FENCOG,1,Pre,2022_Feb_23_1118,N-Back (New Version 2021),2021.1.4,119.96808848856989,
,,,,Conditions/Version_1/threeback(2)_v1.xlsx,New rule: Press 'space' when you see 3-back (i.e. the same letter as the one that appeared 3 letters ago.),u,None,,,,,,,,,0,6,6,6,0,5,5,5,,,,,,,,,,,,,,,,,,,,,,,,,,,,,,,,,,,,,,,,,,,,,,,,,,,,,,,,,,,,,,,,,,,,,1.7664,647.3468321999994,None,None,1,647.3468321999994,None,,P026,FENCOG,1,Pre,2022_Feb_23_1118,N-Back (New Version 2021),2021.1.4,119.96808848856989,
,,,,Conditions/Version_1/threeback(2)_v1.xlsx,New rule: Press 'space' when you see 3-back (i.e. the same letter as the one that appeared 3 letters ago.),P,space,,,,,,,,,0,6,6,6,0,6,6,6,,,,,,,,,,,,,,,,,,,,,,,,,,,,,,,,,,,,,,,,,,,,,,,,,,,,,,,,,,,,,,,,,,,,,1.0968,650.4461102999999,None,space,1,650.4461102999999,None,0.3834942999992563,P026,FENCOG,1,Pre,2022_Feb_23_1118,N-Back (New Version 2021),2021.1.4,119.96808848856989,
,,,,Conditions/Version_1/threeback(2)_v1.xlsx,New rule: Press 'space' when you see 3-back (i.e. the same letter as the one that appeared 3 letters ago.),a,None,,,,,,,,,0,6,6,6,0,7,7,7,,,,,,,,,,,,,,,,,,,,,,,,,,,,,,,,,,,,,,,,,,,,,,,,,,,,,,,,,,,,,,,,,,,,,1.3572,653.8041454999998,None,None,1,653.8041454999998,None,,P026,FENCOG,1,Pre,2022_Feb_23_1118,N-Back (New Version 2021),2021.1.4,119.96808848856989,
,,,,Conditions/Version_1/threeback(2)_v1.xlsx,New rule: Press 'space' when you see 3-back (i.e. the same letter as the one that appeared 3 letters ago.),U,space,,,,,,,,,0,6,6,6,0,8,8,8,,,,,,,,,,,,,,,,,,,,,,,,,,,,,,,,,,,,,,,,,,,,,,,,,,,,,,,,,,,,,,,,,,,,,1.103,656.920541,None,space,1,656.920541,None,1.4453027999998085,P026,FENCOG,1,Pre,2022_Feb_23_1118,N-Back (New Version 2021),2021.1.4,119.96808848856989,
,,,,Conditions/Version_1/threeback(2)_v1.xlsx,New rule: Press 'space' when you see 3-back (i.e. the same letter as the one that appeared 3 letters ago.),q,None,,,,,,,,,0,6,6,6,0,9,9,9,,,,,,,,,,,,,,,,,,,,,,,,,,,,,,,,,,,,,,,,,,,,,,,,,,,,,,,,,,,,,,,,,,,,,1.1092,660.0444130000001,None,None,1,660.0444130000001,None,,P026,FENCOG,1,Pre,2022_Feb_23_1118,N-Back (New Version 2021),2021.1.4,119.96808848856989,
,,,,Conditions/Version_1/threeback(2)_v1.xlsx,New rule: Press 'space' when you see 3-back (i.e. the same letter as the one that appeared 3 letters ago.),,,,,,,,,,,0,6,6,6,,,,,,,,,,,,,,,,,,,,,,,,,,,,,,,,,,,,,,,,,,,,,,,,,,,,,,,,,,,,,,,,,,,,,,,,,,,,,,,,,P026,FENCOG,1,Pre,2022_Feb_23_1118,N-Back (New Version 2021),2021.1.4,119.96808848856989,
,,,,Conditions/Version_1/twoback(2)_v1.xlsx,New rule: Press 'space' when you see 2-back (i.e. the same letter as the one that appeared 2 letters ago.),q,None,,,,,,,,,0,7,7,7,0,0,0,0,,,,,,,,,,,,,,,,,,,,,,,,,,,,,,,,,,,,,,,,,,,,,,,,,,,,,,,,,,,662.0742280999998,None,665.0600714999996,None,space,0.4576438000003691,665.0600714999996,None,662.0742280999998,None,1.1588,666.6995701999999,None,None,1,666.6995701999999,None,,P026,FENCOG,1,Pre,2022_Feb_23_1118,N-Back (New Version 2021),2021.1.4,119.96808848856989,
,,,,Conditions/Version_1/twoback(2)_v1.xlsx,New rule: Press 'space' when you see 2-back (i.e. the same letter as the one that appeared 2 letters ago.),r,None,,,,,,,,,0,7,7,7,0,1,1,1,,,,,,,,,,,,,,,,,,,,,,,,,,,,,,,,,,,,,,,,,,,,,,,,,,,,,,,,,,,,,,,,,,,,,1.1278,669.8344738000001,None,None,1,669.8344738000001,None,,P026,FENCOG,1,Pre,2022_Feb_23_1118,N-Back (New Version 2021),2021.1.4,119.96808848856989,
,,,,Conditions/Version_1/twoback(2)_v1.xlsx,New rule: Press 'space' when you see 2-back (i.e. the same letter as the one that appeared 2 letters ago.),q,space,,,,,,,,,0,7,7,7,0,2,2,2,,,,,,,,,,,,,,,,,,,,,,,,,,,,,,,,,,,,,,,,,,,,,,,,,,,,,,,,,,,,,,,,,,,,,1.01,672.8559995,None,space,1,672.8559995,None,0.7738517999996475,P026,FENCOG,1,Pre,2022_Feb_23_1118,N-Back (New Version 2021),2021.1.4,119.96808848856989,
,,,,Conditions/Version_1/twoback(2)_v1.xlsx,New rule: Press 'space' when you see 2-back (i.e. the same letter as the one that appeared 2 letters ago.),P,None,,,,,,,,,0,7,7,7,0,3,3,3,,,,,,,,,,,,,,,,,,,,,,,,,,,,,,,,,,,,,,,,,,,,,,,,,,,,,,,,,,,,,,,,,,,,,1.5804,676.4384076000001,None,None,1,676.4384076000001,None,,P026,FENCOG,1,Pre,2022_Feb_23_1118,N-Back (New Version 2021),2021.1.4,119.96808848856989,
,,,,Conditions/Version_1/twoback(2)_v1.xlsx,New rule: Press 'space' when you see 2-back (i.e. the same letter as the one that appeared 2 letters ago.),p,None,,,,,,,,,0,7,7,7,0,4,4,4,,,,,,,,,,,,,,,,,,,,,,,,,,,,,,,,,,,,,,,,,,,,,,,,,,,,,,,,,,,,,,,,,,,,,1.661,680.1057126000001,None,None,1,680.1057126000001,None,,P026,FENCOG,1,Pre,2022_Feb_23_1118,N-Back (New Version 2021),2021.1.4,119.96808848856989,
,,,,Conditions/Version_1/twoback(2)_v1.xlsx,New rule: Press 'space' when you see 2-back (i.e. the same letter as the one that appeared 2 letters ago.),H,None,,,,,,,,,0,7,7,7,0,5,5,5,,,,,,,,,,,,,,,,,,,,,,,,,,,,,,,,,,,,,,,,,,,,,,,,,,,,,,,,,,,,,,,,,,,,,1.6486,683.7610283999998,None,None,1,683.7610283999998,None,,P026,FENCOG,1,Pre,2022_Feb_23_1118,N-Back (New Version 2021),2021.1.4,119.96808848856989,
,,,,Conditions/Version_1/twoback(2)_v1.xlsx,New rule: Press 'space' when you see 2-back (i.e. the same letter as the one that appeared 2 letters ago.),g,None,,,,,,,,,0,7,7,7,0,6,6,6,,,,,,,,,,,,,,,,,,,,,,,,,,,,,,,,,,,,,,,,,,,,,,,,,,,,,,,,,,,,,,,,,,,,,1.7478,687.5127053000001,None,None,1,687.5127053000001,None,,P026,FENCOG,1,Pre,2022_Feb_23_1118,N-Back (New Version 2021),2021.1.4,119.96808848856989,
,,,,Conditions/Version_1/twoback(2)_v1.xlsx,New rule: Press 'space' when you see 2-back (i.e. the same letter as the one that appeared 2 letters ago.),j,None,,,,,,,,,0,7,7,7,0,7,7,7,,,,,,,,,,,,,,,,,,,,,,,,,,,,,,,,,,,,,,,,,,,,,,,,,,,,,,,,,,,,,,,,,,,,,1.165,690.6839979000001,None,None,1,690.6839979000001,None,,P026,FENCOG,1,Pre,2022_Feb_23_1118,N-Back (New Version 2021),2021.1.4,119.96808848856989,
,,,,Conditions/Version_1/twoback(2)_v1.xlsx,New rule: Press 'space' when you see 2-back (i.e. the same letter as the one that appeared 2 letters ago.),g,space,,,,,,,,,0,7,7,7,0,8,8,8,,,,,,,,,,,,,,,,,,,,,,,,,,,,,,,,,,,,,,,,,,,,,,,,,,,,,,,,,,,,,,,,,,,,,1.6734,694.3578806999999,None,space,1,694.3578806999999,None,1.623942199999874,P026,FENCOG,1,Pre,2022_Feb_23_1118,N-Back (New Version 2021),2021.1.4,119.96808848856989,
,,,,Conditions/Version_1/twoback(2)_v1.xlsx,New rule: Press 'space' when you see 2-back (i.e. the same letter as the one that appeared 2 letters ago.),G,None,,,,,,,,,0,7,7,7,0,9,9,9,,,,,,,,,,,,,,,,,,,,,,,,,,,,,,,,,,,,,,,,,,,,,,,,,,,,,,,,,,,,,,,,,,,,,1.5432,697.9070292000001,None,None,1,697.9070292000001,None,,P026,FENCOG,1,Pre,2022_Feb_23_1118,N-Back (New Version 2021),2021.1.4,119.96808848856989,
,,,,Conditions/Version_1/twoback(2)_v1.xlsx,New rule: Press 'space' when you see 2-back (i.e. the same letter as the one that appeared 2 letters ago.),,,,,,,,,,,0,7,7,7,,,,,,,,,,,,,,,,,,,,,,,,,,,,,,,,,,,,,,,,,,,,,,,,,,,,,,,,,,,,,,,,,,,,,,,,,,,,,,,,,P026,FENCOG,1,Pre,2022_Feb_23_1118,N-Back (New Version 2021),2021.1.4,119.96808848856989,
,,,,Conditions/Version_1/threeback(3)_v1.xlsx,New rule: Press 'space' when you see 3-back (i.e. the same letter as the one that appeared 3 letters ago.),w,None,,,,,,,,,0,8,8,8,0,0,0,0,,,,,,,,,,,,,,,,,,,,,,,,,,,,,,,,,,,,,,,,,,,,,,,,,,,,,,,,,,,699.9304509999997,None,702.9161812999996,None,space,0.3298666000000594,702.9161812999996,None,699.9304509999997,None,1.4812,704.7548314999999,None,None,1,704.7548314999999,None,,P026,FENCOG,1,Pre,2022_Feb_23_1118,N-Back (New Version 2021),2021.1.4,119.96808848856989,
,,,,Conditions/Version_1/threeback(3)_v1.xlsx,New rule: Press 'space' when you see 3-back (i.e. the same letter as the one that appeared 3 letters ago.),p,None,,,,,,,,,0,8,8,8,0,1,1,1,,,,,,,,,,,,,,,,,,,,,,,,,,,,,,,,,,,,,,,,,,,,,,,,,,,,,,,,,,,,,,,,,,,,,1.2332,707.9882842000002,None,None,1,707.9882842000002,None,,P026,FENCOG,1,Pre,2022_Feb_23_1118,N-Back (New Version 2021),2021.1.4,119.96808848856989,
,,,,Conditions/Version_1/threeback(3)_v1.xlsx,New rule: Press 'space' when you see 3-back (i.e. the same letter as the one that appeared 3 letters ago.),P,None,,,,,,,,,0,8,8,8,0,2,2,2,,,,,,,,,,,,,,,,,,,,,,,,,,,,,,,,,,,,,,,,,,,,,,,,,,,,,,,,,,,,,,,,,,,,,1.7044,711.6945740999995,None,None,1,711.6945740999995,None,,P026,FENCOG,1,Pre,2022_Feb_23_1118,N-Back (New Version 2021),2021.1.4,119.96808848856989,
,,,,Conditions/Version_1/threeback(3)_v1.xlsx,New rule: Press 'space' when you see 3-back (i.e. the same letter as the one that appeared 3 letters ago.),i,None,,,,,,,,,0,8,8,8,0,3,3,3,,,,,,,,,,,,,,,,,,,,,,,,,,,,,,,,,,,,,,,,,,,,,,,,,,,,,,,,,,,,,,,,,,,,,1.7788,715.4799226,None,None,1,715.4799226,None,,P026,FENCOG,1,Pre,2022_Feb_23_1118,N-Back (New Version 2021),2021.1.4,119.96808848856989,
,,,,Conditions/Version_1/threeback(3)_v1.xlsx,New rule: Press 'space' when you see 3-back (i.e. the same letter as the one that appeared 3 letters ago.),f,None,,,,,,,,,0,8,8,8,0,4,4,4,,,,,,,,,,,,,,,,,,,,,,,,,,,,,,,,,,,,,,,,,,,,,,,,,,,,,,,,,,,,,,,,,,,,,1.8718,719.3599569000003,None,None,1,719.3599569000003,None,,P026,FENCOG,1,Pre,2022_Feb_23_1118,N-Back (New Version 2021),2021.1.4,119.96808848856989,
,,,,Conditions/Version_1/threeback(3)_v1.xlsx,New rule: Press 'space' when you see 3-back (i.e. the same letter as the one that appeared 3 letters ago.),o,None,,,,,,,,,0,8,8,8,0,5,5,5,,,,,,,,,,,,,,,,,,,,,,,,,,,,,,,,,,,,,,,,,,,,,,,,,,,,,,,,,,,,,,,,,,,,,1.3138,722.6840976999997,None,None,1,722.6840976999997,None,,P026,FENCOG,1,Pre,2022_Feb_23_1118,N-Back (New Version 2021),2021.1.4,119.96808848856989,
,,,,Conditions/Version_1/threeback(3)_v1.xlsx,New rule: Press 'space' when you see 3-back (i.e. the same letter as the one that appeared 3 letters ago.),w,None,,,,,,,,,0,8,8,8,0,6,6,6,,,,,,,,,,,,,,,,,,,,,,,,,,,,,,,,,,,,,,,,,,,,,,,,,,,,,,,,,,,,,,,,,,,,,1.289,725.9900734999997,None,None,1,725.9900734999997,None,,P026,FENCOG,1,Pre,2022_Feb_23_1118,N-Back (New Version 2021),2021.1.4,119.96808848856989,
,,,,Conditions/Version_1/threeback(3)_v1.xlsx,New rule: Press 'space' when you see 3-back (i.e. the same letter as the one that appeared 3 letters ago.),F,space,,,,,,,,,0,8,8,8,0,7,7,7,,,,,,,,,,,,,,,,,,,,,,,,,,,,,,,,,,,,,,,,,,,,,,,,,,,,,,,,,,,,,,,,,,,,,1.1712,729.1641527999996,None,space,1,729.1641527999996,None,0.9295399000002362,P026,FENCOG,1,Pre,2022_Feb_23_1118,N-Back (New Version 2021),2021.1.4,119.96808848856989,
,,,,Conditions/Version_1/threeback(3)_v1.xlsx,New rule: Press 'space' when you see 3-back (i.e. the same letter as the one that appeared 3 letters ago.),p,None,,,,,,,,,0,8,8,8,0,8,8,8,,,,,,,,,,,,,,,,,,,,,,,,,,,,,,,,,,,,,,,,,,,,,,,,,,,,,,,,,,,,,,,,,,,,,1.5866,732.7547155999996,None,None,1,732.7547155999996,None,,P026,FENCOG,1,Pre,2022_Feb_23_1118,N-Back (New Version 2021),2021.1.4,119.96808848856989,
,,,,Conditions/Version_1/threeback(3)_v1.xlsx,New rule: Press 'space' when you see 3-back (i.e. the same letter as the one that appeared 3 letters ago.),W,space,,,,,,,,,0,8,8,8,0,9,9,9,,,,,,,,,,,,,,,,,,,,,,,,,,,,,,,,,,,,,,,,,,,,,,,,,,,,,,,,,,,,,,,,,,,,,1.5928,736.3536420999994,None,space,1,736.3536420999994,None,0.7079617999997936,P026,FENCOG,1,Pre,2022_Feb_23_1118,N-Back (New Version 2021),2021.1.4,119.96808848856989,
,,,,Conditions/Version_1/threeback(3)_v1.xlsx,New rule: Press 'space' when you see 3-back (i.e. the same letter as the one that appeared 3 letters ago.),,,,,,,,,,,0,8,8,8,,,,,,,,,,,,,,,,,,,,,,,,,,,,,,,,,,,,,,,,,,,,,,,,,,,,,,,,,,,,,,,,,,,,,,,,,,,,,,,,,P026,FENCOG,1,Pre,2022_Feb_23_1118,N-Back (New Version 2021),2021.1.4,119.96808848856989,
,,,,Conditions/Version_1/zeroback(3)_v1.xlsx,New rule: Press 'space' when you see the letter 'x' or 'X'.,X,space,,,,,,,,,0,9,9,9,0,0,0,0,,,,,,,,,,,,,,,,,,,,,,,,,,,,,,,,,,,,,,,,,,,,,,,,,,,,,,,,,,,738.3695683000001,None,741.3539275999997,None,space,0.33975200000077166,741.3539275999997,None,738.3695683000001,None,1.227,742.9446397999995,None,space,1,742.9446397999995,None,0.4933900999994876,P026,FENCOG,1,Pre,2022_Feb_23_1118,N-Back (New Version 2021),2021.1.4,119.96808848856989,
,,,,Conditions/Version_1/zeroback(3)_v1.xlsx,New rule: Press 'space' when you see the letter 'x' or 'X'.,B,None,,,,,,,,,0,9,9,9,0,1,1,1,,,,,,,,,,,,,,,,,,,,,,,,,,,,,,,,,,,,,,,,,,,,,,,,,,,,,,,,,,,,,,,,,,,,,1.7354,746.6929329,None,None,1,746.6929329,None,,P026,FENCOG,1,Pre,2022_Feb_23_1118,N-Back (New Version 2021),2021.1.4,119.96808848856989,
,,,,Conditions/Version_1/zeroback(3)_v1.xlsx,New rule: Press 'space' when you see the letter 'x' or 'X'.,m,None,,,,,,,,,0,9,9,9,0,2,2,2,,,,,,,,,,,,,,,,,,,,,,,,,,,,,,,,,,,,,,,,,,,,,,,,,,,,,,,,,,,,,,,,,,,,,1.6734,750.3747006999997,None,None,1,750.3747006999997,None,,P026,FENCOG,1,Pre,2022_Feb_23_1118,N-Back (New Version 2021),2021.1.4,119.96808848856989,
,,,,Conditions/Version_1/zeroback(3)_v1.xlsx,New rule: Press 'space' when you see the letter 'x' or 'X'.,m,None,,,,,,,,,0,9,9,9,0,3,3,3,,,,,,,,,,,,,,,,,,,,,,,,,,,,,,,,,,,,,,,,,,,,,,,,,,,,,,,,,,,,,,,,,,,,,1.7726,754.1489168000003,None,None,1,754.1489168000003,None,,P026,FENCOG,1,Pre,2022_Feb_23_1118,N-Back (New Version 2021),2021.1.4,119.96808848856989,
,,,,Conditions/Version_1/zeroback(3)_v1.xlsx,New rule: Press 'space' when you see the letter 'x' or 'X'.,o,None,,,,,,,,,0,9,9,9,0,4,4,4,,,,,,,,,,,,,,,,,,,,,,,,,,,,,,,,,,,,,,,,,,,,,,,,,,,,,,,,,,,,,,,,,,,,,1.723,757.8807172000002,None,None,1,757.8807172000002,None,,P026,FENCOG,1,Pre,2022_Feb_23_1118,N-Back (New Version 2021),2021.1.4,119.96808848856989,
,,,,Conditions/Version_1/zeroback(3)_v1.xlsx,New rule: Press 'space' when you see the letter 'x' or 'X'.,p,None,,,,,,,,,0,9,9,9,0,5,5,5,,,,,,,,,,,,,,,,,,,,,,,,,,,,,,,,,,,,,,,,,,,,,,,,,,,,,,,,,,,,,,,,,,,,,1.4316,761.3130108,None,None,1,761.3130108,None,,P026,FENCOG,1,Pre,2022_Feb_23_1118,N-Back (New Version 2021),2021.1.4,119.96808848856989,
,,,,Conditions/Version_1/zeroback(3)_v1.xlsx,New rule: Press 'space' when you see the letter 'x' or 'X'.,G,None,,,,,,,,,0,9,9,9,0,6,6,6,,,,,,,,,,,,,,,,,,,,,,,,,,,,,,,,,,,,,,,,,,,,,,,,,,,,,,,,,,,,,,,,,,,,,1.5122,764.8288728000002,None,None,1,764.8288728000002,None,,P026,FENCOG,1,Pre,2022_Feb_23_1118,N-Back (New Version 2021),2021.1.4,119.96808848856989,
,,,,Conditions/Version_1/zeroback(3)_v1.xlsx,New rule: Press 'space' when you see the letter 'x' or 'X'.,X,space,,,,,,,,,0,9,9,9,0,7,7,7,,,,,,,,,,,,,,,,,,,,,,,,,,,,,,,,,,,,,,,,,,,,,,,,,,,,,,,,,,,,,,,,,,,,,1.537,768.3692636999999,None,space,1,768.3692636999999,None,0.42852310000034777,P026,FENCOG,1,Pre,2022_Feb_23_1118,N-Back (New Version 2021),2021.1.4,119.96808848856989,
,,,,Conditions/Version_1/zeroback(3)_v1.xlsx,New rule: Press 'space' when you see the letter 'x' or 'X'.,p,None,,,,,,,,,0,9,9,9,0,8,8,8,,,,,,,,,,,,,,,,,,,,,,,,,,,,,,,,,,,,,,,,,,,,,,,,,,,,,,,,,,,,,,,,,,,,,1.6796,772.0515203,None,None,1,772.0515203,None,,P026,FENCOG,1,Pre,2022_Feb_23_1118,N-Back (New Version 2021),2021.1.4,119.96808848856989,
,,,,Conditions/Version_1/zeroback(3)_v1.xlsx,New rule: Press 'space' when you see the letter 'x' or 'X'.,x,space,,,,,,,,,0,9,9,9,0,9,9,9,,,,,,,,,,,,,,,,,,,,,,,,,,,,,,,,,,,,,,,,,,,,,,,,,,,,,,,,,,,,,,,,,,,,,1.165,775.2172500000001,None,space,1,775.2172500000001,None,0.380477300000166,P026,FENCOG,1,Pre,2022_Feb_23_1118,N-Back (New Version 2021),2021.1.4,119.96808848856989,
,,,,Conditions/Version_1/zeroback(3)_v1.xlsx,New rule: Press 'space' when you see the letter 'x' or 'X'.,,,,,,,,,,,0,9,9,9,,,,,,,,,,,,,,,,,,,,,,,,,,,,,,,,,,,,,,,,,,,,,,,,,,,,,,,,,,,,,,,,,,,,,,,,,,,,,,,,,P026,FENCOG,1,Pre,2022_Feb_23_1118,N-Back (New Version 2021),2021.1.4,119.96808848856989,
,,,,Conditions/Version_1/twoback(3)_v1.xlsx,New rule: Press 'space' when you see 2-back (i.e. the same letter as the one that appeared 2 letters ago.),e,None,,,,,,,,,0,10,10,10,0,0,0,0,,,,,,,,,,,,,,,,,,,,,,,,,,,,,,,,,,,,,,,,,,,,,,,,,,,,,,,,,,,777.2362333999995,None,780.2263768999997,None,space,0.2672797000004721,780.2263768999997,None,777.2362333999995,None,1.8222,782.3401709999994,None,None,1,782.3401709999994,None,,P026,FENCOG,1,Pre,2022_Feb_23_1118,N-Back (New Version 2021),2021.1.4,119.96808848856989,
,,,,Conditions/Version_1/twoback(3)_v1.xlsx,New rule: Press 'space' when you see 2-back (i.e. the same letter as the one that appeared 2 letters ago.),o,None,,,,,,,,,0,10,10,10,0,1,1,1,,,,,,,,,,,,,,,,,,,,,,,,,,,,,,,,,,,,,,,,,,,,,,,,,,,,,,,,,,,,,,,,,,,,,1.1526,785.4975707999997,None,None,1,785.4975707999997,None,,P026,FENCOG,1,Pre,2022_Feb_23_1118,N-Back (New Version 2021),2021.1.4,119.96808848856989,
,,,,Conditions/Version_1/twoback(3)_v1.xlsx,New rule: Press 'space' when you see 2-back (i.e. the same letter as the one that appeared 2 letters ago.),P,None,,,,,,,,,0,10,10,10,0,2,2,2,,,,,,,,,,,,,,,,,,,,,,,,,,,,,,,,,,,,,,,,,,,,,,,,,,,,,,,,,,,,,,,,,,,,,1.7044,789.2048091000001,None,None,1,789.2048091000001,None,,P026,FENCOG,1,Pre,2022_Feb_23_1118,N-Back (New Version 2021),2021.1.4,119.96808848856989,
,,,,Conditions/Version_1/twoback(3)_v1.xlsx,New rule: Press 'space' when you see 2-back (i.e. the same letter as the one that appeared 2 letters ago.),z,None,,,,,,,,,0,10,10,10,0,3,3,3,,,,,,,,,,,,,,,,,,,,,,,,,,,,,,,,,,,,,,,,,,,,,,,,,,,,,,,,,,,,,,,,,,,,,1.6734,792.8799784999997,None,None,1,792.8799784999997,None,,P026,FENCOG,1,Pre,2022_Feb_23_1118,N-Back (New Version 2021),2021.1.4,119.96808848856989,
,,,,Conditions/Version_1/twoback(3)_v1.xlsx,New rule: Press 'space' when you see 2-back (i.e. the same letter as the one that appeared 2 letters ago.),X,None,,,,,,,,,0,10,10,10,0,4,4,4,,,,,,,,,,,,,,,,,,,,,,,,,,,,,,,,,,,,,,,,,,,,,,,,,,,,,,,,,,,,,,,,,,,,,1.1712,796.0611431000002,None,None,1,796.0611431000002,None,,P026,FENCOG,1,Pre,2022_Feb_23_1118,N-Back (New Version 2021),2021.1.4,119.96808848856989,
,,,,Conditions/Version_1/twoback(3)_v1.xlsx,New rule: Press 'space' when you see 2-back (i.e. the same letter as the one that appeared 2 letters ago.),z,space,,,,,,,,,0,10,10,10,0,5,5,5,,,,,,,,,,,,,,,,,,,,,,,,,,,,,,,,,,,,,,,,,,,,,,,,,,,,,,,,,,,,,,,,,,,,,1.1774,799.2435865000002,None,space,1,799.2435865000002,None,0.45819639999990613,P026,FENCOG,1,Pre,2022_Feb_23_1118,N-Back (New Version 2021),2021.1.4,119.96808848856989,
,,,,Conditions/Version_1/twoback(3)_v1.xlsx,New rule: Press 'space' when you see 2-back (i.e. the same letter as the one that appeared 2 letters ago.),x,space,,,,,,,,,0,10,10,10,0,6,6,6,,,,,,,,,,,,,,,,,,,,,,,,,,,,,,,,,,,,,,,,,,,,,,,,,,,,,,,,,,,,,,,,,,,,,1.7788,803.0262165999998,None,space,1,803.0262165999998,None,0.4196921000002476,P026,FENCOG,1,Pre,2022_Feb_23_1118,N-Back (New Version 2021),2021.1.4,119.96808848856989,
,,,,Conditions/Version_1/twoback(3)_v1.xlsx,New rule: Press 'space' when you see 2-back (i.e. the same letter as the one that appeared 2 letters ago.),c,None,,,,,,,,,0,10,10,10,0,7,7,7,,,,,,,,,,,,,,,,,,,,,,,,,,,,,,,,,,,,,,,,,,,,,,,,,,,,,,,,,,,,,,,,,,,,,1.0906,806.1164750000003,None,None,1,806.1164750000003,None,,P026,FENCOG,1,Pre,2022_Feb_23_1118,N-Back (New Version 2021),2021.1.4,119.96808848856989,
,,,,Conditions/Version_1/twoback(3)_v1.xlsx,New rule: Press 'space' when you see 2-back (i.e. the same letter as the one that appeared 2 letters ago.),i,None,,,,,,,,,0,10,10,10,0,8,8,8,,,,,,,,,,,,,,,,,,,,,,,,,,,,,,,,,,,,,,,,,,,,,,,,,,,,,,,,,,,,,,,,,,,,,1.4378,809.5571854999994,None,None,1,809.5571854999994,None,,P026,FENCOG,1,Pre,2022_Feb_23_1118,N-Back (New Version 2021),2021.1.4,119.96808848856989,
,,,,Conditions/Version_1/twoback(3)_v1.xlsx,New rule: Press 'space' when you see 2-back (i.e. the same letter as the one that appeared 2 letters ago.),C,space,,,,,,,,,0,10,10,10,0,9,9,9,,,,,,,,,,,,,,,,,,,,,,,,,,,,,,,,,,,,,,,,,,,,,,,,,,,,,,,,,,,,,,,,,,,,,1.1092,812.6646298999999,None,space,1,812.6646298999999,None,0.8610577999997986,P026,FENCOG,1,Pre,2022_Feb_23_1118,N-Back (New Version 2021),2021.1.4,119.96808848856989,
,,,,Conditions/Version_1/twoback(3)_v1.xlsx,New rule: Press 'space' when you see 2-back (i.e. the same letter as the one that appeared 2 letters ago.),,,,,,,,,,,0,10,10,10,,,,,,,,,,,,,,,,,,,,,,,,,,,,,,,,,,,,,,,,,,,,,,,,,,,,,,,,,,,,,,,,,,,,,,,,,,,,,,,,,P026,FENCOG,1,Pre,2022_Feb_23_1118,N-Back (New Version 2021),2021.1.4,119.96808848856989,
,,,,Conditions/Version_1/oneback(3)_v1.xlsx,New rule: Press 'space' when you see 1-back (i.e. the same letter as the one that appeared 1 letter ago.),o,None,,,,,,,,,0,11,11,11,0,0,0,0,,,,,,,,,,,,,,,,,,,,,,,,,,,,,,,,,,,,,,,,,,,,,,,,,,,,,,,,,,,814.6820842000002,None,817.6658076999997,None,space,0.2761160000000018,817.6658076999997,None,814.6820842000002,None,1.1898,819.1552721000003,None,None,1,819.1552721000003,None,,P026,FENCOG,1,Pre,2022_Feb_23_1118,N-Back (New Version 2021),2021.1.4,119.96808848856989,
,,,,Conditions/Version_1/oneback(3)_v1.xlsx,New rule: Press 'space' when you see 1-back (i.e. the same letter as the one that appeared 1 letter ago.),O,space,,,,,,,,,0,11,11,11,0,1,1,1,,,,,,,,,,,,,,,,,,,,,,,,,,,,,,,,,,,,,,,,,,,,,,,,,,,,,,,,,,,,,,,,,,,,,1.6796,822.8456424000001,None,space,1,822.8456424000001,None,0.4800491999994847,P026,FENCOG,1,Pre,2022_Feb_23_1118,N-Back (New Version 2021),2021.1.4,119.96808848856989,
,,,,Conditions/Version_1/oneback(3)_v1.xlsx,New rule: Press 'space' when you see 1-back (i.e. the same letter as the one that appeared 1 letter ago.),h,None,,,,,,,,,0,11,11,11,0,2,2,2,,,,,,,,,,,,,,,,,,,,,,,,,,,,,,,,,,,,,,,,,,,,,,,,,,,,,,,,,,,,,,,,,,,,,1.6548,826.5105151000002,None,None,1,826.5105151000002,None,,P026,FENCOG,1,Pre,2022_Feb_23_1118,N-Back (New Version 2021),2021.1.4,119.96808848856989,
,,,,Conditions/Version_1/oneback(3)_v1.xlsx,New rule: Press 'space' when you see 1-back (i.e. the same letter as the one that appeared 1 letter ago.),g,None,,,,,,,,,0,11,11,11,0,3,3,3,,,,,,,,,,,,,,,,,,,,,,,,,,,,,,,,,,,,,,,,,,,,,,,,,,,,,,,,,,,,,,,,,,,,,1.2394,829.7512219999994,None,None,1,829.7512219999994,None,,P026,FENCOG,1,Pre,2022_Feb_23_1118,N-Back (New Version 2021),2021.1.4,119.96808848856989,
,,,,Conditions/Version_1/oneback(3)_v1.xlsx,New rule: Press 'space' when you see 1-back (i.e. the same letter as the one that appeared 1 letter ago.),n,None,,,,,,,,,0,11,11,11,0,4,4,4,,,,,,,,,,,,,,,,,,,,,,,,,,,,,,,,,,,,,,,,,,,,,,,,,,,,,,,,,,,,,,,,,,,,,1.3014,833.0585587,None,None,1,833.0585587,None,,P026,FENCOG,1,Pre,2022_Feb_23_1118,N-Back (New Version 2021),2021.1.4,119.96808848856989,
,,,,Conditions/Version_1/oneback(3)_v1.xlsx,New rule: Press 'space' when you see 1-back (i.e. the same letter as the one that appeared 1 letter ago.),z,None,,,,,,,,,0,11,11,11,0,5,5,5,,,,,,,,,,,,,,,,,,,,,,,,,,,,,,,,,,,,,,,,,,,,,,,,,,,,,,,,,,,,,,,,,,,,,1.847,836.9074478999996,None,None,1,836.9074478999996,None,,P026,FENCOG,1,Pre,2022_Feb_23_1118,N-Back (New Version 2021),2021.1.4,119.96808848856989,
,,,,Conditions/Version_1/oneback(3)_v1.xlsx,New rule: Press 'space' when you see 1-back (i.e. the same letter as the one that appeared 1 letter ago.),X,None,,,,,,,,,0,11,11,11,0,6,6,6,,,,,,,,,,,,,,,,,,,,,,,,,,,,,,,,,,,,,,,,,,,,,,,,,,,,,,,,,,,,,,,,,,,,,1.9214,840.831302,None,None,1,840.831302,None,,P026,FENCOG,1,Pre,2022_Feb_23_1118,N-Back (New Version 2021),2021.1.4,119.96808848856989,
,,,,Conditions/Version_1/oneback(3)_v1.xlsx,New rule: Press 'space' when you see 1-back (i.e. the same letter as the one that appeared 1 letter ago.),r,None,,,,,,,,,0,11,11,11,0,7,7,7,,,,,,,,,,,,,,,,,,,,,,,,,,,,,,,,,,,,,,,,,,,,,,,,,,,,,,,,,,,,,,,,,,,,,1.8284,844.6634806999996,None,None,1,844.6634806999996,None,,P026,FENCOG,1,Pre,2022_Feb_23_1118,N-Back (New Version 2021),2021.1.4,119.96808848856989,
,,,,Conditions/Version_1/oneback(3)_v1.xlsx,New rule: Press 'space' when you see 1-back (i.e. the same letter as the one that appeared 1 letter ago.),r,space,,,,,,,,,0,11,11,11,0,8,8,8,,,,,,,,,,,,,,,,,,,,,,,,,,,,,,,,,,,,,,,,,,,,,,,,,,,,,,,,,,,,,,,,,,,,,1.754,848.4210515999998,None,space,1,848.4210515999998,None,0.6807734999993045,P026,FENCOG,1,Pre,2022_Feb_23_1118,N-Back (New Version 2021),2021.1.4,119.96808848856989,
,,,,Conditions/Version_1/oneback(3)_v1.xlsx,New rule: Press 'space' when you see 1-back (i.e. the same letter as the one that appeared 1 letter ago.),P,None,,,,,,,,,0,11,11,11,0,9,9,9,,,,,,,,,,,,,,,,,,,,,,,,,,,,,,,,,,,,,,,,,,,,,,,,,,,,,,,,,,,,,,,,,,,,,1.3324,851.7864355999995,None,None,1,851.7864355999995,None,,P026,FENCOG,1,Pre,2022_Feb_23_1118,N-Back (New Version 2021),2021.1.4,119.96808848856989,
,,,,Conditions/Version_1/oneback(3)_v1.xlsx,New rule: Press 'space' when you see 1-back (i.e. the same letter as the one that appeared 1 letter ago.),,,,,,,,,,,0,11,11,11,,,,,,,,,,,,,,,,,,,,,,,,,,,,,,,,,,,,,,,,,,,,,,,,,,,,,,,,,,,,,,,,,,,,,,,,,,,,,,,,,P026,FENCOG,1,Pre,2022_Feb_23_1118,N-Back (New Version 2021),2021.1.4,119.96808848856989,
,,,,Conditions/Version_1/twoback(4)_v1.xlsx,New rule: Press 'space' when you see 2-back (i.e. the same letter as the one that appeared 2 letters ago.),r,None,,,,,,,,,0,12,12,12,0,0,0,0,,,,,,,,,,,,,,,,,,,,,,,,,,,,,,,,,,,,,,,,,,,,,,,,,,,,,,,,,,,853.7787241000001,None,856.7622189999997,None,space,0.44378359999973327,856.7622189999997,None,853.7787241000001,None,1.6176,858.8510198999998,None,None,1,858.8510198999998,None,,P026,FENCOG,1,Pre,2022_Feb_23_1118,N-Back (New Version 2021),2021.1.4,119.96808848856989,
,,,,Conditions/Version_1/twoback(4)_v1.xlsx,New rule: Press 'space' when you see 2-back (i.e. the same letter as the one that appeared 2 letters ago.),T,None,,,,,,,,,0,12,12,12,0,1,1,1,,,,,,,,,,,,,,,,,,,,,,,,,,,,,,,,,,,,,,,,,,,,,,,,,,,,,,,,,,,,,,,,,,,,,1.8966,862.7498556999994,None,None,1,862.7498556999994,None,,P026,FENCOG,1,Pre,2022_Feb_23_1118,N-Back (New Version 2021),2021.1.4,119.96808848856989,
,,,,Conditions/Version_1/twoback(4)_v1.xlsx,New rule: Press 'space' when you see 2-back (i.e. the same letter as the one that appeared 2 letters ago.),o,None,,,,,,,,,0,12,12,12,0,2,2,2,,,,,,,,,,,,,,,,,,,,,,,,,,,,,,,,,,,,,,,,,,,,,,,,,,,,,,,,,,,,,,,,,,,,,1.8842,866.6403119000001,None,None,1,866.6403119000001,None,,P026,FENCOG,1,Pre,2022_Feb_23_1118,N-Back (New Version 2021),2021.1.4,119.96808848856989,
,,,,Conditions/Version_1/twoback(4)_v1.xlsx,New rule: Press 'space' when you see 2-back (i.e. the same letter as the one that appeared 2 letters ago.),p,None,,,,,,,,,0,12,12,12,0,3,3,3,,,,,,,,,,,,,,,,,,,,,,,,,,,,,,,,,,,,,,,,,,,,,,,,,,,,,,,,,,,,,,,,,,,,,1.351,869.9923557999996,None,None,1,869.9923557999996,None,,P026,FENCOG,1,Pre,2022_Feb_23_1118,N-Back (New Version 2021),2021.1.4,119.96808848856989,
,,,,Conditions/Version_1/twoback(4)_v1.xlsx,New rule: Press 'space' when you see 2-back (i.e. the same letter as the one that appeared 2 letters ago.),p,None,,,,,,,,,0,12,12,12,0,4,4,4,,,,,,,,,,,,,,,,,,,,,,,,,,,,,,,,,,,,,,,,,,,,,,,,,,,,,,,,,,,,,,,,,,,,,1.5494,873.5466093999999,None,None,1,873.5466093999999,None,,P026,FENCOG,1,Pre,2022_Feb_23_1118,N-Back (New Version 2021),2021.1.4,119.96808848856989,
,,,,Conditions/Version_1/twoback(4)_v1.xlsx,New rule: Press 'space' when you see 2-back (i.e. the same letter as the one that appeared 2 letters ago.),y,None,,,,,,,,,0,12,12,12,0,5,5,5,,,,,,,,,,,,,,,,,,,,,,,,,,,,,,,,,,,,,,,,,,,,,,,,,,,,,,,,,,,,,,,,,,,,,1.7602,877.3127467999998,None,None,1,877.3127467999998,None,,P026,FENCOG,1,Pre,2022_Feb_23_1118,N-Back (New Version 2021),2021.1.4,119.96808848856989,
,,,,Conditions/Version_1/twoback(4)_v1.xlsx,New rule: Press 'space' when you see 2-back (i.e. the same letter as the one that appeared 2 letters ago.),P,space,,,,,,,,,0,12,12,12,0,6,6,6,,,,,,,,,,,,,,,,,,,,,,,,,,,,,,,,,,,,,,,,,,,,,,,,,,,,,,,,,,,,,,,,,,,,,1.3634,880.6865510000002,None,space,1,880.6865510000002,None,1.1833176999998614,P026,FENCOG,1,Pre,2022_Feb_23_1118,N-Back (New Version 2021),2021.1.4,119.96808848856989,
,,,,Conditions/Version_1/twoback(4)_v1.xlsx,New rule: Press 'space' when you see 2-back (i.e. the same letter as the one that appeared 2 letters ago.),y,None,,,,,,,,,0,12,12,12,0,7,7,7,,,,,,,,,,,,,,,,,,,,,,,,,,,,,,,,,,,,,,,,,,,,,,,,,,,,,,,,,,,,,,,,,,,,,1.4378,884.1271462999998,None,space,0,884.1271462999998,None,0.5985916999998153,P026,FENCOG,1,Pre,2022_Feb_23_1118,N-Back (New Version 2021),2021.1.4,119.96808848856989,
,,,,Conditions/Version_1/twoback(4)_v1.xlsx,New rule: Press 'space' when you see 2-back (i.e. the same letter as the one that appeared 2 letters ago.),y,space,,,,,,,,,0,12,12,12,0,8,8,8,,,,,,,,,,,,,,,,,,,,,,,,,,,,,,,,,,,,,,,,,,,,,,,,,,,,,,,,,,,,,,,,,,,,,1.0844,887.2175881999997,None,None,0,887.2175881999997,None,,P026,FENCOG,1,Pre,2022_Feb_23_1118,N-Back (New Version 2021),2021.1.4,119.96808848856989,
,,,,Conditions/Version_1/twoback(4)_v1.xlsx,New rule: Press 'space' when you see 2-back (i.e. the same letter as the one that appeared 2 letters ago.),,,,,,,,,,,0,12,12,12,,,,,,,,,,,,,,,,,,,,,,,,,,,,,,,,,,,,,,,,,,,,,,,,,,,,,,,,,,,,,,,,,,,,,,,,,,,,,,,,,P026,FENCOG,1,Pre,2022_Feb_23_1118,N-Back (New Version 2021),2021.1.4,119.96808848856989,
,,,,Conditions/Version_1/zeroback(4)_v1.xlsx,New rule: Press 'space' when you see the letter 'x' or 'X'.,o,None,,,,,,,,,0,13,13,13,0,0,0,0,,,,,,,,,,,,,,,,,,,,,,,,,,,,,,,,,,,,,,,,,,,,,,,,,,,,,,,,,,,889.2375557999999,None,892.2260517999998,None,space,0.307619799999884,892.2260517999998,None,889.2375557999999,None,1.4316,893.9946466999995,None,None,1,893.9946466999995,None,,P026,FENCOG,1,Pre,2022_Feb_23_1118,N-Back (New Version 2021),2021.1.4,119.96808848856989,
,,,,Conditions/Version_1/zeroback(4)_v1.xlsx,New rule: Press 'space' when you see the letter 'x' or 'X'.,X,space,,,,,,,,,0,13,13,13,0,1,1,1,,,,,,,,,,,,,,,,,,,,,,,,,,,,,,,,,,,,,,,,,,,,,,,,,,,,,,,,,,,,,,,,,,,,,1.2518,897.2563540999995,None,space,1,897.2563540999995,None,0.39731990000018413,P026,FENCOG,1,Pre,2022_Feb_23_1118,N-Back (New Version 2021),2021.1.4,119.96808848856989,
,,,,Conditions/Version_1/zeroback(4)_v1.xlsx,New rule: Press 'space' when you see the letter 'x' or 'X'.,p,None,,,,,,,,,0,13,13,13,0,2,2,2,,,,,,,,,,,,,,,,,,,,,,,,,,,,,,,,,,,,,,,,,,,,,,,,,,,,,,,,,,,,,,,,,,,,,1.723,900.9830994999998,None,None,1,900.9830994999998,None,,P026,FENCOG,1,Pre,2022_Feb_23_1118,N-Back (New Version 2021),2021.1.4,119.96808848856989,
,,,,Conditions/Version_1/zeroback(4)_v1.xlsx,New rule: Press 'space' when you see the letter 'x' or 'X'.,m,None,,,,,,,,,0,13,13,13,0,3,3,3,,,,,,,,,,,,,,,,,,,,,,,,,,,,,,,,,,,,,,,,,,,,,,,,,,,,,,,,,,,,,,,,,,,,,1.2952,904.2877101999998,None,None,1,904.2877101999998,None,,P026,FENCOG,1,Pre,2022_Feb_23_1118,N-Back (New Version 2021),2021.1.4,119.96808848856989,
,,,,Conditions/Version_1/zeroback(4)_v1.xlsx,New rule: Press 'space' when you see the letter 'x' or 'X'.,n,None,,,,,,,,,0,13,13,13,0,4,4,4,,,,,,,,,,,,,,,,,,,,,,,,,,,,,,,,,,,,,,,,,,,,,,,,,,,,,,,,,,,,,,,,,,,,,1.3138,907.6079402999999,None,None,1,907.6079402999999,None,,P026,FENCOG,1,Pre,2022_Feb_23_1118,N-Back (New Version 2021),2021.1.4,119.96808848856989,
,,,,Conditions/Version_1/zeroback(4)_v1.xlsx,New rule: Press 'space' when you see the letter 'x' or 'X'.,m,None,,,,,,,,,0,13,13,13,0,5,5,5,,,,,,,,,,,,,,,,,,,,,,,,,,,,,,,,,,,,,,,,,,,,,,,,,,,,,,,,,,,,,,,,,,,,,1.6796,911.3192291,None,None,1,911.3192291,None,,P026,FENCOG,1,Pre,2022_Feb_23_1118,N-Back (New Version 2021),2021.1.4,119.96808848856989,
,,,,Conditions/Version_1/zeroback(4)_v1.xlsx,New rule: Press 'space' when you see the letter 'x' or 'X'.,C,None,,,,,,,,,0,13,13,13,0,6,6,6,,,,,,,,,,,,,,,,,,,,,,,,,,,,,,,,,,,,,,,,,,,,,,,,,,,,,,,,,,,,,,,,,,,,,1.7168,915.034451,None,None,1,915.034451,None,,P026,FENCOG,1,Pre,2022_Feb_23_1118,N-Back (New Version 2021),2021.1.4,119.96808848856989,
,,,,Conditions/Version_1/zeroback(4)_v1.xlsx,New rule: Press 'space' when you see the letter 'x' or 'X'.,m,None,,,,,,,,,0,13,13,13,0,7,7,7,,,,,,,,,,,,,,,,,,,,,,,,,,,,,,,,,,,,,,,,,,,,,,,,,,,,,,,,,,,,,,,,,,,,,1.0286,918.0670949999999,None,None,1,918.0670949999999,None,,P026,FENCOG,1,Pre,2022_Feb_23_1118,N-Back (New Version 2021),2021.1.4,119.96808848856989,
,,,,Conditions/Version_1/zeroback(4)_v1.xlsx,New rule: Press 'space' when you see the letter 'x' or 'X'.,p,None,,,,,,,,,0,13,13,13,0,8,8,8,,,,,,,,,,,,,,,,,,,,,,,,,,,,,,,,,,,,,,,,,,,,,,,,,,,,,,,,,,,,,,,,,,,,,1.1588,921.2244967000001,None,None,1,921.2244967000001,None,,P026,FENCOG,1,Pre,2022_Feb_23_1118,N-Back (New Version 2021),2021.1.4,119.96808848856989,
,,,,Conditions/Version_1/zeroback(4)_v1.xlsx,New rule: Press 'space' when you see the letter 'x' or 'X'.,X,space,,,,,,,,,0,13,13,13,0,9,9,9,,,,,,,,,,,,,,,,,,,,,,,,,,,,,,,,,,,,,,,,,,,,,,,,,,,,,,,,,,,,,,,,,,,,,1.2766,924.5075340999997,None,space,1,924.5075340999997,None,0.39420700000027864,P026,FENCOG,1,Pre,2022_Feb_23_1118,N-Back (New Version 2021),2021.1.4,119.96808848856989,
,,,,Conditions/Version_1/zeroback(4)_v1.xlsx,New rule: Press 'space' when you see the letter 'x' or 'X'.,,,,,,,,,,,0,13,13,13,,,,,,,,,,,,,,,,,,,,,,,,,,,,,,,,,,,,,,,,,,,,,,,,,,,,,,,,,,,,,,,,,,,,,,,,,,,,,,,,,P026,FENCOG,1,Pre,2022_Feb_23_1118,N-Back (New Version 2021),2021.1.4,119.96808848856989,
,,,,Conditions/Version_1/oneback(4)_v1.xlsx,New rule: Press 'space' when you see 1-back (i.e. the same letter as the one that appeared 1 letter ago.),w,None,,,,,,,,,0,14,14,14,0,0,0,0,,,,,,,,,,,,,,,,,,,,,,,,,,,,,,,,,,,,,,,,,,,,,,,,,,,,,,,,,,,926.5318974999996,None,929.5151254999996,None,space,0.27468580000004295,929.5151254999996,None,926.5318974999996,None,1.4006,931.2142712,None,None,1,931.2142712,None,,P026,FENCOG,1,Pre,2022_Feb_23_1118,N-Back (New Version 2021),2021.1.4,119.96808848856989,
,,,,Conditions/Version_1/oneback(4)_v1.xlsx,New rule: Press 'space' when you see 1-back (i.e. the same letter as the one that appeared 1 letter ago.),q,None,,,,,,,,,0,14,14,14,0,1,1,1,,,,,,,,,,,,,,,,,,,,,,,,,,,,,,,,,,,,,,,,,,,,,,,,,,,,,,,,,,,,,,,,,,,,,1.5122,934.7370134999996,None,None,1,934.7370134999996,None,,P026,FENCOG,1,Pre,2022_Feb_23_1118,N-Back (New Version 2021),2021.1.4,119.96808848856989,
,,,,Conditions/Version_1/oneback(4)_v1.xlsx,New rule: Press 'space' when you see 1-back (i.e. the same letter as the one that appeared 1 letter ago.),i,None,,,,,,,,,0,14,14,14,0,2,2,2,,,,,,,,,,,,,,,,,,,,,,,,,,,,,,,,,,,,,,,,,,,,,,,,,,,,,,,,,,,,,,,,,,,,,1.134,937.8695151999996,None,None,1,937.8695151999996,None,,P026,FENCOG,1,Pre,2022_Feb_23_1118,N-Back (New Version 2021),2021.1.4,119.96808848856989,
,,,,Conditions/Version_1/oneback(4)_v1.xlsx,New rule: Press 'space' when you see 1-back (i.e. the same letter as the one that appeared 1 letter ago.),t,None,,,,,,,,,0,14,14,14,0,3,3,3,,,,,,,,,,,,,,,,,,,,,,,,,,,,,,,,,,,,,,,,,,,,,,,,,,,,,,,,,,,,,,,,,,,,,1.4688,941.3434296999999,None,None,1,941.3434296999999,None,,P026,FENCOG,1,Pre,2022_Feb_23_1118,N-Back (New Version 2021),2021.1.4,119.96808848856989,
,,,,Conditions/Version_1/oneback(4)_v1.xlsx,New rule: Press 'space' when you see 1-back (i.e. the same letter as the one that appeared 1 letter ago.),v,None,,,,,,,,,0,14,14,14,0,4,4,4,,,,,,,,,,,,,,,,,,,,,,,,,,,,,,,,,,,,,,,,,,,,,,,,,,,,,,,,,,,,,,,,,,,,,1.6238,944.9678231000003,None,None,1,944.9678231000003,None,,P026,FENCOG,1,Pre,2022_Feb_23_1118,N-Back (New Version 2021),2021.1.4,119.96808848856989,
,,,,Conditions/Version_1/oneback(4)_v1.xlsx,New rule: Press 'space' when you see 1-back (i.e. the same letter as the one that appeared 1 letter ago.),V,space,,,,,,,,,0,14,14,14,0,5,5,5,,,,,,,,,,,,,,,,,,,,,,,,,,,,,,,,,,,,,,,,,,,,,,,,,,,,,,,,,,,,,,,,,,,,,1.258,948.2335825999994,None,space,1,948.2335825999994,None,0.988216800000373,P026,FENCOG,1,Pre,2022_Feb_23_1118,N-Back (New Version 2021),2021.1.4,119.96808848856989,
,,,,Conditions/Version_1/oneback(4)_v1.xlsx,New rule: Press 'space' when you see 1-back (i.e. the same letter as the one that appeared 1 letter ago.),v,space,,,,,,,,,0,14,14,14,0,6,6,6,,,,,,,,,,,,,,,,,,,,,,,,,,,,,,,,,,,,,,,,,,,,,,,,,,,,,,,,,,,,,,,,,,,,,1.9772,952.2235698,None,space,1,952.2235698,None,0.3661765999995623,P026,FENCOG,1,Pre,2022_Feb_23_1118,N-Back (New Version 2021),2021.1.4,119.96808848856989,
,,,,Conditions/Version_1/oneback(4)_v1.xlsx,New rule: Press 'space' when you see 1-back (i.e. the same letter as the one that appeared 1 letter ago.),p,None,,,,,,,,,0,14,14,14,0,7,7,7,,,,,,,,,,,,,,,,,,,,,,,,,,,,,,,,,,,,,,,,,,,,,,,,,,,,,,,,,,,,,,,,,,,,,1.661,955.8891503999998,None,None,1,955.8891503999998,None,,P026,FENCOG,1,Pre,2022_Feb_23_1118,N-Back (New Version 2021),2021.1.4,119.96808848856989,
,,,,Conditions/Version_1/oneback(4)_v1.xlsx,New rule: Press 'space' when you see 1-back (i.e. the same letter as the one that appeared 1 letter ago.),w,None,,,,,,,,,0,14,14,14,0,8,8,8,,,,,,,,,,,,,,,,,,,,,,,,,,,,,,,,,,,,,,,,,,,,,,,,,,,,,,,,,,,,,,,,,,,,,1.0844,958.9800746999995,None,None,1,958.9800746999995,None,,P026,FENCOG,1,Pre,2022_Feb_23_1118,N-Back (New Version 2021),2021.1.4,119.96808848856989,
,,,,Conditions/Version_1/oneback(4)_v1.xlsx,New rule: Press 'space' when you see 1-back (i.e. the same letter as the one that appeared 1 letter ago.),W,space,,,,,,,,,0,14,14,14,0,9,9,9,,,,,,,,,,,,,,,,,,,,,,,,,,,,,,,,,,,,,,,,,,,,,,,,,,,,,,,,,,,,,,,,,,,,,1.6548,962.6372156000002,None,space,1,962.6372156000002,None,0.6565602000000581,P026,FENCOG,1,Pre,2022_Feb_23_1118,N-Back (New Version 2021),2021.1.4,119.96808848856989,
,,,,Conditions/Version_1/oneback(4)_v1.xlsx,New rule: Press 'space' when you see 1-back (i.e. the same letter as the one that appeared 1 letter ago.),,,,,,,,,,,0,14,14,14,,,,,,,,,,,,,,,,,,,,,,,,,,,,,,,,,,,,,,,,,,,,,,,,,,,,,,,,,,,,,,,,,,,,,,,,,,,,,,,,,P026,FENCOG,1,Pre,2022_Feb_23_1118,N-Back (New Version 2021),2021.1.4,119.96808848856989,
,,,,Conditions/Version_1/threeback(4)_v1.xlsx,New rule: Press 'space' when you see 3-back (i.e. the same letter as the one that appeared 3 letters ago.),A,None,,,,,,,,,0,15,15,15,0,0,0,0,,,,,,,,,,,,,,,,,,,,,,,,,,,,,,,,,,,,,,,,,,,,,,,,,,,,,,,,,,,964.6553588000002,None,967.6381841999996,None,space,0.4476589000005333,967.6381841999996,None,964.6553588000002,None,1.2084,969.3185399999998,None,None,1,969.3185399999998,None,,P026,FENCOG,1,Pre,2022_Feb_23_1118,N-Back (New Version 2021),2021.1.4,119.96808848856989,
,,,,Conditions/Version_1/threeback(4)_v1.xlsx,New rule: Press 'space' when you see 3-back (i.e. the same letter as the one that appeared 3 letters ago.),n,None,,,,,,,,,0,15,15,15,0,1,1,1,,,,,,,,,,,,,,,,,,,,,,,,,,,,,,,,,,,,,,,,,,,,,,,,,,,,,,,,,,,,,,,,,,,,,1.8408,973.1590626000002,None,None,1,973.1590626000002,None,,P026,FENCOG,1,Pre,2022_Feb_23_1118,N-Back (New Version 2021),2021.1.4,119.96808848856989,
,,,,Conditions/Version_1/threeback(4)_v1.xlsx,New rule: Press 'space' when you see 3-back (i.e. the same letter as the one that appeared 3 letters ago.),g,None,,,,,,,,,0,15,15,15,0,2,2,2,,,,,,,,,,,,,,,,,,,,,,,,,,,,,,,,,,,,,,,,,,,,,,,,,,,,,,,,,,,,,,,,,,,,,1.7106,976.8745994999995,None,None,1,976.8745994999995,None,,P026,FENCOG,1,Pre,2022_Feb_23_1118,N-Back (New Version 2021),2021.1.4,119.96808848856989,
,,,,Conditions/Version_1/threeback(4)_v1.xlsx,New rule: Press 'space' when you see 3-back (i.e. the same letter as the one that appeared 3 letters ago.),A,space,,,,,,,,,0,15,15,15,0,3,3,3,,,,,,,,,,,,,,,,,,,,,,,,,,,,,,,,,,,,,,,,,,,,,,,,,,,,,,,,,,,,,,,,,,,,,1.8842,980.7651347999995,None,space,1,980.7651347999995,None,0.7687778999998045,P026,FENCOG,1,Pre,2022_Feb_23_1118,N-Back (New Version 2021),2021.1.4,119.96808848856989,
,,,,Conditions/Version_1/threeback(4)_v1.xlsx,New rule: Press 'space' when you see 3-back (i.e. the same letter as the one that appeared 3 letters ago.),p,None,,,,,,,,,0,15,15,15,0,4,4,4,,,,,,,,,,,,,,,,,,,,,,,,,,,,,,,,,,,,,,,,,,,,,,,,,,,,,,,,,,,,,,,,,,,,,1.6672,984.4390171,None,None,1,984.4390171,None,,P026,FENCOG,1,Pre,2022_Feb_23_1118,N-Back (New Version 2021),2021.1.4,119.96808848856989,
,,,,Conditions/Version_1/threeback(4)_v1.xlsx,New rule: Press 'space' when you see 3-back (i.e. the same letter as the one that appeared 3 letters ago.),O,None,,,,,,,,,0,15,15,15,0,5,5,5,,,,,,,,,,,,,,,,,,,,,,,,,,,,,,,,,,,,,,,,,,,,,,,,,,,,,,,,,,,,,,,,,,,,,1.5618,988.0046929999994,None,None,1,988.0046929999994,None,,P026,FENCOG,1,Pre,2022_Feb_23_1118,N-Back (New Version 2021),2021.1.4,119.96808848856989,
,,,,Conditions/Version_1/threeback(4)_v1.xlsx,New rule: Press 'space' when you see 3-back (i.e. the same letter as the one that appeared 3 letters ago.),a,space,,,,,,,,,0,15,15,15,0,6,6,6,,,,,,,,,,,,,,,,,,,,,,,,,,,,,,,,,,,,,,,,,,,,,,,,,,,,,,,,,,,,,,,,,,,,,1.7664,991.7702506,None,space,1,991.7702506,None,1.6918592000001809,P026,FENCOG,1,Pre,2022_Feb_23_1118,N-Back (New Version 2021),2021.1.4,119.96808848856989,
,,,,Conditions/Version_1/threeback(4)_v1.xlsx,New rule: Press 'space' when you see 3-back (i.e. the same letter as the one that appeared 3 letters ago.),p,space,,,,,,,,,0,15,15,15,0,7,7,7,,,,,,,,,,,,,,,,,,,,,,,,,,,,,,,,,,,,,,,,,,,,,,,,,,,,,,,,,,,,,,,,,,,,,1.4068,995.1776284000002,None,space,1,995.1776284000002,None,1.4761576000000787,P026,FENCOG,1,Pre,2022_Feb_23_1118,N-Back (New Version 2021),2021.1.4,119.96808848856989,
,,,,Conditions/Version_1/threeback(4)_v1.xlsx,New rule: Press 'space' when you see 3-back (i.e. the same letter as the one that appeared 3 letters ago.),x,None,,,,,,,,,0,15,15,15,0,8,8,8,,,,,,,,,,,,,,,,,,,,,,,,,,,,,,,,,,,,,,,,,,,,,,,,,,,,,,,,,,,,,,,,,,,,,1.9462,999.1264389000003,None,None,1,999.1264389000003,None,,P026,FENCOG,1,Pre,2022_Feb_23_1118,N-Back (New Version 2021),2021.1.4,119.96808848856989,
,,,,Conditions/Version_1/threeback(4)_v1.xlsx,New rule: Press 'space' when you see 3-back (i.e. the same letter as the one that appeared 3 letters ago.),X,None,,,,,,,,,0,15,15,15,0,9,9,9,,,,,,,,,,,,,,,,,,,,,,,,,,,,,,,,,,,,,,,,,,,,,,,,,,,,,,,,,,,,,,,,,,,,,1.1216,1002.2505858999998,None,None,1,1002.2505858999998,None,,P026,FENCOG,1,Pre,2022_Feb_23_1118,N-Back (New Version 2021),2021.1.4,119.96808848856989,
,,,,Conditions/Version_1/threeback(4)_v1.xlsx,New rule: Press 'space' when you see 3-back (i.e. the same letter as the one that appeared 3 letters ago.),,,,,,,,,,,0,15,15,15,,,,,,,,,,,,,,,,,,,,,,,,,,,,,,,,,,,,,,,,,,,,,,,,,,,,,,,,,,,,,,,,,,,,,,,,,,,,,,,,,P026,FENCOG,1,Pre,2022_Feb_23_1118,N-Back (New Version 2021),2021.1.4,119.96808848856989,
