CondFileP,InstructionsP,LettersDisplayedP,CorrectnessP,CondFile,Instructions,LettersDisplayed,Correctness,practicetrials.thisRepN,practicetrials.thisTrialN,practicetrials.thisN,practicetrials.thisIndex,InnerLoopPractice.thisRepN,InnerLoopPractice.thisTrialN,InnerLoopPractice.thisN,InnerLoopPractice.thisIndex,trials.thisRepN,trials.thisTrialN,trials.thisN,trials.thisIndex,InnerLoop.thisRepN,InnerLoop.thisTrialN,InnerLoop.thisN,InnerLoop.thisIndex,TaskVersionText.started,TaskVersionText.stopped,InstrKey1.keys,InstrKey1.rt,InstrKey1.started,InstrKey1.stopped,text.started,text.stopped,key_resp_4.keys,key_resp_4.rt,key_resp_4.started,key_resp_4.stopped,text_2.started,text_2.stopped,key_resp_3.keys,key_resp_3.rt,key_resp_3.started,key_resp_3.stopped,text_3.started,text_3.stopped,key_resp_2.keys,key_resp_2.rt,key_resp_2.started,key_resp_2.stopped,PractIn1.started,PractIn1.stopped,PractIn2.started,PractIn2.stopped,PractInstructionPass.keys,PractInstructionPass.rt,PractInstructionPass.started,PractInstructionPass.stopped,PractBlock1.started,PractBlock1.stopped,ISIjitterPractice,ISI_Pract_Fixation.started,ISI_Pract_Fixation.stopped,N_backP.started,N_backP.stopped,KeyPractice.keys,KeyPractice.corr,KeyPractice.rt,KeyPractice.started,KeyPractice.stopped,text_4.started,text_4.stopped,TransitionText.started,TransitionText.stopped,key_resp_6.keys,key_resp_6.rt,key_resp_6.started,key_resp_6.stopped,text_5.started,text_5.stopped,key_resp_5.keys,key_resp_5.rt,key_resp_5.started,key_resp_5.stopped,MainInt1.started,MainInt1.stopped,MainInt2.started,MainInt2.stopped,InstructionPass.keys,InstructionPass.rt,InstructionPass.started,InstructionPass.stopped,Blocks1.started,Blocks1.stopped,ISIjitter,N_backD.started,N_backD.stopped,key_resp.keys,key_resp.corr,key_resp.started,key_resp.stopped,key_resp.rt,participant,Study Name,Task Version (required to run),PRE/POST,date,expName,psychopyVersion,frameRate,
,,,,,,,,,,,,,,,,,,,,,,,,21.35745609999867,None,space,256.3069034999935,21.849263499956578,None,,,,,,,,,,,,,,,,,,,,,,,,,,,,,,,,,,,,,,,,,,,,,,,,,,,,,,,,,,,,,,,,,,,,,,,P027,FENCOG,2,Pre,2022_Feb_28_1103,N-Back (New Version 2021),2021.1.4,120.33955011038839,
,,,,,,,,,,,,,,,,,,,,,,,,,,,,,,278.1899977999856,None,space,6.1535398999694735,278.6824945999542,None,,,,,,,,,,,,,,,,,,,,,,,,,,,,,,,,,,,,,,,,,,,,,,,,,,,,,,,,,,,,,,,,,P027,FENCOG,2,Pre,2022_Feb_28_1103,N-Back (New Version 2021),2021.1.4,120.33955011038839,
,,,,,,,,,,,,,,,,,,,,,,,,,,,,,,,,,,,,284.8708660999546,None,space,11.072294699959457,285.3638850999996,None,,,,,,,,,,,,,,,,,,,,,,,,,,,,,,,,,,,,,,,,,,,,,,,,,,,,,,,,,,,P027,FENCOG,2,Pre,2022_Feb_28_1103,N-Back (New Version 2021),2021.1.4,120.33955011038839,
,,,,,,,,,,,,,,,,,,,,,,,,,,,,,,,,,,,,,,,,,,296.46699699998135,None,space,18.907523299974855,296.9606008999981,None,,,,,,,,,,,,,,,,,,,,,,,,,,,,,,,,,,,,,,,,,,,,,,,,,,,,,P027,FENCOG,2,Pre,2022_Feb_28_1103,N-Back (New Version 2021),2021.1.4,120.33955011038839,
Conditions/Version_2Pr/zeroback(1)_v2.xlsx,Rule: Press 'space' when you see the letter 'x' or 'X'.,x,space,,,,,0,0,0,0,0,0,0,0,,,,,,,,,,,,,,,,,,,,,,,,,,,,,,,,,317.25811070000054,None,320.24619119998533,None,space,1.2701035999925807,320.24619119998533,None,317.25811070000054,None,1.39,321.53936819999944,None,322.93892519996734,None,space,1,0.3611454000347294,322.93892519996734,None,323.31592819996877,None,,,,,,,,,,,,,,,,,,,,,,,,,,,,,,,P027,FENCOG,2,Pre,2022_Feb_28_1103,N-Back (New Version 2021),2021.1.4,120.33955011038839,
Conditions/Version_2Pr/zeroback(1)_v2.xlsx,Rule: Press 'space' when you see the letter 'x' or 'X'.,R,None,,,,,0,0,0,0,0,1,1,1,,,,,,,,,,,,,,,,,,,,,,,,,,,,,,,,,,,,,,,,,,,1.565,324.81808469997486,None,326.3873732999782,None,None,1,,326.3873732999782,None,328.3922008999507,None,,,,,,,,,,,,,,,,,,,,,,,,,,,,,,,P027,FENCOG,2,Pre,2022_Feb_28_1103,N-Back (New Version 2021),2021.1.4,120.33955011038839,
Conditions/Version_2Pr/zeroback(1)_v2.xlsx,Rule: Press 'space' when you see the letter 'x' or 'X'.,p,None,,,,,0,0,0,0,0,2,2,2,,,,,,,,,,,,,,,,,,,,,,,,,,,,,,,,,,,,,,,,,,,1.59,329.89173009997467,None,331.48566489998484,None,None,1,,331.48566489998484,None,333.4906769999652,None,,,,,,,,,,,,,,,,,,,,,,,,,,,,,,,P027,FENCOG,2,Pre,2022_Feb_28_1103,N-Back (New Version 2021),2021.1.4,120.33955011038839,
Conditions/Version_2Pr/zeroback(1)_v2.xlsx,Rule: Press 'space' when you see the letter 'x' or 'X'.,O,None,,,,,0,0,0,0,0,3,3,3,,,,,,,,,,,,,,,,,,,,,,,,,,,,,,,,,,,,,,,,,,,1.965,334.99015460000373,None,336.959179700003,None,None,1,,336.959179700003,None,338.96411820000503,None,,,,,,,,,,,,,,,,,,,,,,,,,,,,,,,P027,FENCOG,2,Pre,2022_Feb_28_1103,N-Back (New Version 2021),2021.1.4,120.33955011038839,
Conditions/Version_2Pr/zeroback(1)_v2.xlsx,Rule: Press 'space' when you see the letter 'x' or 'X'.,i,None,,,,,0,0,0,0,0,4,4,4,,,,,,,,,,,,,,,,,,,,,,,,,,,,,,,,,,,,,,,,,,,1.215,340.4636067999527,None,341.6837308999966,None,None,1,,341.6837308999966,None,343.6872678999789,None,,,,,,,,,,,,,,,,,,,,,,,,,,,,,,,P027,FENCOG,2,Pre,2022_Feb_28_1103,N-Back (New Version 2021),2021.1.4,120.33955011038839,
Conditions/Version_2Pr/zeroback(1)_v2.xlsx,Rule: Press 'space' when you see the letter 'x' or 'X'.,U,None,,,,,0,0,0,0,0,5,5,5,,,,,,,,,,,,,,,,,,,,,,,,,,,,,,,,,,,,,,,,,,,1.49,345.18725509999786,None,346.6874164000037,None,None,1,,346.6874164000037,None,348.6836086999974,None,,,,,,,,,,,,,,,,,,,,,,,,,,,,,,,P027,FENCOG,2,Pre,2022_Feb_28_1103,N-Back (New Version 2021),2021.1.4,120.33955011038839,
Conditions/Version_2Pr/zeroback(1)_v2.xlsx,Rule: Press 'space' when you see the letter 'x' or 'X'.,N,None,,,,,0,0,0,0,0,6,6,6,,,,,,,,,,,,,,,,,,,,,,,,,,,,,,,,,,,,,,,,,,,1.115,350.18572889995994,None,351.3041663999902,None,None,1,,351.3041663999902,None,353.30986859998666,None,,,,,,,,,,,,,,,,,,,,,,,,,,,,,,,P027,FENCOG,2,Pre,2022_Feb_28_1103,N-Back (New Version 2021),2021.1.4,120.33955011038839,
Conditions/Version_2Pr/zeroback(1)_v2.xlsx,Rule: Press 'space' when you see the letter 'x' or 'X'.,m,None,,,,,0,0,0,0,0,7,7,7,,,,,,,,,,,,,,,,,,,,,,,,,,,,,,,,,,,,,,,,,,,1.365,354.8093846999691,None,356.1771858999855,None,None,1,,356.1771858999855,None,358.183324099984,None,,,,,,,,,,,,,,,,,,,,,,,,,,,,,,,P027,FENCOG,2,Pre,2022_Feb_28_1103,N-Back (New Version 2021),2021.1.4,120.33955011038839,
Conditions/Version_2Pr/zeroback(1)_v2.xlsx,Rule: Press 'space' when you see the letter 'x' or 'X'.,x,space,,,,,0,0,0,0,0,8,8,8,,,,,,,,,,,,,,,,,,,,,,,,,,,,,,,,,,,,,,,,,,,1.94,359.682953099953,None,361.6255981999566,None,space,1,0.3945895999786444,361.6255981999566,None,362.0329873999581,None,,,,,,,,,,,,,,,,,,,,,,,,,,,,,,,P027,FENCOG,2,Pre,2022_Feb_28_1103,N-Back (New Version 2021),2021.1.4,120.33955011038839,
Conditions/Version_2Pr/zeroback(1)_v2.xlsx,Rule: Press 'space' when you see the letter 'x' or 'X'.,X,space,,,,,0,0,0,0,0,9,9,9,,,,,,,,,,,,,,,,,,,,,,,,,,,,,,,,,,,,,,,,,,,1.24,363.54019149998203,None,364.78344389999984,None,space,1,0.37279559997841716,364.78344389999984,None,365.1661976999603,None,,,,,,,,,,,,,,,,,,,,,,,,,,,,,,,P027,FENCOG,2,Pre,2022_Feb_28_1103,N-Back (New Version 2021),2021.1.4,120.33955011038839,
Conditions/Version_2Pr/zeroback(1)_v2.xlsx,Rule: Press 'space' when you see the letter 'x' or 'X'.,,,,,,,0,0,0,0,,,,,,,,,,,,,,,,,,,,,,,,,,,,,,,,,,,,,,,,,,,,,,,,,,,,,,,,,,,,,,,,,,,,,,,,,,,,,,,,,,,,,,,,,P027,FENCOG,2,Pre,2022_Feb_28_1103,N-Back (New Version 2021),2021.1.4,120.33955011038839,
Conditions/Version_2Pr/oneback(1)_v2.xlsx,New rule: Press 'space' when you see 1-back (i.e. the same letter as the one that appeared 1 letter ago.),r,None,,,,,0,1,1,1,0,0,0,0,,,,,,,,,,,,,,,,,,,,,,,,,,,,,,,,,366.7050198999932,None,369.68236799997976,None,space,2.9217615999514237,369.68236799997976,None,366.7050198999932,None,1.865,372.6306337999995,None,374.4969622999779,None,None,1,,374.4969622999779,None,376.5029651999939,None,,,,,,,,,,,,,,,,,,,,,,,,,,,,,,,P027,FENCOG,2,Pre,2022_Feb_28_1103,N-Back (New Version 2021),2021.1.4,120.33955011038839,
Conditions/Version_2Pr/oneback(1)_v2.xlsx,New rule: Press 'space' when you see 1-back (i.e. the same letter as the one that appeared 1 letter ago.),t,None,,,,,0,1,1,1,0,1,1,1,,,,,,,,,,,,,,,,,,,,,,,,,,,,,,,,,,,,,,,,,,,1.065,378.00262019998627,None,379.0695608999813,None,None,1,,379.0695608999813,None,381.07666489999974,None,,,,,,,,,,,,,,,,,,,,,,,,,,,,,,,P027,FENCOG,2,Pre,2022_Feb_28_1103,N-Back (New Version 2021),2021.1.4,120.33955011038839,
Conditions/Version_2Pr/oneback(1)_v2.xlsx,New rule: Press 'space' when you see 1-back (i.e. the same letter as the one that appeared 1 letter ago.),Y,None,,,,,0,1,1,1,0,2,2,2,,,,,,,,,,,,,,,,,,,,,,,,,,,,,,,,,,,,,,,,,,,1.715,382.57625609997194,None,384.2939753999817,None,None,1,,384.2939753999817,None,386.30011459998786,None,,,,,,,,,,,,,,,,,,,,,,,,,,,,,,,P027,FENCOG,2,Pre,2022_Feb_28_1103,N-Back (New Version 2021),2021.1.4,120.33955011038839,
Conditions/Version_2Pr/oneback(1)_v2.xlsx,New rule: Press 'space' when you see 1-back (i.e. the same letter as the one that appeared 1 letter ago.),y,space,,,,,0,1,1,1,0,3,3,3,,,,,,,,,,,,,,,,,,,,,,,,,,,,,,,,,,,,,,,,,,,1.59,387.7997353999526,None,389.39250709995395,None,space,1,0.4120186999789439,389.39250709995395,None,389.8172367999796,None,,,,,,,,,,,,,,,,,,,,,,,,,,,,,,,P027,FENCOG,2,Pre,2022_Feb_28_1103,N-Back (New Version 2021),2021.1.4,120.33955011038839,
Conditions/Version_2Pr/oneback(1)_v2.xlsx,New rule: Press 'space' when you see 1-back (i.e. the same letter as the one that appeared 1 letter ago.),p,None,,,,,0,1,1,1,0,4,4,4,,,,,,,,,,,,,,,,,,,,,,,,,,,,,,,,,,,,,,,,,,,1.565,391.3234486999572,None,392.88967839995166,None,None,1,,392.88967839995166,None,394.8892236999818,None,,,,,,,,,,,,,,,,,,,,,,,,,,,,,,,P027,FENCOG,2,Pre,2022_Feb_28_1103,N-Back (New Version 2021),2021.1.4,120.33955011038839,
Conditions/Version_2Pr/oneback(1)_v2.xlsx,New rule: Press 'space' when you see 1-back (i.e. the same letter as the one that appeared 1 letter ago.),P,space,,,,,0,1,1,1,0,5,5,5,,,,,,,,,,,,,,,,,,,,,,,,,,,,,,,,,,,,,,,,,,,1.515,396.38884039997356,None,397.9050928999786,None,space,1,0.3791551999747753,397.9050928999786,None,398.29721869999776,None,,,,,,,,,,,,,,,,,,,,,,,,,,,,,,,P027,FENCOG,2,Pre,2022_Feb_28_1103,N-Back (New Version 2021),2021.1.4,120.33955011038839,
Conditions/Version_2Pr/oneback(1)_v2.xlsx,New rule: Press 'space' when you see 1-back (i.e. the same letter as the one that appeared 1 letter ago.),e,None,,,,,0,1,1,1,0,6,6,6,,,,,,,,,,,,,,,,,,,,,,,,,,,,,,,,,,,,,,,,,,,1.44,399.7962048999616,None,401.23943009995855,None,None,1,,401.23943009995855,None,403.2429739999934,None,,,,,,,,,,,,,,,,,,,,,,,,,,,,,,,P027,FENCOG,2,Pre,2022_Feb_28_1103,N-Back (New Version 2021),2021.1.4,120.33955011038839,
Conditions/Version_2Pr/oneback(1)_v2.xlsx,New rule: Press 'space' when you see 1-back (i.e. the same letter as the one that appeared 1 letter ago.),r,None,,,,,0,1,1,1,0,7,7,7,,,,,,,,,,,,,,,,,,,,,,,,,,,,,,,,,,,,,,,,,,,1.465,404.74475989997154,None,406.21191839996027,None,None,1,,406.21191839996027,None,408.2187338999938,None,,,,,,,,,,,,,,,,,,,,,,,,,,,,,,,P027,FENCOG,2,Pre,2022_Feb_28_1103,N-Back (New Version 2021),2021.1.4,120.33955011038839,
Conditions/Version_2Pr/oneback(1)_v2.xlsx,New rule: Press 'space' when you see 1-back (i.e. the same letter as the one that appeared 1 letter ago.),R,space,,,,,0,1,1,1,0,8,8,8,,,,,,,,,,,,,,,,,,,,,,,,,,,,,,,,,,,,,,,,,,,1.39,409.71829789999174,None,411.109312399989,None,space,1,0.6148222000338137,411.109312399989,None,411.7358442999539,None,,,,,,,,,,,,,,,,,,,,,,,,,,,,,,,P027,FENCOG,2,Pre,2022_Feb_28_1103,N-Back (New Version 2021),2021.1.4,120.33955011038839,
Conditions/Version_2Pr/oneback(1)_v2.xlsx,New rule: Press 'space' when you see 1-back (i.e. the same letter as the one that appeared 1 letter ago.),p,None,,,,,0,1,1,1,0,9,9,9,,,,,,,,,,,,,,,,,,,,,,,,,,,,,,,,,,,,,,,,,,,1.215,413.24202259996673,None,414.4582767999964,None,None,1,,414.4582767999964,None,416.45801139995456,None,,,,,,,,,,,,,,,,,,,,,,,,,,,,,,,P027,FENCOG,2,Pre,2022_Feb_28_1103,N-Back (New Version 2021),2021.1.4,120.33955011038839,
Conditions/Version_2Pr/oneback(1)_v2.xlsx,New rule: Press 'space' when you see 1-back (i.e. the same letter as the one that appeared 1 letter ago.),,,,,,,0,1,1,1,,,,,,,,,,,,,,,,,,,,,,,,,,,,,,,,,,,,,,,,,,,,,,,,,,,,,,,,,,,,,,,,,,,,,,,,,,,,,,,,,,,,,,,,,P027,FENCOG,2,Pre,2022_Feb_28_1103,N-Back (New Version 2021),2021.1.4,120.33955011038839,
Conditions/Version_2Pr/twoback(1)_v2.xlsx,New rule: Press 'space' when you see 2-back (i.e. the same letter as the one that appeared 2 letters ago.),r,None,,,,,0,2,2,2,0,0,0,0,,,,,,,,,,,,,,,,,,,,,,,,,,,,,,,,,417.98307709995424,None,420.9669181999634,None,space,4.03738669998711,420.9669181999634,None,417.98307709995424,None,1.99,425.0248708999716,None,427.0220134999836,None,None,1,,427.0220134999836,None,429.0293262999621,None,,,,,,,,,,,,,,,,,,,,,,,,,,,,,,,P027,FENCOG,2,Pre,2022_Feb_28_1103,N-Back (New Version 2021),2021.1.4,120.33955011038839,
Conditions/Version_2Pr/twoback(1)_v2.xlsx,New rule: Press 'space' when you see 2-back (i.e. the same letter as the one that appeared 2 letters ago.),P,None,,,,,0,2,2,2,0,1,1,1,,,,,,,,,,,,,,,,,,,,,,,,,,,,,,,,,,,,,,,,,,,1.89,430.52845819998765,None,432.42082909995224,None,None,1,,432.42082909995224,None,434.4277009999496,None,,,,,,,,,,,,,,,,,,,,,,,,,,,,,,,P027,FENCOG,2,Pre,2022_Feb_28_1103,N-Back (New Version 2021),2021.1.4,120.33955011038839,
Conditions/Version_2Pr/twoback(1)_v2.xlsx,New rule: Press 'space' when you see 2-back (i.e. the same letter as the one that appeared 2 letters ago.),o,None,,,,,0,2,2,2,0,2,2,2,,,,,,,,,,,,,,,,,,,,,,,,,,,,,,,,,,,,,,,,,,,1.74,435.9271661999519,None,437.6697759999661,None,None,1,,437.6697759999661,None,439.6758072999655,None,,,,,,,,,,,,,,,,,,,,,,,,,,,,,,,P027,FENCOG,2,Pre,2022_Feb_28_1103,N-Back (New Version 2021),2021.1.4,120.33955011038839,
Conditions/Version_2Pr/twoback(1)_v2.xlsx,New rule: Press 'space' when you see 2-back (i.e. the same letter as the one that appeared 2 letters ago.),p,space,,,,,0,2,2,2,0,3,3,3,,,,,,,,,,,,,,,,,,,,,,,,,,,,,,,,,,,,,,,,,,,1.14,441.175648799981,None,442.31749169999966,None,space,1,0.5746309999958612,442.31749169999966,None,442.9008257999667,None,,,,,,,,,,,,,,,,,,,,,,,,,,,,,,,P027,FENCOG,2,Pre,2022_Feb_28_1103,N-Back (New Version 2021),2021.1.4,120.33955011038839,
Conditions/Version_2Pr/twoback(1)_v2.xlsx,New rule: Press 'space' when you see 2-back (i.e. the same letter as the one that appeared 2 letters ago.),Y,None,,,,,0,2,2,2,0,4,4,4,,,,,,,,,,,,,,,,,,,,,,,,,,,,,,,,,,,,,,,,,,,1.915,444.408053799998,None,446.32572229998186,None,None,1,,446.32572229998186,None,448.33186859998386,None,,,,,,,,,,,,,,,,,,,,,,,,,,,,,,,P027,FENCOG,2,Pre,2022_Feb_28_1103,N-Back (New Version 2021),2021.1.4,120.33955011038839,
Conditions/Version_2Pr/twoback(1)_v2.xlsx,New rule: Press 'space' when you see 2-back (i.e. the same letter as the one that appeared 2 letters ago.),q,None,,,,,0,2,2,2,0,5,5,5,,,,,,,,,,,,,,,,,,,,,,,,,,,,,,,,,,,,,,,,,,,1.115,449.8313386999653,None,450.94954849994974,None,None,1,,450.94954849994974,None,452.9556011999957,None,,,,,,,,,,,,,,,,,,,,,,,,,,,,,,,P027,FENCOG,2,Pre,2022_Feb_28_1103,N-Back (New Version 2021),2021.1.4,120.33955011038839,
Conditions/Version_2Pr/twoback(1)_v2.xlsx,New rule: Press 'space' when you see 2-back (i.e. the same letter as the one that appeared 2 letters ago.),m,None,,,,,0,2,2,2,0,6,6,6,,,,,,,,,,,,,,,,,,,,,,,,,,,,,,,,,,,,,,,,,,,1.19,454.4551857999759,None,455.6472697999561,None,None,1,,455.6472697999561,None,457.6540132999653,None,,,,,,,,,,,,,,,,,,,,,,,,,,,,,,,P027,FENCOG,2,Pre,2022_Feb_28_1103,N-Back (New Version 2021),2021.1.4,120.33955011038839,
Conditions/Version_2Pr/twoback(1)_v2.xlsx,New rule: Press 'space' when you see 2-back (i.e. the same letter as the one that appeared 2 letters ago.),Q,space,,,,,0,2,2,2,0,7,7,7,,,,,,,,,,,,,,,,,,,,,,,,,,,,,,,,,,,,,,,,,,,1.09,459.1537306999671,None,460.24760899995454,None,space,1,0.5166774999815971,460.24760899995454,None,460.7794685999979,None,,,,,,,,,,,,,,,,,,,,,,,,,,,,,,,P027,FENCOG,2,Pre,2022_Feb_28_1103,N-Back (New Version 2021),2021.1.4,120.33955011038839,
Conditions/Version_2Pr/twoback(1)_v2.xlsx,New rule: Press 'space' when you see 2-back (i.e. the same letter as the one that appeared 2 letters ago.),L,None,,,,,0,2,2,2,0,8,8,8,,,,,,,,,,,,,,,,,,,,,,,,,,,,,,,,,,,,,,,,,,,1.29,462.2860892000026,None,463.5800589999999,None,None,1,,463.5800589999999,None,465.5851521999575,None,,,,,,,,,,,,,,,,,,,,,,,,,,,,,,,P027,FENCOG,2,Pre,2022_Feb_28_1103,N-Back (New Version 2021),2021.1.4,120.33955011038839,
Conditions/Version_2Pr/twoback(1)_v2.xlsx,New rule: Press 'space' when you see 2-back (i.e. the same letter as the one that appeared 2 letters ago.),q,space,,,,,0,2,2,2,0,9,9,9,,,,,,,,,,,,,,,,,,,,,,,,,,,,,,,,,,,,,,,,,,,1.415,467.0847654999816,None,468.50080859998707,None,space,1,0.5435400000424124,468.50080859998707,None,469.05963779997546,None,,,,,,,,,,,,,,,,,,,,,,,,,,,,,,,P027,FENCOG,2,Pre,2022_Feb_28_1103,N-Back (New Version 2021),2021.1.4,120.33955011038839,
Conditions/Version_2Pr/twoback(1)_v2.xlsx,New rule: Press 'space' when you see 2-back (i.e. the same letter as the one that appeared 2 letters ago.),,,,,,,0,2,2,2,,,,,,,,,,,,,,,,,,,,,,,,,,,,,,,,,,,,,,,,,,,,,,,,,,,,,,,,,,,,,,,,,,,,,,,,,,,,,,,,,,,,,,,,,P027,FENCOG,2,Pre,2022_Feb_28_1103,N-Back (New Version 2021),2021.1.4,120.33955011038839,
Conditions/Version_2Pr/threeback(1)_v2.xlsx,New rule: Press 'space' when you see 3-back (i.e. the same letter as the one that appeared 3 letters ago.),u,None,,,,,0,3,3,3,0,0,0,0,,,,,,,,,,,,,,,,,,,,,,,,,,,,,,,,,470.58186479995493,None,473.56984849995933,None,space,0.15443699999013916,473.56984849995933,None,470.58186479995493,None,1.49,473.74618259997806,None,475.24332680000225,None,None,1,,475.24332680000225,None,477.2484053999651,None,,,,,,,,,,,,,,,,,,,,,,,,,,,,,,,P027,FENCOG,2,Pre,2022_Feb_28_1103,N-Back (New Version 2021),2021.1.4,120.33955011038839,
Conditions/Version_2Pr/threeback(1)_v2.xlsx,New rule: Press 'space' when you see 3-back (i.e. the same letter as the one that appeared 3 letters ago.),U,None,,,,,0,3,3,3,0,1,1,1,,,,,,,,,,,,,,,,,,,,,,,,,,,,,,,,,,,,,,,,,,,1.565,478.74799010000424,None,480.3150105999666,None,None,1,,480.3150105999666,None,482.32199559995206,None,,,,,,,,,,,,,,,,,,,,,,,,,,,,,,,P027,FENCOG,2,Pre,2022_Feb_28_1103,N-Back (New Version 2021),2021.1.4,120.33955011038839,
Conditions/Version_2Pr/threeback(1)_v2.xlsx,New rule: Press 'space' when you see 3-back (i.e. the same letter as the one that appeared 3 letters ago.),p,None,,,,,0,3,3,3,0,2,2,2,,,,,,,,,,,,,,,,,,,,,,,,,,,,,,,,,,,,,,,,,,,1.265,483.82123159995535,None,485.0875526999589,None,None,1,,485.0875526999589,None,487.087193299958,None,,,,,,,,,,,,,,,,,,,,,,,,,,,,,,,P027,FENCOG,2,Pre,2022_Feb_28_1103,N-Back (New Version 2021),2021.1.4,120.33955011038839,
Conditions/Version_2Pr/threeback(1)_v2.xlsx,New rule: Press 'space' when you see 3-back (i.e. the same letter as the one that appeared 3 letters ago.),U,space,,,,,0,3,3,3,0,3,3,3,,,,,,,,,,,,,,,,,,,,,,,,,,,,,,,,,,,,,,,,,,,1.59,488.5866817999631,None,490.1796276999521,None,space,1,0.35279500001342967,490.1796276999521,None,490.54506279999623,None,,,,,,,,,,,,,,,,,,,,,,,,,,,,,,,P027,FENCOG,2,Pre,2022_Feb_28_1103,N-Back (New Version 2021),2021.1.4,120.33955011038839,
Conditions/Version_2Pr/threeback(1)_v2.xlsx,New rule: Press 'space' when you see 3-back (i.e. the same letter as the one that appeared 3 letters ago.),e,None,,,,,0,3,3,3,0,4,4,4,,,,,,,,,,,,,,,,,,,,,,,,,,,,,,,,,,,,,,,,,,,1.29,492.044034099963,None,493.3363713999861,None,None,1,,493.3363713999861,None,495.34293230000185,None,,,,,,,,,,,,,,,,,,,,,,,,,,,,,,,P027,FENCOG,2,Pre,2022_Feb_28_1103,N-Back (New Version 2021),2021.1.4,120.33955011038839,
Conditions/Version_2Pr/threeback(1)_v2.xlsx,New rule: Press 'space' when you see 3-back (i.e. the same letter as the one that appeared 3 letters ago.),R,None,,,,,0,3,3,3,0,5,5,5,,,,,,,,,,,,,,,,,,,,,,,,,,,,,,,,,,,,,,,,,,,1.415,496.8421973999939,None,498.25968319998356,None,None,1,,498.25968319998356,None,500.2665604999638,None,,,,,,,,,,,,,,,,,,,,,,,,,,,,,,,P027,FENCOG,2,Pre,2022_Feb_28_1103,N-Back (New Version 2021),2021.1.4,120.33955011038839,
Conditions/Version_2Pr/threeback(1)_v2.xlsx,New rule: Press 'space' when you see 3-back (i.e. the same letter as the one that appeared 3 letters ago.),p,None,,,,,0,3,3,3,0,6,6,6,,,,,,,,,,,,,,,,,,,,,,,,,,,,,,,,,,,,,,,,,,,1.165,501.76590429997304,None,502.93335659999866,None,None,1,,502.93335659999866,None,504.9402440999984,None,,,,,,,,,,,,,,,,,,,,,,,,,,,,,,,P027,FENCOG,2,Pre,2022_Feb_28_1103,N-Back (New Version 2021),2021.1.4,120.33955011038839,
Conditions/Version_2Pr/threeback(1)_v2.xlsx,New rule: Press 'space' when you see 3-back (i.e. the same letter as the one that appeared 3 letters ago.),E,space,,,,,0,3,3,3,0,7,7,7,,,,,,,,,,,,,,,,,,,,,,,,,,,,,,,,,,,,,,,,,,,1.84,506.43984679999994,None,508.283607499965,None,space,1,0.488803000014741,508.283607499965,None,508.7823306999635,None,,,,,,,,,,,,,,,,,,,,,,,,,,,,,,,P027,FENCOG,2,Pre,2022_Feb_28_1103,N-Back (New Version 2021),2021.1.4,120.33955011038839,
Conditions/Version_2Pr/threeback(1)_v2.xlsx,New rule: Press 'space' when you see 3-back (i.e. the same letter as the one that appeared 3 letters ago.),k,None,,,,,0,3,3,3,0,8,8,8,,,,,,,,,,,,,,,,,,,,,,,,,,,,,,,,,,,,,,,,,,,1.79,510.28865999996196,None,512.0829062999692,None,None,1,,512.0829062999692,None,514.0871679999982,None,,,,,,,,,,,,,,,,,,,,,,,,,,,,,,,P027,FENCOG,2,Pre,2022_Feb_28_1103,N-Back (New Version 2021),2021.1.4,120.33955011038839,
Conditions/Version_2Pr/threeback(1)_v2.xlsx,New rule: Press 'space' when you see 3-back (i.e. the same letter as the one that appeared 3 letters ago.),m,None,,,,,0,3,3,3,0,9,9,9,,,,,,,,,,,,,,,,,,,,,,,,,,,,,,,,,,,,,,,,,,,1.94,515.5870576999732,None,517.5289481999935,None,None,1,,517.5289481999935,None,519.5357696999563,None,,,,,,,,,,,,,,,,,,,,,,,,,,,,,,,P027,FENCOG,2,Pre,2022_Feb_28_1103,N-Back (New Version 2021),2021.1.4,120.33955011038839,
Conditions/Version_2Pr/threeback(1)_v2.xlsx,New rule: Press 'space' when you see 3-back (i.e. the same letter as the one that appeared 3 letters ago.),,,,,,,0,3,3,3,,,,,,,,,,,,,,,,,,,,,,,,,,,,,,,,,,,,,,,,,,,,,,,,,,,,,,,,,,,,,,,,,,,,,,,,,,,,,,,,,,,,,,,,,P027,FENCOG,2,Pre,2022_Feb_28_1103,N-Back (New Version 2021),2021.1.4,120.33955011038839,
,,,,,,,,,,,,,,,,,,,,,,,,,,,,,,,,,,,,,,,,,,,,,,,,,,,,,,,,,,,,,,,,,,,,,,521.0422133999527,None,space,87.44470390002243,521.5356199999806,None,,,,,,,,,,,,,,,,,,,,,,,,,P027,FENCOG,2,Pre,2022_Feb_28_1103,N-Back (New Version 2021),2021.1.4,120.33955011038839,
,,,,,,,,,,,,,,,,,,,,,,,,,,,,,,,,,,,,,,,,,,,,,,,,,,,,,,,,,,,,,,,,,,,,,,,,,,,,609.0073397999513,None,space,4.350738399953116,609.5017288999516,None,,,,,,,,,,,,,,,,,,,P027,FENCOG,2,Pre,2022_Feb_28_1103,N-Back (New Version 2021),2021.1.4,120.33955011038839,
,,,,Conditions/Version_1/zeroback(1)_v1.xlsx,Rule: Press 'space' when you see the letter 'x' or 'X'.,b,None,,,,,,,,,0,0,0,0,0,0,0,0,,,,,,,,,,,,,,,,,,,,,,,,,,,,,,,,,,,,,,,,,,,,,,,,,,,,,,,,,,,613.9604986999766,None,616.9508333999547,None,space,0.9014676000224426,616.9508333999547,None,613.9604986999766,None,1.8346,619.7165085999877,None,None,1,619.7165085999877,None,,P027,FENCOG,2,Pre,2022_Feb_28_1103,N-Back (New Version 2021),2021.1.4,120.33955011038839,
,,,,Conditions/Version_1/zeroback(1)_v1.xlsx,Rule: Press 'space' when you see the letter 'x' or 'X'.,T,None,,,,,,,,,0,0,0,0,0,1,1,1,,,,,,,,,,,,,,,,,,,,,,,,,,,,,,,,,,,,,,,,,,,,,,,,,,,,,,,,,,,,,,,,,,,,,1.072,622.7986067999736,None,None,1,622.7986067999736,None,,P027,FENCOG,2,Pre,2022_Feb_28_1103,N-Back (New Version 2021),2021.1.4,120.33955011038839,
,,,,Conditions/Version_1/zeroback(1)_v1.xlsx,Rule: Press 'space' when you see the letter 'x' or 'X'.,L,None,,,,,,,,,0,0,0,0,0,2,2,2,,,,,,,,,,,,,,,,,,,,,,,,,,,,,,,,,,,,,,,,,,,,,,,,,,,,,,,,,,,,,,,,,,,,,1.258,626.062758199987,None,None,1,626.062758199987,None,,P027,FENCOG,2,Pre,2022_Feb_28_1103,N-Back (New Version 2021),2021.1.4,120.33955011038839,
,,,,Conditions/Version_1/zeroback(1)_v1.xlsx,Rule: Press 'space' when you see the letter 'x' or 'X'.,x,space,,,,,,,,,0,0,0,0,0,3,3,3,,,,,,,,,,,,,,,,,,,,,,,,,,,,,,,,,,,,,,,,,,,,,,,,,,,,,,,,,,,,,,,,,,,,,1.4068,629.4712087999796,None,space,1,629.4712087999796,None,0.31709770002635196,P027,FENCOG,2,Pre,2022_Feb_28_1103,N-Back (New Version 2021),2021.1.4,120.33955011038839,
,,,,Conditions/Version_1/zeroback(1)_v1.xlsx,Rule: Press 'space' when you see the letter 'x' or 'X'.,o,None,,,,,,,,,0,0,0,0,0,4,4,4,,,,,,,,,,,,,,,,,,,,,,,,,,,,,,,,,,,,,,,,,,,,,,,,,,,,,,,,,,,,,,,,,,,,,1.5308,633.0106963999569,None,None,1,633.0106963999569,None,,P027,FENCOG,2,Pre,2022_Feb_28_1103,N-Back (New Version 2021),2021.1.4,120.33955011038839,
,,,,Conditions/Version_1/zeroback(1)_v1.xlsx,Rule: Press 'space' when you see the letter 'x' or 'X'.,P,None,,,,,,,,,0,0,0,0,0,5,5,5,,,,,,,,,,,,,,,,,,,,,,,,,,,,,,,,,,,,,,,,,,,,,,,,,,,,,,,,,,,,,,,,,,,,,1.816,636.827377199952,None,None,1,636.827377199952,None,,P027,FENCOG,2,Pre,2022_Feb_28_1103,N-Back (New Version 2021),2021.1.4,120.33955011038839,
,,,,Conditions/Version_1/zeroback(1)_v1.xlsx,Rule: Press 'space' when you see the letter 'x' or 'X'.,X,space,,,,,,,,,0,0,0,0,0,6,6,6,,,,,,,,,,,,,,,,,,,,,,,,,,,,,,,,,,,,,,,,,,,,,,,,,,,,,,,,,,,,,,,,,,,,,1.9028,640.741795799986,None,space,1,640.741795799986,None,0.3265326999826357,P027,FENCOG,2,Pre,2022_Feb_28_1103,N-Back (New Version 2021),2021.1.4,120.33955011038839,
,,,,Conditions/Version_1/zeroback(1)_v1.xlsx,Rule: Press 'space' when you see the letter 'x' or 'X'.,n,None,,,,,,,,,0,0,0,0,0,7,7,7,,,,,,,,,,,,,,,,,,,,,,,,,,,,,,,,,,,,,,,,,,,,,,,,,,,,,,,,,,,,,,,,,,,,,1.3138,644.0594190999982,None,None,1,644.0594190999982,None,,P027,FENCOG,2,Pre,2022_Feb_28_1103,N-Back (New Version 2021),2021.1.4,120.33955011038839,
,,,,Conditions/Version_1/zeroback(1)_v1.xlsx,Rule: Press 'space' when you see the letter 'x' or 'X'.,M,None,,,,,,,,,0,0,0,0,0,8,8,8,,,,,,,,,,,,,,,,,,,,,,,,,,,,,,,,,,,,,,,,,,,,,,,,,,,,,,,,,,,,,,,,,,,,,1.2332,647.3012347999611,None,None,1,647.3012347999611,None,,P027,FENCOG,2,Pre,2022_Feb_28_1103,N-Back (New Version 2021),2021.1.4,120.33955011038839,
,,,,Conditions/Version_1/zeroback(1)_v1.xlsx,Rule: Press 'space' when you see the letter 'x' or 'X'.,a,None,,,,,,,,,0,0,0,0,0,9,9,9,,,,,,,,,,,,,,,,,,,,,,,,,,,,,,,,,,,,,,,,,,,,,,,,,,,,,,,,,,,,,,,,,,,,,1.2642,650.5739148999564,None,None,1,650.5739148999564,None,,P027,FENCOG,2,Pre,2022_Feb_28_1103,N-Back (New Version 2021),2021.1.4,120.33955011038839,
,,,,Conditions/Version_1/zeroback(1)_v1.xlsx,Rule: Press 'space' when you see the letter 'x' or 'X'.,,,,,,,,,,,0,0,0,0,,,,,,,,,,,,,,,,,,,,,,,,,,,,,,,,,,,,,,,,,,,,,,,,,,,,,,,,,,,,,,,,,,,,,,,,,,,,,,,,,P027,FENCOG,2,Pre,2022_Feb_28_1103,N-Back (New Version 2021),2021.1.4,120.33955011038839,
,,,,Conditions/Version_1/oneback(1)_v1.xlsx,New rule: Press 'space' when you see 1-back (i.e. the same letter as the one that appeared 1 letter ago.),b,None,,,,,,,,,0,1,1,1,0,0,0,0,,,,,,,,,,,,,,,,,,,,,,,,,,,,,,,,,,,,,,,,,,,,,,,,,,,,,,,,,,,652.6008131999988,None,655.5887814000016,None,space,16.50373739999486,655.5887814000016,None,652.6008131999988,None,1.1526,673.2748627999681,None,None,1,673.2748627999681,None,,P027,FENCOG,2,Pre,2022_Feb_28_1103,N-Back (New Version 2021),2021.1.4,120.33955011038839,
,,,,Conditions/Version_1/oneback(1)_v1.xlsx,New rule: Press 'space' when you see 1-back (i.e. the same letter as the one that appeared 1 letter ago.),p,None,,,,,,,,,0,1,1,1,0,1,1,1,,,,,,,,,,,,,,,,,,,,,,,,,,,,,,,,,,,,,,,,,,,,,,,,,,,,,,,,,,,,,,,,,,,,,1.9772,677.2643277999596,None,None,1,677.2643277999596,None,,P027,FENCOG,2,Pre,2022_Feb_28_1103,N-Back (New Version 2021),2021.1.4,120.33955011038839,
,,,,Conditions/Version_1/oneback(1)_v1.xlsx,New rule: Press 'space' when you see 1-back (i.e. the same letter as the one that appeared 1 letter ago.),M,None,,,,,,,,,0,1,1,1,0,2,2,2,,,,,,,,,,,,,,,,,,,,,,,,,,,,,,,,,,,,,,,,,,,,,,,,,,,,,,,,,,,,,,,,,,,,,1.0534,680.3217740999535,None,None,1,680.3217740999535,None,,P027,FENCOG,2,Pre,2022_Feb_28_1103,N-Back (New Version 2021),2021.1.4,120.33955011038839,
,,,,Conditions/Version_1/oneback(1)_v1.xlsx,New rule: Press 'space' when you see 1-back (i.e. the same letter as the one that appeared 1 letter ago.),M,space,,,,,,,,,0,1,1,1,0,3,3,3,,,,,,,,,,,,,,,,,,,,,,,,,,,,,,,,,,,,,,,,,,,,,,,,,,,,,,,,,,,,,,,,,,,,,1.4068,683.7292454999988,None,space,1,683.7292454999988,None,0.4511898999917321,P027,FENCOG,2,Pre,2022_Feb_28_1103,N-Back (New Version 2021),2021.1.4,120.33955011038839,
,,,,Conditions/Version_1/oneback(1)_v1.xlsx,New rule: Press 'space' when you see 1-back (i.e. the same letter as the one that appeared 1 letter ago.),n,None,,,,,,,,,0,1,1,1,0,4,4,4,,,,,,,,,,,,,,,,,,,,,,,,,,,,,,,,,,,,,,,,,,,,,,,,,,,,,,,,,,,,,,,,,,,,,1.6548,687.3883910999866,None,None,1,687.3883910999866,None,,P027,FENCOG,2,Pre,2022_Feb_28_1103,N-Back (New Version 2021),2021.1.4,120.33955011038839,
,,,,Conditions/Version_1/oneback(1)_v1.xlsx,New rule: Press 'space' when you see 1-back (i.e. the same letter as the one that appeared 1 letter ago.),g,None,,,,,,,,,0,1,1,1,0,5,5,5,,,,,,,,,,,,,,,,,,,,,,,,,,,,,,,,,,,,,,,,,,,,,,,,,,,,,,,,,,,,,,,,,,,,,1.2208,690.6203987000044,None,None,1,690.6203987000044,None,,P027,FENCOG,2,Pre,2022_Feb_28_1103,N-Back (New Version 2021),2021.1.4,120.33955011038839,
,,,,Conditions/Version_1/oneback(1)_v1.xlsx,New rule: Press 'space' when you see 1-back (i.e. the same letter as the one that appeared 1 letter ago.),P,None,,,,,,,,,0,1,1,1,0,6,6,6,,,,,,,,,,,,,,,,,,,,,,,,,,,,,,,,,,,,,,,,,,,,,,,,,,,,,,,,,,,,,,,,,,,,,1.3386,693.968046199996,None,None,1,693.968046199996,None,,P027,FENCOG,2,Pre,2022_Feb_28_1103,N-Back (New Version 2021),2021.1.4,120.33955011038839,
,,,,Conditions/Version_1/oneback(1)_v1.xlsx,New rule: Press 'space' when you see 1-back (i.e. the same letter as the one that appeared 1 letter ago.),o,None,,,,,,,,,0,1,1,1,0,7,7,7,,,,,,,,,,,,,,,,,,,,,,,,,,,,,,,,,,,,,,,,,,,,,,,,,,,,,,,,,,,,,,,,,,,,,1.5246,697.4917461999576,None,None,1,697.4917461999576,None,,P027,FENCOG,2,Pre,2022_Feb_28_1103,N-Back (New Version 2021),2021.1.4,120.33955011038839,
,,,,Conditions/Version_1/oneback(1)_v1.xlsx,New rule: Press 'space' when you see 1-back (i.e. the same letter as the one that appeared 1 letter ago.),f,None,,,,,,,,,0,1,1,1,0,8,8,8,,,,,,,,,,,,,,,,,,,,,,,,,,,,,,,,,,,,,,,,,,,,,,,,,,,,,,,,,,,,,,,,,,,,,1.3138,700.809246299963,None,None,1,700.809246299963,None,,P027,FENCOG,2,Pre,2022_Feb_28_1103,N-Back (New Version 2021),2021.1.4,120.33955011038839,
,,,,Conditions/Version_1/oneback(1)_v1.xlsx,New rule: Press 'space' when you see 1-back (i.e. the same letter as the one that appeared 1 letter ago.),F,space,,,,,,,,,0,1,1,1,0,9,9,9,,,,,,,,,,,,,,,,,,,,,,,,,,,,,,,,,,,,,,,,,,,,,,,,,,,,,,,,,,,,,,,,,,,,,1.7044,704.5250347999972,None,space,1,704.5250347999972,None,0.4955640999833122,P027,FENCOG,2,Pre,2022_Feb_28_1103,N-Back (New Version 2021),2021.1.4,120.33955011038839,
,,,,Conditions/Version_1/oneback(1)_v1.xlsx,New rule: Press 'space' when you see 1-back (i.e. the same letter as the one that appeared 1 letter ago.),,,,,,,,,,,0,1,1,1,,,,,,,,,,,,,,,,,,,,,,,,,,,,,,,,,,,,,,,,,,,,,,,,,,,,,,,,,,,,,,,,,,,,,,,,,,,,,,,,,P027,FENCOG,2,Pre,2022_Feb_28_1103,N-Back (New Version 2021),2021.1.4,120.33955011038839,
,,,,Conditions/Version_1/twoback(1)_v1.xlsx,New rule: Press 'space' when you see 2-back (i.e. the same letter as the one that appeared 2 letters ago.),b,None,,,,,,,,,0,2,2,2,0,0,0,0,,,,,,,,,,,,,,,,,,,,,,,,,,,,,,,,,,,,,,,,,,,,,,,,,,,,,,,,,,,706.5535570000065,None,709.550673699996,None,space,315.24582280003233,709.550673699996,None,706.5535570000065,None,1.134,1025.9543413000065,None,None,1,1025.9543413000065,None,,P027,FENCOG,2,Pre,2022_Feb_28_1103,N-Back (New Version 2021),2021.1.4,120.33955011038839,
,,,,Conditions/Version_1/twoback(1)_v1.xlsx,New rule: Press 'space' when you see 2-back (i.e. the same letter as the one that appeared 2 letters ago.),h,None,,,,,,,,,0,2,2,2,0,1,1,1,,,,,,,,,,,,,,,,,,,,,,,,,,,,,,,,,,,,,,,,,,,,,,,,,,,,,,,,,,,,,,,,,,,,,1.5246,1029.4875556000043,None,None,1,1029.4875556000043,None,,P027,FENCOG,2,Pre,2022_Feb_28_1103,N-Back (New Version 2021),2021.1.4,120.33955011038839,
,,,,Conditions/Version_1/twoback(1)_v1.xlsx,New rule: Press 'space' when you see 2-back (i.e. the same letter as the one that appeared 2 letters ago.),j,None,,,,,,,,,0,2,2,2,0,2,2,2,,,,,,,,,,,,,,,,,,,,,,,,,,,,,,,,,,,,,,,,,,,,,,,,,,,,,,,,,,,,,,,,,,,,,1.0596,1032.5617137999507,None,None,1,1032.5617137999507,None,,P027,FENCOG,2,Pre,2022_Feb_28_1103,N-Back (New Version 2021),2021.1.4,120.33955011038839,
,,,,Conditions/Version_1/twoback(1)_v1.xlsx,New rule: Press 'space' when you see 2-back (i.e. the same letter as the one that appeared 2 letters ago.),H,space,,,,,,,,,0,2,2,2,0,3,3,3,,,,,,,,,,,,,,,,,,,,,,,,,,,,,,,,,,,,,,,,,,,,,,,,,,,,,,,,,,,,,,,,,,,,,1.2208,1035.7961875000037,None,space,1,1035.7961875000037,None,0.5924113999935798,P027,FENCOG,2,Pre,2022_Feb_28_1103,N-Back (New Version 2021),2021.1.4,120.33955011038839,
,,,,Conditions/Version_1/twoback(1)_v1.xlsx,New rule: Press 'space' when you see 2-back (i.e. the same letter as the one that appeared 2 letters ago.),p,None,,,,,,,,,0,2,2,2,0,4,4,4,,,,,,,,,,,,,,,,,,,,,,,,,,,,,,,,,,,,,,,,,,,,,,,,,,,,,,,,,,,,,,,,,,,,,1.2642,1039.0663882999797,None,None,1,1039.0663882999797,None,,P027,FENCOG,2,Pre,2022_Feb_28_1103,N-Back (New Version 2021),2021.1.4,120.33955011038839,
,,,,Conditions/Version_1/twoback(1)_v1.xlsx,New rule: Press 'space' when you see 2-back (i.e. the same letter as the one that appeared 2 letters ago.),p,None,,,,,,,,,0,2,2,2,0,5,5,5,,,,,,,,,,,,,,,,,,,,,,,,,,,,,,,,,,,,,,,,,,,,,,,,,,,,,,,,,,,,,,,,,,,,,1.3944,1042.465444499976,None,None,1,1042.465444499976,None,,P027,FENCOG,2,Pre,2022_Feb_28_1103,N-Back (New Version 2021),2021.1.4,120.33955011038839,
,,,,Conditions/Version_1/twoback(1)_v1.xlsx,New rule: Press 'space' when you see 2-back (i.e. the same letter as the one that appeared 2 letters ago.),w,None,,,,,,,,,0,2,2,2,0,6,6,6,,,,,,,,,,,,,,,,,,,,,,,,,,,,,,,,,,,,,,,,,,,,,,,,,,,,,,,,,,,,,,,,,,,,,1.4998,1045.9661584999994,None,None,1,1045.9661584999994,None,,P027,FENCOG,2,Pre,2022_Feb_28_1103,N-Back (New Version 2021),2021.1.4,120.33955011038839,
,,,,Conditions/Version_1/twoback(1)_v1.xlsx,New rule: Press 'space' when you see 2-back (i.e. the same letter as the one that appeared 2 letters ago.),R,None,,,,,,,,,0,2,2,2,0,7,7,7,,,,,,,,,,,,,,,,,,,,,,,,,,,,,,,,,,,,,,,,,,,,,,,,,,,,,,,,,,,,,,,,,,,,,1.7912,1049.7635982999927,None,None,1,1049.7635982999927,None,,P027,FENCOG,2,Pre,2022_Feb_28_1103,N-Back (New Version 2021),2021.1.4,120.33955011038839,
,,,,Conditions/Version_1/twoback(1)_v1.xlsx,New rule: Press 'space' when you see 2-back (i.e. the same letter as the one that appeared 2 letters ago.),a,None,,,,,,,,,0,2,2,2,0,8,8,8,,,,,,,,,,,,,,,,,,,,,,,,,,,,,,,,,,,,,,,,,,,,,,,,,,,,,,,,,,,,,,,,,,,,,1.7974,1053.5620397999883,None,None,1,1053.5620397999883,None,,P027,FENCOG,2,Pre,2022_Feb_28_1103,N-Back (New Version 2021),2021.1.4,120.33955011038839,
,,,,Conditions/Version_1/twoback(1)_v1.xlsx,New rule: Press 'space' when you see 2-back (i.e. the same letter as the one that appeared 2 letters ago.),r,space,,,,,,,,,0,2,2,2,0,9,9,9,,,,,,,,,,,,,,,,,,,,,,,,,,,,,,,,,,,,,,,,,,,,,,,,,,,,,,,,,,,,,,,,,,,,,1.6114,1057.1795764999697,None,space,1,1057.1795764999697,None,0.5689022000296973,P027,FENCOG,2,Pre,2022_Feb_28_1103,N-Back (New Version 2021),2021.1.4,120.33955011038839,
,,,,Conditions/Version_1/twoback(1)_v1.xlsx,New rule: Press 'space' when you see 2-back (i.e. the same letter as the one that appeared 2 letters ago.),,,,,,,,,,,0,2,2,2,,,,,,,,,,,,,,,,,,,,,,,,,,,,,,,,,,,,,,,,,,,,,,,,,,,,,,,,,,,,,,,,,,,,,,,,,,,,,,,,,P027,FENCOG,2,Pre,2022_Feb_28_1103,N-Back (New Version 2021),2021.1.4,120.33955011038839,
,,,,Conditions/Version_1/threeback(1)_v1.xlsx,New rule: Press 'space' when you see 3-back (i.e. the same letter as the one that appeared 3 letters ago.),r,None,,,,,,,,,0,3,3,3,0,0,0,0,,,,,,,,,,,,,,,,,,,,,,,,,,,,,,,,,,,,,,,,,,,,,,,,,,,,,,,,,,,1059.2071285999846,None,1062.1947973999777,None,space,1.5216229000361636,1062.1947973999777,None,1059.2071285999846,None,1.0596,1064.800384000002,None,None,1,1064.800384000002,None,,P027,FENCOG,2,Pre,2022_Feb_28_1103,N-Back (New Version 2021),2021.1.4,120.33955011038839,
,,,,Conditions/Version_1/threeback(1)_v1.xlsx,New rule: Press 'space' when you see 3-back (i.e. the same letter as the one that appeared 3 letters ago.),o,None,,,,,,,,,0,3,3,3,0,1,1,1,,,,,,,,,,,,,,,,,,,,,,,,,,,,,,,,,,,,,,,,,,,,,,,,,,,,,,,,,,,,,,,,,,,,,1.599,1068.401856499957,None,None,1,1068.401856499957,None,,P027,FENCOG,2,Pre,2022_Feb_28_1103,N-Back (New Version 2021),2021.1.4,120.33955011038839,
,,,,Conditions/Version_1/threeback(1)_v1.xlsx,New rule: Press 'space' when you see 3-back (i.e. the same letter as the one that appeared 3 letters ago.),P,None,,,,,,,,,0,3,3,3,0,2,2,2,,,,,,,,,,,,,,,,,,,,,,,,,,,,,,,,,,,,,,,,,,,,,,,,,,,,,,,,,,,,,,,,,,,,,1.4626,1071.8742216999526,None,None,1,1071.8742216999526,None,,P027,FENCOG,2,Pre,2022_Feb_28_1103,N-Back (New Version 2021),2021.1.4,120.33955011038839,
,,,,Conditions/Version_1/threeback(1)_v1.xlsx,New rule: Press 'space' when you see 3-back (i.e. the same letter as the one that appeared 3 letters ago.),R,space,,,,,,,,,0,3,3,3,0,3,3,3,,,,,,,,,,,,,,,,,,,,,,,,,,,,,,,,,,,,,,,,,,,,,,,,,,,,,,,,,,,,,,,,,,,,,1.5866,1075.4729737999733,None,space,1,1075.4729737999733,None,0.37142350000794977,P027,FENCOG,2,Pre,2022_Feb_28_1103,N-Back (New Version 2021),2021.1.4,120.33955011038839,
,,,,Conditions/Version_1/threeback(1)_v1.xlsx,New rule: Press 'space' when you see 3-back (i.e. the same letter as the one that appeared 3 letters ago.),p,None,,,,,,,,,0,3,3,3,0,4,4,4,,,,,,,,,,,,,,,,,,,,,,,,,,,,,,,,,,,,,,,,,,,,,,,,,,,,,,,,,,,,,,,,,,,,,1.0968,1078.5805278999615,None,None,1,1078.5805278999615,None,,P027,FENCOG,2,Pre,2022_Feb_28_1103,N-Back (New Version 2021),2021.1.4,120.33955011038839,
,,,,Conditions/Version_1/threeback(1)_v1.xlsx,New rule: Press 'space' when you see 3-back (i.e. the same letter as the one that appeared 3 letters ago.),E,None,,,,,,,,,0,3,3,3,0,5,5,5,,,,,,,,,,,,,,,,,,,,,,,,,,,,,,,,,,,,,,,,,,,,,,,,,,,,,,,,,,,,,,,,,,,,,1.3572,1081.9487576999818,None,None,1,1081.9487576999818,None,,P027,FENCOG,2,Pre,2022_Feb_28_1103,N-Back (New Version 2021),2021.1.4,120.33955011038839,
,,,,Conditions/Version_1/threeback(1)_v1.xlsx,New rule: Press 'space' when you see 3-back (i.e. the same letter as the one that appeared 3 letters ago.),e,None,,,,,,,,,0,3,3,3,0,6,6,6,,,,,,,,,,,,,,,,,,,,,,,,,,,,,,,,,,,,,,,,,,,,,,,,,,,,,,,,,,,,,,,,,,,,,1.9028,1085.8617972999928,None,None,1,1085.8617972999928,None,,P027,FENCOG,2,Pre,2022_Feb_28_1103,N-Back (New Version 2021),2021.1.4,120.33955011038839,
,,,,Conditions/Version_1/threeback(1)_v1.xlsx,New rule: Press 'space' when you see 3-back (i.e. the same letter as the one that appeared 3 letters ago.),m,None,,,,,,,,,0,3,3,3,0,7,7,7,,,,,,,,,,,,,,,,,,,,,,,,,,,,,,,,,,,,,,,,,,,,,,,,,,,,,,,,,,,,,,,,,,,,,1.2766,1089.1513252999866,None,None,1,1089.1513252999866,None,,P027,FENCOG,2,Pre,2022_Feb_28_1103,N-Back (New Version 2021),2021.1.4,120.33955011038839,
,,,,Conditions/Version_1/threeback(1)_v1.xlsx,New rule: Press 'space' when you see 3-back (i.e. the same letter as the one that appeared 3 letters ago.),n,None,,,,,,,,,0,3,3,3,0,8,8,8,,,,,,,,,,,,,,,,,,,,,,,,,,,,,,,,,,,,,,,,,,,,,,,,,,,,,,,,,,,,,,,,,,,,,1.4316,1092.5859309999505,None,None,1,1092.5859309999505,None,,P027,FENCOG,2,Pre,2022_Feb_28_1103,N-Back (New Version 2021),2021.1.4,120.33955011038839,
,,,,Conditions/Version_1/threeback(1)_v1.xlsx,New rule: Press 'space' when you see 3-back (i.e. the same letter as the one that appeared 3 letters ago.),e,space,,,,,,,,,0,3,3,3,0,9,9,9,,,,,,,,,,,,,,,,,,,,,,,,,,,,,,,,,,,,,,,,,,,,,,,,,,,,,,,,,,,,,,,,,,,,,1.2208,1095.8184535999899,None,space,1,1095.8184535999899,None,0.4821992999641225,P027,FENCOG,2,Pre,2022_Feb_28_1103,N-Back (New Version 2021),2021.1.4,120.33955011038839,
,,,,Conditions/Version_1/threeback(1)_v1.xlsx,New rule: Press 'space' when you see 3-back (i.e. the same letter as the one that appeared 3 letters ago.),,,,,,,,,,,0,3,3,3,,,,,,,,,,,,,,,,,,,,,,,,,,,,,,,,,,,,,,,,,,,,,,,,,,,,,,,,,,,,,,,,,,,,,,,,,,,,,,,,,P027,FENCOG,2,Pre,2022_Feb_28_1103,N-Back (New Version 2021),2021.1.4,120.33955011038839,
,,,,Conditions/Version_1/oneback(2)_v1.xlsx,New rule: Press 'space' when you see 1-back (i.e. the same letter as the one that appeared 1 letter ago.),q,None,,,,,,,,,0,4,4,4,0,0,0,0,,,,,,,,,,,,,,,,,,,,,,,,,,,,,,,,,,,,,,,,,,,,,,,,,,,,,,,,,,,1097.8476764999796,None,1100.8337314999662,None,space,0.7868778000120074,1100.8337314999662,None,1097.8476764999796,None,1.9896,1103.6400394999655,None,None,1,1103.6400394999655,None,,P027,FENCOG,2,Pre,2022_Feb_28_1103,N-Back (New Version 2021),2021.1.4,120.33955011038839,
,,,,Conditions/Version_1/oneback(2)_v1.xlsx,New rule: Press 'space' when you see 1-back (i.e. the same letter as the one that appeared 1 letter ago.),Q,space,,,,,,,,,0,4,4,4,0,1,1,1,,,,,,,,,,,,,,,,,,,,,,,,,,,,,,,,,,,,,,,,,,,,,,,,,,,,,,,,,,,,,,,,,,,,,1.8904,1107.53830439999,None,space,1,1107.53830439999,None,0.4902814999804832,P027,FENCOG,2,Pre,2022_Feb_28_1103,N-Back (New Version 2021),2021.1.4,120.33955011038839,
,,,,Conditions/Version_1/oneback(2)_v1.xlsx,New rule: Press 'space' when you see 1-back (i.e. the same letter as the one that appeared 1 letter ago.),P,None,,,,,,,,,0,4,4,4,0,2,2,2,,,,,,,,,,,,,,,,,,,,,,,,,,,,,,,,,,,,,,,,,,,,,,,,,,,,,,,,,,,,,,,,,,,,,1.4874,1111.036735199974,None,None,1,1111.036735199974,None,,P027,FENCOG,2,Pre,2022_Feb_28_1103,N-Back (New Version 2021),2021.1.4,120.33955011038839,
,,,,Conditions/Version_1/oneback(2)_v1.xlsx,New rule: Press 'space' when you see 1-back (i.e. the same letter as the one that appeared 1 letter ago.),o,None,,,,,,,,,0,4,4,4,0,3,3,3,,,,,,,,,,,,,,,,,,,,,,,,,,,,,,,,,,,,,,,,,,,,,,,,,,,,,,,,,,,,,,,,,,,,,1.1464,1114.1859199999599,None,None,1,1114.1859199999599,None,,P027,FENCOG,2,Pre,2022_Feb_28_1103,N-Back (New Version 2021),2021.1.4,120.33955011038839,
,,,,Conditions/Version_1/oneback(2)_v1.xlsx,New rule: Press 'space' when you see 1-back (i.e. the same letter as the one that appeared 1 letter ago.),m,None,,,,,,,,,0,4,4,4,0,4,4,4,,,,,,,,,,,,,,,,,,,,,,,,,,,,,,,,,,,,,,,,,,,,,,,,,,,,,,,,,,,,,,,,,,,,,1.9152,1118.1013437999645,None,None,1,1118.1013437999645,None,,P027,FENCOG,2,Pre,2022_Feb_28_1103,N-Back (New Version 2021),2021.1.4,120.33955011038839,
,,,,Conditions/Version_1/oneback(2)_v1.xlsx,New rule: Press 'space' when you see 1-back (i.e. the same letter as the one that appeared 1 letter ago.),Z,None,,,,,,,,,0,4,4,4,0,5,5,5,,,,,,,,,,,,,,,,,,,,,,,,,,,,,,,,,,,,,,,,,,,,,,,,,,,,,,,,,,,,,,,,,,,,,1.444,1121.5538475999492,None,None,1,1121.5538475999492,None,,P027,FENCOG,2,Pre,2022_Feb_28_1103,N-Back (New Version 2021),2021.1.4,120.33955011038839,
,,,,Conditions/Version_1/oneback(2)_v1.xlsx,New rule: Press 'space' when you see 1-back (i.e. the same letter as the one that appeared 1 letter ago.),c,None,,,,,,,,,0,4,4,4,0,6,6,6,,,,,,,,,,,,,,,,,,,,,,,,,,,,,,,,,,,,,,,,,,,,,,,,,,,,,,,,,,,,,,,,,,,,,1.1588,1124.721721799986,None,None,1,1124.721721799986,None,,P027,FENCOG,2,Pre,2022_Feb_28_1103,N-Back (New Version 2021),2021.1.4,120.33955011038839,
,,,,Conditions/Version_1/oneback(2)_v1.xlsx,New rule: Press 'space' when you see 1-back (i.e. the same letter as the one that appeared 1 letter ago.),c,space,,,,,,,,,0,4,4,4,0,7,7,7,,,,,,,,,,,,,,,,,,,,,,,,,,,,,,,,,,,,,,,,,,,,,,,,,,,,,,,,,,,,,,,,,,,,,1.4378,1128.1652748999768,None,space,1,1128.1652748999768,None,0.431076800043229,P027,FENCOG,2,Pre,2022_Feb_28_1103,N-Back (New Version 2021),2021.1.4,120.33955011038839,
,,,,Conditions/Version_1/oneback(2)_v1.xlsx,New rule: Press 'space' when you see 1-back (i.e. the same letter as the one that appeared 1 letter ago.),P,None,,,,,,,,,0,4,4,4,0,8,8,8,,,,,,,,,,,,,,,,,,,,,,,,,,,,,,,,,,,,,,,,,,,,,,,,,,,,,,,,,,,,,,,,,,,,,1.2766,1131.4473937999574,None,None,1,1131.4473937999574,None,,P027,FENCOG,2,Pre,2022_Feb_28_1103,N-Back (New Version 2021),2021.1.4,120.33955011038839,
,,,,Conditions/Version_1/oneback(2)_v1.xlsx,New rule: Press 'space' when you see 1-back (i.e. the same letter as the one that appeared 1 letter ago.),p,space,,,,,,,,,0,4,4,4,0,9,9,9,,,,,,,,,,,,,,,,,,,,,,,,,,,,,,,,,,,,,,,,,,,,,,,,,,,,,,,,,,,,,,,,,,,,,1.7416,1135.188070299977,None,space,1,1135.188070299977,None,0.3926198999979533,P027,FENCOG,2,Pre,2022_Feb_28_1103,N-Back (New Version 2021),2021.1.4,120.33955011038839,
,,,,Conditions/Version_1/oneback(2)_v1.xlsx,New rule: Press 'space' when you see 1-back (i.e. the same letter as the one that appeared 1 letter ago.),,,,,,,,,,,0,4,4,4,,,,,,,,,,,,,,,,,,,,,,,,,,,,,,,,,,,,,,,,,,,,,,,,,,,,,,,,,,,,,,,,,,,,,,,,,,,,,,,,,P027,FENCOG,2,Pre,2022_Feb_28_1103,N-Back (New Version 2021),2021.1.4,120.33955011038839,
,,,,Conditions/Version_1/zeroback(2)_v1.xlsx,New rule: Press 'space' when you see the letter 'x' or 'X'.,p,None,,,,,,,,,0,5,5,5,0,0,0,0,,,,,,,,,,,,,,,,,,,,,,,,,,,,,,,,,,,,,,,,,,,,,,,,,,,,,,,,,,,1137.2080344999558,None,1140.1969645000063,None,space,0.35155900003155693,1140.1969645000063,None,1137.2080344999558,None,1.0844,1141.661139599979,None,None,1,1141.661139599979,None,,P027,FENCOG,2,Pre,2022_Feb_28_1103,N-Back (New Version 2021),2021.1.4,120.33955011038839,
,,,,Conditions/Version_1/zeroback(2)_v1.xlsx,New rule: Press 'space' when you see the letter 'x' or 'X'.,L,None,,,,,,,,,0,5,5,5,0,1,1,1,,,,,,,,,,,,,,,,,,,,,,,,,,,,,,,,,,,,,,,,,,,,,,,,,,,,,,,,,,,,,,,,,,,,,1.4502,1145.1101256999536,None,None,1,1145.1101256999536,None,,P027,FENCOG,2,Pre,2022_Feb_28_1103,N-Back (New Version 2021),2021.1.4,120.33955011038839,
,,,,Conditions/Version_1/zeroback(2)_v1.xlsx,New rule: Press 'space' when you see the letter 'x' or 'X'.,G,None,,,,,,,,,0,5,5,5,0,2,2,2,,,,,,,,,,,,,,,,,,,,,,,,,,,,,,,,,,,,,,,,,,,,,,,,,,,,,,,,,,,,,,,,,,,,,1.351,1148.4709222999518,None,None,1,1148.4709222999518,None,,P027,FENCOG,2,Pre,2022_Feb_28_1103,N-Back (New Version 2021),2021.1.4,120.33955011038839,
,,,,Conditions/Version_1/zeroback(2)_v1.xlsx,New rule: Press 'space' when you see the letter 'x' or 'X'.,y,None,,,,,,,,,0,5,5,5,0,3,3,3,,,,,,,,,,,,,,,,,,,,,,,,,,,,,,,,,,,,,,,,,,,,,,,,,,,,,,,,,,,,,,,,,,,,,1.9276,1152.407863600005,None,None,1,1152.407863600005,None,,P027,FENCOG,2,Pre,2022_Feb_28_1103,N-Back (New Version 2021),2021.1.4,120.33955011038839,
,,,,Conditions/Version_1/zeroback(2)_v1.xlsx,New rule: Press 'space' when you see the letter 'x' or 'X'.,Y,None,,,,,,,,,0,5,5,5,0,4,4,4,,,,,,,,,,,,,,,,,,,,,,,,,,,,,,,,,,,,,,,,,,,,,,,,,,,,,,,,,,,,,,,,,,,,,1.289,1155.6997328999569,None,None,1,1155.6997328999569,None,,P027,FENCOG,2,Pre,2022_Feb_28_1103,N-Back (New Version 2021),2021.1.4,120.33955011038839,
,,,,Conditions/Version_1/zeroback(2)_v1.xlsx,New rule: Press 'space' when you see the letter 'x' or 'X'.,W,None,,,,,,,,,0,5,5,5,0,5,5,5,,,,,,,,,,,,,,,,,,,,,,,,,,,,,,,,,,,,,,,,,,,,,,,,,,,,,,,,,,,,,,,,,,,,,1.3448,1159.0635764999897,None,None,1,1159.0635764999897,None,,P027,FENCOG,2,Pre,2022_Feb_28_1103,N-Back (New Version 2021),2021.1.4,120.33955011038839,
,,,,Conditions/Version_1/zeroback(2)_v1.xlsx,New rule: Press 'space' when you see the letter 'x' or 'X'.,x,space,,,,,,,,,0,5,5,5,0,6,6,6,,,,,,,,,,,,,,,,,,,,,,,,,,,,,,,,,,,,,,,,,,,,,,,,,,,,,,,,,,,,,,,,,,,,,1.475,1162.5380592999863,None,space,1,1162.5380592999863,None,0.6825372999883257,P027,FENCOG,2,Pre,2022_Feb_28_1103,N-Back (New Version 2021),2021.1.4,120.33955011038839,
,,,,Conditions/Version_1/zeroback(2)_v1.xlsx,New rule: Press 'space' when you see the letter 'x' or 'X'.,X,space,,,,,,,,,0,5,5,5,0,7,7,7,,,,,,,,,,,,,,,,,,,,,,,,,,,,,,,,,,,,,,,,,,,,,,,,,,,,,,,,,,,,,,,,,,,,,1.2146,1165.7541220999556,None,space,1,1165.7541220999556,None,0.8263249999727122,P027,FENCOG,2,Pre,2022_Feb_28_1103,N-Back (New Version 2021),2021.1.4,120.33955011038839,
,,,,Conditions/Version_1/zeroback(2)_v1.xlsx,New rule: Press 'space' when you see the letter 'x' or 'X'.,p,None,,,,,,,,,0,5,5,5,0,8,8,8,,,,,,,,,,,,,,,,,,,,,,,,,,,,,,,,,,,,,,,,,,,,,,,,,,,,,,,,,,,,,,,,,,,,,1.3634,1169.1196184,None,None,1,1169.1196184,None,,P027,FENCOG,2,Pre,2022_Feb_28_1103,N-Back (New Version 2021),2021.1.4,120.33955011038839,
,,,,Conditions/Version_1/zeroback(2)_v1.xlsx,New rule: Press 'space' when you see the letter 'x' or 'X'.,h,None,,,,,,,,,0,5,5,5,0,9,9,9,,,,,,,,,,,,,,,,,,,,,,,,,,,,,,,,,,,,,,,,,,,,,,,,,,,,,,,,,,,,,,,,,,,,,1.4006,1172.5186228999519,None,None,1,1172.5186228999519,None,,P027,FENCOG,2,Pre,2022_Feb_28_1103,N-Back (New Version 2021),2021.1.4,120.33955011038839,
,,,,Conditions/Version_1/zeroback(2)_v1.xlsx,New rule: Press 'space' when you see the letter 'x' or 'X'.,,,,,,,,,,,0,5,5,5,,,,,,,,,,,,,,,,,,,,,,,,,,,,,,,,,,,,,,,,,,,,,,,,,,,,,,,,,,,,,,,,,,,,,,,,,,,,,,,,,P027,FENCOG,2,Pre,2022_Feb_28_1103,N-Back (New Version 2021),2021.1.4,120.33955011038839,
,,,,Conditions/Version_1/threeback(2)_v1.xlsx,New rule: Press 'space' when you see 3-back (i.e. the same letter as the one that appeared 3 letters ago.),q,None,,,,,,,,,0,6,6,6,0,0,0,0,,,,,,,,,,,,,,,,,,,,,,,,,,,,,,,,,,,,,,,,,,,,,,,,,,,,,,,,,,,1174.5430925999535,None,1177.5401365999714,None,space,0.7683071999927051,1177.5401365999714,None,1174.5430925999535,None,1.4998,1179.8435396999703,None,None,1,1179.8435396999703,None,,P027,FENCOG,2,Pre,2022_Feb_28_1103,N-Back (New Version 2021),2021.1.4,120.33955011038839,
,,,,Conditions/Version_1/threeback(2)_v1.xlsx,New rule: Press 'space' when you see 3-back (i.e. the same letter as the one that appeared 3 letters ago.),Y,None,,,,,,,,,0,6,6,6,0,1,1,1,,,,,,,,,,,,,,,,,,,,,,,,,,,,,,,,,,,,,,,,,,,,,,,,,,,,,,,,,,,,,,,,,,,,,1.94,1183.7903591999784,None,None,1,1183.7903591999784,None,,P027,FENCOG,2,Pre,2022_Feb_28_1103,N-Back (New Version 2021),2021.1.4,120.33955011038839,
,,,,Conditions/Version_1/threeback(2)_v1.xlsx,New rule: Press 'space' when you see 3-back (i.e. the same letter as the one that appeared 3 letters ago.),p,None,,,,,,,,,0,6,6,6,0,2,2,2,,,,,,,,,,,,,,,,,,,,,,,,,,,,,,,,,,,,,,,,,,,,,,,,,,,,,,,,,,,,,,,,,,,,,1.4316,1187.2238424999523,None,None,1,1187.2238424999523,None,,P027,FENCOG,2,Pre,2022_Feb_28_1103,N-Back (New Version 2021),2021.1.4,120.33955011038839,
,,,,Conditions/Version_1/threeback(2)_v1.xlsx,New rule: Press 'space' when you see 3-back (i.e. the same letter as the one that appeared 3 letters ago.),p,None,,,,,,,,,0,6,6,6,0,3,3,3,,,,,,,,,,,,,,,,,,,,,,,,,,,,,,,,,,,,,,,,,,,,,,,,,,,,,,,,,,,,,,,,,,,,,1.6548,1190.8884475999512,None,None,1,1190.8884475999512,None,,P027,FENCOG,2,Pre,2022_Feb_28_1103,N-Back (New Version 2021),2021.1.4,120.33955011038839,
,,,,Conditions/Version_1/threeback(2)_v1.xlsx,New rule: Press 'space' when you see 3-back (i.e. the same letter as the one that appeared 3 letters ago.),y,space,,,,,,,,,0,6,6,6,0,4,4,4,,,,,,,,,,,,,,,,,,,,,,,,,,,,,,,,,,,,,,,,,,,,,,,,,,,,,,,,,,,,,,,,,,,,,1.0844,1193.9789542999933,None,space,1,1193.9789542999933,None,0.5057718000025488,P027,FENCOG,2,Pre,2022_Feb_28_1103,N-Back (New Version 2021),2021.1.4,120.33955011038839,
,,,,Conditions/Version_1/threeback(2)_v1.xlsx,New rule: Press 'space' when you see 3-back (i.e. the same letter as the one that appeared 3 letters ago.),u,None,,,,,,,,,0,6,6,6,0,5,5,5,,,,,,,,,,,,,,,,,,,,,,,,,,,,,,,,,,,,,,,,,,,,,,,,,,,,,,,,,,,,,,,,,,,,,1.8532,1197.836864199955,None,None,1,1197.836864199955,None,,P027,FENCOG,2,Pre,2022_Feb_28_1103,N-Back (New Version 2021),2021.1.4,120.33955011038839,
,,,,Conditions/Version_1/threeback(2)_v1.xlsx,New rule: Press 'space' when you see 3-back (i.e. the same letter as the one that appeared 3 letters ago.),P,space,,,,,,,,,0,6,6,6,0,6,6,6,,,,,,,,,,,,,,,,,,,,,,,,,,,,,,,,,,,,,,,,,,,,,,,,,,,,,,,,,,,,,,,,,,,,,1.1588,1201.0029730999959,None,space,1,1201.0029730999959,None,0.8015511999838054,P027,FENCOG,2,Pre,2022_Feb_28_1103,N-Back (New Version 2021),2021.1.4,120.33955011038839,
,,,,Conditions/Version_1/threeback(2)_v1.xlsx,New rule: Press 'space' when you see 3-back (i.e. the same letter as the one that appeared 3 letters ago.),a,None,,,,,,,,,0,6,6,6,0,7,7,7,,,,,,,,,,,,,,,,,,,,,,,,,,,,,,,,,,,,,,,,,,,,,,,,,,,,,,,,,,,,,,,,,,,,,1.0472,1204.0594152999693,None,None,1,1204.0594152999693,None,,P027,FENCOG,2,Pre,2022_Feb_28_1103,N-Back (New Version 2021),2021.1.4,120.33955011038839,
,,,,Conditions/Version_1/threeback(2)_v1.xlsx,New rule: Press 'space' when you see 3-back (i.e. the same letter as the one that appeared 3 letters ago.),U,space,,,,,,,,,0,6,6,6,0,8,8,8,,,,,,,,,,,,,,,,,,,,,,,,,,,,,,,,,,,,,,,,,,,,,,,,,,,,,,,,,,,,,,,,,,,,,1.3386,1207.4001722999965,None,space,1,1207.4001722999965,None,0.9323866999475285,P027,FENCOG,2,Pre,2022_Feb_28_1103,N-Back (New Version 2021),2021.1.4,120.33955011038839,
,,,,Conditions/Version_1/threeback(2)_v1.xlsx,New rule: Press 'space' when you see 3-back (i.e. the same letter as the one that appeared 3 letters ago.),q,None,,,,,,,,,0,6,6,6,0,9,9,9,,,,,,,,,,,,,,,,,,,,,,,,,,,,,,,,,,,,,,,,,,,,,,,,,,,,,,,,,,,,,,,,,,,,,1.816,1211.2155698999995,None,None,1,1211.2155698999995,None,,P027,FENCOG,2,Pre,2022_Feb_28_1103,N-Back (New Version 2021),2021.1.4,120.33955011038839,
,,,,Conditions/Version_1/threeback(2)_v1.xlsx,New rule: Press 'space' when you see 3-back (i.e. the same letter as the one that appeared 3 letters ago.),,,,,,,,,,,0,6,6,6,,,,,,,,,,,,,,,,,,,,,,,,,,,,,,,,,,,,,,,,,,,,,,,,,,,,,,,,,,,,,,,,,,,,,,,,,,,,,,,,,P027,FENCOG,2,Pre,2022_Feb_28_1103,N-Back (New Version 2021),2021.1.4,120.33955011038839,
,,,,Conditions/Version_1/twoback(2)_v1.xlsx,New rule: Press 'space' when you see 2-back (i.e. the same letter as the one that appeared 2 letters ago.),q,None,,,,,,,,,0,7,7,7,0,0,0,0,,,,,,,,,,,,,,,,,,,,,,,,,,,,,,,,,,,,,,,,,,,,,,,,,,,,,,,,,,,1213.2380333999754,None,1216.2242888999754,None,space,0.692294399952516,1216.2242888999754,None,1213.2380333999754,None,1.0162,1217.9552645999938,None,None,1,1217.9552645999938,None,,P027,FENCOG,2,Pre,2022_Feb_28_1103,N-Back (New Version 2021),2021.1.4,120.33955011038839,
,,,,Conditions/Version_1/twoback(2)_v1.xlsx,New rule: Press 'space' when you see 2-back (i.e. the same letter as the one that appeared 2 letters ago.),r,None,,,,,,,,,0,7,7,7,0,1,1,1,,,,,,,,,,,,,,,,,,,,,,,,,,,,,,,,,,,,,,,,,,,,,,,,,,,,,,,,,,,,,,,,,,,,,1.8098,1221.771596000006,None,None,1,1221.771596000006,None,,P027,FENCOG,2,Pre,2022_Feb_28_1103,N-Back (New Version 2021),2021.1.4,120.33955011038839,
,,,,Conditions/Version_1/twoback(2)_v1.xlsx,New rule: Press 'space' when you see 2-back (i.e. the same letter as the one that appeared 2 letters ago.),q,space,,,,,,,,,0,7,7,7,0,2,2,2,,,,,,,,,,,,,,,,,,,,,,,,,,,,,,,,,,,,,,,,,,,,,,,,,,,,,,,,,,,,,,,,,,,,,1.4502,1225.2281410999713,None,space,1,1225.2281410999713,None,0.46454260003520176,P027,FENCOG,2,Pre,2022_Feb_28_1103,N-Back (New Version 2021),2021.1.4,120.33955011038839,
,,,,Conditions/Version_1/twoback(2)_v1.xlsx,New rule: Press 'space' when you see 2-back (i.e. the same letter as the one that appeared 2 letters ago.),P,None,,,,,,,,,0,7,7,7,0,3,3,3,,,,,,,,,,,,,,,,,,,,,,,,,,,,,,,,,,,,,,,,,,,,,,,,,,,,,,,,,,,,,,,,,,,,,1.1092,1228.34481889999,None,None,1,1228.34481889999,None,,P027,FENCOG,2,Pre,2022_Feb_28_1103,N-Back (New Version 2021),2021.1.4,120.33955011038839,
,,,,Conditions/Version_1/twoback(2)_v1.xlsx,New rule: Press 'space' when you see 2-back (i.e. the same letter as the one that appeared 2 letters ago.),p,None,,,,,,,,,0,7,7,7,0,4,4,4,,,,,,,,,,,,,,,,,,,,,,,,,,,,,,,,,,,,,,,,,,,,,,,,,,,,,,,,,,,,,,,,,,,,,1.041,1231.3930413000053,None,None,1,1231.3930413000053,None,,P027,FENCOG,2,Pre,2022_Feb_28_1103,N-Back (New Version 2021),2021.1.4,120.33955011038839,
,,,,Conditions/Version_1/twoback(2)_v1.xlsx,New rule: Press 'space' when you see 2-back (i.e. the same letter as the one that appeared 2 letters ago.),H,None,,,,,,,,,0,7,7,7,0,5,5,5,,,,,,,,,,,,,,,,,,,,,,,,,,,,,,,,,,,,,,,,,,,,,,,,,,,,,,,,,,,,,,,,,,,,,1.4316,1234.8265275000012,None,None,1,1234.8265275000012,None,,P027,FENCOG,2,Pre,2022_Feb_28_1103,N-Back (New Version 2021),2021.1.4,120.33955011038839,
,,,,Conditions/Version_1/twoback(2)_v1.xlsx,New rule: Press 'space' when you see 2-back (i.e. the same letter as the one that appeared 2 letters ago.),g,None,,,,,,,,,0,7,7,7,0,6,6,6,,,,,,,,,,,,,,,,,,,,,,,,,,,,,,,,,,,,,,,,,,,,,,,,,,,,,,,,,,,,,,,,,,,,,1.754,1238.590954299958,None,None,1,1238.590954299958,None,,P027,FENCOG,2,Pre,2022_Feb_28_1103,N-Back (New Version 2021),2021.1.4,120.33955011038839,
,,,,Conditions/Version_1/twoback(2)_v1.xlsx,New rule: Press 'space' when you see 2-back (i.e. the same letter as the one that appeared 2 letters ago.),j,None,,,,,,,,,0,7,7,7,0,7,7,7,,,,,,,,,,,,,,,,,,,,,,,,,,,,,,,,,,,,,,,,,,,,,,,,,,,,,,,,,,,,,,,,,,,,,1.165,1241.7567897999543,None,None,1,1241.7567897999543,None,,P027,FENCOG,2,Pre,2022_Feb_28_1103,N-Back (New Version 2021),2021.1.4,120.33955011038839,
,,,,Conditions/Version_1/twoback(2)_v1.xlsx,New rule: Press 'space' when you see 2-back (i.e. the same letter as the one that appeared 2 letters ago.),g,space,,,,,,,,,0,7,7,7,0,8,8,8,,,,,,,,,,,,,,,,,,,,,,,,,,,,,,,,,,,,,,,,,,,,,,,,,,,,,,,,,,,,,,,,,,,,,1.103,1244.8651395000052,None,space,1,1244.8651395000052,None,0.5235080999555066,P027,FENCOG,2,Pre,2022_Feb_28_1103,N-Back (New Version 2021),2021.1.4,120.33955011038839,
,,,,Conditions/Version_1/twoback(2)_v1.xlsx,New rule: Press 'space' when you see 2-back (i.e. the same letter as the one that appeared 2 letters ago.),G,None,,,,,,,,,0,7,7,7,0,9,9,9,,,,,,,,,,,,,,,,,,,,,,,,,,,,,,,,,,,,,,,,,,,,,,,,,,,,,,,,,,,,,,,,,,,,,1.2704,1248.1464008999756,None,None,1,1248.1464008999756,None,,P027,FENCOG,2,Pre,2022_Feb_28_1103,N-Back (New Version 2021),2021.1.4,120.33955011038839,
,,,,Conditions/Version_1/twoback(2)_v1.xlsx,New rule: Press 'space' when you see 2-back (i.e. the same letter as the one that appeared 2 letters ago.),,,,,,,,,,,0,7,7,7,,,,,,,,,,,,,,,,,,,,,,,,,,,,,,,,,,,,,,,,,,,,,,,,,,,,,,,,,,,,,,,,,,,,,,,,,,,,,,,,,P027,FENCOG,2,Pre,2022_Feb_28_1103,N-Back (New Version 2021),2021.1.4,120.33955011038839,
,,,,Conditions/Version_1/threeback(3)_v1.xlsx,New rule: Press 'space' when you see 3-back (i.e. the same letter as the one that appeared 3 letters ago.),w,None,,,,,,,,,0,8,8,8,0,0,0,0,,,,,,,,,,,,,,,,,,,,,,,,,,,,,,,,,,,,,,,,,,,,,,,,,,,,,,,,,,,1250.1675577999558,None,1253.1554494999582,None,space,1.3772309999912977,1253.1554494999582,None,1250.1675577999558,None,1.506,1256.063092699973,None,None,1,1256.063092699973,None,,P027,FENCOG,2,Pre,2022_Feb_28_1103,N-Back (New Version 2021),2021.1.4,120.33955011038839,
,,,,Conditions/Version_1/threeback(3)_v1.xlsx,New rule: Press 'space' when you see 3-back (i.e. the same letter as the one that appeared 3 letters ago.),p,None,,,,,,,,,0,8,8,8,0,1,1,1,,,,,,,,,,,,,,,,,,,,,,,,,,,,,,,,,,,,,,,,,,,,,,,,,,,,,,,,,,,,,,,,,,,,,1.4378,1259.5097471000045,None,None,1,1259.5097471000045,None,,P027,FENCOG,2,Pre,2022_Feb_28_1103,N-Back (New Version 2021),2021.1.4,120.33955011038839,
,,,,Conditions/Version_1/threeback(3)_v1.xlsx,New rule: Press 'space' when you see 3-back (i.e. the same letter as the one that appeared 3 letters ago.),P,None,,,,,,,,,0,8,8,8,0,2,2,2,,,,,,,,,,,,,,,,,,,,,,,,,,,,,,,,,,,,,,,,,,,,,,,,,,,,,,,,,,,,,,,,,,,,,1.9896,1263.5002537999535,None,None,1,1263.5002537999535,None,,P027,FENCOG,2,Pre,2022_Feb_28_1103,N-Back (New Version 2021),2021.1.4,120.33955011038839,
,,,,Conditions/Version_1/threeback(3)_v1.xlsx,New rule: Press 'space' when you see 3-back (i.e. the same letter as the one that appeared 3 letters ago.),i,None,,,,,,,,,0,8,8,8,0,3,3,3,,,,,,,,,,,,,,,,,,,,,,,,,,,,,,,,,,,,,,,,,,,,,,,,,,,,,,,,,,,,,,,,,,,,,1.382,1266.884664699959,None,None,1,1266.884664699959,None,,P027,FENCOG,2,Pre,2022_Feb_28_1103,N-Back (New Version 2021),2021.1.4,120.33955011038839,
,,,,Conditions/Version_1/threeback(3)_v1.xlsx,New rule: Press 'space' when you see 3-back (i.e. the same letter as the one that appeared 3 letters ago.),f,None,,,,,,,,,0,8,8,8,0,4,4,4,,,,,,,,,,,,,,,,,,,,,,,,,,,,,,,,,,,,,,,,,,,,,,,,,,,,,,,,,,,,,,,,,,,,,1.4502,1270.3400000999682,None,None,1,1270.3400000999682,None,,P027,FENCOG,2,Pre,2022_Feb_28_1103,N-Back (New Version 2021),2021.1.4,120.33955011038839,
,,,,Conditions/Version_1/threeback(3)_v1.xlsx,New rule: Press 'space' when you see 3-back (i.e. the same letter as the one that appeared 3 letters ago.),o,None,,,,,,,,,0,8,8,8,0,5,5,5,,,,,,,,,,,,,,,,,,,,,,,,,,,,,,,,,,,,,,,,,,,,,,,,,,,,,,,,,,,,,,,,,,,,,1.3386,1273.680627099995,None,None,1,1273.680627099995,None,,P027,FENCOG,2,Pre,2022_Feb_28_1103,N-Back (New Version 2021),2021.1.4,120.33955011038839,
,,,,Conditions/Version_1/threeback(3)_v1.xlsx,New rule: Press 'space' when you see 3-back (i.e. the same letter as the one that appeared 3 letters ago.),w,None,,,,,,,,,0,8,8,8,0,6,6,6,,,,,,,,,,,,,,,,,,,,,,,,,,,,,,,,,,,,,,,,,,,,,,,,,,,,,,,,,,,,,,,,,,,,,1.2518,1276.9390586999943,None,None,1,1276.9390586999943,None,,P027,FENCOG,2,Pre,2022_Feb_28_1103,N-Back (New Version 2021),2021.1.4,120.33955011038839,
,,,,Conditions/Version_1/threeback(3)_v1.xlsx,New rule: Press 'space' when you see 3-back (i.e. the same letter as the one that appeared 3 letters ago.),F,space,,,,,,,,,0,8,8,8,0,7,7,7,,,,,,,,,,,,,,,,,,,,,,,,,,,,,,,,,,,,,,,,,,,,,,,,,,,,,,,,,,,,,,,,,,,,,1.5866,1280.5377751999767,None,space,1,1280.5377751999767,None,0.5149100000271574,P027,FENCOG,2,Pre,2022_Feb_28_1103,N-Back (New Version 2021),2021.1.4,120.33955011038839,
,,,,Conditions/Version_1/threeback(3)_v1.xlsx,New rule: Press 'space' when you see 3-back (i.e. the same letter as the one that appeared 3 letters ago.),p,None,,,,,,,,,0,8,8,8,0,8,8,8,,,,,,,,,,,,,,,,,,,,,,,,,,,,,,,,,,,,,,,,,,,,,,,,,,,,,,,,,,,,,,,,,,,,,1.1588,1283.7107615999994,None,None,1,1283.7107615999994,None,,P027,FENCOG,2,Pre,2022_Feb_28_1103,N-Back (New Version 2021),2021.1.4,120.33955011038839,
,,,,Conditions/Version_1/threeback(3)_v1.xlsx,New rule: Press 'space' when you see 3-back (i.e. the same letter as the one that appeared 3 letters ago.),W,space,,,,,,,,,0,8,8,8,0,9,9,9,,,,,,,,,,,,,,,,,,,,,,,,,,,,,,,,,,,,,,,,,,,,,,,,,,,,,,,,,,,,,,,,,,,,,1.6114,1287.3270080999937,None,space,1,1287.3270080999937,None,0.5576588999829255,P027,FENCOG,2,Pre,2022_Feb_28_1103,N-Back (New Version 2021),2021.1.4,120.33955011038839,
,,,,Conditions/Version_1/threeback(3)_v1.xlsx,New rule: Press 'space' when you see 3-back (i.e. the same letter as the one that appeared 3 letters ago.),,,,,,,,,,,0,8,8,8,,,,,,,,,,,,,,,,,,,,,,,,,,,,,,,,,,,,,,,,,,,,,,,,,,,,,,,,,,,,,,,,,,,,,,,,,,,,,,,,,P027,FENCOG,2,Pre,2022_Feb_28_1103,N-Back (New Version 2021),2021.1.4,120.33955011038839,
,,,,Conditions/Version_1/zeroback(3)_v1.xlsx,New rule: Press 'space' when you see the letter 'x' or 'X'.,X,space,,,,,,,,,0,9,9,9,0,0,0,0,,,,,,,,,,,,,,,,,,,,,,,,,,,,,,,,,,,,,,,,,,,,,,,,,,,,,,,,,,,1289.3474102999899,None,1292.3354899999686,None,space,0.8611180000007153,1292.3354899999686,None,1289.3474102999899,None,1.7912,1295.0180776999914,None,space,1,1295.0180776999914,None,0.7305226000025868,P027,FENCOG,2,Pre,2022_Feb_28_1103,N-Back (New Version 2021),2021.1.4,120.33955011038839,
,,,,Conditions/Version_1/zeroback(3)_v1.xlsx,New rule: Press 'space' when you see the letter 'x' or 'X'.,B,None,,,,,,,,,0,9,9,9,0,1,1,1,,,,,,,,,,,,,,,,,,,,,,,,,,,,,,,,,,,,,,,,,,,,,,,,,,,,,,,,,,,,,,,,,,,,,1.3882,1298.4166958999704,None,None,1,1298.4166958999704,None,,P027,FENCOG,2,Pre,2022_Feb_28_1103,N-Back (New Version 2021),2021.1.4,120.33955011038839,
,,,,Conditions/Version_1/zeroback(3)_v1.xlsx,New rule: Press 'space' when you see the letter 'x' or 'X'.,m,None,,,,,,,,,0,9,9,9,0,2,2,2,,,,,,,,,,,,,,,,,,,,,,,,,,,,,,,,,,,,,,,,,,,,,,,,,,,,,,,,,,,,,,,,,,,,,1.103,1301.5307394999545,None,None,1,1301.5307394999545,None,,P027,FENCOG,2,Pre,2022_Feb_28_1103,N-Back (New Version 2021),2021.1.4,120.33955011038839,
,,,,Conditions/Version_1/zeroback(3)_v1.xlsx,New rule: Press 'space' when you see the letter 'x' or 'X'.,m,None,,,,,,,,,0,9,9,9,0,3,3,3,,,,,,,,,,,,,,,,,,,,,,,,,,,,,,,,,,,,,,,,,,,,,,,,,,,,,,,,,,,,,,,,,,,,,1.4812,1305.013222699985,None,None,1,1305.013222699985,None,,P027,FENCOG,2,Pre,2022_Feb_28_1103,N-Back (New Version 2021),2021.1.4,120.33955011038839,
,,,,Conditions/Version_1/zeroback(3)_v1.xlsx,New rule: Press 'space' when you see the letter 'x' or 'X'.,o,None,,,,,,,,,0,9,9,9,0,4,4,4,,,,,,,,,,,,,,,,,,,,,,,,,,,,,,,,,,,,,,,,,,,,,,,,,,,,,,,,,,,,,,,,,,,,,1.7106,1308.7286833999678,None,None,1,1308.7286833999678,None,,P027,FENCOG,2,Pre,2022_Feb_28_1103,N-Back (New Version 2021),2021.1.4,120.33955011038839,
,,,,Conditions/Version_1/zeroback(3)_v1.xlsx,New rule: Press 'space' when you see the letter 'x' or 'X'.,p,None,,,,,,,,,0,9,9,9,0,5,5,5,,,,,,,,,,,,,,,,,,,,,,,,,,,,,,,,,,,,,,,,,,,,,,,,,,,,,,,,,,,,,,,,,,,,,1.4316,1312.1608765999554,None,None,1,1312.1608765999554,None,,P027,FENCOG,2,Pre,2022_Feb_28_1103,N-Back (New Version 2021),2021.1.4,120.33955011038839,
,,,,Conditions/Version_1/zeroback(3)_v1.xlsx,New rule: Press 'space' when you see the letter 'x' or 'X'.,G,None,,,,,,,,,0,9,9,9,0,6,6,6,,,,,,,,,,,,,,,,,,,,,,,,,,,,,,,,,,,,,,,,,,,,,,,,,,,,,,,,,,,,,,,,,,,,,1.444,1315.6099629999953,None,None,1,1315.6099629999953,None,,P027,FENCOG,2,Pre,2022_Feb_28_1103,N-Back (New Version 2021),2021.1.4,120.33955011038839,
,,,,Conditions/Version_1/zeroback(3)_v1.xlsx,New rule: Press 'space' when you see the letter 'x' or 'X'.,X,space,,,,,,,,,0,9,9,9,0,7,7,7,,,,,,,,,,,,,,,,,,,,,,,,,,,,,,,,,,,,,,,,,,,,,,,,,,,,,,,,,,,,,,,,,,,,,1.5308,1319.143383799994,None,space,1,1319.143383799994,None,0.41408199997385964,P027,FENCOG,2,Pre,2022_Feb_28_1103,N-Back (New Version 2021),2021.1.4,120.33955011038839,
,,,,Conditions/Version_1/zeroback(3)_v1.xlsx,New rule: Press 'space' when you see the letter 'x' or 'X'.,p,None,,,,,,,,,0,9,9,9,0,8,8,8,,,,,,,,,,,,,,,,,,,,,,,,,,,,,,,,,,,,,,,,,,,,,,,,,,,,,,,,,,,,,,,,,,,,,1.382,1322.5340871999506,None,None,1,1322.5340871999506,None,,P027,FENCOG,2,Pre,2022_Feb_28_1103,N-Back (New Version 2021),2021.1.4,120.33955011038839,
,,,,Conditions/Version_1/zeroback(3)_v1.xlsx,New rule: Press 'space' when you see the letter 'x' or 'X'.,x,space,,,,,,,,,0,9,9,9,0,9,9,9,,,,,,,,,,,,,,,,,,,,,,,,,,,,,,,,,,,,,,,,,,,,,,,,,,,,,,,,,,,,,,,,,,,,,1.5184,1326.0651860999642,None,space,1,1326.0651860999642,None,0.4915144999977201,P027,FENCOG,2,Pre,2022_Feb_28_1103,N-Back (New Version 2021),2021.1.4,120.33955011038839,
,,,,Conditions/Version_1/zeroback(3)_v1.xlsx,New rule: Press 'space' when you see the letter 'x' or 'X'.,,,,,,,,,,,0,9,9,9,,,,,,,,,,,,,,,,,,,,,,,,,,,,,,,,,,,,,,,,,,,,,,,,,,,,,,,,,,,,,,,,,,,,,,,,,,,,,,,,,P027,FENCOG,2,Pre,2022_Feb_28_1103,N-Back (New Version 2021),2021.1.4,120.33955011038839,
,,,,Conditions/Version_1/twoback(3)_v1.xlsx,New rule: Press 'space' when you see 2-back (i.e. the same letter as the one that appeared 2 letters ago.),e,None,,,,,,,,,0,10,10,10,0,0,0,0,,,,,,,,,,,,,,,,,,,,,,,,,,,,,,,,,,,,,,,,,,,,,,,,,,,,,,,,,,,1328.0862722999882,None,1331.0742658999516,None,space,1.2503093999694102,1331.0742658999516,None,1328.0862722999882,None,1.1712,1333.529600299953,None,None,1,1333.529600299953,None,,P027,FENCOG,2,Pre,2022_Feb_28_1103,N-Back (New Version 2021),2021.1.4,120.33955011038839,
,,,,Conditions/Version_1/twoback(3)_v1.xlsx,New rule: Press 'space' when you see 2-back (i.e. the same letter as the one that appeared 2 letters ago.),o,None,,,,,,,,,0,10,10,10,0,1,1,1,,,,,,,,,,,,,,,,,,,,,,,,,,,,,,,,,,,,,,,,,,,,,,,,,,,,,,,,,,,,,,,,,,,,,1.6858,1337.2201839999761,None,None,1,1337.2201839999761,None,,P027,FENCOG,2,Pre,2022_Feb_28_1103,N-Back (New Version 2021),2021.1.4,120.33955011038839,
,,,,Conditions/Version_1/twoback(3)_v1.xlsx,New rule: Press 'space' when you see 2-back (i.e. the same letter as the one that appeared 2 letters ago.),P,None,,,,,,,,,0,10,10,10,0,2,2,2,,,,,,,,,,,,,,,,,,,,,,,,,,,,,,,,,,,,,,,,,,,,,,,,,,,,,,,,,,,,,,,,,,,,,1.8656,1341.0854975999682,None,None,1,1341.0854975999682,None,,P027,FENCOG,2,Pre,2022_Feb_28_1103,N-Back (New Version 2021),2021.1.4,120.33955011038839,
,,,,Conditions/Version_1/twoback(3)_v1.xlsx,New rule: Press 'space' when you see 2-back (i.e. the same letter as the one that appeared 2 letters ago.),z,None,,,,,,,,,0,10,10,10,0,3,3,3,,,,,,,,,,,,,,,,,,,,,,,,,,,,,,,,,,,,,,,,,,,,,,,,,,,,,,,,,,,,,,,,,,,,,1.5432,1344.636063999962,None,None,1,1344.636063999962,None,,P027,FENCOG,2,Pre,2022_Feb_28_1103,N-Back (New Version 2021),2021.1.4,120.33955011038839,
,,,,Conditions/Version_1/twoback(3)_v1.xlsx,New rule: Press 'space' when you see 2-back (i.e. the same letter as the one that appeared 2 letters ago.),X,None,,,,,,,,,0,10,10,10,0,4,4,4,,,,,,,,,,,,,,,,,,,,,,,,,,,,,,,,,,,,,,,,,,,,,,,,,,,,,,,,,,,,,,,,,,,,,1.0286,1347.6756083999644,None,None,1,1347.6756083999644,None,,P027,FENCOG,2,Pre,2022_Feb_28_1103,N-Back (New Version 2021),2021.1.4,120.33955011038839,
,,,,Conditions/Version_1/twoback(3)_v1.xlsx,New rule: Press 'space' when you see 2-back (i.e. the same letter as the one that appeared 2 letters ago.),z,space,,,,,,,,,0,10,10,10,0,5,5,5,,,,,,,,,,,,,,,,,,,,,,,,,,,,,,,,,,,,,,,,,,,,,,,,,,,,,,,,,,,,,,,,,,,,,1.2084,1350.8848145999946,None,space,1,1350.8848145999946,None,1.823943399998825,P027,FENCOG,2,Pre,2022_Feb_28_1103,N-Back (New Version 2021),2021.1.4,120.33955011038839,
,,,,Conditions/Version_1/twoback(3)_v1.xlsx,New rule: Press 'space' when you see 2-back (i.e. the same letter as the one that appeared 2 letters ago.),x,space,,,,,,,,,0,10,10,10,0,6,6,6,,,,,,,,,,,,,,,,,,,,,,,,,,,,,,,,,,,,,,,,,,,,,,,,,,,,,,,,,,,,,,,,,,,,,1.9028,1354.7996191999991,None,space,1,1354.7996191999991,None,0.3810350999701768,P027,FENCOG,2,Pre,2022_Feb_28_1103,N-Back (New Version 2021),2021.1.4,120.33955011038839,
,,,,Conditions/Version_1/twoback(3)_v1.xlsx,New rule: Press 'space' when you see 2-back (i.e. the same letter as the one that appeared 2 letters ago.),c,None,,,,,,,,,0,10,10,10,0,7,7,7,,,,,,,,,,,,,,,,,,,,,,,,,,,,,,,,,,,,,,,,,,,,,,,,,,,,,,,,,,,,,,,,,,,,,1.8594,1358.6723044999526,None,None,1,1358.6723044999526,None,,P027,FENCOG,2,Pre,2022_Feb_28_1103,N-Back (New Version 2021),2021.1.4,120.33955011038839,
,,,,Conditions/Version_1/twoback(3)_v1.xlsx,New rule: Press 'space' when you see 2-back (i.e. the same letter as the one that appeared 2 letters ago.),i,None,,,,,,,,,0,10,10,10,0,8,8,8,,,,,,,,,,,,,,,,,,,,,,,,,,,,,,,,,,,,,,,,,,,,,,,,,,,,,,,,,,,,,,,,,,,,,1.8346,1362.5127540999674,None,None,1,1362.5127540999674,None,,P027,FENCOG,2,Pre,2022_Feb_28_1103,N-Back (New Version 2021),2021.1.4,120.33955011038839,
,,,,Conditions/Version_1/twoback(3)_v1.xlsx,New rule: Press 'space' when you see 2-back (i.e. the same letter as the one that appeared 2 letters ago.),C,space,,,,,,,,,0,10,10,10,0,9,9,9,,,,,,,,,,,,,,,,,,,,,,,,,,,,,,,,,,,,,,,,,,,,,,,,,,,,,,,,,,,,,,,,,,,,,1.1774,1365.6967989999685,None,space,1,1365.6967989999685,None,0.4117938000126742,P027,FENCOG,2,Pre,2022_Feb_28_1103,N-Back (New Version 2021),2021.1.4,120.33955011038839,
,,,,Conditions/Version_1/twoback(3)_v1.xlsx,New rule: Press 'space' when you see 2-back (i.e. the same letter as the one that appeared 2 letters ago.),,,,,,,,,,,0,10,10,10,,,,,,,,,,,,,,,,,,,,,,,,,,,,,,,,,,,,,,,,,,,,,,,,,,,,,,,,,,,,,,,,,,,,,,,,,,,,,,,,,P027,FENCOG,2,Pre,2022_Feb_28_1103,N-Back (New Version 2021),2021.1.4,120.33955011038839,
,,,,Conditions/Version_1/oneback(3)_v1.xlsx,New rule: Press 'space' when you see 1-back (i.e. the same letter as the one that appeared 1 letter ago.),o,None,,,,,,,,,0,11,11,11,0,0,0,0,,,,,,,,,,,,,,,,,,,,,,,,,,,,,,,,,,,,,,,,,,,,,,,,,,,,,,,,,,,1367.7249170999858,None,1370.7139049999532,None,space,0.3387836000183597,1370.7139049999532,None,1367.7249170999858,None,1.2146,1372.2943655999843,None,None,1,1372.2943655999843,None,,P027,FENCOG,2,Pre,2022_Feb_28_1103,N-Back (New Version 2021),2021.1.4,120.33955011038839,
,,,,Conditions/Version_1/oneback(3)_v1.xlsx,New rule: Press 'space' when you see 1-back (i.e. the same letter as the one that appeared 1 letter ago.),O,space,,,,,,,,,0,11,11,11,0,1,1,1,,,,,,,,,,,,,,,,,,,,,,,,,,,,,,,,,,,,,,,,,,,,,,,,,,,,,,,,,,,,,,,,,,,,,1.9462,1376.2522677999805,None,space,1,1376.2522677999805,None,0.32837339997058734,P027,FENCOG,2,Pre,2022_Feb_28_1103,N-Back (New Version 2021),2021.1.4,120.33955011038839,
,,,,Conditions/Version_1/oneback(3)_v1.xlsx,New rule: Press 'space' when you see 1-back (i.e. the same letter as the one that appeared 1 letter ago.),h,None,,,,,,,,,0,11,11,11,0,2,2,2,,,,,,,,,,,,,,,,,,,,,,,,,,,,,,,,,,,,,,,,,,,,,,,,,,,,,,,,,,,,,,,,,,,,,1.2952,1379.5592518000049,None,None,1,1379.5592518000049,None,,P027,FENCOG,2,Pre,2022_Feb_28_1103,N-Back (New Version 2021),2021.1.4,120.33955011038839,
,,,,Conditions/Version_1/oneback(3)_v1.xlsx,New rule: Press 'space' when you see 1-back (i.e. the same letter as the one that appeared 1 letter ago.),g,None,,,,,,,,,0,11,11,11,0,3,3,3,,,,,,,,,,,,,,,,,,,,,,,,,,,,,,,,,,,,,,,,,,,,,,,,,,,,,,,,,,,,,,,,,,,,,1.5308,1383.0984987999545,None,None,1,1383.0984987999545,None,,P027,FENCOG,2,Pre,2022_Feb_28_1103,N-Back (New Version 2021),2021.1.4,120.33955011038839,
,,,,Conditions/Version_1/oneback(3)_v1.xlsx,New rule: Press 'space' when you see 1-back (i.e. the same letter as the one that appeared 1 letter ago.),n,None,,,,,,,,,0,11,11,11,0,4,4,4,,,,,,,,,,,,,,,,,,,,,,,,,,,,,,,,,,,,,,,,,,,,,,,,,,,,,,,,,,,,,,,,,,,,,1.2394,1386.3396592999925,None,None,1,1386.3396592999925,None,,P027,FENCOG,2,Pre,2022_Feb_28_1103,N-Back (New Version 2021),2021.1.4,120.33955011038839,
,,,,Conditions/Version_1/oneback(3)_v1.xlsx,New rule: Press 'space' when you see 1-back (i.e. the same letter as the one that appeared 1 letter ago.),z,None,,,,,,,,,0,11,11,11,0,5,5,5,,,,,,,,,,,,,,,,,,,,,,,,,,,,,,,,,,,,,,,,,,,,,,,,,,,,,,,,,,,,,,,,,,,,,1.2518,1389.5984578999924,None,None,1,1389.5984578999924,None,,P027,FENCOG,2,Pre,2022_Feb_28_1103,N-Back (New Version 2021),2021.1.4,120.33955011038839,
,,,,Conditions/Version_1/oneback(3)_v1.xlsx,New rule: Press 'space' when you see 1-back (i.e. the same letter as the one that appeared 1 letter ago.),X,None,,,,,,,,,0,11,11,11,0,6,6,6,,,,,,,,,,,,,,,,,,,,,,,,,,,,,,,,,,,,,,,,,,,,,,,,,,,,,,,,,,,,,,,,,,,,,1.3696,1392.9787992999773,None,None,1,1392.9787992999773,None,,P027,FENCOG,2,Pre,2022_Feb_28_1103,N-Back (New Version 2021),2021.1.4,120.33955011038839,
,,,,Conditions/Version_1/oneback(3)_v1.xlsx,New rule: Press 'space' when you see 1-back (i.e. the same letter as the one that appeared 1 letter ago.),r,None,,,,,,,,,0,11,11,11,0,7,7,7,,,,,,,,,,,,,,,,,,,,,,,,,,,,,,,,,,,,,,,,,,,,,,,,,,,,,,,,,,,,,,,,,,,,,1.4192,1396.4028450999758,None,None,1,1396.4028450999758,None,,P027,FENCOG,2,Pre,2022_Feb_28_1103,N-Back (New Version 2021),2021.1.4,120.33955011038839,
,,,,Conditions/Version_1/oneback(3)_v1.xlsx,New rule: Press 'space' when you see 1-back (i.e. the same letter as the one that appeared 1 letter ago.),r,space,,,,,,,,,0,11,11,11,0,8,8,8,,,,,,,,,,,,,,,,,,,,,,,,,,,,,,,,,,,,,,,,,,,,,,,,,,,,,,,,,,,,,,,,,,,,,1.0224,1399.4270797999925,None,space,1,1399.4270797999925,None,0.7217323000077158,P027,FENCOG,2,Pre,2022_Feb_28_1103,N-Back (New Version 2021),2021.1.4,120.33955011038839,
,,,,Conditions/Version_1/oneback(3)_v1.xlsx,New rule: Press 'space' when you see 1-back (i.e. the same letter as the one that appeared 1 letter ago.),P,None,,,,,,,,,0,11,11,11,0,9,9,9,,,,,,,,,,,,,,,,,,,,,,,,,,,,,,,,,,,,,,,,,,,,,,,,,,,,,,,,,,,,,,,,,,,,,1.041,1402.4677073999774,None,None,1,1402.4677073999774,None,,P027,FENCOG,2,Pre,2022_Feb_28_1103,N-Back (New Version 2021),2021.1.4,120.33955011038839,
,,,,Conditions/Version_1/oneback(3)_v1.xlsx,New rule: Press 'space' when you see 1-back (i.e. the same letter as the one that appeared 1 letter ago.),,,,,,,,,,,0,11,11,11,,,,,,,,,,,,,,,,,,,,,,,,,,,,,,,,,,,,,,,,,,,,,,,,,,,,,,,,,,,,,,,,,,,,,,,,,,,,,,,,,P027,FENCOG,2,Pre,2022_Feb_28_1103,N-Back (New Version 2021),2021.1.4,120.33955011038839,
,,,,Conditions/Version_1/twoback(4)_v1.xlsx,New rule: Press 'space' when you see 2-back (i.e. the same letter as the one that appeared 2 letters ago.),r,None,,,,,,,,,0,12,12,12,0,0,0,0,,,,,,,,,,,,,,,,,,,,,,,,,,,,,,,,,,,,,,,,,,,,,,,,,,,,,,,,,,,1404.531435999961,None,1407.5179449999705,None,space,1.0947338999831118,1407.5179449999705,None,1404.531435999961,None,1.816,1410.456785199989,None,None,1,1410.456785199989,None,,P027,FENCOG,2,Pre,2022_Feb_28_1103,N-Back (New Version 2021),2021.1.4,120.33955011038839,
,,,,Conditions/Version_1/twoback(4)_v1.xlsx,New rule: Press 'space' when you see 2-back (i.e. the same letter as the one that appeared 2 letters ago.),T,None,,,,,,,,,0,12,12,12,0,1,1,1,,,,,,,,,,,,,,,,,,,,,,,,,,,,,,,,,,,,,,,,,,,,,,,,,,,,,,,,,,,,,,,,,,,,,1.4378,1413.8976933999802,None,None,1,1413.8976933999802,None,,P027,FENCOG,2,Pre,2022_Feb_28_1103,N-Back (New Version 2021),2021.1.4,120.33955011038839,
,,,,Conditions/Version_1/twoback(4)_v1.xlsx,New rule: Press 'space' when you see 2-back (i.e. the same letter as the one that appeared 2 letters ago.),o,None,,,,,,,,,0,12,12,12,0,2,2,2,,,,,,,,,,,,,,,,,,,,,,,,,,,,,,,,,,,,,,,,,,,,,,,,,,,,,,,,,,,,,,,,,,,,,1.6176,1417.521710000001,None,None,1,1417.521710000001,None,,P027,FENCOG,2,Pre,2022_Feb_28_1103,N-Back (New Version 2021),2021.1.4,120.33955011038839,
,,,,Conditions/Version_1/twoback(4)_v1.xlsx,New rule: Press 'space' when you see 2-back (i.e. the same letter as the one that appeared 2 letters ago.),p,None,,,,,,,,,0,12,12,12,0,3,3,3,,,,,,,,,,,,,,,,,,,,,,,,,,,,,,,,,,,,,,,,,,,,,,,,,,,,,,,,,,,,,,,,,,,,,1.3572,1420.8808301999816,None,None,1,1420.8808301999816,None,,P027,FENCOG,2,Pre,2022_Feb_28_1103,N-Back (New Version 2021),2021.1.4,120.33955011038839,
,,,,Conditions/Version_1/twoback(4)_v1.xlsx,New rule: Press 'space' when you see 2-back (i.e. the same letter as the one that appeared 2 letters ago.),p,None,,,,,,,,,0,12,12,12,0,4,4,4,,,,,,,,,,,,,,,,,,,,,,,,,,,,,,,,,,,,,,,,,,,,,,,,,,,,,,,,,,,,,,,,,,,,,1.9648,1424.8536875999998,None,None,1,1424.8536875999998,None,,P027,FENCOG,2,Pre,2022_Feb_28_1103,N-Back (New Version 2021),2021.1.4,120.33955011038839,
,,,,Conditions/Version_1/twoback(4)_v1.xlsx,New rule: Press 'space' when you see 2-back (i.e. the same letter as the one that appeared 2 letters ago.),y,None,,,,,,,,,0,12,12,12,0,5,5,5,,,,,,,,,,,,,,,,,,,,,,,,,,,,,,,,,,,,,,,,,,,,,,,,,,,,,,,,,,,,,,,,,,,,,1.5866,1428.451806899975,None,None,1,1428.451806899975,None,,P027,FENCOG,2,Pre,2022_Feb_28_1103,N-Back (New Version 2021),2021.1.4,120.33955011038839,
,,,,Conditions/Version_1/twoback(4)_v1.xlsx,New rule: Press 'space' when you see 2-back (i.e. the same letter as the one that appeared 2 letters ago.),P,space,,,,,,,,,0,12,12,12,0,6,6,6,,,,,,,,,,,,,,,,,,,,,,,,,,,,,,,,,,,,,,,,,,,,,,,,,,,,,,,,,,,,,,,,,,,,,1.289,1431.7424017000012,None,space,1,1431.7424017000012,None,0.7582470999914221,P027,FENCOG,2,Pre,2022_Feb_28_1103,N-Back (New Version 2021),2021.1.4,120.33955011038839,
,,,,Conditions/Version_1/twoback(4)_v1.xlsx,New rule: Press 'space' when you see 2-back (i.e. the same letter as the one that appeared 2 letters ago.),y,None,,,,,,,,,0,12,12,12,0,7,7,7,,,,,,,,,,,,,,,,,,,,,,,,,,,,,,,,,,,,,,,,,,,,,,,,,,,,,,,,,,,,,,,,,,,,,1.227,1434.9775535999797,None,space,0,1434.9775535999797,None,0.6512267999933101,P027,FENCOG,2,Pre,2022_Feb_28_1103,N-Back (New Version 2021),2021.1.4,120.33955011038839,
,,,,Conditions/Version_1/twoback(4)_v1.xlsx,New rule: Press 'space' when you see 2-back (i.e. the same letter as the one that appeared 2 letters ago.),y,space,,,,,,,,,0,12,12,12,0,8,8,8,,,,,,,,,,,,,,,,,,,,,,,,,,,,,,,,,,,,,,,,,,,,,,,,,,,,,,,,,,,,,,,,,,,,,1.3262,1438.3156535999733,None,space,1,1438.3156535999733,None,0.7208033999777399,P027,FENCOG,2,Pre,2022_Feb_28_1103,N-Back (New Version 2021),2021.1.4,120.33955011038839,
,,,,Conditions/Version_1/twoback(4)_v1.xlsx,New rule: Press 'space' when you see 2-back (i.e. the same letter as the one that appeared 2 letters ago.),,,,,,,,,,,0,12,12,12,,,,,,,,,,,,,,,,,,,,,,,,,,,,,,,,,,,,,,,,,,,,,,,,,,,,,,,,,,,,,,,,,,,,,,,,,,,,,,,,,P027,FENCOG,2,Pre,2022_Feb_28_1103,N-Back (New Version 2021),2021.1.4,120.33955011038839,
,,,,Conditions/Version_1/zeroback(4)_v1.xlsx,New rule: Press 'space' when you see the letter 'x' or 'X'.,o,None,,,,,,,,,0,13,13,13,0,0,0,0,,,,,,,,,,,,,,,,,,,,,,,,,,,,,,,,,,,,,,,,,,,,,,,,,,,,,,,,,,,1440.3343086999957,None,1443.3237647999777,None,space,0.6888133999891579,1443.3237647999777,None,1440.3343086999957,None,1.103,1445.1469076999929,None,None,1,1445.1469076999929,None,,P027,FENCOG,2,Pre,2022_Feb_28_1103,N-Back (New Version 2021),2021.1.4,120.33955011038839,
,,,,Conditions/Version_1/zeroback(4)_v1.xlsx,New rule: Press 'space' when you see the letter 'x' or 'X'.,X,space,,,,,,,,,0,13,13,13,0,1,1,1,,,,,,,,,,,,,,,,,,,,,,,,,,,,,,,,,,,,,,,,,,,,,,,,,,,,,,,,,,,,,,,,,,,,,1.3758,1448.5314669999643,None,space,1,1448.5314669999643,None,0.5613648999715224,P027,FENCOG,2,Pre,2022_Feb_28_1103,N-Back (New Version 2021),2021.1.4,120.33955011038839,
,,,,Conditions/Version_1/zeroback(4)_v1.xlsx,New rule: Press 'space' when you see the letter 'x' or 'X'.,p,None,,,,,,,,,0,13,13,13,0,2,2,2,,,,,,,,,,,,,,,,,,,,,,,,,,,,,,,,,,,,,,,,,,,,,,,,,,,,,,,,,,,,,,,,,,,,,1.6858,1452.2281304000062,None,None,1,1452.2281304000062,None,,P027,FENCOG,2,Pre,2022_Feb_28_1103,N-Back (New Version 2021),2021.1.4,120.33955011038839,
,,,,Conditions/Version_1/zeroback(4)_v1.xlsx,New rule: Press 'space' when you see the letter 'x' or 'X'.,m,None,,,,,,,,,0,13,13,13,0,3,3,3,,,,,,,,,,,,,,,,,,,,,,,,,,,,,,,,,,,,,,,,,,,,,,,,,,,,,,,,,,,,,,,,,,,,,1.599,1455.8279933999875,None,None,1,1455.8279933999875,None,,P027,FENCOG,2,Pre,2022_Feb_28_1103,N-Back (New Version 2021),2021.1.4,120.33955011038839,
,,,,Conditions/Version_1/zeroback(4)_v1.xlsx,New rule: Press 'space' when you see the letter 'x' or 'X'.,n,None,,,,,,,,,0,13,13,13,0,4,4,4,,,,,,,,,,,,,,,,,,,,,,,,,,,,,,,,,,,,,,,,,,,,,,,,,,,,,,,,,,,,,,,,,,,,,1.6796,1459.5195699000033,None,None,1,1459.5195699000033,None,,P027,FENCOG,2,Pre,2022_Feb_28_1103,N-Back (New Version 2021),2021.1.4,120.33955011038839,
,,,,Conditions/Version_1/zeroback(4)_v1.xlsx,New rule: Press 'space' when you see the letter 'x' or 'X'.,m,None,,,,,,,,,0,13,13,13,0,5,5,5,,,,,,,,,,,,,,,,,,,,,,,,,,,,,,,,,,,,,,,,,,,,,,,,,,,,,,,,,,,,,,,,,,,,,1.9648,1463.4914617000031,None,None,1,1463.4914617000031,None,,P027,FENCOG,2,Pre,2022_Feb_28_1103,N-Back (New Version 2021),2021.1.4,120.33955011038839,
,,,,Conditions/Version_1/zeroback(4)_v1.xlsx,New rule: Press 'space' when you see the letter 'x' or 'X'.,C,None,,,,,,,,,0,13,13,13,0,6,6,6,,,,,,,,,,,,,,,,,,,,,,,,,,,,,,,,,,,,,,,,,,,,,,,,,,,,,,,,,,,,,,,,,,,,,1.1836,1466.6737797999522,None,None,1,1466.6737797999522,None,,P027,FENCOG,2,Pre,2022_Feb_28_1103,N-Back (New Version 2021),2021.1.4,120.33955011038839,
,,,,Conditions/Version_1/zeroback(4)_v1.xlsx,New rule: Press 'space' when you see the letter 'x' or 'X'.,m,None,,,,,,,,,0,13,13,13,0,7,7,7,,,,,,,,,,,,,,,,,,,,,,,,,,,,,,,,,,,,,,,,,,,,,,,,,,,,,,,,,,,,,,,,,,,,,1.6362,1470.31639729999,None,None,1,1470.31639729999,None,,P027,FENCOG,2,Pre,2022_Feb_28_1103,N-Back (New Version 2021),2021.1.4,120.33955011038839,
,,,,Conditions/Version_1/zeroback(4)_v1.xlsx,New rule: Press 'space' when you see the letter 'x' or 'X'.,p,None,,,,,,,,,0,13,13,13,0,8,8,8,,,,,,,,,,,,,,,,,,,,,,,,,,,,,,,,,,,,,,,,,,,,,,,,,,,,,,,,,,,,,,,,,,,,,1.3634,1473.6900258999667,None,None,1,1473.6900258999667,None,,P027,FENCOG,2,Pre,2022_Feb_28_1103,N-Back (New Version 2021),2021.1.4,120.33955011038839,
,,,,Conditions/Version_1/zeroback(4)_v1.xlsx,New rule: Press 'space' when you see the letter 'x' or 'X'.,X,space,,,,,,,,,0,13,13,13,0,9,9,9,,,,,,,,,,,,,,,,,,,,,,,,,,,,,,,,,,,,,,,,,,,,,,,,,,,,,,,,,,,,,,,,,,,,,1.1092,1476.804695800005,None,space,1,1476.804695800005,None,0.5439650000189431,P027,FENCOG,2,Pre,2022_Feb_28_1103,N-Back (New Version 2021),2021.1.4,120.33955011038839,
,,,,Conditions/Version_1/zeroback(4)_v1.xlsx,New rule: Press 'space' when you see the letter 'x' or 'X'.,,,,,,,,,,,0,13,13,13,,,,,,,,,,,,,,,,,,,,,,,,,,,,,,,,,,,,,,,,,,,,,,,,,,,,,,,,,,,,,,,,,,,,,,,,,,,,,,,,,P027,FENCOG,2,Pre,2022_Feb_28_1103,N-Back (New Version 2021),2021.1.4,120.33955011038839,
,,,,Conditions/Version_1/oneback(4)_v1.xlsx,New rule: Press 'space' when you see 1-back (i.e. the same letter as the one that appeared 1 letter ago.),w,None,,,,,,,,,0,14,14,14,0,0,0,0,,,,,,,,,,,,,,,,,,,,,,,,,,,,,,,,,,,,,,,,,,,,,,,,,,,,,,,,,,,1478.8286468999577,None,1481.8043078999617,None,space,4.672265200002585,1481.8043078999617,None,1478.8286468999577,None,1.8408,1488.3424249999807,None,None,1,1488.3424249999807,None,,P027,FENCOG,2,Pre,2022_Feb_28_1103,N-Back (New Version 2021),2021.1.4,120.33955011038839,
,,,,Conditions/Version_1/oneback(4)_v1.xlsx,New rule: Press 'space' when you see 1-back (i.e. the same letter as the one that appeared 1 letter ago.),q,None,,,,,,,,,0,14,14,14,0,1,1,1,,,,,,,,,,,,,,,,,,,,,,,,,,,,,,,,,,,,,,,,,,,,,,,,,,,,,,,,,,,,,,,,,,,,,1.1774,1491.5257946999627,None,None,1,1491.5257946999627,None,,P027,FENCOG,2,Pre,2022_Feb_28_1103,N-Back (New Version 2021),2021.1.4,120.33955011038839,
,,,,Conditions/Version_1/oneback(4)_v1.xlsx,New rule: Press 'space' when you see 1-back (i.e. the same letter as the one that appeared 1 letter ago.),i,None,,,,,,,,,0,14,14,14,0,2,2,2,,,,,,,,,,,,,,,,,,,,,,,,,,,,,,,,,,,,,,,,,,,,,,,,,,,,,,,,,,,,,,,,,,,,,1.9958,1495.531984500005,None,None,1,1495.531984500005,None,,P027,FENCOG,2,Pre,2022_Feb_28_1103,N-Back (New Version 2021),2021.1.4,120.33955011038839,
,,,,Conditions/Version_1/oneback(4)_v1.xlsx,New rule: Press 'space' when you see 1-back (i.e. the same letter as the one that appeared 1 letter ago.),t,None,,,,,,,,,0,14,14,14,0,3,3,3,,,,,,,,,,,,,,,,,,,,,,,,,,,,,,,,,,,,,,,,,,,,,,,,,,,,,,,,,,,,,,,,,,,,,1.816,1499.3474915999686,None,None,1,1499.3474915999686,None,,P027,FENCOG,2,Pre,2022_Feb_28_1103,N-Back (New Version 2021),2021.1.4,120.33955011038839,
,,,,Conditions/Version_1/oneback(4)_v1.xlsx,New rule: Press 'space' when you see 1-back (i.e. the same letter as the one that appeared 1 letter ago.),v,None,,,,,,,,,0,14,14,14,0,4,4,4,,,,,,,,,,,,,,,,,,,,,,,,,,,,,,,,,,,,,,,,,,,,,,,,,,,,,,,,,,,,,,,,,,,,,1.6796,1503.0302364999661,None,None,1,1503.0302364999661,None,,P027,FENCOG,2,Pre,2022_Feb_28_1103,N-Back (New Version 2021),2021.1.4,120.33955011038839,
,,,,Conditions/Version_1/oneback(4)_v1.xlsx,New rule: Press 'space' when you see 1-back (i.e. the same letter as the one that appeared 1 letter ago.),V,space,,,,,,,,,0,14,14,14,0,5,5,5,,,,,,,,,,,,,,,,,,,,,,,,,,,,,,,,,,,,,,,,,,,,,,,,,,,,,,,,,,,,,,,,,,,,,1.9586,1506.9887172000017,None,space,1,1506.9887172000017,None,0.4158274999936111,P027,FENCOG,2,Pre,2022_Feb_28_1103,N-Back (New Version 2021),2021.1.4,120.33955011038839,
,,,,Conditions/Version_1/oneback(4)_v1.xlsx,New rule: Press 'space' when you see 1-back (i.e. the same letter as the one that appeared 1 letter ago.),v,space,,,,,,,,,0,14,14,14,0,6,6,6,,,,,,,,,,,,,,,,,,,,,,,,,,,,,,,,,,,,,,,,,,,,,,,,,,,,,,,,,,,,,,,,,,,,,1.5432,1510.5450233999873,None,space,1,1510.5450233999873,None,0.5237590000033379,P027,FENCOG,2,Pre,2022_Feb_28_1103,N-Back (New Version 2021),2021.1.4,120.33955011038839,
,,,,Conditions/Version_1/oneback(4)_v1.xlsx,New rule: Press 'space' when you see 1-back (i.e. the same letter as the one that appeared 1 letter ago.),p,None,,,,,,,,,0,14,14,14,0,7,7,7,,,,,,,,,,,,,,,,,,,,,,,,,,,,,,,,,,,,,,,,,,,,,,,,,,,,,,,,,,,,,,,,,,,,,1.2766,1513.8349656999926,None,None,1,1513.8349656999926,None,,P027,FENCOG,2,Pre,2022_Feb_28_1103,N-Back (New Version 2021),2021.1.4,120.33955011038839,
,,,,Conditions/Version_1/oneback(4)_v1.xlsx,New rule: Press 'space' when you see 1-back (i.e. the same letter as the one that appeared 1 letter ago.),w,None,,,,,,,,,0,14,14,14,0,8,8,8,,,,,,,,,,,,,,,,,,,,,,,,,,,,,,,,,,,,,,,,,,,,,,,,,,,,,,,,,,,,,,,,,,,,,1.0658,1516.9018017000053,None,None,1,1516.9018017000053,None,,P027,FENCOG,2,Pre,2022_Feb_28_1103,N-Back (New Version 2021),2021.1.4,120.33955011038839,
,,,,Conditions/Version_1/oneback(4)_v1.xlsx,New rule: Press 'space' when you see 1-back (i.e. the same letter as the one that appeared 1 letter ago.),W,space,,,,,,,,,0,14,14,14,0,9,9,9,,,,,,,,,,,,,,,,,,,,,,,,,,,,,,,,,,,,,,,,,,,,,,,,,,,,,,,,,,,,,,,,,,,,,1.2208,1520.13305449998,None,space,1,1520.13305449998,None,0.6315423999913037,P027,FENCOG,2,Pre,2022_Feb_28_1103,N-Back (New Version 2021),2021.1.4,120.33955011038839,
,,,,Conditions/Version_1/oneback(4)_v1.xlsx,New rule: Press 'space' when you see 1-back (i.e. the same letter as the one that appeared 1 letter ago.),,,,,,,,,,,0,14,14,14,,,,,,,,,,,,,,,,,,,,,,,,,,,,,,,,,,,,,,,,,,,,,,,,,,,,,,,,,,,,,,,,,,,,,,,,,,,,,,,,,P027,FENCOG,2,Pre,2022_Feb_28_1103,N-Back (New Version 2021),2021.1.4,120.33955011038839,
,,,,Conditions/Version_1/threeback(4)_v1.xlsx,New rule: Press 'space' when you see 3-back (i.e. the same letter as the one that appeared 3 letters ago.),A,None,,,,,,,,,0,15,15,15,0,0,0,0,,,,,,,,,,,,,,,,,,,,,,,,,,,,,,,,,,,,,,,,,,,,,,,,,,,,,,,,,,,1522.1555859999498,None,1525.141462999978,None,space,2.959154699987266,1525.141462999978,None,1522.1555859999498,None,1.8222,1529.9503900999553,None,None,1,1529.9503900999553,None,,P027,FENCOG,2,Pre,2022_Feb_28_1103,N-Back (New Version 2021),2021.1.4,120.33955011038839,
,,,,Conditions/Version_1/threeback(4)_v1.xlsx,New rule: Press 'space' when you see 3-back (i.e. the same letter as the one that appeared 3 letters ago.),n,None,,,,,,,,,0,15,15,15,0,1,1,1,,,,,,,,,,,,,,,,,,,,,,,,,,,,,,,,,,,,,,,,,,,,,,,,,,,,,,,,,,,,,,,,,,,,,1.6982,1533.6552901999676,None,None,1,1533.6552901999676,None,,P027,FENCOG,2,Pre,2022_Feb_28_1103,N-Back (New Version 2021),2021.1.4,120.33955011038839,
,,,,Conditions/Version_1/threeback(4)_v1.xlsx,New rule: Press 'space' when you see 3-back (i.e. the same letter as the one that appeared 3 letters ago.),g,None,,,,,,,,,0,15,15,15,0,2,2,2,,,,,,,,,,,,,,,,,,,,,,,,,,,,,,,,,,,,,,,,,,,,,,,,,,,,,,,,,,,,,,,,,,,,,1.6486,1537.3113044999773,None,None,1,1537.3113044999773,None,,P027,FENCOG,2,Pre,2022_Feb_28_1103,N-Back (New Version 2021),2021.1.4,120.33955011038839,
,,,,Conditions/Version_1/threeback(4)_v1.xlsx,New rule: Press 'space' when you see 3-back (i.e. the same letter as the one that appeared 3 letters ago.),A,space,,,,,,,,,0,15,15,15,0,3,3,3,,,,,,,,,,,,,,,,,,,,,,,,,,,,,,,,,,,,,,,,,,,,,,,,,,,,,,,,,,,,,,,,,,,,,1.8284,1541.1446890999796,None,space,1,1541.1446890999796,None,0.5001411000266671,P027,FENCOG,2,Pre,2022_Feb_28_1103,N-Back (New Version 2021),2021.1.4,120.33955011038839,
,,,,Conditions/Version_1/threeback(4)_v1.xlsx,New rule: Press 'space' when you see 3-back (i.e. the same letter as the one that appeared 3 letters ago.),p,None,,,,,,,,,0,15,15,15,0,4,4,4,,,,,,,,,,,,,,,,,,,,,,,,,,,,,,,,,,,,,,,,,,,,,,,,,,,,,,,,,,,,,,,,,,,,,1.01,1544.1678504999727,None,None,1,1544.1678504999727,None,,P027,FENCOG,2,Pre,2022_Feb_28_1103,N-Back (New Version 2021),2021.1.4,120.33955011038839,
,,,,Conditions/Version_1/threeback(4)_v1.xlsx,New rule: Press 'space' when you see 3-back (i.e. the same letter as the one that appeared 3 letters ago.),O,None,,,,,,,,,0,15,15,15,0,5,5,5,,,,,,,,,,,,,,,,,,,,,,,,,,,,,,,,,,,,,,,,,,,,,,,,,,,,,,,,,,,,,,,,,,,,,1.6424,1547.8185665999772,None,None,1,1547.8185665999772,None,,P027,FENCOG,2,Pre,2022_Feb_28_1103,N-Back (New Version 2021),2021.1.4,120.33955011038839,
,,,,Conditions/Version_1/threeback(4)_v1.xlsx,New rule: Press 'space' when you see 3-back (i.e. the same letter as the one that appeared 3 letters ago.),a,space,,,,,,,,,0,15,15,15,0,6,6,6,,,,,,,,,,,,,,,,,,,,,,,,,,,,,,,,,,,,,,,,,,,,,,,,,,,,,,,,,,,,,,,,,,,,,1.2766,1551.107246599975,None,space,1,1551.107246599975,None,0.45742480002809316,P027,FENCOG,2,Pre,2022_Feb_28_1103,N-Back (New Version 2021),2021.1.4,120.33955011038839,
,,,,Conditions/Version_1/threeback(4)_v1.xlsx,New rule: Press 'space' when you see 3-back (i.e. the same letter as the one that appeared 3 letters ago.),p,space,,,,,,,,,0,15,15,15,0,7,7,7,,,,,,,,,,,,,,,,,,,,,,,,,,,,,,,,,,,,,,,,,,,,,,,,,,,,,,,,,,,,,,,,,,,,,1.2952,1554.4063135999604,None,space,1,1554.4063135999604,None,0.750263299967628,P027,FENCOG,2,Pre,2022_Feb_28_1103,N-Back (New Version 2021),2021.1.4,120.33955011038839,
,,,,Conditions/Version_1/threeback(4)_v1.xlsx,New rule: Press 'space' when you see 3-back (i.e. the same letter as the one that appeared 3 letters ago.),x,None,,,,,,,,,0,15,15,15,0,8,8,8,,,,,,,,,,,,,,,,,,,,,,,,,,,,,,,,,,,,,,,,,,,,,,,,,,,,,,,,,,,,,,,,,,,,,1.4998,1557.9073133000056,None,None,1,1557.9073133000056,None,,P027,FENCOG,2,Pre,2022_Feb_28_1103,N-Back (New Version 2021),2021.1.4,120.33955011038839,
,,,,Conditions/Version_1/threeback(4)_v1.xlsx,New rule: Press 'space' when you see 3-back (i.e. the same letter as the one that appeared 3 letters ago.),X,None,,,,,,,,,0,15,15,15,0,9,9,9,,,,,,,,,,,,,,,,,,,,,,,,,,,,,,,,,,,,,,,,,,,,,,,,,,,,,,,,,,,,,,,,,,,,,1.3944,1561.3126323999604,None,None,1,1561.3126323999604,None,,P027,FENCOG,2,Pre,2022_Feb_28_1103,N-Back (New Version 2021),2021.1.4,120.33955011038839,
,,,,Conditions/Version_1/threeback(4)_v1.xlsx,New rule: Press 'space' when you see 3-back (i.e. the same letter as the one that appeared 3 letters ago.),,,,,,,,,,,0,15,15,15,,,,,,,,,,,,,,,,,,,,,,,,,,,,,,,,,,,,,,,,,,,,,,,,,,,,,,,,,,,,,,,,,,,,,,,,,,,,,,,,,P027,FENCOG,2,Pre,2022_Feb_28_1103,N-Back (New Version 2021),2021.1.4,120.33955011038839,
