CondFileP,InstructionsP,LettersDisplayedP,CorrectnessP,CondFile,Instructions,LettersDisplayed,Correctness,practicetrials.thisRepN,practicetrials.thisTrialN,practicetrials.thisN,practicetrials.thisIndex,InnerLoopPractice.thisRepN,InnerLoopPractice.thisTrialN,InnerLoopPractice.thisN,InnerLoopPractice.thisIndex,trials.thisRepN,trials.thisTrialN,trials.thisN,trials.thisIndex,InnerLoop.thisRepN,InnerLoop.thisTrialN,InnerLoop.thisN,InnerLoop.thisIndex,TaskVersionText.started,TaskVersionText.stopped,InstrKey1.keys,InstrKey1.rt,InstrKey1.started,InstrKey1.stopped,text.started,text.stopped,key_resp_4.keys,key_resp_4.rt,key_resp_4.started,key_resp_4.stopped,text_2.started,text_2.stopped,key_resp_3.keys,key_resp_3.rt,key_resp_3.started,key_resp_3.stopped,text_3.started,text_3.stopped,key_resp_2.keys,key_resp_2.rt,key_resp_2.started,key_resp_2.stopped,PractIn1.started,PractIn1.stopped,PractIn2.started,PractIn2.stopped,PractInstructionPass.keys,PractInstructionPass.rt,PractInstructionPass.started,PractInstructionPass.stopped,PractBlock1.started,PractBlock1.stopped,ISIjitterPractice,ISI_Pract_Fixation.started,ISI_Pract_Fixation.stopped,N_backP.started,N_backP.stopped,KeyPractice.keys,KeyPractice.corr,KeyPractice.started,KeyPractice.stopped,text_4.started,text_4.stopped,KeyPractice.rt,TransitionText.started,TransitionText.stopped,key_resp_6.keys,key_resp_6.rt,key_resp_6.started,key_resp_6.stopped,text_5.started,text_5.stopped,key_resp_5.keys,key_resp_5.rt,key_resp_5.started,key_resp_5.stopped,MainInt1.started,MainInt1.stopped,MainInt2.started,MainInt2.stopped,InstructionPass.keys,InstructionPass.rt,InstructionPass.started,InstructionPass.stopped,Blocks1.started,Blocks1.stopped,ISIjitter,N_backD.started,N_backD.stopped,key_resp.keys,key_resp.corr,key_resp.started,key_resp.stopped,key_resp.rt,participant,Study Name,Task Version (required to run),PRE/POST,date,expName,psychopyVersion,frameRate
,,,,,,,,,,,,,,,,,,,,,,,,30.7018536,None,space,4.4716848,31.1950018,None,,,,,,,,,,,,,,,,,,,,,,,,,,,,,,,,,,,,,,,,,,,,,,,,,,,,,,,,,,,,,,,,,,,,,,,P027,fencog,1,Post,2022_Mar_07_1234,N-Back (New Version 2021),2021.1.4,120.4936867
,,,,,,,,,,,,,,,,,,,,,,,,,,,,,,35.6976838,None,space,22.4565367,36.1939075,None,,,,,,,,,,,,,,,,,,,,,,,,,,,,,,,,,,,,,,,,,,,,,,,,,,,,,,,,,,,,,,,,,P027,fencog,1,Post,2022_Mar_07_1234,N-Back (New Version 2021),2021.1.4,120.4936867
,,,,,,,,,,,,,,,,,,,,,,,,,,,,,,,,,,,,58.6853521,None,space,1.4636988,59.1788716,None,,,,,,,,,,,,,,,,,,,,,,,,,,,,,,,,,,,,,,,,,,,,,,,,,,,,,,,,,,,P027,fencog,1,Post,2022_Mar_07_1234,N-Back (New Version 2021),2021.1.4,120.4936867
,,,,,,,,,,,,,,,,,,,,,,,,,,,,,,,,,,,,,,,,,,60.6736841,None,space,1.8647545,61.1617867,None,,,,,,,,,,,,,,,,,,,,,,,,,,,,,,,,,,,,,,,,,,,,,,,,,,,,,P027,fencog,1,Post,2022_Mar_07_1234,N-Back (New Version 2021),2021.1.4,120.4936867
Conditions/Version_1Pr/zeroback(1)_v1.xlsx,Rule: Press 'space' when you see the letter 'x' or 'X'.,Z,None,,,,,0,0,0,0,0,0,0,0,,,,,,,,,,,,,,,,,,,,,,,,,,,,,,,,,64.4052668,None,67.3936275,None,space,0.3930138,67.3936275,None,64.4052668,None,1.365,67.8148391,None,69.1861651,None,None,1,69.1861651,None,71.1929742,None,,,,,,,,,,,,,,,,,,,,,,,,,,,,,,,,P027,fencog,1,Post,2022_Mar_07_1234,N-Back (New Version 2021),2021.1.4,120.4936867
Conditions/Version_1Pr/zeroback(1)_v1.xlsx,Rule: Press 'space' when you see the letter 'x' or 'X'.,r,None,,,,,0,0,0,0,0,1,1,1,,,,,,,,,,,,,,,,,,,,,,,,,,,,,,,,,,,,,,,,,,,1.39,72.6926911,None,74.0837677,None,None,1,74.0837677,None,76.0898419,None,,,,,,,,,,,,,,,,,,,,,,,,,,,,,,,,P027,fencog,1,Post,2022_Mar_07_1234,N-Back (New Version 2021),2021.1.4,120.4936867
Conditions/Version_1Pr/zeroback(1)_v1.xlsx,Rule: Press 'space' when you see the letter 'x' or 'X'.,X,space,,,,,0,0,0,0,0,2,2,2,,,,,,,,,,,,,,,,,,,,,,,,,,,,,,,,,,,,,,,,,,,1.84,77.5893942,None,79.4331079,None,space,1,79.4331079,None,79.7736442,None,0.3294504,,,,,,,,,,,,,,,,,,,,,,,,,,,,,,,P027,fencog,1,Post,2022_Mar_07_1234,N-Back (New Version 2021),2021.1.4,120.4936867
Conditions/Version_1Pr/zeroback(1)_v1.xlsx,Rule: Press 'space' when you see the letter 'x' or 'X'.,p,None,,,,,0,0,0,0,0,3,3,3,,,,,,,,,,,,,,,,,,,,,,,,,,,,,,,,,,,,,,,,,,,1.265,81.2811995,None,82.5469394,None,None,1,82.5469394,None,84.5507145,None,,,,,,,,,,,,,,,,,,,,,,,,,,,,,,,,P027,fencog,1,Post,2022_Mar_07_1234,N-Back (New Version 2021),2021.1.4,120.4936867
Conditions/Version_1Pr/zeroback(1)_v1.xlsx,Rule: Press 'space' when you see the letter 'x' or 'X'.,w,None,,,,,0,0,0,0,0,4,4,4,,,,,,,,,,,,,,,,,,,,,,,,,,,,,,,,,,,,,,,,,,,1.115,86.0535411,None,87.1705929,None,None,1,87.1705929,None,89.1776352,None,,,,,,,,,,,,,,,,,,,,,,,,,,,,,,,,P027,fencog,1,Post,2022_Mar_07_1234,N-Back (New Version 2021),2021.1.4,120.4936867
Conditions/Version_1Pr/zeroback(1)_v1.xlsx,Rule: Press 'space' when you see the letter 'x' or 'X'.,e,None,,,,,0,0,0,0,0,5,5,5,,,,,,,,,,,,,,,,,,,,,,,,,,,,,,,,,,,,,,,,,,,1.29,90.6778224,None,91.9700092,None,None,1,91.9700092,None,93.9762574,None,,,,,,,,,,,,,,,,,,,,,,,,,,,,,,,,P027,fencog,1,Post,2022_Mar_07_1234,N-Back (New Version 2021),2021.1.4,120.4936867
Conditions/Version_1Pr/zeroback(1)_v1.xlsx,Rule: Press 'space' when you see the letter 'x' or 'X'.,X,space,,,,,0,0,0,0,0,6,6,6,,,,,,,,,,,,,,,,,,,,,,,,,,,,,,,,,,,,,,,,,,,1.04,95.4764451,None,96.5170471,None,space,1,96.5170471,None,96.9197686,None,0.3897247,,,,,,,,,,,,,,,,,,,,,,,,,,,,,,,P027,fencog,1,Post,2022_Mar_07_1234,N-Back (New Version 2021),2021.1.4,120.4936867
Conditions/Version_1Pr/zeroback(1)_v1.xlsx,Rule: Press 'space' when you see the letter 'x' or 'X'.,x,space,,,,,0,0,0,0,0,7,7,7,,,,,,,,,,,,,,,,,,,,,,,,,,,,,,,,,,,,,,,,,,,2.015,98.4248838,None,100.4423892,None,space,1,100.4423892,None,101.034829,None,0.5763534,,,,,,,,,,,,,,,,,,,,,,,,,,,,,,,P027,fencog,1,Post,2022_Mar_07_1234,N-Back (New Version 2021),2021.1.4,120.4936867
Conditions/Version_1Pr/zeroback(1)_v1.xlsx,Rule: Press 'space' when you see the letter 'x' or 'X'.,p,None,,,,,0,0,0,0,0,8,8,8,,,,,,,,,,,,,,,,,,,,,,,,,,,,,,,,,,,,,,,,,,,1.565,102.5403927,None,104.1117201,None,None,1,104.1117201,None,106.1143904,None,,,,,,,,,,,,,,,,,,,,,,,,,,,,,,,,P027,fencog,1,Post,2022_Mar_07_1234,N-Back (New Version 2021),2021.1.4,120.4936867
Conditions/Version_1Pr/zeroback(1)_v1.xlsx,Rule: Press 'space' when you see the letter 'x' or 'X'.,r,None,,,,,0,0,0,0,0,9,9,9,,,,,,,,,,,,,,,,,,,,,,,,,,,,,,,,,,,,,,,,,,,1.815,107.6137372,None,109.4296718,None,None,1,109.4296718,None,111.4293167,None,,,,,,,,,,,,,,,,,,,,,,,,,,,,,,,,P027,fencog,1,Post,2022_Mar_07_1234,N-Back (New Version 2021),2021.1.4,120.4936867
Conditions/Version_1Pr/zeroback(1)_v1.xlsx,Rule: Press 'space' when you see the letter 'x' or 'X'.,,,,,,,0,0,0,0,,,,,,,,,,,,,,,,,,,,,,,,,,,,,,,,,,,,,,,,,,,,,,,,,,,,,,,,,,,,,,,,,,,,,,,,,,,,,,,,,,,,,,,,,P027,fencog,1,Post,2022_Mar_07_1234,N-Back (New Version 2021),2021.1.4,120.4936867
Conditions/Version_1Pr/oneback(1)_v1.xlsx,New rule: Press 'space' when you see 1-back (i.e. the same letter as the one that appeared 1 letter ago.),a,None,,,,,0,1,1,1,0,0,0,0,,,,,,,,,,,,,,,,,,,,,,,,,,,,,,,,,112.9516529,None,115.9379328,None,space,2.8726775,115.9379328,None,112.9516529,None,1.74,118.8340922,None,120.5780532,None,None,1,120.5780532,None,122.5845518,None,,,,,,,,,,,,,,,,,,,,,,,,,,,,,,,,P027,fencog,1,Post,2022_Mar_07_1234,N-Back (New Version 2021),2021.1.4,120.4936867
Conditions/Version_1Pr/oneback(1)_v1.xlsx,New rule: Press 'space' when you see 1-back (i.e. the same letter as the one that appeared 1 letter ago.),x,None,,,,,0,1,1,1,0,1,1,1,,,,,,,,,,,,,,,,,,,,,,,,,,,,,,,,,,,,,,,,,,,1.29,124.0840073,None,125.3761227,None,None,1,125.3761227,None,127.3771507,None,,,,,,,,,,,,,,,,,,,,,,,,,,,,,,,,P027,fencog,1,Post,2022_Mar_07_1234,N-Back (New Version 2021),2021.1.4,120.4936867
Conditions/Version_1Pr/oneback(1)_v1.xlsx,New rule: Press 'space' when you see 1-back (i.e. the same letter as the one that appeared 1 letter ago.),g,None,,,,,0,1,1,1,0,2,2,2,,,,,,,,,,,,,,,,,,,,,,,,,,,,,,,,,,,,,,,,,,,1.565,128.8826157,None,130.4495172,None,None,1,130.4495172,None,132.4565871,None,,,,,,,,,,,,,,,,,,,,,,,,,,,,,,,,P027,fencog,1,Post,2022_Mar_07_1234,N-Back (New Version 2021),2021.1.4,120.4936867
Conditions/Version_1Pr/oneback(1)_v1.xlsx,New rule: Press 'space' when you see 1-back (i.e. the same letter as the one that appeared 1 letter ago.),G,space,,,,,0,1,1,1,0,3,3,3,,,,,,,,,,,,,,,,,,,,,,,,,,,,,,,,,,,,,,,,,,,1.965,133.9560974,None,135.9275786,None,space,1,135.9275786,None,136.2810027,None,0.3388613,,,,,,,,,,,,,,,,,,,,,,,,,,,,,,,P027,fencog,1,Post,2022_Mar_07_1234,N-Back (New Version 2021),2021.1.4,120.4936867
Conditions/Version_1Pr/oneback(1)_v1.xlsx,New rule: Press 'space' when you see 1-back (i.e. the same letter as the one that appeared 1 letter ago.),u,None,,,,,0,1,1,1,0,4,4,4,,,,,,,,,,,,,,,,,,,,,,,,,,,,,,,,,,,,,,,,,,,1.165,137.779947,None,138.9467,None,None,1,138.9467,None,140.9457256,None,,,,,,,,,,,,,,,,,,,,,,,,,,,,,,,,P027,fencog,1,Post,2022_Mar_07_1234,N-Back (New Version 2021),2021.1.4,120.4936867
Conditions/Version_1Pr/oneback(1)_v1.xlsx,New rule: Press 'space' when you see 1-back (i.e. the same letter as the one that appeared 1 letter ago.),y,None,,,,,0,1,1,1,0,5,5,5,,,,,,,,,,,,,,,,,,,,,,,,,,,,,,,,,,,,,,,,,,,1.59,142.4488679,None,144.0463309,None,None,1,144.0463309,None,146.0525896,None,,,,,,,,,,,,,,,,,,,,,,,,,,,,,,,,P027,fencog,1,Post,2022_Mar_07_1234,N-Back (New Version 2021),2021.1.4,120.4936867
Conditions/Version_1Pr/oneback(1)_v1.xlsx,New rule: Press 'space' when you see 1-back (i.e. the same letter as the one that appeared 1 letter ago.),y,space,,,,,0,1,1,1,0,6,6,6,,,,,,,,,,,,,,,,,,,,,,,,,,,,,,,,,,,,,,,,,,,1.865,147.5521176,None,149.4181986,None,space,1,149.4181986,None,150.8860028,None,1.4562767,,,,,,,,,,,,,,,,,,,,,,,,,,,,,,,P027,fencog,1,Post,2022_Mar_07_1234,N-Back (New Version 2021),2021.1.4,120.4936867
Conditions/Version_1Pr/oneback(1)_v1.xlsx,New rule: Press 'space' when you see 1-back (i.e. the same letter as the one that appeared 1 letter ago.),k,None,,,,,0,1,1,1,0,7,7,7,,,,,,,,,,,,,,,,,,,,,,,,,,,,,,,,,,,,,,,,,,,1.99,152.3921142,None,154.386215,None,None,1,154.386215,None,156.3912343,None,,,,,,,,,,,,,,,,,,,,,,,,,,,,,,,,P027,fencog,1,Post,2022_Mar_07_1234,N-Back (New Version 2021),2021.1.4,120.4936867
Conditions/Version_1Pr/oneback(1)_v1.xlsx,New rule: Press 'space' when you see 1-back (i.e. the same letter as the one that appeared 1 letter ago.),c,None,,,,,0,1,1,1,0,8,8,8,,,,,,,,,,,,,,,,,,,,,,,,,,,,,,,,,,,,,,,,,,,1.765,157.8907331,None,159.6622818,None,None,1,159.6622818,None,161.6646428,None,,,,,,,,,,,,,,,,,,,,,,,,,,,,,,,,P027,fencog,1,Post,2022_Mar_07_1234,N-Back (New Version 2021),2021.1.4,120.4936867
Conditions/Version_1Pr/oneback(1)_v1.xlsx,New rule: Press 'space' when you see 1-back (i.e. the same letter as the one that appeared 1 letter ago.),r,None,,,,,0,1,1,1,0,9,9,9,,,,,,,,,,,,,,,,,,,,,,,,,,,,,,,,,,,,,,,,,,,1.34,163.1639093,None,164.5102178,None,None,1,164.5102178,None,166.5132074,None,,,,,,,,,,,,,,,,,,,,,,,,,,,,,,,,P027,fencog,1,Post,2022_Mar_07_1234,N-Back (New Version 2021),2021.1.4,120.4936867
Conditions/Version_1Pr/oneback(1)_v1.xlsx,New rule: Press 'space' when you see 1-back (i.e. the same letter as the one that appeared 1 letter ago.),,,,,,,0,1,1,1,,,,,,,,,,,,,,,,,,,,,,,,,,,,,,,,,,,,,,,,,,,,,,,,,,,,,,,,,,,,,,,,,,,,,,,,,,,,,,,,,,,,,,,,,P027,fencog,1,Post,2022_Mar_07_1234,N-Back (New Version 2021),2021.1.4,120.4936867
Conditions/Version_1Pr/twoback(1)_v1.xlsx,New rule: Press 'space' when you see 2-back (i.e. the same letter as the one that appeared 2 letters ago.),E,None,,,,,0,2,2,2,0,0,0,0,,,,,,,,,,,,,,,,,,,,,,,,,,,,,,,,,168.0373928,None,171.0224656,None,space,2.5160166,171.0224656,None,168.0373928,None,1.665,173.5659558,None,175.2405119,None,None,1,175.2405119,None,177.2433328,None,,,,,,,,,,,,,,,,,,,,,,,,,,,,,,,,P027,fencog,1,Post,2022_Mar_07_1234,N-Back (New Version 2021),2021.1.4,120.4936867
Conditions/Version_1Pr/twoback(1)_v1.xlsx,New rule: Press 'space' when you see 2-back (i.e. the same letter as the one that appeared 2 letters ago.),p,None,,,,,0,2,2,2,0,1,1,1,,,,,,,,,,,,,,,,,,,,,,,,,,,,,,,,,,,,,,,,,,,1.115,178.7428851,None,179.8599681,None,None,1,179.8599681,None,181.8669833,None,,,,,,,,,,,,,,,,,,,,,,,,,,,,,,,,P027,fencog,1,Post,2022_Mar_07_1234,N-Back (New Version 2021),2021.1.4,120.4936867
Conditions/Version_1Pr/twoback(1)_v1.xlsx,New rule: Press 'space' when you see 2-back (i.e. the same letter as the one that appeared 2 letters ago.),e,space,,,,,0,2,2,2,0,2,2,2,,,,,,,,,,,,,,,,,,,,,,,,,,,,,,,,,,,,,,,,,,,1.39,183.3665431,None,184.7575595,None,space,1,184.7575595,None,185.4589245,None,0.6849679,,,,,,,,,,,,,,,,,,,,,,,,,,,,,,,P027,fencog,1,Post,2022_Mar_07_1234,N-Back (New Version 2021),2021.1.4,120.4936867
Conditions/Version_1Pr/twoback(1)_v1.xlsx,New rule: Press 'space' when you see 2-back (i.e. the same letter as the one that appeared 2 letters ago.),s,None,,,,,0,2,2,2,0,3,3,3,,,,,,,,,,,,,,,,,,,,,,,,,,,,,,,,,,,,,,,,,,,1.29,186.9655423,None,188.2571406,None,None,1,188.2571406,None,190.2562448,None,,,,,,,,,,,,,,,,,,,,,,,,,,,,,,,,P027,fencog,1,Post,2022_Mar_07_1234,N-Back (New Version 2021),2021.1.4,120.4936867
Conditions/Version_1Pr/twoback(1)_v1.xlsx,New rule: Press 'space' when you see 2-back (i.e. the same letter as the one that appeared 2 letters ago.),S,None,,,,,0,2,2,2,0,4,4,4,,,,,,,,,,,,,,,,,,,,,,,,,,,,,,,,,,,,,,,,,,,1.565,191.7556141,None,193.3247709,None,None,1,193.3247709,None,195.3297528,None,,,,,,,,,,,,,,,,,,,,,,,,,,,,,,,,P027,fencog,1,Post,2022_Mar_07_1234,N-Back (New Version 2021),2021.1.4,120.4936867
Conditions/Version_1Pr/twoback(1)_v1.xlsx,New rule: Press 'space' when you see 2-back (i.e. the same letter as the one that appeared 2 letters ago.),s,space,,,,,0,2,2,2,0,5,5,5,,,,,,,,,,,,,,,,,,,,,,,,,,,,,,,,,,,,,,,,,,,2.015,196.8293373,None,198.8461098,None,space,1,198.8461098,None,199.313101,None,0.4524913,,,,,,,,,,,,,,,,,,,,,,,,,,,,,,,P027,fencog,1,Post,2022_Mar_07_1234,N-Back (New Version 2021),2021.1.4,120.4936867
Conditions/Version_1Pr/twoback(1)_v1.xlsx,New rule: Press 'space' when you see 2-back (i.e. the same letter as the one that appeared 2 letters ago.),P,None,,,,,0,2,2,2,0,6,6,6,,,,,,,,,,,,,,,,,,,,,,,,,,,,,,,,,,,,,,,,,,,1.69,200.819684,None,202.5202846,None,None,1,202.5202846,None,204.518508,None,,,,,,,,,,,,,,,,,,,,,,,,,,,,,,,,P027,fencog,1,Post,2022_Mar_07_1234,N-Back (New Version 2021),2021.1.4,120.4936867
Conditions/Version_1Pr/twoback(1)_v1.xlsx,New rule: Press 'space' when you see 2-back (i.e. the same letter as the one that appeared 2 letters ago.),C,None,,,,,0,2,2,2,0,7,7,7,,,,,,,,,,,,,,,,,,,,,,,,,,,,,,,,,,,,,,,,,,,1.415,206.0182383,None,207.4378988,None,None,1,207.4378988,None,209.4422238,None,,,,,,,,,,,,,,,,,,,,,,,,,,,,,,,,P027,fencog,1,Post,2022_Mar_07_1234,N-Back (New Version 2021),2021.1.4,120.4936867
Conditions/Version_1Pr/twoback(1)_v1.xlsx,New rule: Press 'space' when you see 2-back (i.e. the same letter as the one that appeared 2 letters ago.),x,None,,,,,0,2,2,2,0,8,8,8,,,,,,,,,,,,,,,,,,,,,,,,,,,,,,,,,,,,,,,,,,,1.59,210.9416117,None,212.5335227,None,None,1,212.5335227,None,214.5405828,None,,,,,,,,,,,,,,,,,,,,,,,,,,,,,,,,P027,fencog,1,Post,2022_Mar_07_1234,N-Back (New Version 2021),2021.1.4,120.4936867
Conditions/Version_1Pr/twoback(1)_v1.xlsx,New rule: Press 'space' when you see 2-back (i.e. the same letter as the one that appeared 2 letters ago.),Z,None,,,,,0,2,2,2,0,9,9,9,,,,,,,,,,,,,,,,,,,,,,,,,,,,,,,,,,,,,,,,,,,1.54,216.040911,None,217.5824951,None,None,1,217.5824951,None,219.5893114,None,,,,,,,,,,,,,,,,,,,,,,,,,,,,,,,,P027,fencog,1,Post,2022_Mar_07_1234,N-Back (New Version 2021),2021.1.4,120.4936867
Conditions/Version_1Pr/twoback(1)_v1.xlsx,New rule: Press 'space' when you see 2-back (i.e. the same letter as the one that appeared 2 letters ago.),,,,,,,0,2,2,2,,,,,,,,,,,,,,,,,,,,,,,,,,,,,,,,,,,,,,,,,,,,,,,,,,,,,,,,,,,,,,,,,,,,,,,,,,,,,,,,,,,,,,,,,P027,fencog,1,Post,2022_Mar_07_1234,N-Back (New Version 2021),2021.1.4,120.4936867
Conditions/Version_1Pr/threeback(1)_v1.xlsx,New rule: Press 'space' when you see 3-back (i.e. the same letter as the one that appeared 3 letters ago.),r,None,,,,,0,3,3,3,0,0,0,0,,,,,,,,,,,,,,,,,,,,,,,,,,,,,,,,,221.1068418,None,224.0899949,None,space,0.3604828,224.0899949,None,221.1068418,None,1.515,224.4720733,None,225.9925812,None,None,1,225.9925812,None,227.9950119,None,,,,,,,,,,,,,,,,,,,,,,,,,,,,,,,,P027,fencog,1,Post,2022_Mar_07_1234,N-Back (New Version 2021),2021.1.4,120.4936867
Conditions/Version_1Pr/threeback(1)_v1.xlsx,New rule: Press 'space' when you see 3-back (i.e. the same letter as the one that appeared 3 letters ago.),a,None,,,,,0,3,3,3,0,1,1,1,,,,,,,,,,,,,,,,,,,,,,,,,,,,,,,,,,,,,,,,,,,1.39,229.4945976,None,230.8868961,None,None,1,230.8868961,None,232.8936911,None,,,,,,,,,,,,,,,,,,,,,,,,,,,,,,,,P027,fencog,1,Post,2022_Mar_07_1234,N-Back (New Version 2021),2021.1.4,120.4936867
Conditions/Version_1Pr/threeback(1)_v1.xlsx,New rule: Press 'space' when you see 3-back (i.e. the same letter as the one that appeared 3 letters ago.),t,None,,,,,0,3,3,3,0,2,2,2,,,,,,,,,,,,,,,,,,,,,,,,,,,,,,,,,,,,,,,,,,,1.59,234.3931456,None,235.9894468,None,None,1,235.9894468,None,237.9920502,None,,,,,,,,,,,,,,,,,,,,,,,,,,,,,,,,P027,fencog,1,Post,2022_Mar_07_1234,N-Back (New Version 2021),2021.1.4,120.4936867
Conditions/Version_1Pr/threeback(1)_v1.xlsx,New rule: Press 'space' when you see 3-back (i.e. the same letter as the one that appeared 3 letters ago.),r,space,,,,,0,3,3,3,0,3,3,3,,,,,,,,,,,,,,,,,,,,,,,,,,,,,,,,,,,,,,,,,,,1.465,239.4916699,None,240.9576259,None,space,1,240.9576259,None,241.3921998,None,0.4207961,,,,,,,,,,,,,,,,,,,,,,,,,,,,,,,P027,fencog,1,Post,2022_Mar_07_1234,N-Back (New Version 2021),2021.1.4,120.4936867
Conditions/Version_1Pr/threeback(1)_v1.xlsx,New rule: Press 'space' when you see 3-back (i.e. the same letter as the one that appeared 3 letters ago.),a,None,,,,,0,3,3,3,0,4,4,4,,,,,,,,,,,,,,,,,,,,,,,,,,,,,,,,,,,,,,,,,,,1.19,242.8989862,None,244.0910357,None,space,0,244.0910357,None,244.7882772,None,0.6793906,,,,,,,,,,,,,,,,,,,,,,,,,,,,,,,P027,fencog,1,Post,2022_Mar_07_1234,N-Back (New Version 2021),2021.1.4,120.4936867
Conditions/Version_1Pr/threeback(1)_v1.xlsx,New rule: Press 'space' when you see 3-back (i.e. the same letter as the one that appeared 3 letters ago.),Y,None,,,,,0,3,3,3,0,5,5,5,,,,,,,,,,,,,,,,,,,,,,,,,,,,,,,,,,,,,,,,,,,1.365,246.2896987,None,247.6577558,None,None,1,247.6577558,None,249.6638279,None,,,,,,,,,,,,,,,,,,,,,,,,,,,,,,,,P027,fencog,1,Post,2022_Mar_07_1234,N-Back (New Version 2021),2021.1.4,120.4936867
Conditions/Version_1Pr/threeback(1)_v1.xlsx,New rule: Press 'space' when you see 3-back (i.e. the same letter as the one that appeared 3 letters ago.),q,None,,,,,0,3,3,3,0,6,6,6,,,,,,,,,,,,,,,,,,,,,,,,,,,,,,,,,,,,,,,,,,,1.165,251.1632383,None,252.3297644,None,None,1,252.3297644,None,254.328929,None,,,,,,,,,,,,,,,,,,,,,,,,,,,,,,,,P027,fencog,1,Post,2022_Mar_07_1234,N-Back (New Version 2021),2021.1.4,120.4936867
Conditions/Version_1Pr/threeback(1)_v1.xlsx,New rule: Press 'space' when you see 3-back (i.e. the same letter as the one that appeared 3 letters ago.),A,space,,,,,0,3,3,3,0,7,7,7,,,,,,,,,,,,,,,,,,,,,,,,,,,,,,,,,,,,,,,,,,,1.565,255.8301713,None,257.4031844,None,space,1,257.4031844,None,258.1449969,None,0.7273633,,,,,,,,,,,,,,,,,,,,,,,,,,,,,,,P027,fencog,1,Post,2022_Mar_07_1234,N-Back (New Version 2021),2021.1.4,120.4936867
Conditions/Version_1Pr/threeback(1)_v1.xlsx,New rule: Press 'space' when you see 3-back (i.e. the same letter as the one that appeared 3 letters ago.),y,None,,,,,0,3,3,3,0,8,8,8,,,,,,,,,,,,,,,,,,,,,,,,,,,,,,,,,,,,,,,,,,,1.915,259.6440367,None,261.5609198,None,None,1,261.5609198,None,263.567861,None,,,,,,,,,,,,,,,,,,,,,,,,,,,,,,,,P027,fencog,1,Post,2022_Mar_07_1234,N-Back (New Version 2021),2021.1.4,120.4936867
Conditions/Version_1Pr/threeback(1)_v1.xlsx,New rule: Press 'space' when you see 3-back (i.e. the same letter as the one that appeared 3 letters ago.),r,None,,,,,0,3,3,3,0,9,9,9,,,,,,,,,,,,,,,,,,,,,,,,,,,,,,,,,,,,,,,,,,,1.965,265.0684489,None,267.0346484,None,space,0,267.0346484,None,268.0954254,None,1.0478109,,,,,,,,,,,,,,,,,,,,,,,,,,,,,,,P027,fencog,1,Post,2022_Mar_07_1234,N-Back (New Version 2021),2021.1.4,120.4936867
Conditions/Version_1Pr/threeback(1)_v1.xlsx,New rule: Press 'space' when you see 3-back (i.e. the same letter as the one that appeared 3 letters ago.),,,,,,,0,3,3,3,,,,,,,,,,,,,,,,,,,,,,,,,,,,,,,,,,,,,,,,,,,,,,,,,,,,,,,,,,,,,,,,,,,,,,,,,,,,,,,,,,,,,,,,,P027,fencog,1,Post,2022_Mar_07_1234,N-Back (New Version 2021),2021.1.4,120.4936867
,,,,,,,,,,,,,,,,,,,,,,,,,,,,,,,,,,,,,,,,,,,,,,,,,,,,,,,,,,,,,,,,,,,,,,269.6128727,None,space,2.2945178,270.1078666,None,,,,,,,,,,,,,,,,,,,,,,,,,P027,fencog,1,Post,2022_Mar_07_1234,N-Back (New Version 2021),2021.1.4,120.4936867
,,,,,,,,,,,,,,,,,,,,,,,,,,,,,,,,,,,,,,,,,,,,,,,,,,,,,,,,,,,,,,,,,,,,,,,,,,,,272.4310256,None,space,4.4065064,272.9240482,None,,,,,,,,,,,,,,,,,,,P027,fencog,1,Post,2022_Mar_07_1234,N-Back (New Version 2021),2021.1.4,120.4936867
,,,,Conditions/Version_1/zeroback(1)_v1.xlsx,Rule: Press 'space' when you see the letter 'x' or 'X'.,b,None,,,,,,,,,0,0,0,0,0,0,0,0,,,,,,,,,,,,,,,,,,,,,,,,,,,,,,,,,,,,,,,,,,,,,,,,,,,,,,,,,,,277.4323658,None,280.4230089,None,space,0.7473618,280.4230089,None,277.4323658,None,1.9772,283.1812113,None,None,1,283.1812113,None,,P027,fencog,1,Post,2022_Mar_07_1234,N-Back (New Version 2021),2021.1.4,120.4936867
,,,,Conditions/Version_1/zeroback(1)_v1.xlsx,Rule: Press 'space' when you see the letter 'x' or 'X'.,T,None,,,,,,,,,0,0,0,0,0,1,1,1,,,,,,,,,,,,,,,,,,,,,,,,,,,,,,,,,,,,,,,,,,,,,,,,,,,,,,,,,,,,,,,,,,,,,1.289,286.4876257,None,None,1,286.4876257,None,,P027,fencog,1,Post,2022_Mar_07_1234,N-Back (New Version 2021),2021.1.4,120.4936867
,,,,Conditions/Version_1/zeroback(1)_v1.xlsx,Rule: Press 'space' when you see the letter 'x' or 'X'.,L,None,,,,,,,,,0,0,0,0,0,2,2,2,,,,,,,,,,,,,,,,,,,,,,,,,,,,,,,,,,,,,,,,,,,,,,,,,,,,,,,,,,,,,,,,,,,,,1.2952,289.7963383,None,None,1,289.7963383,None,,P027,fencog,1,Post,2022_Mar_07_1234,N-Back (New Version 2021),2021.1.4,120.4936867
,,,,Conditions/Version_1/zeroback(1)_v1.xlsx,Rule: Press 'space' when you see the letter 'x' or 'X'.,x,space,,,,,,,,,0,0,0,0,0,3,3,3,,,,,,,,,,,,,,,,,,,,,,,,,,,,,,,,,,,,,,,,,,,,,,,,,,,,,,,,,,,,,,,,,,,,,1.8966,293.7029722,None,space,1,293.7029722,None,0.4195628,P027,fencog,1,Post,2022_Mar_07_1234,N-Back (New Version 2021),2021.1.4,120.4936867
,,,,Conditions/Version_1/zeroback(1)_v1.xlsx,Rule: Press 'space' when you see the letter 'x' or 'X'.,o,None,,,,,,,,,0,0,0,0,0,4,4,4,,,,,,,,,,,,,,,,,,,,,,,,,,,,,,,,,,,,,,,,,,,,,,,,,,,,,,,,,,,,,,,,,,,,,1.351,297.0739879,None,None,1,297.0739879,None,,P027,fencog,1,Post,2022_Mar_07_1234,N-Back (New Version 2021),2021.1.4,120.4936867
,,,,Conditions/Version_1/zeroback(1)_v1.xlsx,Rule: Press 'space' when you see the letter 'x' or 'X'.,P,None,,,,,,,,,0,0,0,0,0,5,5,5,,,,,,,,,,,,,,,,,,,,,,,,,,,,,,,,,,,,,,,,,,,,,,,,,,,,,,,,,,,,,,,,,,,,,1.847,300.9233746,None,None,1,300.9233746,None,,P027,fencog,1,Post,2022_Mar_07_1234,N-Back (New Version 2021),2021.1.4,120.4936867
,,,,Conditions/Version_1/zeroback(1)_v1.xlsx,Rule: Press 'space' when you see the letter 'x' or 'X'.,X,space,,,,,,,,,0,0,0,0,0,6,6,6,,,,,,,,,,,,,,,,,,,,,,,,,,,,,,,,,,,,,,,,,,,,,,,,,,,,,,,,,,,,,,,,,,,,,1.63,304.5556881,None,space,1,304.5556881,None,0.3669572,P027,fencog,1,Post,2022_Mar_07_1234,N-Back (New Version 2021),2021.1.4,120.4936867
,,,,Conditions/Version_1/zeroback(1)_v1.xlsx,Rule: Press 'space' when you see the letter 'x' or 'X'.,n,None,,,,,,,,,0,0,0,0,0,7,7,7,,,,,,,,,,,,,,,,,,,,,,,,,,,,,,,,,,,,,,,,,,,,,,,,,,,,,,,,,,,,,,,,,,,,,1.1092,307.6652744,None,None,1,307.6652744,None,,P027,fencog,1,Post,2022_Mar_07_1234,N-Back (New Version 2021),2021.1.4,120.4936867
,,,,Conditions/Version_1/zeroback(1)_v1.xlsx,Rule: Press 'space' when you see the letter 'x' or 'X'.,M,None,,,,,,,,,0,0,0,0,0,8,8,8,,,,,,,,,,,,,,,,,,,,,,,,,,,,,,,,,,,,,,,,,,,,,,,,,,,,,,,,,,,,,,,,,,,,,1.7602,311.4381941,None,None,1,311.4381941,None,,P027,fencog,1,Post,2022_Mar_07_1234,N-Back (New Version 2021),2021.1.4,120.4936867
,,,,Conditions/Version_1/zeroback(1)_v1.xlsx,Rule: Press 'space' when you see the letter 'x' or 'X'.,a,None,,,,,,,,,0,0,0,0,0,9,9,9,,,,,,,,,,,,,,,,,,,,,,,,,,,,,,,,,,,,,,,,,,,,,,,,,,,,,,,,,,,,,,,,,,,,,1.5184,314.9695521,None,None,1,314.9695521,None,,P027,fencog,1,Post,2022_Mar_07_1234,N-Back (New Version 2021),2021.1.4,120.4936867
,,,,Conditions/Version_1/zeroback(1)_v1.xlsx,Rule: Press 'space' when you see the letter 'x' or 'X'.,,,,,,,,,,,0,0,0,0,,,,,,,,,,,,,,,,,,,,,,,,,,,,,,,,,,,,,,,,,,,,,,,,,,,,,,,,,,,,,,,,,,,,,,,,,,,,,,,,,P027,fencog,1,Post,2022_Mar_07_1234,N-Back (New Version 2021),2021.1.4,120.4936867
,,,,Conditions/Version_1/oneback(1)_v1.xlsx,New rule: Press 'space' when you see 1-back (i.e. the same letter as the one that appeared 1 letter ago.),b,None,,,,,,,,,0,1,1,1,0,0,0,0,,,,,,,,,,,,,,,,,,,,,,,,,,,,,,,,,,,,,,,,,,,,,,,,,,,,,,,,,,,317.0033686,None,319.98882,None,space,0.7098726,319.98882,None,317.0033686,None,1.9958,322.7274611,None,None,1,322.7274611,None,,P027,fencog,1,Post,2022_Mar_07_1234,N-Back (New Version 2021),2021.1.4,120.4936867
,,,,Conditions/Version_1/oneback(1)_v1.xlsx,New rule: Press 'space' when you see 1-back (i.e. the same letter as the one that appeared 1 letter ago.),p,None,,,,,,,,,0,1,1,1,0,1,1,1,,,,,,,,,,,,,,,,,,,,,,,,,,,,,,,,,,,,,,,,,,,,,,,,,,,,,,,,,,,,,,,,,,,,,1.103,325.8424456,None,None,1,325.8424456,None,,P027,fencog,1,Post,2022_Mar_07_1234,N-Back (New Version 2021),2021.1.4,120.4936867
,,,,Conditions/Version_1/oneback(1)_v1.xlsx,New rule: Press 'space' when you see 1-back (i.e. the same letter as the one that appeared 1 letter ago.),M,None,,,,,,,,,0,1,1,1,0,2,2,2,,,,,,,,,,,,,,,,,,,,,,,,,,,,,,,,,,,,,,,,,,,,,,,,,,,,,,,,,,,,,,,,,,,,,1.6114,329.4727613,None,None,1,329.4727613,None,,P027,fencog,1,Post,2022_Mar_07_1234,N-Back (New Version 2021),2021.1.4,120.4936867
,,,,Conditions/Version_1/oneback(1)_v1.xlsx,New rule: Press 'space' when you see 1-back (i.e. the same letter as the one that appeared 1 letter ago.),M,space,,,,,,,,,0,1,1,1,0,3,3,3,,,,,,,,,,,,,,,,,,,,,,,,,,,,,,,,,,,,,,,,,,,,,,,,,,,,,,,,,,,,,,,,,,,,,1.7788,333.2554557,None,space,1,333.2554557,None,0.4189112,P027,fencog,1,Post,2022_Mar_07_1234,N-Back (New Version 2021),2021.1.4,120.4936867
,,,,Conditions/Version_1/oneback(1)_v1.xlsx,New rule: Press 'space' when you see 1-back (i.e. the same letter as the one that appeared 1 letter ago.),n,None,,,,,,,,,0,1,1,1,0,4,4,4,,,,,,,,,,,,,,,,,,,,,,,,,,,,,,,,,,,,,,,,,,,,,,,,,,,,,,,,,,,,,,,,,,,,,1.3696,336.6390611,None,None,1,336.6390611,None,,P027,fencog,1,Post,2022_Mar_07_1234,N-Back (New Version 2021),2021.1.4,120.4936867
,,,,Conditions/Version_1/oneback(1)_v1.xlsx,New rule: Press 'space' when you see 1-back (i.e. the same letter as the one that appeared 1 letter ago.),g,None,,,,,,,,,0,1,1,1,0,5,5,5,,,,,,,,,,,,,,,,,,,,,,,,,,,,,,,,,,,,,,,,,,,,,,,,,,,,,,,,,,,,,,,,,,,,,1.599,340.2474146,None,None,1,340.2474146,None,,P027,fencog,1,Post,2022_Mar_07_1234,N-Back (New Version 2021),2021.1.4,120.4936867
,,,,Conditions/Version_1/oneback(1)_v1.xlsx,New rule: Press 'space' when you see 1-back (i.e. the same letter as the one that appeared 1 letter ago.),P,None,,,,,,,,,0,1,1,1,0,6,6,6,,,,,,,,,,,,,,,,,,,,,,,,,,,,,,,,,,,,,,,,,,,,,,,,,,,,,,,,,,,,,,,,,,,,,1.5866,343.8439757,None,None,1,343.8439757,None,,P027,fencog,1,Post,2022_Mar_07_1234,N-Back (New Version 2021),2021.1.4,120.4936867
,,,,Conditions/Version_1/oneback(1)_v1.xlsx,New rule: Press 'space' when you see 1-back (i.e. the same letter as the one that appeared 1 letter ago.),o,None,,,,,,,,,0,1,1,1,0,7,7,7,,,,,,,,,,,,,,,,,,,,,,,,,,,,,,,,,,,,,,,,,,,,,,,,,,,,,,,,,,,,,,,,,,,,,1.0782,346.9328388,None,None,1,346.9328388,None,,P027,fencog,1,Post,2022_Mar_07_1234,N-Back (New Version 2021),2021.1.4,120.4936867
,,,,Conditions/Version_1/oneback(1)_v1.xlsx,New rule: Press 'space' when you see 1-back (i.e. the same letter as the one that appeared 1 letter ago.),f,None,,,,,,,,,0,1,1,1,0,8,8,8,,,,,,,,,,,,,,,,,,,,,,,,,,,,,,,,,,,,,,,,,,,,,,,,,,,,,,,,,,,,,,,,,,,,,1.8222,350.767088,None,None,1,350.767088,None,,P027,fencog,1,Post,2022_Mar_07_1234,N-Back (New Version 2021),2021.1.4,120.4936867
,,,,Conditions/Version_1/oneback(1)_v1.xlsx,New rule: Press 'space' when you see 1-back (i.e. the same letter as the one that appeared 1 letter ago.),F,space,,,,,,,,,0,1,1,1,0,9,9,9,,,,,,,,,,,,,,,,,,,,,,,,,,,,,,,,,,,,,,,,,,,,,,,,,,,,,,,,,,,,,,,,,,,,,1.9152,354.6854392,None,space,1,354.6854392,None,0.3493442,P027,fencog,1,Post,2022_Mar_07_1234,N-Back (New Version 2021),2021.1.4,120.4936867
,,,,Conditions/Version_1/oneback(1)_v1.xlsx,New rule: Press 'space' when you see 1-back (i.e. the same letter as the one that appeared 1 letter ago.),,,,,,,,,,,0,1,1,1,,,,,,,,,,,,,,,,,,,,,,,,,,,,,,,,,,,,,,,,,,,,,,,,,,,,,,,,,,,,,,,,,,,,,,,,,,,,,,,,,P027,fencog,1,Post,2022_Mar_07_1234,N-Back (New Version 2021),2021.1.4,120.4936867
,,,,Conditions/Version_1/twoback(1)_v1.xlsx,New rule: Press 'space' when you see 2-back (i.e. the same letter as the one that appeared 2 letters ago.),b,None,,,,,,,,,0,2,2,2,0,0,0,0,,,,,,,,,,,,,,,,,,,,,,,,,,,,,,,,,,,,,,,,,,,,,,,,,,,,,,,,,,,356.7146143,None,359.7022812,None,space,0.0680913,359.7022812,None,356.7146143,None,1.4998,361.2972467,None,None,1,361.2972467,None,,P027,fencog,1,Post,2022_Mar_07_1234,N-Back (New Version 2021),2021.1.4,120.4936867
,,,,Conditions/Version_1/twoback(1)_v1.xlsx,New rule: Press 'space' when you see 2-back (i.e. the same letter as the one that appeared 2 letters ago.),h,None,,,,,,,,,0,2,2,2,0,1,1,1,,,,,,,,,,,,,,,,,,,,,,,,,,,,,,,,,,,,,,,,,,,,,,,,,,,,,,,,,,,,,,,,,,,,,1.134,364.4344069,None,None,1,364.4344069,None,,P027,fencog,1,Post,2022_Mar_07_1234,N-Back (New Version 2021),2021.1.4,120.4936867
,,,,Conditions/Version_1/twoback(1)_v1.xlsx,New rule: Press 'space' when you see 2-back (i.e. the same letter as the one that appeared 2 letters ago.),j,None,,,,,,,,,0,2,2,2,0,2,2,2,,,,,,,,,,,,,,,,,,,,,,,,,,,,,,,,,,,,,,,,,,,,,,,,,,,,,,,,,,,,,,,,,,,,,1.0162,367.4550149,None,None,1,367.4550149,None,,P027,fencog,1,Post,2022_Mar_07_1234,N-Back (New Version 2021),2021.1.4,120.4936867
,,,,Conditions/Version_1/twoback(1)_v1.xlsx,New rule: Press 'space' when you see 2-back (i.e. the same letter as the one that appeared 2 letters ago.),H,space,,,,,,,,,0,2,2,2,0,3,3,3,,,,,,,,,,,,,,,,,,,,,,,,,,,,,,,,,,,,,,,,,,,,,,,,,,,,,,,,,,,,,,,,,,,,,1.6486,371.1202,None,space,1,371.1202,None,0.5381889,P027,fencog,1,Post,2022_Mar_07_1234,N-Back (New Version 2021),2021.1.4,120.4936867
,,,,Conditions/Version_1/twoback(1)_v1.xlsx,New rule: Press 'space' when you see 2-back (i.e. the same letter as the one that appeared 2 letters ago.),p,None,,,,,,,,,0,2,2,2,0,4,4,4,,,,,,,,,,,,,,,,,,,,,,,,,,,,,,,,,,,,,,,,,,,,,,,,,,,,,,,,,,,,,,,,,,,,,1.4006,374.5228824,None,None,1,374.5228824,None,,P027,fencog,1,Post,2022_Mar_07_1234,N-Back (New Version 2021),2021.1.4,120.4936867
,,,,Conditions/Version_1/twoback(1)_v1.xlsx,New rule: Press 'space' when you see 2-back (i.e. the same letter as the one that appeared 2 letters ago.),p,None,,,,,,,,,0,2,2,2,0,5,5,5,,,,,,,,,,,,,,,,,,,,,,,,,,,,,,,,,,,,,,,,,,,,,,,,,,,,,,,,,,,,,,,,,,,,,1.1588,377.684193,None,None,1,377.684193,None,,P027,fencog,1,Post,2022_Mar_07_1234,N-Back (New Version 2021),2021.1.4,120.4936867
,,,,Conditions/Version_1/twoback(1)_v1.xlsx,New rule: Press 'space' when you see 2-back (i.e. the same letter as the one that appeared 2 letters ago.),w,None,,,,,,,,,0,2,2,2,0,6,6,6,,,,,,,,,,,,,,,,,,,,,,,,,,,,,,,,,,,,,,,,,,,,,,,,,,,,,,,,,,,,,,,,,,,,,1.351,381.0413652,None,None,1,381.0413652,None,,P027,fencog,1,Post,2022_Mar_07_1234,N-Back (New Version 2021),2021.1.4,120.4936867
,,,,Conditions/Version_1/twoback(1)_v1.xlsx,New rule: Press 'space' when you see 2-back (i.e. the same letter as the one that appeared 2 letters ago.),R,None,,,,,,,,,0,2,2,2,0,7,7,7,,,,,,,,,,,,,,,,,,,,,,,,,,,,,,,,,,,,,,,,,,,,,,,,,,,,,,,,,,,,,,,,,,,,,1.2394,384.2830152,None,None,1,384.2830152,None,,P027,fencog,1,Post,2022_Mar_07_1234,N-Back (New Version 2021),2021.1.4,120.4936867
,,,,Conditions/Version_1/twoback(1)_v1.xlsx,New rule: Press 'space' when you see 2-back (i.e. the same letter as the one that appeared 2 letters ago.),a,None,,,,,,,,,0,2,2,2,0,8,8,8,,,,,,,,,,,,,,,,,,,,,,,,,,,,,,,,,,,,,,,,,,,,,,,,,,,,,,,,,,,,,,,,,,,,,1.413,387.709638,None,None,1,387.709638,None,,P027,fencog,1,Post,2022_Mar_07_1234,N-Back (New Version 2021),2021.1.4,120.4936867
,,,,Conditions/Version_1/twoback(1)_v1.xlsx,New rule: Press 'space' when you see 2-back (i.e. the same letter as the one that appeared 2 letters ago.),r,space,,,,,,,,,0,2,2,2,0,9,9,9,,,,,,,,,,,,,,,,,,,,,,,,,,,,,,,,,,,,,,,,,,,,,,,,,,,,,,,,,,,,,,,,,,,,,1.8222,391.5411744,None,space,1,391.5411744,None,0.501191,P027,fencog,1,Post,2022_Mar_07_1234,N-Back (New Version 2021),2021.1.4,120.4936867
,,,,Conditions/Version_1/twoback(1)_v1.xlsx,New rule: Press 'space' when you see 2-back (i.e. the same letter as the one that appeared 2 letters ago.),,,,,,,,,,,0,2,2,2,,,,,,,,,,,,,,,,,,,,,,,,,,,,,,,,,,,,,,,,,,,,,,,,,,,,,,,,,,,,,,,,,,,,,,,,,,,,,,,,,P027,fencog,1,Post,2022_Mar_07_1234,N-Back (New Version 2021),2021.1.4,120.4936867
,,,,Conditions/Version_1/threeback(1)_v1.xlsx,New rule: Press 'space' when you see 3-back (i.e. the same letter as the one that appeared 3 letters ago.),r,None,,,,,,,,,0,3,3,3,0,0,0,0,,,,,,,,,,,,,,,,,,,,,,,,,,,,,,,,,,,,,,,,,,,,,,,,,,,,,,,,,,,393.5698297,None,396.5563831,None,space,0.0144172,396.5563831,None,393.5698297,None,1.7726,398.3780797,None,None,1,398.3780797,None,,P027,fencog,1,Post,2022_Mar_07_1234,N-Back (New Version 2021),2021.1.4,120.4936867
,,,,Conditions/Version_1/threeback(1)_v1.xlsx,New rule: Press 'space' when you see 3-back (i.e. the same letter as the one that appeared 3 letters ago.),o,None,,,,,,,,,0,3,3,3,0,1,1,1,,,,,,,,,,,,,,,,,,,,,,,,,,,,,,,,,,,,,,,,,,,,,,,,,,,,,,,,,,,,,,,,,,,,,1.9524,402.3348892,None,None,1,402.3348892,None,,P027,fencog,1,Post,2022_Mar_07_1234,N-Back (New Version 2021),2021.1.4,120.4936867
,,,,Conditions/Version_1/threeback(1)_v1.xlsx,New rule: Press 'space' when you see 3-back (i.e. the same letter as the one that appeared 3 letters ago.),P,None,,,,,,,,,0,3,3,3,0,2,2,2,,,,,,,,,,,,,,,,,,,,,,,,,,,,,,,,,,,,,,,,,,,,,,,,,,,,,,,,,,,,,,,,,,,,,1.32,405.6603904,None,None,1,405.6603904,None,,P027,fencog,1,Post,2022_Mar_07_1234,N-Back (New Version 2021),2021.1.4,120.4936867
,,,,Conditions/Version_1/threeback(1)_v1.xlsx,New rule: Press 'space' when you see 3-back (i.e. the same letter as the one that appeared 3 letters ago.),R,space,,,,,,,,,0,3,3,3,0,3,3,3,,,,,,,,,,,,,,,,,,,,,,,,,,,,,,,,,,,,,,,,,,,,,,,,,,,,,,,,,,,,,,,,,,,,,1.2022,408.8750167,None,space,1,408.8750167,None,0.4713017,P027,fencog,1,Post,2022_Mar_07_1234,N-Back (New Version 2021),2021.1.4,120.4936867
,,,,Conditions/Version_1/threeback(1)_v1.xlsx,New rule: Press 'space' when you see 3-back (i.e. the same letter as the one that appeared 3 letters ago.),p,None,,,,,,,,,0,3,3,3,0,4,4,4,,,,,,,,,,,,,,,,,,,,,,,,,,,,,,,,,,,,,,,,,,,,,,,,,,,,,,,,,,,,,,,,,,,,,1.3076,412.1835339,None,None,1,412.1835339,None,,P027,fencog,1,Post,2022_Mar_07_1234,N-Back (New Version 2021),2021.1.4,120.4936867
,,,,Conditions/Version_1/threeback(1)_v1.xlsx,New rule: Press 'space' when you see 3-back (i.e. the same letter as the one that appeared 3 letters ago.),E,None,,,,,,,,,0,3,3,3,0,5,5,5,,,,,,,,,,,,,,,,,,,,,,,,,,,,,,,,,,,,,,,,,,,,,,,,,,,,,,,,,,,,,,,,,,,,,1.4688,415.6646602,None,None,1,415.6646602,None,,P027,fencog,1,Post,2022_Mar_07_1234,N-Back (New Version 2021),2021.1.4,120.4936867
,,,,Conditions/Version_1/threeback(1)_v1.xlsx,New rule: Press 'space' when you see 3-back (i.e. the same letter as the one that appeared 3 letters ago.),e,None,,,,,,,,,0,3,3,3,0,6,6,6,,,,,,,,,,,,,,,,,,,,,,,,,,,,,,,,,,,,,,,,,,,,,,,,,,,,,,,,,,,,,,,,,,,,,1.0348,418.70523,None,None,1,418.70523,None,,P027,fencog,1,Post,2022_Mar_07_1234,N-Back (New Version 2021),2021.1.4,120.4936867
,,,,Conditions/Version_1/threeback(1)_v1.xlsx,New rule: Press 'space' when you see 3-back (i.e. the same letter as the one that appeared 3 letters ago.),m,None,,,,,,,,,0,3,3,3,0,7,7,7,,,,,,,,,,,,,,,,,,,,,,,,,,,,,,,,,,,,,,,,,,,,,,,,,,,,,,,,,,,,,,,,,,,,,1.5618,422.2730047,None,None,1,422.2730047,None,,P027,fencog,1,Post,2022_Mar_07_1234,N-Back (New Version 2021),2021.1.4,120.4936867
,,,,Conditions/Version_1/threeback(1)_v1.xlsx,New rule: Press 'space' when you see 3-back (i.e. the same letter as the one that appeared 3 letters ago.),n,None,,,,,,,,,0,3,3,3,0,8,8,8,,,,,,,,,,,,,,,,,,,,,,,,,,,,,,,,,,,,,,,,,,,,,,,,,,,,,,,,,,,,,,,,,,,,,1.4502,425.7373886,None,None,1,425.7373886,None,,P027,fencog,1,Post,2022_Mar_07_1234,N-Back (New Version 2021),2021.1.4,120.4936867
,,,,Conditions/Version_1/threeback(1)_v1.xlsx,New rule: Press 'space' when you see 3-back (i.e. the same letter as the one that appeared 3 letters ago.),e,space,,,,,,,,,0,3,3,3,0,9,9,9,,,,,,,,,,,,,,,,,,,,,,,,,,,,,,,,,,,,,,,,,,,,,,,,,,,,,,,,,,,,,,,,,,,,,1.3882,429.1355412,None,space,1,429.1355412,None,0.4508884,P027,fencog,1,Post,2022_Mar_07_1234,N-Back (New Version 2021),2021.1.4,120.4936867
,,,,Conditions/Version_1/threeback(1)_v1.xlsx,New rule: Press 'space' when you see 3-back (i.e. the same letter as the one that appeared 3 letters ago.),,,,,,,,,,,0,3,3,3,,,,,,,,,,,,,,,,,,,,,,,,,,,,,,,,,,,,,,,,,,,,,,,,,,,,,,,,,,,,,,,,,,,,,,,,,,,,,,,,,P027,fencog,1,Post,2022_Mar_07_1234,N-Back (New Version 2021),2021.1.4,120.4936867
,,,,Conditions/Version_1/oneback(2)_v1.xlsx,New rule: Press 'space' when you see 1-back (i.e. the same letter as the one that appeared 1 letter ago.),q,None,,,,,,,,,0,4,4,4,0,0,0,0,,,,,,,,,,,,,,,,,,,,,,,,,,,,,,,,,,,,,,,,,,,,,,,,,,,,,,,,,,,431.1560466,None,434.1446418,None,space,3.057689,434.1446418,None,431.1560466,None,1.6734,438.9103501,None,None,1,438.9103501,None,,P027,fencog,1,Post,2022_Mar_07_1234,N-Back (New Version 2021),2021.1.4,120.4936867
,,,,Conditions/Version_1/oneback(2)_v1.xlsx,New rule: Press 'space' when you see 1-back (i.e. the same letter as the one that appeared 1 letter ago.),Q,space,,,,,,,,,0,4,4,4,0,1,1,1,,,,,,,,,,,,,,,,,,,,,,,,,,,,,,,,,,,,,,,,,,,,,,,,,,,,,,,,,,,,,,,,,,,,,1.785,442.7000134,None,space,1,442.7000134,None,0.3667293,P027,fencog,1,Post,2022_Mar_07_1234,N-Back (New Version 2021),2021.1.4,120.4936867
,,,,Conditions/Version_1/oneback(2)_v1.xlsx,New rule: Press 'space' when you see 1-back (i.e. the same letter as the one that appeared 1 letter ago.),P,None,,,,,,,,,0,4,4,4,0,2,2,2,,,,,,,,,,,,,,,,,,,,,,,,,,,,,,,,,,,,,,,,,,,,,,,,,,,,,,,,,,,,,,,,,,,,,1.7416,446.4483211,None,None,1,446.4483211,None,,P027,fencog,1,Post,2022_Mar_07_1234,N-Back (New Version 2021),2021.1.4,120.4936867
,,,,Conditions/Version_1/oneback(2)_v1.xlsx,New rule: Press 'space' when you see 1-back (i.e. the same letter as the one that appeared 1 letter ago.),o,None,,,,,,,,,0,4,4,4,0,3,3,3,,,,,,,,,,,,,,,,,,,,,,,,,,,,,,,,,,,,,,,,,,,,,,,,,,,,,,,,,,,,,,,,,,,,,1.9834,450.4375448,None,None,1,450.4375448,None,,P027,fencog,1,Post,2022_Mar_07_1234,N-Back (New Version 2021),2021.1.4,120.4936867
,,,,Conditions/Version_1/oneback(2)_v1.xlsx,New rule: Press 'space' when you see 1-back (i.e. the same letter as the one that appeared 1 letter ago.),m,None,,,,,,,,,0,4,4,4,0,4,4,4,,,,,,,,,,,,,,,,,,,,,,,,,,,,,,,,,,,,,,,,,,,,,,,,,,,,,,,,,,,,,,,,,,,,,1.6362,454.0782482,None,None,1,454.0782482,None,,P027,fencog,1,Post,2022_Mar_07_1234,N-Back (New Version 2021),2021.1.4,120.4936867
,,,,Conditions/Version_1/oneback(2)_v1.xlsx,New rule: Press 'space' when you see 1-back (i.e. the same letter as the one that appeared 1 letter ago.),Z,None,,,,,,,,,0,4,4,4,0,5,5,5,,,,,,,,,,,,,,,,,,,,,,,,,,,,,,,,,,,,,,,,,,,,,,,,,,,,,,,,,,,,,,,,,,,,,1.0224,457.1022445,None,None,1,457.1022445,None,,P027,fencog,1,Post,2022_Mar_07_1234,N-Back (New Version 2021),2021.1.4,120.4936867
,,,,Conditions/Version_1/oneback(2)_v1.xlsx,New rule: Press 'space' when you see 1-back (i.e. the same letter as the one that appeared 1 letter ago.),c,None,,,,,,,,,0,4,4,4,0,6,6,6,,,,,,,,,,,,,,,,,,,,,,,,,,,,,,,,,,,,,,,,,,,,,,,,,,,,,,,,,,,,,,,,,,,,,1.351,460.4595696,None,None,1,460.4595696,None,,P027,fencog,1,Post,2022_Mar_07_1234,N-Back (New Version 2021),2021.1.4,120.4936867
,,,,Conditions/Version_1/oneback(2)_v1.xlsx,New rule: Press 'space' when you see 1-back (i.e. the same letter as the one that appeared 1 letter ago.),c,space,,,,,,,,,0,4,4,4,0,7,7,7,,,,,,,,,,,,,,,,,,,,,,,,,,,,,,,,,,,,,,,,,,,,,,,,,,,,,,,,,,,,,,,,,,,,,1.2208,463.6854194,None,space,1,463.6854194,None,0.5249377,P027,fencog,1,Post,2022_Mar_07_1234,N-Back (New Version 2021),2021.1.4,120.4936867
,,,,Conditions/Version_1/oneback(2)_v1.xlsx,New rule: Press 'space' when you see 1-back (i.e. the same letter as the one that appeared 1 letter ago.),P,None,,,,,,,,,0,4,4,4,0,8,8,8,,,,,,,,,,,,,,,,,,,,,,,,,,,,,,,,,,,,,,,,,,,,,,,,,,,,,,,,,,,,,,,,,,,,,1.3262,467.0280071,None,None,1,467.0280071,None,,P027,fencog,1,Post,2022_Mar_07_1234,N-Back (New Version 2021),2021.1.4,120.4936867
,,,,Conditions/Version_1/oneback(2)_v1.xlsx,New rule: Press 'space' when you see 1-back (i.e. the same letter as the one that appeared 1 letter ago.),p,space,,,,,,,,,0,4,4,4,0,9,9,9,,,,,,,,,,,,,,,,,,,,,,,,,,,,,,,,,,,,,,,,,,,,,,,,,,,,,,,,,,,,,,,,,,,,,1.5928,470.6316042,None,space,1,470.6316042,None,0.4987037,P027,fencog,1,Post,2022_Mar_07_1234,N-Back (New Version 2021),2021.1.4,120.4936867
,,,,Conditions/Version_1/oneback(2)_v1.xlsx,New rule: Press 'space' when you see 1-back (i.e. the same letter as the one that appeared 1 letter ago.),,,,,,,,,,,0,4,4,4,,,,,,,,,,,,,,,,,,,,,,,,,,,,,,,,,,,,,,,,,,,,,,,,,,,,,,,,,,,,,,,,,,,,,,,,,,,,,,,,,P027,fencog,1,Post,2022_Mar_07_1234,N-Back (New Version 2021),2021.1.4,120.4936867
,,,,Conditions/Version_1/zeroback(2)_v1.xlsx,New rule: Press 'space' when you see the letter 'x' or 'X'.,p,None,,,,,,,,,0,5,5,5,0,0,0,0,,,,,,,,,,,,,,,,,,,,,,,,,,,,,,,,,,,,,,,,,,,,,,,,,,,,,,,,,,,472.6575532,None,475.6316392,None,space,0.5629639,475.6316392,None,472.6575532,None,1.3138,477.5379121,None,None,1,477.5379121,None,,P027,fencog,1,Post,2022_Mar_07_1234,N-Back (New Version 2021),2021.1.4,120.4936867
,,,,Conditions/Version_1/zeroback(2)_v1.xlsx,New rule: Press 'space' when you see the letter 'x' or 'X'.,L,None,,,,,,,,,0,5,5,5,0,1,1,1,,,,,,,,,,,,,,,,,,,,,,,,,,,,,,,,,,,,,,,,,,,,,,,,,,,,,,,,,,,,,,,,,,,,,1.9214,481.462817,None,None,1,481.462817,None,,P027,fencog,1,Post,2022_Mar_07_1234,N-Back (New Version 2021),2021.1.4,120.4936867
,,,,Conditions/Version_1/zeroback(2)_v1.xlsx,New rule: Press 'space' when you see the letter 'x' or 'X'.,G,None,,,,,,,,,0,5,5,5,0,2,2,2,,,,,,,,,,,,,,,,,,,,,,,,,,,,,,,,,,,,,,,,,,,,,,,,,,,,,,,,,,,,,,,,,,,,,1.2332,484.7035986,None,None,1,484.7035986,None,,P027,fencog,1,Post,2022_Mar_07_1234,N-Back (New Version 2021),2021.1.4,120.4936867
,,,,Conditions/Version_1/zeroback(2)_v1.xlsx,New rule: Press 'space' when you see the letter 'x' or 'X'.,y,None,,,,,,,,,0,5,5,5,0,3,3,3,,,,,,,,,,,,,,,,,,,,,,,,,,,,,,,,,,,,,,,,,,,,,,,,,,,,,,,,,,,,,,,,,,,,,1.351,488.0682422,None,None,1,488.0682422,None,,P027,fencog,1,Post,2022_Mar_07_1234,N-Back (New Version 2021),2021.1.4,120.4936867
,,,,Conditions/Version_1/zeroback(2)_v1.xlsx,New rule: Press 'space' when you see the letter 'x' or 'X'.,Y,None,,,,,,,,,0,5,5,5,0,4,4,4,,,,,,,,,,,,,,,,,,,,,,,,,,,,,,,,,,,,,,,,,,,,,,,,,,,,,,,,,,,,,,,,,,,,,1.4626,491.5371908,None,None,1,491.5371908,None,,P027,fencog,1,Post,2022_Mar_07_1234,N-Back (New Version 2021),2021.1.4,120.4936867
,,,,Conditions/Version_1/zeroback(2)_v1.xlsx,New rule: Press 'space' when you see the letter 'x' or 'X'.,W,None,,,,,,,,,0,5,5,5,0,5,5,5,,,,,,,,,,,,,,,,,,,,,,,,,,,,,,,,,,,,,,,,,,,,,,,,,,,,,,,,,,,,,,,,,,,,,1.8036,495.3426952,None,None,1,495.3426952,None,,P027,fencog,1,Post,2022_Mar_07_1234,N-Back (New Version 2021),2021.1.4,120.4936867
,,,,Conditions/Version_1/zeroback(2)_v1.xlsx,New rule: Press 'space' when you see the letter 'x' or 'X'.,x,space,,,,,,,,,0,5,5,5,0,6,6,6,,,,,,,,,,,,,,,,,,,,,,,,,,,,,,,,,,,,,,,,,,,,,,,,,,,,,,,,,,,,,,,,,,,,,1.1278,498.4830363,None,space,1,498.4830363,None,0.4075852,P027,fencog,1,Post,2022_Mar_07_1234,N-Back (New Version 2021),2021.1.4,120.4936867
,,,,Conditions/Version_1/zeroback(2)_v1.xlsx,New rule: Press 'space' when you see the letter 'x' or 'X'.,X,space,,,,,,,,,0,5,5,5,0,7,7,7,,,,,,,,,,,,,,,,,,,,,,,,,,,,,,,,,,,,,,,,,,,,,,,,,,,,,,,,,,,,,,,,,,,,,1.2828,501.7737796,None,space,1,501.7737796,None,0.5406861,P027,fencog,1,Post,2022_Mar_07_1234,N-Back (New Version 2021),2021.1.4,120.4936867
,,,,Conditions/Version_1/zeroback(2)_v1.xlsx,New rule: Press 'space' when you see the letter 'x' or 'X'.,p,None,,,,,,,,,0,5,5,5,0,8,8,8,,,,,,,,,,,,,,,,,,,,,,,,,,,,,,,,,,,,,,,,,,,,,,,,,,,,,,,,,,,,,,,,,,,,,1.1216,504.9049435,None,None,1,504.9049435,None,,P027,fencog,1,Post,2022_Mar_07_1234,N-Back (New Version 2021),2021.1.4,120.4936867
,,,,Conditions/Version_1/zeroback(2)_v1.xlsx,New rule: Press 'space' when you see the letter 'x' or 'X'.,h,None,,,,,,,,,0,5,5,5,0,9,9,9,,,,,,,,,,,,,,,,,,,,,,,,,,,,,,,,,,,,,,,,,,,,,,,,,,,,,,,,,,,,,,,,,,,,,1.1154,508.0208003,None,None,1,508.0208003,None,,P027,fencog,1,Post,2022_Mar_07_1234,N-Back (New Version 2021),2021.1.4,120.4936867
,,,,Conditions/Version_1/zeroback(2)_v1.xlsx,New rule: Press 'space' when you see the letter 'x' or 'X'.,,,,,,,,,,,0,5,5,5,,,,,,,,,,,,,,,,,,,,,,,,,,,,,,,,,,,,,,,,,,,,,,,,,,,,,,,,,,,,,,,,,,,,,,,,,,,,,,,,,P027,fencog,1,Post,2022_Mar_07_1234,N-Back (New Version 2021),2021.1.4,120.4936867
,,,,Conditions/Version_1/threeback(2)_v1.xlsx,New rule: Press 'space' when you see 3-back (i.e. the same letter as the one that appeared 3 letters ago.),q,None,,,,,,,,,0,6,6,6,0,0,0,0,,,,,,,,,,,,,,,,,,,,,,,,,,,,,,,,,,,,,,,,,,,,,,,,,,,,,,,,,,,510.0436334,None,513.0419965,None,space,0.7442776,513.0419965,None,510.0436334,None,1.5308,515.3434191,None,None,1,515.3434191,None,,P027,fencog,1,Post,2022_Mar_07_1234,N-Back (New Version 2021),2021.1.4,120.4936867
,,,,Conditions/Version_1/threeback(2)_v1.xlsx,New rule: Press 'space' when you see 3-back (i.e. the same letter as the one that appeared 3 letters ago.),Y,None,,,,,,,,,0,6,6,6,0,1,1,1,,,,,,,,,,,,,,,,,,,,,,,,,,,,,,,,,,,,,,,,,,,,,,,,,,,,,,,,,,,,,,,,,,,,,1.3262,518.6777103,None,None,1,518.6777103,None,,P027,fencog,1,Post,2022_Mar_07_1234,N-Back (New Version 2021),2021.1.4,120.4936867
,,,,Conditions/Version_1/threeback(2)_v1.xlsx,New rule: Press 'space' when you see 3-back (i.e. the same letter as the one that appeared 3 letters ago.),p,None,,,,,,,,,0,6,6,6,0,2,2,2,,,,,,,,,,,,,,,,,,,,,,,,,,,,,,,,,,,,,,,,,,,,,,,,,,,,,,,,,,,,,,,,,,,,,1.9772,522.6683245,None,None,1,522.6683245,None,,P027,fencog,1,Post,2022_Mar_07_1234,N-Back (New Version 2021),2021.1.4,120.4936867
,,,,Conditions/Version_1/threeback(2)_v1.xlsx,New rule: Press 'space' when you see 3-back (i.e. the same letter as the one that appeared 3 letters ago.),p,None,,,,,,,,,0,6,6,6,0,3,3,3,,,,,,,,,,,,,,,,,,,,,,,,,,,,,,,,,,,,,,,,,,,,,,,,,,,,,,,,,,,,,,,,,,,,,1.8904,526.5653225,None,None,1,526.5653225,None,,P027,fencog,1,Post,2022_Mar_07_1234,N-Back (New Version 2021),2021.1.4,120.4936867
,,,,Conditions/Version_1/threeback(2)_v1.xlsx,New rule: Press 'space' when you see 3-back (i.e. the same letter as the one that appeared 3 letters ago.),y,space,,,,,,,,,0,6,6,6,0,4,4,4,,,,,,,,,,,,,,,,,,,,,,,,,,,,,,,,,,,,,,,,,,,,,,,,,,,,,,,,,,,,,,,,,,,,,1.258,529.8252103,None,None,0,529.8252103,None,,P027,fencog,1,Post,2022_Mar_07_1234,N-Back (New Version 2021),2021.1.4,120.4936867
,,,,Conditions/Version_1/threeback(2)_v1.xlsx,New rule: Press 'space' when you see 3-back (i.e. the same letter as the one that appeared 3 letters ago.),u,None,,,,,,,,,0,6,6,6,0,5,5,5,,,,,,,,,,,,,,,,,,,,,,,,,,,,,,,,,,,,,,,,,,,,,,,,,,,,,,,,,,,,,,,,,,,,,1.3386,533.1715497,None,None,1,533.1715497,None,,P027,fencog,1,Post,2022_Mar_07_1234,N-Back (New Version 2021),2021.1.4,120.4936867
,,,,Conditions/Version_1/threeback(2)_v1.xlsx,New rule: Press 'space' when you see 3-back (i.e. the same letter as the one that appeared 3 letters ago.),P,space,,,,,,,,,0,6,6,6,0,6,6,6,,,,,,,,,,,,,,,,,,,,,,,,,,,,,,,,,,,,,,,,,,,,,,,,,,,,,,,,,,,,,,,,,,,,,1.32,536.5052149,None,space,1,536.5052149,None,0.6810624,P027,fencog,1,Post,2022_Mar_07_1234,N-Back (New Version 2021),2021.1.4,120.4936867
,,,,Conditions/Version_1/threeback(2)_v1.xlsx,New rule: Press 'space' when you see 3-back (i.e. the same letter as the one that appeared 3 letters ago.),a,None,,,,,,,,,0,6,6,6,0,7,7,7,,,,,,,,,,,,,,,,,,,,,,,,,,,,,,,,,,,,,,,,,,,,,,,,,,,,,,,,,,,,,,,,,,,,,1.7602,540.2780559,None,None,1,540.2780559,None,,P027,fencog,1,Post,2022_Mar_07_1234,N-Back (New Version 2021),2021.1.4,120.4936867
,,,,Conditions/Version_1/threeback(2)_v1.xlsx,New rule: Press 'space' when you see 3-back (i.e. the same letter as the one that appeared 3 letters ago.),U,space,,,,,,,,,0,6,6,6,0,8,8,8,,,,,,,,,,,,,,,,,,,,,,,,,,,,,,,,,,,,,,,,,,,,,,,,,,,,,,,,,,,,,,,,,,,,,1.723,544.0034762,None,space,1,544.0034762,None,1.119151,P027,fencog,1,Post,2022_Mar_07_1234,N-Back (New Version 2021),2021.1.4,120.4936867
,,,,Conditions/Version_1/threeback(2)_v1.xlsx,New rule: Press 'space' when you see 3-back (i.e. the same letter as the one that appeared 3 letters ago.),q,None,,,,,,,,,0,6,6,6,0,9,9,9,,,,,,,,,,,,,,,,,,,,,,,,,,,,,,,,,,,,,,,,,,,,,,,,,,,,,,,,,,,,,,,,,,,,,1.9896,548.0023254,None,None,1,548.0023254,None,,P027,fencog,1,Post,2022_Mar_07_1234,N-Back (New Version 2021),2021.1.4,120.4936867
,,,,Conditions/Version_1/threeback(2)_v1.xlsx,New rule: Press 'space' when you see 3-back (i.e. the same letter as the one that appeared 3 letters ago.),,,,,,,,,,,0,6,6,6,,,,,,,,,,,,,,,,,,,,,,,,,,,,,,,,,,,,,,,,,,,,,,,,,,,,,,,,,,,,,,,,,,,,,,,,,,,,,,,,,P027,fencog,1,Post,2022_Mar_07_1234,N-Back (New Version 2021),2021.1.4,120.4936867
,,,,Conditions/Version_1/twoback(2)_v1.xlsx,New rule: Press 'space' when you see 2-back (i.e. the same letter as the one that appeared 2 letters ago.),q,None,,,,,,,,,0,7,7,7,0,0,0,0,,,,,,,,,,,,,,,,,,,,,,,,,,,,,,,,,,,,,,,,,,,,,,,,,,,,,,,,,,,550.0381196,None,553.0262459,None,space,0.7442599,553.0262459,None,550.0381196,None,1.9772,555.7816649,None,None,1,555.7816649,None,,P027,fencog,1,Post,2022_Mar_07_1234,N-Back (New Version 2021),2021.1.4,120.4936867
,,,,Conditions/Version_1/twoback(2)_v1.xlsx,New rule: Press 'space' when you see 2-back (i.e. the same letter as the one that appeared 2 letters ago.),r,None,,,,,,,,,0,7,7,7,0,1,1,1,,,,,,,,,,,,,,,,,,,,,,,,,,,,,,,,,,,,,,,,,,,,,,,,,,,,,,,,,,,,,,,,,,,,,1.0348,558.8221869,None,None,1,558.8221869,None,,P027,fencog,1,Post,2022_Mar_07_1234,N-Back (New Version 2021),2021.1.4,120.4936867
,,,,Conditions/Version_1/twoback(2)_v1.xlsx,New rule: Press 'space' when you see 2-back (i.e. the same letter as the one that appeared 2 letters ago.),q,space,,,,,,,,,0,7,7,7,0,2,2,2,,,,,,,,,,,,,,,,,,,,,,,,,,,,,,,,,,,,,,,,,,,,,,,,,,,,,,,,,,,,,,,,,,,,,1.6176,562.446316,None,space,1,562.446316,None,1.3081223,P027,fencog,1,Post,2022_Mar_07_1234,N-Back (New Version 2021),2021.1.4,120.4936867
,,,,Conditions/Version_1/twoback(2)_v1.xlsx,New rule: Press 'space' when you see 2-back (i.e. the same letter as the one that appeared 2 letters ago.),P,None,,,,,,,,,0,7,7,7,0,3,3,3,,,,,,,,,,,,,,,,,,,,,,,,,,,,,,,,,,,,,,,,,,,,,,,,,,,,,,,,,,,,,,,,,,,,,1.3758,565.828539,None,None,1,565.828539,None,,P027,fencog,1,Post,2022_Mar_07_1234,N-Back (New Version 2021),2021.1.4,120.4936867
,,,,Conditions/Version_1/twoback(2)_v1.xlsx,New rule: Press 'space' when you see 2-back (i.e. the same letter as the one that appeared 2 letters ago.),p,None,,,,,,,,,0,7,7,7,0,4,4,4,,,,,,,,,,,,,,,,,,,,,,,,,,,,,,,,,,,,,,,,,,,,,,,,,,,,,,,,,,,,,,,,,,,,,1.1154,568.9488498,None,None,1,568.9488498,None,,P027,fencog,1,Post,2022_Mar_07_1234,N-Back (New Version 2021),2021.1.4,120.4936867
,,,,Conditions/Version_1/twoback(2)_v1.xlsx,New rule: Press 'space' when you see 2-back (i.e. the same letter as the one that appeared 2 letters ago.),H,None,,,,,,,,,0,7,7,7,0,5,5,5,,,,,,,,,,,,,,,,,,,,,,,,,,,,,,,,,,,,,,,,,,,,,,,,,,,,,,,,,,,,,,,,,,,,,1.6734,572.6278088,None,None,1,572.6278088,None,,P027,fencog,1,Post,2022_Mar_07_1234,N-Back (New Version 2021),2021.1.4,120.4936867
,,,,Conditions/Version_1/twoback(2)_v1.xlsx,New rule: Press 'space' when you see 2-back (i.e. the same letter as the one that appeared 2 letters ago.),g,None,,,,,,,,,0,7,7,7,0,6,6,6,,,,,,,,,,,,,,,,,,,,,,,,,,,,,,,,,,,,,,,,,,,,,,,,,,,,,,,,,,,,,,,,,,,,,1.2394,575.8755859,None,None,1,575.8755859,None,,P027,fencog,1,Post,2022_Mar_07_1234,N-Back (New Version 2021),2021.1.4,120.4936867
,,,,Conditions/Version_1/twoback(2)_v1.xlsx,New rule: Press 'space' when you see 2-back (i.e. the same letter as the one that appeared 2 letters ago.),j,None,,,,,,,,,0,7,7,7,0,7,7,7,,,,,,,,,,,,,,,,,,,,,,,,,,,,,,,,,,,,,,,,,,,,,,,,,,,,,,,,,,,,,,,,,,,,,1.909,579.7826842,None,None,1,579.7826842,None,,P027,fencog,1,Post,2022_Mar_07_1234,N-Back (New Version 2021),2021.1.4,120.4936867
,,,,Conditions/Version_1/twoback(2)_v1.xlsx,New rule: Press 'space' when you see 2-back (i.e. the same letter as the one that appeared 2 letters ago.),g,space,,,,,,,,,0,7,7,7,0,8,8,8,,,,,,,,,,,,,,,,,,,,,,,,,,,,,,,,,,,,,,,,,,,,,,,,,,,,,,,,,,,,,,,,,,,,,1.723,583.5102091,None,space,1,583.5102091,None,0.5480118,P027,fencog,1,Post,2022_Mar_07_1234,N-Back (New Version 2021),2021.1.4,120.4936867
,,,,Conditions/Version_1/twoback(2)_v1.xlsx,New rule: Press 'space' when you see 2-back (i.e. the same letter as the one that appeared 2 letters ago.),G,None,,,,,,,,,0,7,7,7,0,9,9,9,,,,,,,,,,,,,,,,,,,,,,,,,,,,,,,,,,,,,,,,,,,,,,,,,,,,,,,,,,,,,,,,,,,,,1.7664,587.2814142,None,None,1,587.2814142,None,,P027,fencog,1,Post,2022_Mar_07_1234,N-Back (New Version 2021),2021.1.4,120.4936867
,,,,Conditions/Version_1/twoback(2)_v1.xlsx,New rule: Press 'space' when you see 2-back (i.e. the same letter as the one that appeared 2 letters ago.),,,,,,,,,,,0,7,7,7,,,,,,,,,,,,,,,,,,,,,,,,,,,,,,,,,,,,,,,,,,,,,,,,,,,,,,,,,,,,,,,,,,,,,,,,,,,,,,,,,P027,fencog,1,Post,2022_Mar_07_1234,N-Back (New Version 2021),2021.1.4,120.4936867
,,,,Conditions/Version_1/threeback(3)_v1.xlsx,New rule: Press 'space' when you see 3-back (i.e. the same letter as the one that appeared 3 letters ago.),w,None,,,,,,,,,0,8,8,8,0,0,0,0,,,,,,,,,,,,,,,,,,,,,,,,,,,,,,,,,,,,,,,,,,,,,,,,,,,,,,,,,,,589.3162351,None,592.2982008,None,space,0.9761192,592.2982008,None,589.3162351,None,1.8904,595.1865507,None,None,1,595.1865507,None,,P027,fencog,1,Post,2022_Mar_07_1234,N-Back (New Version 2021),2021.1.4,120.4936867
,,,,Conditions/Version_1/threeback(3)_v1.xlsx,New rule: Press 'space' when you see 3-back (i.e. the same letter as the one that appeared 3 letters ago.),p,None,,,,,,,,,0,8,8,8,0,1,1,1,,,,,,,,,,,,,,,,,,,,,,,,,,,,,,,,,,,,,,,,,,,,,,,,,,,,,,,,,,,,,,,,,,,,,1.4874,598.6784155,None,None,1,598.6784155,None,,P027,fencog,1,Post,2022_Mar_07_1234,N-Back (New Version 2021),2021.1.4,120.4936867
,,,,Conditions/Version_1/threeback(3)_v1.xlsx,New rule: Press 'space' when you see 3-back (i.e. the same letter as the one that appeared 3 letters ago.),P,None,,,,,,,,,0,8,8,8,0,2,2,2,,,,,,,,,,,,,,,,,,,,,,,,,,,,,,,,,,,,,,,,,,,,,,,,,,,,,,,,,,,,,,,,,,,,,1.7788,602.4677026,None,None,1,602.4677026,None,,P027,fencog,1,Post,2022_Mar_07_1234,N-Back (New Version 2021),2021.1.4,120.4936867
,,,,Conditions/Version_1/threeback(3)_v1.xlsx,New rule: Press 'space' when you see 3-back (i.e. the same letter as the one that appeared 3 letters ago.),i,None,,,,,,,,,0,8,8,8,0,3,3,3,,,,,,,,,,,,,,,,,,,,,,,,,,,,,,,,,,,,,,,,,,,,,,,,,,,,,,,,,,,,,,,,,,,,,1.4192,605.8935722,None,None,1,605.8935722,None,,P027,fencog,1,Post,2022_Mar_07_1234,N-Back (New Version 2021),2021.1.4,120.4936867
,,,,Conditions/Version_1/threeback(3)_v1.xlsx,New rule: Press 'space' when you see 3-back (i.e. the same letter as the one that appeared 3 letters ago.),f,None,,,,,,,,,0,8,8,8,0,4,4,4,,,,,,,,,,,,,,,,,,,,,,,,,,,,,,,,,,,,,,,,,,,,,,,,,,,,,,,,,,,,,,,,,,,,,1.072,608.975377,None,None,1,608.975377,None,,P027,fencog,1,Post,2022_Mar_07_1234,N-Back (New Version 2021),2021.1.4,120.4936867
,,,,Conditions/Version_1/threeback(3)_v1.xlsx,New rule: Press 'space' when you see 3-back (i.e. the same letter as the one that appeared 3 letters ago.),o,None,,,,,,,,,0,8,8,8,0,5,5,5,,,,,,,,,,,,,,,,,,,,,,,,,,,,,,,,,,,,,,,,,,,,,,,,,,,,,,,,,,,,,,,,,,,,,1.0782,612.0659466,None,None,1,612.0659466,None,,P027,fencog,1,Post,2022_Mar_07_1234,N-Back (New Version 2021),2021.1.4,120.4936867
,,,,Conditions/Version_1/threeback(3)_v1.xlsx,New rule: Press 'space' when you see 3-back (i.e. the same letter as the one that appeared 3 letters ago.),w,None,,,,,,,,,0,8,8,8,0,6,6,6,,,,,,,,,,,,,,,,,,,,,,,,,,,,,,,,,,,,,,,,,,,,,,,,,,,,,,,,,,,,,,,,,,,,,1.2084,615.2806254,None,None,1,615.2806254,None,,P027,fencog,1,Post,2022_Mar_07_1234,N-Back (New Version 2021),2021.1.4,120.4936867
,,,,Conditions/Version_1/threeback(3)_v1.xlsx,New rule: Press 'space' when you see 3-back (i.e. the same letter as the one that appeared 3 letters ago.),F,space,,,,,,,,,0,8,8,8,0,7,7,7,,,,,,,,,,,,,,,,,,,,,,,,,,,,,,,,,,,,,,,,,,,,,,,,,,,,,,,,,,,,,,,,,,,,,1.8656,619.1554927,None,space,1,619.1554927,None,0.550835,P027,fencog,1,Post,2022_Mar_07_1234,N-Back (New Version 2021),2021.1.4,120.4936867
,,,,Conditions/Version_1/threeback(3)_v1.xlsx,New rule: Press 'space' when you see 3-back (i.e. the same letter as the one that appeared 3 letters ago.),p,None,,,,,,,,,0,8,8,8,0,8,8,8,,,,,,,,,,,,,,,,,,,,,,,,,,,,,,,,,,,,,,,,,,,,,,,,,,,,,,,,,,,,,,,,,,,,,1.6362,622.8038936,None,None,1,622.8038936,None,,P027,fencog,1,Post,2022_Mar_07_1234,N-Back (New Version 2021),2021.1.4,120.4936867
,,,,Conditions/Version_1/threeback(3)_v1.xlsx,New rule: Press 'space' when you see 3-back (i.e. the same letter as the one that appeared 3 letters ago.),W,space,,,,,,,,,0,8,8,8,0,9,9,9,,,,,,,,,,,,,,,,,,,,,,,,,,,,,,,,,,,,,,,,,,,,,,,,,,,,,,,,,,,,,,,,,,,,,1.196,626.0073922,None,space,1,626.0073922,None,0.5468752,P027,fencog,1,Post,2022_Mar_07_1234,N-Back (New Version 2021),2021.1.4,120.4936867
,,,,Conditions/Version_1/threeback(3)_v1.xlsx,New rule: Press 'space' when you see 3-back (i.e. the same letter as the one that appeared 3 letters ago.),,,,,,,,,,,0,8,8,8,,,,,,,,,,,,,,,,,,,,,,,,,,,,,,,,,,,,,,,,,,,,,,,,,,,,,,,,,,,,,,,,,,,,,,,,,,,,,,,,,P027,fencog,1,Post,2022_Mar_07_1234,N-Back (New Version 2021),2021.1.4,120.4936867
,,,,Conditions/Version_1/zeroback(3)_v1.xlsx,New rule: Press 'space' when you see the letter 'x' or 'X'.,X,space,,,,,,,,,0,9,9,9,0,0,0,0,,,,,,,,,,,,,,,,,,,,,,,,,,,,,,,,,,,,,,,,,,,,,,,,,,,,,,,,,,,628.0313319,None,631.0192335,None,space,0.3269878,631.0192335,None,628.0313319,None,1.351,632.7301144,None,space,1,632.7301144,None,0.6241641,P027,fencog,1,Post,2022_Mar_07_1234,N-Back (New Version 2021),2021.1.4,120.4936867
,,,,Conditions/Version_1/zeroback(3)_v1.xlsx,New rule: Press 'space' when you see the letter 'x' or 'X'.,B,None,,,,,,,,,0,9,9,9,0,1,1,1,,,,,,,,,,,,,,,,,,,,,,,,,,,,,,,,,,,,,,,,,,,,,,,,,,,,,,,,,,,,,,,,,,,,,1.785,636.526688,None,None,1,636.526688,None,,P027,fencog,1,Post,2022_Mar_07_1234,N-Back (New Version 2021),2021.1.4,120.4936867
,,,,Conditions/Version_1/zeroback(3)_v1.xlsx,New rule: Press 'space' when you see the letter 'x' or 'X'.,m,None,,,,,,,,,0,9,9,9,0,2,2,2,,,,,,,,,,,,,,,,,,,,,,,,,,,,,,,,,,,,,,,,,,,,,,,,,,,,,,,,,,,,,,,,,,,,,1.9524,640.4912314,None,None,1,640.4912314,None,,P027,fencog,1,Post,2022_Mar_07_1234,N-Back (New Version 2021),2021.1.4,120.4936867
,,,,Conditions/Version_1/zeroback(3)_v1.xlsx,New rule: Press 'space' when you see the letter 'x' or 'X'.,m,None,,,,,,,,,0,9,9,9,0,3,3,3,,,,,,,,,,,,,,,,,,,,,,,,,,,,,,,,,,,,,,,,,,,,,,,,,,,,,,,,,,,,,,,,,,,,,1.5246,644.0223655,None,None,1,644.0223655,None,,P027,fencog,1,Post,2022_Mar_07_1234,N-Back (New Version 2021),2021.1.4,120.4936867
,,,,Conditions/Version_1/zeroback(3)_v1.xlsx,New rule: Press 'space' when you see the letter 'x' or 'X'.,o,None,,,,,,,,,0,9,9,9,0,4,4,4,,,,,,,,,,,,,,,,,,,,,,,,,,,,,,,,,,,,,,,,,,,,,,,,,,,,,,,,,,,,,,,,,,,,,1.909,647.9376653,None,None,1,647.9376653,None,,P027,fencog,1,Post,2022_Mar_07_1234,N-Back (New Version 2021),2021.1.4,120.4936867
,,,,Conditions/Version_1/zeroback(3)_v1.xlsx,New rule: Press 'space' when you see the letter 'x' or 'X'.,p,None,,,,,,,,,0,9,9,9,0,5,5,5,,,,,,,,,,,,,,,,,,,,,,,,,,,,,,,,,,,,,,,,,,,,,,,,,,,,,,,,,,,,,,,,,,,,,1.9214,651.8693111,None,None,1,651.8693111,None,,P027,fencog,1,Post,2022_Mar_07_1234,N-Back (New Version 2021),2021.1.4,120.4936867
,,,,Conditions/Version_1/zeroback(3)_v1.xlsx,New rule: Press 'space' when you see the letter 'x' or 'X'.,G,None,,,,,,,,,0,9,9,9,0,6,6,6,,,,,,,,,,,,,,,,,,,,,,,,,,,,,,,,,,,,,,,,,,,,,,,,,,,,,,,,,,,,,,,,,,,,,1.7788,655.6522823,None,None,1,655.6522823,None,,P027,fencog,1,Post,2022_Mar_07_1234,N-Back (New Version 2021),2021.1.4,120.4936867
,,,,Conditions/Version_1/zeroback(3)_v1.xlsx,New rule: Press 'space' when you see the letter 'x' or 'X'.,X,space,,,,,,,,,0,9,9,9,0,7,7,7,,,,,,,,,,,,,,,,,,,,,,,,,,,,,,,,,,,,,,,,,,,,,,,,,,,,,,,,,,,,,,,,,,,,,1.3138,658.9682628,None,space,1,658.9682628,None,0.4980177,P027,fencog,1,Post,2022_Mar_07_1234,N-Back (New Version 2021),2021.1.4,120.4936867
,,,,Conditions/Version_1/zeroback(3)_v1.xlsx,New rule: Press 'space' when you see the letter 'x' or 'X'.,p,None,,,,,,,,,0,9,9,9,0,8,8,8,,,,,,,,,,,,,,,,,,,,,,,,,,,,,,,,,,,,,,,,,,,,,,,,,,,,,,,,,,,,,,,,,,,,,1.382,662.3502743,None,None,1,662.3502743,None,,P027,fencog,1,Post,2022_Mar_07_1234,N-Back (New Version 2021),2021.1.4,120.4936867
,,,,Conditions/Version_1/zeroback(3)_v1.xlsx,New rule: Press 'space' when you see the letter 'x' or 'X'.,x,space,,,,,,,,,0,9,9,9,0,9,9,9,,,,,,,,,,,,,,,,,,,,,,,,,,,,,,,,,,,,,,,,,,,,,,,,,,,,,,,,,,,,,,,,,,,,,1.5184,665.8740495,None,space,1,665.8740495,None,0.4962332,P027,fencog,1,Post,2022_Mar_07_1234,N-Back (New Version 2021),2021.1.4,120.4936867
,,,,Conditions/Version_1/zeroback(3)_v1.xlsx,New rule: Press 'space' when you see the letter 'x' or 'X'.,,,,,,,,,,,0,9,9,9,,,,,,,,,,,,,,,,,,,,,,,,,,,,,,,,,,,,,,,,,,,,,,,,,,,,,,,,,,,,,,,,,,,,,,,,,,,,,,,,,P027,fencog,1,Post,2022_Mar_07_1234,N-Back (New Version 2021),2021.1.4,120.4936867
,,,,Conditions/Version_1/twoback(3)_v1.xlsx,New rule: Press 'space' when you see 2-back (i.e. the same letter as the one that appeared 2 letters ago.),e,None,,,,,,,,,0,10,10,10,0,0,0,0,,,,,,,,,,,,,,,,,,,,,,,,,,,,,,,,,,,,,,,,,,,,,,,,,,,,,,,,,,,667.897076,None,670.8837269,None,space,0.3747168,670.8837269,None,667.897076,None,1.3138,672.6054627,None,None,1,672.6054627,None,,P027,fencog,1,Post,2022_Mar_07_1234,N-Back (New Version 2021),2021.1.4,120.4936867
,,,,Conditions/Version_1/twoback(3)_v1.xlsx,New rule: Press 'space' when you see 2-back (i.e. the same letter as the one that appeared 2 letters ago.),o,None,,,,,,,,,0,10,10,10,0,1,1,1,,,,,,,,,,,,,,,,,,,,,,,,,,,,,,,,,,,,,,,,,,,,,,,,,,,,,,,,,,,,,,,,,,,,,1.6424,676.2543392,None,None,1,676.2543392,None,,P027,fencog,1,Post,2022_Mar_07_1234,N-Back (New Version 2021),2021.1.4,120.4936867
,,,,Conditions/Version_1/twoback(3)_v1.xlsx,New rule: Press 'space' when you see 2-back (i.e. the same letter as the one that appeared 2 letters ago.),P,None,,,,,,,,,0,10,10,10,0,2,2,2,,,,,,,,,,,,,,,,,,,,,,,,,,,,,,,,,,,,,,,,,,,,,,,,,,,,,,,,,,,,,,,,,,,,,1.9896,680.2448621,None,None,1,680.2448621,None,,P027,fencog,1,Post,2022_Mar_07_1234,N-Back (New Version 2021),2021.1.4,120.4936867
,,,,Conditions/Version_1/twoback(3)_v1.xlsx,New rule: Press 'space' when you see 2-back (i.e. the same letter as the one that appeared 2 letters ago.),z,None,,,,,,,,,0,10,10,10,0,3,3,3,,,,,,,,,,,,,,,,,,,,,,,,,,,,,,,,,,,,,,,,,,,,,,,,,,,,,,,,,,,,,,,,,,,,,1.8656,684.1114548,None,None,1,684.1114548,None,,P027,fencog,1,Post,2022_Mar_07_1234,N-Back (New Version 2021),2021.1.4,120.4936867
,,,,Conditions/Version_1/twoback(3)_v1.xlsx,New rule: Press 'space' when you see 2-back (i.e. the same letter as the one that appeared 2 letters ago.),X,None,,,,,,,,,0,10,10,10,0,4,4,4,,,,,,,,,,,,,,,,,,,,,,,,,,,,,,,,,,,,,,,,,,,,,,,,,,,,,,,,,,,,,,,,,,,,,1.289,687.4147459,None,None,1,687.4147459,None,,P027,fencog,1,Post,2022_Mar_07_1234,N-Back (New Version 2021),2021.1.4,120.4936867
,,,,Conditions/Version_1/twoback(3)_v1.xlsx,New rule: Press 'space' when you see 2-back (i.e. the same letter as the one that appeared 2 letters ago.),z,space,,,,,,,,,0,10,10,10,0,5,5,5,,,,,,,,,,,,,,,,,,,,,,,,,,,,,,,,,,,,,,,,,,,,,,,,,,,,,,,,,,,,,,,,,,,,,1.2952,690.7168469,None,space,1,690.7168469,None,0.3575058,P027,fencog,1,Post,2022_Mar_07_1234,N-Back (New Version 2021),2021.1.4,120.4936867
,,,,Conditions/Version_1/twoback(3)_v1.xlsx,New rule: Press 'space' when you see 2-back (i.e. the same letter as the one that appeared 2 letters ago.),x,space,,,,,,,,,0,10,10,10,0,6,6,6,,,,,,,,,,,,,,,,,,,,,,,,,,,,,,,,,,,,,,,,,,,,,,,,,,,,,,,,,,,,,,,,,,,,,1.0472,693.7658218,None,space,1,693.7658218,None,0.5166218,P027,fencog,1,Post,2022_Mar_07_1234,N-Back (New Version 2021),2021.1.4,120.4936867
,,,,Conditions/Version_1/twoback(3)_v1.xlsx,New rule: Press 'space' when you see 2-back (i.e. the same letter as the one that appeared 2 letters ago.),c,None,,,,,,,,,0,10,10,10,0,7,7,7,,,,,,,,,,,,,,,,,,,,,,,,,,,,,,,,,,,,,,,,,,,,,,,,,,,,,,,,,,,,,,,,,,,,,1.9462,697.717145,None,None,1,697.717145,None,,P027,fencog,1,Post,2022_Mar_07_1234,N-Back (New Version 2021),2021.1.4,120.4936867
,,,,Conditions/Version_1/twoback(3)_v1.xlsx,New rule: Press 'space' when you see 2-back (i.e. the same letter as the one that appeared 2 letters ago.),i,None,,,,,,,,,0,10,10,10,0,8,8,8,,,,,,,,,,,,,,,,,,,,,,,,,,,,,,,,,,,,,,,,,,,,,,,,,,,,,,,,,,,,,,,,,,,,,1.692,701.4153503,None,None,1,701.4153503,None,,P027,fencog,1,Post,2022_Mar_07_1234,N-Back (New Version 2021),2021.1.4,120.4936867
,,,,Conditions/Version_1/twoback(3)_v1.xlsx,New rule: Press 'space' when you see 2-back (i.e. the same letter as the one that appeared 2 letters ago.),C,space,,,,,,,,,0,10,10,10,0,9,9,9,,,,,,,,,,,,,,,,,,,,,,,,,,,,,,,,,,,,,,,,,,,,,,,,,,,,,,,,,,,,,,,,,,,,,1.2828,704.7042096,None,space,1,704.7042096,None,0.6585001,P027,fencog,1,Post,2022_Mar_07_1234,N-Back (New Version 2021),2021.1.4,120.4936867
,,,,Conditions/Version_1/twoback(3)_v1.xlsx,New rule: Press 'space' when you see 2-back (i.e. the same letter as the one that appeared 2 letters ago.),,,,,,,,,,,0,10,10,10,,,,,,,,,,,,,,,,,,,,,,,,,,,,,,,,,,,,,,,,,,,,,,,,,,,,,,,,,,,,,,,,,,,,,,,,,,,,,,,,,P027,fencog,1,Post,2022_Mar_07_1234,N-Back (New Version 2021),2021.1.4,120.4936867
,,,,Conditions/Version_1/oneback(3)_v1.xlsx,New rule: Press 'space' when you see 1-back (i.e. the same letter as the one that appeared 1 letter ago.),o,None,,,,,,,,,0,11,11,11,0,0,0,0,,,,,,,,,,,,,,,,,,,,,,,,,,,,,,,,,,,,,,,,,,,,,,,,,,,,,,,,,,,706.7445065,None,709.7302134,None,space,0.3040254,709.7302134,None,706.7445065,None,1.7354,711.7938938,None,None,1,711.7938938,None,,P027,fencog,1,Post,2022_Mar_07_1234,N-Back (New Version 2021),2021.1.4,120.4936867
,,,,Conditions/Version_1/oneback(3)_v1.xlsx,New rule: Press 'space' when you see 1-back (i.e. the same letter as the one that appeared 1 letter ago.),O,space,,,,,,,,,0,11,11,11,0,1,1,1,,,,,,,,,,,,,,,,,,,,,,,,,,,,,,,,,,,,,,,,,,,,,,,,,,,,,,,,,,,,,,,,,,,,,1.537,715.3365243,None,space,1,715.3365243,None,0.3937249,P027,fencog,1,Post,2022_Mar_07_1234,N-Back (New Version 2021),2021.1.4,120.4936867
,,,,Conditions/Version_1/oneback(3)_v1.xlsx,New rule: Press 'space' when you see 1-back (i.e. the same letter as the one that appeared 1 letter ago.),h,None,,,,,,,,,0,11,11,11,0,2,2,2,,,,,,,,,,,,,,,,,,,,,,,,,,,,,,,,,,,,,,,,,,,,,,,,,,,,,,,,,,,,,,,,,,,,,1.9524,719.3000407,None,None,1,719.3000407,None,,P027,fencog,1,Post,2022_Mar_07_1234,N-Back (New Version 2021),2021.1.4,120.4936867
,,,,Conditions/Version_1/oneback(3)_v1.xlsx,New rule: Press 'space' when you see 1-back (i.e. the same letter as the one that appeared 1 letter ago.),g,None,,,,,,,,,0,11,11,11,0,3,3,3,,,,,,,,,,,,,,,,,,,,,,,,,,,,,,,,,,,,,,,,,,,,,,,,,,,,,,,,,,,,,,,,,,,,,1.0596,722.3683538,None,None,1,722.3683538,None,,P027,fencog,1,Post,2022_Mar_07_1234,N-Back (New Version 2021),2021.1.4,120.4936867
,,,,Conditions/Version_1/oneback(3)_v1.xlsx,New rule: Press 'space' when you see 1-back (i.e. the same letter as the one that appeared 1 letter ago.),n,None,,,,,,,,,0,11,11,11,0,4,4,4,,,,,,,,,,,,,,,,,,,,,,,,,,,,,,,,,,,,,,,,,,,,,,,,,,,,,,,,,,,,,,,,,,,,,1.8594,726.2441306,None,None,1,726.2441306,None,,P027,fencog,1,Post,2022_Mar_07_1234,N-Back (New Version 2021),2021.1.4,120.4936867
,,,,Conditions/Version_1/oneback(3)_v1.xlsx,New rule: Press 'space' when you see 1-back (i.e. the same letter as the one that appeared 1 letter ago.),z,None,,,,,,,,,0,11,11,11,0,5,5,5,,,,,,,,,,,,,,,,,,,,,,,,,,,,,,,,,,,,,,,,,,,,,,,,,,,,,,,,,,,,,,,,,,,,,1.7788,730.0302891,None,None,1,730.0302891,None,,P027,fencog,1,Post,2022_Mar_07_1234,N-Back (New Version 2021),2021.1.4,120.4936867
,,,,Conditions/Version_1/oneback(3)_v1.xlsx,New rule: Press 'space' when you see 1-back (i.e. the same letter as the one that appeared 1 letter ago.),X,None,,,,,,,,,0,11,11,11,0,6,6,6,,,,,,,,,,,,,,,,,,,,,,,,,,,,,,,,,,,,,,,,,,,,,,,,,,,,,,,,,,,,,,,,,,,,,1.4254,733.46296,None,None,1,733.46296,None,,P027,fencog,1,Post,2022_Mar_07_1234,N-Back (New Version 2021),2021.1.4,120.4936867
,,,,Conditions/Version_1/oneback(3)_v1.xlsx,New rule: Press 'space' when you see 1-back (i.e. the same letter as the one that appeared 1 letter ago.),r,None,,,,,,,,,0,11,11,11,0,7,7,7,,,,,,,,,,,,,,,,,,,,,,,,,,,,,,,,,,,,,,,,,,,,,,,,,,,,,,,,,,,,,,,,,,,,,1.8222,737.2947006,None,None,1,737.2947006,None,,P027,fencog,1,Post,2022_Mar_07_1234,N-Back (New Version 2021),2021.1.4,120.4936867
,,,,Conditions/Version_1/oneback(3)_v1.xlsx,New rule: Press 'space' when you see 1-back (i.e. the same letter as the one that appeared 1 letter ago.),r,space,,,,,,,,,0,11,11,11,0,8,8,8,,,,,,,,,,,,,,,,,,,,,,,,,,,,,,,,,,,,,,,,,,,,,,,,,,,,,,,,,,,,,,,,,,,,,1.506,740.8021438,None,space,1,740.8021438,None,0.600483,P027,fencog,1,Post,2022_Mar_07_1234,N-Back (New Version 2021),2021.1.4,120.4936867
,,,,Conditions/Version_1/oneback(3)_v1.xlsx,New rule: Press 'space' when you see 1-back (i.e. the same letter as the one that appeared 1 letter ago.),P,None,,,,,,,,,0,11,11,11,0,9,9,9,,,,,,,,,,,,,,,,,,,,,,,,,,,,,,,,,,,,,,,,,,,,,,,,,,,,,,,,,,,,,,,,,,,,,1.7168,744.5257808,None,None,1,744.5257808,None,,P027,fencog,1,Post,2022_Mar_07_1234,N-Back (New Version 2021),2021.1.4,120.4936867
,,,,Conditions/Version_1/oneback(3)_v1.xlsx,New rule: Press 'space' when you see 1-back (i.e. the same letter as the one that appeared 1 letter ago.),,,,,,,,,,,0,11,11,11,,,,,,,,,,,,,,,,,,,,,,,,,,,,,,,,,,,,,,,,,,,,,,,,,,,,,,,,,,,,,,,,,,,,,,,,,,,,,,,,,P027,fencog,1,Post,2022_Mar_07_1234,N-Back (New Version 2021),2021.1.4,120.4936867
,,,,Conditions/Version_1/twoback(4)_v1.xlsx,New rule: Press 'space' when you see 2-back (i.e. the same letter as the one that appeared 2 letters ago.),r,None,,,,,,,,,0,12,12,12,0,0,0,0,,,,,,,,,,,,,,,,,,,,,,,,,,,,,,,,,,,,,,,,,,,,,,,,,,,,,,,,,,,746.5483301,None,749.5371647,None,space,0.3052093,749.5371647,None,746.5483301,None,1.1588,751.0655807,None,None,1,751.0655807,None,,P027,fencog,1,Post,2022_Mar_07_1234,N-Back (New Version 2021),2021.1.4,120.4936867
,,,,Conditions/Version_1/twoback(4)_v1.xlsx,New rule: Press 'space' when you see 2-back (i.e. the same letter as the one that appeared 2 letters ago.),T,None,,,,,,,,,0,12,12,12,0,1,1,1,,,,,,,,,,,,,,,,,,,,,,,,,,,,,,,,,,,,,,,,,,,,,,,,,,,,,,,,,,,,,,,,,,,,,1.9276,755.0071865,None,None,1,755.0071865,None,,P027,fencog,1,Post,2022_Mar_07_1234,N-Back (New Version 2021),2021.1.4,120.4936867
,,,,Conditions/Version_1/twoback(4)_v1.xlsx,New rule: Press 'space' when you see 2-back (i.e. the same letter as the one that appeared 2 letters ago.),o,None,,,,,,,,,0,12,12,12,0,2,2,2,,,,,,,,,,,,,,,,,,,,,,,,,,,,,,,,,,,,,,,,,,,,,,,,,,,,,,,,,,,,,,,,,,,,,1.723,758.7406076,None,None,1,758.7406076,None,,P027,fencog,1,Post,2022_Mar_07_1234,N-Back (New Version 2021),2021.1.4,120.4936867
,,,,Conditions/Version_1/twoback(4)_v1.xlsx,New rule: Press 'space' when you see 2-back (i.e. the same letter as the one that appeared 2 letters ago.),p,None,,,,,,,,,0,12,12,12,0,3,3,3,,,,,,,,,,,,,,,,,,,,,,,,,,,,,,,,,,,,,,,,,,,,,,,,,,,,,,,,,,,,,,,,,,,,,1.8284,762.5839958,None,None,1,762.5839958,None,,P027,fencog,1,Post,2022_Mar_07_1234,N-Back (New Version 2021),2021.1.4,120.4936867
,,,,Conditions/Version_1/twoback(4)_v1.xlsx,New rule: Press 'space' when you see 2-back (i.e. the same letter as the one that appeared 2 letters ago.),p,None,,,,,,,,,0,12,12,12,0,4,4,4,,,,,,,,,,,,,,,,,,,,,,,,,,,,,,,,,,,,,,,,,,,,,,,,,,,,,,,,,,,,,,,,,,,,,1.2084,765.7943533,None,None,1,765.7943533,None,,P027,fencog,1,Post,2022_Mar_07_1234,N-Back (New Version 2021),2021.1.4,120.4936867
,,,,Conditions/Version_1/twoback(4)_v1.xlsx,New rule: Press 'space' when you see 2-back (i.e. the same letter as the one that appeared 2 letters ago.),y,None,,,,,,,,,0,12,12,12,0,5,5,5,,,,,,,,,,,,,,,,,,,,,,,,,,,,,,,,,,,,,,,,,,,,,,,,,,,,,,,,,,,,,,,,,,,,,1.8842,769.6850417,None,None,1,769.6850417,None,,P027,fencog,1,Post,2022_Mar_07_1234,N-Back (New Version 2021),2021.1.4,120.4936867
,,,,Conditions/Version_1/twoback(4)_v1.xlsx,New rule: Press 'space' when you see 2-back (i.e. the same letter as the one that appeared 2 letters ago.),P,space,,,,,,,,,0,12,12,12,0,6,6,6,,,,,,,,,,,,,,,,,,,,,,,,,,,,,,,,,,,,,,,,,,,,,,,,,,,,,,,,,,,,,,,,,,,,,1.7788,773.4686469,None,space,1,773.4686469,None,0.4141217,P027,fencog,1,Post,2022_Mar_07_1234,N-Back (New Version 2021),2021.1.4,120.4936867
,,,,Conditions/Version_1/twoback(4)_v1.xlsx,New rule: Press 'space' when you see 2-back (i.e. the same letter as the one that appeared 2 letters ago.),y,None,,,,,,,,,0,12,12,12,0,7,7,7,,,,,,,,,,,,,,,,,,,,,,,,,,,,,,,,,,,,,,,,,,,,,,,,,,,,,,,,,,,,,,,,,,,,,1.2704,776.7496533,None,space,0,776.7496533,None,0.4925737,P027,fencog,1,Post,2022_Mar_07_1234,N-Back (New Version 2021),2021.1.4,120.4936867
,,,,Conditions/Version_1/twoback(4)_v1.xlsx,New rule: Press 'space' when you see 2-back (i.e. the same letter as the one that appeared 2 letters ago.),y,space,,,,,,,,,0,12,12,12,0,8,8,8,,,,,,,,,,,,,,,,,,,,,,,,,,,,,,,,,,,,,,,,,,,,,,,,,,,,,,,,,,,,,,,,,,,,,1.4502,780.1995073,None,None,0,780.1995073,None,,P027,fencog,1,Post,2022_Mar_07_1234,N-Back (New Version 2021),2021.1.4,120.4936867
,,,,Conditions/Version_1/twoback(4)_v1.xlsx,New rule: Press 'space' when you see 2-back (i.e. the same letter as the one that appeared 2 letters ago.),,,,,,,,,,,0,12,12,12,,,,,,,,,,,,,,,,,,,,,,,,,,,,,,,,,,,,,,,,,,,,,,,,,,,,,,,,,,,,,,,,,,,,,,,,,,,,,,,,,P027,fencog,1,Post,2022_Mar_07_1234,N-Back (New Version 2021),2021.1.4,120.4936867
,,,,Conditions/Version_1/zeroback(4)_v1.xlsx,New rule: Press 'space' when you see the letter 'x' or 'X'.,o,None,,,,,,,,,0,13,13,13,0,0,0,0,,,,,,,,,,,,,,,,,,,,,,,,,,,,,,,,,,,,,,,,,,,,,,,,,,,,,,,,,,,782.2255343,None,785.2077037,None,space,0.6664451,785.2077037,None,782.2255343,None,1.4688,787.3728953,None,None,1,787.3728953,None,,P027,fencog,1,Post,2022_Mar_07_1234,N-Back (New Version 2021),2021.1.4,120.4936867
,,,,Conditions/Version_1/zeroback(4)_v1.xlsx,New rule: Press 'space' when you see the letter 'x' or 'X'.,X,space,,,,,,,,,0,13,13,13,0,1,1,1,,,,,,,,,,,,,,,,,,,,,,,,,,,,,,,,,,,,,,,,,,,,,,,,,,,,,,,,,,,,,,,,,,,,,1.1216,790.5041209,None,space,1,790.5041209,None,0.7063286,P027,fencog,1,Post,2022_Mar_07_1234,N-Back (New Version 2021),2021.1.4,120.4936867
,,,,Conditions/Version_1/zeroback(4)_v1.xlsx,New rule: Press 'space' when you see the letter 'x' or 'X'.,p,None,,,,,,,,,0,13,13,13,0,2,2,2,,,,,,,,,,,,,,,,,,,,,,,,,,,,,,,,,,,,,,,,,,,,,,,,,,,,,,,,,,,,,,,,,,,,,1.01,793.5217226,None,None,1,793.5217226,None,,P027,fencog,1,Post,2022_Mar_07_1234,N-Back (New Version 2021),2021.1.4,120.4936867
,,,,Conditions/Version_1/zeroback(4)_v1.xlsx,New rule: Press 'space' when you see the letter 'x' or 'X'.,m,None,,,,,,,,,0,13,13,13,0,3,3,3,,,,,,,,,,,,,,,,,,,,,,,,,,,,,,,,,,,,,,,,,,,,,,,,,,,,,,,,,,,,,,,,,,,,,1.7292,797.2602838,None,None,1,797.2602838,None,,P027,fencog,1,Post,2022_Mar_07_1234,N-Back (New Version 2021),2021.1.4,120.4936867
,,,,Conditions/Version_1/zeroback(4)_v1.xlsx,New rule: Press 'space' when you see the letter 'x' or 'X'.,n,None,,,,,,,,,0,13,13,13,0,4,4,4,,,,,,,,,,,,,,,,,,,,,,,,,,,,,,,,,,,,,,,,,,,,,,,,,,,,,,,,,,,,,,,,,,,,,1.5742,800.8342403,None,None,1,800.8342403,None,,P027,fencog,1,Post,2022_Mar_07_1234,N-Back (New Version 2021),2021.1.4,120.4936867
,,,,Conditions/Version_1/zeroback(4)_v1.xlsx,New rule: Press 'space' when you see the letter 'x' or 'X'.,m,None,,,,,,,,,0,13,13,13,0,5,5,5,,,,,,,,,,,,,,,,,,,,,,,,,,,,,,,,,,,,,,,,,,,,,,,,,,,,,,,,,,,,,,,,,,,,,1.444,804.2839776,None,None,1,804.2839776,None,,P027,fencog,1,Post,2022_Mar_07_1234,N-Back (New Version 2021),2021.1.4,120.4936867
,,,,Conditions/Version_1/zeroback(4)_v1.xlsx,New rule: Press 'space' when you see the letter 'x' or 'X'.,C,None,,,,,,,,,0,13,13,13,0,6,6,6,,,,,,,,,,,,,,,,,,,,,,,,,,,,,,,,,,,,,,,,,,,,,,,,,,,,,,,,,,,,,,,,,,,,,1.4626,807.757306,None,None,1,807.757306,None,,P027,fencog,1,Post,2022_Mar_07_1234,N-Back (New Version 2021),2021.1.4,120.4936867
,,,,Conditions/Version_1/zeroback(4)_v1.xlsx,New rule: Press 'space' when you see the letter 'x' or 'X'.,m,None,,,,,,,,,0,13,13,13,0,7,7,7,,,,,,,,,,,,,,,,,,,,,,,,,,,,,,,,,,,,,,,,,,,,,,,,,,,,,,,,,,,,,,,,,,,,,1.3696,811.1324707,None,None,1,811.1324707,None,,P027,fencog,1,Post,2022_Mar_07_1234,N-Back (New Version 2021),2021.1.4,120.4936867
,,,,Conditions/Version_1/zeroback(4)_v1.xlsx,New rule: Press 'space' when you see the letter 'x' or 'X'.,p,None,,,,,,,,,0,13,13,13,0,8,8,8,,,,,,,,,,,,,,,,,,,,,,,,,,,,,,,,,,,,,,,,,,,,,,,,,,,,,,,,,,,,,,,,,,,,,1.7168,814.8564822,None,None,1,814.8564822,None,,P027,fencog,1,Post,2022_Mar_07_1234,N-Back (New Version 2021),2021.1.4,120.4936867
,,,,Conditions/Version_1/zeroback(4)_v1.xlsx,New rule: Press 'space' when you see the letter 'x' or 'X'.,X,space,,,,,,,,,0,13,13,13,0,9,9,9,,,,,,,,,,,,,,,,,,,,,,,,,,,,,,,,,,,,,,,,,,,,,,,,,,,,,,,,,,,,,,,,,,,,,1.1154,817.9802031,None,space,1,817.9802031,None,0.7821329,P027,fencog,1,Post,2022_Mar_07_1234,N-Back (New Version 2021),2021.1.4,120.4936867
,,,,Conditions/Version_1/zeroback(4)_v1.xlsx,New rule: Press 'space' when you see the letter 'x' or 'X'.,,,,,,,,,,,0,13,13,13,,,,,,,,,,,,,,,,,,,,,,,,,,,,,,,,,,,,,,,,,,,,,,,,,,,,,,,,,,,,,,,,,,,,,,,,,,,,,,,,,P027,fencog,1,Post,2022_Mar_07_1234,N-Back (New Version 2021),2021.1.4,120.4936867
,,,,Conditions/Version_1/oneback(4)_v1.xlsx,New rule: Press 'space' when you see 1-back (i.e. the same letter as the one that appeared 1 letter ago.),w,None,,,,,,,,,0,14,14,14,0,0,0,0,,,,,,,,,,,,,,,,,,,,,,,,,,,,,,,,,,,,,,,,,,,,,,,,,,,,,,,,,,,820.0058996,None,822.9884881,None,space,0.7178115,822.9884881,None,820.0058996,None,1.816,825.552747,None,None,1,825.552747,None,,P027,fencog,1,Post,2022_Mar_07_1234,N-Back (New Version 2021),2021.1.4,120.4936867
,,,,Conditions/Version_1/oneback(4)_v1.xlsx,New rule: Press 'space' when you see 1-back (i.e. the same letter as the one that appeared 1 letter ago.),q,None,,,,,,,,,0,14,14,14,0,1,1,1,,,,,,,,,,,,,,,,,,,,,,,,,,,,,,,,,,,,,,,,,,,,,,,,,,,,,,,,,,,,,,,,,,,,,1.8718,829.4368407,None,None,1,829.4368407,None,,P027,fencog,1,Post,2022_Mar_07_1234,N-Back (New Version 2021),2021.1.4,120.4936867
,,,,Conditions/Version_1/oneback(4)_v1.xlsx,New rule: Press 'space' when you see 1-back (i.e. the same letter as the one that appeared 1 letter ago.),i,None,,,,,,,,,0,14,14,14,0,2,2,2,,,,,,,,,,,,,,,,,,,,,,,,,,,,,,,,,,,,,,,,,,,,,,,,,,,,,,,,,,,,,,,,,,,,,1.2394,832.6831441,None,None,1,832.6831441,None,,P027,fencog,1,Post,2022_Mar_07_1234,N-Back (New Version 2021),2021.1.4,120.4936867
,,,,Conditions/Version_1/oneback(4)_v1.xlsx,New rule: Press 'space' when you see 1-back (i.e. the same letter as the one that appeared 1 letter ago.),t,None,,,,,,,,,0,14,14,14,0,3,3,3,,,,,,,,,,,,,,,,,,,,,,,,,,,,,,,,,,,,,,,,,,,,,,,,,,,,,,,,,,,,,,,,,,,,,1.6858,836.3788044,None,None,1,836.3788044,None,,P027,fencog,1,Post,2022_Mar_07_1234,N-Back (New Version 2021),2021.1.4,120.4936867
,,,,Conditions/Version_1/oneback(4)_v1.xlsx,New rule: Press 'space' when you see 1-back (i.e. the same letter as the one that appeared 1 letter ago.),v,None,,,,,,,,,0,14,14,14,0,4,4,4,,,,,,,,,,,,,,,,,,,,,,,,,,,,,,,,,,,,,,,,,,,,,,,,,,,,,,,,,,,,,,,,,,,,,1.8284,840.2170796,None,None,1,840.2170796,None,,P027,fencog,1,Post,2022_Mar_07_1234,N-Back (New Version 2021),2021.1.4,120.4936867
,,,,Conditions/Version_1/oneback(4)_v1.xlsx,New rule: Press 'space' when you see 1-back (i.e. the same letter as the one that appeared 1 letter ago.),V,space,,,,,,,,,0,14,14,14,0,5,5,5,,,,,,,,,,,,,,,,,,,,,,,,,,,,,,,,,,,,,,,,,,,,,,,,,,,,,,,,,,,,,,,,,,,,,1.3944,843.6237317,None,space,1,843.6237317,None,0.6027201,P027,fencog,1,Post,2022_Mar_07_1234,N-Back (New Version 2021),2021.1.4,120.4936867
,,,,Conditions/Version_1/oneback(4)_v1.xlsx,New rule: Press 'space' when you see 1-back (i.e. the same letter as the one that appeared 1 letter ago.),v,space,,,,,,,,,0,14,14,14,0,6,6,6,,,,,,,,,,,,,,,,,,,,,,,,,,,,,,,,,,,,,,,,,,,,,,,,,,,,,,,,,,,,,,,,,,,,,1.4502,847.078943,None,space,1,847.078943,None,0.6993511,P027,fencog,1,Post,2022_Mar_07_1234,N-Back (New Version 2021),2021.1.4,120.4936867
,,,,Conditions/Version_1/oneback(4)_v1.xlsx,New rule: Press 'space' when you see 1-back (i.e. the same letter as the one that appeared 1 letter ago.),p,None,,,,,,,,,0,14,14,14,0,7,7,7,,,,,,,,,,,,,,,,,,,,,,,,,,,,,,,,,,,,,,,,,,,,,,,,,,,,,,,,,,,,,,,,,,,,,1.8904,850.9707101,None,None,1,850.9707101,None,,P027,fencog,1,Post,2022_Mar_07_1234,N-Back (New Version 2021),2021.1.4,120.4936867
,,,,Conditions/Version_1/oneback(4)_v1.xlsx,New rule: Press 'space' when you see 1-back (i.e. the same letter as the one that appeared 1 letter ago.),w,None,,,,,,,,,0,14,14,14,0,8,8,8,,,,,,,,,,,,,,,,,,,,,,,,,,,,,,,,,,,,,,,,,,,,,,,,,,,,,,,,,,,,,,,,,,,,,1.2456,854.2286877,None,None,1,854.2286877,None,,P027,fencog,1,Post,2022_Mar_07_1234,N-Back (New Version 2021),2021.1.4,120.4936867
,,,,Conditions/Version_1/oneback(4)_v1.xlsx,New rule: Press 'space' when you see 1-back (i.e. the same letter as the one that appeared 1 letter ago.),W,space,,,,,,,,,0,14,14,14,0,9,9,9,,,,,,,,,,,,,,,,,,,,,,,,,,,,,,,,,,,,,,,,,,,,,,,,,,,,,,,,,,,,,,,,,,,,,1.9338,858.1756546,None,space,1,858.1756546,None,0.6427736,P027,fencog,1,Post,2022_Mar_07_1234,N-Back (New Version 2021),2021.1.4,120.4936867
,,,,Conditions/Version_1/oneback(4)_v1.xlsx,New rule: Press 'space' when you see 1-back (i.e. the same letter as the one that appeared 1 letter ago.),,,,,,,,,,,0,14,14,14,,,,,,,,,,,,,,,,,,,,,,,,,,,,,,,,,,,,,,,,,,,,,,,,,,,,,,,,,,,,,,,,,,,,,,,,,,,,,,,,,P027,fencog,1,Post,2022_Mar_07_1234,N-Back (New Version 2021),2021.1.4,120.4936867
,,,,Conditions/Version_1/threeback(4)_v1.xlsx,New rule: Press 'space' when you see 3-back (i.e. the same letter as the one that appeared 3 letters ago.),A,None,,,,,,,,,0,15,15,15,0,0,0,0,,,,,,,,,,,,,,,,,,,,,,,,,,,,,,,,,,,,,,,,,,,,,,,,,,,,,,,,,,,860.197766,None,863.1853937,None,space,0.5048631,863.1853937,None,860.197766,None,1.3014,865.0177126,None,None,1,865.0177126,None,,P027,fencog,1,Post,2022_Mar_07_1234,N-Back (New Version 2021),2021.1.4,120.4936867
,,,,Conditions/Version_1/threeback(4)_v1.xlsx,New rule: Press 'space' when you see 3-back (i.e. the same letter as the one that appeared 3 letters ago.),n,None,,,,,,,,,0,15,15,15,0,1,1,1,,,,,,,,,,,,,,,,,,,,,,,,,,,,,,,,,,,,,,,,,,,,,,,,,,,,,,,,,,,,,,,,,,,,,1.568,868.5975408,None,None,1,868.5975408,None,,P027,fencog,1,Post,2022_Mar_07_1234,N-Back (New Version 2021),2021.1.4,120.4936867
,,,,Conditions/Version_1/threeback(4)_v1.xlsx,New rule: Press 'space' when you see 3-back (i.e. the same letter as the one that appeared 3 letters ago.),g,None,,,,,,,,,0,15,15,15,0,2,2,2,,,,,,,,,,,,,,,,,,,,,,,,,,,,,,,,,,,,,,,,,,,,,,,,,,,,,,,,,,,,,,,,,,,,,1.4936,872.0965198,None,None,1,872.0965198,None,,P027,fencog,1,Post,2022_Mar_07_1234,N-Back (New Version 2021),2021.1.4,120.4936867
,,,,Conditions/Version_1/threeback(4)_v1.xlsx,New rule: Press 'space' when you see 3-back (i.e. the same letter as the one that appeared 3 letters ago.),A,space,,,,,,,,,0,15,15,15,0,3,3,3,,,,,,,,,,,,,,,,,,,,,,,,,,,,,,,,,,,,,,,,,,,,,,,,,,,,,,,,,,,,,,,,,,,,,1.8904,875.9952356,None,space,1,875.9952356,None,0.4950973,P027,fencog,1,Post,2022_Mar_07_1234,N-Back (New Version 2021),2021.1.4,120.4936867
,,,,Conditions/Version_1/threeback(4)_v1.xlsx,New rule: Press 'space' when you see 3-back (i.e. the same letter as the one that appeared 3 letters ago.),p,None,,,,,,,,,0,15,15,15,0,4,4,4,,,,,,,,,,,,,,,,,,,,,,,,,,,,,,,,,,,,,,,,,,,,,,,,,,,,,,,,,,,,,,,,,,,,,1.5246,879.5194007,None,None,1,879.5194007,None,,P027,fencog,1,Post,2022_Mar_07_1234,N-Back (New Version 2021),2021.1.4,120.4936867
,,,,Conditions/Version_1/threeback(4)_v1.xlsx,New rule: Press 'space' when you see 3-back (i.e. the same letter as the one that appeared 3 letters ago.),O,None,,,,,,,,,0,15,15,15,0,5,5,5,,,,,,,,,,,,,,,,,,,,,,,,,,,,,,,,,,,,,,,,,,,,,,,,,,,,,,,,,,,,,,,,,,,,,1.1092,882.6371223,None,None,1,882.6371223,None,,P027,fencog,1,Post,2022_Mar_07_1234,N-Back (New Version 2021),2021.1.4,120.4936867
,,,,Conditions/Version_1/threeback(4)_v1.xlsx,New rule: Press 'space' when you see 3-back (i.e. the same letter as the one that appeared 3 letters ago.),a,space,,,,,,,,,0,15,15,15,0,6,6,6,,,,,,,,,,,,,,,,,,,,,,,,,,,,,,,,,,,,,,,,,,,,,,,,,,,,,,,,,,,,,,,,,,,,,1.2084,885.8530684,None,space,1,885.8530684,None,0.5010396,P027,fencog,1,Post,2022_Mar_07_1234,N-Back (New Version 2021),2021.1.4,120.4936867
,,,,Conditions/Version_1/threeback(4)_v1.xlsx,New rule: Press 'space' when you see 3-back (i.e. the same letter as the one that appeared 3 letters ago.),p,space,,,,,,,,,0,15,15,15,0,7,7,7,,,,,,,,,,,,,,,,,,,,,,,,,,,,,,,,,,,,,,,,,,,,,,,,,,,,,,,,,,,,,,,,,,,,,1.8966,889.7581897,None,space,1,889.7581897,None,0.4601392,P027,fencog,1,Post,2022_Mar_07_1234,N-Back (New Version 2021),2021.1.4,120.4936867
,,,,Conditions/Version_1/threeback(4)_v1.xlsx,New rule: Press 'space' when you see 3-back (i.e. the same letter as the one that appeared 3 letters ago.),x,None,,,,,,,,,0,15,15,15,0,8,8,8,,,,,,,,,,,,,,,,,,,,,,,,,,,,,,,,,,,,,,,,,,,,,,,,,,,,,,,,,,,,,,,,,,,,,1.9896,893.7495621,None,None,1,893.7495621,None,,P027,fencog,1,Post,2022_Mar_07_1234,N-Back (New Version 2021),2021.1.4,120.4936867
,,,,Conditions/Version_1/threeback(4)_v1.xlsx,New rule: Press 'space' when you see 3-back (i.e. the same letter as the one that appeared 3 letters ago.),X,None,,,,,,,,,0,15,15,15,0,9,9,9,,,,,,,,,,,,,,,,,,,,,,,,,,,,,,,,,,,,,,,,,,,,,,,,,,,,,,,,,,,,,,,,,,,,,1.506,897.2660456,None,None,1,897.2660456,None,,P027,fencog,1,Post,2022_Mar_07_1234,N-Back (New Version 2021),2021.1.4,120.4936867
,,,,Conditions/Version_1/threeback(4)_v1.xlsx,New rule: Press 'space' when you see 3-back (i.e. the same letter as the one that appeared 3 letters ago.),,,,,,,,,,,0,15,15,15,,,,,,,,,,,,,,,,,,,,,,,,,,,,,,,,,,,,,,,,,,,,,,,,,,,,,,,,,,,,,,,,,,,,,,,,,,,,,,,,,P027,fencog,1,Post,2022_Mar_07_1234,N-Back (New Version 2021),2021.1.4,120.4936867
