CondFileP,InstructionsP,LettersDisplayedP,CorrectnessP,CondFile,Instructions,LettersDisplayed,Correctness,practicetrials.thisRepN,practicetrials.thisTrialN,practicetrials.thisN,practicetrials.thisIndex,InnerLoopPractice.thisRepN,InnerLoopPractice.thisTrialN,InnerLoopPractice.thisN,InnerLoopPractice.thisIndex,trials.thisRepN,trials.thisTrialN,trials.thisN,trials.thisIndex,InnerLoop.thisRepN,InnerLoop.thisTrialN,InnerLoop.thisN,InnerLoop.thisIndex,TaskVersionText.started,TaskVersionText.stopped,InstrKey1.keys,InstrKey1.rt,InstrKey1.started,InstrKey1.stopped,text.started,text.stopped,key_resp_4.keys,key_resp_4.rt,key_resp_4.started,key_resp_4.stopped,text_2.started,text_2.stopped,key_resp_3.keys,key_resp_3.rt,key_resp_3.started,key_resp_3.stopped,text_3.started,text_3.stopped,key_resp_2.keys,key_resp_2.rt,key_resp_2.started,key_resp_2.stopped,PractIn1.started,PractIn1.stopped,PractIn2.started,PractIn2.stopped,PractInstructionPass.keys,PractInstructionPass.rt,PractInstructionPass.started,PractInstructionPass.stopped,PractBlock1.started,PractBlock1.stopped,ISIjitterPractice,ISI_Pract_Fixation.started,ISI_Pract_Fixation.stopped,N_backP.started,N_backP.stopped,KeyPractice.keys,KeyPractice.corr,KeyPractice.rt,KeyPractice.started,KeyPractice.stopped,text_4.started,text_4.stopped,TransitionText.started,TransitionText.stopped,key_resp_6.keys,key_resp_6.rt,key_resp_6.started,key_resp_6.stopped,text_5.started,text_5.stopped,key_resp_5.keys,key_resp_5.rt,key_resp_5.started,key_resp_5.stopped,MainInt1.started,MainInt1.stopped,MainInt2.started,MainInt2.stopped,InstructionPass.keys,InstructionPass.rt,InstructionPass.started,InstructionPass.stopped,Blocks1.started,Blocks1.stopped,ISIjitter,N_backD.started,N_backD.stopped,key_resp.keys,key_resp.corr,key_resp.started,key_resp.stopped,key_resp.rt,participant,Study Name,Task Version (required to run),PRE/POST,date,expName,psychopyVersion,frameRate
,,,,,,,,,,,,,,,,,,,,,,,,31.1125805,None,space,75.2607722,31.6022709,None,,,,,,,,,,,,,,,,,,,,,,,,,,,,,,,,,,,,,,,,,,,,,,,,,,,,,,,,,,,,,,,,,,,,,,,P028,FENCOG,2,Post,2022_Mar_16_1058,N-Back (New Version 2021),2021.1.4,119.9528346
,,,,,,,,,,,,,,,,,,,,,,,,,,,,,,106.8960005,None,space,1.4903535,107.388733,None,,,,,,,,,,,,,,,,,,,,,,,,,,,,,,,,,,,,,,,,,,,,,,,,,,,,,,,,,,,,,,,,,P028,FENCOG,2,Post,2022_Mar_16_1058,N-Back (New Version 2021),2021.1.4,119.9528346
,,,,,,,,,,,,,,,,,,,,,,,,,,,,,,,,,,,,108.9168177,None,space,0.8817241,109.4133899,None,,,,,,,,,,,,,,,,,,,,,,,,,,,,,,,,,,,,,,,,,,,,,,,,,,,,,,,,,,,P028,FENCOG,2,Post,2022_Mar_16_1058,N-Back (New Version 2021),2021.1.4,119.9528346
,,,,,,,,,,,,,,,,,,,,,,,,,,,,,,,,,,,,,,,,,,110.3226492,None,space,3.2024047,110.8128549,None,,,,,,,,,,,,,,,,,,,,,,,,,,,,,,,,,,,,,,,,,,,,,,,,,,,,,P028,FENCOG,2,Post,2022_Mar_16_1058,N-Back (New Version 2021),2021.1.4,119.9528346
Conditions/Version_2Pr/zeroback(1)_v2.xlsx,Rule: Press 'space' when you see the letter 'x' or 'X'.,x,space,,,,,0,0,0,0,0,0,0,0,,,,,,,,,,,,,,,,,,,,,,,,,,,,,,,,,115.393207,None,118.3866143,None,space,0.6125144,118.3866143,None,115.393207,None,1.39,119.0207889,None,120.4195376,None,space,1,0.5874072,120.4195376,None,121.0230993,None,,,,,,,,,,,,,,,,,,,,,,,,,,,,,,,P028,FENCOG,2,Post,2022_Mar_16_1058,N-Back (New Version 2021),2021.1.4,119.9528346
Conditions/Version_2Pr/zeroback(1)_v2.xlsx,Rule: Press 'space' when you see the letter 'x' or 'X'.,R,None,,,,,0,0,0,0,0,1,1,1,,,,,,,,,,,,,,,,,,,,,,,,,,,,,,,,,,,,,,,,,,,1.74,122.5252737,None,124.2690119,None,None,1,,124.2690119,None,126.2741989,None,,,,,,,,,,,,,,,,,,,,,,,,,,,,,,,P028,FENCOG,2,Post,2022_Mar_16_1058,N-Back (New Version 2021),2021.1.4,119.9528346
Conditions/Version_2Pr/zeroback(1)_v2.xlsx,Rule: Press 'space' when you see the letter 'x' or 'X'.,p,None,,,,,0,0,0,0,0,2,2,2,,,,,,,,,,,,,,,,,,,,,,,,,,,,,,,,,,,,,,,,,,,1.24,127.7737835,None,129.0166251,None,None,1,,129.0166251,None,131.0227928,None,,,,,,,,,,,,,,,,,,,,,,,,,,,,,,,P028,FENCOG,2,Post,2022_Mar_16_1058,N-Back (New Version 2021),2021.1.4,119.9528346
Conditions/Version_2Pr/zeroback(1)_v2.xlsx,Rule: Press 'space' when you see the letter 'x' or 'X'.,O,None,,,,,0,0,0,0,0,3,3,3,,,,,,,,,,,,,,,,,,,,,,,,,,,,,,,,,,,,,,,,,,,1.59,132.5223514,None,134.1161834,None,None,1,,134.1161834,None,136.1212449,None,,,,,,,,,,,,,,,,,,,,,,,,,,,,,,,P028,FENCOG,2,Post,2022_Mar_16_1058,N-Back (New Version 2021),2021.1.4,119.9528346
Conditions/Version_2Pr/zeroback(1)_v2.xlsx,Rule: Press 'space' when you see the letter 'x' or 'X'.,i,None,,,,,0,0,0,0,0,4,4,4,,,,,,,,,,,,,,,,,,,,,,,,,,,,,,,,,,,,,,,,,,,1.815,137.6208561,None,139.4388066,None,None,1,,139.4388066,None,141.4447732,None,,,,,,,,,,,,,,,,,,,,,,,,,,,,,,,P028,FENCOG,2,Post,2022_Mar_16_1058,N-Back (New Version 2021),2021.1.4,119.9528346
Conditions/Version_2Pr/zeroback(1)_v2.xlsx,Rule: Press 'space' when you see the letter 'x' or 'X'.,U,None,,,,,0,0,0,0,0,5,5,5,,,,,,,,,,,,,,,,,,,,,,,,,,,,,,,,,,,,,,,,,,,1.565,142.9442514,None,144.5146647,None,None,1,,144.5146647,None,146.5178252,None,,,,,,,,,,,,,,,,,,,,,,,,,,,,,,,P028,FENCOG,2,Post,2022_Mar_16_1058,N-Back (New Version 2021),2021.1.4,119.9528346
Conditions/Version_2Pr/zeroback(1)_v2.xlsx,Rule: Press 'space' when you see the letter 'x' or 'X'.,N,None,,,,,0,0,0,0,0,6,6,6,,,,,,,,,,,,,,,,,,,,,,,,,,,,,,,,,,,,,,,,,,,1.89,148.0178388,None,149.912777,None,None,1,,149.912777,None,151.9150923,None,,,,,,,,,,,,,,,,,,,,,,,,,,,,,,,P028,FENCOG,2,Post,2022_Mar_16_1058,N-Back (New Version 2021),2021.1.4,119.9528346
Conditions/Version_2Pr/zeroback(1)_v2.xlsx,Rule: Press 'space' when you see the letter 'x' or 'X'.,m,None,,,,,0,0,0,0,0,7,7,7,,,,,,,,,,,,,,,,,,,,,,,,,,,,,,,,,,,,,,,,,,,1.69,153.4161415,None,155.1104603,None,None,1,,155.1104603,None,157.1149878,None,,,,,,,,,,,,,,,,,,,,,,,,,,,,,,,P028,FENCOG,2,Post,2022_Mar_16_1058,N-Back (New Version 2021),2021.1.4,119.9528346
Conditions/Version_2Pr/zeroback(1)_v2.xlsx,Rule: Press 'space' when you see the letter 'x' or 'X'.,x,space,,,,,0,0,0,0,0,8,8,8,,,,,,,,,,,,,,,,,,,,,,,,,,,,,,,,,,,,,,,,,,,1.315,158.6146708,None,159.9316342,None,space,1,0.4435427,159.9316342,None,160.3896384,None,,,,,,,,,,,,,,,,,,,,,,,,,,,,,,,P028,FENCOG,2,Post,2022_Mar_16_1058,N-Back (New Version 2021),2021.1.4,119.9528346
Conditions/Version_2Pr/zeroback(1)_v2.xlsx,Rule: Press 'space' when you see the letter 'x' or 'X'.,X,space,,,,,0,0,0,0,0,9,9,9,,,,,,,,,,,,,,,,,,,,,,,,,,,,,,,,,,,,,,,,,,,1.34,161.8887053,None,163.2400712,None,space,1,0.6309651,163.2400712,None,163.8813143,None,,,,,,,,,,,,,,,,,,,,,,,,,,,,,,,P028,FENCOG,2,Post,2022_Mar_16_1058,N-Back (New Version 2021),2021.1.4,119.9528346
Conditions/Version_2Pr/zeroback(1)_v2.xlsx,Rule: Press 'space' when you see the letter 'x' or 'X'.,,,,,,,0,0,0,0,,,,,,,,,,,,,,,,,,,,,,,,,,,,,,,,,,,,,,,,,,,,,,,,,,,,,,,,,,,,,,,,,,,,,,,,,,,,,,,,,,,,,,,,,P028,FENCOG,2,Post,2022_Mar_16_1058,N-Back (New Version 2021),2021.1.4,119.9528346
Conditions/Version_2Pr/oneback(1)_v2.xlsx,New rule: Press 'space' when you see 1-back (i.e. the same letter as the one that appeared 1 letter ago.),r,None,,,,,0,1,1,1,0,0,0,0,,,,,,,,,,,,,,,,,,,,,,,,,,,,,,,,,165.4142137,None,168.3972362,None,space,0.3218281,168.3972362,None,165.4142137,None,1.04,168.7432807,None,169.7882707,None,None,1,,169.7882707,None,171.7940596,None,,,,,,,,,,,,,,,,,,,,,,,,,,,,,,,P028,FENCOG,2,Post,2022_Mar_16_1058,N-Back (New Version 2021),2021.1.4,119.9528346
Conditions/Version_2Pr/oneback(1)_v2.xlsx,New rule: Press 'space' when you see 1-back (i.e. the same letter as the one that appeared 1 letter ago.),t,None,,,,,0,1,1,1,0,1,1,1,,,,,,,,,,,,,,,,,,,,,,,,,,,,,,,,,,,,,,,,,,,1.665,173.2936846,None,174.9615685,None,None,1,,174.9615685,None,176.9675286,None,,,,,,,,,,,,,,,,,,,,,,,,,,,,,,,P028,FENCOG,2,Post,2022_Mar_16_1058,N-Back (New Version 2021),2021.1.4,119.9528346
Conditions/Version_2Pr/oneback(1)_v2.xlsx,New rule: Press 'space' when you see 1-back (i.e. the same letter as the one that appeared 1 letter ago.),Y,None,,,,,0,1,1,1,0,2,2,2,,,,,,,,,,,,,,,,,,,,,,,,,,,,,,,,,,,,,,,,,,,1.365,178.4671296,None,179.8341276,None,None,1,,179.8341276,None,181.841175,None,,,,,,,,,,,,,,,,,,,,,,,,,,,,,,,P028,FENCOG,2,Post,2022_Mar_16_1058,N-Back (New Version 2021),2021.1.4,119.9528346
Conditions/Version_2Pr/oneback(1)_v2.xlsx,New rule: Press 'space' when you see 1-back (i.e. the same letter as the one that appeared 1 letter ago.),y,space,,,,,0,1,1,1,0,3,3,3,,,,,,,,,,,,,,,,,,,,,,,,,,,,,,,,,,,,,,,,,,,1.415,183.3407212,None,184.7593182,None,space,1,0.3758227,184.7593182,None,185.1499672,None,,,,,,,,,,,,,,,,,,,,,,,,,,,,,,,P028,FENCOG,2,Post,2022_Mar_16_1058,N-Back (New Version 2021),2021.1.4,119.9528346
Conditions/Version_2Pr/oneback(1)_v2.xlsx,New rule: Press 'space' when you see 1-back (i.e. the same letter as the one that appeared 1 letter ago.),p,None,,,,,0,1,1,1,0,4,4,4,,,,,,,,,,,,,,,,,,,,,,,,,,,,,,,,,,,,,,,,,,,1.565,186.6561293,None,188.2224124,None,None,1,,188.2224124,None,190.2220087,None,,,,,,,,,,,,,,,,,,,,,,,,,,,,,,,P028,FENCOG,2,Post,2022_Mar_16_1058,N-Back (New Version 2021),2021.1.4,119.9528346
Conditions/Version_2Pr/oneback(1)_v2.xlsx,New rule: Press 'space' when you see 1-back (i.e. the same letter as the one that appeared 1 letter ago.),P,space,,,,,0,1,1,1,0,5,5,5,,,,,,,,,,,,,,,,,,,,,,,,,,,,,,,,,,,,,,,,,,,1.99,191.7215202,None,193.7132311,None,space,1,0.4538489,193.7132311,None,194.1803025,None,,,,,,,,,,,,,,,,,,,,,,,,,,,,,,,P028,FENCOG,2,Post,2022_Mar_16_1058,N-Back (New Version 2021),2021.1.4,119.9528346
Conditions/Version_2Pr/oneback(1)_v2.xlsx,New rule: Press 'space' when you see 1-back (i.e. the same letter as the one that appeared 1 letter ago.),e,None,,,,,0,1,1,1,0,6,6,6,,,,,,,,,,,,,,,,,,,,,,,,,,,,,,,,,,,,,,,,,,,1.865,195.6870564,None,197.5560615,None,None,1,,197.5560615,None,199.5608812,None,,,,,,,,,,,,,,,,,,,,,,,,,,,,,,,P028,FENCOG,2,Post,2022_Mar_16_1058,N-Back (New Version 2021),2021.1.4,119.9528346
Conditions/Version_2Pr/oneback(1)_v2.xlsx,New rule: Press 'space' when you see 1-back (i.e. the same letter as the one that appeared 1 letter ago.),r,None,,,,,0,1,1,1,0,7,7,7,,,,,,,,,,,,,,,,,,,,,,,,,,,,,,,,,,,,,,,,,,,1.915,201.0604912,None,202.9780989,None,None,1,,202.9780989,None,204.9843802,None,,,,,,,,,,,,,,,,,,,,,,,,,,,,,,,P028,FENCOG,2,Post,2022_Mar_16_1058,N-Back (New Version 2021),2021.1.4,119.9528346
Conditions/Version_2Pr/oneback(1)_v2.xlsx,New rule: Press 'space' when you see 1-back (i.e. the same letter as the one that appeared 1 letter ago.),R,space,,,,,0,1,1,1,0,8,8,8,,,,,,,,,,,,,,,,,,,,,,,,,,,,,,,,,,,,,,,,,,,1.24,206.4837034,None,207.7259262,None,space,1,0.4171319,207.7259262,None,208.1589643,None,,,,,,,,,,,,,,,,,,,,,,,,,,,,,,,P028,FENCOG,2,Post,2022_Mar_16_1058,N-Back (New Version 2021),2021.1.4,119.9528346
Conditions/Version_2Pr/oneback(1)_v2.xlsx,New rule: Press 'space' when you see 1-back (i.e. the same letter as the one that appeared 1 letter ago.),p,None,,,,,0,1,1,1,0,9,9,9,,,,,,,,,,,,,,,,,,,,,,,,,,,,,,,,,,,,,,,,,,,1.84,209.6579219,None,211.4999388,None,None,1,,211.4999388,None,213.5067647,None,,,,,,,,,,,,,,,,,,,,,,,,,,,,,,,P028,FENCOG,2,Post,2022_Mar_16_1058,N-Back (New Version 2021),2021.1.4,119.9528346
Conditions/Version_2Pr/oneback(1)_v2.xlsx,New rule: Press 'space' when you see 1-back (i.e. the same letter as the one that appeared 1 letter ago.),,,,,,,0,1,1,1,,,,,,,,,,,,,,,,,,,,,,,,,,,,,,,,,,,,,,,,,,,,,,,,,,,,,,,,,,,,,,,,,,,,,,,,,,,,,,,,,,,,,,,,,P028,FENCOG,2,Post,2022_Mar_16_1058,N-Back (New Version 2021),2021.1.4,119.9528346
Conditions/Version_2Pr/twoback(1)_v2.xlsx,New rule: Press 'space' when you see 2-back (i.e. the same letter as the one that appeared 2 letters ago.),r,None,,,,,0,2,2,2,0,0,0,0,,,,,,,,,,,,,,,,,,,,,,,,,,,,,,,,,215.0373871,None,218.0240692,None,space,0.3668014,218.0240692,None,215.0373871,None,1.84,218.4130362,None,220.2567297,None,None,1,,220.2567297,None,222.2625086,None,,,,,,,,,,,,,,,,,,,,,,,,,,,,,,,P028,FENCOG,2,Post,2022_Mar_16_1058,N-Back (New Version 2021),2021.1.4,119.9528346
Conditions/Version_2Pr/twoback(1)_v2.xlsx,New rule: Press 'space' when you see 2-back (i.e. the same letter as the one that appeared 2 letters ago.),P,None,,,,,0,2,2,2,0,1,1,1,,,,,,,,,,,,,,,,,,,,,,,,,,,,,,,,,,,,,,,,,,,1.89,223.7621121,None,225.6541613,None,None,1,,225.6541613,None,227.6609778,None,,,,,,,,,,,,,,,,,,,,,,,,,,,,,,,P028,FENCOG,2,Post,2022_Mar_16_1058,N-Back (New Version 2021),2021.1.4,119.9528346
Conditions/Version_2Pr/twoback(1)_v2.xlsx,New rule: Press 'space' when you see 2-back (i.e. the same letter as the one that appeared 2 letters ago.),o,None,,,,,0,2,2,2,0,2,2,2,,,,,,,,,,,,,,,,,,,,,,,,,,,,,,,,,,,,,,,,,,,1.14,229.1605163,None,230.3064602,None,None,1,,230.3064602,None,232.3095497,None,,,,,,,,,,,,,,,,,,,,,,,,,,,,,,,P028,FENCOG,2,Post,2022_Mar_16_1058,N-Back (New Version 2021),2021.1.4,119.9528346
Conditions/Version_2Pr/twoback(1)_v2.xlsx,New rule: Press 'space' when you see 2-back (i.e. the same letter as the one that appeared 2 letters ago.),p,space,,,,,0,2,2,2,0,3,3,3,,,,,,,,,,,,,,,,,,,,,,,,,,,,,,,,,,,,,,,,,,,1.815,233.8091505,None,235.6286525,None,space,1,0.8344969,235.6286525,None,236.4835439,None,,,,,,,,,,,,,,,,,,,,,,,,,,,,,,,P028,FENCOG,2,Post,2022_Mar_16_1058,N-Back (New Version 2021),2021.1.4,119.9528346
Conditions/Version_2Pr/twoback(1)_v2.xlsx,New rule: Press 'space' when you see 2-back (i.e. the same letter as the one that appeared 2 letters ago.),Y,None,,,,,0,2,2,2,0,4,4,4,,,,,,,,,,,,,,,,,,,,,,,,,,,,,,,,,,,,,,,,,,,1.215,237.9828904,None,239.2000688,None,None,1,,239.2000688,None,241.2068431,None,,,,,,,,,,,,,,,,,,,,,,,,,,,,,,,P028,FENCOG,2,Post,2022_Mar_16_1058,N-Back (New Version 2021),2021.1.4,119.9528346
Conditions/Version_2Pr/twoback(1)_v2.xlsx,New rule: Press 'space' when you see 2-back (i.e. the same letter as the one that appeared 2 letters ago.),q,None,,,,,0,2,2,2,0,5,5,5,,,,,,,,,,,,,,,,,,,,,,,,,,,,,,,,,,,,,,,,,,,1.365,242.7065428,None,244.0745261,None,None,1,,244.0745261,None,246.0803599,None,,,,,,,,,,,,,,,,,,,,,,,,,,,,,,,P028,FENCOG,2,Post,2022_Mar_16_1058,N-Back (New Version 2021),2021.1.4,119.9528346
Conditions/Version_2Pr/twoback(1)_v2.xlsx,New rule: Press 'space' when you see 2-back (i.e. the same letter as the one that appeared 2 letters ago.),m,None,,,,,0,2,2,2,0,6,6,6,,,,,,,,,,,,,,,,,,,,,,,,,,,,,,,,,,,,,,,,,,,1.315,247.5800556,None,248.8970703,None,None,1,,248.8970703,None,250.9040504,None,,,,,,,,,,,,,,,,,,,,,,,,,,,,,,,P028,FENCOG,2,Post,2022_Mar_16_1058,N-Back (New Version 2021),2021.1.4,119.9528346
Conditions/Version_2Pr/twoback(1)_v2.xlsx,New rule: Press 'space' when you see 2-back (i.e. the same letter as the one that appeared 2 letters ago.),Q,space,,,,,0,2,2,2,0,7,7,7,,,,,,,,,,,,,,,,,,,,,,,,,,,,,,,,,,,,,,,,,,,1.565,252.4036731,None,253.9729746,None,space,1,1.1778506,253.9729746,None,255.1627797,None,,,,,,,,,,,,,,,,,,,,,,,,,,,,,,,P028,FENCOG,2,Post,2022_Mar_16_1058,N-Back (New Version 2021),2021.1.4,119.9528346
Conditions/Version_2Pr/twoback(1)_v2.xlsx,New rule: Press 'space' when you see 2-back (i.e. the same letter as the one that appeared 2 letters ago.),L,None,,,,,0,2,2,2,0,8,8,8,,,,,,,,,,,,,,,,,,,,,,,,,,,,,,,,,,,,,,,,,,,1.965,256.6688098,None,258.6387394,None,None,1,,258.6387394,None,260.6428694,None,,,,,,,,,,,,,,,,,,,,,,,,,,,,,,,P028,FENCOG,2,Post,2022_Mar_16_1058,N-Back (New Version 2021),2021.1.4,119.9528346
Conditions/Version_2Pr/twoback(1)_v2.xlsx,New rule: Press 'space' when you see 2-back (i.e. the same letter as the one that appeared 2 letters ago.),q,space,,,,,0,2,2,2,0,9,9,9,,,,,,,,,,,,,,,,,,,,,,,,,,,,,,,,,,,,,,,,,,,1.415,262.1424533,None,263.5597163,None,None,0,,263.5597163,None,265.5633931,None,,,,,,,,,,,,,,,,,,,,,,,,,,,,,,,P028,FENCOG,2,Post,2022_Mar_16_1058,N-Back (New Version 2021),2021.1.4,119.9528346
Conditions/Version_2Pr/twoback(1)_v2.xlsx,New rule: Press 'space' when you see 2-back (i.e. the same letter as the one that appeared 2 letters ago.),,,,,,,0,2,2,2,,,,,,,,,,,,,,,,,,,,,,,,,,,,,,,,,,,,,,,,,,,,,,,,,,,,,,,,,,,,,,,,,,,,,,,,,,,,,,,,,,,,,,,,,P028,FENCOG,2,Post,2022_Mar_16_1058,N-Back (New Version 2021),2021.1.4,119.9528346
Conditions/Version_2Pr/threeback(1)_v2.xlsx,New rule: Press 'space' when you see 3-back (i.e. the same letter as the one that appeared 3 letters ago.),u,None,,,,,0,3,3,3,0,0,0,0,,,,,,,,,,,,,,,,,,,,,,,,,,,,,,,,,267.0885875,None,270.0761351,None,space,1.1307673,270.0761351,None,267.0885875,None,1.915,271.2269681,None,273.1495025,None,None,1,,273.1495025,None,275.1561502,None,,,,,,,,,,,,,,,,,,,,,,,,,,,,,,,P028,FENCOG,2,Post,2022_Mar_16_1058,N-Back (New Version 2021),2021.1.4,119.9528346
Conditions/Version_2Pr/threeback(1)_v2.xlsx,New rule: Press 'space' when you see 3-back (i.e. the same letter as the one that appeared 3 letters ago.),U,None,,,,,0,3,3,3,0,1,1,1,,,,,,,,,,,,,,,,,,,,,,,,,,,,,,,,,,,,,,,,,,,1.04,276.654807,None,277.6970634,None,None,1,,277.6970634,None,279.7037958,None,,,,,,,,,,,,,,,,,,,,,,,,,,,,,,,P028,FENCOG,2,Post,2022_Mar_16_1058,N-Back (New Version 2021),2021.1.4,119.9528346
Conditions/Version_2Pr/threeback(1)_v2.xlsx,New rule: Press 'space' when you see 3-back (i.e. the same letter as the one that appeared 3 letters ago.),p,None,,,,,0,3,3,3,0,2,2,2,,,,,,,,,,,,,,,,,,,,,,,,,,,,,,,,,,,,,,,,,,,1.19,281.2034409,None,282.3987432,None,None,1,,282.3987432,None,284.4025288,None,,,,,,,,,,,,,,,,,,,,,,,,,,,,,,,P028,FENCOG,2,Post,2022_Mar_16_1058,N-Back (New Version 2021),2021.1.4,119.9528346
Conditions/Version_2Pr/threeback(1)_v2.xlsx,New rule: Press 'space' when you see 3-back (i.e. the same letter as the one that appeared 3 letters ago.),U,space,,,,,0,3,3,3,0,3,3,3,,,,,,,,,,,,,,,,,,,,,,,,,,,,,,,,,,,,,,,,,,,1.24,285.9020474,None,287.1434393,None,space,1,0.3357577,287.1434393,None,287.5027159,None,,,,,,,,,,,,,,,,,,,,,,,,,,,,,,,P028,FENCOG,2,Post,2022_Mar_16_1058,N-Back (New Version 2021),2021.1.4,119.9528346
Conditions/Version_2Pr/threeback(1)_v2.xlsx,New rule: Press 'space' when you see 3-back (i.e. the same letter as the one that appeared 3 letters ago.),e,None,,,,,0,3,3,3,0,4,4,4,,,,,,,,,,,,,,,,,,,,,,,,,,,,,,,,,,,,,,,,,,,1.365,289.0095083,None,290.3765872,None,None,1,,290.3765872,None,292.3832959,None,,,,,,,,,,,,,,,,,,,,,,,,,,,,,,,P028,FENCOG,2,Post,2022_Mar_16_1058,N-Back (New Version 2021),2021.1.4,119.9528346
Conditions/Version_2Pr/threeback(1)_v2.xlsx,New rule: Press 'space' when you see 3-back (i.e. the same letter as the one that appeared 3 letters ago.),R,None,,,,,0,3,3,3,0,5,5,5,,,,,,,,,,,,,,,,,,,,,,,,,,,,,,,,,,,,,,,,,,,2.015,293.8831073,None,295.9007589,None,None,1,,295.9007589,None,297.9066931,None,,,,,,,,,,,,,,,,,,,,,,,,,,,,,,,P028,FENCOG,2,Post,2022_Mar_16_1058,N-Back (New Version 2021),2021.1.4,119.9528346
Conditions/Version_2Pr/threeback(1)_v2.xlsx,New rule: Press 'space' when you see 3-back (i.e. the same letter as the one that appeared 3 letters ago.),p,None,,,,,0,3,3,3,0,6,6,6,,,,,,,,,,,,,,,,,,,,,,,,,,,,,,,,,,,,,,,,,,,1.765,299.4064776,None,301.1735953,None,space,0,0.3453384,301.1735953,None,301.5350273,None,,,,,,,,,,,,,,,,,,,,,,,,,,,,,,,P028,FENCOG,2,Post,2022_Mar_16_1058,N-Back (New Version 2021),2021.1.4,119.9528346
Conditions/Version_2Pr/threeback(1)_v2.xlsx,New rule: Press 'space' when you see 3-back (i.e. the same letter as the one that appeared 3 letters ago.),E,space,,,,,0,3,3,3,0,7,7,7,,,,,,,,,,,,,,,,,,,,,,,,,,,,,,,,,,,,,,,,,,,1.49,303.0387003,None,304.5322104,None,space,1,1.0508314,304.5322104,None,305.6003477,None,,,,,,,,,,,,,,,,,,,,,,,,,,,,,,,P028,FENCOG,2,Post,2022_Mar_16_1058,N-Back (New Version 2021),2021.1.4,119.9528346
Conditions/Version_2Pr/threeback(1)_v2.xlsx,New rule: Press 'space' when you see 3-back (i.e. the same letter as the one that appeared 3 letters ago.),k,None,,,,,0,3,3,3,0,8,8,8,,,,,,,,,,,,,,,,,,,,,,,,,,,,,,,,,,,,,,,,,,,1.69,307.1038616,None,308.798587,None,None,1,,308.798587,None,310.8030971,None,,,,,,,,,,,,,,,,,,,,,,,,,,,,,,,P028,FENCOG,2,Post,2022_Mar_16_1058,N-Back (New Version 2021),2021.1.4,119.9528346
Conditions/Version_2Pr/threeback(1)_v2.xlsx,New rule: Press 'space' when you see 3-back (i.e. the same letter as the one that appeared 3 letters ago.),m,None,,,,,0,3,3,3,0,9,9,9,,,,,,,,,,,,,,,,,,,,,,,,,,,,,,,,,,,,,,,,,,,1.415,312.3026242,None,313.7207248,None,None,1,,313.7207248,None,315.7265701,None,,,,,,,,,,,,,,,,,,,,,,,,,,,,,,,P028,FENCOG,2,Post,2022_Mar_16_1058,N-Back (New Version 2021),2021.1.4,119.9528346
Conditions/Version_2Pr/threeback(1)_v2.xlsx,New rule: Press 'space' when you see 3-back (i.e. the same letter as the one that appeared 3 letters ago.),,,,,,,0,3,3,3,,,,,,,,,,,,,,,,,,,,,,,,,,,,,,,,,,,,,,,,,,,,,,,,,,,,,,,,,,,,,,,,,,,,,,,,,,,,,,,,,,,,,,,,,P028,FENCOG,2,Post,2022_Mar_16_1058,N-Back (New Version 2021),2021.1.4,119.9528346
,,,,,,,,,,,,,,,,,,,,,,,,,,,,,,,,,,,,,,,,,,,,,,,,,,,,,,,,,,,,,,,,,,,,,,317.2347288,None,space,0.8166249,317.7264002,None,,,,,,,,,,,,,,,,,,,,,,,,,P028,FENCOG,2,Post,2022_Mar_16_1058,N-Back (New Version 2021),2021.1.4,119.9528346
,,,,,,,,,,,,,,,,,,,,,,,,,,,,,,,,,,,,,,,,,,,,,,,,,,,,,,,,,,,,,,,,,,,,,,,,,,,,318.5654292,None,space,1.5395597,319.0595503,None,,,,,,,,,,,,,,,,,,,P028,FENCOG,2,Post,2022_Mar_16_1058,N-Back (New Version 2021),2021.1.4,119.9528346
,,,,Conditions/Version_1/zeroback(1)_v1.xlsx,Rule: Press 'space' when you see the letter 'x' or 'X'.,b,None,,,,,,,,,0,0,0,0,0,0,0,0,,,,,,,,,,,,,,,,,,,,,,,,,,,,,,,,,,,,,,,,,,,,,,,,,,,,,,,,,,,320.701497,None,323.7015619,None,space,0.3693205,323.7015619,None,320.701497,None,1.4068,325.5086922,None,None,1,325.5086922,None,,P028,FENCOG,2,Post,2022_Mar_16_1058,N-Back (New Version 2021),2021.1.4,119.9528346
,,,,Conditions/Version_1/zeroback(1)_v1.xlsx,Rule: Press 'space' when you see the letter 'x' or 'X'.,T,None,,,,,,,,,0,0,0,0,0,1,1,1,,,,,,,,,,,,,,,,,,,,,,,,,,,,,,,,,,,,,,,,,,,,,,,,,,,,,,,,,,,,,,,,,,,,,1.0906,328.6070472,None,None,1,328.6070472,None,,P028,FENCOG,2,Post,2022_Mar_16_1058,N-Back (New Version 2021),2021.1.4,119.9528346
,,,,Conditions/Version_1/zeroback(1)_v1.xlsx,Rule: Press 'space' when you see the letter 'x' or 'X'.,L,None,,,,,,,,,0,0,0,0,0,2,2,2,,,,,,,,,,,,,,,,,,,,,,,,,,,,,,,,,,,,,,,,,,,,,,,,,,,,,,,,,,,,,,,,,,,,,1.6052,332.2226752,None,None,1,332.2226752,None,,P028,FENCOG,2,Post,2022_Mar_16_1058,N-Back (New Version 2021),2021.1.4,119.9528346
,,,,Conditions/Version_1/zeroback(1)_v1.xlsx,Rule: Press 'space' when you see the letter 'x' or 'X'.,x,space,,,,,,,,,0,0,0,0,0,3,3,3,,,,,,,,,,,,,,,,,,,,,,,,,,,,,,,,,,,,,,,,,,,,,,,,,,,,,,,,,,,,,,,,,,,,,1.7726,336.0077735,None,space,1,336.0077735,None,1.9754214,P028,FENCOG,2,Post,2022_Mar_16_1058,N-Back (New Version 2021),2021.1.4,119.9528346
,,,,Conditions/Version_1/zeroback(1)_v1.xlsx,Rule: Press 'space' when you see the letter 'x' or 'X'.,o,None,,,,,,,,,0,0,0,0,0,4,4,4,,,,,,,,,,,,,,,,,,,,,,,,,,,,,,,,,,,,,,,,,,,,,,,,,,,,,,,,,,,,,,,,,,,,,1.5804,339.5945014,None,None,1,339.5945014,None,,P028,FENCOG,2,Post,2022_Mar_16_1058,N-Back (New Version 2021),2021.1.4,119.9528346
,,,,Conditions/Version_1/zeroback(1)_v1.xlsx,Rule: Press 'space' when you see the letter 'x' or 'X'.,P,None,,,,,,,,,0,0,0,0,0,5,5,5,,,,,,,,,,,,,,,,,,,,,,,,,,,,,,,,,,,,,,,,,,,,,,,,,,,,,,,,,,,,,,,,,,,,,1.9028,343.5015721,None,None,1,343.5015721,None,,P028,FENCOG,2,Post,2022_Mar_16_1058,N-Back (New Version 2021),2021.1.4,119.9528346
,,,,Conditions/Version_1/zeroback(1)_v1.xlsx,Rule: Press 'space' when you see the letter 'x' or 'X'.,X,space,,,,,,,,,0,0,0,0,0,6,6,6,,,,,,,,,,,,,,,,,,,,,,,,,,,,,,,,,,,,,,,,,,,,,,,,,,,,,,,,,,,,,,,,,,,,,1.4192,346.9256016,None,space,1,346.9256016,None,0.4252813,P028,FENCOG,2,Post,2022_Mar_16_1058,N-Back (New Version 2021),2021.1.4,119.9528346
,,,,Conditions/Version_1/zeroback(1)_v1.xlsx,Rule: Press 'space' when you see the letter 'x' or 'X'.,n,None,,,,,,,,,0,0,0,0,0,7,7,7,,,,,,,,,,,,,,,,,,,,,,,,,,,,,,,,,,,,,,,,,,,,,,,,,,,,,,,,,,,,,,,,,,,,,1.2208,350.1500372,None,None,1,350.1500372,None,,P028,FENCOG,2,Post,2022_Mar_16_1058,N-Back (New Version 2021),2021.1.4,119.9528346
,,,,Conditions/Version_1/zeroback(1)_v1.xlsx,Rule: Press 'space' when you see the letter 'x' or 'X'.,M,None,,,,,,,,,0,0,0,0,0,8,8,8,,,,,,,,,,,,,,,,,,,,,,,,,,,,,,,,,,,,,,,,,,,,,,,,,,,,,,,,,,,,,,,,,,,,,1.4874,353.6411036,None,None,1,353.6411036,None,,P028,FENCOG,2,Post,2022_Mar_16_1058,N-Back (New Version 2021),2021.1.4,119.9528346
,,,,Conditions/Version_1/zeroback(1)_v1.xlsx,Rule: Press 'space' when you see the letter 'x' or 'X'.,a,None,,,,,,,,,0,0,0,0,0,9,9,9,,,,,,,,,,,,,,,,,,,,,,,,,,,,,,,,,,,,,,,,,,,,,,,,,,,,,,,,,,,,,,,,,,,,,1.6486,357.2995587,None,None,1,357.2995587,None,,P028,FENCOG,2,Post,2022_Mar_16_1058,N-Back (New Version 2021),2021.1.4,119.9528346
,,,,Conditions/Version_1/zeroback(1)_v1.xlsx,Rule: Press 'space' when you see the letter 'x' or 'X'.,,,,,,,,,,,0,0,0,0,,,,,,,,,,,,,,,,,,,,,,,,,,,,,,,,,,,,,,,,,,,,,,,,,,,,,,,,,,,,,,,,,,,,,,,,,,,,,,,,,P028,FENCOG,2,Post,2022_Mar_16_1058,N-Back (New Version 2021),2021.1.4,119.9528346
,,,,Conditions/Version_1/oneback(1)_v1.xlsx,New rule: Press 'space' when you see 1-back (i.e. the same letter as the one that appeared 1 letter ago.),b,None,,,,,,,,,0,1,1,1,0,0,0,0,,,,,,,,,,,,,,,,,,,,,,,,,,,,,,,,,,,,,,,,,,,,,,,,,,,,,,,,,,,359.3270122,None,362.3143437,None,space,0.2846218,362.3143437,None,359.3270122,None,1.5804,364.2049884,None,None,1,364.2049884,None,,P028,FENCOG,2,Post,2022_Mar_16_1058,N-Back (New Version 2021),2021.1.4,119.9528346
,,,,Conditions/Version_1/oneback(1)_v1.xlsx,New rule: Press 'space' when you see 1-back (i.e. the same letter as the one that appeared 1 letter ago.),p,None,,,,,,,,,0,1,1,1,0,1,1,1,,,,,,,,,,,,,,,,,,,,,,,,,,,,,,,,,,,,,,,,,,,,,,,,,,,,,,,,,,,,,,,,,,,,,1.2766,367.494693,None,None,1,367.494693,None,,P028,FENCOG,2,Post,2022_Mar_16_1058,N-Back (New Version 2021),2021.1.4,119.9528346
,,,,Conditions/Version_1/oneback(1)_v1.xlsx,New rule: Press 'space' when you see 1-back (i.e. the same letter as the one that appeared 1 letter ago.),M,None,,,,,,,,,0,1,1,1,0,2,2,2,,,,,,,,,,,,,,,,,,,,,,,,,,,,,,,,,,,,,,,,,,,,,,,,,,,,,,,,,,,,,,,,,,,,,1.0472,370.5462912,None,None,1,370.5462912,None,,P028,FENCOG,2,Post,2022_Mar_16_1058,N-Back (New Version 2021),2021.1.4,119.9528346
,,,,Conditions/Version_1/oneback(1)_v1.xlsx,New rule: Press 'space' when you see 1-back (i.e. the same letter as the one that appeared 1 letter ago.),M,space,,,,,,,,,0,1,1,1,0,3,3,3,,,,,,,,,,,,,,,,,,,,,,,,,,,,,,,,,,,,,,,,,,,,,,,,,,,,,,,,,,,,,,,,,,,,,1.1464,373.7011695,None,space,1,373.7011695,None,0.5616565,P028,FENCOG,2,Post,2022_Mar_16_1058,N-Back (New Version 2021),2021.1.4,119.9528346
,,,,Conditions/Version_1/oneback(1)_v1.xlsx,New rule: Press 'space' when you see 1-back (i.e. the same letter as the one that appeared 1 letter ago.),n,None,,,,,,,,,0,1,1,1,0,4,4,4,,,,,,,,,,,,,,,,,,,,,,,,,,,,,,,,,,,,,,,,,,,,,,,,,,,,,,,,,,,,,,,,,,,,,1.6982,377.4001151,None,None,1,377.4001151,None,,P028,FENCOG,2,Post,2022_Mar_16_1058,N-Back (New Version 2021),2021.1.4,119.9528346
,,,,Conditions/Version_1/oneback(1)_v1.xlsx,New rule: Press 'space' when you see 1-back (i.e. the same letter as the one that appeared 1 letter ago.),g,None,,,,,,,,,0,1,1,1,0,5,5,5,,,,,,,,,,,,,,,,,,,,,,,,,,,,,,,,,,,,,,,,,,,,,,,,,,,,,,,,,,,,,,,,,,,,,1.7974,381.2020276,None,None,1,381.2020276,None,,P028,FENCOG,2,Post,2022_Mar_16_1058,N-Back (New Version 2021),2021.1.4,119.9528346
,,,,Conditions/Version_1/oneback(1)_v1.xlsx,New rule: Press 'space' when you see 1-back (i.e. the same letter as the one that appeared 1 letter ago.),P,None,,,,,,,,,0,1,1,1,0,6,6,6,,,,,,,,,,,,,,,,,,,,,,,,,,,,,,,,,,,,,,,,,,,,,,,,,,,,,,,,,,,,,,,,,,,,,1.1774,384.3895173,None,None,1,384.3895173,None,,P028,FENCOG,2,Post,2022_Mar_16_1058,N-Back (New Version 2021),2021.1.4,119.9528346
,,,,Conditions/Version_1/oneback(1)_v1.xlsx,New rule: Press 'space' when you see 1-back (i.e. the same letter as the one that appeared 1 letter ago.),o,None,,,,,,,,,0,1,1,1,0,7,7,7,,,,,,,,,,,,,,,,,,,,,,,,,,,,,,,,,,,,,,,,,,,,,,,,,,,,,,,,,,,,,,,,,,,,,1.5556,387.9487587,None,None,1,387.9487587,None,,P028,FENCOG,2,Post,2022_Mar_16_1058,N-Back (New Version 2021),2021.1.4,119.9528346
,,,,Conditions/Version_1/oneback(1)_v1.xlsx,New rule: Press 'space' when you see 1-back (i.e. the same letter as the one that appeared 1 letter ago.),f,None,,,,,,,,,0,1,1,1,0,8,8,8,,,,,,,,,,,,,,,,,,,,,,,,,,,,,,,,,,,,,,,,,,,,,,,,,,,,,,,,,,,,,,,,,,,,,1.1216,391.0809329,None,None,1,391.0809329,None,,P028,FENCOG,2,Post,2022_Mar_16_1058,N-Back (New Version 2021),2021.1.4,119.9528346
,,,,Conditions/Version_1/oneback(1)_v1.xlsx,New rule: Press 'space' when you see 1-back (i.e. the same letter as the one that appeared 1 letter ago.),F,space,,,,,,,,,0,1,1,1,0,9,9,9,,,,,,,,,,,,,,,,,,,,,,,,,,,,,,,,,,,,,,,,,,,,,,,,,,,,,,,,,,,,,,,,,,,,,1.7044,394.7959109,None,space,1,394.7959109,None,0.5952793,P028,FENCOG,2,Post,2022_Mar_16_1058,N-Back (New Version 2021),2021.1.4,119.9528346
,,,,Conditions/Version_1/oneback(1)_v1.xlsx,New rule: Press 'space' when you see 1-back (i.e. the same letter as the one that appeared 1 letter ago.),,,,,,,,,,,0,1,1,1,,,,,,,,,,,,,,,,,,,,,,,,,,,,,,,,,,,,,,,,,,,,,,,,,,,,,,,,,,,,,,,,,,,,,,,,,,,,,,,,,P028,FENCOG,2,Post,2022_Mar_16_1058,N-Back (New Version 2021),2021.1.4,119.9528346
,,,,Conditions/Version_1/twoback(1)_v1.xlsx,New rule: Press 'space' when you see 2-back (i.e. the same letter as the one that appeared 2 letters ago.),b,None,,,,,,,,,0,2,2,2,0,0,0,0,,,,,,,,,,,,,,,,,,,,,,,,,,,,,,,,,,,,,,,,,,,,,,,,,,,,,,,,,,,396.8361471,None,399.8207644,None,space,0.3540812,399.8207644,None,396.8361471,None,1.7416,401.9431933,None,None,1,401.9431933,None,,P028,FENCOG,2,Post,2022_Mar_16_1058,N-Back (New Version 2021),2021.1.4,119.9528346
,,,,Conditions/Version_1/twoback(1)_v1.xlsx,New rule: Press 'space' when you see 2-back (i.e. the same letter as the one that appeared 2 letters ago.),h,None,,,,,,,,,0,2,2,2,0,1,1,1,,,,,,,,,,,,,,,,,,,,,,,,,,,,,,,,,,,,,,,,,,,,,,,,,,,,,,,,,,,,,,,,,,,,,1.8842,405.8358211,None,None,1,405.8358211,None,,P028,FENCOG,2,Post,2022_Mar_16_1058,N-Back (New Version 2021),2021.1.4,119.9528346
,,,,Conditions/Version_1/twoback(1)_v1.xlsx,New rule: Press 'space' when you see 2-back (i.e. the same letter as the one that appeared 2 letters ago.),j,None,,,,,,,,,0,2,2,2,0,2,2,2,,,,,,,,,,,,,,,,,,,,,,,,,,,,,,,,,,,,,,,,,,,,,,,,,,,,,,,,,,,,,,,,,,,,,1.5494,409.3919606,None,None,1,409.3919606,None,,P028,FENCOG,2,Post,2022_Mar_16_1058,N-Back (New Version 2021),2021.1.4,119.9528346
,,,,Conditions/Version_1/twoback(1)_v1.xlsx,New rule: Press 'space' when you see 2-back (i.e. the same letter as the one that appeared 2 letters ago.),H,space,,,,,,,,,0,2,2,2,0,3,3,3,,,,,,,,,,,,,,,,,,,,,,,,,,,,,,,,,,,,,,,,,,,,,,,,,,,,,,,,,,,,,,,,,,,,,1.3324,412.7332626,None,space,1,412.7332626,None,1.0737013,P028,FENCOG,2,Post,2022_Mar_16_1058,N-Back (New Version 2021),2021.1.4,119.9528346
,,,,Conditions/Version_1/twoback(1)_v1.xlsx,New rule: Press 'space' when you see 2-back (i.e. the same letter as the one that appeared 2 letters ago.),p,None,,,,,,,,,0,2,2,2,0,4,4,4,,,,,,,,,,,,,,,,,,,,,,,,,,,,,,,,,,,,,,,,,,,,,,,,,,,,,,,,,,,,,,,,,,,,,1.2146,415.9552856,None,None,1,415.9552856,None,,P028,FENCOG,2,Post,2022_Mar_16_1058,N-Back (New Version 2021),2021.1.4,119.9528346
,,,,Conditions/Version_1/twoback(1)_v1.xlsx,New rule: Press 'space' when you see 2-back (i.e. the same letter as the one that appeared 2 letters ago.),p,None,,,,,,,,,0,2,2,2,0,5,5,5,,,,,,,,,,,,,,,,,,,,,,,,,,,,,,,,,,,,,,,,,,,,,,,,,,,,,,,,,,,,,,,,,,,,,1.351,419.312876,None,None,1,419.312876,None,,P028,FENCOG,2,Post,2022_Mar_16_1058,N-Back (New Version 2021),2021.1.4,119.9528346
,,,,Conditions/Version_1/twoback(1)_v1.xlsx,New rule: Press 'space' when you see 2-back (i.e. the same letter as the one that appeared 2 letters ago.),w,None,,,,,,,,,0,2,2,2,0,6,6,6,,,,,,,,,,,,,,,,,,,,,,,,,,,,,,,,,,,,,,,,,,,,,,,,,,,,,,,,,,,,,,,,,,,,,1.661,422.9865559,None,None,1,422.9865559,None,,P028,FENCOG,2,Post,2022_Mar_16_1058,N-Back (New Version 2021),2021.1.4,119.9528346
,,,,Conditions/Version_1/twoback(1)_v1.xlsx,New rule: Press 'space' when you see 2-back (i.e. the same letter as the one that appeared 2 letters ago.),R,None,,,,,,,,,0,2,2,2,0,7,7,7,,,,,,,,,,,,,,,,,,,,,,,,,,,,,,,,,,,,,,,,,,,,,,,,,,,,,,,,,,,,,,,,,,,,,1.9524,426.9438419,None,None,1,426.9438419,None,,P028,FENCOG,2,Post,2022_Mar_16_1058,N-Back (New Version 2021),2021.1.4,119.9528346
,,,,Conditions/Version_1/twoback(1)_v1.xlsx,New rule: Press 'space' when you see 2-back (i.e. the same letter as the one that appeared 2 letters ago.),a,None,,,,,,,,,0,2,2,2,0,8,8,8,,,,,,,,,,,,,,,,,,,,,,,,,,,,,,,,,,,,,,,,,,,,,,,,,,,,,,,,,,,,,,,,,,,,,1.4254,430.3684601,None,None,1,430.3684601,None,,P028,FENCOG,2,Post,2022_Mar_16_1058,N-Back (New Version 2021),2021.1.4,119.9528346
,,,,Conditions/Version_1/twoback(1)_v1.xlsx,New rule: Press 'space' when you see 2-back (i.e. the same letter as the one that appeared 2 letters ago.),r,space,,,,,,,,,0,2,2,2,0,9,9,9,,,,,,,,,,,,,,,,,,,,,,,,,,,,,,,,,,,,,,,,,,,,,,,,,,,,,,,,,,,,,,,,,,,,,1.7292,434.1123182,None,space,1,434.1123182,None,0.4866548,P028,FENCOG,2,Post,2022_Mar_16_1058,N-Back (New Version 2021),2021.1.4,119.9528346
,,,,Conditions/Version_1/twoback(1)_v1.xlsx,New rule: Press 'space' when you see 2-back (i.e. the same letter as the one that appeared 2 letters ago.),,,,,,,,,,,0,2,2,2,,,,,,,,,,,,,,,,,,,,,,,,,,,,,,,,,,,,,,,,,,,,,,,,,,,,,,,,,,,,,,,,,,,,,,,,,,,,,,,,,P028,FENCOG,2,Post,2022_Mar_16_1058,N-Back (New Version 2021),2021.1.4,119.9528346
,,,,Conditions/Version_1/threeback(1)_v1.xlsx,New rule: Press 'space' when you see 3-back (i.e. the same letter as the one that appeared 3 letters ago.),r,None,,,,,,,,,0,3,3,3,0,0,0,0,,,,,,,,,,,,,,,,,,,,,,,,,,,,,,,,,,,,,,,,,,,,,,,,,,,,,,,,,,,436.1380392,None,439.1258623,None,space,0.313009,439.1258623,None,436.1380392,None,1.4874,440.9561694,None,None,1,440.9561694,None,,P028,FENCOG,2,Post,2022_Mar_16_1058,N-Back (New Version 2021),2021.1.4,119.9528346
,,,,Conditions/Version_1/threeback(1)_v1.xlsx,New rule: Press 'space' when you see 3-back (i.e. the same letter as the one that appeared 3 letters ago.),o,None,,,,,,,,,0,3,3,3,0,1,1,1,,,,,,,,,,,,,,,,,,,,,,,,,,,,,,,,,,,,,,,,,,,,,,,,,,,,,,,,,,,,,,,,,,,,,1.4812,444.4387042,None,None,1,444.4387042,None,,P028,FENCOG,2,Post,2022_Mar_16_1058,N-Back (New Version 2021),2021.1.4,119.9528346
,,,,Conditions/Version_1/threeback(1)_v1.xlsx,New rule: Press 'space' when you see 3-back (i.e. the same letter as the one that appeared 3 letters ago.),P,None,,,,,,,,,0,3,3,3,0,2,2,2,,,,,,,,,,,,,,,,,,,,,,,,,,,,,,,,,,,,,,,,,,,,,,,,,,,,,,,,,,,,,,,,,,,,,1.9834,448.4292876,None,None,1,448.4292876,None,,P028,FENCOG,2,Post,2022_Mar_16_1058,N-Back (New Version 2021),2021.1.4,119.9528346
,,,,Conditions/Version_1/threeback(1)_v1.xlsx,New rule: Press 'space' when you see 3-back (i.e. the same letter as the one that appeared 3 letters ago.),R,space,,,,,,,,,0,3,3,3,0,3,3,3,,,,,,,,,,,,,,,,,,,,,,,,,,,,,,,,,,,,,,,,,,,,,,,,,,,,,,,,,,,,,,,,,,,,,1.1526,451.5898997,None,space,1,451.5898997,None,0.4011565,P028,FENCOG,2,Post,2022_Mar_16_1058,N-Back (New Version 2021),2021.1.4,119.9528346
,,,,Conditions/Version_1/threeback(1)_v1.xlsx,New rule: Press 'space' when you see 3-back (i.e. the same letter as the one that appeared 3 letters ago.),p,None,,,,,,,,,0,3,3,3,0,4,4,4,,,,,,,,,,,,,,,,,,,,,,,,,,,,,,,,,,,,,,,,,,,,,,,,,,,,,,,,,,,,,,,,,,,,,1.2828,454.8771068,None,None,1,454.8771068,None,,P028,FENCOG,2,Post,2022_Mar_16_1058,N-Back (New Version 2021),2021.1.4,119.9528346
,,,,Conditions/Version_1/threeback(1)_v1.xlsx,New rule: Press 'space' when you see 3-back (i.e. the same letter as the one that appeared 3 letters ago.),E,None,,,,,,,,,0,3,3,3,0,5,5,5,,,,,,,,,,,,,,,,,,,,,,,,,,,,,,,,,,,,,,,,,,,,,,,,,,,,,,,,,,,,,,,,,,,,,1.4688,458.3511771,None,None,1,458.3511771,None,,P028,FENCOG,2,Post,2022_Mar_16_1058,N-Back (New Version 2021),2021.1.4,119.9528346
,,,,Conditions/Version_1/threeback(1)_v1.xlsx,New rule: Press 'space' when you see 3-back (i.e. the same letter as the one that appeared 3 letters ago.),e,None,,,,,,,,,0,3,3,3,0,6,6,6,,,,,,,,,,,,,,,,,,,,,,,,,,,,,,,,,,,,,,,,,,,,,,,,,,,,,,,,,,,,,,,,,,,,,1.3882,461.7460676,None,None,1,461.7460676,None,,P028,FENCOG,2,Post,2022_Mar_16_1058,N-Back (New Version 2021),2021.1.4,119.9528346
,,,,Conditions/Version_1/threeback(1)_v1.xlsx,New rule: Press 'space' when you see 3-back (i.e. the same letter as the one that appeared 3 letters ago.),m,None,,,,,,,,,0,3,3,3,0,7,7,7,,,,,,,,,,,,,,,,,,,,,,,,,,,,,,,,,,,,,,,,,,,,,,,,,,,,,,,,,,,,,,,,,,,,,1.8842,465.6410486,None,None,1,465.6410486,None,,P028,FENCOG,2,Post,2022_Mar_16_1058,N-Back (New Version 2021),2021.1.4,119.9528346
,,,,Conditions/Version_1/threeback(1)_v1.xlsx,New rule: Press 'space' when you see 3-back (i.e. the same letter as the one that appeared 3 letters ago.),n,None,,,,,,,,,0,3,3,3,0,8,8,8,,,,,,,,,,,,,,,,,,,,,,,,,,,,,,,,,,,,,,,,,,,,,,,,,,,,,,,,,,,,,,,,,,,,,1.2146,468.8572858,None,None,1,468.8572858,None,,P028,FENCOG,2,Post,2022_Mar_16_1058,N-Back (New Version 2021),2021.1.4,119.9528346
,,,,Conditions/Version_1/threeback(1)_v1.xlsx,New rule: Press 'space' when you see 3-back (i.e. the same letter as the one that appeared 3 letters ago.),e,space,,,,,,,,,0,3,3,3,0,9,9,9,,,,,,,,,,,,,,,,,,,,,,,,,,,,,,,,,,,,,,,,,,,,,,,,,,,,,,,,,,,,,,,,,,,,,1.2952,472.1636063,None,space,1,472.1636063,None,0.7634795,P028,FENCOG,2,Post,2022_Mar_16_1058,N-Back (New Version 2021),2021.1.4,119.9528346
,,,,Conditions/Version_1/threeback(1)_v1.xlsx,New rule: Press 'space' when you see 3-back (i.e. the same letter as the one that appeared 3 letters ago.),,,,,,,,,,,0,3,3,3,,,,,,,,,,,,,,,,,,,,,,,,,,,,,,,,,,,,,,,,,,,,,,,,,,,,,,,,,,,,,,,,,,,,,,,,,,,,,,,,,P028,FENCOG,2,Post,2022_Mar_16_1058,N-Back (New Version 2021),2021.1.4,119.9528346
,,,,Conditions/Version_1/oneback(2)_v1.xlsx,New rule: Press 'space' when you see 1-back (i.e. the same letter as the one that appeared 1 letter ago.),q,None,,,,,,,,,0,4,4,4,0,0,0,0,,,,,,,,,,,,,,,,,,,,,,,,,,,,,,,,,,,,,,,,,,,,,,,,,,,,,,,,,,,474.1891366,None,477.1728335,None,space,0.3459302,477.1728335,None,474.1891366,None,1.4378,478.978868,None,None,1,478.978868,None,,P028,FENCOG,2,Post,2022_Mar_16_1058,N-Back (New Version 2021),2021.1.4,119.9528346
,,,,Conditions/Version_1/oneback(2)_v1.xlsx,New rule: Press 'space' when you see 1-back (i.e. the same letter as the one that appeared 1 letter ago.),Q,space,,,,,,,,,0,4,4,4,0,1,1,1,,,,,,,,,,,,,,,,,,,,,,,,,,,,,,,,,,,,,,,,,,,,,,,,,,,,,,,,,,,,,,,,,,,,,1.6052,482.5857282,None,space,1,482.5857282,None,0.5571465,P028,FENCOG,2,Post,2022_Mar_16_1058,N-Back (New Version 2021),2021.1.4,119.9528346
,,,,Conditions/Version_1/oneback(2)_v1.xlsx,New rule: Press 'space' when you see 1-back (i.e. the same letter as the one that appeared 1 letter ago.),P,None,,,,,,,,,0,4,4,4,0,2,2,2,,,,,,,,,,,,,,,,,,,,,,,,,,,,,,,,,,,,,,,,,,,,,,,,,,,,,,,,,,,,,,,,,,,,,1.692,486.2761192,None,None,1,486.2761192,None,,P028,FENCOG,2,Post,2022_Mar_16_1058,N-Back (New Version 2021),2021.1.4,119.9528346
,,,,Conditions/Version_1/oneback(2)_v1.xlsx,New rule: Press 'space' when you see 1-back (i.e. the same letter as the one that appeared 1 letter ago.),o,None,,,,,,,,,0,4,4,4,0,3,3,3,,,,,,,,,,,,,,,,,,,,,,,,,,,,,,,,,,,,,,,,,,,,,,,,,,,,,,,,,,,,,,,,,,,,,1.01,489.2919176,None,None,1,489.2919176,None,,P028,FENCOG,2,Post,2022_Mar_16_1058,N-Back (New Version 2021),2021.1.4,119.9528346
,,,,Conditions/Version_1/oneback(2)_v1.xlsx,New rule: Press 'space' when you see 1-back (i.e. the same letter as the one that appeared 1 letter ago.),m,None,,,,,,,,,0,4,4,4,0,4,4,4,,,,,,,,,,,,,,,,,,,,,,,,,,,,,,,,,,,,,,,,,,,,,,,,,,,,,,,,,,,,,,,,,,,,,1.94,493.2351503,None,None,1,493.2351503,None,,P028,FENCOG,2,Post,2022_Mar_16_1058,N-Back (New Version 2021),2021.1.4,119.9528346
,,,,Conditions/Version_1/oneback(2)_v1.xlsx,New rule: Press 'space' when you see 1-back (i.e. the same letter as the one that appeared 1 letter ago.),Z,None,,,,,,,,,0,4,4,4,0,5,5,5,,,,,,,,,,,,,,,,,,,,,,,,,,,,,,,,,,,,,,,,,,,,,,,,,,,,,,,,,,,,,,,,,,,,,1.4812,496.7264187,None,None,1,496.7264187,None,,P028,FENCOG,2,Post,2022_Mar_16_1058,N-Back (New Version 2021),2021.1.4,119.9528346
,,,,Conditions/Version_1/oneback(2)_v1.xlsx,New rule: Press 'space' when you see 1-back (i.e. the same letter as the one that appeared 1 letter ago.),c,None,,,,,,,,,0,4,4,4,0,6,6,6,,,,,,,,,,,,,,,,,,,,,,,,,,,,,,,,,,,,,,,,,,,,,,,,,,,,,,,,,,,,,,,,,,,,,1.8718,500.6062276,None,None,1,500.6062276,None,,P028,FENCOG,2,Post,2022_Mar_16_1058,N-Back (New Version 2021),2021.1.4,119.9528346
,,,,Conditions/Version_1/oneback(2)_v1.xlsx,New rule: Press 'space' when you see 1-back (i.e. the same letter as the one that appeared 1 letter ago.),c,space,,,,,,,,,0,4,4,4,0,7,7,7,,,,,,,,,,,,,,,,,,,,,,,,,,,,,,,,,,,,,,,,,,,,,,,,,,,,,,,,,,,,,,,,,,,,,1.5556,504.1720355,None,space,1,504.1720355,None,0.563036,P028,FENCOG,2,Post,2022_Mar_16_1058,N-Back (New Version 2021),2021.1.4,119.9528346
,,,,Conditions/Version_1/oneback(2)_v1.xlsx,New rule: Press 'space' when you see 1-back (i.e. the same letter as the one that appeared 1 letter ago.),P,None,,,,,,,,,0,4,4,4,0,8,8,8,,,,,,,,,,,,,,,,,,,,,,,,,,,,,,,,,,,,,,,,,,,,,,,,,,,,,,,,,,,,,,,,,,,,,1.475,507.6531915,None,None,1,507.6531915,None,,P028,FENCOG,2,Post,2022_Mar_16_1058,N-Back (New Version 2021),2021.1.4,119.9528346
,,,,Conditions/Version_1/oneback(2)_v1.xlsx,New rule: Press 'space' when you see 1-back (i.e. the same letter as the one that appeared 1 letter ago.),p,space,,,,,,,,,0,4,4,4,0,9,9,9,,,,,,,,,,,,,,,,,,,,,,,,,,,,,,,,,,,,,,,,,,,,,,,,,,,,,,,,,,,,,,,,,,,,,1.7912,511.4435028,None,space,1,511.4435028,None,0.6431884,P028,FENCOG,2,Post,2022_Mar_16_1058,N-Back (New Version 2021),2021.1.4,119.9528346
,,,,Conditions/Version_1/oneback(2)_v1.xlsx,New rule: Press 'space' when you see 1-back (i.e. the same letter as the one that appeared 1 letter ago.),,,,,,,,,,,0,4,4,4,,,,,,,,,,,,,,,,,,,,,,,,,,,,,,,,,,,,,,,,,,,,,,,,,,,,,,,,,,,,,,,,,,,,,,,,,,,,,,,,,P028,FENCOG,2,Post,2022_Mar_16_1058,N-Back (New Version 2021),2021.1.4,119.9528346
,,,,Conditions/Version_1/zeroback(2)_v1.xlsx,New rule: Press 'space' when you see the letter 'x' or 'X'.,p,None,,,,,,,,,0,5,5,5,0,0,0,0,,,,,,,,,,,,,,,,,,,,,,,,,,,,,,,,,,,,,,,,,,,,,,,,,,,,,,,,,,,513.4623508,None,516.4434979,None,space,0.4592679,516.4434979,None,513.4623508,None,1.0286,517.9584637,None,None,1,517.9584637,None,,P028,FENCOG,2,Post,2022_Mar_16_1058,N-Back (New Version 2021),2021.1.4,119.9528346
,,,,Conditions/Version_1/zeroback(2)_v1.xlsx,New rule: Press 'space' when you see the letter 'x' or 'X'.,L,None,,,,,,,,,0,5,5,5,0,1,1,1,,,,,,,,,,,,,,,,,,,,,,,,,,,,,,,,,,,,,,,,,,,,,,,,,,,,,,,,,,,,,,,,,,,,,1.5866,521.549254,None,None,1,521.549254,None,,P028,FENCOG,2,Post,2022_Mar_16_1058,N-Back (New Version 2021),2021.1.4,119.9528346
,,,,Conditions/Version_1/zeroback(2)_v1.xlsx,New rule: Press 'space' when you see the letter 'x' or 'X'.,G,None,,,,,,,,,0,5,5,5,0,2,2,2,,,,,,,,,,,,,,,,,,,,,,,,,,,,,,,,,,,,,,,,,,,,,,,,,,,,,,,,,,,,,,,,,,,,,1.351,524.8998805,None,None,1,524.8998805,None,,P028,FENCOG,2,Post,2022_Mar_16_1058,N-Back (New Version 2021),2021.1.4,119.9528346
,,,,Conditions/Version_1/zeroback(2)_v1.xlsx,New rule: Press 'space' when you see the letter 'x' or 'X'.,y,None,,,,,,,,,0,5,5,5,0,3,3,3,,,,,,,,,,,,,,,,,,,,,,,,,,,,,,,,,,,,,,,,,,,,,,,,,,,,,,,,,,,,,,,,,,,,,1.4502,528.3566047,None,None,1,528.3566047,None,,P028,FENCOG,2,Post,2022_Mar_16_1058,N-Back (New Version 2021),2021.1.4,119.9528346
,,,,Conditions/Version_1/zeroback(2)_v1.xlsx,New rule: Press 'space' when you see the letter 'x' or 'X'.,Y,None,,,,,,,,,0,5,5,5,0,4,4,4,,,,,,,,,,,,,,,,,,,,,,,,,,,,,,,,,,,,,,,,,,,,,,,,,,,,,,,,,,,,,,,,,,,,,1.3014,531.6627811,None,None,1,531.6627811,None,,P028,FENCOG,2,Post,2022_Mar_16_1058,N-Back (New Version 2021),2021.1.4,119.9528346
,,,,Conditions/Version_1/zeroback(2)_v1.xlsx,New rule: Press 'space' when you see the letter 'x' or 'X'.,W,None,,,,,,,,,0,5,5,5,0,5,5,5,,,,,,,,,,,,,,,,,,,,,,,,,,,,,,,,,,,,,,,,,,,,,,,,,,,,,,,,,,,,,,,,,,,,,1.909,535.581225,None,None,1,535.581225,None,,P028,FENCOG,2,Post,2022_Mar_16_1058,N-Back (New Version 2021),2021.1.4,119.9528346
,,,,Conditions/Version_1/zeroback(2)_v1.xlsx,New rule: Press 'space' when you see the letter 'x' or 'X'.,x,space,,,,,,,,,0,5,5,5,0,6,6,6,,,,,,,,,,,,,,,,,,,,,,,,,,,,,,,,,,,,,,,,,,,,,,,,,,,,,,,,,,,,,,,,,,,,,1.6796,539.2707683,None,space,1,539.2707683,None,1.4319243,P028,FENCOG,2,Post,2022_Mar_16_1058,N-Back (New Version 2021),2021.1.4,119.9528346
,,,,Conditions/Version_1/zeroback(2)_v1.xlsx,New rule: Press 'space' when you see the letter 'x' or 'X'.,X,space,,,,,,,,,0,5,5,5,0,7,7,7,,,,,,,,,,,,,,,,,,,,,,,,,,,,,,,,,,,,,,,,,,,,,,,,,,,,,,,,,,,,,,,,,,,,,1.6858,542.9689376,None,space,1,542.9689376,None,0.8057808,P028,FENCOG,2,Post,2022_Mar_16_1058,N-Back (New Version 2021),2021.1.4,119.9528346
,,,,Conditions/Version_1/zeroback(2)_v1.xlsx,New rule: Press 'space' when you see the letter 'x' or 'X'.,p,None,,,,,,,,,0,5,5,5,0,8,8,8,,,,,,,,,,,,,,,,,,,,,,,,,,,,,,,,,,,,,,,,,,,,,,,,,,,,,,,,,,,,,,,,,,,,,1.196,546.1751935,None,None,1,546.1751935,None,,P028,FENCOG,2,Post,2022_Mar_16_1058,N-Back (New Version 2021),2021.1.4,119.9528346
,,,,Conditions/Version_1/zeroback(2)_v1.xlsx,New rule: Press 'space' when you see the letter 'x' or 'X'.,h,None,,,,,,,,,0,5,5,5,0,9,9,9,,,,,,,,,,,,,,,,,,,,,,,,,,,,,,,,,,,,,,,,,,,,,,,,,,,,,,,,,,,,,,,,,,,,,1.5618,549.7416192,None,None,1,549.7416192,None,,P028,FENCOG,2,Post,2022_Mar_16_1058,N-Back (New Version 2021),2021.1.4,119.9528346
,,,,Conditions/Version_1/zeroback(2)_v1.xlsx,New rule: Press 'space' when you see the letter 'x' or 'X'.,,,,,,,,,,,0,5,5,5,,,,,,,,,,,,,,,,,,,,,,,,,,,,,,,,,,,,,,,,,,,,,,,,,,,,,,,,,,,,,,,,,,,,,,,,,,,,,,,,,P028,FENCOG,2,Post,2022_Mar_16_1058,N-Back (New Version 2021),2021.1.4,119.9528346
,,,,Conditions/Version_1/threeback(2)_v1.xlsx,New rule: Press 'space' when you see 3-back (i.e. the same letter as the one that appeared 3 letters ago.),q,None,,,,,,,,,0,6,6,6,0,0,0,0,,,,,,,,,,,,,,,,,,,,,,,,,,,,,,,,,,,,,,,,,,,,,,,,,,,,,,,,,,,551.769661,None,554.7583588,None,space,0.2644121,554.7583588,None,551.769661,None,1.1402,556.1915478,None,None,1,556.1915478,None,,P028,FENCOG,2,Post,2022_Mar_16_1058,N-Back (New Version 2021),2021.1.4,119.9528346
,,,,Conditions/Version_1/threeback(2)_v1.xlsx,New rule: Press 'space' when you see 3-back (i.e. the same letter as the one that appeared 3 letters ago.),Y,None,,,,,,,,,0,6,6,6,0,1,1,1,,,,,,,,,,,,,,,,,,,,,,,,,,,,,,,,,,,,,,,,,,,,,,,,,,,,,,,,,,,,,,,,,,,,,1.785,559.9877409,None,None,1,559.9877409,None,,P028,FENCOG,2,Post,2022_Mar_16_1058,N-Back (New Version 2021),2021.1.4,119.9528346
,,,,Conditions/Version_1/threeback(2)_v1.xlsx,New rule: Press 'space' when you see 3-back (i.e. the same letter as the one that appeared 3 letters ago.),p,None,,,,,,,,,0,6,6,6,0,2,2,2,,,,,,,,,,,,,,,,,,,,,,,,,,,,,,,,,,,,,,,,,,,,,,,,,,,,,,,,,,,,,,,,,,,,,1.2642,563.2580932,None,None,1,563.2580932,None,,P028,FENCOG,2,Post,2022_Mar_16_1058,N-Back (New Version 2021),2021.1.4,119.9528346
,,,,Conditions/Version_1/threeback(2)_v1.xlsx,New rule: Press 'space' when you see 3-back (i.e. the same letter as the one that appeared 3 letters ago.),p,None,,,,,,,,,0,6,6,6,0,3,3,3,,,,,,,,,,,,,,,,,,,,,,,,,,,,,,,,,,,,,,,,,,,,,,,,,,,,,,,,,,,,,,,,,,,,,1.3758,566.6443075,None,None,1,566.6443075,None,,P028,FENCOG,2,Post,2022_Mar_16_1058,N-Back (New Version 2021),2021.1.4,119.9528346
,,,,Conditions/Version_1/threeback(2)_v1.xlsx,New rule: Press 'space' when you see 3-back (i.e. the same letter as the one that appeared 3 letters ago.),y,space,,,,,,,,,0,6,6,6,0,4,4,4,,,,,,,,,,,,,,,,,,,,,,,,,,,,,,,,,,,,,,,,,,,,,,,,,,,,,,,,,,,,,,,,,,,,,1.7106,570.3595633,None,space,1,570.3595633,None,1.3593649,P028,FENCOG,2,Post,2022_Mar_16_1058,N-Back (New Version 2021),2021.1.4,119.9528346
,,,,Conditions/Version_1/threeback(2)_v1.xlsx,New rule: Press 'space' when you see 3-back (i.e. the same letter as the one that appeared 3 letters ago.),u,None,,,,,,,,,0,6,6,6,0,5,5,5,,,,,,,,,,,,,,,,,,,,,,,,,,,,,,,,,,,,,,,,,,,,,,,,,,,,,,,,,,,,,,,,,,,,,1.9214,574.2834875,None,None,1,574.2834875,None,,P028,FENCOG,2,Post,2022_Mar_16_1058,N-Back (New Version 2021),2021.1.4,119.9528346
,,,,Conditions/Version_1/threeback(2)_v1.xlsx,New rule: Press 'space' when you see 3-back (i.e. the same letter as the one that appeared 3 letters ago.),P,space,,,,,,,,,0,6,6,6,0,6,6,6,,,,,,,,,,,,,,,,,,,,,,,,,,,,,,,,,,,,,,,,,,,,,,,,,,,,,,,,,,,,,,,,,,,,,1.4626,577.7491837,None,None,0,577.7491837,None,,P028,FENCOG,2,Post,2022_Mar_16_1058,N-Back (New Version 2021),2021.1.4,119.9528346
,,,,Conditions/Version_1/threeback(2)_v1.xlsx,New rule: Press 'space' when you see 3-back (i.e. the same letter as the one that appeared 3 letters ago.),a,None,,,,,,,,,0,6,6,6,0,7,7,7,,,,,,,,,,,,,,,,,,,,,,,,,,,,,,,,,,,,,,,,,,,,,,,,,,,,,,,,,,,,,,,,,,,,,1.1216,580.8742419,None,None,1,580.8742419,None,,P028,FENCOG,2,Post,2022_Mar_16_1058,N-Back (New Version 2021),2021.1.4,119.9528346
,,,,Conditions/Version_1/threeback(2)_v1.xlsx,New rule: Press 'space' when you see 3-back (i.e. the same letter as the one that appeared 3 letters ago.),U,space,,,,,,,,,0,6,6,6,0,8,8,8,,,,,,,,,,,,,,,,,,,,,,,,,,,,,,,,,,,,,,,,,,,,,,,,,,,,,,,,,,,,,,,,,,,,,1.0534,583.9392045,None,space,1,583.9392045,None,0.5557938,P028,FENCOG,2,Post,2022_Mar_16_1058,N-Back (New Version 2021),2021.1.4,119.9528346
,,,,Conditions/Version_1/threeback(2)_v1.xlsx,New rule: Press 'space' when you see 3-back (i.e. the same letter as the one that appeared 3 letters ago.),q,None,,,,,,,,,0,6,6,6,0,9,9,9,,,,,,,,,,,,,,,,,,,,,,,,,,,,,,,,,,,,,,,,,,,,,,,,,,,,,,,,,,,,,,,,,,,,,1.2022,587.1464614,None,None,1,587.1464614,None,,P028,FENCOG,2,Post,2022_Mar_16_1058,N-Back (New Version 2021),2021.1.4,119.9528346
,,,,Conditions/Version_1/threeback(2)_v1.xlsx,New rule: Press 'space' when you see 3-back (i.e. the same letter as the one that appeared 3 letters ago.),,,,,,,,,,,0,6,6,6,,,,,,,,,,,,,,,,,,,,,,,,,,,,,,,,,,,,,,,,,,,,,,,,,,,,,,,,,,,,,,,,,,,,,,,,,,,,,,,,,P028,FENCOG,2,Post,2022_Mar_16_1058,N-Back (New Version 2021),2021.1.4,119.9528346
,,,,Conditions/Version_1/twoback(2)_v1.xlsx,New rule: Press 'space' when you see 2-back (i.e. the same letter as the one that appeared 2 letters ago.),q,None,,,,,,,,,0,7,7,7,0,0,0,0,,,,,,,,,,,,,,,,,,,,,,,,,,,,,,,,,,,,,,,,,,,,,,,,,,,,,,,,,,,589.1711695,None,592.1553832,None,space,0.315632,592.1553832,None,589.1711695,None,1.4068,593.9029694,None,None,1,593.9029694,None,,P028,FENCOG,2,Post,2022_Mar_16_1058,N-Back (New Version 2021),2021.1.4,119.9528346
,,,,Conditions/Version_1/twoback(2)_v1.xlsx,New rule: Press 'space' when you see 2-back (i.e. the same letter as the one that appeared 2 letters ago.),r,None,,,,,,,,,0,7,7,7,0,1,1,1,,,,,,,,,,,,,,,,,,,,,,,,,,,,,,,,,,,,,,,,,,,,,,,,,,,,,,,,,,,,,,,,,,,,,1.7416,597.6445686,None,None,1,597.6445686,None,,P028,FENCOG,2,Post,2022_Mar_16_1058,N-Back (New Version 2021),2021.1.4,119.9528346
,,,,Conditions/Version_1/twoback(2)_v1.xlsx,New rule: Press 'space' when you see 2-back (i.e. the same letter as the one that appeared 2 letters ago.),q,space,,,,,,,,,0,7,7,7,0,2,2,2,,,,,,,,,,,,,,,,,,,,,,,,,,,,,,,,,,,,,,,,,,,,,,,,,,,,,,,,,,,,,,,,,,,,,1.4936,601.1538052,None,space,1,601.1538052,None,1.0772678,P028,FENCOG,2,Post,2022_Mar_16_1058,N-Back (New Version 2021),2021.1.4,119.9528346
,,,,Conditions/Version_1/twoback(2)_v1.xlsx,New rule: Press 'space' when you see 2-back (i.e. the same letter as the one that appeared 2 letters ago.),P,None,,,,,,,,,0,7,7,7,0,3,3,3,,,,,,,,,,,,,,,,,,,,,,,,,,,,,,,,,,,,,,,,,,,,,,,,,,,,,,,,,,,,,,,,,,,,,1.227,604.3910975,None,None,1,604.3910975,None,,P028,FENCOG,2,Post,2022_Mar_16_1058,N-Back (New Version 2021),2021.1.4,119.9528346
,,,,Conditions/Version_1/twoback(2)_v1.xlsx,New rule: Press 'space' when you see 2-back (i.e. the same letter as the one that appeared 2 letters ago.),p,None,,,,,,,,,0,7,7,7,0,4,4,4,,,,,,,,,,,,,,,,,,,,,,,,,,,,,,,,,,,,,,,,,,,,,,,,,,,,,,,,,,,,,,,,,,,,,1.4378,607.8346824,None,None,1,607.8346824,None,,P028,FENCOG,2,Post,2022_Mar_16_1058,N-Back (New Version 2021),2021.1.4,119.9528346
,,,,Conditions/Version_1/twoback(2)_v1.xlsx,New rule: Press 'space' when you see 2-back (i.e. the same letter as the one that appeared 2 letters ago.),H,None,,,,,,,,,0,7,7,7,0,5,5,5,,,,,,,,,,,,,,,,,,,,,,,,,,,,,,,,,,,,,,,,,,,,,,,,,,,,,,,,,,,,,,,,,,,,,1.3076,611.1484371,None,None,1,611.1484371,None,,P028,FENCOG,2,Post,2022_Mar_16_1058,N-Back (New Version 2021),2021.1.4,119.9528346
,,,,Conditions/Version_1/twoback(2)_v1.xlsx,New rule: Press 'space' when you see 2-back (i.e. the same letter as the one that appeared 2 letters ago.),g,None,,,,,,,,,0,7,7,7,0,6,6,6,,,,,,,,,,,,,,,,,,,,,,,,,,,,,,,,,,,,,,,,,,,,,,,,,,,,,,,,,,,,,,,,,,,,,1.01,614.1725724,None,None,1,614.1725724,None,,P028,FENCOG,2,Post,2022_Mar_16_1058,N-Back (New Version 2021),2021.1.4,119.9528346
,,,,Conditions/Version_1/twoback(2)_v1.xlsx,New rule: Press 'space' when you see 2-back (i.e. the same letter as the one that appeared 2 letters ago.),j,None,,,,,,,,,0,7,7,7,0,7,7,7,,,,,,,,,,,,,,,,,,,,,,,,,,,,,,,,,,,,,,,,,,,,,,,,,,,,,,,,,,,,,,,,,,,,,1.444,617.630138,None,None,1,617.630138,None,,P028,FENCOG,2,Post,2022_Mar_16_1058,N-Back (New Version 2021),2021.1.4,119.9528346
,,,,Conditions/Version_1/twoback(2)_v1.xlsx,New rule: Press 'space' when you see 2-back (i.e. the same letter as the one that appeared 2 letters ago.),g,space,,,,,,,,,0,7,7,7,0,8,8,8,,,,,,,,,,,,,,,,,,,,,,,,,,,,,,,,,,,,,,,,,,,,,,,,,,,,,,,,,,,,,,,,,,,,,1.258,620.8948564,None,space,1,620.8948564,None,0.7437368,P028,FENCOG,2,Post,2022_Mar_16_1058,N-Back (New Version 2021),2021.1.4,119.9528346
,,,,Conditions/Version_1/twoback(2)_v1.xlsx,New rule: Press 'space' when you see 2-back (i.e. the same letter as the one that appeared 2 letters ago.),G,None,,,,,,,,,0,7,7,7,0,9,9,9,,,,,,,,,,,,,,,,,,,,,,,,,,,,,,,,,,,,,,,,,,,,,,,,,,,,,,,,,,,,,,,,,,,,,1.8284,624.7334211,None,None,1,624.7334211,None,,P028,FENCOG,2,Post,2022_Mar_16_1058,N-Back (New Version 2021),2021.1.4,119.9528346
,,,,Conditions/Version_1/twoback(2)_v1.xlsx,New rule: Press 'space' when you see 2-back (i.e. the same letter as the one that appeared 2 letters ago.),,,,,,,,,,,0,7,7,7,,,,,,,,,,,,,,,,,,,,,,,,,,,,,,,,,,,,,,,,,,,,,,,,,,,,,,,,,,,,,,,,,,,,,,,,,,,,,,,,,P028,FENCOG,2,Post,2022_Mar_16_1058,N-Back (New Version 2021),2021.1.4,119.9528346
,,,,Conditions/Version_1/threeback(3)_v1.xlsx,New rule: Press 'space' when you see 3-back (i.e. the same letter as the one that appeared 3 letters ago.),w,None,,,,,,,,,0,8,8,8,0,0,0,0,,,,,,,,,,,,,,,,,,,,,,,,,,,,,,,,,,,,,,,,,,,,,,,,,,,,,,,,,,,626.7562214,None,629.7444171,None,space,0.4063601,629.7444171,None,626.7562214,None,1.2208,631.3929433,None,None,1,631.3929433,None,,P028,FENCOG,2,Post,2022_Mar_16_1058,N-Back (New Version 2021),2021.1.4,119.9528346
,,,,Conditions/Version_1/threeback(3)_v1.xlsx,New rule: Press 'space' when you see 3-back (i.e. the same letter as the one that appeared 3 letters ago.),p,None,,,,,,,,,0,8,8,8,0,1,1,1,,,,,,,,,,,,,,,,,,,,,,,,,,,,,,,,,,,,,,,,,,,,,,,,,,,,,,,,,,,,,,,,,,,,,1.9648,635.3659382,None,None,1,635.3659382,None,,P028,FENCOG,2,Post,2022_Mar_16_1058,N-Back (New Version 2021),2021.1.4,119.9528346
,,,,Conditions/Version_1/threeback(3)_v1.xlsx,New rule: Press 'space' when you see 3-back (i.e. the same letter as the one that appeared 3 letters ago.),P,None,,,,,,,,,0,8,8,8,0,2,2,2,,,,,,,,,,,,,,,,,,,,,,,,,,,,,,,,,,,,,,,,,,,,,,,,,,,,,,,,,,,,,,,,,,,,,1.8718,639.2393476,None,None,1,639.2393476,None,,P028,FENCOG,2,Post,2022_Mar_16_1058,N-Back (New Version 2021),2021.1.4,119.9528346
,,,,Conditions/Version_1/threeback(3)_v1.xlsx,New rule: Press 'space' when you see 3-back (i.e. the same letter as the one that appeared 3 letters ago.),i,None,,,,,,,,,0,8,8,8,0,3,3,3,,,,,,,,,,,,,,,,,,,,,,,,,,,,,,,,,,,,,,,,,,,,,,,,,,,,,,,,,,,,,,,,,,,,,1.0286,642.2759544,None,None,1,642.2759544,None,,P028,FENCOG,2,Post,2022_Mar_16_1058,N-Back (New Version 2021),2021.1.4,119.9528346
,,,,Conditions/Version_1/threeback(3)_v1.xlsx,New rule: Press 'space' when you see 3-back (i.e. the same letter as the one that appeared 3 letters ago.),f,None,,,,,,,,,0,8,8,8,0,4,4,4,,,,,,,,,,,,,,,,,,,,,,,,,,,,,,,,,,,,,,,,,,,,,,,,,,,,,,,,,,,,,,,,,,,,,1.1588,645.4374896,None,None,1,645.4374896,None,,P028,FENCOG,2,Post,2022_Mar_16_1058,N-Back (New Version 2021),2021.1.4,119.9528346
,,,,Conditions/Version_1/threeback(3)_v1.xlsx,New rule: Press 'space' when you see 3-back (i.e. the same letter as the one that appeared 3 letters ago.),o,None,,,,,,,,,0,8,8,8,0,5,5,5,,,,,,,,,,,,,,,,,,,,,,,,,,,,,,,,,,,,,,,,,,,,,,,,,,,,,,,,,,,,,,,,,,,,,1.8594,649.3058094,None,None,1,649.3058094,None,,P028,FENCOG,2,Post,2022_Mar_16_1058,N-Back (New Version 2021),2021.1.4,119.9528346
,,,,Conditions/Version_1/threeback(3)_v1.xlsx,New rule: Press 'space' when you see 3-back (i.e. the same letter as the one that appeared 3 letters ago.),w,None,,,,,,,,,0,8,8,8,0,6,6,6,,,,,,,,,,,,,,,,,,,,,,,,,,,,,,,,,,,,,,,,,,,,,,,,,,,,,,,,,,,,,,,,,,,,,1.165,652.4791058,None,None,1,652.4791058,None,,P028,FENCOG,2,Post,2022_Mar_16_1058,N-Back (New Version 2021),2021.1.4,119.9528346
,,,,Conditions/Version_1/threeback(3)_v1.xlsx,New rule: Press 'space' when you see 3-back (i.e. the same letter as the one that appeared 3 letters ago.),F,space,,,,,,,,,0,8,8,8,0,7,7,7,,,,,,,,,,,,,,,,,,,,,,,,,,,,,,,,,,,,,,,,,,,,,,,,,,,,,,,,,,,,,,,,,,,,,1.4192,655.901962,None,space,1,655.901962,None,0.5287529,P028,FENCOG,2,Post,2022_Mar_16_1058,N-Back (New Version 2021),2021.1.4,119.9528346
,,,,Conditions/Version_1/threeback(3)_v1.xlsx,New rule: Press 'space' when you see 3-back (i.e. the same letter as the one that appeared 3 letters ago.),p,None,,,,,,,,,0,8,8,8,0,8,8,8,,,,,,,,,,,,,,,,,,,,,,,,,,,,,,,,,,,,,,,,,,,,,,,,,,,,,,,,,,,,,,,,,,,,,1.3758,659.2921585,None,None,1,659.2921585,None,,P028,FENCOG,2,Post,2022_Mar_16_1058,N-Back (New Version 2021),2021.1.4,119.9528346
,,,,Conditions/Version_1/threeback(3)_v1.xlsx,New rule: Press 'space' when you see 3-back (i.e. the same letter as the one that appeared 3 letters ago.),W,space,,,,,,,,,0,8,8,8,0,9,9,9,,,,,,,,,,,,,,,,,,,,,,,,,,,,,,,,,,,,,,,,,,,,,,,,,,,,,,,,,,,,,,,,,,,,,1.351,662.6490355,None,None,0,662.6490355,None,,P028,FENCOG,2,Post,2022_Mar_16_1058,N-Back (New Version 2021),2021.1.4,119.9528346
,,,,Conditions/Version_1/threeback(3)_v1.xlsx,New rule: Press 'space' when you see 3-back (i.e. the same letter as the one that appeared 3 letters ago.),,,,,,,,,,,0,8,8,8,,,,,,,,,,,,,,,,,,,,,,,,,,,,,,,,,,,,,,,,,,,,,,,,,,,,,,,,,,,,,,,,,,,,,,,,,,,,,,,,,P028,FENCOG,2,Post,2022_Mar_16_1058,N-Back (New Version 2021),2021.1.4,119.9528346
,,,,Conditions/Version_1/zeroback(3)_v1.xlsx,New rule: Press 'space' when you see the letter 'x' or 'X'.,X,space,,,,,,,,,0,9,9,9,0,0,0,0,,,,,,,,,,,,,,,,,,,,,,,,,,,,,,,,,,,,,,,,,,,,,,,,,,,,,,,,,,,664.6782328,None,667.6676972,None,space,0.3871844,667.6676972,None,664.6782328,None,1.661,669.7386461,None,space,1,669.7386461,None,0.7883299,P028,FENCOG,2,Post,2022_Mar_16_1058,N-Back (New Version 2021),2021.1.4,119.9528346
,,,,Conditions/Version_1/zeroback(3)_v1.xlsx,New rule: Press 'space' when you see the letter 'x' or 'X'.,B,None,,,,,,,,,0,9,9,9,0,1,1,1,,,,,,,,,,,,,,,,,,,,,,,,,,,,,,,,,,,,,,,,,,,,,,,,,,,,,,,,,,,,,,,,,,,,,1.3138,673.061253,None,None,1,673.061253,None,,P028,FENCOG,2,Post,2022_Mar_16_1058,N-Back (New Version 2021),2021.1.4,119.9528346
,,,,Conditions/Version_1/zeroback(3)_v1.xlsx,New rule: Press 'space' when you see the letter 'x' or 'X'.,m,None,,,,,,,,,0,9,9,9,0,2,2,2,,,,,,,,,,,,,,,,,,,,,,,,,,,,,,,,,,,,,,,,,,,,,,,,,,,,,,,,,,,,,,,,,,,,,1.7602,676.819779,None,None,1,676.819779,None,,P028,FENCOG,2,Post,2022_Mar_16_1058,N-Back (New Version 2021),2021.1.4,119.9528346
,,,,Conditions/Version_1/zeroback(3)_v1.xlsx,New rule: Press 'space' when you see the letter 'x' or 'X'.,m,None,,,,,,,,,0,9,9,9,0,3,3,3,,,,,,,,,,,,,,,,,,,,,,,,,,,,,,,,,,,,,,,,,,,,,,,,,,,,,,,,,,,,,,,,,,,,,1.9462,680.7686116,None,None,1,680.7686116,None,,P028,FENCOG,2,Post,2022_Mar_16_1058,N-Back (New Version 2021),2021.1.4,119.9528346
,,,,Conditions/Version_1/zeroback(3)_v1.xlsx,New rule: Press 'space' when you see the letter 'x' or 'X'.,o,None,,,,,,,,,0,9,9,9,0,4,4,4,,,,,,,,,,,,,,,,,,,,,,,,,,,,,,,,,,,,,,,,,,,,,,,,,,,,,,,,,,,,,,,,,,,,,1.3758,684.1512336,None,None,1,684.1512336,None,,P028,FENCOG,2,Post,2022_Mar_16_1058,N-Back (New Version 2021),2021.1.4,119.9528346
,,,,Conditions/Version_1/zeroback(3)_v1.xlsx,New rule: Press 'space' when you see the letter 'x' or 'X'.,p,None,,,,,,,,,0,9,9,9,0,5,5,5,,,,,,,,,,,,,,,,,,,,,,,,,,,,,,,,,,,,,,,,,,,,,,,,,,,,,,,,,,,,,,,,,,,,,1.9028,688.0594099,None,None,1,688.0594099,None,,P028,FENCOG,2,Post,2022_Mar_16_1058,N-Back (New Version 2021),2021.1.4,119.9528346
,,,,Conditions/Version_1/zeroback(3)_v1.xlsx,New rule: Press 'space' when you see the letter 'x' or 'X'.,G,None,,,,,,,,,0,9,9,9,0,6,6,6,,,,,,,,,,,,,,,,,,,,,,,,,,,,,,,,,,,,,,,,,,,,,,,,,,,,,,,,,,,,,,,,,,,,,1.7416,691.8100456,None,None,1,691.8100456,None,,P028,FENCOG,2,Post,2022_Mar_16_1058,N-Back (New Version 2021),2021.1.4,119.9528346
,,,,Conditions/Version_1/zeroback(3)_v1.xlsx,New rule: Press 'space' when you see the letter 'x' or 'X'.,X,space,,,,,,,,,0,9,9,9,0,7,7,7,,,,,,,,,,,,,,,,,,,,,,,,,,,,,,,,,,,,,,,,,,,,,,,,,,,,,,,,,,,,,,,,,,,,,1.1092,694.9312594,None,space,1,694.9312594,None,0.8515631,P028,FENCOG,2,Post,2022_Mar_16_1058,N-Back (New Version 2021),2021.1.4,119.9528346
,,,,Conditions/Version_1/zeroback(3)_v1.xlsx,New rule: Press 'space' when you see the letter 'x' or 'X'.,p,None,,,,,,,,,0,9,9,9,0,8,8,8,,,,,,,,,,,,,,,,,,,,,,,,,,,,,,,,,,,,,,,,,,,,,,,,,,,,,,,,,,,,,,,,,,,,,1.4998,698.4303187,None,None,1,698.4303187,None,,P028,FENCOG,2,Post,2022_Mar_16_1058,N-Back (New Version 2021),2021.1.4,119.9528346
,,,,Conditions/Version_1/zeroback(3)_v1.xlsx,New rule: Press 'space' when you see the letter 'x' or 'X'.,x,space,,,,,,,,,0,9,9,9,0,9,9,9,,,,,,,,,,,,,,,,,,,,,,,,,,,,,,,,,,,,,,,,,,,,,,,,,,,,,,,,,,,,,,,,,,,,,1.8656,702.3001321,None,space,1,702.3001321,None,0.810702,P028,FENCOG,2,Post,2022_Mar_16_1058,N-Back (New Version 2021),2021.1.4,119.9528346
,,,,Conditions/Version_1/zeroback(3)_v1.xlsx,New rule: Press 'space' when you see the letter 'x' or 'X'.,,,,,,,,,,,0,9,9,9,,,,,,,,,,,,,,,,,,,,,,,,,,,,,,,,,,,,,,,,,,,,,,,,,,,,,,,,,,,,,,,,,,,,,,,,,,,,,,,,,P028,FENCOG,2,Post,2022_Mar_16_1058,N-Back (New Version 2021),2021.1.4,119.9528346
,,,,Conditions/Version_1/twoback(3)_v1.xlsx,New rule: Press 'space' when you see 2-back (i.e. the same letter as the one that appeared 2 letters ago.),e,None,,,,,,,,,0,10,10,10,0,0,0,0,,,,,,,,,,,,,,,,,,,,,,,,,,,,,,,,,,,,,,,,,,,,,,,,,,,,,,,,,,,704.3331133,None,707.3131744,None,space,1.1735318,707.3131744,None,704.3331133,None,1.413,709.9280887,None,None,1,709.9280887,None,,P028,FENCOG,2,Post,2022_Mar_16_1058,N-Back (New Version 2021),2021.1.4,119.9528346
,,,,Conditions/Version_1/twoback(3)_v1.xlsx,New rule: Press 'space' when you see 2-back (i.e. the same letter as the one that appeared 2 letters ago.),o,None,,,,,,,,,0,10,10,10,0,1,1,1,,,,,,,,,,,,,,,,,,,,,,,,,,,,,,,,,,,,,,,,,,,,,,,,,,,,,,,,,,,,,,,,,,,,,1.7912,713.7340104,None,None,1,713.7340104,None,,P028,FENCOG,2,Post,2022_Mar_16_1058,N-Back (New Version 2021),2021.1.4,119.9528346
,,,,Conditions/Version_1/twoback(3)_v1.xlsx,New rule: Press 'space' when you see 2-back (i.e. the same letter as the one that appeared 2 letters ago.),P,None,,,,,,,,,0,10,10,10,0,2,2,2,,,,,,,,,,,,,,,,,,,,,,,,,,,,,,,,,,,,,,,,,,,,,,,,,,,,,,,,,,,,,,,,,,,,,1.2704,717.0081693,None,None,1,717.0081693,None,,P028,FENCOG,2,Post,2022_Mar_16_1058,N-Back (New Version 2021),2021.1.4,119.9528346
,,,,Conditions/Version_1/twoback(3)_v1.xlsx,New rule: Press 'space' when you see 2-back (i.e. the same letter as the one that appeared 2 letters ago.),z,None,,,,,,,,,0,10,10,10,0,3,3,3,,,,,,,,,,,,,,,,,,,,,,,,,,,,,,,,,,,,,,,,,,,,,,,,,,,,,,,,,,,,,,,,,,,,,1.661,720.6755249,None,None,1,720.6755249,None,,P028,FENCOG,2,Post,2022_Mar_16_1058,N-Back (New Version 2021),2021.1.4,119.9528346
,,,,Conditions/Version_1/twoback(3)_v1.xlsx,New rule: Press 'space' when you see 2-back (i.e. the same letter as the one that appeared 2 letters ago.),X,None,,,,,,,,,0,10,10,10,0,4,4,4,,,,,,,,,,,,,,,,,,,,,,,,,,,,,,,,,,,,,,,,,,,,,,,,,,,,,,,,,,,,,,,,,,,,,1.2022,723.8894353,None,None,1,723.8894353,None,,P028,FENCOG,2,Post,2022_Mar_16_1058,N-Back (New Version 2021),2021.1.4,119.9528346
,,,,Conditions/Version_1/twoback(3)_v1.xlsx,New rule: Press 'space' when you see 2-back (i.e. the same letter as the one that appeared 2 letters ago.),z,space,,,,,,,,,0,10,10,10,0,5,5,5,,,,,,,,,,,,,,,,,,,,,,,,,,,,,,,,,,,,,,,,,,,,,,,,,,,,,,,,,,,,,,,,,,,,,1.7168,727.6134211,None,space,1,727.6134211,None,0.9612099,P028,FENCOG,2,Post,2022_Mar_16_1058,N-Back (New Version 2021),2021.1.4,119.9528346
,,,,Conditions/Version_1/twoback(3)_v1.xlsx,New rule: Press 'space' when you see 2-back (i.e. the same letter as the one that appeared 2 letters ago.),x,space,,,,,,,,,0,10,10,10,0,6,6,6,,,,,,,,,,,,,,,,,,,,,,,,,,,,,,,,,,,,,,,,,,,,,,,,,,,,,,,,,,,,,,,,,,,,,1.475,731.0879448,None,space,1,731.0879448,None,1.9669282,P028,FENCOG,2,Post,2022_Mar_16_1058,N-Back (New Version 2021),2021.1.4,119.9528346
,,,,Conditions/Version_1/twoback(3)_v1.xlsx,New rule: Press 'space' when you see 2-back (i.e. the same letter as the one that appeared 2 letters ago.),c,None,,,,,,,,,0,10,10,10,0,7,7,7,,,,,,,,,,,,,,,,,,,,,,,,,,,,,,,,,,,,,,,,,,,,,,,,,,,,,,,,,,,,,,,,,,,,,1.2332,734.3290456,None,None,1,734.3290456,None,,P028,FENCOG,2,Post,2022_Mar_16_1058,N-Back (New Version 2021),2021.1.4,119.9528346
,,,,Conditions/Version_1/twoback(3)_v1.xlsx,New rule: Press 'space' when you see 2-back (i.e. the same letter as the one that appeared 2 letters ago.),i,None,,,,,,,,,0,10,10,10,0,8,8,8,,,,,,,,,,,,,,,,,,,,,,,,,,,,,,,,,,,,,,,,,,,,,,,,,,,,,,,,,,,,,,,,,,,,,1.847,738.1849538,None,None,1,738.1849538,None,,P028,FENCOG,2,Post,2022_Mar_16_1058,N-Back (New Version 2021),2021.1.4,119.9528346
,,,,Conditions/Version_1/twoback(3)_v1.xlsx,New rule: Press 'space' when you see 2-back (i.e. the same letter as the one that appeared 2 letters ago.),C,space,,,,,,,,,0,10,10,10,0,9,9,9,,,,,,,,,,,,,,,,,,,,,,,,,,,,,,,,,,,,,,,,,,,,,,,,,,,,,,,,,,,,,,,,,,,,,1.7664,741.9516261,None,space,1,741.9516261,None,0.7910669,P028,FENCOG,2,Post,2022_Mar_16_1058,N-Back (New Version 2021),2021.1.4,119.9528346
,,,,Conditions/Version_1/twoback(3)_v1.xlsx,New rule: Press 'space' when you see 2-back (i.e. the same letter as the one that appeared 2 letters ago.),,,,,,,,,,,0,10,10,10,,,,,,,,,,,,,,,,,,,,,,,,,,,,,,,,,,,,,,,,,,,,,,,,,,,,,,,,,,,,,,,,,,,,,,,,,,,,,,,,,P028,FENCOG,2,Post,2022_Mar_16_1058,N-Back (New Version 2021),2021.1.4,119.9528346
,,,,Conditions/Version_1/oneback(3)_v1.xlsx,New rule: Press 'space' when you see 1-back (i.e. the same letter as the one that appeared 1 letter ago.),o,None,,,,,,,,,0,11,11,11,0,0,0,0,,,,,,,,,,,,,,,,,,,,,,,,,,,,,,,,,,,,,,,,,,,,,,,,,,,,,,,,,,,743.976364,None,746.9596404,None,space,0.2789959,746.9596404,None,743.976364,None,1.258,748.5235939,None,None,1,748.5235939,None,,P028,FENCOG,2,Post,2022_Mar_16_1058,N-Back (New Version 2021),2021.1.4,119.9528346
,,,,Conditions/Version_1/oneback(3)_v1.xlsx,New rule: Press 'space' when you see 1-back (i.e. the same letter as the one that appeared 1 letter ago.),O,space,,,,,,,,,0,11,11,11,0,1,1,1,,,,,,,,,,,,,,,,,,,,,,,,,,,,,,,,,,,,,,,,,,,,,,,,,,,,,,,,,,,,,,,,,,,,,1.5184,752.047984,None,space,1,752.047984,None,0.4705474,P028,FENCOG,2,Post,2022_Mar_16_1058,N-Back (New Version 2021),2021.1.4,119.9528346
,,,,Conditions/Version_1/oneback(3)_v1.xlsx,New rule: Press 'space' when you see 1-back (i.e. the same letter as the one that appeared 1 letter ago.),h,None,,,,,,,,,0,11,11,11,0,2,2,2,,,,,,,,,,,,,,,,,,,,,,,,,,,,,,,,,,,,,,,,,,,,,,,,,,,,,,,,,,,,,,,,,,,,,1.7602,755.8218107,None,None,1,755.8218107,None,,P028,FENCOG,2,Post,2022_Mar_16_1058,N-Back (New Version 2021),2021.1.4,119.9528346
,,,,Conditions/Version_1/oneback(3)_v1.xlsx,New rule: Press 'space' when you see 1-back (i.e. the same letter as the one that appeared 1 letter ago.),g,None,,,,,,,,,0,11,11,11,0,3,3,3,,,,,,,,,,,,,,,,,,,,,,,,,,,,,,,,,,,,,,,,,,,,,,,,,,,,,,,,,,,,,,,,,,,,,1.413,759.2395667,None,None,1,759.2395667,None,,P028,FENCOG,2,Post,2022_Mar_16_1058,N-Back (New Version 2021),2021.1.4,119.9528346
,,,,Conditions/Version_1/oneback(3)_v1.xlsx,New rule: Press 'space' when you see 1-back (i.e. the same letter as the one that appeared 1 letter ago.),n,None,,,,,,,,,0,11,11,11,0,4,4,4,,,,,,,,,,,,,,,,,,,,,,,,,,,,,,,,,,,,,,,,,,,,,,,,,,,,,,,,,,,,,,,,,,,,,1.785,763.0361442,None,None,1,763.0361442,None,,P028,FENCOG,2,Post,2022_Mar_16_1058,N-Back (New Version 2021),2021.1.4,119.9528346
,,,,Conditions/Version_1/oneback(3)_v1.xlsx,New rule: Press 'space' when you see 1-back (i.e. the same letter as the one that appeared 1 letter ago.),z,None,,,,,,,,,0,11,11,11,0,5,5,5,,,,,,,,,,,,,,,,,,,,,,,,,,,,,,,,,,,,,,,,,,,,,,,,,,,,,,,,,,,,,,,,,,,,,1.7168,766.7526831,None,None,1,766.7526831,None,,P028,FENCOG,2,Post,2022_Mar_16_1058,N-Back (New Version 2021),2021.1.4,119.9528346
,,,,Conditions/Version_1/oneback(3)_v1.xlsx,New rule: Press 'space' when you see 1-back (i.e. the same letter as the one that appeared 1 letter ago.),X,None,,,,,,,,,0,11,11,11,0,6,6,6,,,,,,,,,,,,,,,,,,,,,,,,,,,,,,,,,,,,,,,,,,,,,,,,,,,,,,,,,,,,,,,,,,,,,1.4936,770.2588676,None,None,1,770.2588676,None,,P028,FENCOG,2,Post,2022_Mar_16_1058,N-Back (New Version 2021),2021.1.4,119.9528346
,,,,Conditions/Version_1/oneback(3)_v1.xlsx,New rule: Press 'space' when you see 1-back (i.e. the same letter as the one that appeared 1 letter ago.),r,None,,,,,,,,,0,11,11,11,0,7,7,7,,,,,,,,,,,,,,,,,,,,,,,,,,,,,,,,,,,,,,,,,,,,,,,,,,,,,,,,,,,,,,,,,,,,,1.9834,774.2494786,None,None,1,774.2494786,None,,P028,FENCOG,2,Post,2022_Mar_16_1058,N-Back (New Version 2021),2021.1.4,119.9528346
,,,,Conditions/Version_1/oneback(3)_v1.xlsx,New rule: Press 'space' when you see 1-back (i.e. the same letter as the one that appeared 1 letter ago.),r,space,,,,,,,,,0,11,11,11,0,8,8,8,,,,,,,,,,,,,,,,,,,,,,,,,,,,,,,,,,,,,,,,,,,,,,,,,,,,,,,,,,,,,,,,,,,,,1.816,778.0650314,None,space,1,778.0650314,None,0.8217473,P028,FENCOG,2,Post,2022_Mar_16_1058,N-Back (New Version 2021),2021.1.4,119.9528346
,,,,Conditions/Version_1/oneback(3)_v1.xlsx,New rule: Press 'space' when you see 1-back (i.e. the same letter as the one that appeared 1 letter ago.),P,None,,,,,,,,,0,11,11,11,0,9,9,9,,,,,,,,,,,,,,,,,,,,,,,,,,,,,,,,,,,,,,,,,,,,,,,,,,,,,,,,,,,,,,,,,,,,,1.2704,781.3730957,None,None,1,781.3730957,None,,P028,FENCOG,2,Post,2022_Mar_16_1058,N-Back (New Version 2021),2021.1.4,119.9528346
,,,,Conditions/Version_1/oneback(3)_v1.xlsx,New rule: Press 'space' when you see 1-back (i.e. the same letter as the one that appeared 1 letter ago.),,,,,,,,,,,0,11,11,11,,,,,,,,,,,,,,,,,,,,,,,,,,,,,,,,,,,,,,,,,,,,,,,,,,,,,,,,,,,,,,,,,,,,,,,,,,,,,,,,,P028,FENCOG,2,Post,2022_Mar_16_1058,N-Back (New Version 2021),2021.1.4,119.9528346
,,,,Conditions/Version_1/twoback(4)_v1.xlsx,New rule: Press 'space' when you see 2-back (i.e. the same letter as the one that appeared 2 letters ago.),r,None,,,,,,,,,0,12,12,12,0,0,0,0,,,,,,,,,,,,,,,,,,,,,,,,,,,,,,,,,,,,,,,,,,,,,,,,,,,,,,,,,,,783.3638067,None,786.3472787,None,space,0.2352717,786.3472787,None,783.3638067,None,1.63,788.2370404,None,None,1,788.2370404,None,,P028,FENCOG,2,Post,2022_Mar_16_1058,N-Back (New Version 2021),2021.1.4,119.9528346
,,,,Conditions/Version_1/twoback(4)_v1.xlsx,New rule: Press 'space' when you see 2-back (i.e. the same letter as the one that appeared 2 letters ago.),T,None,,,,,,,,,0,12,12,12,0,1,1,1,,,,,,,,,,,,,,,,,,,,,,,,,,,,,,,,,,,,,,,,,,,,,,,,,,,,,,,,,,,,,,,,,,,,,1.041,791.2776672,None,None,1,791.2776672,None,,P028,FENCOG,2,Post,2022_Mar_16_1058,N-Back (New Version 2021),2021.1.4,119.9528346
,,,,Conditions/Version_1/twoback(4)_v1.xlsx,New rule: Press 'space' when you see 2-back (i.e. the same letter as the one that appeared 2 letters ago.),o,None,,,,,,,,,0,12,12,12,0,2,2,2,,,,,,,,,,,,,,,,,,,,,,,,,,,,,,,,,,,,,,,,,,,,,,,,,,,,,,,,,,,,,,,,,,,,,1.6982,794.9765981,None,None,1,794.9765981,None,,P028,FENCOG,2,Post,2022_Mar_16_1058,N-Back (New Version 2021),2021.1.4,119.9528346
,,,,Conditions/Version_1/twoback(4)_v1.xlsx,New rule: Press 'space' when you see 2-back (i.e. the same letter as the one that appeared 2 letters ago.),p,None,,,,,,,,,0,12,12,12,0,3,3,3,,,,,,,,,,,,,,,,,,,,,,,,,,,,,,,,,,,,,,,,,,,,,,,,,,,,,,,,,,,,,,,,,,,,,1.4192,798.4018202,None,None,1,798.4018202,None,,P028,FENCOG,2,Post,2022_Mar_16_1058,N-Back (New Version 2021),2021.1.4,119.9528346
,,,,Conditions/Version_1/twoback(4)_v1.xlsx,New rule: Press 'space' when you see 2-back (i.e. the same letter as the one that appeared 2 letters ago.),p,None,,,,,,,,,0,12,12,12,0,4,4,4,,,,,,,,,,,,,,,,,,,,,,,,,,,,,,,,,,,,,,,,,,,,,,,,,,,,,,,,,,,,,,,,,,,,,1.8656,802.2746123,None,None,1,802.2746123,None,,P028,FENCOG,2,Post,2022_Mar_16_1058,N-Back (New Version 2021),2021.1.4,119.9528346
,,,,Conditions/Version_1/twoback(4)_v1.xlsx,New rule: Press 'space' when you see 2-back (i.e. the same letter as the one that appeared 2 letters ago.),y,None,,,,,,,,,0,12,12,12,0,5,5,5,,,,,,,,,,,,,,,,,,,,,,,,,,,,,,,,,,,,,,,,,,,,,,,,,,,,,,,,,,,,,,,,,,,,,1.3138,805.5902522,None,None,1,805.5902522,None,,P028,FENCOG,2,Post,2022_Mar_16_1058,N-Back (New Version 2021),2021.1.4,119.9528346
,,,,Conditions/Version_1/twoback(4)_v1.xlsx,New rule: Press 'space' when you see 2-back (i.e. the same letter as the one that appeared 2 letters ago.),P,space,,,,,,,,,0,12,12,12,0,6,6,6,,,,,,,,,,,,,,,,,,,,,,,,,,,,,,,,,,,,,,,,,,,,,,,,,,,,,,,,,,,,,,,,,,,,,1.1278,808.7227454,None,space,1,808.7227454,None,0.7241104,P028,FENCOG,2,Post,2022_Mar_16_1058,N-Back (New Version 2021),2021.1.4,119.9528346
,,,,Conditions/Version_1/twoback(4)_v1.xlsx,New rule: Press 'space' when you see 2-back (i.e. the same letter as the one that appeared 2 letters ago.),y,None,,,,,,,,,0,12,12,12,0,7,7,7,,,,,,,,,,,,,,,,,,,,,,,,,,,,,,,,,,,,,,,,,,,,,,,,,,,,,,,,,,,,,,,,,,,,,1.3076,812.0302481,None,space,0,812.0302481,None,0.5764752,P028,FENCOG,2,Post,2022_Mar_16_1058,N-Back (New Version 2021),2021.1.4,119.9528346
,,,,Conditions/Version_1/twoback(4)_v1.xlsx,New rule: Press 'space' when you see 2-back (i.e. the same letter as the one that appeared 2 letters ago.),y,space,,,,,,,,,0,12,12,12,0,8,8,8,,,,,,,,,,,,,,,,,,,,,,,,,,,,,,,,,,,,,,,,,,,,,,,,,,,,,,,,,,,,,,,,,,,,,1.2642,815.2964868,None,None,0,815.2964868,None,,P028,FENCOG,2,Post,2022_Mar_16_1058,N-Back (New Version 2021),2021.1.4,119.9528346
,,,,Conditions/Version_1/twoback(4)_v1.xlsx,New rule: Press 'space' when you see 2-back (i.e. the same letter as the one that appeared 2 letters ago.),,,,,,,,,,,0,12,12,12,,,,,,,,,,,,,,,,,,,,,,,,,,,,,,,,,,,,,,,,,,,,,,,,,,,,,,,,,,,,,,,,,,,,,,,,,,,,,,,,,P028,FENCOG,2,Post,2022_Mar_16_1058,N-Back (New Version 2021),2021.1.4,119.9528346
,,,,Conditions/Version_1/zeroback(4)_v1.xlsx,New rule: Press 'space' when you see the letter 'x' or 'X'.,o,None,,,,,,,,,0,13,13,13,0,0,0,0,,,,,,,,,,,,,,,,,,,,,,,,,,,,,,,,,,,,,,,,,,,,,,,,,,,,,,,,,,,817.3224683,None,820.3054576,None,space,0.2691567,820.3054576,None,817.3224683,None,1.7168,822.32,None,None,1,822.32,None,,P028,FENCOG,2,Post,2022_Mar_16_1058,N-Back (New Version 2021),2021.1.4,119.9528346
,,,,Conditions/Version_1/zeroback(4)_v1.xlsx,New rule: Press 'space' when you see the letter 'x' or 'X'.,X,space,,,,,,,,,0,13,13,13,0,1,1,1,,,,,,,,,,,,,,,,,,,,,,,,,,,,,,,,,,,,,,,,,,,,,,,,,,,,,,,,,,,,,,,,,,,,,1.0658,825.3927787,None,space,1,825.3927787,None,0.7740692,P028,FENCOG,2,Post,2022_Mar_16_1058,N-Back (New Version 2021),2021.1.4,119.9528346
,,,,Conditions/Version_1/zeroback(4)_v1.xlsx,New rule: Press 'space' when you see the letter 'x' or 'X'.,p,None,,,,,,,,,0,13,13,13,0,2,2,2,,,,,,,,,,,,,,,,,,,,,,,,,,,,,,,,,,,,,,,,,,,,,,,,,,,,,,,,,,,,,,,,,,,,,1.2084,828.6026733,None,None,1,828.6026733,None,,P028,FENCOG,2,Post,2022_Mar_16_1058,N-Back (New Version 2021),2021.1.4,119.9528346
,,,,Conditions/Version_1/zeroback(4)_v1.xlsx,New rule: Press 'space' when you see the letter 'x' or 'X'.,m,None,,,,,,,,,0,13,13,13,0,3,3,3,,,,,,,,,,,,,,,,,,,,,,,,,,,,,,,,,,,,,,,,,,,,,,,,,,,,,,,,,,,,,,,,,,,,,1.1836,831.790879,None,None,1,831.790879,None,,P028,FENCOG,2,Post,2022_Mar_16_1058,N-Back (New Version 2021),2021.1.4,119.9528346
,,,,Conditions/Version_1/zeroback(4)_v1.xlsx,New rule: Press 'space' when you see the letter 'x' or 'X'.,n,None,,,,,,,,,0,13,13,13,0,4,4,4,,,,,,,,,,,,,,,,,,,,,,,,,,,,,,,,,,,,,,,,,,,,,,,,,,,,,,,,,,,,,,,,,,,,,1.9152,835.7073885,None,None,1,835.7073885,None,,P028,FENCOG,2,Post,2022_Mar_16_1058,N-Back (New Version 2021),2021.1.4,119.9528346
,,,,Conditions/Version_1/zeroback(4)_v1.xlsx,New rule: Press 'space' when you see the letter 'x' or 'X'.,m,None,,,,,,,,,0,13,13,13,0,5,5,5,,,,,,,,,,,,,,,,,,,,,,,,,,,,,,,,,,,,,,,,,,,,,,,,,,,,,,,,,,,,,,,,,,,,,1.3882,839.1053795,None,None,1,839.1053795,None,,P028,FENCOG,2,Post,2022_Mar_16_1058,N-Back (New Version 2021),2021.1.4,119.9528346
,,,,Conditions/Version_1/zeroback(4)_v1.xlsx,New rule: Press 'space' when you see the letter 'x' or 'X'.,C,None,,,,,,,,,0,13,13,13,0,6,6,6,,,,,,,,,,,,,,,,,,,,,,,,,,,,,,,,,,,,,,,,,,,,,,,,,,,,,,,,,,,,,,,,,,,,,1.661,842.7711568,None,None,1,842.7711568,None,,P028,FENCOG,2,Post,2022_Mar_16_1058,N-Back (New Version 2021),2021.1.4,119.9528346
,,,,Conditions/Version_1/zeroback(4)_v1.xlsx,New rule: Press 'space' when you see the letter 'x' or 'X'.,m,None,,,,,,,,,0,13,13,13,0,7,7,7,,,,,,,,,,,,,,,,,,,,,,,,,,,,,,,,,,,,,,,,,,,,,,,,,,,,,,,,,,,,,,,,,,,,,1.4378,846.2157681,None,None,1,846.2157681,None,,P028,FENCOG,2,Post,2022_Mar_16_1058,N-Back (New Version 2021),2021.1.4,119.9528346
,,,,Conditions/Version_1/zeroback(4)_v1.xlsx,New rule: Press 'space' when you see the letter 'x' or 'X'.,p,None,,,,,,,,,0,13,13,13,0,8,8,8,,,,,,,,,,,,,,,,,,,,,,,,,,,,,,,,,,,,,,,,,,,,,,,,,,,,,,,,,,,,,,,,,,,,,1.1154,849.3367518,None,None,1,849.3367518,None,,P028,FENCOG,2,Post,2022_Mar_16_1058,N-Back (New Version 2021),2021.1.4,119.9528346
,,,,Conditions/Version_1/zeroback(4)_v1.xlsx,New rule: Press 'space' when you see the letter 'x' or 'X'.,X,space,,,,,,,,,0,13,13,13,0,9,9,9,,,,,,,,,,,,,,,,,,,,,,,,,,,,,,,,,,,,,,,,,,,,,,,,,,,,,,,,,,,,,,,,,,,,,1.2332,852.5767847,None,space,1,852.5767847,None,0.7101225,P028,FENCOG,2,Post,2022_Mar_16_1058,N-Back (New Version 2021),2021.1.4,119.9528346
,,,,Conditions/Version_1/zeroback(4)_v1.xlsx,New rule: Press 'space' when you see the letter 'x' or 'X'.,,,,,,,,,,,0,13,13,13,,,,,,,,,,,,,,,,,,,,,,,,,,,,,,,,,,,,,,,,,,,,,,,,,,,,,,,,,,,,,,,,,,,,,,,,,,,,,,,,,P028,FENCOG,2,Post,2022_Mar_16_1058,N-Back (New Version 2021),2021.1.4,119.9528346
,,,,Conditions/Version_1/oneback(4)_v1.xlsx,New rule: Press 'space' when you see 1-back (i.e. the same letter as the one that appeared 1 letter ago.),w,None,,,,,,,,,0,14,14,14,0,0,0,0,,,,,,,,,,,,,,,,,,,,,,,,,,,,,,,,,,,,,,,,,,,,,,,,,,,,,,,,,,,854.5985545,None,857.5851835,None,space,0.3334627,857.5851835,None,854.5985545,None,1.01,858.9589464,None,None,1,858.9589464,None,,P028,FENCOG,2,Post,2022_Mar_16_1058,N-Back (New Version 2021),2021.1.4,119.9528346
,,,,Conditions/Version_1/oneback(4)_v1.xlsx,New rule: Press 'space' when you see 1-back (i.e. the same letter as the one that appeared 1 letter ago.),q,None,,,,,,,,,0,14,14,14,0,1,1,1,,,,,,,,,,,,,,,,,,,,,,,,,,,,,,,,,,,,,,,,,,,,,,,,,,,,,,,,,,,,,,,,,,,,,1.8346,862.8095488,None,None,1,862.8095488,None,,P028,FENCOG,2,Post,2022_Mar_16_1058,N-Back (New Version 2021),2021.1.4,119.9528346
,,,,Conditions/Version_1/oneback(4)_v1.xlsx,New rule: Press 'space' when you see 1-back (i.e. the same letter as the one that appeared 1 letter ago.),i,None,,,,,,,,,0,14,14,14,0,2,2,2,,,,,,,,,,,,,,,,,,,,,,,,,,,,,,,,,,,,,,,,,,,,,,,,,,,,,,,,,,,,,,,,,,,,,1.3014,866.1234529,None,None,1,866.1234529,None,,P028,FENCOG,2,Post,2022_Mar_16_1058,N-Back (New Version 2021),2021.1.4,119.9528346
,,,,Conditions/Version_1/oneback(4)_v1.xlsx,New rule: Press 'space' when you see 1-back (i.e. the same letter as the one that appeared 1 letter ago.),t,None,,,,,,,,,0,14,14,14,0,3,3,3,,,,,,,,,,,,,,,,,,,,,,,,,,,,,,,,,,,,,,,,,,,,,,,,,,,,,,,,,,,,,,,,,,,,,1.9648,870.0973345,None,None,1,870.0973345,None,,P028,FENCOG,2,Post,2022_Mar_16_1058,N-Back (New Version 2021),2021.1.4,119.9528346
,,,,Conditions/Version_1/oneback(4)_v1.xlsx,New rule: Press 'space' when you see 1-back (i.e. the same letter as the one that appeared 1 letter ago.),v,None,,,,,,,,,0,14,14,14,0,4,4,4,,,,,,,,,,,,,,,,,,,,,,,,,,,,,,,,,,,,,,,,,,,,,,,,,,,,,,,,,,,,,,,,,,,,,1.9152,874.0307053,None,None,1,874.0307053,None,,P028,FENCOG,2,Post,2022_Mar_16_1058,N-Back (New Version 2021),2021.1.4,119.9528346
,,,,Conditions/Version_1/oneback(4)_v1.xlsx,New rule: Press 'space' when you see 1-back (i.e. the same letter as the one that appeared 1 letter ago.),V,space,,,,,,,,,0,14,14,14,0,5,5,5,,,,,,,,,,,,,,,,,,,,,,,,,,,,,,,,,,,,,,,,,,,,,,,,,,,,,,,,,,,,,,,,,,,,,1.1402,877.171781,None,space,1,877.171781,None,1.7789386,P028,FENCOG,2,Post,2022_Mar_16_1058,N-Back (New Version 2021),2021.1.4,119.9528346
,,,,Conditions/Version_1/oneback(4)_v1.xlsx,New rule: Press 'space' when you see 1-back (i.e. the same letter as the one that appeared 1 letter ago.),v,space,,,,,,,,,0,14,14,14,0,6,6,6,,,,,,,,,,,,,,,,,,,,,,,,,,,,,,,,,,,,,,,,,,,,,,,,,,,,,,,,,,,,,,,,,,,,,1.5742,880.7523452,None,space,1,880.7523452,None,1.0943033,P028,FENCOG,2,Post,2022_Mar_16_1058,N-Back (New Version 2021),2021.1.4,119.9528346
,,,,Conditions/Version_1/oneback(4)_v1.xlsx,New rule: Press 'space' when you see 1-back (i.e. the same letter as the one that appeared 1 letter ago.),p,None,,,,,,,,,0,14,14,14,0,7,7,7,,,,,,,,,,,,,,,,,,,,,,,,,,,,,,,,,,,,,,,,,,,,,,,,,,,,,,,,,,,,,,,,,,,,,1.7974,884.5622416,None,None,1,884.5622416,None,,P028,FENCOG,2,Post,2022_Mar_16_1058,N-Back (New Version 2021),2021.1.4,119.9528346
,,,,Conditions/Version_1/oneback(4)_v1.xlsx,New rule: Press 'space' when you see 1-back (i.e. the same letter as the one that appeared 1 letter ago.),w,None,,,,,,,,,0,14,14,14,0,8,8,8,,,,,,,,,,,,,,,,,,,,,,,,,,,,,,,,,,,,,,,,,,,,,,,,,,,,,,,,,,,,,,,,,,,,,1.0782,887.6495378,None,None,1,887.6495378,None,,P028,FENCOG,2,Post,2022_Mar_16_1058,N-Back (New Version 2021),2021.1.4,119.9528346
,,,,Conditions/Version_1/oneback(4)_v1.xlsx,New rule: Press 'space' when you see 1-back (i.e. the same letter as the one that appeared 1 letter ago.),W,space,,,,,,,,,0,14,14,14,0,9,9,9,,,,,,,,,,,,,,,,,,,,,,,,,,,,,,,,,,,,,,,,,,,,,,,,,,,,,,,,,,,,,,,,,,,,,1.2952,890.9484247,None,space,1,890.9484247,None,0.8903135,P028,FENCOG,2,Post,2022_Mar_16_1058,N-Back (New Version 2021),2021.1.4,119.9528346
,,,,Conditions/Version_1/oneback(4)_v1.xlsx,New rule: Press 'space' when you see 1-back (i.e. the same letter as the one that appeared 1 letter ago.),,,,,,,,,,,0,14,14,14,,,,,,,,,,,,,,,,,,,,,,,,,,,,,,,,,,,,,,,,,,,,,,,,,,,,,,,,,,,,,,,,,,,,,,,,,,,,,,,,,P028,FENCOG,2,Post,2022_Mar_16_1058,N-Back (New Version 2021),2021.1.4,119.9528346
,,,,Conditions/Version_1/threeback(4)_v1.xlsx,New rule: Press 'space' when you see 3-back (i.e. the same letter as the one that appeared 3 letters ago.),A,None,,,,,,,,,0,15,15,15,0,0,0,0,,,,,,,,,,,,,,,,,,,,,,,,,,,,,,,,,,,,,,,,,,,,,,,,,,,,,,,,,,,892.9846078,None,895.9733097,None,space,4.129272,895.9733097,None,892.9846078,None,1.723,901.8550902,None,None,1,901.8550902,None,,P028,FENCOG,2,Post,2022_Mar_16_1058,N-Back (New Version 2021),2021.1.4,119.9528346
,,,,Conditions/Version_1/threeback(4)_v1.xlsx,New rule: Press 'space' when you see 3-back (i.e. the same letter as the one that appeared 3 letters ago.),n,None,,,,,,,,,0,15,15,15,0,1,1,1,,,,,,,,,,,,,,,,,,,,,,,,,,,,,,,,,,,,,,,,,,,,,,,,,,,,,,,,,,,,,,,,,,,,,1.32,905.1878799,None,None,1,905.1878799,None,,P028,FENCOG,2,Post,2022_Mar_16_1058,N-Back (New Version 2021),2021.1.4,119.9528346
,,,,Conditions/Version_1/threeback(4)_v1.xlsx,New rule: Press 'space' when you see 3-back (i.e. the same letter as the one that appeared 3 letters ago.),g,None,,,,,,,,,0,15,15,15,0,2,2,2,,,,,,,,,,,,,,,,,,,,,,,,,,,,,,,,,,,,,,,,,,,,,,,,,,,,,,,,,,,,,,,,,,,,,1.7354,908.9349679,None,None,1,908.9349679,None,,P028,FENCOG,2,Post,2022_Mar_16_1058,N-Back (New Version 2021),2021.1.4,119.9528346
,,,,Conditions/Version_1/threeback(4)_v1.xlsx,New rule: Press 'space' when you see 3-back (i.e. the same letter as the one that appeared 3 letters ago.),A,space,,,,,,,,,0,15,15,15,0,3,3,3,,,,,,,,,,,,,,,,,,,,,,,,,,,,,,,,,,,,,,,,,,,,,,,,,,,,,,,,,,,,,,,,,,,,,1.1092,912.0542771,None,space,1,912.0542771,None,0.9044891,P028,FENCOG,2,Post,2022_Mar_16_1058,N-Back (New Version 2021),2021.1.4,119.9528346
,,,,Conditions/Version_1/threeback(4)_v1.xlsx,New rule: Press 'space' when you see 3-back (i.e. the same letter as the one that appeared 3 letters ago.),p,None,,,,,,,,,0,15,15,15,0,4,4,4,,,,,,,,,,,,,,,,,,,,,,,,,,,,,,,,,,,,,,,,,,,,,,,,,,,,,,,,,,,,,,,,,,,,,1.94,915.9995842,None,None,1,915.9995842,None,,P028,FENCOG,2,Post,2022_Mar_16_1058,N-Back (New Version 2021),2021.1.4,119.9528346
,,,,Conditions/Version_1/threeback(4)_v1.xlsx,New rule: Press 'space' when you see 3-back (i.e. the same letter as the one that appeared 3 letters ago.),O,None,,,,,,,,,0,15,15,15,0,5,5,5,,,,,,,,,,,,,,,,,,,,,,,,,,,,,,,,,,,,,,,,,,,,,,,,,,,,,,,,,,,,,,,,,,,,,1.0906,919.0904708,None,None,1,919.0904708,None,,P028,FENCOG,2,Post,2022_Mar_16_1058,N-Back (New Version 2021),2021.1.4,119.9528346
,,,,Conditions/Version_1/threeback(4)_v1.xlsx,New rule: Press 'space' when you see 3-back (i.e. the same letter as the one that appeared 3 letters ago.),a,space,,,,,,,,,0,15,15,15,0,6,6,6,,,,,,,,,,,,,,,,,,,,,,,,,,,,,,,,,,,,,,,,,,,,,,,,,,,,,,,,,,,,,,,,,,,,,1.2518,922.3475506,None,space,1,922.3475506,None,0.7069906,P028,FENCOG,2,Post,2022_Mar_16_1058,N-Back (New Version 2021),2021.1.4,119.9528346
,,,,Conditions/Version_1/threeback(4)_v1.xlsx,New rule: Press 'space' when you see 3-back (i.e. the same letter as the one that appeared 3 letters ago.),p,space,,,,,,,,,0,15,15,15,0,7,7,7,,,,,,,,,,,,,,,,,,,,,,,,,,,,,,,,,,,,,,,,,,,,,,,,,,,,,,,,,,,,,,,,,,,,,1.785,926.1383543,None,None,0,926.1383543,None,,P028,FENCOG,2,Post,2022_Mar_16_1058,N-Back (New Version 2021),2021.1.4,119.9528346
,,,,Conditions/Version_1/threeback(4)_v1.xlsx,New rule: Press 'space' when you see 3-back (i.e. the same letter as the one that appeared 3 letters ago.),x,None,,,,,,,,,0,15,15,15,0,8,8,8,,,,,,,,,,,,,,,,,,,,,,,,,,,,,,,,,,,,,,,,,,,,,,,,,,,,,,,,,,,,,,,,,,,,,1.5246,929.662004,None,None,1,929.662004,None,,P028,FENCOG,2,Post,2022_Mar_16_1058,N-Back (New Version 2021),2021.1.4,119.9528346
,,,,Conditions/Version_1/threeback(4)_v1.xlsx,New rule: Press 'space' when you see 3-back (i.e. the same letter as the one that appeared 3 letters ago.),X,None,,,,,,,,,0,15,15,15,0,9,9,9,,,,,,,,,,,,,,,,,,,,,,,,,,,,,,,,,,,,,,,,,,,,,,,,,,,,,,,,,,,,,,,,,,,,,1.351,933.0191027,None,None,1,933.0191027,None,,P028,FENCOG,2,Post,2022_Mar_16_1058,N-Back (New Version 2021),2021.1.4,119.9528346
,,,,Conditions/Version_1/threeback(4)_v1.xlsx,New rule: Press 'space' when you see 3-back (i.e. the same letter as the one that appeared 3 letters ago.),,,,,,,,,,,0,15,15,15,,,,,,,,,,,,,,,,,,,,,,,,,,,,,,,,,,,,,,,,,,,,,,,,,,,,,,,,,,,,,,,,,,,,,,,,,,,,,,,,,P028,FENCOG,2,Post,2022_Mar_16_1058,N-Back (New Version 2021),2021.1.4,119.9528346
