CondFileP,InstructionsP,LettersDisplayedP,CorrectnessP,CondFile,Instructions,LettersDisplayed,Correctness,practicetrials.thisRepN,practicetrials.thisTrialN,practicetrials.thisN,practicetrials.thisIndex,InnerLoopPractice.thisRepN,InnerLoopPractice.thisTrialN,InnerLoopPractice.thisN,InnerLoopPractice.thisIndex,trials.thisRepN,trials.thisTrialN,trials.thisN,trials.thisIndex,InnerLoop.thisRepN,InnerLoop.thisTrialN,InnerLoop.thisN,InnerLoop.thisIndex,TaskVersionText.started,TaskVersionText.stopped,InstrKey1.keys,InstrKey1.rt,InstrKey1.started,InstrKey1.stopped,text.started,text.stopped,key_resp_4.keys,key_resp_4.rt,key_resp_4.started,key_resp_4.stopped,text_2.started,text_2.stopped,key_resp_3.keys,key_resp_3.rt,key_resp_3.started,key_resp_3.stopped,text_3.started,text_3.stopped,key_resp_2.keys,key_resp_2.rt,key_resp_2.started,key_resp_2.stopped,PractIn1.started,PractIn1.stopped,PractIn2.started,PractIn2.stopped,PractInstructionPass.keys,PractInstructionPass.rt,PractInstructionPass.started,PractInstructionPass.stopped,PractBlock1.started,PractBlock1.stopped,ISIjitterPractice,ISI_Pract_Fixation.started,ISI_Pract_Fixation.stopped,N_backP.started,N_backP.stopped,KeyPractice.keys,KeyPractice.corr,KeyPractice.started,KeyPractice.stopped,text_4.started,text_4.stopped,KeyPractice.rt,TransitionText.started,TransitionText.stopped,key_resp_6.keys,key_resp_6.rt,key_resp_6.started,key_resp_6.stopped,text_5.started,text_5.stopped,key_resp_5.keys,key_resp_5.rt,key_resp_5.started,key_resp_5.stopped,MainInt1.started,MainInt1.stopped,MainInt2.started,MainInt2.stopped,InstructionPass.keys,InstructionPass.rt,InstructionPass.started,InstructionPass.stopped,Blocks1.started,Blocks1.stopped,ISIjitter,N_backD.started,N_backD.stopped,key_resp.keys,key_resp.corr,key_resp.started,key_resp.stopped,key_resp.rt,participant,Study Name,Task Version (required to run),PRE/POST,date,expName,psychopyVersion,frameRate
,,,,,,,,,,,,,,,,,,,,,,,,20.1452358,None,space,6.0567357,20.6342861,None,,,,,,,,,,,,,,,,,,,,,,,,,,,,,,,,,,,,,,,,,,,,,,,,,,,,,,,,,,,,,,,,,,,,,,,P028,fencog,1,Pre,2022_Mar_08_1110,N-Back (New Version 2021),2021.1.4,120.0284228
,,,,,,,,,,,,,,,,,,,,,,,,,,,,,,26.718952,None,space,136.4349602,27.2161013,None,,,,,,,,,,,,,,,,,,,,,,,,,,,,,,,,,,,,,,,,,,,,,,,,,,,,,,,,,,,,,,,,,P028,fencog,1,Pre,2022_Mar_08_1110,N-Back (New Version 2021),2021.1.4,120.0284228
,,,,,,,,,,,,,,,,,,,,,,,,,,,,,,,,,,,,163.6812376,None,space,8.6349432,164.1759751,None,,,,,,,,,,,,,,,,,,,,,,,,,,,,,,,,,,,,,,,,,,,,,,,,,,,,,,,,,,,P028,fencog,1,Pre,2022_Mar_08_1110,N-Back (New Version 2021),2021.1.4,120.0284228
,,,,,,,,,,,,,,,,,,,,,,,,,,,,,,,,,,,,,,,,,,172.8408181,None,space,7.8715578,173.3314349,None,,,,,,,,,,,,,,,,,,,,,,,,,,,,,,,,,,,,,,,,,,,,,,,,,,,,,P028,fencog,1,Pre,2022_Mar_08_1110,N-Back (New Version 2021),2021.1.4,120.0284228
Conditions/Version_1Pr/zeroback(1)_v1.xlsx,Rule: Press 'space' when you see the letter 'x' or 'X'.,Z,None,,,,,0,0,0,0,0,0,0,0,,,,,,,,,,,,,,,,,,,,,,,,,,,,,,,,,182.5999105,None,185.5863986,None,space,0.8486088,185.5863986,None,182.5999105,None,1.815,186.4612443,None,188.2837516,None,None,1,188.2837516,None,190.2852523,None,,,,,,,,,,,,,,,,,,,,,,,,,,,,,,,,P028,fencog,1,Pre,2022_Mar_08_1110,N-Back (New Version 2021),2021.1.4,120.0284228
Conditions/Version_1Pr/zeroback(1)_v1.xlsx,Rule: Press 'space' when you see the letter 'x' or 'X'.,r,None,,,,,0,0,0,0,0,1,1,1,,,,,,,,,,,,,,,,,,,,,,,,,,,,,,,,,,,,,,,,,,,1.44,191.7834764,None,193.225289,None,None,1,193.225289,None,195.2325259,None,,,,,,,,,,,,,,,,,,,,,,,,,,,,,,,,P028,fencog,1,Pre,2022_Mar_08_1110,N-Back (New Version 2021),2021.1.4,120.0284228
Conditions/Version_1Pr/zeroback(1)_v1.xlsx,Rule: Press 'space' when you see the letter 'x' or 'X'.,X,space,,,,,0,0,0,0,0,2,2,2,,,,,,,,,,,,,,,,,,,,,,,,,,,,,,,,,,,,,,,,,,,1.915,196.7321201,None,198.650297,None,space,1,198.650297,None,199.0412459,None,0.3766195,,,,,,,,,,,,,,,,,,,,,,,,,,,,,,,P028,fencog,1,Pre,2022_Mar_08_1110,N-Back (New Version 2021),2021.1.4,120.0284228
Conditions/Version_1Pr/zeroback(1)_v1.xlsx,Rule: Press 'space' when you see the letter 'x' or 'X'.,p,None,,,,,0,0,0,0,0,3,3,3,,,,,,,,,,,,,,,,,,,,,,,,,,,,,,,,,,,,,,,,,,,1.59,200.5475832,None,202.1399633,None,None,1,202.1399633,None,204.1465368,None,,,,,,,,,,,,,,,,,,,,,,,,,,,,,,,,P028,fencog,1,Pre,2022_Mar_08_1110,N-Back (New Version 2021),2021.1.4,120.0284228
Conditions/Version_1Pr/zeroback(1)_v1.xlsx,Rule: Press 'space' when you see the letter 'x' or 'X'.,w,None,,,,,0,0,0,0,0,4,4,4,,,,,,,,,,,,,,,,,,,,,,,,,,,,,,,,,,,,,,,,,,,1.515,205.6462012,None,207.1641161,None,None,1,207.1641161,None,209.1701165,None,,,,,,,,,,,,,,,,,,,,,,,,,,,,,,,,P028,fencog,1,Pre,2022_Mar_08_1110,N-Back (New Version 2021),2021.1.4,120.0284228
Conditions/Version_1Pr/zeroback(1)_v1.xlsx,Rule: Press 'space' when you see the letter 'x' or 'X'.,e,None,,,,,0,0,0,0,0,5,5,5,,,,,,,,,,,,,,,,,,,,,,,,,,,,,,,,,,,,,,,,,,,1.14,210.6709921,None,211.8125783,None,None,1,211.8125783,None,213.8187507,None,,,,,,,,,,,,,,,,,,,,,,,,,,,,,,,,P028,fencog,1,Pre,2022_Mar_08_1110,N-Back (New Version 2021),2021.1.4,120.0284228
Conditions/Version_1Pr/zeroback(1)_v1.xlsx,Rule: Press 'space' when you see the letter 'x' or 'X'.,X,space,,,,,0,0,0,0,0,6,6,6,,,,,,,,,,,,,,,,,,,,,,,,,,,,,,,,,,,,,,,,,,,1.765,215.3183077,None,217.0880561,None,space,1,217.0880561,None,217.6357108,None,0.5310062,,,,,,,,,,,,,,,,,,,,,,,,,,,,,,,P028,fencog,1,Pre,2022_Mar_08_1110,N-Back (New Version 2021),2021.1.4,120.0284228
Conditions/Version_1Pr/zeroback(1)_v1.xlsx,Rule: Press 'space' when you see the letter 'x' or 'X'.,x,space,,,,,0,0,0,0,0,7,7,7,,,,,,,,,,,,,,,,,,,,,,,,,,,,,,,,,,,,,,,,,,,1.965,219.1434753,None,221.1087856,None,space,1,221.1087856,None,221.5786981,None,0.45455,,,,,,,,,,,,,,,,,,,,,,,,,,,,,,,P028,fencog,1,Pre,2022_Mar_08_1110,N-Back (New Version 2021),2021.1.4,120.0284228
Conditions/Version_1Pr/zeroback(1)_v1.xlsx,Rule: Press 'space' when you see the letter 'x' or 'X'.,p,None,,,,,0,0,0,0,0,8,8,8,,,,,,,,,,,,,,,,,,,,,,,,,,,,,,,,,,,,,,,,,,,1.64,223.0826028,None,224.7246783,None,None,1,224.7246783,None,226.7315613,None,,,,,,,,,,,,,,,,,,,,,,,,,,,,,,,,P028,fencog,1,Pre,2022_Mar_08_1110,N-Back (New Version 2021),2021.1.4,120.0284228
Conditions/Version_1Pr/zeroback(1)_v1.xlsx,Rule: Press 'space' when you see the letter 'x' or 'X'.,r,None,,,,,0,0,0,0,0,9,9,9,,,,,,,,,,,,,,,,,,,,,,,,,,,,,,,,,,,,,,,,,,,1.615,228.2311418,None,229.8534004,None,None,1,229.8534004,None,231.8567752,None,,,,,,,,,,,,,,,,,,,,,,,,,,,,,,,,P028,fencog,1,Pre,2022_Mar_08_1110,N-Back (New Version 2021),2021.1.4,120.0284228
Conditions/Version_1Pr/zeroback(1)_v1.xlsx,Rule: Press 'space' when you see the letter 'x' or 'X'.,,,,,,,0,0,0,0,,,,,,,,,,,,,,,,,,,,,,,,,,,,,,,,,,,,,,,,,,,,,,,,,,,,,,,,,,,,,,,,,,,,,,,,,,,,,,,,,,,,,,,,,P028,fencog,1,Pre,2022_Mar_08_1110,N-Back (New Version 2021),2021.1.4,120.0284228
Conditions/Version_1Pr/oneback(1)_v1.xlsx,New rule: Press 'space' when you see 1-back (i.e. the same letter as the one that appeared 1 letter ago.),a,None,,,,,0,1,1,1,0,0,0,0,,,,,,,,,,,,,,,,,,,,,,,,,,,,,,,,,233.3829008,None,236.3724695,None,space,8.6065129,236.3724695,None,233.3829008,None,1.965,245.0019313,None,246.9704675,None,None,1,246.9704675,None,248.9749285,None,,,,,,,,,,,,,,,,,,,,,,,,,,,,,,,,P028,fencog,1,Pre,2022_Mar_08_1110,N-Back (New Version 2021),2021.1.4,120.0284228
Conditions/Version_1Pr/oneback(1)_v1.xlsx,New rule: Press 'space' when you see 1-back (i.e. the same letter as the one that appeared 1 letter ago.),x,None,,,,,0,1,1,1,0,1,1,1,,,,,,,,,,,,,,,,,,,,,,,,,,,,,,,,,,,,,,,,,,,1.04,250.4745881,None,251.5178885,None,None,1,251.5178885,None,253.5236825,None,,,,,,,,,,,,,,,,,,,,,,,,,,,,,,,,P028,fencog,1,Pre,2022_Mar_08_1110,N-Back (New Version 2021),2021.1.4,120.0284228
Conditions/Version_1Pr/oneback(1)_v1.xlsx,New rule: Press 'space' when you see 1-back (i.e. the same letter as the one that appeared 1 letter ago.),g,None,,,,,0,1,1,1,0,2,2,2,,,,,,,,,,,,,,,,,,,,,,,,,,,,,,,,,,,,,,,,,,,1.54,255.0232677,None,256.5672424,None,None,1,256.5672424,None,258.572217,None,,,,,,,,,,,,,,,,,,,,,,,,,,,,,,,,P028,fencog,1,Pre,2022_Mar_08_1110,N-Back (New Version 2021),2021.1.4,120.0284228
Conditions/Version_1Pr/oneback(1)_v1.xlsx,New rule: Press 'space' when you see 1-back (i.e. the same letter as the one that appeared 1 letter ago.),G,space,,,,,0,1,1,1,0,3,3,3,,,,,,,,,,,,,,,,,,,,,,,,,,,,,,,,,,,,,,,,,,,1.615,260.0718203,None,261.6921623,None,space,1,261.6921623,None,262.0382601,None,0.3347229,,,,,,,,,,,,,,,,,,,,,,,,,,,,,,,P028,fencog,1,Pre,2022_Mar_08_1110,N-Back (New Version 2021),2021.1.4,120.0284228
Conditions/Version_1Pr/oneback(1)_v1.xlsx,New rule: Press 'space' when you see 1-back (i.e. the same letter as the one that appeared 1 letter ago.),u,None,,,,,0,1,1,1,0,4,4,4,,,,,,,,,,,,,,,,,,,,,,,,,,,,,,,,,,,,,,,,,,,1.665,263.5374336,None,265.2051779,None,None,1,265.2051779,None,267.2112881,None,,,,,,,,,,,,,,,,,,,,,,,,,,,,,,,,P028,fencog,1,Pre,2022_Mar_08_1110,N-Back (New Version 2021),2021.1.4,120.0284228
Conditions/Version_1Pr/oneback(1)_v1.xlsx,New rule: Press 'space' when you see 1-back (i.e. the same letter as the one that appeared 1 letter ago.),y,None,,,,,0,1,1,1,0,5,5,5,,,,,,,,,,,,,,,,,,,,,,,,,,,,,,,,,,,,,,,,,,,1.065,268.7108111,None,269.777905,None,None,1,269.777905,None,271.7885473,None,,,,,,,,,,,,,,,,,,,,,,,,,,,,,,,,P028,fencog,1,Pre,2022_Mar_08_1110,N-Back (New Version 2021),2021.1.4,120.0284228
Conditions/Version_1Pr/oneback(1)_v1.xlsx,New rule: Press 'space' when you see 1-back (i.e. the same letter as the one that appeared 1 letter ago.),y,space,,,,,0,1,1,1,0,6,6,6,,,,,,,,,,,,,,,,,,,,,,,,,,,,,,,,,,,,,,,,,,,1.515,273.284466,None,274.8004798,None,space,1,274.8004798,None,275.1980666,None,0.3789405,,,,,,,,,,,,,,,,,,,,,,,,,,,,,,,P028,fencog,1,Pre,2022_Mar_08_1110,N-Back (New Version 2021),2021.1.4,120.0284228
Conditions/Version_1Pr/oneback(1)_v1.xlsx,New rule: Press 'space' when you see 1-back (i.e. the same letter as the one that appeared 1 letter ago.),k,None,,,,,0,1,1,1,0,7,7,7,,,,,,,,,,,,,,,,,,,,,,,,,,,,,,,,,,,,,,,,,,,1.69,276.7001634,None,278.393052,None,None,1,278.393052,None,280.3951161,None,,,,,,,,,,,,,,,,,,,,,,,,,,,,,,,,P028,fencog,1,Pre,2022_Mar_08_1110,N-Back (New Version 2021),2021.1.4,120.0284228
Conditions/Version_1Pr/oneback(1)_v1.xlsx,New rule: Press 'space' when you see 1-back (i.e. the same letter as the one that appeared 1 letter ago.),c,None,,,,,0,1,1,1,0,8,8,8,,,,,,,,,,,,,,,,,,,,,,,,,,,,,,,,,,,,,,,,,,,1.94,281.8986579,None,283.8414967,None,None,1,283.8414967,None,285.8474631,None,,,,,,,,,,,,,,,,,,,,,,,,,,,,,,,,P028,fencog,1,Pre,2022_Mar_08_1110,N-Back (New Version 2021),2021.1.4,120.0284228
Conditions/Version_1Pr/oneback(1)_v1.xlsx,New rule: Press 'space' when you see 1-back (i.e. the same letter as the one that appeared 1 letter ago.),r,None,,,,,0,1,1,1,0,9,9,9,,,,,,,,,,,,,,,,,,,,,,,,,,,,,,,,,,,,,,,,,,,1.815,287.3470007,None,289.1639023,None,None,1,289.1639023,None,291.1671513,None,,,,,,,,,,,,,,,,,,,,,,,,,,,,,,,,P028,fencog,1,Pre,2022_Mar_08_1110,N-Back (New Version 2021),2021.1.4,120.0284228
Conditions/Version_1Pr/oneback(1)_v1.xlsx,New rule: Press 'space' when you see 1-back (i.e. the same letter as the one that appeared 1 letter ago.),,,,,,,0,1,1,1,,,,,,,,,,,,,,,,,,,,,,,,,,,,,,,,,,,,,,,,,,,,,,,,,,,,,,,,,,,,,,,,,,,,,,,,,,,,,,,,,,,,,,,,,P028,fencog,1,Pre,2022_Mar_08_1110,N-Back (New Version 2021),2021.1.4,120.0284228
Conditions/Version_1Pr/twoback(1)_v1.xlsx,New rule: Press 'space' when you see 2-back (i.e. the same letter as the one that appeared 2 letters ago.),E,None,,,,,0,2,2,2,0,0,0,0,,,,,,,,,,,,,,,,,,,,,,,,,,,,,,,,,292.6999282,None,295.6881975,None,space,0.834596,295.6881975,None,292.6999282,None,1.74,296.5457643,None,298.2889472,None,None,1,298.2889472,None,300.293299,None,,,,,,,,,,,,,,,,,,,,,,,,,,,,,,,,P028,fencog,1,Pre,2022_Mar_08_1110,N-Back (New Version 2021),2021.1.4,120.0284228
Conditions/Version_1Pr/twoback(1)_v1.xlsx,New rule: Press 'space' when you see 2-back (i.e. the same letter as the one that appeared 2 letters ago.),p,None,,,,,0,2,2,2,0,1,1,1,,,,,,,,,,,,,,,,,,,,,,,,,,,,,,,,,,,,,,,,,,,1.09,301.7927713,None,302.8838902,None,None,1,302.8838902,None,304.8835036,None,,,,,,,,,,,,,,,,,,,,,,,,,,,,,,,,P028,fencog,1,Pre,2022_Mar_08_1110,N-Back (New Version 2021),2021.1.4,120.0284228
Conditions/Version_1Pr/twoback(1)_v1.xlsx,New rule: Press 'space' when you see 2-back (i.e. the same letter as the one that appeared 2 letters ago.),e,space,,,,,0,2,2,2,0,2,2,2,,,,,,,,,,,,,,,,,,,,,,,,,,,,,,,,,,,,,,,,,,,1.94,306.3830043,None,308.3249059,None,space,1,308.3249059,None,308.7504482,None,0.4139047,,,,,,,,,,,,,,,,,,,,,,,,,,,,,,,P028,fencog,1,Pre,2022_Mar_08_1110,N-Back (New Version 2021),2021.1.4,120.0284228
Conditions/Version_1Pr/twoback(1)_v1.xlsx,New rule: Press 'space' when you see 2-back (i.e. the same letter as the one that appeared 2 letters ago.),s,None,,,,,0,2,2,2,0,3,3,3,,,,,,,,,,,,,,,,,,,,,,,,,,,,,,,,,,,,,,,,,,,1.34,310.2566963,None,311.6027008,None,None,1,311.6027008,None,313.6060078,None,,,,,,,,,,,,,,,,,,,,,,,,,,,,,,,,P028,fencog,1,Pre,2022_Mar_08_1110,N-Back (New Version 2021),2021.1.4,120.0284228
Conditions/Version_1Pr/twoback(1)_v1.xlsx,New rule: Press 'space' when you see 2-back (i.e. the same letter as the one that appeared 2 letters ago.),S,None,,,,,0,2,2,2,0,4,4,4,,,,,,,,,,,,,,,,,,,,,,,,,,,,,,,,,,,,,,,,,,,1.365,315.1052711,None,316.4727695,None,None,1,316.4727695,None,318.4795064,None,,,,,,,,,,,,,,,,,,,,,,,,,,,,,,,,P028,fencog,1,Pre,2022_Mar_08_1110,N-Back (New Version 2021),2021.1.4,120.0284228
Conditions/Version_1Pr/twoback(1)_v1.xlsx,New rule: Press 'space' when you see 2-back (i.e. the same letter as the one that appeared 2 letters ago.),s,space,,,,,0,2,2,2,0,5,5,5,,,,,,,,,,,,,,,,,,,,,,,,,,,,,,,,,,,,,,,,,,,1.99,319.9790687,None,321.9700884,None,space,1,321.9700884,None,322.4049515,None,0.424856,,,,,,,,,,,,,,,,,,,,,,,,,,,,,,,P028,fencog,1,Pre,2022_Mar_08_1110,N-Back (New Version 2021),2021.1.4,120.0284228
Conditions/Version_1Pr/twoback(1)_v1.xlsx,New rule: Press 'space' when you see 2-back (i.e. the same letter as the one that appeared 2 letters ago.),P,None,,,,,0,2,2,2,0,6,6,6,,,,,,,,,,,,,,,,,,,,,,,,,,,,,,,,,,,,,,,,,,,2.015,323.9112318,None,325.9346009,None,None,1,325.9346009,None,327.9350346,None,,,,,,,,,,,,,,,,,,,,,,,,,,,,,,,,P028,fencog,1,Pre,2022_Mar_08_1110,N-Back (New Version 2021),2021.1.4,120.0284228
Conditions/Version_1Pr/twoback(1)_v1.xlsx,New rule: Press 'space' when you see 2-back (i.e. the same letter as the one that appeared 2 letters ago.),C,None,,,,,0,2,2,2,0,7,7,7,,,,,,,,,,,,,,,,,,,,,,,,,,,,,,,,,,,,,,,,,,,1.465,329.434596,None,330.9023194,None,None,1,330.9023194,None,332.9082288,None,,,,,,,,,,,,,,,,,,,,,,,,,,,,,,,,P028,fencog,1,Pre,2022_Mar_08_1110,N-Back (New Version 2021),2021.1.4,120.0284228
Conditions/Version_1Pr/twoback(1)_v1.xlsx,New rule: Press 'space' when you see 2-back (i.e. the same letter as the one that appeared 2 letters ago.),x,None,,,,,0,2,2,2,0,8,8,8,,,,,,,,,,,,,,,,,,,,,,,,,,,,,,,,,,,,,,,,,,,1.915,334.4081304,None,336.3278648,None,None,1,336.3278648,None,338.3319575,None,,,,,,,,,,,,,,,,,,,,,,,,,,,,,,,,P028,fencog,1,Pre,2022_Mar_08_1110,N-Back (New Version 2021),2021.1.4,120.0284228
Conditions/Version_1Pr/twoback(1)_v1.xlsx,New rule: Press 'space' when you see 2-back (i.e. the same letter as the one that appeared 2 letters ago.),Z,None,,,,,0,2,2,2,0,9,9,9,,,,,,,,,,,,,,,,,,,,,,,,,,,,,,,,,,,,,,,,,,,1.44,339.8316296,None,341.2745358,None,None,1,341.2745358,None,343.2806104,None,,,,,,,,,,,,,,,,,,,,,,,,,,,,,,,,P028,fencog,1,Pre,2022_Mar_08_1110,N-Back (New Version 2021),2021.1.4,120.0284228
Conditions/Version_1Pr/twoback(1)_v1.xlsx,New rule: Press 'space' when you see 2-back (i.e. the same letter as the one that appeared 2 letters ago.),,,,,,,0,2,2,2,,,,,,,,,,,,,,,,,,,,,,,,,,,,,,,,,,,,,,,,,,,,,,,,,,,,,,,,,,,,,,,,,,,,,,,,,,,,,,,,,,,,,,,,,P028,fencog,1,Pre,2022_Mar_08_1110,N-Back (New Version 2021),2021.1.4,120.0284228
Conditions/Version_1Pr/threeback(1)_v1.xlsx,New rule: Press 'space' when you see 3-back (i.e. the same letter as the one that appeared 3 letters ago.),r,None,,,,,0,3,3,3,0,0,0,0,,,,,,,,,,,,,,,,,,,,,,,,,,,,,,,,,344.8027764,None,347.7902186,None,space,0.1645911,347.7902186,None,344.8027764,None,1.64,347.9818451,None,349.629676,None,None,1,349.629676,None,351.6364218,None,,,,,,,,,,,,,,,,,,,,,,,,,,,,,,,,P028,fencog,1,Pre,2022_Mar_08_1110,N-Back (New Version 2021),2021.1.4,120.0284228
Conditions/Version_1Pr/threeback(1)_v1.xlsx,New rule: Press 'space' when you see 3-back (i.e. the same letter as the one that appeared 3 letters ago.),a,None,,,,,0,3,3,3,0,1,1,1,,,,,,,,,,,,,,,,,,,,,,,,,,,,,,,,,,,,,,,,,,,1.24,353.135781,None,354.3776185,None,None,1,354.3776185,None,356.3774065,None,,,,,,,,,,,,,,,,,,,,,,,,,,,,,,,,P028,fencog,1,Pre,2022_Mar_08_1110,N-Back (New Version 2021),2021.1.4,120.0284228
Conditions/Version_1Pr/threeback(1)_v1.xlsx,New rule: Press 'space' when you see 3-back (i.e. the same letter as the one that appeared 3 letters ago.),t,None,,,,,0,3,3,3,0,2,2,2,,,,,,,,,,,,,,,,,,,,,,,,,,,,,,,,,,,,,,,,,,,1.59,357.8845292,None,359.4762596,None,None,1,359.4762596,None,361.4869502,None,,,,,,,,,,,,,,,,,,,,,,,,,,,,,,,,P028,fencog,1,Pre,2022_Mar_08_1110,N-Back (New Version 2021),2021.1.4,120.0284228
Conditions/Version_1Pr/threeback(1)_v1.xlsx,New rule: Press 'space' when you see 3-back (i.e. the same letter as the one that appeared 3 letters ago.),r,space,,,,,0,3,3,3,0,3,3,3,,,,,,,,,,,,,,,,,,,,,,,,,,,,,,,,,,,,,,,,,,,2.015,362.983028,None,365.0001101,None,space,1,365.0001101,None,365.4753586,None,0.4588119,,,,,,,,,,,,,,,,,,,,,,,,,,,,,,,P028,fencog,1,Pre,2022_Mar_08_1110,N-Back (New Version 2021),2021.1.4,120.0284228
Conditions/Version_1Pr/threeback(1)_v1.xlsx,New rule: Press 'space' when you see 3-back (i.e. the same letter as the one that appeared 3 letters ago.),a,None,,,,,0,3,3,3,0,4,4,4,,,,,,,,,,,,,,,,,,,,,,,,,,,,,,,,,,,,,,,,,,,1.765,366.9818575,None,368.7490515,None,None,1,368.7490515,None,370.7556094,None,,,,,,,,,,,,,,,,,,,,,,,,,,,,,,,,P028,fencog,1,Pre,2022_Mar_08_1110,N-Back (New Version 2021),2021.1.4,120.0284228
Conditions/Version_1Pr/threeback(1)_v1.xlsx,New rule: Press 'space' when you see 3-back (i.e. the same letter as the one that appeared 3 letters ago.),Y,None,,,,,0,3,3,3,0,5,5,5,,,,,,,,,,,,,,,,,,,,,,,,,,,,,,,,,,,,,,,,,,,1.79,372.2551162,None,374.0485961,None,None,1,374.0485961,None,376.0543529,None,,,,,,,,,,,,,,,,,,,,,,,,,,,,,,,,P028,fencog,1,Pre,2022_Mar_08_1110,N-Back (New Version 2021),2021.1.4,120.0284228
Conditions/Version_1Pr/threeback(1)_v1.xlsx,New rule: Press 'space' when you see 3-back (i.e. the same letter as the one that appeared 3 letters ago.),q,None,,,,,0,3,3,3,0,6,6,6,,,,,,,,,,,,,,,,,,,,,,,,,,,,,,,,,,,,,,,,,,,1.665,377.5537227,None,379.2213218,None,None,1,379.2213218,None,381.225942,None,,,,,,,,,,,,,,,,,,,,,,,,,,,,,,,,P028,fencog,1,Pre,2022_Mar_08_1110,N-Back (New Version 2021),2021.1.4,120.0284228
Conditions/Version_1Pr/threeback(1)_v1.xlsx,New rule: Press 'space' when you see 3-back (i.e. the same letter as the one that appeared 3 letters ago.),A,space,,,,,0,3,3,3,0,7,7,7,,,,,,,,,,,,,,,,,,,,,,,,,,,,,,,,,,,,,,,,,,,1.99,382.7272578,None,384.7195407,None,space,1,384.7195407,None,385.5032533,None,0.7718055,,,,,,,,,,,,,,,,,,,,,,,,,,,,,,,P028,fencog,1,Pre,2022_Mar_08_1110,N-Back (New Version 2021),2021.1.4,120.0284228
Conditions/Version_1Pr/threeback(1)_v1.xlsx,New rule: Press 'space' when you see 3-back (i.e. the same letter as the one that appeared 3 letters ago.),y,None,,,,,0,3,3,3,0,8,8,8,,,,,,,,,,,,,,,,,,,,,,,,,,,,,,,,,,,,,,,,,,,1.165,387.0093091,None,388.1765385,None,None,1,388.1765385,None,390.1792375,None,,,,,,,,,,,,,,,,,,,,,,,,,,,,,,,,P028,fencog,1,Pre,2022_Mar_08_1110,N-Back (New Version 2021),2021.1.4,120.0284228
Conditions/Version_1Pr/threeback(1)_v1.xlsx,New rule: Press 'space' when you see 3-back (i.e. the same letter as the one that appeared 3 letters ago.),r,None,,,,,0,3,3,3,0,9,9,9,,,,,,,,,,,,,,,,,,,,,,,,,,,,,,,,,,,,,,,,,,,1.265,391.6829899,None,392.9510747,None,None,1,392.9510747,None,394.9569703,None,,,,,,,,,,,,,,,,,,,,,,,,,,,,,,,,P028,fencog,1,Pre,2022_Mar_08_1110,N-Back (New Version 2021),2021.1.4,120.0284228
Conditions/Version_1Pr/threeback(1)_v1.xlsx,New rule: Press 'space' when you see 3-back (i.e. the same letter as the one that appeared 3 letters ago.),,,,,,,0,3,3,3,,,,,,,,,,,,,,,,,,,,,,,,,,,,,,,,,,,,,,,,,,,,,,,,,,,,,,,,,,,,,,,,,,,,,,,,,,,,,,,,,,,,,,,,,P028,fencog,1,Pre,2022_Mar_08_1110,N-Back (New Version 2021),2021.1.4,120.0284228
,,,,,,,,,,,,,,,,,,,,,,,,,,,,,,,,,,,,,,,,,,,,,,,,,,,,,,,,,,,,,,,,,,,,,,396.46195,None,space,187.4629866,396.9479402,None,,,,,,,,,,,,,,,,,,,,,,,,,P028,fencog,1,Pre,2022_Mar_08_1110,N-Back (New Version 2021),2021.1.4,120.0284228
,,,,,,,,,,,,,,,,,,,,,,,,,,,,,,,,,,,,,,,,,,,,,,,,,,,,,,,,,,,,,,,,,,,,,,,,,,,,584.4320737,None,space,1.4684148,584.9264693,None,,,,,,,,,,,,,,,,,,,P028,fencog,1,Pre,2022_Mar_08_1110,N-Back (New Version 2021),2021.1.4,120.0284228
,,,,Conditions/Version_1/zeroback(1)_v1.xlsx,Rule: Press 'space' when you see the letter 'x' or 'X'.,b,None,,,,,,,,,0,0,0,0,0,0,0,0,,,,,,,,,,,,,,,,,,,,,,,,,,,,,,,,,,,,,,,,,,,,,,,,,,,,,,,,,,,586.5074785,None,589.4917415,None,space,0.4870088,589.4917415,None,586.5074785,None,1.4192,591.4254171,None,None,1,591.4254171,None,,P028,fencog,1,Pre,2022_Mar_08_1110,N-Back (New Version 2021),2021.1.4,120.0284228
,,,,Conditions/Version_1/zeroback(1)_v1.xlsx,Rule: Press 'space' when you see the letter 'x' or 'X'.,T,None,,,,,,,,,0,0,0,0,0,1,1,1,,,,,,,,,,,,,,,,,,,,,,,,,,,,,,,,,,,,,,,,,,,,,,,,,,,,,,,,,,,,,,,,,,,,,1.0224,594.4570792,None,None,1,594.4570792,None,,P028,fencog,1,Pre,2022_Mar_08_1110,N-Back (New Version 2021),2021.1.4,120.0284228
,,,,Conditions/Version_1/zeroback(1)_v1.xlsx,Rule: Press 'space' when you see the letter 'x' or 'X'.,L,None,,,,,,,,,0,0,0,0,0,2,2,2,,,,,,,,,,,,,,,,,,,,,,,,,,,,,,,,,,,,,,,,,,,,,,,,,,,,,,,,,,,,,,,,,,,,,1.661,598.1311069,None,None,1,598.1311069,None,,P028,fencog,1,Pre,2022_Mar_08_1110,N-Back (New Version 2021),2021.1.4,120.0284228
,,,,Conditions/Version_1/zeroback(1)_v1.xlsx,Rule: Press 'space' when you see the letter 'x' or 'X'.,x,space,,,,,,,,,0,0,0,0,0,3,3,3,,,,,,,,,,,,,,,,,,,,,,,,,,,,,,,,,,,,,,,,,,,,,,,,,,,,,,,,,,,,,,,,,,,,,1.475,601.6127165,None,space,1,601.6127165,None,1.4221926,P028,fencog,1,Pre,2022_Mar_08_1110,N-Back (New Version 2021),2021.1.4,120.0284228
,,,,Conditions/Version_1/zeroback(1)_v1.xlsx,Rule: Press 'space' when you see the letter 'x' or 'X'.,o,None,,,,,,,,,0,0,0,0,0,4,4,4,,,,,,,,,,,,,,,,,,,,,,,,,,,,,,,,,,,,,,,,,,,,,,,,,,,,,,,,,,,,,,,,,,,,,1.8346,605.4537301,None,None,1,605.4537301,None,,P028,fencog,1,Pre,2022_Mar_08_1110,N-Back (New Version 2021),2021.1.4,120.0284228
,,,,Conditions/Version_1/zeroback(1)_v1.xlsx,Rule: Press 'space' when you see the letter 'x' or 'X'.,P,None,,,,,,,,,0,0,0,0,0,5,5,5,,,,,,,,,,,,,,,,,,,,,,,,,,,,,,,,,,,,,,,,,,,,,,,,,,,,,,,,,,,,,,,,,,,,,1.2022,608.668865,None,None,1,608.668865,None,,P028,fencog,1,Pre,2022_Mar_08_1110,N-Back (New Version 2021),2021.1.4,120.0284228
,,,,Conditions/Version_1/zeroback(1)_v1.xlsx,Rule: Press 'space' when you see the letter 'x' or 'X'.,X,space,,,,,,,,,0,0,0,0,0,6,6,6,,,,,,,,,,,,,,,,,,,,,,,,,,,,,,,,,,,,,,,,,,,,,,,,,,,,,,,,,,,,,,,,,,,,,1.3572,612.0280295,None,space,1,612.0280295,None,0.3507662,P028,fencog,1,Pre,2022_Mar_08_1110,N-Back (New Version 2021),2021.1.4,120.0284228
,,,,Conditions/Version_1/zeroback(1)_v1.xlsx,Rule: Press 'space' when you see the letter 'x' or 'X'.,n,None,,,,,,,,,0,0,0,0,0,7,7,7,,,,,,,,,,,,,,,,,,,,,,,,,,,,,,,,,,,,,,,,,,,,,,,,,,,,,,,,,,,,,,,,,,,,,1.4254,615.468965,None,None,1,615.468965,None,,P028,fencog,1,Pre,2022_Mar_08_1110,N-Back (New Version 2021),2021.1.4,120.0284228
,,,,Conditions/Version_1/zeroback(1)_v1.xlsx,Rule: Press 'space' when you see the letter 'x' or 'X'.,M,None,,,,,,,,,0,0,0,0,0,8,8,8,,,,,,,,,,,,,,,,,,,,,,,,,,,,,,,,,,,,,,,,,,,,,,,,,,,,,,,,,,,,,,,,,,,,,1.103,618.5839718,None,None,1,618.5839718,None,,P028,fencog,1,Pre,2022_Mar_08_1110,N-Back (New Version 2021),2021.1.4,120.0284228
,,,,Conditions/Version_1/zeroback(1)_v1.xlsx,Rule: Press 'space' when you see the letter 'x' or 'X'.,a,None,,,,,,,,,0,0,0,0,0,9,9,9,,,,,,,,,,,,,,,,,,,,,,,,,,,,,,,,,,,,,,,,,,,,,,,,,,,,,,,,,,,,,,,,,,,,,1.5556,622.1500142,None,None,1,622.1500142,None,,P028,fencog,1,Pre,2022_Mar_08_1110,N-Back (New Version 2021),2021.1.4,120.0284228
,,,,Conditions/Version_1/zeroback(1)_v1.xlsx,Rule: Press 'space' when you see the letter 'x' or 'X'.,,,,,,,,,,,0,0,0,0,,,,,,,,,,,,,,,,,,,,,,,,,,,,,,,,,,,,,,,,,,,,,,,,,,,,,,,,,,,,,,,,,,,,,,,,,,,,,,,,,P028,fencog,1,Pre,2022_Mar_08_1110,N-Back (New Version 2021),2021.1.4,120.0284228
,,,,Conditions/Version_1/oneback(1)_v1.xlsx,New rule: Press 'space' when you see 1-back (i.e. the same letter as the one that appeared 1 letter ago.),b,None,,,,,,,,,0,1,1,1,0,0,0,0,,,,,,,,,,,,,,,,,,,,,,,,,,,,,,,,,,,,,,,,,,,,,,,,,,,,,,,,,,,624.1768601,None,627.1572207,None,space,0.3094938,627.1572207,None,624.1768601,None,1.0844,628.5794762,None,None,1,628.5794762,None,,P028,fencog,1,Pre,2022_Mar_08_1110,N-Back (New Version 2021),2021.1.4,120.0284228
,,,,Conditions/Version_1/oneback(1)_v1.xlsx,New rule: Press 'space' when you see 1-back (i.e. the same letter as the one that appeared 1 letter ago.),p,None,,,,,,,,,0,1,1,1,0,1,1,1,,,,,,,,,,,,,,,,,,,,,,,,,,,,,,,,,,,,,,,,,,,,,,,,,,,,,,,,,,,,,,,,,,,,,1.6486,632.2283731,None,None,1,632.2283731,None,,P028,fencog,1,Pre,2022_Mar_08_1110,N-Back (New Version 2021),2021.1.4,120.0284228
,,,,Conditions/Version_1/oneback(1)_v1.xlsx,New rule: Press 'space' when you see 1-back (i.e. the same letter as the one that appeared 1 letter ago.),M,None,,,,,,,,,0,1,1,1,0,2,2,2,,,,,,,,,,,,,,,,,,,,,,,,,,,,,,,,,,,,,,,,,,,,,,,,,,,,,,,,,,,,,,,,,,,,,1.0224,635.2535194,None,None,1,635.2535194,None,,P028,fencog,1,Pre,2022_Mar_08_1110,N-Back (New Version 2021),2021.1.4,120.0284228
,,,,Conditions/Version_1/oneback(1)_v1.xlsx,New rule: Press 'space' when you see 1-back (i.e. the same letter as the one that appeared 1 letter ago.),M,space,,,,,,,,,0,1,1,1,0,3,3,3,,,,,,,,,,,,,,,,,,,,,,,,,,,,,,,,,,,,,,,,,,,,,,,,,,,,,,,,,,,,,,,,,,,,,1.7664,639.0266305,None,space,1,639.0266305,None,0.3925211,P028,fencog,1,Pre,2022_Mar_08_1110,N-Back (New Version 2021),2021.1.4,120.0284228
,,,,Conditions/Version_1/oneback(1)_v1.xlsx,New rule: Press 'space' when you see 1-back (i.e. the same letter as the one that appeared 1 letter ago.),n,None,,,,,,,,,0,1,1,1,0,4,4,4,,,,,,,,,,,,,,,,,,,,,,,,,,,,,,,,,,,,,,,,,,,,,,,,,,,,,,,,,,,,,,,,,,,,,1.3014,642.3337745,None,None,1,642.3337745,None,,P028,fencog,1,Pre,2022_Mar_08_1110,N-Back (New Version 2021),2021.1.4,120.0284228
,,,,Conditions/Version_1/oneback(1)_v1.xlsx,New rule: Press 'space' when you see 1-back (i.e. the same letter as the one that appeared 1 letter ago.),g,None,,,,,,,,,0,1,1,1,0,5,5,5,,,,,,,,,,,,,,,,,,,,,,,,,,,,,,,,,,,,,,,,,,,,,,,,,,,,,,,,,,,,,,,,,,,,,1.5494,645.8926344,None,None,1,645.8926344,None,,P028,fencog,1,Pre,2022_Mar_08_1110,N-Back (New Version 2021),2021.1.4,120.0284228
,,,,Conditions/Version_1/oneback(1)_v1.xlsx,New rule: Press 'space' when you see 1-back (i.e. the same letter as the one that appeared 1 letter ago.),P,None,,,,,,,,,0,1,1,1,0,6,6,6,,,,,,,,,,,,,,,,,,,,,,,,,,,,,,,,,,,,,,,,,,,,,,,,,,,,,,,,,,,,,,,,,,,,,1.4068,649.3078825,None,None,1,649.3078825,None,,P028,fencog,1,Pre,2022_Mar_08_1110,N-Back (New Version 2021),2021.1.4,120.0284228
,,,,Conditions/Version_1/oneback(1)_v1.xlsx,New rule: Press 'space' when you see 1-back (i.e. the same letter as the one that appeared 1 letter ago.),o,None,,,,,,,,,0,1,1,1,0,7,7,7,,,,,,,,,,,,,,,,,,,,,,,,,,,,,,,,,,,,,,,,,,,,,,,,,,,,,,,,,,,,,,,,,,,,,1.5432,652.864133,None,None,1,652.864133,None,,P028,fencog,1,Pre,2022_Mar_08_1110,N-Back (New Version 2021),2021.1.4,120.0284228
,,,,Conditions/Version_1/oneback(1)_v1.xlsx,New rule: Press 'space' when you see 1-back (i.e. the same letter as the one that appeared 1 letter ago.),f,None,,,,,,,,,0,1,1,1,0,8,8,8,,,,,,,,,,,,,,,,,,,,,,,,,,,,,,,,,,,,,,,,,,,,,,,,,,,,,,,,,,,,,,,,,,,,,1.7912,656.6544897,None,None,1,656.6544897,None,,P028,fencog,1,Pre,2022_Mar_08_1110,N-Back (New Version 2021),2021.1.4,120.0284228
,,,,Conditions/Version_1/oneback(1)_v1.xlsx,New rule: Press 'space' when you see 1-back (i.e. the same letter as the one that appeared 1 letter ago.),F,space,,,,,,,,,0,1,1,1,0,9,9,9,,,,,,,,,,,,,,,,,,,,,,,,,,,,,,,,,,,,,,,,,,,,,,,,,,,,,,,,,,,,,,,,,,,,,1.5928,660.2538701,None,space,1,660.2538701,None,0.5489322,P028,fencog,1,Pre,2022_Mar_08_1110,N-Back (New Version 2021),2021.1.4,120.0284228
,,,,Conditions/Version_1/oneback(1)_v1.xlsx,New rule: Press 'space' when you see 1-back (i.e. the same letter as the one that appeared 1 letter ago.),,,,,,,,,,,0,1,1,1,,,,,,,,,,,,,,,,,,,,,,,,,,,,,,,,,,,,,,,,,,,,,,,,,,,,,,,,,,,,,,,,,,,,,,,,,,,,,,,,,P028,fencog,1,Pre,2022_Mar_08_1110,N-Back (New Version 2021),2021.1.4,120.0284228
,,,,Conditions/Version_1/twoback(1)_v1.xlsx,New rule: Press 'space' when you see 2-back (i.e. the same letter as the one that appeared 2 letters ago.),b,None,,,,,,,,,0,2,2,2,0,0,0,0,,,,,,,,,,,,,,,,,,,,,,,,,,,,,,,,,,,,,,,,,,,,,,,,,,,,,,,,,,,662.2766599,None,665.2624582,None,space,0.6684092,665.2624582,None,662.2766599,None,1.3696,667.3347414,None,None,1,667.3347414,None,,P028,fencog,1,Pre,2022_Mar_08_1110,N-Back (New Version 2021),2021.1.4,120.0284228
,,,,Conditions/Version_1/twoback(1)_v1.xlsx,New rule: Press 'space' when you see 2-back (i.e. the same letter as the one that appeared 2 letters ago.),h,None,,,,,,,,,0,2,2,2,0,1,1,1,,,,,,,,,,,,,,,,,,,,,,,,,,,,,,,,,,,,,,,,,,,,,,,,,,,,,,,,,,,,,,,,,,,,,1.3634,670.7100361,None,None,1,670.7100361,None,,P028,fencog,1,Pre,2022_Mar_08_1110,N-Back (New Version 2021),2021.1.4,120.0284228
,,,,Conditions/Version_1/twoback(1)_v1.xlsx,New rule: Press 'space' when you see 2-back (i.e. the same letter as the one that appeared 2 letters ago.),j,None,,,,,,,,,0,2,2,2,0,2,2,2,,,,,,,,,,,,,,,,,,,,,,,,,,,,,,,,,,,,,,,,,,,,,,,,,,,,,,,,,,,,,,,,,,,,,1.4626,674.1861076,None,None,1,674.1861076,None,,P028,fencog,1,Pre,2022_Mar_08_1110,N-Back (New Version 2021),2021.1.4,120.0284228
,,,,Conditions/Version_1/twoback(1)_v1.xlsx,New rule: Press 'space' when you see 2-back (i.e. the same letter as the one that appeared 2 letters ago.),H,space,,,,,,,,,0,2,2,2,0,3,3,3,,,,,,,,,,,,,,,,,,,,,,,,,,,,,,,,,,,,,,,,,,,,,,,,,,,,,,,,,,,,,,,,,,,,,1.1898,677.3760394,None,space,1,677.3760394,None,0.3787745,P028,fencog,1,Pre,2022_Mar_08_1110,N-Back (New Version 2021),2021.1.4,120.0284228
,,,,Conditions/Version_1/twoback(1)_v1.xlsx,New rule: Press 'space' when you see 2-back (i.e. the same letter as the one that appeared 2 letters ago.),p,None,,,,,,,,,0,2,2,2,0,4,4,4,,,,,,,,,,,,,,,,,,,,,,,,,,,,,,,,,,,,,,,,,,,,,,,,,,,,,,,,,,,,,,,,,,,,,1.7788,681.16536,None,None,1,681.16536,None,,P028,fencog,1,Pre,2022_Mar_08_1110,N-Back (New Version 2021),2021.1.4,120.0284228
,,,,Conditions/Version_1/twoback(1)_v1.xlsx,New rule: Press 'space' when you see 2-back (i.e. the same letter as the one that appeared 2 letters ago.),p,None,,,,,,,,,0,2,2,2,0,5,5,5,,,,,,,,,,,,,,,,,,,,,,,,,,,,,,,,,,,,,,,,,,,,,,,,,,,,,,,,,,,,,,,,,,,,,1.785,684.9630455,None,None,1,684.9630455,None,,P028,fencog,1,Pre,2022_Mar_08_1110,N-Back (New Version 2021),2021.1.4,120.0284228
,,,,Conditions/Version_1/twoback(1)_v1.xlsx,New rule: Press 'space' when you see 2-back (i.e. the same letter as the one that appeared 2 letters ago.),w,None,,,,,,,,,0,2,2,2,0,6,6,6,,,,,,,,,,,,,,,,,,,,,,,,,,,,,,,,,,,,,,,,,,,,,,,,,,,,,,,,,,,,,,,,,,,,,1.2642,688.2330038,None,None,1,688.2330038,None,,P028,fencog,1,Pre,2022_Mar_08_1110,N-Back (New Version 2021),2021.1.4,120.0284228
,,,,Conditions/Version_1/twoback(1)_v1.xlsx,New rule: Press 'space' when you see 2-back (i.e. the same letter as the one that appeared 2 letters ago.),R,None,,,,,,,,,0,2,2,2,0,7,7,7,,,,,,,,,,,,,,,,,,,,,,,,,,,,,,,,,,,,,,,,,,,,,,,,,,,,,,,,,,,,,,,,,,,,,1.1774,691.4285385,None,None,1,691.4285385,None,,P028,fencog,1,Pre,2022_Mar_08_1110,N-Back (New Version 2021),2021.1.4,120.0284228
,,,,Conditions/Version_1/twoback(1)_v1.xlsx,New rule: Press 'space' when you see 2-back (i.e. the same letter as the one that appeared 2 letters ago.),a,None,,,,,,,,,0,2,2,2,0,8,8,8,,,,,,,,,,,,,,,,,,,,,,,,,,,,,,,,,,,,,,,,,,,,,,,,,,,,,,,,,,,,,,,,,,,,,1.6858,695.1182335,None,None,1,695.1182335,None,,P028,fencog,1,Pre,2022_Mar_08_1110,N-Back (New Version 2021),2021.1.4,120.0284228
,,,,Conditions/Version_1/twoback(1)_v1.xlsx,New rule: Press 'space' when you see 2-back (i.e. the same letter as the one that appeared 2 letters ago.),r,space,,,,,,,,,0,2,2,2,0,9,9,9,,,,,,,,,,,,,,,,,,,,,,,,,,,,,,,,,,,,,,,,,,,,,,,,,,,,,,,,,,,,,,,,,,,,,1.4936,698.6171299,None,space,1,698.6171299,None,0.4978819,P028,fencog,1,Pre,2022_Mar_08_1110,N-Back (New Version 2021),2021.1.4,120.0284228
,,,,Conditions/Version_1/twoback(1)_v1.xlsx,New rule: Press 'space' when you see 2-back (i.e. the same letter as the one that appeared 2 letters ago.),,,,,,,,,,,0,2,2,2,,,,,,,,,,,,,,,,,,,,,,,,,,,,,,,,,,,,,,,,,,,,,,,,,,,,,,,,,,,,,,,,,,,,,,,,,,,,,,,,,P028,fencog,1,Pre,2022_Mar_08_1110,N-Back (New Version 2021),2021.1.4,120.0284228
,,,,Conditions/Version_1/threeback(1)_v1.xlsx,New rule: Press 'space' when you see 3-back (i.e. the same letter as the one that appeared 3 letters ago.),r,None,,,,,,,,,0,3,3,3,0,0,0,0,,,,,,,,,,,,,,,,,,,,,,,,,,,,,,,,,,,,,,,,,,,,,,,,,,,,,,,,,,,700.640382,None,703.6263952,None,space,0.0885937,703.6263952,None,700.640382,None,1.6052,705.3487128,None,None,1,705.3487128,None,,P028,fencog,1,Pre,2022_Mar_08_1110,N-Back (New Version 2021),2021.1.4,120.0284228
,,,,Conditions/Version_1/threeback(1)_v1.xlsx,New rule: Press 'space' when you see 3-back (i.e. the same letter as the one that appeared 3 letters ago.),o,None,,,,,,,,,0,3,3,3,0,1,1,1,,,,,,,,,,,,,,,,,,,,,,,,,,,,,,,,,,,,,,,,,,,,,,,,,,,,,,,,,,,,,,,,,,,,,1.3758,708.7309118,None,None,1,708.7309118,None,,P028,fencog,1,Pre,2022_Mar_08_1110,N-Back (New Version 2021),2021.1.4,120.0284228
,,,,Conditions/Version_1/threeback(1)_v1.xlsx,New rule: Press 'space' when you see 3-back (i.e. the same letter as the one that appeared 3 letters ago.),P,None,,,,,,,,,0,3,3,3,0,2,2,2,,,,,,,,,,,,,,,,,,,,,,,,,,,,,,,,,,,,,,,,,,,,,,,,,,,,,,,,,,,,,,,,,,,,,1.6858,712.4214069,None,None,1,712.4214069,None,,P028,fencog,1,Pre,2022_Mar_08_1110,N-Back (New Version 2021),2021.1.4,120.0284228
,,,,Conditions/Version_1/threeback(1)_v1.xlsx,New rule: Press 'space' when you see 3-back (i.e. the same letter as the one that appeared 3 letters ago.),R,space,,,,,,,,,0,3,3,3,0,3,3,3,,,,,,,,,,,,,,,,,,,,,,,,,,,,,,,,,,,,,,,,,,,,,,,,,,,,,,,,,,,,,,,,,,,,,1.3138,715.7371773,None,space,1,715.7371773,None,0.8418228,P028,fencog,1,Pre,2022_Mar_08_1110,N-Back (New Version 2021),2021.1.4,120.0284228
,,,,Conditions/Version_1/threeback(1)_v1.xlsx,New rule: Press 'space' when you see 3-back (i.e. the same letter as the one that appeared 3 letters ago.),p,None,,,,,,,,,0,3,3,3,0,4,4,4,,,,,,,,,,,,,,,,,,,,,,,,,,,,,,,,,,,,,,,,,,,,,,,,,,,,,,,,,,,,,,,,,,,,,1.2766,719.0195458,None,None,1,719.0195458,None,,P028,fencog,1,Pre,2022_Mar_08_1110,N-Back (New Version 2021),2021.1.4,120.0284228
,,,,Conditions/Version_1/threeback(1)_v1.xlsx,New rule: Press 'space' when you see 3-back (i.e. the same letter as the one that appeared 3 letters ago.),E,None,,,,,,,,,0,3,3,3,0,5,5,5,,,,,,,,,,,,,,,,,,,,,,,,,,,,,,,,,,,,,,,,,,,,,,,,,,,,,,,,,,,,,,,,,,,,,1.2394,722.2603499,None,None,1,722.2603499,None,,P028,fencog,1,Pre,2022_Mar_08_1110,N-Back (New Version 2021),2021.1.4,120.0284228
,,,,Conditions/Version_1/threeback(1)_v1.xlsx,New rule: Press 'space' when you see 3-back (i.e. the same letter as the one that appeared 3 letters ago.),e,None,,,,,,,,,0,3,3,3,0,6,6,6,,,,,,,,,,,,,,,,,,,,,,,,,,,,,,,,,,,,,,,,,,,,,,,,,,,,,,,,,,,,,,,,,,,,,1.6238,725.8929406,None,None,1,725.8929406,None,,P028,fencog,1,Pre,2022_Mar_08_1110,N-Back (New Version 2021),2021.1.4,120.0284228
,,,,Conditions/Version_1/threeback(1)_v1.xlsx,New rule: Press 'space' when you see 3-back (i.e. the same letter as the one that appeared 3 letters ago.),m,None,,,,,,,,,0,3,3,3,0,7,7,7,,,,,,,,,,,,,,,,,,,,,,,,,,,,,,,,,,,,,,,,,,,,,,,,,,,,,,,,,,,,,,,,,,,,,1.6548,729.5579586,None,None,1,729.5579586,None,,P028,fencog,1,Pre,2022_Mar_08_1110,N-Back (New Version 2021),2021.1.4,120.0284228
,,,,Conditions/Version_1/threeback(1)_v1.xlsx,New rule: Press 'space' when you see 3-back (i.e. the same letter as the one that appeared 3 letters ago.),n,None,,,,,,,,,0,3,3,3,0,8,8,8,,,,,,,,,,,,,,,,,,,,,,,,,,,,,,,,,,,,,,,,,,,,,,,,,,,,,,,,,,,,,,,,,,,,,1.4936,733.0579892,None,None,1,733.0579892,None,,P028,fencog,1,Pre,2022_Mar_08_1110,N-Back (New Version 2021),2021.1.4,120.0284228
,,,,Conditions/Version_1/threeback(1)_v1.xlsx,New rule: Press 'space' when you see 3-back (i.e. the same letter as the one that appeared 3 letters ago.),e,space,,,,,,,,,0,3,3,3,0,9,9,9,,,,,,,,,,,,,,,,,,,,,,,,,,,,,,,,,,,,,,,,,,,,,,,,,,,,,,,,,,,,,,,,,,,,,1.8966,736.9653447,None,space,1,736.9653447,None,0.4373414,P028,fencog,1,Pre,2022_Mar_08_1110,N-Back (New Version 2021),2021.1.4,120.0284228
,,,,Conditions/Version_1/threeback(1)_v1.xlsx,New rule: Press 'space' when you see 3-back (i.e. the same letter as the one that appeared 3 letters ago.),,,,,,,,,,,0,3,3,3,,,,,,,,,,,,,,,,,,,,,,,,,,,,,,,,,,,,,,,,,,,,,,,,,,,,,,,,,,,,,,,,,,,,,,,,,,,,,,,,,P028,fencog,1,Pre,2022_Mar_08_1110,N-Back (New Version 2021),2021.1.4,120.0284228
,,,,Conditions/Version_1/oneback(2)_v1.xlsx,New rule: Press 'space' when you see 1-back (i.e. the same letter as the one that appeared 1 letter ago.),q,None,,,,,,,,,0,4,4,4,0,0,0,0,,,,,,,,,,,,,,,,,,,,,,,,,,,,,,,,,,,,,,,,,,,,,,,,,,,,,,,,,,,738.9932218,None,741.9736828,None,space,2.6850911,741.9736828,None,738.9932218,None,1.4192,746.1032526,None,None,1,746.1032526,None,,P028,fencog,1,Pre,2022_Mar_08_1110,N-Back (New Version 2021),2021.1.4,120.0284228
,,,,Conditions/Version_1/oneback(2)_v1.xlsx,New rule: Press 'space' when you see 1-back (i.e. the same letter as the one that appeared 1 letter ago.),Q,space,,,,,,,,,0,4,4,4,0,1,1,1,,,,,,,,,,,,,,,,,,,,,,,,,,,,,,,,,,,,,,,,,,,,,,,,,,,,,,,,,,,,,,,,,,,,,1.289,749.3974541,None,space,1,749.3974541,None,0.6293091,P028,fencog,1,Pre,2022_Mar_08_1110,N-Back (New Version 2021),2021.1.4,120.0284228
,,,,Conditions/Version_1/oneback(2)_v1.xlsx,New rule: Press 'space' when you see 1-back (i.e. the same letter as the one that appeared 1 letter ago.),P,None,,,,,,,,,0,4,4,4,0,2,2,2,,,,,,,,,,,,,,,,,,,,,,,,,,,,,,,,,,,,,,,,,,,,,,,,,,,,,,,,,,,,,,,,,,,,,1.4068,752.8095933,None,None,1,752.8095933,None,,P028,fencog,1,Pre,2022_Mar_08_1110,N-Back (New Version 2021),2021.1.4,120.0284228
,,,,Conditions/Version_1/oneback(2)_v1.xlsx,New rule: Press 'space' when you see 1-back (i.e. the same letter as the one that appeared 1 letter ago.),o,None,,,,,,,,,0,4,4,4,0,3,3,3,,,,,,,,,,,,,,,,,,,,,,,,,,,,,,,,,,,,,,,,,,,,,,,,,,,,,,,,,,,,,,,,,,,,,1.8284,756.6418351,None,None,1,756.6418351,None,,P028,fencog,1,Pre,2022_Mar_08_1110,N-Back (New Version 2021),2021.1.4,120.0284228
,,,,Conditions/Version_1/oneback(2)_v1.xlsx,New rule: Press 'space' when you see 1-back (i.e. the same letter as the one that appeared 1 letter ago.),m,None,,,,,,,,,0,4,4,4,0,4,4,4,,,,,,,,,,,,,,,,,,,,,,,,,,,,,,,,,,,,,,,,,,,,,,,,,,,,,,,,,,,,,,,,,,,,,1.0286,759.6741779,None,None,1,759.6741779,None,,P028,fencog,1,Pre,2022_Mar_08_1110,N-Back (New Version 2021),2021.1.4,120.0284228
,,,,Conditions/Version_1/oneback(2)_v1.xlsx,New rule: Press 'space' when you see 1-back (i.e. the same letter as the one that appeared 1 letter ago.),Z,None,,,,,,,,,0,4,4,4,0,5,5,5,,,,,,,,,,,,,,,,,,,,,,,,,,,,,,,,,,,,,,,,,,,,,,,,,,,,,,,,,,,,,,,,,,,,,1.1526,762.8327759,None,None,1,762.8327759,None,,P028,fencog,1,Pre,2022_Mar_08_1110,N-Back (New Version 2021),2021.1.4,120.0284228
,,,,Conditions/Version_1/oneback(2)_v1.xlsx,New rule: Press 'space' when you see 1-back (i.e. the same letter as the one that appeared 1 letter ago.),c,None,,,,,,,,,0,4,4,4,0,6,6,6,,,,,,,,,,,,,,,,,,,,,,,,,,,,,,,,,,,,,,,,,,,,,,,,,,,,,,,,,,,,,,,,,,,,,1.2332,766.072419,None,None,1,766.072419,None,,P028,fencog,1,Pre,2022_Mar_08_1110,N-Back (New Version 2021),2021.1.4,120.0284228
,,,,Conditions/Version_1/oneback(2)_v1.xlsx,New rule: Press 'space' when you see 1-back (i.e. the same letter as the one that appeared 1 letter ago.),c,space,,,,,,,,,0,4,4,4,0,7,7,7,,,,,,,,,,,,,,,,,,,,,,,,,,,,,,,,,,,,,,,,,,,,,,,,,,,,,,,,,,,,,,,,,,,,,1.6362,769.7128568,None,space,1,769.7128568,None,0.5298396,P028,fencog,1,Pre,2022_Mar_08_1110,N-Back (New Version 2021),2021.1.4,120.0284228
,,,,Conditions/Version_1/oneback(2)_v1.xlsx,New rule: Press 'space' when you see 1-back (i.e. the same letter as the one that appeared 1 letter ago.),P,None,,,,,,,,,0,4,4,4,0,8,8,8,,,,,,,,,,,,,,,,,,,,,,,,,,,,,,,,,,,,,,,,,,,,,,,,,,,,,,,,,,,,,,,,,,,,,1.8532,773.5710437,None,None,1,773.5710437,None,,P028,fencog,1,Pre,2022_Mar_08_1110,N-Back (New Version 2021),2021.1.4,120.0284228
,,,,Conditions/Version_1/oneback(2)_v1.xlsx,New rule: Press 'space' when you see 1-back (i.e. the same letter as the one that appeared 1 letter ago.),p,space,,,,,,,,,0,4,4,4,0,9,9,9,,,,,,,,,,,,,,,,,,,,,,,,,,,,,,,,,,,,,,,,,,,,,,,,,,,,,,,,,,,,,,,,,,,,,1.4626,777.0442006,None,space,1,777.0442006,None,0.5905046,P028,fencog,1,Pre,2022_Mar_08_1110,N-Back (New Version 2021),2021.1.4,120.0284228
,,,,Conditions/Version_1/oneback(2)_v1.xlsx,New rule: Press 'space' when you see 1-back (i.e. the same letter as the one that appeared 1 letter ago.),,,,,,,,,,,0,4,4,4,,,,,,,,,,,,,,,,,,,,,,,,,,,,,,,,,,,,,,,,,,,,,,,,,,,,,,,,,,,,,,,,,,,,,,,,,,,,,,,,,P028,fencog,1,Pre,2022_Mar_08_1110,N-Back (New Version 2021),2021.1.4,120.0284228
,,,,Conditions/Version_1/zeroback(2)_v1.xlsx,New rule: Press 'space' when you see the letter 'x' or 'X'.,p,None,,,,,,,,,0,5,5,5,0,0,0,0,,,,,,,,,,,,,,,,,,,,,,,,,,,,,,,,,,,,,,,,,,,,,,,,,,,,,,,,,,,779.0613496,None,782.0454559,None,space,0.7251271,782.0454559,None,779.0613496,None,1.5742,784.3670759,None,None,1,784.3670759,None,,P028,fencog,1,Pre,2022_Mar_08_1110,N-Back (New Version 2021),2021.1.4,120.0284228
,,,,Conditions/Version_1/zeroback(2)_v1.xlsx,New rule: Press 'space' when you see the letter 'x' or 'X'.,L,None,,,,,,,,,0,5,5,5,0,1,1,1,,,,,,,,,,,,,,,,,,,,,,,,,,,,,,,,,,,,,,,,,,,,,,,,,,,,,,,,,,,,,,,,,,,,,1.227,787.6002619,None,None,1,787.6002619,None,,P028,fencog,1,Pre,2022_Mar_08_1110,N-Back (New Version 2021),2021.1.4,120.0284228
,,,,Conditions/Version_1/zeroback(2)_v1.xlsx,New rule: Press 'space' when you see the letter 'x' or 'X'.,G,None,,,,,,,,,0,5,5,5,0,2,2,2,,,,,,,,,,,,,,,,,,,,,,,,,,,,,,,,,,,,,,,,,,,,,,,,,,,,,,,,,,,,,,,,,,,,,1.3014,790.9150115,None,None,1,790.9150115,None,,P028,fencog,1,Pre,2022_Mar_08_1110,N-Back (New Version 2021),2021.1.4,120.0284228
,,,,Conditions/Version_1/zeroback(2)_v1.xlsx,New rule: Press 'space' when you see the letter 'x' or 'X'.,y,None,,,,,,,,,0,5,5,5,0,3,3,3,,,,,,,,,,,,,,,,,,,,,,,,,,,,,,,,,,,,,,,,,,,,,,,,,,,,,,,,,,,,,,,,,,,,,1.9152,794.8304596,None,None,1,794.8304596,None,,P028,fencog,1,Pre,2022_Mar_08_1110,N-Back (New Version 2021),2021.1.4,120.0284228
,,,,Conditions/Version_1/zeroback(2)_v1.xlsx,New rule: Press 'space' when you see the letter 'x' or 'X'.,Y,None,,,,,,,,,0,5,5,5,0,4,4,4,,,,,,,,,,,,,,,,,,,,,,,,,,,,,,,,,,,,,,,,,,,,,,,,,,,,,,,,,,,,,,,,,,,,,1.4068,798.2379729,None,None,1,798.2379729,None,,P028,fencog,1,Pre,2022_Mar_08_1110,N-Back (New Version 2021),2021.1.4,120.0284228
,,,,Conditions/Version_1/zeroback(2)_v1.xlsx,New rule: Press 'space' when you see the letter 'x' or 'X'.,W,None,,,,,,,,,0,5,5,5,0,5,5,5,,,,,,,,,,,,,,,,,,,,,,,,,,,,,,,,,,,,,,,,,,,,,,,,,,,,,,,,,,,,,,,,,,,,,1.0596,801.3055084,None,None,1,801.3055084,None,,P028,fencog,1,Pre,2022_Mar_08_1110,N-Back (New Version 2021),2021.1.4,120.0284228
,,,,Conditions/Version_1/zeroback(2)_v1.xlsx,New rule: Press 'space' when you see the letter 'x' or 'X'.,x,space,,,,,,,,,0,5,5,5,0,6,6,6,,,,,,,,,,,,,,,,,,,,,,,,,,,,,,,,,,,,,,,,,,,,,,,,,,,,,,,,,,,,,,,,,,,,,1.3634,804.6777364,None,space,1,804.6777364,None,0.533012,P028,fencog,1,Pre,2022_Mar_08_1110,N-Back (New Version 2021),2021.1.4,120.0284228
,,,,Conditions/Version_1/zeroback(2)_v1.xlsx,New rule: Press 'space' when you see the letter 'x' or 'X'.,X,space,,,,,,,,,0,5,5,5,0,7,7,7,,,,,,,,,,,,,,,,,,,,,,,,,,,,,,,,,,,,,,,,,,,,,,,,,,,,,,,,,,,,,,,,,,,,,1.6238,808.3034287,None,space,1,808.3034287,None,0.7633691,P028,fencog,1,Pre,2022_Mar_08_1110,N-Back (New Version 2021),2021.1.4,120.0284228
,,,,Conditions/Version_1/zeroback(2)_v1.xlsx,New rule: Press 'space' when you see the letter 'x' or 'X'.,p,None,,,,,,,,,0,5,5,5,0,8,8,8,,,,,,,,,,,,,,,,,,,,,,,,,,,,,,,,,,,,,,,,,,,,,,,,,,,,,,,,,,,,,,,,,,,,,1.4378,811.7505232,None,None,1,811.7505232,None,,P028,fencog,1,Pre,2022_Mar_08_1110,N-Back (New Version 2021),2021.1.4,120.0284228
,,,,Conditions/Version_1/zeroback(2)_v1.xlsx,New rule: Press 'space' when you see the letter 'x' or 'X'.,h,None,,,,,,,,,0,5,5,5,0,9,9,9,,,,,,,,,,,,,,,,,,,,,,,,,,,,,,,,,,,,,,,,,,,,,,,,,,,,,,,,,,,,,,,,,,,,,1.2952,815.0495381,None,None,1,815.0495381,None,,P028,fencog,1,Pre,2022_Mar_08_1110,N-Back (New Version 2021),2021.1.4,120.0284228
,,,,Conditions/Version_1/zeroback(2)_v1.xlsx,New rule: Press 'space' when you see the letter 'x' or 'X'.,,,,,,,,,,,0,5,5,5,,,,,,,,,,,,,,,,,,,,,,,,,,,,,,,,,,,,,,,,,,,,,,,,,,,,,,,,,,,,,,,,,,,,,,,,,,,,,,,,,P028,fencog,1,Pre,2022_Mar_08_1110,N-Back (New Version 2021),2021.1.4,120.0284228
,,,,Conditions/Version_1/threeback(2)_v1.xlsx,New rule: Press 'space' when you see 3-back (i.e. the same letter as the one that appeared 3 letters ago.),q,None,,,,,,,,,0,6,6,6,0,0,0,0,,,,,,,,,,,,,,,,,,,,,,,,,,,,,,,,,,,,,,,,,,,,,,,,,,,,,,,,,,,817.0801873,None,820.0677844,None,space,126.8388072,820.0677844,None,817.0801873,None,1.289,948.2269366,None,None,1,948.2269366,None,,P028,fencog,1,Pre,2022_Mar_08_1110,N-Back (New Version 2021),2021.1.4,120.0284228
,,,,Conditions/Version_1/threeback(2)_v1.xlsx,New rule: Press 'space' when you see 3-back (i.e. the same letter as the one that appeared 3 letters ago.),Y,None,,,,,,,,,0,6,6,6,0,1,1,1,,,,,,,,,,,,,,,,,,,,,,,,,,,,,,,,,,,,,,,,,,,,,,,,,,,,,,,,,,,,,,,,,,,,,1.6486,951.8757903,None,None,1,951.8757903,None,,P028,fencog,1,Pre,2022_Mar_08_1110,N-Back (New Version 2021),2021.1.4,120.0284228
,,,,Conditions/Version_1/threeback(2)_v1.xlsx,New rule: Press 'space' when you see 3-back (i.e. the same letter as the one that appeared 3 letters ago.),p,None,,,,,,,,,0,6,6,6,0,2,2,2,,,,,,,,,,,,,,,,,,,,,,,,,,,,,,,,,,,,,,,,,,,,,,,,,,,,,,,,,,,,,,,,,,,,,1.1278,955.0092414,None,None,1,955.0092414,None,,P028,fencog,1,Pre,2022_Mar_08_1110,N-Back (New Version 2021),2021.1.4,120.0284228
,,,,Conditions/Version_1/threeback(2)_v1.xlsx,New rule: Press 'space' when you see 3-back (i.e. the same letter as the one that appeared 3 letters ago.),p,None,,,,,,,,,0,6,6,6,0,3,3,3,,,,,,,,,,,,,,,,,,,,,,,,,,,,,,,,,,,,,,,,,,,,,,,,,,,,,,,,,,,,,,,,,,,,,1.8098,958.8323081,None,None,1,958.8323081,None,,P028,fencog,1,Pre,2022_Mar_08_1110,N-Back (New Version 2021),2021.1.4,120.0284228
,,,,Conditions/Version_1/threeback(2)_v1.xlsx,New rule: Press 'space' when you see 3-back (i.e. the same letter as the one that appeared 3 letters ago.),y,space,,,,,,,,,0,6,6,6,0,4,4,4,,,,,,,,,,,,,,,,,,,,,,,,,,,,,,,,,,,,,,,,,,,,,,,,,,,,,,,,,,,,,,,,,,,,,1.8222,962.6569589,None,space,1,962.6569589,None,0.4417769,P028,fencog,1,Pre,2022_Mar_08_1110,N-Back (New Version 2021),2021.1.4,120.0284228
,,,,Conditions/Version_1/threeback(2)_v1.xlsx,New rule: Press 'space' when you see 3-back (i.e. the same letter as the one that appeared 3 letters ago.),u,None,,,,,,,,,0,6,6,6,0,5,5,5,,,,,,,,,,,,,,,,,,,,,,,,,,,,,,,,,,,,,,,,,,,,,,,,,,,,,,,,,,,,,,,,,,,,,1.3324,965.9967238,None,None,1,965.9967238,None,,P028,fencog,1,Pre,2022_Mar_08_1110,N-Back (New Version 2021),2021.1.4,120.0284228
,,,,Conditions/Version_1/threeback(2)_v1.xlsx,New rule: Press 'space' when you see 3-back (i.e. the same letter as the one that appeared 3 letters ago.),P,space,,,,,,,,,0,6,6,6,0,6,6,6,,,,,,,,,,,,,,,,,,,,,,,,,,,,,,,,,,,,,,,,,,,,,,,,,,,,,,,,,,,,,,,,,,,,,1.134,969.1398667,None,None,0,969.1398667,None,,P028,fencog,1,Pre,2022_Mar_08_1110,N-Back (New Version 2021),2021.1.4,120.0284228
,,,,Conditions/Version_1/threeback(2)_v1.xlsx,New rule: Press 'space' when you see 3-back (i.e. the same letter as the one that appeared 3 letters ago.),a,None,,,,,,,,,0,6,6,6,0,7,7,7,,,,,,,,,,,,,,,,,,,,,,,,,,,,,,,,,,,,,,,,,,,,,,,,,,,,,,,,,,,,,,,,,,,,,1.2952,972.4456804,None,None,1,972.4456804,None,,P028,fencog,1,Pre,2022_Mar_08_1110,N-Back (New Version 2021),2021.1.4,120.0284228
,,,,Conditions/Version_1/threeback(2)_v1.xlsx,New rule: Press 'space' when you see 3-back (i.e. the same letter as the one that appeared 3 letters ago.),U,space,,,,,,,,,0,6,6,6,0,8,8,8,,,,,,,,,,,,,,,,,,,,,,,,,,,,,,,,,,,,,,,,,,,,,,,,,,,,,,,,,,,,,,,,,,,,,1.8904,976.3454037,None,space,1,976.3454037,None,0.6415521,P028,fencog,1,Pre,2022_Mar_08_1110,N-Back (New Version 2021),2021.1.4,120.0284228
,,,,Conditions/Version_1/threeback(2)_v1.xlsx,New rule: Press 'space' when you see 3-back (i.e. the same letter as the one that appeared 3 letters ago.),q,None,,,,,,,,,0,6,6,6,0,9,9,9,,,,,,,,,,,,,,,,,,,,,,,,,,,,,,,,,,,,,,,,,,,,,,,,,,,,,,,,,,,,,,,,,,,,,1.1898,979.5426188,None,None,1,979.5426188,None,,P028,fencog,1,Pre,2022_Mar_08_1110,N-Back (New Version 2021),2021.1.4,120.0284228
,,,,Conditions/Version_1/threeback(2)_v1.xlsx,New rule: Press 'space' when you see 3-back (i.e. the same letter as the one that appeared 3 letters ago.),,,,,,,,,,,0,6,6,6,,,,,,,,,,,,,,,,,,,,,,,,,,,,,,,,,,,,,,,,,,,,,,,,,,,,,,,,,,,,,,,,,,,,,,,,,,,,,,,,,P028,fencog,1,Pre,2022_Mar_08_1110,N-Back (New Version 2021),2021.1.4,120.0284228
,,,,Conditions/Version_1/twoback(2)_v1.xlsx,New rule: Press 'space' when you see 2-back (i.e. the same letter as the one that appeared 2 letters ago.),q,None,,,,,,,,,0,7,7,7,0,0,0,0,,,,,,,,,,,,,,,,,,,,,,,,,,,,,,,,,,,,,,,,,,,,,,,,,,,,,,,,,,,981.5800711,None,984.5808421,None,space,1.0779182,984.5808421,None,981.5800711,None,1.971,987.6570783,None,None,1,987.6570783,None,,P028,fencog,1,Pre,2022_Mar_08_1110,N-Back (New Version 2021),2021.1.4,120.0284228
,,,,Conditions/Version_1/twoback(2)_v1.xlsx,New rule: Press 'space' when you see 2-back (i.e. the same letter as the one that appeared 2 letters ago.),r,None,,,,,,,,,0,7,7,7,0,1,1,1,,,,,,,,,,,,,,,,,,,,,,,,,,,,,,,,,,,,,,,,,,,,,,,,,,,,,,,,,,,,,,,,,,,,,1.7726,991.4310795,None,None,1,991.4310795,None,,P028,fencog,1,Pre,2022_Mar_08_1110,N-Back (New Version 2021),2021.1.4,120.0284228
,,,,Conditions/Version_1/twoback(2)_v1.xlsx,New rule: Press 'space' when you see 2-back (i.e. the same letter as the one that appeared 2 letters ago.),q,space,,,,,,,,,0,7,7,7,0,2,2,2,,,,,,,,,,,,,,,,,,,,,,,,,,,,,,,,,,,,,,,,,,,,,,,,,,,,,,,,,,,,,,,,,,,,,1.1216,994.5549801,None,None,0,994.5549801,None,,P028,fencog,1,Pre,2022_Mar_08_1110,N-Back (New Version 2021),2021.1.4,120.0284228
,,,,Conditions/Version_1/twoback(2)_v1.xlsx,New rule: Press 'space' when you see 2-back (i.e. the same letter as the one that appeared 2 letters ago.),P,None,,,,,,,,,0,7,7,7,0,3,3,3,,,,,,,,,,,,,,,,,,,,,,,,,,,,,,,,,,,,,,,,,,,,,,,,,,,,,,,,,,,,,,,,,,,,,1.1526,997.7150646,None,None,1,997.7150646,None,,P028,fencog,1,Pre,2022_Mar_08_1110,N-Back (New Version 2021),2021.1.4,120.0284228
,,,,Conditions/Version_1/twoback(2)_v1.xlsx,New rule: Press 'space' when you see 2-back (i.e. the same letter as the one that appeared 2 letters ago.),p,None,,,,,,,,,0,7,7,7,0,4,4,4,,,,,,,,,,,,,,,,,,,,,,,,,,,,,,,,,,,,,,,,,,,,,,,,,,,,,,,,,,,,,,,,,,,,,1.0472,1000.770661,None,None,1,1000.770661,None,,P028,fencog,1,Pre,2022_Mar_08_1110,N-Back (New Version 2021),2021.1.4,120.0284228
,,,,Conditions/Version_1/twoback(2)_v1.xlsx,New rule: Press 'space' when you see 2-back (i.e. the same letter as the one that appeared 2 letters ago.),H,None,,,,,,,,,0,7,7,7,0,5,5,5,,,,,,,,,,,,,,,,,,,,,,,,,,,,,,,,,,,,,,,,,,,,,,,,,,,,,,,,,,,,,,,,,,,,,1.072,1003.853245,None,None,1,1003.853245,None,,P028,fencog,1,Pre,2022_Mar_08_1110,N-Back (New Version 2021),2021.1.4,120.0284228
,,,,Conditions/Version_1/twoback(2)_v1.xlsx,New rule: Press 'space' when you see 2-back (i.e. the same letter as the one that appeared 2 letters ago.),g,None,,,,,,,,,0,7,7,7,0,6,6,6,,,,,,,,,,,,,,,,,,,,,,,,,,,,,,,,,,,,,,,,,,,,,,,,,,,,,,,,,,,,,,,,,,,,,1.4626,1007.326238,None,None,1,1007.326238,None,,P028,fencog,1,Pre,2022_Mar_08_1110,N-Back (New Version 2021),2021.1.4,120.0284228
,,,,Conditions/Version_1/twoback(2)_v1.xlsx,New rule: Press 'space' when you see 2-back (i.e. the same letter as the one that appeared 2 letters ago.),j,None,,,,,,,,,0,7,7,7,0,7,7,7,,,,,,,,,,,,,,,,,,,,,,,,,,,,,,,,,,,,,,,,,,,,,,,,,,,,,,,,,,,,,,,,,,,,,1.878,1011.212139,None,None,1,1011.212139,None,,P028,fencog,1,Pre,2022_Mar_08_1110,N-Back (New Version 2021),2021.1.4,120.0284228
,,,,Conditions/Version_1/twoback(2)_v1.xlsx,New rule: Press 'space' when you see 2-back (i.e. the same letter as the one that appeared 2 letters ago.),g,space,,,,,,,,,0,7,7,7,0,8,8,8,,,,,,,,,,,,,,,,,,,,,,,,,,,,,,,,,,,,,,,,,,,,,,,,,,,,,,,,,,,,,,,,,,,,,1.9896,1015.210699,None,space,1,1015.210699,None,0.3843267,P028,fencog,1,Pre,2022_Mar_08_1110,N-Back (New Version 2021),2021.1.4,120.0284228
,,,,Conditions/Version_1/twoback(2)_v1.xlsx,New rule: Press 'space' when you see 2-back (i.e. the same letter as the one that appeared 2 letters ago.),G,None,,,,,,,,,0,7,7,7,0,9,9,9,,,,,,,,,,,,,,,,,,,,,,,,,,,,,,,,,,,,,,,,,,,,,,,,,,,,,,,,,,,,,,,,,,,,,1.3634,1018.581398,None,None,1,1018.581398,None,,P028,fencog,1,Pre,2022_Mar_08_1110,N-Back (New Version 2021),2021.1.4,120.0284228
,,,,Conditions/Version_1/twoback(2)_v1.xlsx,New rule: Press 'space' when you see 2-back (i.e. the same letter as the one that appeared 2 letters ago.),,,,,,,,,,,0,7,7,7,,,,,,,,,,,,,,,,,,,,,,,,,,,,,,,,,,,,,,,,,,,,,,,,,,,,,,,,,,,,,,,,,,,,,,,,,,,,,,,,,P028,fencog,1,Pre,2022_Mar_08_1110,N-Back (New Version 2021),2021.1.4,120.0284228
,,,,Conditions/Version_1/threeback(3)_v1.xlsx,New rule: Press 'space' when you see 3-back (i.e. the same letter as the one that appeared 3 letters ago.),w,None,,,,,,,,,0,8,8,8,0,0,0,0,,,,,,,,,,,,,,,,,,,,,,,,,,,,,,,,,,,,,,,,,,,,,,,,,,,,,,,,,,,1020.618035,None,1023.598317,None,space,8.1003162,1023.598317,None,1020.618035,None,1.134,1032.868792,None,None,1,1032.868792,None,,P028,fencog,1,Pre,2022_Mar_08_1110,N-Back (New Version 2021),2021.1.4,120.0284228
,,,,Conditions/Version_1/threeback(3)_v1.xlsx,New rule: Press 'space' when you see 3-back (i.e. the same letter as the one that appeared 3 letters ago.),p,None,,,,,,,,,0,8,8,8,0,1,1,1,,,,,,,,,,,,,,,,,,,,,,,,,,,,,,,,,,,,,,,,,,,,,,,,,,,,,,,,,,,,,,,,,,,,,1.5494,1036.427966,None,None,1,1036.427966,None,,P028,fencog,1,Pre,2022_Mar_08_1110,N-Back (New Version 2021),2021.1.4,120.0284228
,,,,Conditions/Version_1/threeback(3)_v1.xlsx,New rule: Press 'space' when you see 3-back (i.e. the same letter as the one that appeared 3 letters ago.),P,None,,,,,,,,,0,8,8,8,0,2,2,2,,,,,,,,,,,,,,,,,,,,,,,,,,,,,,,,,,,,,,,,,,,,,,,,,,,,,,,,,,,,,,,,,,,,,1.5556,1039.99153,None,None,1,1039.99153,None,,P028,fencog,1,Pre,2022_Mar_08_1110,N-Back (New Version 2021),2021.1.4,120.0284228
,,,,Conditions/Version_1/threeback(3)_v1.xlsx,New rule: Press 'space' when you see 3-back (i.e. the same letter as the one that appeared 3 letters ago.),i,None,,,,,,,,,0,8,8,8,0,3,3,3,,,,,,,,,,,,,,,,,,,,,,,,,,,,,,,,,,,,,,,,,,,,,,,,,,,,,,,,,,,,,,,,,,,,,1.537,1043.539805,None,space,0,1043.539805,None,1.4227464,P028,fencog,1,Pre,2022_Mar_08_1110,N-Back (New Version 2021),2021.1.4,120.0284228
,,,,Conditions/Version_1/threeback(3)_v1.xlsx,New rule: Press 'space' when you see 3-back (i.e. the same letter as the one that appeared 3 letters ago.),f,None,,,,,,,,,0,8,8,8,0,4,4,4,,,,,,,,,,,,,,,,,,,,,,,,,,,,,,,,,,,,,,,,,,,,,,,,,,,,,,,,,,,,,,,,,,,,,1.2084,1046.747843,None,None,1,1046.747843,None,,P028,fencog,1,Pre,2022_Mar_08_1110,N-Back (New Version 2021),2021.1.4,120.0284228
,,,,Conditions/Version_1/threeback(3)_v1.xlsx,New rule: Press 'space' when you see 3-back (i.e. the same letter as the one that appeared 3 letters ago.),o,None,,,,,,,,,0,8,8,8,0,5,5,5,,,,,,,,,,,,,,,,,,,,,,,,,,,,,,,,,,,,,,,,,,,,,,,,,,,,,,,,,,,,,,,,,,,,,1.3262,1050.080159,None,None,1,1050.080159,None,,P028,fencog,1,Pre,2022_Mar_08_1110,N-Back (New Version 2021),2021.1.4,120.0284228
,,,,Conditions/Version_1/threeback(3)_v1.xlsx,New rule: Press 'space' when you see 3-back (i.e. the same letter as the one that appeared 3 letters ago.),w,None,,,,,,,,,0,8,8,8,0,6,6,6,,,,,,,,,,,,,,,,,,,,,,,,,,,,,,,,,,,,,,,,,,,,,,,,,,,,,,,,,,,,,,,,,,,,,1.6672,1053.746812,None,None,1,1053.746812,None,,P028,fencog,1,Pre,2022_Mar_08_1110,N-Back (New Version 2021),2021.1.4,120.0284228
,,,,Conditions/Version_1/threeback(3)_v1.xlsx,New rule: Press 'space' when you see 3-back (i.e. the same letter as the one that appeared 3 letters ago.),F,space,,,,,,,,,0,8,8,8,0,7,7,7,,,,,,,,,,,,,,,,,,,,,,,,,,,,,,,,,,,,,,,,,,,,,,,,,,,,,,,,,,,,,,,,,,,,,1.754,1057.515008,None,space,1,1057.515008,None,0.4728455,P028,fencog,1,Pre,2022_Mar_08_1110,N-Back (New Version 2021),2021.1.4,120.0284228
,,,,Conditions/Version_1/threeback(3)_v1.xlsx,New rule: Press 'space' when you see 3-back (i.e. the same letter as the one that appeared 3 letters ago.),p,None,,,,,,,,,0,8,8,8,0,8,8,8,,,,,,,,,,,,,,,,,,,,,,,,,,,,,,,,,,,,,,,,,,,,,,,,,,,,,,,,,,,,,,,,,,,,,1.878,1061.401824,None,None,1,1061.401824,None,,P028,fencog,1,Pre,2022_Mar_08_1110,N-Back (New Version 2021),2021.1.4,120.0284228
,,,,Conditions/Version_1/threeback(3)_v1.xlsx,New rule: Press 'space' when you see 3-back (i.e. the same letter as the one that appeared 3 letters ago.),W,space,,,,,,,,,0,8,8,8,0,9,9,9,,,,,,,,,,,,,,,,,,,,,,,,,,,,,,,,,,,,,,,,,,,,,,,,,,,,,,,,,,,,,,,,,,,,,1.8532,1065.267356,None,None,0,1065.267356,None,,P028,fencog,1,Pre,2022_Mar_08_1110,N-Back (New Version 2021),2021.1.4,120.0284228
,,,,Conditions/Version_1/threeback(3)_v1.xlsx,New rule: Press 'space' when you see 3-back (i.e. the same letter as the one that appeared 3 letters ago.),,,,,,,,,,,0,8,8,8,,,,,,,,,,,,,,,,,,,,,,,,,,,,,,,,,,,,,,,,,,,,,,,,,,,,,,,,,,,,,,,,,,,,,,,,,,,,,,,,,P028,fencog,1,Pre,2022_Mar_08_1110,N-Back (New Version 2021),2021.1.4,120.0284228
,,,,Conditions/Version_1/zeroback(3)_v1.xlsx,New rule: Press 'space' when you see the letter 'x' or 'X'.,X,space,,,,,,,,,0,9,9,9,0,0,0,0,,,,,,,,,,,,,,,,,,,,,,,,,,,,,,,,,,,,,,,,,,,,,,,,,,,,,,,,,,,1067.286693,None,1070.271548,None,space,0.8431128,1070.271548,None,1067.286693,None,1.2456,1072.382014,None,space,1,1072.382014,None,0.6847095,P028,fencog,1,Pre,2022_Mar_08_1110,N-Back (New Version 2021),2021.1.4,120.0284228
,,,,Conditions/Version_1/zeroback(3)_v1.xlsx,New rule: Press 'space' when you see the letter 'x' or 'X'.,B,None,,,,,,,,,0,9,9,9,0,1,1,1,,,,,,,,,,,,,,,,,,,,,,,,,,,,,,,,,,,,,,,,,,,,,,,,,,,,,,,,,,,,,,,,,,,,,1.134,1075.525557,None,None,1,1075.525557,None,,P028,fencog,1,Pre,2022_Mar_08_1110,N-Back (New Version 2021),2021.1.4,120.0284228
,,,,Conditions/Version_1/zeroback(3)_v1.xlsx,New rule: Press 'space' when you see the letter 'x' or 'X'.,m,None,,,,,,,,,0,9,9,9,0,2,2,2,,,,,,,,,,,,,,,,,,,,,,,,,,,,,,,,,,,,,,,,,,,,,,,,,,,,,,,,,,,,,,,,,,,,,1.4068,1078.940475,None,None,1,1078.940475,None,,P028,fencog,1,Pre,2022_Mar_08_1110,N-Back (New Version 2021),2021.1.4,120.0284228
,,,,Conditions/Version_1/zeroback(3)_v1.xlsx,New rule: Press 'space' when you see the letter 'x' or 'X'.,m,None,,,,,,,,,0,9,9,9,0,3,3,3,,,,,,,,,,,,,,,,,,,,,,,,,,,,,,,,,,,,,,,,,,,,,,,,,,,,,,,,,,,,,,,,,,,,,1.9896,1082.937525,None,None,1,1082.937525,None,,P028,fencog,1,Pre,2022_Mar_08_1110,N-Back (New Version 2021),2021.1.4,120.0284228
,,,,Conditions/Version_1/zeroback(3)_v1.xlsx,New rule: Press 'space' when you see the letter 'x' or 'X'.,o,None,,,,,,,,,0,9,9,9,0,4,4,4,,,,,,,,,,,,,,,,,,,,,,,,,,,,,,,,,,,,,,,,,,,,,,,,,,,,,,,,,,,,,,,,,,,,,1.4936,1086.437183,None,None,1,1086.437183,None,,P028,fencog,1,Pre,2022_Mar_08_1110,N-Back (New Version 2021),2021.1.4,120.0284228
,,,,Conditions/Version_1/zeroback(3)_v1.xlsx,New rule: Press 'space' when you see the letter 'x' or 'X'.,p,None,,,,,,,,,0,9,9,9,0,5,5,5,,,,,,,,,,,,,,,,,,,,,,,,,,,,,,,,,,,,,,,,,,,,,,,,,,,,,,,,,,,,,,,,,,,,,1.1898,1089.635148,None,None,1,1089.635148,None,,P028,fencog,1,Pre,2022_Mar_08_1110,N-Back (New Version 2021),2021.1.4,120.0284228
,,,,Conditions/Version_1/zeroback(3)_v1.xlsx,New rule: Press 'space' when you see the letter 'x' or 'X'.,G,None,,,,,,,,,0,9,9,9,0,6,6,6,,,,,,,,,,,,,,,,,,,,,,,,,,,,,,,,,,,,,,,,,,,,,,,,,,,,,,,,,,,,,,,,,,,,,1.3386,1092.976034,None,None,1,1092.976034,None,,P028,fencog,1,Pre,2022_Mar_08_1110,N-Back (New Version 2021),2021.1.4,120.0284228
,,,,Conditions/Version_1/zeroback(3)_v1.xlsx,New rule: Press 'space' when you see the letter 'x' or 'X'.,X,space,,,,,,,,,0,9,9,9,0,7,7,7,,,,,,,,,,,,,,,,,,,,,,,,,,,,,,,,,,,,,,,,,,,,,,,,,,,,,,,,,,,,,,,,,,,,,1.5618,1096.542573,None,space,1,1096.542573,None,0.3722747,P028,fencog,1,Pre,2022_Mar_08_1110,N-Back (New Version 2021),2021.1.4,120.0284228
,,,,Conditions/Version_1/zeroback(3)_v1.xlsx,New rule: Press 'space' when you see the letter 'x' or 'X'.,p,None,,,,,,,,,0,9,9,9,0,8,8,8,,,,,,,,,,,,,,,,,,,,,,,,,,,,,,,,,,,,,,,,,,,,,,,,,,,,,,,,,,,,,,,,,,,,,1.1278,1099.682388,None,None,1,1099.682388,None,,P028,fencog,1,Pre,2022_Mar_08_1110,N-Back (New Version 2021),2021.1.4,120.0284228
,,,,Conditions/Version_1/zeroback(3)_v1.xlsx,New rule: Press 'space' when you see the letter 'x' or 'X'.,x,space,,,,,,,,,0,9,9,9,0,9,9,9,,,,,,,,,,,,,,,,,,,,,,,,,,,,,,,,,,,,,,,,,,,,,,,,,,,,,,,,,,,,,,,,,,,,,1.692,1103.372863,None,space,1,1103.372863,None,0.5419127,P028,fencog,1,Pre,2022_Mar_08_1110,N-Back (New Version 2021),2021.1.4,120.0284228
,,,,Conditions/Version_1/zeroback(3)_v1.xlsx,New rule: Press 'space' when you see the letter 'x' or 'X'.,,,,,,,,,,,0,9,9,9,,,,,,,,,,,,,,,,,,,,,,,,,,,,,,,,,,,,,,,,,,,,,,,,,,,,,,,,,,,,,,,,,,,,,,,,,,,,,,,,,P028,fencog,1,Pre,2022_Mar_08_1110,N-Back (New Version 2021),2021.1.4,120.0284228
,,,,Conditions/Version_1/twoback(3)_v1.xlsx,New rule: Press 'space' when you see 2-back (i.e. the same letter as the one that appeared 2 letters ago.),e,None,,,,,,,,,0,10,10,10,0,0,0,0,,,,,,,,,,,,,,,,,,,,,,,,,,,,,,,,,,,,,,,,,,,,,,,,,,,,,,,,,,,1105.39634,None,1108.381971,None,space,5.0127415,1108.381971,None,1105.39634,None,1.9214,1115.345232,None,None,1,1115.345232,None,,P028,fencog,1,Pre,2022_Mar_08_1110,N-Back (New Version 2021),2021.1.4,120.0284228
,,,,Conditions/Version_1/twoback(3)_v1.xlsx,New rule: Press 'space' when you see 2-back (i.e. the same letter as the one that appeared 2 letters ago.),o,None,,,,,,,,,0,10,10,10,0,1,1,1,,,,,,,,,,,,,,,,,,,,,,,,,,,,,,,,,,,,,,,,,,,,,,,,,,,,,,,,,,,,,,,,,,,,,1.351,1118.710387,None,None,1,1118.710387,None,,P028,fencog,1,Pre,2022_Mar_08_1110,N-Back (New Version 2021),2021.1.4,120.0284228
,,,,Conditions/Version_1/twoback(3)_v1.xlsx,New rule: Press 'space' when you see 2-back (i.e. the same letter as the one that appeared 2 letters ago.),P,None,,,,,,,,,0,10,10,10,0,2,2,2,,,,,,,,,,,,,,,,,,,,,,,,,,,,,,,,,,,,,,,,,,,,,,,,,,,,,,,,,,,,,,,,,,,,,1.971,1122.685895,None,None,1,1122.685895,None,,P028,fencog,1,Pre,2022_Mar_08_1110,N-Back (New Version 2021),2021.1.4,120.0284228
,,,,Conditions/Version_1/twoback(3)_v1.xlsx,New rule: Press 'space' when you see 2-back (i.e. the same letter as the one that appeared 2 letters ago.),z,None,,,,,,,,,0,10,10,10,0,3,3,3,,,,,,,,,,,,,,,,,,,,,,,,,,,,,,,,,,,,,,,,,,,,,,,,,,,,,,,,,,,,,,,,,,,,,1.506,1126.202299,None,None,1,1126.202299,None,,P028,fencog,1,Pre,2022_Mar_08_1110,N-Back (New Version 2021),2021.1.4,120.0284228
,,,,Conditions/Version_1/twoback(3)_v1.xlsx,New rule: Press 'space' when you see 2-back (i.e. the same letter as the one that appeared 2 letters ago.),X,None,,,,,,,,,0,10,10,10,0,4,4,4,,,,,,,,,,,,,,,,,,,,,,,,,,,,,,,,,,,,,,,,,,,,,,,,,,,,,,,,,,,,,,,,,,,,,1.9896,1130.200398,None,None,1,1130.200398,None,,P028,fencog,1,Pre,2022_Mar_08_1110,N-Back (New Version 2021),2021.1.4,120.0284228
,,,,Conditions/Version_1/twoback(3)_v1.xlsx,New rule: Press 'space' when you see 2-back (i.e. the same letter as the one that appeared 2 letters ago.),z,space,,,,,,,,,0,10,10,10,0,5,5,5,,,,,,,,,,,,,,,,,,,,,,,,,,,,,,,,,,,,,,,,,,,,,,,,,,,,,,,,,,,,,,,,,,,,,1.2394,1133.448095,None,space,1,1133.448095,None,0.4825829,P028,fencog,1,Pre,2022_Mar_08_1110,N-Back (New Version 2021),2021.1.4,120.0284228
,,,,Conditions/Version_1/twoback(3)_v1.xlsx,New rule: Press 'space' when you see 2-back (i.e. the same letter as the one that appeared 2 letters ago.),x,space,,,,,,,,,0,10,10,10,0,6,6,6,,,,,,,,,,,,,,,,,,,,,,,,,,,,,,,,,,,,,,,,,,,,,,,,,,,,,,,,,,,,,,,,,,,,,1.723,1137.185468,None,None,0,1137.185468,None,,P028,fencog,1,Pre,2022_Mar_08_1110,N-Back (New Version 2021),2021.1.4,120.0284228
,,,,Conditions/Version_1/twoback(3)_v1.xlsx,New rule: Press 'space' when you see 2-back (i.e. the same letter as the one that appeared 2 letters ago.),c,None,,,,,,,,,0,10,10,10,0,7,7,7,,,,,,,,,,,,,,,,,,,,,,,,,,,,,,,,,,,,,,,,,,,,,,,,,,,,,,,,,,,,,,,,,,,,,1.2766,1140.470224,None,None,1,1140.470224,None,,P028,fencog,1,Pre,2022_Mar_08_1110,N-Back (New Version 2021),2021.1.4,120.0284228
,,,,Conditions/Version_1/twoback(3)_v1.xlsx,New rule: Press 'space' when you see 2-back (i.e. the same letter as the one that appeared 2 letters ago.),i,None,,,,,,,,,0,10,10,10,0,8,8,8,,,,,,,,,,,,,,,,,,,,,,,,,,,,,,,,,,,,,,,,,,,,,,,,,,,,,,,,,,,,,,,,,,,,,1.1464,1143.621264,None,None,1,1143.621264,None,,P028,fencog,1,Pre,2022_Mar_08_1110,N-Back (New Version 2021),2021.1.4,120.0284228
,,,,Conditions/Version_1/twoback(3)_v1.xlsx,New rule: Press 'space' when you see 2-back (i.e. the same letter as the one that appeared 2 letters ago.),C,space,,,,,,,,,0,10,10,10,0,9,9,9,,,,,,,,,,,,,,,,,,,,,,,,,,,,,,,,,,,,,,,,,,,,,,,,,,,,,,,,,,,,,,,,,,,,,1.6238,1147.252839,None,None,0,1147.252839,None,,P028,fencog,1,Pre,2022_Mar_08_1110,N-Back (New Version 2021),2021.1.4,120.0284228
,,,,Conditions/Version_1/twoback(3)_v1.xlsx,New rule: Press 'space' when you see 2-back (i.e. the same letter as the one that appeared 2 letters ago.),,,,,,,,,,,0,10,10,10,,,,,,,,,,,,,,,,,,,,,,,,,,,,,,,,,,,,,,,,,,,,,,,,,,,,,,,,,,,,,,,,,,,,,,,,,,,,,,,,,P028,fencog,1,Pre,2022_Mar_08_1110,N-Back (New Version 2021),2021.1.4,120.0284228
,,,,Conditions/Version_1/oneback(3)_v1.xlsx,New rule: Press 'space' when you see 1-back (i.e. the same letter as the one that appeared 1 letter ago.),o,None,,,,,,,,,0,11,11,11,0,0,0,0,,,,,,,,,,,,,,,,,,,,,,,,,,,,,,,,,,,,,,,,,,,,,,,,,,,,,,,,,,,1149.288467,None,1152.277363,None,space,4.3971452,1152.277363,None,1149.288467,None,1.0348,1157.740068,None,None,1,1157.740068,None,,P028,fencog,1,Pre,2022_Mar_08_1110,N-Back (New Version 2021),2021.1.4,120.0284228
,,,,Conditions/Version_1/oneback(3)_v1.xlsx,New rule: Press 'space' when you see 1-back (i.e. the same letter as the one that appeared 1 letter ago.),O,space,,,,,,,,,0,11,11,11,0,1,1,1,,,,,,,,,,,,,,,,,,,,,,,,,,,,,,,,,,,,,,,,,,,,,,,,,,,,,,,,,,,,,,,,,,,,,1.196,1160.941065,None,space,1,1160.941065,None,0.5415161,P028,fencog,1,Pre,2022_Mar_08_1110,N-Back (New Version 2021),2021.1.4,120.0284228
,,,,Conditions/Version_1/oneback(3)_v1.xlsx,New rule: Press 'space' when you see 1-back (i.e. the same letter as the one that appeared 1 letter ago.),h,None,,,,,,,,,0,11,11,11,0,2,2,2,,,,,,,,,,,,,,,,,,,,,,,,,,,,,,,,,,,,,,,,,,,,,,,,,,,,,,,,,,,,,,,,,,,,,1.2642,1164.214194,None,None,1,1164.214194,None,,P028,fencog,1,Pre,2022_Mar_08_1110,N-Back (New Version 2021),2021.1.4,120.0284228
,,,,Conditions/Version_1/oneback(3)_v1.xlsx,New rule: Press 'space' when you see 1-back (i.e. the same letter as the one that appeared 1 letter ago.),g,None,,,,,,,,,0,11,11,11,0,3,3,3,,,,,,,,,,,,,,,,,,,,,,,,,,,,,,,,,,,,,,,,,,,,,,,,,,,,,,,,,,,,,,,,,,,,,1.4936,1167.724292,None,None,1,1167.724292,None,,P028,fencog,1,Pre,2022_Mar_08_1110,N-Back (New Version 2021),2021.1.4,120.0284228
,,,,Conditions/Version_1/oneback(3)_v1.xlsx,New rule: Press 'space' when you see 1-back (i.e. the same letter as the one that appeared 1 letter ago.),n,None,,,,,,,,,0,11,11,11,0,4,4,4,,,,,,,,,,,,,,,,,,,,,,,,,,,,,,,,,,,,,,,,,,,,,,,,,,,,,,,,,,,,,,,,,,,,,1.0782,1170.811308,None,None,1,1170.811308,None,,P028,fencog,1,Pre,2022_Mar_08_1110,N-Back (New Version 2021),2021.1.4,120.0284228
,,,,Conditions/Version_1/oneback(3)_v1.xlsx,New rule: Press 'space' when you see 1-back (i.e. the same letter as the one that appeared 1 letter ago.),z,None,,,,,,,,,0,11,11,11,0,5,5,5,,,,,,,,,,,,,,,,,,,,,,,,,,,,,,,,,,,,,,,,,,,,,,,,,,,,,,,,,,,,,,,,,,,,,1.165,1173.976958,None,None,1,1173.976958,None,,P028,fencog,1,Pre,2022_Mar_08_1110,N-Back (New Version 2021),2021.1.4,120.0284228
,,,,Conditions/Version_1/oneback(3)_v1.xlsx,New rule: Press 'space' when you see 1-back (i.e. the same letter as the one that appeared 1 letter ago.),X,None,,,,,,,,,0,11,11,11,0,6,6,6,,,,,,,,,,,,,,,,,,,,,,,,,,,,,,,,,,,,,,,,,,,,,,,,,,,,,,,,,,,,,,,,,,,,,1.2208,1177.205256,None,None,1,1177.205256,None,,P028,fencog,1,Pre,2022_Mar_08_1110,N-Back (New Version 2021),2021.1.4,120.0284228
,,,,Conditions/Version_1/oneback(3)_v1.xlsx,New rule: Press 'space' when you see 1-back (i.e. the same letter as the one that appeared 1 letter ago.),r,None,,,,,,,,,0,11,11,11,0,7,7,7,,,,,,,,,,,,,,,,,,,,,,,,,,,,,,,,,,,,,,,,,,,,,,,,,,,,,,,,,,,,,,,,,,,,,1.4378,1180.64582,None,None,1,1180.64582,None,,P028,fencog,1,Pre,2022_Mar_08_1110,N-Back (New Version 2021),2021.1.4,120.0284228
,,,,Conditions/Version_1/oneback(3)_v1.xlsx,New rule: Press 'space' when you see 1-back (i.e. the same letter as the one that appeared 1 letter ago.),r,space,,,,,,,,,0,11,11,11,0,8,8,8,,,,,,,,,,,,,,,,,,,,,,,,,,,,,,,,,,,,,,,,,,,,,,,,,,,,,,,,,,,,,,,,,,,,,1.8842,1184.532178,None,space,1,1184.532178,None,0.5264947,P028,fencog,1,Pre,2022_Mar_08_1110,N-Back (New Version 2021),2021.1.4,120.0284228
,,,,Conditions/Version_1/oneback(3)_v1.xlsx,New rule: Press 'space' when you see 1-back (i.e. the same letter as the one that appeared 1 letter ago.),P,None,,,,,,,,,0,11,11,11,0,9,9,9,,,,,,,,,,,,,,,,,,,,,,,,,,,,,,,,,,,,,,,,,,,,,,,,,,,,,,,,,,,,,,,,,,,,,1.3882,1187.932171,None,None,1,1187.932171,None,,P028,fencog,1,Pre,2022_Mar_08_1110,N-Back (New Version 2021),2021.1.4,120.0284228
,,,,Conditions/Version_1/oneback(3)_v1.xlsx,New rule: Press 'space' when you see 1-back (i.e. the same letter as the one that appeared 1 letter ago.),,,,,,,,,,,0,11,11,11,,,,,,,,,,,,,,,,,,,,,,,,,,,,,,,,,,,,,,,,,,,,,,,,,,,,,,,,,,,,,,,,,,,,,,,,,,,,,,,,,P028,fencog,1,Pre,2022_Mar_08_1110,N-Back (New Version 2021),2021.1.4,120.0284228
,,,,Conditions/Version_1/twoback(4)_v1.xlsx,New rule: Press 'space' when you see 2-back (i.e. the same letter as the one that appeared 2 letters ago.),r,None,,,,,,,,,0,12,12,12,0,0,0,0,,,,,,,,,,,,,,,,,,,,,,,,,,,,,,,,,,,,,,,,,,,,,,,,,,,,,,,,,,,1189.962917,None,1192.948629,None,space,0.6458289,1192.948629,None,1189.962917,None,1.8098,1195.478366,None,None,1,1195.478366,None,,P028,fencog,1,Pre,2022_Mar_08_1110,N-Back (New Version 2021),2021.1.4,120.0284228
,,,,Conditions/Version_1/twoback(4)_v1.xlsx,New rule: Press 'space' when you see 2-back (i.e. the same letter as the one that appeared 2 letters ago.),T,None,,,,,,,,,0,12,12,12,0,1,1,1,,,,,,,,,,,,,,,,,,,,,,,,,,,,,,,,,,,,,,,,,,,,,,,,,,,,,,,,,,,,,,,,,,,,,1.0782,1198.561375,None,None,1,1198.561375,None,,P028,fencog,1,Pre,2022_Mar_08_1110,N-Back (New Version 2021),2021.1.4,120.0284228
,,,,Conditions/Version_1/twoback(4)_v1.xlsx,New rule: Press 'space' when you see 2-back (i.e. the same letter as the one that appeared 2 letters ago.),o,None,,,,,,,,,0,12,12,12,0,2,2,2,,,,,,,,,,,,,,,,,,,,,,,,,,,,,,,,,,,,,,,,,,,,,,,,,,,,,,,,,,,,,,,,,,,,,1.2022,1201.768749,None,None,1,1201.768749,None,,P028,fencog,1,Pre,2022_Mar_08_1110,N-Back (New Version 2021),2021.1.4,120.0284228
,,,,Conditions/Version_1/twoback(4)_v1.xlsx,New rule: Press 'space' when you see 2-back (i.e. the same letter as the one that appeared 2 letters ago.),p,None,,,,,,,,,0,12,12,12,0,3,3,3,,,,,,,,,,,,,,,,,,,,,,,,,,,,,,,,,,,,,,,,,,,,,,,,,,,,,,,,,,,,,,,,,,,,,1.6672,1205.442692,None,None,1,1205.442692,None,,P028,fencog,1,Pre,2022_Mar_08_1110,N-Back (New Version 2021),2021.1.4,120.0284228
,,,,Conditions/Version_1/twoback(4)_v1.xlsx,New rule: Press 'space' when you see 2-back (i.e. the same letter as the one that appeared 2 letters ago.),p,None,,,,,,,,,0,12,12,12,0,4,4,4,,,,,,,,,,,,,,,,,,,,,,,,,,,,,,,,,,,,,,,,,,,,,,,,,,,,,,,,,,,,,,,,,,,,,1.9648,1209.416699,None,space,0,1209.416699,None,0.5700307,P028,fencog,1,Pre,2022_Mar_08_1110,N-Back (New Version 2021),2021.1.4,120.0284228
,,,,Conditions/Version_1/twoback(4)_v1.xlsx,New rule: Press 'space' when you see 2-back (i.e. the same letter as the one that appeared 2 letters ago.),y,None,,,,,,,,,0,12,12,12,0,5,5,5,,,,,,,,,,,,,,,,,,,,,,,,,,,,,,,,,,,,,,,,,,,,,,,,,,,,,,,,,,,,,,,,,,,,,1.3448,1212.765522,None,None,1,1212.765522,None,,P028,fencog,1,Pre,2022_Mar_08_1110,N-Back (New Version 2021),2021.1.4,120.0284228
,,,,Conditions/Version_1/twoback(4)_v1.xlsx,New rule: Press 'space' when you see 2-back (i.e. the same letter as the one that appeared 2 letters ago.),P,space,,,,,,,,,0,12,12,12,0,6,6,6,,,,,,,,,,,,,,,,,,,,,,,,,,,,,,,,,,,,,,,,,,,,,,,,,,,,,,,,,,,,,,,,,,,,,1.0906,1215.856169,None,space,1,1215.856169,None,0.7860887,P028,fencog,1,Pre,2022_Mar_08_1110,N-Back (New Version 2021),2021.1.4,120.0284228
,,,,Conditions/Version_1/twoback(4)_v1.xlsx,New rule: Press 'space' when you see 2-back (i.e. the same letter as the one that appeared 2 letters ago.),y,None,,,,,,,,,0,12,12,12,0,7,7,7,,,,,,,,,,,,,,,,,,,,,,,,,,,,,,,,,,,,,,,,,,,,,,,,,,,,,,,,,,,,,,,,,,,,,1.7726,1219.630207,None,None,1,1219.630207,None,,P028,fencog,1,Pre,2022_Mar_08_1110,N-Back (New Version 2021),2021.1.4,120.0284228
,,,,Conditions/Version_1/twoback(4)_v1.xlsx,New rule: Press 'space' when you see 2-back (i.e. the same letter as the one that appeared 2 letters ago.),y,space,,,,,,,,,0,12,12,12,0,8,8,8,,,,,,,,,,,,,,,,,,,,,,,,,,,,,,,,,,,,,,,,,,,,,,,,,,,,,,,,,,,,,,,,,,,,,1.32,1222.956535,None,None,0,1222.956535,None,,P028,fencog,1,Pre,2022_Mar_08_1110,N-Back (New Version 2021),2021.1.4,120.0284228
,,,,Conditions/Version_1/twoback(4)_v1.xlsx,New rule: Press 'space' when you see 2-back (i.e. the same letter as the one that appeared 2 letters ago.),,,,,,,,,,,0,12,12,12,,,,,,,,,,,,,,,,,,,,,,,,,,,,,,,,,,,,,,,,,,,,,,,,,,,,,,,,,,,,,,,,,,,,,,,,,,,,,,,,,P028,fencog,1,Pre,2022_Mar_08_1110,N-Back (New Version 2021),2021.1.4,120.0284228
,,,,Conditions/Version_1/zeroback(4)_v1.xlsx,New rule: Press 'space' when you see the letter 'x' or 'X'.,o,None,,,,,,,,,0,13,13,13,0,0,0,0,,,,,,,,,,,,,,,,,,,,,,,,,,,,,,,,,,,,,,,,,,,,,,,,,,,,,,,,,,,1224.98668,None,1227.971072,None,space,1.0715039,1227.971072,None,1224.98668,None,1.94,1231.011244,None,None,1,1231.011244,None,,P028,fencog,1,Pre,2022_Mar_08_1110,N-Back (New Version 2021),2021.1.4,120.0284228
,,,,Conditions/Version_1/zeroback(4)_v1.xlsx,New rule: Press 'space' when you see the letter 'x' or 'X'.,X,space,,,,,,,,,0,13,13,13,0,1,1,1,,,,,,,,,,,,,,,,,,,,,,,,,,,,,,,,,,,,,,,,,,,,,,,,,,,,,,,,,,,,,,,,,,,,,1.1092,1234.125769,None,space,1,1234.125769,None,0.7248433,P028,fencog,1,Pre,2022_Mar_08_1110,N-Back (New Version 2021),2021.1.4,120.0284228
,,,,Conditions/Version_1/zeroback(4)_v1.xlsx,New rule: Press 'space' when you see the letter 'x' or 'X'.,p,None,,,,,,,,,0,13,13,13,0,2,2,2,,,,,,,,,,,,,,,,,,,,,,,,,,,,,,,,,,,,,,,,,,,,,,,,,,,,,,,,,,,,,,,,,,,,,1.0596,1237.192075,None,None,1,1237.192075,None,,P028,fencog,1,Pre,2022_Mar_08_1110,N-Back (New Version 2021),2021.1.4,120.0284228
,,,,Conditions/Version_1/zeroback(4)_v1.xlsx,New rule: Press 'space' when you see the letter 'x' or 'X'.,m,None,,,,,,,,,0,13,13,13,0,3,3,3,,,,,,,,,,,,,,,,,,,,,,,,,,,,,,,,,,,,,,,,,,,,,,,,,,,,,,,,,,,,,,,,,,,,,1.041,1240.232506,None,None,1,1240.232506,None,,P028,fencog,1,Pre,2022_Mar_08_1110,N-Back (New Version 2021),2021.1.4,120.0284228
,,,,Conditions/Version_1/zeroback(4)_v1.xlsx,New rule: Press 'space' when you see the letter 'x' or 'X'.,n,None,,,,,,,,,0,13,13,13,0,4,4,4,,,,,,,,,,,,,,,,,,,,,,,,,,,,,,,,,,,,,,,,,,,,,,,,,,,,,,,,,,,,,,,,,,,,,1.134,1243.37383,None,None,1,1243.37383,None,,P028,fencog,1,Pre,2022_Mar_08_1110,N-Back (New Version 2021),2021.1.4,120.0284228
,,,,Conditions/Version_1/zeroback(4)_v1.xlsx,New rule: Press 'space' when you see the letter 'x' or 'X'.,m,None,,,,,,,,,0,13,13,13,0,5,5,5,,,,,,,,,,,,,,,,,,,,,,,,,,,,,,,,,,,,,,,,,,,,,,,,,,,,,,,,,,,,,,,,,,,,,1.723,1247.106676,None,None,1,1247.106676,None,,P028,fencog,1,Pre,2022_Mar_08_1110,N-Back (New Version 2021),2021.1.4,120.0284228
,,,,Conditions/Version_1/zeroback(4)_v1.xlsx,New rule: Press 'space' when you see the letter 'x' or 'X'.,C,None,,,,,,,,,0,13,13,13,0,6,6,6,,,,,,,,,,,,,,,,,,,,,,,,,,,,,,,,,,,,,,,,,,,,,,,,,,,,,,,,,,,,,,,,,,,,,1.0658,1250.182026,None,None,1,1250.182026,None,,P028,fencog,1,Pre,2022_Mar_08_1110,N-Back (New Version 2021),2021.1.4,120.0284228
,,,,Conditions/Version_1/zeroback(4)_v1.xlsx,New rule: Press 'space' when you see the letter 'x' or 'X'.,m,None,,,,,,,,,0,13,13,13,0,7,7,7,,,,,,,,,,,,,,,,,,,,,,,,,,,,,,,,,,,,,,,,,,,,,,,,,,,,,,,,,,,,,,,,,,,,,1.9462,1254.136646,None,None,1,1254.136646,None,,P028,fencog,1,Pre,2022_Mar_08_1110,N-Back (New Version 2021),2021.1.4,120.0284228
,,,,Conditions/Version_1/zeroback(4)_v1.xlsx,New rule: Press 'space' when you see the letter 'x' or 'X'.,p,None,,,,,,,,,0,13,13,13,0,8,8,8,,,,,,,,,,,,,,,,,,,,,,,,,,,,,,,,,,,,,,,,,,,,,,,,,,,,,,,,,,,,,,,,,,,,,1.7726,1257.910787,None,None,1,1257.910787,None,,P028,fencog,1,Pre,2022_Mar_08_1110,N-Back (New Version 2021),2021.1.4,120.0284228
,,,,Conditions/Version_1/zeroback(4)_v1.xlsx,New rule: Press 'space' when you see the letter 'x' or 'X'.,X,space,,,,,,,,,0,13,13,13,0,9,9,9,,,,,,,,,,,,,,,,,,,,,,,,,,,,,,,,,,,,,,,,,,,,,,,,,,,,,,,,,,,,,,,,,,,,,1.6238,1261.534491,None,space,1,1261.534491,None,0.6040248,P028,fencog,1,Pre,2022_Mar_08_1110,N-Back (New Version 2021),2021.1.4,120.0284228
,,,,Conditions/Version_1/zeroback(4)_v1.xlsx,New rule: Press 'space' when you see the letter 'x' or 'X'.,,,,,,,,,,,0,13,13,13,,,,,,,,,,,,,,,,,,,,,,,,,,,,,,,,,,,,,,,,,,,,,,,,,,,,,,,,,,,,,,,,,,,,,,,,,,,,,,,,,P028,fencog,1,Pre,2022_Mar_08_1110,N-Back (New Version 2021),2021.1.4,120.0284228
,,,,Conditions/Version_1/oneback(4)_v1.xlsx,New rule: Press 'space' when you see 1-back (i.e. the same letter as the one that appeared 1 letter ago.),w,None,,,,,,,,,0,14,14,14,0,0,0,0,,,,,,,,,,,,,,,,,,,,,,,,,,,,,,,,,,,,,,,,,,,,,,,,,,,,,,,,,,,1263.55663,None,1266.543692,None,space,0.0989325,1266.543692,None,1263.55663,None,1.3138,1267.982576,None,None,1,1267.982576,None,,P028,fencog,1,Pre,2022_Mar_08_1110,N-Back (New Version 2021),2021.1.4,120.0284228
,,,,Conditions/Version_1/oneback(4)_v1.xlsx,New rule: Press 'space' when you see 1-back (i.e. the same letter as the one that appeared 1 letter ago.),q,None,,,,,,,,,0,14,14,14,0,1,1,1,,,,,,,,,,,,,,,,,,,,,,,,,,,,,,,,,,,,,,,,,,,,,,,,,,,,,,,,,,,,,,,,,,,,,1.227,1271.215897,None,None,1,1271.215897,None,,P028,fencog,1,Pre,2022_Mar_08_1110,N-Back (New Version 2021),2021.1.4,120.0284228
,,,,Conditions/Version_1/oneback(4)_v1.xlsx,New rule: Press 'space' when you see 1-back (i.e. the same letter as the one that appeared 1 letter ago.),i,None,,,,,,,,,0,14,14,14,0,2,2,2,,,,,,,,,,,,,,,,,,,,,,,,,,,,,,,,,,,,,,,,,,,,,,,,,,,,,,,,,,,,,,,,,,,,,1.3944,1274.622319,None,None,1,1274.622319,None,,P028,fencog,1,Pre,2022_Mar_08_1110,N-Back (New Version 2021),2021.1.4,120.0284228
,,,,Conditions/Version_1/oneback(4)_v1.xlsx,New rule: Press 'space' when you see 1-back (i.e. the same letter as the one that appeared 1 letter ago.),t,None,,,,,,,,,0,14,14,14,0,3,3,3,,,,,,,,,,,,,,,,,,,,,,,,,,,,,,,,,,,,,,,,,,,,,,,,,,,,,,,,,,,,,,,,,,,,,1.8036,1278.433583,None,None,1,1278.433583,None,,P028,fencog,1,Pre,2022_Mar_08_1110,N-Back (New Version 2021),2021.1.4,120.0284228
,,,,Conditions/Version_1/oneback(4)_v1.xlsx,New rule: Press 'space' when you see 1-back (i.e. the same letter as the one that appeared 1 letter ago.),v,None,,,,,,,,,0,14,14,14,0,4,4,4,,,,,,,,,,,,,,,,,,,,,,,,,,,,,,,,,,,,,,,,,,,,,,,,,,,,,,,,,,,,,,,,,,,,,1.5618,1282.005432,None,None,1,1282.005432,None,,P028,fencog,1,Pre,2022_Mar_08_1110,N-Back (New Version 2021),2021.1.4,120.0284228
,,,,Conditions/Version_1/oneback(4)_v1.xlsx,New rule: Press 'space' when you see 1-back (i.e. the same letter as the one that appeared 1 letter ago.),V,space,,,,,,,,,0,14,14,14,0,5,5,5,,,,,,,,,,,,,,,,,,,,,,,,,,,,,,,,,,,,,,,,,,,,,,,,,,,,,,,,,,,,,,,,,,,,,1.32,1285.337578,None,space,1,1285.337578,None,0.4890248,P028,fencog,1,Pre,2022_Mar_08_1110,N-Back (New Version 2021),2021.1.4,120.0284228
,,,,Conditions/Version_1/oneback(4)_v1.xlsx,New rule: Press 'space' when you see 1-back (i.e. the same letter as the one that appeared 1 letter ago.),v,space,,,,,,,,,0,14,14,14,0,6,6,6,,,,,,,,,,,,,,,,,,,,,,,,,,,,,,,,,,,,,,,,,,,,,,,,,,,,,,,,,,,,,,,,,,,,,1.4626,1288.81189,None,space,1,1288.81189,None,0.8946473,P028,fencog,1,Pre,2022_Mar_08_1110,N-Back (New Version 2021),2021.1.4,120.0284228
,,,,Conditions/Version_1/oneback(4)_v1.xlsx,New rule: Press 'space' when you see 1-back (i.e. the same letter as the one that appeared 1 letter ago.),p,None,,,,,,,,,0,14,14,14,0,7,7,7,,,,,,,,,,,,,,,,,,,,,,,,,,,,,,,,,,,,,,,,,,,,,,,,,,,,,,,,,,,,,,,,,,,,,1.4936,1292.320646,None,None,1,1292.320646,None,,P028,fencog,1,Pre,2022_Mar_08_1110,N-Back (New Version 2021),2021.1.4,120.0284228
,,,,Conditions/Version_1/oneback(4)_v1.xlsx,New rule: Press 'space' when you see 1-back (i.e. the same letter as the one that appeared 1 letter ago.),w,None,,,,,,,,,0,14,14,14,0,8,8,8,,,,,,,,,,,,,,,,,,,,,,,,,,,,,,,,,,,,,,,,,,,,,,,,,,,,,,,,,,,,,,,,,,,,,1.847,1296.174427,None,None,1,1296.174427,None,,P028,fencog,1,Pre,2022_Mar_08_1110,N-Back (New Version 2021),2021.1.4,120.0284228
,,,,Conditions/Version_1/oneback(4)_v1.xlsx,New rule: Press 'space' when you see 1-back (i.e. the same letter as the one that appeared 1 letter ago.),W,space,,,,,,,,,0,14,14,14,0,9,9,9,,,,,,,,,,,,,,,,,,,,,,,,,,,,,,,,,,,,,,,,,,,,,,,,,,,,,,,,,,,,,,,,,,,,,1.8284,1300.006438,None,space,1,1300.006438,None,0.7640219,P028,fencog,1,Pre,2022_Mar_08_1110,N-Back (New Version 2021),2021.1.4,120.0284228
,,,,Conditions/Version_1/oneback(4)_v1.xlsx,New rule: Press 'space' when you see 1-back (i.e. the same letter as the one that appeared 1 letter ago.),,,,,,,,,,,0,14,14,14,,,,,,,,,,,,,,,,,,,,,,,,,,,,,,,,,,,,,,,,,,,,,,,,,,,,,,,,,,,,,,,,,,,,,,,,,,,,,,,,,P028,fencog,1,Pre,2022_Mar_08_1110,N-Back (New Version 2021),2021.1.4,120.0284228
,,,,Conditions/Version_1/threeback(4)_v1.xlsx,New rule: Press 'space' when you see 3-back (i.e. the same letter as the one that appeared 3 letters ago.),A,None,,,,,,,,,0,15,15,15,0,0,0,0,,,,,,,,,,,,,,,,,,,,,,,,,,,,,,,,,,,,,,,,,,,,,,,,,,,,,,,,,,,1302.029076,None,1305.015117,None,space,0.4993495,1305.015117,None,1302.029076,None,1.1774,1306.721218,None,None,1,1306.721218,None,,P028,fencog,1,Pre,2022_Mar_08_1110,N-Back (New Version 2021),2021.1.4,120.0284228
,,,,Conditions/Version_1/threeback(4)_v1.xlsx,New rule: Press 'space' when you see 3-back (i.e. the same letter as the one that appeared 3 letters ago.),n,None,,,,,,,,,0,15,15,15,0,1,1,1,,,,,,,,,,,,,,,,,,,,,,,,,,,,,,,,,,,,,,,,,,,,,,,,,,,,,,,,,,,,,,,,,,,,,1.3076,1310.028568,None,None,1,1310.028568,None,,P028,fencog,1,Pre,2022_Mar_08_1110,N-Back (New Version 2021),2021.1.4,120.0284228
,,,,Conditions/Version_1/threeback(4)_v1.xlsx,New rule: Press 'space' when you see 3-back (i.e. the same letter as the one that appeared 3 letters ago.),g,None,,,,,,,,,0,15,15,15,0,2,2,2,,,,,,,,,,,,,,,,,,,,,,,,,,,,,,,,,,,,,,,,,,,,,,,,,,,,,,,,,,,,,,,,,,,,,1.6424,1313.677896,None,None,1,1313.677896,None,,P028,fencog,1,Pre,2022_Mar_08_1110,N-Back (New Version 2021),2021.1.4,120.0284228
,,,,Conditions/Version_1/threeback(4)_v1.xlsx,New rule: Press 'space' when you see 3-back (i.e. the same letter as the one that appeared 3 letters ago.),A,space,,,,,,,,,0,15,15,15,0,3,3,3,,,,,,,,,,,,,,,,,,,,,,,,,,,,,,,,,,,,,,,,,,,,,,,,,,,,,,,,,,,,,,,,,,,,,1.9648,1317.653803,None,space,1,1317.653803,None,0.7013785,P028,fencog,1,Pre,2022_Mar_08_1110,N-Back (New Version 2021),2021.1.4,120.0284228
,,,,Conditions/Version_1/threeback(4)_v1.xlsx,New rule: Press 'space' when you see 3-back (i.e. the same letter as the one that appeared 3 letters ago.),p,None,,,,,,,,,0,15,15,15,0,4,4,4,,,,,,,,,,,,,,,,,,,,,,,,,,,,,,,,,,,,,,,,,,,,,,,,,,,,,,,,,,,,,,,,,,,,,1.2332,1320.892011,None,None,1,1320.892011,None,,P028,fencog,1,Pre,2022_Mar_08_1110,N-Back (New Version 2021),2021.1.4,120.0284228
,,,,Conditions/Version_1/threeback(4)_v1.xlsx,New rule: Press 'space' when you see 3-back (i.e. the same letter as the one that appeared 3 letters ago.),O,None,,,,,,,,,0,15,15,15,0,5,5,5,,,,,,,,,,,,,,,,,,,,,,,,,,,,,,,,,,,,,,,,,,,,,,,,,,,,,,,,,,,,,,,,,,,,,1.8284,1324.724283,None,None,1,1324.724283,None,,P028,fencog,1,Pre,2022_Mar_08_1110,N-Back (New Version 2021),2021.1.4,120.0284228
,,,,Conditions/Version_1/threeback(4)_v1.xlsx,New rule: Press 'space' when you see 3-back (i.e. the same letter as the one that appeared 3 letters ago.),a,space,,,,,,,,,0,15,15,15,0,6,6,6,,,,,,,,,,,,,,,,,,,,,,,,,,,,,,,,,,,,,,,,,,,,,,,,,,,,,,,,,,,,,,,,,,,,,1.4006,1328.123221,None,None,0,1328.123221,None,,P028,fencog,1,Pre,2022_Mar_08_1110,N-Back (New Version 2021),2021.1.4,120.0284228
,,,,Conditions/Version_1/threeback(4)_v1.xlsx,New rule: Press 'space' when you see 3-back (i.e. the same letter as the one that appeared 3 letters ago.),p,space,,,,,,,,,0,15,15,15,0,7,7,7,,,,,,,,,,,,,,,,,,,,,,,,,,,,,,,,,,,,,,,,,,,,,,,,,,,,,,,,,,,,,,,,,,,,,1.5494,1331.672209,None,space,1,1331.672209,None,1.2425388,P028,fencog,1,Pre,2022_Mar_08_1110,N-Back (New Version 2021),2021.1.4,120.0284228
,,,,Conditions/Version_1/threeback(4)_v1.xlsx,New rule: Press 'space' when you see 3-back (i.e. the same letter as the one that appeared 3 letters ago.),x,None,,,,,,,,,0,15,15,15,0,8,8,8,,,,,,,,,,,,,,,,,,,,,,,,,,,,,,,,,,,,,,,,,,,,,,,,,,,,,,,,,,,,,,,,,,,,,1.0844,1334.762966,None,None,1,1334.762966,None,,P028,fencog,1,Pre,2022_Mar_08_1110,N-Back (New Version 2021),2021.1.4,120.0284228
,,,,Conditions/Version_1/threeback(4)_v1.xlsx,New rule: Press 'space' when you see 3-back (i.e. the same letter as the one that appeared 3 letters ago.),X,None,,,,,,,,,0,15,15,15,0,9,9,9,,,,,,,,,,,,,,,,,,,,,,,,,,,,,,,,,,,,,,,,,,,,,,,,,,,,,,,,,,,,,,,,,,,,,1.7106,1338.485374,None,None,1,1338.485374,None,,P028,fencog,1,Pre,2022_Mar_08_1110,N-Back (New Version 2021),2021.1.4,120.0284228
,,,,Conditions/Version_1/threeback(4)_v1.xlsx,New rule: Press 'space' when you see 3-back (i.e. the same letter as the one that appeared 3 letters ago.),,,,,,,,,,,0,15,15,15,,,,,,,,,,,,,,,,,,,,,,,,,,,,,,,,,,,,,,,,,,,,,,,,,,,,,,,,,,,,,,,,,,,,,,,,,,,,,,,,,P028,fencog,1,Pre,2022_Mar_08_1110,N-Back (New Version 2021),2021.1.4,120.0284228
