CondFileP,InstructionsP,LettersDisplayedP,CorrectnessP,CondFile,Instructions,LettersDisplayed,Correctness,practicetrials.thisRepN,practicetrials.thisTrialN,practicetrials.thisN,practicetrials.thisIndex,InnerLoopPractice.thisRepN,InnerLoopPractice.thisTrialN,InnerLoopPractice.thisN,InnerLoopPractice.thisIndex,trials.thisRepN,trials.thisTrialN,trials.thisN,trials.thisIndex,InnerLoop.thisRepN,InnerLoop.thisTrialN,InnerLoop.thisN,InnerLoop.thisIndex,TaskVersionText.started,TaskVersionText.stopped,InstrKey1.keys,InstrKey1.rt,InstrKey1.started,InstrKey1.stopped,text.started,text.stopped,key_resp_4.keys,key_resp_4.rt,key_resp_4.started,key_resp_4.stopped,text_2.started,text_2.stopped,key_resp_3.keys,key_resp_3.rt,key_resp_3.started,key_resp_3.stopped,text_3.started,text_3.stopped,key_resp_2.keys,key_resp_2.rt,key_resp_2.started,key_resp_2.stopped,PractIn1.started,PractIn1.stopped,PractIn2.started,PractIn2.stopped,PractInstructionPass.keys,PractInstructionPass.rt,PractInstructionPass.started,PractInstructionPass.stopped,PractBlock1.started,PractBlock1.stopped,ISIjitterPractice,ISI_Pract_Fixation.started,ISI_Pract_Fixation.stopped,N_backP.started,N_backP.stopped,KeyPractice.keys,KeyPractice.corr,KeyPractice.rt,KeyPractice.started,KeyPractice.stopped,text_4.started,text_4.stopped,TransitionText.started,TransitionText.stopped,key_resp_6.keys,key_resp_6.rt,key_resp_6.started,key_resp_6.stopped,text_5.started,text_5.stopped,key_resp_5.keys,key_resp_5.rt,key_resp_5.started,key_resp_5.stopped,MainInt1.started,MainInt1.stopped,MainInt2.started,MainInt2.stopped,InstructionPass.keys,InstructionPass.rt,InstructionPass.started,InstructionPass.stopped,Blocks1.started,Blocks1.stopped,ISIjitter,N_backD.started,N_backD.stopped,key_resp.keys,key_resp.corr,key_resp.started,key_resp.stopped,key_resp.rt,participant,Study Name,Task Version (required to run),PRE/POST,date,expName,psychopyVersion,frameRate,
,,,,,,,,,,,,,,,,,,,,,,,,18.589021199964918,None,space,98.10813810001127,19.078049600007944,None,,,,,,,,,,,,,,,,,,,,,,,,,,,,,,,,,,,,,,,,,,,,,,,,,,,,,,,,,,,,,,,,,,,,,,,P029,fencog,2,Pre,2022_Mar_09_1143,N-Back (New Version 2021),2021.1.4,120.16992027407926,
,,,,,,,,,,,,,,,,,,,,,,,,,,,,,,117.21922879997874,None,space,13.03009590000147,117.71625830000266,None,,,,,,,,,,,,,,,,,,,,,,,,,,,,,,,,,,,,,,,,,,,,,,,,,,,,,,,,,,,,,,,,,P029,fencog,2,Pre,2022_Mar_09_1143,N-Back (New Version 2021),2021.1.4,120.16992027407926,
,,,,,,,,,,,,,,,,,,,,,,,,,,,,,,,,,,,,130.78048059996217,None,space,12.211872300016694,131.27070130000357,None,,,,,,,,,,,,,,,,,,,,,,,,,,,,,,,,,,,,,,,,,,,,,,,,,,,,,,,,,,,P029,fencog,2,Pre,2022_Mar_09_1143,N-Back (New Version 2021),2021.1.4,120.16992027407926,
,,,,,,,,,,,,,,,,,,,,,,,,,,,,,,,,,,,,,,,,,,143.52694519999204,None,space,7.657673200010322,144.02475149999373,None,,,,,,,,,,,,,,,,,,,,,,,,,,,,,,,,,,,,,,,,,,,,,,,,,,,,,P029,fencog,2,Pre,2022_Mar_09_1143,N-Back (New Version 2021),2021.1.4,120.16992027407926,
Conditions/Version_2Pr/zeroback(1)_v2.xlsx,Rule: Press 'space' when you see the letter 'x' or 'X'.,x,space,,,,,0,0,0,0,0,0,0,0,,,,,,,,,,,,,,,,,,,,,,,,,,,,,,,,,153.07716739998432,None,156.0642208000063,None,space,0.5539231000002474,156.0642208000063,None,153.07716739998432,None,1.465,156.64153899997473,None,158.1138401000062,None,space,1,0.47255790000781417,158.1138401000062,None,158.60100610001246,None,,,,,,,,,,,,,,,,,,,,,,,,,,,,,,,P029,fencog,2,Pre,2022_Mar_09_1143,N-Back (New Version 2021),2021.1.4,120.16992027407926,
Conditions/Version_2Pr/zeroback(1)_v2.xlsx,Rule: Press 'space' when you see the letter 'x' or 'X'.,R,None,,,,,0,0,0,0,0,1,1,1,,,,,,,,,,,,,,,,,,,,,,,,,,,,,,,,,,,,,,,,,,,1.565,160.10292269999627,None,161.67171059997054,None,None,1,,161.67171059997054,None,163.67681109998375,None,,,,,,,,,,,,,,,,,,,,,,,,,,,,,,,P029,fencog,2,Pre,2022_Mar_09_1143,N-Back (New Version 2021),2021.1.4,120.16992027407926,
Conditions/Version_2Pr/zeroback(1)_v2.xlsx,Rule: Press 'space' when you see the letter 'x' or 'X'.,p,None,,,,,0,0,0,0,0,2,2,2,,,,,,,,,,,,,,,,,,,,,,,,,,,,,,,,,,,,,,,,,,,1.24,165.17811350000557,None,166.42192639998393,None,None,1,,166.42192639998393,None,168.4250422999612,None,,,,,,,,,,,,,,,,,,,,,,,,,,,,,,,P029,fencog,2,Pre,2022_Mar_09_1143,N-Back (New Version 2021),2021.1.4,120.16992027407926,
Conditions/Version_2Pr/zeroback(1)_v2.xlsx,Rule: Press 'space' when you see the letter 'x' or 'X'.,O,None,,,,,0,0,0,0,0,3,3,3,,,,,,,,,,,,,,,,,,,,,,,,,,,,,,,,,,,,,,,,,,,1.99,169.9246048000059,None,171.91779949999182,None,None,1,,171.91779949999182,None,173.9209578000009,None,,,,,,,,,,,,,,,,,,,,,,,,,,,,,,,P029,fencog,2,Pre,2022_Mar_09_1143,N-Back (New Version 2021),2021.1.4,120.16992027407926,
Conditions/Version_2Pr/zeroback(1)_v2.xlsx,Rule: Press 'space' when you see the letter 'x' or 'X'.,i,None,,,,,0,0,0,0,0,4,4,4,,,,,,,,,,,,,,,,,,,,,,,,,,,,,,,,,,,,,,,,,,,1.915,175.42345030000433,None,177.3426154999761,None,None,1,,177.3426154999761,None,179.34724829997867,None,,,,,,,,,,,,,,,,,,,,,,,,,,,,,,,P029,fencog,2,Pre,2022_Mar_09_1143,N-Back (New Version 2021),2021.1.4,120.16992027407926,
Conditions/Version_2Pr/zeroback(1)_v2.xlsx,Rule: Press 'space' when you see the letter 'x' or 'X'.,U,None,,,,,0,0,0,0,0,5,5,5,,,,,,,,,,,,,,,,,,,,,,,,,,,,,,,,,,,,,,,,,,,1.19,180.84674389997963,None,182.03965039999457,None,None,1,,182.03965039999457,None,184.04587590001756,None,,,,,,,,,,,,,,,,,,,,,,,,,,,,,,,P029,fencog,2,Pre,2022_Mar_09_1143,N-Back (New Version 2021),2021.1.4,120.16992027407926,
Conditions/Version_2Pr/zeroback(1)_v2.xlsx,Rule: Press 'space' when you see the letter 'x' or 'X'.,N,None,,,,,0,0,0,0,0,6,6,6,,,,,,,,,,,,,,,,,,,,,,,,,,,,,,,,,,,,,,,,,,,1.115,185.54524599999422,None,186.66473109996878,None,None,1,,186.66473109996878,None,188.66947849997086,None,,,,,,,,,,,,,,,,,,,,,,,,,,,,,,,P029,fencog,2,Pre,2022_Mar_09_1143,N-Back (New Version 2021),2021.1.4,120.16992027407926,
Conditions/Version_2Pr/zeroback(1)_v2.xlsx,Rule: Press 'space' when you see the letter 'x' or 'X'.,m,None,,,,,0,0,0,0,0,7,7,7,,,,,,,,,,,,,,,,,,,,,,,,,,,,,,,,,,,,,,,,,,,1.79,190.16904030001024,None,191.96086769999238,None,None,1,,191.96086769999238,None,193.96775010001147,None,,,,,,,,,,,,,,,,,,,,,,,,,,,,,,,P029,fencog,2,Pre,2022_Mar_09_1143,N-Back (New Version 2021),2021.1.4,120.16992027407926,
Conditions/Version_2Pr/zeroback(1)_v2.xlsx,Rule: Press 'space' when you see the letter 'x' or 'X'.,x,space,,,,,0,0,0,0,0,8,8,8,,,,,,,,,,,,,,,,,,,,,,,,,,,,,,,,,,,,,,,,,,,1.065,195.46747769997455,None,196.5347982000094,None,space,1,0.5716910000192001,196.5347982000094,None,197.1191858999664,None,,,,,,,,,,,,,,,,,,,,,,,,,,,,,,,P029,fencog,2,Pre,2022_Mar_09_1143,N-Back (New Version 2021),2021.1.4,120.16992027407926,
Conditions/Version_2Pr/zeroback(1)_v2.xlsx,Rule: Press 'space' when you see the letter 'x' or 'X'.,X,space,,,,,0,0,0,0,0,9,9,9,,,,,,,,,,,,,,,,,,,,,,,,,,,,,,,,,,,,,,,,,,,1.04,198.62490880000405,None,199.66771040001186,None,space,1,0.43866610003169626,199.66771040001186,None,200.11765069997637,None,,,,,,,,,,,,,,,,,,,,,,,,,,,,,,,P029,fencog,2,Pre,2022_Mar_09_1143,N-Back (New Version 2021),2021.1.4,120.16992027407926,
Conditions/Version_2Pr/zeroback(1)_v2.xlsx,Rule: Press 'space' when you see the letter 'x' or 'X'.,,,,,,,0,0,0,0,,,,,,,,,,,,,,,,,,,,,,,,,,,,,,,,,,,,,,,,,,,,,,,,,,,,,,,,,,,,,,,,,,,,,,,,,,,,,,,,,,,,,,,,,P029,fencog,2,Pre,2022_Mar_09_1143,N-Back (New Version 2021),2021.1.4,120.16992027407926,
Conditions/Version_2Pr/oneback(1)_v2.xlsx,New rule: Press 'space' when you see 1-back (i.e. the same letter as the one that appeared 1 letter ago.),r,None,,,,,0,1,1,1,0,0,0,0,,,,,,,,,,,,,,,,,,,,,,,,,,,,,,,,,201.64856860000873,None,204.63339209998958,None,space,4.817069800046738,204.63339209998958,None,201.64856860000873,None,1.265,209.47149450000143,None,210.74079100001836,None,None,1,,210.74079100001836,None,212.74569650000194,None,,,,,,,,,,,,,,,,,,,,,,,,,,,,,,,P029,fencog,2,Pre,2022_Mar_09_1143,N-Back (New Version 2021),2021.1.4,120.16992027407926,
Conditions/Version_2Pr/oneback(1)_v2.xlsx,New rule: Press 'space' when you see 1-back (i.e. the same letter as the one that appeared 1 letter ago.),t,None,,,,,0,1,1,1,0,1,1,1,,,,,,,,,,,,,,,,,,,,,,,,,,,,,,,,,,,,,,,,,,,1.815,214.24523130001035,None,216.06225829996401,None,None,1,,216.06225829996401,None,218.068906600005,None,,,,,,,,,,,,,,,,,,,,,,,,,,,,,,,P029,fencog,2,Pre,2022_Mar_09_1143,N-Back (New Version 2021),2021.1.4,120.16992027407926,
Conditions/Version_2Pr/oneback(1)_v2.xlsx,New rule: Press 'space' when you see 1-back (i.e. the same letter as the one that appeared 1 letter ago.),Y,None,,,,,0,1,1,1,0,2,2,2,,,,,,,,,,,,,,,,,,,,,,,,,,,,,,,,,,,,,,,,,,,1.49,219.5686612999998,None,221.0604086999665,None,None,1,,221.0604086999665,None,223.06407429999672,None,,,,,,,,,,,,,,,,,,,,,,,,,,,,,,,P029,fencog,2,Pre,2022_Mar_09_1143,N-Back (New Version 2021),2021.1.4,120.16992027407926,
Conditions/Version_2Pr/oneback(1)_v2.xlsx,New rule: Press 'space' when you see 1-back (i.e. the same letter as the one that appeared 1 letter ago.),y,space,,,,,0,1,1,1,0,3,3,3,,,,,,,,,,,,,,,,,,,,,,,,,,,,,,,,,,,,,,,,,,,1.89,224.56721959996503,None,226.45904719998362,None,space,1,0.3672231000382453,226.45904719998362,None,226.84270789998118,None,,,,,,,,,,,,,,,,,,,,,,,,,,,,,,,P029,fencog,2,Pre,2022_Mar_09_1143,N-Back (New Version 2021),2021.1.4,120.16992027407926,
Conditions/Version_2Pr/oneback(1)_v2.xlsx,New rule: Press 'space' when you see 1-back (i.e. the same letter as the one that appeared 1 letter ago.),p,None,,,,,0,1,1,1,0,4,4,4,,,,,,,,,,,,,,,,,,,,,,,,,,,,,,,,,,,,,,,,,,,1.64,228.34907629998634,None,229.99251760001061,None,None,1,,229.99251760001061,None,231.99831499997526,None,,,,,,,,,,,,,,,,,,,,,,,,,,,,,,,P029,fencog,2,Pre,2022_Mar_09_1143,N-Back (New Version 2021),2021.1.4,120.16992027407926,
Conditions/Version_2Pr/oneback(1)_v2.xlsx,New rule: Press 'space' when you see 1-back (i.e. the same letter as the one that appeared 1 letter ago.),P,space,,,,,0,1,1,1,0,5,5,5,,,,,,,,,,,,,,,,,,,,,,,,,,,,,,,,,,,,,,,,,,,1.29,233.49788280000212,None,234.79051279998384,None,space,1,0.5557722999947146,234.79051279998384,None,235.35730839997996,None,,,,,,,,,,,,,,,,,,,,,,,,,,,,,,,P029,fencog,2,Pre,2022_Mar_09_1143,N-Back (New Version 2021),2021.1.4,120.16992027407926,
Conditions/Version_2Pr/oneback(1)_v2.xlsx,New rule: Press 'space' when you see 1-back (i.e. the same letter as the one that appeared 1 letter ago.),e,None,,,,,0,1,1,1,0,6,6,6,,,,,,,,,,,,,,,,,,,,,,,,,,,,,,,,,,,,,,,,,,,1.865,236.86346009996487,None,238.73137990001123,None,None,1,,238.73137990001123,None,240.7374845999875,None,,,,,,,,,,,,,,,,,,,,,,,,,,,,,,,P029,fencog,2,Pre,2022_Mar_09_1143,N-Back (New Version 2021),2021.1.4,120.16992027407926,
Conditions/Version_2Pr/oneback(1)_v2.xlsx,New rule: Press 'space' when you see 1-back (i.e. the same letter as the one that appeared 1 letter ago.),r,None,,,,,0,1,1,1,0,7,7,7,,,,,,,,,,,,,,,,,,,,,,,,,,,,,,,,,,,,,,,,,,,1.84,242.23709329997655,None,244.07996549998643,None,None,1,,244.07996549998643,None,246.0802850999753,None,,,,,,,,,,,,,,,,,,,,,,,,,,,,,,,P029,fencog,2,Pre,2022_Mar_09_1143,N-Back (New Version 2021),2021.1.4,120.16992027407926,
Conditions/Version_2Pr/oneback(1)_v2.xlsx,New rule: Press 'space' when you see 1-back (i.e. the same letter as the one that appeared 1 letter ago.),R,space,,,,,0,1,1,1,0,8,8,8,,,,,,,,,,,,,,,,,,,,,,,,,,,,,,,,,,,,,,,,,,,1.69,247.58543059998192,None,249.28020380000817,None,space,1,0.48212439997587353,249.28020380000817,None,249.77863409998827,None,,,,,,,,,,,,,,,,,,,,,,,,,,,,,,,P029,fencog,2,Pre,2022_Mar_09_1143,N-Back (New Version 2021),2021.1.4,120.16992027407926,
Conditions/Version_2Pr/oneback(1)_v2.xlsx,New rule: Press 'space' when you see 1-back (i.e. the same letter as the one that appeared 1 letter ago.),p,None,,,,,0,1,1,1,0,9,9,9,,,,,,,,,,,,,,,,,,,,,,,,,,,,,,,,,,,,,,,,,,,1.315,251.28556469996693,None,252.60786049999297,None,None,1,,252.60786049999297,None,254.60830429999623,None,,,,,,,,,,,,,,,,,,,,,,,,,,,,,,,P029,fencog,2,Pre,2022_Mar_09_1143,N-Back (New Version 2021),2021.1.4,120.16992027407926,
Conditions/Version_2Pr/oneback(1)_v2.xlsx,New rule: Press 'space' when you see 1-back (i.e. the same letter as the one that appeared 1 letter ago.),,,,,,,0,1,1,1,,,,,,,,,,,,,,,,,,,,,,,,,,,,,,,,,,,,,,,,,,,,,,,,,,,,,,,,,,,,,,,,,,,,,,,,,,,,,,,,,,,,,,,,,P029,fencog,2,Pre,2022_Mar_09_1143,N-Back (New Version 2021),2021.1.4,120.16992027407926,
Conditions/Version_2Pr/twoback(1)_v2.xlsx,New rule: Press 'space' when you see 2-back (i.e. the same letter as the one that appeared 2 letters ago.),r,None,,,,,0,2,2,2,0,0,0,0,,,,,,,,,,,,,,,,,,,,,,,,,,,,,,,,,256.1299849000061,None,259.1270038000075,None,space,12.84326080000028,259.1270038000075,None,256.1299849000061,None,1.54,271.9937832999858,None,273.53707740001846,None,None,1,,273.53707740001846,None,275.54343169997446,None,,,,,,,,,,,,,,,,,,,,,,,,,,,,,,,P029,fencog,2,Pre,2022_Mar_09_1143,N-Back (New Version 2021),2021.1.4,120.16992027407926,
Conditions/Version_2Pr/twoback(1)_v2.xlsx,New rule: Press 'space' when you see 2-back (i.e. the same letter as the one that appeared 2 letters ago.),P,None,,,,,0,2,2,2,0,1,1,1,,,,,,,,,,,,,,,,,,,,,,,,,,,,,,,,,,,,,,,,,,,1.265,277.0430126999854,None,278.3094506000052,None,None,1,,278.3094506000052,None,280.3091308000148,None,,,,,,,,,,,,,,,,,,,,,,,,,,,,,,,P029,fencog,2,Pre,2022_Mar_09_1143,N-Back (New Version 2021),2021.1.4,120.16992027407926,
Conditions/Version_2Pr/twoback(1)_v2.xlsx,New rule: Press 'space' when you see 2-back (i.e. the same letter as the one that appeared 2 letters ago.),o,None,,,,,0,2,2,2,0,2,2,2,,,,,,,,,,,,,,,,,,,,,,,,,,,,,,,,,,,,,,,,,,,1.04,281.808698799985,None,282.85081570001785,None,space,0,0.9352729999809526,282.85081570001785,None,283.80012369999895,None,,,,,,,,,,,,,,,,,,,,,,,,,,,,,,,P029,fencog,2,Pre,2022_Mar_09_1143,N-Back (New Version 2021),2021.1.4,120.16992027407926,
Conditions/Version_2Pr/twoback(1)_v2.xlsx,New rule: Press 'space' when you see 2-back (i.e. the same letter as the one that appeared 2 letters ago.),p,space,,,,,0,2,2,2,0,3,3,3,,,,,,,,,,,,,,,,,,,,,,,,,,,,,,,,,,,,,,,,,,,1.79,285.29931360000046,None,287.0920436999877,None,space,1,0.9262952000135556,287.0920436999877,None,288.0363287999644,None,,,,,,,,,,,,,,,,,,,,,,,,,,,,,,,P029,fencog,2,Pre,2022_Mar_09_1143,N-Back (New Version 2021),2021.1.4,120.16992027407926,
Conditions/Version_2Pr/twoback(1)_v2.xlsx,New rule: Press 'space' when you see 2-back (i.e. the same letter as the one that appeared 2 letters ago.),Y,None,,,,,0,2,2,2,0,4,4,4,,,,,,,,,,,,,,,,,,,,,,,,,,,,,,,,,,,,,,,,,,,1.49,289.5397067000158,None,291.03168790001655,None,None,1,,291.03168790001655,None,293.03872109996155,None,,,,,,,,,,,,,,,,,,,,,,,,,,,,,,,P029,fencog,2,Pre,2022_Mar_09_1143,N-Back (New Version 2021),2021.1.4,120.16992027407926,
Conditions/Version_2Pr/twoback(1)_v2.xlsx,New rule: Press 'space' when you see 2-back (i.e. the same letter as the one that appeared 2 letters ago.),q,None,,,,,0,2,2,2,0,5,5,5,,,,,,,,,,,,,,,,,,,,,,,,,,,,,,,,,,,,,,,,,,,1.99,294.53823439998087,None,296.53112230001716,None,None,1,,296.53112230001716,None,298.5370677000028,None,,,,,,,,,,,,,,,,,,,,,,,,,,,,,,,P029,fencog,2,Pre,2022_Mar_09_1143,N-Back (New Version 2021),2021.1.4,120.16992027407926,
Conditions/Version_2Pr/twoback(1)_v2.xlsx,New rule: Press 'space' when you see 2-back (i.e. the same letter as the one that appeared 2 letters ago.),m,None,,,,,0,2,2,2,0,6,6,6,,,,,,,,,,,,,,,,,,,,,,,,,,,,,,,,,,,,,,,,,,,1.315,300.03817700000945,None,301.3528363999794,None,None,1,,301.3528363999794,None,303.35235180001473,None,,,,,,,,,,,,,,,,,,,,,,,,,,,,,,,P029,fencog,2,Pre,2022_Mar_09_1143,N-Back (New Version 2021),2021.1.4,120.16992027407926,
Conditions/Version_2Pr/twoback(1)_v2.xlsx,New rule: Press 'space' when you see 2-back (i.e. the same letter as the one that appeared 2 letters ago.),Q,space,,,,,0,2,2,2,0,7,7,7,,,,,,,,,,,,,,,,,,,,,,,,,,,,,,,,,,,,,,,,,,,1.765,304.8531186999753,None,306.6194606999634,None,space,1,0.4629558000015095,306.6194606999634,None,307.0944564999663,None,,,,,,,,,,,,,,,,,,,,,,,,,,,,,,,P029,fencog,2,Pre,2022_Mar_09_1143,N-Back (New Version 2021),2021.1.4,120.16992027407926,
Conditions/Version_2Pr/twoback(1)_v2.xlsx,New rule: Press 'space' when you see 2-back (i.e. the same letter as the one that appeared 2 letters ago.),L,None,,,,,0,2,2,2,0,8,8,8,,,,,,,,,,,,,,,,,,,,,,,,,,,,,,,,,,,,,,,,,,,1.565,308.60074560000794,None,310.1683985000127,None,None,1,,310.1683985000127,None,312.17156619997695,None,,,,,,,,,,,,,,,,,,,,,,,,,,,,,,,P029,fencog,2,Pre,2022_Mar_09_1143,N-Back (New Version 2021),2021.1.4,120.16992027407926,
Conditions/Version_2Pr/twoback(1)_v2.xlsx,New rule: Press 'space' when you see 2-back (i.e. the same letter as the one that appeared 2 letters ago.),q,space,,,,,0,2,2,2,0,9,9,9,,,,,,,,,,,,,,,,,,,,,,,,,,,,,,,,,,,,,,,,,,,1.29,313.67428799998015,None,314.96634469996206,None,space,1,0.6920030999463052,314.96634469996206,None,315.6748247999931,None,,,,,,,,,,,,,,,,,,,,,,,,,,,,,,,P029,fencog,2,Pre,2022_Mar_09_1143,N-Back (New Version 2021),2021.1.4,120.16992027407926,
Conditions/Version_2Pr/twoback(1)_v2.xlsx,New rule: Press 'space' when you see 2-back (i.e. the same letter as the one that appeared 2 letters ago.),,,,,,,0,2,2,2,,,,,,,,,,,,,,,,,,,,,,,,,,,,,,,,,,,,,,,,,,,,,,,,,,,,,,,,,,,,,,,,,,,,,,,,,,,,,,,,,,,,,,,,,P029,fencog,2,Pre,2022_Mar_09_1143,N-Back (New Version 2021),2021.1.4,120.16992027407926,
Conditions/Version_2Pr/threeback(1)_v2.xlsx,New rule: Press 'space' when you see 3-back (i.e. the same letter as the one that appeared 3 letters ago.),u,None,,,,,0,3,3,3,0,0,0,0,,,,,,,,,,,,,,,,,,,,,,,,,,,,,,,,,317.2037719999789,None,320.191180099966,None,space,35.73916209995514,320.191180099966,None,317.2037719999789,None,1.315,355.95853589999024,None,357.28038879996166,None,None,1,,357.28038879996166,None,359.285850699991,None,,,,,,,,,,,,,,,,,,,,,,,,,,,,,,,P029,fencog,2,Pre,2022_Mar_09_1143,N-Back (New Version 2021),2021.1.4,120.16992027407926,
Conditions/Version_2Pr/threeback(1)_v2.xlsx,New rule: Press 'space' when you see 3-back (i.e. the same letter as the one that appeared 3 letters ago.),U,None,,,,,0,3,3,3,0,1,1,1,,,,,,,,,,,,,,,,,,,,,,,,,,,,,,,,,,,,,,,,,,,1.515,360.78504669998074,None,362.30511119996663,None,None,1,,362.30511119996663,None,364.3093784999801,None,,,,,,,,,,,,,,,,,,,,,,,,,,,,,,,P029,fencog,2,Pre,2022_Mar_09_1143,N-Back (New Version 2021),2021.1.4,120.16992027407926,
Conditions/Version_2Pr/threeback(1)_v2.xlsx,New rule: Press 'space' when you see 3-back (i.e. the same letter as the one that appeared 3 letters ago.),p,None,,,,,0,3,3,3,0,2,2,2,,,,,,,,,,,,,,,,,,,,,,,,,,,,,,,,,,,,,,,,,,,1.09,365.80889609997394,None,366.903860899969,None,None,1,,366.903860899969,None,368.9076807000092,None,,,,,,,,,,,,,,,,,,,,,,,,,,,,,,,P029,fencog,2,Pre,2022_Mar_09_1143,N-Back (New Version 2021),2021.1.4,120.16992027407926,
Conditions/Version_2Pr/threeback(1)_v2.xlsx,New rule: Press 'space' when you see 3-back (i.e. the same letter as the one that appeared 3 letters ago.),U,space,,,,,0,3,3,3,0,3,3,3,,,,,,,,,,,,,,,,,,,,,,,,,,,,,,,,,,,,,,,,,,,1.49,370.40755309996894,None,371.9012238999712,None,space,1,0.49297279998427257,371.9012238999712,None,372.40985729999375,None,,,,,,,,,,,,,,,,,,,,,,,,,,,,,,,P029,fencog,2,Pre,2022_Mar_09_1143,N-Back (New Version 2021),2021.1.4,120.16992027407926,
Conditions/Version_2Pr/threeback(1)_v2.xlsx,New rule: Press 'space' when you see 3-back (i.e. the same letter as the one that appeared 3 letters ago.),e,None,,,,,0,3,3,3,0,4,4,4,,,,,,,,,,,,,,,,,,,,,,,,,,,,,,,,,,,,,,,,,,,1.415,373.9161615999765,None,375.3320929000038,None,None,1,,375.3320929000038,None,377.338882800017,None,,,,,,,,,,,,,,,,,,,,,,,,,,,,,,,P029,fencog,2,Pre,2022_Mar_09_1143,N-Back (New Version 2021),2021.1.4,120.16992027407926,
Conditions/Version_2Pr/threeback(1)_v2.xlsx,New rule: Press 'space' when you see 3-back (i.e. the same letter as the one that appeared 3 letters ago.),R,None,,,,,0,3,3,3,0,5,5,5,,,,,,,,,,,,,,,,,,,,,,,,,,,,,,,,,,,,,,,,,,,1.89,378.8384164000163,None,380.7332323999726,None,None,1,,380.7332323999726,None,382.7398971999646,None,,,,,,,,,,,,,,,,,,,,,,,,,,,,,,,P029,fencog,2,Pre,2022_Mar_09_1143,N-Back (New Version 2021),2021.1.4,120.16992027407926,
Conditions/Version_2Pr/threeback(1)_v2.xlsx,New rule: Press 'space' when you see 3-back (i.e. the same letter as the one that appeared 3 letters ago.),p,None,,,,,0,3,3,3,0,6,6,6,,,,,,,,,,,,,,,,,,,,,,,,,,,,,,,,,,,,,,,,,,,1.665,384.23683040001197,None,385.90257520001614,None,None,1,,385.90257520001614,None,387.9021097999648,None,,,,,,,,,,,,,,,,,,,,,,,,,,,,,,,P029,fencog,2,Pre,2022_Mar_09_1143,N-Back (New Version 2021),2021.1.4,120.16992027407926,
Conditions/Version_2Pr/threeback(1)_v2.xlsx,New rule: Press 'space' when you see 3-back (i.e. the same letter as the one that appeared 3 letters ago.),E,space,,,,,0,3,3,3,0,7,7,7,,,,,,,,,,,,,,,,,,,,,,,,,,,,,,,,,,,,,,,,,,,1.54,389.4018826999818,None,390.9457545999903,None,None,0,,390.9457545999903,None,392.9540971000097,None,,,,,,,,,,,,,,,,,,,,,,,,,,,,,,,P029,fencog,2,Pre,2022_Mar_09_1143,N-Back (New Version 2021),2021.1.4,120.16992027407926,
Conditions/Version_2Pr/threeback(1)_v2.xlsx,New rule: Press 'space' when you see 3-back (i.e. the same letter as the one that appeared 3 letters ago.),k,None,,,,,0,3,3,3,0,8,8,8,,,,,,,,,,,,,,,,,,,,,,,,,,,,,,,,,,,,,,,,,,,1.565,394.4504501000047,None,396.0173398000188,None,None,1,,396.0173398000188,None,398.0242532999837,None,,,,,,,,,,,,,,,,,,,,,,,,,,,,,,,P029,fencog,2,Pre,2022_Mar_09_1143,N-Back (New Version 2021),2021.1.4,120.16992027407926,
Conditions/Version_2Pr/threeback(1)_v2.xlsx,New rule: Press 'space' when you see 3-back (i.e. the same letter as the one that appeared 3 letters ago.),m,None,,,,,0,3,3,3,0,9,9,9,,,,,,,,,,,,,,,,,,,,,,,,,,,,,,,,,,,,,,,,,,,1.115,399.5245930000092,None,400.6411664999905,None,None,1,,400.6411664999905,None,402.6480159999919,None,,,,,,,,,,,,,,,,,,,,,,,,,,,,,,,P029,fencog,2,Pre,2022_Mar_09_1143,N-Back (New Version 2021),2021.1.4,120.16992027407926,
Conditions/Version_2Pr/threeback(1)_v2.xlsx,New rule: Press 'space' when you see 3-back (i.e. the same letter as the one that appeared 3 letters ago.),,,,,,,0,3,3,3,,,,,,,,,,,,,,,,,,,,,,,,,,,,,,,,,,,,,,,,,,,,,,,,,,,,,,,,,,,,,,,,,,,,,,,,,,,,,,,,,,,,,,,,,P029,fencog,2,Pre,2022_Mar_09_1143,N-Back (New Version 2021),2021.1.4,120.16992027407926,
,,,,,,,,,,,,,,,,,,,,,,,,,,,,,,,,,,,,,,,,,,,,,,,,,,,,,,,,,,,,,,,,,,,,,,404.1546060999972,None,space,3.6105342999799177,404.6477559999912,None,,,,,,,,,,,,,,,,,,,,,,,,,P029,fencog,2,Pre,2022_Mar_09_1143,N-Back (New Version 2021),2021.1.4,120.16992027407926,
,,,,,,,,,,,,,,,,,,,,,,,,,,,,,,,,,,,,,,,,,,,,,,,,,,,,,,,,,,,,,,,,,,,,,,,,,,,,408.2834092999692,None,space,36.15833319997182,408.78002249996644,None,,,,,,,,,,,,,,,,,,,P029,fencog,2,Pre,2022_Mar_09_1143,N-Back (New Version 2021),2021.1.4,120.16992027407926,
,,,,Conditions/Version_1/zeroback(1)_v1.xlsx,Rule: Press 'space' when you see the letter 'x' or 'X'.,b,None,,,,,,,,,0,0,0,0,0,0,0,0,,,,,,,,,,,,,,,,,,,,,,,,,,,,,,,,,,,,,,,,,,,,,,,,,,,,,,,,,,,445.0529571999796,None,448.0387993999757,None,space,1.907286399975419,448.0387993999757,None,445.0529571999796,None,1.227,451.2100441000075,None,None,1,451.2100441000075,None,,P029,fencog,2,Pre,2022_Mar_09_1143,N-Back (New Version 2021),2021.1.4,120.16992027407926,
,,,,Conditions/Version_1/zeroback(1)_v1.xlsx,Rule: Press 'space' when you see the letter 'x' or 'X'.,T,None,,,,,,,,,0,0,0,0,0,1,1,1,,,,,,,,,,,,,,,,,,,,,,,,,,,,,,,,,,,,,,,,,,,,,,,,,,,,,,,,,,,,,,,,,,,,,1.9772,455.20072309998795,None,None,1,455.20072309998795,None,,P029,fencog,2,Pre,2022_Mar_09_1143,N-Back (New Version 2021),2021.1.4,120.16992027407926,
,,,,Conditions/Version_1/zeroback(1)_v1.xlsx,Rule: Press 'space' when you see the letter 'x' or 'X'.,L,None,,,,,,,,,0,0,0,0,0,2,2,2,,,,,,,,,,,,,,,,,,,,,,,,,,,,,,,,,,,,,,,,,,,,,,,,,,,,,,,,,,,,,,,,,,,,,1.6424,458.85626159998355,None,None,1,458.85626159998355,None,,P029,fencog,2,Pre,2022_Mar_09_1143,N-Back (New Version 2021),2021.1.4,120.16992027407926,
,,,,Conditions/Version_1/zeroback(1)_v1.xlsx,Rule: Press 'space' when you see the letter 'x' or 'X'.,x,space,,,,,,,,,0,0,0,0,0,3,3,3,,,,,,,,,,,,,,,,,,,,,,,,,,,,,,,,,,,,,,,,,,,,,,,,,,,,,,,,,,,,,,,,,,,,,1.4254,462.2802357999608,None,space,1,462.2802357999608,None,0.40986750001320615,P029,fencog,2,Pre,2022_Mar_09_1143,N-Back (New Version 2021),2021.1.4,120.16992027407926,
,,,,Conditions/Version_1/zeroback(1)_v1.xlsx,Rule: Press 'space' when you see the letter 'x' or 'X'.,o,None,,,,,,,,,0,0,0,0,0,4,4,4,,,,,,,,,,,,,,,,,,,,,,,,,,,,,,,,,,,,,,,,,,,,,,,,,,,,,,,,,,,,,,,,,,,,,1.63,465.913412599999,None,None,1,465.913412599999,None,,P029,fencog,2,Pre,2022_Mar_09_1143,N-Back (New Version 2021),2021.1.4,120.16992027407926,
,,,,Conditions/Version_1/zeroback(1)_v1.xlsx,Rule: Press 'space' when you see the letter 'x' or 'X'.,P,None,,,,,,,,,0,0,0,0,0,5,5,5,,,,,,,,,,,,,,,,,,,,,,,,,,,,,,,,,,,,,,,,,,,,,,,,,,,,,,,,,,,,,,,,,,,,,1.0782,469.00309790001484,None,None,1,469.00309790001484,None,,P029,fencog,2,Pre,2022_Mar_09_1143,N-Back (New Version 2021),2021.1.4,120.16992027407926,
,,,,Conditions/Version_1/zeroback(1)_v1.xlsx,Rule: Press 'space' when you see the letter 'x' or 'X'.,X,space,,,,,,,,,0,0,0,0,0,6,6,6,,,,,,,,,,,,,,,,,,,,,,,,,,,,,,,,,,,,,,,,,,,,,,,,,,,,,,,,,,,,,,,,,,,,,1.8842,472.89373740000883,None,space,1,472.89373740000883,None,0.3886532000033185,P029,fencog,2,Pre,2022_Mar_09_1143,N-Back (New Version 2021),2021.1.4,120.16992027407926,
,,,,Conditions/Version_1/zeroback(1)_v1.xlsx,Rule: Press 'space' when you see the letter 'x' or 'X'.,n,None,,,,,,,,,0,0,0,0,0,7,7,7,,,,,,,,,,,,,,,,,,,,,,,,,,,,,,,,,,,,,,,,,,,,,,,,,,,,,,,,,,,,,,,,,,,,,1.4316,476.3271335000172,None,None,1,476.3271335000172,None,,P029,fencog,2,Pre,2022_Mar_09_1143,N-Back (New Version 2021),2021.1.4,120.16992027407926,
,,,,Conditions/Version_1/zeroback(1)_v1.xlsx,Rule: Press 'space' when you see the letter 'x' or 'X'.,M,None,,,,,,,,,0,0,0,0,0,8,8,8,,,,,,,,,,,,,,,,,,,,,,,,,,,,,,,,,,,,,,,,,,,,,,,,,,,,,,,,,,,,,,,,,,,,,1.7168,480.05194069998106,None,None,1,480.05194069998106,None,,P029,fencog,2,Pre,2022_Mar_09_1143,N-Back (New Version 2021),2021.1.4,120.16992027407926,
,,,,Conditions/Version_1/zeroback(1)_v1.xlsx,Rule: Press 'space' when you see the letter 'x' or 'X'.,a,None,,,,,,,,,0,0,0,0,0,9,9,9,,,,,,,,,,,,,,,,,,,,,,,,,,,,,,,,,,,,,,,,,,,,,,,,,,,,,,,,,,,,,,,,,,,,,1.072,483.13468809996266,None,None,1,483.13468809996266,None,,P029,fencog,2,Pre,2022_Mar_09_1143,N-Back (New Version 2021),2021.1.4,120.16992027407926,
,,,,Conditions/Version_1/zeroback(1)_v1.xlsx,Rule: Press 'space' when you see the letter 'x' or 'X'.,,,,,,,,,,,0,0,0,0,,,,,,,,,,,,,,,,,,,,,,,,,,,,,,,,,,,,,,,,,,,,,,,,,,,,,,,,,,,,,,,,,,,,,,,,,,,,,,,,,P029,fencog,2,Pre,2022_Mar_09_1143,N-Back (New Version 2021),2021.1.4,120.16992027407926,
,,,,Conditions/Version_1/oneback(1)_v1.xlsx,New rule: Press 'space' when you see 1-back (i.e. the same letter as the one that appeared 1 letter ago.),b,None,,,,,,,,,0,1,1,1,0,0,0,0,,,,,,,,,,,,,,,,,,,,,,,,,,,,,,,,,,,,,,,,,,,,,,,,,,,,,,,,,,,485.1625364999636,None,488.1495188999688,None,space,1.6605534999980591,488.1495188999688,None,485.1625364999636,None,1.7664,491.6076863000053,None,None,1,491.6076863000053,None,,P029,fencog,2,Pre,2022_Mar_09_1143,N-Back (New Version 2021),2021.1.4,120.16992027407926,
,,,,Conditions/Version_1/oneback(1)_v1.xlsx,New rule: Press 'space' when you see 1-back (i.e. the same letter as the one that appeared 1 letter ago.),p,None,,,,,,,,,0,1,1,1,0,1,1,1,,,,,,,,,,,,,,,,,,,,,,,,,,,,,,,,,,,,,,,,,,,,,,,,,,,,,,,,,,,,,,,,,,,,,1.6796,495.28821299999254,None,None,1,495.28821299999254,None,,P029,fencog,2,Pre,2022_Mar_09_1143,N-Back (New Version 2021),2021.1.4,120.16992027407926,
,,,,Conditions/Version_1/oneback(1)_v1.xlsx,New rule: Press 'space' when you see 1-back (i.e. the same letter as the one that appeared 1 letter ago.),M,None,,,,,,,,,0,1,1,1,0,2,2,2,,,,,,,,,,,,,,,,,,,,,,,,,,,,,,,,,,,,,,,,,,,,,,,,,,,,,,,,,,,,,,,,,,,,,1.7416,499.0443730999832,None,None,1,499.0443730999832,None,,P029,fencog,2,Pre,2022_Mar_09_1143,N-Back (New Version 2021),2021.1.4,120.16992027407926,
,,,,Conditions/Version_1/oneback(1)_v1.xlsx,New rule: Press 'space' when you see 1-back (i.e. the same letter as the one that appeared 1 letter ago.),M,space,,,,,,,,,0,1,1,1,0,3,3,3,,,,,,,,,,,,,,,,,,,,,,,,,,,,,,,,,,,,,,,,,,,,,,,,,,,,,,,,,,,,,,,,,,,,,1.7478,502.79327159997774,None,space,1,502.79327159997774,None,0.584984400018584,P029,fencog,2,Pre,2022_Mar_09_1143,N-Back (New Version 2021),2021.1.4,120.16992027407926,
,,,,Conditions/Version_1/oneback(1)_v1.xlsx,New rule: Press 'space' when you see 1-back (i.e. the same letter as the one that appeared 1 letter ago.),n,None,,,,,,,,,0,1,1,1,0,4,4,4,,,,,,,,,,,,,,,,,,,,,,,,,,,,,,,,,,,,,,,,,,,,,,,,,,,,,,,,,,,,,,,,,,,,,1.5742,506.36721950001083,None,None,1,506.36721950001083,None,,P029,fencog,2,Pre,2022_Mar_09_1143,N-Back (New Version 2021),2021.1.4,120.16992027407926,
,,,,Conditions/Version_1/oneback(1)_v1.xlsx,New rule: Press 'space' when you see 1-back (i.e. the same letter as the one that appeared 1 letter ago.),g,None,,,,,,,,,0,1,1,1,0,5,5,5,,,,,,,,,,,,,,,,,,,,,,,,,,,,,,,,,,,,,,,,,,,,,,,,,,,,,,,,,,,,,,,,,,,,,1.5122,509.88469179999083,None,None,1,509.88469179999083,None,,P029,fencog,2,Pre,2022_Mar_09_1143,N-Back (New Version 2021),2021.1.4,120.16992027407926,
,,,,Conditions/Version_1/oneback(1)_v1.xlsx,New rule: Press 'space' when you see 1-back (i.e. the same letter as the one that appeared 1 letter ago.),P,None,,,,,,,,,0,1,1,1,0,6,6,6,,,,,,,,,,,,,,,,,,,,,,,,,,,,,,,,,,,,,,,,,,,,,,,,,,,,,,,,,,,,,,,,,,,,,1.0224,512.9152997999918,None,None,1,512.9152997999918,None,,P029,fencog,2,Pre,2022_Mar_09_1143,N-Back (New Version 2021),2021.1.4,120.16992027407926,
,,,,Conditions/Version_1/oneback(1)_v1.xlsx,New rule: Press 'space' when you see 1-back (i.e. the same letter as the one that appeared 1 letter ago.),o,None,,,,,,,,,0,1,1,1,0,7,7,7,,,,,,,,,,,,,,,,,,,,,,,,,,,,,,,,,,,,,,,,,,,,,,,,,,,,,,,,,,,,,,,,,,,,,1.4192,516.3392859000014,None,None,1,516.3392859000014,None,,P029,fencog,2,Pre,2022_Mar_09_1143,N-Back (New Version 2021),2021.1.4,120.16992027407926,
,,,,Conditions/Version_1/oneback(1)_v1.xlsx,New rule: Press 'space' when you see 1-back (i.e. the same letter as the one that appeared 1 letter ago.),f,None,,,,,,,,,0,1,1,1,0,8,8,8,,,,,,,,,,,,,,,,,,,,,,,,,,,,,,,,,,,,,,,,,,,,,,,,,,,,,,,,,,,,,,,,,,,,,1.6486,519.9891402999638,None,None,1,519.9891402999638,None,,P029,fencog,2,Pre,2022_Mar_09_1143,N-Back (New Version 2021),2021.1.4,120.16992027407926,
,,,,Conditions/Version_1/oneback(1)_v1.xlsx,New rule: Press 'space' when you see 1-back (i.e. the same letter as the one that appeared 1 letter ago.),F,space,,,,,,,,,0,1,1,1,0,9,9,9,,,,,,,,,,,,,,,,,,,,,,,,,,,,,,,,,,,,,,,,,,,,,,,,,,,,,,,,,,,,,,,,,,,,,1.6424,523.6386273999815,None,space,1,523.6386273999815,None,0.7879548999480903,P029,fencog,2,Pre,2022_Mar_09_1143,N-Back (New Version 2021),2021.1.4,120.16992027407926,
,,,,Conditions/Version_1/oneback(1)_v1.xlsx,New rule: Press 'space' when you see 1-back (i.e. the same letter as the one that appeared 1 letter ago.),,,,,,,,,,,0,1,1,1,,,,,,,,,,,,,,,,,,,,,,,,,,,,,,,,,,,,,,,,,,,,,,,,,,,,,,,,,,,,,,,,,,,,,,,,,,,,,,,,,P029,fencog,2,Pre,2022_Mar_09_1143,N-Back (New Version 2021),2021.1.4,120.16992027407926,
,,,,Conditions/Version_1/twoback(1)_v1.xlsx,New rule: Press 'space' when you see 2-back (i.e. the same letter as the one that appeared 2 letters ago.),b,None,,,,,,,,,0,2,2,2,0,0,0,0,,,,,,,,,,,,,,,,,,,,,,,,,,,,,,,,,,,,,,,,,,,,,,,,,,,,,,,,,,,525.6658489999827,None,528.6547869999777,None,space,1.531261700030882,528.6547869999777,None,525.6658489999827,None,1.351,531.5681520999642,None,None,1,531.5681520999642,None,,P029,fencog,2,Pre,2022_Mar_09_1143,N-Back (New Version 2021),2021.1.4,120.16992027407926,
,,,,Conditions/Version_1/twoback(1)_v1.xlsx,New rule: Press 'space' when you see 2-back (i.e. the same letter as the one that appeared 2 letters ago.),h,None,,,,,,,,,0,2,2,2,0,1,1,1,,,,,,,,,,,,,,,,,,,,,,,,,,,,,,,,,,,,,,,,,,,,,,,,,,,,,,,,,,,,,,,,,,,,,1.568,535.14381769998,None,None,1,535.14381769998,None,,P029,fencog,2,Pre,2022_Mar_09_1143,N-Back (New Version 2021),2021.1.4,120.16992027407926,
,,,,Conditions/Version_1/twoback(1)_v1.xlsx,New rule: Press 'space' when you see 2-back (i.e. the same letter as the one that appeared 2 letters ago.),j,None,,,,,,,,,0,2,2,2,0,2,2,2,,,,,,,,,,,,,,,,,,,,,,,,,,,,,,,,,,,,,,,,,,,,,,,,,,,,,,,,,,,,,,,,,,,,,1.1774,538.3379379999824,None,None,1,538.3379379999824,None,,P029,fencog,2,Pre,2022_Mar_09_1143,N-Back (New Version 2021),2021.1.4,120.16992027407926,
,,,,Conditions/Version_1/twoback(1)_v1.xlsx,New rule: Press 'space' when you see 2-back (i.e. the same letter as the one that appeared 2 letters ago.),H,space,,,,,,,,,0,2,2,2,0,3,3,3,,,,,,,,,,,,,,,,,,,,,,,,,,,,,,,,,,,,,,,,,,,,,,,,,,,,,,,,,,,,,,,,,,,,,1.0968,541.4467756999657,None,space,1,541.4467756999657,None,0.7075026999809779,P029,fencog,2,Pre,2022_Mar_09_1143,N-Back (New Version 2021),2021.1.4,120.16992027407926,
,,,,Conditions/Version_1/twoback(1)_v1.xlsx,New rule: Press 'space' when you see 2-back (i.e. the same letter as the one that appeared 2 letters ago.),p,None,,,,,,,,,0,2,2,2,0,4,4,4,,,,,,,,,,,,,,,,,,,,,,,,,,,,,,,,,,,,,,,,,,,,,,,,,,,,,,,,,,,,,,,,,,,,,1.506,544.9626224999665,None,None,1,544.9626224999665,None,,P029,fencog,2,Pre,2022_Mar_09_1143,N-Back (New Version 2021),2021.1.4,120.16992027407926,
,,,,Conditions/Version_1/twoback(1)_v1.xlsx,New rule: Press 'space' when you see 2-back (i.e. the same letter as the one that appeared 2 letters ago.),p,None,,,,,,,,,0,2,2,2,0,5,5,5,,,,,,,,,,,,,,,,,,,,,,,,,,,,,,,,,,,,,,,,,,,,,,,,,,,,,,,,,,,,,,,,,,,,,1.8346,548.7965636000154,None,None,1,548.7965636000154,None,,P029,fencog,2,Pre,2022_Mar_09_1143,N-Back (New Version 2021),2021.1.4,120.16992027407926,
,,,,Conditions/Version_1/twoback(1)_v1.xlsx,New rule: Press 'space' when you see 2-back (i.e. the same letter as the one that appeared 2 letters ago.),w,None,,,,,,,,,0,2,2,2,0,6,6,6,,,,,,,,,,,,,,,,,,,,,,,,,,,,,,,,,,,,,,,,,,,,,,,,,,,,,,,,,,,,,,,,,,,,,1.413,552.2139648000011,None,None,1,552.2139648000011,None,,P029,fencog,2,Pre,2022_Mar_09_1143,N-Back (New Version 2021),2021.1.4,120.16992027407926,
,,,,Conditions/Version_1/twoback(1)_v1.xlsx,New rule: Press 'space' when you see 2-back (i.e. the same letter as the one that appeared 2 letters ago.),R,None,,,,,,,,,0,2,2,2,0,7,7,7,,,,,,,,,,,,,,,,,,,,,,,,,,,,,,,,,,,,,,,,,,,,,,,,,,,,,,,,,,,,,,,,,,,,,1.1898,555.4114036000101,None,None,1,555.4114036000101,None,,P029,fencog,2,Pre,2022_Mar_09_1143,N-Back (New Version 2021),2021.1.4,120.16992027407926,
,,,,Conditions/Version_1/twoback(1)_v1.xlsx,New rule: Press 'space' when you see 2-back (i.e. the same letter as the one that appeared 2 letters ago.),a,None,,,,,,,,,0,2,2,2,0,8,8,8,,,,,,,,,,,,,,,,,,,,,,,,,,,,,,,,,,,,,,,,,,,,,,,,,,,,,,,,,,,,,,,,,,,,,1.041,558.4522010000073,None,None,1,558.4522010000073,None,,P029,fencog,2,Pre,2022_Mar_09_1143,N-Back (New Version 2021),2021.1.4,120.16992027407926,
,,,,Conditions/Version_1/twoback(1)_v1.xlsx,New rule: Press 'space' when you see 2-back (i.e. the same letter as the one that appeared 2 letters ago.),r,space,,,,,,,,,0,2,2,2,0,9,9,9,,,,,,,,,,,,,,,,,,,,,,,,,,,,,,,,,,,,,,,,,,,,,,,,,,,,,,,,,,,,,,,,,,,,,1.4006,561.8508842000156,None,space,1,561.8508842000156,None,0.44721539999591187,P029,fencog,2,Pre,2022_Mar_09_1143,N-Back (New Version 2021),2021.1.4,120.16992027407926,
,,,,Conditions/Version_1/twoback(1)_v1.xlsx,New rule: Press 'space' when you see 2-back (i.e. the same letter as the one that appeared 2 letters ago.),,,,,,,,,,,0,2,2,2,,,,,,,,,,,,,,,,,,,,,,,,,,,,,,,,,,,,,,,,,,,,,,,,,,,,,,,,,,,,,,,,,,,,,,,,,,,,,,,,,P029,fencog,2,Pre,2022_Mar_09_1143,N-Back (New Version 2021),2021.1.4,120.16992027407926,
,,,,Conditions/Version_1/threeback(1)_v1.xlsx,New rule: Press 'space' when you see 3-back (i.e. the same letter as the one that appeared 3 letters ago.),r,None,,,,,,,,,0,3,3,3,0,0,0,0,,,,,,,,,,,,,,,,,,,,,,,,,,,,,,,,,,,,,,,,,,,,,,,,,,,,,,,,,,,563.8722085999907,None,566.8601912999875,None,space,44.54190880001988,566.8601912999875,None,563.8722085999907,None,1.3138,612.7444521000143,None,None,1,612.7444521000143,None,,P029,fencog,2,Pre,2022_Mar_09_1143,N-Back (New Version 2021),2021.1.4,120.16992027407926,
,,,,Conditions/Version_1/threeback(1)_v1.xlsx,New rule: Press 'space' when you see 3-back (i.e. the same letter as the one that appeared 3 letters ago.),o,None,,,,,,,,,0,3,3,3,0,1,1,1,,,,,,,,,,,,,,,,,,,,,,,,,,,,,,,,,,,,,,,,,,,,,,,,,,,,,,,,,,,,,,,,,,,,,1.7168,616.4716322000022,None,None,1,616.4716322000022,None,,P029,fencog,2,Pre,2022_Mar_09_1143,N-Back (New Version 2021),2021.1.4,120.16992027407926,
,,,,Conditions/Version_1/threeback(1)_v1.xlsx,New rule: Press 'space' when you see 3-back (i.e. the same letter as the one that appeared 3 letters ago.),P,None,,,,,,,,,0,3,3,3,0,2,2,2,,,,,,,,,,,,,,,,,,,,,,,,,,,,,,,,,,,,,,,,,,,,,,,,,,,,,,,,,,,,,,,,,,,,,1.258,619.7338450999814,None,None,1,619.7338450999814,None,,P029,fencog,2,Pre,2022_Mar_09_1143,N-Back (New Version 2021),2021.1.4,120.16992027407926,
,,,,Conditions/Version_1/threeback(1)_v1.xlsx,New rule: Press 'space' when you see 3-back (i.e. the same letter as the one that appeared 3 letters ago.),R,space,,,,,,,,,0,3,3,3,0,3,3,3,,,,,,,,,,,,,,,,,,,,,,,,,,,,,,,,,,,,,,,,,,,,,,,,,,,,,,,,,,,,,,,,,,,,,1.5556,623.2910939999856,None,space,1,623.2910939999856,None,0.7192817000322975,P029,fencog,2,Pre,2022_Mar_09_1143,N-Back (New Version 2021),2021.1.4,120.16992027407926,
,,,,Conditions/Version_1/threeback(1)_v1.xlsx,New rule: Press 'space' when you see 3-back (i.e. the same letter as the one that appeared 3 letters ago.),p,None,,,,,,,,,0,3,3,3,0,4,4,4,,,,,,,,,,,,,,,,,,,,,,,,,,,,,,,,,,,,,,,,,,,,,,,,,,,,,,,,,,,,,,,,,,,,,1.6672,626.9651436000131,None,None,1,626.9651436000131,None,,P029,fencog,2,Pre,2022_Mar_09_1143,N-Back (New Version 2021),2021.1.4,120.16992027407926,
,,,,Conditions/Version_1/threeback(1)_v1.xlsx,New rule: Press 'space' when you see 3-back (i.e. the same letter as the one that appeared 3 letters ago.),E,None,,,,,,,,,0,3,3,3,0,5,5,5,,,,,,,,,,,,,,,,,,,,,,,,,,,,,,,,,,,,,,,,,,,,,,,,,,,,,,,,,,,,,,,,,,,,,1.8904,630.8554943999625,None,None,1,630.8554943999625,None,,P029,fencog,2,Pre,2022_Mar_09_1143,N-Back (New Version 2021),2021.1.4,120.16992027407926,
,,,,Conditions/Version_1/threeback(1)_v1.xlsx,New rule: Press 'space' when you see 3-back (i.e. the same letter as the one that appeared 3 letters ago.),e,None,,,,,,,,,0,3,3,3,0,6,6,6,,,,,,,,,,,,,,,,,,,,,,,,,,,,,,,,,,,,,,,,,,,,,,,,,,,,,,,,,,,,,,,,,,,,,1.444,634.3046886000084,None,None,1,634.3046886000084,None,,P029,fencog,2,Pre,2022_Mar_09_1143,N-Back (New Version 2021),2021.1.4,120.16992027407926,
,,,,Conditions/Version_1/threeback(1)_v1.xlsx,New rule: Press 'space' when you see 3-back (i.e. the same letter as the one that appeared 3 letters ago.),m,None,,,,,,,,,0,3,3,3,0,7,7,7,,,,,,,,,,,,,,,,,,,,,,,,,,,,,,,,,,,,,,,,,,,,,,,,,,,,,,,,,,,,,,,,,,,,,1.3014,637.6062001999817,None,None,1,637.6062001999817,None,,P029,fencog,2,Pre,2022_Mar_09_1143,N-Back (New Version 2021),2021.1.4,120.16992027407926,
,,,,Conditions/Version_1/threeback(1)_v1.xlsx,New rule: Press 'space' when you see 3-back (i.e. the same letter as the one that appeared 3 letters ago.),n,None,,,,,,,,,0,3,3,3,0,8,8,8,,,,,,,,,,,,,,,,,,,,,,,,,,,,,,,,,,,,,,,,,,,,,,,,,,,,,,,,,,,,,,,,,,,,,1.2456,640.8632348999963,None,None,1,640.8632348999963,None,,P029,fencog,2,Pre,2022_Mar_09_1143,N-Back (New Version 2021),2021.1.4,120.16992027407926,
,,,,Conditions/Version_1/threeback(1)_v1.xlsx,New rule: Press 'space' when you see 3-back (i.e. the same letter as the one that appeared 3 letters ago.),e,space,,,,,,,,,0,3,3,3,0,9,9,9,,,,,,,,,,,,,,,,,,,,,,,,,,,,,,,,,,,,,,,,,,,,,,,,,,,,,,,,,,,,,,,,,,,,,1.4812,644.351564200013,None,space,1,644.351564200013,None,0.6268180999904871,P029,fencog,2,Pre,2022_Mar_09_1143,N-Back (New Version 2021),2021.1.4,120.16992027407926,
,,,,Conditions/Version_1/threeback(1)_v1.xlsx,New rule: Press 'space' when you see 3-back (i.e. the same letter as the one that appeared 3 letters ago.),,,,,,,,,,,0,3,3,3,,,,,,,,,,,,,,,,,,,,,,,,,,,,,,,,,,,,,,,,,,,,,,,,,,,,,,,,,,,,,,,,,,,,,,,,,,,,,,,,,P029,fencog,2,Pre,2022_Mar_09_1143,N-Back (New Version 2021),2021.1.4,120.16992027407926,
,,,,Conditions/Version_1/oneback(2)_v1.xlsx,New rule: Press 'space' when you see 1-back (i.e. the same letter as the one that appeared 1 letter ago.),q,None,,,,,,,,,0,4,4,4,0,0,0,0,,,,,,,,,,,,,,,,,,,,,,,,,,,,,,,,,,,,,,,,,,,,,,,,,,,,,,,,,,,646.3745026999968,None,649.361160099972,None,space,1.4089135999674909,649.361160099972,None,646.3745026999968,None,1.4874,652.2825922999764,None,None,1,652.2825922999764,None,,P029,fencog,2,Pre,2022_Mar_09_1143,N-Back (New Version 2021),2021.1.4,120.16992027407926,
,,,,Conditions/Version_1/oneback(2)_v1.xlsx,New rule: Press 'space' when you see 1-back (i.e. the same letter as the one that appeared 1 letter ago.),Q,space,,,,,,,,,0,4,4,4,0,1,1,1,,,,,,,,,,,,,,,,,,,,,,,,,,,,,,,,,,,,,,,,,,,,,,,,,,,,,,,,,,,,,,,,,,,,,1.8222,656.1064788000076,None,space,1,656.1064788000076,None,0.6715552000096068,P029,fencog,2,Pre,2022_Mar_09_1143,N-Back (New Version 2021),2021.1.4,120.16992027407926,
,,,,Conditions/Version_1/oneback(2)_v1.xlsx,New rule: Press 'space' when you see 1-back (i.e. the same letter as the one that appeared 1 letter ago.),P,None,,,,,,,,,0,4,4,4,0,2,2,2,,,,,,,,,,,,,,,,,,,,,,,,,,,,,,,,,,,,,,,,,,,,,,,,,,,,,,,,,,,,,,,,,,,,,1.7664,659.8759209999698,None,None,1,659.8759209999698,None,,P029,fencog,2,Pre,2022_Mar_09_1143,N-Back (New Version 2021),2021.1.4,120.16992027407926,
,,,,Conditions/Version_1/oneback(2)_v1.xlsx,New rule: Press 'space' when you see 1-back (i.e. the same letter as the one that appeared 1 letter ago.),o,None,,,,,,,,,0,4,4,4,0,3,3,3,,,,,,,,,,,,,,,,,,,,,,,,,,,,,,,,,,,,,,,,,,,,,,,,,,,,,,,,,,,,,,,,,,,,,1.8098,663.6880425999989,None,None,1,663.6880425999989,None,,P029,fencog,2,Pre,2022_Mar_09_1143,N-Back (New Version 2021),2021.1.4,120.16992027407926,
,,,,Conditions/Version_1/oneback(2)_v1.xlsx,New rule: Press 'space' when you see 1-back (i.e. the same letter as the one that appeared 1 letter ago.),m,None,,,,,,,,,0,4,4,4,0,4,4,4,,,,,,,,,,,,,,,,,,,,,,,,,,,,,,,,,,,,,,,,,,,,,,,,,,,,,,,,,,,,,,,,,,,,,1.692,667.3781542999786,None,None,1,667.3781542999786,None,,P029,fencog,2,Pre,2022_Mar_09_1143,N-Back (New Version 2021),2021.1.4,120.16992027407926,
,,,,Conditions/Version_1/oneback(2)_v1.xlsx,New rule: Press 'space' when you see 1-back (i.e. the same letter as the one that appeared 1 letter ago.),Z,None,,,,,,,,,0,4,4,4,0,5,5,5,,,,,,,,,,,,,,,,,,,,,,,,,,,,,,,,,,,,,,,,,,,,,,,,,,,,,,,,,,,,,,,,,,,,,1.0534,670.4383697999874,None,None,1,670.4383697999874,None,,P029,fencog,2,Pre,2022_Mar_09_1143,N-Back (New Version 2021),2021.1.4,120.16992027407926,
,,,,Conditions/Version_1/oneback(2)_v1.xlsx,New rule: Press 'space' when you see 1-back (i.e. the same letter as the one that appeared 1 letter ago.),c,None,,,,,,,,,0,4,4,4,0,6,6,6,,,,,,,,,,,,,,,,,,,,,,,,,,,,,,,,,,,,,,,,,,,,,,,,,,,,,,,,,,,,,,,,,,,,,1.1836,673.6282210999634,None,None,1,673.6282210999634,None,,P029,fencog,2,Pre,2022_Mar_09_1143,N-Back (New Version 2021),2021.1.4,120.16992027407926,
,,,,Conditions/Version_1/oneback(2)_v1.xlsx,New rule: Press 'space' when you see 1-back (i.e. the same letter as the one that appeared 1 letter ago.),c,space,,,,,,,,,0,4,4,4,0,7,7,7,,,,,,,,,,,,,,,,,,,,,,,,,,,,,,,,,,,,,,,,,,,,,,,,,,,,,,,,,,,,,,,,,,,,,1.8842,677.5249596000067,None,space,1,677.5249596000067,None,0.7252660999656655,P029,fencog,2,Pre,2022_Mar_09_1143,N-Back (New Version 2021),2021.1.4,120.16992027407926,
,,,,Conditions/Version_1/oneback(2)_v1.xlsx,New rule: Press 'space' when you see 1-back (i.e. the same letter as the one that appeared 1 letter ago.),P,None,,,,,,,,,0,4,4,4,0,8,8,8,,,,,,,,,,,,,,,,,,,,,,,,,,,,,,,,,,,,,,,,,,,,,,,,,,,,,,,,,,,,,,,,,,,,,1.1588,680.6836152999895,None,None,1,680.6836152999895,None,,P029,fencog,2,Pre,2022_Mar_09_1143,N-Back (New Version 2021),2021.1.4,120.16992027407926,
,,,,Conditions/Version_1/oneback(2)_v1.xlsx,New rule: Press 'space' when you see 1-back (i.e. the same letter as the one that appeared 1 letter ago.),p,space,,,,,,,,,0,4,4,4,0,9,9,9,,,,,,,,,,,,,,,,,,,,,,,,,,,,,,,,,,,,,,,,,,,,,,,,,,,,,,,,,,,,,,,,,,,,,1.2456,683.9316978999996,None,space,1,683.9316978999996,None,0.6063659000210464,P029,fencog,2,Pre,2022_Mar_09_1143,N-Back (New Version 2021),2021.1.4,120.16992027407926,
,,,,Conditions/Version_1/oneback(2)_v1.xlsx,New rule: Press 'space' when you see 1-back (i.e. the same letter as the one that appeared 1 letter ago.),,,,,,,,,,,0,4,4,4,,,,,,,,,,,,,,,,,,,,,,,,,,,,,,,,,,,,,,,,,,,,,,,,,,,,,,,,,,,,,,,,,,,,,,,,,,,,,,,,,P029,fencog,2,Pre,2022_Mar_09_1143,N-Back (New Version 2021),2021.1.4,120.16992027407926,
,,,,Conditions/Version_1/zeroback(2)_v1.xlsx,New rule: Press 'space' when you see the letter 'x' or 'X'.,p,None,,,,,,,,,0,5,5,5,0,0,0,0,,,,,,,,,,,,,,,,,,,,,,,,,,,,,,,,,,,,,,,,,,,,,,,,,,,,,,,,,,,685.9699857999803,None,688.9569992999895,None,space,0.8375821999507025,688.9569992999895,None,685.9699857999803,None,1.7788,691.5961440000101,None,None,1,691.5961440000101,None,,P029,fencog,2,Pre,2022_Mar_09_1143,N-Back (New Version 2021),2021.1.4,120.16992027407926,
,,,,Conditions/Version_1/zeroback(2)_v1.xlsx,New rule: Press 'space' when you see the letter 'x' or 'X'.,L,None,,,,,,,,,0,5,5,5,0,1,1,1,,,,,,,,,,,,,,,,,,,,,,,,,,,,,,,,,,,,,,,,,,,,,,,,,,,,,,,,,,,,,,,,,,,,,1.8594,695.4640353000141,None,None,1,695.4640353000141,None,,P029,fencog,2,Pre,2022_Mar_09_1143,N-Back (New Version 2021),2021.1.4,120.16992027407926,
,,,,Conditions/Version_1/zeroback(2)_v1.xlsx,New rule: Press 'space' when you see the letter 'x' or 'X'.,G,None,,,,,,,,,0,5,5,5,0,2,2,2,,,,,,,,,,,,,,,,,,,,,,,,,,,,,,,,,,,,,,,,,,,,,,,,,,,,,,,,,,,,,,,,,,,,,1.8346,699.3216380999656,None,None,1,699.3216380999656,None,,P029,fencog,2,Pre,2022_Mar_09_1143,N-Back (New Version 2021),2021.1.4,120.16992027407926,
,,,,Conditions/Version_1/zeroback(2)_v1.xlsx,New rule: Press 'space' when you see the letter 'x' or 'X'.,y,None,,,,,,,,,0,5,5,5,0,3,3,3,,,,,,,,,,,,,,,,,,,,,,,,,,,,,,,,,,,,,,,,,,,,,,,,,,,,,,,,,,,,,,,,,,,,,1.0224,702.3438584000105,None,None,1,702.3438584000105,None,,P029,fencog,2,Pre,2022_Mar_09_1143,N-Back (New Version 2021),2021.1.4,120.16992027407926,
,,,,Conditions/Version_1/zeroback(2)_v1.xlsx,New rule: Press 'space' when you see the letter 'x' or 'X'.,Y,None,,,,,,,,,0,5,5,5,0,4,4,4,,,,,,,,,,,,,,,,,,,,,,,,,,,,,,,,,,,,,,,,,,,,,,,,,,,,,,,,,,,,,,,,,,,,,1.2704,705.6250842000009,None,None,1,705.6250842000009,None,,P029,fencog,2,Pre,2022_Mar_09_1143,N-Back (New Version 2021),2021.1.4,120.16992027407926,
,,,,Conditions/Version_1/zeroback(2)_v1.xlsx,New rule: Press 'space' when you see the letter 'x' or 'X'.,W,None,,,,,,,,,0,5,5,5,0,5,5,5,,,,,,,,,,,,,,,,,,,,,,,,,,,,,,,,,,,,,,,,,,,,,,,,,,,,,,,,,,,,,,,,,,,,,1.5308,709.1593338999664,None,None,1,709.1593338999664,None,,P029,fencog,2,Pre,2022_Mar_09_1143,N-Back (New Version 2021),2021.1.4,120.16992027407926,
,,,,Conditions/Version_1/zeroback(2)_v1.xlsx,New rule: Press 'space' when you see the letter 'x' or 'X'.,x,space,,,,,,,,,0,5,5,5,0,6,6,6,,,,,,,,,,,,,,,,,,,,,,,,,,,,,,,,,,,,,,,,,,,,,,,,,,,,,,,,,,,,,,,,,,,,,1.2952,712.4653795000049,None,space,1,712.4653795000049,None,0.3926239999709651,P029,fencog,2,Pre,2022_Mar_09_1143,N-Back (New Version 2021),2021.1.4,120.16992027407926,
,,,,Conditions/Version_1/zeroback(2)_v1.xlsx,New rule: Press 'space' when you see the letter 'x' or 'X'.,X,space,,,,,,,,,0,5,5,5,0,7,7,7,,,,,,,,,,,,,,,,,,,,,,,,,,,,,,,,,,,,,,,,,,,,,,,,,,,,,,,,,,,,,,,,,,,,,1.4254,715.8899735999876,None,space,1,715.8899735999876,None,0.5124358999892138,P029,fencog,2,Pre,2022_Mar_09_1143,N-Back (New Version 2021),2021.1.4,120.16992027407926,
,,,,Conditions/Version_1/zeroback(2)_v1.xlsx,New rule: Press 'space' when you see the letter 'x' or 'X'.,p,None,,,,,,,,,0,5,5,5,0,8,8,8,,,,,,,,,,,,,,,,,,,,,,,,,,,,,,,,,,,,,,,,,,,,,,,,,,,,,,,,,,,,,,,,,,,,,1.8098,719.7136896000011,None,None,1,719.7136896000011,None,,P029,fencog,2,Pre,2022_Mar_09_1143,N-Back (New Version 2021),2021.1.4,120.16992027407926,
,,,,Conditions/Version_1/zeroback(2)_v1.xlsx,New rule: Press 'space' when you see the letter 'x' or 'X'.,h,None,,,,,,,,,0,5,5,5,0,9,9,9,,,,,,,,,,,,,,,,,,,,,,,,,,,,,,,,,,,,,,,,,,,,,,,,,,,,,,,,,,,,,,,,,,,,,1.3944,723.1199556000065,None,None,1,723.1199556000065,None,,P029,fencog,2,Pre,2022_Mar_09_1143,N-Back (New Version 2021),2021.1.4,120.16992027407926,
,,,,Conditions/Version_1/zeroback(2)_v1.xlsx,New rule: Press 'space' when you see the letter 'x' or 'X'.,,,,,,,,,,,0,5,5,5,,,,,,,,,,,,,,,,,,,,,,,,,,,,,,,,,,,,,,,,,,,,,,,,,,,,,,,,,,,,,,,,,,,,,,,,,,,,,,,,,P029,fencog,2,Pre,2022_Mar_09_1143,N-Back (New Version 2021),2021.1.4,120.16992027407926,
,,,,Conditions/Version_1/threeback(2)_v1.xlsx,New rule: Press 'space' when you see 3-back (i.e. the same letter as the one that appeared 3 letters ago.),q,None,,,,,,,,,0,6,6,6,0,0,0,0,,,,,,,,,,,,,,,,,,,,,,,,,,,,,,,,,,,,,,,,,,,,,,,,,,,,,,,,,,,725.1560939999763,None,728.1490324999904,None,space,11.956936400034465,728.1490324999904,None,725.1560939999763,None,1.4192,741.5560956000118,None,None,1,741.5560956000118,None,,P029,fencog,2,Pre,2022_Mar_09_1143,N-Back (New Version 2021),2021.1.4,120.16992027407926,
,,,,Conditions/Version_1/threeback(2)_v1.xlsx,New rule: Press 'space' when you see 3-back (i.e. the same letter as the one that appeared 3 letters ago.),Y,None,,,,,,,,,0,6,6,6,0,1,1,1,,,,,,,,,,,,,,,,,,,,,,,,,,,,,,,,,,,,,,,,,,,,,,,,,,,,,,,,,,,,,,,,,,,,,1.2084,744.7724577999907,None,None,1,744.7724577999907,None,,P029,fencog,2,Pre,2022_Mar_09_1143,N-Back (New Version 2021),2021.1.4,120.16992027407926,
,,,,Conditions/Version_1/threeback(2)_v1.xlsx,New rule: Press 'space' when you see 3-back (i.e. the same letter as the one that appeared 3 letters ago.),p,None,,,,,,,,,0,6,6,6,0,2,2,2,,,,,,,,,,,,,,,,,,,,,,,,,,,,,,,,,,,,,,,,,,,,,,,,,,,,,,,,,,,,,,,,,,,,,1.568,748.354157499969,None,None,1,748.354157499969,None,,P029,fencog,2,Pre,2022_Mar_09_1143,N-Back (New Version 2021),2021.1.4,120.16992027407926,
,,,,Conditions/Version_1/threeback(2)_v1.xlsx,New rule: Press 'space' when you see 3-back (i.e. the same letter as the one that appeared 3 letters ago.),p,None,,,,,,,,,0,6,6,6,0,3,3,3,,,,,,,,,,,,,,,,,,,,,,,,,,,,,,,,,,,,,,,,,,,,,,,,,,,,,,,,,,,,,,,,,,,,,1.8594,752.2197497999878,None,None,1,752.2197497999878,None,,P029,fencog,2,Pre,2022_Mar_09_1143,N-Back (New Version 2021),2021.1.4,120.16992027407926,
,,,,Conditions/Version_1/threeback(2)_v1.xlsx,New rule: Press 'space' when you see 3-back (i.e. the same letter as the one that appeared 3 letters ago.),y,space,,,,,,,,,0,6,6,6,0,4,4,4,,,,,,,,,,,,,,,,,,,,,,,,,,,,,,,,,,,,,,,,,,,,,,,,,,,,,,,,,,,,,,,,,,,,,1.351,755.5772216999903,None,space,1,755.5772216999903,None,0.5128280000062659,P029,fencog,2,Pre,2022_Mar_09_1143,N-Back (New Version 2021),2021.1.4,120.16992027407926,
,,,,Conditions/Version_1/threeback(2)_v1.xlsx,New rule: Press 'space' when you see 3-back (i.e. the same letter as the one that appeared 3 letters ago.),u,None,,,,,,,,,0,6,6,6,0,5,5,5,,,,,,,,,,,,,,,,,,,,,,,,,,,,,,,,,,,,,,,,,,,,,,,,,,,,,,,,,,,,,,,,,,,,,1.1464,758.7261913999682,None,None,1,758.7261913999682,None,,P029,fencog,2,Pre,2022_Mar_09_1143,N-Back (New Version 2021),2021.1.4,120.16992027407926,
,,,,Conditions/Version_1/threeback(2)_v1.xlsx,New rule: Press 'space' when you see 3-back (i.e. the same letter as the one that appeared 3 letters ago.),P,space,,,,,,,,,0,6,6,6,0,6,6,6,,,,,,,,,,,,,,,,,,,,,,,,,,,,,,,,,,,,,,,,,,,,,,,,,,,,,,,,,,,,,,,,,,,,,1.0968,761.8315983999637,None,space,1,761.8315983999637,None,0.6183524999651127,P029,fencog,2,Pre,2022_Mar_09_1143,N-Back (New Version 2021),2021.1.4,120.16992027407926,
,,,,Conditions/Version_1/threeback(2)_v1.xlsx,New rule: Press 'space' when you see 3-back (i.e. the same letter as the one that appeared 3 letters ago.),a,None,,,,,,,,,0,6,6,6,0,7,7,7,,,,,,,,,,,,,,,,,,,,,,,,,,,,,,,,,,,,,,,,,,,,,,,,,,,,,,,,,,,,,,,,,,,,,1.506,765.3408812999842,None,None,1,765.3408812999842,None,,P029,fencog,2,Pre,2022_Mar_09_1143,N-Back (New Version 2021),2021.1.4,120.16992027407926,
,,,,Conditions/Version_1/threeback(2)_v1.xlsx,New rule: Press 'space' when you see 3-back (i.e. the same letter as the one that appeared 3 letters ago.),U,space,,,,,,,,,0,6,6,6,0,8,8,8,,,,,,,,,,,,,,,,,,,,,,,,,,,,,,,,,,,,,,,,,,,,,,,,,,,,,,,,,,,,,,,,,,,,,1.7106,769.0562898999779,None,space,1,769.0562898999779,None,0.6097240999806672,P029,fencog,2,Pre,2022_Mar_09_1143,N-Back (New Version 2021),2021.1.4,120.16992027407926,
,,,,Conditions/Version_1/threeback(2)_v1.xlsx,New rule: Press 'space' when you see 3-back (i.e. the same letter as the one that appeared 3 letters ago.),q,None,,,,,,,,,0,6,6,6,0,9,9,9,,,,,,,,,,,,,,,,,,,,,,,,,,,,,,,,,,,,,,,,,,,,,,,,,,,,,,,,,,,,,,,,,,,,,1.692,772.7467992000165,None,None,1,772.7467992000165,None,,P029,fencog,2,Pre,2022_Mar_09_1143,N-Back (New Version 2021),2021.1.4,120.16992027407926,
,,,,Conditions/Version_1/threeback(2)_v1.xlsx,New rule: Press 'space' when you see 3-back (i.e. the same letter as the one that appeared 3 letters ago.),,,,,,,,,,,0,6,6,6,,,,,,,,,,,,,,,,,,,,,,,,,,,,,,,,,,,,,,,,,,,,,,,,,,,,,,,,,,,,,,,,,,,,,,,,,,,,,,,,,P029,fencog,2,Pre,2022_Mar_09_1143,N-Back (New Version 2021),2021.1.4,120.16992027407926,
,,,,Conditions/Version_1/twoback(2)_v1.xlsx,New rule: Press 'space' when you see 2-back (i.e. the same letter as the one that appeared 2 letters ago.),q,None,,,,,,,,,0,7,7,7,0,0,0,0,,,,,,,,,,,,,,,,,,,,,,,,,,,,,,,,,,,,,,,,,,,,,,,,,,,,,,,,,,,774.7668328,None,777.755073999986,None,space,0.55890849995194,777.755073999986,None,774.7668328,None,1.0968,779.4448490999639,None,None,1,779.4448490999639,None,,P029,fencog,2,Pre,2022_Mar_09_1143,N-Back (New Version 2021),2021.1.4,120.16992027407926,
,,,,Conditions/Version_1/twoback(2)_v1.xlsx,New rule: Press 'space' when you see 2-back (i.e. the same letter as the one that appeared 2 letters ago.),r,None,,,,,,,,,0,7,7,7,0,1,1,1,,,,,,,,,,,,,,,,,,,,,,,,,,,,,,,,,,,,,,,,,,,,,,,,,,,,,,,,,,,,,,,,,,,,,1.599,783.0522485999973,None,None,1,783.0522485999973,None,,P029,fencog,2,Pre,2022_Mar_09_1143,N-Back (New Version 2021),2021.1.4,120.16992027407926,
,,,,Conditions/Version_1/twoback(2)_v1.xlsx,New rule: Press 'space' when you see 2-back (i.e. the same letter as the one that appeared 2 letters ago.),q,space,,,,,,,,,0,7,7,7,0,2,2,2,,,,,,,,,,,,,,,,,,,,,,,,,,,,,,,,,,,,,,,,,,,,,,,,,,,,,,,,,,,,,,,,,,,,,1.2084,786.2607783999993,None,space,1,786.2607783999993,None,0.7492093999753706,P029,fencog,2,Pre,2022_Mar_09_1143,N-Back (New Version 2021),2021.1.4,120.16992027407926,
,,,,Conditions/Version_1/twoback(2)_v1.xlsx,New rule: Press 'space' when you see 2-back (i.e. the same letter as the one that appeared 2 letters ago.),P,None,,,,,,,,,0,7,7,7,0,3,3,3,,,,,,,,,,,,,,,,,,,,,,,,,,,,,,,,,,,,,,,,,,,,,,,,,,,,,,,,,,,,,,,,,,,,,1.9276,790.2015082999715,None,None,1,790.2015082999715,None,,P029,fencog,2,Pre,2022_Mar_09_1143,N-Back (New Version 2021),2021.1.4,120.16992027407926,
,,,,Conditions/Version_1/twoback(2)_v1.xlsx,New rule: Press 'space' when you see 2-back (i.e. the same letter as the one that appeared 2 letters ago.),p,None,,,,,,,,,0,7,7,7,0,4,4,4,,,,,,,,,,,,,,,,,,,,,,,,,,,,,,,,,,,,,,,,,,,,,,,,,,,,,,,,,,,,,,,,,,,,,1.4068,793.6224145999877,None,None,1,793.6224145999877,None,,P029,fencog,2,Pre,2022_Mar_09_1143,N-Back (New Version 2021),2021.1.4,120.16992027407926,
,,,,Conditions/Version_1/twoback(2)_v1.xlsx,New rule: Press 'space' when you see 2-back (i.e. the same letter as the one that appeared 2 letters ago.),H,None,,,,,,,,,0,7,7,7,0,5,5,5,,,,,,,,,,,,,,,,,,,,,,,,,,,,,,,,,,,,,,,,,,,,,,,,,,,,,,,,,,,,,,,,,,,,,1.5928,797.2230790000176,None,None,1,797.2230790000176,None,,P029,fencog,2,Pre,2022_Mar_09_1143,N-Back (New Version 2021),2021.1.4,120.16992027407926,
,,,,Conditions/Version_1/twoback(2)_v1.xlsx,New rule: Press 'space' when you see 2-back (i.e. the same letter as the one that appeared 2 letters ago.),g,None,,,,,,,,,0,7,7,7,0,6,6,6,,,,,,,,,,,,,,,,,,,,,,,,,,,,,,,,,,,,,,,,,,,,,,,,,,,,,,,,,,,,,,,,,,,,,1.5742,800.7970410999842,None,None,1,800.7970410999842,None,,P029,fencog,2,Pre,2022_Mar_09_1143,N-Back (New Version 2021),2021.1.4,120.16992027407926,
,,,,Conditions/Version_1/twoback(2)_v1.xlsx,New rule: Press 'space' when you see 2-back (i.e. the same letter as the one that appeared 2 letters ago.),j,None,,,,,,,,,0,7,7,7,0,7,7,7,,,,,,,,,,,,,,,,,,,,,,,,,,,,,,,,,,,,,,,,,,,,,,,,,,,,,,,,,,,,,,,,,,,,,1.7416,804.5375896000187,None,None,1,804.5375896000187,None,,P029,fencog,2,Pre,2022_Mar_09_1143,N-Back (New Version 2021),2021.1.4,120.16992027407926,
,,,,Conditions/Version_1/twoback(2)_v1.xlsx,New rule: Press 'space' when you see 2-back (i.e. the same letter as the one that appeared 2 letters ago.),g,space,,,,,,,,,0,7,7,7,0,8,8,8,,,,,,,,,,,,,,,,,,,,,,,,,,,,,,,,,,,,,,,,,,,,,,,,,,,,,,,,,,,,,,,,,,,,,1.1154,807.6603621999966,None,space,1,807.6603621999966,None,0.5337583000073209,P029,fencog,2,Pre,2022_Mar_09_1143,N-Back (New Version 2021),2021.1.4,120.16992027407926,
,,,,Conditions/Version_1/twoback(2)_v1.xlsx,New rule: Press 'space' when you see 2-back (i.e. the same letter as the one that appeared 2 letters ago.),G,None,,,,,,,,,0,7,7,7,0,9,9,9,,,,,,,,,,,,,,,,,,,,,,,,,,,,,,,,,,,,,,,,,,,,,,,,,,,,,,,,,,,,,,,,,,,,,1.258,810.9192257999675,None,None,1,810.9192257999675,None,,P029,fencog,2,Pre,2022_Mar_09_1143,N-Back (New Version 2021),2021.1.4,120.16992027407926,
,,,,Conditions/Version_1/twoback(2)_v1.xlsx,New rule: Press 'space' when you see 2-back (i.e. the same letter as the one that appeared 2 letters ago.),,,,,,,,,,,0,7,7,7,,,,,,,,,,,,,,,,,,,,,,,,,,,,,,,,,,,,,,,,,,,,,,,,,,,,,,,,,,,,,,,,,,,,,,,,,,,,,,,,,P029,fencog,2,Pre,2022_Mar_09_1143,N-Back (New Version 2021),2021.1.4,120.16992027407926,
,,,,Conditions/Version_1/threeback(3)_v1.xlsx,New rule: Press 'space' when you see 3-back (i.e. the same letter as the one that appeared 3 letters ago.),w,None,,,,,,,,,0,8,8,8,0,0,0,0,,,,,,,,,,,,,,,,,,,,,,,,,,,,,,,,,,,,,,,,,,,,,,,,,,,,,,,,,,,812.9478395999759,None,815.9367744000047,None,space,4.977221800014377,815.9367744000047,None,812.9478395999759,None,1.8098,822.7575264999759,None,None,1,822.7575264999759,None,,P029,fencog,2,Pre,2022_Mar_09_1143,N-Back (New Version 2021),2021.1.4,120.16992027407926,
,,,,Conditions/Version_1/threeback(3)_v1.xlsx,New rule: Press 'space' when you see 3-back (i.e. the same letter as the one that appeared 3 letters ago.),p,None,,,,,,,,,0,8,8,8,0,1,1,1,,,,,,,,,,,,,,,,,,,,,,,,,,,,,,,,,,,,,,,,,,,,,,,,,,,,,,,,,,,,,,,,,,,,,1.9772,826.739541899995,None,None,1,826.739541899995,None,,P029,fencog,2,Pre,2022_Mar_09_1143,N-Back (New Version 2021),2021.1.4,120.16992027407926,
,,,,Conditions/Version_1/threeback(3)_v1.xlsx,New rule: Press 'space' when you see 3-back (i.e. the same letter as the one that appeared 3 letters ago.),P,None,,,,,,,,,0,8,8,8,0,2,2,2,,,,,,,,,,,,,,,,,,,,,,,,,,,,,,,,,,,,,,,,,,,,,,,,,,,,,,,,,,,,,,,,,,,,,1.4626,830.2050286000012,None,None,1,830.2050286000012,None,,P029,fencog,2,Pre,2022_Mar_09_1143,N-Back (New Version 2021),2021.1.4,120.16992027407926,
,,,,Conditions/Version_1/threeback(3)_v1.xlsx,New rule: Press 'space' when you see 3-back (i.e. the same letter as the one that appeared 3 letters ago.),i,None,,,,,,,,,0,8,8,8,0,3,3,3,,,,,,,,,,,,,,,,,,,,,,,,,,,,,,,,,,,,,,,,,,,,,,,,,,,,,,,,,,,,,,,,,,,,,1.3634,833.5716091999784,None,None,1,833.5716091999784,None,,P029,fencog,2,Pre,2022_Mar_09_1143,N-Back (New Version 2021),2021.1.4,120.16992027407926,
,,,,Conditions/Version_1/threeback(3)_v1.xlsx,New rule: Press 'space' when you see 3-back (i.e. the same letter as the one that appeared 3 letters ago.),f,None,,,,,,,,,0,8,8,8,0,4,4,4,,,,,,,,,,,,,,,,,,,,,,,,,,,,,,,,,,,,,,,,,,,,,,,,,,,,,,,,,,,,,,,,,,,,,1.9152,837.4945730000036,None,None,1,837.4945730000036,None,,P029,fencog,2,Pre,2022_Mar_09_1143,N-Back (New Version 2021),2021.1.4,120.16992027407926,
,,,,Conditions/Version_1/threeback(3)_v1.xlsx,New rule: Press 'space' when you see 3-back (i.e. the same letter as the one that appeared 3 letters ago.),o,None,,,,,,,,,0,8,8,8,0,5,5,5,,,,,,,,,,,,,,,,,,,,,,,,,,,,,,,,,,,,,,,,,,,,,,,,,,,,,,,,,,,,,,,,,,,,,1.8718,841.3716952999821,None,None,1,841.3716952999821,None,,P029,fencog,2,Pre,2022_Mar_09_1143,N-Back (New Version 2021),2021.1.4,120.16992027407926,
,,,,Conditions/Version_1/threeback(3)_v1.xlsx,New rule: Press 'space' when you see 3-back (i.e. the same letter as the one that appeared 3 letters ago.),w,None,,,,,,,,,0,8,8,8,0,6,6,6,,,,,,,,,,,,,,,,,,,,,,,,,,,,,,,,,,,,,,,,,,,,,,,,,,,,,,,,,,,,,,,,,,,,,1.134,844.5229827999719,None,None,1,844.5229827999719,None,,P029,fencog,2,Pre,2022_Mar_09_1143,N-Back (New Version 2021),2021.1.4,120.16992027407926,
,,,,Conditions/Version_1/threeback(3)_v1.xlsx,New rule: Press 'space' when you see 3-back (i.e. the same letter as the one that appeared 3 letters ago.),F,space,,,,,,,,,0,8,8,8,0,7,7,7,,,,,,,,,,,,,,,,,,,,,,,,,,,,,,,,,,,,,,,,,,,,,,,,,,,,,,,,,,,,,,,,,,,,,1.3944,847.924821899971,None,space,1,847.924821899971,None,0.5651419999776408,P029,fencog,2,Pre,2022_Mar_09_1143,N-Back (New Version 2021),2021.1.4,120.16992027407926,
,,,,Conditions/Version_1/threeback(3)_v1.xlsx,New rule: Press 'space' when you see 3-back (i.e. the same letter as the one that appeared 3 letters ago.),p,None,,,,,,,,,0,8,8,8,0,8,8,8,,,,,,,,,,,,,,,,,,,,,,,,,,,,,,,,,,,,,,,,,,,,,,,,,,,,,,,,,,,,,,,,,,,,,1.32,851.2498024000088,None,None,1,851.2498024000088,None,,P029,fencog,2,Pre,2022_Mar_09_1143,N-Back (New Version 2021),2021.1.4,120.16992027407926,
,,,,Conditions/Version_1/threeback(3)_v1.xlsx,New rule: Press 'space' when you see 3-back (i.e. the same letter as the one that appeared 3 letters ago.),W,space,,,,,,,,,0,8,8,8,0,9,9,9,,,,,,,,,,,,,,,,,,,,,,,,,,,,,,,,,,,,,,,,,,,,,,,,,,,,,,,,,,,,,,,,,,,,,1.2456,854.5062580999802,None,space,1,854.5062580999802,None,0.8957164000021294,P029,fencog,2,Pre,2022_Mar_09_1143,N-Back (New Version 2021),2021.1.4,120.16992027407926,
,,,,Conditions/Version_1/threeback(3)_v1.xlsx,New rule: Press 'space' when you see 3-back (i.e. the same letter as the one that appeared 3 letters ago.),,,,,,,,,,,0,8,8,8,,,,,,,,,,,,,,,,,,,,,,,,,,,,,,,,,,,,,,,,,,,,,,,,,,,,,,,,,,,,,,,,,,,,,,,,,,,,,,,,,P029,fencog,2,Pre,2022_Mar_09_1143,N-Back (New Version 2021),2021.1.4,120.16992027407926,
,,,,Conditions/Version_1/zeroback(3)_v1.xlsx,New rule: Press 'space' when you see the letter 'x' or 'X'.,X,space,,,,,,,,,0,9,9,9,0,0,0,0,,,,,,,,,,,,,,,,,,,,,,,,,,,,,,,,,,,,,,,,,,,,,,,,,,,,,,,,,,,856.5263740000082,None,859.5151082999655,None,space,0.39086079999106005,859.5151082999655,None,856.5263740000082,None,1.6982,861.6381107000052,None,space,1,861.6381107000052,None,0.5398986999643967,P029,fencog,2,Pre,2022_Mar_09_1143,N-Back (New Version 2021),2021.1.4,120.16992027407926,
,,,,Conditions/Version_1/zeroback(3)_v1.xlsx,New rule: Press 'space' when you see the letter 'x' or 'X'.,B,None,,,,,,,,,0,9,9,9,0,1,1,1,,,,,,,,,,,,,,,,,,,,,,,,,,,,,,,,,,,,,,,,,,,,,,,,,,,,,,,,,,,,,,,,,,,,,1.1588,864.8044257999863,None,None,1,864.8044257999863,None,,P029,fencog,2,Pre,2022_Mar_09_1143,N-Back (New Version 2021),2021.1.4,120.16992027407926,
,,,,Conditions/Version_1/zeroback(3)_v1.xlsx,New rule: Press 'space' when you see the letter 'x' or 'X'.,m,None,,,,,,,,,0,9,9,9,0,2,2,2,,,,,,,,,,,,,,,,,,,,,,,,,,,,,,,,,,,,,,,,,,,,,,,,,,,,,,,,,,,,,,,,,,,,,1.7664,868.5790374999633,None,None,1,868.5790374999633,None,,P029,fencog,2,Pre,2022_Mar_09_1143,N-Back (New Version 2021),2021.1.4,120.16992027407926,
,,,,Conditions/Version_1/zeroback(3)_v1.xlsx,New rule: Press 'space' when you see the letter 'x' or 'X'.,m,None,,,,,,,,,0,9,9,9,0,3,3,3,,,,,,,,,,,,,,,,,,,,,,,,,,,,,,,,,,,,,,,,,,,,,,,,,,,,,,,,,,,,,,,,,,,,,1.1216,871.7096776000108,None,None,1,871.7096776000108,None,,P029,fencog,2,Pre,2022_Mar_09_1143,N-Back (New Version 2021),2021.1.4,120.16992027407926,
,,,,Conditions/Version_1/zeroback(3)_v1.xlsx,New rule: Press 'space' when you see the letter 'x' or 'X'.,o,None,,,,,,,,,0,9,9,9,0,4,4,4,,,,,,,,,,,,,,,,,,,,,,,,,,,,,,,,,,,,,,,,,,,,,,,,,,,,,,,,,,,,,,,,,,,,,1.1898,874.9002812000108,None,None,1,874.9002812000108,None,,P029,fencog,2,Pre,2022_Mar_09_1143,N-Back (New Version 2021),2021.1.4,120.16992027407926,
,,,,Conditions/Version_1/zeroback(3)_v1.xlsx,New rule: Press 'space' when you see the letter 'x' or 'X'.,p,None,,,,,,,,,0,9,9,9,0,5,5,5,,,,,,,,,,,,,,,,,,,,,,,,,,,,,,,,,,,,,,,,,,,,,,,,,,,,,,,,,,,,,,,,,,,,,1.6114,878.5321304000099,None,None,1,878.5321304000099,None,,P029,fencog,2,Pre,2022_Mar_09_1143,N-Back (New Version 2021),2021.1.4,120.16992027407926,
,,,,Conditions/Version_1/zeroback(3)_v1.xlsx,New rule: Press 'space' when you see the letter 'x' or 'X'.,G,None,,,,,,,,,0,9,9,9,0,6,6,6,,,,,,,,,,,,,,,,,,,,,,,,,,,,,,,,,,,,,,,,,,,,,,,,,,,,,,,,,,,,,,,,,,,,,1.9524,882.4896526999655,None,None,1,882.4896526999655,None,,P029,fencog,2,Pre,2022_Mar_09_1143,N-Back (New Version 2021),2021.1.4,120.16992027407926,
,,,,Conditions/Version_1/zeroback(3)_v1.xlsx,New rule: Press 'space' when you see the letter 'x' or 'X'.,X,space,,,,,,,,,0,9,9,9,0,7,7,7,,,,,,,,,,,,,,,,,,,,,,,,,,,,,,,,,,,,,,,,,,,,,,,,,,,,,,,,,,,,,,,,,,,,,1.3634,885.8564104000106,None,space,1,885.8564104000106,None,0.3696483999956399,P029,fencog,2,Pre,2022_Mar_09_1143,N-Back (New Version 2021),2021.1.4,120.16992027407926,
,,,,Conditions/Version_1/zeroback(3)_v1.xlsx,New rule: Press 'space' when you see the letter 'x' or 'X'.,p,None,,,,,,,,,0,9,9,9,0,8,8,8,,,,,,,,,,,,,,,,,,,,,,,,,,,,,,,,,,,,,,,,,,,,,,,,,,,,,,,,,,,,,,,,,,,,,1.8656,889.7291489999625,None,None,1,889.7291489999625,None,,P029,fencog,2,Pre,2022_Mar_09_1143,N-Back (New Version 2021),2021.1.4,120.16992027407926,
,,,,Conditions/Version_1/zeroback(3)_v1.xlsx,New rule: Press 'space' when you see the letter 'x' or 'X'.,x,space,,,,,,,,,0,9,9,9,0,9,9,9,,,,,,,,,,,,,,,,,,,,,,,,,,,,,,,,,,,,,,,,,,,,,,,,,,,,,,,,,,,,,,,,,,,,,1.3882,893.1223327000043,None,space,1,893.1223327000043,None,0.447768299956806,P029,fencog,2,Pre,2022_Mar_09_1143,N-Back (New Version 2021),2021.1.4,120.16992027407926,
,,,,Conditions/Version_1/zeroback(3)_v1.xlsx,New rule: Press 'space' when you see the letter 'x' or 'X'.,,,,,,,,,,,0,9,9,9,,,,,,,,,,,,,,,,,,,,,,,,,,,,,,,,,,,,,,,,,,,,,,,,,,,,,,,,,,,,,,,,,,,,,,,,,,,,,,,,,P029,fencog,2,Pre,2022_Mar_09_1143,N-Back (New Version 2021),2021.1.4,120.16992027407926,
,,,,Conditions/Version_1/twoback(3)_v1.xlsx,New rule: Press 'space' when you see 2-back (i.e. the same letter as the one that appeared 2 letters ago.),e,None,,,,,,,,,0,10,10,10,0,0,0,0,,,,,,,,,,,,,,,,,,,,,,,,,,,,,,,,,,,,,,,,,,,,,,,,,,,,,,,,,,,895.14966429997,None,898.1373593999888,None,space,0.32051320001482964,898.1373593999888,None,895.14966429997,None,1.2518,899.7348558999947,None,None,1,899.7348558999947,None,,P029,fencog,2,Pre,2022_Mar_09_1143,N-Back (New Version 2021),2021.1.4,120.16992027407926,
,,,,Conditions/Version_1/twoback(3)_v1.xlsx,New rule: Press 'space' when you see 2-back (i.e. the same letter as the one that appeared 2 letters ago.),o,None,,,,,,,,,0,10,10,10,0,1,1,1,,,,,,,,,,,,,,,,,,,,,,,,,,,,,,,,,,,,,,,,,,,,,,,,,,,,,,,,,,,,,,,,,,,,,1.878,903.6178987000021,None,None,1,903.6178987000021,None,,P029,fencog,2,Pre,2022_Mar_09_1143,N-Back (New Version 2021),2021.1.4,120.16992027407926,
,,,,Conditions/Version_1/twoback(3)_v1.xlsx,New rule: Press 'space' when you see 2-back (i.e. the same letter as the one that appeared 2 letters ago.),P,None,,,,,,,,,0,10,10,10,0,2,2,2,,,,,,,,,,,,,,,,,,,,,,,,,,,,,,,,,,,,,,,,,,,,,,,,,,,,,,,,,,,,,,,,,,,,,1.0534,906.6883354000165,None,None,1,906.6883354000165,None,,P029,fencog,2,Pre,2022_Mar_09_1143,N-Back (New Version 2021),2021.1.4,120.16992027407926,
,,,,Conditions/Version_1/twoback(3)_v1.xlsx,New rule: Press 'space' when you see 2-back (i.e. the same letter as the one that appeared 2 letters ago.),z,None,,,,,,,,,0,10,10,10,0,3,3,3,,,,,,,,,,,,,,,,,,,,,,,,,,,,,,,,,,,,,,,,,,,,,,,,,,,,,,,,,,,,,,,,,,,,,1.6982,910.39147089998,None,None,1,910.39147089998,None,,P029,fencog,2,Pre,2022_Mar_09_1143,N-Back (New Version 2021),2021.1.4,120.16992027407926,
,,,,Conditions/Version_1/twoback(3)_v1.xlsx,New rule: Press 'space' when you see 2-back (i.e. the same letter as the one that appeared 2 letters ago.),X,None,,,,,,,,,0,10,10,10,0,4,4,4,,,,,,,,,,,,,,,,,,,,,,,,,,,,,,,,,,,,,,,,,,,,,,,,,,,,,,,,,,,,,,,,,,,,,1.413,913.8136837999918,None,None,1,913.8136837999918,None,,P029,fencog,2,Pre,2022_Mar_09_1143,N-Back (New Version 2021),2021.1.4,120.16992027407926,
,,,,Conditions/Version_1/twoback(3)_v1.xlsx,New rule: Press 'space' when you see 2-back (i.e. the same letter as the one that appeared 2 letters ago.),z,space,,,,,,,,,0,10,10,10,0,5,5,5,,,,,,,,,,,,,,,,,,,,,,,,,,,,,,,,,,,,,,,,,,,,,,,,,,,,,,,,,,,,,,,,,,,,,1.7292,917.5460151999723,None,space,1,917.5460151999723,None,0.6399705999647267,P029,fencog,2,Pre,2022_Mar_09_1143,N-Back (New Version 2021),2021.1.4,120.16992027407926,
,,,,Conditions/Version_1/twoback(3)_v1.xlsx,New rule: Press 'space' when you see 2-back (i.e. the same letter as the one that appeared 2 letters ago.),x,space,,,,,,,,,0,10,10,10,0,6,6,6,,,,,,,,,,,,,,,,,,,,,,,,,,,,,,,,,,,,,,,,,,,,,,,,,,,,,,,,,,,,,,,,,,,,,1.1464,920.6951164999628,None,space,1,920.6951164999628,None,1.3552224999875762,P029,fencog,2,Pre,2022_Mar_09_1143,N-Back (New Version 2021),2021.1.4,120.16992027407926,
,,,,Conditions/Version_1/twoback(3)_v1.xlsx,New rule: Press 'space' when you see 2-back (i.e. the same letter as the one that appeared 2 letters ago.),c,None,,,,,,,,,0,10,10,10,0,7,7,7,,,,,,,,,,,,,,,,,,,,,,,,,,,,,,,,,,,,,,,,,,,,,,,,,,,,,,,,,,,,,,,,,,,,,1.01,923.7191104000085,None,None,1,923.7191104000085,None,,P029,fencog,2,Pre,2022_Mar_09_1143,N-Back (New Version 2021),2021.1.4,120.16992027407926,
,,,,Conditions/Version_1/twoback(3)_v1.xlsx,New rule: Press 'space' when you see 2-back (i.e. the same letter as the one that appeared 2 letters ago.),i,None,,,,,,,,,0,10,10,10,0,8,8,8,,,,,,,,,,,,,,,,,,,,,,,,,,,,,,,,,,,,,,,,,,,,,,,,,,,,,,,,,,,,,,,,,,,,,1.816,927.5434480999829,None,None,1,927.5434480999829,None,,P029,fencog,2,Pre,2022_Mar_09_1143,N-Back (New Version 2021),2021.1.4,120.16992027407926,
,,,,Conditions/Version_1/twoback(3)_v1.xlsx,New rule: Press 'space' when you see 2-back (i.e. the same letter as the one that appeared 2 letters ago.),C,space,,,,,,,,,0,10,10,10,0,9,9,9,,,,,,,,,,,,,,,,,,,,,,,,,,,,,,,,,,,,,,,,,,,,,,,,,,,,,,,,,,,,,,,,,,,,,1.2952,930.8423765999614,None,space,1,930.8423765999614,None,0.623712400032673,P029,fencog,2,Pre,2022_Mar_09_1143,N-Back (New Version 2021),2021.1.4,120.16992027407926,
,,,,Conditions/Version_1/twoback(3)_v1.xlsx,New rule: Press 'space' when you see 2-back (i.e. the same letter as the one that appeared 2 letters ago.),,,,,,,,,,,0,10,10,10,,,,,,,,,,,,,,,,,,,,,,,,,,,,,,,,,,,,,,,,,,,,,,,,,,,,,,,,,,,,,,,,,,,,,,,,,,,,,,,,,P029,fencog,2,Pre,2022_Mar_09_1143,N-Back (New Version 2021),2021.1.4,120.16992027407926,
,,,,Conditions/Version_1/oneback(3)_v1.xlsx,New rule: Press 'space' when you see 1-back (i.e. the same letter as the one that appeared 1 letter ago.),o,None,,,,,,,,,0,11,11,11,0,0,0,0,,,,,,,,,,,,,,,,,,,,,,,,,,,,,,,,,,,,,,,,,,,,,,,,,,,,,,,,,,,932.8700834999909,None,935.8514278999646,None,space,0.7506420999998227,935.8514278999646,None,932.8700834999909,None,1.0534,937.6817661999958,None,None,1,937.6817661999958,None,,P029,fencog,2,Pre,2022_Mar_09_1143,N-Back (New Version 2021),2021.1.4,120.16992027407926,
,,,,Conditions/Version_1/oneback(3)_v1.xlsx,New rule: Press 'space' when you see 1-back (i.e. the same letter as the one that appeared 1 letter ago.),O,space,,,,,,,,,0,11,11,11,0,1,1,1,,,,,,,,,,,,,,,,,,,,,,,,,,,,,,,,,,,,,,,,,,,,,,,,,,,,,,,,,,,,,,,,,,,,,1.1216,940.8057417999953,None,space,1,940.8057417999953,None,0.6685062000178732,P029,fencog,2,Pre,2022_Mar_09_1143,N-Back (New Version 2021),2021.1.4,120.16992027407926,
,,,,Conditions/Version_1/oneback(3)_v1.xlsx,New rule: Press 'space' when you see 1-back (i.e. the same letter as the one that appeared 1 letter ago.),h,None,,,,,,,,,0,11,11,11,0,2,2,2,,,,,,,,,,,,,,,,,,,,,,,,,,,,,,,,,,,,,,,,,,,,,,,,,,,,,,,,,,,,,,,,,,,,,1.6548,944.472367600014,None,None,1,944.472367600014,None,,P029,fencog,2,Pre,2022_Mar_09_1143,N-Back (New Version 2021),2021.1.4,120.16992027407926,
,,,,Conditions/Version_1/oneback(3)_v1.xlsx,New rule: Press 'space' when you see 1-back (i.e. the same letter as the one that appeared 1 letter ago.),g,None,,,,,,,,,0,11,11,11,0,3,3,3,,,,,,,,,,,,,,,,,,,,,,,,,,,,,,,,,,,,,,,,,,,,,,,,,,,,,,,,,,,,,,,,,,,,,1.7912,948.2714371999609,None,None,1,948.2714371999609,None,,P029,fencog,2,Pre,2022_Mar_09_1143,N-Back (New Version 2021),2021.1.4,120.16992027407926,
,,,,Conditions/Version_1/oneback(3)_v1.xlsx,New rule: Press 'space' when you see 1-back (i.e. the same letter as the one that appeared 1 letter ago.),n,None,,,,,,,,,0,11,11,11,0,4,4,4,,,,,,,,,,,,,,,,,,,,,,,,,,,,,,,,,,,,,,,,,,,,,,,,,,,,,,,,,,,,,,,,,,,,,1.0968,951.3694495999953,None,None,1,951.3694495999953,None,,P029,fencog,2,Pre,2022_Mar_09_1143,N-Back (New Version 2021),2021.1.4,120.16992027407926,
,,,,Conditions/Version_1/oneback(3)_v1.xlsx,New rule: Press 'space' when you see 1-back (i.e. the same letter as the one that appeared 1 letter ago.),z,None,,,,,,,,,0,11,11,11,0,5,5,5,,,,,,,,,,,,,,,,,,,,,,,,,,,,,,,,,,,,,,,,,,,,,,,,,,,,,,,,,,,,,,,,,,,,,1.3386,954.7109381000046,None,None,1,954.7109381000046,None,,P029,fencog,2,Pre,2022_Mar_09_1143,N-Back (New Version 2021),2021.1.4,120.16992027407926,
,,,,Conditions/Version_1/oneback(3)_v1.xlsx,New rule: Press 'space' when you see 1-back (i.e. the same letter as the one that appeared 1 letter ago.),X,None,,,,,,,,,0,11,11,11,0,6,6,6,,,,,,,,,,,,,,,,,,,,,,,,,,,,,,,,,,,,,,,,,,,,,,,,,,,,,,,,,,,,,,,,,,,,,1.5618,958.2839111000067,None,None,1,958.2839111000067,None,,P029,fencog,2,Pre,2022_Mar_09_1143,N-Back (New Version 2021),2021.1.4,120.16992027407926,
,,,,Conditions/Version_1/oneback(3)_v1.xlsx,New rule: Press 'space' when you see 1-back (i.e. the same letter as the one that appeared 1 letter ago.),r,None,,,,,,,,,0,11,11,11,0,7,7,7,,,,,,,,,,,,,,,,,,,,,,,,,,,,,,,,,,,,,,,,,,,,,,,,,,,,,,,,,,,,,,,,,,,,,1.0348,961.3648329999996,None,None,1,961.3648329999996,None,,P029,fencog,2,Pre,2022_Mar_09_1143,N-Back (New Version 2021),2021.1.4,120.16992027407926,
,,,,Conditions/Version_1/oneback(3)_v1.xlsx,New rule: Press 'space' when you see 1-back (i.e. the same letter as the one that appeared 1 letter ago.),r,space,,,,,,,,,0,11,11,11,0,8,8,8,,,,,,,,,,,,,,,,,,,,,,,,,,,,,,,,,,,,,,,,,,,,,,,,,,,,,,,,,,,,,,,,,,,,,1.4936,964.8318931999966,None,space,1,964.8318931999966,None,0.6102240000036545,P029,fencog,2,Pre,2022_Mar_09_1143,N-Back (New Version 2021),2021.1.4,120.16992027407926,
,,,,Conditions/Version_1/oneback(3)_v1.xlsx,New rule: Press 'space' when you see 1-back (i.e. the same letter as the one that appeared 1 letter ago.),P,None,,,,,,,,,0,11,11,11,0,9,9,9,,,,,,,,,,,,,,,,,,,,,,,,,,,,,,,,,,,,,,,,,,,,,,,,,,,,,,,,,,,,,,,,,,,,,1.7354,968.5731203000178,None,None,1,968.5731203000178,None,,P029,fencog,2,Pre,2022_Mar_09_1143,N-Back (New Version 2021),2021.1.4,120.16992027407926,
,,,,Conditions/Version_1/oneback(3)_v1.xlsx,New rule: Press 'space' when you see 1-back (i.e. the same letter as the one that appeared 1 letter ago.),,,,,,,,,,,0,11,11,11,,,,,,,,,,,,,,,,,,,,,,,,,,,,,,,,,,,,,,,,,,,,,,,,,,,,,,,,,,,,,,,,,,,,,,,,,,,,,,,,,P029,fencog,2,Pre,2022_Mar_09_1143,N-Back (New Version 2021),2021.1.4,120.16992027407926,
,,,,Conditions/Version_1/twoback(4)_v1.xlsx,New rule: Press 'space' when you see 2-back (i.e. the same letter as the one that appeared 2 letters ago.),r,None,,,,,,,,,0,12,12,12,0,0,0,0,,,,,,,,,,,,,,,,,,,,,,,,,,,,,,,,,,,,,,,,,,,,,,,,,,,,,,,,,,,970.5975326999906,None,973.5818739999668,None,space,0.42008259997237474,973.5818739999668,None,970.5975326999906,None,1.041,975.071697300009,None,None,1,975.071697300009,None,,P029,fencog,2,Pre,2022_Mar_09_1143,N-Back (New Version 2021),2021.1.4,120.16992027407926,
,,,,Conditions/Version_1/twoback(4)_v1.xlsx,New rule: Press 'space' when you see 2-back (i.e. the same letter as the one that appeared 2 letters ago.),T,None,,,,,,,,,0,12,12,12,0,1,1,1,,,,,,,,,,,,,,,,,,,,,,,,,,,,,,,,,,,,,,,,,,,,,,,,,,,,,,,,,,,,,,,,,,,,,1.6176,978.7057041999651,None,None,1,978.7057041999651,None,,P029,fencog,2,Pre,2022_Mar_09_1143,N-Back (New Version 2021),2021.1.4,120.16992027407926,
,,,,Conditions/Version_1/twoback(4)_v1.xlsx,New rule: Press 'space' when you see 2-back (i.e. the same letter as the one that appeared 2 letters ago.),o,None,,,,,,,,,0,12,12,12,0,2,2,2,,,,,,,,,,,,,,,,,,,,,,,,,,,,,,,,,,,,,,,,,,,,,,,,,,,,,,,,,,,,,,,,,,,,,1.3572,982.0685473000049,None,None,1,982.0685473000049,None,,P029,fencog,2,Pre,2022_Mar_09_1143,N-Back (New Version 2021),2021.1.4,120.16992027407926,
,,,,Conditions/Version_1/twoback(4)_v1.xlsx,New rule: Press 'space' when you see 2-back (i.e. the same letter as the one that appeared 2 letters ago.),p,None,,,,,,,,,0,12,12,12,0,3,3,3,,,,,,,,,,,,,,,,,,,,,,,,,,,,,,,,,,,,,,,,,,,,,,,,,,,,,,,,,,,,,,,,,,,,,1.3324,985.4120638999739,None,None,1,985.4120638999739,None,,P029,fencog,2,Pre,2022_Mar_09_1143,N-Back (New Version 2021),2021.1.4,120.16992027407926,
,,,,Conditions/Version_1/twoback(4)_v1.xlsx,New rule: Press 'space' when you see 2-back (i.e. the same letter as the one that appeared 2 letters ago.),p,None,,,,,,,,,0,12,12,12,0,4,4,4,,,,,,,,,,,,,,,,,,,,,,,,,,,,,,,,,,,,,,,,,,,,,,,,,,,,,,,,,,,,,,,,,,,,,1.8842,989.3091121999896,None,None,1,989.3091121999896,None,,P029,fencog,2,Pre,2022_Mar_09_1143,N-Back (New Version 2021),2021.1.4,120.16992027407926,
,,,,Conditions/Version_1/twoback(4)_v1.xlsx,New rule: Press 'space' when you see 2-back (i.e. the same letter as the one that appeared 2 letters ago.),y,None,,,,,,,,,0,12,12,12,0,5,5,5,,,,,,,,,,,,,,,,,,,,,,,,,,,,,,,,,,,,,,,,,,,,,,,,,,,,,,,,,,,,,,,,,,,,,1.7416,993.0580165999709,None,None,1,993.0580165999709,None,,P029,fencog,2,Pre,2022_Mar_09_1143,N-Back (New Version 2021),2021.1.4,120.16992027407926,
,,,,Conditions/Version_1/twoback(4)_v1.xlsx,New rule: Press 'space' when you see 2-back (i.e. the same letter as the one that appeared 2 letters ago.),P,space,,,,,,,,,0,12,12,12,0,6,6,6,,,,,,,,,,,,,,,,,,,,,,,,,,,,,,,,,,,,,,,,,,,,,,,,,,,,,,,,,,,,,,,,,,,,,1.971,997.0393343999749,None,space,1,997.0393343999749,None,0.6187601000419818,P029,fencog,2,Pre,2022_Mar_09_1143,N-Back (New Version 2021),2021.1.4,120.16992027407926,
,,,,Conditions/Version_1/twoback(4)_v1.xlsx,New rule: Press 'space' when you see 2-back (i.e. the same letter as the one that appeared 2 letters ago.),y,None,,,,,,,,,0,12,12,12,0,7,7,7,,,,,,,,,,,,,,,,,,,,,,,,,,,,,,,,,,,,,,,,,,,,,,,,,,,,,,,,,,,,,,,,,,,,,1.7292,1000.7750477999798,None,space,0,1000.7750477999798,None,0.9709882000461221,P029,fencog,2,Pre,2022_Mar_09_1143,N-Back (New Version 2021),2021.1.4,120.16992027407926,
,,,,Conditions/Version_1/twoback(4)_v1.xlsx,New rule: Press 'space' when you see 2-back (i.e. the same letter as the one that appeared 2 letters ago.),y,space,,,,,,,,,0,12,12,12,0,8,8,8,,,,,,,,,,,,,,,,,,,,,,,,,,,,,,,,,,,,,,,,,,,,,,,,,,,,,,,,,,,,,,,,,,,,,1.9772,1004.7630952000036,None,None,0,1004.7630952000036,None,,P029,fencog,2,Pre,2022_Mar_09_1143,N-Back (New Version 2021),2021.1.4,120.16992027407926,
,,,,Conditions/Version_1/twoback(4)_v1.xlsx,New rule: Press 'space' when you see 2-back (i.e. the same letter as the one that appeared 2 letters ago.),,,,,,,,,,,0,12,12,12,,,,,,,,,,,,,,,,,,,,,,,,,,,,,,,,,,,,,,,,,,,,,,,,,,,,,,,,,,,,,,,,,,,,,,,,,,,,,,,,,P029,fencog,2,Pre,2022_Mar_09_1143,N-Back (New Version 2021),2021.1.4,120.16992027407926,
,,,,Conditions/Version_1/zeroback(4)_v1.xlsx,New rule: Press 'space' when you see the letter 'x' or 'X'.,o,None,,,,,,,,,0,13,13,13,0,0,0,0,,,,,,,,,,,,,,,,,,,,,,,,,,,,,,,,,,,,,,,,,,,,,,,,,,,,,,,,,,,1006.7895963999908,None,1009.77837179997,None,space,0.7035159999504685,1009.77837179997,None,1006.7895963999908,None,1.6982,1012.2015919999685,None,None,1,1012.2015919999685,None,,P029,fencog,2,Pre,2022_Mar_09_1143,N-Back (New Version 2021),2021.1.4,120.16992027407926,
,,,,Conditions/Version_1/zeroback(4)_v1.xlsx,New rule: Press 'space' when you see the letter 'x' or 'X'.,X,space,,,,,,,,,0,13,13,13,0,1,1,1,,,,,,,,,,,,,,,,,,,,,,,,,,,,,,,,,,,,,,,,,,,,,,,,,,,,,,,,,,,,,,,,,,,,,1.4006,1015.6003646000172,None,space,1,1015.6003646000172,None,0.5617319999728352,P029,fencog,2,Pre,2022_Mar_09_1143,N-Back (New Version 2021),2021.1.4,120.16992027407926,
,,,,Conditions/Version_1/zeroback(4)_v1.xlsx,New rule: Press 'space' when you see the letter 'x' or 'X'.,p,None,,,,,,,,,0,13,13,13,0,2,2,2,,,,,,,,,,,,,,,,,,,,,,,,,,,,,,,,,,,,,,,,,,,,,,,,,,,,,,,,,,,,,,,,,,,,,1.785,1019.391549699998,None,None,1,1019.391549699998,None,,P029,fencog,2,Pre,2022_Mar_09_1143,N-Back (New Version 2021),2021.1.4,120.16992027407926,
,,,,Conditions/Version_1/zeroback(4)_v1.xlsx,New rule: Press 'space' when you see the letter 'x' or 'X'.,m,None,,,,,,,,,0,13,13,13,0,3,3,3,,,,,,,,,,,,,,,,,,,,,,,,,,,,,,,,,,,,,,,,,,,,,,,,,,,,,,,,,,,,,,,,,,,,,1.5556,1022.9565531999688,None,None,1,1022.9565531999688,None,,P029,fencog,2,Pre,2022_Mar_09_1143,N-Back (New Version 2021),2021.1.4,120.16992027407926,
,,,,Conditions/Version_1/zeroback(4)_v1.xlsx,New rule: Press 'space' when you see the letter 'x' or 'X'.,n,None,,,,,,,,,0,13,13,13,0,4,4,4,,,,,,,,,,,,,,,,,,,,,,,,,,,,,,,,,,,,,,,,,,,,,,,,,,,,,,,,,,,,,,,,,,,,,1.9896,1026.9497861000127,None,None,1,1026.9497861000127,None,,P029,fencog,2,Pre,2022_Mar_09_1143,N-Back (New Version 2021),2021.1.4,120.16992027407926,
,,,,Conditions/Version_1/zeroback(4)_v1.xlsx,New rule: Press 'space' when you see the letter 'x' or 'X'.,m,None,,,,,,,,,0,13,13,13,0,5,5,5,,,,,,,,,,,,,,,,,,,,,,,,,,,,,,,,,,,,,,,,,,,,,,,,,,,,,,,,,,,,,,,,,,,,,1.971,1030.9367356000002,None,None,1,1030.9367356000002,None,,P029,fencog,2,Pre,2022_Mar_09_1143,N-Back (New Version 2021),2021.1.4,120.16992027407926,
,,,,Conditions/Version_1/zeroback(4)_v1.xlsx,New rule: Press 'space' when you see the letter 'x' or 'X'.,C,None,,,,,,,,,0,13,13,13,0,6,6,6,,,,,,,,,,,,,,,,,,,,,,,,,,,,,,,,,,,,,,,,,,,,,,,,,,,,,,,,,,,,,,,,,,,,,1.1278,1034.0711727999733,None,None,1,1034.0711727999733,None,,P029,fencog,2,Pre,2022_Mar_09_1143,N-Back (New Version 2021),2021.1.4,120.16992027407926,
,,,,Conditions/Version_1/zeroback(4)_v1.xlsx,New rule: Press 'space' when you see the letter 'x' or 'X'.,m,None,,,,,,,,,0,13,13,13,0,7,7,7,,,,,,,,,,,,,,,,,,,,,,,,,,,,,,,,,,,,,,,,,,,,,,,,,,,,,,,,,,,,,,,,,,,,,1.3944,1037.4850695999921,None,None,1,1037.4850695999921,None,,P029,fencog,2,Pre,2022_Mar_09_1143,N-Back (New Version 2021),2021.1.4,120.16992027407926,
,,,,Conditions/Version_1/zeroback(4)_v1.xlsx,New rule: Press 'space' when you see the letter 'x' or 'X'.,p,None,,,,,,,,,0,13,13,13,0,8,8,8,,,,,,,,,,,,,,,,,,,,,,,,,,,,,,,,,,,,,,,,,,,,,,,,,,,,,,,,,,,,,,,,,,,,,1.3572,1040.8429065999808,None,None,1,1040.8429065999808,None,,P029,fencog,2,Pre,2022_Mar_09_1143,N-Back (New Version 2021),2021.1.4,120.16992027407926,
,,,,Conditions/Version_1/zeroback(4)_v1.xlsx,New rule: Press 'space' when you see the letter 'x' or 'X'.,X,space,,,,,,,,,0,13,13,13,0,9,9,9,,,,,,,,,,,,,,,,,,,,,,,,,,,,,,,,,,,,,,,,,,,,,,,,,,,,,,,,,,,,,,,,,,,,,1.8408,1044.6835106000071,None,space,1,1044.6835106000071,None,0.5346282999962568,P029,fencog,2,Pre,2022_Mar_09_1143,N-Back (New Version 2021),2021.1.4,120.16992027407926,
,,,,Conditions/Version_1/zeroback(4)_v1.xlsx,New rule: Press 'space' when you see the letter 'x' or 'X'.,,,,,,,,,,,0,13,13,13,,,,,,,,,,,,,,,,,,,,,,,,,,,,,,,,,,,,,,,,,,,,,,,,,,,,,,,,,,,,,,,,,,,,,,,,,,,,,,,,,P029,fencog,2,Pre,2022_Mar_09_1143,N-Back (New Version 2021),2021.1.4,120.16992027407926,
,,,,Conditions/Version_1/oneback(4)_v1.xlsx,New rule: Press 'space' when you see 1-back (i.e. the same letter as the one that appeared 1 letter ago.),w,None,,,,,,,,,0,14,14,14,0,0,0,0,,,,,,,,,,,,,,,,,,,,,,,,,,,,,,,,,,,,,,,,,,,,,,,,,,,,,,,,,,,1046.7173736999976,None,1049.701102299965,None,space,0.5889737000106834,1049.701102299965,None,1046.7173736999976,None,1.5432,1051.8644839999615,None,None,1,1051.8644839999615,None,,P029,fencog,2,Pre,2022_Mar_09_1143,N-Back (New Version 2021),2021.1.4,120.16992027407926,
,,,,Conditions/Version_1/oneback(4)_v1.xlsx,New rule: Press 'space' when you see 1-back (i.e. the same letter as the one that appeared 1 letter ago.),q,None,,,,,,,,,0,14,14,14,0,1,1,1,,,,,,,,,,,,,,,,,,,,,,,,,,,,,,,,,,,,,,,,,,,,,,,,,,,,,,,,,,,,,,,,,,,,,1.7912,1055.6551943999948,None,None,1,1055.6551943999948,None,,P029,fencog,2,Pre,2022_Mar_09_1143,N-Back (New Version 2021),2021.1.4,120.16992027407926,
,,,,Conditions/Version_1/oneback(4)_v1.xlsx,New rule: Press 'space' when you see 1-back (i.e. the same letter as the one that appeared 1 letter ago.),i,None,,,,,,,,,0,14,14,14,0,2,2,2,,,,,,,,,,,,,,,,,,,,,,,,,,,,,,,,,,,,,,,,,,,,,,,,,,,,,,,,,,,,,,,,,,,,,1.5494,1059.2040830000187,None,None,1,1059.2040830000187,None,,P029,fencog,2,Pre,2022_Mar_09_1143,N-Back (New Version 2021),2021.1.4,120.16992027407926,
,,,,Conditions/Version_1/oneback(4)_v1.xlsx,New rule: Press 'space' when you see 1-back (i.e. the same letter as the one that appeared 1 letter ago.),t,None,,,,,,,,,0,14,14,14,0,3,3,3,,,,,,,,,,,,,,,,,,,,,,,,,,,,,,,,,,,,,,,,,,,,,,,,,,,,,,,,,,,,,,,,,,,,,1.4068,1062.616397099977,None,None,1,1062.616397099977,None,,P029,fencog,2,Pre,2022_Mar_09_1143,N-Back (New Version 2021),2021.1.4,120.16992027407926,
,,,,Conditions/Version_1/oneback(4)_v1.xlsx,New rule: Press 'space' when you see 1-back (i.e. the same letter as the one that appeared 1 letter ago.),v,None,,,,,,,,,0,14,14,14,0,4,4,4,,,,,,,,,,,,,,,,,,,,,,,,,,,,,,,,,,,,,,,,,,,,,,,,,,,,,,,,,,,,,,,,,,,,,1.1898,1065.8132968000136,None,None,1,1065.8132968000136,None,,P029,fencog,2,Pre,2022_Mar_09_1143,N-Back (New Version 2021),2021.1.4,120.16992027407926,
,,,,Conditions/Version_1/oneback(4)_v1.xlsx,New rule: Press 'space' when you see 1-back (i.e. the same letter as the one that appeared 1 letter ago.),V,space,,,,,,,,,0,14,14,14,0,5,5,5,,,,,,,,,,,,,,,,,,,,,,,,,,,,,,,,,,,,,,,,,,,,,,,,,,,,,,,,,,,,,,,,,,,,,1.3634,1069.1857753999648,None,space,1,1069.1857753999648,None,0.5203471999848261,P029,fencog,2,Pre,2022_Mar_09_1143,N-Back (New Version 2021),2021.1.4,120.16992027407926,
,,,,Conditions/Version_1/oneback(4)_v1.xlsx,New rule: Press 'space' when you see 1-back (i.e. the same letter as the one that appeared 1 letter ago.),v,space,,,,,,,,,0,14,14,14,0,6,6,6,,,,,,,,,,,,,,,,,,,,,,,,,,,,,,,,,,,,,,,,,,,,,,,,,,,,,,,,,,,,,,,,,,,,,1.4502,1072.6444719000137,None,space,1,1072.6444719000137,None,0.6374387000105344,P029,fencog,2,Pre,2022_Mar_09_1143,N-Back (New Version 2021),2021.1.4,120.16992027407926,
,,,,Conditions/Version_1/oneback(4)_v1.xlsx,New rule: Press 'space' when you see 1-back (i.e. the same letter as the one that appeared 1 letter ago.),p,None,,,,,,,,,0,14,14,14,0,7,7,7,,,,,,,,,,,,,,,,,,,,,,,,,,,,,,,,,,,,,,,,,,,,,,,,,,,,,,,,,,,,,,,,,,,,,1.9772,1076.6378983000177,None,None,1,1076.6378983000177,None,,P029,fencog,2,Pre,2022_Mar_09_1143,N-Back (New Version 2021),2021.1.4,120.16992027407926,
,,,,Conditions/Version_1/oneback(4)_v1.xlsx,New rule: Press 'space' when you see 1-back (i.e. the same letter as the one that appeared 1 letter ago.),w,None,,,,,,,,,0,14,14,14,0,8,8,8,,,,,,,,,,,,,,,,,,,,,,,,,,,,,,,,,,,,,,,,,,,,,,,,,,,,,,,,,,,,,,,,,,,,,1.9152,1080.5573801000137,None,None,1,1080.5573801000137,None,,P029,fencog,2,Pre,2022_Mar_09_1143,N-Back (New Version 2021),2021.1.4,120.16992027407926,
,,,,Conditions/Version_1/oneback(4)_v1.xlsx,New rule: Press 'space' when you see 1-back (i.e. the same letter as the one that appeared 1 letter ago.),W,space,,,,,,,,,0,14,14,14,0,9,9,9,,,,,,,,,,,,,,,,,,,,,,,,,,,,,,,,,,,,,,,,,,,,,,,,,,,,,,,,,,,,,,,,,,,,,1.4626,1084.0301460999763,None,space,1,1084.0301460999763,None,0.692270900006406,P029,fencog,2,Pre,2022_Mar_09_1143,N-Back (New Version 2021),2021.1.4,120.16992027407926,
,,,,Conditions/Version_1/oneback(4)_v1.xlsx,New rule: Press 'space' when you see 1-back (i.e. the same letter as the one that appeared 1 letter ago.),,,,,,,,,,,0,14,14,14,,,,,,,,,,,,,,,,,,,,,,,,,,,,,,,,,,,,,,,,,,,,,,,,,,,,,,,,,,,,,,,,,,,,,,,,,,,,,,,,,P029,fencog,2,Pre,2022_Mar_09_1143,N-Back (New Version 2021),2021.1.4,120.16992027407926,
,,,,Conditions/Version_1/threeback(4)_v1.xlsx,New rule: Press 'space' when you see 3-back (i.e. the same letter as the one that appeared 3 letters ago.),A,None,,,,,,,,,0,15,15,15,0,0,0,0,,,,,,,,,,,,,,,,,,,,,,,,,,,,,,,,,,,,,,,,,,,,,,,,,,,,,,,,,,,1086.052936299995,None,1089.0396815999993,None,space,7.634313899965491,1089.0396815999993,None,1086.052936299995,None,1.9896,1098.695684699982,None,None,1,1098.695684699982,None,,P029,fencog,2,Pre,2022_Mar_09_1143,N-Back (New Version 2021),2021.1.4,120.16992027407926,
,,,,Conditions/Version_1/threeback(4)_v1.xlsx,New rule: Press 'space' when you see 3-back (i.e. the same letter as the one that appeared 3 letters ago.),n,None,,,,,,,,,0,15,15,15,0,1,1,1,,,,,,,,,,,,,,,,,,,,,,,,,,,,,,,,,,,,,,,,,,,,,,,,,,,,,,,,,,,,,,,,,,,,,1.5804,1102.2878855000017,None,None,1,1102.2878855000017,None,,P029,fencog,2,Pre,2022_Mar_09_1143,N-Back (New Version 2021),2021.1.4,120.16992027407926,
,,,,Conditions/Version_1/threeback(4)_v1.xlsx,New rule: Press 'space' when you see 3-back (i.e. the same letter as the one that appeared 3 letters ago.),g,None,,,,,,,,,0,15,15,15,0,2,2,2,,,,,,,,,,,,,,,,,,,,,,,,,,,,,,,,,,,,,,,,,,,,,,,,,,,,,,,,,,,,,,,,,,,,,1.9524,1106.2485833999817,None,None,1,1106.2485833999817,None,,P029,fencog,2,Pre,2022_Mar_09_1143,N-Back (New Version 2021),2021.1.4,120.16992027407926,
,,,,Conditions/Version_1/threeback(4)_v1.xlsx,New rule: Press 'space' when you see 3-back (i.e. the same letter as the one that appeared 3 letters ago.),A,space,,,,,,,,,0,15,15,15,0,3,3,3,,,,,,,,,,,,,,,,,,,,,,,,,,,,,,,,,,,,,,,,,,,,,,,,,,,,,,,,,,,,,,,,,,,,,1.2022,1109.4559673999902,None,space,1,1109.4559673999902,None,0.5618976000114344,P029,fencog,2,Pre,2022_Mar_09_1143,N-Back (New Version 2021),2021.1.4,120.16992027407926,
,,,,Conditions/Version_1/threeback(4)_v1.xlsx,New rule: Press 'space' when you see 3-back (i.e. the same letter as the one that appeared 3 letters ago.),p,None,,,,,,,,,0,15,15,15,0,4,4,4,,,,,,,,,,,,,,,,,,,,,,,,,,,,,,,,,,,,,,,,,,,,,,,,,,,,,,,,,,,,,,,,,,,,,1.9152,1113.383674199984,None,None,1,1113.383674199984,None,,P029,fencog,2,Pre,2022_Mar_09_1143,N-Back (New Version 2021),2021.1.4,120.16992027407926,
,,,,Conditions/Version_1/threeback(4)_v1.xlsx,New rule: Press 'space' when you see 3-back (i.e. the same letter as the one that appeared 3 letters ago.),O,None,,,,,,,,,0,15,15,15,0,5,5,5,,,,,,,,,,,,,,,,,,,,,,,,,,,,,,,,,,,,,,,,,,,,,,,,,,,,,,,,,,,,,,,,,,,,,1.3014,1116.6965891,None,None,1,1116.6965891,None,,P029,fencog,2,Pre,2022_Mar_09_1143,N-Back (New Version 2021),2021.1.4,120.16992027407926,
,,,,Conditions/Version_1/threeback(4)_v1.xlsx,New rule: Press 'space' when you see 3-back (i.e. the same letter as the one that appeared 3 letters ago.),a,space,,,,,,,,,0,15,15,15,0,6,6,6,,,,,,,,,,,,,,,,,,,,,,,,,,,,,,,,,,,,,,,,,,,,,,,,,,,,,,,,,,,,,,,,,,,,,1.8656,1120.5694816000178,None,space,1,1120.5694816000178,None,0.5766296999645419,P029,fencog,2,Pre,2022_Mar_09_1143,N-Back (New Version 2021),2021.1.4,120.16992027407926,
,,,,Conditions/Version_1/threeback(4)_v1.xlsx,New rule: Press 'space' when you see 3-back (i.e. the same letter as the one that appeared 3 letters ago.),p,space,,,,,,,,,0,15,15,15,0,7,7,7,,,,,,,,,,,,,,,,,,,,,,,,,,,,,,,,,,,,,,,,,,,,,,,,,,,,,,,,,,,,,,,,,,,,,1.7602,1124.335162399977,None,space,1,1124.335162399977,None,0.4828771000029519,P029,fencog,2,Pre,2022_Mar_09_1143,N-Back (New Version 2021),2021.1.4,120.16992027407926,
,,,,Conditions/Version_1/threeback(4)_v1.xlsx,New rule: Press 'space' when you see 3-back (i.e. the same letter as the one that appeared 3 letters ago.),x,None,,,,,,,,,0,15,15,15,0,8,8,8,,,,,,,,,,,,,,,,,,,,,,,,,,,,,,,,,,,,,,,,,,,,,,,,,,,,,,,,,,,,,,,,,,,,,1.9276,1128.2709366999916,None,None,1,1128.2709366999916,None,,P029,fencog,2,Pre,2022_Mar_09_1143,N-Back (New Version 2021),2021.1.4,120.16992027407926,
,,,,Conditions/Version_1/threeback(4)_v1.xlsx,New rule: Press 'space' when you see 3-back (i.e. the same letter as the one that appeared 3 letters ago.),X,None,,,,,,,,,0,15,15,15,0,9,9,9,,,,,,,,,,,,,,,,,,,,,,,,,,,,,,,,,,,,,,,,,,,,,,,,,,,,,,,,,,,,,,,,,,,,,1.661,1131.941187999968,None,None,1,1131.941187999968,None,,P029,fencog,2,Pre,2022_Mar_09_1143,N-Back (New Version 2021),2021.1.4,120.16992027407926,
,,,,Conditions/Version_1/threeback(4)_v1.xlsx,New rule: Press 'space' when you see 3-back (i.e. the same letter as the one that appeared 3 letters ago.),,,,,,,,,,,0,15,15,15,,,,,,,,,,,,,,,,,,,,,,,,,,,,,,,,,,,,,,,,,,,,,,,,,,,,,,,,,,,,,,,,,,,,,,,,,,,,,,,,,P029,fencog,2,Pre,2022_Mar_09_1143,N-Back (New Version 2021),2021.1.4,120.16992027407926,
