CondFileP,InstructionsP,LettersDisplayedP,CorrectnessP,CondFile,Instructions,LettersDisplayed,Correctness,practicetrials.thisRepN,practicetrials.thisTrialN,practicetrials.thisN,practicetrials.thisIndex,InnerLoopPractice.thisRepN,InnerLoopPractice.thisTrialN,InnerLoopPractice.thisN,InnerLoopPractice.thisIndex,trials.thisRepN,trials.thisTrialN,trials.thisN,trials.thisIndex,InnerLoop.thisRepN,InnerLoop.thisTrialN,InnerLoop.thisN,InnerLoop.thisIndex,TaskVersionText.started,TaskVersionText.stopped,InstrKey1.keys,InstrKey1.rt,InstrKey1.started,InstrKey1.stopped,text.started,text.stopped,key_resp_4.keys,key_resp_4.rt,key_resp_4.started,key_resp_4.stopped,text_2.started,text_2.stopped,key_resp_3.keys,key_resp_3.rt,key_resp_3.started,key_resp_3.stopped,text_3.started,text_3.stopped,key_resp_2.keys,key_resp_2.rt,key_resp_2.started,key_resp_2.stopped,PractIn1.started,PractIn1.stopped,PractIn2.started,PractIn2.stopped,PractInstructionPass.keys,PractInstructionPass.rt,PractInstructionPass.started,PractInstructionPass.stopped,PractBlock1.started,PractBlock1.stopped,ISIjitterPractice,ISI_Pract_Fixation.started,ISI_Pract_Fixation.stopped,N_backP.started,N_backP.stopped,KeyPractice.keys,KeyPractice.corr,KeyPractice.started,KeyPractice.stopped,text_4.started,text_4.stopped,KeyPractice.rt,TransitionText.started,TransitionText.stopped,key_resp_6.keys,key_resp_6.rt,key_resp_6.started,key_resp_6.stopped,text_5.started,text_5.stopped,key_resp_5.keys,key_resp_5.rt,key_resp_5.started,key_resp_5.stopped,MainInt1.started,MainInt1.stopped,MainInt2.started,MainInt2.stopped,InstructionPass.keys,InstructionPass.rt,InstructionPass.started,InstructionPass.stopped,Blocks1.started,Blocks1.stopped,ISIjitter,N_backD.started,N_backD.stopped,key_resp.keys,key_resp.corr,key_resp.started,key_resp.stopped,key_resp.rt,participant,Study Name,Task Version (required to run),PRE/POST,date,expName,psychopyVersion,frameRate
,,,,,,,,,,,,,,,,,,,,,,,,23.2241499,None,space,46.1005095,23.7165545,None,,,,,,,,,,,,,,,,,,,,,,,,,,,,,,,,,,,,,,,,,,,,,,,,,,,,,,,,,,,,,,,,,,,,,,,P029,FENCOG,1,Post,2022_Mar_17_1204,N-Back (New Version 2021),2021.1.4,120.128201
,,,,,,,,,,,,,,,,,,,,,,,,,,,,,,69.8476577,None,space,4.7121343,70.3451341,None,,,,,,,,,,,,,,,,,,,,,,,,,,,,,,,,,,,,,,,,,,,,,,,,,,,,,,,,,,,,,,,,,P029,FENCOG,1,Post,2022_Mar_17_1204,N-Back (New Version 2021),2021.1.4,120.128201
,,,,,,,,,,,,,,,,,,,,,,,,,,,,,,,,,,,,75.0973649,None,space,2.0236415,75.5936187,None,,,,,,,,,,,,,,,,,,,,,,,,,,,,,,,,,,,,,,,,,,,,,,,,,,,,,,,,,,,P029,FENCOG,1,Post,2022_Mar_17_1204,N-Back (New Version 2021),2021.1.4,120.128201
,,,,,,,,,,,,,,,,,,,,,,,,,,,,,,,,,,,,,,,,,,77.6446331,None,space,1.9068734,78.1345586,None,,,,,,,,,,,,,,,,,,,,,,,,,,,,,,,,,,,,,,,,,,,,,,,,,,,,,P029,FENCOG,1,Post,2022_Mar_17_1204,N-Back (New Version 2021),2021.1.4,120.128201
Conditions/Version_1Pr/zeroback(1)_v1.xlsx,Rule: Press 'space' when you see the letter 'x' or 'X'.,Z,None,,,,,0,0,0,0,0,0,0,0,,,,,,,,,,,,,,,,,,,,,,,,,,,,,,,,,81.4348923,None,84.4169557,None,space,0.7362291,84.4169557,None,81.4348923,None,2.015,85.1838041,None,87.2097455,None,None,1,87.2097455,None,89.2164609,None,,,,,,,,,,,,,,,,,,,,,,,,,,,,,,,,P029,FENCOG,1,Post,2022_Mar_17_1204,N-Back (New Version 2021),2021.1.4,120.128201
Conditions/Version_1Pr/zeroback(1)_v1.xlsx,Rule: Press 'space' when you see the letter 'x' or 'X'.,r,None,,,,,0,0,0,0,0,1,1,1,,,,,,,,,,,,,,,,,,,,,,,,,,,,,,,,,,,,,,,,,,,1.79,90.7134141,None,92.5099647,None,None,1,92.5099647,None,94.5122317,None,,,,,,,,,,,,,,,,,,,,,,,,,,,,,,,,P029,FENCOG,1,Post,2022_Mar_17_1204,N-Back (New Version 2021),2021.1.4,120.128201
Conditions/Version_1Pr/zeroback(1)_v1.xlsx,Rule: Press 'space' when you see the letter 'x' or 'X'.,X,space,,,,,0,0,0,0,0,2,2,2,,,,,,,,,,,,,,,,,,,,,,,,,,,,,,,,,,,,,,,,,,,1.74,96.0118642,None,97.7568108,None,space,1,97.7568108,None,98.0882827,None,0.3163687,,,,,,,,,,,,,,,,,,,,,,,,,,,,,,,P029,FENCOG,1,Post,2022_Mar_17_1204,N-Back (New Version 2021),2021.1.4,120.128201
Conditions/Version_1Pr/zeroback(1)_v1.xlsx,Rule: Press 'space' when you see the letter 'x' or 'X'.,p,None,,,,,0,0,0,0,0,3,3,3,,,,,,,,,,,,,,,,,,,,,,,,,,,,,,,,,,,,,,,,,,,1.54,99.5940531,None,101.1380868,None,None,1,101.1380868,None,103.143054,None,,,,,,,,,,,,,,,,,,,,,,,,,,,,,,,,P029,FENCOG,1,Post,2022_Mar_17_1204,N-Back (New Version 2021),2021.1.4,120.128201
Conditions/Version_1Pr/zeroback(1)_v1.xlsx,Rule: Press 'space' when you see the letter 'x' or 'X'.,w,None,,,,,0,0,0,0,0,4,4,4,,,,,,,,,,,,,,,,,,,,,,,,,,,,,,,,,,,,,,,,,,,1.44,104.642578,None,106.0855618,None,None,1,106.0855618,None,108.0915717,None,,,,,,,,,,,,,,,,,,,,,,,,,,,,,,,,P029,FENCOG,1,Post,2022_Mar_17_1204,N-Back (New Version 2021),2021.1.4,120.128201
Conditions/Version_1Pr/zeroback(1)_v1.xlsx,Rule: Press 'space' when you see the letter 'x' or 'X'.,e,None,,,,,0,0,0,0,0,5,5,5,,,,,,,,,,,,,,,,,,,,,,,,,,,,,,,,,,,,,,,,,,,1.215,109.5911132,None,110.8103011,None,None,1,110.8103011,None,112.8152481,None,,,,,,,,,,,,,,,,,,,,,,,,,,,,,,,,P029,FENCOG,1,Post,2022_Mar_17_1204,N-Back (New Version 2021),2021.1.4,120.128201
Conditions/Version_1Pr/zeroback(1)_v1.xlsx,Rule: Press 'space' when you see the letter 'x' or 'X'.,X,space,,,,,0,0,0,0,0,6,6,6,,,,,,,,,,,,,,,,,,,,,,,,,,,,,,,,,,,,,,,,,,,1.615,114.3146214,None,115.9317772,None,space,1,115.9317772,None,116.291251,None,0.3495607,,,,,,,,,,,,,,,,,,,,,,,,,,,,,,,P029,FENCOG,1,Post,2022_Mar_17_1204,N-Back (New Version 2021),2021.1.4,120.128201
Conditions/Version_1Pr/zeroback(1)_v1.xlsx,Rule: Press 'space' when you see the letter 'x' or 'X'.,x,space,,,,,0,0,0,0,0,7,7,7,,,,,,,,,,,,,,,,,,,,,,,,,,,,,,,,,,,,,,,,,,,1.315,117.7967937,None,119.1165233,None,space,1,119.1165233,None,119.7386427,None,0.612942,,,,,,,,,,,,,,,,,,,,,,,,,,,,,,,P029,FENCOG,1,Post,2022_Mar_17_1204,N-Back (New Version 2021),2021.1.4,120.128201
Conditions/Version_1Pr/zeroback(1)_v1.xlsx,Rule: Press 'space' when you see the letter 'x' or 'X'.,p,None,,,,,0,0,0,0,0,8,8,8,,,,,,,,,,,,,,,,,,,,,,,,,,,,,,,,,,,,,,,,,,,1.69,121.2376566,None,122.9286274,None,None,1,122.9286274,None,124.9282023,None,,,,,,,,,,,,,,,,,,,,,,,,,,,,,,,,P029,FENCOG,1,Post,2022_Mar_17_1204,N-Back (New Version 2021),2021.1.4,120.128201
Conditions/Version_1Pr/zeroback(1)_v1.xlsx,Rule: Press 'space' when you see the letter 'x' or 'X'.,r,None,,,,,0,0,0,0,0,9,9,9,,,,,,,,,,,,,,,,,,,,,,,,,,,,,,,,,,,,,,,,,,,1.04,126.4278583,None,127.4698326,None,None,1,127.4698326,None,129.4769986,None,,,,,,,,,,,,,,,,,,,,,,,,,,,,,,,,P029,FENCOG,1,Post,2022_Mar_17_1204,N-Back (New Version 2021),2021.1.4,120.128201
Conditions/Version_1Pr/zeroback(1)_v1.xlsx,Rule: Press 'space' when you see the letter 'x' or 'X'.,,,,,,,0,0,0,0,,,,,,,,,,,,,,,,,,,,,,,,,,,,,,,,,,,,,,,,,,,,,,,,,,,,,,,,,,,,,,,,,,,,,,,,,,,,,,,,,,,,,,,,,P029,FENCOG,1,Post,2022_Mar_17_1204,N-Back (New Version 2021),2021.1.4,120.128201
Conditions/Version_1Pr/oneback(1)_v1.xlsx,New rule: Press 'space' when you see 1-back (i.e. the same letter as the one that appeared 1 letter ago.),a,None,,,,,0,1,1,1,0,0,0,0,,,,,,,,,,,,,,,,,,,,,,,,,,,,,,,,,131.0011959,None,133.9857982,None,space,0.511243,133.9857982,None,131.0011959,None,1.165,134.517,None,135.6854642,None,None,1,135.6854642,None,137.6911603,None,,,,,,,,,,,,,,,,,,,,,,,,,,,,,,,,P029,FENCOG,1,Post,2022_Mar_17_1204,N-Back (New Version 2021),2021.1.4,120.128201
Conditions/Version_1Pr/oneback(1)_v1.xlsx,New rule: Press 'space' when you see 1-back (i.e. the same letter as the one that appeared 1 letter ago.),x,None,,,,,0,1,1,1,0,1,1,1,,,,,,,,,,,,,,,,,,,,,,,,,,,,,,,,,,,,,,,,,,,1.215,139.190782,None,140.4078395,None,None,1,140.4078395,None,142.4147338,None,,,,,,,,,,,,,,,,,,,,,,,,,,,,,,,,P029,FENCOG,1,Post,2022_Mar_17_1204,N-Back (New Version 2021),2021.1.4,120.128201
Conditions/Version_1Pr/oneback(1)_v1.xlsx,New rule: Press 'space' when you see 1-back (i.e. the same letter as the one that appeared 1 letter ago.),g,None,,,,,0,1,1,1,0,2,2,2,,,,,,,,,,,,,,,,,,,,,,,,,,,,,,,,,,,,,,,,,,,1.765,143.9143549,None,145.68199,None,None,1,145.68199,None,147.688149,None,,,,,,,,,,,,,,,,,,,,,,,,,,,,,,,,P029,FENCOG,1,Post,2022_Mar_17_1204,N-Back (New Version 2021),2021.1.4,120.128201
Conditions/Version_1Pr/oneback(1)_v1.xlsx,New rule: Press 'space' when you see 1-back (i.e. the same letter as the one that appeared 1 letter ago.),G,space,,,,,0,1,1,1,0,3,3,3,,,,,,,,,,,,,,,,,,,,,,,,,,,,,,,,,,,,,,,,,,,1.815,149.1877884,None,151.0042646,None,space,1,151.0042646,None,151.4387256,None,0.4208795,,,,,,,,,,,,,,,,,,,,,,,,,,,,,,,P029,FENCOG,1,Post,2022_Mar_17_1204,N-Back (New Version 2021),2021.1.4,120.128201
Conditions/Version_1Pr/oneback(1)_v1.xlsx,New rule: Press 'space' when you see 1-back (i.e. the same letter as the one that appeared 1 letter ago.),u,None,,,,,0,1,1,1,0,4,4,4,,,,,,,,,,,,,,,,,,,,,,,,,,,,,,,,,,,,,,,,,,,1.665,152.9449767,None,154.613516,None,None,1,154.613516,None,156.6185226,None,,,,,,,,,,,,,,,,,,,,,,,,,,,,,,,,P029,FENCOG,1,Post,2022_Mar_17_1204,N-Back (New Version 2021),2021.1.4,120.128201
Conditions/Version_1Pr/oneback(1)_v1.xlsx,New rule: Press 'space' when you see 1-back (i.e. the same letter as the one that appeared 1 letter ago.),y,None,,,,,0,1,1,1,0,5,5,5,,,,,,,,,,,,,,,,,,,,,,,,,,,,,,,,,,,,,,,,,,,1.29,158.1180304,None,159.4161346,None,None,1,159.4161346,None,161.4175849,None,,,,,,,,,,,,,,,,,,,,,,,,,,,,,,,,P029,FENCOG,1,Post,2022_Mar_17_1204,N-Back (New Version 2021),2021.1.4,120.128201
Conditions/Version_1Pr/oneback(1)_v1.xlsx,New rule: Press 'space' when you see 1-back (i.e. the same letter as the one that appeared 1 letter ago.),y,space,,,,,0,1,1,1,0,6,6,6,,,,,,,,,,,,,,,,,,,,,,,,,,,,,,,,,,,,,,,,,,,1.265,162.9168697,None,164.1831486,None,space,1,164.1831486,None,164.6931251,None,0.4980926,,,,,,,,,,,,,,,,,,,,,,,,,,,,,,,P029,FENCOG,1,Post,2022_Mar_17_1204,N-Back (New Version 2021),2021.1.4,120.128201
Conditions/Version_1Pr/oneback(1)_v1.xlsx,New rule: Press 'space' when you see 1-back (i.e. the same letter as the one that appeared 1 letter ago.),k,None,,,,,0,1,1,1,0,7,7,7,,,,,,,,,,,,,,,,,,,,,,,,,,,,,,,,,,,,,,,,,,,1.74,166.1994338,None,167.9419903,None,None,1,167.9419903,None,169.9480455,None,,,,,,,,,,,,,,,,,,,,,,,,,,,,,,,,P029,FENCOG,1,Post,2022_Mar_17_1204,N-Back (New Version 2021),2021.1.4,120.128201
Conditions/Version_1Pr/oneback(1)_v1.xlsx,New rule: Press 'space' when you see 1-back (i.e. the same letter as the one that appeared 1 letter ago.),c,None,,,,,0,1,1,1,0,8,8,8,,,,,,,,,,,,,,,,,,,,,,,,,,,,,,,,,,,,,,,,,,,1.94,171.4493442,None,173.3975005,None,None,1,173.3975005,None,175.396833,None,,,,,,,,,,,,,,,,,,,,,,,,,,,,,,,,P029,FENCOG,1,Post,2022_Mar_17_1204,N-Back (New Version 2021),2021.1.4,120.128201
Conditions/Version_1Pr/oneback(1)_v1.xlsx,New rule: Press 'space' when you see 1-back (i.e. the same letter as the one that appeared 1 letter ago.),r,None,,,,,0,1,1,1,0,9,9,9,,,,,,,,,,,,,,,,,,,,,,,,,,,,,,,,,,,,,,,,,,,1.115,176.8962491,None,178.0137075,None,None,1,178.0137075,None,180.0204616,None,,,,,,,,,,,,,,,,,,,,,,,,,,,,,,,,P029,FENCOG,1,Post,2022_Mar_17_1204,N-Back (New Version 2021),2021.1.4,120.128201
Conditions/Version_1Pr/oneback(1)_v1.xlsx,New rule: Press 'space' when you see 1-back (i.e. the same letter as the one that appeared 1 letter ago.),,,,,,,0,1,1,1,,,,,,,,,,,,,,,,,,,,,,,,,,,,,,,,,,,,,,,,,,,,,,,,,,,,,,,,,,,,,,,,,,,,,,,,,,,,,,,,,,,,,,,,,P029,FENCOG,1,Post,2022_Mar_17_1204,N-Back (New Version 2021),2021.1.4,120.128201
Conditions/Version_1Pr/twoback(1)_v1.xlsx,New rule: Press 'space' when you see 2-back (i.e. the same letter as the one that appeared 2 letters ago.),E,None,,,,,0,2,2,2,0,0,0,0,,,,,,,,,,,,,,,,,,,,,,,,,,,,,,,,,181.5462259,None,184.5294832,None,space,0.3998507,184.5294832,None,181.5462259,None,1.49,184.9512407,None,186.4449118,None,None,1,186.4449118,None,188.4512912,None,,,,,,,,,,,,,,,,,,,,,,,,,,,,,,,,P029,FENCOG,1,Post,2022_Mar_17_1204,N-Back (New Version 2021),2021.1.4,120.128201
Conditions/Version_1Pr/twoback(1)_v1.xlsx,New rule: Press 'space' when you see 2-back (i.e. the same letter as the one that appeared 2 letters ago.),p,None,,,,,0,2,2,2,0,1,1,1,,,,,,,,,,,,,,,,,,,,,,,,,,,,,,,,,,,,,,,,,,,1.865,189.9507057,None,191.8209831,None,None,1,191.8209831,None,193.8254855,None,,,,,,,,,,,,,,,,,,,,,,,,,,,,,,,,P029,FENCOG,1,Post,2022_Mar_17_1204,N-Back (New Version 2021),2021.1.4,120.128201
Conditions/Version_1Pr/twoback(1)_v1.xlsx,New rule: Press 'space' when you see 2-back (i.e. the same letter as the one that appeared 2 letters ago.),e,space,,,,,0,2,2,2,0,2,2,2,,,,,,,,,,,,,,,,,,,,,,,,,,,,,,,,,,,,,,,,,,,1.94,195.3249027,None,197.2660054,None,space,1,197.2660054,None,197.9583227,None,0.6792214,,,,,,,,,,,,,,,,,,,,,,,,,,,,,,,P029,FENCOG,1,Post,2022_Mar_17_1204,N-Back (New Version 2021),2021.1.4,120.128201
Conditions/Version_1Pr/twoback(1)_v1.xlsx,New rule: Press 'space' when you see 2-back (i.e. the same letter as the one that appeared 2 letters ago.),s,None,,,,,0,2,2,2,0,3,3,3,,,,,,,,,,,,,,,,,,,,,,,,,,,,,,,,,,,,,,,,,,,1.465,199.4646201,None,200.931701,None,None,1,200.931701,None,202.9386642,None,,,,,,,,,,,,,,,,,,,,,,,,,,,,,,,,P029,FENCOG,1,Post,2022_Mar_17_1204,N-Back (New Version 2021),2021.1.4,120.128201
Conditions/Version_1Pr/twoback(1)_v1.xlsx,New rule: Press 'space' when you see 2-back (i.e. the same letter as the one that appeared 2 letters ago.),S,None,,,,,0,2,2,2,0,4,4,4,,,,,,,,,,,,,,,,,,,,,,,,,,,,,,,,,,,,,,,,,,,1.215,204.4381447,None,205.6589295,None,None,1,205.6589295,None,207.6600994,None,,,,,,,,,,,,,,,,,,,,,,,,,,,,,,,,P029,FENCOG,1,Post,2022_Mar_17_1204,N-Back (New Version 2021),2021.1.4,120.128201
Conditions/Version_1Pr/twoback(1)_v1.xlsx,New rule: Press 'space' when you see 2-back (i.e. the same letter as the one that appeared 2 letters ago.),s,space,,,,,0,2,2,2,0,5,5,5,,,,,,,,,,,,,,,,,,,,,,,,,,,,,,,,,,,,,,,,,,,1.44,209.1617498,None,210.6041024,None,space,1,210.6041024,None,211.0210501,None,0.4051009,,,,,,,,,,,,,,,,,,,,,,,,,,,,,,,P029,FENCOG,1,Post,2022_Mar_17_1204,N-Back (New Version 2021),2021.1.4,120.128201
Conditions/Version_1Pr/twoback(1)_v1.xlsx,New rule: Press 'space' when you see 2-back (i.e. the same letter as the one that appeared 2 letters ago.),P,None,,,,,0,2,2,2,0,6,6,6,,,,,,,,,,,,,,,,,,,,,,,,,,,,,,,,,,,,,,,,,,,1.765,212.527424,None,214.296244,None,None,1,214.296244,None,216.3013034,None,,,,,,,,,,,,,,,,,,,,,,,,,,,,,,,,P029,FENCOG,1,Post,2022_Mar_17_1204,N-Back (New Version 2021),2021.1.4,120.128201
Conditions/Version_1Pr/twoback(1)_v1.xlsx,New rule: Press 'space' when you see 2-back (i.e. the same letter as the one that appeared 2 letters ago.),C,None,,,,,0,2,2,2,0,7,7,7,,,,,,,,,,,,,,,,,,,,,,,,,,,,,,,,,,,,,,,,,,,1.74,217.8008258,None,219.545977,None,None,1,219.545977,None,221.5497229,None,,,,,,,,,,,,,,,,,,,,,,,,,,,,,,,,P029,FENCOG,1,Post,2022_Mar_17_1204,N-Back (New Version 2021),2021.1.4,120.128201
Conditions/Version_1Pr/twoback(1)_v1.xlsx,New rule: Press 'space' when you see 2-back (i.e. the same letter as the one that appeared 2 letters ago.),x,None,,,,,0,2,2,2,0,8,8,8,,,,,,,,,,,,,,,,,,,,,,,,,,,,,,,,,,,,,,,,,,,1.39,223.0493515,None,224.44047,None,None,1,224.44047,None,226.4398315,None,,,,,,,,,,,,,,,,,,,,,,,,,,,,,,,,P029,FENCOG,1,Post,2022_Mar_17_1204,N-Back (New Version 2021),2021.1.4,120.128201
Conditions/Version_1Pr/twoback(1)_v1.xlsx,New rule: Press 'space' when you see 2-back (i.e. the same letter as the one that appeared 2 letters ago.),Z,None,,,,,0,2,2,2,0,9,9,9,,,,,,,,,,,,,,,,,,,,,,,,,,,,,,,,,,,,,,,,,,,1.79,227.9395053,None,229.7314636,None,None,1,229.7314636,None,231.7384311,None,,,,,,,,,,,,,,,,,,,,,,,,,,,,,,,,P029,FENCOG,1,Post,2022_Mar_17_1204,N-Back (New Version 2021),2021.1.4,120.128201
Conditions/Version_1Pr/twoback(1)_v1.xlsx,New rule: Press 'space' when you see 2-back (i.e. the same letter as the one that appeared 2 letters ago.),,,,,,,0,2,2,2,,,,,,,,,,,,,,,,,,,,,,,,,,,,,,,,,,,,,,,,,,,,,,,,,,,,,,,,,,,,,,,,,,,,,,,,,,,,,,,,,,,,,,,,,P029,FENCOG,1,Post,2022_Mar_17_1204,N-Back (New Version 2021),2021.1.4,120.128201
Conditions/Version_1Pr/threeback(1)_v1.xlsx,New rule: Press 'space' when you see 3-back (i.e. the same letter as the one that appeared 3 letters ago.),r,None,,,,,0,3,3,3,0,0,0,0,,,,,,,,,,,,,,,,,,,,,,,,,,,,,,,,,233.2616816,None,236.2519663,None,space,11.9733612,236.2519663,None,233.2616816,None,1.115,248.2533544,None,249.3765515,None,None,1,249.3765515,None,251.3799392,None,,,,,,,,,,,,,,,,,,,,,,,,,,,,,,,,P029,FENCOG,1,Post,2022_Mar_17_1204,N-Back (New Version 2021),2021.1.4,120.128201
Conditions/Version_1Pr/threeback(1)_v1.xlsx,New rule: Press 'space' when you see 3-back (i.e. the same letter as the one that appeared 3 letters ago.),a,None,,,,,0,3,3,3,0,1,1,1,,,,,,,,,,,,,,,,,,,,,,,,,,,,,,,,,,,,,,,,,,,1.39,252.8820737,None,254.2730512,None,None,1,254.2730512,None,256.272853,None,,,,,,,,,,,,,,,,,,,,,,,,,,,,,,,,P029,FENCOG,1,Post,2022_Mar_17_1204,N-Back (New Version 2021),2021.1.4,120.128201
Conditions/Version_1Pr/threeback(1)_v1.xlsx,New rule: Press 'space' when you see 3-back (i.e. the same letter as the one that appeared 3 letters ago.),t,None,,,,,0,3,3,3,0,2,2,2,,,,,,,,,,,,,,,,,,,,,,,,,,,,,,,,,,,,,,,,,,,1.24,257.7723919,None,259.0180801,None,None,1,259.0180801,None,261.0215135,None,,,,,,,,,,,,,,,,,,,,,,,,,,,,,,,,P029,FENCOG,1,Post,2022_Mar_17_1204,N-Back (New Version 2021),2021.1.4,120.128201
Conditions/Version_1Pr/threeback(1)_v1.xlsx,New rule: Press 'space' when you see 3-back (i.e. the same letter as the one that appeared 3 letters ago.),r,space,,,,,0,3,3,3,0,3,3,3,,,,,,,,,,,,,,,,,,,,,,,,,,,,,,,,,,,,,,,,,,,1.165,262.5210259,None,263.6873554,None,space,1,263.6873554,None,264.2305086,None,0.5298004,,,,,,,,,,,,,,,,,,,,,,,,,,,,,,,P029,FENCOG,1,Post,2022_Mar_17_1204,N-Back (New Version 2021),2021.1.4,120.128201
Conditions/Version_1Pr/threeback(1)_v1.xlsx,New rule: Press 'space' when you see 3-back (i.e. the same letter as the one that appeared 3 letters ago.),a,None,,,,,0,3,3,3,0,4,4,4,,,,,,,,,,,,,,,,,,,,,,,,,,,,,,,,,,,,,,,,,,,1.615,265.7366976,None,267.3526946,None,space,0,267.3526946,None,267.7663228,None,0.4005506,,,,,,,,,,,,,,,,,,,,,,,,,,,,,,,P029,FENCOG,1,Post,2022_Mar_17_1204,N-Back (New Version 2021),2021.1.4,120.128201
Conditions/Version_1Pr/threeback(1)_v1.xlsx,New rule: Press 'space' when you see 3-back (i.e. the same letter as the one that appeared 3 letters ago.),Y,None,,,,,0,3,3,3,0,5,5,5,,,,,,,,,,,,,,,,,,,,,,,,,,,,,,,,,,,,,,,,,,,1.265,269.2687741,None,270.5374684,None,None,1,270.5374684,None,272.5430888,None,,,,,,,,,,,,,,,,,,,,,,,,,,,,,,,,P029,FENCOG,1,Post,2022_Mar_17_1204,N-Back (New Version 2021),2021.1.4,120.128201
Conditions/Version_1Pr/threeback(1)_v1.xlsx,New rule: Press 'space' when you see 3-back (i.e. the same letter as the one that appeared 3 letters ago.),q,None,,,,,0,3,3,3,0,6,6,6,,,,,,,,,,,,,,,,,,,,,,,,,,,,,,,,,,,,,,,,,,,1.665,274.0425403,None,275.7094191,None,None,1,275.7094191,None,277.7165377,None,,,,,,,,,,,,,,,,,,,,,,,,,,,,,,,,P029,FENCOG,1,Post,2022_Mar_17_1204,N-Back (New Version 2021),2021.1.4,120.128201
Conditions/Version_1Pr/threeback(1)_v1.xlsx,New rule: Press 'space' when you see 3-back (i.e. the same letter as the one that appeared 3 letters ago.),A,space,,,,,0,3,3,3,0,7,7,7,,,,,,,,,,,,,,,,,,,,,,,,,,,,,,,,,,,,,,,,,,,1.99,279.2161523,None,281.2072139,None,None,0,281.2072139,None,283.2104454,None,,,,,,,,,,,,,,,,,,,,,,,,,,,,,,,,P029,FENCOG,1,Post,2022_Mar_17_1204,N-Back (New Version 2021),2021.1.4,120.128201
Conditions/Version_1Pr/threeback(1)_v1.xlsx,New rule: Press 'space' when you see 3-back (i.e. the same letter as the one that appeared 3 letters ago.),y,None,,,,,0,3,3,3,0,8,8,8,,,,,,,,,,,,,,,,,,,,,,,,,,,,,,,,,,,,,,,,,,,1.69,284.7143838,None,286.4054298,None,space,0,286.4054298,None,287.4282372,None,0.995955,,,,,,,,,,,,,,,,,,,,,,,,,,,,,,,P029,FENCOG,1,Post,2022_Mar_17_1204,N-Back (New Version 2021),2021.1.4,120.128201
Conditions/Version_1Pr/threeback(1)_v1.xlsx,New rule: Press 'space' when you see 3-back (i.e. the same letter as the one that appeared 3 letters ago.),r,None,,,,,0,3,3,3,0,9,9,9,,,,,,,,,,,,,,,,,,,,,,,,,,,,,,,,,,,,,,,,,,,1.815,288.9298734,None,290.747456,None,None,1,290.747456,None,292.754745,None,,,,,,,,,,,,,,,,,,,,,,,,,,,,,,,,P029,FENCOG,1,Post,2022_Mar_17_1204,N-Back (New Version 2021),2021.1.4,120.128201
Conditions/Version_1Pr/threeback(1)_v1.xlsx,New rule: Press 'space' when you see 3-back (i.e. the same letter as the one that appeared 3 letters ago.),,,,,,,0,3,3,3,,,,,,,,,,,,,,,,,,,,,,,,,,,,,,,,,,,,,,,,,,,,,,,,,,,,,,,,,,,,,,,,,,,,,,,,,,,,,,,,,,,,,,,,,P029,FENCOG,1,Post,2022_Mar_17_1204,N-Back (New Version 2021),2021.1.4,120.128201
,,,,,,,,,,,,,,,,,,,,,,,,,,,,,,,,,,,,,,,,,,,,,,,,,,,,,,,,,,,,,,,,,,,,,,294.2600216,None,space,1.3837093,294.7534565,None,,,,,,,,,,,,,,,,,,,,,,,,,P029,FENCOG,1,Post,2022_Mar_17_1204,N-Back (New Version 2021),2021.1.4,120.128201
,,,,,,,,,,,,,,,,,,,,,,,,,,,,,,,,,,,,,,,,,,,,,,,,,,,,,,,,,,,,,,,,,,,,,,,,,,,,296.1597174,None,space,19.876074,296.6531228,None,,,,,,,,,,,,,,,,,,,P029,FENCOG,1,Post,2022_Mar_17_1204,N-Back (New Version 2021),2021.1.4,120.128201
,,,,Conditions/Version_1/zeroback(1)_v1.xlsx,Rule: Press 'space' when you see the letter 'x' or 'X'.,b,None,,,,,,,,,0,0,0,0,0,0,0,0,,,,,,,,,,,,,,,,,,,,,,,,,,,,,,,,,,,,,,,,,,,,,,,,,,,,,,,,,,,316.6397139,None,319.6229993,None,space,0.5461699,319.6229993,None,316.6397139,None,1.382,321.5793653,None,None,1,321.5793653,None,,P029,FENCOG,1,Post,2022_Mar_17_1204,N-Back (New Version 2021),2021.1.4,120.128201
,,,,Conditions/Version_1/zeroback(1)_v1.xlsx,Rule: Press 'space' when you see the letter 'x' or 'X'.,T,None,,,,,,,,,0,0,0,0,0,1,1,1,,,,,,,,,,,,,,,,,,,,,,,,,,,,,,,,,,,,,,,,,,,,,,,,,,,,,,,,,,,,,,,,,,,,,1.3572,324.9457485,None,None,1,324.9457485,None,,P029,FENCOG,1,Post,2022_Mar_17_1204,N-Back (New Version 2021),2021.1.4,120.128201
,,,,Conditions/Version_1/zeroback(1)_v1.xlsx,Rule: Press 'space' when you see the letter 'x' or 'X'.,L,None,,,,,,,,,0,0,0,0,0,2,2,2,,,,,,,,,,,,,,,,,,,,,,,,,,,,,,,,,,,,,,,,,,,,,,,,,,,,,,,,,,,,,,,,,,,,,1.5742,328.5276145,None,None,1,328.5276145,None,,P029,FENCOG,1,Post,2022_Mar_17_1204,N-Back (New Version 2021),2021.1.4,120.128201
,,,,Conditions/Version_1/zeroback(1)_v1.xlsx,Rule: Press 'space' when you see the letter 'x' or 'X'.,x,space,,,,,,,,,0,0,0,0,0,3,3,3,,,,,,,,,,,,,,,,,,,,,,,,,,,,,,,,,,,,,,,,,,,,,,,,,,,,,,,,,,,,,,,,,,,,,1.1402,331.6782819,None,space,1,331.6782819,None,0.346971,P029,FENCOG,1,Post,2022_Mar_17_1204,N-Back (New Version 2021),2021.1.4,120.128201
,,,,Conditions/Version_1/zeroback(1)_v1.xlsx,Rule: Press 'space' when you see the letter 'x' or 'X'.,o,None,,,,,,,,,0,0,0,0,0,4,4,4,,,,,,,,,,,,,,,,,,,,,,,,,,,,,,,,,,,,,,,,,,,,,,,,,,,,,,,,,,,,,,,,,,,,,1.1836,334.8680135,None,None,1,334.8680135,None,,P029,FENCOG,1,Post,2022_Mar_17_1204,N-Back (New Version 2021),2021.1.4,120.128201
,,,,Conditions/Version_1/zeroback(1)_v1.xlsx,Rule: Press 'space' when you see the letter 'x' or 'X'.,P,None,,,,,,,,,0,0,0,0,0,5,5,5,,,,,,,,,,,,,,,,,,,,,,,,,,,,,,,,,,,,,,,,,,,,,,,,,,,,,,,,,,,,,,,,,,,,,1.1092,337.9901695,None,None,1,337.9901695,None,,P029,FENCOG,1,Post,2022_Mar_17_1204,N-Back (New Version 2021),2021.1.4,120.128201
,,,,Conditions/Version_1/zeroback(1)_v1.xlsx,Rule: Press 'space' when you see the letter 'x' or 'X'.,X,space,,,,,,,,,0,0,0,0,0,6,6,6,,,,,,,,,,,,,,,,,,,,,,,,,,,,,,,,,,,,,,,,,,,,,,,,,,,,,,,,,,,,,,,,,,,,,1.6796,341.6723919,None,space,1,341.6723919,None,0.4487959,P029,FENCOG,1,Post,2022_Mar_17_1204,N-Back (New Version 2021),2021.1.4,120.128201
,,,,Conditions/Version_1/zeroback(1)_v1.xlsx,Rule: Press 'space' when you see the letter 'x' or 'X'.,n,None,,,,,,,,,0,0,0,0,0,7,7,7,,,,,,,,,,,,,,,,,,,,,,,,,,,,,,,,,,,,,,,,,,,,,,,,,,,,,,,,,,,,,,,,,,,,,1.0906,344.7660941,None,None,1,344.7660941,None,,P029,FENCOG,1,Post,2022_Mar_17_1204,N-Back (New Version 2021),2021.1.4,120.128201
,,,,Conditions/Version_1/zeroback(1)_v1.xlsx,Rule: Press 'space' when you see the letter 'x' or 'X'.,M,None,,,,,,,,,0,0,0,0,0,8,8,8,,,,,,,,,,,,,,,,,,,,,,,,,,,,,,,,,,,,,,,,,,,,,,,,,,,,,,,,,,,,,,,,,,,,,1.2332,348.0042333,None,None,1,348.0042333,None,,P029,FENCOG,1,Post,2022_Mar_17_1204,N-Back (New Version 2021),2021.1.4,120.128201
,,,,Conditions/Version_1/zeroback(1)_v1.xlsx,Rule: Press 'space' when you see the letter 'x' or 'X'.,a,None,,,,,,,,,0,0,0,0,0,9,9,9,,,,,,,,,,,,,,,,,,,,,,,,,,,,,,,,,,,,,,,,,,,,,,,,,,,,,,,,,,,,,,,,,,,,,1.2208,351.2288088,None,None,1,351.2288088,None,,P029,FENCOG,1,Post,2022_Mar_17_1204,N-Back (New Version 2021),2021.1.4,120.128201
,,,,Conditions/Version_1/zeroback(1)_v1.xlsx,Rule: Press 'space' when you see the letter 'x' or 'X'.,,,,,,,,,,,0,0,0,0,,,,,,,,,,,,,,,,,,,,,,,,,,,,,,,,,,,,,,,,,,,,,,,,,,,,,,,,,,,,,,,,,,,,,,,,,,,,,,,,,P029,FENCOG,1,Post,2022_Mar_17_1204,N-Back (New Version 2021),2021.1.4,120.128201
,,,,Conditions/Version_1/oneback(1)_v1.xlsx,New rule: Press 'space' when you see 1-back (i.e. the same letter as the one that appeared 1 letter ago.),b,None,,,,,,,,,0,1,1,1,0,0,0,0,,,,,,,,,,,,,,,,,,,,,,,,,,,,,,,,,,,,,,,,,,,,,,,,,,,,,,,,,,,353.2584324,None,356.2448761,None,space,0.331989,356.2448761,None,353.2584324,None,1.5246,358.1267685,None,None,1,358.1267685,None,,P029,FENCOG,1,Post,2022_Mar_17_1204,N-Back (New Version 2021),2021.1.4,120.128201
,,,,Conditions/Version_1/oneback(1)_v1.xlsx,New rule: Press 'space' when you see 1-back (i.e. the same letter as the one that appeared 1 letter ago.),p,None,,,,,,,,,0,1,1,1,0,1,1,1,,,,,,,,,,,,,,,,,,,,,,,,,,,,,,,,,,,,,,,,,,,,,,,,,,,,,,,,,,,,,,,,,,,,,1.2828,361.4175411,None,None,1,361.4175411,None,,P029,FENCOG,1,Post,2022_Mar_17_1204,N-Back (New Version 2021),2021.1.4,120.128201
,,,,Conditions/Version_1/oneback(1)_v1.xlsx,New rule: Press 'space' when you see 1-back (i.e. the same letter as the one that appeared 1 letter ago.),M,None,,,,,,,,,0,1,1,1,0,2,2,2,,,,,,,,,,,,,,,,,,,,,,,,,,,,,,,,,,,,,,,,,,,,,,,,,,,,,,,,,,,,,,,,,,,,,1.4998,364.9239388,None,None,1,364.9239388,None,,P029,FENCOG,1,Post,2022_Mar_17_1204,N-Back (New Version 2021),2021.1.4,120.128201
,,,,Conditions/Version_1/oneback(1)_v1.xlsx,New rule: Press 'space' when you see 1-back (i.e. the same letter as the one that appeared 1 letter ago.),M,space,,,,,,,,,0,1,1,1,0,3,3,3,,,,,,,,,,,,,,,,,,,,,,,,,,,,,,,,,,,,,,,,,,,,,,,,,,,,,,,,,,,,,,,,,,,,,1.9648,368.8896886,None,space,1,368.8896886,None,0.7595802,P029,FENCOG,1,Post,2022_Mar_17_1204,N-Back (New Version 2021),2021.1.4,120.128201
,,,,Conditions/Version_1/oneback(1)_v1.xlsx,New rule: Press 'space' when you see 1-back (i.e. the same letter as the one that appeared 1 letter ago.),n,None,,,,,,,,,0,1,1,1,0,4,4,4,,,,,,,,,,,,,,,,,,,,,,,,,,,,,,,,,,,,,,,,,,,,,,,,,,,,,,,,,,,,,,,,,,,,,1.2518,372.1467178,None,None,1,372.1467178,None,,P029,FENCOG,1,Post,2022_Mar_17_1204,N-Back (New Version 2021),2021.1.4,120.128201
,,,,Conditions/Version_1/oneback(1)_v1.xlsx,New rule: Press 'space' when you see 1-back (i.e. the same letter as the one that appeared 1 letter ago.),g,None,,,,,,,,,0,1,1,1,0,5,5,5,,,,,,,,,,,,,,,,,,,,,,,,,,,,,,,,,,,,,,,,,,,,,,,,,,,,,,,,,,,,,,,,,,,,,1.9276,376.0790344,None,None,1,376.0790344,None,,P029,FENCOG,1,Post,2022_Mar_17_1204,N-Back (New Version 2021),2021.1.4,120.128201
,,,,Conditions/Version_1/oneback(1)_v1.xlsx,New rule: Press 'space' when you see 1-back (i.e. the same letter as the one that appeared 1 letter ago.),P,None,,,,,,,,,0,1,1,1,0,6,6,6,,,,,,,,,,,,,,,,,,,,,,,,,,,,,,,,,,,,,,,,,,,,,,,,,,,,,,,,,,,,,,,,,,,,,1.6796,379.7611879,None,None,1,379.7611879,None,,P029,FENCOG,1,Post,2022_Mar_17_1204,N-Back (New Version 2021),2021.1.4,120.128201
,,,,Conditions/Version_1/oneback(1)_v1.xlsx,New rule: Press 'space' when you see 1-back (i.e. the same letter as the one that appeared 1 letter ago.),o,None,,,,,,,,,0,1,1,1,0,7,7,7,,,,,,,,,,,,,,,,,,,,,,,,,,,,,,,,,,,,,,,,,,,,,,,,,,,,,,,,,,,,,,,,,,,,,1.8098,383.577884,None,None,1,383.577884,None,,P029,FENCOG,1,Post,2022_Mar_17_1204,N-Back (New Version 2021),2021.1.4,120.128201
,,,,Conditions/Version_1/oneback(1)_v1.xlsx,New rule: Press 'space' when you see 1-back (i.e. the same letter as the one that appeared 1 letter ago.),f,None,,,,,,,,,0,1,1,1,0,8,8,8,,,,,,,,,,,,,,,,,,,,,,,,,,,,,,,,,,,,,,,,,,,,,,,,,,,,,,,,,,,,,,,,,,,,,1.165,386.7537763,None,None,1,386.7537763,None,,P029,FENCOG,1,Post,2022_Mar_17_1204,N-Back (New Version 2021),2021.1.4,120.128201
,,,,Conditions/Version_1/oneback(1)_v1.xlsx,New rule: Press 'space' when you see 1-back (i.e. the same letter as the one that appeared 1 letter ago.),F,space,,,,,,,,,0,1,1,1,0,9,9,9,,,,,,,,,,,,,,,,,,,,,,,,,,,,,,,,,,,,,,,,,,,,,,,,,,,,,,,,,,,,,,,,,,,,,1.0534,389.8223385,None,space,1,389.8223385,None,0.7708146,P029,FENCOG,1,Post,2022_Mar_17_1204,N-Back (New Version 2021),2021.1.4,120.128201
,,,,Conditions/Version_1/oneback(1)_v1.xlsx,New rule: Press 'space' when you see 1-back (i.e. the same letter as the one that appeared 1 letter ago.),,,,,,,,,,,0,1,1,1,,,,,,,,,,,,,,,,,,,,,,,,,,,,,,,,,,,,,,,,,,,,,,,,,,,,,,,,,,,,,,,,,,,,,,,,,,,,,,,,,P029,FENCOG,1,Post,2022_Mar_17_1204,N-Back (New Version 2021),2021.1.4,120.128201
,,,,Conditions/Version_1/twoback(1)_v1.xlsx,New rule: Press 'space' when you see 2-back (i.e. the same letter as the one that appeared 2 letters ago.),b,None,,,,,,,,,0,2,2,2,0,0,0,0,,,,,,,,,,,,,,,,,,,,,,,,,,,,,,,,,,,,,,,,,,,,,,,,,,,,,,,,,,,391.8472222,None,394.834591,None,space,0.246672,394.834591,None,391.8472222,None,1.971,397.0905973,None,None,1,397.0905973,None,,P029,FENCOG,1,Post,2022_Mar_17_1204,N-Back (New Version 2021),2021.1.4,120.128201
,,,,Conditions/Version_1/twoback(1)_v1.xlsx,New rule: Press 'space' when you see 2-back (i.e. the same letter as the one that appeared 2 letters ago.),h,None,,,,,,,,,0,2,2,2,0,1,1,1,,,,,,,,,,,,,,,,,,,,,,,,,,,,,,,,,,,,,,,,,,,,,,,,,,,,,,,,,,,,,,,,,,,,,1.8408,400.9484936,None,None,1,400.9484936,None,,P029,FENCOG,1,Post,2022_Mar_17_1204,N-Back (New Version 2021),2021.1.4,120.128201
,,,,Conditions/Version_1/twoback(1)_v1.xlsx,New rule: Press 'space' when you see 2-back (i.e. the same letter as the one that appeared 2 letters ago.),j,None,,,,,,,,,0,2,2,2,0,2,2,2,,,,,,,,,,,,,,,,,,,,,,,,,,,,,,,,,,,,,,,,,,,,,,,,,,,,,,,,,,,,,,,,,,,,,1.7726,404.7307543,None,None,1,404.7307543,None,,P029,FENCOG,1,Post,2022_Mar_17_1204,N-Back (New Version 2021),2021.1.4,120.128201
,,,,Conditions/Version_1/twoback(1)_v1.xlsx,New rule: Press 'space' when you see 2-back (i.e. the same letter as the one that appeared 2 letters ago.),H,space,,,,,,,,,0,2,2,2,0,3,3,3,,,,,,,,,,,,,,,,,,,,,,,,,,,,,,,,,,,,,,,,,,,,,,,,,,,,,,,,,,,,,,,,,,,,,1.0534,407.7977803,None,space,1,407.7977803,None,0.6672816,P029,FENCOG,1,Post,2022_Mar_17_1204,N-Back (New Version 2021),2021.1.4,120.128201
,,,,Conditions/Version_1/twoback(1)_v1.xlsx,New rule: Press 'space' when you see 2-back (i.e. the same letter as the one that appeared 2 letters ago.),p,None,,,,,,,,,0,2,2,2,0,4,4,4,,,,,,,,,,,,,,,,,,,,,,,,,,,,,,,,,,,,,,,,,,,,,,,,,,,,,,,,,,,,,,,,,,,,,1.2456,411.051856,None,None,1,411.051856,None,,P029,FENCOG,1,Post,2022_Mar_17_1204,N-Back (New Version 2021),2021.1.4,120.128201
,,,,Conditions/Version_1/twoback(1)_v1.xlsx,New rule: Press 'space' when you see 2-back (i.e. the same letter as the one that appeared 2 letters ago.),p,None,,,,,,,,,0,2,2,2,0,5,5,5,,,,,,,,,,,,,,,,,,,,,,,,,,,,,,,,,,,,,,,,,,,,,,,,,,,,,,,,,,,,,,,,,,,,,1.9338,414.98437,None,None,1,414.98437,None,,P029,FENCOG,1,Post,2022_Mar_17_1204,N-Back (New Version 2021),2021.1.4,120.128201
,,,,Conditions/Version_1/twoback(1)_v1.xlsx,New rule: Press 'space' when you see 2-back (i.e. the same letter as the one that appeared 2 letters ago.),w,None,,,,,,,,,0,2,2,2,0,6,6,6,,,,,,,,,,,,,,,,,,,,,,,,,,,,,,,,,,,,,,,,,,,,,,,,,,,,,,,,,,,,,,,,,,,,,1.723,418.7080229,None,None,1,418.7080229,None,,P029,FENCOG,1,Post,2022_Mar_17_1204,N-Back (New Version 2021),2021.1.4,120.128201
,,,,Conditions/Version_1/twoback(1)_v1.xlsx,New rule: Press 'space' when you see 2-back (i.e. the same letter as the one that appeared 2 letters ago.),R,None,,,,,,,,,0,2,2,2,0,7,7,7,,,,,,,,,,,,,,,,,,,,,,,,,,,,,,,,,,,,,,,,,,,,,,,,,,,,,,,,,,,,,,,,,,,,,1.7664,422.4740327,None,None,1,422.4740327,None,,P029,FENCOG,1,Post,2022_Mar_17_1204,N-Back (New Version 2021),2021.1.4,120.128201
,,,,Conditions/Version_1/twoback(1)_v1.xlsx,New rule: Press 'space' when you see 2-back (i.e. the same letter as the one that appeared 2 letters ago.),a,None,,,,,,,,,0,2,2,2,0,8,8,8,,,,,,,,,,,,,,,,,,,,,,,,,,,,,,,,,,,,,,,,,,,,,,,,,,,,,,,,,,,,,,,,,,,,,1.5308,426.0141863,None,None,1,426.0141863,None,,P029,FENCOG,1,Post,2022_Mar_17_1204,N-Back (New Version 2021),2021.1.4,120.128201
,,,,Conditions/Version_1/twoback(1)_v1.xlsx,New rule: Press 'space' when you see 2-back (i.e. the same letter as the one that appeared 2 letters ago.),r,space,,,,,,,,,0,2,2,2,0,9,9,9,,,,,,,,,,,,,,,,,,,,,,,,,,,,,,,,,,,,,,,,,,,,,,,,,,,,,,,,,,,,,,,,,,,,,1.4564,429.4782999,None,space,1,429.4782999,None,0.5469305,P029,FENCOG,1,Post,2022_Mar_17_1204,N-Back (New Version 2021),2021.1.4,120.128201
,,,,Conditions/Version_1/twoback(1)_v1.xlsx,New rule: Press 'space' when you see 2-back (i.e. the same letter as the one that appeared 2 letters ago.),,,,,,,,,,,0,2,2,2,,,,,,,,,,,,,,,,,,,,,,,,,,,,,,,,,,,,,,,,,,,,,,,,,,,,,,,,,,,,,,,,,,,,,,,,,,,,,,,,,P029,FENCOG,1,Post,2022_Mar_17_1204,N-Back (New Version 2021),2021.1.4,120.128201
,,,,Conditions/Version_1/threeback(1)_v1.xlsx,New rule: Press 'space' when you see 3-back (i.e. the same letter as the one that appeared 3 letters ago.),r,None,,,,,,,,,0,3,3,3,0,0,0,0,,,,,,,,,,,,,,,,,,,,,,,,,,,,,,,,,,,,,,,,,,,,,,,,,,,,,,,,,,,431.5002202,None,434.4889471,None,space,20.4242976,434.4889471,None,431.5002202,None,1.3634,456.3054903,None,None,1,456.3054903,None,,P029,FENCOG,1,Post,2022_Mar_17_1204,N-Back (New Version 2021),2021.1.4,120.128201
,,,,Conditions/Version_1/threeback(1)_v1.xlsx,New rule: Press 'space' when you see 3-back (i.e. the same letter as the one that appeared 3 letters ago.),o,None,,,,,,,,,0,3,3,3,0,1,1,1,,,,,,,,,,,,,,,,,,,,,,,,,,,,,,,,,,,,,,,,,,,,,,,,,,,,,,,,,,,,,,,,,,,,,1.568,459.8811573,None,None,1,459.8811573,None,,P029,FENCOG,1,Post,2022_Mar_17_1204,N-Back (New Version 2021),2021.1.4,120.128201
,,,,Conditions/Version_1/threeback(1)_v1.xlsx,New rule: Press 'space' when you see 3-back (i.e. the same letter as the one that appeared 3 letters ago.),P,None,,,,,,,,,0,3,3,3,0,2,2,2,,,,,,,,,,,,,,,,,,,,,,,,,,,,,,,,,,,,,,,,,,,,,,,,,,,,,,,,,,,,,,,,,,,,,1.7292,463.6217399,None,None,1,463.6217399,None,,P029,FENCOG,1,Post,2022_Mar_17_1204,N-Back (New Version 2021),2021.1.4,120.128201
,,,,Conditions/Version_1/threeback(1)_v1.xlsx,New rule: Press 'space' when you see 3-back (i.e. the same letter as the one that appeared 3 letters ago.),R,space,,,,,,,,,0,3,3,3,0,3,3,3,,,,,,,,,,,,,,,,,,,,,,,,,,,,,,,,,,,,,,,,,,,,,,,,,,,,,,,,,,,,,,,,,,,,,1.1836,466.8105145,None,space,1,466.8105145,None,0.7266361,P029,FENCOG,1,Post,2022_Mar_17_1204,N-Back (New Version 2021),2021.1.4,120.128201
,,,,Conditions/Version_1/threeback(1)_v1.xlsx,New rule: Press 'space' when you see 3-back (i.e. the same letter as the one that appeared 3 letters ago.),p,None,,,,,,,,,0,3,3,3,0,4,4,4,,,,,,,,,,,,,,,,,,,,,,,,,,,,,,,,,,,,,,,,,,,,,,,,,,,,,,,,,,,,,,,,,,,,,1.4006,470.2095127,None,None,1,470.2095127,None,,P029,FENCOG,1,Post,2022_Mar_17_1204,N-Back (New Version 2021),2021.1.4,120.128201
,,,,Conditions/Version_1/threeback(1)_v1.xlsx,New rule: Press 'space' when you see 3-back (i.e. the same letter as the one that appeared 3 letters ago.),E,None,,,,,,,,,0,3,3,3,0,5,5,5,,,,,,,,,,,,,,,,,,,,,,,,,,,,,,,,,,,,,,,,,,,,,,,,,,,,,,,,,,,,,,,,,,,,,1.1464,473.361214,None,None,1,473.361214,None,,P029,FENCOG,1,Post,2022_Mar_17_1204,N-Back (New Version 2021),2021.1.4,120.128201
,,,,Conditions/Version_1/threeback(1)_v1.xlsx,New rule: Press 'space' when you see 3-back (i.e. the same letter as the one that appeared 3 letters ago.),e,None,,,,,,,,,0,3,3,3,0,6,6,6,,,,,,,,,,,,,,,,,,,,,,,,,,,,,,,,,,,,,,,,,,,,,,,,,,,,,,,,,,,,,,,,,,,,,1.0596,476.4331183,None,None,1,476.4331183,None,,P029,FENCOG,1,Post,2022_Mar_17_1204,N-Back (New Version 2021),2021.1.4,120.128201
,,,,Conditions/Version_1/threeback(1)_v1.xlsx,New rule: Press 'space' when you see 3-back (i.e. the same letter as the one that appeared 3 letters ago.),m,None,,,,,,,,,0,3,3,3,0,7,7,7,,,,,,,,,,,,,,,,,,,,,,,,,,,,,,,,,,,,,,,,,,,,,,,,,,,,,,,,,,,,,,,,,,,,,1.7664,480.2004806,None,None,1,480.2004806,None,,P029,FENCOG,1,Post,2022_Mar_17_1204,N-Back (New Version 2021),2021.1.4,120.128201
,,,,Conditions/Version_1/threeback(1)_v1.xlsx,New rule: Press 'space' when you see 3-back (i.e. the same letter as the one that appeared 3 letters ago.),n,None,,,,,,,,,0,3,3,3,0,8,8,8,,,,,,,,,,,,,,,,,,,,,,,,,,,,,,,,,,,,,,,,,,,,,,,,,,,,,,,,,,,,,,,,,,,,,1.3696,483.5816256,None,None,1,483.5816256,None,,P029,FENCOG,1,Post,2022_Mar_17_1204,N-Back (New Version 2021),2021.1.4,120.128201
,,,,Conditions/Version_1/threeback(1)_v1.xlsx,New rule: Press 'space' when you see 3-back (i.e. the same letter as the one that appeared 3 letters ago.),e,space,,,,,,,,,0,3,3,3,0,9,9,9,,,,,,,,,,,,,,,,,,,,,,,,,,,,,,,,,,,,,,,,,,,,,,,,,,,,,,,,,,,,,,,,,,,,,1.5246,487.1149539,None,space,1,487.1149539,None,0.5902208,P029,FENCOG,1,Post,2022_Mar_17_1204,N-Back (New Version 2021),2021.1.4,120.128201
,,,,Conditions/Version_1/threeback(1)_v1.xlsx,New rule: Press 'space' when you see 3-back (i.e. the same letter as the one that appeared 3 letters ago.),,,,,,,,,,,0,3,3,3,,,,,,,,,,,,,,,,,,,,,,,,,,,,,,,,,,,,,,,,,,,,,,,,,,,,,,,,,,,,,,,,,,,,,,,,,,,,,,,,,P029,FENCOG,1,Post,2022_Mar_17_1204,N-Back (New Version 2021),2021.1.4,120.128201
,,,,Conditions/Version_1/oneback(2)_v1.xlsx,New rule: Press 'space' when you see 1-back (i.e. the same letter as the one that appeared 1 letter ago.),q,None,,,,,,,,,0,4,4,4,0,0,0,0,,,,,,,,,,,,,,,,,,,,,,,,,,,,,,,,,,,,,,,,,,,,,,,,,,,,,,,,,,,489.1422689,None,492.1303612,None,space,2.1667886,492.1303612,None,489.1422689,None,1.3076,495.636496,None,None,1,495.636496,None,,P029,FENCOG,1,Post,2022_Mar_17_1204,N-Back (New Version 2021),2021.1.4,120.128201
,,,,Conditions/Version_1/oneback(2)_v1.xlsx,New rule: Press 'space' when you see 1-back (i.e. the same letter as the one that appeared 1 letter ago.),Q,space,,,,,,,,,0,4,4,4,0,1,1,1,,,,,,,,,,,,,,,,,,,,,,,,,,,,,,,,,,,,,,,,,,,,,,,,,,,,,,,,,,,,,,,,,,,,,1.2332,498.8791688,None,space,1,498.8791688,None,0.6739858,P029,FENCOG,1,Post,2022_Mar_17_1204,N-Back (New Version 2021),2021.1.4,120.128201
,,,,Conditions/Version_1/oneback(2)_v1.xlsx,New rule: Press 'space' when you see 1-back (i.e. the same letter as the one that appeared 1 letter ago.),P,None,,,,,,,,,0,4,4,4,0,2,2,2,,,,,,,,,,,,,,,,,,,,,,,,,,,,,,,,,,,,,,,,,,,,,,,,,,,,,,,,,,,,,,,,,,,,,1.8594,502.7509945,None,None,1,502.7509945,None,,P029,FENCOG,1,Post,2022_Mar_17_1204,N-Back (New Version 2021),2021.1.4,120.128201
,,,,Conditions/Version_1/oneback(2)_v1.xlsx,New rule: Press 'space' when you see 1-back (i.e. the same letter as the one that appeared 1 letter ago.),o,None,,,,,,,,,0,4,4,4,0,3,3,3,,,,,,,,,,,,,,,,,,,,,,,,,,,,,,,,,,,,,,,,,,,,,,,,,,,,,,,,,,,,,,,,,,,,,1.01,505.7742605,None,None,1,505.7742605,None,,P029,FENCOG,1,Post,2022_Mar_17_1204,N-Back (New Version 2021),2021.1.4,120.128201
,,,,Conditions/Version_1/oneback(2)_v1.xlsx,New rule: Press 'space' when you see 1-back (i.e. the same letter as the one that appeared 1 letter ago.),m,None,,,,,,,,,0,4,4,4,0,4,4,4,,,,,,,,,,,,,,,,,,,,,,,,,,,,,,,,,,,,,,,,,,,,,,,,,,,,,,,,,,,,,,,,,,,,,1.3758,509.1573524,None,None,1,509.1573524,None,,P029,FENCOG,1,Post,2022_Mar_17_1204,N-Back (New Version 2021),2021.1.4,120.128201
,,,,Conditions/Version_1/oneback(2)_v1.xlsx,New rule: Press 'space' when you see 1-back (i.e. the same letter as the one that appeared 1 letter ago.),Z,None,,,,,,,,,0,4,4,4,0,5,5,5,,,,,,,,,,,,,,,,,,,,,,,,,,,,,,,,,,,,,,,,,,,,,,,,,,,,,,,,,,,,,,,,,,,,,1.7044,512.8732379,None,None,1,512.8732379,None,,P029,FENCOG,1,Post,2022_Mar_17_1204,N-Back (New Version 2021),2021.1.4,120.128201
,,,,Conditions/Version_1/oneback(2)_v1.xlsx,New rule: Press 'space' when you see 1-back (i.e. the same letter as the one that appeared 1 letter ago.),c,None,,,,,,,,,0,4,4,4,0,6,6,6,,,,,,,,,,,,,,,,,,,,,,,,,,,,,,,,,,,,,,,,,,,,,,,,,,,,,,,,,,,,,,,,,,,,,1.134,516.0140489,None,None,1,516.0140489,None,,P029,FENCOG,1,Post,2022_Mar_17_1204,N-Back (New Version 2021),2021.1.4,120.128201
,,,,Conditions/Version_1/oneback(2)_v1.xlsx,New rule: Press 'space' when you see 1-back (i.e. the same letter as the one that appeared 1 letter ago.),c,space,,,,,,,,,0,4,4,4,0,7,7,7,,,,,,,,,,,,,,,,,,,,,,,,,,,,,,,,,,,,,,,,,,,,,,,,,,,,,,,,,,,,,,,,,,,,,1.5308,519.5535141,None,space,1,519.5535141,None,0.6156186,P029,FENCOG,1,Post,2022_Mar_17_1204,N-Back (New Version 2021),2021.1.4,120.128201
,,,,Conditions/Version_1/oneback(2)_v1.xlsx,New rule: Press 'space' when you see 1-back (i.e. the same letter as the one that appeared 1 letter ago.),P,None,,,,,,,,,0,4,4,4,0,8,8,8,,,,,,,,,,,,,,,,,,,,,,,,,,,,,,,,,,,,,,,,,,,,,,,,,,,,,,,,,,,,,,,,,,,,,1.9586,523.5114629,None,None,1,523.5114629,None,,P029,FENCOG,1,Post,2022_Mar_17_1204,N-Back (New Version 2021),2021.1.4,120.128201
,,,,Conditions/Version_1/oneback(2)_v1.xlsx,New rule: Press 'space' when you see 1-back (i.e. the same letter as the one that appeared 1 letter ago.),p,space,,,,,,,,,0,4,4,4,0,9,9,9,,,,,,,,,,,,,,,,,,,,,,,,,,,,,,,,,,,,,,,,,,,,,,,,,,,,,,,,,,,,,,,,,,,,,1.3014,526.8262373,None,space,1,526.8262373,None,0.8230463,P029,FENCOG,1,Post,2022_Mar_17_1204,N-Back (New Version 2021),2021.1.4,120.128201
,,,,Conditions/Version_1/oneback(2)_v1.xlsx,New rule: Press 'space' when you see 1-back (i.e. the same letter as the one that appeared 1 letter ago.),,,,,,,,,,,0,4,4,4,,,,,,,,,,,,,,,,,,,,,,,,,,,,,,,,,,,,,,,,,,,,,,,,,,,,,,,,,,,,,,,,,,,,,,,,,,,,,,,,,P029,FENCOG,1,Post,2022_Mar_17_1204,N-Back (New Version 2021),2021.1.4,120.128201
,,,,Conditions/Version_1/zeroback(2)_v1.xlsx,New rule: Press 'space' when you see the letter 'x' or 'X'.,p,None,,,,,,,,,0,5,5,5,0,0,0,0,,,,,,,,,,,,,,,,,,,,,,,,,,,,,,,,,,,,,,,,,,,,,,,,,,,,,,,,,,,528.8472075,None,531.8361438,None,space,0.3651014,531.8361438,None,528.8472075,None,1.6734,533.8990612,None,None,1,533.8990612,None,,P029,FENCOG,1,Post,2022_Mar_17_1204,N-Back (New Version 2021),2021.1.4,120.128201
,,,,Conditions/Version_1/zeroback(2)_v1.xlsx,New rule: Press 'space' when you see the letter 'x' or 'X'.,L,None,,,,,,,,,0,5,5,5,0,1,1,1,,,,,,,,,,,,,,,,,,,,,,,,,,,,,,,,,,,,,,,,,,,,,,,,,,,,,,,,,,,,,,,,,,,,,1.0224,536.9351212,None,None,1,536.9351212,None,,P029,FENCOG,1,Post,2022_Mar_17_1204,N-Back (New Version 2021),2021.1.4,120.128201
,,,,Conditions/Version_1/zeroback(2)_v1.xlsx,New rule: Press 'space' when you see the letter 'x' or 'X'.,G,None,,,,,,,,,0,5,5,5,0,2,2,2,,,,,,,,,,,,,,,,,,,,,,,,,,,,,,,,,,,,,,,,,,,,,,,,,,,,,,,,,,,,,,,,,,,,,1.9958,540.938946,None,None,1,540.938946,None,,P029,FENCOG,1,Post,2022_Mar_17_1204,N-Back (New Version 2021),2021.1.4,120.128201
,,,,Conditions/Version_1/zeroback(2)_v1.xlsx,New rule: Press 'space' when you see the letter 'x' or 'X'.,y,None,,,,,,,,,0,5,5,5,0,3,3,3,,,,,,,,,,,,,,,,,,,,,,,,,,,,,,,,,,,,,,,,,,,,,,,,,,,,,,,,,,,,,,,,,,,,,1.9338,544.8729986,None,None,1,544.8729986,None,,P029,FENCOG,1,Post,2022_Mar_17_1204,N-Back (New Version 2021),2021.1.4,120.128201
,,,,Conditions/Version_1/zeroback(2)_v1.xlsx,New rule: Press 'space' when you see the letter 'x' or 'X'.,Y,None,,,,,,,,,0,5,5,5,0,4,4,4,,,,,,,,,,,,,,,,,,,,,,,,,,,,,,,,,,,,,,,,,,,,,,,,,,,,,,,,,,,,,,,,,,,,,1.6548,548.537535,None,None,1,548.537535,None,,P029,FENCOG,1,Post,2022_Mar_17_1204,N-Back (New Version 2021),2021.1.4,120.128201
,,,,Conditions/Version_1/zeroback(2)_v1.xlsx,New rule: Press 'space' when you see the letter 'x' or 'X'.,W,None,,,,,,,,,0,5,5,5,0,5,5,5,,,,,,,,,,,,,,,,,,,,,,,,,,,,,,,,,,,,,,,,,,,,,,,,,,,,,,,,,,,,,,,,,,,,,1.4378,551.9874552,None,None,1,551.9874552,None,,P029,FENCOG,1,Post,2022_Mar_17_1204,N-Back (New Version 2021),2021.1.4,120.128201
,,,,Conditions/Version_1/zeroback(2)_v1.xlsx,New rule: Press 'space' when you see the letter 'x' or 'X'.,x,space,,,,,,,,,0,5,5,5,0,6,6,6,,,,,,,,,,,,,,,,,,,,,,,,,,,,,,,,,,,,,,,,,,,,,,,,,,,,,,,,,,,,,,,,,,,,,1.7974,555.7939915,None,space,1,555.7939915,None,0.4151327,P029,FENCOG,1,Post,2022_Mar_17_1204,N-Back (New Version 2021),2021.1.4,120.128201
,,,,Conditions/Version_1/zeroback(2)_v1.xlsx,New rule: Press 'space' when you see the letter 'x' or 'X'.,X,space,,,,,,,,,0,5,5,5,0,7,7,7,,,,,,,,,,,,,,,,,,,,,,,,,,,,,,,,,,,,,,,,,,,,,,,,,,,,,,,,,,,,,,,,,,,,,1.4936,559.3033129,None,space,1,559.3033129,None,0.6738448,P029,FENCOG,1,Post,2022_Mar_17_1204,N-Back (New Version 2021),2021.1.4,120.128201
,,,,Conditions/Version_1/zeroback(2)_v1.xlsx,New rule: Press 'space' when you see the letter 'x' or 'X'.,p,None,,,,,,,,,0,5,5,5,0,8,8,8,,,,,,,,,,,,,,,,,,,,,,,,,,,,,,,,,,,,,,,,,,,,,,,,,,,,,,,,,,,,,,,,,,,,,1.785,563.0988415,None,None,1,563.0988415,None,,P029,FENCOG,1,Post,2022_Mar_17_1204,N-Back (New Version 2021),2021.1.4,120.128201
,,,,Conditions/Version_1/zeroback(2)_v1.xlsx,New rule: Press 'space' when you see the letter 'x' or 'X'.,h,None,,,,,,,,,0,5,5,5,0,9,9,9,,,,,,,,,,,,,,,,,,,,,,,,,,,,,,,,,,,,,,,,,,,,,,,,,,,,,,,,,,,,,,,,,,,,,1.6982,566.7976987,None,None,1,566.7976987,None,,P029,FENCOG,1,Post,2022_Mar_17_1204,N-Back (New Version 2021),2021.1.4,120.128201
,,,,Conditions/Version_1/zeroback(2)_v1.xlsx,New rule: Press 'space' when you see the letter 'x' or 'X'.,,,,,,,,,,,0,5,5,5,,,,,,,,,,,,,,,,,,,,,,,,,,,,,,,,,,,,,,,,,,,,,,,,,,,,,,,,,,,,,,,,,,,,,,,,,,,,,,,,,P029,FENCOG,1,Post,2022_Mar_17_1204,N-Back (New Version 2021),2021.1.4,120.128201
,,,,Conditions/Version_1/threeback(2)_v1.xlsx,New rule: Press 'space' when you see 3-back (i.e. the same letter as the one that appeared 3 letters ago.),q,None,,,,,,,,,0,6,6,6,0,0,0,0,,,,,,,,,,,,,,,,,,,,,,,,,,,,,,,,,,,,,,,,,,,,,,,,,,,,,,,,,,,568.8379311,None,571.8231603,None,space,1.5539026,571.8231603,None,568.8379311,None,1.0844,574.4871153,None,None,1,574.4871153,None,,P029,FENCOG,1,Post,2022_Mar_17_1204,N-Back (New Version 2021),2021.1.4,120.128201
,,,,Conditions/Version_1/threeback(2)_v1.xlsx,New rule: Press 'space' when you see 3-back (i.e. the same letter as the one that appeared 3 letters ago.),Y,None,,,,,,,,,0,6,6,6,0,1,1,1,,,,,,,,,,,,,,,,,,,,,,,,,,,,,,,,,,,,,,,,,,,,,,,,,,,,,,,,,,,,,,,,,,,,,1.692,578.1860006,None,None,1,578.1860006,None,,P029,FENCOG,1,Post,2022_Mar_17_1204,N-Back (New Version 2021),2021.1.4,120.128201
,,,,Conditions/Version_1/threeback(2)_v1.xlsx,New rule: Press 'space' when you see 3-back (i.e. the same letter as the one that appeared 3 letters ago.),p,None,,,,,,,,,0,6,6,6,0,2,2,2,,,,,,,,,,,,,,,,,,,,,,,,,,,,,,,,,,,,,,,,,,,,,,,,,,,,,,,,,,,,,,,,,,,,,1.072,581.2610196,None,None,1,581.2610196,None,,P029,FENCOG,1,Post,2022_Mar_17_1204,N-Back (New Version 2021),2021.1.4,120.128201
,,,,Conditions/Version_1/threeback(2)_v1.xlsx,New rule: Press 'space' when you see 3-back (i.e. the same letter as the one that appeared 3 letters ago.),p,None,,,,,,,,,0,6,6,6,0,3,3,3,,,,,,,,,,,,,,,,,,,,,,,,,,,,,,,,,,,,,,,,,,,,,,,,,,,,,,,,,,,,,,,,,,,,,1.94,585.2092751,None,None,1,585.2092751,None,,P029,FENCOG,1,Post,2022_Mar_17_1204,N-Back (New Version 2021),2021.1.4,120.128201
,,,,Conditions/Version_1/threeback(2)_v1.xlsx,New rule: Press 'space' when you see 3-back (i.e. the same letter as the one that appeared 3 letters ago.),y,space,,,,,,,,,0,6,6,6,0,4,4,4,,,,,,,,,,,,,,,,,,,,,,,,,,,,,,,,,,,,,,,,,,,,,,,,,,,,,,,,,,,,,,,,,,,,,1.5184,588.7384651,None,space,1,588.7384651,None,0.6627871,P029,FENCOG,1,Post,2022_Mar_17_1204,N-Back (New Version 2021),2021.1.4,120.128201
,,,,Conditions/Version_1/threeback(2)_v1.xlsx,New rule: Press 'space' when you see 3-back (i.e. the same letter as the one that appeared 3 letters ago.),u,None,,,,,,,,,0,6,6,6,0,5,5,5,,,,,,,,,,,,,,,,,,,,,,,,,,,,,,,,,,,,,,,,,,,,,,,,,,,,,,,,,,,,,,,,,,,,,1.165,591.907751,None,None,1,591.907751,None,,P029,FENCOG,1,Post,2022_Mar_17_1204,N-Back (New Version 2021),2021.1.4,120.128201
,,,,Conditions/Version_1/threeback(2)_v1.xlsx,New rule: Press 'space' when you see 3-back (i.e. the same letter as the one that appeared 3 letters ago.),P,space,,,,,,,,,0,6,6,6,0,6,6,6,,,,,,,,,,,,,,,,,,,,,,,,,,,,,,,,,,,,,,,,,,,,,,,,,,,,,,,,,,,,,,,,,,,,,1.6114,595.5309439,None,space,1,595.5309439,None,0.6461756,P029,FENCOG,1,Post,2022_Mar_17_1204,N-Back (New Version 2021),2021.1.4,120.128201
,,,,Conditions/Version_1/threeback(2)_v1.xlsx,New rule: Press 'space' when you see 3-back (i.e. the same letter as the one that appeared 3 letters ago.),a,None,,,,,,,,,0,6,6,6,0,7,7,7,,,,,,,,,,,,,,,,,,,,,,,,,,,,,,,,,,,,,,,,,,,,,,,,,,,,,,,,,,,,,,,,,,,,,1.8904,599.4215313,None,None,1,599.4215313,None,,P029,FENCOG,1,Post,2022_Mar_17_1204,N-Back (New Version 2021),2021.1.4,120.128201
,,,,Conditions/Version_1/threeback(2)_v1.xlsx,New rule: Press 'space' when you see 3-back (i.e. the same letter as the one that appeared 3 letters ago.),U,space,,,,,,,,,0,6,6,6,0,8,8,8,,,,,,,,,,,,,,,,,,,,,,,,,,,,,,,,,,,,,,,,,,,,,,,,,,,,,,,,,,,,,,,,,,,,,1.4378,602.8644855,None,space,1,602.8644855,None,0.5927036,P029,FENCOG,1,Post,2022_Mar_17_1204,N-Back (New Version 2021),2021.1.4,120.128201
,,,,Conditions/Version_1/threeback(2)_v1.xlsx,New rule: Press 'space' when you see 3-back (i.e. the same letter as the one that appeared 3 letters ago.),q,None,,,,,,,,,0,6,6,6,0,9,9,9,,,,,,,,,,,,,,,,,,,,,,,,,,,,,,,,,,,,,,,,,,,,,,,,,,,,,,,,,,,,,,,,,,,,,1.8532,606.7275844,None,None,1,606.7275844,None,,P029,FENCOG,1,Post,2022_Mar_17_1204,N-Back (New Version 2021),2021.1.4,120.128201
,,,,Conditions/Version_1/threeback(2)_v1.xlsx,New rule: Press 'space' when you see 3-back (i.e. the same letter as the one that appeared 3 letters ago.),,,,,,,,,,,0,6,6,6,,,,,,,,,,,,,,,,,,,,,,,,,,,,,,,,,,,,,,,,,,,,,,,,,,,,,,,,,,,,,,,,,,,,,,,,,,,,,,,,,P029,FENCOG,1,Post,2022_Mar_17_1204,N-Back (New Version 2021),2021.1.4,120.128201
,,,,Conditions/Version_1/twoback(2)_v1.xlsx,New rule: Press 'space' when you see 2-back (i.e. the same letter as the one that appeared 2 letters ago.),q,None,,,,,,,,,0,7,7,7,0,0,0,0,,,,,,,,,,,,,,,,,,,,,,,,,,,,,,,,,,,,,,,,,,,,,,,,,,,,,,,,,,,608.7525082,None,611.7370764,None,space,0.3198902,611.7370764,None,608.7525082,None,1.1154,613.2009096,None,None,1,613.2009096,None,,P029,FENCOG,1,Post,2022_Mar_17_1204,N-Back (New Version 2021),2021.1.4,120.128201
,,,,Conditions/Version_1/twoback(2)_v1.xlsx,New rule: Press 'space' when you see 2-back (i.e. the same letter as the one that appeared 2 letters ago.),r,None,,,,,,,,,0,7,7,7,0,1,1,1,,,,,,,,,,,,,,,,,,,,,,,,,,,,,,,,,,,,,,,,,,,,,,,,,,,,,,,,,,,,,,,,,,,,,1.5866,616.7922048,None,None,1,616.7922048,None,,P029,FENCOG,1,Post,2022_Mar_17_1204,N-Back (New Version 2021),2021.1.4,120.128201
,,,,Conditions/Version_1/twoback(2)_v1.xlsx,New rule: Press 'space' when you see 2-back (i.e. the same letter as the one that appeared 2 letters ago.),q,space,,,,,,,,,0,7,7,7,0,2,2,2,,,,,,,,,,,,,,,,,,,,,,,,,,,,,,,,,,,,,,,,,,,,,,,,,,,,,,,,,,,,,,,,,,,,,1.537,620.3402358,None,space,1,620.3402358,None,0.7088956,P029,FENCOG,1,Post,2022_Mar_17_1204,N-Back (New Version 2021),2021.1.4,120.128201
,,,,Conditions/Version_1/twoback(2)_v1.xlsx,New rule: Press 'space' when you see 2-back (i.e. the same letter as the one that appeared 2 letters ago.),P,None,,,,,,,,,0,7,7,7,0,3,3,3,,,,,,,,,,,,,,,,,,,,,,,,,,,,,,,,,,,,,,,,,,,,,,,,,,,,,,,,,,,,,,,,,,,,,1.599,623.943911,None,None,1,623.943911,None,,P029,FENCOG,1,Post,2022_Mar_17_1204,N-Back (New Version 2021),2021.1.4,120.128201
,,,,Conditions/Version_1/twoback(2)_v1.xlsx,New rule: Press 'space' when you see 2-back (i.e. the same letter as the one that appeared 2 letters ago.),p,None,,,,,,,,,0,7,7,7,0,4,4,4,,,,,,,,,,,,,,,,,,,,,,,,,,,,,,,,,,,,,,,,,,,,,,,,,,,,,,,,,,,,,,,,,,,,,1.7354,627.6908758,None,None,1,627.6908758,None,,P029,FENCOG,1,Post,2022_Mar_17_1204,N-Back (New Version 2021),2021.1.4,120.128201
,,,,Conditions/Version_1/twoback(2)_v1.xlsx,New rule: Press 'space' when you see 2-back (i.e. the same letter as the one that appeared 2 letters ago.),H,None,,,,,,,,,0,7,7,7,0,5,5,5,,,,,,,,,,,,,,,,,,,,,,,,,,,,,,,,,,,,,,,,,,,,,,,,,,,,,,,,,,,,,,,,,,,,,1.4378,631.1371092,None,None,1,631.1371092,None,,P029,FENCOG,1,Post,2022_Mar_17_1204,N-Back (New Version 2021),2021.1.4,120.128201
,,,,Conditions/Version_1/twoback(2)_v1.xlsx,New rule: Press 'space' when you see 2-back (i.e. the same letter as the one that appeared 2 letters ago.),g,None,,,,,,,,,0,7,7,7,0,6,6,6,,,,,,,,,,,,,,,,,,,,,,,,,,,,,,,,,,,,,,,,,,,,,,,,,,,,,,,,,,,,,,,,,,,,,1.2766,634.4194058,None,None,1,634.4194058,None,,P029,FENCOG,1,Post,2022_Mar_17_1204,N-Back (New Version 2021),2021.1.4,120.128201
,,,,Conditions/Version_1/twoback(2)_v1.xlsx,New rule: Press 'space' when you see 2-back (i.e. the same letter as the one that appeared 2 letters ago.),j,None,,,,,,,,,0,7,7,7,0,7,7,7,,,,,,,,,,,,,,,,,,,,,,,,,,,,,,,,,,,,,,,,,,,,,,,,,,,,,,,,,,,,,,,,,,,,,1.7478,638.1702521,None,None,1,638.1702521,None,,P029,FENCOG,1,Post,2022_Mar_17_1204,N-Back (New Version 2021),2021.1.4,120.128201
,,,,Conditions/Version_1/twoback(2)_v1.xlsx,New rule: Press 'space' when you see 2-back (i.e. the same letter as the one that appeared 2 letters ago.),g,space,,,,,,,,,0,7,7,7,0,8,8,8,,,,,,,,,,,,,,,,,,,,,,,,,,,,,,,,,,,,,,,,,,,,,,,,,,,,,,,,,,,,,,,,,,,,,1.0906,641.2673895,None,space,1,641.2673895,None,0.5015849,P029,FENCOG,1,Post,2022_Mar_17_1204,N-Back (New Version 2021),2021.1.4,120.128201
,,,,Conditions/Version_1/twoback(2)_v1.xlsx,New rule: Press 'space' when you see 2-back (i.e. the same letter as the one that appeared 2 letters ago.),G,None,,,,,,,,,0,7,7,7,0,9,9,9,,,,,,,,,,,,,,,,,,,,,,,,,,,,,,,,,,,,,,,,,,,,,,,,,,,,,,,,,,,,,,,,,,,,,1.2208,644.4951125,None,None,1,644.4951125,None,,P029,FENCOG,1,Post,2022_Mar_17_1204,N-Back (New Version 2021),2021.1.4,120.128201
,,,,Conditions/Version_1/twoback(2)_v1.xlsx,New rule: Press 'space' when you see 2-back (i.e. the same letter as the one that appeared 2 letters ago.),,,,,,,,,,,0,7,7,7,,,,,,,,,,,,,,,,,,,,,,,,,,,,,,,,,,,,,,,,,,,,,,,,,,,,,,,,,,,,,,,,,,,,,,,,,,,,,,,,,P029,FENCOG,1,Post,2022_Mar_17_1204,N-Back (New Version 2021),2021.1.4,120.128201
,,,,Conditions/Version_1/threeback(3)_v1.xlsx,New rule: Press 'space' when you see 3-back (i.e. the same letter as the one that appeared 3 letters ago.),w,None,,,,,,,,,0,8,8,8,0,0,0,0,,,,,,,,,,,,,,,,,,,,,,,,,,,,,,,,,,,,,,,,,,,,,,,,,,,,,,,,,,,646.5283343,None,649.5180295,None,space,0.5868744,649.5180295,None,646.5283343,None,1.5866,651.7155392,None,None,1,651.7155392,None,,P029,FENCOG,1,Post,2022_Mar_17_1204,N-Back (New Version 2021),2021.1.4,120.128201
,,,,Conditions/Version_1/threeback(3)_v1.xlsx,New rule: Press 'space' when you see 3-back (i.e. the same letter as the one that appeared 3 letters ago.),p,None,,,,,,,,,0,8,8,8,0,1,1,1,,,,,,,,,,,,,,,,,,,,,,,,,,,,,,,,,,,,,,,,,,,,,,,,,,,,,,,,,,,,,,,,,,,,,1.2828,655.0057891,None,None,1,655.0057891,None,,P029,FENCOG,1,Post,2022_Mar_17_1204,N-Back (New Version 2021),2021.1.4,120.128201
,,,,Conditions/Version_1/threeback(3)_v1.xlsx,New rule: Press 'space' when you see 3-back (i.e. the same letter as the one that appeared 3 letters ago.),P,None,,,,,,,,,0,8,8,8,0,2,2,2,,,,,,,,,,,,,,,,,,,,,,,,,,,,,,,,,,,,,,,,,,,,,,,,,,,,,,,,,,,,,,,,,,,,,1.196,658.2135795,None,None,1,658.2135795,None,,P029,FENCOG,1,Post,2022_Mar_17_1204,N-Back (New Version 2021),2021.1.4,120.128201
,,,,Conditions/Version_1/threeback(3)_v1.xlsx,New rule: Press 'space' when you see 3-back (i.e. the same letter as the one that appeared 3 letters ago.),i,None,,,,,,,,,0,8,8,8,0,3,3,3,,,,,,,,,,,,,,,,,,,,,,,,,,,,,,,,,,,,,,,,,,,,,,,,,,,,,,,,,,,,,,,,,,,,,1.0596,661.2897341,None,None,1,661.2897341,None,,P029,FENCOG,1,Post,2022_Mar_17_1204,N-Back (New Version 2021),2021.1.4,120.128201
,,,,Conditions/Version_1/threeback(3)_v1.xlsx,New rule: Press 'space' when you see 3-back (i.e. the same letter as the one that appeared 3 letters ago.),f,None,,,,,,,,,0,8,8,8,0,4,4,4,,,,,,,,,,,,,,,,,,,,,,,,,,,,,,,,,,,,,,,,,,,,,,,,,,,,,,,,,,,,,,,,,,,,,1.1774,664.4773412,None,None,1,664.4773412,None,,P029,FENCOG,1,Post,2022_Mar_17_1204,N-Back (New Version 2021),2021.1.4,120.128201
,,,,Conditions/Version_1/threeback(3)_v1.xlsx,New rule: Press 'space' when you see 3-back (i.e. the same letter as the one that appeared 3 letters ago.),o,None,,,,,,,,,0,8,8,8,0,5,5,5,,,,,,,,,,,,,,,,,,,,,,,,,,,,,,,,,,,,,,,,,,,,,,,,,,,,,,,,,,,,,,,,,,,,,1.2084,667.6847907,None,None,1,667.6847907,None,,P029,FENCOG,1,Post,2022_Mar_17_1204,N-Back (New Version 2021),2021.1.4,120.128201
,,,,Conditions/Version_1/threeback(3)_v1.xlsx,New rule: Press 'space' when you see 3-back (i.e. the same letter as the one that appeared 3 letters ago.),w,None,,,,,,,,,0,8,8,8,0,6,6,6,,,,,,,,,,,,,,,,,,,,,,,,,,,,,,,,,,,,,,,,,,,,,,,,,,,,,,,,,,,,,,,,,,,,,1.4998,671.1837147,None,None,1,671.1837147,None,,P029,FENCOG,1,Post,2022_Mar_17_1204,N-Back (New Version 2021),2021.1.4,120.128201
,,,,Conditions/Version_1/threeback(3)_v1.xlsx,New rule: Press 'space' when you see 3-back (i.e. the same letter as the one that appeared 3 letters ago.),F,space,,,,,,,,,0,8,8,8,0,7,7,7,,,,,,,,,,,,,,,,,,,,,,,,,,,,,,,,,,,,,,,,,,,,,,,,,,,,,,,,,,,,,,,,,,,,,1.6982,674.8848789,None,space,1,674.8848789,None,0.6361856,P029,FENCOG,1,Post,2022_Mar_17_1204,N-Back (New Version 2021),2021.1.4,120.128201
,,,,Conditions/Version_1/threeback(3)_v1.xlsx,New rule: Press 'space' when you see 3-back (i.e. the same letter as the one that appeared 3 letters ago.),p,None,,,,,,,,,0,8,8,8,0,8,8,8,,,,,,,,,,,,,,,,,,,,,,,,,,,,,,,,,,,,,,,,,,,,,,,,,,,,,,,,,,,,,,,,,,,,,1.1464,678.0399473,None,None,1,678.0399473,None,,P029,FENCOG,1,Post,2022_Mar_17_1204,N-Back (New Version 2021),2021.1.4,120.128201
,,,,Conditions/Version_1/threeback(3)_v1.xlsx,New rule: Press 'space' when you see 3-back (i.e. the same letter as the one that appeared 3 letters ago.),W,space,,,,,,,,,0,8,8,8,0,9,9,9,,,,,,,,,,,,,,,,,,,,,,,,,,,,,,,,,,,,,,,,,,,,,,,,,,,,,,,,,,,,,,,,,,,,,1.9338,681.9804034,None,space,1,681.9804034,None,0.6448043,P029,FENCOG,1,Post,2022_Mar_17_1204,N-Back (New Version 2021),2021.1.4,120.128201
,,,,Conditions/Version_1/threeback(3)_v1.xlsx,New rule: Press 'space' when you see 3-back (i.e. the same letter as the one that appeared 3 letters ago.),,,,,,,,,,,0,8,8,8,,,,,,,,,,,,,,,,,,,,,,,,,,,,,,,,,,,,,,,,,,,,,,,,,,,,,,,,,,,,,,,,,,,,,,,,,,,,,,,,,P029,FENCOG,1,Post,2022_Mar_17_1204,N-Back (New Version 2021),2021.1.4,120.128201
,,,,Conditions/Version_1/zeroback(3)_v1.xlsx,New rule: Press 'space' when you see the letter 'x' or 'X'.,X,space,,,,,,,,,0,9,9,9,0,0,0,0,,,,,,,,,,,,,,,,,,,,,,,,,,,,,,,,,,,,,,,,,,,,,,,,,,,,,,,,,,,684.0054816,None,686.9936117,None,space,0.6153593,686.9936117,None,684.0054816,None,1.4316,689.0703219,None,space,1,689.0703219,None,0.7864907,P029,FENCOG,1,Post,2022_Mar_17_1204,N-Back (New Version 2021),2021.1.4,120.128201
,,,,Conditions/Version_1/zeroback(3)_v1.xlsx,New rule: Press 'space' when you see the letter 'x' or 'X'.,B,None,,,,,,,,,0,9,9,9,0,1,1,1,,,,,,,,,,,,,,,,,,,,,,,,,,,,,,,,,,,,,,,,,,,,,,,,,,,,,,,,,,,,,,,,,,,,,1.847,692.9217454,None,None,1,692.9217454,None,,P029,FENCOG,1,Post,2022_Mar_17_1204,N-Back (New Version 2021),2021.1.4,120.128201
,,,,Conditions/Version_1/zeroback(3)_v1.xlsx,New rule: Press 'space' when you see the letter 'x' or 'X'.,m,None,,,,,,,,,0,9,9,9,0,2,2,2,,,,,,,,,,,,,,,,,,,,,,,,,,,,,,,,,,,,,,,,,,,,,,,,,,,,,,,,,,,,,,,,,,,,,1.8594,696.7926956,None,None,1,696.7926956,None,,P029,FENCOG,1,Post,2022_Mar_17_1204,N-Back (New Version 2021),2021.1.4,120.128201
,,,,Conditions/Version_1/zeroback(3)_v1.xlsx,New rule: Press 'space' when you see the letter 'x' or 'X'.,m,None,,,,,,,,,0,9,9,9,0,3,3,3,,,,,,,,,,,,,,,,,,,,,,,,,,,,,,,,,,,,,,,,,,,,,,,,,,,,,,,,,,,,,,,,,,,,,1.5122,700.308459,None,None,1,700.308459,None,,P029,FENCOG,1,Post,2022_Mar_17_1204,N-Back (New Version 2021),2021.1.4,120.128201
,,,,Conditions/Version_1/zeroback(3)_v1.xlsx,New rule: Press 'space' when you see the letter 'x' or 'X'.,o,None,,,,,,,,,0,9,9,9,0,4,4,4,,,,,,,,,,,,,,,,,,,,,,,,,,,,,,,,,,,,,,,,,,,,,,,,,,,,,,,,,,,,,,,,,,,,,1.6672,703.9740165,None,None,1,703.9740165,None,,P029,FENCOG,1,Post,2022_Mar_17_1204,N-Back (New Version 2021),2021.1.4,120.128201
,,,,Conditions/Version_1/zeroback(3)_v1.xlsx,New rule: Press 'space' when you see the letter 'x' or 'X'.,p,None,,,,,,,,,0,9,9,9,0,5,5,5,,,,,,,,,,,,,,,,,,,,,,,,,,,,,,,,,,,,,,,,,,,,,,,,,,,,,,,,,,,,,,,,,,,,,1.63,707.6061614,None,None,1,707.6061614,None,,P029,FENCOG,1,Post,2022_Mar_17_1204,N-Back (New Version 2021),2021.1.4,120.128201
,,,,Conditions/Version_1/zeroback(3)_v1.xlsx,New rule: Press 'space' when you see the letter 'x' or 'X'.,G,None,,,,,,,,,0,9,9,9,0,6,6,6,,,,,,,,,,,,,,,,,,,,,,,,,,,,,,,,,,,,,,,,,,,,,,,,,,,,,,,,,,,,,,,,,,,,,1.0224,710.630292,None,None,1,710.630292,None,,P029,FENCOG,1,Post,2022_Mar_17_1204,N-Back (New Version 2021),2021.1.4,120.128201
,,,,Conditions/Version_1/zeroback(3)_v1.xlsx,New rule: Press 'space' when you see the letter 'x' or 'X'.,X,space,,,,,,,,,0,9,9,9,0,7,7,7,,,,,,,,,,,,,,,,,,,,,,,,,,,,,,,,,,,,,,,,,,,,,,,,,,,,,,,,,,,,,,,,,,,,,1.9276,714.5637022,None,space,1,714.5637022,None,0.5973174,P029,FENCOG,1,Post,2022_Mar_17_1204,N-Back (New Version 2021),2021.1.4,120.128201
,,,,Conditions/Version_1/zeroback(3)_v1.xlsx,New rule: Press 'space' when you see the letter 'x' or 'X'.,p,None,,,,,,,,,0,9,9,9,0,8,8,8,,,,,,,,,,,,,,,,,,,,,,,,,,,,,,,,,,,,,,,,,,,,,,,,,,,,,,,,,,,,,,,,,,,,,1.8036,718.3823327,None,None,1,718.3823327,None,,P029,FENCOG,1,Post,2022_Mar_17_1204,N-Back (New Version 2021),2021.1.4,120.128201
,,,,Conditions/Version_1/zeroback(3)_v1.xlsx,New rule: Press 'space' when you see the letter 'x' or 'X'.,x,space,,,,,,,,,0,9,9,9,0,9,9,9,,,,,,,,,,,,,,,,,,,,,,,,,,,,,,,,,,,,,,,,,,,,,,,,,,,,,,,,,,,,,,,,,,,,,1.94,722.3287608,None,space,1,722.3287608,None,0.656379,P029,FENCOG,1,Post,2022_Mar_17_1204,N-Back (New Version 2021),2021.1.4,120.128201
,,,,Conditions/Version_1/zeroback(3)_v1.xlsx,New rule: Press 'space' when you see the letter 'x' or 'X'.,,,,,,,,,,,0,9,9,9,,,,,,,,,,,,,,,,,,,,,,,,,,,,,,,,,,,,,,,,,,,,,,,,,,,,,,,,,,,,,,,,,,,,,,,,,,,,,,,,,P029,FENCOG,1,Post,2022_Mar_17_1204,N-Back (New Version 2021),2021.1.4,120.128201
,,,,Conditions/Version_1/twoback(3)_v1.xlsx,New rule: Press 'space' when you see 2-back (i.e. the same letter as the one that appeared 2 letters ago.),e,None,,,,,,,,,0,10,10,10,0,0,0,0,,,,,,,,,,,,,,,,,,,,,,,,,,,,,,,,,,,,,,,,,,,,,,,,,,,,,,,,,,,724.3580744,None,727.3446179,None,space,79.4484849,727.3446179,None,724.3580744,None,1.0534,807.8686947,None,None,1,807.8686947,None,,P029,FENCOG,1,Post,2022_Mar_17_1204,N-Back (New Version 2021),2021.1.4,120.128201
,,,,Conditions/Version_1/twoback(3)_v1.xlsx,New rule: Press 'space' when you see 2-back (i.e. the same letter as the one that appeared 2 letters ago.),o,None,,,,,,,,,0,10,10,10,0,1,1,1,,,,,,,,,,,,,,,,,,,,,,,,,,,,,,,,,,,,,,,,,,,,,,,,,,,,,,,,,,,,,,,,,,,,,1.3386,811.2102965,None,None,1,811.2102965,None,,P029,FENCOG,1,Post,2022_Mar_17_1204,N-Back (New Version 2021),2021.1.4,120.128201
,,,,Conditions/Version_1/twoback(3)_v1.xlsx,New rule: Press 'space' when you see 2-back (i.e. the same letter as the one that appeared 2 letters ago.),P,None,,,,,,,,,0,10,10,10,0,2,2,2,,,,,,,,,,,,,,,,,,,,,,,,,,,,,,,,,,,,,,,,,,,,,,,,,,,,,,,,,,,,,,,,,,,,,1.9648,815.1855825,None,None,1,815.1855825,None,,P029,FENCOG,1,Post,2022_Mar_17_1204,N-Back (New Version 2021),2021.1.4,120.128201
,,,,Conditions/Version_1/twoback(3)_v1.xlsx,New rule: Press 'space' when you see 2-back (i.e. the same letter as the one that appeared 2 letters ago.),z,None,,,,,,,,,0,10,10,10,0,3,3,3,,,,,,,,,,,,,,,,,,,,,,,,,,,,,,,,,,,,,,,,,,,,,,,,,,,,,,,,,,,,,,,,,,,,,1.506,818.7014083,None,None,1,818.7014083,None,,P029,FENCOG,1,Post,2022_Mar_17_1204,N-Back (New Version 2021),2021.1.4,120.128201
,,,,Conditions/Version_1/twoback(3)_v1.xlsx,New rule: Press 'space' when you see 2-back (i.e. the same letter as the one that appeared 2 letters ago.),X,None,,,,,,,,,0,10,10,10,0,4,4,4,,,,,,,,,,,,,,,,,,,,,,,,,,,,,,,,,,,,,,,,,,,,,,,,,,,,,,,,,,,,,,,,,,,,,1.2952,822.0057866,None,None,1,822.0057866,None,,P029,FENCOG,1,Post,2022_Mar_17_1204,N-Back (New Version 2021),2021.1.4,120.128201
,,,,Conditions/Version_1/twoback(3)_v1.xlsx,New rule: Press 'space' when you see 2-back (i.e. the same letter as the one that appeared 2 letters ago.),z,space,,,,,,,,,0,10,10,10,0,5,5,5,,,,,,,,,,,,,,,,,,,,,,,,,,,,,,,,,,,,,,,,,,,,,,,,,,,,,,,,,,,,,,,,,,,,,1.3572,825.3644201,None,space,1,825.3644201,None,0.6284918,P029,FENCOG,1,Post,2022_Mar_17_1204,N-Back (New Version 2021),2021.1.4,120.128201
,,,,Conditions/Version_1/twoback(3)_v1.xlsx,New rule: Press 'space' when you see 2-back (i.e. the same letter as the one that appeared 2 letters ago.),x,space,,,,,,,,,0,10,10,10,0,6,6,6,,,,,,,,,,,,,,,,,,,,,,,,,,,,,,,,,,,,,,,,,,,,,,,,,,,,,,,,,,,,,,,,,,,,,1.2642,828.6375194,None,space,1,828.6375194,None,0.7392963,P029,FENCOG,1,Post,2022_Mar_17_1204,N-Back (New Version 2021),2021.1.4,120.128201
,,,,Conditions/Version_1/twoback(3)_v1.xlsx,New rule: Press 'space' when you see 2-back (i.e. the same letter as the one that appeared 2 letters ago.),c,None,,,,,,,,,0,10,10,10,0,7,7,7,,,,,,,,,,,,,,,,,,,,,,,,,,,,,,,,,,,,,,,,,,,,,,,,,,,,,,,,,,,,,,,,,,,,,1.4812,832.1196804,None,None,1,832.1196804,None,,P029,FENCOG,1,Post,2022_Mar_17_1204,N-Back (New Version 2021),2021.1.4,120.128201
,,,,Conditions/Version_1/twoback(3)_v1.xlsx,New rule: Press 'space' when you see 2-back (i.e. the same letter as the one that appeared 2 letters ago.),i,None,,,,,,,,,0,10,10,10,0,8,8,8,,,,,,,,,,,,,,,,,,,,,,,,,,,,,,,,,,,,,,,,,,,,,,,,,,,,,,,,,,,,,,,,,,,,,1.4316,835.5529021,None,None,1,835.5529021,None,,P029,FENCOG,1,Post,2022_Mar_17_1204,N-Back (New Version 2021),2021.1.4,120.128201
,,,,Conditions/Version_1/twoback(3)_v1.xlsx,New rule: Press 'space' when you see 2-back (i.e. the same letter as the one that appeared 2 letters ago.),C,space,,,,,,,,,0,10,10,10,0,9,9,9,,,,,,,,,,,,,,,,,,,,,,,,,,,,,,,,,,,,,,,,,,,,,,,,,,,,,,,,,,,,,,,,,,,,,1.754,839.3184958,None,space,1,839.3184958,None,0.5465671,P029,FENCOG,1,Post,2022_Mar_17_1204,N-Back (New Version 2021),2021.1.4,120.128201
,,,,Conditions/Version_1/twoback(3)_v1.xlsx,New rule: Press 'space' when you see 2-back (i.e. the same letter as the one that appeared 2 letters ago.),,,,,,,,,,,0,10,10,10,,,,,,,,,,,,,,,,,,,,,,,,,,,,,,,,,,,,,,,,,,,,,,,,,,,,,,,,,,,,,,,,,,,,,,,,,,,,,,,,,P029,FENCOG,1,Post,2022_Mar_17_1204,N-Back (New Version 2021),2021.1.4,120.128201
,,,,Conditions/Version_1/oneback(3)_v1.xlsx,New rule: Press 'space' when you see 1-back (i.e. the same letter as the one that appeared 1 letter ago.),o,None,,,,,,,,,0,11,11,11,0,0,0,0,,,,,,,,,,,,,,,,,,,,,,,,,,,,,,,,,,,,,,,,,,,,,,,,,,,,,,,,,,,841.3482014,None,844.3361396,None,space,0.5207218,844.3361396,None,841.3482014,None,1.6238,846.5081349,None,None,1,846.5081349,None,,P029,FENCOG,1,Post,2022_Mar_17_1204,N-Back (New Version 2021),2021.1.4,120.128201
,,,,Conditions/Version_1/oneback(3)_v1.xlsx,New rule: Press 'space' when you see 1-back (i.e. the same letter as the one that appeared 1 letter ago.),O,space,,,,,,,,,0,11,11,11,0,1,1,1,,,,,,,,,,,,,,,,,,,,,,,,,,,,,,,,,,,,,,,,,,,,,,,,,,,,,,,,,,,,,,,,,,,,,1.754,850.2742414,None,space,1,850.2742414,None,0.6870075,P029,FENCOG,1,Post,2022_Mar_17_1204,N-Back (New Version 2021),2021.1.4,120.128201
,,,,Conditions/Version_1/oneback(3)_v1.xlsx,New rule: Press 'space' when you see 1-back (i.e. the same letter as the one that appeared 1 letter ago.),h,None,,,,,,,,,0,11,11,11,0,2,2,2,,,,,,,,,,,,,,,,,,,,,,,,,,,,,,,,,,,,,,,,,,,,,,,,,,,,,,,,,,,,,,,,,,,,,1.4316,853.713084,None,None,1,853.713084,None,,P029,FENCOG,1,Post,2022_Mar_17_1204,N-Back (New Version 2021),2021.1.4,120.128201
,,,,Conditions/Version_1/oneback(3)_v1.xlsx,New rule: Press 'space' when you see 1-back (i.e. the same letter as the one that appeared 1 letter ago.),g,None,,,,,,,,,0,11,11,11,0,3,3,3,,,,,,,,,,,,,,,,,,,,,,,,,,,,,,,,,,,,,,,,,,,,,,,,,,,,,,,,,,,,,,,,,,,,,1.5742,857.2869945,None,None,1,857.2869945,None,,P029,FENCOG,1,Post,2022_Mar_17_1204,N-Back (New Version 2021),2021.1.4,120.128201
,,,,Conditions/Version_1/oneback(3)_v1.xlsx,New rule: Press 'space' when you see 1-back (i.e. the same letter as the one that appeared 1 letter ago.),n,None,,,,,,,,,0,11,11,11,0,4,4,4,,,,,,,,,,,,,,,,,,,,,,,,,,,,,,,,,,,,,,,,,,,,,,,,,,,,,,,,,,,,,,,,,,,,,1.3944,860.6860255,None,None,1,860.6860255,None,,P029,FENCOG,1,Post,2022_Mar_17_1204,N-Back (New Version 2021),2021.1.4,120.128201
,,,,Conditions/Version_1/oneback(3)_v1.xlsx,New rule: Press 'space' when you see 1-back (i.e. the same letter as the one that appeared 1 letter ago.),z,None,,,,,,,,,0,11,11,11,0,5,5,5,,,,,,,,,,,,,,,,,,,,,,,,,,,,,,,,,,,,,,,,,,,,,,,,,,,,,,,,,,,,,,,,,,,,,1.4502,864.1350055,None,None,1,864.1350055,None,,P029,FENCOG,1,Post,2022_Mar_17_1204,N-Back (New Version 2021),2021.1.4,120.128201
,,,,Conditions/Version_1/oneback(3)_v1.xlsx,New rule: Press 'space' when you see 1-back (i.e. the same letter as the one that appeared 1 letter ago.),X,None,,,,,,,,,0,11,11,11,0,6,6,6,,,,,,,,,,,,,,,,,,,,,,,,,,,,,,,,,,,,,,,,,,,,,,,,,,,,,,,,,,,,,,,,,,,,,1.1402,867.2770033,None,None,1,867.2770033,None,,P029,FENCOG,1,Post,2022_Mar_17_1204,N-Back (New Version 2021),2021.1.4,120.128201
,,,,Conditions/Version_1/oneback(3)_v1.xlsx,New rule: Press 'space' when you see 1-back (i.e. the same letter as the one that appeared 1 letter ago.),r,None,,,,,,,,,0,11,11,11,0,7,7,7,,,,,,,,,,,,,,,,,,,,,,,,,,,,,,,,,,,,,,,,,,,,,,,,,,,,,,,,,,,,,,,,,,,,,1.3572,870.6414611,None,None,1,870.6414611,None,,P029,FENCOG,1,Post,2022_Mar_17_1204,N-Back (New Version 2021),2021.1.4,120.128201
,,,,Conditions/Version_1/oneback(3)_v1.xlsx,New rule: Press 'space' when you see 1-back (i.e. the same letter as the one that appeared 1 letter ago.),r,space,,,,,,,,,0,11,11,11,0,8,8,8,,,,,,,,,,,,,,,,,,,,,,,,,,,,,,,,,,,,,,,,,,,,,,,,,,,,,,,,,,,,,,,,,,,,,1.723,874.3654998,None,space,1,874.3654998,None,0.651579,P029,FENCOG,1,Post,2022_Mar_17_1204,N-Back (New Version 2021),2021.1.4,120.128201
,,,,Conditions/Version_1/oneback(3)_v1.xlsx,New rule: Press 'space' when you see 1-back (i.e. the same letter as the one that appeared 1 letter ago.),P,None,,,,,,,,,0,11,11,11,0,9,9,9,,,,,,,,,,,,,,,,,,,,,,,,,,,,,,,,,,,,,,,,,,,,,,,,,,,,,,,,,,,,,,,,,,,,,1.7726,878.1408259,None,None,1,878.1408259,None,,P029,FENCOG,1,Post,2022_Mar_17_1204,N-Back (New Version 2021),2021.1.4,120.128201
,,,,Conditions/Version_1/oneback(3)_v1.xlsx,New rule: Press 'space' when you see 1-back (i.e. the same letter as the one that appeared 1 letter ago.),,,,,,,,,,,0,11,11,11,,,,,,,,,,,,,,,,,,,,,,,,,,,,,,,,,,,,,,,,,,,,,,,,,,,,,,,,,,,,,,,,,,,,,,,,,,,,,,,,,P029,FENCOG,1,Post,2022_Mar_17_1204,N-Back (New Version 2021),2021.1.4,120.128201
,,,,Conditions/Version_1/twoback(4)_v1.xlsx,New rule: Press 'space' when you see 2-back (i.e. the same letter as the one that appeared 2 letters ago.),r,None,,,,,,,,,0,12,12,12,0,0,0,0,,,,,,,,,,,,,,,,,,,,,,,,,,,,,,,,,,,,,,,,,,,,,,,,,,,,,,,,,,,880.1701733,None,883.1566496,None,space,0.3405019,883.1566496,None,880.1701733,None,1.4936,885.0620723,None,None,1,885.0620723,None,,P029,FENCOG,1,Post,2022_Mar_17_1204,N-Back (New Version 2021),2021.1.4,120.128201
,,,,Conditions/Version_1/twoback(4)_v1.xlsx,New rule: Press 'space' when you see 2-back (i.e. the same letter as the one that appeared 2 letters ago.),T,None,,,,,,,,,0,12,12,12,0,1,1,1,,,,,,,,,,,,,,,,,,,,,,,,,,,,,,,,,,,,,,,,,,,,,,,,,,,,,,,,,,,,,,,,,,,,,1.847,888.9111915,None,None,1,888.9111915,None,,P029,FENCOG,1,Post,2022_Mar_17_1204,N-Back (New Version 2021),2021.1.4,120.128201
,,,,Conditions/Version_1/twoback(4)_v1.xlsx,New rule: Press 'space' when you see 2-back (i.e. the same letter as the one that appeared 2 letters ago.),o,None,,,,,,,,,0,12,12,12,0,2,2,2,,,,,,,,,,,,,,,,,,,,,,,,,,,,,,,,,,,,,,,,,,,,,,,,,,,,,,,,,,,,,,,,,,,,,1.5618,892.4769612,None,None,1,892.4769612,None,,P029,FENCOG,1,Post,2022_Mar_17_1204,N-Back (New Version 2021),2021.1.4,120.128201
,,,,Conditions/Version_1/twoback(4)_v1.xlsx,New rule: Press 'space' when you see 2-back (i.e. the same letter as the one that appeared 2 letters ago.),p,None,,,,,,,,,0,12,12,12,0,3,3,3,,,,,,,,,,,,,,,,,,,,,,,,,,,,,,,,,,,,,,,,,,,,,,,,,,,,,,,,,,,,,,,,,,,,,1.3944,895.8756426,None,None,1,895.8756426,None,,P029,FENCOG,1,Post,2022_Mar_17_1204,N-Back (New Version 2021),2021.1.4,120.128201
,,,,Conditions/Version_1/twoback(4)_v1.xlsx,New rule: Press 'space' when you see 2-back (i.e. the same letter as the one that appeared 2 letters ago.),p,None,,,,,,,,,0,12,12,12,0,4,4,4,,,,,,,,,,,,,,,,,,,,,,,,,,,,,,,,,,,,,,,,,,,,,,,,,,,,,,,,,,,,,,,,,,,,,1.878,899.7581754,None,None,1,899.7581754,None,,P029,FENCOG,1,Post,2022_Mar_17_1204,N-Back (New Version 2021),2021.1.4,120.128201
,,,,Conditions/Version_1/twoback(4)_v1.xlsx,New rule: Press 'space' when you see 2-back (i.e. the same letter as the one that appeared 2 letters ago.),y,None,,,,,,,,,0,12,12,12,0,5,5,5,,,,,,,,,,,,,,,,,,,,,,,,,,,,,,,,,,,,,,,,,,,,,,,,,,,,,,,,,,,,,,,,,,,,,1.909,903.676137,None,None,1,903.676137,None,,P029,FENCOG,1,Post,2022_Mar_17_1204,N-Back (New Version 2021),2021.1.4,120.128201
,,,,Conditions/Version_1/twoback(4)_v1.xlsx,New rule: Press 'space' when you see 2-back (i.e. the same letter as the one that appeared 2 letters ago.),P,space,,,,,,,,,0,12,12,12,0,6,6,6,,,,,,,,,,,,,,,,,,,,,,,,,,,,,,,,,,,,,,,,,,,,,,,,,,,,,,,,,,,,,,,,,,,,,1.568,907.2589619,None,space,1,907.2589619,None,0.5740477,P029,FENCOG,1,Post,2022_Mar_17_1204,N-Back (New Version 2021),2021.1.4,120.128201
,,,,Conditions/Version_1/twoback(4)_v1.xlsx,New rule: Press 'space' when you see 2-back (i.e. the same letter as the one that appeared 2 letters ago.),y,None,,,,,,,,,0,12,12,12,0,7,7,7,,,,,,,,,,,,,,,,,,,,,,,,,,,,,,,,,,,,,,,,,,,,,,,,,,,,,,,,,,,,,,,,,,,,,1.413,910.6797748,None,space,0,910.6797748,None,1.8811662,P029,FENCOG,1,Post,2022_Mar_17_1204,N-Back (New Version 2021),2021.1.4,120.128201
,,,,Conditions/Version_1/twoback(4)_v1.xlsx,New rule: Press 'space' when you see 2-back (i.e. the same letter as the one that appeared 2 letters ago.),y,space,,,,,,,,,0,12,12,12,0,8,8,8,,,,,,,,,,,,,,,,,,,,,,,,,,,,,,,,,,,,,,,,,,,,,,,,,,,,,,,,,,,,,,,,,,,,,1.2642,913.9453403,None,None,0,913.9453403,None,,P029,FENCOG,1,Post,2022_Mar_17_1204,N-Back (New Version 2021),2021.1.4,120.128201
,,,,Conditions/Version_1/twoback(4)_v1.xlsx,New rule: Press 'space' when you see 2-back (i.e. the same letter as the one that appeared 2 letters ago.),,,,,,,,,,,0,12,12,12,,,,,,,,,,,,,,,,,,,,,,,,,,,,,,,,,,,,,,,,,,,,,,,,,,,,,,,,,,,,,,,,,,,,,,,,,,,,,,,,,P029,FENCOG,1,Post,2022_Mar_17_1204,N-Back (New Version 2021),2021.1.4,120.128201
,,,,Conditions/Version_1/zeroback(4)_v1.xlsx,New rule: Press 'space' when you see the letter 'x' or 'X'.,o,None,,,,,,,,,0,13,13,13,0,0,0,0,,,,,,,,,,,,,,,,,,,,,,,,,,,,,,,,,,,,,,,,,,,,,,,,,,,,,,,,,,,915.9639055,None,918.9458449,None,space,0.6469987,918.9458449,None,915.9639055,None,1.3634,920.9850333,None,None,1,920.9850333,None,,P029,FENCOG,1,Post,2022_Mar_17_1204,N-Back (New Version 2021),2021.1.4,120.128201
,,,,Conditions/Version_1/zeroback(4)_v1.xlsx,New rule: Press 'space' when you see the letter 'x' or 'X'.,X,space,,,,,,,,,0,13,13,13,0,1,1,1,,,,,,,,,,,,,,,,,,,,,,,,,,,,,,,,,,,,,,,,,,,,,,,,,,,,,,,,,,,,,,,,,,,,,1.5556,924.5509549,None,space,1,924.5509549,None,0.4979262,P029,FENCOG,1,Post,2022_Mar_17_1204,N-Back (New Version 2021),2021.1.4,120.128201
,,,,Conditions/Version_1/zeroback(4)_v1.xlsx,New rule: Press 'space' when you see the letter 'x' or 'X'.,p,None,,,,,,,,,0,13,13,13,0,2,2,2,,,,,,,,,,,,,,,,,,,,,,,,,,,,,,,,,,,,,,,,,,,,,,,,,,,,,,,,,,,,,,,,,,,,,1.4564,928.0176042,None,None,1,928.0176042,None,,P029,FENCOG,1,Post,2022_Mar_17_1204,N-Back (New Version 2021),2021.1.4,120.128201
,,,,Conditions/Version_1/zeroback(4)_v1.xlsx,New rule: Press 'space' when you see the letter 'x' or 'X'.,m,None,,,,,,,,,0,13,13,13,0,3,3,3,,,,,,,,,,,,,,,,,,,,,,,,,,,,,,,,,,,,,,,,,,,,,,,,,,,,,,,,,,,,,,,,,,,,,1.8346,931.8650788,None,None,1,931.8650788,None,,P029,FENCOG,1,Post,2022_Mar_17_1204,N-Back (New Version 2021),2021.1.4,120.128201
,,,,Conditions/Version_1/zeroback(4)_v1.xlsx,New rule: Press 'space' when you see the letter 'x' or 'X'.,n,None,,,,,,,,,0,13,13,13,0,4,4,4,,,,,,,,,,,,,,,,,,,,,,,,,,,,,,,,,,,,,,,,,,,,,,,,,,,,,,,,,,,,,,,,,,,,,1.5804,935.4476009,None,None,1,935.4476009,None,,P029,FENCOG,1,Post,2022_Mar_17_1204,N-Back (New Version 2021),2021.1.4,120.128201
,,,,Conditions/Version_1/zeroback(4)_v1.xlsx,New rule: Press 'space' when you see the letter 'x' or 'X'.,m,None,,,,,,,,,0,13,13,13,0,5,5,5,,,,,,,,,,,,,,,,,,,,,,,,,,,,,,,,,,,,,,,,,,,,,,,,,,,,,,,,,,,,,,,,,,,,,1.8284,939.2807475,None,None,1,939.2807475,None,,P029,FENCOG,1,Post,2022_Mar_17_1204,N-Back (New Version 2021),2021.1.4,120.128201
,,,,Conditions/Version_1/zeroback(4)_v1.xlsx,New rule: Press 'space' when you see the letter 'x' or 'X'.,C,None,,,,,,,,,0,13,13,13,0,6,6,6,,,,,,,,,,,,,,,,,,,,,,,,,,,,,,,,,,,,,,,,,,,,,,,,,,,,,,,,,,,,,,,,,,,,,1.289,942.5851737,None,None,1,942.5851737,None,,P029,FENCOG,1,Post,2022_Mar_17_1204,N-Back (New Version 2021),2021.1.4,120.128201
,,,,Conditions/Version_1/zeroback(4)_v1.xlsx,New rule: Press 'space' when you see the letter 'x' or 'X'.,m,None,,,,,,,,,0,13,13,13,0,7,7,7,,,,,,,,,,,,,,,,,,,,,,,,,,,,,,,,,,,,,,,,,,,,,,,,,,,,,,,,,,,,,,,,,,,,,1.227,945.8192921,None,None,1,945.8192921,None,,P029,FENCOG,1,Post,2022_Mar_17_1204,N-Back (New Version 2021),2021.1.4,120.128201
,,,,Conditions/Version_1/zeroback(4)_v1.xlsx,New rule: Press 'space' when you see the letter 'x' or 'X'.,p,None,,,,,,,,,0,13,13,13,0,8,8,8,,,,,,,,,,,,,,,,,,,,,,,,,,,,,,,,,,,,,,,,,,,,,,,,,,,,,,,,,,,,,,,,,,,,,1.7354,949.5626917,None,None,1,949.5626917,None,,P029,FENCOG,1,Post,2022_Mar_17_1204,N-Back (New Version 2021),2021.1.4,120.128201
,,,,Conditions/Version_1/zeroback(4)_v1.xlsx,New rule: Press 'space' when you see the letter 'x' or 'X'.,X,space,,,,,,,,,0,13,13,13,0,9,9,9,,,,,,,,,,,,,,,,,,,,,,,,,,,,,,,,,,,,,,,,,,,,,,,,,,,,,,,,,,,,,,,,,,,,,1.6858,953.2606928,None,space,1,953.2606928,None,0.6601962,P029,FENCOG,1,Post,2022_Mar_17_1204,N-Back (New Version 2021),2021.1.4,120.128201
,,,,Conditions/Version_1/zeroback(4)_v1.xlsx,New rule: Press 'space' when you see the letter 'x' or 'X'.,,,,,,,,,,,0,13,13,13,,,,,,,,,,,,,,,,,,,,,,,,,,,,,,,,,,,,,,,,,,,,,,,,,,,,,,,,,,,,,,,,,,,,,,,,,,,,,,,,,P029,FENCOG,1,Post,2022_Mar_17_1204,N-Back (New Version 2021),2021.1.4,120.128201
,,,,Conditions/Version_1/oneback(4)_v1.xlsx,New rule: Press 'space' when you see 1-back (i.e. the same letter as the one that appeared 1 letter ago.),w,None,,,,,,,,,0,14,14,14,0,0,0,0,,,,,,,,,,,,,,,,,,,,,,,,,,,,,,,,,,,,,,,,,,,,,,,,,,,,,,,,,,,955.2919547,None,958.2761177,None,space,0.5806831,958.2761177,None,955.2919547,None,1.3696,960.2512516,None,None,1,960.2512516,None,,P029,FENCOG,1,Post,2022_Mar_17_1204,N-Back (New Version 2021),2021.1.4,120.128201
,,,,Conditions/Version_1/oneback(4)_v1.xlsx,New rule: Press 'space' when you see 1-back (i.e. the same letter as the one that appeared 1 letter ago.),q,None,,,,,,,,,0,14,14,14,0,1,1,1,,,,,,,,,,,,,,,,,,,,,,,,,,,,,,,,,,,,,,,,,,,,,,,,,,,,,,,,,,,,,,,,,,,,,1.8408,964.0972129,None,None,1,964.0972129,None,,P029,FENCOG,1,Post,2022_Mar_17_1204,N-Back (New Version 2021),2021.1.4,120.128201
,,,,Conditions/Version_1/oneback(4)_v1.xlsx,New rule: Press 'space' when you see 1-back (i.e. the same letter as the one that appeared 1 letter ago.),i,None,,,,,,,,,0,14,14,14,0,2,2,2,,,,,,,,,,,,,,,,,,,,,,,,,,,,,,,,,,,,,,,,,,,,,,,,,,,,,,,,,,,,,,,,,,,,,1.8966,967.9960632,None,None,1,967.9960632,None,,P029,FENCOG,1,Post,2022_Mar_17_1204,N-Back (New Version 2021),2021.1.4,120.128201
,,,,Conditions/Version_1/oneback(4)_v1.xlsx,New rule: Press 'space' when you see 1-back (i.e. the same letter as the one that appeared 1 letter ago.),t,None,,,,,,,,,0,14,14,14,0,3,3,3,,,,,,,,,,,,,,,,,,,,,,,,,,,,,,,,,,,,,,,,,,,,,,,,,,,,,,,,,,,,,,,,,,,,,1.3882,971.386701,None,None,1,971.386701,None,,P029,FENCOG,1,Post,2022_Mar_17_1204,N-Back (New Version 2021),2021.1.4,120.128201
,,,,Conditions/Version_1/oneback(4)_v1.xlsx,New rule: Press 'space' when you see 1-back (i.e. the same letter as the one that appeared 1 letter ago.),v,None,,,,,,,,,0,14,14,14,0,4,4,4,,,,,,,,,,,,,,,,,,,,,,,,,,,,,,,,,,,,,,,,,,,,,,,,,,,,,,,,,,,,,,,,,,,,,1.8346,975.2333956,None,None,1,975.2333956,None,,P029,FENCOG,1,Post,2022_Mar_17_1204,N-Back (New Version 2021),2021.1.4,120.128201
,,,,Conditions/Version_1/oneback(4)_v1.xlsx,New rule: Press 'space' when you see 1-back (i.e. the same letter as the one that appeared 1 letter ago.),V,space,,,,,,,,,0,14,14,14,0,5,5,5,,,,,,,,,,,,,,,,,,,,,,,,,,,,,,,,,,,,,,,,,,,,,,,,,,,,,,,,,,,,,,,,,,,,,1.0348,978.2799853,None,space,1,978.2799853,None,0.7772389,P029,FENCOG,1,Post,2022_Mar_17_1204,N-Back (New Version 2021),2021.1.4,120.128201
,,,,Conditions/Version_1/oneback(4)_v1.xlsx,New rule: Press 'space' when you see 1-back (i.e. the same letter as the one that appeared 1 letter ago.),v,space,,,,,,,,,0,14,14,14,0,6,6,6,,,,,,,,,,,,,,,,,,,,,,,,,,,,,,,,,,,,,,,,,,,,,,,,,,,,,,,,,,,,,,,,,,,,,1.1216,981.4115182,None,space,1,981.4115182,None,0.5656036,P029,FENCOG,1,Post,2022_Mar_17_1204,N-Back (New Version 2021),2021.1.4,120.128201
,,,,Conditions/Version_1/oneback(4)_v1.xlsx,New rule: Press 'space' when you see 1-back (i.e. the same letter as the one that appeared 1 letter ago.),p,None,,,,,,,,,0,14,14,14,0,7,7,7,,,,,,,,,,,,,,,,,,,,,,,,,,,,,,,,,,,,,,,,,,,,,,,,,,,,,,,,,,,,,,,,,,,,,1.6424,985.0599993,None,None,1,985.0599993,None,,P029,FENCOG,1,Post,2022_Mar_17_1204,N-Back (New Version 2021),2021.1.4,120.128201
,,,,Conditions/Version_1/oneback(4)_v1.xlsx,New rule: Press 'space' when you see 1-back (i.e. the same letter as the one that appeared 1 letter ago.),w,None,,,,,,,,,0,14,14,14,0,8,8,8,,,,,,,,,,,,,,,,,,,,,,,,,,,,,,,,,,,,,,,,,,,,,,,,,,,,,,,,,,,,,,,,,,,,,1.9772,989.0489461,None,None,1,989.0489461,None,,P029,FENCOG,1,Post,2022_Mar_17_1204,N-Back (New Version 2021),2021.1.4,120.128201
,,,,Conditions/Version_1/oneback(4)_v1.xlsx,New rule: Press 'space' when you see 1-back (i.e. the same letter as the one that appeared 1 letter ago.),W,space,,,,,,,,,0,14,14,14,0,9,9,9,,,,,,,,,,,,,,,,,,,,,,,,,,,,,,,,,,,,,,,,,,,,,,,,,,,,,,,,,,,,,,,,,,,,,1.3448,992.3971862,None,space,1,992.3971862,None,0.4838579,P029,FENCOG,1,Post,2022_Mar_17_1204,N-Back (New Version 2021),2021.1.4,120.128201
,,,,Conditions/Version_1/oneback(4)_v1.xlsx,New rule: Press 'space' when you see 1-back (i.e. the same letter as the one that appeared 1 letter ago.),,,,,,,,,,,0,14,14,14,,,,,,,,,,,,,,,,,,,,,,,,,,,,,,,,,,,,,,,,,,,,,,,,,,,,,,,,,,,,,,,,,,,,,,,,,,,,,,,,,P029,FENCOG,1,Post,2022_Mar_17_1204,N-Back (New Version 2021),2021.1.4,120.128201
,,,,Conditions/Version_1/threeback(4)_v1.xlsx,New rule: Press 'space' when you see 3-back (i.e. the same letter as the one that appeared 3 letters ago.),A,None,,,,,,,,,0,15,15,15,0,0,0,0,,,,,,,,,,,,,,,,,,,,,,,,,,,,,,,,,,,,,,,,,,,,,,,,,,,,,,,,,,,994.4206498,None,997.4066252,None,space,27.9143404,997.4066252,None,994.4206498,None,1.909,1027.262987,None,None,1,1027.262987,None,,P029,FENCOG,1,Post,2022_Mar_17_1204,N-Back (New Version 2021),2021.1.4,120.128201
,,,,Conditions/Version_1/threeback(4)_v1.xlsx,New rule: Press 'space' when you see 3-back (i.e. the same letter as the one that appeared 3 letters ago.),n,None,,,,,,,,,0,15,15,15,0,1,1,1,,,,,,,,,,,,,,,,,,,,,,,,,,,,,,,,,,,,,,,,,,,,,,,,,,,,,,,,,,,,,,,,,,,,,1.1216,1030.395517,None,None,1,1030.395517,None,,P029,FENCOG,1,Post,2022_Mar_17_1204,N-Back (New Version 2021),2021.1.4,120.128201
,,,,Conditions/Version_1/threeback(4)_v1.xlsx,New rule: Press 'space' when you see 3-back (i.e. the same letter as the one that appeared 3 letters ago.),g,None,,,,,,,,,0,15,15,15,0,2,2,2,,,,,,,,,,,,,,,,,,,,,,,,,,,,,,,,,,,,,,,,,,,,,,,,,,,,,,,,,,,,,,,,,,,,,1.5556,1033.960543,None,None,1,1033.960543,None,,P029,FENCOG,1,Post,2022_Mar_17_1204,N-Back (New Version 2021),2021.1.4,120.128201
,,,,Conditions/Version_1/threeback(4)_v1.xlsx,New rule: Press 'space' when you see 3-back (i.e. the same letter as the one that appeared 3 letters ago.),A,space,,,,,,,,,0,15,15,15,0,3,3,3,,,,,,,,,,,,,,,,,,,,,,,,,,,,,,,,,,,,,,,,,,,,,,,,,,,,,,,,,,,,,,,,,,,,,1.6672,1037.633954,None,space,1,1037.633954,None,0.6069789,P029,FENCOG,1,Post,2022_Mar_17_1204,N-Back (New Version 2021),2021.1.4,120.128201
,,,,Conditions/Version_1/threeback(4)_v1.xlsx,New rule: Press 'space' when you see 3-back (i.e. the same letter as the one that appeared 3 letters ago.),p,None,,,,,,,,,0,15,15,15,0,4,4,4,,,,,,,,,,,,,,,,,,,,,,,,,,,,,,,,,,,,,,,,,,,,,,,,,,,,,,,,,,,,,,,,,,,,,1.7788,1041.41693,None,None,1,1041.41693,None,,P029,FENCOG,1,Post,2022_Mar_17_1204,N-Back (New Version 2021),2021.1.4,120.128201
,,,,Conditions/Version_1/threeback(4)_v1.xlsx,New rule: Press 'space' when you see 3-back (i.e. the same letter as the one that appeared 3 letters ago.),O,None,,,,,,,,,0,15,15,15,0,5,5,5,,,,,,,,,,,,,,,,,,,,,,,,,,,,,,,,,,,,,,,,,,,,,,,,,,,,,,,,,,,,,,,,,,,,,1.506,1044.931781,None,None,1,1044.931781,None,,P029,FENCOG,1,Post,2022_Mar_17_1204,N-Back (New Version 2021),2021.1.4,120.128201
,,,,Conditions/Version_1/threeback(4)_v1.xlsx,New rule: Press 'space' when you see 3-back (i.e. the same letter as the one that appeared 3 letters ago.),a,space,,,,,,,,,0,15,15,15,0,6,6,6,,,,,,,,,,,,,,,,,,,,,,,,,,,,,,,,,,,,,,,,,,,,,,,,,,,,,,,,,,,,,,,,,,,,,1.8284,1048.763888,None,space,1,1048.763888,None,0.7490767,P029,FENCOG,1,Post,2022_Mar_17_1204,N-Back (New Version 2021),2021.1.4,120.128201
,,,,Conditions/Version_1/threeback(4)_v1.xlsx,New rule: Press 'space' when you see 3-back (i.e. the same letter as the one that appeared 3 letters ago.),p,space,,,,,,,,,0,15,15,15,0,7,7,7,,,,,,,,,,,,,,,,,,,,,,,,,,,,,,,,,,,,,,,,,,,,,,,,,,,,,,,,,,,,,,,,,,,,,1.537,1052.304748,None,space,1,1052.304748,None,0.8560975,P029,FENCOG,1,Post,2022_Mar_17_1204,N-Back (New Version 2021),2021.1.4,120.128201
,,,,Conditions/Version_1/threeback(4)_v1.xlsx,New rule: Press 'space' when you see 3-back (i.e. the same letter as the one that appeared 3 letters ago.),x,None,,,,,,,,,0,15,15,15,0,8,8,8,,,,,,,,,,,,,,,,,,,,,,,,,,,,,,,,,,,,,,,,,,,,,,,,,,,,,,,,,,,,,,,,,,,,,1.9772,1056.286659,None,None,1,1056.286659,None,,P029,FENCOG,1,Post,2022_Mar_17_1204,N-Back (New Version 2021),2021.1.4,120.128201
,,,,Conditions/Version_1/threeback(4)_v1.xlsx,New rule: Press 'space' when you see 3-back (i.e. the same letter as the one that appeared 3 letters ago.),X,None,,,,,,,,,0,15,15,15,0,9,9,9,,,,,,,,,,,,,,,,,,,,,,,,,,,,,,,,,,,,,,,,,,,,,,,,,,,,,,,,,,,,,,,,,,,,,1.134,1059.427572,None,None,1,1059.427572,None,,P029,FENCOG,1,Post,2022_Mar_17_1204,N-Back (New Version 2021),2021.1.4,120.128201
,,,,Conditions/Version_1/threeback(4)_v1.xlsx,New rule: Press 'space' when you see 3-back (i.e. the same letter as the one that appeared 3 letters ago.),,,,,,,,,,,0,15,15,15,,,,,,,,,,,,,,,,,,,,,,,,,,,,,,,,,,,,,,,,,,,,,,,,,,,,,,,,,,,,,,,,,,,,,,,,,,,,,,,,,P029,FENCOG,1,Post,2022_Mar_17_1204,N-Back (New Version 2021),2021.1.4,120.128201
